subject_nr,block,trialnr,trial_target,trial_prime,prime_color,prime_role,prime_us,prime_relation,correct_response,target_valence,prime_valence,color_counter,correct_first_response,response_first_response,response_time_first_response,fixation_show,prime_show,target_show
30,first,0,einsam,IAT_purple1.bmp,purple,ending_melody,melody,ending,c,negative,negative,ES_yellow,1,c,750,1374139,1374643,1374847
30,first,1,ehrlich,IAT_yellow3.bmp,yellow,ending_scream,scream,ending,m,positive,positive,ES_yellow,1,m,795,1376675,1377180,1377384
30,first,2,kaputt,IAT_green4.bmp,green,starting_scream,scream,starting,c,negative,negative,ES_yellow,1,c,564,1379254,1379759,1379963
30,first,3,witzig,IAT_yellow3.bmp,yellow,ending_scream,scream,ending,m,positive,positive,ES_yellow,1,m,508,1381601,1382105,1382309
30,first,4,gierig,IAT_purple4.bmp,purple,ending_melody,melody,ending,c,negative,negative,ES_yellow,1,c,549,1383891,1384395,1384599
30,first,5,teuer,IAT_purple4.bmp,purple,ending_melody,melody,ending,c,negative,negative,ES_yellow,1,c,713,1386223,1386727,1386931
30,first,6,lustig,IAT_green3.bmp,green,starting_scream,scream,starting,m,positive,negative,ES_yellow,1,m,590,1388720,1389224,1389428
30,first,7,schön,IAT_red1.bmp,red,starting_melody,melody,starting,m,positive,positive,ES_yellow,1,m,507,1391093,1391597,1391801
30,first,8,falsch,IAT_purple2.bmp,purple,ending_melody,melody,ending,c,negative,negative,ES_yellow,1,c,497,1393382,1393886,1394091
30,first,9,munter,IAT_yellow3.bmp,yellow,ending_scream,scream,ending,m,positive,positive,ES_yellow,1,m,677,1395663,1396167,1396371
30,first,10,sozial,IAT_purple1.bmp,purple,ending_melody,melody,ending,m,positive,negative,ES_yellow,1,m,539,1398123,1398627,1398831
30,first,11,morsch,IAT_yellow2.bmp,yellow,ending_scream,scream,ending,c,negative,positive,ES_yellow,1,c,778,1400447,1400951,1401155
30,first,12,lustig,IAT_purple1.bmp,purple,ending_melody,melody,ending,m,positive,negative,ES_yellow,1,m,527,1403009,1403513,1403717
30,first,13,sonnig,IAT_green1.bmp,green,starting_scream,scream,starting,m,positive,negative,ES_yellow,1,m,506,1405318,1405823,1406027
30,first,14,heiter,IAT_purple1.bmp,purple,ending_melody,melody,ending,m,positive,negative,ES_yellow,1,m,557,1407608,1408113,1408317
30,first,15,streng,IAT_green4.bmp,green,starting_scream,scream,starting,c,negative,negative,ES_yellow,1,c,577,1409950,1410454,1410658
30,first,16,feige,IAT_green2.bmp,green,starting_scream,scream,starting,c,negative,negative,ES_yellow,1,c,1199,1412309,1412813,1413017
30,first,17,lustig,IAT_red2.bmp,red,starting_melody,melody,starting,m,positive,positive,ES_yellow,1,m,514,1415292,1415796,1416001
30,first,18,gerecht,IAT_yellow1.bmp,yellow,ending_scream,scream,ending,m,positive,positive,ES_yellow,1,m,582,1417590,1418094,1418298
30,first,19,schön,IAT_yellow4.bmp,yellow,ending_scream,scream,ending,m,positive,positive,ES_yellow,1,m,396,1419956,1420461,1420665
30,first,20,krank,IAT_purple1.bmp,purple,ending_melody,melody,ending,c,negative,negative,ES_yellow,1,c,454,1422137,1422642,1422846
30,first,21,sonnig,IAT_purple4.bmp,purple,ending_melody,melody,ending,m,positive,negative,ES_yellow,1,m,509,1424375,1424879,1425083
30,first,22,munter,IAT_yellow1.bmp,yellow,ending_scream,scream,ending,m,positive,positive,ES_yellow,1,m,461,1426669,1427173,1427377
30,first,23,gierig,IAT_red3.bmp,red,starting_melody,melody,starting,c,negative,positive,ES_yellow,1,c,542,1428915,1429419,1429623
30,first,24,sozial,IAT_green4.bmp,green,starting_scream,scream,starting,m,positive,negative,ES_yellow,1,m,734,1431240,1431745,1431949
30,first,25,sanft,IAT_purple3.bmp,purple,ending_melody,melody,ending,m,positive,negative,ES_yellow,1,m,570,1433757,1434262,1434466
30,first,26,gerecht,IAT_yellow1.bmp,yellow,ending_scream,scream,ending,m,positive,positive,ES_yellow,1,m,563,1436112,1436616,1436820
30,first,27,witzig,IAT_red4.bmp,red,starting_melody,melody,starting,m,positive,positive,ES_yellow,1,m,505,1438458,1438962,1439166
30,first,28,streng,IAT_purple2.bmp,purple,ending_melody,melody,ending,c,negative,negative,ES_yellow,1,c,500,1440747,1441251,1441455
30,first,29,teuer,IAT_purple4.bmp,purple,ending_melody,melody,ending,c,negative,negative,ES_yellow,1,c,728,1443030,1443534,1443738
30,first,30,einsam,IAT_red4.bmp,red,starting_melody,melody,starting,c,negative,positive,ES_yellow,1,c,685,1445541,1446046,1446251
30,first,31,schön,IAT_purple2.bmp,purple,ending_melody,melody,ending,m,positive,negative,ES_yellow,1,m,458,1448011,1448515,1448719
30,first,32,krank,IAT_green2.bmp,green,starting_scream,scream,starting,c,negative,negative,ES_yellow,1,c,617,1450252,1450756,1450960
30,first,33,gierig,IAT_red3.bmp,red,starting_melody,melody,starting,c,negative,positive,ES_yellow,1,c,610,1452651,1453155,1453359
30,first,34,sonnig,IAT_yellow1.bmp,yellow,ending_scream,scream,ending,m,positive,positive,ES_yellow,1,m,736,1455046,1455550,1455755
30,first,35,streng,IAT_yellow4.bmp,yellow,ending_scream,scream,ending,c,negative,positive,ES_yellow,1,c,562,1457567,1458071,1458275
30,first,36,morsch,IAT_yellow4.bmp,yellow,ending_scream,scream,ending,c,negative,positive,ES_yellow,1,c,567,1459912,1460417,1460621
30,first,37,feige,IAT_red4.bmp,red,starting_melody,melody,starting,c,negative,positive,ES_yellow,1,c,579,1462263,1462768,1462972
30,first,38,lästig,IAT_yellow1.bmp,yellow,ending_scream,scream,ending,c,negative,positive,ES_yellow,1,c,571,1464627,1465131,1465335
30,first,39,gesund,IAT_green2.bmp,green,starting_scream,scream,starting,m,positive,negative,ES_yellow,1,m,526,1466980,1467484,1467688
30,first,40,falsch,IAT_yellow2.bmp,yellow,ending_scream,scream,ending,c,negative,positive,ES_yellow,1,c,549,1469290,1469794,1469998
30,first,41,krank,IAT_green2.bmp,green,starting_scream,scream,starting,c,negative,negative,ES_yellow,1,c,546,1471623,1472127,1472332
30,first,42,geizig,IAT_green1.bmp,green,starting_scream,scream,starting,c,negative,negative,ES_yellow,1,c,737,1473952,1474457,1474661
30,first,43,lästig,IAT_red2.bmp,red,starting_melody,melody,starting,c,negative,positive,ES_yellow,1,c,520,1476473,1476978,1477182
30,first,44,sonnig,IAT_red3.bmp,red,starting_melody,melody,starting,m,positive,positive,ES_yellow,1,m,442,1478778,1479282,1479486
30,first,45,kaputt,IAT_yellow1.bmp,yellow,ending_scream,scream,ending,c,negative,positive,ES_yellow,1,c,518,1481004,1481508,1481712
30,first,46,ehrlich,IAT_red2.bmp,red,starting_melody,melody,starting,m,positive,positive,ES_yellow,1,m,708,1483306,1483810,1484014
30,first,47,human,IAT_green1.bmp,green,starting_scream,scream,starting,m,positive,negative,ES_yellow,1,m,726,1485797,1486302,1486506
30,first,48,heiter,IAT_green3.bmp,green,starting_scream,scream,starting,m,positive,negative,ES_yellow,1,m,626,1488308,1488812,1489016
30,first,49,feige,IAT_purple4.bmp,purple,ending_melody,melody,ending,c,negative,negative,ES_yellow,1,c,510,1490718,1491222,1491426
30,first,50,munter,IAT_green1.bmp,green,starting_scream,scream,starting,m,positive,negative,ES_yellow,1,m,507,1493010,1493515,1493719
30,first,51,heiter,IAT_green2.bmp,green,starting_scream,scream,starting,m,positive,negative,ES_yellow,1,m,572,1495301,1495805,1496009
30,first,52,human,IAT_purple3.bmp,purple,ending_melody,melody,ending,m,positive,negative,ES_yellow,1,m,564,1497656,1498161,1498365
30,first,53,geizig,IAT_red4.bmp,red,starting_melody,melody,starting,c,negative,positive,ES_yellow,1,c,630,1500004,1500509,1500713
30,first,54,teuer,IAT_red1.bmp,red,starting_melody,melody,starting,c,negative,positive,ES_yellow,1,c,644,1502419,1502923,1503127
30,first,55,krank,IAT_green4.bmp,green,starting_scream,scream,starting,c,negative,negative,ES_yellow,1,c,506,1504846,1505350,1505554
30,first,56,brutal,IAT_green2.bmp,green,starting_scream,scream,starting,c,negative,negative,ES_yellow,1,c,498,1507137,1507641,1507845
30,first,57,morsch,IAT_purple3.bmp,purple,ending_melody,melody,ending,c,negative,negative,ES_yellow,1,c,507,1509418,1509922,1510126
30,first,58,geizig,IAT_green3.bmp,green,starting_scream,scream,starting,c,negative,negative,ES_yellow,1,c,398,1511710,1512215,1512419
30,first,59,sanft,IAT_purple3.bmp,purple,ending_melody,melody,ending,m,positive,negative,ES_yellow,1,m,455,1513892,1514397,1514601
30,first,60,teuer,IAT_green4.bmp,green,starting_scream,scream,starting,c,negative,negative,ES_yellow,1,c,574,1516131,1516636,1516841
30,first,61,lustig,IAT_green3.bmp,green,starting_scream,scream,starting,m,positive,negative,ES_yellow,1,m,505,1518491,1518995,1519199
30,first,62,gerecht,IAT_red1.bmp,red,starting_melody,melody,starting,m,positive,positive,ES_yellow,1,m,500,1520781,1521285,1521489
30,first,63,kaputt,IAT_red2.bmp,red,starting_melody,melody,starting,c,negative,positive,ES_yellow,1,c,527,1523065,1523570,1523774
30,first,64,gesund,IAT_red4.bmp,red,starting_melody,melody,starting,m,positive,positive,ES_yellow,1,m,529,1525377,1525882,1526086
30,first,65,witzig,IAT_green4.bmp,green,starting_scream,scream,starting,m,positive,negative,ES_yellow,0,c,521,1527691,1528195,1528399
30,first,66,geizig,IAT_purple2.bmp,purple,ending_melody,melody,ending,c,negative,negative,ES_yellow,1,c,546,1530497,1531001,1531205
30,first,67,human,IAT_yellow2.bmp,yellow,ending_scream,scream,ending,m,positive,positive,ES_yellow,1,m,667,1532827,1533331,1533535
30,first,68,ehrlich,IAT_green3.bmp,green,starting_scream,scream,starting,m,positive,negative,ES_yellow,1,m,442,1535277,1535782,1535986
30,first,69,einsam,IAT_yellow4.bmp,yellow,ending_scream,scream,ending,c,negative,positive,ES_yellow,1,c,637,1537504,1538008,1538212
30,first,70,falsch,IAT_yellow3.bmp,yellow,ending_scream,scream,ending,c,negative,positive,ES_yellow,1,c,673,1539924,1540428,1540632
30,first,71,munter,IAT_yellow2.bmp,yellow,ending_scream,scream,ending,m,positive,positive,ES_yellow,1,m,497,1542380,1542884,1543088
30,first,72,sozial,IAT_purple4.bmp,purple,ending_melody,melody,ending,m,positive,negative,ES_yellow,1,m,562,1544660,1545165,1545369
30,first,73,gierig,IAT_red2.bmp,red,starting_melody,melody,starting,c,negative,positive,ES_yellow,1,c,555,1547007,1547511,1547715
30,first,74,ehrlich,IAT_purple2.bmp,purple,ending_melody,melody,ending,m,positive,negative,ES_yellow,1,m,498,1549346,1549851,1550055
30,first,75,gerecht,IAT_yellow3.bmp,yellow,ending_scream,scream,ending,m,positive,positive,ES_yellow,1,m,621,1551627,1552132,1552336
30,first,76,schön,IAT_red3.bmp,red,starting_melody,melody,starting,m,positive,positive,ES_yellow,1,m,538,1554032,1554536,1554740
30,first,77,heiter,IAT_red1.bmp,red,starting_melody,melody,starting,m,positive,positive,ES_yellow,1,m,579,1556353,1556857,1557061
30,first,78,sanft,IAT_purple3.bmp,purple,ending_melody,melody,ending,m,positive,negative,ES_yellow,1,m,589,1558714,1559218,1559422
30,first,79,brutal,IAT_red2.bmp,red,starting_melody,melody,starting,c,negative,positive,ES_yellow,1,c,472,1561087,1561592,1561796
30,first,80,einsam,IAT_yellow2.bmp,yellow,ending_scream,scream,ending,c,negative,positive,ES_yellow,1,c,625,1563344,1563848,1564052
30,first,81,brutal,IAT_red1.bmp,red,starting_melody,melody,starting,c,negative,positive,ES_yellow,1,c,647,1565752,1566257,1566461
30,first,82,human,IAT_purple1.bmp,purple,ending_melody,melody,ending,m,positive,negative,ES_yellow,1,m,608,1568183,1568687,1568891
30,first,83,lästig,IAT_yellow2.bmp,yellow,ending_scream,scream,ending,c,negative,positive,ES_yellow,1,c,748,1570575,1571079,1571283
30,first,84,feige,IAT_green3.bmp,green,starting_scream,scream,starting,c,negative,negative,ES_yellow,1,c,511,1573106,1573611,1573815
30,first,85,streng,IAT_green1.bmp,green,starting_scream,scream,starting,c,negative,negative,ES_yellow,1,c,732,1575400,1575904,1576108
30,first,86,brutal,IAT_yellow3.bmp,yellow,ending_scream,scream,ending,c,negative,positive,ES_yellow,1,c,552,1577914,1578418,1578623
30,first,87,lästig,IAT_purple3.bmp,purple,ending_melody,melody,ending,c,negative,negative,ES_yellow,1,c,531,1580250,1580754,1580958
30,first,88,gesund,IAT_red3.bmp,red,starting_melody,melody,starting,m,positive,positive,ES_yellow,1,m,532,1582565,1583070,1583274
30,first,89,sanft,IAT_red3.bmp,red,starting_melody,melody,starting,m,positive,positive,ES_yellow,1,m,597,1584881,1585385,1585589
30,first,90,sozial,IAT_red1.bmp,red,starting_melody,melody,starting,m,positive,positive,ES_yellow,1,m,654,1587260,1587765,1587969
30,first,91,falsch,IAT_red4.bmp,red,starting_melody,melody,starting,c,negative,positive,ES_yellow,1,c,594,1589698,1590202,1590406
30,first,92,gesund,IAT_green1.bmp,green,starting_scream,scream,starting,m,positive,negative,ES_yellow,1,m,652,1592076,1592580,1592784
30,first,93,morsch,IAT_purple2.bmp,purple,ending_melody,melody,ending,c,negative,negative,ES_yellow,1,c,544,1594512,1595016,1595221
30,first,94,kaputt,IAT_yellow4.bmp,yellow,ending_scream,scream,ending,c,negative,positive,ES_yellow,1,c,551,1596840,1597344,1597548
30,first,95,witzig,IAT_yellow4.bmp,yellow,ending_scream,scream,ending,m,positive,positive,ES_yellow,1,m,713,1599174,1599678,1599882
30,second,0,brutal,IAT_red1.bmp,red,starting_melody,melody,starting,c,negative,positive,ES_yellow,1,c,637,1615388,1615892,1616096
30,second,1,feige,IAT_red4.bmp,red,starting_melody,melody,starting,c,negative,positive,ES_yellow,1,c,444,1617808,1618312,1618516
30,second,2,sonnig,IAT_purple3.bmp,purple,ending_melody,melody,ending,m,positive,negative,ES_yellow,1,m,398,1620032,1620537,1620741
30,second,3,brutal,IAT_green2.bmp,green,starting_scream,scream,starting,c,negative,negative,ES_yellow,1,c,476,1622211,1622716,1622920
30,second,4,falsch,IAT_yellow4.bmp,yellow,ending_scream,scream,ending,c,negative,positive,ES_yellow,1,c,558,1624469,1624974,1625178
30,second,5,gerecht,IAT_green1.bmp,green,starting_scream,scream,starting,m,positive,negative,ES_yellow,1,m,503,1626808,1627313,1627517
30,second,6,krank,IAT_green4.bmp,green,starting_scream,scream,starting,c,negative,negative,ES_yellow,1,c,529,1629094,1629598,1629802
30,second,7,gierig,IAT_red3.bmp,red,starting_melody,melody,starting,c,negative,positive,ES_yellow,1,c,578,1631405,1631909,1632113
30,second,8,munter,IAT_purple4.bmp,purple,ending_melody,melody,ending,m,positive,negative,ES_yellow,1,m,463,1633764,1634268,1634472
30,second,9,morsch,IAT_yellow2.bmp,yellow,ending_scream,scream,ending,c,negative,positive,ES_yellow,1,c,644,1636009,1636513,1636717
30,second,10,gierig,IAT_purple4.bmp,purple,ending_melody,melody,ending,c,negative,negative,ES_yellow,1,c,542,1638434,1638939,1639143
30,second,11,brutal,IAT_green3.bmp,green,starting_scream,scream,starting,c,negative,negative,ES_yellow,1,c,490,1640758,1641262,1641466
30,second,12,heiter,IAT_yellow3.bmp,yellow,ending_scream,scream,ending,m,positive,positive,ES_yellow,1,m,546,1643029,1643534,1643738
30,second,13,krank,IAT_yellow4.bmp,yellow,ending_scream,scream,ending,c,negative,positive,ES_yellow,1,c,594,1645359,1645863,1646067
30,second,14,streng,IAT_red1.bmp,red,starting_melody,melody,starting,c,negative,positive,ES_yellow,1,c,566,1647734,1648239,1648443
30,second,15,gesund,IAT_green1.bmp,green,starting_scream,scream,starting,m,positive,negative,ES_yellow,1,m,845,1650083,1650587,1650791
30,second,16,lustig,IAT_yellow2.bmp,yellow,ending_scream,scream,ending,m,positive,positive,ES_yellow,1,m,638,1652710,1653214,1653418
30,second,17,witzig,IAT_green3.bmp,green,starting_scream,scream,starting,m,positive,negative,ES_yellow,0,c,680,1655130,1655634,1655838
30,second,18,sanft,IAT_green2.bmp,green,starting_scream,scream,starting,m,positive,negative,ES_yellow,1,m,507,1658093,1658598,1658802
30,second,19,falsch,IAT_yellow4.bmp,yellow,ending_scream,scream,ending,c,negative,positive,ES_yellow,1,c,901,1660383,1660888,1661092
30,second,20,gesund,IAT_red1.bmp,red,starting_melody,melody,starting,m,positive,positive,ES_yellow,1,m,497,1663067,1663571,1663775
30,second,21,human,IAT_green3.bmp,green,starting_scream,scream,starting,m,positive,negative,ES_yellow,1,m,471,1665346,1665850,1666054
30,second,22,streng,IAT_purple1.bmp,purple,ending_melody,melody,ending,c,negative,negative,ES_yellow,1,c,1063,1667599,1668103,1668307
30,second,23,sanft,IAT_purple3.bmp,purple,ending_melody,melody,ending,m,positive,negative,ES_yellow,1,m,741,1670443,1670947,1671151
30,second,24,gierig,IAT_yellow1.bmp,yellow,ending_scream,scream,ending,c,negative,positive,ES_yellow,1,c,714,1672966,1673471,1673675
30,second,25,geizig,IAT_green3.bmp,green,starting_scream,scream,starting,c,negative,negative,ES_yellow,1,c,609,1675463,1675967,1676171
30,second,26,feige,IAT_yellow3.bmp,yellow,ending_scream,scream,ending,c,negative,positive,ES_yellow,1,c,421,1677855,1678359,1678563
30,second,27,gerecht,IAT_green3.bmp,green,starting_scream,scream,starting,m,positive,negative,ES_yellow,1,m,492,1680058,1680562,1680766
30,second,28,teuer,IAT_yellow3.bmp,yellow,ending_scream,scream,ending,c,negative,positive,ES_yellow,0,m,458,1682332,1682836,1683040
30,second,29,gesund,IAT_yellow3.bmp,yellow,ending_scream,scream,ending,m,positive,positive,ES_yellow,1,m,534,1685072,1685577,1685781
30,second,30,lästig,IAT_yellow2.bmp,yellow,ending_scream,scream,ending,c,negative,positive,ES_yellow,1,c,617,1687389,1687893,1688097
30,second,31,heiter,IAT_purple2.bmp,purple,ending_melody,melody,ending,m,positive,negative,ES_yellow,1,m,961,1689788,1690293,1690497
30,second,32,einsam,IAT_yellow2.bmp,yellow,ending_scream,scream,ending,c,negative,positive,ES_yellow,1,c,712,1692532,1693037,1693241
30,second,33,human,IAT_green1.bmp,green,starting_scream,scream,starting,m,positive,negative,ES_yellow,1,m,565,1695027,1695532,1695736
30,second,34,morsch,IAT_green2.bmp,green,starting_scream,scream,starting,c,negative,negative,ES_yellow,1,c,564,1697375,1697879,1698083
30,second,35,heiter,IAT_red2.bmp,red,starting_melody,melody,starting,m,positive,positive,ES_yellow,1,m,563,1699721,1700225,1700429
30,second,36,teuer,IAT_red2.bmp,red,starting_melody,melody,starting,c,negative,positive,ES_yellow,1,c,774,1702066,1702570,1702774
30,second,37,lustig,IAT_red4.bmp,red,starting_melody,melody,starting,m,positive,positive,ES_yellow,1,m,816,1704623,1705128,1705332
30,second,38,feige,IAT_green1.bmp,green,starting_scream,scream,starting,c,negative,negative,ES_yellow,1,c,548,1707221,1707726,1707930
30,second,39,teuer,IAT_purple3.bmp,purple,ending_melody,melody,ending,c,negative,negative,ES_yellow,1,c,672,1709551,1710056,1710260
30,second,40,heiter,IAT_green3.bmp,green,starting_scream,scream,starting,m,positive,negative,ES_yellow,0,c,1205,1712006,1712511,1712715
30,second,41,human,IAT_purple1.bmp,purple,ending_melody,melody,ending,m,positive,negative,ES_yellow,1,m,626,1715493,1715998,1716202
30,second,42,falsch,IAT_green4.bmp,green,starting_scream,scream,starting,c,negative,negative,ES_yellow,1,c,625,1717902,1718406,1718610
30,second,43,streng,IAT_purple2.bmp,purple,ending_melody,melody,ending,c,negative,negative,ES_yellow,1,c,670,1720309,1720814,1721018
30,second,44,geizig,IAT_green4.bmp,green,starting_scream,scream,starting,c,negative,negative,ES_yellow,1,c,445,1722762,1723266,1723470
30,second,45,witzig,IAT_purple2.bmp,purple,ending_melody,melody,ending,m,positive,negative,ES_yellow,1,m,523,1724989,1725493,1725697
30,second,46,lästig,IAT_purple3.bmp,purple,ending_melody,melody,ending,c,negative,negative,ES_yellow,1,c,1062,1727294,1727799,1728003
30,second,47,geizig,IAT_red2.bmp,red,starting_melody,melody,starting,c,negative,positive,ES_yellow,1,c,678,1730140,1730644,1730848
30,second,48,morsch,IAT_purple4.bmp,purple,ending_melody,melody,ending,c,negative,negative,ES_yellow,1,c,563,1732599,1733104,1733308
30,second,49,ehrlich,IAT_red3.bmp,red,starting_melody,melody,starting,m,positive,positive,ES_yellow,1,m,635,1734945,1735449,1735653
30,second,50,munter,IAT_red1.bmp,red,starting_melody,melody,starting,m,positive,positive,ES_yellow,1,m,568,1737362,1737866,1738070
30,second,51,streng,IAT_red4.bmp,red,starting_melody,melody,starting,c,negative,positive,ES_yellow,1,c,666,1739713,1740217,1740421
30,second,52,human,IAT_red3.bmp,red,starting_melody,melody,starting,m,positive,positive,ES_yellow,1,m,702,1742161,1742666,1742871
30,second,53,geizig,IAT_purple4.bmp,purple,ending_melody,melody,ending,c,negative,negative,ES_yellow,1,c,674,1744647,1745152,1745356
30,second,54,kaputt,IAT_green2.bmp,green,starting_scream,scream,starting,c,negative,negative,ES_yellow,1,c,787,1747104,1747608,1747812
30,second,55,sozial,IAT_purple1.bmp,purple,ending_melody,melody,ending,m,positive,negative,ES_yellow,1,m,590,1749673,1750178,1750382
30,second,56,brutal,IAT_purple4.bmp,purple,ending_melody,melody,ending,c,negative,negative,ES_yellow,1,c,492,1752046,1752550,1752754
30,second,57,sanft,IAT_yellow1.bmp,yellow,ending_scream,scream,ending,m,positive,positive,ES_yellow,1,m,573,1754320,1754824,1755028
30,second,58,witzig,IAT_green2.bmp,green,starting_scream,scream,starting,m,positive,negative,ES_yellow,1,m,585,1756674,1757179,1757383
30,second,59,sozial,IAT_purple3.bmp,purple,ending_melody,melody,ending,m,positive,negative,ES_yellow,1,m,952,1759042,1759546,1759751
30,second,60,lästig,IAT_green1.bmp,green,starting_scream,scream,starting,c,negative,negative,ES_yellow,1,c,642,1761777,1762282,1762486
30,second,61,sonnig,IAT_yellow1.bmp,yellow,ending_scream,scream,ending,m,positive,positive,ES_yellow,1,m,475,1764204,1764708,1764912
30,second,62,sozial,IAT_purple1.bmp,purple,ending_melody,melody,ending,m,positive,negative,ES_yellow,1,m,532,1766461,1766966,1767170
30,second,63,einsam,IAT_purple2.bmp,purple,ending_melody,melody,ending,c,negative,negative,ES_yellow,1,c,543,1768777,1769282,1769486
30,second,64,feige,IAT_purple1.bmp,purple,ending_melody,melody,ending,c,negative,negative,ES_yellow,1,c,478,1771103,1771608,1771812
30,second,65,kaputt,IAT_green2.bmp,green,starting_scream,scream,starting,c,negative,negative,ES_yellow,1,c,557,1773365,1773869,1774073
30,second,66,sonnig,IAT_yellow3.bmp,yellow,ending_scream,scream,ending,m,positive,positive,ES_yellow,1,m,562,1775704,1776208,1776412
30,second,67,krank,IAT_red3.bmp,red,starting_melody,melody,starting,c,negative,positive,ES_yellow,1,c,376,1778048,1778552,1778756
30,second,68,kaputt,IAT_purple2.bmp,purple,ending_melody,melody,ending,c,negative,negative,ES_yellow,1,c,547,1780207,1780712,1780916
30,second,69,lästig,IAT_red2.bmp,red,starting_melody,melody,starting,c,negative,positive,ES_yellow,1,c,530,1782540,1783044,1783248
30,second,70,morsch,IAT_yellow1.bmp,yellow,ending_scream,scream,ending,c,negative,positive,ES_yellow,1,c,578,1784853,1785357,1785561
30,second,71,witzig,IAT_red3.bmp,red,starting_melody,melody,starting,m,positive,positive,ES_yellow,1,m,543,1787215,1787719,1787923
30,second,72,einsam,IAT_red2.bmp,red,starting_melody,melody,starting,c,negative,positive,ES_yellow,1,c,560,1789540,1790044,1790248
30,second,73,gierig,IAT_red4.bmp,red,starting_melody,melody,starting,c,negative,positive,ES_yellow,1,c,671,1791882,1792386,1792590
30,second,74,ehrlich,IAT_yellow2.bmp,yellow,ending_scream,scream,ending,m,positive,positive,ES_yellow,1,m,513,1794337,1794841,1795045
30,second,75,schön,IAT_purple4.bmp,purple,ending_melody,melody,ending,m,positive,negative,ES_yellow,1,m,577,1796632,1797136,1797341
30,second,76,munter,IAT_red2.bmp,red,starting_melody,melody,starting,m,positive,positive,ES_yellow,1,m,486,1798992,1799496,1799701
30,second,77,kaputt,IAT_red4.bmp,red,starting_melody,melody,starting,c,negative,positive,ES_yellow,1,c,474,1801261,1801765,1801969
30,second,78,einsam,IAT_yellow4.bmp,yellow,ending_scream,scream,ending,c,negative,positive,ES_yellow,1,c,564,1803517,1804022,1804226
30,second,79,krank,IAT_green4.bmp,green,starting_scream,scream,starting,c,negative,negative,ES_yellow,1,c,515,1805865,1806369,1806573
30,second,80,teuer,IAT_yellow2.bmp,yellow,ending_scream,scream,ending,c,negative,positive,ES_yellow,1,c,510,1808163,1808668,1808872
30,second,81,schön,IAT_green1.bmp,green,starting_scream,scream,starting,m,positive,negative,ES_yellow,1,m,502,1810457,1810961,1811165
30,second,82,ehrlich,IAT_green4.bmp,green,starting_scream,scream,starting,m,positive,negative,ES_yellow,1,m,649,1812742,1813246,1813450
30,second,83,sonnig,IAT_red3.bmp,red,starting_melody,melody,starting,m,positive,positive,ES_yellow,1,m,519,1815174,1815678,1815882
30,second,84,munter,IAT_purple1.bmp,purple,ending_melody,melody,ending,m,positive,negative,ES_yellow,1,m,550,1817475,1817979,1818183
30,second,85,sanft,IAT_yellow4.bmp,yellow,ending_scream,scream,ending,m,positive,positive,ES_yellow,1,m,520,1819808,1820313,1820517
30,second,86,lustig,IAT_yellow4.bmp,yellow,ending_scream,scream,ending,m,positive,positive,ES_yellow,1,m,476,1822113,1822618,1822822
30,second,87,falsch,IAT_purple2.bmp,purple,ending_melody,melody,ending,c,negative,negative,ES_yellow,1,c,653,1824373,1824878,1825082
30,second,88,gerecht,IAT_purple3.bmp,purple,ending_melody,melody,ending,m,positive,negative,ES_yellow,1,m,690,1826809,1827314,1827518
30,second,89,lustig,IAT_red4.bmp,red,starting_melody,melody,starting,m,positive,positive,ES_yellow,1,m,615,1829283,1829787,1829991
30,second,90,schön,IAT_green4.bmp,green,starting_scream,scream,starting,m,positive,negative,ES_yellow,1,m,518,1831681,1832185,1832389
30,second,91,sozial,IAT_yellow1.bmp,yellow,ending_scream,scream,ending,m,positive,positive,ES_yellow,1,m,457,1833981,1834486,1834691
30,second,92,gesund,IAT_red1.bmp,red,starting_melody,melody,starting,m,positive,positive,ES_yellow,1,m,516,1836223,1836727,1836931
30,second,93,ehrlich,IAT_yellow1.bmp,yellow,ending_scream,scream,ending,m,positive,positive,ES_yellow,1,m,549,1838522,1839027,1839231
30,second,94,gerecht,IAT_yellow3.bmp,yellow,ending_scream,scream,ending,m,positive,positive,ES_yellow,1,m,579,1840855,1841359,1841563
30,second,95,schön,IAT_red1.bmp,red,starting_melody,melody,starting,m,positive,positive,ES_yellow,1,m,430,1843228,1843732,1843936
30,third,0,ehrlich,IAT_green4.bmp,green,starting_scream,scream,starting,m,positive,negative,ES_yellow,1,m,524,1858587,1859091,1859295
30,third,1,streng,IAT_purple2.bmp,purple,ending_melody,melody,ending,c,negative,negative,ES_yellow,1,c,667,1860894,1861399,1861603
30,third,2,geizig,IAT_red1.bmp,red,starting_melody,melody,starting,c,negative,positive,ES_yellow,1,c,609,1863345,1863849,1864053
30,third,3,lästig,IAT_yellow4.bmp,yellow,ending_scream,scream,ending,c,negative,positive,ES_yellow,1,c,602,1865737,1866241,1866445
30,third,4,human,IAT_yellow3.bmp,yellow,ending_scream,scream,ending,m,positive,positive,ES_yellow,1,m,431,1868121,1868625,1868829
30,third,5,sanft,IAT_yellow2.bmp,yellow,ending_scream,scream,ending,m,positive,positive,ES_yellow,1,m,450,1870334,1870838,1871042
30,third,6,lustig,IAT_green1.bmp,green,starting_scream,scream,starting,m,positive,negative,ES_yellow,1,m,467,1872565,1873069,1873273
30,third,7,gesund,IAT_yellow3.bmp,yellow,ending_scream,scream,ending,m,positive,positive,ES_yellow,1,m,534,1874814,1875319,1875523
30,third,8,krank,IAT_yellow4.bmp,yellow,ending_scream,scream,ending,c,negative,positive,ES_yellow,1,c,534,1877131,1877635,1877839
30,third,9,teuer,IAT_green2.bmp,green,starting_scream,scream,starting,c,negative,negative,ES_yellow,1,c,584,1879448,1879953,1880157
30,third,10,munter,IAT_yellow2.bmp,yellow,ending_scream,scream,ending,m,positive,positive,ES_yellow,1,m,401,1881816,1882321,1882525
30,third,11,falsch,IAT_red2.bmp,red,starting_melody,melody,starting,c,negative,positive,ES_yellow,1,c,543,1883999,1884503,1884707
30,third,12,schön,IAT_green1.bmp,green,starting_scream,scream,starting,m,positive,negative,ES_yellow,1,m,519,1886324,1886829,1887033
30,third,13,sonnig,IAT_green3.bmp,green,starting_scream,scream,starting,m,positive,negative,ES_yellow,1,m,485,1888627,1889132,1889336
30,third,14,sozial,IAT_green1.bmp,green,starting_scream,scream,starting,m,positive,negative,ES_yellow,1,m,394,1890895,1891400,1891604
30,third,15,feige,IAT_purple2.bmp,purple,ending_melody,melody,ending,c,negative,negative,ES_yellow,1,c,512,1893072,1893576,1893780
30,third,16,ehrlich,IAT_yellow1.bmp,yellow,ending_scream,scream,ending,m,positive,positive,ES_yellow,1,m,491,1895368,1895873,1896077
30,third,17,gierig,IAT_purple4.bmp,purple,ending_melody,melody,ending,c,negative,negative,ES_yellow,1,c,665,1897642,1898146,1898350
30,third,18,morsch,IAT_yellow4.bmp,yellow,ending_scream,scream,ending,c,negative,positive,ES_yellow,0,m,445,1900089,1900593,1900797
30,third,19,einsam,IAT_green2.bmp,green,starting_scream,scream,starting,c,negative,negative,ES_yellow,1,c,672,1902817,1903322,1903526
30,third,20,sanft,IAT_red1.bmp,red,starting_melody,melody,starting,m,positive,positive,ES_yellow,1,m,610,1905273,1905778,1905982
30,third,21,feige,IAT_yellow2.bmp,yellow,ending_scream,scream,ending,c,negative,positive,ES_yellow,1,c,506,1907666,1908170,1908374
30,third,22,gierig,IAT_yellow3.bmp,yellow,ending_scream,scream,ending,c,negative,positive,ES_yellow,1,c,734,1909955,1910459,1910663
30,third,23,gesund,IAT_red3.bmp,red,starting_melody,melody,starting,m,positive,positive,ES_yellow,1,m,511,1912472,1912977,1913181
30,third,24,sonnig,IAT_green3.bmp,green,starting_scream,scream,starting,m,positive,negative,ES_yellow,1,m,533,1914767,1915271,1915475
30,third,25,teuer,IAT_green2.bmp,green,starting_scream,scream,starting,c,negative,negative,ES_yellow,1,c,459,1917083,1917587,1917791
30,third,26,geizig,IAT_purple2.bmp,purple,ending_melody,melody,ending,c,negative,negative,ES_yellow,1,c,615,1919325,1919830,1920034
30,third,27,lästig,IAT_yellow3.bmp,yellow,ending_scream,scream,ending,c,negative,positive,ES_yellow,1,c,586,1921723,1922227,1922431
30,third,28,sanft,IAT_purple3.bmp,purple,ending_melody,melody,ending,m,positive,negative,ES_yellow,1,m,746,1924092,1924596,1924800
30,third,29,kaputt,IAT_green4.bmp,green,starting_scream,scream,starting,c,negative,negative,ES_yellow,1,c,486,1926621,1927125,1927329
30,third,30,falsch,IAT_green4.bmp,green,starting_scream,scream,starting,c,negative,negative,ES_yellow,1,c,483,1928889,1929393,1929597
30,third,31,munter,IAT_purple1.bmp,purple,ending_melody,melody,ending,m,positive,negative,ES_yellow,1,m,571,1931154,1931658,1931862
30,third,32,einsam,IAT_red3.bmp,red,starting_melody,melody,starting,c,negative,positive,ES_yellow,1,c,555,1933508,1934012,1934216
30,third,33,falsch,IAT_yellow1.bmp,yellow,ending_scream,scream,ending,c,negative,positive,ES_yellow,1,c,547,1935847,1936351,1936555
30,third,34,gesund,IAT_purple1.bmp,purple,ending_melody,melody,ending,m,positive,negative,ES_yellow,1,m,517,1938178,1938682,1938886
30,third,35,gerecht,IAT_purple1.bmp,purple,ending_melody,melody,ending,m,positive,negative,ES_yellow,1,m,1106,1940479,1940983,1941187
30,third,36,heiter,IAT_red1.bmp,red,starting_melody,melody,starting,m,positive,positive,ES_yellow,0,c,676,1943368,1943873,1944077
30,third,37,sozial,IAT_purple3.bmp,purple,ending_melody,melody,ending,m,positive,negative,ES_yellow,1,m,690,1946328,1946832,1947036
30,third,38,lustig,IAT_red4.bmp,red,starting_melody,melody,starting,m,positive,positive,ES_yellow,1,m,674,1948802,1949306,1949510
30,third,39,human,IAT_purple3.bmp,purple,ending_melody,melody,ending,m,positive,negative,ES_yellow,1,m,600,1951257,1951762,1951966
30,third,40,sonnig,IAT_yellow1.bmp,yellow,ending_scream,scream,ending,m,positive,positive,ES_yellow,1,m,528,1953640,1954144,1954348
30,third,41,ehrlich,IAT_green2.bmp,green,starting_scream,scream,starting,m,positive,negative,ES_yellow,1,m,432,1955950,1956454,1956658
30,third,42,heiter,IAT_green2.bmp,green,starting_scream,scream,starting,m,positive,negative,ES_yellow,1,m,489,1958166,1958670,1958874
30,third,43,schön,IAT_purple4.bmp,purple,ending_melody,melody,ending,m,positive,negative,ES_yellow,1,m,505,1960438,1960942,1961146
30,third,44,morsch,IAT_purple3.bmp,purple,ending_melody,melody,ending,c,negative,negative,ES_yellow,1,c,746,1962726,1963230,1963434
30,third,45,brutal,IAT_red4.bmp,red,starting_melody,melody,starting,c,negative,positive,ES_yellow,1,c,711,1965255,1965759,1965963
30,third,46,einsam,IAT_red4.bmp,red,starting_melody,melody,starting,c,negative,positive,ES_yellow,1,c,660,1967749,1968253,1968457
30,third,47,falsch,IAT_green2.bmp,green,starting_scream,scream,starting,c,negative,negative,ES_yellow,1,c,574,1970192,1970696,1970901
30,third,48,feige,IAT_green4.bmp,green,starting_scream,scream,starting,c,negative,negative,ES_yellow,1,c,659,1972550,1973054,1973258
30,third,49,streng,IAT_green1.bmp,green,starting_scream,scream,starting,c,negative,negative,ES_yellow,1,c,817,1974991,1975495,1975699
30,third,50,brutal,IAT_yellow2.bmp,yellow,ending_scream,scream,ending,c,negative,positive,ES_yellow,1,c,649,1977591,1978095,1978299
30,third,51,munter,IAT_green3.bmp,green,starting_scream,scream,starting,m,positive,negative,ES_yellow,1,m,687,1980023,1980527,1980731
30,third,52,ehrlich,IAT_red1.bmp,red,starting_melody,melody,starting,m,positive,positive,ES_yellow,1,m,452,1982493,1982997,1983201
30,third,53,kaputt,IAT_green1.bmp,green,starting_scream,scream,starting,c,negative,negative,ES_yellow,1,c,774,1984727,1985231,1985435
30,third,54,streng,IAT_red1.bmp,red,starting_melody,melody,starting,c,negative,positive,ES_yellow,1,c,516,1987284,1987788,1987992
30,third,55,lustig,IAT_purple2.bmp,purple,ending_melody,melody,ending,m,positive,negative,ES_yellow,1,m,562,1989583,1990087,1990291
30,third,56,geizig,IAT_red2.bmp,red,starting_melody,melody,starting,c,negative,positive,ES_yellow,1,c,588,1991928,1992433,1992637
30,third,57,gesund,IAT_yellow3.bmp,yellow,ending_scream,scream,ending,m,positive,positive,ES_yellow,1,m,634,1994300,1994804,1995008
30,third,58,krank,IAT_green3.bmp,green,starting_scream,scream,starting,c,negative,negative,ES_yellow,1,c,493,1996717,1997221,1997425
30,third,59,gierig,IAT_yellow2.bmp,yellow,ending_scream,scream,ending,c,negative,positive,ES_yellow,1,c,661,1998992,1999496,1999700
30,third,60,sozial,IAT_red2.bmp,red,starting_melody,melody,starting,m,positive,positive,ES_yellow,1,m,510,2001437,2001941,2002145
30,third,61,krank,IAT_purple3.bmp,purple,ending_melody,melody,ending,c,negative,negative,ES_yellow,1,c,766,2003729,2004234,2004438
30,third,62,witzig,IAT_red3.bmp,red,starting_melody,melody,starting,m,positive,positive,ES_yellow,1,m,648,2006278,2006783,2006987
30,third,63,gerecht,IAT_green4.bmp,green,starting_scream,scream,starting,m,positive,negative,ES_yellow,1,m,614,2008709,2009213,2009417
30,third,64,heiter,IAT_red4.bmp,red,starting_melody,melody,starting,m,positive,positive,ES_yellow,1,m,485,2011106,2011610,2011814
30,third,65,kaputt,IAT_green3.bmp,green,starting_scream,scream,starting,c,negative,negative,ES_yellow,1,c,583,2013373,2013877,2014081
30,third,66,brutal,IAT_purple4.bmp,purple,ending_melody,melody,ending,c,negative,negative,ES_yellow,1,c,648,2015739,2016243,2016447
30,third,67,lästig,IAT_red2.bmp,red,starting_melody,melody,starting,c,negative,positive,ES_yellow,1,c,799,2018170,2018674,2018878
30,third,68,geizig,IAT_yellow1.bmp,yellow,ending_scream,scream,ending,c,negative,positive,ES_yellow,1,c,543,2020752,2021257,2021461
30,third,69,gierig,IAT_green4.bmp,green,starting_scream,scream,starting,c,negative,negative,ES_yellow,1,c,565,2023079,2023583,2023787
30,third,70,lästig,IAT_purple4.bmp,purple,ending_melody,melody,ending,c,negative,negative,ES_yellow,1,c,519,2025427,2025931,2026135
30,third,71,gerecht,IAT_yellow4.bmp,yellow,ending_scream,scream,ending,m,positive,positive,ES_yellow,1,m,574,2027729,2028233,2028437
30,third,72,schön,IAT_green3.bmp,green,starting_scream,scream,starting,m,positive,negative,ES_yellow,1,m,658,2030086,2030591,2030795
30,third,73,feige,IAT_yellow2.bmp,yellow,ending_scream,scream,ending,c,negative,positive,ES_yellow,1,c,565,2032528,2033033,2033237
30,third,74,einsam,IAT_yellow4.bmp,yellow,ending_scream,scream,ending,c,negative,positive,ES_yellow,1,c,515,2034878,2035382,2035586
30,third,75,teuer,IAT_purple4.bmp,purple,ending_melody,melody,ending,c,negative,negative,ES_yellow,1,c,614,2037177,2037681,2037885
30,third,76,morsch,IAT_red3.bmp,red,starting_melody,melody,starting,c,negative,positive,ES_yellow,1,c,619,2039575,2040079,2040283
30,third,77,witzig,IAT_purple3.bmp,purple,ending_melody,melody,ending,m,positive,negative,ES_yellow,1,m,616,2041976,2042481,2042685
30,third,78,human,IAT_yellow4.bmp,yellow,ending_scream,scream,ending,m,positive,positive,ES_yellow,1,m,570,2044377,2044881,2045085
30,third,79,witzig,IAT_yellow1.bmp,yellow,ending_scream,scream,ending,m,positive,positive,ES_yellow,0,c,681,2046730,2047234,2047438
30,third,80,gerecht,IAT_red3.bmp,red,starting_melody,melody,starting,m,positive,positive,ES_yellow,1,m,540,2049694,2050198,2050402
30,third,81,teuer,IAT_purple2.bmp,purple,ending_melody,melody,ending,c,negative,negative,ES_yellow,1,c,585,2052017,2052522,2052726
30,third,82,sozial,IAT_purple4.bmp,purple,ending_melody,melody,ending,m,positive,negative,ES_yellow,1,m,588,2054385,2054890,2055094
30,third,83,schön,IAT_yellow1.bmp,yellow,ending_scream,scream,ending,m,positive,positive,ES_yellow,1,m,480,2056757,2057262,2057466
30,third,84,brutal,IAT_purple1.bmp,purple,ending_melody,melody,ending,c,negative,negative,ES_yellow,1,c,626,2059021,2059526,2059730
30,third,85,heiter,IAT_purple2.bmp,purple,ending_melody,melody,ending,m,positive,negative,ES_yellow,1,m,625,2061431,2061936,2062140
30,third,86,human,IAT_red1.bmp,red,starting_melody,melody,starting,m,positive,positive,ES_yellow,1,m,447,2063840,2064344,2064548
30,third,87,streng,IAT_red4.bmp,red,starting_melody,melody,starting,c,negative,positive,ES_yellow,1,c,621,2066070,2066574,2066778
30,third,88,kaputt,IAT_purple1.bmp,purple,ending_melody,melody,ending,c,negative,negative,ES_yellow,1,c,771,2068474,2068978,2069182
30,third,89,munter,IAT_yellow3.bmp,yellow,ending_scream,scream,ending,m,positive,positive,ES_yellow,1,m,521,2071028,2071532,2071736
30,third,90,sonnig,IAT_purple1.bmp,purple,ending_melody,melody,ending,m,positive,negative,ES_yellow,1,m,540,2073332,2073836,2074040
30,third,91,sanft,IAT_red2.bmp,red,starting_melody,melody,starting,m,positive,positive,ES_yellow,1,m,460,2075657,2076161,2076365
30,third,92,lustig,IAT_red3.bmp,red,starting_melody,melody,starting,m,positive,positive,ES_yellow,1,m,419,2077900,2078404,2078608
30,third,93,morsch,IAT_red2.bmp,red,starting_melody,melody,starting,c,negative,positive,ES_yellow,0,m,375,2080102,2080607,2080811
30,third,94,witzig,IAT_green1.bmp,green,starting_scream,scream,starting,m,positive,negative,ES_yellow,1,m,617,2082760,2083265,2083469
30,third,95,krank,IAT_red4.bmp,red,starting_melody,melody,starting,c,negative,positive,ES_yellow,1,c,448,2085161,2085665,2085869
30,forth,0,munter,IAT_purple3.bmp,purple,ending_melody,melody,ending,m,positive,negative,ES_yellow,1,m,600,2115529,2116033,2116237
30,forth,1,schön,IAT_green3.bmp,green,starting_scream,scream,starting,m,positive,negative,ES_yellow,1,m,741,2117913,2118417,2118621
30,forth,2,sonnig,IAT_green4.bmp,green,starting_scream,scream,starting,m,positive,negative,ES_yellow,1,m,553,2120437,2120942,2121146
30,forth,3,lästig,IAT_red1.bmp,red,starting_melody,melody,starting,c,negative,positive,ES_yellow,1,c,552,2122775,2123279,2123483
30,forth,4,morsch,IAT_yellow3.bmp,yellow,ending_scream,scream,ending,c,negative,positive,ES_yellow,1,c,650,2125109,2125613,2125817
30,forth,5,sanft,IAT_yellow3.bmp,yellow,ending_scream,scream,ending,m,positive,positive,ES_yellow,1,m,537,2127541,2128045,2128249
30,forth,6,ehrlich,IAT_purple4.bmp,purple,ending_melody,melody,ending,m,positive,negative,ES_yellow,1,m,492,2129860,2130364,2130568
30,forth,7,witzig,IAT_purple3.bmp,purple,ending_melody,melody,ending,m,positive,negative,ES_yellow,1,m,725,2132135,2132639,2132843
30,forth,8,ehrlich,IAT_red1.bmp,red,starting_melody,melody,starting,m,positive,positive,ES_yellow,1,m,518,2134642,2135146,2135350
30,forth,9,einsam,IAT_green4.bmp,green,starting_scream,scream,starting,c,negative,negative,ES_yellow,1,c,614,2136941,2137446,2137650
30,forth,10,falsch,IAT_red3.bmp,red,starting_melody,melody,starting,c,negative,positive,ES_yellow,1,c,512,2139338,2139842,2140046
30,forth,11,kaputt,IAT_green2.bmp,green,starting_scream,scream,starting,c,negative,negative,ES_yellow,1,c,569,2141632,2142136,2142340
30,forth,12,heiter,IAT_green4.bmp,green,starting_scream,scream,starting,m,positive,negative,ES_yellow,1,m,461,2143982,2144487,2144691
30,forth,13,lustig,IAT_red2.bmp,red,starting_melody,melody,starting,m,positive,positive,ES_yellow,1,m,580,2146227,2146731,2146935
30,forth,14,falsch,IAT_red2.bmp,red,starting_melody,melody,starting,c,negative,positive,ES_yellow,1,c,631,2148589,2149093,2149297
30,forth,15,geizig,IAT_green3.bmp,green,starting_scream,scream,starting,c,negative,negative,ES_yellow,0,m,626,2151001,2151506,2151710
30,forth,16,kaputt,IAT_yellow3.bmp,yellow,ending_scream,scream,ending,c,negative,positive,ES_yellow,1,c,563,2153912,2154416,2154620
30,forth,17,brutal,IAT_green4.bmp,green,starting_scream,scream,starting,c,negative,negative,ES_yellow,1,c,530,2156257,2156761,2156965
30,forth,18,gierig,IAT_green2.bmp,green,starting_scream,scream,starting,c,negative,negative,ES_yellow,1,c,433,2158569,2159073,2159277
30,forth,19,sonnig,IAT_green1.bmp,green,starting_scream,scream,starting,m,positive,negative,ES_yellow,1,m,487,2160785,2161289,2161493
30,forth,20,streng,IAT_green2.bmp,green,starting_scream,scream,starting,c,negative,negative,ES_yellow,1,c,588,2163054,2163558,2163762
30,forth,21,geizig,IAT_purple2.bmp,purple,ending_melody,melody,ending,c,negative,negative,ES_yellow,1,c,573,2165425,2165929,2166133
30,forth,22,ehrlich,IAT_red3.bmp,red,starting_melody,melody,starting,m,positive,positive,ES_yellow,1,m,538,2167781,2168286,2168490
30,forth,23,human,IAT_yellow3.bmp,yellow,ending_scream,scream,ending,m,positive,positive,ES_yellow,1,m,605,2170103,2170607,2170811
30,forth,24,lästig,IAT_red1.bmp,red,starting_melody,melody,starting,c,negative,positive,ES_yellow,1,c,1011,2172491,2172996,2173200
30,forth,25,feige,IAT_red2.bmp,red,starting_melody,melody,starting,c,negative,positive,ES_yellow,1,c,645,2175287,2175791,2175995
30,forth,26,falsch,IAT_purple3.bmp,purple,ending_melody,melody,ending,c,negative,negative,ES_yellow,1,c,539,2177714,2178218,2178422
30,forth,27,teuer,IAT_purple4.bmp,purple,ending_melody,melody,ending,c,negative,negative,ES_yellow,1,c,581,2180034,2180538,2180742
30,forth,28,streng,IAT_green4.bmp,green,starting_scream,scream,starting,c,negative,negative,ES_yellow,1,c,442,2182398,2182902,2183106
30,forth,29,schön,IAT_purple1.bmp,purple,ending_melody,melody,ending,m,positive,negative,ES_yellow,1,m,387,2184623,2185128,2185332
30,forth,30,heiter,IAT_purple2.bmp,purple,ending_melody,melody,ending,m,positive,negative,ES_yellow,1,m,491,2186794,2187299,2187503
30,forth,31,feige,IAT_purple1.bmp,purple,ending_melody,melody,ending,c,negative,negative,ES_yellow,0,m,581,2189069,2189573,2189777
30,forth,32,witzig,IAT_yellow4.bmp,yellow,ending_scream,scream,ending,m,positive,positive,ES_yellow,1,m,721,2191934,2192438,2192642
30,forth,33,krank,IAT_green4.bmp,green,starting_scream,scream,starting,c,negative,negative,ES_yellow,0,None,1500,2194437,2194941,2195145
30,forth,34,lustig,IAT_yellow1.bmp,yellow,ending_scream,scream,ending,m,positive,positive,ES_yellow,1,m,767,2198719,2199223,2199427
30,forth,35,gesund,IAT_green1.bmp,green,starting_scream,scream,starting,m,positive,negative,ES_yellow,0,c,464,2201269,2201773,2201977
30,forth,36,teuer,IAT_purple3.bmp,purple,ending_melody,melody,ending,c,negative,negative,ES_yellow,1,c,651,2204017,2204521,2204726
30,forth,37,gerecht,IAT_yellow2.bmp,yellow,ending_scream,scream,ending,m,positive,positive,ES_yellow,1,m,569,2206452,2206956,2207161
30,forth,38,sozial,IAT_yellow3.bmp,yellow,ending_scream,scream,ending,m,positive,positive,ES_yellow,1,m,605,2208805,2209309,2209513
30,forth,39,falsch,IAT_purple4.bmp,purple,ending_melody,melody,ending,c,negative,negative,ES_yellow,1,c,538,2211193,2211697,2211901
30,forth,40,streng,IAT_yellow4.bmp,yellow,ending_scream,scream,ending,c,negative,positive,ES_yellow,0,m,599,2213513,2214017,2214221
30,forth,41,gierig,IAT_green1.bmp,green,starting_scream,scream,starting,c,negative,negative,ES_yellow,1,c,753,2216394,2216899,2217103
30,forth,42,brutal,IAT_yellow1.bmp,yellow,ending_scream,scream,ending,c,negative,positive,ES_yellow,1,c,701,2218932,2219436,2219640
30,forth,43,geizig,IAT_purple1.bmp,purple,ending_melody,melody,ending,c,negative,negative,ES_yellow,1,c,641,2221416,2221920,2222124
30,forth,44,krank,IAT_red2.bmp,red,starting_melody,melody,starting,c,negative,positive,ES_yellow,1,c,700,2223840,2224344,2224548
30,forth,45,einsam,IAT_green2.bmp,green,starting_scream,scream,starting,c,negative,negative,ES_yellow,1,c,649,2226323,2226827,2227031
30,forth,46,gesund,IAT_red3.bmp,red,starting_melody,melody,starting,m,positive,positive,ES_yellow,1,m,567,2228755,2229259,2229463
30,forth,47,kaputt,IAT_purple4.bmp,purple,ending_melody,melody,ending,c,negative,negative,ES_yellow,1,c,574,2231105,2231609,2231813
30,forth,48,teuer,IAT_purple4.bmp,purple,ending_melody,melody,ending,c,negative,negative,ES_yellow,1,c,488,2233462,2233966,2234170
30,forth,49,sanft,IAT_red1.bmp,red,starting_melody,melody,starting,m,positive,positive,ES_yellow,0,c,509,2235733,2236238,2236442
30,forth,50,feige,IAT_yellow2.bmp,yellow,ending_scream,scream,ending,c,negative,positive,ES_yellow,1,c,564,2238526,2239030,2239234
30,forth,51,morsch,IAT_yellow4.bmp,yellow,ending_scream,scream,ending,c,negative,positive,ES_yellow,1,c,575,2240873,2241378,2241582
30,forth,52,gerecht,IAT_yellow2.bmp,yellow,ending_scream,scream,ending,m,positive,positive,ES_yellow,1,m,577,2243232,2243736,2243940
30,forth,53,geizig,IAT_red3.bmp,red,starting_melody,melody,starting,c,negative,positive,ES_yellow,1,c,747,2245592,2246097,2246301
30,forth,54,munter,IAT_yellow3.bmp,yellow,ending_scream,scream,ending,m,positive,positive,ES_yellow,1,m,622,2248123,2248627,2248831
30,forth,55,lustig,IAT_yellow1.bmp,yellow,ending_scream,scream,ending,m,positive,positive,ES_yellow,1,m,706,2250528,2251033,2251237
30,forth,56,einsam,IAT_red4.bmp,red,starting_melody,melody,starting,c,negative,positive,ES_yellow,1,c,580,2253018,2253523,2253727
30,forth,57,gesund,IAT_green3.bmp,green,starting_scream,scream,starting,m,positive,negative,ES_yellow,1,m,522,2255384,2255888,2256092
30,forth,58,human,IAT_purple2.bmp,purple,ending_melody,melody,ending,m,positive,negative,ES_yellow,1,m,563,2257689,2258193,2258397
30,forth,59,sozial,IAT_purple1.bmp,purple,ending_melody,melody,ending,m,positive,negative,ES_yellow,1,m,625,2260036,2260540,2260744
30,forth,60,sonnig,IAT_red2.bmp,red,starting_melody,melody,starting,m,positive,positive,ES_yellow,1,m,576,2262444,2262948,2263152
30,forth,61,streng,IAT_purple2.bmp,purple,ending_melody,melody,ending,c,negative,negative,ES_yellow,1,c,612,2264803,2265308,2265512
30,forth,62,schön,IAT_red4.bmp,red,starting_melody,melody,starting,m,positive,positive,ES_yellow,1,m,664,2267200,2267704,2267908
30,forth,63,einsam,IAT_red4.bmp,red,starting_melody,melody,starting,c,negative,positive,ES_yellow,1,c,494,2269647,2270151,2270355
30,forth,64,witzig,IAT_green2.bmp,green,starting_scream,scream,starting,m,positive,negative,ES_yellow,1,m,561,2271925,2272429,2272633
30,forth,65,krank,IAT_yellow2.bmp,yellow,ending_scream,scream,ending,c,negative,positive,ES_yellow,1,c,579,2274269,2274774,2274978
30,forth,66,teuer,IAT_purple2.bmp,purple,ending_melody,melody,ending,c,negative,negative,ES_yellow,1,c,705,2276632,2277136,2277340
30,forth,67,ehrlich,IAT_yellow1.bmp,yellow,ending_scream,scream,ending,m,positive,positive,ES_yellow,1,m,461,2279120,2279625,2279829
30,forth,68,sonnig,IAT_purple1.bmp,purple,ending_melody,melody,ending,m,positive,negative,ES_yellow,1,m,451,2281365,2281869,2282073
30,forth,69,sozial,IAT_green3.bmp,green,starting_scream,scream,starting,m,positive,negative,ES_yellow,1,m,465,2283599,2284103,2284307
30,forth,70,human,IAT_red1.bmp,red,starting_melody,melody,starting,m,positive,positive,ES_yellow,1,m,470,2285849,2286353,2286557
30,forth,71,feige,IAT_purple2.bmp,purple,ending_melody,melody,ending,c,negative,negative,ES_yellow,1,c,531,2288102,2288607,2288811
30,forth,72,krank,IAT_red2.bmp,red,starting_melody,melody,starting,c,negative,positive,ES_yellow,1,c,637,2290417,2290922,2291126
30,forth,73,gerecht,IAT_purple1.bmp,purple,ending_melody,melody,ending,m,positive,negative,ES_yellow,1,m,527,2292839,2293343,2293547
30,forth,74,sanft,IAT_yellow4.bmp,yellow,ending_scream,scream,ending,m,positive,positive,ES_yellow,0,c,514,2295149,2295653,2295857
30,forth,75,schön,IAT_green2.bmp,green,starting_scream,scream,starting,m,positive,negative,ES_yellow,1,m,625,2297947,2298451,2298655
30,forth,76,gierig,IAT_red4.bmp,red,starting_melody,melody,starting,c,negative,positive,ES_yellow,1,c,658,2300355,2300859,2301063
30,forth,77,heiter,IAT_red3.bmp,red,starting_melody,melody,starting,m,positive,positive,ES_yellow,1,m,738,2302796,2303301,2303505
30,forth,78,sanft,IAT_purple3.bmp,purple,ending_melody,melody,ending,m,positive,negative,ES_yellow,1,m,549,2305318,2305822,2306026
30,forth,79,gerecht,IAT_green3.bmp,green,starting_scream,scream,starting,m,positive,negative,ES_yellow,1,m,623,2307651,2308156,2308360
30,forth,80,brutal,IAT_yellow4.bmp,yellow,ending_scream,scream,ending,c,negative,positive,ES_yellow,1,c,694,2310058,2310562,2310766
30,forth,81,human,IAT_purple3.bmp,purple,ending_melody,melody,ending,m,positive,negative,ES_yellow,1,m,564,2312535,2313039,2313243
30,forth,82,munter,IAT_red1.bmp,red,starting_melody,melody,starting,m,positive,positive,ES_yellow,1,m,471,2314883,2315388,2315592
30,forth,83,lästig,IAT_yellow1.bmp,yellow,ending_scream,scream,ending,c,negative,positive,ES_yellow,1,c,606,2317139,2317643,2317847
30,forth,84,morsch,IAT_yellow2.bmp,yellow,ending_scream,scream,ending,c,negative,positive,ES_yellow,1,c,565,2319529,2320033,2320237
30,forth,85,heiter,IAT_red3.bmp,red,starting_melody,melody,starting,m,positive,positive,ES_yellow,1,m,671,2321878,2322383,2322587
30,forth,86,gierig,IAT_red4.bmp,red,starting_melody,melody,starting,c,negative,positive,ES_yellow,1,c,578,2324333,2324837,2325041
30,forth,87,gesund,IAT_green1.bmp,green,starting_scream,scream,starting,m,positive,negative,ES_yellow,1,m,482,2326694,2327199,2327403
30,forth,88,brutal,IAT_green3.bmp,green,starting_scream,scream,starting,c,negative,negative,ES_yellow,1,c,712,2328960,2329464,2329668
30,forth,89,morsch,IAT_yellow2.bmp,yellow,ending_scream,scream,ending,c,negative,positive,ES_yellow,1,c,518,2331455,2331959,2332163
30,forth,90,munter,IAT_red4.bmp,red,starting_melody,melody,starting,m,positive,positive,ES_yellow,1,m,634,2333758,2334262,2334466
30,forth,91,witzig,IAT_yellow1.bmp,yellow,ending_scream,scream,ending,m,positive,positive,ES_yellow,1,m,599,2336177,2336681,2336885
30,forth,92,kaputt,IAT_yellow4.bmp,yellow,ending_scream,scream,ending,c,negative,positive,ES_yellow,1,c,583,2338560,2339064,2339268
30,forth,93,lästig,IAT_green1.bmp,green,starting_scream,scream,starting,c,negative,negative,ES_yellow,1,c,615,2340926,2341431,2341635
30,forth,94,lustig,IAT_purple4.bmp,purple,ending_melody,melody,ending,m,positive,negative,ES_yellow,0,c,764,2343324,2343828,2344032
30,forth,95,sozial,IAT_green1.bmp,green,starting_scream,scream,starting,m,positive,negative,ES_yellow,1,m,678,2346370,2346875,2347079
