subject_nr,block,trialnr,trial_target,trial_prime,prime_color,prime_role,prime_us,prime_relation,correct_response,target_valence,prime_valence,color_counter,correct_first_response,response_first_response,response_time_first_response,fixation_show,prime_show,target_show
112,first,0,streng,IAT_purple4.bmp,purple,starting_scream,scream,starting,c,negative,negative,ES_green,1,c,578,1546732,1547236,1547440
112,first,1,gierig,IAT_red4.bmp,red,ending_melody,melody,ending,c,negative,negative,ES_green,1,c,524,1549094,1549599,1549803
112,first,2,teuer,IAT_red4.bmp,red,ending_melody,melody,ending,c,negative,negative,ES_green,0,m,619,1551401,1551905,1552109
112,first,3,lästig,IAT_purple1.bmp,purple,starting_scream,scream,starting,c,negative,negative,ES_green,1,c,665,1554308,1554812,1555016
112,first,4,munter,IAT_red1.bmp,red,ending_melody,melody,ending,m,positive,negative,ES_green,1,m,597,1556756,1557260,1557464
112,first,5,lustig,IAT_purple3.bmp,purple,starting_scream,scream,starting,m,positive,negative,ES_green,1,m,540,1559133,1559638,1559842
112,first,6,gesund,IAT_purple2.bmp,purple,starting_scream,scream,starting,m,positive,negative,ES_green,1,m,531,1561457,1561961,1562165
112,first,7,heiter,IAT_green3.bmp,green,ending_scream,scream,ending,m,positive,positive,ES_green,1,m,593,1563770,1564274,1564478
112,first,8,morsch,IAT_purple4.bmp,purple,starting_scream,scream,starting,c,negative,negative,ES_green,1,c,513,1566144,1566649,1566853
112,first,9,witzig,IAT_red3.bmp,red,ending_melody,melody,ending,m,positive,negative,ES_green,1,m,503,1568440,1568944,1569148
112,first,10,lästig,IAT_red3.bmp,red,ending_melody,melody,ending,c,negative,negative,ES_green,1,c,678,1570724,1571228,1571432
112,first,11,gierig,IAT_yellow2.bmp,yellow,starting_melody,melody,starting,c,negative,positive,ES_green,1,c,718,1573184,1573688,1573892
112,first,12,sozial,IAT_green4.bmp,green,ending_scream,scream,ending,m,positive,positive,ES_green,1,m,595,1575683,1576188,1576392
112,first,13,ehrlich,IAT_yellow1.bmp,yellow,starting_melody,melody,starting,m,positive,positive,ES_green,1,m,610,1578061,1578565,1578769
112,first,14,lustig,IAT_red1.bmp,red,ending_melody,melody,ending,m,positive,negative,ES_green,1,m,775,1580453,1580957,1581161
112,first,15,gesund,IAT_yellow3.bmp,yellow,starting_melody,melody,starting,m,positive,positive,ES_green,1,m,529,1583009,1583514,1583718
112,first,16,krank,IAT_green2.bmp,green,ending_scream,scream,ending,c,negative,positive,ES_green,1,c,525,1585320,1585824,1586028
112,first,17,sanft,IAT_purple1.bmp,purple,starting_scream,scream,starting,m,positive,negative,ES_green,1,m,587,1587626,1588131,1588335
112,first,18,schön,IAT_yellow2.bmp,yellow,starting_melody,melody,starting,m,positive,positive,ES_green,1,m,476,1589996,1590500,1590704
112,first,19,lustig,IAT_yellow3.bmp,yellow,starting_melody,melody,starting,m,positive,positive,ES_green,1,m,503,1592254,1592758,1592962
112,first,20,ehrlich,IAT_purple4.bmp,purple,starting_scream,scream,starting,m,positive,negative,ES_green,1,m,521,1594539,1595043,1595247
112,first,21,lästig,IAT_red4.bmp,red,ending_melody,melody,ending,c,negative,negative,ES_green,1,c,539,1596843,1597347,1597551
112,first,22,feige,IAT_green3.bmp,green,ending_scream,scream,ending,c,negative,positive,ES_green,1,c,552,1599164,1599669,1599873
112,first,23,sozial,IAT_green1.bmp,green,ending_scream,scream,ending,m,positive,positive,ES_green,1,m,465,1601499,1602003,1602207
112,first,24,falsch,IAT_yellow4.bmp,yellow,starting_melody,melody,starting,c,negative,positive,ES_green,1,c,554,1603746,1604251,1604455
112,first,25,kaputt,IAT_yellow1.bmp,yellow,starting_melody,melody,starting,c,negative,positive,ES_green,1,c,593,1606082,1606587,1606791
112,first,26,human,IAT_yellow4.bmp,yellow,starting_melody,melody,starting,m,positive,positive,ES_green,1,m,516,1608458,1608963,1609167
112,first,27,heiter,IAT_green3.bmp,green,ending_scream,scream,ending,m,positive,positive,ES_green,1,m,567,1610758,1611262,1611466
112,first,28,sanft,IAT_purple1.bmp,purple,starting_scream,scream,starting,m,positive,negative,ES_green,1,m,464,1613108,1613612,1613816
112,first,29,lästig,IAT_red1.bmp,red,ending_melody,melody,ending,c,negative,negative,ES_green,1,c,572,1615353,1615857,1616061
112,first,30,gerecht,IAT_purple2.bmp,purple,starting_scream,scream,starting,m,positive,negative,ES_green,1,m,545,1617707,1618211,1618415
112,first,31,heiter,IAT_green2.bmp,green,ending_scream,scream,ending,m,positive,positive,ES_green,1,m,528,1620033,1620537,1620741
112,first,32,munter,IAT_yellow1.bmp,yellow,starting_melody,melody,starting,m,positive,positive,ES_green,1,m,568,1622342,1622847,1623051
112,first,33,witzig,IAT_yellow2.bmp,yellow,starting_melody,melody,starting,m,positive,positive,ES_green,1,m,529,1624692,1625196,1625400
112,first,34,brutal,IAT_yellow4.bmp,yellow,starting_melody,melody,starting,c,negative,positive,ES_green,1,c,601,1627004,1627508,1627712
112,first,35,geizig,IAT_green1.bmp,green,ending_scream,scream,ending,c,negative,positive,ES_green,1,c,702,1629386,1629890,1630094
112,first,36,kaputt,IAT_green2.bmp,green,ending_scream,scream,ending,c,negative,positive,ES_green,1,c,499,1631869,1632373,1632577
112,first,37,krank,IAT_red1.bmp,red,ending_melody,melody,ending,c,negative,negative,ES_green,1,c,502,1634151,1634655,1634859
112,first,38,streng,IAT_green2.bmp,green,ending_scream,scream,ending,c,negative,positive,ES_green,1,c,518,1636434,1636939,1637143
112,first,39,lustig,IAT_red2.bmp,red,ending_melody,melody,ending,m,positive,negative,ES_green,1,m,486,1638735,1639240,1639444
112,first,40,gierig,IAT_red2.bmp,red,ending_melody,melody,ending,c,negative,negative,ES_green,1,c,505,1641003,1641508,1641712
112,first,41,human,IAT_red4.bmp,red,ending_melody,melody,ending,m,positive,negative,ES_green,1,m,498,1643290,1643794,1643998
112,first,42,sonnig,IAT_green2.bmp,green,ending_scream,scream,ending,m,positive,positive,ES_green,1,m,505,1645569,1646073,1646277
112,first,43,krank,IAT_purple2.bmp,purple,starting_scream,scream,starting,c,negative,negative,ES_green,1,c,452,1647856,1648360,1648564
112,first,44,ehrlich,IAT_green4.bmp,green,ending_scream,scream,ending,m,positive,positive,ES_green,1,m,594,1650090,1650594,1650798
112,first,45,gesund,IAT_red4.bmp,red,ending_melody,melody,ending,m,positive,negative,ES_green,1,m,501,1652467,1652971,1653175
112,first,46,gierig,IAT_red4.bmp,red,ending_melody,melody,ending,c,negative,negative,ES_green,1,c,432,1654750,1655254,1655458
112,first,47,teuer,IAT_yellow2.bmp,yellow,starting_melody,melody,starting,c,negative,positive,ES_green,0,m,462,1656965,1657469,1657673
112,first,48,geizig,IAT_green4.bmp,green,ending_scream,scream,ending,c,negative,positive,ES_green,1,c,703,1659709,1660214,1660418
112,first,49,munter,IAT_yellow3.bmp,yellow,starting_melody,melody,starting,m,positive,positive,ES_green,1,m,544,1662196,1662700,1662904
112,first,50,feige,IAT_yellow1.bmp,yellow,starting_melody,melody,starting,c,negative,positive,ES_green,1,c,683,1664522,1665027,1665231
112,first,51,einsam,IAT_purple1.bmp,purple,starting_scream,scream,starting,c,negative,negative,ES_green,1,c,724,1666988,1667493,1667697
112,first,52,geizig,IAT_green2.bmp,green,ending_scream,scream,ending,c,negative,positive,ES_green,1,c,765,1669495,1669999,1670203
112,first,53,kaputt,IAT_red2.bmp,red,ending_melody,melody,ending,c,negative,negative,ES_green,1,c,624,1672042,1672546,1672750
112,first,54,feige,IAT_green3.bmp,green,ending_scream,scream,ending,c,negative,positive,ES_green,1,c,853,1674449,1674953,1675157
112,first,55,morsch,IAT_purple4.bmp,purple,starting_scream,scream,starting,c,negative,negative,ES_green,1,c,547,1677083,1677587,1677791
112,first,56,falsch,IAT_yellow2.bmp,yellow,starting_melody,melody,starting,c,negative,positive,ES_green,1,c,510,1679412,1679916,1680120
112,first,57,einsam,IAT_green1.bmp,green,ending_scream,scream,ending,c,negative,positive,ES_green,1,c,507,1681704,1682208,1682412
112,first,58,ehrlich,IAT_green1.bmp,green,ending_scream,scream,ending,m,positive,positive,ES_green,1,m,653,1683993,1684497,1684701
112,first,59,streng,IAT_purple4.bmp,purple,starting_scream,scream,starting,c,negative,negative,ES_green,1,c,516,1686428,1686932,1687136
112,first,60,falsch,IAT_purple3.bmp,purple,starting_scream,scream,starting,c,negative,negative,ES_green,1,c,426,1688727,1689231,1689435
112,first,61,streng,IAT_red2.bmp,red,ending_melody,melody,ending,c,negative,negative,ES_green,1,c,451,1690937,1691441,1691645
112,first,62,schön,IAT_red1.bmp,red,ending_melody,melody,ending,m,positive,negative,ES_green,1,m,408,1693170,1693675,1693879
112,first,63,munter,IAT_yellow1.bmp,yellow,starting_melody,melody,starting,m,positive,positive,ES_green,1,m,566,1695361,1695865,1696069
112,first,64,kaputt,IAT_green4.bmp,green,ending_scream,scream,ending,c,negative,positive,ES_green,1,c,533,1697709,1698214,1698418
112,first,65,brutal,IAT_red2.bmp,red,ending_melody,melody,ending,c,negative,negative,ES_green,1,c,484,1700025,1700529,1700733
112,first,66,schön,IAT_purple3.bmp,purple,starting_scream,scream,starting,m,positive,negative,ES_green,1,m,501,1702291,1702795,1702999
112,first,67,morsch,IAT_red3.bmp,red,ending_melody,melody,ending,c,negative,negative,ES_green,1,c,500,1704575,1705079,1705283
112,first,68,gerecht,IAT_yellow1.bmp,yellow,starting_melody,melody,starting,m,positive,positive,ES_green,1,m,597,1706858,1707362,1707566
112,first,69,schön,IAT_red2.bmp,red,ending_melody,melody,ending,m,positive,negative,ES_green,1,m,444,1709238,1709743,1709947
112,first,70,human,IAT_purple3.bmp,purple,starting_scream,scream,starting,m,positive,negative,ES_green,1,m,550,1711465,1711970,1712174
112,first,71,teuer,IAT_yellow4.bmp,yellow,starting_melody,melody,starting,c,negative,positive,ES_green,1,c,610,1713799,1714303,1714507
112,first,72,krank,IAT_green4.bmp,green,ending_scream,scream,ending,c,negative,positive,ES_green,1,c,610,1716191,1716695,1716899
112,first,73,geizig,IAT_purple2.bmp,purple,starting_scream,scream,starting,c,negative,negative,ES_green,1,c,733,1718584,1719088,1719292
112,first,74,einsam,IAT_purple3.bmp,purple,starting_scream,scream,starting,c,negative,negative,ES_green,1,c,658,1721099,1721603,1721807
112,first,75,gerecht,IAT_purple1.bmp,purple,starting_scream,scream,starting,m,positive,negative,ES_green,1,m,609,1723539,1724043,1724247
112,first,76,heiter,IAT_red1.bmp,red,ending_melody,melody,ending,m,positive,negative,ES_green,1,m,530,1725930,1726434,1726638
112,first,77,sonnig,IAT_green3.bmp,green,ending_scream,scream,ending,m,positive,positive,ES_green,1,m,509,1728242,1728746,1728950
112,first,78,brutal,IAT_yellow3.bmp,yellow,starting_melody,melody,starting,c,negative,positive,ES_green,1,c,537,1730533,1731037,1731241
112,first,79,feige,IAT_green4.bmp,green,ending_scream,scream,ending,c,negative,positive,ES_green,1,c,509,1732852,1733356,1733560
112,first,80,einsam,IAT_yellow2.bmp,yellow,starting_melody,melody,starting,c,negative,positive,ES_green,1,c,531,1735143,1735647,1735851
112,first,81,sozial,IAT_yellow3.bmp,yellow,starting_melody,melody,starting,m,positive,positive,ES_green,1,m,598,1737457,1737961,1738165
112,first,82,human,IAT_green1.bmp,green,ending_scream,scream,ending,m,positive,positive,ES_green,1,m,495,1739837,1740341,1740545
112,first,83,sanft,IAT_green3.bmp,green,ending_scream,scream,ending,m,positive,positive,ES_green,1,m,527,1742115,1742620,1742824
112,first,84,brutal,IAT_purple2.bmp,purple,starting_scream,scream,starting,c,negative,negative,ES_green,1,c,502,1744425,1744930,1745134
112,first,85,sonnig,IAT_green1.bmp,green,ending_scream,scream,ending,m,positive,positive,ES_green,1,m,496,1746709,1747214,1747418
112,first,86,witzig,IAT_purple4.bmp,purple,starting_scream,scream,starting,m,positive,negative,ES_green,1,m,523,1748988,1749492,1749696
112,first,87,morsch,IAT_yellow4.bmp,yellow,starting_melody,melody,starting,c,negative,positive,ES_green,1,c,505,1751293,1751798,1752002
112,first,88,sanft,IAT_purple3.bmp,purple,starting_scream,scream,starting,m,positive,negative,ES_green,1,m,571,1753581,1754085,1754289
112,first,89,sozial,IAT_red3.bmp,red,ending_melody,melody,ending,m,positive,negative,ES_green,1,m,484,1755934,1756438,1756642
112,first,90,teuer,IAT_purple2.bmp,purple,starting_scream,scream,starting,c,negative,negative,ES_green,1,c,528,1758200,1758704,1758908
112,first,91,sonnig,IAT_red3.bmp,red,ending_melody,melody,ending,m,positive,negative,ES_green,1,m,510,1760510,1761014,1761218
112,first,92,witzig,IAT_yellow4.bmp,yellow,starting_melody,melody,starting,m,positive,positive,ES_green,1,m,510,1762802,1763307,1763511
112,first,93,gerecht,IAT_red3.bmp,red,ending_melody,melody,ending,m,positive,negative,ES_green,1,m,564,1765096,1765601,1765805
112,first,94,falsch,IAT_yellow3.bmp,yellow,starting_melody,melody,starting,c,negative,positive,ES_green,1,c,492,1767443,1767947,1768151
112,first,95,gesund,IAT_purple1.bmp,purple,starting_scream,scream,starting,m,positive,negative,ES_green,1,m,583,1769719,1770223,1770427
112,second,0,ehrlich,IAT_yellow2.bmp,yellow,starting_melody,melody,starting,m,positive,positive,ES_green,1,m,637,1808005,1808509,1808713
112,second,1,gesund,IAT_green4.bmp,green,ending_scream,scream,ending,m,positive,positive,ES_green,1,m,473,1810428,1810932,1811136
112,second,2,gierig,IAT_red4.bmp,red,ending_melody,melody,ending,c,negative,negative,ES_green,1,c,552,1812684,1813189,1813393
112,second,3,brutal,IAT_purple4.bmp,purple,starting_scream,scream,starting,c,negative,negative,ES_green,1,c,538,1815021,1815525,1815729
112,second,4,heiter,IAT_green3.bmp,green,ending_scream,scream,ending,m,positive,positive,ES_green,1,m,506,1817343,1817847,1818051
112,second,5,gierig,IAT_green2.bmp,green,ending_scream,scream,ending,c,negative,positive,ES_green,1,c,539,1819632,1820136,1820340
112,second,6,sozial,IAT_yellow1.bmp,yellow,starting_melody,melody,starting,m,positive,positive,ES_green,1,m,533,1821956,1822460,1822664
112,second,7,krank,IAT_green2.bmp,green,ending_scream,scream,ending,c,negative,positive,ES_green,1,c,531,1824272,1824776,1824980
112,second,8,feige,IAT_red2.bmp,red,ending_melody,melody,ending,c,negative,negative,ES_green,1,c,484,1826587,1827091,1827295
112,second,9,gerecht,IAT_red2.bmp,red,ending_melody,melody,ending,m,positive,negative,ES_green,1,m,543,1828855,1829359,1829563
112,second,10,brutal,IAT_green2.bmp,green,ending_scream,scream,ending,c,negative,positive,ES_green,1,c,525,1831181,1831686,1831890
112,second,11,streng,IAT_yellow4.bmp,yellow,starting_melody,melody,starting,c,negative,positive,ES_green,1,c,638,1833492,1833996,1834200
112,second,12,lästig,IAT_red2.bmp,red,ending_melody,melody,ending,c,negative,negative,ES_green,1,c,672,1835914,1836418,1836622
112,second,13,falsch,IAT_red4.bmp,red,ending_melody,melody,ending,c,negative,negative,ES_green,1,c,444,1838370,1838874,1839078
112,second,14,witzig,IAT_red4.bmp,red,ending_melody,melody,ending,m,positive,negative,ES_green,1,m,557,1840599,1841103,1841307
112,second,15,schön,IAT_yellow1.bmp,yellow,starting_melody,melody,starting,m,positive,positive,ES_green,1,m,516,1842940,1843444,1843648
112,second,16,sonnig,IAT_yellow4.bmp,yellow,starting_melody,melody,starting,m,positive,positive,ES_green,1,m,518,1845241,1845745,1845949
112,second,17,feige,IAT_red3.bmp,red,ending_melody,melody,ending,c,negative,negative,ES_green,1,c,476,1847543,1848047,1848251
112,second,18,morsch,IAT_red4.bmp,red,ending_melody,melody,ending,c,negative,negative,ES_green,1,c,487,1849803,1850307,1850511
112,second,19,streng,IAT_green4.bmp,green,ending_scream,scream,ending,c,negative,positive,ES_green,1,c,561,1852073,1852577,1852781
112,second,20,lustig,IAT_purple4.bmp,purple,starting_scream,scream,starting,m,positive,negative,ES_green,1,m,754,1854419,1854923,1855127
112,second,21,geizig,IAT_green2.bmp,green,ending_scream,scream,ending,c,negative,positive,ES_green,1,c,604,1856956,1857460,1857664
112,second,22,brutal,IAT_green4.bmp,green,ending_scream,scream,ending,c,negative,positive,ES_green,1,c,467,1859344,1859848,1860052
112,second,23,gierig,IAT_yellow2.bmp,yellow,starting_melody,melody,starting,c,negative,positive,ES_green,1,c,490,1861594,1862098,1862302
112,second,24,geizig,IAT_yellow4.bmp,yellow,starting_melody,melody,starting,c,negative,positive,ES_green,1,c,481,1863868,1864373,1864577
112,second,25,teuer,IAT_red1.bmp,red,ending_melody,melody,ending,c,negative,negative,ES_green,1,c,565,1866134,1866639,1866843
112,second,26,witzig,IAT_yellow3.bmp,yellow,starting_melody,melody,starting,m,positive,positive,ES_green,1,m,543,1868484,1868989,1869193
112,second,27,munter,IAT_yellow2.bmp,yellow,starting_melody,melody,starting,m,positive,positive,ES_green,1,m,610,1870812,1871317,1871521
112,second,28,gesund,IAT_purple2.bmp,purple,starting_scream,scream,starting,m,positive,negative,ES_green,1,m,557,1873208,1873712,1873916
112,second,29,morsch,IAT_purple3.bmp,purple,starting_scream,scream,starting,c,negative,negative,ES_green,1,c,542,1875549,1876053,1876257
112,second,30,krank,IAT_purple4.bmp,purple,starting_scream,scream,starting,c,negative,negative,ES_green,1,c,489,1877875,1878380,1878584
112,second,31,falsch,IAT_yellow2.bmp,yellow,starting_melody,melody,starting,c,negative,positive,ES_green,1,c,514,1880149,1880654,1880858
112,second,32,kaputt,IAT_purple4.bmp,purple,starting_scream,scream,starting,c,negative,negative,ES_green,1,c,537,1882448,1882952,1883156
112,second,33,brutal,IAT_yellow1.bmp,yellow,starting_melody,melody,starting,c,negative,positive,ES_green,1,c,495,1884770,1885274,1885478
112,second,34,lästig,IAT_yellow4.bmp,yellow,starting_melody,melody,starting,c,negative,positive,ES_green,1,c,589,1887050,1887555,1887759
112,second,35,lustig,IAT_yellow4.bmp,yellow,starting_melody,melody,starting,m,positive,positive,ES_green,1,m,708,1889424,1889928,1890132
112,second,36,streng,IAT_purple4.bmp,purple,starting_scream,scream,starting,c,negative,negative,ES_green,1,c,648,1891916,1892420,1892624
112,second,37,einsam,IAT_green3.bmp,green,ending_scream,scream,ending,c,negative,positive,ES_green,1,c,662,1894349,1894853,1895057
112,second,38,falsch,IAT_green3.bmp,green,ending_scream,scream,ending,c,negative,positive,ES_green,1,c,480,1896796,1897300,1897504
112,second,39,morsch,IAT_yellow4.bmp,yellow,starting_melody,melody,starting,c,negative,positive,ES_green,1,c,504,1899061,1899565,1899769
112,second,40,krank,IAT_yellow3.bmp,yellow,starting_melody,melody,starting,c,negative,positive,ES_green,1,c,468,1901350,1901854,1902058
112,second,41,human,IAT_yellow3.bmp,yellow,starting_melody,melody,starting,m,positive,positive,ES_green,1,m,584,1903603,1904107,1904311
112,second,42,geizig,IAT_yellow3.bmp,yellow,starting_melody,melody,starting,c,negative,positive,ES_green,1,c,554,1905971,1906475,1906679
112,second,43,schön,IAT_green1.bmp,green,ending_scream,scream,ending,m,positive,positive,ES_green,1,m,571,1908309,1908813,1909017
112,second,44,sonnig,IAT_green2.bmp,green,ending_scream,scream,ending,m,positive,positive,ES_green,1,m,577,1910664,1911169,1911373
112,second,45,feige,IAT_red1.bmp,red,ending_melody,melody,ending,c,negative,negative,ES_green,1,c,515,1913026,1913531,1913735
112,second,46,human,IAT_purple1.bmp,purple,starting_scream,scream,starting,m,positive,negative,ES_green,1,m,550,1915330,1915835,1916039
112,second,47,witzig,IAT_red4.bmp,red,ending_melody,melody,ending,m,positive,negative,ES_green,1,m,642,1917670,1918174,1918378
112,second,48,gerecht,IAT_green1.bmp,green,ending_scream,scream,ending,m,positive,positive,ES_green,1,m,887,1920097,1920602,1920806
112,second,49,heiter,IAT_green4.bmp,green,ending_scream,scream,ending,m,positive,positive,ES_green,1,m,538,1922770,1923274,1923478
112,second,50,gesund,IAT_purple3.bmp,purple,starting_scream,scream,starting,m,positive,negative,ES_green,1,m,567,1925092,1925596,1925800
112,second,51,gerecht,IAT_red3.bmp,red,ending_melody,melody,ending,m,positive,negative,ES_green,1,m,561,1927443,1927947,1928151
112,second,52,human,IAT_purple3.bmp,purple,starting_scream,scream,starting,m,positive,negative,ES_green,1,m,536,1929789,1930293,1930497
112,second,53,kaputt,IAT_green4.bmp,green,ending_scream,scream,ending,c,negative,positive,ES_green,1,c,659,1932110,1932614,1932818
112,second,54,lästig,IAT_purple1.bmp,purple,starting_scream,scream,starting,c,negative,negative,ES_green,1,c,571,1934553,1935058,1935262
112,second,55,sanft,IAT_yellow1.bmp,yellow,starting_melody,melody,starting,m,positive,positive,ES_green,1,m,584,1936910,1937414,1937618
112,second,56,morsch,IAT_purple2.bmp,purple,starting_scream,scream,starting,c,negative,negative,ES_green,1,c,577,1939278,1939783,1939987
112,second,57,einsam,IAT_purple3.bmp,purple,starting_scream,scream,starting,c,negative,negative,ES_green,1,c,718,1941640,1942145,1942349
112,second,58,schön,IAT_purple3.bmp,purple,starting_scream,scream,starting,m,positive,negative,ES_green,1,m,560,1944144,1944648,1944852
112,second,59,falsch,IAT_red3.bmp,red,ending_melody,melody,ending,c,negative,negative,ES_green,1,c,592,1946489,1946994,1947198
112,second,60,sozial,IAT_purple1.bmp,purple,starting_scream,scream,starting,m,positive,negative,ES_green,1,m,521,1948867,1949371,1949575
112,second,61,feige,IAT_green4.bmp,green,ending_scream,scream,ending,c,negative,positive,ES_green,1,c,497,1951174,1951678,1951882
112,second,62,kaputt,IAT_red2.bmp,red,ending_melody,melody,ending,c,negative,negative,ES_green,1,c,457,1953456,1953960,1954164
112,second,63,ehrlich,IAT_green2.bmp,green,ending_scream,scream,ending,m,positive,positive,ES_green,1,m,879,1955697,1956201,1956405
112,second,64,witzig,IAT_purple4.bmp,purple,starting_scream,scream,starting,m,positive,negative,ES_green,1,m,521,1958361,1958865,1959069
112,second,65,munter,IAT_purple3.bmp,purple,starting_scream,scream,starting,m,positive,negative,ES_green,1,m,525,1960667,1961171,1961375
112,second,66,heiter,IAT_red3.bmp,red,ending_melody,melody,ending,m,positive,negative,ES_green,1,m,496,1962978,1963482,1963686
112,second,67,sonnig,IAT_purple1.bmp,purple,starting_scream,scream,starting,m,positive,negative,ES_green,1,m,444,1965259,1965763,1965967
112,second,68,gesund,IAT_red2.bmp,red,ending_melody,melody,ending,m,positive,negative,ES_green,1,m,659,1967489,1967994,1968198
112,second,69,teuer,IAT_purple1.bmp,purple,starting_scream,scream,starting,c,negative,negative,ES_green,0,m,497,1969933,1970437,1970641
112,second,70,lustig,IAT_green3.bmp,green,ending_scream,scream,ending,m,positive,positive,ES_green,1,m,525,1972715,1973219,1973423
112,second,71,ehrlich,IAT_red1.bmp,red,ending_melody,melody,ending,m,positive,negative,ES_green,1,m,570,1975024,1975528,1975732
112,second,72,sanft,IAT_red1.bmp,red,ending_melody,melody,ending,m,positive,negative,ES_green,1,m,520,1977379,1977884,1978088
112,second,73,einsam,IAT_purple2.bmp,purple,starting_scream,scream,starting,c,negative,negative,ES_green,1,c,682,1979686,1980190,1980394
112,second,74,lästig,IAT_red2.bmp,red,ending_melody,melody,ending,c,negative,negative,ES_green,1,c,585,1982152,1982656,1982860
112,second,75,human,IAT_green1.bmp,green,ending_scream,scream,ending,m,positive,positive,ES_green,1,m,536,1984521,1985025,1985229
112,second,76,streng,IAT_yellow1.bmp,yellow,starting_melody,melody,starting,c,negative,positive,ES_green,1,c,625,1986843,1987347,1987551
112,second,77,sozial,IAT_red1.bmp,red,ending_melody,melody,ending,m,positive,negative,ES_green,1,m,634,1989253,1989757,1989962
112,second,78,sanft,IAT_green1.bmp,green,ending_scream,scream,ending,m,positive,positive,ES_green,1,m,721,1991673,1992177,1992381
112,second,79,munter,IAT_red3.bmp,red,ending_melody,melody,ending,m,positive,negative,ES_green,1,m,537,1994179,1994683,1994887
112,second,80,gierig,IAT_green1.bmp,green,ending_scream,scream,ending,c,negative,positive,ES_green,1,c,589,1996500,1997005,1997209
112,second,81,teuer,IAT_yellow2.bmp,yellow,starting_melody,melody,starting,c,negative,positive,ES_green,1,c,657,1998876,1999380,1999584
112,second,82,ehrlich,IAT_purple2.bmp,purple,starting_scream,scream,starting,m,positive,negative,ES_green,1,m,611,2001319,2001823,2002027
112,second,83,heiter,IAT_purple1.bmp,purple,starting_scream,scream,starting,m,positive,negative,ES_green,1,m,560,2003714,2004218,2004422
112,second,84,schön,IAT_green3.bmp,green,ending_scream,scream,ending,m,positive,positive,ES_green,1,m,596,2006058,2006563,2006767
112,second,85,sonnig,IAT_yellow1.bmp,yellow,starting_melody,melody,starting,m,positive,positive,ES_green,1,m,520,2008440,2008944,2009148
112,second,86,kaputt,IAT_purple2.bmp,purple,starting_scream,scream,starting,c,negative,negative,ES_green,1,c,557,2010746,2011250,2011454
112,second,87,sanft,IAT_red1.bmp,red,ending_melody,melody,ending,m,positive,negative,ES_green,1,m,565,2013089,2013593,2013797
112,second,88,gerecht,IAT_green3.bmp,green,ending_scream,scream,ending,m,positive,positive,ES_green,1,m,680,2015440,2015944,2016148
112,second,89,lustig,IAT_red3.bmp,red,ending_melody,melody,ending,m,positive,negative,ES_green,1,m,491,2017904,2018408,2018612
112,second,90,einsam,IAT_red4.bmp,red,ending_melody,melody,ending,c,negative,negative,ES_green,1,c,627,2020180,2020684,2020888
112,second,91,munter,IAT_yellow3.bmp,yellow,starting_melody,melody,starting,m,positive,positive,ES_green,1,m,478,2022592,2023096,2023300
112,second,92,geizig,IAT_purple2.bmp,purple,starting_scream,scream,starting,c,negative,negative,ES_green,1,c,742,2024856,2025360,2025565
112,second,93,teuer,IAT_yellow2.bmp,yellow,starting_melody,melody,starting,c,negative,positive,ES_green,1,c,795,2027383,2027887,2028091
112,second,94,sozial,IAT_yellow3.bmp,yellow,starting_melody,melody,starting,m,positive,positive,ES_green,1,m,568,2029962,2030467,2030671
112,second,95,krank,IAT_green1.bmp,green,ending_scream,scream,ending,c,negative,positive,ES_green,1,c,492,2032315,2032819,2033023
112,third,0,streng,IAT_green1.bmp,green,ending_scream,scream,ending,c,negative,positive,ES_green,1,c,555,2056055,2056559,2056763
112,third,1,heiter,IAT_green3.bmp,green,ending_scream,scream,ending,m,positive,positive,ES_green,1,m,484,2058396,2058900,2059104
112,third,2,sozial,IAT_yellow3.bmp,yellow,starting_melody,melody,starting,m,positive,positive,ES_green,1,m,484,2060664,2061168,2061373
112,third,3,geizig,IAT_red2.bmp,red,ending_melody,melody,ending,c,negative,negative,ES_green,1,c,607,2062932,2063437,2063641
112,third,4,gerecht,IAT_purple2.bmp,purple,starting_scream,scream,starting,m,positive,negative,ES_green,1,m,556,2065324,2065828,2066032
112,third,5,lustig,IAT_yellow2.bmp,yellow,starting_melody,melody,starting,m,positive,positive,ES_green,1,m,545,2067664,2068168,2068372
112,third,6,morsch,IAT_purple2.bmp,purple,starting_scream,scream,starting,c,negative,negative,ES_green,1,c,530,2069993,2070497,2070701
112,third,7,witzig,IAT_yellow2.bmp,yellow,starting_melody,melody,starting,m,positive,positive,ES_green,1,m,457,2072307,2072811,2073015
112,third,8,kaputt,IAT_green4.bmp,green,ending_scream,scream,ending,c,negative,positive,ES_green,1,c,566,2074548,2075052,2075256
112,third,9,schön,IAT_green2.bmp,green,ending_scream,scream,ending,m,positive,positive,ES_green,1,m,459,2076899,2077403,2077607
112,third,10,teuer,IAT_green4.bmp,green,ending_scream,scream,ending,c,negative,positive,ES_green,1,c,556,2079144,2079648,2079852
112,third,11,gesund,IAT_yellow1.bmp,yellow,starting_melody,melody,starting,m,positive,positive,ES_green,1,m,459,2081484,2081988,2082192
112,third,12,witzig,IAT_red3.bmp,red,ending_melody,melody,ending,m,positive,negative,ES_green,0,c,406,2083727,2084231,2084435
112,third,13,lästig,IAT_red2.bmp,red,ending_melody,melody,ending,c,negative,negative,ES_green,1,c,673,2086420,2086924,2087128
112,third,14,munter,IAT_green3.bmp,green,ending_scream,scream,ending,m,positive,positive,ES_green,1,m,471,2088877,2089381,2089585
112,third,15,morsch,IAT_red3.bmp,red,ending_melody,melody,ending,c,negative,negative,ES_green,1,c,551,2091132,2091636,2091840
112,third,16,feige,IAT_purple1.bmp,purple,starting_scream,scream,starting,c,negative,negative,ES_green,1,c,531,2093468,2093972,2094176
112,third,17,einsam,IAT_yellow3.bmp,yellow,starting_melody,melody,starting,c,negative,positive,ES_green,1,c,654,2095783,2096287,2096491
112,third,18,sonnig,IAT_red3.bmp,red,ending_melody,melody,ending,m,positive,negative,ES_green,1,m,521,2098222,2098726,2098930
112,third,19,lustig,IAT_green4.bmp,green,ending_scream,scream,ending,m,positive,positive,ES_green,1,m,564,2100527,2101031,2101235
112,third,20,gierig,IAT_red1.bmp,red,ending_melody,melody,ending,c,negative,negative,ES_green,1,c,437,2102875,2103380,2103584
112,third,21,feige,IAT_yellow2.bmp,yellow,starting_melody,melody,starting,c,negative,positive,ES_green,1,c,525,2105097,2105602,2105806
112,third,22,kaputt,IAT_green1.bmp,green,ending_scream,scream,ending,c,negative,positive,ES_green,1,c,555,2107408,2107913,2108117
112,third,23,sanft,IAT_green2.bmp,green,ending_scream,scream,ending,m,positive,positive,ES_green,1,m,614,2109748,2110252,2110456
112,third,24,gesund,IAT_green1.bmp,green,ending_scream,scream,ending,m,positive,positive,ES_green,1,m,509,2112147,2112651,2112855
112,third,25,streng,IAT_yellow2.bmp,yellow,starting_melody,melody,starting,c,negative,positive,ES_green,1,c,594,2114440,2114944,2115148
112,third,26,krank,IAT_green2.bmp,green,ending_scream,scream,ending,c,negative,positive,ES_green,1,c,515,2116819,2117324,2117528
112,third,27,human,IAT_red1.bmp,red,ending_melody,melody,ending,m,positive,negative,ES_green,1,m,596,2119120,2119624,2119828
112,third,28,schön,IAT_red1.bmp,red,ending_melody,melody,ending,m,positive,negative,ES_green,1,m,500,2121500,2122004,2122208
112,third,29,sozial,IAT_red4.bmp,red,ending_melody,melody,ending,m,positive,negative,ES_green,1,m,653,2123786,2124290,2124494
112,third,30,human,IAT_purple1.bmp,purple,starting_scream,scream,starting,m,positive,negative,ES_green,1,m,529,2126223,2126727,2126931
112,third,31,ehrlich,IAT_red4.bmp,red,ending_melody,melody,ending,m,positive,negative,ES_green,1,m,537,2128537,2129041,2129245
112,third,32,gierig,IAT_green4.bmp,green,ending_scream,scream,ending,c,negative,positive,ES_green,1,c,583,2130858,2131362,2131566
112,third,33,brutal,IAT_yellow4.bmp,yellow,starting_melody,melody,starting,c,negative,positive,ES_green,1,c,513,2133226,2133730,2133934
112,third,34,witzig,IAT_red1.bmp,red,ending_melody,melody,ending,m,positive,negative,ES_green,1,m,546,2135523,2136027,2136231
112,third,35,geizig,IAT_red4.bmp,red,ending_melody,melody,ending,c,negative,negative,ES_green,1,c,561,2137853,2138357,2138561
112,third,36,munter,IAT_purple1.bmp,purple,starting_scream,scream,starting,m,positive,negative,ES_green,1,m,532,2140200,2140704,2140908
112,third,37,sanft,IAT_red2.bmp,red,ending_melody,melody,ending,m,positive,negative,ES_green,1,m,481,2142517,2143021,2143225
112,third,38,ehrlich,IAT_yellow4.bmp,yellow,starting_melody,melody,starting,m,positive,positive,ES_green,1,m,538,2144783,2145287,2145491
112,third,39,sonnig,IAT_yellow3.bmp,yellow,starting_melody,melody,starting,m,positive,positive,ES_green,1,m,554,2147106,2147611,2147815
112,third,40,ehrlich,IAT_purple1.bmp,purple,starting_scream,scream,starting,m,positive,negative,ES_green,1,m,536,2149445,2149949,2150153
112,third,41,morsch,IAT_red3.bmp,red,ending_melody,melody,ending,c,negative,negative,ES_green,1,c,627,2151766,2152270,2152474
112,third,42,einsam,IAT_green3.bmp,green,ending_scream,scream,ending,c,negative,positive,ES_green,1,c,587,2154178,2154682,2154886
112,third,43,morsch,IAT_red4.bmp,red,ending_melody,melody,ending,c,negative,negative,ES_green,1,c,533,2156550,2157054,2157258
112,third,44,sozial,IAT_purple3.bmp,purple,starting_scream,scream,starting,m,positive,negative,ES_green,1,m,601,2158868,2159372,2159576
112,third,45,feige,IAT_yellow2.bmp,yellow,starting_melody,melody,starting,c,negative,positive,ES_green,1,c,628,2161253,2161758,2161962
112,third,46,munter,IAT_red1.bmp,red,ending_melody,melody,ending,m,positive,negative,ES_green,1,m,580,2163666,2164170,2164374
112,third,47,lästig,IAT_green2.bmp,green,ending_scream,scream,ending,c,negative,positive,ES_green,1,c,642,2166030,2166534,2166738
112,third,48,kaputt,IAT_purple2.bmp,purple,starting_scream,scream,starting,c,negative,negative,ES_green,1,c,570,2168457,2168961,2169165
112,third,49,brutal,IAT_red2.bmp,red,ending_melody,melody,ending,c,negative,negative,ES_green,1,c,547,2170811,2171315,2171519
112,third,50,falsch,IAT_purple4.bmp,purple,starting_scream,scream,starting,c,negative,negative,ES_green,1,c,531,2173142,2173646,2173850
112,third,51,sozial,IAT_purple4.bmp,purple,starting_scream,scream,starting,m,positive,negative,ES_green,1,m,567,2175458,2175962,2176166
112,third,52,lästig,IAT_purple3.bmp,purple,starting_scream,scream,starting,c,negative,negative,ES_green,1,c,502,2177810,2178315,2178519
112,third,53,sonnig,IAT_green4.bmp,green,ending_scream,scream,ending,m,positive,positive,ES_green,1,m,559,2180100,2180604,2180808
112,third,54,schön,IAT_red2.bmp,red,ending_melody,melody,ending,m,positive,negative,ES_green,1,m,481,2182444,2182948,2183152
112,third,55,geizig,IAT_purple1.bmp,purple,starting_scream,scream,starting,c,negative,negative,ES_green,1,c,474,2184710,2185214,2185418
112,third,56,lästig,IAT_purple2.bmp,purple,starting_scream,scream,starting,c,negative,negative,ES_green,1,c,563,2186969,2187474,2187678
112,third,57,gerecht,IAT_yellow1.bmp,yellow,starting_melody,melody,starting,m,positive,positive,ES_green,1,m,554,2189318,2189822,2190026
112,third,58,krank,IAT_purple3.bmp,purple,starting_scream,scream,starting,c,negative,negative,ES_green,1,c,483,2191657,2192161,2192365
112,third,59,kaputt,IAT_purple4.bmp,purple,starting_scream,scream,starting,c,negative,negative,ES_green,1,c,536,2193925,2194429,2194633
112,third,60,gesund,IAT_green1.bmp,green,ending_scream,scream,ending,m,positive,positive,ES_green,1,m,508,2196245,2196750,2196954
112,third,61,heiter,IAT_purple2.bmp,purple,starting_scream,scream,starting,m,positive,negative,ES_green,1,m,562,2198538,2199042,2199246
112,third,62,streng,IAT_yellow4.bmp,yellow,starting_melody,melody,starting,c,negative,positive,ES_green,1,c,511,2200884,2201388,2201592
112,third,63,einsam,IAT_purple4.bmp,purple,starting_scream,scream,starting,c,negative,negative,ES_green,1,c,719,2203180,2203684,2203888
112,third,64,feige,IAT_red1.bmp,red,ending_melody,melody,ending,c,negative,negative,ES_green,1,c,444,2205684,2206188,2206392
112,third,65,teuer,IAT_yellow3.bmp,yellow,starting_melody,melody,starting,c,negative,positive,ES_green,1,c,619,2207913,2208417,2208621
112,third,66,sanft,IAT_purple4.bmp,purple,starting_scream,scream,starting,m,positive,negative,ES_green,1,m,505,2210317,2210821,2211025
112,third,67,krank,IAT_yellow2.bmp,yellow,starting_melody,melody,starting,c,negative,positive,ES_green,1,c,541,2212607,2213112,2213316
112,third,68,ehrlich,IAT_purple3.bmp,purple,starting_scream,scream,starting,m,positive,negative,ES_green,1,m,635,2214933,2215437,2215641
112,third,69,munter,IAT_yellow4.bmp,yellow,starting_melody,melody,starting,m,positive,positive,ES_green,1,m,528,2217353,2217857,2218061
112,third,70,gierig,IAT_yellow4.bmp,yellow,starting_melody,melody,starting,c,negative,positive,ES_green,1,c,530,2219666,2220170,2220375
112,third,71,streng,IAT_green3.bmp,green,ending_scream,scream,ending,c,negative,positive,ES_green,1,c,504,2221983,2222487,2222691
112,third,72,gerecht,IAT_purple3.bmp,purple,starting_scream,scream,starting,m,positive,negative,ES_green,0,c,411,2224272,2224776,2224980
112,third,73,teuer,IAT_green2.bmp,green,ending_scream,scream,ending,c,negative,positive,ES_green,1,c,641,2226969,2227473,2227677
112,third,74,falsch,IAT_red4.bmp,red,ending_melody,melody,ending,c,negative,negative,ES_green,1,c,520,2229394,2229898,2230102
112,third,75,heiter,IAT_yellow1.bmp,yellow,starting_melody,melody,starting,m,positive,positive,ES_green,1,m,612,2231700,2232204,2232408
112,third,76,lustig,IAT_purple1.bmp,purple,starting_scream,scream,starting,m,positive,negative,ES_green,1,m,597,2234097,2234601,2234805
112,third,77,krank,IAT_yellow1.bmp,yellow,starting_melody,melody,starting,c,negative,positive,ES_green,1,c,549,2236479,2236984,2237188
112,third,78,schön,IAT_green3.bmp,green,ending_scream,scream,ending,m,positive,positive,ES_green,1,m,525,2238815,2239319,2239523
112,third,79,sanft,IAT_green3.bmp,green,ending_scream,scream,ending,m,positive,positive,ES_green,1,m,565,2241124,2241628,2241832
112,third,80,teuer,IAT_purple2.bmp,purple,starting_scream,scream,starting,c,negative,negative,ES_green,1,c,594,2243474,2243978,2244182
112,third,81,sonnig,IAT_yellow3.bmp,yellow,starting_melody,melody,starting,m,positive,positive,ES_green,1,m,498,2245863,2246367,2246571
112,third,82,falsch,IAT_green4.bmp,green,ending_scream,scream,ending,c,negative,positive,ES_green,1,c,493,2248147,2248651,2248855
112,third,83,brutal,IAT_red4.bmp,red,ending_melody,melody,ending,c,negative,negative,ES_green,1,c,468,2250425,2250929,2251133
112,third,84,human,IAT_red3.bmp,red,ending_melody,melody,ending,m,positive,negative,ES_green,1,m,488,2252678,2253183,2253387
112,third,85,gerecht,IAT_yellow3.bmp,yellow,starting_melody,melody,starting,m,positive,positive,ES_green,1,m,738,2254952,2255456,2255660
112,third,86,lustig,IAT_green1.bmp,green,ending_scream,scream,ending,m,positive,positive,ES_green,1,m,491,2257475,2257980,2258184
112,third,87,einsam,IAT_yellow1.bmp,yellow,starting_melody,melody,starting,c,negative,positive,ES_green,1,c,693,2259752,2260257,2260461
112,third,88,heiter,IAT_yellow1.bmp,yellow,starting_melody,melody,starting,m,positive,positive,ES_green,1,m,525,2262231,2262735,2262939
112,third,89,human,IAT_green1.bmp,green,ending_scream,scream,ending,m,positive,positive,ES_green,1,m,412,2264541,2265045,2265249
112,third,90,witzig,IAT_red3.bmp,red,ending_melody,melody,ending,m,positive,negative,ES_green,1,m,529,2266739,2267243,2267447
112,third,91,gierig,IAT_yellow4.bmp,yellow,starting_melody,melody,starting,c,negative,positive,ES_green,1,c,655,2269053,2269557,2269762
112,third,92,brutal,IAT_purple4.bmp,purple,starting_scream,scream,starting,c,negative,negative,ES_green,1,c,589,2271494,2271998,2272202
112,third,93,gesund,IAT_purple3.bmp,purple,starting_scream,scream,starting,m,positive,negative,ES_green,1,m,504,2273869,2274373,2274577
112,third,94,falsch,IAT_red2.bmp,red,ending_melody,melody,ending,c,negative,negative,ES_green,1,c,500,2276159,2276664,2276868
112,third,95,geizig,IAT_green2.bmp,green,ending_scream,scream,ending,c,negative,positive,ES_green,1,c,630,2278445,2278949,2279153
112,forth,0,feige,IAT_purple3.bmp,purple,starting_scream,scream,starting,c,negative,negative,ES_green,1,c,593,2313633,2314137,2314341
112,forth,1,ehrlich,IAT_green1.bmp,green,ending_scream,scream,ending,m,positive,positive,ES_green,1,m,514,2316012,2316516,2316720
112,forth,2,sonnig,IAT_red2.bmp,red,ending_melody,melody,ending,m,positive,negative,ES_green,1,m,504,2318311,2318815,2319019
112,forth,3,streng,IAT_red4.bmp,red,ending_melody,melody,ending,c,negative,negative,ES_green,1,c,512,2320600,2321105,2321309
112,forth,4,sozial,IAT_red3.bmp,red,ending_melody,melody,ending,m,positive,negative,ES_green,1,m,581,2322897,2323401,2323605
112,forth,5,munter,IAT_green1.bmp,green,ending_scream,scream,ending,m,positive,positive,ES_green,1,m,447,2325261,2325765,2325969
112,forth,6,geizig,IAT_red2.bmp,red,ending_melody,melody,ending,c,negative,negative,ES_green,1,c,522,2327492,2327997,2328201
112,forth,7,kaputt,IAT_green4.bmp,green,ending_scream,scream,ending,c,negative,positive,ES_green,1,c,485,2329799,2330303,2330507
112,forth,8,morsch,IAT_green1.bmp,green,ending_scream,scream,ending,c,negative,positive,ES_green,1,c,583,2332068,2332572,2332776
112,forth,9,falsch,IAT_red1.bmp,red,ending_melody,melody,ending,c,negative,negative,ES_green,1,c,446,2334436,2334940,2335144
112,forth,10,einsam,IAT_yellow1.bmp,yellow,starting_melody,melody,starting,c,negative,positive,ES_green,1,c,741,2336668,2337172,2337376
112,forth,11,gesund,IAT_purple3.bmp,purple,starting_scream,scream,starting,m,positive,negative,ES_green,1,m,506,2339194,2339698,2339902
112,forth,12,feige,IAT_purple2.bmp,purple,starting_scream,scream,starting,c,negative,negative,ES_green,1,c,486,2341485,2341989,2342193
112,forth,13,schön,IAT_green3.bmp,green,ending_scream,scream,ending,m,positive,positive,ES_green,1,m,545,2343756,2344260,2344464
112,forth,14,ehrlich,IAT_purple3.bmp,purple,starting_scream,scream,starting,m,positive,negative,ES_green,1,m,600,2346086,2346590,2346794
112,forth,15,brutal,IAT_purple4.bmp,purple,starting_scream,scream,starting,c,negative,negative,ES_green,1,c,511,2348469,2348974,2349178
112,forth,16,krank,IAT_green2.bmp,green,ending_scream,scream,ending,c,negative,positive,ES_green,1,c,483,2350764,2351269,2351473
112,forth,17,schön,IAT_yellow1.bmp,yellow,starting_melody,melody,starting,m,positive,positive,ES_green,1,m,450,2353033,2353537,2353741
112,forth,18,heiter,IAT_red4.bmp,red,ending_melody,melody,ending,m,positive,negative,ES_green,1,m,554,2355268,2355772,2355976
112,forth,19,lustig,IAT_yellow1.bmp,yellow,starting_melody,melody,starting,m,positive,positive,ES_green,1,m,511,2357607,2358112,2358316
112,forth,20,einsam,IAT_yellow2.bmp,yellow,starting_melody,melody,starting,c,negative,positive,ES_green,1,c,564,2359902,2360407,2360611
112,forth,21,geizig,IAT_green3.bmp,green,ending_scream,scream,ending,c,negative,positive,ES_green,1,c,477,2362251,2362755,2362959
112,forth,22,sozial,IAT_green1.bmp,green,ending_scream,scream,ending,m,positive,positive,ES_green,1,m,672,2364511,2365016,2365220
112,forth,23,falsch,IAT_red3.bmp,red,ending_melody,melody,ending,c,negative,negative,ES_green,1,c,492,2366969,2367473,2367677
112,forth,24,kaputt,IAT_yellow4.bmp,yellow,starting_melody,melody,starting,c,negative,positive,ES_green,1,c,581,2369246,2369750,2369954
112,forth,25,gerecht,IAT_yellow3.bmp,yellow,starting_melody,melody,starting,m,positive,positive,ES_green,1,m,541,2371611,2372115,2372319
112,forth,26,falsch,IAT_yellow4.bmp,yellow,starting_melody,melody,starting,c,negative,positive,ES_green,1,c,457,2373936,2374440,2374644
112,forth,27,heiter,IAT_yellow3.bmp,yellow,starting_melody,melody,starting,m,positive,positive,ES_green,1,m,512,2376178,2376683,2376887
112,forth,28,morsch,IAT_purple3.bmp,purple,starting_scream,scream,starting,c,negative,negative,ES_green,1,c,505,2378476,2378980,2379184
112,forth,29,witzig,IAT_purple4.bmp,purple,starting_scream,scream,starting,m,positive,negative,ES_green,1,m,523,2380765,2381270,2381474
112,forth,30,streng,IAT_purple4.bmp,purple,starting_scream,scream,starting,c,negative,negative,ES_green,1,c,754,2383072,2383577,2383781
112,forth,31,lästig,IAT_green2.bmp,green,ending_scream,scream,ending,c,negative,positive,ES_green,1,c,844,2385611,2386115,2386319
112,forth,32,brutal,IAT_purple1.bmp,purple,starting_scream,scream,starting,c,negative,negative,ES_green,1,c,651,2388241,2388745,2388949
112,forth,33,gierig,IAT_yellow2.bmp,yellow,starting_melody,melody,starting,c,negative,positive,ES_green,1,c,515,2390678,2391182,2391386
112,forth,34,human,IAT_purple1.bmp,purple,starting_scream,scream,starting,m,positive,negative,ES_green,1,m,515,2392978,2393482,2393686
112,forth,35,sanft,IAT_green2.bmp,green,ending_scream,scream,ending,m,positive,positive,ES_green,1,m,427,2395278,2395782,2395986
112,forth,36,ehrlich,IAT_red1.bmp,red,ending_melody,melody,ending,m,positive,negative,ES_green,1,m,555,2397490,2397994,2398198
112,forth,37,sanft,IAT_purple2.bmp,purple,starting_scream,scream,starting,m,positive,negative,ES_green,1,m,466,2399832,2400336,2400540
112,forth,38,munter,IAT_green3.bmp,green,ending_scream,scream,ending,m,positive,positive,ES_green,1,m,506,2402083,2402587,2402791
112,forth,39,morsch,IAT_red4.bmp,red,ending_melody,melody,ending,c,negative,negative,ES_green,1,c,524,2404373,2404878,2405082
112,forth,40,feige,IAT_red4.bmp,red,ending_melody,melody,ending,c,negative,negative,ES_green,1,c,531,2406682,2407186,2407390
112,forth,41,gerecht,IAT_purple4.bmp,purple,starting_scream,scream,starting,m,positive,negative,ES_green,1,m,578,2408998,2409502,2409706
112,forth,42,human,IAT_red4.bmp,red,ending_melody,melody,ending,m,positive,negative,ES_green,1,m,546,2411360,2411864,2412068
112,forth,43,munter,IAT_yellow2.bmp,yellow,starting_melody,melody,starting,m,positive,positive,ES_green,1,m,463,2413691,2414195,2414399
112,forth,44,sonnig,IAT_red1.bmp,red,ending_melody,melody,ending,m,positive,negative,ES_green,1,m,496,2415939,2416444,2416648
112,forth,45,schön,IAT_green2.bmp,green,ending_scream,scream,ending,m,positive,positive,ES_green,1,m,437,2418222,2418726,2418930
112,forth,46,sonnig,IAT_green3.bmp,green,ending_scream,scream,ending,m,positive,positive,ES_green,1,m,414,2420443,2420948,2421152
112,forth,47,teuer,IAT_red4.bmp,red,ending_melody,melody,ending,c,negative,negative,ES_green,1,c,606,2422643,2423147,2423351
112,forth,48,einsam,IAT_green4.bmp,green,ending_scream,scream,ending,c,negative,positive,ES_green,1,c,540,2425034,2425538,2425742
112,forth,49,human,IAT_purple1.bmp,purple,starting_scream,scream,starting,m,positive,negative,ES_green,1,m,457,2427364,2427869,2428073
112,forth,50,schön,IAT_yellow3.bmp,yellow,starting_melody,melody,starting,m,positive,positive,ES_green,1,m,404,2429608,2430113,2430317
112,forth,51,witzig,IAT_red1.bmp,red,ending_melody,melody,ending,m,positive,negative,ES_green,1,m,491,2431798,2432303,2432507
112,forth,52,gesund,IAT_yellow4.bmp,yellow,starting_melody,melody,starting,m,positive,positive,ES_green,1,m,447,2434076,2434580,2434784
112,forth,53,lustig,IAT_red1.bmp,red,ending_melody,melody,ending,m,positive,negative,ES_green,1,m,423,2436308,2436813,2437017
112,forth,54,sozial,IAT_red3.bmp,red,ending_melody,melody,ending,m,positive,negative,ES_green,1,m,441,2438517,2439021,2439225
112,forth,55,munter,IAT_yellow1.bmp,yellow,starting_melody,melody,starting,m,positive,positive,ES_green,1,m,411,2440743,2441247,2441451
112,forth,56,lästig,IAT_red1.bmp,red,ending_melody,melody,ending,c,negative,negative,ES_green,1,c,635,2442939,2443443,2443647
112,forth,57,einsam,IAT_yellow2.bmp,yellow,starting_melody,melody,starting,c,negative,positive,ES_green,1,c,690,2445359,2445864,2446068
112,forth,58,morsch,IAT_purple2.bmp,purple,starting_scream,scream,starting,c,negative,negative,ES_green,1,c,501,2447835,2448339,2448543
112,forth,59,kaputt,IAT_yellow3.bmp,yellow,starting_melody,melody,starting,c,negative,positive,ES_green,1,c,424,2450120,2450625,2450829
112,forth,60,krank,IAT_green4.bmp,green,ending_scream,scream,ending,c,negative,positive,ES_green,1,c,476,2452330,2452834,2453038
112,forth,61,sonnig,IAT_green1.bmp,green,ending_scream,scream,ending,m,positive,positive,ES_green,1,m,487,2454590,2455095,2455299
112,forth,62,witzig,IAT_green3.bmp,green,ending_scream,scream,ending,m,positive,positive,ES_green,1,m,524,2456863,2457367,2457571
112,forth,63,teuer,IAT_red2.bmp,red,ending_melody,melody,ending,c,negative,negative,ES_green,1,c,675,2459172,2459676,2459880
112,forth,64,geizig,IAT_green2.bmp,green,ending_scream,scream,ending,c,negative,positive,ES_green,1,c,662,2461631,2462136,2462340
112,forth,65,gierig,IAT_purple1.bmp,purple,starting_scream,scream,starting,c,negative,negative,ES_green,1,c,461,2464079,2464583,2464787
112,forth,66,streng,IAT_green1.bmp,green,ending_scream,scream,ending,c,negative,positive,ES_green,1,c,513,2466324,2466829,2467033
112,forth,67,sanft,IAT_green4.bmp,green,ending_scream,scream,ending,m,positive,positive,ES_green,1,m,611,2468623,2469127,2469331
112,forth,68,heiter,IAT_yellow2.bmp,yellow,starting_melody,melody,starting,m,positive,positive,ES_green,1,m,482,2471020,2471524,2471728
112,forth,69,gerecht,IAT_purple1.bmp,purple,starting_scream,scream,starting,m,positive,negative,ES_green,1,m,664,2473288,2473792,2473996
112,forth,70,brutal,IAT_green2.bmp,green,ending_scream,scream,ending,c,negative,positive,ES_green,1,c,575,2475739,2476243,2476447
112,forth,71,lustig,IAT_yellow1.bmp,yellow,starting_melody,melody,starting,m,positive,positive,ES_green,1,m,657,2478100,2478604,2478808
112,forth,72,teuer,IAT_yellow2.bmp,yellow,starting_melody,melody,starting,c,negative,positive,ES_green,1,c,600,2480541,2481046,2481250
112,forth,73,sozial,IAT_red3.bmp,red,ending_melody,melody,ending,m,positive,negative,ES_green,1,m,502,2482927,2483432,2483636
112,forth,74,krank,IAT_green4.bmp,green,ending_scream,scream,ending,c,negative,positive,ES_green,1,c,442,2485216,2485720,2485924
112,forth,75,gierig,IAT_yellow1.bmp,yellow,starting_melody,melody,starting,c,negative,positive,ES_green,1,c,472,2487444,2487948,2488152
112,forth,76,krank,IAT_green3.bmp,green,ending_scream,scream,ending,c,negative,positive,ES_green,1,c,457,2489701,2490205,2490409
112,forth,77,geizig,IAT_purple2.bmp,purple,starting_scream,scream,starting,c,negative,negative,ES_green,1,c,530,2491943,2492447,2492651
112,forth,78,gerecht,IAT_purple3.bmp,purple,starting_scream,scream,starting,m,positive,negative,ES_green,1,m,767,2494258,2494762,2494966
112,forth,79,sanft,IAT_purple1.bmp,purple,starting_scream,scream,starting,m,positive,negative,ES_green,1,m,455,2496810,2497314,2497518
112,forth,80,human,IAT_purple3.bmp,purple,starting_scream,scream,starting,m,positive,negative,ES_green,1,m,420,2499051,2499555,2499759
112,forth,81,kaputt,IAT_red2.bmp,red,ending_melody,melody,ending,c,negative,negative,ES_green,1,c,412,2501256,2501760,2501964
112,forth,82,streng,IAT_yellow4.bmp,yellow,starting_melody,melody,starting,c,negative,positive,ES_green,1,c,469,2503454,2503958,2504162
112,forth,83,ehrlich,IAT_red2.bmp,red,ending_melody,melody,ending,m,positive,negative,ES_green,1,m,583,2505708,2506213,2506417
112,forth,84,teuer,IAT_purple2.bmp,purple,starting_scream,scream,starting,c,negative,negative,ES_green,1,c,584,2508077,2508581,2508785
112,forth,85,lustig,IAT_red3.bmp,red,ending_melody,melody,ending,m,positive,negative,ES_green,1,m,571,2510446,2510950,2511154
112,forth,86,feige,IAT_red3.bmp,red,ending_melody,melody,ending,c,negative,negative,ES_green,1,c,683,2512803,2513307,2513511
112,forth,87,witzig,IAT_yellow4.bmp,yellow,starting_melody,melody,starting,m,positive,positive,ES_green,1,m,483,2515271,2515775,2515979
112,forth,88,gesund,IAT_purple2.bmp,purple,starting_scream,scream,starting,m,positive,negative,ES_green,1,m,508,2517539,2518044,2518248
112,forth,89,heiter,IAT_green4.bmp,green,ending_scream,scream,ending,m,positive,positive,ES_green,1,m,506,2519833,2520338,2520542
112,forth,90,lästig,IAT_red2.bmp,red,ending_melody,melody,ending,c,negative,negative,ES_green,1,c,501,2522125,2522630,2522834
112,forth,91,gierig,IAT_purple4.bmp,purple,starting_scream,scream,starting,c,negative,negative,ES_green,1,c,510,2524412,2524917,2525121
112,forth,92,lästig,IAT_purple4.bmp,purple,starting_scream,scream,starting,c,negative,negative,ES_green,1,c,575,2526709,2527213,2527417
112,forth,93,gesund,IAT_yellow3.bmp,yellow,starting_melody,melody,starting,m,positive,positive,ES_green,1,m,508,2529069,2529574,2529778
112,forth,94,brutal,IAT_yellow4.bmp,yellow,starting_melody,melody,starting,c,negative,positive,ES_green,1,c,508,2531364,2531868,2532072
112,forth,95,falsch,IAT_yellow3.bmp,yellow,starting_melody,melody,starting,c,negative,positive,ES_green,1,c,486,2533658,2534162,2534366
