subject_nr,block,trialnr,trial_target,trial_prime,prime_color,prime_role,prime_us,prime_relation,correct_response,target_valence,prime_valence,color_counter,correct_first_response,response_first_response,response_time_first_response,fixation_show,prime_show,target_show
34,first,0,einsam,IAT_green1.bmp,green,ending_scream,scream,ending,c,negative,positive,ES_green,1,c,576,1474622,1475126,1475330
34,first,1,schön,IAT_green4.bmp,green,ending_scream,scream,ending,m,positive,positive,ES_green,1,m,458,1476980,1477484,1477688
34,first,2,geizig,IAT_purple1.bmp,purple,starting_scream,scream,starting,c,negative,negative,ES_green,1,c,599,1479221,1479725,1479929
34,first,3,brutal,IAT_green3.bmp,green,ending_scream,scream,ending,c,negative,positive,ES_green,1,c,668,1481602,1482107,1482311
34,first,4,gerecht,IAT_green4.bmp,green,ending_scream,scream,ending,m,positive,positive,ES_green,1,m,694,1484052,1484556,1484760
34,first,5,sonnig,IAT_green1.bmp,green,ending_scream,scream,ending,m,positive,positive,ES_green,1,m,1051,1486527,1487031,1487235
34,first,6,gesund,IAT_purple1.bmp,purple,starting_scream,scream,starting,m,positive,negative,ES_green,1,m,524,1489360,1489864,1490068
34,first,7,witzig,IAT_green3.bmp,green,ending_scream,scream,ending,m,positive,positive,ES_green,1,m,502,1491666,1492171,1492375
34,first,8,feige,IAT_red1.bmp,red,ending_melody,melody,ending,c,negative,negative,ES_green,1,c,396,1493951,1494455,1494659
34,first,9,lästig,IAT_green4.bmp,green,ending_scream,scream,ending,c,negative,positive,ES_green,0,m,832,1496129,1496633,1496837
34,first,10,gesund,IAT_green2.bmp,green,ending_scream,scream,ending,m,positive,positive,ES_green,1,m,869,1499244,1499748,1499952
34,first,11,feige,IAT_yellow4.bmp,yellow,starting_melody,melody,starting,c,negative,positive,ES_green,1,c,647,1501894,1502398,1502602
34,first,12,sanft,IAT_green3.bmp,green,ending_scream,scream,ending,m,positive,positive,ES_green,1,m,441,1504323,1504827,1505032
34,first,13,munter,IAT_yellow3.bmp,yellow,starting_melody,melody,starting,m,positive,positive,ES_green,1,m,919,1506545,1507049,1507253
34,first,14,human,IAT_red3.bmp,red,ending_melody,melody,ending,m,positive,negative,ES_green,1,m,527,1509245,1509750,1509954
34,first,15,krank,IAT_purple4.bmp,purple,starting_scream,scream,starting,c,negative,negative,ES_green,1,c,537,1511554,1512058,1512262
34,first,16,brutal,IAT_green1.bmp,green,ending_scream,scream,ending,c,negative,positive,ES_green,1,c,905,1513872,1514377,1514581
34,first,17,streng,IAT_yellow2.bmp,yellow,starting_melody,melody,starting,c,negative,positive,ES_green,0,m,631,1516560,1517064,1517268
34,first,18,falsch,IAT_red1.bmp,red,ending_melody,melody,ending,c,negative,negative,ES_green,0,None,1500,1519472,1519977,1520181
34,first,19,geizig,IAT_yellow3.bmp,yellow,starting_melody,melody,starting,c,negative,positive,ES_green,0,None,1500,1523254,1523759,1523963
34,first,20,sozial,IAT_red4.bmp,red,ending_melody,melody,ending,m,positive,negative,ES_green,1,m,475,1527035,1527540,1527744
34,first,21,falsch,IAT_green4.bmp,green,ending_scream,scream,ending,c,negative,positive,ES_green,0,m,633,1529293,1529797,1530001
34,first,22,schön,IAT_yellow4.bmp,yellow,starting_melody,melody,starting,m,positive,positive,ES_green,1,m,674,1532207,1532711,1532915
34,first,23,einsam,IAT_yellow2.bmp,yellow,starting_melody,melody,starting,c,negative,positive,ES_green,1,c,619,1534663,1535167,1535371
34,first,24,teuer,IAT_red2.bmp,red,ending_melody,melody,ending,c,negative,negative,ES_green,0,m,826,1537064,1537568,1537772
34,first,25,munter,IAT_yellow4.bmp,yellow,starting_melody,melody,starting,m,positive,positive,ES_green,0,None,1500,1540172,1540677,1540881
34,first,26,ehrlich,IAT_green2.bmp,green,ending_scream,scream,ending,m,positive,positive,ES_green,1,m,532,1543953,1544457,1544661
34,first,27,kaputt,IAT_yellow1.bmp,yellow,starting_melody,melody,starting,c,negative,positive,ES_green,0,m,564,1546267,1546772,1546976
34,first,28,gierig,IAT_purple2.bmp,purple,starting_scream,scream,starting,c,negative,negative,ES_green,0,m,700,1549114,1549618,1549822
34,first,29,sonnig,IAT_yellow2.bmp,yellow,starting_melody,melody,starting,m,positive,positive,ES_green,1,m,723,1552097,1552601,1552805
34,first,30,krank,IAT_purple2.bmp,purple,starting_scream,scream,starting,c,negative,negative,ES_green,0,m,475,1554602,1555106,1555310
34,first,31,lustig,IAT_purple3.bmp,purple,starting_scream,scream,starting,m,positive,negative,ES_green,1,m,1461,1557358,1557862,1558066
34,first,32,sanft,IAT_yellow3.bmp,yellow,starting_melody,melody,starting,m,positive,positive,ES_green,1,m,498,1560601,1561105,1561309
34,first,33,sozial,IAT_red1.bmp,red,ending_melody,melody,ending,m,positive,negative,ES_green,1,m,495,1562880,1563385,1563589
34,first,34,gerecht,IAT_yellow3.bmp,yellow,starting_melody,melody,starting,m,positive,positive,ES_green,1,m,516,1565157,1565661,1565865
34,first,35,kaputt,IAT_red3.bmp,red,ending_melody,melody,ending,c,negative,negative,ES_green,1,c,611,1567455,1567959,1568163
34,first,36,lustig,IAT_purple1.bmp,purple,starting_scream,scream,starting,m,positive,negative,ES_green,1,m,822,1569848,1570352,1570556
34,first,37,brutal,IAT_purple4.bmp,purple,starting_scream,scream,starting,c,negative,negative,ES_green,1,c,561,1572451,1572955,1573159
34,first,38,lästig,IAT_green3.bmp,green,ending_scream,scream,ending,c,negative,positive,ES_green,1,c,1170,1574794,1575298,1575502
34,first,39,gerecht,IAT_red1.bmp,red,ending_melody,melody,ending,m,positive,negative,ES_green,1,m,1009,1577745,1578249,1578453
34,first,40,streng,IAT_green2.bmp,green,ending_scream,scream,ending,c,negative,positive,ES_green,1,c,1076,1580536,1581040,1581244
34,first,41,heiter,IAT_green3.bmp,green,ending_scream,scream,ending,m,positive,positive,ES_green,1,m,593,1583394,1583898,1584102
34,first,42,sozial,IAT_purple1.bmp,purple,starting_scream,scream,starting,m,positive,negative,ES_green,1,m,583,1585768,1586272,1586476
34,first,43,sanft,IAT_green3.bmp,green,ending_scream,scream,ending,m,positive,positive,ES_green,1,m,1095,1588133,1588637,1588841
34,first,44,heiter,IAT_red2.bmp,red,ending_melody,melody,ending,m,positive,negative,ES_green,1,m,812,1591012,1591516,1591720
34,first,45,ehrlich,IAT_red1.bmp,red,ending_melody,melody,ending,m,positive,negative,ES_green,1,m,586,1593604,1594109,1594313
34,first,46,krank,IAT_purple3.bmp,purple,starting_scream,scream,starting,c,negative,negative,ES_green,1,c,527,1595973,1596477,1596681
34,first,47,lästig,IAT_yellow2.bmp,yellow,starting_melody,melody,starting,c,negative,positive,ES_green,1,c,878,1598282,1598786,1598990
34,first,48,kaputt,IAT_yellow3.bmp,yellow,starting_melody,melody,starting,c,negative,positive,ES_green,1,c,1193,1600942,1601446,1601650
34,first,49,munter,IAT_yellow1.bmp,yellow,starting_melody,melody,starting,m,positive,positive,ES_green,1,m,867,1603917,1604421,1604625
34,first,50,einsam,IAT_purple3.bmp,purple,starting_scream,scream,starting,c,negative,negative,ES_green,1,c,817,1606566,1607070,1607274
34,first,51,sanft,IAT_purple2.bmp,purple,starting_scream,scream,starting,m,positive,negative,ES_green,0,c,823,1609164,1609669,1609873
34,first,52,munter,IAT_purple3.bmp,purple,starting_scream,scream,starting,m,positive,negative,ES_green,1,m,830,1612269,1612773,1612977
34,first,53,gierig,IAT_purple1.bmp,purple,starting_scream,scream,starting,c,negative,negative,ES_green,1,c,486,1614882,1615386,1615590
34,first,54,gerecht,IAT_yellow1.bmp,yellow,starting_melody,melody,starting,m,positive,positive,ES_green,1,m,973,1617150,1617655,1617859
34,first,55,heiter,IAT_yellow2.bmp,yellow,starting_melody,melody,starting,m,positive,positive,ES_green,1,m,618,1619908,1620412,1620617
34,first,56,witzig,IAT_red3.bmp,red,ending_melody,melody,ending,m,positive,negative,ES_green,1,m,556,1622309,1622813,1623017
34,first,57,geizig,IAT_green4.bmp,green,ending_scream,scream,ending,c,negative,positive,ES_green,1,c,672,1624647,1625151,1625355
34,first,58,human,IAT_green1.bmp,green,ending_scream,scream,ending,m,positive,positive,ES_green,1,m,650,1627101,1627605,1627809
34,first,59,teuer,IAT_red4.bmp,red,ending_melody,melody,ending,c,negative,negative,ES_green,1,c,1181,1629533,1630037,1630241
34,first,60,witzig,IAT_green1.bmp,green,ending_scream,scream,ending,m,positive,positive,ES_green,1,m,1060,1632495,1633000,1633204
34,first,61,geizig,IAT_green4.bmp,green,ending_scream,scream,ending,c,negative,positive,ES_green,0,None,1500,1635338,1635842,1636046
34,first,62,sonnig,IAT_red1.bmp,red,ending_melody,melody,ending,m,positive,negative,ES_green,1,m,475,1639120,1639625,1639829
34,first,63,gesund,IAT_yellow3.bmp,yellow,starting_melody,melody,starting,m,positive,positive,ES_green,1,m,673,1641378,1641882,1642086
34,first,64,einsam,IAT_red2.bmp,red,ending_melody,melody,ending,c,negative,negative,ES_green,1,c,882,1643833,1644337,1644541
34,first,65,witzig,IAT_red4.bmp,red,ending_melody,melody,ending,m,positive,negative,ES_green,1,m,584,1646498,1647003,1647207
34,first,66,gierig,IAT_yellow1.bmp,yellow,starting_melody,melody,starting,c,negative,positive,ES_green,0,m,1306,1648865,1649369,1649573
34,first,67,lustig,IAT_purple4.bmp,purple,starting_scream,scream,starting,m,positive,negative,ES_green,1,m,543,1652453,1652957,1653161
34,first,68,morsch,IAT_green2.bmp,green,ending_scream,scream,ending,c,negative,positive,ES_green,0,m,602,1654778,1655282,1655486
34,first,69,falsch,IAT_yellow4.bmp,yellow,starting_melody,melody,starting,c,negative,positive,ES_green,1,c,689,1657662,1658167,1658371
34,first,70,human,IAT_purple3.bmp,purple,starting_scream,scream,starting,m,positive,negative,ES_green,0,c,873,1660133,1660637,1660841
34,first,71,ehrlich,IAT_yellow1.bmp,yellow,starting_melody,melody,starting,m,positive,positive,ES_green,1,m,687,1663289,1663793,1663997
34,first,72,kaputt,IAT_green2.bmp,green,ending_scream,scream,ending,c,negative,positive,ES_green,1,c,1326,1665758,1666262,1666466
34,first,73,sonnig,IAT_yellow1.bmp,yellow,starting_melody,melody,starting,m,positive,positive,ES_green,1,m,634,1668866,1669371,1669575
34,first,74,brutal,IAT_purple2.bmp,purple,starting_scream,scream,starting,c,negative,negative,ES_green,1,c,778,1671283,1671787,1671992
34,first,75,human,IAT_red3.bmp,red,ending_melody,melody,ending,m,positive,negative,ES_green,1,m,627,1673843,1674348,1674552
34,first,76,morsch,IAT_yellow4.bmp,yellow,starting_melody,melody,starting,c,negative,positive,ES_green,0,m,980,1676254,1676758,1676962
34,first,77,schön,IAT_purple2.bmp,purple,starting_scream,scream,starting,m,positive,negative,ES_green,1,m,896,1679515,1680020,1680224
34,first,78,lästig,IAT_red3.bmp,red,ending_melody,melody,ending,c,negative,negative,ES_green,1,c,618,1682194,1682698,1682902
34,first,79,morsch,IAT_purple4.bmp,purple,starting_scream,scream,starting,c,negative,negative,ES_green,0,m,767,1684594,1685098,1685302
34,first,80,teuer,IAT_red4.bmp,red,ending_melody,melody,ending,c,negative,negative,ES_green,1,c,1114,1687643,1688147,1688351
34,first,81,feige,IAT_red2.bmp,red,ending_melody,melody,ending,c,negative,negative,ES_green,1,c,699,1690540,1691044,1691248
34,first,82,sozial,IAT_red3.bmp,red,ending_melody,melody,ending,m,positive,negative,ES_green,1,m,960,1693022,1693526,1693730
34,first,83,streng,IAT_green2.bmp,green,ending_scream,scream,ending,c,negative,positive,ES_green,0,None,1500,1695763,1696268,1696472
34,first,84,lustig,IAT_purple4.bmp,purple,starting_scream,scream,starting,m,positive,negative,ES_green,1,m,492,1699546,1700050,1700254
34,first,85,heiter,IAT_purple3.bmp,purple,starting_scream,scream,starting,m,positive,negative,ES_green,1,m,1215,1701821,1702325,1702529
34,first,86,feige,IAT_yellow2.bmp,yellow,starting_melody,melody,starting,c,negative,positive,ES_green,0,m,862,1704818,1705322,1705526
34,first,87,gierig,IAT_yellow4.bmp,yellow,starting_melody,melody,starting,c,negative,positive,ES_green,1,c,747,1707962,1708467,1708671
34,first,88,ehrlich,IAT_red2.bmp,red,ending_melody,melody,ending,m,positive,negative,ES_green,1,m,648,1710493,1710997,1711201
34,first,89,schön,IAT_purple1.bmp,purple,starting_scream,scream,starting,m,positive,negative,ES_green,1,m,804,1712924,1713428,1713632
34,first,90,falsch,IAT_red2.bmp,red,ending_melody,melody,ending,c,negative,negative,ES_green,1,c,585,1715510,1716015,1716219
34,first,91,krank,IAT_red4.bmp,red,ending_melody,melody,ending,c,negative,negative,ES_green,0,None,1500,1717878,1718383,1718587
34,first,92,teuer,IAT_purple4.bmp,purple,starting_scream,scream,starting,c,negative,negative,ES_green,0,m,1022,1721661,1722166,1722370
34,first,93,gesund,IAT_green1.bmp,green,ending_scream,scream,ending,m,positive,positive,ES_green,1,m,777,1724967,1725471,1725675
34,first,94,morsch,IAT_red4.bmp,red,ending_melody,melody,ending,c,negative,negative,ES_green,0,m,952,1727526,1728030,1728234
34,first,95,streng,IAT_purple2.bmp,purple,starting_scream,scream,starting,c,negative,negative,ES_green,1,c,1402,1730762,1731266,1731470
34,second,0,kaputt,IAT_purple2.bmp,purple,starting_scream,scream,starting,c,negative,negative,ES_green,1,c,643,1759182,1759687,1759891
34,second,1,human,IAT_green3.bmp,green,ending_scream,scream,ending,m,positive,positive,ES_green,1,m,884,1761608,1762112,1762316
34,second,2,munter,IAT_red1.bmp,red,ending_melody,melody,ending,m,positive,negative,ES_green,1,m,471,1764274,1764778,1764982
34,second,3,gerecht,IAT_yellow1.bmp,yellow,starting_melody,melody,starting,m,positive,positive,ES_green,1,m,416,1766527,1767031,1767235
34,second,4,teuer,IAT_yellow4.bmp,yellow,starting_melody,melody,starting,c,negative,positive,ES_green,1,c,554,1768724,1769229,1769433
34,second,5,streng,IAT_green4.bmp,green,ending_scream,scream,ending,c,negative,positive,ES_green,0,m,784,1771061,1771565,1771769
34,second,6,heiter,IAT_yellow4.bmp,yellow,starting_melody,melody,starting,m,positive,positive,ES_green,1,m,536,1774127,1774632,1774836
34,second,7,geizig,IAT_purple4.bmp,purple,starting_scream,scream,starting,c,negative,negative,ES_green,1,c,581,1776445,1776950,1777154
34,second,8,sozial,IAT_green3.bmp,green,ending_scream,scream,ending,m,positive,positive,ES_green,1,m,588,1778809,1779313,1779517
34,second,9,gerecht,IAT_purple1.bmp,purple,starting_scream,scream,starting,m,positive,negative,ES_green,0,c,1153,1781179,1781683,1781887
34,second,10,lustig,IAT_purple4.bmp,purple,starting_scream,scream,starting,m,positive,negative,ES_green,1,m,511,1784613,1785118,1785322
34,second,11,streng,IAT_purple4.bmp,purple,starting_scream,scream,starting,c,negative,negative,ES_green,1,c,559,1786906,1787412,1787616
34,second,12,lästig,IAT_red4.bmp,red,ending_melody,melody,ending,c,negative,negative,ES_green,0,m,637,1789249,1789753,1789957
34,second,13,teuer,IAT_red4.bmp,red,ending_melody,melody,ending,c,negative,negative,ES_green,1,c,612,1792168,1792672,1792876
34,second,14,einsam,IAT_yellow1.bmp,yellow,starting_melody,melody,starting,c,negative,positive,ES_green,0,m,660,1794562,1795067,1795271
34,second,15,heiter,IAT_yellow3.bmp,yellow,starting_melody,melody,starting,m,positive,positive,ES_green,1,m,1076,1797505,1798009,1798213
34,second,16,krank,IAT_red2.bmp,red,ending_melody,melody,ending,c,negative,negative,ES_green,1,c,738,1800363,1800867,1801071
34,second,17,lustig,IAT_green3.bmp,green,ending_scream,scream,ending,m,positive,positive,ES_green,1,m,607,1802883,1803387,1803591
34,second,18,ehrlich,IAT_green2.bmp,green,ending_scream,scream,ending,m,positive,positive,ES_green,0,c,823,1805272,1805776,1805980
34,second,19,gesund,IAT_green3.bmp,green,ending_scream,scream,ending,m,positive,positive,ES_green,0,None,1500,1808377,1808881,1809085
34,second,20,heiter,IAT_green4.bmp,green,ending_scream,scream,ending,m,positive,positive,ES_green,1,m,545,1812158,1812662,1812866
34,second,21,sanft,IAT_red3.bmp,red,ending_melody,melody,ending,m,positive,negative,ES_green,1,m,659,1814485,1814989,1815193
34,second,22,gerecht,IAT_yellow2.bmp,yellow,starting_melody,melody,starting,m,positive,positive,ES_green,1,m,715,1816926,1817430,1817635
34,second,23,geizig,IAT_green4.bmp,green,ending_scream,scream,ending,c,negative,positive,ES_green,1,c,815,1819424,1819928,1820132
34,second,24,gierig,IAT_purple2.bmp,purple,starting_scream,scream,starting,c,negative,negative,ES_green,0,m,1384,1822022,1822526,1822730
34,second,25,feige,IAT_yellow2.bmp,yellow,starting_melody,melody,starting,c,negative,positive,ES_green,0,m,910,1825688,1826192,1826396
34,second,26,falsch,IAT_yellow4.bmp,yellow,starting_melody,melody,starting,c,negative,positive,ES_green,1,c,855,1828881,1829385,1829589
34,second,27,sanft,IAT_purple3.bmp,purple,starting_scream,scream,starting,m,positive,negative,ES_green,1,m,808,1831516,1832020,1832224
34,second,28,sozial,IAT_green1.bmp,green,ending_scream,scream,ending,m,positive,positive,ES_green,1,m,548,1834105,1834609,1834813
34,second,29,witzig,IAT_yellow1.bmp,yellow,starting_melody,melody,starting,m,positive,positive,ES_green,1,m,721,1836435,1836939,1837143
34,second,30,munter,IAT_green1.bmp,green,ending_scream,scream,ending,m,positive,positive,ES_green,1,m,864,1838938,1839442,1839646
34,second,31,lästig,IAT_red4.bmp,red,ending_melody,melody,ending,c,negative,negative,ES_green,1,c,673,1841583,1842088,1842292
34,second,32,ehrlich,IAT_purple1.bmp,purple,starting_scream,scream,starting,m,positive,negative,ES_green,1,m,1031,1844039,1844543,1844747
34,second,33,falsch,IAT_green1.bmp,green,ending_scream,scream,ending,c,negative,positive,ES_green,1,c,850,1846852,1847356,1847560
34,second,34,geizig,IAT_red3.bmp,red,ending_melody,melody,ending,c,negative,negative,ES_green,1,c,899,1849484,1849988,1850192
34,second,35,human,IAT_red3.bmp,red,ending_melody,melody,ending,m,positive,negative,ES_green,1,m,529,1852165,1852670,1852875
34,second,36,schön,IAT_green4.bmp,green,ending_scream,scream,ending,m,positive,positive,ES_green,0,c,578,1854478,1854982,1855186
34,second,37,morsch,IAT_purple3.bmp,purple,starting_scream,scream,starting,c,negative,negative,ES_green,0,m,1396,1857338,1857843,1858048
34,second,38,kaputt,IAT_purple2.bmp,purple,starting_scream,scream,starting,c,negative,negative,ES_green,1,c,706,1861018,1861522,1861726
34,second,39,human,IAT_purple3.bmp,purple,starting_scream,scream,starting,m,positive,negative,ES_green,1,m,555,1863506,1864010,1864214
34,second,40,munter,IAT_purple2.bmp,purple,starting_scream,scream,starting,m,positive,negative,ES_green,1,m,495,1865843,1866347,1866551
34,second,41,gierig,IAT_yellow4.bmp,yellow,starting_melody,melody,starting,c,negative,positive,ES_green,1,c,770,1868121,1868625,1868829
34,second,42,sonnig,IAT_yellow4.bmp,yellow,starting_melody,melody,starting,m,positive,positive,ES_green,1,m,650,1870673,1871177,1871381
34,second,43,geizig,IAT_yellow3.bmp,yellow,starting_melody,melody,starting,c,negative,positive,ES_green,1,c,959,1873106,1873610,1873814
34,second,44,einsam,IAT_red4.bmp,red,ending_melody,melody,ending,c,negative,negative,ES_green,1,c,1216,1875847,1876351,1876556
34,second,45,kaputt,IAT_green4.bmp,green,ending_scream,scream,ending,c,negative,positive,ES_green,1,c,620,1878846,1879350,1879554
34,second,46,gesund,IAT_purple1.bmp,purple,starting_scream,scream,starting,m,positive,negative,ES_green,1,m,696,1881248,1881753,1881957
34,second,47,falsch,IAT_green1.bmp,green,ending_scream,scream,ending,c,negative,positive,ES_green,1,c,1035,1883727,1884231,1884435
34,second,48,teuer,IAT_red2.bmp,red,ending_melody,melody,ending,c,negative,negative,ES_green,0,m,952,1886544,1887048,1887252
34,second,49,witzig,IAT_yellow3.bmp,yellow,starting_melody,melody,starting,m,positive,positive,ES_green,1,m,1175,1889779,1890283,1890488
34,second,50,falsch,IAT_yellow1.bmp,yellow,starting_melody,melody,starting,c,negative,positive,ES_green,1,c,1108,1892737,1893241,1893445
34,second,51,brutal,IAT_red1.bmp,red,ending_melody,melody,ending,c,negative,negative,ES_green,1,c,843,1895627,1896131,1896335
34,second,52,morsch,IAT_green2.bmp,green,ending_scream,scream,ending,c,negative,positive,ES_green,1,c,861,1898252,1898756,1898960
34,second,53,einsam,IAT_green4.bmp,green,ending_scream,scream,ending,c,negative,positive,ES_green,1,c,817,1900896,1901400,1901604
34,second,54,krank,IAT_purple2.bmp,purple,starting_scream,scream,starting,c,negative,negative,ES_green,1,c,653,1903494,1903999,1904203
34,second,55,sonnig,IAT_red2.bmp,red,ending_melody,melody,ending,m,positive,negative,ES_green,1,m,546,1905930,1906435,1906639
34,second,56,schön,IAT_red3.bmp,red,ending_melody,melody,ending,m,positive,negative,ES_green,0,c,649,1908259,1908763,1908967
34,second,57,lästig,IAT_red3.bmp,red,ending_melody,melody,ending,c,negative,negative,ES_green,1,c,1019,1911191,1911695,1911899
34,second,58,sanft,IAT_purple2.bmp,purple,starting_scream,scream,starting,m,positive,negative,ES_green,1,m,807,1913993,1914497,1914701
34,second,59,sozial,IAT_red3.bmp,red,ending_melody,melody,ending,m,positive,negative,ES_green,1,m,742,1916582,1917086,1917290
34,second,60,heiter,IAT_red1.bmp,red,ending_melody,melody,ending,m,positive,negative,ES_green,1,m,713,1919107,1919611,1919815
34,second,61,human,IAT_red1.bmp,red,ending_melody,melody,ending,m,positive,negative,ES_green,1,m,915,1921602,1922106,1922310
34,second,62,schön,IAT_purple1.bmp,purple,starting_scream,scream,starting,m,positive,negative,ES_green,1,m,691,1924300,1924804,1925008
34,second,63,gierig,IAT_red2.bmp,red,ending_melody,melody,ending,c,negative,negative,ES_green,0,None,1500,1926774,1927278,1927482
34,second,64,brutal,IAT_red2.bmp,red,ending_melody,melody,ending,c,negative,negative,ES_green,1,c,587,1930556,1931061,1931265
34,second,65,gerecht,IAT_green1.bmp,green,ending_scream,scream,ending,m,positive,positive,ES_green,1,m,967,1932927,1933431,1933635
34,second,66,gesund,IAT_red2.bmp,red,ending_melody,melody,ending,m,positive,negative,ES_green,1,m,596,1935676,1936180,1936384
34,second,67,lustig,IAT_yellow1.bmp,yellow,starting_melody,melody,starting,m,positive,positive,ES_green,1,m,900,1938055,1938560,1938765
34,second,68,ehrlich,IAT_yellow1.bmp,yellow,starting_melody,melody,starting,m,positive,positive,ES_green,1,m,664,1940740,1941245,1941449
34,second,69,streng,IAT_yellow2.bmp,yellow,starting_melody,melody,starting,c,negative,positive,ES_green,1,c,793,1943188,1943692,1943896
34,second,70,sanft,IAT_purple4.bmp,purple,starting_scream,scream,starting,m,positive,negative,ES_green,0,c,892,1945763,1946267,1946471
34,second,71,schön,IAT_red4.bmp,red,ending_melody,melody,ending,m,positive,negative,ES_green,1,m,521,1948937,1949442,1949646
34,second,72,sonnig,IAT_green1.bmp,green,ending_scream,scream,ending,m,positive,positive,ES_green,1,m,646,1951240,1951745,1951949
34,second,73,morsch,IAT_red1.bmp,red,ending_melody,melody,ending,c,negative,negative,ES_green,1,c,526,1953669,1954174,1954378
34,second,74,kaputt,IAT_yellow4.bmp,yellow,starting_melody,melody,starting,c,negative,positive,ES_green,1,c,961,1955978,1956482,1956686
34,second,75,morsch,IAT_purple4.bmp,purple,starting_scream,scream,starting,c,negative,negative,ES_green,0,m,684,1958720,1959225,1959429
34,second,76,witzig,IAT_yellow2.bmp,yellow,starting_melody,melody,starting,m,positive,positive,ES_green,1,m,490,1961688,1962193,1962397
34,second,77,krank,IAT_purple1.bmp,purple,starting_scream,scream,starting,c,negative,negative,ES_green,1,c,709,1963962,1964466,1964670
34,second,78,gesund,IAT_purple3.bmp,purple,starting_scream,scream,starting,m,positive,negative,ES_green,0,c,527,1966452,1966957,1967161
34,second,79,ehrlich,IAT_yellow3.bmp,yellow,starting_melody,melody,starting,m,positive,positive,ES_green,1,m,1197,1969263,1969767,1969971
34,second,80,sozial,IAT_purple3.bmp,purple,starting_scream,scream,starting,m,positive,negative,ES_green,1,m,504,1972243,1972747,1972951
34,second,81,feige,IAT_yellow3.bmp,yellow,starting_melody,melody,starting,c,negative,positive,ES_green,1,c,875,1974530,1975035,1975239
34,second,82,brutal,IAT_green2.bmp,green,ending_scream,scream,ending,c,negative,positive,ES_green,1,c,499,1977188,1977693,1977897
34,second,83,witzig,IAT_yellow3.bmp,yellow,starting_melody,melody,starting,m,positive,positive,ES_green,1,m,464,1979471,1979975,1980179
34,second,84,lästig,IAT_purple1.bmp,purple,starting_scream,scream,starting,c,negative,negative,ES_green,1,c,880,1981718,1982222,1982426
34,second,85,gierig,IAT_yellow2.bmp,yellow,starting_melody,melody,starting,c,negative,positive,ES_green,0,None,1500,1984382,1984886,1985090
34,second,86,munter,IAT_green2.bmp,green,ending_scream,scream,ending,m,positive,positive,ES_green,1,m,565,1988163,1988668,1988872
34,second,87,teuer,IAT_green2.bmp,green,ending_scream,scream,ending,c,negative,positive,ES_green,1,c,971,1990511,1991015,1991219
34,second,88,feige,IAT_purple4.bmp,purple,starting_scream,scream,starting,c,negative,negative,ES_green,1,c,963,1993264,1993769,1993973
34,second,89,lustig,IAT_red1.bmp,red,ending_melody,melody,ending,m,positive,negative,ES_green,1,m,797,1996010,1996514,1996718
34,second,90,krank,IAT_green2.bmp,green,ending_scream,scream,ending,c,negative,positive,ES_green,1,c,858,1998589,1999093,1999297
34,second,91,einsam,IAT_purple3.bmp,purple,starting_scream,scream,starting,c,negative,negative,ES_green,1,c,623,2001230,2001734,2001938
34,second,92,feige,IAT_yellow2.bmp,yellow,starting_melody,melody,starting,c,negative,positive,ES_green,1,c,567,2003636,2004140,2004344
34,second,93,streng,IAT_green3.bmp,green,ending_scream,scream,ending,c,negative,positive,ES_green,0,m,676,2005984,2006489,2006693
34,second,94,brutal,IAT_green3.bmp,green,ending_scream,scream,ending,c,negative,positive,ES_green,1,c,1337,2008944,2009448,2009652
34,second,95,sonnig,IAT_red4.bmp,red,ending_melody,melody,ending,m,positive,negative,ES_green,1,m,519,2012063,2012567,2012771
34,third,0,kaputt,IAT_yellow4.bmp,yellow,starting_melody,melody,starting,c,negative,positive,ES_green,1,c,1058,2035490,2035994,2036198
34,third,1,schön,IAT_red1.bmp,red,ending_melody,melody,ending,m,positive,negative,ES_green,1,m,626,2038331,2038836,2039040
34,third,2,gesund,IAT_yellow3.bmp,yellow,starting_melody,melody,starting,m,positive,positive,ES_green,1,m,586,2040741,2041246,2041450
34,third,3,krank,IAT_green2.bmp,green,ending_scream,scream,ending,c,negative,positive,ES_green,1,c,653,2043111,2043615,2043819
34,third,4,ehrlich,IAT_green3.bmp,green,ending_scream,scream,ending,m,positive,positive,ES_green,0,c,523,2045547,2046051,2046255
34,third,5,morsch,IAT_red1.bmp,red,ending_melody,melody,ending,c,negative,negative,ES_green,1,c,569,2048353,2048857,2049061
34,third,6,einsam,IAT_red2.bmp,red,ending_melody,melody,ending,c,negative,negative,ES_green,1,c,437,2050704,2051208,2051412
34,third,7,munter,IAT_red3.bmp,red,ending_melody,melody,ending,m,positive,negative,ES_green,1,m,1150,2052924,2053428,2053632
34,third,8,sanft,IAT_purple3.bmp,purple,starting_scream,scream,starting,m,positive,negative,ES_green,1,m,494,2055856,2056360,2056564
34,third,9,sonnig,IAT_purple2.bmp,purple,starting_scream,scream,starting,m,positive,negative,ES_green,1,m,491,2058133,2058637,2058841
34,third,10,witzig,IAT_green1.bmp,green,ending_scream,scream,ending,m,positive,positive,ES_green,1,m,834,2060405,2060910,2061114
34,third,11,sozial,IAT_yellow4.bmp,yellow,starting_melody,melody,starting,m,positive,positive,ES_green,1,m,475,2063023,2063527,2063731
34,third,12,heiter,IAT_yellow1.bmp,yellow,starting_melody,melody,starting,m,positive,positive,ES_green,1,m,531,2065280,2065785,2065989
34,third,13,lästig,IAT_purple1.bmp,purple,starting_scream,scream,starting,c,negative,negative,ES_green,1,c,577,2067594,2068098,2068302
34,third,14,gesund,IAT_yellow3.bmp,yellow,starting_melody,melody,starting,m,positive,positive,ES_green,1,m,790,2069952,2070457,2070661
34,third,15,munter,IAT_red1.bmp,red,ending_melody,melody,ending,m,positive,negative,ES_green,1,m,455,2072525,2073029,2073233
34,third,16,ehrlich,IAT_yellow2.bmp,yellow,starting_melody,melody,starting,m,positive,positive,ES_green,1,m,712,2074762,2075266,2075470
34,third,17,einsam,IAT_yellow2.bmp,yellow,starting_melody,melody,starting,c,negative,positive,ES_green,1,c,605,2077256,2077761,2077965
34,third,18,morsch,IAT_red2.bmp,red,ending_melody,melody,ending,c,negative,negative,ES_green,0,m,752,2079643,2080148,2080352
34,third,19,sanft,IAT_red2.bmp,red,ending_melody,melody,ending,m,positive,negative,ES_green,1,m,457,2082678,2083183,2083387
34,third,20,kaputt,IAT_purple2.bmp,purple,starting_scream,scream,starting,c,negative,negative,ES_green,1,c,911,2084919,2085423,2085627
34,third,21,brutal,IAT_green3.bmp,green,ending_scream,scream,ending,c,negative,positive,ES_green,1,c,814,2087613,2088117,2088321
34,third,22,munter,IAT_purple3.bmp,purple,starting_scream,scream,starting,m,positive,negative,ES_green,1,m,513,2090209,2090714,2090918
34,third,23,lustig,IAT_green1.bmp,green,ending_scream,scream,ending,m,positive,positive,ES_green,1,m,918,2092505,2093009,2093213
34,third,24,heiter,IAT_green3.bmp,green,ending_scream,scream,ending,m,positive,positive,ES_green,1,m,1109,2095205,2095709,2095913
34,third,25,sonnig,IAT_purple1.bmp,purple,starting_scream,scream,starting,m,positive,negative,ES_green,1,m,638,2098097,2098601,2098805
34,third,26,einsam,IAT_red4.bmp,red,ending_melody,melody,ending,c,negative,negative,ES_green,1,c,1052,2100517,2101022,2101226
34,third,27,falsch,IAT_purple1.bmp,purple,starting_scream,scream,starting,c,negative,negative,ES_green,1,c,910,2103353,2103857,2104061
34,third,28,feige,IAT_red3.bmp,red,ending_melody,melody,ending,c,negative,negative,ES_green,1,c,937,2106047,2106551,2106755
34,third,29,teuer,IAT_purple2.bmp,purple,starting_scream,scream,starting,c,negative,negative,ES_green,1,c,957,2108766,2109270,2109474
34,third,30,human,IAT_purple3.bmp,purple,starting_scream,scream,starting,m,positive,negative,ES_green,1,m,592,2111505,2112010,2112214
34,third,31,witzig,IAT_purple1.bmp,purple,starting_scream,scream,starting,m,positive,negative,ES_green,1,m,893,2113881,2114385,2114589
34,third,32,gerecht,IAT_red3.bmp,red,ending_melody,melody,ending,m,positive,negative,ES_green,0,c,811,2116556,2117060,2117264
34,third,33,ehrlich,IAT_purple3.bmp,purple,starting_scream,scream,starting,m,positive,negative,ES_green,1,m,1096,2119649,2120153,2120357
34,third,34,heiter,IAT_green1.bmp,green,ending_scream,scream,ending,m,positive,positive,ES_green,1,m,730,2122527,2123031,2123235
34,third,35,human,IAT_green2.bmp,green,ending_scream,scream,ending,m,positive,positive,ES_green,1,m,582,2125039,2125544,2125748
34,third,36,schön,IAT_green4.bmp,green,ending_scream,scream,ending,m,positive,positive,ES_green,1,m,593,2127403,2127907,2128111
34,third,37,gesund,IAT_green3.bmp,green,ending_scream,scream,ending,m,positive,positive,ES_green,1,m,498,2129779,2130283,2130488
34,third,38,feige,IAT_red1.bmp,red,ending_melody,melody,ending,c,negative,negative,ES_green,1,c,713,2132060,2132564,2132768
34,third,39,gerecht,IAT_purple4.bmp,purple,starting_scream,scream,starting,m,positive,negative,ES_green,1,m,492,2134555,2135059,2135263
34,third,40,sozial,IAT_purple4.bmp,purple,starting_scream,scream,starting,m,positive,negative,ES_green,1,m,459,2136830,2137334,2137538
34,third,41,witzig,IAT_yellow2.bmp,yellow,starting_melody,melody,starting,m,positive,positive,ES_green,1,m,664,2139071,2139575,2139779
34,third,42,gierig,IAT_red2.bmp,red,ending_melody,melody,ending,c,negative,negative,ES_green,0,m,707,2141518,2142022,2142226
34,third,43,lästig,IAT_green3.bmp,green,ending_scream,scream,ending,c,negative,positive,ES_green,1,c,1122,2144507,2145012,2145216
34,third,44,human,IAT_green1.bmp,green,ending_scream,scream,ending,m,positive,positive,ES_green,1,m,514,2147412,2147917,2148121
34,third,45,streng,IAT_yellow2.bmp,yellow,starting_melody,melody,starting,c,negative,positive,ES_green,0,m,691,2149710,2150214,2150418
34,third,46,gierig,IAT_green2.bmp,green,ending_scream,scream,ending,c,negative,positive,ES_green,1,c,1349,2152684,2153188,2153392
34,third,47,brutal,IAT_green2.bmp,green,ending_scream,scream,ending,c,negative,positive,ES_green,1,c,487,2155815,2156319,2156523
34,third,48,ehrlich,IAT_red2.bmp,red,ending_melody,melody,ending,m,positive,negative,ES_green,1,m,686,2158084,2158589,2158793
34,third,49,morsch,IAT_yellow2.bmp,yellow,starting_melody,melody,starting,c,negative,positive,ES_green,0,m,630,2160553,2161057,2161261
34,third,50,lästig,IAT_yellow4.bmp,yellow,starting_melody,melody,starting,c,negative,positive,ES_green,1,c,1198,2163465,2163969,2164173
34,third,51,geizig,IAT_yellow4.bmp,yellow,starting_melody,melody,starting,c,negative,positive,ES_green,1,c,1241,2166446,2166950,2167155
34,third,52,kaputt,IAT_yellow4.bmp,yellow,starting_melody,melody,starting,c,negative,positive,ES_green,1,c,756,2169472,2169976,2170180
34,third,53,feige,IAT_green1.bmp,green,ending_scream,scream,ending,c,negative,positive,ES_green,1,c,587,2172010,2172515,2172719
34,third,54,falsch,IAT_purple4.bmp,purple,starting_scream,scream,starting,c,negative,negative,ES_green,1,c,1025,2174381,2174885,2175089
34,third,55,geizig,IAT_purple4.bmp,purple,starting_scream,scream,starting,c,negative,negative,ES_green,1,c,518,2177189,2177693,2177897
34,third,56,krank,IAT_green4.bmp,green,ending_scream,scream,ending,c,negative,positive,ES_green,1,c,456,2179489,2179994,2180198
34,third,57,streng,IAT_red4.bmp,red,ending_melody,melody,ending,c,negative,negative,ES_green,1,c,474,2181729,2182233,2182437
34,third,58,geizig,IAT_red3.bmp,red,ending_melody,melody,ending,c,negative,negative,ES_green,1,c,526,2183986,2184490,2184694
34,third,59,gierig,IAT_purple4.bmp,purple,starting_scream,scream,starting,c,negative,negative,ES_green,1,c,484,2186294,2186798,2187002
34,third,60,lästig,IAT_purple2.bmp,purple,starting_scream,scream,starting,c,negative,negative,ES_green,1,c,634,2188561,2189065,2189269
34,third,61,heiter,IAT_purple1.bmp,purple,starting_scream,scream,starting,m,positive,negative,ES_green,1,m,554,2190977,2191481,2191686
34,third,62,gerecht,IAT_green3.bmp,green,ending_scream,scream,ending,m,positive,positive,ES_green,1,m,509,2193314,2193819,2194023
34,third,63,lustig,IAT_red1.bmp,red,ending_melody,melody,ending,m,positive,negative,ES_green,1,m,833,2195607,2196111,2196315
34,third,64,brutal,IAT_yellow1.bmp,yellow,starting_melody,melody,starting,c,negative,positive,ES_green,1,c,533,2198223,2198727,2198931
34,third,65,gerecht,IAT_green4.bmp,green,ending_scream,scream,ending,m,positive,positive,ES_green,1,m,599,2200539,2201043,2201247
34,third,66,sanft,IAT_green2.bmp,green,ending_scream,scream,ending,m,positive,positive,ES_green,1,m,494,2202922,2203426,2203630
34,third,67,falsch,IAT_purple4.bmp,purple,starting_scream,scream,starting,c,negative,negative,ES_green,1,c,504,2205198,2205702,2205906
34,third,68,witzig,IAT_red4.bmp,red,ending_melody,melody,ending,m,positive,negative,ES_green,1,m,592,2207484,2207989,2208193
34,third,69,lustig,IAT_purple2.bmp,purple,starting_scream,scream,starting,m,positive,negative,ES_green,1,m,497,2209860,2210364,2210568
34,third,70,krank,IAT_green2.bmp,green,ending_scream,scream,ending,c,negative,positive,ES_green,1,c,622,2212139,2212644,2212848
34,third,71,schön,IAT_red3.bmp,red,ending_melody,melody,ending,m,positive,negative,ES_green,1,m,544,2214545,2215049,2215253
34,third,72,lustig,IAT_red1.bmp,red,ending_melody,melody,ending,m,positive,negative,ES_green,1,m,649,2216873,2217377,2217581
34,third,73,sonnig,IAT_red3.bmp,red,ending_melody,melody,ending,m,positive,negative,ES_green,1,m,471,2219305,2219810,2220014
34,third,74,streng,IAT_green4.bmp,green,ending_scream,scream,ending,c,negative,positive,ES_green,1,c,827,2221560,2222064,2222268
34,third,75,sozial,IAT_yellow3.bmp,yellow,starting_melody,melody,starting,m,positive,positive,ES_green,1,m,556,2224170,2224674,2224878
34,third,76,teuer,IAT_green4.bmp,green,ending_scream,scream,ending,c,negative,positive,ES_green,1,c,747,2226508,2227012,2227216
34,third,77,feige,IAT_yellow3.bmp,yellow,starting_melody,melody,starting,c,negative,positive,ES_green,1,c,416,2229038,2229542,2229746
34,third,78,schön,IAT_red4.bmp,red,ending_melody,melody,ending,m,positive,negative,ES_green,1,m,486,2231237,2231741,2231945
34,third,79,kaputt,IAT_yellow3.bmp,yellow,starting_melody,melody,starting,c,negative,positive,ES_green,1,c,515,2233506,2234010,2234214
34,third,80,human,IAT_yellow1.bmp,yellow,starting_melody,melody,starting,m,positive,positive,ES_green,1,m,478,2235804,2236308,2236512
34,third,81,geizig,IAT_purple2.bmp,purple,starting_scream,scream,starting,c,negative,negative,ES_green,1,c,774,2238066,2238570,2238774
34,third,82,teuer,IAT_red4.bmp,red,ending_melody,melody,ending,c,negative,negative,ES_green,1,c,1414,2240623,2241127,2241331
34,third,83,munter,IAT_yellow4.bmp,yellow,starting_melody,melody,starting,m,positive,positive,ES_green,1,m,513,2243822,2244326,2244530
34,third,84,sonnig,IAT_yellow1.bmp,yellow,starting_melody,melody,starting,m,positive,positive,ES_green,1,m,419,2246118,2246622,2246826
34,third,85,gierig,IAT_red2.bmp,red,ending_melody,melody,ending,c,negative,negative,ES_green,1,c,800,2248321,2248826,2249030
34,third,86,streng,IAT_green4.bmp,green,ending_scream,scream,ending,c,negative,positive,ES_green,1,c,649,2250906,2251410,2251614
34,third,87,brutal,IAT_purple3.bmp,purple,starting_scream,scream,starting,c,negative,negative,ES_green,1,c,548,2253337,2253842,2254046
34,third,88,einsam,IAT_green1.bmp,green,ending_scream,scream,ending,c,negative,positive,ES_green,1,c,614,2255668,2256172,2256376
34,third,89,sanft,IAT_yellow1.bmp,yellow,starting_melody,melody,starting,m,positive,positive,ES_green,1,m,1044,2258065,2258569,2258773
34,third,90,falsch,IAT_yellow2.bmp,yellow,starting_melody,melody,starting,c,negative,positive,ES_green,1,c,622,2260892,2261397,2261601
34,third,91,sozial,IAT_yellow3.bmp,yellow,starting_melody,melody,starting,m,positive,positive,ES_green,0,c,973,2263298,2263803,2264007
34,third,92,morsch,IAT_red4.bmp,red,ending_melody,melody,ending,c,negative,negative,ES_green,1,c,1217,2266555,2267059,2267263
34,third,93,gesund,IAT_purple1.bmp,purple,starting_scream,scream,starting,m,positive,negative,ES_green,1,m,819,2269555,2270059,2270263
34,third,94,teuer,IAT_purple3.bmp,purple,starting_scream,scream,starting,c,negative,negative,ES_green,1,c,604,2272156,2272661,2272866
34,third,95,krank,IAT_yellow1.bmp,yellow,starting_melody,melody,starting,c,negative,positive,ES_green,1,c,1109,2274545,2275049,2275253
34,forth,0,streng,IAT_red2.bmp,red,ending_melody,melody,ending,c,negative,negative,ES_green,1,c,804,2320547,2321051,2321255
34,forth,1,krank,IAT_purple3.bmp,purple,starting_scream,scream,starting,c,negative,negative,ES_green,1,c,376,2323134,2323639,2323843
34,forth,2,streng,IAT_red3.bmp,red,ending_melody,melody,ending,c,negative,negative,ES_green,1,c,473,2325295,2325799,2326003
34,forth,3,geizig,IAT_purple3.bmp,purple,starting_scream,scream,starting,c,negative,negative,ES_green,0,m,488,2327550,2328055,2328259
34,forth,4,feige,IAT_green4.bmp,green,ending_scream,scream,ending,c,negative,positive,ES_green,1,c,583,2330322,2330827,2331031
34,forth,5,lustig,IAT_purple1.bmp,purple,starting_scream,scream,starting,m,positive,negative,ES_green,0,c,758,2332690,2333194,2333398
34,forth,6,schön,IAT_green4.bmp,green,ending_scream,scream,ending,m,positive,positive,ES_green,1,m,691,2335731,2336235,2336439
34,forth,7,gierig,IAT_red4.bmp,red,ending_melody,melody,ending,c,negative,negative,ES_green,1,c,697,2338204,2338709,2338913
34,forth,8,morsch,IAT_purple4.bmp,purple,starting_scream,scream,starting,c,negative,negative,ES_green,0,m,957,2340683,2341188,2341392
34,forth,9,heiter,IAT_red4.bmp,red,ending_melody,melody,ending,m,positive,negative,ES_green,1,m,805,2343924,2344428,2344632
34,forth,10,gerecht,IAT_purple1.bmp,purple,starting_scream,scream,starting,m,positive,negative,ES_green,1,m,941,2346512,2347016,2347220
34,forth,11,sonnig,IAT_red3.bmp,red,ending_melody,melody,ending,m,positive,negative,ES_green,1,m,491,2349235,2349739,2349943
34,forth,12,einsam,IAT_purple1.bmp,purple,starting_scream,scream,starting,c,negative,negative,ES_green,1,c,425,2351508,2352012,2352216
34,forth,13,kaputt,IAT_yellow4.bmp,yellow,starting_melody,melody,starting,c,negative,positive,ES_green,1,c,524,2353715,2354219,2354423
34,forth,14,witzig,IAT_green1.bmp,green,ending_scream,scream,ending,m,positive,positive,ES_green,1,m,673,2356021,2356525,2356729
34,forth,15,munter,IAT_yellow3.bmp,yellow,starting_melody,melody,starting,m,positive,positive,ES_green,1,m,981,2358476,2358980,2359184
34,forth,16,krank,IAT_red1.bmp,red,ending_melody,melody,ending,c,negative,negative,ES_green,1,c,505,2361240,2361744,2361948
34,forth,17,gierig,IAT_green2.bmp,green,ending_scream,scream,ending,c,negative,positive,ES_green,1,c,560,2363527,2364032,2364236
34,forth,18,human,IAT_yellow1.bmp,yellow,starting_melody,melody,starting,m,positive,positive,ES_green,1,m,517,2365870,2366374,2366578
34,forth,19,geizig,IAT_green3.bmp,green,ending_scream,scream,ending,c,negative,positive,ES_green,1,c,575,2368170,2368674,2368878
34,forth,20,lustig,IAT_red3.bmp,red,ending_melody,melody,ending,m,positive,negative,ES_green,1,m,644,2370528,2371032,2371236
34,forth,21,feige,IAT_yellow3.bmp,yellow,starting_melody,melody,starting,c,negative,positive,ES_green,1,c,510,2372954,2373459,2373663
34,forth,22,sanft,IAT_green4.bmp,green,ending_scream,scream,ending,m,positive,positive,ES_green,1,m,688,2375247,2375752,2375956
34,forth,23,kaputt,IAT_red2.bmp,red,ending_melody,melody,ending,c,negative,negative,ES_green,1,c,548,2377720,2378224,2378428
34,forth,24,streng,IAT_yellow1.bmp,yellow,starting_melody,melody,starting,c,negative,positive,ES_green,0,m,586,2380051,2380555,2380759
34,forth,25,teuer,IAT_purple2.bmp,purple,starting_scream,scream,starting,c,negative,negative,ES_green,1,c,789,2382919,2383424,2383628
34,forth,26,gesund,IAT_purple3.bmp,purple,starting_scream,scream,starting,m,positive,negative,ES_green,1,m,601,2385491,2385995,2386199
34,forth,27,morsch,IAT_purple4.bmp,purple,starting_scream,scream,starting,c,negative,negative,ES_green,0,m,721,2387875,2388379,2388583
34,forth,28,kaputt,IAT_green2.bmp,green,ending_scream,scream,ending,c,negative,positive,ES_green,1,c,578,2390879,2391383,2391587
34,forth,29,sozial,IAT_yellow3.bmp,yellow,starting_melody,melody,starting,m,positive,positive,ES_green,1,m,1009,2393240,2393744,2393948
34,forth,30,schön,IAT_red1.bmp,red,ending_melody,melody,ending,m,positive,negative,ES_green,1,m,691,2396032,2396536,2396740
34,forth,31,human,IAT_green3.bmp,green,ending_scream,scream,ending,m,positive,positive,ES_green,1,m,434,2398506,2399010,2399214
34,forth,32,gerecht,IAT_red1.bmp,red,ending_melody,melody,ending,m,positive,negative,ES_green,0,c,875,2400723,2401227,2401431
34,forth,33,schön,IAT_red2.bmp,red,ending_melody,melody,ending,m,positive,negative,ES_green,1,m,1063,2403882,2404386,2404590
34,forth,34,brutal,IAT_purple4.bmp,purple,starting_scream,scream,starting,c,negative,negative,ES_green,1,c,492,2406727,2407232,2407436
34,forth,35,streng,IAT_red4.bmp,red,ending_melody,melody,ending,c,negative,negative,ES_green,0,m,821,2409003,2409507,2409711
34,forth,36,heiter,IAT_purple4.bmp,purple,starting_scream,scream,starting,m,positive,negative,ES_green,1,m,707,2412107,2412611,2412815
34,forth,37,kaputt,IAT_green4.bmp,green,ending_scream,scream,ending,c,negative,positive,ES_green,1,c,932,2414597,2415101,2415306
34,forth,38,falsch,IAT_purple2.bmp,purple,starting_scream,scream,starting,c,negative,negative,ES_green,1,c,733,2417313,2417817,2418021
34,forth,39,sonnig,IAT_green1.bmp,green,ending_scream,scream,ending,m,positive,positive,ES_green,1,m,585,2419829,2420334,2420538
34,forth,40,brutal,IAT_yellow3.bmp,yellow,starting_melody,melody,starting,c,negative,positive,ES_green,1,c,479,2422198,2422702,2422906
34,forth,41,sanft,IAT_green3.bmp,green,ending_scream,scream,ending,m,positive,positive,ES_green,1,m,522,2424460,2424964,2425168
34,forth,42,munter,IAT_purple1.bmp,purple,starting_scream,scream,starting,m,positive,negative,ES_green,1,m,521,2426765,2427269,2427473
34,forth,43,teuer,IAT_purple2.bmp,purple,starting_scream,scream,starting,c,negative,negative,ES_green,0,m,555,2429069,2429573,2429777
34,forth,44,ehrlich,IAT_purple1.bmp,purple,starting_scream,scream,starting,m,positive,negative,ES_green,1,m,428,2431908,2432412,2432616
34,forth,45,human,IAT_yellow1.bmp,yellow,starting_melody,melody,starting,m,positive,positive,ES_green,1,m,1090,2434119,2434623,2434827
34,forth,46,feige,IAT_green2.bmp,green,ending_scream,scream,ending,c,negative,positive,ES_green,1,c,546,2436992,2437496,2437700
34,forth,47,krank,IAT_purple4.bmp,purple,starting_scream,scream,starting,c,negative,negative,ES_green,1,c,749,2439322,2439826,2440030
34,forth,48,falsch,IAT_green2.bmp,green,ending_scream,scream,ending,c,negative,positive,ES_green,1,c,658,2441853,2442358,2442562
34,forth,49,brutal,IAT_yellow1.bmp,yellow,starting_melody,melody,starting,c,negative,positive,ES_green,1,c,539,2444296,2444800,2445004
34,forth,50,ehrlich,IAT_red3.bmp,red,ending_melody,melody,ending,m,positive,negative,ES_green,1,m,439,2446618,2447123,2447327
34,forth,51,sanft,IAT_green2.bmp,green,ending_scream,scream,ending,m,positive,positive,ES_green,1,m,575,2448840,2449345,2449549
34,forth,52,human,IAT_green1.bmp,green,ending_scream,scream,ending,m,positive,positive,ES_green,1,m,527,2451199,2451703,2451907
34,forth,53,gesund,IAT_green1.bmp,green,ending_scream,scream,ending,m,positive,positive,ES_green,1,m,528,2453508,2454013,2454217
34,forth,54,lästig,IAT_green4.bmp,green,ending_scream,scream,ending,c,negative,positive,ES_green,1,c,675,2455819,2456324,2456528
34,forth,55,sanft,IAT_purple2.bmp,purple,starting_scream,scream,starting,m,positive,negative,ES_green,0,c,783,2458278,2458782,2458986
34,forth,56,gierig,IAT_yellow4.bmp,yellow,starting_melody,melody,starting,c,negative,positive,ES_green,1,c,792,2461344,2461848,2462052
34,forth,57,brutal,IAT_red1.bmp,red,ending_melody,melody,ending,c,negative,negative,ES_green,1,c,500,2463920,2464424,2464628
34,forth,58,einsam,IAT_red4.bmp,red,ending_melody,melody,ending,c,negative,negative,ES_green,0,m,889,2466204,2466708,2466912
34,forth,59,gerecht,IAT_yellow2.bmp,yellow,starting_melody,melody,starting,m,positive,positive,ES_green,1,m,1304,2469375,2469880,2470084
34,forth,60,lustig,IAT_red2.bmp,red,ending_melody,melody,ending,m,positive,negative,ES_green,1,m,937,2472463,2472967,2473171
34,forth,61,falsch,IAT_green1.bmp,green,ending_scream,scream,ending,c,negative,positive,ES_green,1,c,964,2475183,2475687,2475891
34,forth,62,gesund,IAT_yellow1.bmp,yellow,starting_melody,melody,starting,m,positive,positive,ES_green,1,m,1065,2477930,2478434,2478638
34,forth,63,munter,IAT_red1.bmp,red,ending_melody,melody,ending,m,positive,negative,ES_green,1,m,621,2480779,2481283,2481487
34,forth,64,lästig,IAT_yellow4.bmp,yellow,starting_melody,melody,starting,c,negative,positive,ES_green,1,c,811,2483183,2483687,2483891
34,forth,65,geizig,IAT_yellow2.bmp,yellow,starting_melody,melody,starting,c,negative,positive,ES_green,0,m,967,2485778,2486282,2486486
34,forth,66,ehrlich,IAT_yellow2.bmp,yellow,starting_melody,melody,starting,m,positive,positive,ES_green,1,m,881,2489028,2489532,2489736
34,forth,67,gierig,IAT_yellow2.bmp,yellow,starting_melody,melody,starting,c,negative,positive,ES_green,1,c,631,2491692,2492197,2492401
34,forth,68,witzig,IAT_purple4.bmp,purple,starting_scream,scream,starting,m,positive,negative,ES_green,1,m,1071,2494107,2494612,2494816
34,forth,69,gerecht,IAT_yellow4.bmp,yellow,starting_melody,melody,starting,m,positive,positive,ES_green,1,m,1019,2496962,2497466,2497670
34,forth,70,einsam,IAT_red2.bmp,red,ending_melody,melody,ending,c,negative,negative,ES_green,0,m,661,2499765,2500269,2500473
34,forth,71,falsch,IAT_green1.bmp,green,ending_scream,scream,ending,c,negative,positive,ES_green,0,m,1037,2502708,2503212,2503416
34,forth,72,heiter,IAT_green3.bmp,green,ending_scream,scream,ending,m,positive,positive,ES_green,1,m,1440,2506028,2506533,2506737
34,forth,73,munter,IAT_red1.bmp,red,ending_melody,melody,ending,m,positive,negative,ES_green,1,m,527,2509255,2509759,2509963
34,forth,74,sozial,IAT_green2.bmp,green,ending_scream,scream,ending,m,positive,positive,ES_green,1,m,819,2511564,2512068,2512272
34,forth,75,ehrlich,IAT_purple3.bmp,purple,starting_scream,scream,starting,m,positive,negative,ES_green,1,m,761,2514166,2514670,2514875
34,forth,76,sonnig,IAT_yellow4.bmp,yellow,starting_melody,melody,starting,m,positive,positive,ES_green,1,m,681,2516711,2517216,2517420
34,forth,77,lästig,IAT_red3.bmp,red,ending_melody,melody,ending,c,negative,negative,ES_green,0,m,608,2519177,2519681,2519886
34,forth,78,witzig,IAT_purple2.bmp,purple,starting_scream,scream,starting,m,positive,negative,ES_green,1,m,649,2522069,2522573,2522777
34,forth,79,teuer,IAT_red2.bmp,red,ending_melody,melody,ending,c,negative,negative,ES_green,1,c,688,2524502,2525006,2525210
34,forth,80,sonnig,IAT_purple3.bmp,purple,starting_scream,scream,starting,m,positive,negative,ES_green,1,m,635,2526973,2527477,2527681
34,forth,81,morsch,IAT_purple1.bmp,purple,starting_scream,scream,starting,c,negative,negative,ES_green,0,m,493,2529392,2529896,2530100
34,forth,82,schön,IAT_yellow1.bmp,yellow,starting_melody,melody,starting,m,positive,positive,ES_green,0,c,775,2532168,2532672,2532876
34,forth,83,einsam,IAT_yellow2.bmp,yellow,starting_melody,melody,starting,c,negative,positive,ES_green,0,m,326,2535225,2535730,2535934
34,forth,84,sozial,IAT_green3.bmp,green,ending_scream,scream,ending,m,positive,positive,ES_green,1,m,874,2537834,2538339,2538543
34,forth,85,lästig,IAT_yellow4.bmp,yellow,starting_melody,melody,starting,c,negative,positive,ES_green,1,c,730,2540493,2540997,2541201
34,forth,86,geizig,IAT_red4.bmp,red,ending_melody,melody,ending,c,negative,negative,ES_green,1,c,1394,2543008,2543512,2543716
34,forth,87,krank,IAT_yellow2.bmp,yellow,starting_melody,melody,starting,c,negative,positive,ES_green,1,c,543,2546186,2546691,2546895
34,forth,88,gesund,IAT_yellow3.bmp,yellow,starting_melody,melody,starting,m,positive,positive,ES_green,1,m,503,2548513,2549017,2549221
34,forth,89,witzig,IAT_red3.bmp,red,ending_melody,melody,ending,m,positive,negative,ES_green,1,m,885,2550801,2551305,2551509
34,forth,90,teuer,IAT_green3.bmp,green,ending_scream,scream,ending,c,negative,positive,ES_green,1,c,1082,2553470,2553974,2554178
34,forth,91,heiter,IAT_purple3.bmp,purple,starting_scream,scream,starting,m,positive,negative,ES_green,1,m,540,2556335,2556839,2557043
34,forth,92,feige,IAT_purple2.bmp,purple,starting_scream,scream,starting,c,negative,negative,ES_green,1,c,579,2558658,2559162,2559366
34,forth,93,lustig,IAT_yellow3.bmp,yellow,starting_melody,melody,starting,m,positive,positive,ES_green,1,m,687,2561021,2561526,2561730
34,forth,94,morsch,IAT_green4.bmp,green,ending_scream,scream,ending,c,negative,positive,ES_green,1,c,762,2563492,2563996,2564200
34,forth,95,sozial,IAT_red4.bmp,red,ending_melody,melody,ending,m,positive,negative,ES_green,1,m,670,2566038,2566543,2566747
