subject_nr,block,trialnr,trial_target,trial_prime,prime_color,prime_role,prime_us,prime_relation,correct_response,target_valence,prime_valence,color_counter,correct_first_response,response_first_response,response_time_first_response,fixation_show,prime_show,target_show
54,first,0,teuer,IAT_red3.bmp,red,ending_scream,scream,ending,c,negative,positive,ES_red,1,c,537,1413669,1414174,1414378
54,first,1,sonnig,IAT_red3.bmp,red,ending_scream,scream,ending,m,positive,positive,ES_red,1,m,464,1415991,1416496,1416700
54,first,2,human,IAT_purple4.bmp,purple,starting_melody,melody,starting,m,positive,positive,ES_red,1,m,514,1418237,1418741,1418945
54,first,3,sozial,IAT_green1.bmp,green,ending_melody,melody,ending,m,positive,negative,ES_red,1,m,517,1420532,1421037,1421241
54,first,4,gierig,IAT_yellow4.bmp,yellow,starting_scream,scream,starting,c,negative,negative,ES_red,1,c,680,1422832,1423336,1423540
54,first,5,ehrlich,IAT_yellow3.bmp,yellow,starting_scream,scream,starting,m,positive,negative,ES_red,1,m,546,1425295,1425799,1426003
54,first,6,morsch,IAT_purple4.bmp,purple,starting_melody,melody,starting,c,negative,positive,ES_red,1,c,517,1427622,1428126,1428330
54,first,7,munter,IAT_green4.bmp,green,ending_melody,melody,ending,m,positive,negative,ES_red,1,m,499,1429921,1430425,1430629
54,first,8,sanft,IAT_green3.bmp,green,ending_melody,melody,ending,m,positive,negative,ES_red,1,m,543,1432202,1432707,1432911
54,first,9,schön,IAT_purple1.bmp,purple,starting_melody,melody,starting,m,positive,positive,ES_red,1,m,488,1434528,1435033,1435237
54,first,10,einsam,IAT_purple3.bmp,purple,starting_melody,melody,starting,c,negative,positive,ES_red,1,c,660,1436798,1437302,1437506
54,first,11,human,IAT_red3.bmp,red,ending_scream,scream,ending,m,positive,positive,ES_red,1,m,486,1439239,1439744,1439948
54,first,12,witzig,IAT_red4.bmp,red,ending_scream,scream,ending,m,positive,positive,ES_red,1,m,557,1441507,1442012,1442216
54,first,13,feige,IAT_red2.bmp,red,ending_scream,scream,ending,c,negative,positive,ES_red,1,c,630,1443847,1444352,1444556
54,first,14,schön,IAT_purple4.bmp,purple,starting_melody,melody,starting,m,positive,positive,ES_red,1,m,430,1446260,1446765,1446969
54,first,15,morsch,IAT_purple4.bmp,purple,starting_melody,melody,starting,c,negative,positive,ES_red,0,m,373,1448472,1448976,1449180
54,first,16,geizig,IAT_green2.bmp,green,ending_melody,melody,ending,c,negative,negative,ES_red,1,c,598,1451127,1451632,1451836
54,first,17,kaputt,IAT_yellow2.bmp,yellow,starting_scream,scream,starting,c,negative,negative,ES_red,1,c,580,1453507,1454011,1454215
54,first,18,brutal,IAT_red4.bmp,red,ending_scream,scream,ending,c,negative,positive,ES_red,1,c,498,1455869,1456373,1456577
54,first,19,gerecht,IAT_yellow3.bmp,yellow,starting_scream,scream,starting,m,positive,negative,ES_red,1,m,656,1458148,1458652,1458856
54,first,20,teuer,IAT_purple2.bmp,purple,starting_melody,melody,starting,c,negative,positive,ES_red,1,c,487,1460586,1461090,1461295
54,first,21,geizig,IAT_purple2.bmp,purple,starting_melody,melody,starting,c,negative,positive,ES_red,1,c,613,1462856,1463361,1463565
54,first,22,streng,IAT_green3.bmp,green,ending_melody,melody,ending,c,negative,negative,ES_red,1,c,527,1465252,1465756,1465960
54,first,23,falsch,IAT_red2.bmp,red,ending_scream,scream,ending,c,negative,positive,ES_red,1,c,556,1467561,1468065,1468269
54,first,24,lustig,IAT_yellow1.bmp,yellow,starting_scream,scream,starting,m,positive,negative,ES_red,1,m,486,1469899,1470403,1470607
54,first,25,feige,IAT_purple2.bmp,purple,starting_melody,melody,starting,c,negative,positive,ES_red,1,c,524,1472166,1472670,1472874
54,first,26,heiter,IAT_yellow1.bmp,yellow,starting_scream,scream,starting,m,positive,negative,ES_red,1,m,506,1474473,1474977,1475181
54,first,27,streng,IAT_yellow1.bmp,yellow,starting_scream,scream,starting,c,negative,negative,ES_red,1,c,561,1476761,1477265,1477469
54,first,28,krank,IAT_red4.bmp,red,ending_scream,scream,ending,c,negative,positive,ES_red,1,c,497,1479103,1479607,1479811
54,first,29,ehrlich,IAT_red1.bmp,red,ending_scream,scream,ending,m,positive,positive,ES_red,0,c,394,1481383,1481887,1482091
54,first,30,falsch,IAT_green2.bmp,green,ending_melody,melody,ending,c,negative,negative,ES_red,1,c,535,1484059,1484563,1484767
54,first,31,sanft,IAT_yellow3.bmp,yellow,starting_scream,scream,starting,m,positive,negative,ES_red,1,m,422,1486376,1486881,1487085
54,first,32,munter,IAT_purple1.bmp,purple,starting_melody,melody,starting,m,positive,positive,ES_red,1,m,607,1488582,1489086,1489290
54,first,33,heiter,IAT_red1.bmp,red,ending_scream,scream,ending,m,positive,positive,ES_red,1,m,485,1490972,1491476,1491680
54,first,34,witzig,IAT_yellow2.bmp,yellow,starting_scream,scream,starting,m,positive,negative,ES_red,1,m,432,1493239,1493744,1493948
54,first,35,teuer,IAT_purple1.bmp,purple,starting_melody,melody,starting,c,negative,positive,ES_red,1,c,465,1495454,1495958,1496162
54,first,36,gierig,IAT_yellow2.bmp,yellow,starting_scream,scream,starting,c,negative,negative,ES_red,1,c,508,1497702,1498206,1498410
54,first,37,lustig,IAT_green2.bmp,green,ending_melody,melody,ending,m,positive,negative,ES_red,1,m,496,1499992,1500496,1500700
54,first,38,sozial,IAT_purple1.bmp,purple,starting_melody,melody,starting,m,positive,positive,ES_red,1,m,730,1502270,1502775,1502979
54,first,39,krank,IAT_red2.bmp,red,ending_scream,scream,ending,c,negative,positive,ES_red,1,c,549,1504783,1505287,1505491
54,first,40,brutal,IAT_yellow2.bmp,yellow,starting_scream,scream,starting,c,negative,negative,ES_red,1,c,617,1507114,1507618,1507822
54,first,41,einsam,IAT_green4.bmp,green,ending_melody,melody,ending,c,negative,negative,ES_red,0,m,515,1509513,1510017,1510221
54,first,42,sanft,IAT_red3.bmp,red,ending_scream,scream,ending,m,positive,positive,ES_red,1,m,482,1512310,1512815,1513019
54,first,43,ehrlich,IAT_yellow4.bmp,yellow,starting_scream,scream,starting,m,positive,negative,ES_red,0,c,709,1514575,1515079,1515283
54,first,44,geizig,IAT_green3.bmp,green,ending_melody,melody,ending,c,negative,negative,ES_red,1,c,578,1517566,1518071,1518275
54,first,45,lästig,IAT_yellow4.bmp,yellow,starting_scream,scream,starting,c,negative,negative,ES_red,1,c,653,1519927,1520431,1520635
54,first,46,gierig,IAT_red3.bmp,red,ending_scream,scream,ending,c,negative,positive,ES_red,1,c,528,1522362,1522867,1523071
54,first,47,falsch,IAT_red1.bmp,red,ending_scream,scream,ending,c,negative,positive,ES_red,1,c,523,1524673,1525177,1525381
54,first,48,brutal,IAT_green4.bmp,green,ending_melody,melody,ending,c,negative,negative,ES_red,1,c,466,1526978,1527482,1527686
54,first,49,gerecht,IAT_green3.bmp,green,ending_melody,melody,ending,m,positive,negative,ES_red,1,m,568,1529226,1529730,1529934
54,first,50,heiter,IAT_purple2.bmp,purple,starting_melody,melody,starting,m,positive,positive,ES_red,1,m,461,1531576,1532080,1532285
54,first,51,kaputt,IAT_green2.bmp,green,ending_melody,melody,ending,c,negative,negative,ES_red,1,c,498,1533820,1534324,1534528
54,first,52,falsch,IAT_yellow3.bmp,yellow,starting_scream,scream,starting,c,negative,negative,ES_red,1,c,443,1536100,1536605,1536809
54,first,53,gesund,IAT_green3.bmp,green,ending_melody,melody,ending,m,positive,negative,ES_red,1,m,448,1538326,1538831,1539035
54,first,54,sonnig,IAT_green1.bmp,green,ending_melody,melody,ending,m,positive,negative,ES_red,1,m,419,1540556,1541061,1541265
54,first,55,krank,IAT_red4.bmp,red,ending_scream,scream,ending,c,negative,positive,ES_red,1,c,447,1542758,1543262,1543466
54,first,56,lustig,IAT_purple3.bmp,purple,starting_melody,melody,starting,m,positive,positive,ES_red,1,m,443,1544987,1545491,1545695
54,first,57,munter,IAT_red1.bmp,red,ending_scream,scream,ending,m,positive,positive,ES_red,1,m,436,1547212,1547716,1547920
54,first,58,gesund,IAT_green1.bmp,green,ending_melody,melody,ending,m,positive,negative,ES_red,1,m,388,1549431,1549935,1550139
54,first,59,human,IAT_purple3.bmp,purple,starting_melody,melody,starting,m,positive,positive,ES_red,1,m,479,1551601,1552105,1552309
54,first,60,geizig,IAT_purple4.bmp,purple,starting_melody,melody,starting,c,negative,positive,ES_red,0,m,511,1553862,1554366,1554570
54,first,61,sonnig,IAT_green1.bmp,green,ending_melody,melody,ending,m,positive,negative,ES_red,1,m,481,1556655,1557159,1557363
54,first,62,witzig,IAT_yellow4.bmp,yellow,starting_scream,scream,starting,m,positive,negative,ES_red,1,m,466,1558920,1559425,1559629
54,first,63,ehrlich,IAT_yellow3.bmp,yellow,starting_scream,scream,starting,m,positive,negative,ES_red,1,m,433,1561169,1561673,1561877
54,first,64,lästig,IAT_yellow4.bmp,yellow,starting_scream,scream,starting,c,negative,negative,ES_red,0,m,453,1563384,1563888,1564092
54,first,65,gesund,IAT_red2.bmp,red,ending_scream,scream,ending,m,positive,positive,ES_red,1,m,542,1566119,1566623,1566827
54,first,66,feige,IAT_green4.bmp,green,ending_melody,melody,ending,c,negative,negative,ES_red,1,c,493,1568443,1568947,1569151
54,first,67,lästig,IAT_red2.bmp,red,ending_scream,scream,ending,c,negative,positive,ES_red,1,c,509,1570718,1571222,1571426
54,first,68,feige,IAT_yellow4.bmp,yellow,starting_scream,scream,starting,c,negative,negative,ES_red,1,c,415,1573009,1573513,1573717
54,first,69,kaputt,IAT_green1.bmp,green,ending_melody,melody,ending,c,negative,negative,ES_red,1,c,450,1575206,1575710,1575914
54,first,70,einsam,IAT_green4.bmp,green,ending_melody,melody,ending,c,negative,negative,ES_red,1,c,583,1577438,1577942,1578146
54,first,71,lustig,IAT_green2.bmp,green,ending_melody,melody,ending,m,positive,negative,ES_red,1,m,469,1579802,1580307,1580511
54,first,72,witzig,IAT_purple3.bmp,purple,starting_melody,melody,starting,m,positive,positive,ES_red,1,m,443,1582053,1582558,1582762
54,first,73,gerecht,IAT_yellow2.bmp,yellow,starting_scream,scream,starting,m,positive,negative,ES_red,1,m,524,1584279,1584783,1584987
54,first,74,kaputt,IAT_yellow2.bmp,yellow,starting_scream,scream,starting,c,negative,negative,ES_red,1,c,554,1586585,1587089,1587293
54,first,75,krank,IAT_green2.bmp,green,ending_melody,melody,ending,c,negative,negative,ES_red,1,c,491,1588921,1589425,1589629
54,first,76,human,IAT_red2.bmp,red,ending_scream,scream,ending,m,positive,positive,ES_red,1,m,536,1591194,1591698,1591902
54,first,77,brutal,IAT_yellow3.bmp,yellow,starting_scream,scream,starting,c,negative,negative,ES_red,1,c,526,1593512,1594016,1594220
54,first,78,gerecht,IAT_yellow1.bmp,yellow,starting_scream,scream,starting,m,positive,negative,ES_red,1,m,553,1595821,1596325,1596529
54,first,79,teuer,IAT_green1.bmp,green,ending_melody,melody,ending,c,negative,negative,ES_red,1,c,554,1598157,1598661,1598865
54,first,80,sozial,IAT_purple3.bmp,purple,starting_melody,melody,starting,m,positive,positive,ES_red,1,m,505,1600493,1600997,1601201
54,first,81,heiter,IAT_yellow1.bmp,yellow,starting_scream,scream,starting,m,positive,negative,ES_red,1,m,521,1602781,1603286,1603490
54,first,82,sozial,IAT_purple1.bmp,purple,starting_melody,melody,starting,m,positive,positive,ES_red,1,m,462,1605086,1605590,1605794
54,first,83,streng,IAT_red1.bmp,red,ending_scream,scream,ending,c,negative,positive,ES_red,1,c,489,1607331,1607836,1608040
54,first,84,gierig,IAT_purple3.bmp,purple,starting_melody,melody,starting,c,negative,positive,ES_red,1,c,508,1609603,1610107,1610311
54,first,85,streng,IAT_yellow1.bmp,yellow,starting_scream,scream,starting,c,negative,negative,ES_red,1,c,535,1611893,1612397,1612601
54,first,86,sanft,IAT_green4.bmp,green,ending_melody,melody,ending,m,positive,negative,ES_red,1,m,518,1614211,1614716,1614920
54,first,87,schön,IAT_red3.bmp,red,ending_scream,scream,ending,m,positive,positive,ES_red,0,c,406,1616512,1617016,1617220
54,first,88,sonnig,IAT_purple2.bmp,purple,starting_melody,melody,starting,m,positive,positive,ES_red,1,m,493,1619201,1619706,1619910
54,first,89,morsch,IAT_purple2.bmp,purple,starting_melody,melody,starting,c,negative,positive,ES_red,1,c,702,1621479,1621984,1622188
54,first,90,lästig,IAT_red4.bmp,red,ending_scream,scream,ending,c,negative,positive,ES_red,1,c,866,1623964,1624468,1624672
54,first,91,gesund,IAT_red4.bmp,red,ending_scream,scream,ending,m,positive,positive,ES_red,1,m,683,1626612,1627116,1627320
54,first,92,einsam,IAT_purple1.bmp,purple,starting_melody,melody,starting,c,negative,positive,ES_red,1,c,639,1629077,1629581,1629785
54,first,93,schön,IAT_green3.bmp,green,ending_melody,melody,ending,m,positive,negative,ES_red,1,m,447,1631498,1632002,1632206
54,first,94,morsch,IAT_purple4.bmp,purple,starting_melody,melody,starting,c,negative,positive,ES_red,1,c,446,1633727,1634231,1634435
54,first,95,munter,IAT_red1.bmp,red,ending_scream,scream,ending,m,positive,positive,ES_red,1,m,523,1635955,1636460,1636665
54,second,0,falsch,IAT_yellow3.bmp,yellow,starting_scream,scream,starting,c,negative,negative,ES_red,1,c,468,1658141,1658645,1658849
54,second,1,lästig,IAT_red2.bmp,red,ending_scream,scream,ending,c,negative,positive,ES_red,1,c,516,1660393,1660897,1661101
54,second,2,sozial,IAT_yellow3.bmp,yellow,starting_scream,scream,starting,m,positive,negative,ES_red,1,m,512,1662692,1663196,1663400
54,second,3,munter,IAT_red1.bmp,red,ending_scream,scream,ending,m,positive,positive,ES_red,1,m,371,1664987,1665491,1665695
54,second,4,witzig,IAT_red2.bmp,red,ending_scream,scream,ending,m,positive,positive,ES_red,1,m,496,1667141,1667645,1667849
54,second,5,streng,IAT_yellow2.bmp,yellow,starting_scream,scream,starting,c,negative,negative,ES_red,1,c,453,1669420,1669924,1670129
54,second,6,heiter,IAT_purple3.bmp,purple,starting_melody,melody,starting,m,positive,positive,ES_red,1,m,461,1671654,1672159,1672363
54,second,7,gesund,IAT_green2.bmp,green,ending_melody,melody,ending,m,positive,negative,ES_red,0,c,593,1673897,1674401,1674605
54,second,8,gerecht,IAT_green4.bmp,green,ending_melody,melody,ending,m,positive,negative,ES_red,0,c,547,1676773,1677278,1677482
54,second,9,morsch,IAT_purple3.bmp,purple,starting_melody,melody,starting,c,negative,positive,ES_red,1,c,513,1679602,1680106,1680310
54,second,10,sonnig,IAT_green3.bmp,green,ending_melody,melody,ending,m,positive,negative,ES_red,1,m,443,1681898,1682402,1682606
54,second,11,gesund,IAT_red1.bmp,red,ending_scream,scream,ending,m,positive,positive,ES_red,1,m,428,1684123,1684627,1684831
54,second,12,teuer,IAT_purple1.bmp,purple,starting_melody,melody,starting,c,negative,positive,ES_red,1,c,487,1686333,1686837,1687041
54,second,13,falsch,IAT_red3.bmp,red,ending_scream,scream,ending,c,negative,positive,ES_red,1,c,470,1688602,1689106,1689310
54,second,14,morsch,IAT_purple2.bmp,purple,starting_melody,melody,starting,c,negative,positive,ES_red,1,c,439,1690855,1691360,1691564
54,second,15,ehrlich,IAT_yellow1.bmp,yellow,starting_scream,scream,starting,m,positive,negative,ES_red,1,m,479,1693078,1693582,1693786
54,second,16,kaputt,IAT_purple2.bmp,purple,starting_melody,melody,starting,c,negative,positive,ES_red,1,c,560,1695339,1695843,1696047
54,second,17,lustig,IAT_yellow1.bmp,yellow,starting_scream,scream,starting,m,positive,negative,ES_red,1,m,545,1697682,1698186,1698390
54,second,18,einsam,IAT_yellow4.bmp,yellow,starting_scream,scream,starting,c,negative,negative,ES_red,1,c,684,1700009,1700513,1700717
54,second,19,sozial,IAT_red3.bmp,red,ending_scream,scream,ending,m,positive,positive,ES_red,1,m,511,1702475,1702979,1703183
54,second,20,krank,IAT_purple2.bmp,purple,starting_melody,melody,starting,c,negative,positive,ES_red,1,c,565,1704768,1705272,1705476
54,second,21,sonnig,IAT_green3.bmp,green,ending_melody,melody,ending,m,positive,negative,ES_red,1,m,508,1707114,1707618,1707822
54,second,22,brutal,IAT_yellow2.bmp,yellow,starting_scream,scream,starting,c,negative,negative,ES_red,1,c,529,1709404,1709908,1710112
54,second,23,krank,IAT_red2.bmp,red,ending_scream,scream,ending,c,negative,positive,ES_red,1,c,483,1711715,1712219,1712423
54,second,24,morsch,IAT_red3.bmp,red,ending_scream,scream,ending,c,negative,positive,ES_red,1,c,480,1713981,1714485,1714689
54,second,25,sozial,IAT_green4.bmp,green,ending_melody,melody,ending,m,positive,negative,ES_red,1,m,550,1716243,1716747,1716952
54,second,26,heiter,IAT_yellow2.bmp,yellow,starting_scream,scream,starting,m,positive,negative,ES_red,1,m,500,1718576,1719080,1719284
54,second,27,munter,IAT_purple2.bmp,purple,starting_melody,melody,starting,m,positive,positive,ES_red,1,m,614,1720858,1721362,1721566
54,second,28,gierig,IAT_green4.bmp,green,ending_melody,melody,ending,c,negative,negative,ES_red,1,c,561,1723253,1723758,1723962
54,second,29,schön,IAT_purple1.bmp,purple,starting_melody,melody,starting,m,positive,positive,ES_red,1,m,435,1725597,1726102,1726306
54,second,30,streng,IAT_yellow3.bmp,yellow,starting_scream,scream,starting,c,negative,negative,ES_red,1,c,494,1727816,1728320,1728524
54,second,31,geizig,IAT_yellow1.bmp,yellow,starting_scream,scream,starting,c,negative,negative,ES_red,0,m,459,1730092,1730597,1730801
54,second,32,einsam,IAT_green2.bmp,green,ending_melody,melody,ending,c,negative,negative,ES_red,1,c,660,1732834,1733338,1733542
54,second,33,geizig,IAT_green3.bmp,green,ending_melody,melody,ending,c,negative,negative,ES_red,1,c,547,1735276,1735780,1735984
54,second,34,lästig,IAT_red4.bmp,red,ending_scream,scream,ending,c,negative,positive,ES_red,1,c,634,1737605,1738109,1738313
54,second,35,streng,IAT_red1.bmp,red,ending_scream,scream,ending,c,negative,positive,ES_red,1,c,544,1740021,1740525,1740729
54,second,36,sozial,IAT_purple2.bmp,purple,starting_melody,melody,starting,m,positive,positive,ES_red,1,m,528,1742347,1742851,1743055
54,second,37,teuer,IAT_red4.bmp,red,ending_scream,scream,ending,c,negative,positive,ES_red,1,c,512,1744657,1745161,1745365
54,second,38,gierig,IAT_red2.bmp,red,ending_scream,scream,ending,c,negative,positive,ES_red,1,c,658,1746952,1747456,1747660
54,second,39,gerecht,IAT_yellow2.bmp,yellow,starting_scream,scream,starting,m,positive,negative,ES_red,0,c,520,1749392,1749897,1750101
54,second,40,ehrlich,IAT_yellow1.bmp,yellow,starting_scream,scream,starting,m,positive,negative,ES_red,1,m,507,1752196,1752701,1752905
54,second,41,falsch,IAT_yellow2.bmp,yellow,starting_scream,scream,starting,c,negative,negative,ES_red,1,c,548,1754486,1754990,1755194
54,second,42,schön,IAT_red4.bmp,red,ending_scream,scream,ending,m,positive,positive,ES_red,1,m,664,1756817,1757321,1757525
54,second,43,gierig,IAT_green2.bmp,green,ending_melody,melody,ending,c,negative,negative,ES_red,1,c,657,1759263,1759768,1759972
54,second,44,feige,IAT_red1.bmp,red,ending_scream,scream,ending,c,negative,positive,ES_red,1,c,776,1761703,1762207,1762411
54,second,45,human,IAT_purple4.bmp,purple,starting_melody,melody,starting,m,positive,positive,ES_red,0,c,550,1764261,1764765,1764969
54,second,46,munter,IAT_yellow3.bmp,yellow,starting_scream,scream,starting,m,positive,negative,ES_red,1,m,551,1767094,1767598,1767802
54,second,47,lästig,IAT_yellow2.bmp,yellow,starting_scream,scream,starting,c,negative,negative,ES_red,1,c,616,1769427,1769931,1770135
54,second,48,falsch,IAT_purple4.bmp,purple,starting_melody,melody,starting,c,negative,positive,ES_red,1,c,497,1771826,1772330,1772534
54,second,49,sanft,IAT_purple1.bmp,purple,starting_melody,melody,starting,m,positive,positive,ES_red,1,m,476,1774105,1774610,1774815
54,second,50,heiter,IAT_green1.bmp,green,ending_melody,melody,ending,m,positive,negative,ES_red,1,m,656,1776365,1776870,1777075
54,second,51,feige,IAT_purple4.bmp,purple,starting_melody,melody,starting,c,negative,positive,ES_red,1,c,542,1778805,1779309,1779513
54,second,52,gerecht,IAT_red4.bmp,red,ending_scream,scream,ending,m,positive,positive,ES_red,1,m,574,1781129,1781633,1781837
54,second,53,human,IAT_red3.bmp,red,ending_scream,scream,ending,m,positive,positive,ES_red,1,m,524,1783485,1783989,1784194
54,second,54,schön,IAT_purple1.bmp,purple,starting_melody,melody,starting,m,positive,positive,ES_red,1,m,535,1785792,1786296,1786500
54,second,55,lustig,IAT_green3.bmp,green,ending_melody,melody,ending,m,positive,negative,ES_red,1,m,420,1788110,1788615,1788819
54,second,56,geizig,IAT_green1.bmp,green,ending_melody,melody,ending,c,negative,negative,ES_red,1,c,499,1790313,1790817,1791021
54,second,57,brutal,IAT_purple3.bmp,purple,starting_melody,melody,starting,c,negative,positive,ES_red,1,c,669,1792593,1793098,1793302
54,second,58,schön,IAT_yellow1.bmp,yellow,starting_scream,scream,starting,m,positive,negative,ES_red,1,m,447,1795045,1795549,1795753
54,second,59,witzig,IAT_red2.bmp,red,ending_scream,scream,ending,m,positive,positive,ES_red,1,m,563,1797273,1797778,1797982
54,second,60,sonnig,IAT_red3.bmp,red,ending_scream,scream,ending,m,positive,positive,ES_red,1,m,764,1799619,1800123,1800327
54,second,61,gerecht,IAT_green1.bmp,green,ending_melody,melody,ending,m,positive,negative,ES_red,1,m,1024,1802166,1802670,1802874
54,second,62,morsch,IAT_purple4.bmp,purple,starting_melody,melody,starting,c,negative,positive,ES_red,1,c,646,1804973,1805477,1805681
54,second,63,kaputt,IAT_green1.bmp,green,ending_melody,melody,ending,c,negative,negative,ES_red,1,c,645,1807402,1807906,1808110
54,second,64,feige,IAT_purple4.bmp,purple,starting_melody,melody,starting,c,negative,positive,ES_red,1,c,592,1809830,1810334,1810538
54,second,65,lustig,IAT_red1.bmp,red,ending_scream,scream,ending,m,positive,positive,ES_red,1,m,613,1812203,1812708,1812912
54,second,66,brutal,IAT_green2.bmp,green,ending_melody,melody,ending,c,negative,negative,ES_red,1,c,752,1814600,1815104,1815308
54,second,67,human,IAT_yellow4.bmp,yellow,starting_scream,scream,starting,m,positive,negative,ES_red,1,m,686,1817134,1817639,1817843
54,second,68,witzig,IAT_green1.bmp,green,ending_melody,melody,ending,m,positive,negative,ES_red,1,m,469,1819603,1820107,1820311
54,second,69,krank,IAT_red2.bmp,red,ending_scream,scream,ending,c,negative,positive,ES_red,1,c,631,1821855,1822359,1822563
54,second,70,human,IAT_red3.bmp,red,ending_scream,scream,ending,m,positive,positive,ES_red,0,c,385,1824269,1824773,1824977
54,second,71,teuer,IAT_green2.bmp,green,ending_melody,melody,ending,c,negative,negative,ES_red,1,c,1004,1826936,1827440,1827644
54,second,72,heiter,IAT_yellow3.bmp,yellow,starting_scream,scream,starting,m,positive,negative,ES_red,1,m,718,1829722,1830226,1830430
54,second,73,geizig,IAT_green3.bmp,green,ending_melody,melody,ending,c,negative,negative,ES_red,1,c,554,1832222,1832726,1832930
54,second,74,sanft,IAT_purple3.bmp,purple,starting_melody,melody,starting,m,positive,positive,ES_red,1,m,451,1834560,1835064,1835268
54,second,75,witzig,IAT_green2.bmp,green,ending_melody,melody,ending,m,positive,negative,ES_red,1,m,461,1836793,1837297,1837501
54,second,76,ehrlich,IAT_purple1.bmp,purple,starting_melody,melody,starting,m,positive,positive,ES_red,1,m,467,1839036,1839541,1839745
54,second,77,feige,IAT_green4.bmp,green,ending_melody,melody,ending,c,negative,negative,ES_red,1,c,569,1841287,1841791,1841995
54,second,78,sanft,IAT_purple3.bmp,purple,starting_melody,melody,starting,m,positive,positive,ES_red,1,m,468,1843638,1844142,1844346
54,second,79,brutal,IAT_yellow4.bmp,yellow,starting_scream,scream,starting,c,negative,negative,ES_red,1,c,565,1845889,1846394,1846598
54,second,80,gierig,IAT_yellow4.bmp,yellow,starting_scream,scream,starting,c,negative,negative,ES_red,1,c,569,1848247,1848751,1848955
54,second,81,gesund,IAT_green1.bmp,green,ending_melody,melody,ending,m,positive,negative,ES_red,1,m,606,1850598,1851102,1851306
54,second,82,kaputt,IAT_yellow1.bmp,yellow,starting_scream,scream,starting,c,negative,negative,ES_red,1,c,573,1852987,1853491,1853695
54,second,83,streng,IAT_green4.bmp,green,ending_melody,melody,ending,c,negative,negative,ES_red,1,c,636,1855343,1855847,1856051
54,second,84,einsam,IAT_red4.bmp,red,ending_scream,scream,ending,c,negative,positive,ES_red,1,c,722,1857762,1858266,1858470
54,second,85,kaputt,IAT_red4.bmp,red,ending_scream,scream,ending,c,negative,positive,ES_red,1,c,726,1860266,1860770,1860974
54,second,86,teuer,IAT_yellow4.bmp,yellow,starting_scream,scream,starting,c,negative,negative,ES_red,1,c,588,1862775,1863279,1863483
54,second,87,sanft,IAT_red1.bmp,red,ending_scream,scream,ending,m,positive,positive,ES_red,1,m,471,1865146,1865650,1865854
54,second,88,gesund,IAT_yellow3.bmp,yellow,starting_scream,scream,starting,m,positive,negative,ES_red,1,m,525,1867401,1867905,1868109
54,second,89,einsam,IAT_green4.bmp,green,ending_melody,melody,ending,c,negative,negative,ES_red,1,c,596,1869707,1870212,1870416
54,second,90,munter,IAT_purple3.bmp,purple,starting_melody,melody,starting,m,positive,positive,ES_red,1,m,503,1872085,1872590,1872794
54,second,91,lustig,IAT_green3.bmp,green,ending_melody,melody,ending,m,positive,negative,ES_red,1,m,547,1874372,1874876,1875080
54,second,92,lästig,IAT_purple2.bmp,purple,starting_melody,melody,starting,c,negative,positive,ES_red,1,c,771,1876703,1877207,1877411
54,second,93,ehrlich,IAT_yellow4.bmp,yellow,starting_scream,scream,starting,m,positive,negative,ES_red,0,c,617,1879257,1879761,1879965
54,second,94,sonnig,IAT_purple4.bmp,purple,starting_melody,melody,starting,m,positive,positive,ES_red,1,m,756,1882156,1882660,1882865
54,second,95,krank,IAT_purple1.bmp,purple,starting_melody,melody,starting,c,negative,positive,ES_red,1,c,637,1884696,1885200,1885404
54,third,0,falsch,IAT_red2.bmp,red,ending_scream,scream,ending,c,negative,positive,ES_red,1,c,851,1925706,1926210,1926414
54,third,1,teuer,IAT_red1.bmp,red,ending_scream,scream,ending,c,negative,positive,ES_red,1,c,662,1928341,1928845,1929049
54,third,2,munter,IAT_purple3.bmp,purple,starting_melody,melody,starting,m,positive,positive,ES_red,1,m,525,1930784,1931288,1931492
54,third,3,human,IAT_green4.bmp,green,ending_melody,melody,ending,m,positive,negative,ES_red,1,m,541,1933091,1933595,1933799
54,third,4,gerecht,IAT_yellow4.bmp,yellow,starting_scream,scream,starting,m,positive,negative,ES_red,1,m,1320,1935414,1935918,1936122
54,third,5,munter,IAT_red4.bmp,red,ending_scream,scream,ending,m,positive,positive,ES_red,1,m,1122,1938516,1939020,1939224
54,third,6,krank,IAT_green3.bmp,green,ending_melody,melody,ending,c,negative,negative,ES_red,1,c,1146,1941421,1941925,1942130
54,third,7,kaputt,IAT_yellow4.bmp,yellow,starting_scream,scream,starting,c,negative,negative,ES_red,1,c,957,1944350,1944854,1945058
54,third,8,heiter,IAT_green3.bmp,green,ending_melody,melody,ending,m,positive,negative,ES_red,1,m,668,1947090,1947594,1947798
54,third,9,feige,IAT_red3.bmp,red,ending_scream,scream,ending,c,negative,positive,ES_red,0,m,450,1949540,1950045,1950249
54,third,10,brutal,IAT_yellow2.bmp,yellow,starting_scream,scream,starting,c,negative,negative,ES_red,1,c,661,1952274,1952778,1952982
54,third,11,gesund,IAT_yellow3.bmp,yellow,starting_scream,scream,starting,m,positive,negative,ES_red,1,m,603,1954717,1955221,1955425
54,third,12,witzig,IAT_red1.bmp,red,ending_scream,scream,ending,m,positive,positive,ES_red,1,m,485,1957102,1957606,1957810
54,third,13,falsch,IAT_green4.bmp,green,ending_melody,melody,ending,c,negative,negative,ES_red,1,c,529,1959369,1959873,1960077
54,third,14,sanft,IAT_red1.bmp,red,ending_scream,scream,ending,m,positive,positive,ES_red,1,m,427,1961680,1962184,1962388
54,third,15,gierig,IAT_green1.bmp,green,ending_melody,melody,ending,c,negative,negative,ES_red,1,c,579,1963888,1964392,1964596
54,third,16,morsch,IAT_purple4.bmp,purple,starting_melody,melody,starting,c,negative,positive,ES_red,1,c,541,1966248,1966752,1966957
54,third,17,schön,IAT_red1.bmp,red,ending_scream,scream,ending,m,positive,positive,ES_red,1,m,494,1968572,1969077,1969281
54,third,18,lustig,IAT_green4.bmp,green,ending_melody,melody,ending,m,positive,negative,ES_red,1,m,659,1970849,1971353,1971557
54,third,19,kaputt,IAT_green4.bmp,green,ending_melody,melody,ending,c,negative,negative,ES_red,1,c,598,1973290,1973794,1973998
54,third,20,human,IAT_purple4.bmp,purple,starting_melody,melody,starting,m,positive,positive,ES_red,1,m,551,1975670,1976174,1976378
54,third,21,munter,IAT_green1.bmp,green,ending_melody,melody,ending,m,positive,negative,ES_red,1,m,608,1978002,1978507,1978711
54,third,22,ehrlich,IAT_yellow2.bmp,yellow,starting_scream,scream,starting,m,positive,negative,ES_red,1,m,543,1980393,1980898,1981102
54,third,23,sozial,IAT_yellow1.bmp,yellow,starting_scream,scream,starting,m,positive,negative,ES_red,1,m,526,1982719,1983223,1983427
54,third,24,streng,IAT_red4.bmp,red,ending_scream,scream,ending,c,negative,positive,ES_red,1,c,572,1985027,1985531,1985735
54,third,25,sonnig,IAT_green3.bmp,green,ending_melody,melody,ending,m,positive,negative,ES_red,1,m,506,1987381,1987885,1988089
54,third,26,gerecht,IAT_purple3.bmp,purple,starting_melody,melody,starting,m,positive,positive,ES_red,0,c,545,1989669,1990174,1990378
54,third,27,sonnig,IAT_red3.bmp,red,ending_scream,scream,ending,m,positive,positive,ES_red,1,m,511,1992497,1993001,1993205
54,third,28,krank,IAT_red4.bmp,red,ending_scream,scream,ending,c,negative,positive,ES_red,1,c,507,1994790,1995295,1995499
54,third,29,sanft,IAT_yellow1.bmp,yellow,starting_scream,scream,starting,m,positive,negative,ES_red,1,m,442,1997081,1997585,1997789
54,third,30,feige,IAT_red2.bmp,red,ending_scream,scream,ending,c,negative,positive,ES_red,1,c,568,1999304,1999808,2000012
54,third,31,streng,IAT_purple2.bmp,purple,starting_melody,melody,starting,c,negative,positive,ES_red,1,c,556,2001654,2002158,2002362
54,third,32,brutal,IAT_purple4.bmp,purple,starting_melody,melody,starting,c,negative,positive,ES_red,1,c,540,2003992,2004497,2004701
54,third,33,geizig,IAT_green3.bmp,green,ending_melody,melody,ending,c,negative,negative,ES_red,1,c,495,2006315,2006820,2007024
54,third,34,sozial,IAT_green3.bmp,green,ending_melody,melody,ending,m,positive,negative,ES_red,1,m,609,2008593,2009097,2009301
54,third,35,gierig,IAT_purple2.bmp,purple,starting_melody,melody,starting,c,negative,positive,ES_red,1,c,636,2010984,2011488,2011692
54,third,36,heiter,IAT_yellow1.bmp,yellow,starting_scream,scream,starting,m,positive,negative,ES_red,1,m,652,2013402,2013906,2014110
54,third,37,teuer,IAT_purple2.bmp,purple,starting_melody,melody,starting,c,negative,positive,ES_red,1,c,788,2015836,2016340,2016544
54,third,38,lästig,IAT_red2.bmp,red,ending_scream,scream,ending,c,negative,positive,ES_red,1,c,628,2018407,2018911,2019115
54,third,39,munter,IAT_green2.bmp,green,ending_melody,melody,ending,m,positive,negative,ES_red,1,m,475,2020816,2021321,2021525
54,third,40,einsam,IAT_green4.bmp,green,ending_melody,melody,ending,c,negative,negative,ES_red,1,c,650,2023074,2023578,2023782
54,third,41,teuer,IAT_green1.bmp,green,ending_melody,melody,ending,c,negative,negative,ES_red,1,c,575,2025507,2026011,2026215
54,third,42,ehrlich,IAT_yellow2.bmp,yellow,starting_scream,scream,starting,m,positive,negative,ES_red,0,c,782,2027865,2028369,2028574
54,third,43,brutal,IAT_purple3.bmp,purple,starting_melody,melody,starting,c,negative,positive,ES_red,1,c,676,2030930,2031434,2031638
54,third,44,witzig,IAT_yellow3.bmp,yellow,starting_scream,scream,starting,m,positive,negative,ES_red,1,m,555,2033388,2033893,2034097
54,third,45,geizig,IAT_purple4.bmp,purple,starting_melody,melody,starting,c,negative,positive,ES_red,1,c,724,2035726,2036230,2036434
54,third,46,schön,IAT_purple1.bmp,purple,starting_melody,melody,starting,m,positive,positive,ES_red,1,m,643,2038232,2038736,2038940
54,third,47,krank,IAT_yellow2.bmp,yellow,starting_scream,scream,starting,c,negative,negative,ES_red,1,c,719,2040657,2041162,2041366
54,third,48,sanft,IAT_green1.bmp,green,ending_melody,melody,ending,m,positive,negative,ES_red,1,m,676,2043159,2043664,2043868
54,third,49,streng,IAT_yellow4.bmp,yellow,starting_scream,scream,starting,c,negative,negative,ES_red,1,c,673,2045619,2046124,2046328
54,third,50,einsam,IAT_green2.bmp,green,ending_melody,melody,ending,c,negative,negative,ES_red,1,c,1039,2048075,2048579,2048783
54,third,51,human,IAT_red3.bmp,red,ending_scream,scream,ending,m,positive,positive,ES_red,1,m,570,2050896,2051400,2051604
54,third,52,ehrlich,IAT_red2.bmp,red,ending_scream,scream,ending,m,positive,positive,ES_red,0,c,948,2053248,2053752,2053956
54,third,53,geizig,IAT_purple3.bmp,purple,starting_melody,melody,starting,c,negative,positive,ES_red,1,c,735,2056479,2056983,2057187
54,third,54,brutal,IAT_red4.bmp,red,ending_scream,scream,ending,c,negative,positive,ES_red,1,c,588,2058997,2059501,2059705
54,third,55,feige,IAT_red3.bmp,red,ending_scream,scream,ending,c,negative,positive,ES_red,1,c,693,2061367,2061872,2062076
54,third,56,gerecht,IAT_yellow3.bmp,yellow,starting_scream,scream,starting,m,positive,negative,ES_red,1,m,921,2063843,2064347,2064551
54,third,57,teuer,IAT_yellow1.bmp,yellow,starting_scream,scream,starting,c,negative,negative,ES_red,1,c,753,2066548,2067052,2067256
54,third,58,ehrlich,IAT_purple4.bmp,purple,starting_melody,melody,starting,m,positive,positive,ES_red,1,m,671,2069083,2069588,2069792
54,third,59,gierig,IAT_green2.bmp,green,ending_melody,melody,ending,c,negative,negative,ES_red,1,c,976,2071537,2072041,2072245
54,third,60,human,IAT_green3.bmp,green,ending_melody,melody,ending,m,positive,negative,ES_red,1,m,873,2074296,2074800,2075005
54,third,61,witzig,IAT_yellow3.bmp,yellow,starting_scream,scream,starting,m,positive,negative,ES_red,1,m,833,2076953,2077457,2077661
54,third,62,sonnig,IAT_purple1.bmp,purple,starting_melody,melody,starting,m,positive,positive,ES_red,1,m,1007,2079568,2080072,2080276
54,third,63,falsch,IAT_yellow1.bmp,yellow,starting_scream,scream,starting,c,negative,negative,ES_red,1,c,645,2082358,2082862,2083066
54,third,64,gesund,IAT_red3.bmp,red,ending_scream,scream,ending,m,positive,positive,ES_red,1,m,568,2084786,2085290,2085494
54,third,65,lästig,IAT_yellow3.bmp,yellow,starting_scream,scream,starting,c,negative,negative,ES_red,1,c,619,2087137,2087641,2087845
54,third,66,morsch,IAT_yellow4.bmp,yellow,starting_scream,scream,starting,c,negative,negative,ES_red,1,c,729,2089539,2090043,2090247
54,third,67,einsam,IAT_yellow3.bmp,yellow,starting_scream,scream,starting,c,negative,negative,ES_red,0,None,1500,2092051,2092555,2092759
54,third,68,lustig,IAT_yellow1.bmp,yellow,starting_scream,scream,starting,m,positive,negative,ES_red,1,m,800,2095833,2096337,2096541
54,third,69,gerecht,IAT_purple3.bmp,purple,starting_melody,melody,starting,m,positive,positive,ES_red,1,m,669,2098415,2098920,2099124
54,third,70,lustig,IAT_yellow4.bmp,yellow,starting_scream,scream,starting,m,positive,negative,ES_red,1,m,564,2100868,2101372,2101577
54,third,71,sozial,IAT_red4.bmp,red,ending_scream,scream,ending,m,positive,positive,ES_red,1,m,552,2103216,2103720,2103924
54,third,72,kaputt,IAT_green2.bmp,green,ending_melody,melody,ending,c,negative,negative,ES_red,1,c,741,2105551,2106056,2106260
54,third,73,feige,IAT_green2.bmp,green,ending_melody,melody,ending,c,negative,negative,ES_red,1,c,670,2108076,2108580,2108785
54,third,74,lästig,IAT_purple4.bmp,purple,starting_melody,melody,starting,c,negative,positive,ES_red,0,m,548,2110529,2111034,2111238
54,third,75,schön,IAT_purple2.bmp,purple,starting_melody,melody,starting,m,positive,positive,ES_red,1,m,584,2113361,2113865,2114069
54,third,76,heiter,IAT_red1.bmp,red,ending_scream,scream,ending,m,positive,positive,ES_red,0,c,847,2115728,2116232,2116436
54,third,77,kaputt,IAT_purple1.bmp,purple,starting_melody,melody,starting,c,negative,positive,ES_red,1,c,535,2118858,2119362,2119566
54,third,78,falsch,IAT_red1.bmp,red,ending_scream,scream,ending,c,negative,positive,ES_red,1,c,535,2121176,2121680,2121884
54,third,79,lästig,IAT_yellow4.bmp,yellow,starting_scream,scream,starting,c,negative,negative,ES_red,1,c,656,2123493,2123998,2124202
54,third,80,gesund,IAT_red2.bmp,red,ending_scream,scream,ending,m,positive,positive,ES_red,1,m,746,2125933,2126437,2126641
54,third,81,witzig,IAT_green1.bmp,green,ending_melody,melody,ending,m,positive,negative,ES_red,1,m,618,2128461,2128966,2129170
54,third,82,morsch,IAT_red4.bmp,red,ending_scream,scream,ending,c,negative,positive,ES_red,1,c,597,2130862,2131367,2131571
54,third,83,lustig,IAT_purple3.bmp,purple,starting_melody,melody,starting,m,positive,positive,ES_red,1,m,1177,2133242,2133747,2133951
54,third,84,geizig,IAT_green4.bmp,green,ending_melody,melody,ending,c,negative,negative,ES_red,1,c,867,2136202,2136707,2136911
54,third,85,krank,IAT_purple2.bmp,purple,starting_melody,melody,starting,c,negative,positive,ES_red,1,c,597,2138853,2139357,2139561
54,third,86,sanft,IAT_purple1.bmp,purple,starting_melody,melody,starting,m,positive,positive,ES_red,1,m,700,2141233,2141737,2141941
54,third,87,streng,IAT_yellow2.bmp,yellow,starting_scream,scream,starting,c,negative,negative,ES_red,1,c,1231,2143716,2144220,2144425
54,third,88,sonnig,IAT_purple1.bmp,purple,starting_melody,melody,starting,m,positive,positive,ES_red,1,m,758,2146731,2147235,2147439
54,third,89,schön,IAT_green1.bmp,green,ending_melody,melody,ending,m,positive,negative,ES_red,0,None,1500,2149271,2149776,2149980
54,third,90,sozial,IAT_purple2.bmp,purple,starting_melody,melody,starting,m,positive,positive,ES_red,1,m,592,2153054,2153558,2153762
54,third,91,gierig,IAT_red2.bmp,red,ending_scream,scream,ending,c,negative,positive,ES_red,1,c,551,2155429,2155933,2156137
54,third,92,heiter,IAT_red3.bmp,red,ending_scream,scream,ending,m,positive,positive,ES_red,0,c,452,2157763,2158267,2158471
54,third,93,gesund,IAT_green2.bmp,green,ending_melody,melody,ending,m,positive,negative,ES_red,1,m,748,2160497,2161001,2161205
54,third,94,einsam,IAT_yellow2.bmp,yellow,starting_scream,scream,starting,c,negative,negative,ES_red,1,c,652,2163029,2163533,2163737
54,third,95,morsch,IAT_purple1.bmp,purple,starting_melody,melody,starting,c,negative,positive,ES_red,1,c,616,2165464,2165968,2166172
54,forth,0,sanft,IAT_green3.bmp,green,ending_melody,melody,ending,m,positive,negative,ES_red,1,m,747,2187639,2188143,2188347
54,forth,1,witzig,IAT_yellow1.bmp,yellow,starting_scream,scream,starting,m,positive,negative,ES_red,1,m,537,2190171,2190675,2190879
54,forth,2,falsch,IAT_purple1.bmp,purple,starting_melody,melody,starting,c,negative,positive,ES_red,1,c,530,2192491,2192995,2193199
54,forth,3,sozial,IAT_purple4.bmp,purple,starting_melody,melody,starting,m,positive,positive,ES_red,1,m,501,2194802,2195306,2195510
54,forth,4,streng,IAT_purple2.bmp,purple,starting_melody,melody,starting,c,negative,positive,ES_red,1,c,552,2197087,2197591,2197795
54,forth,5,witzig,IAT_green3.bmp,green,ending_melody,melody,ending,m,positive,negative,ES_red,1,m,518,2199422,2199926,2200131
54,forth,6,feige,IAT_purple3.bmp,purple,starting_melody,melody,starting,c,negative,positive,ES_red,1,c,500,2201722,2202226,2202430
54,forth,7,kaputt,IAT_green3.bmp,green,ending_melody,melody,ending,c,negative,negative,ES_red,1,c,559,2204003,2204508,2204712
54,forth,8,ehrlich,IAT_yellow3.bmp,yellow,starting_scream,scream,starting,m,positive,negative,ES_red,1,m,628,2206346,2206850,2207054
54,forth,9,teuer,IAT_yellow1.bmp,yellow,starting_scream,scream,starting,c,negative,negative,ES_red,1,c,880,2208756,2209260,2209464
54,forth,10,sonnig,IAT_red1.bmp,red,ending_scream,scream,ending,m,positive,positive,ES_red,1,m,621,2211417,2211922,2212126
54,forth,11,falsch,IAT_yellow4.bmp,yellow,starting_scream,scream,starting,c,negative,negative,ES_red,1,c,1066,2213821,2214325,2214529
54,forth,12,morsch,IAT_yellow4.bmp,yellow,starting_scream,scream,starting,c,negative,negative,ES_red,1,c,539,2216670,2217174,2217378
54,forth,13,lästig,IAT_red3.bmp,red,ending_scream,scream,ending,c,negative,positive,ES_red,0,m,407,2218992,2219497,2219701
54,forth,14,schön,IAT_yellow4.bmp,yellow,starting_scream,scream,starting,m,positive,negative,ES_red,1,m,557,2221684,2222189,2222393
54,forth,15,human,IAT_purple1.bmp,purple,starting_melody,melody,starting,m,positive,positive,ES_red,1,m,632,2224024,2224528,2224732
54,forth,16,gierig,IAT_green4.bmp,green,ending_melody,melody,ending,c,negative,negative,ES_red,1,c,726,2226439,2226943,2227147
54,forth,17,geizig,IAT_green2.bmp,green,ending_melody,melody,ending,c,negative,negative,ES_red,1,c,1202,2228947,2229451,2229655
54,forth,18,gesund,IAT_yellow1.bmp,yellow,starting_scream,scream,starting,m,positive,negative,ES_red,1,m,402,2231932,2232436,2232640
54,forth,19,streng,IAT_purple3.bmp,purple,starting_melody,melody,starting,c,negative,positive,ES_red,1,c,487,2234118,2234622,2234826
54,forth,20,teuer,IAT_yellow3.bmp,yellow,starting_scream,scream,starting,c,negative,negative,ES_red,0,m,602,2236387,2236891,2237095
54,forth,21,brutal,IAT_green1.bmp,green,ending_melody,melody,ending,c,negative,negative,ES_red,1,c,516,2239272,2239776,2239980
54,forth,22,gerecht,IAT_red2.bmp,red,ending_scream,scream,ending,m,positive,positive,ES_red,1,m,658,2241571,2242076,2242280
54,forth,23,krank,IAT_yellow2.bmp,yellow,starting_scream,scream,starting,c,negative,negative,ES_red,1,c,617,2244012,2244516,2244720
54,forth,24,human,IAT_green3.bmp,green,ending_melody,melody,ending,m,positive,negative,ES_red,1,m,640,2246412,2246917,2247121
54,forth,25,ehrlich,IAT_yellow1.bmp,yellow,starting_scream,scream,starting,m,positive,negative,ES_red,0,c,622,2248835,2249339,2249543
54,forth,26,heiter,IAT_red4.bmp,red,ending_scream,scream,ending,m,positive,positive,ES_red,1,m,789,2251739,2252243,2252447
54,forth,27,munter,IAT_purple3.bmp,purple,starting_melody,melody,starting,m,positive,positive,ES_red,1,m,575,2254311,2254815,2255019
54,forth,28,schön,IAT_red2.bmp,red,ending_scream,scream,ending,m,positive,positive,ES_red,1,m,627,2256669,2257174,2257378
54,forth,29,lustig,IAT_yellow1.bmp,yellow,starting_scream,scream,starting,m,positive,negative,ES_red,1,m,712,2259080,2259584,2259788
54,forth,30,morsch,IAT_red2.bmp,red,ending_scream,scream,ending,c,negative,positive,ES_red,1,c,517,2261575,2262080,2262284
54,forth,31,ehrlich,IAT_purple3.bmp,purple,starting_melody,melody,starting,m,positive,positive,ES_red,1,m,1353,2263875,2264380,2264585
54,forth,32,krank,IAT_red2.bmp,red,ending_scream,scream,ending,c,negative,positive,ES_red,1,c,462,2267013,2267517,2267721
54,forth,33,human,IAT_green1.bmp,green,ending_melody,melody,ending,m,positive,negative,ES_red,1,m,656,2269258,2269762,2269966
54,forth,34,geizig,IAT_red1.bmp,red,ending_scream,scream,ending,c,negative,positive,ES_red,1,c,700,2271696,2272200,2272404
54,forth,35,sanft,IAT_purple1.bmp,purple,starting_melody,melody,starting,m,positive,positive,ES_red,1,m,489,2274179,2274684,2274888
54,forth,36,einsam,IAT_purple1.bmp,purple,starting_melody,melody,starting,c,negative,positive,ES_red,1,c,778,2276452,2276957,2277161
54,forth,37,gierig,IAT_yellow3.bmp,yellow,starting_scream,scream,starting,c,negative,negative,ES_red,1,c,649,2279014,2279518,2279722
54,forth,38,teuer,IAT_purple2.bmp,purple,starting_melody,melody,starting,c,negative,positive,ES_red,1,c,591,2281446,2281951,2282155
54,forth,39,witzig,IAT_red3.bmp,red,ending_scream,scream,ending,m,positive,positive,ES_red,1,m,650,2283821,2284325,2284529
54,forth,40,brutal,IAT_red2.bmp,red,ending_scream,scream,ending,c,negative,positive,ES_red,1,c,448,2286254,2286758,2286962
54,forth,41,einsam,IAT_purple4.bmp,purple,starting_melody,melody,starting,c,negative,positive,ES_red,1,c,904,2288486,2288990,2289194
54,forth,42,heiter,IAT_red3.bmp,red,ending_scream,scream,ending,m,positive,positive,ES_red,1,m,723,2291173,2291678,2291882
54,forth,43,streng,IAT_green2.bmp,green,ending_melody,melody,ending,c,negative,negative,ES_red,1,c,719,2293680,2294184,2294388
54,forth,44,feige,IAT_purple4.bmp,purple,starting_melody,melody,starting,c,negative,positive,ES_red,1,c,581,2296182,2296686,2296891
54,forth,45,brutal,IAT_red4.bmp,red,ending_scream,scream,ending,c,negative,positive,ES_red,1,c,614,2298547,2299051,2299255
54,forth,46,kaputt,IAT_yellow4.bmp,yellow,starting_scream,scream,starting,c,negative,negative,ES_red,0,None,1500,2300944,2301448,2301652
54,forth,47,lästig,IAT_yellow2.bmp,yellow,starting_scream,scream,starting,c,negative,negative,ES_red,0,m,534,2305227,2305731,2305935
54,forth,48,schön,IAT_green1.bmp,green,ending_melody,melody,ending,m,positive,negative,ES_red,1,m,535,2308043,2308547,2308751
54,forth,49,heiter,IAT_green4.bmp,green,ending_melody,melody,ending,m,positive,negative,ES_red,1,m,816,2310361,2310865,2311069
54,forth,50,falsch,IAT_green2.bmp,green,ending_melody,melody,ending,c,negative,negative,ES_red,1,c,686,2312962,2313466,2313670
54,forth,51,gerecht,IAT_green2.bmp,green,ending_melody,melody,ending,m,positive,negative,ES_red,1,m,1248,2315431,2315935,2316139
54,forth,52,munter,IAT_red3.bmp,red,ending_scream,scream,ending,m,positive,positive,ES_red,0,None,1500,2318462,2318967,2319171
54,forth,53,kaputt,IAT_yellow2.bmp,yellow,starting_scream,scream,starting,c,negative,negative,ES_red,1,c,507,2322746,2323251,2323455
54,forth,54,morsch,IAT_purple2.bmp,purple,starting_melody,melody,starting,c,negative,positive,ES_red,1,c,571,2325037,2325541,2325745
54,forth,55,lästig,IAT_green2.bmp,green,ending_melody,melody,ending,c,negative,negative,ES_red,1,c,659,2327391,2327895,2328099
54,forth,56,gierig,IAT_yellow1.bmp,yellow,starting_scream,scream,starting,c,negative,negative,ES_red,1,c,621,2329834,2330338,2330542
54,forth,57,sanft,IAT_purple3.bmp,purple,starting_melody,melody,starting,m,positive,positive,ES_red,1,m,658,2332237,2332741,2332945
54,forth,58,sozial,IAT_green1.bmp,green,ending_melody,melody,ending,m,positive,negative,ES_red,1,m,773,2334679,2335183,2335387
54,forth,59,krank,IAT_purple4.bmp,purple,starting_melody,melody,starting,c,negative,positive,ES_red,1,c,987,2337235,2337739,2337943
54,forth,60,schön,IAT_red1.bmp,red,ending_scream,scream,ending,m,positive,positive,ES_red,1,m,449,2340005,2340509,2340713
54,forth,61,lustig,IAT_red1.bmp,red,ending_scream,scream,ending,m,positive,positive,ES_red,1,m,562,2342238,2342743,2342947
54,forth,62,sonnig,IAT_yellow3.bmp,yellow,starting_scream,scream,starting,m,positive,negative,ES_red,1,m,575,2344584,2345088,2345292
54,forth,63,lästig,IAT_yellow2.bmp,yellow,starting_scream,scream,starting,c,negative,negative,ES_red,0,m,378,2346943,2347447,2347651
54,forth,64,morsch,IAT_green3.bmp,green,ending_melody,melody,ending,c,negative,negative,ES_red,1,c,574,2349604,2350108,2350312
54,forth,65,sozial,IAT_red4.bmp,red,ending_scream,scream,ending,m,positive,positive,ES_red,1,m,556,2351961,2352466,2352670
54,forth,66,streng,IAT_purple4.bmp,purple,starting_melody,melody,starting,c,negative,positive,ES_red,1,c,864,2354301,2354805,2355009
54,forth,67,gesund,IAT_red3.bmp,red,ending_scream,scream,ending,m,positive,positive,ES_red,1,m,946,2356949,2357453,2357657
54,forth,68,sonnig,IAT_green2.bmp,green,ending_melody,melody,ending,m,positive,negative,ES_red,1,m,598,2359679,2360183,2360387
54,forth,69,feige,IAT_green4.bmp,green,ending_melody,melody,ending,c,negative,negative,ES_red,0,None,1500,2362061,2362565,2362769
54,forth,70,geizig,IAT_yellow4.bmp,yellow,starting_scream,scream,starting,c,negative,negative,ES_red,1,c,458,2366345,2366849,2367053
54,forth,71,munter,IAT_purple1.bmp,purple,starting_melody,melody,starting,m,positive,positive,ES_red,1,m,519,2368586,2369090,2369294
54,forth,72,krank,IAT_red4.bmp,red,ending_scream,scream,ending,c,negative,positive,ES_red,1,c,478,2370888,2371393,2371597
54,forth,73,ehrlich,IAT_green1.bmp,green,ending_melody,melody,ending,m,positive,negative,ES_red,1,m,607,2373151,2373655,2373859
54,forth,74,gesund,IAT_purple2.bmp,purple,starting_melody,melody,starting,m,positive,positive,ES_red,1,m,539,2375541,2376046,2376250
54,forth,75,kaputt,IAT_red4.bmp,red,ending_scream,scream,ending,c,negative,positive,ES_red,1,c,513,2377864,2378368,2378572
54,forth,76,feige,IAT_green1.bmp,green,ending_melody,melody,ending,c,negative,negative,ES_red,1,c,732,2380161,2380665,2380869
54,forth,77,falsch,IAT_green4.bmp,green,ending_melody,melody,ending,c,negative,negative,ES_red,1,c,651,2382676,2383180,2383384
54,forth,78,lustig,IAT_yellow4.bmp,yellow,starting_scream,scream,starting,m,positive,negative,ES_red,1,m,611,2385111,2385616,2385820
54,forth,79,teuer,IAT_red4.bmp,red,ending_scream,scream,ending,c,negative,positive,ES_red,1,c,629,2387506,2388010,2388215
54,forth,80,heiter,IAT_red1.bmp,red,ending_scream,scream,ending,m,positive,positive,ES_red,0,c,890,2389921,2390425,2390629
54,forth,81,einsam,IAT_green4.bmp,green,ending_melody,melody,ending,c,negative,negative,ES_red,1,c,675,2393094,2393598,2393802
54,forth,82,gerecht,IAT_yellow3.bmp,yellow,starting_scream,scream,starting,m,positive,negative,ES_red,1,m,890,2395552,2396056,2396260
54,forth,83,brutal,IAT_red1.bmp,red,ending_scream,scream,ending,c,negative,positive,ES_red,1,c,514,2398225,2398730,2398934
54,forth,84,munter,IAT_yellow2.bmp,yellow,starting_scream,scream,starting,m,positive,negative,ES_red,1,m,563,2400524,2401028,2401232
54,forth,85,sonnig,IAT_yellow2.bmp,yellow,starting_scream,scream,starting,m,positive,negative,ES_red,0,None,1500,2402872,2403376,2403580
54,forth,86,geizig,IAT_red3.bmp,red,ending_scream,scream,ending,c,negative,positive,ES_red,1,c,985,2407156,2407660,2407864
54,forth,87,gerecht,IAT_green3.bmp,green,ending_melody,melody,ending,m,positive,negative,ES_red,1,m,572,2409924,2410428,2410632
54,forth,88,lustig,IAT_purple4.bmp,purple,starting_melody,melody,starting,m,positive,positive,ES_red,1,m,495,2412280,2412784,2412988
54,forth,89,human,IAT_green4.bmp,green,ending_melody,melody,ending,m,positive,negative,ES_red,1,m,661,2414559,2415063,2415267
54,forth,90,sanft,IAT_purple1.bmp,purple,starting_melody,melody,starting,m,positive,positive,ES_red,1,m,478,2417004,2417508,2417712
54,forth,91,gierig,IAT_red2.bmp,red,ending_scream,scream,ending,c,negative,positive,ES_red,1,c,386,2419265,2419770,2419974
54,forth,92,einsam,IAT_purple2.bmp,purple,starting_melody,melody,starting,c,negative,positive,ES_red,0,m,481,2421435,2421940,2422145
54,forth,93,gesund,IAT_purple3.bmp,purple,starting_melody,melody,starting,m,positive,positive,ES_red,1,m,812,2424200,2424705,2424909
54,forth,94,witzig,IAT_yellow3.bmp,yellow,starting_scream,scream,starting,m,positive,negative,ES_red,1,m,536,2426796,2427300,2427504
54,forth,95,sozial,IAT_purple2.bmp,purple,starting_melody,melody,starting,m,positive,positive,ES_red,1,m,517,2429115,2429619,2429823
