subject_nr,block,trialnr,trial_target,trial_prime,prime_color,prime_role,prime_us,prime_relation,correct_response,target_valence,prime_valence,color_counter,correct_first_response,response_first_response,response_time_first_response,fixation_show,prime_show,target_show
93,first,0,ehrlich,IAT_red4.bmp,red,ending_melody,melody,ending,m,positive,negative,ES_green,1,m,582,1492923,1493428,1493632
93,first,1,lästig,IAT_yellow4.bmp,yellow,starting_melody,melody,starting,c,negative,positive,ES_green,1,c,566,1495292,1495796,1496000
93,first,2,heiter,IAT_yellow3.bmp,yellow,starting_melody,melody,starting,m,positive,positive,ES_green,1,m,549,1497639,1498144,1498348
93,first,3,human,IAT_purple4.bmp,purple,starting_scream,scream,starting,m,positive,negative,ES_green,1,m,480,1499969,1500474,1500678
93,first,4,kaputt,IAT_green1.bmp,green,ending_scream,scream,ending,c,negative,positive,ES_green,1,c,468,1502231,1502735,1502939
93,first,5,falsch,IAT_purple2.bmp,purple,starting_scream,scream,starting,c,negative,negative,ES_green,1,c,502,1504480,1504984,1505188
93,first,6,morsch,IAT_purple4.bmp,purple,starting_scream,scream,starting,c,negative,negative,ES_green,1,c,982,1506763,1507267,1507471
93,first,7,teuer,IAT_red4.bmp,red,ending_melody,melody,ending,c,negative,negative,ES_green,1,c,667,1509525,1510030,1510234
93,first,8,brutal,IAT_green2.bmp,green,ending_scream,scream,ending,c,negative,positive,ES_green,1,c,579,1511974,1512478,1512682
93,first,9,gerecht,IAT_green1.bmp,green,ending_scream,scream,ending,m,positive,positive,ES_green,1,m,784,1514333,1514838,1515042
93,first,10,krank,IAT_red2.bmp,red,ending_melody,melody,ending,c,negative,negative,ES_green,1,c,479,1516898,1517403,1517607
93,first,11,einsam,IAT_yellow4.bmp,yellow,starting_melody,melody,starting,c,negative,positive,ES_green,1,c,633,1519159,1519663,1519867
93,first,12,falsch,IAT_yellow2.bmp,yellow,starting_melody,melody,starting,c,negative,positive,ES_green,1,c,481,1521573,1522077,1522281
93,first,13,lustig,IAT_green3.bmp,green,ending_scream,scream,ending,m,positive,positive,ES_green,1,m,471,1523835,1524339,1524543
93,first,14,kaputt,IAT_red4.bmp,red,ending_melody,melody,ending,c,negative,negative,ES_green,1,c,476,1526087,1526591,1526795
93,first,15,witzig,IAT_purple3.bmp,purple,starting_scream,scream,starting,m,positive,negative,ES_green,1,m,547,1528343,1528847,1529051
93,first,16,gerecht,IAT_red1.bmp,red,ending_melody,melody,ending,m,positive,negative,ES_green,1,m,691,1530671,1531175,1531379
93,first,17,sanft,IAT_yellow1.bmp,yellow,starting_melody,melody,starting,m,positive,positive,ES_green,1,m,514,1533143,1533648,1533852
93,first,18,munter,IAT_green3.bmp,green,ending_scream,scream,ending,m,positive,positive,ES_green,1,m,526,1535439,1535943,1536147
93,first,19,einsam,IAT_purple2.bmp,purple,starting_scream,scream,starting,c,negative,negative,ES_green,1,c,617,1537745,1538250,1538454
93,first,20,gesund,IAT_red3.bmp,red,ending_melody,melody,ending,m,positive,negative,ES_green,1,m,521,1540144,1540648,1540852
93,first,21,heiter,IAT_purple1.bmp,purple,starting_scream,scream,starting,m,positive,negative,ES_green,1,m,501,1542446,1542951,1543155
93,first,22,feige,IAT_red1.bmp,red,ending_melody,melody,ending,c,negative,negative,ES_green,1,c,554,1544728,1545233,1545437
93,first,23,teuer,IAT_yellow2.bmp,yellow,starting_melody,melody,starting,c,negative,positive,ES_green,1,c,949,1547065,1547569,1547773
93,first,24,gierig,IAT_yellow1.bmp,yellow,starting_melody,melody,starting,c,negative,positive,ES_green,1,c,894,1549796,1550300,1550504
93,first,25,human,IAT_red4.bmp,red,ending_melody,melody,ending,m,positive,negative,ES_green,1,m,571,1552471,1552975,1553179
93,first,26,heiter,IAT_purple1.bmp,purple,starting_scream,scream,starting,m,positive,negative,ES_green,1,m,472,1554824,1555328,1555532
93,first,27,falsch,IAT_red4.bmp,red,ending_melody,melody,ending,c,negative,negative,ES_green,1,c,538,1557077,1557581,1557785
93,first,28,sozial,IAT_purple1.bmp,purple,starting_scream,scream,starting,m,positive,negative,ES_green,1,m,537,1559396,1559900,1560104
93,first,29,streng,IAT_yellow2.bmp,yellow,starting_melody,melody,starting,c,negative,positive,ES_green,1,c,531,1561715,1562219,1562423
93,first,30,brutal,IAT_yellow3.bmp,yellow,starting_melody,melody,starting,c,negative,positive,ES_green,1,c,482,1564027,1564531,1564735
93,first,31,witzig,IAT_yellow4.bmp,yellow,starting_melody,melody,starting,m,positive,positive,ES_green,1,m,637,1566290,1566795,1566999
93,first,32,sanft,IAT_green4.bmp,green,ending_scream,scream,ending,m,positive,positive,ES_green,1,m,712,1568708,1569213,1569417
93,first,33,sonnig,IAT_purple4.bmp,purple,starting_scream,scream,starting,m,positive,negative,ES_green,1,m,579,1571202,1571707,1571911
93,first,34,ehrlich,IAT_yellow2.bmp,yellow,starting_melody,melody,starting,m,positive,positive,ES_green,1,m,525,1573564,1574069,1574273
93,first,35,feige,IAT_purple1.bmp,purple,starting_scream,scream,starting,c,negative,negative,ES_green,1,c,539,1575871,1576376,1576580
93,first,36,munter,IAT_red3.bmp,red,ending_melody,melody,ending,m,positive,negative,ES_green,1,m,500,1578191,1578696,1578900
93,first,37,human,IAT_green1.bmp,green,ending_scream,scream,ending,m,positive,positive,ES_green,1,m,503,1580473,1580978,1581182
93,first,38,lustig,IAT_red2.bmp,red,ending_melody,melody,ending,m,positive,negative,ES_green,1,m,510,1582759,1583263,1583467
93,first,39,ehrlich,IAT_yellow1.bmp,yellow,starting_melody,melody,starting,m,positive,positive,ES_green,1,m,443,1585051,1585555,1585759
93,first,40,schön,IAT_yellow2.bmp,yellow,starting_melody,melody,starting,m,positive,positive,ES_green,1,m,406,1587276,1587780,1587984
93,first,41,lustig,IAT_red2.bmp,red,ending_melody,melody,ending,m,positive,negative,ES_green,1,m,483,1589466,1589970,1590174
93,first,42,sonnig,IAT_red3.bmp,red,ending_melody,melody,ending,m,positive,negative,ES_green,1,m,456,1591730,1592234,1592438
93,first,43,witzig,IAT_red3.bmp,red,ending_melody,melody,ending,m,positive,negative,ES_green,1,m,437,1593966,1594471,1594675
93,first,44,sozial,IAT_purple2.bmp,purple,starting_scream,scream,starting,m,positive,negative,ES_green,1,m,489,1596186,1596690,1596894
93,first,45,lästig,IAT_purple3.bmp,purple,starting_scream,scream,starting,c,negative,negative,ES_green,1,c,663,1598456,1598961,1599165
93,first,46,gesund,IAT_red1.bmp,red,ending_melody,melody,ending,m,positive,negative,ES_green,1,m,558,1600901,1601406,1601610
93,first,47,streng,IAT_yellow3.bmp,yellow,starting_melody,melody,starting,c,negative,positive,ES_green,1,c,546,1603242,1603746,1603950
93,first,48,gerecht,IAT_green1.bmp,green,ending_scream,scream,ending,m,positive,positive,ES_green,1,m,485,1605569,1606073,1606277
93,first,49,sozial,IAT_purple1.bmp,purple,starting_scream,scream,starting,m,positive,negative,ES_green,1,m,598,1607835,1608339,1608543
93,first,50,gesund,IAT_purple3.bmp,purple,starting_scream,scream,starting,m,positive,negative,ES_green,1,m,582,1610215,1610719,1610923
93,first,51,lästig,IAT_purple3.bmp,purple,starting_scream,scream,starting,c,negative,negative,ES_green,1,c,654,1612579,1613083,1613287
93,first,52,munter,IAT_red1.bmp,red,ending_melody,melody,ending,m,positive,negative,ES_green,1,m,445,1615015,1615519,1615723
93,first,53,brutal,IAT_purple1.bmp,purple,starting_scream,scream,starting,c,negative,negative,ES_green,1,c,873,1617241,1617745,1617949
93,first,54,geizig,IAT_green2.bmp,green,ending_scream,scream,ending,c,negative,positive,ES_green,0,m,536,1619895,1620399,1620603
93,first,55,morsch,IAT_green4.bmp,green,ending_scream,scream,ending,c,negative,positive,ES_green,1,c,1335,1622712,1623216,1623420
93,first,56,sonnig,IAT_purple3.bmp,purple,starting_scream,scream,starting,m,positive,negative,ES_green,1,m,488,1625828,1626333,1626537
93,first,57,streng,IAT_red2.bmp,red,ending_melody,melody,ending,c,negative,negative,ES_green,1,c,518,1628099,1628603,1628807
93,first,58,krank,IAT_purple4.bmp,purple,starting_scream,scream,starting,c,negative,negative,ES_green,1,c,528,1630399,1630903,1631107
93,first,59,geizig,IAT_yellow4.bmp,yellow,starting_melody,melody,starting,c,negative,positive,ES_green,1,c,710,1632709,1633213,1633417
93,first,60,morsch,IAT_green2.bmp,green,ending_scream,scream,ending,c,negative,positive,ES_green,1,c,668,1635200,1635704,1635908
93,first,61,gesund,IAT_green2.bmp,green,ending_scream,scream,ending,m,positive,positive,ES_green,1,m,514,1637649,1638153,1638357
93,first,62,schön,IAT_green1.bmp,green,ending_scream,scream,ending,m,positive,positive,ES_green,1,m,478,1639945,1640449,1640653
93,first,63,gierig,IAT_red1.bmp,red,ending_melody,melody,ending,c,negative,negative,ES_green,1,c,471,1642204,1642708,1642912
93,first,64,streng,IAT_red3.bmp,red,ending_melody,melody,ending,c,negative,negative,ES_green,1,c,514,1644456,1644960,1645164
93,first,65,witzig,IAT_green2.bmp,green,ending_scream,scream,ending,m,positive,positive,ES_green,1,m,526,1646751,1647256,1647460
93,first,66,einsam,IAT_green3.bmp,green,ending_scream,scream,ending,c,negative,positive,ES_green,1,c,751,1649060,1649564,1649768
93,first,67,schön,IAT_red1.bmp,red,ending_melody,melody,ending,m,positive,negative,ES_green,0,c,740,1651593,1652097,1652301
93,first,68,sonnig,IAT_yellow3.bmp,yellow,starting_melody,melody,starting,m,positive,positive,ES_green,1,m,459,1654615,1655120,1655324
93,first,69,geizig,IAT_purple2.bmp,purple,starting_scream,scream,starting,c,negative,negative,ES_green,1,c,753,1656856,1657361,1657565
93,first,70,gierig,IAT_yellow4.bmp,yellow,starting_melody,melody,starting,c,negative,positive,ES_green,1,c,658,1659391,1659895,1660099
93,first,71,feige,IAT_green4.bmp,green,ending_scream,scream,ending,c,negative,positive,ES_green,1,c,584,1661831,1662335,1662539
93,first,72,gerecht,IAT_yellow1.bmp,yellow,starting_melody,melody,starting,m,positive,positive,ES_green,1,m,560,1664196,1664700,1664904
93,first,73,geizig,IAT_purple4.bmp,purple,starting_scream,scream,starting,c,negative,negative,ES_green,1,c,523,1666537,1667041,1667245
93,first,74,krank,IAT_yellow2.bmp,yellow,starting_melody,melody,starting,c,negative,positive,ES_green,1,c,488,1668842,1669347,1669551
93,first,75,munter,IAT_green3.bmp,green,ending_scream,scream,ending,m,positive,positive,ES_green,1,m,697,1671113,1671617,1671821
93,first,76,kaputt,IAT_red2.bmp,red,ending_melody,melody,ending,c,negative,negative,ES_green,1,c,437,1673592,1674096,1674300
93,first,77,brutal,IAT_purple2.bmp,purple,starting_scream,scream,starting,c,negative,negative,ES_green,1,c,518,1675811,1676315,1676519
93,first,78,krank,IAT_green3.bmp,green,ending_scream,scream,ending,c,negative,positive,ES_green,1,c,519,1678112,1678617,1678821
93,first,79,sanft,IAT_purple3.bmp,purple,starting_scream,scream,starting,m,positive,negative,ES_green,1,m,933,1680414,1680918,1681122
93,first,80,teuer,IAT_green4.bmp,green,ending_scream,scream,ending,c,negative,positive,ES_green,1,c,567,1683129,1683633,1683837
93,first,81,heiter,IAT_yellow1.bmp,yellow,starting_melody,melody,starting,m,positive,positive,ES_green,1,m,520,1685477,1685982,1686186
93,first,82,human,IAT_yellow3.bmp,yellow,starting_melody,melody,starting,m,positive,positive,ES_green,1,m,471,1687780,1688284,1688488
93,first,83,sozial,IAT_green3.bmp,green,ending_scream,scream,ending,m,positive,positive,ES_green,1,m,1143,1690033,1690537,1690741
93,first,84,lästig,IAT_green4.bmp,green,ending_scream,scream,ending,c,negative,positive,ES_green,1,c,626,1692958,1693462,1693666
93,first,85,lustig,IAT_yellow3.bmp,yellow,starting_melody,melody,starting,m,positive,positive,ES_green,1,m,1132,1695366,1695870,1696074
93,first,86,schön,IAT_yellow4.bmp,yellow,starting_melody,melody,starting,m,positive,positive,ES_green,1,m,401,1698280,1698784,1698988
93,first,87,kaputt,IAT_red4.bmp,red,ending_melody,melody,ending,c,negative,negative,ES_green,1,c,459,1700463,1700968,1701172
93,first,88,sanft,IAT_green4.bmp,green,ending_scream,scream,ending,m,positive,positive,ES_green,1,m,462,1702705,1703209,1703413
93,first,89,ehrlich,IAT_purple2.bmp,purple,starting_scream,scream,starting,m,positive,negative,ES_green,1,m,563,1704947,1705452,1705656
93,first,90,einsam,IAT_red2.bmp,red,ending_melody,melody,ending,c,negative,negative,ES_green,1,c,777,1707293,1707797,1708001
93,first,91,falsch,IAT_red3.bmp,red,ending_melody,melody,ending,c,negative,negative,ES_green,1,c,642,1709852,1710357,1710561
93,first,92,teuer,IAT_green1.bmp,green,ending_scream,scream,ending,c,negative,positive,ES_green,1,c,766,1712276,1712780,1712984
93,first,93,morsch,IAT_green2.bmp,green,ending_scream,scream,ending,c,negative,positive,ES_green,1,c,656,1714824,1715328,1715532
93,first,94,gierig,IAT_purple4.bmp,purple,starting_scream,scream,starting,c,negative,negative,ES_green,1,c,675,1717261,1717766,1717970
93,first,95,feige,IAT_yellow1.bmp,yellow,starting_melody,melody,starting,c,negative,positive,ES_green,1,c,657,1719719,1720224,1720428
93,second,0,witzig,IAT_green3.bmp,green,ending_scream,scream,ending,m,positive,positive,ES_green,1,m,685,1740699,1741203,1741407
93,second,1,heiter,IAT_yellow2.bmp,yellow,starting_melody,melody,starting,m,positive,positive,ES_green,1,m,494,1743167,1743671,1743875
93,second,2,sanft,IAT_purple2.bmp,purple,starting_scream,scream,starting,m,positive,negative,ES_green,1,m,493,1745442,1745946,1746150
93,second,3,schön,IAT_red2.bmp,red,ending_melody,melody,ending,m,positive,negative,ES_green,1,m,609,1747716,1748220,1748424
93,second,4,sanft,IAT_purple1.bmp,purple,starting_scream,scream,starting,m,positive,negative,ES_green,1,m,443,1750107,1750611,1750815
93,second,5,geizig,IAT_green1.bmp,green,ending_scream,scream,ending,c,negative,positive,ES_green,1,c,779,1752331,1752835,1753039
93,second,6,ehrlich,IAT_purple3.bmp,purple,starting_scream,scream,starting,m,positive,negative,ES_green,1,m,1308,1754891,1755395,1755599
93,second,7,brutal,IAT_red2.bmp,red,ending_melody,melody,ending,c,negative,negative,ES_green,1,c,558,1757980,1758485,1758689
93,second,8,falsch,IAT_red4.bmp,red,ending_melody,melody,ending,c,negative,negative,ES_green,1,c,568,1760320,1760824,1761028
93,second,9,sonnig,IAT_green1.bmp,green,ending_scream,scream,ending,m,positive,positive,ES_green,1,m,500,1762669,1763174,1763378
93,second,10,feige,IAT_red4.bmp,red,ending_melody,melody,ending,c,negative,negative,ES_green,1,c,431,1764952,1765456,1765660
93,second,11,streng,IAT_yellow3.bmp,yellow,starting_melody,melody,starting,c,negative,positive,ES_green,1,c,625,1767164,1767668,1767872
93,second,12,gesund,IAT_yellow1.bmp,yellow,starting_melody,melody,starting,m,positive,positive,ES_green,1,m,767,1769571,1770076,1770280
93,second,13,ehrlich,IAT_purple1.bmp,purple,starting_scream,scream,starting,m,positive,negative,ES_green,1,m,769,1772119,1772624,1772828
93,second,14,gierig,IAT_purple4.bmp,purple,starting_scream,scream,starting,c,negative,negative,ES_green,1,c,597,1774670,1775174,1775378
93,second,15,sanft,IAT_yellow1.bmp,yellow,starting_melody,melody,starting,m,positive,positive,ES_green,1,m,452,1777049,1777554,1777759
93,second,16,morsch,IAT_purple2.bmp,purple,starting_scream,scream,starting,c,negative,negative,ES_green,1,c,531,1779285,1779789,1779993
93,second,17,gerecht,IAT_yellow4.bmp,yellow,starting_melody,melody,starting,m,positive,positive,ES_green,1,m,583,1781598,1782102,1782306
93,second,18,einsam,IAT_green2.bmp,green,ending_scream,scream,ending,c,negative,positive,ES_green,1,c,616,1783962,1784467,1784671
93,second,19,geizig,IAT_purple1.bmp,purple,starting_scream,scream,starting,c,negative,negative,ES_green,1,c,966,1786362,1786866,1787070
93,second,20,human,IAT_green1.bmp,green,ending_scream,scream,ending,m,positive,positive,ES_green,1,m,453,1789109,1789613,1789817
93,second,21,sanft,IAT_red2.bmp,red,ending_melody,melody,ending,m,positive,negative,ES_green,1,m,548,1791344,1791848,1792052
93,second,22,lästig,IAT_green3.bmp,green,ending_scream,scream,ending,c,negative,positive,ES_green,1,c,844,1793675,1794179,1794383
93,second,23,gesund,IAT_red4.bmp,red,ending_melody,melody,ending,m,positive,negative,ES_green,1,m,547,1796301,1796805,1797009
93,second,24,einsam,IAT_green4.bmp,green,ending_scream,scream,ending,c,negative,positive,ES_green,1,c,741,1798629,1799133,1799337
93,second,25,lustig,IAT_yellow3.bmp,yellow,starting_melody,melody,starting,m,positive,positive,ES_green,1,m,514,1801152,1801656,1801860
93,second,26,sozial,IAT_red1.bmp,red,ending_melody,melody,ending,m,positive,negative,ES_green,1,m,538,1803446,1803950,1804154
93,second,27,gierig,IAT_red1.bmp,red,ending_melody,melody,ending,c,negative,negative,ES_green,1,c,464,1805765,1806269,1806473
93,second,28,morsch,IAT_yellow1.bmp,yellow,starting_melody,melody,starting,c,negative,positive,ES_green,1,c,549,1808011,1808515,1808719
93,second,29,teuer,IAT_yellow4.bmp,yellow,starting_melody,melody,starting,c,negative,positive,ES_green,0,m,392,1810342,1810846,1811050
93,second,30,sonnig,IAT_green2.bmp,green,ending_scream,scream,ending,m,positive,positive,ES_green,1,m,633,1813017,1813521,1813725
93,second,31,lästig,IAT_purple4.bmp,purple,starting_scream,scream,starting,c,negative,negative,ES_green,1,c,970,1815431,1815935,1816139
93,second,32,streng,IAT_yellow2.bmp,yellow,starting_melody,melody,starting,c,negative,positive,ES_green,1,c,645,1818183,1818687,1818891
93,second,33,falsch,IAT_red3.bmp,red,ending_melody,melody,ending,c,negative,negative,ES_green,1,c,535,1820609,1821114,1821318
93,second,34,human,IAT_yellow3.bmp,yellow,starting_melody,melody,starting,m,positive,positive,ES_green,1,m,461,1822926,1823431,1823635
93,second,35,streng,IAT_green2.bmp,green,ending_scream,scream,ending,c,negative,positive,ES_green,1,c,631,1825170,1825674,1825878
93,second,36,lustig,IAT_yellow1.bmp,yellow,starting_melody,melody,starting,m,positive,positive,ES_green,1,m,481,1827584,1828088,1828292
93,second,37,gerecht,IAT_green3.bmp,green,ending_scream,scream,ending,m,positive,positive,ES_green,1,m,611,1829847,1830351,1830555
93,second,38,feige,IAT_purple4.bmp,purple,starting_scream,scream,starting,c,negative,negative,ES_green,1,c,498,1832239,1832744,1832948
93,second,39,lästig,IAT_green4.bmp,green,ending_scream,scream,ending,c,negative,positive,ES_green,1,c,682,1834520,1835024,1835228
93,second,40,feige,IAT_purple1.bmp,purple,starting_scream,scream,starting,c,negative,negative,ES_green,1,c,577,1836984,1837489,1837693
93,second,41,witzig,IAT_green4.bmp,green,ending_scream,scream,ending,m,positive,positive,ES_green,1,m,489,1839344,1839848,1840052
93,second,42,munter,IAT_yellow2.bmp,yellow,starting_melody,melody,starting,m,positive,positive,ES_green,1,m,567,1841615,1842119,1842323
93,second,43,schön,IAT_purple3.bmp,purple,starting_scream,scream,starting,m,positive,negative,ES_green,1,m,565,1843963,1844468,1844672
93,second,44,heiter,IAT_yellow4.bmp,yellow,starting_melody,melody,starting,m,positive,positive,ES_green,1,m,482,1846310,1846814,1847018
93,second,45,munter,IAT_green3.bmp,green,ending_scream,scream,ending,m,positive,positive,ES_green,1,m,466,1848575,1849080,1849284
93,second,46,kaputt,IAT_purple2.bmp,purple,starting_scream,scream,starting,c,negative,negative,ES_green,1,c,492,1850824,1851329,1851533
93,second,47,schön,IAT_red1.bmp,red,ending_melody,melody,ending,m,positive,negative,ES_green,1,m,538,1853099,1853603,1853807
93,second,48,feige,IAT_purple2.bmp,purple,starting_scream,scream,starting,c,negative,negative,ES_green,1,c,1399,1855418,1855922,1856126
93,second,49,kaputt,IAT_red4.bmp,red,ending_melody,melody,ending,c,negative,negative,ES_green,1,c,492,1858599,1859103,1859307
93,second,50,ehrlich,IAT_green2.bmp,green,ending_scream,scream,ending,m,positive,positive,ES_green,1,m,671,1860872,1861376,1861580
93,second,51,morsch,IAT_purple3.bmp,purple,starting_scream,scream,starting,c,negative,negative,ES_green,1,c,619,1863325,1863829,1864033
93,second,52,falsch,IAT_red2.bmp,red,ending_melody,melody,ending,c,negative,negative,ES_green,1,c,539,1865726,1866230,1866434
93,second,53,witzig,IAT_purple1.bmp,purple,starting_scream,scream,starting,m,positive,negative,ES_green,1,m,499,1868047,1868551,1868755
93,second,54,sonnig,IAT_purple2.bmp,purple,starting_scream,scream,starting,m,positive,negative,ES_green,1,m,454,1870328,1870832,1871036
93,second,55,krank,IAT_red2.bmp,red,ending_melody,melody,ending,c,negative,negative,ES_green,1,c,465,1872564,1873069,1873273
93,second,56,heiter,IAT_red1.bmp,red,ending_melody,melody,ending,m,positive,negative,ES_green,1,m,642,1874812,1875316,1875520
93,second,57,human,IAT_green1.bmp,green,ending_scream,scream,ending,m,positive,positive,ES_green,1,m,537,1877236,1877740,1877944
93,second,58,falsch,IAT_yellow2.bmp,yellow,starting_melody,melody,starting,c,negative,positive,ES_green,1,c,492,1879556,1880060,1880264
93,second,59,gierig,IAT_red3.bmp,red,ending_melody,melody,ending,c,negative,negative,ES_green,1,c,540,1881830,1882334,1882538
93,second,60,krank,IAT_green4.bmp,green,ending_scream,scream,ending,c,negative,positive,ES_green,1,c,515,1884152,1884656,1884860
93,second,61,brutal,IAT_red2.bmp,red,ending_melody,melody,ending,c,negative,negative,ES_green,1,c,519,1886449,1886953,1887157
93,second,62,gerecht,IAT_purple4.bmp,purple,starting_scream,scream,starting,m,positive,negative,ES_green,1,m,626,1888750,1889254,1889458
93,second,63,geizig,IAT_red4.bmp,red,ending_melody,melody,ending,c,negative,negative,ES_green,1,c,728,1891158,1891663,1891867
93,second,64,heiter,IAT_red3.bmp,red,ending_melody,melody,ending,m,positive,negative,ES_green,1,m,596,1893671,1894175,1894379
93,second,65,teuer,IAT_yellow2.bmp,yellow,starting_melody,melody,starting,c,negative,positive,ES_green,1,c,569,1896049,1896553,1896757
93,second,66,brutal,IAT_green2.bmp,green,ending_scream,scream,ending,c,negative,positive,ES_green,1,c,621,1898399,1898903,1899107
93,second,67,lästig,IAT_purple2.bmp,purple,starting_scream,scream,starting,c,negative,negative,ES_green,1,c,541,1900804,1901309,1901513
93,second,68,gesund,IAT_purple3.bmp,purple,starting_scream,scream,starting,m,positive,negative,ES_green,1,m,483,1903127,1903632,1903836
93,second,69,gierig,IAT_yellow1.bmp,yellow,starting_melody,melody,starting,c,negative,positive,ES_green,1,c,596,1905393,1905897,1906101
93,second,70,lustig,IAT_green3.bmp,green,ending_scream,scream,ending,m,positive,positive,ES_green,1,m,518,1907771,1908275,1908479
93,second,71,sonnig,IAT_red1.bmp,red,ending_melody,melody,ending,m,positive,negative,ES_green,1,m,492,1910071,1910576,1910780
93,second,72,einsam,IAT_green2.bmp,green,ending_scream,scream,ending,c,negative,positive,ES_green,1,c,607,1912345,1912849,1913053
93,second,73,human,IAT_green4.bmp,green,ending_scream,scream,ending,m,positive,positive,ES_green,1,m,500,1914735,1915240,1915444
93,second,74,kaputt,IAT_yellow4.bmp,yellow,starting_melody,melody,starting,c,negative,positive,ES_green,1,c,482,1917019,1917523,1917727
93,second,75,sozial,IAT_red3.bmp,red,ending_melody,melody,ending,m,positive,negative,ES_green,1,m,629,1919283,1919787,1919991
93,second,76,munter,IAT_red3.bmp,red,ending_melody,melody,ending,m,positive,negative,ES_green,1,m,600,1921695,1922199,1922403
93,second,77,lustig,IAT_red4.bmp,red,ending_melody,melody,ending,m,positive,negative,ES_green,1,m,751,1924078,1924582,1924786
93,second,78,geizig,IAT_green4.bmp,green,ending_scream,scream,ending,c,negative,positive,ES_green,1,c,459,1926610,1927115,1927319
93,second,79,teuer,IAT_purple3.bmp,purple,starting_scream,scream,starting,c,negative,negative,ES_green,1,c,567,1928853,1929357,1929561
93,second,80,krank,IAT_purple4.bmp,purple,starting_scream,scream,starting,c,negative,negative,ES_green,1,c,467,1931203,1931707,1931911
93,second,81,sozial,IAT_purple3.bmp,purple,starting_scream,scream,starting,m,positive,negative,ES_green,1,m,554,1933451,1933955,1934159
93,second,82,kaputt,IAT_green1.bmp,green,ending_scream,scream,ending,c,negative,positive,ES_green,1,c,509,1935787,1936291,1936495
93,second,83,gesund,IAT_yellow3.bmp,yellow,starting_melody,melody,starting,m,positive,positive,ES_green,1,m,540,1938079,1938583,1938787
93,second,84,teuer,IAT_red1.bmp,red,ending_melody,melody,ending,c,negative,negative,ES_green,1,c,512,1940402,1940906,1941110
93,second,85,krank,IAT_yellow4.bmp,yellow,starting_melody,melody,starting,c,negative,positive,ES_green,1,c,506,1942697,1943201,1943405
93,second,86,brutal,IAT_yellow2.bmp,yellow,starting_melody,melody,starting,c,negative,positive,ES_green,1,c,489,1944986,1945490,1945694
93,second,87,witzig,IAT_green1.bmp,green,ending_scream,scream,ending,m,positive,positive,ES_green,1,m,567,1947256,1947760,1947964
93,second,88,morsch,IAT_yellow3.bmp,yellow,starting_melody,melody,starting,c,negative,positive,ES_green,1,c,508,1949606,1950110,1950314
93,second,89,streng,IAT_green3.bmp,green,ending_scream,scream,ending,c,negative,positive,ES_green,1,c,529,1951897,1952401,1952605
93,second,90,ehrlich,IAT_yellow3.bmp,yellow,starting_melody,melody,starting,m,positive,positive,ES_green,1,m,529,1954209,1954713,1954917
93,second,91,einsam,IAT_yellow4.bmp,yellow,starting_melody,melody,starting,c,negative,positive,ES_green,1,c,667,1956521,1957025,1957229
93,second,92,sozial,IAT_yellow1.bmp,yellow,starting_melody,melody,starting,m,positive,positive,ES_green,1,m,691,1958971,1959475,1959679
93,second,93,gerecht,IAT_purple1.bmp,purple,starting_scream,scream,starting,m,positive,negative,ES_green,1,m,651,1961444,1961948,1962152
93,second,94,schön,IAT_purple4.bmp,purple,starting_scream,scream,starting,m,positive,negative,ES_green,1,m,508,1963877,1964381,1964585
93,second,95,munter,IAT_red3.bmp,red,ending_melody,melody,ending,m,positive,negative,ES_green,1,m,598,1966167,1966671,1966875
93,third,0,einsam,IAT_green1.bmp,green,ending_scream,scream,ending,c,negative,positive,ES_green,1,c,511,1994324,1994828,1995032
93,third,1,lästig,IAT_red1.bmp,red,ending_melody,melody,ending,c,negative,negative,ES_green,1,c,703,1996618,1997122,1997326
93,third,2,schön,IAT_red4.bmp,red,ending_melody,melody,ending,m,positive,negative,ES_green,1,m,501,1999101,1999606,1999810
93,third,3,human,IAT_red4.bmp,red,ending_melody,melody,ending,m,positive,negative,ES_green,1,m,475,2001385,2001889,2002093
93,third,4,streng,IAT_yellow2.bmp,yellow,starting_melody,melody,starting,c,negative,positive,ES_green,1,c,421,2003642,2004146,2004350
93,third,5,feige,IAT_red4.bmp,red,ending_melody,melody,ending,c,negative,negative,ES_green,1,c,489,2005845,2006349,2006553
93,third,6,kaputt,IAT_purple4.bmp,purple,starting_scream,scream,starting,c,negative,negative,ES_green,1,c,490,2008115,2008619,2008823
93,third,7,feige,IAT_purple3.bmp,purple,starting_scream,scream,starting,c,negative,negative,ES_green,1,c,472,2010386,2010891,2011095
93,third,8,ehrlich,IAT_purple3.bmp,purple,starting_scream,scream,starting,m,positive,negative,ES_green,1,m,494,2012640,2013144,2013348
93,third,9,geizig,IAT_purple1.bmp,purple,starting_scream,scream,starting,c,negative,negative,ES_green,1,c,557,2014915,2015420,2015624
93,third,10,teuer,IAT_yellow1.bmp,yellow,starting_melody,melody,starting,c,negative,positive,ES_green,0,m,741,2017255,2017759,2017963
93,third,11,munter,IAT_yellow1.bmp,yellow,starting_melody,melody,starting,m,positive,positive,ES_green,1,m,492,2020279,2020783,2020987
93,third,12,gerecht,IAT_yellow2.bmp,yellow,starting_melody,melody,starting,m,positive,positive,ES_green,0,c,497,2022553,2023057,2023261
93,third,13,lästig,IAT_red2.bmp,red,ending_melody,melody,ending,c,negative,negative,ES_green,0,None,1500,2025332,2025836,2026040
93,third,14,krank,IAT_green3.bmp,green,ending_scream,scream,ending,c,negative,positive,ES_green,1,c,502,2029114,2029618,2029822
93,third,15,sozial,IAT_green3.bmp,green,ending_scream,scream,ending,m,positive,positive,ES_green,1,m,524,2031397,2031902,2032106
93,third,16,geizig,IAT_green4.bmp,green,ending_scream,scream,ending,c,negative,positive,ES_green,1,c,520,2033704,2034208,2034412
93,third,17,munter,IAT_green1.bmp,green,ending_scream,scream,ending,m,positive,positive,ES_green,1,m,443,2036006,2036510,2036714
93,third,18,brutal,IAT_purple4.bmp,purple,starting_scream,scream,starting,c,negative,negative,ES_green,1,c,484,2038230,2038735,2038939
93,third,19,lustig,IAT_yellow3.bmp,yellow,starting_melody,melody,starting,m,positive,positive,ES_green,1,m,462,2040496,2041001,2041205
93,third,20,gesund,IAT_red1.bmp,red,ending_melody,melody,ending,m,positive,negative,ES_green,1,m,505,2042741,2043245,2043449
93,third,21,heiter,IAT_red3.bmp,red,ending_melody,melody,ending,m,positive,negative,ES_green,1,m,450,2045028,2045532,2045736
93,third,22,schön,IAT_green1.bmp,green,ending_scream,scream,ending,m,positive,positive,ES_green,1,m,440,2047260,2047765,2047969
93,third,23,streng,IAT_purple2.bmp,purple,starting_scream,scream,starting,c,negative,negative,ES_green,1,c,471,2049485,2049989,2050193
93,third,24,morsch,IAT_red3.bmp,red,ending_melody,melody,ending,c,negative,negative,ES_green,1,c,502,2051738,2052242,2052446
93,third,25,sanft,IAT_red1.bmp,red,ending_melody,melody,ending,m,positive,negative,ES_green,1,m,521,2054022,2054526,2054730
93,third,26,kaputt,IAT_green2.bmp,green,ending_scream,scream,ending,c,negative,positive,ES_green,1,c,484,2056327,2056831,2057035
93,third,27,einsam,IAT_yellow3.bmp,yellow,starting_melody,melody,starting,c,negative,positive,ES_green,0,m,631,2058593,2059097,2059301
93,third,28,krank,IAT_green4.bmp,green,ending_scream,scream,ending,c,negative,positive,ES_green,1,c,561,2061507,2062011,2062215
93,third,29,schön,IAT_purple3.bmp,purple,starting_scream,scream,starting,m,positive,negative,ES_green,1,m,557,2063850,2064354,2064558
93,third,30,witzig,IAT_purple4.bmp,purple,starting_scream,scream,starting,m,positive,negative,ES_green,1,m,500,2066188,2066694,2066898
93,third,31,teuer,IAT_green2.bmp,green,ending_scream,scream,ending,c,negative,positive,ES_green,1,c,530,2068471,2068976,2069180
93,third,32,heiter,IAT_yellow3.bmp,yellow,starting_melody,melody,starting,m,positive,positive,ES_green,1,m,457,2070785,2071289,2071493
93,third,33,gerecht,IAT_red3.bmp,red,ending_melody,melody,ending,m,positive,negative,ES_green,1,m,684,2073025,2073529,2073733
93,third,34,geizig,IAT_green2.bmp,green,ending_scream,scream,ending,c,negative,positive,ES_green,1,c,774,2075491,2075995,2076199
93,third,35,sonnig,IAT_green2.bmp,green,ending_scream,scream,ending,m,positive,positive,ES_green,1,m,561,2078047,2078551,2078755
93,third,36,kaputt,IAT_yellow2.bmp,yellow,starting_melody,melody,starting,c,negative,positive,ES_green,1,c,591,2080391,2080895,2081099
93,third,37,heiter,IAT_red3.bmp,red,ending_melody,melody,ending,m,positive,negative,ES_green,1,m,627,2082765,2083269,2083473
93,third,38,munter,IAT_red3.bmp,red,ending_melody,melody,ending,m,positive,negative,ES_green,1,m,536,2085175,2085679,2085883
93,third,39,witzig,IAT_red1.bmp,red,ending_melody,melody,ending,m,positive,negative,ES_green,1,m,649,2087494,2087998,2088202
93,third,40,gierig,IAT_yellow4.bmp,yellow,starting_melody,melody,starting,c,negative,positive,ES_green,1,c,784,2089926,2090430,2090634
93,third,41,falsch,IAT_green4.bmp,green,ending_scream,scream,ending,c,negative,positive,ES_green,1,c,657,2092493,2092998,2093202
93,third,42,morsch,IAT_yellow4.bmp,yellow,starting_melody,melody,starting,c,negative,positive,ES_green,1,c,566,2094933,2095437,2095641
93,third,43,gesund,IAT_red1.bmp,red,ending_melody,melody,ending,m,positive,negative,ES_green,1,m,602,2097281,2097785,2097989
93,third,44,feige,IAT_green1.bmp,green,ending_scream,scream,ending,c,negative,positive,ES_green,1,c,537,2099665,2100169,2100373
93,third,45,gierig,IAT_red2.bmp,red,ending_melody,melody,ending,c,negative,negative,ES_green,1,c,725,2101984,2102488,2102692
93,third,46,einsam,IAT_red3.bmp,red,ending_melody,melody,ending,c,negative,negative,ES_green,1,c,764,2104491,2104995,2105199
93,third,47,sanft,IAT_green2.bmp,green,ending_scream,scream,ending,m,positive,positive,ES_green,1,m,790,2107037,2107542,2107746
93,third,48,lästig,IAT_yellow2.bmp,yellow,starting_melody,melody,starting,c,negative,positive,ES_green,1,c,699,2109610,2110114,2110318
93,third,49,brutal,IAT_red1.bmp,red,ending_melody,melody,ending,c,negative,negative,ES_green,1,c,588,2112092,2112596,2112800
93,third,50,geizig,IAT_purple2.bmp,purple,starting_scream,scream,starting,c,negative,negative,ES_green,1,c,803,2114463,2114967,2115171
93,third,51,gesund,IAT_green3.bmp,green,ending_scream,scream,ending,m,positive,positive,ES_green,1,m,591,2117049,2117553,2117757
93,third,52,falsch,IAT_purple1.bmp,purple,starting_scream,scream,starting,c,negative,negative,ES_green,1,c,455,2119423,2119927,2120131
93,third,53,lustig,IAT_green4.bmp,green,ending_scream,scream,ending,m,positive,positive,ES_green,1,m,597,2121660,2122164,2122368
93,third,54,sonnig,IAT_purple2.bmp,purple,starting_scream,scream,starting,m,positive,negative,ES_green,1,m,717,2124041,2124545,2124749
93,third,55,streng,IAT_purple4.bmp,purple,starting_scream,scream,starting,c,negative,negative,ES_green,1,c,565,2126539,2127044,2127248
93,third,56,morsch,IAT_purple3.bmp,purple,starting_scream,scream,starting,c,negative,negative,ES_green,1,c,578,2128887,2129391,2129595
93,third,57,gierig,IAT_yellow2.bmp,yellow,starting_melody,melody,starting,c,negative,positive,ES_green,1,c,540,2131247,2131751,2131955
93,third,58,sozial,IAT_purple1.bmp,purple,starting_scream,scream,starting,m,positive,negative,ES_green,1,m,584,2133569,2134073,2134277
93,third,59,morsch,IAT_red2.bmp,red,ending_melody,melody,ending,c,negative,negative,ES_green,1,c,456,2135936,2136440,2136644
93,third,60,human,IAT_yellow4.bmp,yellow,starting_melody,melody,starting,m,positive,positive,ES_green,1,m,544,2138176,2138680,2138884
93,third,61,witzig,IAT_yellow3.bmp,yellow,starting_melody,melody,starting,m,positive,positive,ES_green,1,m,586,2140503,2141007,2141211
93,third,62,lästig,IAT_red2.bmp,red,ending_melody,melody,ending,c,negative,negative,ES_green,1,c,591,2142871,2143375,2143579
93,third,63,ehrlich,IAT_green1.bmp,green,ending_scream,scream,ending,m,positive,positive,ES_green,1,m,550,2145245,2145750,2145954
93,third,64,brutal,IAT_green2.bmp,green,ending_scream,scream,ending,c,negative,positive,ES_green,1,c,478,2147577,2148081,2148285
93,third,65,teuer,IAT_purple4.bmp,purple,starting_scream,scream,starting,c,negative,negative,ES_green,1,c,616,2149836,2150341,2150545
93,third,66,sonnig,IAT_red2.bmp,red,ending_melody,melody,ending,m,positive,negative,ES_green,1,m,486,2152236,2152740,2152944
93,third,67,falsch,IAT_purple2.bmp,purple,starting_scream,scream,starting,c,negative,negative,ES_green,1,c,489,2154506,2155010,2155214
93,third,68,schön,IAT_purple1.bmp,purple,starting_scream,scream,starting,m,positive,negative,ES_green,1,m,471,2156777,2157281,2157485
93,third,69,munter,IAT_purple4.bmp,purple,starting_scream,scream,starting,m,positive,negative,ES_green,1,m,565,2159033,2159537,2159741
93,third,70,gesund,IAT_yellow2.bmp,yellow,starting_melody,melody,starting,m,positive,positive,ES_green,1,m,460,2161381,2161885,2162089
93,third,71,feige,IAT_red4.bmp,red,ending_melody,melody,ending,c,negative,negative,ES_green,1,c,443,2163623,2164127,2164331
93,third,72,krank,IAT_purple2.bmp,purple,starting_scream,scream,starting,c,negative,negative,ES_green,1,c,447,2165849,2166354,2166558
93,third,73,brutal,IAT_red4.bmp,red,ending_melody,melody,ending,c,negative,negative,ES_green,1,c,514,2168079,2168583,2168787
93,third,74,streng,IAT_red4.bmp,red,ending_melody,melody,ending,c,negative,negative,ES_green,1,c,510,2170375,2170879,2171083
93,third,75,sanft,IAT_yellow3.bmp,yellow,starting_melody,melody,starting,m,positive,positive,ES_green,1,m,613,2172668,2173173,2173377
93,third,76,teuer,IAT_yellow3.bmp,yellow,starting_melody,melody,starting,c,negative,positive,ES_green,1,c,489,2175064,2175568,2175772
93,third,77,witzig,IAT_green4.bmp,green,ending_scream,scream,ending,m,positive,positive,ES_green,1,m,498,2177336,2177840,2178044
93,third,78,gerecht,IAT_purple3.bmp,purple,starting_scream,scream,starting,m,positive,negative,ES_green,1,m,672,2179616,2180120,2180324
93,third,79,heiter,IAT_purple2.bmp,purple,starting_scream,scream,starting,m,positive,negative,ES_green,1,m,519,2182073,2182577,2182781
93,third,80,kaputt,IAT_yellow1.bmp,yellow,starting_melody,melody,starting,c,negative,positive,ES_green,1,c,502,2184375,2184880,2185084
93,third,81,sozial,IAT_yellow1.bmp,yellow,starting_melody,melody,starting,m,positive,positive,ES_green,1,m,474,2186662,2187166,2187370
93,third,82,human,IAT_purple1.bmp,purple,starting_scream,scream,starting,m,positive,negative,ES_green,1,m,492,2188919,2189424,2189628
93,third,83,lustig,IAT_yellow1.bmp,yellow,starting_melody,melody,starting,m,positive,positive,ES_green,1,m,465,2191195,2191699,2191903
93,third,84,ehrlich,IAT_green1.bmp,green,ending_scream,scream,ending,m,positive,positive,ES_green,1,m,472,2193443,2193947,2194151
93,third,85,gierig,IAT_yellow4.bmp,yellow,starting_melody,melody,starting,c,negative,positive,ES_green,1,c,556,2195698,2196203,2196407
93,third,86,sonnig,IAT_green3.bmp,green,ending_scream,scream,ending,m,positive,positive,ES_green,1,m,559,2198038,2198542,2198746
93,third,87,falsch,IAT_green3.bmp,green,ending_scream,scream,ending,c,negative,positive,ES_green,1,c,471,2200379,2200883,2201087
93,third,88,einsam,IAT_yellow4.bmp,yellow,starting_melody,melody,starting,c,negative,positive,ES_green,1,c,615,2202634,2203138,2203342
93,third,89,sanft,IAT_green3.bmp,green,ending_scream,scream,ending,m,positive,positive,ES_green,1,m,736,2205032,2205536,2205740
93,third,90,sozial,IAT_red2.bmp,red,ending_melody,melody,ending,m,positive,negative,ES_green,1,m,657,2207552,2208056,2208260
93,third,91,human,IAT_purple1.bmp,purple,starting_scream,scream,starting,m,positive,negative,ES_green,1,m,519,2209993,2210497,2210701
93,third,92,lustig,IAT_purple3.bmp,purple,starting_scream,scream,starting,m,positive,negative,ES_green,1,m,475,2212295,2212799,2213003
93,third,93,ehrlich,IAT_yellow1.bmp,yellow,starting_melody,melody,starting,m,positive,positive,ES_green,1,m,505,2214553,2215057,2215261
93,third,94,krank,IAT_green4.bmp,green,ending_scream,scream,ending,c,negative,positive,ES_green,1,c,509,2216841,2217346,2217550
93,third,95,gerecht,IAT_yellow4.bmp,yellow,starting_melody,melody,starting,m,positive,positive,ES_green,1,m,609,2219134,2219639,2219843
93,forth,0,ehrlich,IAT_green1.bmp,green,ending_scream,scream,ending,m,positive,positive,ES_green,1,m,880,2239069,2239573,2239777
93,forth,1,falsch,IAT_purple2.bmp,purple,starting_scream,scream,starting,c,negative,negative,ES_green,1,c,481,2241732,2242236,2242440
93,forth,2,schön,IAT_red2.bmp,red,ending_melody,melody,ending,m,positive,negative,ES_green,1,m,434,2243995,2244499,2244703
93,forth,3,teuer,IAT_green2.bmp,green,ending_scream,scream,ending,c,negative,positive,ES_green,1,c,469,2246210,2246715,2246919
93,forth,4,sozial,IAT_green1.bmp,green,ending_scream,scream,ending,m,positive,positive,ES_green,1,m,430,2248461,2248965,2249169
93,forth,5,feige,IAT_green2.bmp,green,ending_scream,scream,ending,c,negative,positive,ES_green,1,c,437,2250674,2251178,2251382
93,forth,6,einsam,IAT_purple1.bmp,purple,starting_scream,scream,starting,c,negative,negative,ES_green,1,c,522,2252893,2253397,2253601
93,forth,7,heiter,IAT_purple4.bmp,purple,starting_scream,scream,starting,m,positive,negative,ES_green,1,m,513,2255196,2255700,2255904
93,forth,8,falsch,IAT_green3.bmp,green,ending_scream,scream,ending,c,negative,positive,ES_green,1,c,590,2257492,2257996,2258200
93,forth,9,brutal,IAT_red2.bmp,red,ending_melody,melody,ending,c,negative,negative,ES_green,1,c,455,2259864,2260368,2260572
93,forth,10,morsch,IAT_red1.bmp,red,ending_melody,melody,ending,c,negative,negative,ES_green,1,c,556,2262101,2262605,2262809
93,forth,11,kaputt,IAT_green4.bmp,green,ending_scream,scream,ending,c,negative,positive,ES_green,1,c,539,2264438,2264943,2265147
93,forth,12,morsch,IAT_purple4.bmp,purple,starting_scream,scream,starting,c,negative,negative,ES_green,1,c,475,2266759,2267263,2267467
93,forth,13,sanft,IAT_green3.bmp,green,ending_scream,scream,ending,m,positive,positive,ES_green,1,m,587,2269016,2269520,2269724
93,forth,14,lustig,IAT_green1.bmp,green,ending_scream,scream,ending,m,positive,positive,ES_green,1,m,559,2271385,2271889,2272093
93,forth,15,lästig,IAT_purple1.bmp,purple,starting_scream,scream,starting,c,negative,negative,ES_green,0,m,484,2273725,2274230,2274434
93,forth,16,sonnig,IAT_green2.bmp,green,ending_scream,scream,ending,m,positive,positive,ES_green,1,m,630,2276493,2276997,2277201
93,forth,17,streng,IAT_purple3.bmp,purple,starting_scream,scream,starting,c,negative,negative,ES_green,1,c,572,2278905,2279409,2279613
93,forth,18,geizig,IAT_yellow4.bmp,yellow,starting_melody,melody,starting,c,negative,positive,ES_green,1,c,512,2281259,2281763,2281967
93,forth,19,ehrlich,IAT_green1.bmp,green,ending_scream,scream,ending,m,positive,positive,ES_green,1,m,554,2283553,2284058,2284262
93,forth,20,kaputt,IAT_yellow4.bmp,yellow,starting_melody,melody,starting,c,negative,positive,ES_green,1,c,511,2285892,2286396,2286600
93,forth,21,sozial,IAT_red4.bmp,red,ending_melody,melody,ending,m,positive,negative,ES_green,1,m,823,2288186,2288690,2288894
93,forth,22,schön,IAT_purple3.bmp,purple,starting_scream,scream,starting,m,positive,negative,ES_green,1,m,527,2290790,2291295,2291499
93,forth,23,heiter,IAT_purple4.bmp,purple,starting_scream,scream,starting,m,positive,negative,ES_green,1,m,479,2293100,2293604,2293808
93,forth,24,sozial,IAT_purple2.bmp,purple,starting_scream,scream,starting,m,positive,negative,ES_green,1,m,543,2295360,2295865,2296069
93,forth,25,brutal,IAT_red4.bmp,red,ending_melody,melody,ending,c,negative,negative,ES_green,1,c,425,2297687,2298191,2298395
93,forth,26,gerecht,IAT_yellow3.bmp,yellow,starting_melody,melody,starting,m,positive,positive,ES_green,1,m,722,2299895,2300400,2300604
93,forth,27,gesund,IAT_yellow2.bmp,yellow,starting_melody,melody,starting,m,positive,positive,ES_green,1,m,441,2302400,2302904,2303108
93,forth,28,human,IAT_purple3.bmp,purple,starting_scream,scream,starting,m,positive,negative,ES_green,1,m,477,2304623,2305127,2305331
93,forth,29,sozial,IAT_green4.bmp,green,ending_scream,scream,ending,m,positive,positive,ES_green,1,m,450,2306883,2307387,2307591
93,forth,30,sonnig,IAT_yellow3.bmp,yellow,starting_melody,melody,starting,m,positive,positive,ES_green,1,m,429,2309115,2309619,2309823
93,forth,31,krank,IAT_yellow2.bmp,yellow,starting_melody,melody,starting,c,negative,positive,ES_green,1,c,436,2311326,2311830,2312034
93,forth,32,feige,IAT_red4.bmp,red,ending_melody,melody,ending,c,negative,negative,ES_green,1,c,408,2313545,2314049,2314253
93,forth,33,einsam,IAT_green2.bmp,green,ending_scream,scream,ending,c,negative,positive,ES_green,0,m,432,2315736,2316240,2316444
93,forth,34,gesund,IAT_green3.bmp,green,ending_scream,scream,ending,m,positive,positive,ES_green,1,m,450,2318452,2318956,2319160
93,forth,35,teuer,IAT_purple4.bmp,purple,starting_scream,scream,starting,c,negative,negative,ES_green,1,c,526,2320685,2321189,2321393
93,forth,36,gerecht,IAT_purple1.bmp,purple,starting_scream,scream,starting,m,positive,negative,ES_green,1,m,663,2322993,2323497,2323701
93,forth,37,gesund,IAT_red3.bmp,red,ending_melody,melody,ending,m,positive,negative,ES_green,1,m,617,2325439,2325943,2326147
93,forth,38,lästig,IAT_red1.bmp,red,ending_melody,melody,ending,c,negative,negative,ES_green,1,c,479,2327838,2328342,2328546
93,forth,39,brutal,IAT_green4.bmp,green,ending_scream,scream,ending,c,negative,positive,ES_green,1,c,614,2330098,2330603,2330807
93,forth,40,schön,IAT_purple1.bmp,purple,starting_scream,scream,starting,m,positive,negative,ES_green,1,m,521,2332497,2333001,2333205
93,forth,41,geizig,IAT_red3.bmp,red,ending_melody,melody,ending,c,negative,negative,ES_green,1,c,435,2334801,2335305,2335509
93,forth,42,witzig,IAT_red1.bmp,red,ending_melody,melody,ending,m,positive,negative,ES_green,1,m,566,2337018,2337522,2337726
93,forth,43,teuer,IAT_purple3.bmp,purple,starting_scream,scream,starting,c,negative,negative,ES_green,1,c,520,2339367,2339871,2340075
93,forth,44,einsam,IAT_yellow2.bmp,yellow,starting_melody,melody,starting,c,negative,positive,ES_green,1,c,581,2341670,2342174,2342378
93,forth,45,schön,IAT_green3.bmp,green,ending_scream,scream,ending,m,positive,positive,ES_green,1,m,473,2344034,2344539,2344743
93,forth,46,geizig,IAT_purple2.bmp,purple,starting_scream,scream,starting,c,negative,negative,ES_green,1,c,473,2346291,2346795,2346999
93,forth,47,ehrlich,IAT_yellow3.bmp,yellow,starting_melody,melody,starting,m,positive,positive,ES_green,1,m,576,2348546,2349050,2349254
93,forth,48,einsam,IAT_green2.bmp,green,ending_scream,scream,ending,c,negative,positive,ES_green,1,c,709,2350905,2351409,2351613
93,forth,49,kaputt,IAT_red4.bmp,red,ending_melody,melody,ending,c,negative,negative,ES_green,1,c,566,2353397,2353901,2354105
93,forth,50,lustig,IAT_purple3.bmp,purple,starting_scream,scream,starting,m,positive,negative,ES_green,1,m,703,2355745,2356250,2356454
93,forth,51,witzig,IAT_red3.bmp,red,ending_melody,melody,ending,m,positive,negative,ES_green,1,m,591,2358231,2358735,2358939
93,forth,52,lustig,IAT_red3.bmp,red,ending_melody,melody,ending,m,positive,negative,ES_green,1,m,607,2360605,2361109,2361313
93,forth,53,human,IAT_red1.bmp,red,ending_melody,melody,ending,m,positive,negative,ES_green,1,m,471,2362994,2363498,2363702
93,forth,54,gierig,IAT_yellow3.bmp,yellow,starting_melody,melody,starting,c,negative,positive,ES_green,1,c,592,2365248,2365752,2365956
93,forth,55,munter,IAT_green4.bmp,green,ending_scream,scream,ending,m,positive,positive,ES_green,1,m,693,2367623,2368127,2368331
93,forth,56,lustig,IAT_red2.bmp,red,ending_melody,melody,ending,m,positive,negative,ES_green,1,m,653,2370099,2370603,2370807
93,forth,57,morsch,IAT_red4.bmp,red,ending_melody,melody,ending,c,negative,negative,ES_green,1,c,518,2372535,2373040,2373244
93,forth,58,krank,IAT_purple2.bmp,purple,starting_scream,scream,starting,c,negative,negative,ES_green,1,c,501,2374836,2375340,2375544
93,forth,59,sanft,IAT_purple2.bmp,purple,starting_scream,scream,starting,m,positive,negative,ES_green,1,m,614,2377120,2377624,2377828
93,forth,60,morsch,IAT_red2.bmp,red,ending_melody,melody,ending,c,negative,negative,ES_green,1,c,448,2379516,2380020,2380224
93,forth,61,lästig,IAT_green1.bmp,green,ending_scream,scream,ending,c,negative,positive,ES_green,1,c,953,2381746,2382250,2382454
93,forth,62,falsch,IAT_purple2.bmp,purple,starting_scream,scream,starting,c,negative,negative,ES_green,1,c,455,2384482,2384986,2385190
93,forth,63,streng,IAT_purple4.bmp,purple,starting_scream,scream,starting,c,negative,negative,ES_green,1,c,504,2386720,2387224,2387428
93,forth,64,teuer,IAT_purple4.bmp,purple,starting_scream,scream,starting,c,negative,negative,ES_green,1,c,600,2389006,2389511,2389715
93,forth,65,munter,IAT_yellow4.bmp,yellow,starting_melody,melody,starting,m,positive,positive,ES_green,1,m,494,2391390,2391894,2392098
93,forth,66,heiter,IAT_yellow3.bmp,yellow,starting_melody,melody,starting,m,positive,positive,ES_green,1,m,572,2393667,2394171,2394375
93,forth,67,ehrlich,IAT_red1.bmp,red,ending_melody,melody,ending,m,positive,negative,ES_green,1,m,618,2396022,2396526,2396730
93,forth,68,munter,IAT_red4.bmp,red,ending_melody,melody,ending,m,positive,negative,ES_green,1,m,529,2398424,2398928,2399132
93,forth,69,kaputt,IAT_green4.bmp,green,ending_scream,scream,ending,c,negative,positive,ES_green,1,c,478,2400736,2401240,2401444
93,forth,70,human,IAT_yellow2.bmp,yellow,starting_melody,melody,starting,m,positive,positive,ES_green,1,m,528,2402996,2403500,2403704
93,forth,71,streng,IAT_green3.bmp,green,ending_scream,scream,ending,c,negative,positive,ES_green,1,c,727,2405307,2405811,2406015
93,forth,72,heiter,IAT_yellow4.bmp,yellow,starting_melody,melody,starting,m,positive,positive,ES_green,1,m,425,2407817,2408321,2408525
93,forth,73,lästig,IAT_yellow2.bmp,yellow,starting_melody,melody,starting,c,negative,positive,ES_green,1,c,489,2410025,2410529,2410733
93,forth,74,gesund,IAT_yellow1.bmp,yellow,starting_melody,melody,starting,m,positive,positive,ES_green,1,m,1057,2412297,2412801,2413005
93,forth,75,krank,IAT_yellow1.bmp,yellow,starting_melody,melody,starting,c,negative,positive,ES_green,1,c,511,2415137,2415641,2415845
93,forth,76,gierig,IAT_green4.bmp,green,ending_scream,scream,ending,c,negative,positive,ES_green,1,c,514,2417431,2417936,2418140
93,forth,77,geizig,IAT_yellow2.bmp,yellow,starting_melody,melody,starting,c,negative,positive,ES_green,1,c,661,2419730,2420234,2420438
93,forth,78,sanft,IAT_green2.bmp,green,ending_scream,scream,ending,m,positive,positive,ES_green,1,m,579,2422174,2422678,2422882
93,forth,79,streng,IAT_yellow4.bmp,yellow,starting_melody,melody,starting,c,negative,positive,ES_green,1,c,482,2424536,2425040,2425244
93,forth,80,feige,IAT_red2.bmp,red,ending_melody,melody,ending,c,negative,negative,ES_green,1,c,552,2426801,2427306,2427510
93,forth,81,witzig,IAT_purple3.bmp,purple,starting_scream,scream,starting,m,positive,negative,ES_green,1,m,661,2429136,2429640,2429844
93,forth,82,sanft,IAT_red3.bmp,red,ending_melody,melody,ending,m,positive,negative,ES_green,1,m,907,2431580,2432084,2432288
93,forth,83,sonnig,IAT_yellow1.bmp,yellow,starting_melody,melody,starting,m,positive,positive,ES_green,1,m,571,2434270,2434775,2434979
93,forth,84,human,IAT_purple1.bmp,purple,starting_scream,scream,starting,m,positive,negative,ES_green,1,m,536,2436625,2437129,2437333
93,forth,85,sonnig,IAT_yellow1.bmp,yellow,starting_melody,melody,starting,m,positive,positive,ES_green,1,m,468,2438945,2439449,2439653
93,forth,86,falsch,IAT_yellow4.bmp,yellow,starting_melody,melody,starting,c,negative,positive,ES_green,1,c,522,2441196,2441701,2441905
93,forth,87,gierig,IAT_green1.bmp,green,ending_scream,scream,ending,c,negative,positive,ES_green,1,c,758,2443503,2444008,2444212
93,forth,88,gerecht,IAT_green3.bmp,green,ending_scream,scream,ending,m,positive,positive,ES_green,1,m,569,2446045,2446550,2446754
93,forth,89,krank,IAT_yellow1.bmp,yellow,starting_melody,melody,starting,c,negative,positive,ES_green,1,c,508,2448398,2448902,2449106
93,forth,90,brutal,IAT_yellow3.bmp,yellow,starting_melody,melody,starting,c,negative,positive,ES_green,1,c,603,2450688,2451193,2451397
93,forth,91,witzig,IAT_red1.bmp,red,ending_melody,melody,ending,m,positive,negative,ES_green,1,m,1286,2453075,2453579,2453783
93,forth,92,feige,IAT_red3.bmp,red,ending_melody,melody,ending,c,negative,negative,ES_green,1,c,504,2456144,2456649,2456853
93,forth,93,gierig,IAT_red2.bmp,red,ending_melody,melody,ending,c,negative,negative,ES_green,1,c,501,2458431,2458936,2459140
93,forth,94,gerecht,IAT_yellow1.bmp,yellow,starting_melody,melody,starting,m,positive,positive,ES_green,0,c,545,2460717,2461221,2461425
93,forth,95,munter,IAT_purple1.bmp,purple,starting_scream,scream,starting,m,positive,negative,ES_green,1,m,576,2463546,2464050,2464254
