subject_nr,block,trialnr,trial_target,trial_prime,prime_color,prime_role,prime_us,prime_relation,correct_response,target_valence,prime_valence,color_counter,correct_first_response,response_first_response,response_time_first_response,fixation_show,prime_show,target_show
41,first,0,heiter,IAT_yellow1.bmp,yellow,starting_scream,scream,starting,m,positive,negative,ES_red,1,m,593,1393896,1394401,1394605
41,first,1,falsch,IAT_green4.bmp,green,ending_melody,melody,ending,c,negative,negative,ES_red,1,c,497,1396274,1396778,1396982
41,first,2,lustig,IAT_yellow3.bmp,yellow,starting_scream,scream,starting,m,positive,negative,ES_red,1,m,409,1398553,1399057,1399261
41,first,3,sozial,IAT_green2.bmp,green,ending_melody,melody,ending,m,positive,negative,ES_red,1,m,385,1400742,1401247,1401451
41,first,4,sonnig,IAT_yellow3.bmp,yellow,starting_scream,scream,starting,m,positive,negative,ES_red,1,m,417,1402909,1403413,1403617
41,first,5,kaputt,IAT_green1.bmp,green,ending_melody,melody,ending,c,negative,negative,ES_red,1,c,443,1405107,1405611,1405815
41,first,6,geizig,IAT_purple4.bmp,purple,starting_melody,melody,starting,c,negative,positive,ES_red,1,c,398,1407330,1407835,1408039
41,first,7,ehrlich,IAT_red2.bmp,red,ending_scream,scream,ending,m,positive,positive,ES_red,1,m,542,1409511,1410015,1410219
41,first,8,teuer,IAT_green2.bmp,green,ending_melody,melody,ending,c,negative,negative,ES_red,1,c,559,1411834,1412338,1412542
41,first,9,einsam,IAT_green4.bmp,green,ending_melody,melody,ending,c,negative,negative,ES_red,1,c,682,1414174,1414678,1414882
41,first,10,sozial,IAT_red3.bmp,red,ending_scream,scream,ending,m,positive,positive,ES_red,1,m,504,1416637,1417141,1417345
41,first,11,ehrlich,IAT_yellow4.bmp,yellow,starting_scream,scream,starting,m,positive,negative,ES_red,1,m,512,1418923,1419427,1419631
41,first,12,gerecht,IAT_red3.bmp,red,ending_scream,scream,ending,m,positive,positive,ES_red,1,m,462,1421217,1421721,1421925
41,first,13,streng,IAT_red4.bmp,red,ending_scream,scream,ending,c,negative,positive,ES_red,0,m,491,1423461,1423965,1424169
41,first,14,witzig,IAT_green1.bmp,green,ending_melody,melody,ending,m,positive,negative,ES_red,1,m,556,1426235,1426739,1426943
41,first,15,gierig,IAT_purple4.bmp,purple,starting_melody,melody,starting,c,negative,positive,ES_red,0,m,480,1428571,1429076,1429280
41,first,16,gesund,IAT_green4.bmp,green,ending_melody,melody,ending,m,positive,negative,ES_red,1,m,497,1431332,1431837,1432041
41,first,17,brutal,IAT_green3.bmp,green,ending_melody,melody,ending,c,negative,negative,ES_red,1,c,442,1433611,1434116,1434320
41,first,18,ehrlich,IAT_purple3.bmp,purple,starting_melody,melody,starting,m,positive,positive,ES_red,1,m,469,1435835,1436340,1436544
41,first,19,gerecht,IAT_green3.bmp,green,ending_melody,melody,ending,m,positive,negative,ES_red,1,m,592,1438087,1438591,1438795
41,first,20,falsch,IAT_red1.bmp,red,ending_scream,scream,ending,c,negative,positive,ES_red,1,c,486,1440461,1440966,1441170
41,first,21,lästig,IAT_purple2.bmp,purple,starting_melody,melody,starting,c,negative,positive,ES_red,1,c,607,1442730,1443234,1443438
41,first,22,geizig,IAT_yellow4.bmp,yellow,starting_scream,scream,starting,c,negative,negative,ES_red,1,c,558,1445118,1445623,1445827
41,first,23,sanft,IAT_purple1.bmp,purple,starting_melody,melody,starting,m,positive,positive,ES_red,1,m,568,1447459,1447963,1448167
41,first,24,lästig,IAT_red3.bmp,red,ending_scream,scream,ending,c,negative,positive,ES_red,1,c,578,1449808,1450312,1450516
41,first,25,lustig,IAT_green1.bmp,green,ending_melody,melody,ending,m,positive,negative,ES_red,1,m,565,1452167,1452672,1452876
41,first,26,sanft,IAT_purple1.bmp,purple,starting_melody,melody,starting,m,positive,positive,ES_red,1,m,414,1454514,1455018,1455222
41,first,27,gesund,IAT_red3.bmp,red,ending_scream,scream,ending,m,positive,positive,ES_red,1,m,404,1456709,1457213,1457417
41,first,28,teuer,IAT_yellow2.bmp,yellow,starting_scream,scream,starting,c,negative,negative,ES_red,1,c,695,1458895,1459399,1459603
41,first,29,falsch,IAT_yellow2.bmp,yellow,starting_scream,scream,starting,c,negative,negative,ES_red,1,c,546,1461372,1461877,1462081
41,first,30,human,IAT_red4.bmp,red,ending_scream,scream,ending,m,positive,positive,ES_red,1,m,505,1463700,1464205,1464409
41,first,31,witzig,IAT_green3.bmp,green,ending_melody,melody,ending,m,positive,negative,ES_red,1,m,474,1465987,1466491,1466695
41,first,32,munter,IAT_purple2.bmp,purple,starting_melody,melody,starting,m,positive,positive,ES_red,1,m,396,1468242,1468746,1468950
41,first,33,heiter,IAT_yellow2.bmp,yellow,starting_scream,scream,starting,m,positive,negative,ES_red,1,m,476,1470420,1470924,1471128
41,first,34,ehrlich,IAT_yellow1.bmp,yellow,starting_scream,scream,starting,m,positive,negative,ES_red,1,m,482,1472678,1473182,1473386
41,first,35,lästig,IAT_green2.bmp,green,ending_melody,melody,ending,c,negative,negative,ES_red,1,c,586,1474940,1475445,1475649
41,first,36,munter,IAT_green3.bmp,green,ending_melody,melody,ending,m,positive,negative,ES_red,1,m,518,1477308,1477812,1478016
41,first,37,sonnig,IAT_green4.bmp,green,ending_melody,melody,ending,m,positive,negative,ES_red,1,m,446,1479607,1480111,1480315
41,first,38,lustig,IAT_purple4.bmp,purple,starting_melody,melody,starting,m,positive,positive,ES_red,1,m,438,1481835,1482339,1482543
41,first,39,heiter,IAT_green3.bmp,green,ending_melody,melody,ending,m,positive,negative,ES_red,1,m,429,1484055,1484559,1484763
41,first,40,morsch,IAT_red2.bmp,red,ending_scream,scream,ending,c,negative,positive,ES_red,1,c,555,1486266,1486770,1486974
41,first,41,sozial,IAT_yellow1.bmp,yellow,starting_scream,scream,starting,m,positive,negative,ES_red,1,m,515,1488603,1489108,1489312
41,first,42,lästig,IAT_red3.bmp,red,ending_scream,scream,ending,c,negative,positive,ES_red,1,c,588,1490900,1491405,1491609
41,first,43,einsam,IAT_purple2.bmp,purple,starting_melody,melody,starting,c,negative,positive,ES_red,1,c,708,1493271,1493775,1493979
41,first,44,feige,IAT_red2.bmp,red,ending_scream,scream,ending,c,negative,positive,ES_red,1,c,568,1495761,1496265,1496469
41,first,45,gesund,IAT_purple3.bmp,purple,starting_melody,melody,starting,m,positive,positive,ES_red,1,m,535,1498110,1498614,1498818
41,first,46,human,IAT_red2.bmp,red,ending_scream,scream,ending,m,positive,positive,ES_red,1,m,541,1500427,1500931,1501135
41,first,47,geizig,IAT_yellow4.bmp,yellow,starting_scream,scream,starting,c,negative,negative,ES_red,1,c,585,1502750,1503255,1503459
41,first,48,sanft,IAT_red1.bmp,red,ending_scream,scream,ending,m,positive,positive,ES_red,1,m,591,1505118,1505622,1505826
41,first,49,feige,IAT_yellow1.bmp,yellow,starting_scream,scream,starting,c,negative,negative,ES_red,1,c,504,1507491,1507995,1508199
41,first,50,streng,IAT_red2.bmp,red,ending_scream,scream,ending,c,negative,positive,ES_red,1,c,451,1509777,1510281,1510485
41,first,51,feige,IAT_green3.bmp,green,ending_melody,melody,ending,c,negative,negative,ES_red,1,c,501,1512010,1512514,1512718
41,first,52,krank,IAT_purple1.bmp,purple,starting_melody,melody,starting,c,negative,positive,ES_red,1,c,569,1514293,1514797,1515001
41,first,53,einsam,IAT_yellow2.bmp,yellow,starting_scream,scream,starting,c,negative,negative,ES_red,1,c,561,1516644,1517148,1517352
41,first,54,brutal,IAT_red4.bmp,red,ending_scream,scream,ending,c,negative,positive,ES_red,1,c,665,1518987,1519491,1519695
41,first,55,teuer,IAT_yellow4.bmp,yellow,starting_scream,scream,starting,c,negative,negative,ES_red,1,c,537,1521434,1521938,1522142
41,first,56,kaputt,IAT_purple4.bmp,purple,starting_melody,melody,starting,c,negative,positive,ES_red,1,c,478,1523752,1524256,1524460
41,first,57,witzig,IAT_purple4.bmp,purple,starting_melody,melody,starting,m,positive,positive,ES_red,1,m,487,1526011,1526515,1526719
41,first,58,einsam,IAT_yellow2.bmp,yellow,starting_scream,scream,starting,c,negative,negative,ES_red,1,c,688,1528280,1528784,1528988
41,first,59,schön,IAT_green1.bmp,green,ending_melody,melody,ending,m,positive,negative,ES_red,1,m,461,1530749,1531254,1531458
41,first,60,gerecht,IAT_yellow3.bmp,yellow,starting_scream,scream,starting,m,positive,negative,ES_red,1,m,520,1532993,1533497,1533701
41,first,61,teuer,IAT_purple3.bmp,purple,starting_melody,melody,starting,c,negative,positive,ES_red,1,c,463,1535294,1535799,1536003
41,first,62,streng,IAT_yellow4.bmp,yellow,starting_scream,scream,starting,c,negative,negative,ES_red,1,c,511,1537540,1538044,1538248
41,first,63,gesund,IAT_yellow2.bmp,yellow,starting_scream,scream,starting,m,positive,negative,ES_red,1,m,536,1539833,1540337,1540541
41,first,64,schön,IAT_purple3.bmp,purple,starting_melody,melody,starting,m,positive,positive,ES_red,1,m,427,1542150,1542654,1542858
41,first,65,gierig,IAT_red2.bmp,red,ending_scream,scream,ending,c,negative,positive,ES_red,1,c,515,1544359,1544863,1545067
41,first,66,witzig,IAT_yellow1.bmp,yellow,starting_scream,scream,starting,m,positive,negative,ES_red,1,m,570,1546656,1547160,1547364
41,first,67,munter,IAT_green1.bmp,green,ending_melody,melody,ending,m,positive,negative,ES_red,1,m,569,1549008,1549512,1549716
41,first,68,krank,IAT_green4.bmp,green,ending_melody,melody,ending,c,negative,negative,ES_red,1,c,526,1551359,1551863,1552067
41,first,69,schön,IAT_red1.bmp,red,ending_scream,scream,ending,m,positive,positive,ES_red,1,m,459,1553667,1554171,1554375
41,first,70,kaputt,IAT_green1.bmp,green,ending_melody,melody,ending,c,negative,negative,ES_red,1,c,507,1555907,1556411,1556615
41,first,71,sozial,IAT_red3.bmp,red,ending_scream,scream,ending,m,positive,positive,ES_red,1,m,510,1558195,1558700,1558904
41,first,72,morsch,IAT_red4.bmp,red,ending_scream,scream,ending,c,negative,positive,ES_red,1,c,504,1560488,1560992,1561196
41,first,73,lustig,IAT_purple2.bmp,purple,starting_melody,melody,starting,m,positive,positive,ES_red,1,m,415,1562786,1563290,1563494
41,first,74,schön,IAT_red1.bmp,red,ending_scream,scream,ending,m,positive,positive,ES_red,1,m,408,1564982,1565487,1565691
41,first,75,streng,IAT_yellow3.bmp,yellow,starting_scream,scream,starting,c,negative,negative,ES_red,0,m,354,1567173,1567677,1567881
41,first,76,sonnig,IAT_purple3.bmp,purple,starting_melody,melody,starting,m,positive,positive,ES_red,1,m,486,1569809,1570313,1570517
41,first,77,kaputt,IAT_purple1.bmp,purple,starting_melody,melody,starting,c,negative,positive,ES_red,1,c,515,1572077,1572581,1572785
41,first,78,human,IAT_yellow4.bmp,yellow,starting_scream,scream,starting,m,positive,negative,ES_red,1,m,481,1574374,1574878,1575082
41,first,79,krank,IAT_yellow3.bmp,yellow,starting_scream,scream,starting,c,negative,negative,ES_red,1,c,439,1576637,1577142,1577346
41,first,80,sonnig,IAT_red4.bmp,red,ending_scream,scream,ending,m,positive,positive,ES_red,1,m,452,1578859,1579363,1579567
41,first,81,morsch,IAT_purple3.bmp,purple,starting_melody,melody,starting,c,negative,positive,ES_red,1,c,605,1581093,1581597,1581801
41,first,82,feige,IAT_green2.bmp,green,ending_melody,melody,ending,c,negative,negative,ES_red,1,c,523,1583481,1583985,1584189
41,first,83,human,IAT_purple1.bmp,purple,starting_melody,melody,starting,m,positive,positive,ES_red,1,m,507,1585785,1586290,1586494
41,first,84,krank,IAT_yellow1.bmp,yellow,starting_scream,scream,starting,c,negative,negative,ES_red,1,c,629,1588075,1588579,1588783
41,first,85,heiter,IAT_yellow3.bmp,yellow,starting_scream,scream,starting,m,positive,negative,ES_red,0,c,471,1590487,1590991,1591195
41,first,86,sanft,IAT_red1.bmp,red,ending_scream,scream,ending,m,positive,positive,ES_red,1,m,444,1593240,1593744,1593948
41,first,87,munter,IAT_green2.bmp,green,ending_melody,melody,ending,m,positive,negative,ES_red,1,m,340,1595466,1595970,1596174
41,first,88,falsch,IAT_purple2.bmp,purple,starting_melody,melody,starting,c,negative,positive,ES_red,1,c,476,1597589,1598094,1598298
41,first,89,gerecht,IAT_purple1.bmp,purple,starting_melody,melody,starting,m,positive,positive,ES_red,1,m,455,1599848,1600352,1600556
41,first,90,gierig,IAT_purple4.bmp,purple,starting_melody,melody,starting,c,negative,positive,ES_red,1,c,605,1602084,1602588,1602792
41,first,91,brutal,IAT_purple2.bmp,purple,starting_melody,melody,starting,c,negative,positive,ES_red,1,c,557,1604471,1604975,1605179
41,first,92,geizig,IAT_red4.bmp,red,ending_scream,scream,ending,c,negative,positive,ES_red,1,c,444,1606810,1607314,1607518
41,first,93,brutal,IAT_red1.bmp,red,ending_scream,scream,ending,c,negative,positive,ES_red,1,c,424,1609036,1609541,1609745
41,first,94,gierig,IAT_green4.bmp,green,ending_melody,melody,ending,c,negative,negative,ES_red,1,c,517,1611243,1611747,1611951
41,first,95,morsch,IAT_green2.bmp,green,ending_melody,melody,ending,c,negative,negative,ES_red,1,c,500,1613541,1614045,1614249
41,second,0,sonnig,IAT_yellow1.bmp,yellow,starting_scream,scream,starting,m,positive,negative,ES_red,1,m,462,1622989,1623493,1623697
41,second,1,gesund,IAT_purple4.bmp,purple,starting_melody,melody,starting,m,positive,positive,ES_red,1,m,429,1625234,1625738,1625942
41,second,2,krank,IAT_red4.bmp,red,ending_scream,scream,ending,c,negative,positive,ES_red,1,c,434,1627444,1627948,1628152
41,second,3,kaputt,IAT_red2.bmp,red,ending_scream,scream,ending,c,negative,positive,ES_red,1,c,359,1629660,1630164,1630368
41,second,4,streng,IAT_red1.bmp,red,ending_scream,scream,ending,c,negative,positive,ES_red,1,c,296,1631800,1632305,1632509
41,second,5,gerecht,IAT_red1.bmp,red,ending_scream,scream,ending,m,positive,positive,ES_red,0,c,356,1633880,1634384,1634588
41,second,6,schön,IAT_red4.bmp,red,ending_scream,scream,ending,m,positive,positive,ES_red,1,m,381,1636520,1637024,1637228
41,second,7,munter,IAT_yellow1.bmp,yellow,starting_scream,scream,starting,m,positive,negative,ES_red,1,m,431,1638683,1639187,1639391
41,second,8,brutal,IAT_yellow2.bmp,yellow,starting_scream,scream,starting,c,negative,negative,ES_red,1,c,478,1640896,1641400,1641604
41,second,9,kaputt,IAT_green4.bmp,green,ending_melody,melody,ending,c,negative,negative,ES_red,1,c,503,1643155,1643659,1643863
41,second,10,lästig,IAT_green4.bmp,green,ending_melody,melody,ending,c,negative,negative,ES_red,1,c,545,1645439,1645944,1646148
41,second,11,sozial,IAT_red2.bmp,red,ending_scream,scream,ending,m,positive,positive,ES_red,0,c,428,1647767,1648271,1648475
41,second,12,gierig,IAT_red2.bmp,red,ending_scream,scream,ending,c,negative,positive,ES_red,1,c,543,1650477,1650981,1651185
41,second,13,ehrlich,IAT_yellow2.bmp,yellow,starting_scream,scream,starting,m,positive,negative,ES_red,1,m,693,1652802,1653306,1653510
41,second,14,gerecht,IAT_purple2.bmp,purple,starting_melody,melody,starting,m,positive,positive,ES_red,1,m,502,1655277,1655781,1655985
41,second,15,feige,IAT_yellow3.bmp,yellow,starting_scream,scream,starting,c,negative,negative,ES_red,1,c,551,1657560,1658064,1658268
41,second,16,lästig,IAT_red4.bmp,red,ending_scream,scream,ending,c,negative,positive,ES_red,1,c,539,1659893,1660397,1660601
41,second,17,ehrlich,IAT_yellow3.bmp,yellow,starting_scream,scream,starting,m,positive,negative,ES_red,1,m,397,1662213,1662718,1662922
41,second,18,kaputt,IAT_red1.bmp,red,ending_scream,scream,ending,c,negative,positive,ES_red,1,c,579,1664393,1664897,1665101
41,second,19,einsam,IAT_red3.bmp,red,ending_scream,scream,ending,c,negative,positive,ES_red,1,c,844,1666754,1667258,1667462
41,second,20,streng,IAT_red4.bmp,red,ending_scream,scream,ending,c,negative,positive,ES_red,1,c,524,1669380,1669884,1670088
41,second,21,sonnig,IAT_purple3.bmp,purple,starting_melody,melody,starting,m,positive,positive,ES_red,1,m,541,1671685,1672189,1672393
41,second,22,geizig,IAT_purple4.bmp,purple,starting_melody,melody,starting,c,negative,positive,ES_red,1,c,645,1674008,1674512,1674716
41,second,23,witzig,IAT_red1.bmp,red,ending_scream,scream,ending,m,positive,positive,ES_red,1,m,617,1676435,1676939,1677143
41,second,24,falsch,IAT_purple1.bmp,purple,starting_melody,melody,starting,c,negative,positive,ES_red,1,c,611,1678834,1679338,1679542
41,second,25,sanft,IAT_purple3.bmp,purple,starting_melody,melody,starting,m,positive,positive,ES_red,1,m,808,1681226,1681730,1681934
41,second,26,gesund,IAT_red3.bmp,red,ending_scream,scream,ending,m,positive,positive,ES_red,1,m,720,1683815,1684319,1684523
41,second,27,sozial,IAT_green2.bmp,green,ending_melody,melody,ending,m,positive,negative,ES_red,1,m,575,1686316,1686820,1687024
41,second,28,geizig,IAT_yellow4.bmp,yellow,starting_scream,scream,starting,c,negative,negative,ES_red,1,c,1032,1688673,1689177,1689381
41,second,29,lästig,IAT_green2.bmp,green,ending_melody,melody,ending,c,negative,negative,ES_red,1,c,531,1691486,1691991,1692195
41,second,30,gesund,IAT_green2.bmp,green,ending_melody,melody,ending,m,positive,negative,ES_red,1,m,568,1693799,1694304,1694508
41,second,31,falsch,IAT_green2.bmp,green,ending_melody,melody,ending,c,negative,negative,ES_red,1,c,526,1696150,1696654,1696858
41,second,32,streng,IAT_green3.bmp,green,ending_melody,melody,ending,c,negative,negative,ES_red,1,c,400,1698458,1698963,1699167
41,second,33,brutal,IAT_purple1.bmp,purple,starting_melody,melody,starting,c,negative,positive,ES_red,1,c,551,1700641,1701145,1701349
41,second,34,krank,IAT_purple2.bmp,purple,starting_melody,melody,starting,c,negative,positive,ES_red,1,c,479,1702974,1703478,1703682
41,second,35,sanft,IAT_green3.bmp,green,ending_melody,melody,ending,m,positive,negative,ES_red,1,m,504,1705235,1705739,1705943
41,second,36,human,IAT_yellow3.bmp,yellow,starting_scream,scream,starting,m,positive,negative,ES_red,1,m,512,1707520,1708025,1708229
41,second,37,sozial,IAT_purple3.bmp,purple,starting_melody,melody,starting,m,positive,positive,ES_red,1,m,429,1709814,1710318,1710522
41,second,38,schön,IAT_green3.bmp,green,ending_melody,melody,ending,m,positive,negative,ES_red,1,m,487,1712025,1712529,1712733
41,second,39,heiter,IAT_yellow1.bmp,yellow,starting_scream,scream,starting,m,positive,negative,ES_red,1,m,716,1714293,1714798,1715002
41,second,40,geizig,IAT_purple3.bmp,purple,starting_melody,melody,starting,c,negative,positive,ES_red,1,c,798,1716791,1717295,1717499
41,second,41,gerecht,IAT_red1.bmp,red,ending_scream,scream,ending,m,positive,positive,ES_red,0,c,602,1719371,1719875,1720079
41,second,42,munter,IAT_yellow4.bmp,yellow,starting_scream,scream,starting,m,positive,negative,ES_red,1,m,559,1722255,1722759,1722963
41,second,43,sanft,IAT_red2.bmp,red,ending_scream,scream,ending,m,positive,positive,ES_red,1,m,549,1724595,1725099,1725303
41,second,44,munter,IAT_purple1.bmp,purple,starting_melody,melody,starting,m,positive,positive,ES_red,1,m,528,1726926,1727431,1727635
41,second,45,heiter,IAT_red1.bmp,red,ending_scream,scream,ending,m,positive,positive,ES_red,1,m,461,1729236,1729741,1729945
41,second,46,lustig,IAT_red3.bmp,red,ending_scream,scream,ending,m,positive,positive,ES_red,1,m,501,1731480,1731984,1732188
41,second,47,witzig,IAT_green3.bmp,green,ending_melody,melody,ending,m,positive,negative,ES_red,1,m,538,1733763,1734267,1734471
41,second,48,einsam,IAT_purple2.bmp,purple,starting_melody,melody,starting,c,negative,positive,ES_red,1,c,1022,1736083,1736587,1736791
41,second,49,feige,IAT_yellow4.bmp,yellow,starting_scream,scream,starting,c,negative,negative,ES_red,1,c,410,1738887,1739391,1739595
41,second,50,munter,IAT_green1.bmp,green,ending_melody,melody,ending,m,positive,negative,ES_red,1,m,452,1741079,1741583,1741787
41,second,51,falsch,IAT_yellow4.bmp,yellow,starting_scream,scream,starting,c,negative,negative,ES_red,1,c,679,1743314,1743818,1744022
41,second,52,teuer,IAT_green4.bmp,green,ending_melody,melody,ending,c,negative,negative,ES_red,0,m,586,1745774,1746279,1746483
41,second,53,kaputt,IAT_red2.bmp,red,ending_scream,scream,ending,c,negative,positive,ES_red,1,c,792,1748643,1749147,1749351
41,second,54,morsch,IAT_yellow1.bmp,yellow,starting_scream,scream,starting,c,negative,negative,ES_red,0,m,418,1751218,1751723,1751927
41,second,55,gierig,IAT_purple3.bmp,purple,starting_melody,melody,starting,c,negative,positive,ES_red,1,c,608,1753919,1754423,1754627
41,second,56,human,IAT_green1.bmp,green,ending_melody,melody,ending,m,positive,negative,ES_red,1,m,675,1756309,1756813,1757017
41,second,57,falsch,IAT_purple4.bmp,purple,starting_melody,melody,starting,c,negative,positive,ES_red,1,c,515,1758766,1759270,1759474
41,second,58,teuer,IAT_purple4.bmp,purple,starting_melody,melody,starting,c,negative,positive,ES_red,1,c,665,1761063,1761567,1761771
41,second,59,sozial,IAT_red4.bmp,red,ending_scream,scream,ending,m,positive,positive,ES_red,1,m,564,1763510,1764014,1764218
41,second,60,lustig,IAT_purple1.bmp,purple,starting_melody,melody,starting,m,positive,positive,ES_red,1,m,497,1765855,1766360,1766564
41,second,61,krank,IAT_yellow4.bmp,yellow,starting_scream,scream,starting,c,negative,negative,ES_red,1,c,499,1768135,1768639,1768843
41,second,62,witzig,IAT_yellow1.bmp,yellow,starting_scream,scream,starting,m,positive,negative,ES_red,0,c,396,1770417,1770921,1771125
41,second,63,ehrlich,IAT_yellow4.bmp,yellow,starting_scream,scream,starting,m,positive,negative,ES_red,1,m,553,1773095,1773599,1773803
41,second,64,schön,IAT_green1.bmp,green,ending_melody,melody,ending,m,positive,negative,ES_red,1,m,586,1775429,1775934,1776138
41,second,65,gierig,IAT_red4.bmp,red,ending_scream,scream,ending,c,negative,positive,ES_red,0,m,595,1777799,1778304,1778508
41,second,66,heiter,IAT_purple1.bmp,purple,starting_melody,melody,starting,m,positive,positive,ES_red,1,m,584,1780677,1781181,1781385
41,second,67,human,IAT_purple1.bmp,purple,starting_melody,melody,starting,m,positive,positive,ES_red,1,m,422,1783043,1783547,1783751
41,second,68,witzig,IAT_purple4.bmp,purple,starting_melody,melody,starting,m,positive,positive,ES_red,1,m,520,1785248,1785752,1785956
41,second,69,morsch,IAT_purple2.bmp,purple,starting_melody,melody,starting,c,negative,positive,ES_red,1,c,520,1787550,1788054,1788258
41,second,70,brutal,IAT_purple4.bmp,purple,starting_melody,melody,starting,c,negative,positive,ES_red,1,c,761,1789851,1790355,1790559
41,second,71,feige,IAT_yellow1.bmp,yellow,starting_scream,scream,starting,c,negative,negative,ES_red,1,c,653,1792396,1792900,1793105
41,second,72,lustig,IAT_yellow3.bmp,yellow,starting_scream,scream,starting,m,positive,negative,ES_red,1,m,597,1794832,1795336,1795540
41,second,73,krank,IAT_yellow3.bmp,yellow,starting_scream,scream,starting,c,negative,negative,ES_red,1,c,582,1797210,1797715,1797919
41,second,74,ehrlich,IAT_yellow3.bmp,yellow,starting_scream,scream,starting,m,positive,negative,ES_red,1,m,713,1799575,1800079,1800283
41,second,75,heiter,IAT_green1.bmp,green,ending_melody,melody,ending,m,positive,negative,ES_red,1,m,359,1802069,1802574,1802778
41,second,76,gierig,IAT_yellow2.bmp,yellow,starting_scream,scream,starting,c,negative,negative,ES_red,0,m,348,1804211,1804715,1804919
41,second,77,morsch,IAT_green4.bmp,green,ending_melody,melody,ending,c,negative,negative,ES_red,1,c,466,1806842,1807346,1807550
41,second,78,sonnig,IAT_yellow2.bmp,yellow,starting_scream,scream,starting,m,positive,negative,ES_red,1,m,559,1809091,1809595,1809799
41,second,79,human,IAT_green3.bmp,green,ending_melody,melody,ending,m,positive,negative,ES_red,1,m,790,1811433,1811937,1812141
41,second,80,teuer,IAT_green2.bmp,green,ending_melody,melody,ending,c,negative,negative,ES_red,1,c,866,1814005,1814509,1814713
41,second,81,gerecht,IAT_red3.bmp,red,ending_scream,scream,ending,m,positive,positive,ES_red,1,m,633,1816653,1817157,1817361
41,second,82,schön,IAT_green4.bmp,green,ending_melody,melody,ending,m,positive,negative,ES_red,1,m,481,1819069,1819573,1819777
41,second,83,feige,IAT_yellow2.bmp,yellow,starting_scream,scream,starting,c,negative,negative,ES_red,1,c,951,1821332,1821836,1822040
41,second,84,morsch,IAT_purple2.bmp,purple,starting_melody,melody,starting,c,negative,positive,ES_red,1,c,569,1824066,1824570,1824774
41,second,85,einsam,IAT_red3.bmp,red,ending_scream,scream,ending,c,negative,positive,ES_red,1,c,536,1826418,1826923,1827127
41,second,86,sanft,IAT_red3.bmp,red,ending_scream,scream,ending,m,positive,positive,ES_red,1,m,514,1828737,1829241,1829445
41,second,87,sonnig,IAT_purple3.bmp,purple,starting_melody,melody,starting,m,positive,positive,ES_red,1,m,386,1831032,1831536,1831740
41,second,88,teuer,IAT_green1.bmp,green,ending_melody,melody,ending,c,negative,negative,ES_red,1,c,867,1833199,1833704,1833908
41,second,89,einsam,IAT_green3.bmp,green,ending_melody,melody,ending,c,negative,negative,ES_red,1,c,584,1835850,1836354,1836558
41,second,90,gesund,IAT_purple2.bmp,purple,starting_melody,melody,starting,m,positive,positive,ES_red,1,m,580,1838215,1838720,1838924
41,second,91,lästig,IAT_green2.bmp,green,ending_melody,melody,ending,c,negative,negative,ES_red,1,c,741,1840577,1841082,1841286
41,second,92,streng,IAT_yellow2.bmp,yellow,starting_scream,scream,starting,c,negative,negative,ES_red,1,c,656,1843101,1843605,1843809
41,second,93,geizig,IAT_green1.bmp,green,ending_melody,melody,ending,c,negative,negative,ES_red,1,c,738,1845539,1846043,1846247
41,second,94,brutal,IAT_red2.bmp,red,ending_scream,scream,ending,c,negative,positive,ES_red,1,c,992,1848060,1848564,1848768
41,second,95,lustig,IAT_green4.bmp,green,ending_melody,melody,ending,m,positive,negative,ES_red,1,m,628,1850834,1851338,1851542
41,third,0,gesund,IAT_yellow1.bmp,yellow,starting_scream,scream,starting,m,positive,negative,ES_red,1,m,704,1873975,1874479,1874683
41,third,1,geizig,IAT_purple3.bmp,purple,starting_melody,melody,starting,c,negative,positive,ES_red,0,m,424,1876463,1876967,1877171
41,third,2,heiter,IAT_green2.bmp,green,ending_melody,melody,ending,m,positive,negative,ES_red,1,m,433,1879172,1879676,1879880
41,third,3,feige,IAT_purple3.bmp,purple,starting_melody,melody,starting,c,negative,positive,ES_red,1,c,385,1881386,1881891,1882095
41,third,4,ehrlich,IAT_red1.bmp,red,ending_scream,scream,ending,m,positive,positive,ES_red,1,m,501,1883555,1884060,1884264
41,third,5,sonnig,IAT_yellow3.bmp,yellow,starting_scream,scream,starting,m,positive,negative,ES_red,1,m,405,1885839,1886343,1886547
41,third,6,brutal,IAT_red2.bmp,red,ending_scream,scream,ending,c,negative,positive,ES_red,1,c,405,1888025,1888530,1888734
41,third,7,lustig,IAT_red3.bmp,red,ending_scream,scream,ending,m,positive,positive,ES_red,1,m,487,1890213,1890717,1890921
41,third,8,sozial,IAT_yellow3.bmp,yellow,starting_scream,scream,starting,m,positive,negative,ES_red,1,m,575,1892482,1892986,1893190
41,third,9,gerecht,IAT_green1.bmp,green,ending_melody,melody,ending,m,positive,negative,ES_red,1,m,449,1894839,1895343,1895547
41,third,10,sanft,IAT_green3.bmp,green,ending_melody,melody,ending,m,positive,negative,ES_red,1,m,391,1897070,1897574,1897778
41,third,11,teuer,IAT_purple2.bmp,purple,starting_melody,melody,starting,c,negative,positive,ES_red,1,c,589,1899244,1899748,1899952
41,third,12,ehrlich,IAT_red1.bmp,red,ending_scream,scream,ending,m,positive,positive,ES_red,1,m,476,1901615,1902119,1902323
41,third,13,kaputt,IAT_green3.bmp,green,ending_melody,melody,ending,c,negative,negative,ES_red,1,c,459,1903873,1904377,1904581
41,third,14,heiter,IAT_red2.bmp,red,ending_scream,scream,ending,m,positive,positive,ES_red,1,m,598,1906114,1906618,1906822
41,third,15,gesund,IAT_red1.bmp,red,ending_scream,scream,ending,m,positive,positive,ES_red,1,m,419,1908494,1908998,1909202
41,third,16,falsch,IAT_red2.bmp,red,ending_scream,scream,ending,c,negative,positive,ES_red,1,c,532,1910695,1911199,1911403
41,third,17,krank,IAT_yellow2.bmp,yellow,starting_scream,scream,starting,c,negative,negative,ES_red,1,c,451,1913009,1913514,1913718
41,third,18,gerecht,IAT_red3.bmp,red,ending_scream,scream,ending,m,positive,positive,ES_red,0,c,459,1915243,1915748,1915952
41,third,19,einsam,IAT_red3.bmp,red,ending_scream,scream,ending,c,negative,positive,ES_red,1,c,524,1917985,1918489,1918693
41,third,20,kaputt,IAT_red3.bmp,red,ending_scream,scream,ending,c,negative,positive,ES_red,1,c,550,1920291,1920795,1920999
41,third,21,gierig,IAT_green1.bmp,green,ending_melody,melody,ending,c,negative,negative,ES_red,1,c,631,1922624,1923128,1923332
41,third,22,heiter,IAT_yellow2.bmp,yellow,starting_scream,scream,starting,m,positive,negative,ES_red,1,m,450,1925037,1925541,1925745
41,third,23,sanft,IAT_green2.bmp,green,ending_melody,melody,ending,m,positive,negative,ES_red,1,m,495,1927269,1927773,1927977
41,third,24,geizig,IAT_purple1.bmp,purple,starting_melody,melody,starting,c,negative,positive,ES_red,1,c,845,1929547,1930051,1930255
41,third,25,brutal,IAT_green2.bmp,green,ending_melody,melody,ending,c,negative,negative,ES_red,1,c,657,1932174,1932678,1932882
41,third,26,witzig,IAT_purple1.bmp,purple,starting_melody,melody,starting,m,positive,positive,ES_red,1,m,494,1934613,1935118,1935322
41,third,27,krank,IAT_red4.bmp,red,ending_scream,scream,ending,c,negative,positive,ES_red,1,c,535,1936892,1937396,1937600
41,third,28,munter,IAT_green3.bmp,green,ending_melody,melody,ending,m,positive,negative,ES_red,1,m,891,1939210,1939715,1939919
41,third,29,einsam,IAT_yellow2.bmp,yellow,starting_scream,scream,starting,c,negative,negative,ES_red,0,m,483,1941884,1942388,1942592
41,third,30,feige,IAT_purple4.bmp,purple,starting_melody,melody,starting,c,negative,positive,ES_red,1,c,613,1944649,1945153,1945357
41,third,31,schön,IAT_green1.bmp,green,ending_melody,melody,ending,m,positive,negative,ES_red,1,m,444,1947044,1947548,1947752
41,third,32,human,IAT_yellow3.bmp,yellow,starting_scream,scream,starting,m,positive,negative,ES_red,1,m,486,1949270,1949774,1949978
41,third,33,ehrlich,IAT_purple3.bmp,purple,starting_melody,melody,starting,m,positive,positive,ES_red,1,m,694,1951539,1952043,1952247
41,third,34,teuer,IAT_green4.bmp,green,ending_melody,melody,ending,c,negative,negative,ES_red,1,c,628,1954017,1954521,1954725
41,third,35,lästig,IAT_green1.bmp,green,ending_melody,melody,ending,c,negative,negative,ES_red,0,m,525,1956427,1956931,1957135
41,third,36,munter,IAT_red3.bmp,red,ending_scream,scream,ending,m,positive,positive,ES_red,1,m,470,1959235,1959739,1959943
41,third,37,einsam,IAT_yellow2.bmp,yellow,starting_scream,scream,starting,c,negative,negative,ES_red,1,c,481,1961487,1961991,1962195
41,third,38,teuer,IAT_purple4.bmp,purple,starting_melody,melody,starting,c,negative,positive,ES_red,1,c,474,1963749,1964254,1964458
41,third,39,gesund,IAT_purple1.bmp,purple,starting_melody,melody,starting,m,positive,positive,ES_red,1,m,558,1966006,1966510,1966714
41,third,40,falsch,IAT_yellow2.bmp,yellow,starting_scream,scream,starting,c,negative,negative,ES_red,1,c,808,1968346,1968851,1969055
41,third,41,feige,IAT_yellow1.bmp,yellow,starting_scream,scream,starting,c,negative,negative,ES_red,1,c,561,1970939,1971443,1971647
41,third,42,geizig,IAT_green2.bmp,green,ending_melody,melody,ending,c,negative,negative,ES_red,0,m,530,1973282,1973786,1973990
41,third,43,sonnig,IAT_red1.bmp,red,ending_scream,scream,ending,m,positive,positive,ES_red,1,m,685,1976094,1976598,1976802
41,third,44,streng,IAT_red1.bmp,red,ending_scream,scream,ending,c,negative,positive,ES_red,1,c,527,1978562,1979067,1979271
41,third,45,sanft,IAT_purple3.bmp,purple,starting_melody,melody,starting,m,positive,positive,ES_red,0,c,874,1980871,1981375,1981579
41,third,46,gerecht,IAT_yellow1.bmp,yellow,starting_scream,scream,starting,m,positive,negative,ES_red,1,m,809,1984027,1984531,1984735
41,third,47,morsch,IAT_red4.bmp,red,ending_scream,scream,ending,c,negative,positive,ES_red,1,c,595,1986619,1987123,1987327
41,third,48,gesund,IAT_green3.bmp,green,ending_melody,melody,ending,m,positive,negative,ES_red,0,None,1500,1988996,1989500,1989704
41,third,49,sonnig,IAT_purple1.bmp,purple,starting_melody,melody,starting,m,positive,positive,ES_red,1,m,463,1992779,1993283,1993487
41,third,50,schön,IAT_green3.bmp,green,ending_melody,melody,ending,m,positive,negative,ES_red,1,m,478,1995025,1995529,1995733
41,third,51,geizig,IAT_red2.bmp,red,ending_scream,scream,ending,c,negative,positive,ES_red,0,m,515,1997285,1997789,1997993
41,third,52,witzig,IAT_green4.bmp,green,ending_melody,melody,ending,m,positive,negative,ES_red,1,m,462,2000082,2000587,2000791
41,third,53,feige,IAT_green2.bmp,green,ending_melody,melody,ending,c,negative,negative,ES_red,1,c,556,2002327,2002831,2003035
41,third,54,brutal,IAT_yellow3.bmp,yellow,starting_scream,scream,starting,c,negative,negative,ES_red,1,c,436,2004666,2005170,2005374
41,third,55,lästig,IAT_purple4.bmp,purple,starting_melody,melody,starting,c,negative,positive,ES_red,1,c,524,2006884,2007388,2007592
41,third,56,gierig,IAT_green4.bmp,green,ending_melody,melody,ending,c,negative,negative,ES_red,1,c,499,2009190,2009695,2009899
41,third,57,krank,IAT_red2.bmp,red,ending_scream,scream,ending,c,negative,positive,ES_red,1,c,466,2011473,2011977,2012181
41,third,58,falsch,IAT_yellow4.bmp,yellow,starting_scream,scream,starting,c,negative,negative,ES_red,1,c,408,2013721,2014225,2014429
41,third,59,kaputt,IAT_green4.bmp,green,ending_melody,melody,ending,c,negative,negative,ES_red,1,c,486,2015911,2016416,2016620
41,third,60,human,IAT_yellow1.bmp,yellow,starting_scream,scream,starting,m,positive,negative,ES_red,1,m,573,2018181,2018685,2018889
41,third,61,morsch,IAT_yellow4.bmp,yellow,starting_scream,scream,starting,c,negative,negative,ES_red,1,c,616,2020537,2021041,2021245
41,third,62,lustig,IAT_green4.bmp,green,ending_melody,melody,ending,m,positive,negative,ES_red,1,m,482,2022935,2023439,2023643
41,third,63,gierig,IAT_purple4.bmp,purple,starting_melody,melody,starting,c,negative,positive,ES_red,1,c,593,2025200,2025705,2025909
41,third,64,teuer,IAT_green2.bmp,green,ending_melody,melody,ending,c,negative,negative,ES_red,1,c,590,2027576,2028080,2028284
41,third,65,gerecht,IAT_purple4.bmp,purple,starting_melody,melody,starting,m,positive,positive,ES_red,0,c,395,2029949,2030453,2030657
41,third,66,morsch,IAT_yellow3.bmp,yellow,starting_scream,scream,starting,c,negative,negative,ES_red,1,c,533,2032627,2033131,2033335
41,third,67,schön,IAT_purple1.bmp,purple,starting_melody,melody,starting,m,positive,positive,ES_red,1,m,544,2034943,2035448,2035652
41,third,68,lästig,IAT_red4.bmp,red,ending_scream,scream,ending,c,negative,positive,ES_red,1,c,665,2037270,2037775,2037979
41,third,69,sonnig,IAT_yellow4.bmp,yellow,starting_scream,scream,starting,m,positive,negative,ES_red,0,c,697,2039719,2040224,2040428
41,third,70,human,IAT_purple3.bmp,purple,starting_melody,melody,starting,m,positive,positive,ES_red,1,m,590,2042700,2043205,2043409
41,third,71,munter,IAT_yellow4.bmp,yellow,starting_scream,scream,starting,m,positive,negative,ES_red,1,m,1241,2045074,2045578,2045782
41,third,72,einsam,IAT_green4.bmp,green,ending_melody,melody,ending,c,negative,negative,ES_red,1,c,560,2048098,2048602,2048806
41,third,73,lustig,IAT_red2.bmp,red,ending_scream,scream,ending,m,positive,positive,ES_red,1,m,486,2050441,2050946,2051150
41,third,74,sozial,IAT_purple4.bmp,purple,starting_melody,melody,starting,m,positive,positive,ES_red,1,m,540,2052710,2053215,2053419
41,third,75,human,IAT_green1.bmp,green,ending_melody,melody,ending,m,positive,negative,ES_red,1,m,471,2055033,2055537,2055741
41,third,76,sanft,IAT_red4.bmp,red,ending_scream,scream,ending,m,positive,positive,ES_red,1,m,498,2057287,2057792,2057996
41,third,77,heiter,IAT_purple2.bmp,purple,starting_melody,melody,starting,m,positive,positive,ES_red,1,m,463,2059570,2060074,2060278
41,third,78,krank,IAT_purple2.bmp,purple,starting_melody,melody,starting,c,negative,positive,ES_red,1,c,516,2061815,2062320,2062524
41,third,79,brutal,IAT_yellow1.bmp,yellow,starting_scream,scream,starting,c,negative,negative,ES_red,1,c,463,2064116,2064620,2064824
41,third,80,witzig,IAT_yellow3.bmp,yellow,starting_scream,scream,starting,m,positive,negative,ES_red,1,m,516,2066361,2066865,2067069
41,third,81,sozial,IAT_green1.bmp,green,ending_melody,melody,ending,m,positive,negative,ES_red,1,m,535,2068660,2069164,2069368
41,third,82,kaputt,IAT_red1.bmp,red,ending_scream,scream,ending,c,negative,positive,ES_red,1,c,605,2070978,2071482,2071686
41,third,83,falsch,IAT_red4.bmp,red,ending_scream,scream,ending,c,negative,positive,ES_red,1,c,616,2073366,2073870,2074074
41,third,84,witzig,IAT_red3.bmp,red,ending_scream,scream,ending,m,positive,positive,ES_red,1,m,677,2075765,2076269,2076473
41,third,85,gierig,IAT_purple1.bmp,purple,starting_melody,melody,starting,c,negative,positive,ES_red,1,c,655,2078224,2078728,2078932
41,third,86,streng,IAT_yellow4.bmp,yellow,starting_scream,scream,starting,c,negative,negative,ES_red,1,c,689,2080662,2081166,2081370
41,third,87,morsch,IAT_purple2.bmp,purple,starting_melody,melody,starting,c,negative,positive,ES_red,1,c,1016,2083133,2083637,2083841
41,third,88,streng,IAT_purple2.bmp,purple,starting_melody,melody,starting,c,negative,positive,ES_red,1,c,456,2085932,2086436,2086640
41,third,89,lästig,IAT_green3.bmp,green,ending_melody,melody,ending,c,negative,negative,ES_red,1,c,586,2088171,2088675,2088879
41,third,90,munter,IAT_red4.bmp,red,ending_scream,scream,ending,m,positive,positive,ES_red,1,m,505,2090541,2091045,2091249
41,third,91,ehrlich,IAT_yellow1.bmp,yellow,starting_scream,scream,starting,m,positive,negative,ES_red,1,m,487,2092829,2093333,2093537
41,third,92,lustig,IAT_purple3.bmp,purple,starting_melody,melody,starting,m,positive,positive,ES_red,1,m,519,2095099,2095603,2095807
41,third,93,schön,IAT_yellow2.bmp,yellow,starting_scream,scream,starting,m,positive,negative,ES_red,1,m,832,2097401,2097906,2098110
41,third,94,streng,IAT_yellow4.bmp,yellow,starting_scream,scream,starting,c,negative,negative,ES_red,1,c,562,2100018,2100522,2100726
41,third,95,sozial,IAT_purple2.bmp,purple,starting_melody,melody,starting,m,positive,positive,ES_red,1,m,702,2102363,2102867,2103071
41,forth,0,krank,IAT_yellow1.bmp,yellow,starting_scream,scream,starting,c,negative,negative,ES_red,1,c,818,2117494,2117998,2118202
41,forth,1,gierig,IAT_yellow2.bmp,yellow,starting_scream,scream,starting,c,negative,negative,ES_red,1,c,406,2120095,2120599,2120803
41,forth,2,sonnig,IAT_yellow4.bmp,yellow,starting_scream,scream,starting,m,positive,negative,ES_red,1,m,549,2122283,2122787,2122991
41,forth,3,schön,IAT_red1.bmp,red,ending_scream,scream,ending,m,positive,positive,ES_red,1,m,351,2124614,2125118,2125322
41,forth,4,sozial,IAT_red1.bmp,red,ending_scream,scream,ending,m,positive,positive,ES_red,1,m,543,2126747,2127252,2127456
41,forth,5,morsch,IAT_green1.bmp,green,ending_melody,melody,ending,c,negative,negative,ES_red,1,c,462,2129072,2129576,2129780
41,forth,6,heiter,IAT_yellow1.bmp,yellow,starting_scream,scream,starting,m,positive,negative,ES_red,0,c,464,2131317,2131822,2132026
41,forth,7,gierig,IAT_purple2.bmp,purple,starting_melody,melody,starting,c,negative,positive,ES_red,1,c,368,2134065,2134569,2134773
41,forth,8,witzig,IAT_purple1.bmp,purple,starting_melody,melody,starting,m,positive,positive,ES_red,1,m,773,2136216,2136720,2136924
41,forth,9,lästig,IAT_purple4.bmp,purple,starting_melody,melody,starting,c,negative,positive,ES_red,1,c,1499,2138771,2139275,2139479
41,forth,10,kaputt,IAT_red3.bmp,red,ending_scream,scream,ending,c,negative,positive,ES_red,1,c,342,2142052,2142556,2142760
41,forth,11,sozial,IAT_green3.bmp,green,ending_melody,melody,ending,m,positive,negative,ES_red,1,m,448,2144178,2144682,2144886
41,forth,12,geizig,IAT_red1.bmp,red,ending_scream,scream,ending,c,negative,positive,ES_red,1,c,421,2146409,2146913,2147117
41,forth,13,lustig,IAT_red3.bmp,red,ending_scream,scream,ending,m,positive,positive,ES_red,1,m,444,2148613,2149117,2149321
41,forth,14,sanft,IAT_yellow2.bmp,yellow,starting_scream,scream,starting,m,positive,negative,ES_red,1,m,346,2150842,2151346,2151550
41,forth,15,streng,IAT_purple3.bmp,purple,starting_melody,melody,starting,c,negative,positive,ES_red,1,c,545,2152970,2153474,2153678
41,forth,16,feige,IAT_green2.bmp,green,ending_melody,melody,ending,c,negative,negative,ES_red,1,c,467,2155297,2155802,2156006
41,forth,17,munter,IAT_red3.bmp,red,ending_scream,scream,ending,m,positive,positive,ES_red,1,m,467,2157548,2158052,2158256
41,forth,18,lästig,IAT_yellow3.bmp,yellow,starting_scream,scream,starting,c,negative,negative,ES_red,1,c,598,2159797,2160301,2160505
41,forth,19,sanft,IAT_green1.bmp,green,ending_melody,melody,ending,m,positive,negative,ES_red,1,m,528,2162176,2162681,2162885
41,forth,20,schön,IAT_green4.bmp,green,ending_melody,melody,ending,m,positive,negative,ES_red,1,m,438,2164493,2164997,2165201
41,forth,21,falsch,IAT_yellow1.bmp,yellow,starting_scream,scream,starting,c,negative,negative,ES_red,1,c,525,2166714,2167218,2167422
41,forth,22,lustig,IAT_purple1.bmp,purple,starting_melody,melody,starting,m,positive,positive,ES_red,1,m,548,2169021,2169526,2169730
41,forth,23,feige,IAT_purple1.bmp,purple,starting_melody,melody,starting,c,negative,positive,ES_red,1,c,462,2171353,2171857,2172061
41,forth,24,heiter,IAT_purple1.bmp,purple,starting_melody,melody,starting,m,positive,positive,ES_red,1,m,549,2173598,2174103,2174307
41,forth,25,falsch,IAT_yellow3.bmp,yellow,starting_scream,scream,starting,c,negative,negative,ES_red,1,c,491,2175931,2176435,2176639
41,forth,26,krank,IAT_purple3.bmp,purple,starting_melody,melody,starting,c,negative,positive,ES_red,1,c,373,2178205,2178709,2178913
41,forth,27,brutal,IAT_red1.bmp,red,ending_scream,scream,ending,c,negative,positive,ES_red,1,c,451,2180360,2180864,2181068
41,forth,28,lästig,IAT_yellow4.bmp,yellow,starting_scream,scream,starting,c,negative,negative,ES_red,1,c,425,2182593,2183098,2183302
41,forth,29,munter,IAT_red4.bmp,red,ending_scream,scream,ending,m,positive,positive,ES_red,0,c,496,2184802,2185306,2185510
41,forth,30,witzig,IAT_yellow1.bmp,yellow,starting_scream,scream,starting,m,positive,negative,ES_red,1,m,1056,2187581,2188085,2188289
41,forth,31,einsam,IAT_green1.bmp,green,ending_melody,melody,ending,c,negative,negative,ES_red,1,c,650,2190420,2190925,2191129
41,forth,32,gesund,IAT_green1.bmp,green,ending_melody,melody,ending,m,positive,negative,ES_red,1,m,607,2192853,2193357,2193561
41,forth,33,schön,IAT_green2.bmp,green,ending_melody,melody,ending,m,positive,negative,ES_red,1,m,783,2195241,2195746,2195950
41,forth,34,gesund,IAT_yellow3.bmp,yellow,starting_scream,scream,starting,m,positive,negative,ES_red,1,m,449,2197808,2198312,2198516
41,forth,35,brutal,IAT_purple2.bmp,purple,starting_melody,melody,starting,c,negative,positive,ES_red,1,c,575,2200040,2200544,2200748
41,forth,36,ehrlich,IAT_green1.bmp,green,ending_melody,melody,ending,m,positive,negative,ES_red,1,m,483,2202396,2202901,2203105
41,forth,37,gerecht,IAT_green2.bmp,green,ending_melody,melody,ending,m,positive,negative,ES_red,1,m,730,2204663,2205167,2205371
41,forth,38,morsch,IAT_green2.bmp,green,ending_melody,melody,ending,c,negative,negative,ES_red,1,c,567,2207175,2207679,2207883
41,forth,39,geizig,IAT_yellow4.bmp,yellow,starting_scream,scream,starting,c,negative,negative,ES_red,1,c,846,2209524,2210028,2210232
41,forth,40,sozial,IAT_purple3.bmp,purple,starting_melody,melody,starting,m,positive,positive,ES_red,1,m,813,2212151,2212656,2212860
41,forth,41,sonnig,IAT_green4.bmp,green,ending_melody,melody,ending,m,positive,negative,ES_red,1,m,436,2214747,2215251,2215455
41,forth,42,gesund,IAT_yellow3.bmp,yellow,starting_scream,scream,starting,m,positive,negative,ES_red,1,m,545,2216966,2217470,2217674
41,forth,43,heiter,IAT_purple2.bmp,purple,starting_melody,melody,starting,m,positive,positive,ES_red,1,m,560,2219293,2219797,2220001
41,forth,44,gerecht,IAT_purple3.bmp,purple,starting_melody,melody,starting,m,positive,positive,ES_red,1,m,573,2221635,2222140,2222344
41,forth,45,kaputt,IAT_yellow4.bmp,yellow,starting_scream,scream,starting,c,negative,negative,ES_red,1,c,1019,2223992,2224496,2224700
41,forth,46,sonnig,IAT_yellow2.bmp,yellow,starting_scream,scream,starting,m,positive,negative,ES_red,1,m,500,2226794,2227298,2227502
41,forth,47,einsam,IAT_yellow4.bmp,yellow,starting_scream,scream,starting,c,negative,negative,ES_red,0,None,1500,2229077,2229582,2229786
41,forth,48,human,IAT_red2.bmp,red,ending_scream,scream,ending,m,positive,positive,ES_red,1,m,480,2233360,2233864,2234068
41,forth,49,sonnig,IAT_red3.bmp,red,ending_scream,scream,ending,m,positive,positive,ES_red,1,m,433,2235621,2236126,2236330
41,forth,50,teuer,IAT_yellow2.bmp,yellow,starting_scream,scream,starting,c,negative,negative,ES_red,0,m,612,2237839,2238343,2238547
41,forth,51,gerecht,IAT_yellow3.bmp,yellow,starting_scream,scream,starting,m,positive,negative,ES_red,1,m,513,2240732,2241237,2241441
41,forth,52,munter,IAT_purple4.bmp,purple,starting_melody,melody,starting,m,positive,positive,ES_red,1,m,497,2243029,2243533,2243737
41,forth,53,krank,IAT_red2.bmp,red,ending_scream,scream,ending,c,negative,positive,ES_red,1,c,457,2245309,2245813,2246017
41,forth,54,lustig,IAT_yellow1.bmp,yellow,starting_scream,scream,starting,m,positive,negative,ES_red,1,m,527,2247549,2248053,2248257
41,forth,55,human,IAT_purple3.bmp,purple,starting_melody,melody,starting,m,positive,positive,ES_red,1,m,526,2249859,2250363,2250567
41,forth,56,teuer,IAT_red2.bmp,red,ending_scream,scream,ending,c,negative,positive,ES_red,1,c,621,2252168,2252672,2252876
41,forth,57,lustig,IAT_red1.bmp,red,ending_scream,scream,ending,m,positive,positive,ES_red,1,m,488,2254572,2255076,2255280
41,forth,58,morsch,IAT_purple1.bmp,purple,starting_melody,melody,starting,c,negative,positive,ES_red,1,c,533,2256842,2257346,2257550
41,forth,59,gesund,IAT_purple1.bmp,purple,starting_melody,melody,starting,m,positive,positive,ES_red,1,m,670,2259158,2259662,2259866
41,forth,60,krank,IAT_purple2.bmp,purple,starting_melody,melody,starting,c,negative,positive,ES_red,1,c,528,2261611,2262115,2262319
41,forth,61,human,IAT_green1.bmp,green,ending_melody,melody,ending,m,positive,negative,ES_red,1,m,554,2263922,2264426,2264630
41,forth,62,sanft,IAT_red2.bmp,red,ending_scream,scream,ending,m,positive,positive,ES_red,1,m,523,2266259,2266763,2266967
41,forth,63,geizig,IAT_green4.bmp,green,ending_melody,melody,ending,c,negative,negative,ES_red,0,m,553,2268566,2269070,2269274
41,forth,64,gierig,IAT_purple4.bmp,purple,starting_melody,melody,starting,c,negative,positive,ES_red,1,c,1268,2271402,2271906,2272110
41,forth,65,ehrlich,IAT_purple2.bmp,purple,starting_melody,melody,starting,m,positive,positive,ES_red,1,m,589,2274454,2274958,2275162
41,forth,66,teuer,IAT_yellow2.bmp,yellow,starting_scream,scream,starting,c,negative,negative,ES_red,1,c,650,2276827,2277331,2277535
41,forth,67,munter,IAT_red4.bmp,red,ending_scream,scream,ending,m,positive,positive,ES_red,1,m,540,2279261,2279766,2279971
41,forth,68,ehrlich,IAT_green3.bmp,green,ending_melody,melody,ending,m,positive,negative,ES_red,1,m,431,2281586,2282090,2282294
41,forth,69,schön,IAT_green3.bmp,green,ending_melody,melody,ending,m,positive,negative,ES_red,1,m,360,2283801,2284306,2284510
41,forth,70,witzig,IAT_yellow4.bmp,yellow,starting_scream,scream,starting,m,positive,negative,ES_red,1,m,456,2285945,2286449,2286653
41,forth,71,human,IAT_green3.bmp,green,ending_melody,melody,ending,m,positive,negative,ES_red,1,m,406,2288184,2288688,2288892
41,forth,72,streng,IAT_green2.bmp,green,ending_melody,melody,ending,c,negative,negative,ES_red,1,c,698,2290372,2290876,2291080
41,forth,73,gierig,IAT_purple2.bmp,purple,starting_melody,melody,starting,c,negative,positive,ES_red,0,m,532,2292854,2293358,2293562
41,forth,74,brutal,IAT_green4.bmp,green,ending_melody,melody,ending,c,negative,negative,ES_red,1,c,653,2295669,2296173,2296377
41,forth,75,feige,IAT_red2.bmp,red,ending_scream,scream,ending,c,negative,positive,ES_red,1,c,564,2298105,2298609,2298813
41,forth,76,einsam,IAT_yellow2.bmp,yellow,starting_scream,scream,starting,c,negative,negative,ES_red,1,c,895,2300452,2300957,2301161
41,forth,77,sozial,IAT_yellow1.bmp,yellow,starting_scream,scream,starting,m,positive,negative,ES_red,1,m,504,2303131,2303635,2303839
41,forth,78,feige,IAT_green3.bmp,green,ending_melody,melody,ending,c,negative,negative,ES_red,1,c,978,2305419,2305923,2306127
41,forth,79,heiter,IAT_purple3.bmp,purple,starting_melody,melody,starting,m,positive,positive,ES_red,1,m,456,2308180,2308684,2308888
41,forth,80,lästig,IAT_green4.bmp,green,ending_melody,melody,ending,c,negative,negative,ES_red,1,c,519,2310420,2310924,2311128
41,forth,81,gerecht,IAT_yellow3.bmp,yellow,starting_scream,scream,starting,m,positive,negative,ES_red,1,m,584,2312724,2313228,2313432
41,forth,82,brutal,IAT_red4.bmp,red,ending_scream,scream,ending,c,negative,positive,ES_red,0,m,513,2315091,2315595,2315799
41,forth,83,teuer,IAT_red3.bmp,red,ending_scream,scream,ending,c,negative,positive,ES_red,1,c,494,2317887,2318391,2318595
41,forth,84,streng,IAT_purple4.bmp,purple,starting_melody,melody,starting,c,negative,positive,ES_red,1,c,766,2320164,2320668,2320872
41,forth,85,sanft,IAT_red1.bmp,red,ending_scream,scream,ending,m,positive,positive,ES_red,1,m,461,2322713,2323217,2323421
41,forth,86,ehrlich,IAT_red3.bmp,red,ending_scream,scream,ending,m,positive,positive,ES_red,1,m,1302,2324957,2325461,2325665
41,forth,87,kaputt,IAT_green2.bmp,green,ending_melody,melody,ending,c,negative,negative,ES_red,1,c,719,2328041,2328546,2328750
41,forth,88,falsch,IAT_red4.bmp,red,ending_scream,scream,ending,c,negative,positive,ES_red,0,None,1500,2330544,2331048,2331252
41,forth,89,einsam,IAT_green4.bmp,green,ending_melody,melody,ending,c,negative,negative,ES_red,1,c,685,2334827,2335331,2335535
41,forth,90,witzig,IAT_purple4.bmp,purple,starting_melody,melody,starting,m,positive,positive,ES_red,1,m,515,2337295,2337799,2338003
41,forth,91,streng,IAT_red4.bmp,red,ending_scream,scream,ending,c,negative,positive,ES_red,1,c,500,2339593,2340097,2340301
41,forth,92,kaputt,IAT_green3.bmp,green,ending_melody,melody,ending,c,negative,negative,ES_red,1,c,569,2341876,2342380,2342584
41,forth,93,falsch,IAT_purple4.bmp,purple,starting_melody,melody,starting,c,negative,positive,ES_red,1,c,512,2344227,2344731,2344935
41,forth,94,geizig,IAT_red4.bmp,red,ending_scream,scream,ending,c,negative,positive,ES_red,0,m,510,2346521,2347026,2347230
41,forth,95,morsch,IAT_red2.bmp,red,ending_scream,scream,ending,c,negative,positive,ES_red,1,c,514,2349315,2349819,2350023
