subject_nr,block,trialnr,trial_target,trial_prime,prime_color,prime_role,prime_us,prime_relation,correct_response,target_valence,prime_valence,color_counter,correct_first_response,response_first_response,response_time_first_response,fixation_show,prime_show,target_show
91,first,0,einsam,IAT_yellow1.bmp,yellow,starting_melody,melody,starting,c,negative,positive,ES_green,1,c,804,1479055,1479559,1479763
91,first,1,geizig,IAT_green2.bmp,green,ending_scream,scream,ending,c,negative,positive,ES_green,1,c,567,1481643,1482147,1482351
91,first,2,sonnig,IAT_yellow3.bmp,yellow,starting_melody,melody,starting,m,positive,positive,ES_green,1,m,498,1483992,1484497,1484701
91,first,3,lustig,IAT_green2.bmp,green,ending_scream,scream,ending,m,positive,positive,ES_green,1,m,435,1486273,1486777,1486981
91,first,4,falsch,IAT_yellow4.bmp,yellow,starting_melody,melody,starting,c,negative,positive,ES_green,1,c,498,1488489,1488993,1489197
91,first,5,sanft,IAT_green4.bmp,green,ending_scream,scream,ending,m,positive,positive,ES_green,0,c,458,1490767,1491271,1491475
91,first,6,schön,IAT_yellow1.bmp,yellow,starting_melody,melody,starting,m,positive,positive,ES_green,1,m,796,1493507,1494012,1494216
91,first,7,feige,IAT_yellow4.bmp,yellow,starting_melody,melody,starting,c,negative,positive,ES_green,1,c,514,1496086,1496590,1496794
91,first,8,gierig,IAT_yellow1.bmp,yellow,starting_melody,melody,starting,c,negative,positive,ES_green,1,c,524,1498381,1498885,1499089
91,first,9,sanft,IAT_red3.bmp,red,ending_melody,melody,ending,m,positive,negative,ES_green,1,m,596,1500686,1501190,1501394
91,first,10,sozial,IAT_green3.bmp,green,ending_scream,scream,ending,m,positive,positive,ES_green,0,c,526,1503065,1503569,1503773
91,first,11,lustig,IAT_purple4.bmp,purple,starting_scream,scream,starting,m,positive,negative,ES_green,1,m,1372,1505872,1506376,1506580
91,first,12,sanft,IAT_red1.bmp,red,ending_melody,melody,ending,m,positive,negative,ES_green,1,m,427,1509025,1509530,1509734
91,first,13,morsch,IAT_red2.bmp,red,ending_melody,melody,ending,c,negative,negative,ES_green,1,c,471,1511235,1511739,1511943
91,first,14,geizig,IAT_purple2.bmp,purple,starting_scream,scream,starting,c,negative,negative,ES_green,1,c,377,1513488,1513992,1514197
91,first,15,munter,IAT_yellow3.bmp,yellow,starting_melody,melody,starting,m,positive,positive,ES_green,1,m,427,1515647,1516151,1516355
91,first,16,schön,IAT_red4.bmp,red,ending_melody,melody,ending,m,positive,negative,ES_green,1,m,445,1517855,1518359,1518563
91,first,17,ehrlich,IAT_green2.bmp,green,ending_scream,scream,ending,m,positive,positive,ES_green,0,c,482,1520082,1520586,1520790
91,first,18,feige,IAT_green2.bmp,green,ending_scream,scream,ending,c,negative,positive,ES_green,1,c,680,1522844,1523349,1523553
91,first,19,gierig,IAT_yellow4.bmp,yellow,starting_melody,melody,starting,c,negative,positive,ES_green,0,m,490,1525307,1525811,1526015
91,first,20,munter,IAT_yellow2.bmp,yellow,starting_melody,melody,starting,m,positive,positive,ES_green,1,m,509,1528079,1528583,1528787
91,first,21,feige,IAT_purple4.bmp,purple,starting_scream,scream,starting,c,negative,negative,ES_green,0,m,444,1530369,1530873,1531077
91,first,22,gesund,IAT_purple4.bmp,purple,starting_scream,scream,starting,m,positive,negative,ES_green,1,m,547,1533095,1533599,1533803
91,first,23,morsch,IAT_purple1.bmp,purple,starting_scream,scream,starting,c,negative,negative,ES_green,1,c,599,1535425,1535929,1536133
91,first,24,gerecht,IAT_green3.bmp,green,ending_scream,scream,ending,m,positive,positive,ES_green,1,m,514,1537806,1538310,1538514
91,first,25,krank,IAT_green3.bmp,green,ending_scream,scream,ending,c,negative,positive,ES_green,1,c,477,1540102,1540606,1540810
91,first,26,schön,IAT_yellow4.bmp,yellow,starting_melody,melody,starting,m,positive,positive,ES_green,1,m,381,1542361,1542865,1543069
91,first,27,lästig,IAT_green1.bmp,green,ending_scream,scream,ending,c,negative,positive,ES_green,1,c,474,1544524,1545028,1545232
91,first,28,falsch,IAT_yellow2.bmp,yellow,starting_melody,melody,starting,c,negative,positive,ES_green,1,c,522,1546780,1547284,1547488
91,first,29,teuer,IAT_red3.bmp,red,ending_melody,melody,ending,c,negative,negative,ES_green,1,c,451,1549084,1549588,1549792
91,first,30,einsam,IAT_green1.bmp,green,ending_scream,scream,ending,c,negative,positive,ES_green,0,m,481,1551316,1551821,1552025
91,first,31,brutal,IAT_green3.bmp,green,ending_scream,scream,ending,c,negative,positive,ES_green,0,m,596,1554080,1554584,1554788
91,first,32,heiter,IAT_purple2.bmp,purple,starting_scream,scream,starting,m,positive,negative,ES_green,1,m,608,1556957,1557461,1557665
91,first,33,teuer,IAT_purple4.bmp,purple,starting_scream,scream,starting,c,negative,negative,ES_green,1,c,624,1559347,1559852,1560056
91,first,34,sonnig,IAT_purple1.bmp,purple,starting_scream,scream,starting,m,positive,negative,ES_green,1,m,698,1561753,1562257,1562461
91,first,35,kaputt,IAT_yellow2.bmp,yellow,starting_melody,melody,starting,c,negative,positive,ES_green,0,m,1358,1564234,1564738,1564942
91,first,36,lustig,IAT_yellow2.bmp,yellow,starting_melody,melody,starting,m,positive,positive,ES_green,1,m,572,1567875,1568379,1568583
91,first,37,gesund,IAT_yellow4.bmp,yellow,starting_melody,melody,starting,m,positive,positive,ES_green,1,m,623,1570228,1570732,1570936
91,first,38,human,IAT_red1.bmp,red,ending_melody,melody,ending,m,positive,negative,ES_green,1,m,564,1572633,1573138,1573342
91,first,39,streng,IAT_purple3.bmp,purple,starting_scream,scream,starting,c,negative,negative,ES_green,1,c,575,1574980,1575484,1575688
91,first,40,heiter,IAT_purple3.bmp,purple,starting_scream,scream,starting,m,positive,negative,ES_green,1,m,665,1577336,1577840,1578044
91,first,41,einsam,IAT_purple3.bmp,purple,starting_scream,scream,starting,c,negative,negative,ES_green,1,c,589,1579783,1580287,1580491
91,first,42,witzig,IAT_red3.bmp,red,ending_melody,melody,ending,m,positive,negative,ES_green,1,m,583,1582155,1582659,1582863
91,first,43,gesund,IAT_red3.bmp,red,ending_melody,melody,ending,m,positive,negative,ES_green,1,m,836,1584520,1585024,1585228
91,first,44,munter,IAT_red1.bmp,red,ending_melody,melody,ending,m,positive,negative,ES_green,1,m,478,1587137,1587641,1587845
91,first,45,geizig,IAT_yellow2.bmp,yellow,starting_melody,melody,starting,c,negative,positive,ES_green,1,c,553,1589396,1589900,1590104
91,first,46,gerecht,IAT_yellow1.bmp,yellow,starting_melody,melody,starting,m,positive,positive,ES_green,1,m,821,1591731,1592236,1592440
91,first,47,lästig,IAT_green4.bmp,green,ending_scream,scream,ending,c,negative,positive,ES_green,1,c,478,1594335,1594839,1595043
91,first,48,streng,IAT_red4.bmp,red,ending_melody,melody,ending,c,negative,negative,ES_green,1,c,555,1596595,1597099,1597303
91,first,49,lustig,IAT_purple3.bmp,purple,starting_scream,scream,starting,m,positive,negative,ES_green,1,m,503,1598932,1599437,1599641
91,first,50,teuer,IAT_purple4.bmp,purple,starting_scream,scream,starting,c,negative,negative,ES_green,1,c,427,1601216,1601720,1601924
91,first,51,sozial,IAT_green1.bmp,green,ending_scream,scream,ending,m,positive,positive,ES_green,1,m,508,1603425,1603929,1604133
91,first,52,morsch,IAT_red2.bmp,red,ending_melody,melody,ending,c,negative,negative,ES_green,1,c,439,1605715,1606220,1606424
91,first,53,human,IAT_yellow1.bmp,yellow,starting_melody,melody,starting,m,positive,positive,ES_green,1,m,508,1607937,1608442,1608647
91,first,54,sanft,IAT_red1.bmp,red,ending_melody,melody,ending,m,positive,negative,ES_green,0,c,322,1610227,1610732,1610937
91,first,55,lästig,IAT_yellow4.bmp,yellow,starting_melody,melody,starting,c,negative,positive,ES_green,1,c,518,1612834,1613338,1613542
91,first,56,kaputt,IAT_purple1.bmp,purple,starting_scream,scream,starting,c,negative,negative,ES_green,1,c,478,1615134,1615638,1615842
91,first,57,teuer,IAT_yellow3.bmp,yellow,starting_melody,melody,starting,c,negative,positive,ES_green,1,c,488,1617394,1617898,1618102
91,first,58,gesund,IAT_green4.bmp,green,ending_scream,scream,ending,m,positive,positive,ES_green,1,m,455,1619664,1620168,1620372
91,first,59,feige,IAT_red4.bmp,red,ending_melody,melody,ending,c,negative,negative,ES_green,1,c,467,1621901,1622406,1622610
91,first,60,kaputt,IAT_green4.bmp,green,ending_scream,scream,ending,c,negative,positive,ES_green,0,m,447,1624151,1624655,1624859
91,first,61,krank,IAT_purple2.bmp,purple,starting_scream,scream,starting,c,negative,negative,ES_green,1,c,463,1626880,1627384,1627588
91,first,62,human,IAT_purple2.bmp,purple,starting_scream,scream,starting,m,positive,negative,ES_green,1,m,502,1629125,1629629,1629833
91,first,63,witzig,IAT_red3.bmp,red,ending_melody,melody,ending,m,positive,negative,ES_green,1,m,500,1631410,1631914,1632118
91,first,64,schön,IAT_purple1.bmp,purple,starting_scream,scream,starting,m,positive,negative,ES_green,1,m,360,1633692,1634196,1634400
91,first,65,sonnig,IAT_purple3.bmp,purple,starting_scream,scream,starting,m,positive,negative,ES_green,1,m,426,1635834,1636339,1636543
91,first,66,heiter,IAT_red4.bmp,red,ending_melody,melody,ending,m,positive,negative,ES_green,1,m,383,1638044,1638548,1638752
91,first,67,ehrlich,IAT_green1.bmp,green,ending_scream,scream,ending,m,positive,positive,ES_green,1,m,353,1640209,1640713,1640917
91,first,68,witzig,IAT_purple1.bmp,purple,starting_scream,scream,starting,m,positive,negative,ES_green,1,m,326,1642344,1642849,1643053
91,first,69,kaputt,IAT_green2.bmp,green,ending_scream,scream,ending,c,negative,positive,ES_green,1,c,517,1644453,1644957,1645161
91,first,70,human,IAT_yellow3.bmp,yellow,starting_melody,melody,starting,m,positive,positive,ES_green,1,m,543,1646752,1647257,1647461
91,first,71,heiter,IAT_red2.bmp,red,ending_melody,melody,ending,m,positive,negative,ES_green,1,m,468,1649078,1649582,1649786
91,first,72,sozial,IAT_green3.bmp,green,ending_scream,scream,ending,m,positive,positive,ES_green,1,m,470,1651328,1651833,1652037
91,first,73,munter,IAT_green3.bmp,green,ending_scream,scream,ending,m,positive,positive,ES_green,1,m,381,1653581,1654085,1654289
91,first,74,einsam,IAT_purple2.bmp,purple,starting_scream,scream,starting,c,negative,negative,ES_green,1,c,449,1655744,1656249,1656453
91,first,75,krank,IAT_green2.bmp,green,ending_scream,scream,ending,c,negative,positive,ES_green,1,c,385,1657976,1658480,1658684
91,first,76,witzig,IAT_green1.bmp,green,ending_scream,scream,ending,m,positive,positive,ES_green,1,m,396,1660144,1660648,1660852
91,first,77,ehrlich,IAT_green1.bmp,green,ending_scream,scream,ending,m,positive,positive,ES_green,1,m,526,1662322,1662827,1663031
91,first,78,falsch,IAT_yellow2.bmp,yellow,starting_melody,melody,starting,c,negative,positive,ES_green,1,c,501,1664631,1665135,1665339
91,first,79,gerecht,IAT_purple1.bmp,purple,starting_scream,scream,starting,m,positive,negative,ES_green,1,m,527,1666915,1667419,1667623
91,first,80,sonnig,IAT_purple3.bmp,purple,starting_scream,scream,starting,m,positive,negative,ES_green,1,m,525,1669224,1669728,1669932
91,first,81,sozial,IAT_yellow1.bmp,yellow,starting_melody,melody,starting,m,positive,positive,ES_green,1,m,537,1671531,1672035,1672239
91,first,82,krank,IAT_green4.bmp,green,ending_scream,scream,ending,c,negative,positive,ES_green,1,c,394,1673850,1674354,1674558
91,first,83,gerecht,IAT_yellow3.bmp,yellow,starting_melody,melody,starting,m,positive,positive,ES_green,1,m,499,1676026,1676530,1676734
91,first,84,morsch,IAT_red1.bmp,red,ending_melody,melody,ending,c,negative,negative,ES_green,1,c,473,1678307,1678811,1679015
91,first,85,gierig,IAT_red3.bmp,red,ending_melody,melody,ending,c,negative,negative,ES_green,1,c,763,1680564,1681068,1681272
91,first,86,geizig,IAT_red1.bmp,red,ending_melody,melody,ending,c,negative,negative,ES_green,1,c,419,1683111,1683615,1683819
91,first,87,streng,IAT_red2.bmp,red,ending_melody,melody,ending,c,negative,negative,ES_green,1,c,397,1685312,1685816,1686020
91,first,88,brutal,IAT_yellow3.bmp,yellow,starting_melody,melody,starting,c,negative,positive,ES_green,1,c,562,1687491,1687995,1688199
91,first,89,falsch,IAT_purple4.bmp,purple,starting_scream,scream,starting,c,negative,negative,ES_green,1,c,428,1689835,1690339,1690543
91,first,90,lästig,IAT_purple2.bmp,purple,starting_scream,scream,starting,c,negative,negative,ES_green,1,c,345,1692045,1692550,1692754
91,first,91,streng,IAT_green4.bmp,green,ending_scream,scream,ending,c,negative,positive,ES_green,1,c,419,1694173,1694677,1694881
91,first,92,brutal,IAT_red4.bmp,red,ending_melody,melody,ending,c,negative,negative,ES_green,1,c,665,1696375,1696879,1697083
91,first,93,gierig,IAT_red2.bmp,red,ending_melody,melody,ending,c,negative,negative,ES_green,1,c,354,1698823,1699327,1699531
91,first,94,ehrlich,IAT_red2.bmp,red,ending_melody,melody,ending,m,positive,negative,ES_green,1,m,624,1700959,1701463,1701667
91,first,95,brutal,IAT_red4.bmp,red,ending_melody,melody,ending,c,negative,negative,ES_green,1,c,484,1703365,1703870,1704074
91,second,0,gerecht,IAT_purple4.bmp,purple,starting_scream,scream,starting,m,positive,negative,ES_green,1,m,634,1809087,1809592,1809796
91,second,1,geizig,IAT_red2.bmp,red,ending_melody,melody,ending,c,negative,negative,ES_green,1,c,526,1811505,1812009,1812213
91,second,2,einsam,IAT_yellow4.bmp,yellow,starting_melody,melody,starting,c,negative,positive,ES_green,0,m,417,1813814,1814318,1814522
91,second,3,heiter,IAT_purple2.bmp,purple,starting_scream,scream,starting,m,positive,negative,ES_green,1,m,536,1816515,1817019,1817223
91,second,4,brutal,IAT_purple4.bmp,purple,starting_scream,scream,starting,c,negative,negative,ES_green,1,c,452,1818833,1819337,1819541
91,second,5,ehrlich,IAT_red1.bmp,red,ending_melody,melody,ending,m,positive,negative,ES_green,1,m,491,1821066,1821570,1821774
91,second,6,kaputt,IAT_purple2.bmp,purple,starting_scream,scream,starting,c,negative,negative,ES_green,1,c,399,1823339,1823844,1824048
91,second,7,krank,IAT_purple4.bmp,purple,starting_scream,scream,starting,c,negative,negative,ES_green,1,c,826,1825520,1826024,1826228
91,second,8,gerecht,IAT_purple1.bmp,purple,starting_scream,scream,starting,m,positive,negative,ES_green,1,m,458,1828128,1828633,1828837
91,second,9,sanft,IAT_yellow3.bmp,yellow,starting_melody,melody,starting,m,positive,positive,ES_green,0,c,409,1830369,1830874,1831078
91,second,10,geizig,IAT_purple2.bmp,purple,starting_scream,scream,starting,c,negative,negative,ES_green,1,c,1235,1833061,1833565,1833769
91,second,11,einsam,IAT_red3.bmp,red,ending_melody,melody,ending,c,negative,negative,ES_green,1,c,557,1836077,1836581,1836785
91,second,12,sozial,IAT_red3.bmp,red,ending_melody,melody,ending,m,positive,negative,ES_green,1,m,514,1838416,1838920,1839124
91,second,13,munter,IAT_yellow3.bmp,yellow,starting_melody,melody,starting,m,positive,positive,ES_green,1,m,589,1840712,1841216,1841420
91,second,14,streng,IAT_green4.bmp,green,ending_scream,scream,ending,c,negative,positive,ES_green,1,c,364,1843083,1843588,1843792
91,second,15,kaputt,IAT_green3.bmp,green,ending_scream,scream,ending,c,negative,positive,ES_green,1,c,346,1845229,1845734,1845938
91,second,16,krank,IAT_red4.bmp,red,ending_melody,melody,ending,c,negative,negative,ES_green,1,c,465,1847358,1847862,1848066
91,second,17,kaputt,IAT_yellow2.bmp,yellow,starting_melody,melody,starting,c,negative,positive,ES_green,1,c,518,1849605,1850109,1850313
91,second,18,heiter,IAT_purple3.bmp,purple,starting_scream,scream,starting,m,positive,negative,ES_green,1,m,525,1851905,1852409,1852613
91,second,19,feige,IAT_yellow3.bmp,yellow,starting_melody,melody,starting,c,negative,positive,ES_green,1,c,502,1854212,1854716,1854920
91,second,20,gerecht,IAT_red1.bmp,red,ending_melody,melody,ending,m,positive,negative,ES_green,1,m,491,1856495,1856999,1857203
91,second,21,brutal,IAT_yellow1.bmp,yellow,starting_melody,melody,starting,c,negative,positive,ES_green,1,c,565,1858768,1859272,1859476
91,second,22,gesund,IAT_yellow1.bmp,yellow,starting_melody,melody,starting,m,positive,positive,ES_green,1,m,646,1861115,1861619,1861823
91,second,23,schön,IAT_green2.bmp,green,ending_scream,scream,ending,m,positive,positive,ES_green,1,m,533,1863543,1864047,1864251
91,second,24,sanft,IAT_purple1.bmp,purple,starting_scream,scream,starting,m,positive,negative,ES_green,0,c,588,1865859,1866363,1866567
91,second,25,sonnig,IAT_green1.bmp,green,ending_scream,scream,ending,m,positive,positive,ES_green,1,m,619,1868729,1869233,1869437
91,second,26,gierig,IAT_green2.bmp,green,ending_scream,scream,ending,c,negative,positive,ES_green,1,c,466,1871129,1871633,1871837
91,second,27,geizig,IAT_yellow4.bmp,yellow,starting_melody,melody,starting,c,negative,positive,ES_green,1,c,592,1873378,1873882,1874087
91,second,28,streng,IAT_red1.bmp,red,ending_melody,melody,ending,c,negative,negative,ES_green,1,c,520,1875753,1876257,1876461
91,second,29,teuer,IAT_purple1.bmp,purple,starting_scream,scream,starting,c,negative,negative,ES_green,1,c,1013,1878055,1878560,1878764
91,second,30,human,IAT_green1.bmp,green,ending_scream,scream,ending,m,positive,positive,ES_green,1,m,1229,1880850,1881355,1881559
91,second,31,falsch,IAT_green4.bmp,green,ending_scream,scream,ending,c,negative,positive,ES_green,1,c,921,1883862,1884366,1884570
91,second,32,munter,IAT_green4.bmp,green,ending_scream,scream,ending,m,positive,positive,ES_green,1,m,551,1886565,1887069,1887273
91,second,33,lästig,IAT_red2.bmp,red,ending_melody,melody,ending,c,negative,negative,ES_green,1,c,633,1888899,1889403,1889607
91,second,34,geizig,IAT_red3.bmp,red,ending_melody,melody,ending,c,negative,negative,ES_green,1,c,596,1891313,1891817,1892021
91,second,35,lästig,IAT_purple2.bmp,purple,starting_scream,scream,starting,c,negative,negative,ES_green,1,c,546,1893691,1894195,1894399
91,second,36,morsch,IAT_red2.bmp,red,ending_melody,melody,ending,c,negative,negative,ES_green,1,c,671,1896020,1896524,1896728
91,second,37,krank,IAT_red4.bmp,red,ending_melody,melody,ending,c,negative,negative,ES_green,1,c,553,1898474,1898978,1899182
91,second,38,ehrlich,IAT_red4.bmp,red,ending_melody,melody,ending,m,positive,negative,ES_green,1,m,757,1900809,1901313,1901517
91,second,39,schön,IAT_purple3.bmp,purple,starting_scream,scream,starting,m,positive,negative,ES_green,1,m,875,1903348,1903852,1904056
91,second,40,falsch,IAT_purple4.bmp,purple,starting_scream,scream,starting,c,negative,negative,ES_green,1,c,461,1906004,1906509,1906713
91,second,41,lästig,IAT_green3.bmp,green,ending_scream,scream,ending,c,negative,positive,ES_green,1,c,470,1908248,1908752,1908957
91,second,42,munter,IAT_yellow3.bmp,yellow,starting_melody,melody,starting,m,positive,positive,ES_green,1,m,399,1910501,1911005,1911209
91,second,43,heiter,IAT_yellow1.bmp,yellow,starting_melody,melody,starting,m,positive,positive,ES_green,1,m,617,1912684,1913188,1913392
91,second,44,sonnig,IAT_green3.bmp,green,ending_scream,scream,ending,m,positive,positive,ES_green,1,m,393,1915085,1915589,1915793
91,second,45,brutal,IAT_green2.bmp,green,ending_scream,scream,ending,c,negative,positive,ES_green,0,m,384,1917259,1917763,1917967
91,second,46,sanft,IAT_purple1.bmp,purple,starting_scream,scream,starting,m,positive,negative,ES_green,1,m,400,1919926,1920430,1920634
91,second,47,streng,IAT_yellow2.bmp,yellow,starting_melody,melody,starting,c,negative,positive,ES_green,1,c,526,1922108,1922612,1922817
91,second,48,teuer,IAT_purple3.bmp,purple,starting_scream,scream,starting,c,negative,negative,ES_green,0,m,588,1924416,1924920,1925124
91,second,49,schön,IAT_green3.bmp,green,ending_scream,scream,ending,m,positive,positive,ES_green,1,m,507,1927286,1927790,1927994
91,second,50,lustig,IAT_purple3.bmp,purple,starting_scream,scream,starting,m,positive,negative,ES_green,1,m,544,1929575,1930079,1930283
91,second,51,morsch,IAT_purple4.bmp,purple,starting_scream,scream,starting,c,negative,negative,ES_green,1,c,597,1931901,1932406,1932610
91,second,52,sozial,IAT_purple2.bmp,purple,starting_scream,scream,starting,m,positive,negative,ES_green,1,m,553,1934281,1934785,1934989
91,second,53,feige,IAT_purple1.bmp,purple,starting_scream,scream,starting,c,negative,negative,ES_green,1,c,1060,1936616,1937120,1937324
91,second,54,heiter,IAT_green3.bmp,green,ending_scream,scream,ending,m,positive,positive,ES_green,1,m,436,1939459,1939964,1940168
91,second,55,human,IAT_red2.bmp,red,ending_melody,melody,ending,m,positive,negative,ES_green,1,m,558,1941677,1942182,1942387
91,second,56,gerecht,IAT_green2.bmp,green,ending_scream,scream,ending,m,positive,positive,ES_green,1,m,484,1944020,1944525,1944729
91,second,57,witzig,IAT_green4.bmp,green,ending_scream,scream,ending,m,positive,positive,ES_green,1,m,415,1946286,1946790,1946994
91,second,58,lustig,IAT_green1.bmp,green,ending_scream,scream,ending,m,positive,positive,ES_green,1,m,462,1948483,1948987,1949191
91,second,59,einsam,IAT_purple2.bmp,purple,starting_scream,scream,starting,c,negative,negative,ES_green,1,c,521,1950727,1951231,1951435
91,second,60,gierig,IAT_yellow1.bmp,yellow,starting_melody,melody,starting,c,negative,positive,ES_green,1,c,525,1953030,1953535,1953739
91,second,61,streng,IAT_green4.bmp,green,ending_scream,scream,ending,c,negative,positive,ES_green,0,m,462,1955338,1955842,1956046
91,second,62,sonnig,IAT_red3.bmp,red,ending_melody,melody,ending,m,positive,negative,ES_green,0,c,432,1958083,1958587,1958791
91,second,63,lustig,IAT_green1.bmp,green,ending_scream,scream,ending,m,positive,positive,ES_green,1,m,407,1960796,1961300,1961504
91,second,64,teuer,IAT_red1.bmp,red,ending_melody,melody,ending,c,negative,negative,ES_green,1,c,325,1962986,1963490,1963694
91,second,65,human,IAT_yellow3.bmp,yellow,starting_melody,melody,starting,m,positive,positive,ES_green,1,m,501,1965094,1965599,1965803
91,second,66,feige,IAT_green1.bmp,green,ending_scream,scream,ending,c,negative,positive,ES_green,0,m,359,1967378,1967882,1968086
91,second,67,kaputt,IAT_green4.bmp,green,ending_scream,scream,ending,c,negative,positive,ES_green,0,m,1004,1970020,1970525,1970729
91,second,68,gesund,IAT_purple3.bmp,purple,starting_scream,scream,starting,m,positive,negative,ES_green,1,m,836,1973306,1973810,1974014
91,second,69,falsch,IAT_green2.bmp,green,ending_scream,scream,ending,c,negative,positive,ES_green,1,c,321,1975924,1976428,1976632
91,second,70,einsam,IAT_yellow3.bmp,yellow,starting_melody,melody,starting,c,negative,positive,ES_green,1,c,507,1978027,1978531,1978735
91,second,71,brutal,IAT_green1.bmp,green,ending_scream,scream,ending,c,negative,positive,ES_green,1,c,569,1980316,1980821,1981025
91,second,72,schön,IAT_red1.bmp,red,ending_melody,melody,ending,m,positive,negative,ES_green,1,m,421,1982668,1983172,1983376
91,second,73,morsch,IAT_yellow2.bmp,yellow,starting_melody,melody,starting,c,negative,positive,ES_green,1,c,473,1984872,1985376,1985580
91,second,74,krank,IAT_red4.bmp,red,ending_melody,melody,ending,c,negative,negative,ES_green,1,c,462,1987128,1987632,1987836
91,second,75,gierig,IAT_red2.bmp,red,ending_melody,melody,ending,c,negative,negative,ES_green,1,c,697,1989373,1989877,1990081
91,second,76,morsch,IAT_yellow4.bmp,yellow,starting_melody,melody,starting,c,negative,positive,ES_green,0,m,700,1991853,1992357,1992561
91,second,77,munter,IAT_red3.bmp,red,ending_melody,melody,ending,m,positive,negative,ES_green,1,m,520,1994836,1995340,1995544
91,second,78,sozial,IAT_yellow1.bmp,yellow,starting_melody,melody,starting,m,positive,positive,ES_green,1,m,587,1997139,1997644,1997848
91,second,79,ehrlich,IAT_red2.bmp,red,ending_melody,melody,ending,m,positive,negative,ES_green,1,m,452,1999509,2000013,2000217
91,second,80,gesund,IAT_purple1.bmp,purple,starting_scream,scream,starting,m,positive,negative,ES_green,1,m,452,2001745,2002249,2002453
91,second,81,witzig,IAT_yellow1.bmp,yellow,starting_melody,melody,starting,m,positive,positive,ES_green,1,m,481,2003980,2004484,2004689
91,second,82,gierig,IAT_yellow4.bmp,yellow,starting_melody,melody,starting,c,negative,positive,ES_green,0,m,369,2006245,2006749,2006953
91,second,83,lustig,IAT_yellow4.bmp,yellow,starting_melody,melody,starting,m,positive,positive,ES_green,1,m,633,2008896,2009401,2009605
91,second,84,lästig,IAT_yellow2.bmp,yellow,starting_melody,melody,starting,c,negative,positive,ES_green,0,m,318,2011314,2011818,2012022
91,second,85,witzig,IAT_red3.bmp,red,ending_melody,melody,ending,m,positive,negative,ES_green,1,m,411,2013914,2014419,2014623
91,second,86,ehrlich,IAT_yellow2.bmp,yellow,starting_melody,melody,starting,m,positive,positive,ES_green,1,m,569,2016109,2016614,2016818
91,second,87,sanft,IAT_red4.bmp,red,ending_melody,melody,ending,m,positive,negative,ES_green,1,m,504,2018463,2018967,2019171
91,second,88,feige,IAT_red4.bmp,red,ending_melody,melody,ending,c,negative,negative,ES_green,1,c,470,2020750,2021254,2021458
91,second,89,gesund,IAT_yellow2.bmp,yellow,starting_melody,melody,starting,m,positive,positive,ES_green,1,m,421,2023003,2023507,2023711
91,second,90,teuer,IAT_green2.bmp,green,ending_scream,scream,ending,c,negative,positive,ES_green,1,c,651,2025208,2025712,2025917
91,second,91,sozial,IAT_green3.bmp,green,ending_scream,scream,ending,m,positive,positive,ES_green,1,m,509,2027643,2028147,2028351
91,second,92,sonnig,IAT_purple4.bmp,purple,starting_scream,scream,starting,m,positive,negative,ES_green,1,m,591,2029934,2030438,2030642
91,second,93,witzig,IAT_red1.bmp,red,ending_melody,melody,ending,m,positive,negative,ES_green,1,m,491,2032308,2032813,2033018
91,second,94,falsch,IAT_purple3.bmp,purple,starting_scream,scream,starting,c,negative,negative,ES_green,1,c,766,2034585,2035090,2035294
91,second,95,human,IAT_yellow4.bmp,yellow,starting_melody,melody,starting,m,positive,positive,ES_green,1,m,491,2037135,2037639,2037843
91,third,0,gesund,IAT_red1.bmp,red,ending_melody,melody,ending,m,positive,negative,ES_green,1,m,1019,2118487,2118991,2119195
91,third,1,feige,IAT_purple4.bmp,purple,starting_scream,scream,starting,c,negative,negative,ES_green,1,c,473,2121289,2121793,2121997
91,third,2,teuer,IAT_green2.bmp,green,ending_scream,scream,ending,c,negative,positive,ES_green,0,m,527,2123544,2124048,2124252
91,third,3,gerecht,IAT_yellow1.bmp,yellow,starting_melody,melody,starting,m,positive,positive,ES_green,1,m,472,2126355,2126860,2127064
91,third,4,gesund,IAT_purple2.bmp,purple,starting_scream,scream,starting,m,positive,negative,ES_green,1,m,482,2128609,2129113,2129317
91,third,5,gierig,IAT_green4.bmp,green,ending_scream,scream,ending,c,negative,positive,ES_green,1,c,420,2130873,2131377,2131581
91,third,6,schön,IAT_yellow1.bmp,yellow,starting_melody,melody,starting,m,positive,positive,ES_green,1,m,392,2133075,2133579,2133783
91,third,7,krank,IAT_purple4.bmp,purple,starting_scream,scream,starting,c,negative,negative,ES_green,1,c,432,2135249,2135753,2135957
91,third,8,einsam,IAT_red2.bmp,red,ending_melody,melody,ending,c,negative,negative,ES_green,1,c,314,2137464,2137968,2138172
91,third,9,gerecht,IAT_yellow2.bmp,yellow,starting_melody,melody,starting,m,positive,positive,ES_green,0,c,299,2139560,2140064,2140268
91,third,10,heiter,IAT_yellow3.bmp,yellow,starting_melody,melody,starting,m,positive,positive,ES_green,1,m,548,2142141,2142645,2142849
91,third,11,munter,IAT_red2.bmp,red,ending_melody,melody,ending,m,positive,negative,ES_green,0,c,319,2144472,2144976,2145180
91,third,12,kaputt,IAT_red3.bmp,red,ending_melody,melody,ending,c,negative,negative,ES_green,1,c,475,2147074,2147579,2147783
91,third,13,falsch,IAT_green3.bmp,green,ending_scream,scream,ending,c,negative,positive,ES_green,1,c,393,2149332,2149836,2150040
91,third,14,einsam,IAT_purple4.bmp,purple,starting_scream,scream,starting,c,negative,negative,ES_green,1,c,417,2151507,2152011,2152215
91,third,15,gierig,IAT_purple2.bmp,purple,starting_scream,scream,starting,c,negative,negative,ES_green,1,c,394,2153705,2154210,2154414
91,third,16,gesund,IAT_purple3.bmp,purple,starting_scream,scream,starting,m,positive,negative,ES_green,1,m,403,2155882,2156386,2156590
91,third,17,ehrlich,IAT_red1.bmp,red,ending_melody,melody,ending,m,positive,negative,ES_green,0,c,475,2158068,2158572,2158776
91,third,18,geizig,IAT_red2.bmp,red,ending_melody,melody,ending,c,negative,negative,ES_green,1,c,505,2160825,2161329,2161533
91,third,19,streng,IAT_yellow2.bmp,yellow,starting_melody,melody,starting,c,negative,positive,ES_green,1,c,669,2163112,2163617,2163821
91,third,20,geizig,IAT_purple2.bmp,purple,starting_scream,scream,starting,c,negative,negative,ES_green,1,c,369,2165564,2166069,2166273
91,third,21,human,IAT_purple1.bmp,purple,starting_scream,scream,starting,m,positive,negative,ES_green,0,c,256,2167716,2168220,2168424
91,third,22,ehrlich,IAT_green2.bmp,green,ending_scream,scream,ending,m,positive,positive,ES_green,1,m,554,2170254,2170758,2170962
91,third,23,sanft,IAT_green3.bmp,green,ending_scream,scream,ending,m,positive,positive,ES_green,1,m,429,2172592,2173096,2173300
91,third,24,heiter,IAT_yellow3.bmp,yellow,starting_melody,melody,starting,m,positive,positive,ES_green,1,m,341,2174803,2175307,2175511
91,third,25,lustig,IAT_purple3.bmp,purple,starting_scream,scream,starting,m,positive,negative,ES_green,1,m,438,2176925,2177430,2177634
91,third,26,ehrlich,IAT_purple2.bmp,purple,starting_scream,scream,starting,m,positive,negative,ES_green,1,m,351,2179147,2179652,2179856
91,third,27,sonnig,IAT_purple1.bmp,purple,starting_scream,scream,starting,m,positive,negative,ES_green,1,m,383,2181282,2181786,2181990
91,third,28,witzig,IAT_green1.bmp,green,ending_scream,scream,ending,m,positive,positive,ES_green,1,m,353,2183446,2183950,2184154
91,third,29,gierig,IAT_yellow4.bmp,yellow,starting_melody,melody,starting,c,negative,positive,ES_green,1,c,451,2185583,2186087,2186291
91,third,30,streng,IAT_green4.bmp,green,ending_scream,scream,ending,c,negative,positive,ES_green,1,c,351,2187815,2188320,2188524
91,third,31,morsch,IAT_green2.bmp,green,ending_scream,scream,ending,c,negative,positive,ES_green,1,c,488,2189948,2190453,2190657
91,third,32,sanft,IAT_yellow2.bmp,yellow,starting_melody,melody,starting,m,positive,positive,ES_green,1,m,340,2192219,2192724,2192928
91,third,33,sozial,IAT_red3.bmp,red,ending_melody,melody,ending,m,positive,negative,ES_green,1,m,426,2194342,2194846,2195050
91,third,34,schön,IAT_red3.bmp,red,ending_melody,melody,ending,m,positive,negative,ES_green,1,m,405,2196549,2197054,2197258
91,third,35,human,IAT_green2.bmp,green,ending_scream,scream,ending,m,positive,positive,ES_green,1,m,375,2198737,2199241,2199445
91,third,36,krank,IAT_yellow4.bmp,yellow,starting_melody,melody,starting,c,negative,positive,ES_green,1,c,486,2200894,2201398,2201602
91,third,37,sanft,IAT_purple4.bmp,purple,starting_scream,scream,starting,m,positive,negative,ES_green,0,c,324,2203164,2203668,2203872
91,third,38,schön,IAT_yellow3.bmp,yellow,starting_melody,melody,starting,m,positive,positive,ES_green,1,m,349,2205771,2206276,2206480
91,third,39,brutal,IAT_green2.bmp,green,ending_scream,scream,ending,c,negative,positive,ES_green,1,c,617,2207903,2208407,2208611
91,third,40,lästig,IAT_red3.bmp,red,ending_melody,melody,ending,c,negative,negative,ES_green,1,c,487,2210303,2210808,2211012
91,third,41,geizig,IAT_green4.bmp,green,ending_scream,scream,ending,c,negative,positive,ES_green,1,c,647,2212574,2213078,2213282
91,third,42,teuer,IAT_red4.bmp,red,ending_melody,melody,ending,c,negative,negative,ES_green,1,c,1170,2215004,2215508,2215712
91,third,43,lustig,IAT_green1.bmp,green,ending_scream,scream,ending,m,positive,positive,ES_green,1,m,829,2217955,2218459,2218663
91,third,44,human,IAT_purple3.bmp,purple,starting_scream,scream,starting,m,positive,negative,ES_green,1,m,641,2220565,2221070,2221274
91,third,45,geizig,IAT_yellow2.bmp,yellow,starting_melody,melody,starting,c,negative,positive,ES_green,1,c,675,2222989,2223493,2223697
91,third,46,schön,IAT_purple1.bmp,purple,starting_scream,scream,starting,m,positive,negative,ES_green,1,m,427,2225447,2225951,2226155
91,third,47,krank,IAT_purple3.bmp,purple,starting_scream,scream,starting,c,negative,negative,ES_green,1,c,449,2227657,2228161,2228365
91,third,48,morsch,IAT_yellow2.bmp,yellow,starting_melody,melody,starting,c,negative,positive,ES_green,1,c,679,2229888,2230392,2230596
91,third,49,falsch,IAT_red4.bmp,red,ending_melody,melody,ending,c,negative,negative,ES_green,1,c,615,2232349,2232853,2233057
91,third,50,witzig,IAT_green4.bmp,green,ending_scream,scream,ending,m,positive,positive,ES_green,1,m,483,2234746,2235250,2235454
91,third,51,kaputt,IAT_green4.bmp,green,ending_scream,scream,ending,c,negative,positive,ES_green,1,c,583,2237012,2237516,2237720
91,third,52,heiter,IAT_yellow3.bmp,yellow,starting_melody,melody,starting,m,positive,positive,ES_green,1,m,423,2239377,2239881,2240085
91,third,53,brutal,IAT_green1.bmp,green,ending_scream,scream,ending,c,negative,positive,ES_green,1,c,541,2241583,2242087,2242291
91,third,54,streng,IAT_purple1.bmp,purple,starting_scream,scream,starting,c,negative,negative,ES_green,1,c,405,2243907,2244411,2244615
91,third,55,kaputt,IAT_red1.bmp,red,ending_melody,melody,ending,c,negative,negative,ES_green,1,c,561,2246094,2246598,2246802
91,third,56,sonnig,IAT_green3.bmp,green,ending_scream,scream,ending,m,positive,positive,ES_green,1,m,470,2248437,2248941,2249145
91,third,57,krank,IAT_yellow3.bmp,yellow,starting_melody,melody,starting,c,negative,positive,ES_green,1,c,488,2250689,2251194,2251398
91,third,58,morsch,IAT_green2.bmp,green,ending_scream,scream,ending,c,negative,positive,ES_green,1,c,695,2252960,2253464,2253668
91,third,59,munter,IAT_green4.bmp,green,ending_scream,scream,ending,m,positive,positive,ES_green,1,m,488,2255437,2255941,2256145
91,third,60,einsam,IAT_yellow1.bmp,yellow,starting_melody,melody,starting,c,negative,positive,ES_green,1,c,466,2257708,2258212,2258416
91,third,61,heiter,IAT_green1.bmp,green,ending_scream,scream,ending,m,positive,positive,ES_green,1,m,684,2259956,2260460,2260664
91,third,62,lästig,IAT_red4.bmp,red,ending_melody,melody,ending,c,negative,negative,ES_green,1,c,468,2262423,2262927,2263131
91,third,63,feige,IAT_yellow3.bmp,yellow,starting_melody,melody,starting,c,negative,positive,ES_green,1,c,397,2264675,2265179,2265383
91,third,64,einsam,IAT_yellow4.bmp,yellow,starting_melody,melody,starting,c,negative,positive,ES_green,1,c,340,2266854,2267359,2267563
91,third,65,sonnig,IAT_red2.bmp,red,ending_melody,melody,ending,m,positive,negative,ES_green,1,m,594,2268978,2269482,2269686
91,third,66,sozial,IAT_green3.bmp,green,ending_scream,scream,ending,m,positive,positive,ES_green,0,c,404,2271355,2271859,2272063
91,third,67,munter,IAT_yellow1.bmp,yellow,starting_melody,melody,starting,m,positive,positive,ES_green,1,m,725,2274043,2274547,2274751
91,third,68,human,IAT_red3.bmp,red,ending_melody,melody,ending,m,positive,negative,ES_green,1,m,642,2276550,2277055,2277259
91,third,69,witzig,IAT_red4.bmp,red,ending_melody,melody,ending,m,positive,negative,ES_green,1,m,447,2278975,2279480,2279684
91,third,70,ehrlich,IAT_green1.bmp,green,ending_scream,scream,ending,m,positive,positive,ES_green,1,m,460,2281206,2281710,2281914
91,third,71,teuer,IAT_yellow1.bmp,yellow,starting_melody,melody,starting,c,negative,positive,ES_green,1,c,545,2283448,2283953,2284157
91,third,72,witzig,IAT_green3.bmp,green,ending_scream,scream,ending,m,positive,positive,ES_green,1,m,417,2285776,2286280,2286484
91,third,73,feige,IAT_purple2.bmp,purple,starting_scream,scream,starting,c,negative,negative,ES_green,1,c,566,2287975,2288480,2288684
91,third,74,falsch,IAT_purple1.bmp,purple,starting_scream,scream,starting,c,negative,negative,ES_green,1,c,604,2290325,2290829,2291033
91,third,75,lustig,IAT_purple3.bmp,purple,starting_scream,scream,starting,m,positive,negative,ES_green,1,m,693,2292712,2293216,2293420
91,third,76,streng,IAT_red4.bmp,red,ending_melody,melody,ending,c,negative,negative,ES_green,1,c,572,2295188,2295692,2295896
91,third,77,brutal,IAT_yellow4.bmp,yellow,starting_melody,melody,starting,c,negative,positive,ES_green,0,m,519,2297543,2298048,2298252
91,third,78,munter,IAT_purple4.bmp,purple,starting_scream,scream,starting,m,positive,negative,ES_green,1,m,581,2300345,2300849,2301053
91,third,79,gerecht,IAT_red1.bmp,red,ending_melody,melody,ending,m,positive,negative,ES_green,0,c,455,2302709,2303213,2303417
91,third,80,gierig,IAT_yellow2.bmp,yellow,starting_melody,melody,starting,c,negative,positive,ES_green,1,c,1008,2305447,2305951,2306155
91,third,81,lästig,IAT_purple4.bmp,purple,starting_scream,scream,starting,c,negative,negative,ES_green,1,c,620,2308238,2308742,2308946
91,third,82,lustig,IAT_yellow4.bmp,yellow,starting_melody,melody,starting,m,positive,positive,ES_green,1,m,474,2310641,2311145,2311349
91,third,83,sozial,IAT_yellow4.bmp,yellow,starting_melody,melody,starting,m,positive,positive,ES_green,1,m,451,2312898,2313402,2313606
91,third,84,brutal,IAT_green3.bmp,green,ending_scream,scream,ending,c,negative,positive,ES_green,1,c,479,2315132,2315637,2315841
91,third,85,lästig,IAT_purple3.bmp,purple,starting_scream,scream,starting,c,negative,negative,ES_green,1,c,529,2317394,2317899,2318103
91,third,86,morsch,IAT_green1.bmp,green,ending_scream,scream,ending,c,negative,positive,ES_green,1,c,399,2319705,2320209,2320413
91,third,87,sanft,IAT_red4.bmp,red,ending_melody,melody,ending,m,positive,negative,ES_green,1,m,639,2321887,2322391,2322595
91,third,88,sozial,IAT_red1.bmp,red,ending_melody,melody,ending,m,positive,negative,ES_green,1,m,662,2324309,2324813,2325017
91,third,89,teuer,IAT_purple2.bmp,purple,starting_scream,scream,starting,c,negative,negative,ES_green,1,c,470,2326754,2327259,2327463
91,third,90,falsch,IAT_red2.bmp,red,ending_melody,melody,ending,c,negative,negative,ES_green,1,c,723,2329008,2329512,2329716
91,third,91,gesund,IAT_red3.bmp,red,ending_melody,melody,ending,m,positive,negative,ES_green,1,m,485,2331514,2332018,2332222
91,third,92,kaputt,IAT_red2.bmp,red,ending_melody,melody,ending,c,negative,negative,ES_green,1,c,527,2333782,2334286,2334490
91,third,93,feige,IAT_red1.bmp,red,ending_melody,melody,ending,c,negative,negative,ES_green,1,c,700,2336093,2336597,2336801
91,third,94,gerecht,IAT_purple1.bmp,purple,starting_scream,scream,starting,m,positive,negative,ES_green,1,m,798,2338576,2339080,2339284
91,third,95,sonnig,IAT_yellow1.bmp,yellow,starting_melody,melody,starting,m,positive,positive,ES_green,1,m,480,2341157,2341662,2341867
91,forth,0,krank,IAT_purple4.bmp,purple,starting_scream,scream,starting,c,negative,negative,ES_green,1,c,579,2663356,2663861,2664065
91,forth,1,schön,IAT_red3.bmp,red,ending_melody,melody,ending,m,positive,negative,ES_green,1,m,314,2665719,2666224,2666428
91,forth,2,morsch,IAT_purple3.bmp,purple,starting_scream,scream,starting,c,negative,negative,ES_green,1,c,457,2667816,2668321,2668525
91,forth,3,sozial,IAT_red2.bmp,red,ending_melody,melody,ending,m,positive,negative,ES_green,0,c,367,2670056,2670560,2670764
91,forth,4,sanft,IAT_purple2.bmp,purple,starting_scream,scream,starting,m,positive,negative,ES_green,1,m,472,2672707,2673211,2673415
91,forth,5,falsch,IAT_green3.bmp,green,ending_scream,scream,ending,c,negative,positive,ES_green,1,c,382,2674961,2675465,2675669
91,forth,6,munter,IAT_red2.bmp,red,ending_melody,melody,ending,m,positive,negative,ES_green,1,m,367,2677124,2677629,2677833
91,forth,7,geizig,IAT_purple2.bmp,purple,starting_scream,scream,starting,c,negative,negative,ES_green,1,c,403,2679275,2679779,2679983
91,forth,8,sozial,IAT_purple3.bmp,purple,starting_scream,scream,starting,m,positive,negative,ES_green,1,m,372,2681462,2681966,2682170
91,forth,9,teuer,IAT_yellow4.bmp,yellow,starting_melody,melody,starting,c,negative,positive,ES_green,0,m,379,2683616,2684120,2684324
91,forth,10,lästig,IAT_yellow4.bmp,yellow,starting_melody,melody,starting,c,negative,positive,ES_green,1,c,474,2686278,2686783,2686987
91,forth,11,teuer,IAT_yellow2.bmp,yellow,starting_melody,melody,starting,c,negative,positive,ES_green,1,c,317,2688536,2689040,2689244
91,forth,12,ehrlich,IAT_red4.bmp,red,ending_melody,melody,ending,m,positive,negative,ES_green,0,c,340,2690635,2691140,2691344
91,forth,13,krank,IAT_yellow4.bmp,yellow,starting_melody,melody,starting,c,negative,positive,ES_green,1,c,526,2693259,2693764,2693968
91,forth,14,teuer,IAT_purple2.bmp,purple,starting_scream,scream,starting,c,negative,negative,ES_green,0,m,360,2695569,2696073,2696278
91,forth,15,gierig,IAT_purple2.bmp,purple,starting_scream,scream,starting,c,negative,negative,ES_green,0,m,475,2698213,2698717,2698921
91,forth,16,feige,IAT_green2.bmp,green,ending_scream,scream,ending,c,negative,positive,ES_green,1,c,583,2700970,2701474,2701678
91,forth,17,human,IAT_purple3.bmp,purple,starting_scream,scream,starting,m,positive,negative,ES_green,1,m,473,2703335,2703840,2704044
91,forth,18,munter,IAT_purple4.bmp,purple,starting_scream,scream,starting,m,positive,negative,ES_green,1,m,846,2705591,2706095,2706299
91,forth,19,gierig,IAT_purple2.bmp,purple,starting_scream,scream,starting,c,negative,negative,ES_green,1,c,511,2708220,2708724,2708928
91,forth,20,lustig,IAT_red3.bmp,red,ending_melody,melody,ending,m,positive,negative,ES_green,0,c,351,2710514,2711018,2711222
91,forth,21,human,IAT_red4.bmp,red,ending_melody,melody,ending,m,positive,negative,ES_green,1,m,462,2713149,2713654,2713858
91,forth,22,munter,IAT_purple3.bmp,purple,starting_scream,scream,starting,m,positive,negative,ES_green,1,m,402,2715394,2715898,2716102
91,forth,23,geizig,IAT_red4.bmp,red,ending_melody,melody,ending,c,negative,negative,ES_green,0,m,383,2717578,2718083,2718287
91,forth,24,heiter,IAT_red3.bmp,red,ending_melody,melody,ending,m,positive,negative,ES_green,1,m,668,2720245,2720750,2720954
91,forth,25,gesund,IAT_yellow1.bmp,yellow,starting_melody,melody,starting,m,positive,positive,ES_green,1,m,419,2722698,2723202,2723406
91,forth,26,ehrlich,IAT_purple1.bmp,purple,starting_scream,scream,starting,m,positive,negative,ES_green,1,m,400,2724900,2725404,2725608
91,forth,27,einsam,IAT_purple4.bmp,purple,starting_scream,scream,starting,c,negative,negative,ES_green,0,m,378,2727082,2727586,2727790
91,forth,28,gesund,IAT_green1.bmp,green,ending_scream,scream,ending,m,positive,positive,ES_green,1,m,477,2729743,2730247,2730451
91,forth,29,feige,IAT_green3.bmp,green,ending_scream,scream,ending,c,negative,positive,ES_green,1,c,535,2732003,2732508,2732712
91,forth,30,sozial,IAT_green2.bmp,green,ending_scream,scream,ending,m,positive,positive,ES_green,1,m,699,2734321,2734825,2735029
91,forth,31,ehrlich,IAT_yellow2.bmp,yellow,starting_melody,melody,starting,m,positive,positive,ES_green,1,m,436,2736803,2737308,2737512
91,forth,32,lustig,IAT_yellow1.bmp,yellow,starting_melody,melody,starting,m,positive,positive,ES_green,1,m,491,2739024,2739528,2739732
91,forth,33,morsch,IAT_yellow3.bmp,yellow,starting_melody,melody,starting,c,negative,positive,ES_green,1,c,541,2741299,2741803,2742007
91,forth,34,heiter,IAT_red1.bmp,red,ending_melody,melody,ending,m,positive,negative,ES_green,1,m,505,2743623,2744127,2744331
91,forth,35,kaputt,IAT_red2.bmp,red,ending_melody,melody,ending,c,negative,negative,ES_green,1,c,511,2745911,2746416,2746620
91,forth,36,gierig,IAT_red4.bmp,red,ending_melody,melody,ending,c,negative,negative,ES_green,1,c,761,2748205,2748710,2748914
91,forth,37,krank,IAT_red1.bmp,red,ending_melody,melody,ending,c,negative,negative,ES_green,1,c,476,2750750,2751254,2751458
91,forth,38,gerecht,IAT_yellow1.bmp,yellow,starting_melody,melody,starting,m,positive,positive,ES_green,1,m,619,2753010,2753514,2753718
91,forth,39,human,IAT_purple3.bmp,purple,starting_scream,scream,starting,m,positive,negative,ES_green,1,m,465,2755411,2755916,2756120
91,forth,40,falsch,IAT_red3.bmp,red,ending_melody,melody,ending,c,negative,negative,ES_green,1,c,704,2757659,2758163,2758367
91,forth,41,einsam,IAT_yellow2.bmp,yellow,starting_melody,melody,starting,c,negative,positive,ES_green,1,c,621,2760145,2760650,2760854
91,forth,42,lästig,IAT_purple1.bmp,purple,starting_scream,scream,starting,c,negative,negative,ES_green,1,c,436,2762549,2763054,2763258
91,forth,43,sanft,IAT_purple4.bmp,purple,starting_scream,scream,starting,m,positive,negative,ES_green,1,m,476,2764768,2765273,2765477
91,forth,44,falsch,IAT_purple1.bmp,purple,starting_scream,scream,starting,c,negative,negative,ES_green,1,c,419,2767028,2767533,2767738
91,forth,45,einsam,IAT_red2.bmp,red,ending_melody,melody,ending,c,negative,negative,ES_green,0,m,482,2769232,2769736,2769940
91,forth,46,streng,IAT_purple3.bmp,purple,starting_scream,scream,starting,c,negative,negative,ES_green,1,c,494,2771996,2772500,2772704
91,forth,47,krank,IAT_yellow4.bmp,yellow,starting_melody,melody,starting,c,negative,positive,ES_green,1,c,600,2774273,2774777,2774981
91,forth,48,witzig,IAT_yellow1.bmp,yellow,starting_melody,melody,starting,m,positive,positive,ES_green,1,m,476,2776656,2777160,2777364
91,forth,49,morsch,IAT_green4.bmp,green,ending_scream,scream,ending,c,negative,positive,ES_green,1,c,527,2778914,2779418,2779622
91,forth,50,kaputt,IAT_green1.bmp,green,ending_scream,scream,ending,c,negative,positive,ES_green,1,c,393,2781224,2781728,2781932
91,forth,51,lustig,IAT_green1.bmp,green,ending_scream,scream,ending,m,positive,positive,ES_green,1,m,562,2783400,2783904,2784108
91,forth,52,streng,IAT_green2.bmp,green,ending_scream,scream,ending,c,negative,positive,ES_green,1,c,458,2785745,2786249,2786453
91,forth,53,sonnig,IAT_yellow3.bmp,yellow,starting_melody,melody,starting,m,positive,positive,ES_green,1,m,521,2787985,2788489,2788693
91,forth,54,gerecht,IAT_yellow4.bmp,yellow,starting_melody,melody,starting,m,positive,positive,ES_green,0,c,484,2790289,2790793,2790997
91,forth,55,sanft,IAT_yellow3.bmp,yellow,starting_melody,melody,starting,m,positive,positive,ES_green,1,m,850,2793056,2793560,2793764
91,forth,56,lustig,IAT_purple2.bmp,purple,starting_scream,scream,starting,m,positive,negative,ES_green,1,m,406,2795689,2796194,2796398
91,forth,57,morsch,IAT_red3.bmp,red,ending_melody,melody,ending,c,negative,negative,ES_green,1,c,514,2797878,2798383,2798587
91,forth,58,kaputt,IAT_red2.bmp,red,ending_melody,melody,ending,c,negative,negative,ES_green,1,c,941,2800176,2800680,2800884
91,forth,59,falsch,IAT_green4.bmp,green,ending_scream,scream,ending,c,negative,positive,ES_green,1,c,519,2802900,2803404,2803608
91,forth,60,geizig,IAT_purple4.bmp,purple,starting_scream,scream,starting,c,negative,negative,ES_green,1,c,991,2805202,2805706,2805910
91,forth,61,gerecht,IAT_red1.bmp,red,ending_melody,melody,ending,m,positive,negative,ES_green,1,m,678,2807976,2808480,2808684
91,forth,62,lästig,IAT_green4.bmp,green,ending_scream,scream,ending,c,negative,positive,ES_green,1,c,604,2810436,2810941,2811145
91,forth,63,sanft,IAT_red1.bmp,red,ending_melody,melody,ending,m,positive,negative,ES_green,1,m,483,2812824,2813329,2813533
91,forth,64,teuer,IAT_green2.bmp,green,ending_scream,scream,ending,c,negative,positive,ES_green,1,c,459,2815090,2815594,2815798
91,forth,65,schön,IAT_green4.bmp,green,ending_scream,scream,ending,m,positive,positive,ES_green,1,m,394,2817332,2817836,2818040
91,forth,66,sonnig,IAT_green3.bmp,green,ending_scream,scream,ending,m,positive,positive,ES_green,1,m,509,2819509,2820013,2820218
91,forth,67,schön,IAT_green1.bmp,green,ending_scream,scream,ending,m,positive,positive,ES_green,1,m,405,2821801,2822306,2822510
91,forth,68,heiter,IAT_green1.bmp,green,ending_scream,scream,ending,m,positive,positive,ES_green,1,m,429,2823990,2824495,2824699
91,forth,69,gesund,IAT_purple1.bmp,purple,starting_scream,scream,starting,m,positive,negative,ES_green,1,m,413,2826204,2826708,2826912
91,forth,70,lästig,IAT_yellow2.bmp,yellow,starting_melody,melody,starting,c,negative,positive,ES_green,1,c,609,2828400,2828904,2829108
91,forth,71,feige,IAT_red4.bmp,red,ending_melody,melody,ending,c,negative,negative,ES_green,1,c,493,2830792,2831297,2831501
91,forth,72,schön,IAT_green4.bmp,green,ending_scream,scream,ending,m,positive,positive,ES_green,1,m,466,2833070,2833574,2833778
91,forth,73,human,IAT_yellow4.bmp,yellow,starting_melody,melody,starting,m,positive,positive,ES_green,1,m,638,2835319,2835824,2836028
91,forth,74,brutal,IAT_green2.bmp,green,ending_scream,scream,ending,c,negative,positive,ES_green,1,c,513,2837740,2838244,2838448
91,forth,75,einsam,IAT_purple4.bmp,purple,starting_scream,scream,starting,c,negative,negative,ES_green,1,c,466,2840036,2840540,2840744
91,forth,76,brutal,IAT_red4.bmp,red,ending_melody,melody,ending,c,negative,negative,ES_green,1,c,554,2842285,2842789,2842993
91,forth,77,witzig,IAT_purple1.bmp,purple,starting_scream,scream,starting,m,positive,negative,ES_green,1,m,512,2844622,2845126,2845330
91,forth,78,feige,IAT_yellow2.bmp,yellow,starting_melody,melody,starting,c,negative,positive,ES_green,1,c,526,2846918,2847422,2847627
91,forth,79,geizig,IAT_yellow1.bmp,yellow,starting_melody,melody,starting,c,negative,positive,ES_green,1,c,381,2849228,2849732,2849937
91,forth,80,kaputt,IAT_green1.bmp,green,ending_scream,scream,ending,c,negative,positive,ES_green,1,c,421,2851393,2851897,2852101
91,forth,81,sonnig,IAT_purple1.bmp,purple,starting_scream,scream,starting,m,positive,negative,ES_green,1,m,481,2853597,2854101,2854305
91,forth,82,streng,IAT_red1.bmp,red,ending_melody,melody,ending,c,negative,negative,ES_green,1,c,492,2855861,2856365,2856569
91,forth,83,sozial,IAT_yellow3.bmp,yellow,starting_melody,melody,starting,m,positive,positive,ES_green,1,m,551,2858136,2858640,2858844
91,forth,84,brutal,IAT_yellow3.bmp,yellow,starting_melody,melody,starting,c,negative,positive,ES_green,1,c,388,2860471,2860975,2861179
91,forth,85,sonnig,IAT_red3.bmp,red,ending_melody,melody,ending,m,positive,negative,ES_green,1,m,511,2862642,2863146,2863350
91,forth,86,witzig,IAT_yellow3.bmp,yellow,starting_melody,melody,starting,m,positive,positive,ES_green,1,m,570,2864937,2865441,2865645
91,forth,87,gesund,IAT_green3.bmp,green,ending_scream,scream,ending,m,positive,positive,ES_green,1,m,445,2867291,2867795,2867999
91,forth,88,gerecht,IAT_green3.bmp,green,ending_scream,scream,ending,m,positive,positive,ES_green,1,m,891,2869519,2870023,2870227
91,forth,89,gierig,IAT_red2.bmp,red,ending_melody,melody,ending,c,negative,negative,ES_green,0,m,439,2872193,2872698,2872902
91,forth,90,ehrlich,IAT_yellow2.bmp,yellow,starting_melody,melody,starting,m,positive,positive,ES_green,1,m,551,2874917,2875421,2875625
91,forth,91,streng,IAT_green4.bmp,green,ending_scream,scream,ending,c,negative,positive,ES_green,1,c,755,2877250,2877755,2877959
91,forth,92,munter,IAT_red1.bmp,red,ending_melody,melody,ending,m,positive,negative,ES_green,1,m,510,2879789,2880293,2880497
91,forth,93,witzig,IAT_green2.bmp,green,ending_scream,scream,ending,m,positive,positive,ES_green,1,m,414,2882082,2882586,2882790
91,forth,94,brutal,IAT_yellow1.bmp,yellow,starting_melody,melody,starting,c,negative,positive,ES_green,1,c,491,2884279,2884784,2884988
91,forth,95,heiter,IAT_green3.bmp,green,ending_scream,scream,ending,m,positive,positive,ES_green,1,m,441,2886555,2887060,2887264
