subject_nr,block,trialnr,trial_target,trial_prime,prime_color,prime_role,prime_us,prime_relation,correct_response,target_valence,prime_valence,color_counter,correct_first_response,response_first_response,response_time_first_response,fixation_show,prime_show,target_show
75,first,0,kaputt,IAT_green3.bmp,green,ending_melody,melody,ending,c,negative,negative,ES_red,1,c,571,1395699,1396203,1396407
75,first,1,falsch,IAT_green4.bmp,green,ending_melody,melody,ending,c,negative,negative,ES_red,1,c,442,1398053,1398558,1398762
75,first,2,gierig,IAT_red4.bmp,red,ending_scream,scream,ending,c,negative,positive,ES_red,1,c,419,1400277,1400781,1400985
75,first,3,falsch,IAT_red4.bmp,red,ending_scream,scream,ending,c,negative,positive,ES_red,1,c,389,1402477,1402982,1403186
75,first,4,feige,IAT_yellow4.bmp,yellow,starting_scream,scream,starting,c,negative,negative,ES_red,1,c,443,1404649,1405153,1405357
75,first,5,geizig,IAT_purple4.bmp,purple,starting_melody,melody,starting,c,negative,positive,ES_red,1,c,398,1406872,1407376,1407580
75,first,6,sozial,IAT_purple1.bmp,purple,starting_melody,melody,starting,m,positive,positive,ES_red,1,m,616,1409052,1409556,1409760
75,first,7,sonnig,IAT_red1.bmp,red,ending_scream,scream,ending,m,positive,positive,ES_red,1,m,488,1411448,1411952,1412156
75,first,8,schön,IAT_red2.bmp,red,ending_scream,scream,ending,m,positive,positive,ES_red,1,m,457,1413716,1414220,1414425
75,first,9,munter,IAT_purple4.bmp,purple,starting_melody,melody,starting,m,positive,positive,ES_red,1,m,503,1415954,1416458,1416662
75,first,10,feige,IAT_red3.bmp,red,ending_scream,scream,ending,c,negative,positive,ES_red,1,c,503,1418238,1418742,1418946
75,first,11,sonnig,IAT_yellow3.bmp,yellow,starting_scream,scream,starting,m,positive,negative,ES_red,1,m,534,1420522,1421026,1421231
75,first,12,heiter,IAT_purple1.bmp,purple,starting_melody,melody,starting,m,positive,positive,ES_red,1,m,500,1422838,1423342,1423546
75,first,13,brutal,IAT_green2.bmp,green,ending_melody,melody,ending,c,negative,negative,ES_red,1,c,485,1425119,1425623,1425827
75,first,14,sanft,IAT_yellow1.bmp,yellow,starting_scream,scream,starting,m,positive,negative,ES_red,1,m,506,1427385,1427890,1428094
75,first,15,falsch,IAT_green2.bmp,green,ending_melody,melody,ending,c,negative,negative,ES_red,1,c,445,1429673,1430177,1430381
75,first,16,schön,IAT_green1.bmp,green,ending_melody,melody,ending,m,positive,negative,ES_red,1,m,549,1431899,1432403,1432607
75,first,17,human,IAT_yellow1.bmp,yellow,starting_scream,scream,starting,m,positive,negative,ES_red,1,m,942,1434229,1434734,1434938
75,first,18,sozial,IAT_purple3.bmp,purple,starting_melody,melody,starting,m,positive,positive,ES_red,1,m,584,1436952,1437456,1437660
75,first,19,krank,IAT_purple2.bmp,purple,starting_melody,melody,starting,c,negative,positive,ES_red,1,c,514,1439317,1439821,1440025
75,first,20,human,IAT_yellow2.bmp,yellow,starting_scream,scream,starting,m,positive,negative,ES_red,1,m,666,1441612,1442117,1442321
75,first,21,lästig,IAT_purple1.bmp,purple,starting_melody,melody,starting,c,negative,positive,ES_red,0,m,506,1444062,1444566,1444770
75,first,22,einsam,IAT_purple4.bmp,purple,starting_melody,melody,starting,c,negative,positive,ES_red,0,m,670,1446850,1447354,1447558
75,first,23,sonnig,IAT_yellow2.bmp,yellow,starting_scream,scream,starting,m,positive,negative,ES_red,1,m,502,1449802,1450307,1450511
75,first,24,kaputt,IAT_green4.bmp,green,ending_melody,melody,ending,c,negative,negative,ES_red,1,c,435,1452087,1452591,1452795
75,first,25,schön,IAT_yellow4.bmp,yellow,starting_scream,scream,starting,m,positive,negative,ES_red,1,m,460,1454303,1454807,1455011
75,first,26,einsam,IAT_red4.bmp,red,ending_scream,scream,ending,c,negative,positive,ES_red,1,c,498,1456543,1457048,1457253
75,first,27,geizig,IAT_yellow2.bmp,yellow,starting_scream,scream,starting,c,negative,negative,ES_red,1,c,768,1458824,1459328,1459532
75,first,28,gierig,IAT_red1.bmp,red,ending_scream,scream,ending,c,negative,positive,ES_red,1,c,510,1461373,1461878,1462082
75,first,29,gesund,IAT_purple3.bmp,purple,starting_melody,melody,starting,m,positive,positive,ES_red,1,m,521,1463664,1464168,1464372
75,first,30,heiter,IAT_purple1.bmp,purple,starting_melody,melody,starting,m,positive,positive,ES_red,1,m,423,1465967,1466472,1466676
75,first,31,munter,IAT_purple1.bmp,purple,starting_melody,melody,starting,m,positive,positive,ES_red,1,m,492,1468173,1468677,1468881
75,first,32,gerecht,IAT_green2.bmp,green,ending_melody,melody,ending,m,positive,negative,ES_red,1,m,605,1470447,1470951,1471155
75,first,33,sonnig,IAT_red4.bmp,red,ending_scream,scream,ending,m,positive,positive,ES_red,1,m,428,1472833,1473338,1473542
75,first,34,morsch,IAT_yellow3.bmp,yellow,starting_scream,scream,starting,c,negative,negative,ES_red,1,c,540,1475043,1475547,1475751
75,first,35,gerecht,IAT_yellow1.bmp,yellow,starting_scream,scream,starting,m,positive,negative,ES_red,1,m,525,1477366,1477870,1478074
75,first,36,geizig,IAT_purple2.bmp,purple,starting_melody,melody,starting,c,negative,positive,ES_red,1,c,662,1479674,1480178,1480382
75,first,37,lustig,IAT_red3.bmp,red,ending_scream,scream,ending,m,positive,positive,ES_red,1,m,645,1482118,1482622,1482826
75,first,38,brutal,IAT_yellow4.bmp,yellow,starting_scream,scream,starting,c,negative,negative,ES_red,1,c,558,1484545,1485049,1485253
75,first,39,krank,IAT_red2.bmp,red,ending_scream,scream,ending,c,negative,positive,ES_red,1,c,437,1486884,1487388,1487592
75,first,40,witzig,IAT_yellow1.bmp,yellow,starting_scream,scream,starting,m,positive,negative,ES_red,1,m,509,1489104,1489608,1489812
75,first,41,teuer,IAT_purple1.bmp,purple,starting_melody,melody,starting,c,negative,positive,ES_red,1,c,585,1491394,1491899,1492103
75,first,42,sozial,IAT_red1.bmp,red,ending_scream,scream,ending,m,positive,positive,ES_red,1,m,516,1493762,1494266,1494470
75,first,43,falsch,IAT_yellow2.bmp,yellow,starting_scream,scream,starting,c,negative,negative,ES_red,1,c,624,1496060,1496564,1496768
75,first,44,human,IAT_purple3.bmp,purple,starting_melody,melody,starting,m,positive,positive,ES_red,1,m,488,1498466,1498970,1499174
75,first,45,witzig,IAT_yellow3.bmp,yellow,starting_scream,scream,starting,m,positive,negative,ES_red,1,m,607,1500735,1501240,1501445
75,first,46,feige,IAT_green1.bmp,green,ending_melody,melody,ending,c,negative,negative,ES_red,1,c,1181,1503126,1503630,1503834
75,first,47,morsch,IAT_red4.bmp,red,ending_scream,scream,ending,c,negative,positive,ES_red,1,c,819,1506089,1506593,1506797
75,first,48,ehrlich,IAT_red3.bmp,red,ending_scream,scream,ending,m,positive,positive,ES_red,1,m,440,1508690,1509194,1509398
75,first,49,brutal,IAT_yellow2.bmp,yellow,starting_scream,scream,starting,c,negative,negative,ES_red,1,c,472,1510912,1511416,1511620
75,first,50,munter,IAT_green2.bmp,green,ending_melody,melody,ending,m,positive,negative,ES_red,1,m,479,1513165,1513669,1513873
75,first,51,witzig,IAT_green3.bmp,green,ending_melody,melody,ending,m,positive,negative,ES_red,1,m,565,1515425,1515929,1516133
75,first,52,lustig,IAT_green4.bmp,green,ending_melody,melody,ending,m,positive,negative,ES_red,1,m,479,1517772,1518276,1518480
75,first,53,sanft,IAT_green3.bmp,green,ending_melody,melody,ending,m,positive,negative,ES_red,1,m,473,1520033,1520537,1520741
75,first,54,feige,IAT_purple2.bmp,purple,starting_melody,melody,starting,c,negative,positive,ES_red,0,m,846,1522287,1522791,1522995
75,first,55,gesund,IAT_red1.bmp,red,ending_scream,scream,ending,m,positive,positive,ES_red,1,m,499,1525414,1525918,1526122
75,first,56,streng,IAT_red3.bmp,red,ending_scream,scream,ending,c,negative,positive,ES_red,1,c,549,1527695,1528199,1528403
75,first,57,teuer,IAT_purple2.bmp,purple,starting_melody,melody,starting,c,negative,positive,ES_red,1,c,888,1530025,1530530,1530734
75,first,58,sozial,IAT_green1.bmp,green,ending_melody,melody,ending,m,positive,negative,ES_red,1,m,397,1532694,1533198,1533402
75,first,59,streng,IAT_yellow1.bmp,yellow,starting_scream,scream,starting,c,negative,negative,ES_red,1,c,472,1534873,1535377,1535581
75,first,60,lästig,IAT_green2.bmp,green,ending_melody,melody,ending,c,negative,negative,ES_red,1,c,973,1537126,1537630,1537834
75,first,61,einsam,IAT_yellow1.bmp,yellow,starting_scream,scream,starting,c,negative,negative,ES_red,0,None,1500,1539881,1540386,1540590
75,first,62,gierig,IAT_green1.bmp,green,ending_melody,melody,ending,c,negative,negative,ES_red,1,c,478,1543662,1544166,1544370
75,first,63,gerecht,IAT_purple3.bmp,purple,starting_melody,melody,starting,m,positive,positive,ES_red,1,m,713,1545923,1546427,1546631
75,first,64,gesund,IAT_green4.bmp,green,ending_melody,melody,ending,m,positive,negative,ES_red,1,m,600,1548417,1548921,1549125
75,first,65,ehrlich,IAT_yellow3.bmp,yellow,starting_scream,scream,starting,m,positive,negative,ES_red,1,m,502,1550798,1551303,1551507
75,first,66,morsch,IAT_purple3.bmp,purple,starting_melody,melody,starting,c,negative,positive,ES_red,1,c,549,1553083,1553587,1553791
75,first,67,streng,IAT_yellow4.bmp,yellow,starting_scream,scream,starting,c,negative,negative,ES_red,1,c,478,1555413,1555918,1556122
75,first,68,kaputt,IAT_yellow3.bmp,yellow,starting_scream,scream,starting,c,negative,negative,ES_red,1,c,488,1557673,1558177,1558381
75,first,69,sanft,IAT_yellow3.bmp,yellow,starting_scream,scream,starting,m,positive,negative,ES_red,1,m,1495,1559943,1560447,1560651
75,first,70,brutal,IAT_green2.bmp,green,ending_melody,melody,ending,c,negative,negative,ES_red,1,c,499,1563219,1563723,1563927
75,first,71,ehrlich,IAT_red4.bmp,red,ending_scream,scream,ending,m,positive,positive,ES_red,1,m,419,1565500,1566004,1566208
75,first,72,kaputt,IAT_green3.bmp,green,ending_melody,melody,ending,c,negative,negative,ES_red,1,c,439,1567701,1568206,1568410
75,first,73,teuer,IAT_yellow4.bmp,yellow,starting_scream,scream,starting,c,negative,negative,ES_red,1,c,375,1569923,1570427,1570631
75,first,74,morsch,IAT_purple4.bmp,purple,starting_melody,melody,starting,c,negative,positive,ES_red,1,c,425,1572079,1572584,1572788
75,first,75,einsam,IAT_green4.bmp,green,ending_melody,melody,ending,c,negative,negative,ES_red,0,m,430,1574286,1574790,1574994
75,first,76,lustig,IAT_purple2.bmp,purple,starting_melody,melody,starting,m,positive,positive,ES_red,0,c,727,1576999,1577503,1577707
75,first,77,gesund,IAT_yellow4.bmp,yellow,starting_scream,scream,starting,m,positive,negative,ES_red,1,m,531,1580007,1580512,1580716
75,first,78,gerecht,IAT_green1.bmp,green,ending_melody,melody,ending,m,positive,negative,ES_red,1,m,983,1582320,1582825,1583029
75,first,79,streng,IAT_red2.bmp,red,ending_scream,scream,ending,c,negative,positive,ES_red,1,c,510,1585086,1585590,1585794
75,first,80,lästig,IAT_purple4.bmp,purple,starting_melody,melody,starting,c,negative,positive,ES_red,1,c,548,1587379,1587883,1588087
75,first,81,krank,IAT_green4.bmp,green,ending_melody,melody,ending,c,negative,negative,ES_red,1,c,402,1589708,1590212,1590416
75,first,82,lustig,IAT_purple4.bmp,purple,starting_melody,melody,starting,m,positive,positive,ES_red,1,m,459,1591892,1592397,1592601
75,first,83,heiter,IAT_red1.bmp,red,ending_scream,scream,ending,m,positive,positive,ES_red,1,m,460,1594134,1594638,1594842
75,first,84,teuer,IAT_red2.bmp,red,ending_scream,scream,ending,c,negative,positive,ES_red,1,c,463,1596376,1596880,1597084
75,first,85,schön,IAT_green1.bmp,green,ending_melody,melody,ending,m,positive,negative,ES_red,1,m,444,1598620,1599125,1599329
75,first,86,lästig,IAT_yellow2.bmp,yellow,starting_scream,scream,starting,c,negative,negative,ES_red,1,c,638,1600847,1601351,1601555
75,first,87,human,IAT_red2.bmp,red,ending_scream,scream,ending,m,positive,positive,ES_red,1,m,518,1603268,1603772,1603976
75,first,88,krank,IAT_purple3.bmp,purple,starting_melody,melody,starting,c,negative,positive,ES_red,1,c,614,1605568,1606072,1606276
75,first,89,witzig,IAT_green3.bmp,green,ending_melody,melody,ending,m,positive,negative,ES_red,1,m,501,1607964,1608468,1608672
75,first,90,heiter,IAT_red3.bmp,red,ending_scream,scream,ending,m,positive,positive,ES_red,1,m,544,1610247,1610751,1610955
75,first,91,gierig,IAT_red2.bmp,red,ending_scream,scream,ending,c,negative,positive,ES_red,1,c,447,1612573,1613077,1613281
75,first,92,munter,IAT_red3.bmp,red,ending_scream,scream,ending,m,positive,positive,ES_red,1,m,559,1614803,1615307,1615511
75,first,93,ehrlich,IAT_purple2.bmp,purple,starting_melody,melody,starting,m,positive,positive,ES_red,1,m,466,1617144,1617649,1617853
75,first,94,geizig,IAT_red1.bmp,red,ending_scream,scream,ending,c,negative,positive,ES_red,1,c,442,1619393,1619898,1620102
75,first,95,sanft,IAT_green3.bmp,green,ending_melody,melody,ending,m,positive,negative,ES_red,1,m,478,1621618,1622124,1622329
75,second,0,kaputt,IAT_purple4.bmp,purple,starting_melody,melody,starting,c,negative,positive,ES_red,1,c,1103,1628049,1628554,1628758
75,second,1,gerecht,IAT_yellow2.bmp,yellow,starting_scream,scream,starting,m,positive,negative,ES_red,1,m,1275,1630937,1631441,1631645
75,second,2,einsam,IAT_purple4.bmp,purple,starting_melody,melody,starting,c,negative,positive,ES_red,1,c,749,1633994,1634498,1634702
75,second,3,streng,IAT_yellow2.bmp,yellow,starting_scream,scream,starting,c,negative,negative,ES_red,1,c,524,1636526,1637031,1637235
75,second,4,morsch,IAT_purple1.bmp,purple,starting_melody,melody,starting,c,negative,positive,ES_red,1,c,464,1638833,1639338,1639542
75,second,5,munter,IAT_red3.bmp,red,ending_scream,scream,ending,m,positive,positive,ES_red,1,m,511,1641082,1641587,1641791
75,second,6,sanft,IAT_yellow3.bmp,yellow,starting_scream,scream,starting,m,positive,negative,ES_red,1,m,603,1643377,1643881,1644085
75,second,7,falsch,IAT_red3.bmp,red,ending_scream,scream,ending,c,negative,positive,ES_red,1,c,453,1645763,1646267,1646471
75,second,8,sozial,IAT_green3.bmp,green,ending_melody,melody,ending,m,positive,negative,ES_red,1,m,469,1647998,1648503,1648707
75,second,9,kaputt,IAT_green2.bmp,green,ending_melody,melody,ending,c,negative,negative,ES_red,1,c,462,1650251,1650755,1650959
75,second,10,lustig,IAT_purple3.bmp,purple,starting_melody,melody,starting,m,positive,positive,ES_red,1,m,489,1652495,1652999,1653203
75,second,11,teuer,IAT_purple4.bmp,purple,starting_melody,melody,starting,c,negative,positive,ES_red,0,m,468,1654766,1655271,1655475
75,second,12,ehrlich,IAT_yellow1.bmp,yellow,starting_scream,scream,starting,m,positive,negative,ES_red,1,m,579,1657520,1658025,1658229
75,second,13,geizig,IAT_red2.bmp,red,ending_scream,scream,ending,c,negative,positive,ES_red,1,c,493,1659883,1660387,1660591
75,second,14,lästig,IAT_red2.bmp,red,ending_scream,scream,ending,c,negative,positive,ES_red,1,c,638,1662158,1662662,1662866
75,second,15,brutal,IAT_yellow2.bmp,yellow,starting_scream,scream,starting,c,negative,negative,ES_red,1,c,550,1664578,1665083,1665287
75,second,16,human,IAT_purple4.bmp,purple,starting_melody,melody,starting,m,positive,positive,ES_red,1,m,523,1666911,1667416,1667620
75,second,17,gesund,IAT_red3.bmp,red,ending_scream,scream,ending,m,positive,positive,ES_red,1,m,538,1669218,1669722,1669926
75,second,18,gerecht,IAT_purple3.bmp,purple,starting_melody,melody,starting,m,positive,positive,ES_red,1,m,543,1671537,1672042,1672246
75,second,19,krank,IAT_red2.bmp,red,ending_scream,scream,ending,c,negative,positive,ES_red,1,c,493,1673863,1674368,1674572
75,second,20,falsch,IAT_green2.bmp,green,ending_melody,melody,ending,c,negative,negative,ES_red,1,c,509,1676139,1676643,1676847
75,second,21,brutal,IAT_yellow4.bmp,yellow,starting_scream,scream,starting,c,negative,negative,ES_red,1,c,497,1678430,1678935,1679139
75,second,22,einsam,IAT_green4.bmp,green,ending_melody,melody,ending,c,negative,negative,ES_red,1,c,643,1680710,1681215,1681419
75,second,23,witzig,IAT_purple1.bmp,purple,starting_melody,melody,starting,m,positive,positive,ES_red,1,m,524,1683136,1683641,1683845
75,second,24,kaputt,IAT_red3.bmp,red,ending_scream,scream,ending,c,negative,positive,ES_red,1,c,616,1685444,1685948,1686152
75,second,25,geizig,IAT_red4.bmp,red,ending_scream,scream,ending,c,negative,positive,ES_red,1,c,618,1687843,1688347,1688551
75,second,26,schön,IAT_red1.bmp,red,ending_scream,scream,ending,m,positive,positive,ES_red,1,m,720,1690243,1690748,1690952
75,second,27,brutal,IAT_red2.bmp,red,ending_scream,scream,ending,c,negative,positive,ES_red,1,c,503,1692746,1693250,1693454
75,second,28,sanft,IAT_yellow3.bmp,yellow,starting_scream,scream,starting,m,positive,negative,ES_red,1,m,537,1695032,1695536,1695740
75,second,29,gesund,IAT_red2.bmp,red,ending_scream,scream,ending,m,positive,positive,ES_red,1,m,515,1697352,1697857,1698061
75,second,30,sozial,IAT_purple3.bmp,purple,starting_melody,melody,starting,m,positive,positive,ES_red,1,m,523,1699651,1700155,1700359
75,second,31,lustig,IAT_purple1.bmp,purple,starting_melody,melody,starting,m,positive,positive,ES_red,1,m,477,1701956,1702460,1702664
75,second,32,sozial,IAT_green1.bmp,green,ending_melody,melody,ending,m,positive,negative,ES_red,1,m,444,1704214,1704719,1704923
75,second,33,gerecht,IAT_yellow1.bmp,yellow,starting_scream,scream,starting,m,positive,negative,ES_red,1,m,860,1706442,1706946,1707150
75,second,34,morsch,IAT_purple3.bmp,purple,starting_melody,melody,starting,c,negative,positive,ES_red,1,c,473,1709084,1709588,1709793
75,second,35,gesund,IAT_yellow4.bmp,yellow,starting_scream,scream,starting,m,positive,negative,ES_red,1,m,419,1711340,1711845,1712050
75,second,36,gierig,IAT_green1.bmp,green,ending_melody,melody,ending,c,negative,negative,ES_red,1,c,401,1713544,1714048,1714252
75,second,37,sonnig,IAT_yellow1.bmp,yellow,starting_scream,scream,starting,m,positive,negative,ES_red,0,c,486,1715727,1716232,1716436
75,second,38,heiter,IAT_yellow3.bmp,yellow,starting_scream,scream,starting,m,positive,negative,ES_red,1,m,519,1718497,1719002,1719206
75,second,39,human,IAT_purple3.bmp,purple,starting_melody,melody,starting,m,positive,positive,ES_red,1,m,608,1720800,1721304,1721508
75,second,40,kaputt,IAT_green1.bmp,green,ending_melody,melody,ending,c,negative,negative,ES_red,1,c,686,1723190,1723694,1723898
75,second,41,feige,IAT_red4.bmp,red,ending_scream,scream,ending,c,negative,positive,ES_red,1,c,626,1725658,1726162,1726366
75,second,42,falsch,IAT_yellow1.bmp,yellow,starting_scream,scream,starting,c,negative,negative,ES_red,1,c,512,1728066,1728570,1728775
75,second,43,geizig,IAT_red4.bmp,red,ending_scream,scream,ending,c,negative,positive,ES_red,1,c,448,1730362,1730866,1731070
75,second,44,schön,IAT_yellow1.bmp,yellow,starting_scream,scream,starting,m,positive,negative,ES_red,1,m,407,1732593,1733097,1733301
75,second,45,gesund,IAT_purple1.bmp,purple,starting_melody,melody,starting,m,positive,positive,ES_red,1,m,420,1734782,1735287,1735491
75,second,46,gerecht,IAT_green3.bmp,green,ending_melody,melody,ending,m,positive,negative,ES_red,1,m,433,1736985,1737490,1737694
75,second,47,munter,IAT_purple2.bmp,purple,starting_melody,melody,starting,m,positive,positive,ES_red,1,m,414,1739202,1739706,1739910
75,second,48,human,IAT_yellow3.bmp,yellow,starting_scream,scream,starting,m,positive,negative,ES_red,1,m,423,1741398,1741902,1742106
75,second,49,schön,IAT_purple1.bmp,purple,starting_melody,melody,starting,m,positive,positive,ES_red,1,m,511,1743603,1744107,1744311
75,second,50,feige,IAT_yellow3.bmp,yellow,starting_scream,scream,starting,c,negative,negative,ES_red,1,c,563,1745896,1746400,1746604
75,second,51,krank,IAT_yellow4.bmp,yellow,starting_scream,scream,starting,c,negative,negative,ES_red,1,c,481,1748242,1748746,1748950
75,second,52,geizig,IAT_yellow3.bmp,yellow,starting_scream,scream,starting,c,negative,negative,ES_red,1,c,581,1750506,1751010,1751214
75,second,53,teuer,IAT_yellow4.bmp,yellow,starting_scream,scream,starting,c,negative,negative,ES_red,1,c,489,1752870,1753374,1753578
75,second,54,lustig,IAT_yellow2.bmp,yellow,starting_scream,scream,starting,m,positive,negative,ES_red,1,m,598,1755142,1755647,1755851
75,second,55,munter,IAT_green1.bmp,green,ending_melody,melody,ending,m,positive,negative,ES_red,1,m,508,1757525,1758029,1758233
75,second,56,ehrlich,IAT_red3.bmp,red,ending_scream,scream,ending,m,positive,positive,ES_red,1,m,495,1759816,1760320,1760524
75,second,57,schön,IAT_purple4.bmp,purple,starting_melody,melody,starting,m,positive,positive,ES_red,1,m,468,1762093,1762597,1762801
75,second,58,gierig,IAT_green4.bmp,green,ending_melody,melody,ending,c,negative,negative,ES_red,1,c,540,1764343,1764847,1765051
75,second,59,feige,IAT_yellow4.bmp,yellow,starting_scream,scream,starting,c,negative,negative,ES_red,1,c,502,1766667,1767171,1767375
75,second,60,human,IAT_yellow4.bmp,yellow,starting_scream,scream,starting,m,positive,negative,ES_red,1,m,517,1768953,1769457,1769661
75,second,61,ehrlich,IAT_green2.bmp,green,ending_melody,melody,ending,m,positive,negative,ES_red,1,m,473,1771252,1771757,1771961
75,second,62,krank,IAT_purple1.bmp,purple,starting_melody,melody,starting,c,negative,positive,ES_red,1,c,598,1773509,1774013,1774217
75,second,63,morsch,IAT_red4.bmp,red,ending_scream,scream,ending,c,negative,positive,ES_red,1,c,461,1775889,1776393,1776597
75,second,64,teuer,IAT_red1.bmp,red,ending_scream,scream,ending,c,negative,positive,ES_red,1,c,518,1778133,1778637,1778841
75,second,65,munter,IAT_purple2.bmp,purple,starting_melody,melody,starting,m,positive,positive,ES_red,1,m,621,1780433,1780938,1781142
75,second,66,gierig,IAT_green2.bmp,green,ending_melody,melody,ending,c,negative,negative,ES_red,1,c,488,1782837,1783341,1783545
75,second,67,sanft,IAT_green3.bmp,green,ending_melody,melody,ending,m,positive,negative,ES_red,1,m,458,1785108,1785612,1785816
75,second,68,falsch,IAT_purple2.bmp,purple,starting_melody,melody,starting,c,negative,positive,ES_red,1,c,405,1787348,1787853,1788057
75,second,69,witzig,IAT_red2.bmp,red,ending_scream,scream,ending,m,positive,positive,ES_red,1,m,522,1789537,1790041,1790245
75,second,70,lästig,IAT_yellow1.bmp,yellow,starting_scream,scream,starting,c,negative,negative,ES_red,1,c,594,1791843,1792347,1792551
75,second,71,streng,IAT_purple3.bmp,purple,starting_melody,melody,starting,c,negative,positive,ES_red,1,c,451,1794220,1794724,1794928
75,second,72,lästig,IAT_green4.bmp,green,ending_melody,melody,ending,c,negative,negative,ES_red,1,c,629,1796454,1796958,1797162
75,second,73,sonnig,IAT_green1.bmp,green,ending_melody,melody,ending,m,positive,negative,ES_red,1,m,496,1798864,1799369,1799573
75,second,74,witzig,IAT_green2.bmp,green,ending_melody,melody,ending,m,positive,negative,ES_red,1,m,555,1801144,1801649,1801853
75,second,75,sonnig,IAT_green1.bmp,green,ending_melody,melody,ending,m,positive,negative,ES_red,1,m,489,1803482,1803986,1804190
75,second,76,feige,IAT_green2.bmp,green,ending_melody,melody,ending,c,negative,negative,ES_red,1,c,573,1805753,1806258,1806462
75,second,77,gierig,IAT_green4.bmp,green,ending_melody,melody,ending,c,negative,negative,ES_red,1,c,740,1808109,1808613,1808817
75,second,78,heiter,IAT_green4.bmp,green,ending_melody,melody,ending,m,positive,negative,ES_red,1,m,589,1810632,1811137,1811341
75,second,79,sozial,IAT_red1.bmp,red,ending_scream,scream,ending,m,positive,positive,ES_red,1,m,515,1813006,1813510,1813714
75,second,80,ehrlich,IAT_red4.bmp,red,ending_scream,scream,ending,m,positive,positive,ES_red,1,m,650,1815304,1815808,1816012
75,second,81,sanft,IAT_red1.bmp,red,ending_scream,scream,ending,m,positive,positive,ES_red,1,m,590,1817737,1818241,1818445
75,second,82,einsam,IAT_purple2.bmp,purple,starting_melody,melody,starting,c,negative,positive,ES_red,0,m,443,1820111,1820615,1820819
75,second,83,lästig,IAT_yellow2.bmp,yellow,starting_scream,scream,starting,c,negative,negative,ES_red,1,c,529,1822837,1823341,1823545
75,second,84,einsam,IAT_purple2.bmp,purple,starting_melody,melody,starting,c,negative,positive,ES_red,1,c,814,1825149,1825655,1825859
75,second,85,streng,IAT_green3.bmp,green,ending_melody,melody,ending,c,negative,negative,ES_red,1,c,483,1827748,1828253,1828457
75,second,86,heiter,IAT_red1.bmp,red,ending_scream,scream,ending,m,positive,positive,ES_red,1,m,1166,1830016,1830520,1830724
75,second,87,lustig,IAT_green3.bmp,green,ending_melody,melody,ending,m,positive,negative,ES_red,1,m,460,1832964,1833468,1833672
75,second,88,witzig,IAT_red4.bmp,red,ending_scream,scream,ending,m,positive,positive,ES_red,1,m,710,1835207,1835711,1835915
75,second,89,heiter,IAT_green4.bmp,green,ending_melody,melody,ending,m,positive,negative,ES_red,1,m,463,1837701,1838205,1838409
75,second,90,krank,IAT_green3.bmp,green,ending_melody,melody,ending,c,negative,negative,ES_red,1,c,482,1839947,1840451,1840655
75,second,91,morsch,IAT_red1.bmp,red,ending_scream,scream,ending,c,negative,positive,ES_red,1,c,526,1842212,1842716,1842920
75,second,92,sonnig,IAT_red3.bmp,red,ending_scream,scream,ending,m,positive,positive,ES_red,1,m,497,1844521,1845026,1845230
75,second,93,streng,IAT_purple2.bmp,purple,starting_melody,melody,starting,c,negative,positive,ES_red,1,c,477,1846802,1847307,1847511
75,second,94,teuer,IAT_yellow2.bmp,yellow,starting_scream,scream,starting,c,negative,negative,ES_red,1,c,620,1849063,1849568,1849772
75,second,95,brutal,IAT_purple4.bmp,purple,starting_melody,melody,starting,c,negative,positive,ES_red,1,c,422,1851467,1851971,1852175
75,third,0,schön,IAT_green1.bmp,green,ending_melody,melody,ending,m,positive,negative,ES_red,0,c,499,1863053,1863557,1863761
75,third,1,lustig,IAT_green2.bmp,green,ending_melody,melody,ending,m,positive,negative,ES_red,1,m,595,1865835,1866339,1866543
75,third,2,einsam,IAT_purple3.bmp,purple,starting_melody,melody,starting,c,negative,positive,ES_red,0,m,463,1868212,1868716,1868921
75,third,3,geizig,IAT_green2.bmp,green,ending_melody,melody,ending,c,negative,negative,ES_red,1,c,651,1870958,1871462,1871666
75,third,4,gierig,IAT_yellow1.bmp,yellow,starting_scream,scream,starting,c,negative,negative,ES_red,1,c,486,1873392,1873896,1874101
75,third,5,schön,IAT_red3.bmp,red,ending_scream,scream,ending,m,positive,positive,ES_red,1,m,482,1875662,1876166,1876370
75,third,6,lästig,IAT_purple1.bmp,purple,starting_melody,melody,starting,c,negative,positive,ES_red,1,c,502,1877925,1878430,1878634
75,third,7,krank,IAT_green1.bmp,green,ending_melody,melody,ending,c,negative,negative,ES_red,1,c,510,1880211,1880715,1880919
75,third,8,feige,IAT_yellow3.bmp,yellow,starting_scream,scream,starting,c,negative,negative,ES_red,1,c,448,1882503,1883007,1883211
75,third,9,ehrlich,IAT_yellow3.bmp,yellow,starting_scream,scream,starting,m,positive,negative,ES_red,1,m,490,1884734,1885239,1885443
75,third,10,teuer,IAT_green1.bmp,green,ending_melody,melody,ending,c,negative,negative,ES_red,1,c,459,1887006,1887510,1887715
75,third,11,sonnig,IAT_green3.bmp,green,ending_melody,melody,ending,m,positive,negative,ES_red,1,m,1101,1889249,1889753,1889957
75,third,12,lästig,IAT_yellow2.bmp,yellow,starting_scream,scream,starting,c,negative,negative,ES_red,1,c,547,1892132,1892637,1892841
75,third,13,einsam,IAT_purple4.bmp,purple,starting_melody,melody,starting,c,negative,positive,ES_red,1,c,802,1894461,1894966,1895170
75,third,14,human,IAT_purple4.bmp,purple,starting_melody,melody,starting,m,positive,positive,ES_red,1,m,678,1897047,1897551,1897755
75,third,15,gesund,IAT_yellow4.bmp,yellow,starting_scream,scream,starting,m,positive,negative,ES_red,1,m,952,1899507,1900011,1900215
75,third,16,gerecht,IAT_yellow2.bmp,yellow,starting_scream,scream,starting,m,positive,negative,ES_red,1,m,1030,1902241,1902746,1902950
75,third,17,heiter,IAT_green1.bmp,green,ending_melody,melody,ending,m,positive,negative,ES_red,1,m,576,1905054,1905558,1905762
75,third,18,feige,IAT_green3.bmp,green,ending_melody,melody,ending,c,negative,negative,ES_red,1,c,942,1907413,1907917,1908121
75,third,19,sozial,IAT_purple1.bmp,purple,starting_melody,melody,starting,m,positive,positive,ES_red,1,m,527,1910138,1910642,1910846
75,third,20,geizig,IAT_yellow1.bmp,yellow,starting_scream,scream,starting,c,negative,negative,ES_red,1,c,563,1912447,1912951,1913155
75,third,21,witzig,IAT_yellow1.bmp,yellow,starting_scream,scream,starting,m,positive,negative,ES_red,0,c,623,1914792,1915297,1915501
75,third,22,krank,IAT_red4.bmp,red,ending_scream,scream,ending,c,negative,positive,ES_red,1,c,512,1917698,1918202,1918406
75,third,23,schön,IAT_green4.bmp,green,ending_melody,melody,ending,m,positive,negative,ES_red,1,m,518,1919992,1920496,1920700
75,third,24,sanft,IAT_yellow3.bmp,yellow,starting_scream,scream,starting,m,positive,negative,ES_red,1,m,923,1922293,1922797,1923001
75,third,25,lustig,IAT_red2.bmp,red,ending_scream,scream,ending,m,positive,positive,ES_red,1,m,718,1924999,1925503,1925707
75,third,26,morsch,IAT_purple1.bmp,purple,starting_melody,melody,starting,c,negative,positive,ES_red,1,c,551,1927500,1928004,1928208
75,third,27,streng,IAT_yellow4.bmp,yellow,starting_scream,scream,starting,c,negative,negative,ES_red,1,c,625,1929833,1930338,1930542
75,third,28,kaputt,IAT_yellow4.bmp,yellow,starting_scream,scream,starting,c,negative,negative,ES_red,1,c,559,1932242,1932747,1932951
75,third,29,ehrlich,IAT_green3.bmp,green,ending_melody,melody,ending,m,positive,negative,ES_red,1,m,584,1934584,1935088,1935292
75,third,30,lustig,IAT_purple3.bmp,purple,starting_melody,melody,starting,m,positive,positive,ES_red,1,m,564,1936950,1937455,1937659
75,third,31,munter,IAT_red1.bmp,red,ending_scream,scream,ending,m,positive,positive,ES_red,1,m,664,1939298,1939802,1940006
75,third,32,lästig,IAT_yellow4.bmp,yellow,starting_scream,scream,starting,c,negative,negative,ES_red,1,c,634,1941745,1942249,1942453
75,third,33,krank,IAT_green4.bmp,green,ending_melody,melody,ending,c,negative,negative,ES_red,1,c,556,1944162,1944666,1944870
75,third,34,falsch,IAT_red2.bmp,red,ending_scream,scream,ending,c,negative,positive,ES_red,1,c,504,1946500,1947004,1947208
75,third,35,ehrlich,IAT_green3.bmp,green,ending_melody,melody,ending,m,positive,negative,ES_red,1,m,591,1948787,1949291,1949495
75,third,36,teuer,IAT_purple2.bmp,purple,starting_melody,melody,starting,c,negative,positive,ES_red,1,c,1269,1951160,1951664,1951868
75,third,37,gesund,IAT_red4.bmp,red,ending_scream,scream,ending,m,positive,positive,ES_red,1,m,486,1954211,1954716,1954920
75,third,38,falsch,IAT_red4.bmp,red,ending_scream,scream,ending,c,negative,positive,ES_red,1,c,495,1956481,1956986,1957190
75,third,39,human,IAT_yellow4.bmp,yellow,starting_scream,scream,starting,m,positive,negative,ES_red,1,m,534,1958760,1959265,1959469
75,third,40,sozial,IAT_green3.bmp,green,ending_melody,melody,ending,m,positive,negative,ES_red,1,m,558,1961077,1961582,1961786
75,third,41,gesund,IAT_purple2.bmp,purple,starting_melody,melody,starting,m,positive,positive,ES_red,1,m,708,1963419,1963923,1964127
75,third,42,witzig,IAT_purple3.bmp,purple,starting_melody,melody,starting,m,positive,positive,ES_red,1,m,577,1965909,1966414,1966618
75,third,43,munter,IAT_yellow1.bmp,yellow,starting_scream,scream,starting,m,positive,negative,ES_red,1,m,633,1968270,1968775,1968979
75,third,44,heiter,IAT_red2.bmp,red,ending_scream,scream,ending,m,positive,positive,ES_red,1,m,511,1970685,1971190,1971394
75,third,45,kaputt,IAT_red4.bmp,red,ending_scream,scream,ending,c,negative,positive,ES_red,1,c,537,1972980,1973484,1973688
75,third,46,feige,IAT_green3.bmp,green,ending_melody,melody,ending,c,negative,negative,ES_red,1,c,435,1975300,1975804,1976008
75,third,47,streng,IAT_green4.bmp,green,ending_melody,melody,ending,c,negative,negative,ES_red,1,c,533,1977517,1978022,1978226
75,third,48,falsch,IAT_red2.bmp,red,ending_scream,scream,ending,c,negative,positive,ES_red,1,c,563,1979833,1980338,1980542
75,third,49,sonnig,IAT_red1.bmp,red,ending_scream,scream,ending,m,positive,positive,ES_red,1,m,550,1982180,1982685,1982889
75,third,50,witzig,IAT_yellow3.bmp,yellow,starting_scream,scream,starting,m,positive,negative,ES_red,1,m,679,1984514,1985018,1985222
75,third,51,morsch,IAT_purple2.bmp,purple,starting_melody,melody,starting,c,negative,positive,ES_red,1,c,507,1986975,1987479,1987683
75,third,52,brutal,IAT_red2.bmp,red,ending_scream,scream,ending,c,negative,positive,ES_red,1,c,478,1989265,1989769,1989973
75,third,53,munter,IAT_green2.bmp,green,ending_melody,melody,ending,m,positive,negative,ES_red,1,m,587,1991525,1992029,1992233
75,third,54,sonnig,IAT_green1.bmp,green,ending_melody,melody,ending,m,positive,negative,ES_red,1,m,538,1993893,1994398,1994602
75,third,55,gierig,IAT_yellow4.bmp,yellow,starting_scream,scream,starting,c,negative,negative,ES_red,1,c,521,1996216,1996720,1996924
75,third,56,einsam,IAT_yellow3.bmp,yellow,starting_scream,scream,starting,c,negative,negative,ES_red,1,c,614,1998520,1999024,1999228
75,third,57,teuer,IAT_green2.bmp,green,ending_melody,melody,ending,c,negative,negative,ES_red,1,c,568,2000915,2001419,2001623
75,third,58,munter,IAT_purple1.bmp,purple,starting_melody,melody,starting,m,positive,positive,ES_red,1,m,573,2003266,2003770,2003974
75,third,59,krank,IAT_purple3.bmp,purple,starting_melody,melody,starting,c,negative,positive,ES_red,1,c,587,2005621,2006125,2006329
75,third,60,morsch,IAT_purple2.bmp,purple,starting_melody,melody,starting,c,negative,positive,ES_red,1,c,460,2007992,2008496,2008700
75,third,61,streng,IAT_red4.bmp,red,ending_scream,scream,ending,c,negative,positive,ES_red,1,c,445,2010234,2010739,2010943
75,third,62,heiter,IAT_red3.bmp,red,ending_scream,scream,ending,m,positive,positive,ES_red,1,m,507,2012463,2012967,2013171
75,third,63,kaputt,IAT_green4.bmp,green,ending_melody,melody,ending,c,negative,negative,ES_red,1,c,410,2014753,2015257,2015461
75,third,64,lästig,IAT_green2.bmp,green,ending_melody,melody,ending,c,negative,negative,ES_red,1,c,1380,2016946,2017450,2017654
75,third,65,brutal,IAT_purple2.bmp,purple,starting_melody,melody,starting,c,negative,positive,ES_red,1,c,497,2020109,2020613,2020817
75,third,66,witzig,IAT_yellow2.bmp,yellow,starting_scream,scream,starting,m,positive,negative,ES_red,1,m,751,2022389,2022893,2023097
75,third,67,gerecht,IAT_red1.bmp,red,ending_scream,scream,ending,m,positive,positive,ES_red,0,c,485,2024923,2025427,2025631
75,third,68,gierig,IAT_green2.bmp,green,ending_melody,melody,ending,c,negative,negative,ES_red,1,c,632,2027692,2028196,2028400
75,third,69,human,IAT_purple3.bmp,purple,starting_melody,melody,starting,m,positive,positive,ES_red,1,m,489,2030106,2030610,2030815
75,third,70,geizig,IAT_yellow2.bmp,yellow,starting_scream,scream,starting,c,negative,negative,ES_red,1,c,752,2032379,2032883,2033087
75,third,71,sanft,IAT_yellow1.bmp,yellow,starting_scream,scream,starting,m,positive,negative,ES_red,1,m,779,2034914,2035418,2035622
75,third,72,gerecht,IAT_green1.bmp,green,ending_melody,melody,ending,m,positive,negative,ES_red,1,m,443,2037475,2037979,2038183
75,third,73,gesund,IAT_yellow1.bmp,yellow,starting_scream,scream,starting,m,positive,negative,ES_red,1,m,530,2039702,2040206,2040410
75,third,74,brutal,IAT_yellow2.bmp,yellow,starting_scream,scream,starting,c,negative,negative,ES_red,1,c,515,2042015,2042519,2042723
75,third,75,ehrlich,IAT_purple4.bmp,purple,starting_melody,melody,starting,m,positive,positive,ES_red,1,m,476,2044312,2044817,2045021
75,third,76,human,IAT_red1.bmp,red,ending_scream,scream,ending,m,positive,positive,ES_red,1,m,604,2046572,2047077,2047281
75,third,77,gerecht,IAT_red3.bmp,red,ending_scream,scream,ending,m,positive,positive,ES_red,1,m,517,2048960,2049465,2049669
75,third,78,kaputt,IAT_red3.bmp,red,ending_scream,scream,ending,c,negative,positive,ES_red,1,c,621,2051261,2051765,2051969
75,third,79,sozial,IAT_yellow3.bmp,yellow,starting_scream,scream,starting,m,positive,negative,ES_red,1,m,555,2053665,2054169,2054373
75,third,80,streng,IAT_purple4.bmp,purple,starting_melody,melody,starting,c,negative,positive,ES_red,1,c,479,2056003,2056507,2056711
75,third,81,lustig,IAT_red4.bmp,red,ending_scream,scream,ending,m,positive,positive,ES_red,1,m,500,2058264,2058768,2058972
75,third,82,einsam,IAT_purple4.bmp,purple,starting_melody,melody,starting,c,negative,positive,ES_red,1,c,516,2060547,2061051,2061256
75,third,83,sanft,IAT_purple3.bmp,purple,starting_melody,melody,starting,m,positive,positive,ES_red,1,m,595,2062846,2063351,2063555
75,third,84,sozial,IAT_purple1.bmp,purple,starting_melody,melody,starting,m,positive,positive,ES_red,1,m,514,2065224,2065729,2065933
75,third,85,brutal,IAT_yellow2.bmp,yellow,starting_scream,scream,starting,c,negative,negative,ES_red,1,c,473,2067522,2068027,2068231
75,third,86,sonnig,IAT_purple1.bmp,purple,starting_melody,melody,starting,m,positive,positive,ES_red,1,m,601,2069780,2070285,2070489
75,third,87,geizig,IAT_red1.bmp,red,ending_scream,scream,ending,c,negative,positive,ES_red,1,c,389,2072165,2072669,2072873
75,third,88,gierig,IAT_green4.bmp,green,ending_melody,melody,ending,c,negative,negative,ES_red,1,c,519,2074336,2074841,2075045
75,third,89,schön,IAT_red3.bmp,red,ending_scream,scream,ending,m,positive,positive,ES_red,1,m,535,2076638,2077143,2077347
75,third,90,feige,IAT_red1.bmp,red,ending_scream,scream,ending,c,negative,positive,ES_red,1,c,541,2078957,2079461,2079666
75,third,91,falsch,IAT_red3.bmp,red,ending_scream,scream,ending,c,negative,positive,ES_red,1,c,346,2081283,2081787,2081991
75,third,92,heiter,IAT_purple2.bmp,purple,starting_melody,melody,starting,m,positive,positive,ES_red,1,m,693,2083412,2083916,2084120
75,third,93,teuer,IAT_red2.bmp,red,ending_scream,scream,ending,c,negative,positive,ES_red,1,c,528,2085889,2086393,2086597
75,third,94,morsch,IAT_purple4.bmp,purple,starting_melody,melody,starting,c,negative,positive,ES_red,1,c,651,2088201,2088705,2088909
75,third,95,sanft,IAT_green4.bmp,green,ending_melody,melody,ending,m,positive,negative,ES_red,1,m,576,2090636,2091140,2091344
75,forth,0,sonnig,IAT_yellow3.bmp,yellow,starting_scream,scream,starting,m,positive,negative,ES_red,1,m,899,2095654,2096159,2096363
75,forth,1,sozial,IAT_purple3.bmp,purple,starting_melody,melody,starting,m,positive,positive,ES_red,0,c,453,2098338,2098843,2099047
75,forth,2,gesund,IAT_red3.bmp,red,ending_scream,scream,ending,m,positive,positive,ES_red,1,m,1058,2101077,2101581,2101785
75,forth,3,falsch,IAT_red4.bmp,red,ending_scream,scream,ending,c,negative,positive,ES_red,1,c,367,2103917,2104422,2104626
75,forth,4,gerecht,IAT_yellow1.bmp,yellow,starting_scream,scream,starting,m,positive,negative,ES_red,1,m,554,2106067,2106571,2106776
75,forth,5,gesund,IAT_purple3.bmp,purple,starting_melody,melody,starting,m,positive,positive,ES_red,1,m,430,2108403,2108908,2109112
75,forth,6,geizig,IAT_purple3.bmp,purple,starting_melody,melody,starting,c,negative,positive,ES_red,1,c,435,2110617,2111121,2111325
75,forth,7,schön,IAT_purple2.bmp,purple,starting_melody,melody,starting,m,positive,positive,ES_red,1,m,472,2112834,2113339,2113543
75,forth,8,kaputt,IAT_red4.bmp,red,ending_scream,scream,ending,c,negative,positive,ES_red,1,c,479,2115090,2115594,2115798
75,forth,9,witzig,IAT_green2.bmp,green,ending_melody,melody,ending,m,positive,negative,ES_red,0,c,480,2117351,2117855,2118059
75,forth,10,brutal,IAT_purple4.bmp,purple,starting_melody,melody,starting,c,negative,positive,ES_red,1,c,382,2120113,2120618,2120822
75,forth,11,feige,IAT_yellow2.bmp,yellow,starting_scream,scream,starting,c,negative,negative,ES_red,1,c,710,2122278,2122782,2122986
75,forth,12,munter,IAT_green3.bmp,green,ending_melody,melody,ending,m,positive,negative,ES_red,1,m,526,2124771,2125275,2125479
75,forth,13,gerecht,IAT_green1.bmp,green,ending_melody,melody,ending,m,positive,negative,ES_red,1,m,795,2127080,2127584,2127788
75,forth,14,witzig,IAT_green3.bmp,green,ending_melody,melody,ending,m,positive,negative,ES_red,1,m,467,2129657,2130161,2130365
75,forth,15,morsch,IAT_green3.bmp,green,ending_melody,melody,ending,c,negative,negative,ES_red,1,c,469,2131906,2132410,2132614
75,forth,16,sozial,IAT_purple1.bmp,purple,starting_melody,melody,starting,m,positive,positive,ES_red,1,m,540,2134158,2134662,2134866
75,forth,17,human,IAT_yellow1.bmp,yellow,starting_scream,scream,starting,m,positive,negative,ES_red,1,m,508,2136481,2136985,2137189
75,forth,18,munter,IAT_red2.bmp,red,ending_scream,scream,ending,m,positive,positive,ES_red,1,m,577,2138772,2139276,2139480
75,forth,19,kaputt,IAT_purple3.bmp,purple,starting_melody,melody,starting,c,negative,positive,ES_red,1,c,560,2141132,2141636,2141840
75,forth,20,lästig,IAT_green2.bmp,green,ending_melody,melody,ending,c,negative,negative,ES_red,0,m,428,2143475,2143979,2144183
75,forth,21,geizig,IAT_purple2.bmp,purple,starting_melody,melody,starting,c,negative,positive,ES_red,1,c,853,2146184,2146689,2146893
75,forth,22,krank,IAT_yellow2.bmp,yellow,starting_scream,scream,starting,c,negative,negative,ES_red,1,c,519,2148822,2149326,2149530
75,forth,23,gesund,IAT_red4.bmp,red,ending_scream,scream,ending,m,positive,positive,ES_red,1,m,422,2151123,2151627,2151831
75,forth,24,human,IAT_purple1.bmp,purple,starting_melody,melody,starting,m,positive,positive,ES_red,1,m,535,2153326,2153831,2154035
75,forth,25,einsam,IAT_green2.bmp,green,ending_melody,melody,ending,c,negative,negative,ES_red,1,c,652,2155644,2156148,2156352
75,forth,26,kaputt,IAT_green4.bmp,green,ending_melody,melody,ending,c,negative,negative,ES_red,1,c,521,2158079,2158583,2158787
75,forth,27,lustig,IAT_yellow3.bmp,yellow,starting_scream,scream,starting,m,positive,negative,ES_red,1,m,437,2160383,2160887,2161091
75,forth,28,sanft,IAT_green3.bmp,green,ending_melody,melody,ending,m,positive,negative,ES_red,1,m,620,2162603,2163107,2163311
75,forth,29,ehrlich,IAT_yellow2.bmp,yellow,starting_scream,scream,starting,m,positive,negative,ES_red,1,m,487,2165006,2165510,2165714
75,forth,30,gierig,IAT_red2.bmp,red,ending_scream,scream,ending,c,negative,positive,ES_red,1,c,920,2167275,2167780,2167984
75,forth,31,morsch,IAT_yellow1.bmp,yellow,starting_scream,scream,starting,c,negative,negative,ES_red,1,c,518,2169979,2170484,2170688
75,forth,32,lustig,IAT_yellow3.bmp,yellow,starting_scream,scream,starting,m,positive,negative,ES_red,1,m,584,2172281,2172785,2172989
75,forth,33,sonnig,IAT_red3.bmp,red,ending_scream,scream,ending,m,positive,positive,ES_red,1,m,925,2174648,2175152,2175356
75,forth,34,teuer,IAT_green4.bmp,green,ending_melody,melody,ending,c,negative,negative,ES_red,1,c,573,2177356,2177860,2178064
75,forth,35,krank,IAT_red4.bmp,red,ending_scream,scream,ending,c,negative,positive,ES_red,1,c,500,2179712,2180216,2180420
75,forth,36,munter,IAT_yellow1.bmp,yellow,starting_scream,scream,starting,m,positive,negative,ES_red,1,m,489,2181994,2182499,2182703
75,forth,37,teuer,IAT_red4.bmp,red,ending_scream,scream,ending,c,negative,positive,ES_red,1,c,386,2184268,2184772,2184976
75,forth,38,ehrlich,IAT_green1.bmp,green,ending_melody,melody,ending,m,positive,negative,ES_red,1,m,486,2186436,2186940,2187145
75,forth,39,lästig,IAT_red1.bmp,red,ending_scream,scream,ending,c,negative,positive,ES_red,1,c,347,2188706,2189210,2189414
75,forth,40,streng,IAT_red3.bmp,red,ending_scream,scream,ending,c,negative,positive,ES_red,0,m,502,2190836,2191340,2191544
75,forth,41,sozial,IAT_purple4.bmp,purple,starting_melody,melody,starting,m,positive,positive,ES_red,1,m,450,2193621,2194125,2194329
75,forth,42,geizig,IAT_purple2.bmp,purple,starting_melody,melody,starting,c,negative,positive,ES_red,1,c,488,2195854,2196358,2196562
75,forth,43,sanft,IAT_green4.bmp,green,ending_melody,melody,ending,m,positive,negative,ES_red,1,m,463,2198124,2198629,2198833
75,forth,44,heiter,IAT_purple1.bmp,purple,starting_melody,melody,starting,m,positive,positive,ES_red,1,m,608,2200371,2200876,2201080
75,forth,45,lustig,IAT_purple2.bmp,purple,starting_melody,melody,starting,m,positive,positive,ES_red,1,m,522,2202763,2203267,2203471
75,forth,46,human,IAT_yellow3.bmp,yellow,starting_scream,scream,starting,m,positive,negative,ES_red,0,c,447,2205069,2205573,2205777
75,forth,47,gerecht,IAT_purple1.bmp,purple,starting_melody,melody,starting,m,positive,positive,ES_red,1,m,486,2207799,2208303,2208507
75,forth,48,falsch,IAT_yellow1.bmp,yellow,starting_scream,scream,starting,c,negative,negative,ES_red,1,c,506,2210068,2210573,2210777
75,forth,49,krank,IAT_purple4.bmp,purple,starting_melody,melody,starting,c,negative,positive,ES_red,1,c,348,2212357,2212862,2213066
75,forth,50,sozial,IAT_yellow4.bmp,yellow,starting_scream,scream,starting,m,positive,negative,ES_red,1,m,435,2214489,2214993,2215197
75,forth,51,teuer,IAT_yellow4.bmp,yellow,starting_scream,scream,starting,c,negative,negative,ES_red,1,c,417,2216707,2217211,2217415
75,forth,52,ehrlich,IAT_red3.bmp,red,ending_scream,scream,ending,m,positive,positive,ES_red,1,m,415,2218906,2219411,2219615
75,forth,53,brutal,IAT_green1.bmp,green,ending_melody,melody,ending,c,negative,negative,ES_red,1,c,618,2221104,2221608,2221812
75,forth,54,streng,IAT_green2.bmp,green,ending_melody,melody,ending,c,negative,negative,ES_red,0,m,426,2223504,2224008,2224212
75,forth,55,brutal,IAT_yellow3.bmp,yellow,starting_scream,scream,starting,c,negative,negative,ES_red,1,c,542,2226213,2226717,2226921
75,forth,56,gierig,IAT_purple1.bmp,purple,starting_melody,melody,starting,c,negative,positive,ES_red,1,c,551,2228538,2229042,2229246
75,forth,57,feige,IAT_green4.bmp,green,ending_melody,melody,ending,c,negative,negative,ES_red,1,c,571,2230873,2231377,2231581
75,forth,58,brutal,IAT_green4.bmp,green,ending_melody,melody,ending,c,negative,negative,ES_red,1,c,403,2233226,2233730,2233934
75,forth,59,einsam,IAT_green1.bmp,green,ending_melody,melody,ending,c,negative,negative,ES_red,0,m,611,2235412,2235916,2236120
75,forth,60,heiter,IAT_red1.bmp,red,ending_scream,scream,ending,m,positive,positive,ES_red,1,m,608,2238306,2238811,2239015
75,forth,61,teuer,IAT_purple4.bmp,purple,starting_melody,melody,starting,c,negative,positive,ES_red,1,c,657,2240697,2241201,2241405
75,forth,62,gierig,IAT_green2.bmp,green,ending_melody,melody,ending,c,negative,negative,ES_red,1,c,507,2243137,2243641,2243845
75,forth,63,munter,IAT_yellow1.bmp,yellow,starting_scream,scream,starting,m,positive,negative,ES_red,1,m,1055,2245426,2245931,2246135
75,forth,64,lästig,IAT_purple2.bmp,purple,starting_melody,melody,starting,c,negative,positive,ES_red,1,c,539,2248264,2248769,2248973
75,forth,65,morsch,IAT_yellow2.bmp,yellow,starting_scream,scream,starting,c,negative,negative,ES_red,1,c,511,2250587,2251091,2251295
75,forth,66,einsam,IAT_yellow4.bmp,yellow,starting_scream,scream,starting,c,negative,negative,ES_red,0,m,485,2252881,2253386,2253590
75,forth,67,feige,IAT_purple2.bmp,purple,starting_melody,melody,starting,c,negative,positive,ES_red,1,c,495,2255651,2256156,2256360
75,forth,68,schön,IAT_green1.bmp,green,ending_melody,melody,ending,m,positive,negative,ES_red,1,m,492,2257931,2258435,2258639
75,forth,69,krank,IAT_red2.bmp,red,ending_scream,scream,ending,c,negative,positive,ES_red,1,c,393,2260205,2260710,2260914
75,forth,70,lustig,IAT_purple3.bmp,purple,starting_melody,melody,starting,m,positive,positive,ES_red,1,m,806,2262383,2262888,2263092
75,forth,71,falsch,IAT_red3.bmp,red,ending_scream,scream,ending,c,negative,positive,ES_red,1,c,485,2264973,2265477,2265681
75,forth,72,morsch,IAT_red1.bmp,red,ending_scream,scream,ending,c,negative,positive,ES_red,1,c,547,2267242,2267746,2267950
75,forth,73,gesund,IAT_green2.bmp,green,ending_melody,melody,ending,m,positive,negative,ES_red,1,m,499,2269574,2270078,2270282
75,forth,74,streng,IAT_purple4.bmp,purple,starting_melody,melody,starting,c,negative,positive,ES_red,1,c,480,2271856,2272361,2272565
75,forth,75,schön,IAT_green1.bmp,green,ending_melody,melody,ending,m,positive,negative,ES_red,1,m,499,2274119,2274624,2274828
75,forth,76,kaputt,IAT_purple1.bmp,purple,starting_melody,melody,starting,c,negative,positive,ES_red,1,c,544,2276402,2276907,2277111
75,forth,77,heiter,IAT_red1.bmp,red,ending_scream,scream,ending,m,positive,positive,ES_red,1,m,485,2278730,2279234,2279438
75,forth,78,witzig,IAT_red4.bmp,red,ending_scream,scream,ending,m,positive,positive,ES_red,0,c,478,2280998,2281502,2281706
75,forth,79,lästig,IAT_yellow4.bmp,yellow,starting_scream,scream,starting,c,negative,negative,ES_red,1,c,563,2283760,2284265,2284469
75,forth,80,schön,IAT_green4.bmp,green,ending_melody,melody,ending,m,positive,negative,ES_red,1,m,407,2286108,2286612,2286816
75,forth,81,gerecht,IAT_yellow2.bmp,yellow,starting_scream,scream,starting,m,positive,negative,ES_red,1,m,605,2288298,2288802,2289006
75,forth,82,sonnig,IAT_yellow4.bmp,yellow,starting_scream,scream,starting,m,positive,negative,ES_red,1,m,506,2290687,2291192,2291396
75,forth,83,feige,IAT_green3.bmp,green,ending_melody,melody,ending,c,negative,negative,ES_red,1,c,475,2292977,2293482,2293686
75,forth,84,sanft,IAT_red1.bmp,red,ending_scream,scream,ending,m,positive,positive,ES_red,1,m,622,2295236,2295740,2295944
75,forth,85,ehrlich,IAT_purple4.bmp,purple,starting_melody,melody,starting,m,positive,positive,ES_red,0,c,483,2297642,2298146,2298350
75,forth,86,witzig,IAT_purple3.bmp,purple,starting_melody,melody,starting,m,positive,positive,ES_red,1,m,540,2300408,2300912,2301116
75,forth,87,falsch,IAT_yellow3.bmp,yellow,starting_scream,scream,starting,c,negative,negative,ES_red,1,c,445,2302732,2303236,2303440
75,forth,88,einsam,IAT_yellow2.bmp,yellow,starting_scream,scream,starting,c,negative,negative,ES_red,1,c,444,2304961,2305466,2305670
75,forth,89,gierig,IAT_red2.bmp,red,ending_scream,scream,ending,c,negative,positive,ES_red,1,c,468,2307190,2307695,2307899
75,forth,90,heiter,IAT_red3.bmp,red,ending_scream,scream,ending,m,positive,positive,ES_red,1,m,477,2309442,2309946,2310150
75,forth,91,geizig,IAT_yellow4.bmp,yellow,starting_scream,scream,starting,c,negative,negative,ES_red,1,c,539,2311703,2312207,2312411
75,forth,92,streng,IAT_red2.bmp,red,ending_scream,scream,ending,c,negative,positive,ES_red,1,c,417,2314025,2314530,2314734
75,forth,93,sonnig,IAT_green3.bmp,green,ending_melody,melody,ending,m,positive,negative,ES_red,1,m,788,2316226,2316730,2316934
75,forth,94,sanft,IAT_red1.bmp,red,ending_scream,scream,ending,m,positive,positive,ES_red,1,m,754,2318798,2319302,2319506
75,forth,95,human,IAT_red2.bmp,red,ending_scream,scream,ending,m,positive,positive,ES_red,1,m,561,2321335,2321839,2322043
