subject_nr,block,trialnr,trial_target,trial_prime,prime_color,prime_role,prime_us,prime_relation,correct_response,target_valence,prime_valence,color_counter,correct_first_response,response_first_response,response_time_first_response,fixation_show,prime_show,target_show
68,first,0,lustig,IAT_yellow1.bmp,yellow,starting_scream,scream,starting,m,positive,negative,ES_red,1,m,523,1400694,1401198,1401402
68,first,1,teuer,IAT_green3.bmp,green,ending_melody,melody,ending,c,negative,negative,ES_red,1,c,594,1402998,1403502,1403706
68,first,2,krank,IAT_yellow3.bmp,yellow,starting_scream,scream,starting,c,negative,negative,ES_red,1,c,546,1405372,1405877,1406081
68,first,3,ehrlich,IAT_yellow2.bmp,yellow,starting_scream,scream,starting,m,positive,negative,ES_red,1,m,523,1407700,1408204,1408408
68,first,4,heiter,IAT_green4.bmp,green,ending_melody,melody,ending,m,positive,negative,ES_red,1,m,516,1410003,1410507,1410711
68,first,5,sonnig,IAT_purple1.bmp,purple,starting_melody,melody,starting,m,positive,positive,ES_red,1,m,448,1412299,1412803,1413007
68,first,6,morsch,IAT_yellow2.bmp,yellow,starting_scream,scream,starting,c,negative,negative,ES_red,1,c,612,1414527,1415032,1415236
68,first,7,kaputt,IAT_yellow2.bmp,yellow,starting_scream,scream,starting,c,negative,negative,ES_red,1,c,524,1416921,1417425,1417629
68,first,8,gerecht,IAT_red2.bmp,red,ending_scream,scream,ending,m,positive,positive,ES_red,1,m,520,1419225,1419729,1419933
68,first,9,einsam,IAT_purple4.bmp,purple,starting_melody,melody,starting,c,negative,positive,ES_red,1,c,538,1421525,1422029,1422233
68,first,10,gierig,IAT_yellow1.bmp,yellow,starting_scream,scream,starting,c,negative,negative,ES_red,1,c,561,1423843,1424348,1424552
68,first,11,sonnig,IAT_yellow3.bmp,yellow,starting_scream,scream,starting,m,positive,negative,ES_red,1,m,470,1426185,1426689,1426893
68,first,12,sozial,IAT_green1.bmp,green,ending_melody,melody,ending,m,positive,negative,ES_red,0,c,480,1428435,1428940,1429144
68,first,13,feige,IAT_yellow2.bmp,yellow,starting_scream,scream,starting,c,negative,negative,ES_red,1,c,529,1431197,1431701,1431905
68,first,14,krank,IAT_green2.bmp,green,ending_melody,melody,ending,c,negative,negative,ES_red,1,c,562,1433507,1434011,1434215
68,first,15,gesund,IAT_green1.bmp,green,ending_melody,melody,ending,m,positive,negative,ES_red,1,m,503,1435849,1436353,1436557
68,first,16,witzig,IAT_purple4.bmp,purple,starting_melody,melody,starting,m,positive,positive,ES_red,1,m,476,1438133,1438637,1438841
68,first,17,human,IAT_red4.bmp,red,ending_scream,scream,ending,m,positive,positive,ES_red,1,m,509,1440390,1440894,1441098
68,first,18,ehrlich,IAT_yellow1.bmp,yellow,starting_scream,scream,starting,m,positive,negative,ES_red,1,m,574,1442680,1443185,1443389
68,first,19,munter,IAT_red4.bmp,red,ending_scream,scream,ending,m,positive,positive,ES_red,1,m,457,1445035,1445540,1445744
68,first,20,sozial,IAT_red1.bmp,red,ending_scream,scream,ending,m,positive,positive,ES_red,1,m,474,1447275,1447779,1447983
68,first,21,lästig,IAT_purple3.bmp,purple,starting_melody,melody,starting,c,negative,positive,ES_red,1,c,572,1449531,1450035,1450239
68,first,22,munter,IAT_green1.bmp,green,ending_melody,melody,ending,m,positive,negative,ES_red,1,m,598,1451883,1452388,1452592
68,first,23,gerecht,IAT_red3.bmp,red,ending_scream,scream,ending,m,positive,positive,ES_red,1,m,529,1454263,1454768,1454972
68,first,24,schön,IAT_yellow3.bmp,yellow,starting_scream,scream,starting,m,positive,negative,ES_red,1,m,412,1456573,1457078,1457282
68,first,25,falsch,IAT_purple2.bmp,purple,starting_melody,melody,starting,c,negative,positive,ES_red,0,m,397,1458766,1459270,1459474
68,first,26,lustig,IAT_red1.bmp,red,ending_scream,scream,ending,m,positive,positive,ES_red,0,c,426,1461444,1461948,1462152
68,first,27,gerecht,IAT_green3.bmp,green,ending_melody,melody,ending,m,positive,negative,ES_red,1,m,508,1464151,1464655,1464859
68,first,28,einsam,IAT_yellow4.bmp,yellow,starting_scream,scream,starting,c,negative,negative,ES_red,1,c,635,1466439,1466944,1467148
68,first,29,streng,IAT_purple4.bmp,purple,starting_melody,melody,starting,c,negative,positive,ES_red,1,c,485,1468855,1469359,1469563
68,first,30,witzig,IAT_yellow2.bmp,yellow,starting_scream,scream,starting,m,positive,negative,ES_red,1,m,699,1471121,1471626,1471830
68,first,31,gierig,IAT_red2.bmp,red,ending_scream,scream,ending,c,negative,positive,ES_red,1,c,528,1473602,1474106,1474310
68,first,32,lästig,IAT_red3.bmp,red,ending_scream,scream,ending,c,negative,positive,ES_red,1,c,677,1475912,1476416,1476620
68,first,33,streng,IAT_green2.bmp,green,ending_melody,melody,ending,c,negative,negative,ES_red,1,c,478,1478370,1478874,1479078
68,first,34,lästig,IAT_red4.bmp,red,ending_scream,scream,ending,c,negative,positive,ES_red,1,c,478,1480629,1481134,1481338
68,first,35,sanft,IAT_yellow4.bmp,yellow,starting_scream,scream,starting,m,positive,negative,ES_red,0,c,463,1482890,1483394,1483598
68,first,36,schön,IAT_purple1.bmp,purple,starting_melody,melody,starting,m,positive,positive,ES_red,1,m,566,1485634,1486138,1486342
68,first,37,kaputt,IAT_green1.bmp,green,ending_melody,melody,ending,c,negative,negative,ES_red,1,c,623,1487981,1488485,1488689
68,first,38,sozial,IAT_yellow3.bmp,yellow,starting_scream,scream,starting,m,positive,negative,ES_red,1,m,645,1490385,1490889,1491093
68,first,39,munter,IAT_green2.bmp,green,ending_melody,melody,ending,m,positive,negative,ES_red,1,m,486,1492810,1493314,1493518
68,first,40,gerecht,IAT_purple3.bmp,purple,starting_melody,melody,starting,m,positive,positive,ES_red,1,m,537,1495076,1495581,1495785
68,first,41,geizig,IAT_red3.bmp,red,ending_scream,scream,ending,c,negative,positive,ES_red,1,c,591,1497394,1497899,1498103
68,first,42,ehrlich,IAT_purple1.bmp,purple,starting_melody,melody,starting,m,positive,positive,ES_red,1,m,594,1499766,1500271,1500475
68,first,43,streng,IAT_green4.bmp,green,ending_melody,melody,ending,c,negative,negative,ES_red,1,c,581,1502142,1502646,1502850
68,first,44,teuer,IAT_green2.bmp,green,ending_melody,melody,ending,c,negative,negative,ES_red,1,c,690,1504504,1505008,1505212
68,first,45,geizig,IAT_red2.bmp,red,ending_scream,scream,ending,c,negative,positive,ES_red,1,c,549,1506974,1507479,1507683
68,first,46,brutal,IAT_yellow4.bmp,yellow,starting_scream,scream,starting,c,negative,negative,ES_red,1,c,495,1509306,1509810,1510014
68,first,47,witzig,IAT_red3.bmp,red,ending_scream,scream,ending,m,positive,positive,ES_red,1,m,549,1511582,1512087,1512291
68,first,48,falsch,IAT_green4.bmp,green,ending_melody,melody,ending,c,negative,negative,ES_red,1,c,469,1513913,1514418,1514622
68,first,49,heiter,IAT_green2.bmp,green,ending_melody,melody,ending,m,positive,negative,ES_red,1,m,538,1516163,1516668,1516872
68,first,50,morsch,IAT_purple4.bmp,purple,starting_melody,melody,starting,c,negative,positive,ES_red,1,c,526,1518483,1518988,1519192
68,first,51,brutal,IAT_red1.bmp,red,ending_scream,scream,ending,c,negative,positive,ES_red,1,c,516,1520792,1521296,1521500
68,first,52,munter,IAT_yellow1.bmp,yellow,starting_scream,scream,starting,m,positive,negative,ES_red,1,m,682,1523090,1523594,1523798
68,first,53,sozial,IAT_green3.bmp,green,ending_melody,melody,ending,m,positive,negative,ES_red,1,m,532,1525554,1526058,1526262
68,first,54,gesund,IAT_purple3.bmp,purple,starting_melody,melody,starting,m,positive,positive,ES_red,1,m,503,1527867,1528371,1528575
68,first,55,sanft,IAT_purple1.bmp,purple,starting_melody,melody,starting,m,positive,positive,ES_red,1,m,445,1530151,1530655,1530859
68,first,56,einsam,IAT_red4.bmp,red,ending_scream,scream,ending,c,negative,positive,ES_red,1,c,667,1532377,1532881,1533085
68,first,57,lustig,IAT_purple2.bmp,purple,starting_melody,melody,starting,m,positive,positive,ES_red,1,m,545,1534826,1535330,1535534
68,first,58,heiter,IAT_red1.bmp,red,ending_scream,scream,ending,m,positive,positive,ES_red,1,m,499,1537152,1537657,1537861
68,first,59,schön,IAT_red2.bmp,red,ending_scream,scream,ending,m,positive,positive,ES_red,1,m,460,1539434,1539938,1540142
68,first,60,lustig,IAT_green3.bmp,green,ending_melody,melody,ending,m,positive,negative,ES_red,1,m,534,1541676,1542180,1542384
68,first,61,brutal,IAT_purple2.bmp,purple,starting_melody,melody,starting,c,negative,positive,ES_red,1,c,483,1543991,1544495,1544699
68,first,62,feige,IAT_yellow2.bmp,yellow,starting_scream,scream,starting,c,negative,negative,ES_red,0,m,479,1546255,1546759,1546963
68,first,63,geizig,IAT_purple3.bmp,purple,starting_melody,melody,starting,c,negative,positive,ES_red,1,c,568,1549015,1549519,1549723
68,first,64,sanft,IAT_green4.bmp,green,ending_melody,melody,ending,m,positive,negative,ES_red,1,m,577,1551364,1551869,1552073
68,first,65,feige,IAT_yellow3.bmp,yellow,starting_scream,scream,starting,c,negative,negative,ES_red,1,c,548,1553724,1554228,1554432
68,first,66,falsch,IAT_purple4.bmp,purple,starting_melody,melody,starting,c,negative,positive,ES_red,1,c,554,1556054,1556558,1556762
68,first,67,geizig,IAT_red1.bmp,red,ending_scream,scream,ending,c,negative,positive,ES_red,1,c,473,1558389,1558894,1559098
68,first,68,morsch,IAT_red2.bmp,red,ending_scream,scream,ending,c,negative,positive,ES_red,1,c,532,1560645,1561149,1561353
68,first,69,witzig,IAT_red3.bmp,red,ending_scream,scream,ending,m,positive,positive,ES_red,1,m,561,1562959,1563463,1563667
68,first,70,ehrlich,IAT_green3.bmp,green,ending_melody,melody,ending,m,positive,negative,ES_red,0,c,821,1565302,1565806,1566010
68,first,71,lästig,IAT_red4.bmp,red,ending_scream,scream,ending,c,negative,positive,ES_red,1,c,551,1568405,1568909,1569113
68,first,72,human,IAT_red1.bmp,red,ending_scream,scream,ending,m,positive,positive,ES_red,1,m,538,1570737,1571242,1571446
68,first,73,einsam,IAT_green4.bmp,green,ending_melody,melody,ending,c,negative,negative,ES_red,1,c,565,1573058,1573562,1573766
68,first,74,sonnig,IAT_purple4.bmp,purple,starting_melody,melody,starting,m,positive,positive,ES_red,1,m,578,1575405,1575909,1576113
68,first,75,gierig,IAT_green4.bmp,green,ending_melody,melody,ending,c,negative,negative,ES_red,1,c,455,1577766,1578270,1578474
68,first,76,teuer,IAT_green3.bmp,green,ending_melody,melody,ending,c,negative,negative,ES_red,0,m,514,1580003,1580507,1580711
68,first,77,human,IAT_yellow1.bmp,yellow,starting_scream,scream,starting,m,positive,negative,ES_red,1,m,497,1582799,1583303,1583507
68,first,78,gierig,IAT_yellow1.bmp,yellow,starting_scream,scream,starting,c,negative,negative,ES_red,1,c,608,1585078,1585582,1585786
68,first,79,teuer,IAT_red4.bmp,red,ending_scream,scream,ending,c,negative,positive,ES_red,1,c,513,1587468,1587972,1588176
68,first,80,heiter,IAT_yellow3.bmp,yellow,starting_scream,scream,starting,m,positive,negative,ES_red,1,m,529,1589763,1590268,1590472
68,first,81,human,IAT_green1.bmp,green,ending_melody,melody,ending,m,positive,negative,ES_red,1,m,622,1592074,1592578,1592782
68,first,82,morsch,IAT_green2.bmp,green,ending_melody,melody,ending,c,negative,negative,ES_red,1,c,520,1594478,1594983,1595187
68,first,83,brutal,IAT_purple1.bmp,purple,starting_melody,melody,starting,c,negative,positive,ES_red,1,c,503,1596781,1597285,1597489
68,first,84,krank,IAT_purple2.bmp,purple,starting_melody,melody,starting,c,negative,positive,ES_red,1,c,562,1599067,1599571,1599775
68,first,85,gesund,IAT_purple2.bmp,purple,starting_melody,melody,starting,m,positive,positive,ES_red,0,c,380,1601411,1601915,1602119
68,first,86,kaputt,IAT_purple1.bmp,purple,starting_melody,melody,starting,c,negative,positive,ES_red,1,c,466,1604073,1604577,1604781
68,first,87,krank,IAT_green1.bmp,green,ending_melody,melody,ending,c,negative,negative,ES_red,1,c,403,1606320,1606824,1607028
68,first,88,schön,IAT_red3.bmp,red,ending_scream,scream,ending,m,positive,positive,ES_red,1,m,455,1608506,1609010,1609214
68,first,89,feige,IAT_red2.bmp,red,ending_scream,scream,ending,c,negative,positive,ES_red,1,c,434,1610743,1611247,1611451
68,first,90,gesund,IAT_yellow4.bmp,yellow,starting_scream,scream,starting,m,positive,negative,ES_red,1,m,483,1612959,1613463,1613667
68,first,91,sanft,IAT_purple3.bmp,purple,starting_melody,melody,starting,m,positive,positive,ES_red,0,c,500,1615224,1615728,1615932
68,first,92,kaputt,IAT_yellow4.bmp,yellow,starting_scream,scream,starting,c,negative,negative,ES_red,1,c,576,1618006,1618510,1618714
68,first,93,falsch,IAT_purple2.bmp,purple,starting_melody,melody,starting,c,negative,positive,ES_red,1,c,422,1620364,1620868,1621072
68,first,94,sonnig,IAT_purple3.bmp,purple,starting_melody,melody,starting,m,positive,positive,ES_red,1,m,463,1622567,1623071,1623275
68,first,95,streng,IAT_yellow4.bmp,yellow,starting_scream,scream,starting,c,negative,negative,ES_red,1,c,572,1624813,1625318,1625522
68,second,0,lästig,IAT_yellow2.bmp,yellow,starting_scream,scream,starting,c,negative,negative,ES_red,1,c,598,1651499,1652004,1652208
68,second,1,gesund,IAT_red1.bmp,red,ending_scream,scream,ending,m,positive,positive,ES_red,1,m,547,1653880,1654384,1654588
68,second,2,morsch,IAT_red2.bmp,red,ending_scream,scream,ending,c,negative,positive,ES_red,1,c,439,1656209,1656713,1656917
68,second,3,teuer,IAT_yellow1.bmp,yellow,starting_scream,scream,starting,c,negative,negative,ES_red,0,m,433,1658429,1658933,1659138
68,second,4,krank,IAT_red2.bmp,red,ending_scream,scream,ending,c,negative,positive,ES_red,1,c,603,1661146,1661650,1661854
68,second,5,morsch,IAT_red4.bmp,red,ending_scream,scream,ending,c,negative,positive,ES_red,1,c,510,1663530,1664034,1664238
68,second,6,sonnig,IAT_purple3.bmp,purple,starting_melody,melody,starting,m,positive,positive,ES_red,1,m,437,1665821,1666325,1666529
68,second,7,sanft,IAT_yellow3.bmp,yellow,starting_scream,scream,starting,m,positive,negative,ES_red,1,m,494,1668040,1668544,1668748
68,second,8,geizig,IAT_purple2.bmp,purple,starting_melody,melody,starting,c,negative,positive,ES_red,0,m,463,1670316,1670820,1671024
68,second,9,streng,IAT_red1.bmp,red,ending_scream,scream,ending,c,negative,positive,ES_red,1,c,632,1673060,1673564,1673768
68,second,10,geizig,IAT_red1.bmp,red,ending_scream,scream,ending,c,negative,positive,ES_red,1,c,662,1675472,1675977,1676181
68,second,11,falsch,IAT_green1.bmp,green,ending_melody,melody,ending,c,negative,negative,ES_red,1,c,531,1677915,1678420,1678624
68,second,12,brutal,IAT_yellow1.bmp,yellow,starting_scream,scream,starting,c,negative,negative,ES_red,1,c,442,1680228,1680732,1680936
68,second,13,schön,IAT_green3.bmp,green,ending_melody,melody,ending,m,positive,negative,ES_red,1,m,454,1682451,1682955,1683159
68,second,14,sonnig,IAT_purple1.bmp,purple,starting_melody,melody,starting,m,positive,positive,ES_red,1,m,546,1684687,1685191,1685395
68,second,15,human,IAT_yellow2.bmp,yellow,starting_scream,scream,starting,m,positive,negative,ES_red,1,m,499,1687015,1687519,1687723
68,second,16,witzig,IAT_green2.bmp,green,ending_melody,melody,ending,m,positive,negative,ES_red,1,m,547,1689294,1689799,1690003
68,second,17,gierig,IAT_purple2.bmp,purple,starting_melody,melody,starting,c,negative,positive,ES_red,1,c,469,1691624,1692128,1692332
68,second,18,munter,IAT_yellow1.bmp,yellow,starting_scream,scream,starting,m,positive,negative,ES_red,1,m,534,1693875,1694379,1694583
68,second,19,kaputt,IAT_red3.bmp,red,ending_scream,scream,ending,c,negative,positive,ES_red,1,c,517,1696191,1696695,1696899
68,second,20,streng,IAT_purple4.bmp,purple,starting_melody,melody,starting,c,negative,positive,ES_red,1,c,547,1698489,1698994,1699198
68,second,21,einsam,IAT_yellow2.bmp,yellow,starting_scream,scream,starting,c,negative,negative,ES_red,1,c,491,1700819,1701323,1701527
68,second,22,witzig,IAT_red4.bmp,red,ending_scream,scream,ending,m,positive,positive,ES_red,1,m,488,1703091,1703595,1703799
68,second,23,gierig,IAT_green4.bmp,green,ending_melody,melody,ending,c,negative,negative,ES_red,1,c,477,1705359,1705864,1706068
68,second,24,sozial,IAT_purple4.bmp,purple,starting_melody,melody,starting,m,positive,positive,ES_red,0,c,498,1707617,1708121,1708325
68,second,25,lustig,IAT_purple2.bmp,purple,starting_melody,melody,starting,m,positive,positive,ES_red,1,m,573,1710395,1710900,1711104
68,second,26,krank,IAT_yellow4.bmp,yellow,starting_scream,scream,starting,c,negative,negative,ES_red,1,c,462,1712752,1713256,1713460
68,second,27,falsch,IAT_purple4.bmp,purple,starting_melody,melody,starting,c,negative,positive,ES_red,1,c,449,1714995,1715499,1715703
68,second,28,brutal,IAT_yellow4.bmp,yellow,starting_scream,scream,starting,c,negative,negative,ES_red,1,c,602,1717225,1717730,1717934
68,second,29,geizig,IAT_purple1.bmp,purple,starting_melody,melody,starting,c,negative,positive,ES_red,1,c,473,1719609,1720114,1720318
68,second,30,schön,IAT_yellow2.bmp,yellow,starting_scream,scream,starting,m,positive,negative,ES_red,1,m,440,1721865,1722370,1722574
68,second,31,teuer,IAT_green4.bmp,green,ending_melody,melody,ending,c,negative,negative,ES_red,1,c,605,1724087,1724591,1724795
68,second,32,human,IAT_green2.bmp,green,ending_melody,melody,ending,m,positive,negative,ES_red,1,m,579,1726474,1726978,1727182
68,second,33,munter,IAT_yellow3.bmp,yellow,starting_scream,scream,starting,m,positive,negative,ES_red,1,m,603,1728835,1729339,1729543
68,second,34,sozial,IAT_purple1.bmp,purple,starting_melody,melody,starting,m,positive,positive,ES_red,1,m,657,1731222,1731726,1731930
68,second,35,kaputt,IAT_green2.bmp,green,ending_melody,melody,ending,c,negative,negative,ES_red,1,c,594,1733660,1734164,1734368
68,second,36,gesund,IAT_green1.bmp,green,ending_melody,melody,ending,m,positive,negative,ES_red,1,m,555,1736035,1736540,1736744
68,second,37,ehrlich,IAT_green4.bmp,green,ending_melody,melody,ending,m,positive,negative,ES_red,1,m,531,1738372,1738877,1739081
68,second,38,sozial,IAT_yellow3.bmp,yellow,starting_scream,scream,starting,m,positive,negative,ES_red,1,m,519,1740687,1741191,1741395
68,second,39,brutal,IAT_purple4.bmp,purple,starting_melody,melody,starting,c,negative,positive,ES_red,1,c,526,1742987,1743491,1743695
68,second,40,gerecht,IAT_red1.bmp,red,ending_scream,scream,ending,m,positive,positive,ES_red,1,m,469,1745295,1745799,1746003
68,second,41,falsch,IAT_green1.bmp,green,ending_melody,melody,ending,c,negative,negative,ES_red,1,c,596,1747544,1748049,1748253
68,second,42,human,IAT_yellow4.bmp,yellow,starting_scream,scream,starting,m,positive,negative,ES_red,1,m,481,1749924,1750428,1750632
68,second,43,lästig,IAT_purple3.bmp,purple,starting_melody,melody,starting,c,negative,positive,ES_red,1,c,455,1752186,1752690,1752894
68,second,44,streng,IAT_green2.bmp,green,ending_melody,melody,ending,c,negative,negative,ES_red,1,c,572,1754422,1754926,1755130
68,second,45,gierig,IAT_purple2.bmp,purple,starting_melody,melody,starting,c,negative,positive,ES_red,1,c,596,1756776,1757280,1757484
68,second,46,krank,IAT_yellow3.bmp,yellow,starting_scream,scream,starting,c,negative,negative,ES_red,1,c,454,1759153,1759658,1759862
68,second,47,feige,IAT_purple3.bmp,purple,starting_melody,melody,starting,c,negative,positive,ES_red,1,c,483,1761389,1761894,1762098
68,second,48,sanft,IAT_yellow1.bmp,yellow,starting_scream,scream,starting,m,positive,negative,ES_red,1,m,434,1763655,1764160,1764364
68,second,49,gerecht,IAT_green4.bmp,green,ending_melody,melody,ending,m,positive,negative,ES_red,1,m,516,1765871,1766375,1766579
68,second,50,heiter,IAT_red1.bmp,red,ending_scream,scream,ending,m,positive,positive,ES_red,1,m,480,1768168,1768672,1768876
68,second,51,ehrlich,IAT_red3.bmp,red,ending_scream,scream,ending,m,positive,positive,ES_red,1,m,448,1770429,1770934,1771138
68,second,52,heiter,IAT_yellow1.bmp,yellow,starting_scream,scream,starting,m,positive,negative,ES_red,1,m,437,1772660,1773164,1773368
68,second,53,streng,IAT_green2.bmp,green,ending_melody,melody,ending,c,negative,negative,ES_red,1,c,471,1774879,1775383,1775587
68,second,54,munter,IAT_red3.bmp,red,ending_scream,scream,ending,m,positive,positive,ES_red,1,m,479,1777132,1777636,1777840
68,second,55,sanft,IAT_red3.bmp,red,ending_scream,scream,ending,m,positive,positive,ES_red,1,m,485,1779394,1779898,1780102
68,second,56,witzig,IAT_purple1.bmp,purple,starting_melody,melody,starting,m,positive,positive,ES_red,1,m,414,1781660,1782165,1782369
68,second,57,schön,IAT_purple2.bmp,purple,starting_melody,melody,starting,m,positive,positive,ES_red,1,m,421,1783856,1784360,1784564
68,second,58,teuer,IAT_purple2.bmp,purple,starting_melody,melody,starting,c,negative,positive,ES_red,1,c,540,1786060,1786564,1786768
68,second,59,kaputt,IAT_red2.bmp,red,ending_scream,scream,ending,c,negative,positive,ES_red,1,c,594,1788381,1788885,1789089
68,second,60,heiter,IAT_green3.bmp,green,ending_melody,melody,ending,m,positive,negative,ES_red,1,m,481,1790756,1791260,1791464
68,second,61,gerecht,IAT_green1.bmp,green,ending_melody,melody,ending,m,positive,negative,ES_red,1,m,775,1793019,1793523,1793727
68,second,62,sozial,IAT_purple3.bmp,purple,starting_melody,melody,starting,m,positive,positive,ES_red,0,None,1500,1795575,1796079,1796283
68,second,63,heiter,IAT_red1.bmp,red,ending_scream,scream,ending,m,positive,positive,ES_red,1,m,714,1799356,1799861,1800065
68,second,64,feige,IAT_green2.bmp,green,ending_melody,melody,ending,c,negative,negative,ES_red,1,c,728,1801853,1802357,1802561
68,second,65,brutal,IAT_yellow4.bmp,yellow,starting_scream,scream,starting,c,negative,negative,ES_red,1,c,480,1804364,1804868,1805072
68,second,66,morsch,IAT_yellow2.bmp,yellow,starting_scream,scream,starting,c,negative,negative,ES_red,1,c,521,1806625,1807130,1807334
68,second,67,feige,IAT_red4.bmp,red,ending_scream,scream,ending,c,negative,positive,ES_red,1,c,666,1808929,1809433,1809637
68,second,68,krank,IAT_green4.bmp,green,ending_melody,melody,ending,c,negative,negative,ES_red,1,c,471,1811376,1811880,1812084
68,second,69,lustig,IAT_green1.bmp,green,ending_melody,melody,ending,m,positive,negative,ES_red,1,m,460,1813629,1814133,1814337
68,second,70,sonnig,IAT_green3.bmp,green,ending_melody,melody,ending,m,positive,negative,ES_red,1,m,459,1815872,1816376,1816580
68,second,71,morsch,IAT_green4.bmp,green,ending_melody,melody,ending,c,negative,negative,ES_red,1,c,456,1818112,1818617,1818821
68,second,72,ehrlich,IAT_purple3.bmp,purple,starting_melody,melody,starting,m,positive,positive,ES_red,0,c,501,1820350,1820854,1821059
68,second,73,gesund,IAT_red2.bmp,red,ending_scream,scream,ending,m,positive,positive,ES_red,1,m,434,1823135,1823639,1823843
68,second,74,einsam,IAT_yellow2.bmp,yellow,starting_scream,scream,starting,c,negative,negative,ES_red,1,c,698,1825351,1825855,1826059
68,second,75,schön,IAT_yellow1.bmp,yellow,starting_scream,scream,starting,m,positive,negative,ES_red,1,m,393,1827831,1828335,1828539
68,second,76,sanft,IAT_green1.bmp,green,ending_melody,melody,ending,m,positive,negative,ES_red,1,m,479,1830005,1830510,1830714
68,second,77,gerecht,IAT_purple4.bmp,purple,starting_melody,melody,starting,m,positive,positive,ES_red,1,m,568,1832266,1832771,1832975
68,second,78,witzig,IAT_yellow4.bmp,yellow,starting_scream,scream,starting,m,positive,negative,ES_red,1,m,482,1834617,1835121,1835325
68,second,79,feige,IAT_yellow4.bmp,yellow,starting_scream,scream,starting,c,negative,negative,ES_red,1,c,452,1836882,1837386,1837590
68,second,80,lustig,IAT_red4.bmp,red,ending_scream,scream,ending,m,positive,positive,ES_red,1,m,455,1839116,1839620,1839824
68,second,81,ehrlich,IAT_red3.bmp,red,ending_scream,scream,ending,m,positive,positive,ES_red,1,m,463,1841354,1841858,1842062
68,second,82,einsam,IAT_green3.bmp,green,ending_melody,melody,ending,c,negative,negative,ES_red,1,c,500,1843599,1844103,1844307
68,second,83,falsch,IAT_yellow3.bmp,yellow,starting_scream,scream,starting,c,negative,negative,ES_red,1,c,516,1845881,1846385,1846590
68,second,84,munter,IAT_green3.bmp,green,ending_melody,melody,ending,m,positive,negative,ES_red,1,m,430,1848180,1848685,1848889
68,second,85,gesund,IAT_yellow3.bmp,yellow,starting_scream,scream,starting,m,positive,negative,ES_red,1,m,403,1850394,1850898,1851102
68,second,86,lästig,IAT_purple4.bmp,purple,starting_melody,melody,starting,c,negative,positive,ES_red,1,c,415,1852579,1853084,1853288
68,second,87,gierig,IAT_red2.bmp,red,ending_scream,scream,ending,c,negative,positive,ES_red,1,c,585,1854777,1855282,1855486
68,second,88,geizig,IAT_purple1.bmp,purple,starting_melody,melody,starting,c,negative,positive,ES_red,1,c,555,1857146,1857650,1857854
68,second,89,kaputt,IAT_red4.bmp,red,ending_scream,scream,ending,c,negative,positive,ES_red,1,c,387,1859485,1859989,1860193
68,second,90,lästig,IAT_green3.bmp,green,ending_melody,melody,ending,c,negative,negative,ES_red,0,m,484,1861654,1862158,1862362
68,second,91,teuer,IAT_red3.bmp,red,ending_scream,scream,ending,c,negative,positive,ES_red,1,c,465,1864420,1864925,1865129
68,second,92,human,IAT_purple3.bmp,purple,starting_melody,melody,starting,m,positive,positive,ES_red,1,m,652,1866668,1867173,1867377
68,second,93,einsam,IAT_red4.bmp,red,ending_scream,scream,ending,c,negative,positive,ES_red,1,c,486,1869104,1869608,1869812
68,second,94,lustig,IAT_purple1.bmp,purple,starting_melody,melody,starting,m,positive,positive,ES_red,0,c,426,1871373,1871878,1872082
68,second,95,sonnig,IAT_red2.bmp,red,ending_scream,scream,ending,m,positive,positive,ES_red,1,m,436,1874083,1874587,1874791
68,third,0,heiter,IAT_green1.bmp,green,ending_melody,melody,ending,m,positive,negative,ES_red,1,m,660,1882430,1882935,1883139
68,third,1,brutal,IAT_yellow4.bmp,yellow,starting_scream,scream,starting,c,negative,negative,ES_red,1,c,509,1884874,1885379,1885583
68,third,2,krank,IAT_yellow2.bmp,yellow,starting_scream,scream,starting,c,negative,negative,ES_red,1,c,517,1887166,1887670,1887874
68,third,3,witzig,IAT_yellow3.bmp,yellow,starting_scream,scream,starting,m,positive,negative,ES_red,0,c,379,1889464,1889969,1890173
68,third,4,ehrlich,IAT_purple3.bmp,purple,starting_melody,melody,starting,m,positive,positive,ES_red,0,c,445,1892127,1892632,1892836
68,third,5,teuer,IAT_red2.bmp,red,ending_scream,scream,ending,c,negative,positive,ES_red,1,c,680,1894855,1895359,1895563
68,third,6,schön,IAT_red4.bmp,red,ending_scream,scream,ending,m,positive,positive,ES_red,1,m,487,1897316,1897821,1898025
68,third,7,gesund,IAT_yellow1.bmp,yellow,starting_scream,scream,starting,m,positive,negative,ES_red,1,m,505,1899586,1900090,1900294
68,third,8,feige,IAT_yellow3.bmp,yellow,starting_scream,scream,starting,c,negative,negative,ES_red,1,c,451,1901872,1902377,1902581
68,third,9,brutal,IAT_yellow1.bmp,yellow,starting_scream,scream,starting,c,negative,negative,ES_red,1,c,577,1904105,1904610,1904814
68,third,10,feige,IAT_green2.bmp,green,ending_melody,melody,ending,c,negative,negative,ES_red,1,c,516,1906465,1906969,1907173
68,third,11,munter,IAT_yellow4.bmp,yellow,starting_scream,scream,starting,m,positive,negative,ES_red,1,m,459,1908764,1909268,1909472
68,third,12,morsch,IAT_purple2.bmp,purple,starting_melody,melody,starting,c,negative,positive,ES_red,1,c,460,1911005,1911509,1911713
68,third,13,lästig,IAT_purple4.bmp,purple,starting_melody,melody,starting,c,negative,positive,ES_red,1,c,577,1913246,1913751,1913955
68,third,14,lustig,IAT_red3.bmp,red,ending_scream,scream,ending,m,positive,positive,ES_red,1,m,599,1915605,1916110,1916314
68,third,15,streng,IAT_purple3.bmp,purple,starting_melody,melody,starting,c,negative,positive,ES_red,1,c,535,1917986,1918490,1918694
68,third,16,gierig,IAT_green2.bmp,green,ending_melody,melody,ending,c,negative,negative,ES_red,1,c,523,1920303,1920808,1921012
68,third,17,lästig,IAT_purple4.bmp,purple,starting_melody,melody,starting,c,negative,positive,ES_red,1,c,506,1922608,1923113,1923317
68,third,18,heiter,IAT_green3.bmp,green,ending_melody,melody,ending,m,positive,negative,ES_red,1,m,507,1924896,1925401,1925605
68,third,19,witzig,IAT_red2.bmp,red,ending_scream,scream,ending,m,positive,positive,ES_red,1,m,508,1927185,1927690,1927894
68,third,20,einsam,IAT_red4.bmp,red,ending_scream,scream,ending,c,negative,positive,ES_red,1,c,457,1929477,1929981,1930185
68,third,21,gerecht,IAT_purple1.bmp,purple,starting_melody,melody,starting,m,positive,positive,ES_red,0,c,502,1931716,1932220,1932424
68,third,22,kaputt,IAT_purple1.bmp,purple,starting_melody,melody,starting,c,negative,positive,ES_red,1,c,567,1934500,1935004,1935208
68,third,23,gesund,IAT_purple2.bmp,purple,starting_melody,melody,starting,m,positive,positive,ES_red,1,m,553,1936849,1937353,1937557
68,third,24,krank,IAT_yellow4.bmp,yellow,starting_scream,scream,starting,c,negative,negative,ES_red,1,c,584,1939184,1939688,1939892
68,third,25,morsch,IAT_yellow4.bmp,yellow,starting_scream,scream,starting,c,negative,negative,ES_red,1,c,602,1941550,1942054,1942258
68,third,26,teuer,IAT_green4.bmp,green,ending_melody,melody,ending,c,negative,negative,ES_red,1,c,463,1943935,1944439,1944643
68,third,27,kaputt,IAT_green3.bmp,green,ending_melody,melody,ending,c,negative,negative,ES_red,1,c,541,1946180,1946684,1946888
68,third,28,falsch,IAT_yellow2.bmp,yellow,starting_scream,scream,starting,c,negative,negative,ES_red,1,c,418,1948503,1949007,1949211
68,third,29,sanft,IAT_purple1.bmp,purple,starting_melody,melody,starting,m,positive,positive,ES_red,1,m,588,1950703,1951207,1951411
68,third,30,einsam,IAT_purple2.bmp,purple,starting_melody,melody,starting,c,negative,positive,ES_red,1,c,632,1953073,1953578,1953782
68,third,31,munter,IAT_yellow3.bmp,yellow,starting_scream,scream,starting,m,positive,negative,ES_red,1,m,793,1955487,1955991,1956195
68,third,32,morsch,IAT_purple4.bmp,purple,starting_melody,melody,starting,c,negative,positive,ES_red,1,c,522,1958061,1958565,1958769
68,third,33,einsam,IAT_red1.bmp,red,ending_scream,scream,ending,c,negative,positive,ES_red,1,c,428,1960365,1960869,1961073
68,third,34,streng,IAT_green4.bmp,green,ending_melody,melody,ending,c,negative,negative,ES_red,1,c,441,1962575,1963080,1963284
68,third,35,gierig,IAT_red2.bmp,red,ending_scream,scream,ending,c,negative,positive,ES_red,1,c,492,1964799,1965304,1965508
68,third,36,human,IAT_green1.bmp,green,ending_melody,melody,ending,m,positive,negative,ES_red,1,m,510,1967074,1967578,1967782
68,third,37,teuer,IAT_green2.bmp,green,ending_melody,melody,ending,c,negative,negative,ES_red,1,c,513,1969365,1969870,1970074
68,third,38,gesund,IAT_green4.bmp,green,ending_melody,melody,ending,m,positive,negative,ES_red,0,c,464,1971661,1972165,1972369
68,third,39,sozial,IAT_green1.bmp,green,ending_melody,melody,ending,m,positive,negative,ES_red,1,m,548,1974407,1974911,1975115
68,third,40,sonnig,IAT_red1.bmp,red,ending_scream,scream,ending,m,positive,positive,ES_red,1,m,532,1976736,1977241,1977445
68,third,41,kaputt,IAT_purple4.bmp,purple,starting_melody,melody,starting,c,negative,positive,ES_red,1,c,424,1979051,1979555,1979759
68,third,42,ehrlich,IAT_red3.bmp,red,ending_scream,scream,ending,m,positive,positive,ES_red,1,m,478,1981257,1981761,1981965
68,third,43,feige,IAT_red4.bmp,red,ending_scream,scream,ending,c,negative,positive,ES_red,1,c,494,1983517,1984021,1984225
68,third,44,witzig,IAT_green4.bmp,green,ending_melody,melody,ending,m,positive,negative,ES_red,1,m,490,1985794,1986298,1986502
68,third,45,sanft,IAT_purple1.bmp,purple,starting_melody,melody,starting,m,positive,positive,ES_red,1,m,490,1988066,1988570,1988774
68,third,46,gerecht,IAT_yellow1.bmp,yellow,starting_scream,scream,starting,m,positive,negative,ES_red,1,m,491,1990337,1990842,1991046
68,third,47,brutal,IAT_red2.bmp,red,ending_scream,scream,ending,c,negative,positive,ES_red,1,c,503,1992610,1993115,1993319
68,third,48,sozial,IAT_red1.bmp,red,ending_scream,scream,ending,m,positive,positive,ES_red,1,m,435,1994895,1995399,1995603
68,third,49,falsch,IAT_red4.bmp,red,ending_scream,scream,ending,c,negative,positive,ES_red,1,c,455,1997112,1997616,1997820
68,third,50,gierig,IAT_yellow2.bmp,yellow,starting_scream,scream,starting,c,negative,negative,ES_red,0,m,513,1999350,1999854,2000058
68,third,51,lustig,IAT_purple1.bmp,purple,starting_melody,melody,starting,m,positive,positive,ES_red,1,m,465,2002146,2002650,2002854
68,third,52,geizig,IAT_red1.bmp,red,ending_scream,scream,ending,c,negative,positive,ES_red,1,c,551,2004392,2004897,2005101
68,third,53,gerecht,IAT_green2.bmp,green,ending_melody,melody,ending,m,positive,negative,ES_red,1,m,492,2006726,2007231,2007435
68,third,54,lästig,IAT_green1.bmp,green,ending_melody,melody,ending,c,negative,negative,ES_red,1,c,689,2009001,2009505,2009709
68,third,55,gesund,IAT_yellow2.bmp,yellow,starting_scream,scream,starting,m,positive,negative,ES_red,1,m,604,2011473,2011978,2012182
68,third,56,munter,IAT_purple4.bmp,purple,starting_melody,melody,starting,m,positive,positive,ES_red,1,m,520,2013859,2014364,2014568
68,third,57,geizig,IAT_green4.bmp,green,ending_melody,melody,ending,c,negative,negative,ES_red,1,c,707,2016162,2016666,2016870
68,third,58,falsch,IAT_yellow1.bmp,yellow,starting_scream,scream,starting,c,negative,negative,ES_red,1,c,453,2018651,2019155,2019359
68,third,59,sonnig,IAT_red1.bmp,red,ending_scream,scream,ending,m,positive,positive,ES_red,1,m,453,2020886,2021391,2021595
68,third,60,teuer,IAT_yellow3.bmp,yellow,starting_scream,scream,starting,c,negative,negative,ES_red,1,c,436,2023123,2023627,2023831
68,third,61,morsch,IAT_purple2.bmp,purple,starting_melody,melody,starting,c,negative,positive,ES_red,1,c,488,2025340,2025845,2026049
68,third,62,geizig,IAT_red3.bmp,red,ending_scream,scream,ending,c,negative,positive,ES_red,1,c,669,2027611,2028116,2028320
68,third,63,heiter,IAT_green3.bmp,green,ending_melody,melody,ending,m,positive,negative,ES_red,0,c,477,2030063,2030568,2030772
68,third,64,sanft,IAT_red3.bmp,red,ending_scream,scream,ending,m,positive,positive,ES_red,1,m,649,2032824,2033329,2033533
68,third,65,schön,IAT_green1.bmp,green,ending_melody,melody,ending,m,positive,negative,ES_red,1,m,466,2035256,2035761,2035965
68,third,66,human,IAT_green3.bmp,green,ending_melody,melody,ending,m,positive,negative,ES_red,1,m,464,2037506,2038010,2038214
68,third,67,gerecht,IAT_purple2.bmp,purple,starting_melody,melody,starting,m,positive,positive,ES_red,1,m,540,2039753,2040257,2040461
68,third,68,sonnig,IAT_yellow3.bmp,yellow,starting_scream,scream,starting,m,positive,negative,ES_red,1,m,452,2042075,2042579,2042783
68,third,69,lustig,IAT_red1.bmp,red,ending_scream,scream,ending,m,positive,positive,ES_red,1,m,418,2044312,2044816,2045020
68,third,70,schön,IAT_yellow1.bmp,yellow,starting_scream,scream,starting,m,positive,negative,ES_red,1,m,429,2046513,2047018,2047222
68,third,71,ehrlich,IAT_purple3.bmp,purple,starting_melody,melody,starting,m,positive,positive,ES_red,1,m,566,2048724,2049229,2049433
68,third,72,human,IAT_green2.bmp,green,ending_melody,melody,ending,m,positive,negative,ES_red,1,m,439,2051073,2051578,2051782
68,third,73,sonnig,IAT_yellow4.bmp,yellow,starting_scream,scream,starting,m,positive,negative,ES_red,1,m,427,2053296,2053801,2054005
68,third,74,human,IAT_red4.bmp,red,ending_scream,scream,ending,m,positive,positive,ES_red,1,m,487,2055505,2056010,2056214
68,third,75,krank,IAT_green1.bmp,green,ending_melody,melody,ending,c,negative,negative,ES_red,1,c,523,2057775,2058279,2058483
68,third,76,lästig,IAT_green4.bmp,green,ending_melody,melody,ending,c,negative,negative,ES_red,1,c,626,2060081,2060585,2060789
68,third,77,sozial,IAT_yellow1.bmp,yellow,starting_scream,scream,starting,m,positive,negative,ES_red,1,m,522,2062490,2062994,2063198
68,third,78,feige,IAT_green2.bmp,green,ending_melody,melody,ending,c,negative,negative,ES_red,1,c,539,2064794,2065298,2065502
68,third,79,einsam,IAT_red2.bmp,red,ending_scream,scream,ending,c,negative,positive,ES_red,1,c,442,2067115,2067619,2067823
68,third,80,krank,IAT_yellow2.bmp,yellow,starting_scream,scream,starting,c,negative,negative,ES_red,1,c,481,2069340,2069844,2070048
68,third,81,schön,IAT_red2.bmp,red,ending_scream,scream,ending,m,positive,positive,ES_red,1,m,589,2071604,2072108,2072312
68,third,82,witzig,IAT_yellow2.bmp,yellow,starting_scream,scream,starting,m,positive,negative,ES_red,1,m,647,2073975,2074479,2074683
68,third,83,ehrlich,IAT_yellow3.bmp,yellow,starting_scream,scream,starting,m,positive,negative,ES_red,1,m,474,2076405,2076909,2077113
68,third,84,streng,IAT_red4.bmp,red,ending_scream,scream,ending,c,negative,positive,ES_red,1,c,478,2078662,2079166,2079370
68,third,85,geizig,IAT_purple3.bmp,purple,starting_melody,melody,starting,c,negative,positive,ES_red,1,c,586,2080922,2081426,2081630
68,third,86,munter,IAT_green3.bmp,green,ending_melody,melody,ending,m,positive,negative,ES_red,1,m,650,2083290,2083794,2083998
68,third,87,kaputt,IAT_purple1.bmp,purple,starting_melody,melody,starting,c,negative,positive,ES_red,1,c,618,2085723,2086227,2086431
68,third,88,falsch,IAT_purple2.bmp,purple,starting_melody,melody,starting,c,negative,positive,ES_red,1,c,624,2088124,2088628,2088832
68,third,89,sanft,IAT_red3.bmp,red,ending_scream,scream,ending,m,positive,positive,ES_red,1,m,585,2090530,2091035,2091239
68,third,90,lustig,IAT_purple4.bmp,purple,starting_melody,melody,starting,m,positive,positive,ES_red,1,m,545,2092899,2093403,2093607
68,third,91,brutal,IAT_red3.bmp,red,ending_scream,scream,ending,c,negative,positive,ES_red,1,c,1150,2095226,2095731,2095935
68,third,92,gierig,IAT_yellow4.bmp,yellow,starting_scream,scream,starting,c,negative,negative,ES_red,1,c,665,2098159,2098663,2098868
68,third,93,heiter,IAT_purple3.bmp,purple,starting_melody,melody,starting,m,positive,positive,ES_red,1,m,554,2100607,2101111,2101315
68,third,94,streng,IAT_green3.bmp,green,ending_melody,melody,ending,c,negative,negative,ES_red,1,c,573,2102944,2103448,2103652
68,third,95,sozial,IAT_purple3.bmp,purple,starting_melody,melody,starting,m,positive,positive,ES_red,1,m,495,2105299,2105803,2106007
68,forth,0,schön,IAT_red2.bmp,red,ending_scream,scream,ending,m,positive,positive,ES_red,1,m,461,2151887,2152392,2152596
68,forth,1,geizig,IAT_red1.bmp,red,ending_scream,scream,ending,c,negative,positive,ES_red,1,c,641,2154134,2154639,2154843
68,forth,2,gerecht,IAT_red3.bmp,red,ending_scream,scream,ending,m,positive,positive,ES_red,1,m,653,2156558,2157063,2157267
68,forth,3,human,IAT_purple2.bmp,purple,starting_melody,melody,starting,m,positive,positive,ES_red,1,m,477,2158995,2159499,2159703
68,forth,4,feige,IAT_green3.bmp,green,ending_melody,melody,ending,c,negative,negative,ES_red,1,c,551,2161256,2161760,2161964
68,forth,5,heiter,IAT_red1.bmp,red,ending_scream,scream,ending,m,positive,positive,ES_red,1,m,471,2163590,2164094,2164298
68,forth,6,krank,IAT_green2.bmp,green,ending_melody,melody,ending,c,negative,negative,ES_red,1,c,506,2165843,2166348,2166552
68,forth,7,gierig,IAT_red4.bmp,red,ending_scream,scream,ending,c,negative,positive,ES_red,1,c,679,2168134,2168638,2168842
68,forth,8,schön,IAT_purple4.bmp,purple,starting_melody,melody,starting,m,positive,positive,ES_red,1,m,439,2170596,2171100,2171304
68,forth,9,morsch,IAT_green4.bmp,green,ending_melody,melody,ending,c,negative,negative,ES_red,1,c,458,2172818,2173322,2173526
68,forth,10,lustig,IAT_yellow2.bmp,yellow,starting_scream,scream,starting,m,positive,negative,ES_red,1,m,422,2175058,2175563,2175767
68,forth,11,krank,IAT_green2.bmp,green,ending_melody,melody,ending,c,negative,negative,ES_red,1,c,476,2177263,2177767,2177971
68,forth,12,brutal,IAT_red3.bmp,red,ending_scream,scream,ending,c,negative,positive,ES_red,1,c,469,2179522,2180027,2180231
68,forth,13,einsam,IAT_yellow2.bmp,yellow,starting_scream,scream,starting,c,negative,negative,ES_red,1,c,540,2181776,2182280,2182484
68,forth,14,sonnig,IAT_yellow3.bmp,yellow,starting_scream,scream,starting,m,positive,negative,ES_red,1,m,724,2184099,2184603,2184808
68,forth,15,human,IAT_yellow3.bmp,yellow,starting_scream,scream,starting,m,positive,negative,ES_red,1,m,530,2186606,2187110,2187314
68,forth,16,geizig,IAT_yellow2.bmp,yellow,starting_scream,scream,starting,c,negative,negative,ES_red,1,c,472,2188920,2189425,2189629
68,forth,17,sozial,IAT_green1.bmp,green,ending_melody,melody,ending,m,positive,negative,ES_red,0,c,416,2191176,2191680,2191884
68,forth,18,feige,IAT_yellow2.bmp,yellow,starting_scream,scream,starting,c,negative,negative,ES_red,1,c,585,2193877,2194382,2194586
68,forth,19,gierig,IAT_yellow1.bmp,yellow,starting_scream,scream,starting,c,negative,negative,ES_red,1,c,543,2196247,2196751,2196955
68,forth,20,einsam,IAT_red1.bmp,red,ending_scream,scream,ending,c,negative,positive,ES_red,1,c,489,2198574,2199078,2199282
68,forth,21,krank,IAT_red4.bmp,red,ending_scream,scream,ending,c,negative,positive,ES_red,1,c,500,2200845,2201349,2201553
68,forth,22,kaputt,IAT_yellow2.bmp,yellow,starting_scream,scream,starting,c,negative,negative,ES_red,1,c,520,2203128,2203632,2203836
68,forth,23,lästig,IAT_red2.bmp,red,ending_scream,scream,ending,c,negative,positive,ES_red,1,c,475,2205432,2205936,2206140
68,forth,24,streng,IAT_yellow3.bmp,yellow,starting_scream,scream,starting,c,negative,negative,ES_red,1,c,449,2207689,2208193,2208397
68,forth,25,gerecht,IAT_green3.bmp,green,ending_melody,melody,ending,m,positive,negative,ES_red,0,c,481,2209921,2210426,2210630
68,forth,26,gierig,IAT_purple4.bmp,purple,starting_melody,melody,starting,c,negative,positive,ES_red,1,c,482,2212687,2213191,2213395
68,forth,27,teuer,IAT_purple4.bmp,purple,starting_melody,melody,starting,c,negative,positive,ES_red,1,c,426,2214951,2215455,2215659
68,forth,28,sozial,IAT_yellow3.bmp,yellow,starting_scream,scream,starting,m,positive,negative,ES_red,1,m,480,2217161,2217665,2217869
68,forth,29,streng,IAT_purple3.bmp,purple,starting_melody,melody,starting,c,negative,positive,ES_red,1,c,502,2219424,2219928,2220132
68,forth,30,falsch,IAT_red4.bmp,red,ending_scream,scream,ending,c,negative,positive,ES_red,1,c,471,2221709,2222214,2222418
68,forth,31,brutal,IAT_red2.bmp,red,ending_scream,scream,ending,c,negative,positive,ES_red,1,c,610,2223965,2224469,2224673
68,forth,32,munter,IAT_purple4.bmp,purple,starting_melody,melody,starting,m,positive,positive,ES_red,1,m,638,2226358,2226862,2227066
68,forth,33,sonnig,IAT_green3.bmp,green,ending_melody,melody,ending,m,positive,negative,ES_red,1,m,599,2228779,2229284,2229488
68,forth,34,lustig,IAT_red4.bmp,red,ending_scream,scream,ending,m,positive,positive,ES_red,1,m,927,2231162,2231667,2231871
68,forth,35,ehrlich,IAT_yellow2.bmp,yellow,starting_scream,scream,starting,m,positive,negative,ES_red,1,m,474,2233873,2234378,2234582
68,forth,36,gesund,IAT_green3.bmp,green,ending_melody,melody,ending,m,positive,negative,ES_red,1,m,549,2236131,2236636,2236840
68,forth,37,schön,IAT_green1.bmp,green,ending_melody,melody,ending,m,positive,negative,ES_red,1,m,472,2238464,2238969,2239173
68,forth,38,streng,IAT_purple4.bmp,purple,starting_melody,melody,starting,c,negative,positive,ES_red,1,c,437,2240720,2241224,2241428
68,forth,39,einsam,IAT_green4.bmp,green,ending_melody,melody,ending,c,negative,negative,ES_red,1,c,530,2242939,2243443,2243647
68,forth,40,sozial,IAT_red3.bmp,red,ending_scream,scream,ending,m,positive,positive,ES_red,1,m,472,2245252,2245756,2245960
68,forth,41,lästig,IAT_yellow1.bmp,yellow,starting_scream,scream,starting,c,negative,negative,ES_red,0,m,365,2247507,2248011,2248215
68,forth,42,ehrlich,IAT_purple2.bmp,purple,starting_melody,melody,starting,m,positive,positive,ES_red,1,m,448,2250155,2250659,2250863
68,forth,43,witzig,IAT_green4.bmp,green,ending_melody,melody,ending,m,positive,negative,ES_red,1,m,452,2252386,2252890,2253094
68,forth,44,sozial,IAT_yellow4.bmp,yellow,starting_scream,scream,starting,m,positive,negative,ES_red,1,m,503,2254622,2255126,2255330
68,forth,45,teuer,IAT_green4.bmp,green,ending_melody,melody,ending,c,negative,negative,ES_red,1,c,441,2256908,2257412,2257616
68,forth,46,feige,IAT_red4.bmp,red,ending_scream,scream,ending,c,negative,positive,ES_red,1,c,467,2259132,2259636,2259840
68,forth,47,gerecht,IAT_purple1.bmp,purple,starting_melody,melody,starting,m,positive,positive,ES_red,0,c,571,2261382,2261886,2262090
68,forth,48,geizig,IAT_purple3.bmp,purple,starting_melody,melody,starting,c,negative,positive,ES_red,1,c,736,2264235,2264740,2264944
68,forth,49,ehrlich,IAT_red1.bmp,red,ending_scream,scream,ending,m,positive,positive,ES_red,1,m,496,2266756,2267260,2267464
68,forth,50,lustig,IAT_green1.bmp,green,ending_melody,melody,ending,m,positive,negative,ES_red,1,m,554,2269035,2269539,2269743
68,forth,51,lästig,IAT_green3.bmp,green,ending_melody,melody,ending,c,negative,negative,ES_red,0,m,421,2271373,2271878,2272082
68,forth,52,gesund,IAT_yellow4.bmp,yellow,starting_scream,scream,starting,m,positive,negative,ES_red,1,m,527,2274078,2274582,2274786
68,forth,53,gerecht,IAT_red4.bmp,red,ending_scream,scream,ending,m,positive,positive,ES_red,1,m,471,2276388,2276892,2277096
68,forth,54,schön,IAT_red1.bmp,red,ending_scream,scream,ending,m,positive,positive,ES_red,1,m,443,2278642,2279146,2279350
68,forth,55,morsch,IAT_purple2.bmp,purple,starting_melody,melody,starting,c,negative,positive,ES_red,1,c,532,2280869,2281373,2281577
68,forth,56,human,IAT_yellow1.bmp,yellow,starting_scream,scream,starting,m,positive,negative,ES_red,1,m,560,2283185,2283689,2283893
68,forth,57,streng,IAT_yellow4.bmp,yellow,starting_scream,scream,starting,c,negative,negative,ES_red,0,m,438,2285527,2286031,2286235
68,forth,58,gesund,IAT_purple1.bmp,purple,starting_melody,melody,starting,m,positive,positive,ES_red,1,m,582,2288248,2288752,2288956
68,forth,59,lustig,IAT_purple3.bmp,purple,starting_melody,melody,starting,m,positive,positive,ES_red,1,m,470,2290613,2291117,2291321
68,forth,60,kaputt,IAT_red3.bmp,red,ending_scream,scream,ending,c,negative,positive,ES_red,1,c,453,2292866,2293370,2293574
68,forth,61,falsch,IAT_purple2.bmp,purple,starting_melody,melody,starting,c,negative,positive,ES_red,1,c,513,2295103,2295607,2295811
68,forth,62,munter,IAT_green3.bmp,green,ending_melody,melody,ending,m,positive,negative,ES_red,1,m,502,2297399,2297904,2298108
68,forth,63,ehrlich,IAT_green2.bmp,green,ending_melody,melody,ending,m,positive,negative,ES_red,1,m,471,2299685,2300189,2300393
68,forth,64,heiter,IAT_green1.bmp,green,ending_melody,melody,ending,m,positive,negative,ES_red,1,m,587,2301939,2302443,2302647
68,forth,65,feige,IAT_green1.bmp,green,ending_melody,melody,ending,c,negative,negative,ES_red,1,c,519,2304309,2304813,2305017
68,forth,66,lästig,IAT_green2.bmp,green,ending_melody,melody,ending,c,negative,negative,ES_red,1,c,607,2306612,2307116,2307320
68,forth,67,teuer,IAT_green4.bmp,green,ending_melody,melody,ending,c,negative,negative,ES_red,1,c,538,2309002,2309506,2309710
68,forth,68,morsch,IAT_purple2.bmp,purple,starting_melody,melody,starting,c,negative,positive,ES_red,1,c,566,2311324,2311829,2312033
68,forth,69,witzig,IAT_purple1.bmp,purple,starting_melody,melody,starting,m,positive,positive,ES_red,1,m,497,2313675,2314179,2314383
68,forth,70,brutal,IAT_yellow4.bmp,yellow,starting_scream,scream,starting,c,negative,negative,ES_red,1,c,497,2315956,2316460,2316664
68,forth,71,gierig,IAT_purple1.bmp,purple,starting_melody,melody,starting,c,negative,positive,ES_red,1,c,442,2318236,2318740,2318944
68,forth,72,falsch,IAT_purple2.bmp,purple,starting_melody,melody,starting,c,negative,positive,ES_red,1,c,530,2320461,2320965,2321169
68,forth,73,heiter,IAT_purple3.bmp,purple,starting_melody,melody,starting,m,positive,positive,ES_red,1,m,560,2322774,2323278,2323482
68,forth,74,sonnig,IAT_purple1.bmp,purple,starting_melody,melody,starting,m,positive,positive,ES_red,1,m,503,2325116,2325621,2325825
68,forth,75,morsch,IAT_yellow4.bmp,yellow,starting_scream,scream,starting,c,negative,negative,ES_red,1,c,519,2327405,2327909,2328113
68,forth,76,krank,IAT_red2.bmp,red,ending_scream,scream,ending,c,negative,positive,ES_red,1,c,543,2329710,2330214,2330418
68,forth,77,einsam,IAT_purple1.bmp,purple,starting_melody,melody,starting,c,negative,positive,ES_red,0,m,391,2332036,2332540,2332744
68,forth,78,witzig,IAT_red3.bmp,red,ending_scream,scream,ending,m,positive,positive,ES_red,1,m,571,2334711,2335215,2335419
68,forth,79,sanft,IAT_purple3.bmp,purple,starting_melody,melody,starting,m,positive,positive,ES_red,1,m,771,2337065,2337569,2337773
68,forth,80,witzig,IAT_yellow1.bmp,yellow,starting_scream,scream,starting,m,positive,negative,ES_red,1,m,601,2339619,2340123,2340328
68,forth,81,munter,IAT_red3.bmp,red,ending_scream,scream,ending,m,positive,positive,ES_red,1,m,526,2342005,2342509,2342714
68,forth,82,sanft,IAT_yellow1.bmp,yellow,starting_scream,scream,starting,m,positive,negative,ES_red,1,m,586,2344316,2344820,2345024
68,forth,83,kaputt,IAT_red2.bmp,red,ending_scream,scream,ending,c,negative,positive,ES_red,1,c,720,2346686,2347190,2347394
68,forth,84,sonnig,IAT_red2.bmp,red,ending_scream,scream,ending,m,positive,positive,ES_red,1,m,621,2349189,2349693,2349897
68,forth,85,munter,IAT_yellow3.bmp,yellow,starting_scream,scream,starting,m,positive,negative,ES_red,1,m,522,2351594,2352099,2352303
68,forth,86,falsch,IAT_yellow4.bmp,yellow,starting_scream,scream,starting,c,negative,negative,ES_red,1,c,543,2353901,2354405,2354609
68,forth,87,gesund,IAT_green2.bmp,green,ending_melody,melody,ending,m,positive,negative,ES_red,0,c,527,2356227,2356731,2356935
68,forth,88,human,IAT_purple3.bmp,purple,starting_melody,melody,starting,m,positive,positive,ES_red,1,m,521,2359036,2359541,2359745
68,forth,89,geizig,IAT_yellow3.bmp,yellow,starting_scream,scream,starting,c,negative,negative,ES_red,1,c,1175,2361342,2361846,2362050
68,forth,90,brutal,IAT_green1.bmp,green,ending_melody,melody,ending,c,negative,negative,ES_red,1,c,544,2364300,2364804,2365008
68,forth,91,sanft,IAT_green4.bmp,green,ending_melody,melody,ending,m,positive,negative,ES_red,1,m,735,2366628,2367132,2367336
68,forth,92,kaputt,IAT_purple4.bmp,purple,starting_melody,melody,starting,c,negative,positive,ES_red,1,c,955,2369146,2369651,2369855
68,forth,93,teuer,IAT_green2.bmp,green,ending_melody,melody,ending,c,negative,negative,ES_red,1,c,510,2371885,2372389,2372593
68,forth,94,heiter,IAT_yellow1.bmp,yellow,starting_scream,scream,starting,m,positive,negative,ES_red,1,m,497,2374179,2374683,2374887
68,forth,95,sanft,IAT_red1.bmp,red,ending_scream,scream,ending,m,positive,positive,ES_red,1,m,640,2376459,2376963,2377168
