subject_nr,block,trialnr,trial_target,trial_prime,prime_color,prime_role,prime_us,prime_relation,correct_response,target_valence,prime_valence,color_counter,correct_first_response,response_first_response,response_time_first_response,fixation_show,prime_show,target_show
89,first,0,lustig,IAT_yellow1.bmp,yellow,starting_scream,scream,starting,m,positive,negative,ES_red,1,m,768,1442062,1442566,1442770
89,first,1,falsch,IAT_green4.bmp,green,ending_melody,melody,ending,c,negative,negative,ES_red,1,c,688,1444612,1445116,1445320
89,first,2,teuer,IAT_yellow4.bmp,yellow,starting_scream,scream,starting,c,negative,negative,ES_red,1,c,882,1447082,1447587,1447791
89,first,3,sozial,IAT_green1.bmp,green,ending_melody,melody,ending,m,positive,negative,ES_red,1,m,754,1449745,1450249,1450454
89,first,4,gesund,IAT_green3.bmp,green,ending_melody,melody,ending,m,positive,negative,ES_red,1,m,770,1452281,1452785,1452989
89,first,5,schön,IAT_green2.bmp,green,ending_melody,melody,ending,m,positive,negative,ES_red,1,m,799,1454832,1455336,1455540
89,first,6,brutal,IAT_purple2.bmp,purple,starting_melody,melody,starting,c,negative,positive,ES_red,1,c,714,1457412,1457916,1458120
89,first,7,sanft,IAT_purple3.bmp,purple,starting_melody,melody,starting,m,positive,positive,ES_red,1,m,595,1459907,1460411,1460615
89,first,8,falsch,IAT_red3.bmp,red,ending_scream,scream,ending,c,negative,positive,ES_red,1,c,688,1462282,1462786,1462991
89,first,9,gesund,IAT_yellow4.bmp,yellow,starting_scream,scream,starting,m,positive,negative,ES_red,1,m,569,1464754,1465258,1465462
89,first,10,witzig,IAT_yellow1.bmp,yellow,starting_scream,scream,starting,m,positive,negative,ES_red,1,m,711,1467106,1467610,1467814
89,first,11,sozial,IAT_green1.bmp,green,ending_melody,melody,ending,m,positive,negative,ES_red,1,m,599,1469599,1470103,1470307
89,first,12,krank,IAT_green1.bmp,green,ending_melody,melody,ending,c,negative,negative,ES_red,1,c,577,1471979,1472483,1472687
89,first,13,heiter,IAT_green3.bmp,green,ending_melody,melody,ending,m,positive,negative,ES_red,1,m,630,1474337,1474841,1475045
89,first,14,gierig,IAT_red2.bmp,red,ending_scream,scream,ending,c,negative,positive,ES_red,1,c,689,1476748,1477252,1477456
89,first,15,falsch,IAT_purple3.bmp,purple,starting_melody,melody,starting,c,negative,positive,ES_red,1,c,612,1479217,1479722,1479926
89,first,16,lästig,IAT_red3.bmp,red,ending_scream,scream,ending,c,negative,positive,ES_red,1,c,692,1481611,1482116,1482320
89,first,17,einsam,IAT_green4.bmp,green,ending_melody,melody,ending,c,negative,negative,ES_red,0,m,1154,1484085,1484589,1484793
89,first,18,streng,IAT_red2.bmp,red,ending_scream,scream,ending,c,negative,positive,ES_red,1,c,1151,1487521,1488025,1488229
89,first,19,munter,IAT_purple2.bmp,purple,starting_melody,melody,starting,m,positive,positive,ES_red,1,m,590,1490452,1490957,1491161
89,first,20,sonnig,IAT_purple3.bmp,purple,starting_melody,melody,starting,m,positive,positive,ES_red,1,m,646,1492825,1493329,1493534
89,first,21,brutal,IAT_purple2.bmp,purple,starting_melody,melody,starting,c,negative,positive,ES_red,1,c,760,1495254,1495759,1495963
89,first,22,streng,IAT_red2.bmp,red,ending_scream,scream,ending,c,negative,positive,ES_red,1,c,683,1497797,1498301,1498505
89,first,23,ehrlich,IAT_green3.bmp,green,ending_melody,melody,ending,m,positive,negative,ES_red,1,m,762,1500261,1500766,1500970
89,first,24,schön,IAT_purple1.bmp,purple,starting_melody,melody,starting,m,positive,positive,ES_red,1,m,593,1502805,1503309,1503513
89,first,25,feige,IAT_purple1.bmp,purple,starting_melody,melody,starting,c,negative,positive,ES_red,1,c,711,1505180,1505685,1505889
89,first,26,lästig,IAT_purple4.bmp,purple,starting_melody,melody,starting,c,negative,positive,ES_red,1,c,638,1507672,1508177,1508381
89,first,27,gerecht,IAT_green1.bmp,green,ending_melody,melody,ending,m,positive,negative,ES_red,1,m,851,1510091,1510596,1510800
89,first,28,brutal,IAT_yellow4.bmp,yellow,starting_scream,scream,starting,c,negative,negative,ES_red,1,c,689,1512725,1513229,1513433
89,first,29,streng,IAT_purple2.bmp,purple,starting_melody,melody,starting,c,negative,positive,ES_red,1,c,767,1515196,1515700,1515904
89,first,30,ehrlich,IAT_red3.bmp,red,ending_scream,scream,ending,m,positive,positive,ES_red,1,m,715,1517744,1518248,1518452
89,first,31,gesund,IAT_red3.bmp,red,ending_scream,scream,ending,m,positive,positive,ES_red,1,m,647,1520242,1520746,1520950
89,first,32,teuer,IAT_green4.bmp,green,ending_melody,melody,ending,c,negative,negative,ES_red,1,c,608,1522671,1523175,1523379
89,first,33,falsch,IAT_purple4.bmp,purple,starting_melody,melody,starting,c,negative,positive,ES_red,0,m,970,1525061,1525565,1525769
89,first,34,krank,IAT_purple4.bmp,purple,starting_melody,melody,starting,c,negative,positive,ES_red,1,c,1489,1528313,1528817,1529021
89,first,35,teuer,IAT_green2.bmp,green,ending_melody,melody,ending,c,negative,negative,ES_red,1,c,1034,1531584,1532088,1532292
89,first,36,feige,IAT_yellow3.bmp,yellow,starting_scream,scream,starting,c,negative,negative,ES_red,1,c,684,1534399,1534903,1535107
89,first,37,streng,IAT_purple2.bmp,purple,starting_melody,melody,starting,c,negative,positive,ES_red,0,m,953,1536865,1537369,1537573
89,first,38,lästig,IAT_yellow2.bmp,yellow,starting_scream,scream,starting,c,negative,negative,ES_red,1,c,1001,1540099,1540604,1540809
89,first,39,human,IAT_red2.bmp,red,ending_scream,scream,ending,m,positive,positive,ES_red,1,m,692,1542882,1543387,1543591
89,first,40,einsam,IAT_green4.bmp,green,ending_melody,melody,ending,c,negative,negative,ES_red,0,m,810,1545356,1545860,1546064
89,first,41,witzig,IAT_purple1.bmp,purple,starting_melody,melody,starting,m,positive,positive,ES_red,1,m,836,1548448,1548952,1549156
89,first,42,feige,IAT_yellow1.bmp,yellow,starting_scream,scream,starting,c,negative,negative,ES_red,1,c,733,1551066,1551570,1551774
89,first,43,geizig,IAT_red4.bmp,red,ending_scream,scream,ending,c,negative,positive,ES_red,1,c,529,1553581,1554085,1554289
89,first,44,brutal,IAT_red2.bmp,red,ending_scream,scream,ending,c,negative,positive,ES_red,1,c,631,1555891,1556396,1556600
89,first,45,geizig,IAT_yellow2.bmp,yellow,starting_scream,scream,starting,c,negative,negative,ES_red,1,c,464,1558305,1558809,1559013
89,first,46,gerecht,IAT_green4.bmp,green,ending_melody,melody,ending,m,positive,negative,ES_red,1,m,465,1560552,1561056,1561260
89,first,47,krank,IAT_purple4.bmp,purple,starting_melody,melody,starting,c,negative,positive,ES_red,1,c,615,1562798,1563303,1563507
89,first,48,munter,IAT_yellow2.bmp,yellow,starting_scream,scream,starting,m,positive,negative,ES_red,1,m,607,1565196,1565700,1565904
89,first,49,kaputt,IAT_green1.bmp,green,ending_melody,melody,ending,c,negative,negative,ES_red,1,c,641,1567584,1568088,1568292
89,first,50,schön,IAT_red1.bmp,red,ending_scream,scream,ending,m,positive,positive,ES_red,1,m,593,1570006,1570511,1570715
89,first,51,heiter,IAT_red3.bmp,red,ending_scream,scream,ending,m,positive,positive,ES_red,1,m,582,1572382,1572886,1573090
89,first,52,morsch,IAT_green2.bmp,green,ending_melody,melody,ending,c,negative,negative,ES_red,1,c,479,1574744,1575249,1575453
89,first,53,lästig,IAT_yellow2.bmp,yellow,starting_scream,scream,starting,c,negative,negative,ES_red,1,c,798,1577008,1577512,1577716
89,first,54,sanft,IAT_green3.bmp,green,ending_melody,melody,ending,m,positive,negative,ES_red,1,m,569,1579588,1580092,1580296
89,first,55,schön,IAT_red1.bmp,red,ending_scream,scream,ending,m,positive,positive,ES_red,0,c,833,1581939,1582443,1582647
89,first,56,munter,IAT_red1.bmp,red,ending_scream,scream,ending,m,positive,positive,ES_red,1,m,1359,1585053,1585557,1585761
89,first,57,kaputt,IAT_yellow2.bmp,yellow,starting_scream,scream,starting,c,negative,negative,ES_red,1,c,659,1588193,1588698,1588902
89,first,58,sonnig,IAT_green1.bmp,green,ending_melody,melody,ending,m,positive,negative,ES_red,1,m,722,1590635,1591139,1591343
89,first,59,lustig,IAT_yellow1.bmp,yellow,starting_scream,scream,starting,m,positive,negative,ES_red,0,c,788,1593139,1593643,1593847
89,first,60,sonnig,IAT_red4.bmp,red,ending_scream,scream,ending,m,positive,positive,ES_red,1,m,692,1596210,1596714,1596918
89,first,61,heiter,IAT_red4.bmp,red,ending_scream,scream,ending,m,positive,positive,ES_red,1,m,548,1598684,1599189,1599394
89,first,62,gerecht,IAT_yellow3.bmp,yellow,starting_scream,scream,starting,m,positive,negative,ES_red,1,m,587,1601015,1601519,1601723
89,first,63,sonnig,IAT_purple4.bmp,purple,starting_melody,melody,starting,m,positive,positive,ES_red,1,m,420,1603383,1603888,1604092
89,first,64,ehrlich,IAT_green2.bmp,green,ending_melody,melody,ending,m,positive,negative,ES_red,1,m,506,1605585,1606090,1606294
89,first,65,witzig,IAT_yellow4.bmp,yellow,starting_scream,scream,starting,m,positive,negative,ES_red,1,m,993,1607874,1608378,1608582
89,first,66,einsam,IAT_red1.bmp,red,ending_scream,scream,ending,c,negative,positive,ES_red,1,c,724,1610649,1611153,1611357
89,first,67,gierig,IAT_green3.bmp,green,ending_melody,melody,ending,c,negative,negative,ES_red,0,m,631,1613155,1613659,1613863
89,first,68,feige,IAT_green2.bmp,green,ending_melody,melody,ending,c,negative,negative,ES_red,0,None,1500,1616067,1616571,1616775
89,first,69,geizig,IAT_purple3.bmp,purple,starting_melody,melody,starting,c,negative,positive,ES_red,1,c,900,1619848,1620352,1620556
89,first,70,morsch,IAT_yellow3.bmp,yellow,starting_scream,scream,starting,c,negative,negative,ES_red,1,c,542,1622530,1623034,1623238
89,first,71,teuer,IAT_yellow1.bmp,yellow,starting_scream,scream,starting,c,negative,negative,ES_red,1,c,617,1624854,1625358,1625563
89,first,72,morsch,IAT_red4.bmp,red,ending_scream,scream,ending,c,negative,positive,ES_red,1,c,502,1627254,1627758,1627963
89,first,73,kaputt,IAT_red4.bmp,red,ending_scream,scream,ending,c,negative,positive,ES_red,1,c,477,1629539,1630044,1630248
89,first,74,sozial,IAT_yellow2.bmp,yellow,starting_scream,scream,starting,m,positive,negative,ES_red,0,c,569,1631799,1632304,1632508
89,first,75,krank,IAT_green2.bmp,green,ending_melody,melody,ending,c,negative,negative,ES_red,1,c,675,1634651,1635155,1635359
89,first,76,lustig,IAT_yellow1.bmp,yellow,starting_scream,scream,starting,m,positive,negative,ES_red,1,m,561,1637108,1637612,1637816
89,first,77,sozial,IAT_purple3.bmp,purple,starting_melody,melody,starting,m,positive,positive,ES_red,1,m,577,1639451,1639955,1640159
89,first,78,sanft,IAT_purple1.bmp,purple,starting_melody,melody,starting,m,positive,positive,ES_red,1,m,569,1641810,1642314,1642518
89,first,79,ehrlich,IAT_red3.bmp,red,ending_scream,scream,ending,m,positive,positive,ES_red,0,c,527,1644161,1644665,1644869
89,first,80,kaputt,IAT_yellow4.bmp,yellow,starting_scream,scream,starting,c,negative,negative,ES_red,1,c,1321,1646971,1647475,1647679
89,first,81,human,IAT_purple2.bmp,purple,starting_melody,melody,starting,m,positive,positive,ES_red,1,m,606,1650075,1650579,1650784
89,first,82,heiter,IAT_yellow3.bmp,yellow,starting_scream,scream,starting,m,positive,negative,ES_red,1,m,611,1652464,1652968,1653172
89,first,83,witzig,IAT_yellow3.bmp,yellow,starting_scream,scream,starting,m,positive,negative,ES_red,1,m,634,1654857,1655361,1655565
89,first,84,geizig,IAT_yellow4.bmp,yellow,starting_scream,scream,starting,c,negative,negative,ES_red,1,c,528,1657273,1657777,1657981
89,first,85,lustig,IAT_green4.bmp,green,ending_melody,melody,ending,m,positive,negative,ES_red,1,m,542,1659582,1660087,1660291
89,first,86,sanft,IAT_purple1.bmp,purple,starting_melody,melody,starting,m,positive,positive,ES_red,1,m,519,1661906,1662411,1662615
89,first,87,human,IAT_purple3.bmp,purple,starting_melody,melody,starting,m,positive,positive,ES_red,1,m,537,1664209,1664713,1664917
89,first,88,gierig,IAT_red4.bmp,red,ending_scream,scream,ending,c,negative,positive,ES_red,1,c,1063,1666528,1667032,1667236
89,first,89,morsch,IAT_red1.bmp,red,ending_scream,scream,ending,c,negative,positive,ES_red,1,c,540,1669372,1669877,1670081
89,first,90,gerecht,IAT_purple4.bmp,purple,starting_melody,melody,starting,m,positive,positive,ES_red,1,m,508,1671695,1672199,1672403
89,first,91,gesund,IAT_red2.bmp,red,ending_scream,scream,ending,m,positive,positive,ES_red,1,m,483,1673985,1674489,1674693
89,first,92,munter,IAT_yellow3.bmp,yellow,starting_scream,scream,starting,m,positive,negative,ES_red,1,m,469,1676250,1676754,1676958
89,first,93,gierig,IAT_green3.bmp,green,ending_melody,melody,ending,c,negative,negative,ES_red,1,c,605,1678501,1679005,1679209
89,first,94,human,IAT_red1.bmp,red,ending_scream,scream,ending,m,positive,positive,ES_red,0,c,863,1680889,1681394,1681598
89,first,95,einsam,IAT_purple1.bmp,purple,starting_melody,melody,starting,c,negative,positive,ES_red,1,c,1471,1684035,1684540,1684744
89,second,0,streng,IAT_green2.bmp,green,ending_melody,melody,ending,c,negative,negative,ES_red,1,c,1124,1699070,1699575,1699779
89,second,1,witzig,IAT_red1.bmp,red,ending_scream,scream,ending,m,positive,positive,ES_red,1,m,1031,1701977,1702481,1702685
89,second,2,heiter,IAT_purple4.bmp,purple,starting_melody,melody,starting,m,positive,positive,ES_red,1,m,485,1704789,1705294,1705498
89,second,3,munter,IAT_yellow3.bmp,yellow,starting_scream,scream,starting,m,positive,negative,ES_red,1,m,530,1707057,1707561,1707765
89,second,4,schön,IAT_green1.bmp,green,ending_melody,melody,ending,m,positive,negative,ES_red,1,m,556,1709369,1709873,1710077
89,second,5,brutal,IAT_purple3.bmp,purple,starting_melody,melody,starting,c,negative,positive,ES_red,1,c,582,1711707,1712211,1712415
89,second,6,lästig,IAT_green4.bmp,green,ending_melody,melody,ending,c,negative,negative,ES_red,0,m,943,1714071,1714575,1714779
89,second,7,falsch,IAT_yellow4.bmp,yellow,starting_scream,scream,starting,c,negative,negative,ES_red,1,c,865,1717298,1717803,1718007
89,second,8,teuer,IAT_purple4.bmp,purple,starting_melody,melody,starting,c,negative,positive,ES_red,1,c,1030,1719945,1720449,1720654
89,second,9,einsam,IAT_yellow2.bmp,yellow,starting_scream,scream,starting,c,negative,negative,ES_red,1,c,706,1722758,1723262,1723466
89,second,10,witzig,IAT_green2.bmp,green,ending_melody,melody,ending,m,positive,negative,ES_red,1,m,572,1725245,1725749,1725953
89,second,11,falsch,IAT_purple2.bmp,purple,starting_melody,melody,starting,c,negative,positive,ES_red,1,c,796,1727599,1728103,1728307
89,second,12,ehrlich,IAT_yellow3.bmp,yellow,starting_scream,scream,starting,m,positive,negative,ES_red,1,m,620,1730176,1730680,1730884
89,second,13,human,IAT_red2.bmp,red,ending_scream,scream,ending,m,positive,positive,ES_red,0,c,732,1732577,1733081,1733285
89,second,14,sozial,IAT_purple3.bmp,purple,starting_melody,melody,starting,m,positive,positive,ES_red,1,m,836,1735590,1736095,1736299
89,second,15,sanft,IAT_green3.bmp,green,ending_melody,melody,ending,m,positive,negative,ES_red,1,m,485,1738211,1738715,1738919
89,second,16,kaputt,IAT_yellow2.bmp,yellow,starting_scream,scream,starting,c,negative,negative,ES_red,1,c,671,1740479,1740983,1741187
89,second,17,human,IAT_red1.bmp,red,ending_scream,scream,ending,m,positive,positive,ES_red,0,c,971,1742932,1743436,1743640
89,second,18,gesund,IAT_red4.bmp,red,ending_scream,scream,ending,m,positive,positive,ES_red,1,m,740,1746186,1746690,1746894
89,second,19,falsch,IAT_purple1.bmp,purple,starting_melody,melody,starting,c,negative,positive,ES_red,1,c,640,1748708,1749213,1749417
89,second,20,krank,IAT_yellow3.bmp,yellow,starting_scream,scream,starting,c,negative,negative,ES_red,0,m,1031,1751132,1751636,1751840
89,second,21,ehrlich,IAT_purple3.bmp,purple,starting_melody,melody,starting,m,positive,positive,ES_red,1,m,940,1754443,1754947,1755151
89,second,22,sonnig,IAT_yellow3.bmp,yellow,starting_scream,scream,starting,m,positive,negative,ES_red,1,m,497,1757165,1757669,1757873
89,second,23,gerecht,IAT_purple3.bmp,purple,starting_melody,melody,starting,m,positive,positive,ES_red,1,m,640,1759444,1759948,1760152
89,second,24,schön,IAT_red1.bmp,red,ending_scream,scream,ending,m,positive,positive,ES_red,1,m,609,1761866,1762370,1762574
89,second,25,lustig,IAT_green1.bmp,green,ending_melody,melody,ending,m,positive,negative,ES_red,1,m,632,1764255,1764759,1764963
89,second,26,gierig,IAT_purple3.bmp,purple,starting_melody,melody,starting,c,negative,positive,ES_red,1,c,741,1766670,1767174,1767378
89,second,27,gesund,IAT_purple2.bmp,purple,starting_melody,melody,starting,m,positive,positive,ES_red,1,m,573,1769194,1769698,1769902
89,second,28,streng,IAT_red2.bmp,red,ending_scream,scream,ending,c,negative,positive,ES_red,1,c,747,1771549,1772053,1772257
89,second,29,teuer,IAT_purple2.bmp,purple,starting_melody,melody,starting,c,negative,positive,ES_red,1,c,647,1774079,1774584,1774788
89,second,30,geizig,IAT_purple4.bmp,purple,starting_melody,melody,starting,c,negative,positive,ES_red,1,c,741,1776510,1777014,1777218
89,second,31,lästig,IAT_green2.bmp,green,ending_melody,melody,ending,c,negative,negative,ES_red,1,c,904,1779032,1779536,1779740
89,second,32,kaputt,IAT_red2.bmp,red,ending_scream,scream,ending,c,negative,positive,ES_red,1,c,774,1781719,1782223,1782427
89,second,33,teuer,IAT_green2.bmp,green,ending_melody,melody,ending,c,negative,negative,ES_red,1,c,736,1784274,1784778,1784982
89,second,34,gerecht,IAT_yellow2.bmp,yellow,starting_scream,scream,starting,m,positive,negative,ES_red,1,m,896,1786792,1787297,1787501
89,second,35,kaputt,IAT_red1.bmp,red,ending_scream,scream,ending,c,negative,positive,ES_red,1,c,899,1789472,1789976,1790180
89,second,36,falsch,IAT_green4.bmp,green,ending_melody,melody,ending,c,negative,negative,ES_red,1,c,982,1792154,1792658,1792862
89,second,37,morsch,IAT_green4.bmp,green,ending_melody,melody,ending,c,negative,negative,ES_red,1,c,678,1794918,1795423,1795627
89,second,38,sanft,IAT_yellow1.bmp,yellow,starting_scream,scream,starting,m,positive,negative,ES_red,1,m,795,1797380,1797884,1798088
89,second,39,sonnig,IAT_purple1.bmp,purple,starting_melody,melody,starting,m,positive,positive,ES_red,1,m,627,1799959,1800463,1800667
89,second,40,lustig,IAT_red2.bmp,red,ending_scream,scream,ending,m,positive,positive,ES_red,1,m,1046,1802368,1802872,1803076
89,second,41,brutal,IAT_purple2.bmp,purple,starting_melody,melody,starting,c,negative,positive,ES_red,1,c,678,1805197,1805701,1805905
89,second,42,sanft,IAT_green4.bmp,green,ending_melody,melody,ending,m,positive,negative,ES_red,1,m,762,1807659,1808163,1808367
89,second,43,human,IAT_green3.bmp,green,ending_melody,melody,ending,m,positive,negative,ES_red,1,m,1148,1810203,1810707,1810911
89,second,44,lästig,IAT_green3.bmp,green,ending_melody,melody,ending,c,negative,negative,ES_red,1,c,787,1813134,1813638,1813842
89,second,45,schön,IAT_purple4.bmp,purple,starting_melody,melody,starting,m,positive,positive,ES_red,1,m,692,1815703,1816207,1816411
89,second,46,gerecht,IAT_purple2.bmp,purple,starting_melody,melody,starting,m,positive,positive,ES_red,1,m,690,1818177,1818681,1818885
89,second,47,feige,IAT_green4.bmp,green,ending_melody,melody,ending,c,negative,negative,ES_red,1,c,1156,1820649,1821154,1821358
89,second,48,heiter,IAT_red3.bmp,red,ending_scream,scream,ending,m,positive,positive,ES_red,1,m,1240,1823590,1824094,1824298
89,second,49,gesund,IAT_yellow3.bmp,yellow,starting_scream,scream,starting,m,positive,negative,ES_red,1,m,711,1826612,1827116,1827320
89,second,50,krank,IAT_red2.bmp,red,ending_scream,scream,ending,c,negative,positive,ES_red,1,c,981,1829105,1829609,1829813
89,second,51,sozial,IAT_purple1.bmp,purple,starting_melody,melody,starting,m,positive,positive,ES_red,1,m,1270,1831869,1832373,1832577
89,second,52,heiter,IAT_red3.bmp,red,ending_scream,scream,ending,m,positive,positive,ES_red,1,m,681,1834921,1835425,1835629
89,second,53,sozial,IAT_green3.bmp,green,ending_melody,melody,ending,m,positive,negative,ES_red,1,m,692,1837384,1837888,1838093
89,second,54,brutal,IAT_red4.bmp,red,ending_scream,scream,ending,c,negative,positive,ES_red,1,c,693,1839860,1840365,1840569
89,second,55,teuer,IAT_yellow2.bmp,yellow,starting_scream,scream,starting,c,negative,negative,ES_red,1,c,1030,1842338,1842842,1843046
89,second,56,sonnig,IAT_red4.bmp,red,ending_scream,scream,ending,m,positive,positive,ES_red,1,m,821,1845150,1845655,1845859
89,second,57,einsam,IAT_yellow1.bmp,yellow,starting_scream,scream,starting,c,negative,negative,ES_red,1,c,1028,1847754,1848259,1848463
89,second,58,gerecht,IAT_green1.bmp,green,ending_melody,melody,ending,m,positive,negative,ES_red,1,m,731,1850565,1851069,1851273
89,second,59,lästig,IAT_red3.bmp,red,ending_scream,scream,ending,c,negative,positive,ES_red,1,c,700,1853079,1853584,1853788
89,second,60,schön,IAT_yellow4.bmp,yellow,starting_scream,scream,starting,m,positive,negative,ES_red,1,m,658,1855562,1856066,1856271
89,second,61,sozial,IAT_green2.bmp,green,ending_melody,melody,ending,m,positive,negative,ES_red,1,m,644,1858004,1858508,1858712
89,second,62,ehrlich,IAT_red3.bmp,red,ending_scream,scream,ending,m,positive,positive,ES_red,1,m,612,1860430,1860934,1861138
89,second,63,witzig,IAT_red1.bmp,red,ending_scream,scream,ending,m,positive,positive,ES_red,1,m,589,1862824,1863328,1863533
89,second,64,krank,IAT_purple4.bmp,purple,starting_melody,melody,starting,c,negative,positive,ES_red,1,c,749,1865196,1865700,1865904
89,second,65,geizig,IAT_red4.bmp,red,ending_scream,scream,ending,c,negative,positive,ES_red,1,c,780,1867728,1868232,1868436
89,second,66,feige,IAT_yellow4.bmp,yellow,starting_scream,scream,starting,c,negative,negative,ES_red,1,c,830,1870290,1870795,1870999
89,second,67,gierig,IAT_red1.bmp,red,ending_scream,scream,ending,c,negative,positive,ES_red,1,c,704,1872903,1873407,1873611
89,second,68,krank,IAT_green1.bmp,green,ending_melody,melody,ending,c,negative,negative,ES_red,1,c,913,1875389,1875893,1876097
89,second,69,human,IAT_yellow1.bmp,yellow,starting_scream,scream,starting,m,positive,negative,ES_red,1,m,1197,1878085,1878590,1878794
89,second,70,lustig,IAT_yellow2.bmp,yellow,starting_scream,scream,starting,m,positive,negative,ES_red,1,m,746,1881066,1881570,1881774
89,second,71,morsch,IAT_purple4.bmp,purple,starting_melody,melody,starting,c,negative,positive,ES_red,1,c,765,1883594,1884098,1884302
89,second,72,brutal,IAT_yellow4.bmp,yellow,starting_scream,scream,starting,c,negative,negative,ES_red,1,c,776,1886141,1886645,1886849
89,second,73,morsch,IAT_green1.bmp,green,ending_melody,melody,ending,c,negative,negative,ES_red,0,m,1283,1888701,1889205,1889409
89,second,74,gesund,IAT_green3.bmp,green,ending_melody,melody,ending,m,positive,negative,ES_red,1,m,1273,1892267,1892771,1892975
89,second,75,feige,IAT_yellow2.bmp,yellow,starting_scream,scream,starting,c,negative,negative,ES_red,1,c,985,1895322,1895826,1896030
89,second,76,streng,IAT_yellow3.bmp,yellow,starting_scream,scream,starting,c,negative,negative,ES_red,1,c,905,1898090,1898594,1898798
89,second,77,gierig,IAT_red3.bmp,red,ending_scream,scream,ending,c,negative,positive,ES_red,1,c,1177,1900778,1901282,1901486
89,second,78,witzig,IAT_yellow1.bmp,yellow,starting_scream,scream,starting,m,positive,negative,ES_red,1,m,1343,1903737,1904241,1904445
89,second,79,munter,IAT_purple1.bmp,purple,starting_melody,melody,starting,m,positive,positive,ES_red,1,m,618,1906862,1907366,1907570
89,second,80,morsch,IAT_purple1.bmp,purple,starting_melody,melody,starting,c,negative,positive,ES_red,1,c,730,1909262,1909766,1909970
89,second,81,streng,IAT_yellow1.bmp,yellow,starting_scream,scream,starting,c,negative,negative,ES_red,1,c,732,1911774,1912279,1912483
89,second,82,lustig,IAT_yellow4.bmp,yellow,starting_scream,scream,starting,m,positive,negative,ES_red,1,m,841,1914292,1914796,1915000
89,second,83,munter,IAT_purple1.bmp,purple,starting_melody,melody,starting,m,positive,positive,ES_red,1,m,602,1916915,1917419,1917623
89,second,84,kaputt,IAT_red4.bmp,red,ending_scream,scream,ending,c,negative,positive,ES_red,1,c,715,1919299,1919803,1920007
89,second,85,sonnig,IAT_green4.bmp,green,ending_melody,melody,ending,m,positive,negative,ES_red,1,m,549,1921796,1922301,1922505
89,second,86,heiter,IAT_purple3.bmp,purple,starting_melody,melody,starting,m,positive,positive,ES_red,1,m,713,1924129,1924633,1924837
89,second,87,einsam,IAT_green2.bmp,green,ending_melody,melody,ending,c,negative,negative,ES_red,1,c,799,1926623,1927127,1927331
89,second,88,munter,IAT_green1.bmp,green,ending_melody,melody,ending,m,positive,negative,ES_red,1,m,641,1929203,1929707,1929911
89,second,89,sanft,IAT_red3.bmp,red,ending_scream,scream,ending,m,positive,positive,ES_red,1,m,615,1931627,1932131,1932335
89,second,90,geizig,IAT_red4.bmp,red,ending_scream,scream,ending,c,negative,positive,ES_red,1,c,712,1934023,1934528,1934732
89,second,91,feige,IAT_yellow4.bmp,yellow,starting_scream,scream,starting,c,negative,negative,ES_red,1,c,788,1936520,1937024,1937228
89,second,92,gierig,IAT_purple2.bmp,purple,starting_melody,melody,starting,c,negative,positive,ES_red,1,c,626,1939091,1939596,1939800
89,second,93,ehrlich,IAT_yellow1.bmp,yellow,starting_scream,scream,starting,m,positive,negative,ES_red,1,m,647,1941501,1942005,1942209
89,second,94,einsam,IAT_green3.bmp,green,ending_melody,melody,ending,c,negative,negative,ES_red,1,c,679,1943930,1944435,1944639
89,second,95,geizig,IAT_red2.bmp,red,ending_scream,scream,ending,c,negative,positive,ES_red,1,c,654,1946394,1946899,1947104
89,third,0,gerecht,IAT_red2.bmp,red,ending_scream,scream,ending,m,positive,positive,ES_red,0,None,1500,1960193,1960698,1960902
89,third,1,sonnig,IAT_red2.bmp,red,ending_scream,scream,ending,m,positive,positive,ES_red,1,m,641,1963977,1964481,1964685
89,third,2,witzig,IAT_green3.bmp,green,ending_melody,melody,ending,m,positive,negative,ES_red,1,m,727,1966401,1966905,1967109
89,third,3,ehrlich,IAT_purple3.bmp,purple,starting_melody,melody,starting,m,positive,positive,ES_red,1,m,561,1968911,1969415,1969619
89,third,4,brutal,IAT_red1.bmp,red,ending_scream,scream,ending,c,negative,positive,ES_red,1,c,724,1971254,1971759,1971963
89,third,5,heiter,IAT_yellow3.bmp,yellow,starting_scream,scream,starting,m,positive,negative,ES_red,1,m,505,1973761,1974265,1974469
89,third,6,krank,IAT_yellow2.bmp,yellow,starting_scream,scream,starting,c,negative,negative,ES_red,1,c,774,1976050,1976554,1976758
89,third,7,gerecht,IAT_yellow1.bmp,yellow,starting_scream,scream,starting,m,positive,negative,ES_red,1,m,532,1978606,1979110,1979314
89,third,8,gierig,IAT_purple1.bmp,purple,starting_melody,melody,starting,c,negative,positive,ES_red,1,c,628,1980922,1981426,1981630
89,third,9,geizig,IAT_red2.bmp,red,ending_scream,scream,ending,c,negative,positive,ES_red,1,c,621,1983332,1983836,1984040
89,third,10,teuer,IAT_purple4.bmp,purple,starting_melody,melody,starting,c,negative,positive,ES_red,1,c,574,1985735,1986239,1986443
89,third,11,morsch,IAT_red2.bmp,red,ending_scream,scream,ending,c,negative,positive,ES_red,1,c,628,1988092,1988596,1988800
89,third,12,munter,IAT_yellow1.bmp,yellow,starting_scream,scream,starting,m,positive,negative,ES_red,1,m,696,1990502,1991006,1991210
89,third,13,sonnig,IAT_purple2.bmp,purple,starting_melody,melody,starting,m,positive,positive,ES_red,1,m,647,1992981,1993485,1993689
89,third,14,munter,IAT_red4.bmp,red,ending_scream,scream,ending,m,positive,positive,ES_red,0,c,724,1995411,1995915,1996119
89,third,15,lustig,IAT_yellow3.bmp,yellow,starting_scream,scream,starting,m,positive,negative,ES_red,1,m,882,1998416,1998921,1999125
89,third,16,gerecht,IAT_green3.bmp,green,ending_melody,melody,ending,m,positive,negative,ES_red,1,m,531,2001082,2001586,2001790
89,third,17,gesund,IAT_yellow1.bmp,yellow,starting_scream,scream,starting,m,positive,negative,ES_red,1,m,606,2003395,2003899,2004103
89,third,18,gierig,IAT_yellow4.bmp,yellow,starting_scream,scream,starting,c,negative,negative,ES_red,1,c,1111,2005784,2006288,2006492
89,third,19,streng,IAT_green4.bmp,green,ending_melody,melody,ending,c,negative,negative,ES_red,0,m,890,2008678,2009182,2009386
89,third,20,gierig,IAT_purple3.bmp,purple,starting_melody,melody,starting,c,negative,positive,ES_red,0,None,1500,2011850,2012354,2012558
89,third,21,streng,IAT_yellow2.bmp,yellow,starting_scream,scream,starting,c,negative,negative,ES_red,0,m,547,2015633,2016137,2016341
89,third,22,sozial,IAT_purple1.bmp,purple,starting_melody,melody,starting,m,positive,positive,ES_red,1,m,674,2018463,2018968,2019172
89,third,23,lästig,IAT_yellow4.bmp,yellow,starting_scream,scream,starting,c,negative,negative,ES_red,1,c,799,2020922,2021426,2021630
89,third,24,streng,IAT_green2.bmp,green,ending_melody,melody,ending,c,negative,negative,ES_red,0,m,606,2023502,2024006,2024211
89,third,25,heiter,IAT_purple2.bmp,purple,starting_melody,melody,starting,m,positive,positive,ES_red,1,m,1259,2026392,2026896,2027100
89,third,26,witzig,IAT_purple3.bmp,purple,starting_melody,melody,starting,m,positive,positive,ES_red,0,c,980,2029432,2029936,2030140
89,third,27,krank,IAT_green1.bmp,green,ending_melody,melody,ending,c,negative,negative,ES_red,1,c,948,2032694,2033198,2033402
89,third,28,schön,IAT_green1.bmp,green,ending_melody,melody,ending,m,positive,negative,ES_red,1,m,664,2035424,2035929,2036133
89,third,29,feige,IAT_yellow2.bmp,yellow,starting_scream,scream,starting,c,negative,negative,ES_red,0,None,1500,2037871,2038375,2038579
89,third,30,sanft,IAT_red1.bmp,red,ending_scream,scream,ending,m,positive,positive,ES_red,1,m,726,2041653,2042158,2042362
89,third,31,morsch,IAT_red3.bmp,red,ending_scream,scream,ending,c,negative,positive,ES_red,1,c,721,2044163,2044667,2044871
89,third,32,schön,IAT_purple3.bmp,purple,starting_melody,melody,starting,m,positive,positive,ES_red,1,m,522,2046666,2047170,2047374
89,third,33,sanft,IAT_purple4.bmp,purple,starting_melody,melody,starting,m,positive,positive,ES_red,1,m,649,2048970,2049474,2049678
89,third,34,lustig,IAT_red3.bmp,red,ending_scream,scream,ending,m,positive,positive,ES_red,1,m,531,2051404,2051908,2052112
89,third,35,geizig,IAT_green4.bmp,green,ending_melody,melody,ending,c,negative,negative,ES_red,1,c,600,2053718,2054222,2054426
89,third,36,ehrlich,IAT_purple1.bmp,purple,starting_melody,melody,starting,m,positive,positive,ES_red,1,m,874,2056101,2056605,2056809
89,third,37,gierig,IAT_purple3.bmp,purple,starting_melody,melody,starting,c,negative,positive,ES_red,1,c,1097,2058756,2059261,2059465
89,third,38,teuer,IAT_green3.bmp,green,ending_melody,melody,ending,c,negative,negative,ES_red,1,c,582,2061637,2062141,2062345
89,third,39,sozial,IAT_green2.bmp,green,ending_melody,melody,ending,m,positive,negative,ES_red,1,m,643,2064001,2064505,2064709
89,third,40,heiter,IAT_red1.bmp,red,ending_scream,scream,ending,m,positive,positive,ES_red,1,m,867,2066426,2066930,2067134
89,third,41,human,IAT_green4.bmp,green,ending_melody,melody,ending,m,positive,negative,ES_red,1,m,694,2069075,2069579,2069783
89,third,42,morsch,IAT_purple2.bmp,purple,starting_melody,melody,starting,c,negative,positive,ES_red,1,c,611,2071551,2072055,2072259
89,third,43,witzig,IAT_red4.bmp,red,ending_scream,scream,ending,m,positive,positive,ES_red,1,m,1125,2073944,2074448,2074652
89,third,44,schön,IAT_yellow3.bmp,yellow,starting_scream,scream,starting,m,positive,negative,ES_red,1,m,570,2076853,2077357,2077561
89,third,45,geizig,IAT_purple1.bmp,purple,starting_melody,melody,starting,c,negative,positive,ES_red,1,c,793,2079205,2079710,2079914
89,third,46,munter,IAT_purple4.bmp,purple,starting_melody,melody,starting,m,positive,positive,ES_red,1,m,784,2081780,2082285,2082489
89,third,47,lästig,IAT_red4.bmp,red,ending_scream,scream,ending,c,negative,positive,ES_red,1,c,529,2084350,2084855,2085059
89,third,48,gesund,IAT_purple1.bmp,purple,starting_melody,melody,starting,m,positive,positive,ES_red,1,m,470,2086663,2087167,2087371
89,third,49,einsam,IAT_yellow3.bmp,yellow,starting_scream,scream,starting,c,negative,negative,ES_red,1,c,654,2088916,2089420,2089624
89,third,50,human,IAT_green1.bmp,green,ending_melody,melody,ending,m,positive,negative,ES_red,1,m,453,2091353,2091858,2092062
89,third,51,geizig,IAT_purple4.bmp,purple,starting_melody,melody,starting,c,negative,positive,ES_red,1,c,579,2093590,2094094,2094298
89,third,52,kaputt,IAT_green3.bmp,green,ending_melody,melody,ending,c,negative,negative,ES_red,1,c,594,2095951,2096455,2096659
89,third,53,sanft,IAT_red3.bmp,red,ending_scream,scream,ending,m,positive,positive,ES_red,1,m,594,2098329,2098833,2099037
89,third,54,brutal,IAT_green2.bmp,green,ending_melody,melody,ending,c,negative,negative,ES_red,1,c,754,2100705,2101209,2101413
89,third,55,sozial,IAT_green3.bmp,green,ending_melody,melody,ending,m,positive,negative,ES_red,1,m,639,2103242,2103746,2103950
89,third,56,human,IAT_green4.bmp,green,ending_melody,melody,ending,m,positive,negative,ES_red,1,m,721,2105665,2106169,2106373
89,third,57,kaputt,IAT_green2.bmp,green,ending_melody,melody,ending,c,negative,negative,ES_red,1,c,583,2108168,2108673,2108877
89,third,58,teuer,IAT_red1.bmp,red,ending_scream,scream,ending,c,negative,positive,ES_red,1,c,862,2110535,2111039,2111243
89,third,59,gerecht,IAT_yellow1.bmp,yellow,starting_scream,scream,starting,m,positive,negative,ES_red,1,m,634,2113181,2113685,2113889
89,third,60,lustig,IAT_green1.bmp,green,ending_melody,melody,ending,m,positive,negative,ES_red,1,m,632,2115598,2116102,2116306
89,third,61,brutal,IAT_red4.bmp,red,ending_scream,scream,ending,c,negative,positive,ES_red,1,c,541,2118012,2118516,2118720
89,third,62,munter,IAT_red3.bmp,red,ending_scream,scream,ending,m,positive,positive,ES_red,0,c,683,2120336,2120840,2121044
89,third,63,witzig,IAT_green3.bmp,green,ending_melody,melody,ending,m,positive,negative,ES_red,1,m,616,2123302,2123806,2124010
89,third,64,teuer,IAT_red4.bmp,red,ending_scream,scream,ending,c,negative,positive,ES_red,1,c,735,2125700,2126205,2126409
89,third,65,feige,IAT_red2.bmp,red,ending_scream,scream,ending,c,negative,positive,ES_red,1,c,892,2128220,2128724,2128928
89,third,66,morsch,IAT_yellow1.bmp,yellow,starting_scream,scream,starting,c,negative,negative,ES_red,1,c,644,2130895,2131399,2131603
89,third,67,einsam,IAT_purple4.bmp,purple,starting_melody,melody,starting,c,negative,positive,ES_red,1,c,703,2133321,2133826,2134030
89,third,68,falsch,IAT_red3.bmp,red,ending_scream,scream,ending,c,negative,positive,ES_red,1,c,666,2135809,2136313,2136517
89,third,69,einsam,IAT_purple2.bmp,purple,starting_melody,melody,starting,c,negative,positive,ES_red,1,c,690,2138258,2138763,2138967
89,third,70,schön,IAT_yellow4.bmp,yellow,starting_scream,scream,starting,m,positive,negative,ES_red,1,m,727,2140733,2141237,2141441
89,third,71,falsch,IAT_purple2.bmp,purple,starting_melody,melody,starting,c,negative,positive,ES_red,1,c,574,2143243,2143747,2143951
89,third,72,kaputt,IAT_green1.bmp,green,ending_melody,melody,ending,c,negative,negative,ES_red,1,c,555,2145600,2146105,2146309
89,third,73,sonnig,IAT_yellow3.bmp,yellow,starting_scream,scream,starting,m,positive,negative,ES_red,1,m,522,2147939,2148443,2148647
89,third,74,sanft,IAT_yellow4.bmp,yellow,starting_scream,scream,starting,m,positive,negative,ES_red,1,m,632,2150244,2150748,2150952
89,third,75,ehrlich,IAT_purple1.bmp,purple,starting_melody,melody,starting,m,positive,positive,ES_red,1,m,580,2152660,2153164,2153368
89,third,76,heiter,IAT_yellow2.bmp,yellow,starting_scream,scream,starting,m,positive,negative,ES_red,1,m,480,2155024,2155529,2155734
89,third,77,feige,IAT_yellow4.bmp,yellow,starting_scream,scream,starting,c,negative,negative,ES_red,1,c,698,2157289,2157794,2157998
89,third,78,gesund,IAT_red3.bmp,red,ending_scream,scream,ending,m,positive,positive,ES_red,1,m,617,2159772,2160276,2160480
89,third,79,lästig,IAT_yellow3.bmp,yellow,starting_scream,scream,starting,c,negative,negative,ES_red,1,c,818,2162172,2162676,2162880
89,third,80,lustig,IAT_yellow2.bmp,yellow,starting_scream,scream,starting,m,positive,negative,ES_red,1,m,518,2164773,2165278,2165482
89,third,81,brutal,IAT_yellow1.bmp,yellow,starting_scream,scream,starting,c,negative,negative,ES_red,1,c,699,2167075,2167580,2167784
89,third,82,krank,IAT_red2.bmp,red,ending_scream,scream,ending,c,negative,positive,ES_red,1,c,599,2169558,2170063,2170267
89,third,83,ehrlich,IAT_green2.bmp,green,ending_melody,melody,ending,m,positive,negative,ES_red,1,m,610,2171941,2172445,2172649
89,third,84,gesund,IAT_purple3.bmp,purple,starting_melody,melody,starting,m,positive,positive,ES_red,1,m,479,2174334,2174839,2175044
89,third,85,feige,IAT_green4.bmp,green,ending_melody,melody,ending,c,negative,negative,ES_red,1,c,620,2176598,2177102,2177306
89,third,86,streng,IAT_green4.bmp,green,ending_melody,melody,ending,c,negative,negative,ES_red,1,c,1183,2179001,2179505,2179709
89,third,87,falsch,IAT_green2.bmp,green,ending_melody,melody,ending,c,negative,negative,ES_red,1,c,987,2181967,2182471,2182675
89,third,88,human,IAT_red1.bmp,red,ending_scream,scream,ending,m,positive,positive,ES_red,1,m,756,2184737,2185241,2185445
89,third,89,krank,IAT_purple4.bmp,purple,starting_melody,melody,starting,c,negative,positive,ES_red,1,c,727,2187275,2187779,2187983
89,third,90,falsch,IAT_purple2.bmp,purple,starting_melody,melody,starting,c,negative,positive,ES_red,1,c,877,2189785,2190289,2190494
89,third,91,sozial,IAT_red1.bmp,red,ending_scream,scream,ending,m,positive,positive,ES_red,1,m,1096,2192446,2192950,2193154
89,third,92,lästig,IAT_yellow4.bmp,yellow,starting_scream,scream,starting,c,negative,negative,ES_red,1,c,653,2195325,2195829,2196033
89,third,93,einsam,IAT_red4.bmp,red,ending_scream,scream,ending,c,negative,positive,ES_red,1,c,579,2197761,2198266,2198470
89,third,94,sonnig,IAT_green1.bmp,green,ending_melody,melody,ending,m,positive,negative,ES_red,1,m,457,2200123,2200628,2200832
89,third,95,kaputt,IAT_yellow2.bmp,yellow,starting_scream,scream,starting,c,negative,negative,ES_red,1,c,443,2202364,2202868,2203072
89,forth,0,munter,IAT_red1.bmp,red,ending_scream,scream,ending,m,positive,positive,ES_red,0,None,1500,2213237,2213741,2213945
89,forth,1,morsch,IAT_yellow2.bmp,yellow,starting_scream,scream,starting,c,negative,negative,ES_red,1,c,589,2217522,2218026,2218230
89,forth,2,falsch,IAT_purple2.bmp,purple,starting_melody,melody,starting,c,negative,positive,ES_red,1,c,597,2219893,2220397,2220601
89,forth,3,witzig,IAT_purple1.bmp,purple,starting_melody,melody,starting,m,positive,positive,ES_red,1,m,720,2222273,2222777,2222981
89,forth,4,geizig,IAT_green2.bmp,green,ending_melody,melody,ending,c,negative,negative,ES_red,0,m,860,2224776,2225280,2225484
89,forth,5,teuer,IAT_purple1.bmp,purple,starting_melody,melody,starting,c,negative,positive,ES_red,1,c,831,2227918,2228422,2228626
89,forth,6,kaputt,IAT_green3.bmp,green,ending_melody,melody,ending,c,negative,negative,ES_red,1,c,596,2230531,2231035,2231239
89,forth,7,heiter,IAT_red1.bmp,red,ending_scream,scream,ending,m,positive,positive,ES_red,1,m,632,2232910,2233414,2233618
89,forth,8,falsch,IAT_yellow4.bmp,yellow,starting_scream,scream,starting,c,negative,negative,ES_red,1,c,559,2235324,2235828,2236032
89,forth,9,gesund,IAT_purple4.bmp,purple,starting_melody,melody,starting,m,positive,positive,ES_red,1,m,616,2237665,2238169,2238373
89,forth,10,lästig,IAT_purple2.bmp,purple,starting_melody,melody,starting,c,negative,positive,ES_red,1,c,652,2240064,2240569,2240773
89,forth,11,lustig,IAT_red4.bmp,red,ending_scream,scream,ending,m,positive,positive,ES_red,1,m,983,2242500,2243004,2243208
89,forth,12,ehrlich,IAT_yellow2.bmp,yellow,starting_scream,scream,starting,m,positive,negative,ES_red,1,m,932,2245266,2245770,2245974
89,forth,13,sozial,IAT_purple4.bmp,purple,starting_melody,melody,starting,m,positive,positive,ES_red,1,m,583,2247980,2248484,2248688
89,forth,14,heiter,IAT_green2.bmp,green,ending_melody,melody,ending,m,positive,negative,ES_red,1,m,510,2250344,2250848,2251052
89,forth,15,munter,IAT_purple1.bmp,purple,starting_melody,melody,starting,m,positive,positive,ES_red,1,m,524,2252637,2253141,2253345
89,forth,16,falsch,IAT_purple3.bmp,purple,starting_melody,melody,starting,c,negative,positive,ES_red,1,c,540,2254942,2255446,2255650
89,forth,17,lustig,IAT_green1.bmp,green,ending_melody,melody,ending,m,positive,negative,ES_red,1,m,507,2257264,2257768,2257973
89,forth,18,sonnig,IAT_green3.bmp,green,ending_melody,melody,ending,m,positive,negative,ES_red,1,m,507,2259554,2260058,2260262
89,forth,19,sozial,IAT_purple3.bmp,purple,starting_melody,melody,starting,m,positive,positive,ES_red,1,m,541,2261843,2262347,2262551
89,forth,20,sanft,IAT_red1.bmp,red,ending_scream,scream,ending,m,positive,positive,ES_red,1,m,604,2264167,2264671,2264875
89,forth,21,human,IAT_green4.bmp,green,ending_melody,melody,ending,m,positive,negative,ES_red,1,m,498,2266554,2267058,2267262
89,forth,22,kaputt,IAT_green1.bmp,green,ending_melody,melody,ending,c,negative,negative,ES_red,1,c,671,2268835,2269339,2269543
89,forth,23,brutal,IAT_red2.bmp,red,ending_scream,scream,ending,c,negative,positive,ES_red,1,c,513,2271289,2271794,2271998
89,forth,24,sonnig,IAT_red1.bmp,red,ending_scream,scream,ending,m,positive,positive,ES_red,1,m,604,2273586,2274090,2274294
89,forth,25,teuer,IAT_yellow1.bmp,yellow,starting_scream,scream,starting,c,negative,negative,ES_red,1,c,599,2275974,2276478,2276682
89,forth,26,schön,IAT_red3.bmp,red,ending_scream,scream,ending,m,positive,positive,ES_red,1,m,562,2278355,2278861,2279065
89,forth,27,krank,IAT_purple1.bmp,purple,starting_melody,melody,starting,c,negative,positive,ES_red,1,c,569,2280702,2281207,2281411
89,forth,28,munter,IAT_purple3.bmp,purple,starting_melody,melody,starting,m,positive,positive,ES_red,1,m,823,2283055,2283559,2283763
89,forth,29,feige,IAT_red2.bmp,red,ending_scream,scream,ending,c,negative,positive,ES_red,1,c,699,2285662,2286166,2286370
89,forth,30,geizig,IAT_green2.bmp,green,ending_melody,melody,ending,c,negative,negative,ES_red,1,c,630,2288144,2288648,2288852
89,forth,31,streng,IAT_green4.bmp,green,ending_melody,melody,ending,c,negative,negative,ES_red,1,c,590,2290555,2291060,2291264
89,forth,32,krank,IAT_green3.bmp,green,ending_melody,melody,ending,c,negative,negative,ES_red,1,c,710,2292929,2293433,2293637
89,forth,33,ehrlich,IAT_red3.bmp,red,ending_scream,scream,ending,m,positive,positive,ES_red,1,m,616,2295421,2295925,2296129
89,forth,34,teuer,IAT_yellow2.bmp,yellow,starting_scream,scream,starting,c,negative,negative,ES_red,1,c,682,2297821,2298325,2298529
89,forth,35,human,IAT_green3.bmp,green,ending_melody,melody,ending,m,positive,negative,ES_red,1,m,591,2300288,2300792,2300996
89,forth,36,schön,IAT_red4.bmp,red,ending_scream,scream,ending,m,positive,positive,ES_red,1,m,589,2302661,2303165,2303369
89,forth,37,feige,IAT_red4.bmp,red,ending_scream,scream,ending,c,negative,positive,ES_red,1,c,645,2305032,2305537,2305741
89,forth,38,gierig,IAT_purple4.bmp,purple,starting_melody,melody,starting,c,negative,positive,ES_red,1,c,580,2307460,2307965,2308169
89,forth,39,sanft,IAT_green1.bmp,green,ending_melody,melody,ending,m,positive,negative,ES_red,1,m,574,2309822,2310326,2310530
89,forth,40,sonnig,IAT_red2.bmp,red,ending_scream,scream,ending,m,positive,positive,ES_red,1,m,522,2312179,2312683,2312887
89,forth,41,ehrlich,IAT_yellow1.bmp,yellow,starting_scream,scream,starting,m,positive,negative,ES_red,1,m,526,2314484,2314988,2315192
89,forth,42,brutal,IAT_red3.bmp,red,ending_scream,scream,ending,c,negative,positive,ES_red,1,c,513,2316793,2317297,2317501
89,forth,43,gierig,IAT_purple2.bmp,purple,starting_melody,melody,starting,c,negative,positive,ES_red,1,c,553,2319089,2319594,2319798
89,forth,44,witzig,IAT_yellow1.bmp,yellow,starting_scream,scream,starting,m,positive,negative,ES_red,1,m,637,2321426,2321930,2322134
89,forth,45,morsch,IAT_purple4.bmp,purple,starting_melody,melody,starting,c,negative,positive,ES_red,1,c,489,2323845,2324349,2324553
89,forth,46,einsam,IAT_yellow1.bmp,yellow,starting_scream,scream,starting,c,negative,negative,ES_red,1,c,691,2326116,2326620,2326824
89,forth,47,gesund,IAT_red3.bmp,red,ending_scream,scream,ending,m,positive,positive,ES_red,1,m,639,2328590,2329094,2329298
89,forth,48,lustig,IAT_purple3.bmp,purple,starting_melody,melody,starting,m,positive,positive,ES_red,1,m,570,2331011,2331516,2331720
89,forth,49,streng,IAT_green2.bmp,green,ending_melody,melody,ending,c,negative,negative,ES_red,1,c,625,2333364,2333869,2334074
89,forth,50,feige,IAT_purple3.bmp,purple,starting_melody,melody,starting,c,negative,positive,ES_red,1,c,553,2335774,2336278,2336482
89,forth,51,einsam,IAT_yellow4.bmp,yellow,starting_scream,scream,starting,c,negative,negative,ES_red,1,c,538,2338110,2338614,2338818
89,forth,52,kaputt,IAT_red4.bmp,red,ending_scream,scream,ending,c,negative,positive,ES_red,1,c,505,2340431,2340935,2341139
89,forth,53,gierig,IAT_yellow3.bmp,yellow,starting_scream,scream,starting,c,negative,negative,ES_red,1,c,487,2342719,2343224,2343428
89,forth,54,schön,IAT_green1.bmp,green,ending_melody,melody,ending,m,positive,negative,ES_red,1,m,570,2344990,2345495,2345699
89,forth,55,ehrlich,IAT_green2.bmp,green,ending_melody,melody,ending,m,positive,negative,ES_red,1,m,565,2347343,2347847,2348051
89,forth,56,morsch,IAT_red3.bmp,red,ending_scream,scream,ending,c,negative,positive,ES_red,1,c,593,2349691,2350196,2350400
89,forth,57,krank,IAT_red1.bmp,red,ending_scream,scream,ending,c,negative,positive,ES_red,1,c,720,2352068,2352572,2352776
89,forth,58,sozial,IAT_yellow1.bmp,yellow,starting_scream,scream,starting,m,positive,negative,ES_red,1,m,726,2354571,2355075,2355279
89,forth,59,streng,IAT_purple4.bmp,purple,starting_melody,melody,starting,c,negative,positive,ES_red,1,c,715,2357080,2357584,2357788
89,forth,60,feige,IAT_red2.bmp,red,ending_scream,scream,ending,c,negative,positive,ES_red,1,c,725,2359578,2360082,2360286
89,forth,61,lustig,IAT_yellow4.bmp,yellow,starting_scream,scream,starting,m,positive,negative,ES_red,1,m,641,2362087,2362591,2362795
89,forth,62,schön,IAT_purple2.bmp,purple,starting_melody,melody,starting,m,positive,positive,ES_red,1,m,506,2364511,2365015,2365219
89,forth,63,brutal,IAT_yellow2.bmp,yellow,starting_scream,scream,starting,c,negative,negative,ES_red,1,c,512,2366802,2367306,2367510
89,forth,64,gerecht,IAT_red3.bmp,red,ending_scream,scream,ending,m,positive,positive,ES_red,1,m,848,2369098,2369602,2369806
89,forth,65,sanft,IAT_green3.bmp,green,ending_melody,melody,ending,m,positive,negative,ES_red,1,m,595,2371729,2372233,2372437
89,forth,66,gerecht,IAT_purple3.bmp,purple,starting_melody,melody,starting,m,positive,positive,ES_red,1,m,649,2374106,2374610,2374814
89,forth,67,sonnig,IAT_purple2.bmp,purple,starting_melody,melody,starting,m,positive,positive,ES_red,1,m,508,2376538,2377043,2377247
89,forth,68,kaputt,IAT_red2.bmp,red,ending_scream,scream,ending,c,negative,positive,ES_red,1,c,541,2378831,2379335,2379539
89,forth,69,geizig,IAT_purple2.bmp,purple,starting_melody,melody,starting,c,negative,positive,ES_red,1,c,523,2381155,2381659,2381863
89,forth,70,lästig,IAT_yellow4.bmp,yellow,starting_scream,scream,starting,c,negative,negative,ES_red,1,c,640,2383461,2383965,2384169
89,forth,71,gesund,IAT_yellow4.bmp,yellow,starting_scream,scream,starting,m,positive,negative,ES_red,1,m,607,2385885,2386389,2386594
89,forth,72,heiter,IAT_yellow3.bmp,yellow,starting_scream,scream,starting,m,positive,negative,ES_red,1,m,496,2388276,2388780,2388984
89,forth,73,sanft,IAT_red2.bmp,red,ending_scream,scream,ending,m,positive,positive,ES_red,1,m,483,2390554,2391059,2391263
89,forth,74,munter,IAT_purple1.bmp,purple,starting_melody,melody,starting,m,positive,positive,ES_red,1,m,502,2392822,2393326,2393530
89,forth,75,witzig,IAT_green4.bmp,green,ending_melody,melody,ending,m,positive,negative,ES_red,1,m,604,2395107,2395611,2395815
89,forth,76,human,IAT_yellow3.bmp,yellow,starting_scream,scream,starting,m,positive,negative,ES_red,1,m,521,2397494,2397998,2398203
89,forth,77,witzig,IAT_yellow3.bmp,yellow,starting_scream,scream,starting,m,positive,negative,ES_red,1,m,532,2399799,2400303,2400507
89,forth,78,morsch,IAT_yellow4.bmp,yellow,starting_scream,scream,starting,c,negative,negative,ES_red,1,c,575,2402115,2402619,2402823
89,forth,79,lästig,IAT_green4.bmp,green,ending_melody,melody,ending,c,negative,negative,ES_red,1,c,591,2404474,2404978,2405182
89,forth,80,gerecht,IAT_yellow3.bmp,yellow,starting_scream,scream,starting,m,positive,negative,ES_red,1,m,628,2406849,2407353,2407557
89,forth,81,heiter,IAT_yellow2.bmp,yellow,starting_scream,scream,starting,m,positive,negative,ES_red,1,m,479,2409261,2409765,2409969
89,forth,82,gerecht,IAT_purple1.bmp,purple,starting_melody,melody,starting,m,positive,positive,ES_red,1,m,541,2411523,2412027,2412231
89,forth,83,streng,IAT_yellow3.bmp,yellow,starting_scream,scream,starting,c,negative,negative,ES_red,1,c,643,2413846,2414351,2414555
89,forth,84,brutal,IAT_red1.bmp,red,ending_scream,scream,ending,c,negative,positive,ES_red,1,c,599,2416273,2416777,2416981
89,forth,85,krank,IAT_red4.bmp,red,ending_scream,scream,ending,c,negative,positive,ES_red,1,c,532,2418655,2419159,2419364
89,forth,86,falsch,IAT_green2.bmp,green,ending_melody,melody,ending,c,negative,negative,ES_red,1,c,494,2420971,2421475,2421679
89,forth,87,einsam,IAT_green4.bmp,green,ending_melody,melody,ending,c,negative,negative,ES_red,1,c,461,2423249,2423753,2423957
89,forth,88,human,IAT_green1.bmp,green,ending_melody,melody,ending,m,positive,negative,ES_red,1,m,655,2425493,2425997,2426201
89,forth,89,lästig,IAT_green4.bmp,green,ending_melody,melody,ending,c,negative,negative,ES_red,1,c,636,2427931,2428435,2428639
89,forth,90,geizig,IAT_purple4.bmp,purple,starting_melody,melody,starting,c,negative,positive,ES_red,1,c,481,2430351,2430855,2431059
89,forth,91,einsam,IAT_yellow2.bmp,yellow,starting_scream,scream,starting,c,negative,negative,ES_red,1,c,561,2432615,2433120,2433324
89,forth,92,gierig,IAT_red4.bmp,red,ending_scream,scream,ending,c,negative,positive,ES_red,1,c,425,2434960,2435464,2435668
89,forth,93,gesund,IAT_yellow1.bmp,yellow,starting_scream,scream,starting,m,positive,negative,ES_red,1,m,628,2437170,2437674,2437878
89,forth,94,teuer,IAT_green1.bmp,green,ending_melody,melody,ending,c,negative,negative,ES_red,1,c,669,2439581,2440085,2440289
89,forth,95,sozial,IAT_green3.bmp,green,ending_melody,melody,ending,m,positive,negative,ES_red,1,m,490,2442034,2442538,2442742
