subject_nr,block,trialnr,trial_target,trial_prime,prime_color,prime_role,prime_us,prime_relation,correct_response,target_valence,prime_valence,color_counter,correct_first_response,response_first_response,response_time_first_response,fixation_show,prime_show,target_show
116,first,0,krank,IAT_yellow3.bmp,yellow,starting_melody,melody,starting,c,negative,positive,ES_green,0,m,579,1514529,1515034,1515238
116,first,1,sozial,IAT_green2.bmp,green,ending_scream,scream,ending,m,positive,positive,ES_green,1,m,519,1517393,1517898,1518102
116,first,2,gerecht,IAT_purple3.bmp,purple,starting_scream,scream,starting,m,positive,negative,ES_green,1,m,627,1519716,1520221,1520425
116,first,3,teuer,IAT_purple2.bmp,purple,starting_scream,scream,starting,c,negative,negative,ES_green,0,m,403,1522126,1522630,1522834
116,first,4,human,IAT_purple2.bmp,purple,starting_scream,scream,starting,m,positive,negative,ES_green,1,m,622,1524810,1525314,1525518
116,first,5,kaputt,IAT_yellow4.bmp,yellow,starting_melody,melody,starting,c,negative,positive,ES_green,1,c,734,1527214,1527718,1527922
116,first,6,morsch,IAT_purple2.bmp,purple,starting_scream,scream,starting,c,negative,negative,ES_green,1,c,497,1529729,1530234,1530438
116,first,7,kaputt,IAT_red4.bmp,red,ending_melody,melody,ending,c,negative,negative,ES_green,1,c,562,1532008,1532512,1532716
116,first,8,schön,IAT_purple4.bmp,purple,starting_scream,scream,starting,m,positive,negative,ES_green,1,m,401,1534352,1534857,1535061
116,first,9,morsch,IAT_red4.bmp,red,ending_melody,melody,ending,c,negative,negative,ES_green,1,c,513,1536536,1537040,1537244
116,first,10,krank,IAT_yellow4.bmp,yellow,starting_melody,melody,starting,c,negative,positive,ES_green,1,c,525,1538830,1539334,1539538
116,first,11,munter,IAT_purple2.bmp,purple,starting_scream,scream,starting,m,positive,negative,ES_green,0,c,542,1541136,1541641,1541845
116,first,12,teuer,IAT_green4.bmp,green,ending_scream,scream,ending,c,negative,positive,ES_green,1,c,612,1543978,1544483,1544687
116,first,13,witzig,IAT_red1.bmp,red,ending_melody,melody,ending,m,positive,negative,ES_green,1,m,481,1546372,1546876,1547080
116,first,14,streng,IAT_yellow2.bmp,yellow,starting_melody,melody,starting,c,negative,positive,ES_green,1,c,762,1548635,1549140,1549344
116,first,15,gesund,IAT_green3.bmp,green,ending_scream,scream,ending,m,positive,positive,ES_green,1,m,492,1551179,1551683,1551887
116,first,16,teuer,IAT_green3.bmp,green,ending_scream,scream,ending,c,negative,positive,ES_green,1,c,537,1553452,1553956,1554160
116,first,17,schön,IAT_red4.bmp,red,ending_melody,melody,ending,m,positive,negative,ES_green,1,m,660,1555771,1556275,1556479
116,first,18,sonnig,IAT_yellow1.bmp,yellow,starting_melody,melody,starting,m,positive,positive,ES_green,1,m,472,1558214,1558718,1558922
116,first,19,einsam,IAT_yellow4.bmp,yellow,starting_melody,melody,starting,c,negative,positive,ES_green,0,m,477,1560467,1560972,1561176
116,first,20,sanft,IAT_yellow3.bmp,yellow,starting_melody,melody,starting,m,positive,positive,ES_green,1,m,584,1563226,1563731,1563935
116,first,21,geizig,IAT_yellow3.bmp,yellow,starting_melody,melody,starting,c,negative,positive,ES_green,1,c,475,1565592,1566096,1566300
116,first,22,streng,IAT_purple4.bmp,purple,starting_scream,scream,starting,c,negative,negative,ES_green,1,c,574,1567847,1568352,1568556
116,first,23,ehrlich,IAT_yellow3.bmp,yellow,starting_melody,melody,starting,m,positive,positive,ES_green,1,m,509,1570203,1570708,1570912
116,first,24,morsch,IAT_green3.bmp,green,ending_scream,scream,ending,c,negative,positive,ES_green,1,c,573,1572495,1572999,1573203
116,first,25,sozial,IAT_yellow4.bmp,yellow,starting_melody,melody,starting,m,positive,positive,ES_green,1,m,491,1574849,1575353,1575557
116,first,26,gesund,IAT_green2.bmp,green,ending_scream,scream,ending,m,positive,positive,ES_green,1,m,449,1577122,1577626,1577830
116,first,27,kaputt,IAT_yellow2.bmp,yellow,starting_melody,melody,starting,c,negative,positive,ES_green,1,c,443,1579356,1579860,1580064
116,first,28,heiter,IAT_yellow3.bmp,yellow,starting_melody,melody,starting,m,positive,positive,ES_green,1,m,532,1581581,1582086,1582290
116,first,29,lästig,IAT_green2.bmp,green,ending_scream,scream,ending,c,negative,positive,ES_green,1,c,586,1583897,1584401,1584605
116,first,30,falsch,IAT_red1.bmp,red,ending_melody,melody,ending,c,negative,negative,ES_green,0,m,554,1586265,1586769,1586973
116,first,31,gesund,IAT_green4.bmp,green,ending_scream,scream,ending,m,positive,positive,ES_green,1,m,510,1589101,1589605,1589809
116,first,32,heiter,IAT_yellow1.bmp,yellow,starting_melody,melody,starting,m,positive,positive,ES_green,1,m,566,1591392,1591897,1592102
116,first,33,sonnig,IAT_green4.bmp,green,ending_scream,scream,ending,m,positive,positive,ES_green,1,m,508,1593742,1594247,1594451
116,first,34,gierig,IAT_green4.bmp,green,ending_scream,scream,ending,c,negative,positive,ES_green,1,c,491,1596033,1596537,1596741
116,first,35,schön,IAT_yellow1.bmp,yellow,starting_melody,melody,starting,m,positive,positive,ES_green,1,m,590,1598306,1598810,1599014
116,first,36,feige,IAT_purple2.bmp,purple,starting_scream,scream,starting,c,negative,negative,ES_green,1,c,529,1600679,1601183,1601387
116,first,37,gesund,IAT_red1.bmp,red,ending_melody,melody,ending,m,positive,negative,ES_green,1,m,451,1602991,1603496,1603700
116,first,38,brutal,IAT_yellow1.bmp,yellow,starting_melody,melody,starting,c,negative,positive,ES_green,1,c,552,1605225,1605730,1605934
116,first,39,morsch,IAT_green1.bmp,green,ending_scream,scream,ending,c,negative,positive,ES_green,1,c,519,1607560,1608064,1608268
116,first,40,falsch,IAT_purple3.bmp,purple,starting_scream,scream,starting,c,negative,negative,ES_green,1,c,738,1609860,1610364,1610568
116,first,41,brutal,IAT_purple1.bmp,purple,starting_scream,scream,starting,c,negative,negative,ES_green,1,c,593,1612380,1612884,1613088
116,first,42,sozial,IAT_yellow2.bmp,yellow,starting_melody,melody,starting,m,positive,positive,ES_green,1,m,441,1614755,1615260,1615464
116,first,43,lustig,IAT_green1.bmp,green,ending_scream,scream,ending,m,positive,positive,ES_green,1,m,556,1616980,1617484,1617688
116,first,44,heiter,IAT_purple1.bmp,purple,starting_scream,scream,starting,m,positive,negative,ES_green,1,m,559,1619318,1619823,1620027
116,first,45,kaputt,IAT_green4.bmp,green,ending_scream,scream,ending,c,negative,positive,ES_green,1,c,549,1621660,1622164,1622368
116,first,46,gierig,IAT_green4.bmp,green,ending_scream,scream,ending,c,negative,positive,ES_green,1,c,709,1623991,1624496,1624700
116,first,47,streng,IAT_yellow1.bmp,yellow,starting_melody,melody,starting,c,negative,positive,ES_green,1,c,595,1626483,1626988,1627192
116,first,48,einsam,IAT_purple1.bmp,purple,starting_scream,scream,starting,c,negative,negative,ES_green,1,c,655,1628861,1629365,1629569
116,first,49,teuer,IAT_green2.bmp,green,ending_scream,scream,ending,c,negative,positive,ES_green,1,c,766,1631298,1631803,1632007
116,first,50,geizig,IAT_yellow4.bmp,yellow,starting_melody,melody,starting,c,negative,positive,ES_green,1,c,544,1633848,1634352,1634556
116,first,51,brutal,IAT_purple2.bmp,purple,starting_scream,scream,starting,c,negative,negative,ES_green,1,c,623,1636174,1636678,1636882
116,first,52,geizig,IAT_red2.bmp,red,ending_melody,melody,ending,c,negative,negative,ES_green,1,c,510,1638579,1639083,1639287
116,first,53,krank,IAT_red3.bmp,red,ending_melody,melody,ending,c,negative,negative,ES_green,1,c,581,1640872,1641376,1641580
116,first,54,sanft,IAT_purple3.bmp,purple,starting_scream,scream,starting,m,positive,negative,ES_green,1,m,607,1643235,1643739,1643943
116,first,55,heiter,IAT_purple3.bmp,purple,starting_scream,scream,starting,m,positive,negative,ES_green,1,m,550,1645624,1646128,1646332
116,first,56,feige,IAT_red2.bmp,red,ending_melody,melody,ending,c,negative,negative,ES_green,1,c,672,1647958,1648462,1648666
116,first,57,lustig,IAT_purple1.bmp,purple,starting_scream,scream,starting,m,positive,negative,ES_green,1,m,579,1650413,1650917,1651121
116,first,58,brutal,IAT_green1.bmp,green,ending_scream,scream,ending,c,negative,positive,ES_green,1,c,546,1652773,1653277,1653481
116,first,59,lästig,IAT_red1.bmp,red,ending_melody,melody,ending,c,negative,negative,ES_green,1,c,632,1655101,1655606,1655810
116,first,60,human,IAT_green3.bmp,green,ending_scream,scream,ending,m,positive,positive,ES_green,0,c,479,1657518,1658022,1658226
116,first,61,ehrlich,IAT_red3.bmp,red,ending_melody,melody,ending,m,positive,negative,ES_green,1,m,610,1660280,1660784,1660988
116,first,62,human,IAT_green1.bmp,green,ending_scream,scream,ending,m,positive,positive,ES_green,1,m,497,1662672,1663176,1663380
116,first,63,streng,IAT_red4.bmp,red,ending_melody,melody,ending,c,negative,negative,ES_green,0,m,652,1664952,1665457,1665662
116,first,64,witzig,IAT_red1.bmp,red,ending_melody,melody,ending,m,positive,negative,ES_green,1,m,551,1667889,1668393,1668597
116,first,65,gierig,IAT_purple4.bmp,purple,starting_scream,scream,starting,c,negative,negative,ES_green,1,c,460,1670222,1670726,1670930
116,first,66,lustig,IAT_green1.bmp,green,ending_scream,scream,ending,m,positive,positive,ES_green,1,m,618,1672465,1672969,1673173
116,first,67,feige,IAT_yellow2.bmp,yellow,starting_melody,melody,starting,c,negative,positive,ES_green,0,m,507,1674866,1675370,1675574
116,first,68,falsch,IAT_red3.bmp,red,ending_melody,melody,ending,c,negative,negative,ES_green,1,c,701,1677655,1678160,1678364
116,first,69,gerecht,IAT_green3.bmp,green,ending_scream,scream,ending,m,positive,positive,ES_green,1,m,492,1680140,1680644,1680848
116,first,70,krank,IAT_green2.bmp,green,ending_scream,scream,ending,c,negative,positive,ES_green,1,c,544,1682414,1682918,1683122
116,first,71,sanft,IAT_green1.bmp,green,ending_scream,scream,ending,m,positive,positive,ES_green,1,m,509,1684740,1685244,1685448
116,first,72,feige,IAT_green2.bmp,green,ending_scream,scream,ending,c,negative,positive,ES_green,1,c,473,1687031,1687536,1687740
116,first,73,gierig,IAT_red2.bmp,red,ending_melody,melody,ending,c,negative,negative,ES_green,1,c,661,1689288,1689792,1689996
116,first,74,munter,IAT_purple4.bmp,purple,starting_scream,scream,starting,m,positive,negative,ES_green,1,m,564,1691731,1692235,1692439
116,first,75,ehrlich,IAT_yellow3.bmp,yellow,starting_melody,melody,starting,m,positive,positive,ES_green,1,m,683,1694078,1694582,1694786
116,first,76,sanft,IAT_red3.bmp,red,ending_melody,melody,ending,m,positive,negative,ES_green,1,m,610,1696545,1697049,1697253
116,first,77,gerecht,IAT_red2.bmp,red,ending_melody,melody,ending,m,positive,negative,ES_green,0,c,574,1698938,1699442,1699646
116,first,78,sozial,IAT_green3.bmp,green,ending_scream,scream,ending,m,positive,positive,ES_green,1,m,469,1701794,1702298,1702502
116,first,79,sonnig,IAT_red2.bmp,red,ending_melody,melody,ending,m,positive,negative,ES_green,1,m,591,1704046,1704550,1704754
116,first,80,geizig,IAT_purple3.bmp,purple,starting_scream,scream,starting,c,negative,negative,ES_green,1,c,957,1706420,1706924,1707128
116,first,81,falsch,IAT_purple4.bmp,purple,starting_scream,scream,starting,c,negative,negative,ES_green,1,c,614,1709159,1709663,1709867
116,first,82,einsam,IAT_yellow2.bmp,yellow,starting_melody,melody,starting,c,negative,positive,ES_green,0,m,648,1711557,1712062,1712266
116,first,83,lästig,IAT_purple4.bmp,purple,starting_scream,scream,starting,c,negative,negative,ES_green,1,c,794,1714488,1714992,1715196
116,first,84,witzig,IAT_yellow4.bmp,yellow,starting_melody,melody,starting,m,positive,positive,ES_green,1,m,610,1717065,1717569,1717773
116,first,85,einsam,IAT_red2.bmp,red,ending_melody,melody,ending,c,negative,negative,ES_green,1,c,758,1719458,1719962,1720166
116,first,86,lästig,IAT_red4.bmp,red,ending_melody,melody,ending,c,negative,negative,ES_green,1,c,546,1722000,1722504,1722708
116,first,87,munter,IAT_red3.bmp,red,ending_melody,melody,ending,m,positive,negative,ES_green,1,m,545,1724329,1724833,1725037
116,first,88,lustig,IAT_yellow2.bmp,yellow,starting_melody,melody,starting,m,positive,positive,ES_green,1,m,770,1726658,1727162,1727366
116,first,89,gerecht,IAT_yellow1.bmp,yellow,starting_melody,melody,starting,m,positive,positive,ES_green,1,m,664,1729211,1729715,1729919
116,first,90,sonnig,IAT_purple1.bmp,purple,starting_scream,scream,starting,m,positive,negative,ES_green,1,m,549,1731658,1732162,1732366
116,first,91,ehrlich,IAT_purple3.bmp,purple,starting_scream,scream,starting,m,positive,negative,ES_green,1,m,722,1733990,1734494,1734698
116,first,92,witzig,IAT_purple1.bmp,purple,starting_scream,scream,starting,m,positive,negative,ES_green,1,m,567,1736495,1736999,1737203
116,first,93,schön,IAT_red1.bmp,red,ending_melody,melody,ending,m,positive,negative,ES_green,1,m,574,1738846,1739350,1739554
116,first,94,human,IAT_red3.bmp,red,ending_melody,melody,ending,m,positive,negative,ES_green,1,m,608,1741204,1741708,1741912
116,first,95,munter,IAT_red4.bmp,red,ending_melody,melody,ending,m,positive,negative,ES_green,1,m,585,1743595,1744100,1744304
116,second,0,kaputt,IAT_yellow4.bmp,yellow,starting_melody,melody,starting,c,negative,positive,ES_green,1,c,837,1768586,1769090,1769294
116,second,1,gierig,IAT_purple1.bmp,purple,starting_scream,scream,starting,c,negative,negative,ES_green,1,c,581,1771206,1771710,1771914
116,second,2,brutal,IAT_purple4.bmp,purple,starting_scream,scream,starting,c,negative,negative,ES_green,1,c,811,1773568,1774073,1774277
116,second,3,streng,IAT_purple4.bmp,purple,starting_scream,scream,starting,c,negative,negative,ES_green,1,c,650,1776161,1776665,1776869
116,second,4,morsch,IAT_green1.bmp,green,ending_scream,scream,ending,c,negative,positive,ES_green,1,c,603,1778592,1779097,1779301
116,second,5,geizig,IAT_green2.bmp,green,ending_scream,scream,ending,c,negative,positive,ES_green,1,c,541,1780979,1781483,1781687
116,second,6,brutal,IAT_yellow4.bmp,yellow,starting_melody,melody,starting,c,negative,positive,ES_green,1,c,703,1783301,1783806,1784010
116,second,7,sonnig,IAT_purple4.bmp,purple,starting_scream,scream,starting,m,positive,negative,ES_green,1,m,516,1785786,1786290,1786494
116,second,8,sozial,IAT_green3.bmp,green,ending_scream,scream,ending,m,positive,positive,ES_green,1,m,484,1788084,1788588,1788792
116,second,9,gierig,IAT_yellow3.bmp,yellow,starting_melody,melody,starting,c,negative,positive,ES_green,1,c,478,1790349,1790853,1791057
116,second,10,teuer,IAT_green2.bmp,green,ending_scream,scream,ending,c,negative,positive,ES_green,1,c,471,1792608,1793112,1793316
116,second,11,kaputt,IAT_red2.bmp,red,ending_melody,melody,ending,c,negative,negative,ES_green,1,c,559,1794860,1795365,1795569
116,second,12,feige,IAT_red2.bmp,red,ending_melody,melody,ending,c,negative,negative,ES_green,0,m,458,1797201,1797706,1797910
116,second,13,munter,IAT_purple3.bmp,purple,starting_scream,scream,starting,m,positive,negative,ES_green,1,m,498,1799942,1800446,1800650
116,second,14,ehrlich,IAT_green4.bmp,green,ending_scream,scream,ending,m,positive,positive,ES_green,1,m,738,1802222,1802726,1802930
116,second,15,human,IAT_yellow1.bmp,yellow,starting_melody,melody,starting,m,positive,positive,ES_green,1,m,546,1804742,1805246,1805450
116,second,16,einsam,IAT_purple3.bmp,purple,starting_scream,scream,starting,c,negative,negative,ES_green,0,m,581,1807069,1807573,1807777
116,second,17,kaputt,IAT_red1.bmp,red,ending_melody,melody,ending,c,negative,negative,ES_green,1,c,603,1809932,1810437,1810642
116,second,18,sonnig,IAT_green1.bmp,green,ending_scream,scream,ending,m,positive,positive,ES_green,1,m,596,1812318,1812822,1813027
116,second,19,schön,IAT_purple4.bmp,purple,starting_scream,scream,starting,m,positive,negative,ES_green,1,m,522,1814697,1815201,1815405
116,second,20,krank,IAT_yellow2.bmp,yellow,starting_melody,melody,starting,c,negative,positive,ES_green,1,c,525,1817000,1817505,1817709
116,second,21,witzig,IAT_red2.bmp,red,ending_melody,melody,ending,m,positive,negative,ES_green,1,m,777,1819308,1819812,1820016
116,second,22,heiter,IAT_purple1.bmp,purple,starting_scream,scream,starting,m,positive,negative,ES_green,1,m,921,1821867,1822371,1822575
116,second,23,witzig,IAT_yellow1.bmp,yellow,starting_melody,melody,starting,m,positive,positive,ES_green,1,m,520,1824570,1825075,1825279
116,second,24,gerecht,IAT_red1.bmp,red,ending_melody,melody,ending,m,positive,negative,ES_green,1,m,589,1826871,1827376,1827580
116,second,25,einsam,IAT_green4.bmp,green,ending_scream,scream,ending,c,negative,positive,ES_green,1,c,752,1829242,1829747,1829951
116,second,26,gesund,IAT_yellow3.bmp,yellow,starting_melody,melody,starting,m,positive,positive,ES_green,1,m,558,1831777,1832282,1832486
116,second,27,gerecht,IAT_green2.bmp,green,ending_scream,scream,ending,m,positive,positive,ES_green,1,m,615,1834117,1834622,1834826
116,second,28,witzig,IAT_green3.bmp,green,ending_scream,scream,ending,m,positive,positive,ES_green,1,m,602,1836513,1837018,1837222
116,second,29,kaputt,IAT_purple2.bmp,purple,starting_scream,scream,starting,c,negative,negative,ES_green,1,c,554,1838898,1839402,1839606
116,second,30,munter,IAT_yellow2.bmp,yellow,starting_melody,melody,starting,m,positive,positive,ES_green,1,m,501,1841234,1841738,1841942
116,second,31,schön,IAT_green1.bmp,green,ending_scream,scream,ending,m,positive,positive,ES_green,1,m,446,1843516,1844020,1844224
116,second,32,brutal,IAT_green4.bmp,green,ending_scream,scream,ending,c,negative,positive,ES_green,1,c,563,1845744,1846249,1846453
116,second,33,sanft,IAT_yellow1.bmp,yellow,starting_melody,melody,starting,m,positive,positive,ES_green,1,m,517,1848089,1848594,1848798
116,second,34,lustig,IAT_green1.bmp,green,ending_scream,scream,ending,m,positive,positive,ES_green,1,m,643,1850389,1850893,1851097
116,second,35,munter,IAT_red3.bmp,red,ending_melody,melody,ending,m,positive,negative,ES_green,1,m,894,1852814,1853318,1853522
116,second,36,streng,IAT_purple3.bmp,purple,starting_scream,scream,starting,c,negative,negative,ES_green,1,c,538,1855489,1855993,1856197
116,second,37,sanft,IAT_red4.bmp,red,ending_melody,melody,ending,m,positive,negative,ES_green,1,m,518,1857809,1858313,1858517
116,second,38,lästig,IAT_purple2.bmp,purple,starting_scream,scream,starting,c,negative,negative,ES_green,0,m,1032,1860109,1860613,1860817
116,second,39,geizig,IAT_yellow2.bmp,yellow,starting_melody,melody,starting,c,negative,positive,ES_green,1,c,614,1863423,1863927,1864131
116,second,40,streng,IAT_red4.bmp,red,ending_melody,melody,ending,c,negative,negative,ES_green,1,c,823,1865819,1866323,1866528
116,second,41,einsam,IAT_red2.bmp,red,ending_melody,melody,ending,c,negative,negative,ES_green,0,m,491,1868425,1868930,1869134
116,second,42,gierig,IAT_green4.bmp,green,ending_scream,scream,ending,c,negative,positive,ES_green,1,c,556,1871198,1871703,1871907
116,second,43,krank,IAT_red1.bmp,red,ending_melody,melody,ending,c,negative,negative,ES_green,1,c,571,1873538,1874043,1874247
116,second,44,gerecht,IAT_red1.bmp,red,ending_melody,melody,ending,m,positive,negative,ES_green,1,m,624,1875893,1876397,1876601
116,second,45,lästig,IAT_green4.bmp,green,ending_scream,scream,ending,c,negative,positive,ES_green,1,c,669,1878298,1878803,1879007
116,second,46,streng,IAT_yellow4.bmp,yellow,starting_melody,melody,starting,c,negative,positive,ES_green,1,c,610,1880750,1881255,1881459
116,second,47,teuer,IAT_purple4.bmp,purple,starting_scream,scream,starting,c,negative,negative,ES_green,0,m,926,1883143,1883647,1883851
116,second,48,falsch,IAT_green2.bmp,green,ending_scream,scream,ending,c,negative,positive,ES_green,1,c,775,1886350,1886854,1887058
116,second,49,ehrlich,IAT_green3.bmp,green,ending_scream,scream,ending,m,positive,positive,ES_green,1,m,589,1888907,1889412,1889616
116,second,50,human,IAT_yellow4.bmp,yellow,starting_melody,melody,starting,m,positive,positive,ES_green,1,m,498,1891279,1891783,1891987
116,second,51,morsch,IAT_yellow1.bmp,yellow,starting_melody,melody,starting,c,negative,positive,ES_green,1,c,540,1893560,1894064,1894268
116,second,52,krank,IAT_green2.bmp,green,ending_scream,scream,ending,c,negative,positive,ES_green,1,c,684,1895882,1896386,1896590
116,second,53,gierig,IAT_red4.bmp,red,ending_melody,melody,ending,c,negative,negative,ES_green,1,c,548,1898349,1898853,1899057
116,second,54,geizig,IAT_red4.bmp,red,ending_melody,melody,ending,c,negative,negative,ES_green,1,c,515,1900679,1901183,1901387
116,second,55,ehrlich,IAT_yellow4.bmp,yellow,starting_melody,melody,starting,m,positive,positive,ES_green,1,m,468,1902978,1903482,1903686
116,second,56,einsam,IAT_yellow2.bmp,yellow,starting_melody,melody,starting,c,negative,positive,ES_green,1,c,745,1905228,1905732,1905936
116,second,57,teuer,IAT_yellow3.bmp,yellow,starting_melody,melody,starting,c,negative,positive,ES_green,1,c,705,1907756,1908260,1908464
116,second,58,gesund,IAT_green4.bmp,green,ending_scream,scream,ending,m,positive,positive,ES_green,1,m,434,1910243,1910747,1910951
116,second,59,lustig,IAT_yellow2.bmp,yellow,starting_melody,melody,starting,m,positive,positive,ES_green,1,m,585,1912460,1912964,1913168
116,second,60,schön,IAT_yellow3.bmp,yellow,starting_melody,melody,starting,m,positive,positive,ES_green,1,m,524,1914827,1915331,1915535
116,second,61,falsch,IAT_green3.bmp,green,ending_scream,scream,ending,c,negative,positive,ES_green,1,c,433,1917133,1917638,1917842
116,second,62,feige,IAT_purple2.bmp,purple,starting_scream,scream,starting,c,negative,negative,ES_green,1,c,538,1919349,1919853,1920057
116,second,63,brutal,IAT_yellow4.bmp,yellow,starting_melody,melody,starting,c,negative,positive,ES_green,1,c,575,1921670,1922174,1922378
116,second,64,teuer,IAT_green1.bmp,green,ending_scream,scream,ending,c,negative,positive,ES_green,1,c,674,1924027,1924532,1924736
116,second,65,gerecht,IAT_yellow3.bmp,yellow,starting_melody,melody,starting,m,positive,positive,ES_green,1,m,588,1926485,1926989,1927193
116,second,66,schön,IAT_red3.bmp,red,ending_melody,melody,ending,m,positive,negative,ES_green,1,m,445,1928856,1929360,1929564
116,second,67,sonnig,IAT_purple2.bmp,purple,starting_scream,scream,starting,m,positive,negative,ES_green,1,m,469,1931083,1931588,1931792
116,second,68,feige,IAT_yellow1.bmp,yellow,starting_melody,melody,starting,c,negative,positive,ES_green,1,c,557,1933337,1933841,1934045
116,second,69,human,IAT_purple3.bmp,purple,starting_scream,scream,starting,m,positive,negative,ES_green,1,m,502,1935675,1936179,1936383
116,second,70,morsch,IAT_red3.bmp,red,ending_melody,melody,ending,c,negative,negative,ES_green,1,c,531,1937959,1938464,1938668
116,second,71,sozial,IAT_green1.bmp,green,ending_scream,scream,ending,m,positive,positive,ES_green,1,m,527,1940274,1940778,1940982
116,second,72,munter,IAT_purple1.bmp,purple,starting_scream,scream,starting,m,positive,negative,ES_green,1,m,624,1942583,1943087,1943291
116,second,73,sanft,IAT_purple2.bmp,purple,starting_scream,scream,starting,m,positive,negative,ES_green,1,m,487,1944991,1945495,1945699
116,second,74,heiter,IAT_yellow1.bmp,yellow,starting_melody,melody,starting,m,positive,positive,ES_green,1,m,563,1947262,1947766,1947971
116,second,75,krank,IAT_red2.bmp,red,ending_melody,melody,ending,c,negative,negative,ES_green,0,m,474,1949608,1950112,1950316
116,second,76,gesund,IAT_red3.bmp,red,ending_melody,melody,ending,m,positive,negative,ES_green,0,c,441,1952363,1952868,1953072
116,second,77,falsch,IAT_green3.bmp,green,ending_scream,scream,ending,c,negative,positive,ES_green,1,c,678,1955087,1955592,1955796
116,second,78,lustig,IAT_purple3.bmp,purple,starting_scream,scream,starting,m,positive,negative,ES_green,1,m,467,1957548,1958053,1958257
116,second,79,witzig,IAT_green3.bmp,green,ending_scream,scream,ending,m,positive,positive,ES_green,1,m,561,1959799,1960303,1960507
116,second,80,geizig,IAT_purple4.bmp,purple,starting_scream,scream,starting,c,negative,negative,ES_green,1,c,642,1962144,1962648,1962852
116,second,81,gesund,IAT_red1.bmp,red,ending_melody,melody,ending,m,positive,negative,ES_green,0,c,487,1964568,1965072,1965276
116,second,82,lustig,IAT_yellow3.bmp,yellow,starting_melody,melody,starting,m,positive,positive,ES_green,1,m,795,1967337,1967841,1968045
116,second,83,heiter,IAT_purple1.bmp,purple,starting_scream,scream,starting,m,positive,negative,ES_green,1,m,691,1969914,1970418,1970622
116,second,84,lästig,IAT_red4.bmp,red,ending_melody,melody,ending,c,negative,negative,ES_green,1,c,611,1972388,1972892,1973096
116,second,85,feige,IAT_purple2.bmp,purple,starting_scream,scream,starting,c,negative,negative,ES_green,1,c,657,1974780,1975284,1975488
116,second,86,human,IAT_purple3.bmp,purple,starting_scream,scream,starting,m,positive,negative,ES_green,1,m,593,1977219,1977724,1977928
116,second,87,lästig,IAT_purple1.bmp,purple,starting_scream,scream,starting,c,negative,negative,ES_green,1,c,597,1979595,1980099,1980303
116,second,88,falsch,IAT_yellow2.bmp,yellow,starting_melody,melody,starting,c,negative,positive,ES_green,1,c,543,1981975,1982479,1982683
116,second,89,sonnig,IAT_red4.bmp,red,ending_melody,melody,ending,m,positive,negative,ES_green,1,m,543,1984301,1984806,1985010
116,second,90,sozial,IAT_red1.bmp,red,ending_melody,melody,ending,m,positive,negative,ES_green,1,m,513,1986628,1987133,1987337
116,second,91,sanft,IAT_purple1.bmp,purple,starting_scream,scream,starting,m,positive,negative,ES_green,1,m,556,1988925,1989429,1989633
116,second,92,ehrlich,IAT_green2.bmp,green,ending_scream,scream,ending,m,positive,positive,ES_green,1,m,757,1991264,1991768,1991972
116,second,93,heiter,IAT_red2.bmp,red,ending_melody,melody,ending,m,positive,negative,ES_green,1,m,592,1993803,1994308,1994512
116,second,94,morsch,IAT_red3.bmp,red,ending_melody,melody,ending,c,negative,negative,ES_green,1,c,522,1996179,1996683,1996887
116,second,95,sozial,IAT_red3.bmp,red,ending_melody,melody,ending,m,positive,negative,ES_green,1,m,590,1998483,1998987,1999191
116,third,0,heiter,IAT_green1.bmp,green,ending_scream,scream,ending,m,positive,positive,ES_green,1,m,623,2018264,2018768,2018972
116,third,1,brutal,IAT_purple2.bmp,purple,starting_scream,scream,starting,c,negative,negative,ES_green,1,c,534,2020669,2021174,2021378
116,third,2,kaputt,IAT_green4.bmp,green,ending_scream,scream,ending,c,negative,positive,ES_green,1,c,527,2022985,2023489,2023693
116,third,3,witzig,IAT_green3.bmp,green,ending_scream,scream,ending,m,positive,positive,ES_green,1,m,422,2025294,2025798,2026002
116,third,4,geizig,IAT_purple4.bmp,purple,starting_scream,scream,starting,c,negative,negative,ES_green,1,c,503,2027497,2028002,2028206
116,third,5,sozial,IAT_green1.bmp,green,ending_scream,scream,ending,m,positive,positive,ES_green,1,m,451,2029782,2030286,2030490
116,third,6,sanft,IAT_red2.bmp,red,ending_melody,melody,ending,m,positive,negative,ES_green,1,m,534,2032014,2032518,2032722
116,third,7,kaputt,IAT_yellow4.bmp,yellow,starting_melody,melody,starting,c,negative,positive,ES_green,1,c,542,2034329,2034834,2035038
116,third,8,einsam,IAT_green4.bmp,green,ending_scream,scream,ending,c,negative,positive,ES_green,1,c,652,2036653,2037157,2037361
116,third,9,krank,IAT_red2.bmp,red,ending_melody,melody,ending,c,negative,negative,ES_green,1,c,566,2039087,2039591,2039795
116,third,10,sozial,IAT_green2.bmp,green,ending_scream,scream,ending,m,positive,positive,ES_green,1,m,485,2041433,2041938,2042142
116,third,11,sanft,IAT_red3.bmp,red,ending_melody,melody,ending,m,positive,negative,ES_green,1,m,568,2043700,2044204,2044408
116,third,12,witzig,IAT_purple3.bmp,purple,starting_scream,scream,starting,m,positive,negative,ES_green,1,m,538,2046049,2046553,2046757
116,third,13,gesund,IAT_red3.bmp,red,ending_melody,melody,ending,m,positive,negative,ES_green,0,c,386,2048368,2048873,2049077
116,third,14,gierig,IAT_yellow2.bmp,yellow,starting_melody,melody,starting,c,negative,positive,ES_green,1,c,645,2051039,2051544,2051748
116,third,15,heiter,IAT_yellow1.bmp,yellow,starting_melody,melody,starting,m,positive,positive,ES_green,1,m,554,2053467,2053971,2054175
116,third,16,morsch,IAT_yellow2.bmp,yellow,starting_melody,melody,starting,c,negative,positive,ES_green,1,c,506,2055802,2056307,2056511
116,third,17,gesund,IAT_yellow3.bmp,yellow,starting_melody,melody,starting,m,positive,positive,ES_green,1,m,567,2058092,2058596,2058800
116,third,18,einsam,IAT_green3.bmp,green,ending_scream,scream,ending,c,negative,positive,ES_green,0,m,769,2060440,2060945,2061149
116,third,19,human,IAT_green3.bmp,green,ending_scream,scream,ending,m,positive,positive,ES_green,1,m,593,2063493,2063997,2064202
116,third,20,falsch,IAT_green3.bmp,green,ending_scream,scream,ending,c,negative,positive,ES_green,1,c,505,2065870,2066374,2066578
116,third,21,krank,IAT_purple4.bmp,purple,starting_scream,scream,starting,c,negative,negative,ES_green,1,c,497,2068157,2068662,2068866
116,third,22,geizig,IAT_green1.bmp,green,ending_scream,scream,ending,c,negative,positive,ES_green,1,c,644,2070438,2070942,2071146
116,third,23,falsch,IAT_yellow1.bmp,yellow,starting_melody,melody,starting,c,negative,positive,ES_green,1,c,465,2072865,2073369,2073573
116,third,24,teuer,IAT_purple3.bmp,purple,starting_scream,scream,starting,c,negative,negative,ES_green,1,c,676,2075112,2075617,2075821
116,third,25,ehrlich,IAT_red2.bmp,red,ending_melody,melody,ending,m,positive,negative,ES_green,1,m,459,2077570,2078075,2078279
116,third,26,lästig,IAT_yellow4.bmp,yellow,starting_melody,melody,starting,c,negative,positive,ES_green,1,c,495,2079813,2080317,2080521
116,third,27,sanft,IAT_purple1.bmp,purple,starting_scream,scream,starting,m,positive,negative,ES_green,1,m,537,2082089,2082594,2082798
116,third,28,falsch,IAT_green2.bmp,green,ending_scream,scream,ending,c,negative,positive,ES_green,1,c,683,2084409,2084913,2085117
116,third,29,gesund,IAT_purple3.bmp,purple,starting_scream,scream,starting,m,positive,negative,ES_green,0,c,488,2086874,2087378,2087583
116,third,30,kaputt,IAT_yellow4.bmp,yellow,starting_melody,melody,starting,c,negative,positive,ES_green,1,c,447,2089646,2090151,2090355
116,third,31,lästig,IAT_red1.bmp,red,ending_melody,melody,ending,c,negative,negative,ES_green,1,c,607,2091877,2092381,2092585
116,third,32,ehrlich,IAT_green4.bmp,green,ending_scream,scream,ending,m,positive,positive,ES_green,1,m,426,2094267,2094771,2094975
116,third,33,feige,IAT_purple4.bmp,purple,starting_scream,scream,starting,c,negative,negative,ES_green,1,c,501,2096474,2096978,2097182
116,third,34,sonnig,IAT_yellow2.bmp,yellow,starting_melody,melody,starting,m,positive,positive,ES_green,1,m,426,2098757,2099262,2099466
116,third,35,gerecht,IAT_yellow1.bmp,yellow,starting_melody,melody,starting,m,positive,positive,ES_green,1,m,689,2100967,2101471,2101675
116,third,36,krank,IAT_red3.bmp,red,ending_melody,melody,ending,c,negative,negative,ES_green,1,c,439,2103438,2103942,2104146
116,third,37,munter,IAT_red3.bmp,red,ending_melody,melody,ending,m,positive,negative,ES_green,1,m,569,2105660,2106164,2106368
116,third,38,heiter,IAT_yellow4.bmp,yellow,starting_melody,melody,starting,m,positive,positive,ES_green,1,m,459,2108012,2108517,2108721
116,third,39,lustig,IAT_purple1.bmp,purple,starting_scream,scream,starting,m,positive,negative,ES_green,1,m,527,2110253,2110758,2110962
116,third,40,gerecht,IAT_red1.bmp,red,ending_melody,melody,ending,m,positive,negative,ES_green,1,m,953,2112563,2113067,2113271
116,third,41,lustig,IAT_yellow4.bmp,yellow,starting_melody,melody,starting,m,positive,positive,ES_green,1,m,504,2115301,2115805,2116009
116,third,42,streng,IAT_red2.bmp,red,ending_melody,melody,ending,c,negative,negative,ES_green,1,c,557,2117588,2118093,2118297
116,third,43,ehrlich,IAT_green3.bmp,green,ending_scream,scream,ending,m,positive,positive,ES_green,1,m,531,2119929,2120434,2120638
116,third,44,schön,IAT_yellow3.bmp,yellow,starting_melody,melody,starting,m,positive,positive,ES_green,1,m,712,2122243,2122748,2122952
116,third,45,gierig,IAT_purple3.bmp,purple,starting_scream,scream,starting,c,negative,negative,ES_green,1,c,1195,2124737,2125242,2125446
116,third,46,falsch,IAT_purple1.bmp,purple,starting_scream,scream,starting,c,negative,negative,ES_green,1,c,1388,2127715,2128219,2128423
116,third,47,gerecht,IAT_red3.bmp,red,ending_melody,melody,ending,m,positive,negative,ES_green,1,m,559,2130886,2131390,2131594
116,third,48,streng,IAT_purple2.bmp,purple,starting_scream,scream,starting,c,negative,negative,ES_green,1,c,730,2133227,2133732,2133936
116,third,49,lästig,IAT_purple1.bmp,purple,starting_scream,scream,starting,c,negative,negative,ES_green,1,c,498,2135741,2136245,2136449
116,third,50,feige,IAT_purple2.bmp,purple,starting_scream,scream,starting,c,negative,negative,ES_green,1,c,513,2138021,2138525,2138729
116,third,51,geizig,IAT_green4.bmp,green,ending_scream,scream,ending,c,negative,positive,ES_green,1,c,582,2140317,2140821,2141025
116,third,52,lästig,IAT_red4.bmp,red,ending_melody,melody,ending,c,negative,negative,ES_green,1,c,538,2142682,2143186,2143390
116,third,53,teuer,IAT_purple4.bmp,purple,starting_scream,scream,starting,c,negative,negative,ES_green,1,c,570,2145003,2145507,2145711
116,third,54,feige,IAT_red4.bmp,red,ending_melody,melody,ending,c,negative,negative,ES_green,1,c,588,2147355,2147859,2148063
116,third,55,schön,IAT_purple1.bmp,purple,starting_scream,scream,starting,m,positive,negative,ES_green,1,m,547,2149726,2150230,2150434
116,third,56,witzig,IAT_purple2.bmp,purple,starting_scream,scream,starting,m,positive,negative,ES_green,1,m,801,2152056,2152560,2152764
116,third,57,human,IAT_yellow3.bmp,yellow,starting_melody,melody,starting,m,positive,positive,ES_green,1,m,565,2154640,2155144,2155348
116,third,58,schön,IAT_red1.bmp,red,ending_melody,melody,ending,m,positive,negative,ES_green,1,m,491,2156988,2157492,2157696
116,third,59,lustig,IAT_yellow3.bmp,yellow,starting_melody,melody,starting,m,positive,positive,ES_green,1,m,579,2159260,2159765,2159969
116,third,60,streng,IAT_green2.bmp,green,ending_scream,scream,ending,c,negative,positive,ES_green,1,c,640,2161622,2162126,2162331
116,third,61,brutal,IAT_yellow3.bmp,yellow,starting_melody,melody,starting,c,negative,positive,ES_green,1,c,470,2164045,2164549,2164753
116,third,62,munter,IAT_purple4.bmp,purple,starting_scream,scream,starting,m,positive,negative,ES_green,1,m,625,2166297,2166802,2167006
116,third,63,einsam,IAT_red2.bmp,red,ending_melody,melody,ending,c,negative,negative,ES_green,1,c,656,2168706,2169211,2169415
116,third,64,kaputt,IAT_yellow4.bmp,yellow,starting_melody,melody,starting,c,negative,positive,ES_green,1,c,556,2171146,2171650,2171854
116,third,65,schön,IAT_red1.bmp,red,ending_melody,melody,ending,m,positive,negative,ES_green,1,m,517,2173486,2173990,2174194
116,third,66,human,IAT_purple2.bmp,purple,starting_scream,scream,starting,m,positive,negative,ES_green,1,m,531,2175787,2176291,2176495
116,third,67,ehrlich,IAT_red4.bmp,red,ending_melody,melody,ending,m,positive,negative,ES_green,1,m,534,2178101,2178606,2178810
116,third,68,gesund,IAT_yellow1.bmp,yellow,starting_melody,melody,starting,m,positive,positive,ES_green,1,m,470,2180419,2180923,2181127
116,third,69,teuer,IAT_red4.bmp,red,ending_melody,melody,ending,c,negative,negative,ES_green,1,c,483,2182672,2183176,2183380
116,third,70,streng,IAT_yellow2.bmp,yellow,starting_melody,melody,starting,c,negative,positive,ES_green,1,c,607,2184940,2185444,2185648
116,third,71,sonnig,IAT_purple3.bmp,purple,starting_scream,scream,starting,m,positive,negative,ES_green,1,m,476,2187329,2187834,2188038
116,third,72,brutal,IAT_yellow1.bmp,yellow,starting_melody,melody,starting,c,negative,positive,ES_green,1,c,527,2189588,2190093,2190297
116,third,73,witzig,IAT_purple3.bmp,purple,starting_scream,scream,starting,m,positive,negative,ES_green,1,m,460,2191898,2192403,2192607
116,third,74,gierig,IAT_green2.bmp,green,ending_scream,scream,ending,c,negative,positive,ES_green,1,c,585,2194141,2194646,2194850
116,third,75,sozial,IAT_green4.bmp,green,ending_scream,scream,ending,m,positive,positive,ES_green,1,m,487,2196510,2197014,2197218
116,third,76,heiter,IAT_green3.bmp,green,ending_scream,scream,ending,m,positive,positive,ES_green,1,m,424,2198779,2199284,2199488
116,third,77,sanft,IAT_purple4.bmp,purple,starting_scream,scream,starting,m,positive,negative,ES_green,1,m,418,2200987,2201492,2201696
116,third,78,gerecht,IAT_red4.bmp,red,ending_melody,melody,ending,m,positive,negative,ES_green,0,c,427,2203189,2203694,2203898
116,third,79,sonnig,IAT_green1.bmp,green,ending_scream,scream,ending,m,positive,positive,ES_green,1,m,489,2205900,2206404,2206608
116,third,80,brutal,IAT_yellow3.bmp,yellow,starting_melody,melody,starting,c,negative,positive,ES_green,1,c,522,2208170,2208675,2208879
116,third,81,geizig,IAT_purple2.bmp,purple,starting_scream,scream,starting,c,negative,negative,ES_green,1,c,620,2210476,2210980,2211184
116,third,82,lustig,IAT_green2.bmp,green,ending_scream,scream,ending,m,positive,positive,ES_green,1,m,356,2212879,2213383,2213587
116,third,83,feige,IAT_red3.bmp,red,ending_melody,melody,ending,c,negative,negative,ES_green,1,c,504,2215018,2215522,2215726
116,third,84,sonnig,IAT_yellow1.bmp,yellow,starting_melody,melody,starting,m,positive,positive,ES_green,1,m,402,2217304,2217808,2218012
116,third,85,morsch,IAT_green4.bmp,green,ending_scream,scream,ending,c,negative,positive,ES_green,1,c,497,2219489,2219994,2220198
116,third,86,einsam,IAT_red2.bmp,red,ending_melody,melody,ending,c,negative,negative,ES_green,1,c,649,2221770,2222274,2222478
116,third,87,morsch,IAT_green2.bmp,green,ending_scream,scream,ending,c,negative,positive,ES_green,1,c,526,2224201,2224706,2224910
116,third,88,gierig,IAT_red1.bmp,red,ending_melody,melody,ending,c,negative,negative,ES_green,1,c,565,2226511,2227016,2227220
116,third,89,human,IAT_red1.bmp,red,ending_melody,melody,ending,m,positive,negative,ES_green,1,m,631,2228861,2229365,2229569
116,third,90,munter,IAT_purple1.bmp,purple,starting_scream,scream,starting,m,positive,negative,ES_green,1,m,464,2231275,2231779,2231983
116,third,91,krank,IAT_yellow2.bmp,yellow,starting_melody,melody,starting,c,negative,positive,ES_green,1,c,505,2233522,2234026,2234230
116,third,92,teuer,IAT_red4.bmp,red,ending_melody,melody,ending,c,negative,negative,ES_green,1,c,642,2235810,2236315,2236519
116,third,93,morsch,IAT_green1.bmp,green,ending_scream,scream,ending,c,negative,positive,ES_green,1,c,469,2238235,2238739,2238943
116,third,94,sozial,IAT_green1.bmp,green,ending_scream,scream,ending,m,positive,positive,ES_green,1,m,549,2240488,2240992,2241196
116,third,95,munter,IAT_yellow2.bmp,yellow,starting_melody,melody,starting,m,positive,positive,ES_green,1,m,450,2242820,2243324,2243528
116,forth,0,geizig,IAT_purple4.bmp,purple,starting_scream,scream,starting,c,negative,negative,ES_green,1,c,554,2270199,2270703,2270907
116,forth,1,morsch,IAT_yellow4.bmp,yellow,starting_melody,melody,starting,c,negative,positive,ES_green,1,c,461,2272538,2273042,2273246
116,forth,2,krank,IAT_yellow1.bmp,yellow,starting_melody,melody,starting,c,negative,positive,ES_green,1,c,521,2274780,2275285,2275489
116,forth,3,feige,IAT_red2.bmp,red,ending_melody,melody,ending,c,negative,negative,ES_green,1,c,547,2277084,2277588,2277792
116,forth,4,brutal,IAT_red3.bmp,red,ending_melody,melody,ending,c,negative,negative,ES_green,1,c,421,2279413,2279917,2280121
116,forth,5,einsam,IAT_purple3.bmp,purple,starting_scream,scream,starting,c,negative,negative,ES_green,1,c,483,2281615,2282119,2282323
116,forth,6,krank,IAT_green3.bmp,green,ending_scream,scream,ending,c,negative,positive,ES_green,1,c,450,2283879,2284384,2284588
116,forth,7,lustig,IAT_red2.bmp,red,ending_melody,melody,ending,m,positive,negative,ES_green,1,m,442,2286112,2286616,2286820
116,forth,8,einsam,IAT_red4.bmp,red,ending_melody,melody,ending,c,negative,negative,ES_green,1,c,656,2288335,2288839,2289043
116,forth,9,brutal,IAT_purple2.bmp,purple,starting_scream,scream,starting,c,negative,negative,ES_green,1,c,518,2290774,2291278,2291483
116,forth,10,gerecht,IAT_red2.bmp,red,ending_melody,melody,ending,m,positive,negative,ES_green,1,m,564,2293075,2293579,2293783
116,forth,11,gierig,IAT_red4.bmp,red,ending_melody,melody,ending,c,negative,negative,ES_green,1,c,552,2295420,2295924,2296128
116,forth,12,sanft,IAT_purple3.bmp,purple,starting_scream,scream,starting,m,positive,negative,ES_green,1,m,487,2297753,2298257,2298461
116,forth,13,lästig,IAT_purple4.bmp,purple,starting_scream,scream,starting,c,negative,negative,ES_green,1,c,869,2300021,2300525,2300729
116,forth,14,lustig,IAT_yellow1.bmp,yellow,starting_melody,melody,starting,m,positive,positive,ES_green,1,m,514,2302672,2303176,2303380
116,forth,15,feige,IAT_green1.bmp,green,ending_scream,scream,ending,c,negative,positive,ES_green,1,c,469,2304969,2305473,2305677
116,forth,16,brutal,IAT_red2.bmp,red,ending_melody,melody,ending,c,negative,negative,ES_green,1,c,588,2307220,2307724,2307928
116,forth,17,ehrlich,IAT_purple3.bmp,purple,starting_scream,scream,starting,m,positive,negative,ES_green,1,m,523,2309591,2310095,2310299
116,forth,18,gierig,IAT_red2.bmp,red,ending_melody,melody,ending,c,negative,negative,ES_green,1,c,478,2311897,2312401,2312605
116,forth,19,munter,IAT_green1.bmp,green,ending_scream,scream,ending,m,positive,positive,ES_green,1,m,411,2314157,2314662,2314866
116,forth,20,witzig,IAT_purple4.bmp,purple,starting_scream,scream,starting,m,positive,negative,ES_green,1,m,424,2316350,2316855,2317059
116,forth,21,gesund,IAT_yellow1.bmp,yellow,starting_melody,melody,starting,m,positive,positive,ES_green,1,m,430,2318558,2319062,2319266
116,forth,22,gerecht,IAT_purple1.bmp,purple,starting_scream,scream,starting,m,positive,negative,ES_green,1,m,491,2320770,2321274,2321478
116,forth,23,sanft,IAT_purple1.bmp,purple,starting_scream,scream,starting,m,positive,negative,ES_green,1,m,460,2323044,2323548,2323752
116,forth,24,geizig,IAT_yellow2.bmp,yellow,starting_melody,melody,starting,c,negative,positive,ES_green,1,c,403,2325286,2325790,2325994
116,forth,25,kaputt,IAT_yellow4.bmp,yellow,starting_melody,melody,starting,c,negative,positive,ES_green,1,c,626,2327470,2327975,2328179
116,forth,26,sozial,IAT_yellow3.bmp,yellow,starting_melody,melody,starting,m,positive,positive,ES_green,1,m,458,2329880,2330384,2330588
116,forth,27,heiter,IAT_yellow2.bmp,yellow,starting_melody,melody,starting,m,positive,positive,ES_green,1,m,510,2332120,2332625,2332829
116,forth,28,feige,IAT_green1.bmp,green,ending_scream,scream,ending,c,negative,positive,ES_green,1,c,513,2334413,2334917,2335121
116,forth,29,krank,IAT_purple3.bmp,purple,starting_scream,scream,starting,c,negative,negative,ES_green,1,c,534,2336708,2337213,2337417
116,forth,30,feige,IAT_green4.bmp,green,ending_scream,scream,ending,c,negative,positive,ES_green,0,m,400,2339027,2339531,2339735
116,forth,31,streng,IAT_yellow3.bmp,yellow,starting_melody,melody,starting,c,negative,positive,ES_green,1,c,573,2341711,2342215,2342419
116,forth,32,lustig,IAT_purple3.bmp,purple,starting_scream,scream,starting,m,positive,negative,ES_green,0,c,491,2344067,2344571,2344775
116,forth,33,schön,IAT_green2.bmp,green,ending_scream,scream,ending,m,positive,positive,ES_green,1,m,735,2346839,2347344,2347548
116,forth,34,human,IAT_yellow3.bmp,yellow,starting_melody,melody,starting,m,positive,positive,ES_green,1,m,629,2349359,2349863,2350067
116,forth,35,kaputt,IAT_green4.bmp,green,ending_scream,scream,ending,c,negative,positive,ES_green,1,c,468,2351772,2352276,2352480
116,forth,36,munter,IAT_green4.bmp,green,ending_scream,scream,ending,m,positive,positive,ES_green,1,m,484,2354023,2354527,2354731
116,forth,37,gierig,IAT_purple2.bmp,purple,starting_scream,scream,starting,c,negative,negative,ES_green,1,c,670,2356290,2356794,2356998
116,forth,38,ehrlich,IAT_green1.bmp,green,ending_scream,scream,ending,m,positive,positive,ES_green,1,m,456,2358741,2359245,2359449
116,forth,39,witzig,IAT_purple2.bmp,purple,starting_scream,scream,starting,m,positive,negative,ES_green,1,m,545,2360982,2361486,2361690
116,forth,40,munter,IAT_red1.bmp,red,ending_melody,melody,ending,m,positive,negative,ES_green,0,c,790,2363310,2363814,2364018
116,forth,41,einsam,IAT_purple4.bmp,purple,starting_scream,scream,starting,c,negative,negative,ES_green,1,c,606,2366383,2366887,2367091
116,forth,42,sozial,IAT_purple3.bmp,purple,starting_scream,scream,starting,m,positive,negative,ES_green,1,m,477,2368772,2369276,2369480
116,forth,43,schön,IAT_green3.bmp,green,ending_scream,scream,ending,m,positive,positive,ES_green,1,m,487,2371032,2371536,2371740
116,forth,44,teuer,IAT_purple2.bmp,purple,starting_scream,scream,starting,c,negative,negative,ES_green,0,m,544,2373302,2373806,2374010
116,forth,45,morsch,IAT_green4.bmp,green,ending_scream,scream,ending,c,negative,positive,ES_green,1,c,582,2376129,2376633,2376837
116,forth,46,streng,IAT_red4.bmp,red,ending_melody,melody,ending,c,negative,negative,ES_green,1,c,578,2378494,2378999,2379203
116,forth,47,teuer,IAT_green2.bmp,green,ending_scream,scream,ending,c,negative,positive,ES_green,1,c,616,2380855,2381360,2381564
116,forth,48,lästig,IAT_yellow1.bmp,yellow,starting_melody,melody,starting,c,negative,positive,ES_green,1,c,633,2383255,2383759,2383963
116,forth,49,heiter,IAT_green2.bmp,green,ending_scream,scream,ending,m,positive,positive,ES_green,1,m,438,2385670,2386174,2386378
116,forth,50,gesund,IAT_yellow4.bmp,yellow,starting_melody,melody,starting,m,positive,positive,ES_green,1,m,622,2387891,2388395,2388599
116,forth,51,munter,IAT_red3.bmp,red,ending_melody,melody,ending,m,positive,negative,ES_green,1,m,655,2390297,2390801,2391005
116,forth,52,geizig,IAT_red1.bmp,red,ending_melody,melody,ending,c,negative,negative,ES_green,1,c,762,2392734,2393239,2393443
116,forth,53,falsch,IAT_green2.bmp,green,ending_scream,scream,ending,c,negative,positive,ES_green,0,m,930,2395279,2395784,2395988
116,forth,54,sonnig,IAT_green1.bmp,green,ending_scream,scream,ending,m,positive,positive,ES_green,1,m,528,2398493,2398997,2399201
116,forth,55,ehrlich,IAT_yellow2.bmp,yellow,starting_melody,melody,starting,m,positive,positive,ES_green,1,m,621,2400805,2401309,2401513
116,forth,56,gerecht,IAT_red1.bmp,red,ending_melody,melody,ending,m,positive,negative,ES_green,0,c,459,2403209,2403714,2403918
116,forth,57,sanft,IAT_green1.bmp,green,ending_scream,scream,ending,m,positive,positive,ES_green,1,m,509,2405952,2406456,2406660
116,forth,58,schön,IAT_red1.bmp,red,ending_melody,melody,ending,m,positive,negative,ES_green,1,m,619,2408243,2408748,2408952
116,forth,59,human,IAT_green3.bmp,green,ending_scream,scream,ending,m,positive,positive,ES_green,1,m,464,2410648,2411152,2411356
116,forth,60,geizig,IAT_yellow3.bmp,yellow,starting_melody,melody,starting,c,negative,positive,ES_green,1,c,853,2412896,2413400,2413604
116,forth,61,streng,IAT_red4.bmp,red,ending_melody,melody,ending,c,negative,negative,ES_green,1,c,637,2415532,2416036,2416240
116,forth,62,teuer,IAT_yellow4.bmp,yellow,starting_melody,melody,starting,c,negative,positive,ES_green,1,c,981,2417953,2418457,2418661
116,forth,63,witzig,IAT_yellow4.bmp,yellow,starting_melody,melody,starting,m,positive,positive,ES_green,1,m,513,2420717,2421222,2421426
116,forth,64,heiter,IAT_red3.bmp,red,ending_melody,melody,ending,m,positive,negative,ES_green,1,m,518,2423014,2423518,2423722
116,forth,65,gerecht,IAT_green4.bmp,green,ending_scream,scream,ending,m,positive,positive,ES_green,1,m,500,2425315,2425820,2426024
116,forth,66,lästig,IAT_green3.bmp,green,ending_scream,scream,ending,c,negative,positive,ES_green,1,c,639,2427599,2428103,2428307
116,forth,67,gesund,IAT_yellow3.bmp,yellow,starting_melody,melody,starting,m,positive,positive,ES_green,1,m,543,2430021,2430525,2430729
116,forth,68,sonnig,IAT_red3.bmp,red,ending_melody,melody,ending,m,positive,negative,ES_green,1,m,505,2432348,2432852,2433057
116,forth,69,human,IAT_purple1.bmp,purple,starting_scream,scream,starting,m,positive,negative,ES_green,1,m,524,2434638,2435142,2435346
116,forth,70,ehrlich,IAT_yellow1.bmp,yellow,starting_melody,melody,starting,m,positive,positive,ES_green,1,m,713,2436946,2437450,2437654
116,forth,71,sanft,IAT_red1.bmp,red,ending_melody,melody,ending,m,positive,negative,ES_green,1,m,486,2439443,2439947,2440151
116,forth,72,lustig,IAT_yellow3.bmp,yellow,starting_melody,melody,starting,m,positive,positive,ES_green,1,m,423,2441712,2442216,2442420
116,forth,73,einsam,IAT_green2.bmp,green,ending_scream,scream,ending,c,negative,positive,ES_green,0,m,469,2443919,2444423,2444628
116,forth,74,sonnig,IAT_green3.bmp,green,ending_scream,scream,ending,m,positive,positive,ES_green,1,m,470,2446671,2447176,2447380
116,forth,75,lästig,IAT_red3.bmp,red,ending_melody,melody,ending,c,negative,negative,ES_green,1,c,538,2448926,2449430,2449634
116,forth,76,heiter,IAT_green3.bmp,green,ending_scream,scream,ending,m,positive,positive,ES_green,1,m,442,2451248,2451752,2451956
116,forth,77,krank,IAT_yellow2.bmp,yellow,starting_melody,melody,starting,c,negative,positive,ES_green,1,c,446,2453473,2453977,2454181
116,forth,78,schön,IAT_red4.bmp,red,ending_melody,melody,ending,m,positive,negative,ES_green,1,m,468,2455703,2456207,2456411
116,forth,79,human,IAT_purple2.bmp,purple,starting_scream,scream,starting,m,positive,negative,ES_green,1,m,420,2457955,2458459,2458663
116,forth,80,sozial,IAT_purple1.bmp,purple,starting_scream,scream,starting,m,positive,negative,ES_green,1,m,436,2460159,2460663,2460867
116,forth,81,brutal,IAT_green2.bmp,green,ending_scream,scream,ending,c,negative,positive,ES_green,1,c,508,2462378,2462882,2463086
116,forth,82,streng,IAT_purple1.bmp,purple,starting_scream,scream,starting,c,negative,negative,ES_green,1,c,461,2464670,2465175,2465379
116,forth,83,witzig,IAT_purple4.bmp,purple,starting_scream,scream,starting,m,positive,negative,ES_green,1,m,392,2466914,2467418,2467622
116,forth,84,falsch,IAT_red2.bmp,red,ending_melody,melody,ending,c,negative,negative,ES_green,1,c,464,2469090,2469594,2469798
116,forth,85,sozial,IAT_yellow1.bmp,yellow,starting_melody,melody,starting,m,positive,positive,ES_green,1,m,805,2471339,2471843,2472047
116,forth,86,morsch,IAT_yellow4.bmp,yellow,starting_melody,melody,starting,c,negative,positive,ES_green,1,c,503,2473928,2474432,2474636
116,forth,87,kaputt,IAT_yellow2.bmp,yellow,starting_melody,melody,starting,c,negative,positive,ES_green,1,c,648,2476215,2476719,2476923
116,forth,88,gesund,IAT_red3.bmp,red,ending_melody,melody,ending,m,positive,negative,ES_green,1,m,582,2478647,2479152,2479356
116,forth,89,falsch,IAT_purple2.bmp,purple,starting_scream,scream,starting,c,negative,negative,ES_green,1,c,475,2481013,2481517,2481721
116,forth,90,sonnig,IAT_red4.bmp,red,ending_melody,melody,ending,m,positive,negative,ES_green,1,m,415,2483274,2483778,2483982
116,forth,91,morsch,IAT_purple4.bmp,purple,starting_scream,scream,starting,c,negative,negative,ES_green,1,c,446,2485473,2485977,2486181
116,forth,92,falsch,IAT_red1.bmp,red,ending_melody,melody,ending,c,negative,negative,ES_green,1,c,550,2487702,2488206,2488410
116,forth,93,gierig,IAT_purple1.bmp,purple,starting_scream,scream,starting,c,negative,negative,ES_green,1,c,458,2490036,2490540,2490744
116,forth,94,teuer,IAT_green4.bmp,green,ending_scream,scream,ending,c,negative,positive,ES_green,0,m,362,2492278,2492782,2492986
116,forth,95,kaputt,IAT_yellow2.bmp,yellow,starting_melody,melody,starting,c,negative,positive,ES_green,1,c,590,2494923,2495428,2495632
