subject_nr,block,trialnr,trial_target,trial_prime,prime_color,prime_role,prime_us,prime_relation,correct_response,target_valence,prime_valence,color_counter,correct_first_response,response_first_response,response_time_first_response,fixation_show,prime_show,target_show
14,first,0,gierig,IAT_green4.bmp,green,ending_scream,scream,ending,c,negative,positive,ES_green,0,m,464,1381895,1382399,1382604
14,first,1,lästig,IAT_green3.bmp,green,ending_scream,scream,ending,c,negative,positive,ES_green,0,m,320,1384647,1385151,1385355
14,first,2,kaputt,IAT_yellow4.bmp,yellow,starting_melody,melody,starting,c,negative,positive,ES_green,1,c,543,1387252,1387756,1387960
14,first,3,schön,IAT_purple3.bmp,purple,starting_scream,scream,starting,m,positive,negative,ES_green,1,m,475,1389580,1390084,1390288
14,first,4,witzig,IAT_yellow1.bmp,yellow,starting_melody,melody,starting,m,positive,positive,ES_green,1,m,554,1391839,1392343,1392547
14,first,5,sanft,IAT_green1.bmp,green,ending_scream,scream,ending,m,positive,positive,ES_green,1,m,413,1394175,1394679,1394883
14,first,6,gerecht,IAT_yellow2.bmp,yellow,starting_melody,melody,starting,m,positive,positive,ES_green,1,m,497,1396373,1396877,1397081
14,first,7,einsam,IAT_yellow1.bmp,yellow,starting_melody,melody,starting,c,negative,positive,ES_green,1,c,563,1398653,1399157,1399361
14,first,8,heiter,IAT_yellow1.bmp,yellow,starting_melody,melody,starting,m,positive,positive,ES_green,1,m,460,1401000,1401504,1401708
14,first,9,sozial,IAT_red4.bmp,red,ending_melody,melody,ending,m,positive,negative,ES_green,1,m,416,1403243,1403747,1403951
14,first,10,kaputt,IAT_green2.bmp,green,ending_scream,scream,ending,c,negative,positive,ES_green,1,c,481,1405442,1405946,1406150
14,first,11,teuer,IAT_green4.bmp,green,ending_scream,scream,ending,c,negative,positive,ES_green,0,m,411,1407706,1408210,1408414
14,first,12,schön,IAT_red3.bmp,red,ending_melody,melody,ending,m,positive,negative,ES_green,1,m,488,1410400,1410904,1411108
14,first,13,feige,IAT_red3.bmp,red,ending_melody,melody,ending,c,negative,negative,ES_green,1,c,566,1412672,1413177,1413381
14,first,14,munter,IAT_yellow2.bmp,yellow,starting_melody,melody,starting,m,positive,positive,ES_green,1,m,497,1415022,1415526,1415730
14,first,15,human,IAT_yellow3.bmp,yellow,starting_melody,melody,starting,m,positive,positive,ES_green,1,m,375,1417303,1417807,1418011
14,first,16,geizig,IAT_red1.bmp,red,ending_melody,melody,ending,c,negative,negative,ES_green,1,c,581,1419461,1419965,1420169
14,first,17,streng,IAT_yellow2.bmp,yellow,starting_melody,melody,starting,c,negative,positive,ES_green,1,c,711,1421826,1422330,1422534
14,first,18,lustig,IAT_red1.bmp,red,ending_melody,melody,ending,m,positive,negative,ES_green,1,m,548,1424320,1424825,1425029
14,first,19,teuer,IAT_yellow4.bmp,yellow,starting_melody,melody,starting,c,negative,positive,ES_green,1,c,736,1426655,1427160,1427364
14,first,20,morsch,IAT_purple1.bmp,purple,starting_scream,scream,starting,c,negative,negative,ES_green,1,c,542,1429176,1429680,1429884
14,first,21,schön,IAT_red1.bmp,red,ending_melody,melody,ending,m,positive,negative,ES_green,1,m,419,1431501,1432006,1432210
14,first,22,lustig,IAT_yellow3.bmp,yellow,starting_melody,melody,starting,m,positive,positive,ES_green,1,m,446,1433703,1434208,1434412
14,first,23,streng,IAT_red2.bmp,red,ending_melody,melody,ending,c,negative,negative,ES_green,1,c,407,1435933,1436437,1436641
14,first,24,feige,IAT_green2.bmp,green,ending_scream,scream,ending,c,negative,positive,ES_green,1,c,720,1438123,1438627,1438831
14,first,25,krank,IAT_purple4.bmp,purple,starting_scream,scream,starting,c,negative,negative,ES_green,1,c,699,1440625,1441129,1441333
14,first,26,gierig,IAT_red4.bmp,red,ending_melody,melody,ending,c,negative,negative,ES_green,1,c,661,1443109,1443613,1443817
14,first,27,feige,IAT_red3.bmp,red,ending_melody,melody,ending,c,negative,negative,ES_green,1,c,628,1445554,1446058,1446262
14,first,28,morsch,IAT_green4.bmp,green,ending_scream,scream,ending,c,negative,positive,ES_green,1,c,645,1447965,1448469,1448673
14,first,29,gierig,IAT_purple2.bmp,purple,starting_scream,scream,starting,c,negative,negative,ES_green,1,c,601,1450394,1450898,1451102
14,first,30,falsch,IAT_green2.bmp,green,ending_scream,scream,ending,c,negative,positive,ES_green,1,c,526,1452778,1453283,1453487
14,first,31,ehrlich,IAT_green4.bmp,green,ending_scream,scream,ending,m,positive,positive,ES_green,1,m,442,1455088,1455592,1455796
14,first,32,streng,IAT_yellow3.bmp,yellow,starting_melody,melody,starting,c,negative,positive,ES_green,1,c,541,1457313,1457817,1458021
14,first,33,falsch,IAT_purple2.bmp,purple,starting_scream,scream,starting,c,negative,negative,ES_green,1,c,424,1459637,1460141,1460345
14,first,34,krank,IAT_yellow4.bmp,yellow,starting_melody,melody,starting,c,negative,positive,ES_green,1,c,703,1461844,1462348,1462552
14,first,35,teuer,IAT_purple3.bmp,purple,starting_scream,scream,starting,c,negative,negative,ES_green,1,c,433,1464331,1464836,1465040
14,first,36,sonnig,IAT_green1.bmp,green,ending_scream,scream,ending,m,positive,positive,ES_green,1,m,360,1466550,1467054,1467258
14,first,37,lustig,IAT_green2.bmp,green,ending_scream,scream,ending,m,positive,positive,ES_green,1,m,345,1468694,1469198,1469402
14,first,38,human,IAT_yellow1.bmp,yellow,starting_melody,melody,starting,m,positive,positive,ES_green,0,c,437,1470822,1471327,1471531
14,first,39,krank,IAT_green1.bmp,green,ending_scream,scream,ending,c,negative,positive,ES_green,1,c,441,1473543,1474047,1474251
14,first,40,gerecht,IAT_purple4.bmp,purple,starting_scream,scream,starting,m,positive,negative,ES_green,1,m,500,1475768,1476273,1476477
14,first,41,ehrlich,IAT_purple3.bmp,purple,starting_scream,scream,starting,m,positive,negative,ES_green,1,m,519,1478052,1478556,1478760
14,first,42,gerecht,IAT_green1.bmp,green,ending_scream,scream,ending,m,positive,positive,ES_green,1,m,522,1480354,1480858,1481062
14,first,43,morsch,IAT_green1.bmp,green,ending_scream,scream,ending,c,negative,positive,ES_green,1,c,623,1482660,1483164,1483368
14,first,44,gesund,IAT_red3.bmp,red,ending_melody,melody,ending,m,positive,negative,ES_green,1,m,533,1485067,1485571,1485775
14,first,45,schön,IAT_yellow3.bmp,yellow,starting_melody,melody,starting,m,positive,positive,ES_green,1,m,407,1487383,1487887,1488091
14,first,46,geizig,IAT_red4.bmp,red,ending_melody,melody,ending,c,negative,negative,ES_green,1,c,592,1489573,1490077,1490281
14,first,47,einsam,IAT_yellow2.bmp,yellow,starting_melody,melody,starting,c,negative,positive,ES_green,0,m,373,1491949,1492453,1492657
14,first,48,brutal,IAT_green2.bmp,green,ending_scream,scream,ending,c,negative,positive,ES_green,1,c,664,1494605,1495109,1495313
14,first,49,gesund,IAT_yellow1.bmp,yellow,starting_melody,melody,starting,m,positive,positive,ES_green,1,m,487,1497053,1497557,1497761
14,first,50,ehrlich,IAT_purple2.bmp,purple,starting_scream,scream,starting,m,positive,negative,ES_green,1,m,751,1499324,1499828,1500032
14,first,51,sozial,IAT_yellow4.bmp,yellow,starting_melody,melody,starting,m,positive,positive,ES_green,1,m,494,1501860,1502364,1502568
14,first,52,morsch,IAT_yellow2.bmp,yellow,starting_melody,melody,starting,c,negative,positive,ES_green,1,c,556,1504138,1504642,1504846
14,first,53,falsch,IAT_purple4.bmp,purple,starting_scream,scream,starting,c,negative,negative,ES_green,1,c,706,1506478,1506982,1507186
14,first,54,lästig,IAT_purple4.bmp,purple,starting_scream,scream,starting,c,negative,negative,ES_green,1,c,567,1508967,1509472,1509676
14,first,55,gesund,IAT_green3.bmp,green,ending_scream,scream,ending,m,positive,positive,ES_green,1,m,369,1511319,1511824,1512028
14,first,56,witzig,IAT_green1.bmp,green,ending_scream,scream,ending,m,positive,positive,ES_green,1,m,597,1513472,1513977,1514181
14,first,57,sanft,IAT_green4.bmp,green,ending_scream,scream,ending,m,positive,positive,ES_green,1,m,459,1515854,1516358,1516562
14,first,58,brutal,IAT_yellow1.bmp,yellow,starting_melody,melody,starting,c,negative,positive,ES_green,1,c,463,1518096,1518600,1518804
14,first,59,kaputt,IAT_purple4.bmp,purple,starting_scream,scream,starting,c,negative,negative,ES_green,1,c,468,1520342,1520847,1521051
14,first,60,teuer,IAT_yellow4.bmp,yellow,starting_melody,melody,starting,c,negative,positive,ES_green,1,c,441,1522595,1523099,1523304
14,first,61,sonnig,IAT_red4.bmp,red,ending_melody,melody,ending,m,positive,negative,ES_green,1,m,430,1524821,1525325,1525529
14,first,62,gierig,IAT_red2.bmp,red,ending_melody,melody,ending,c,negative,negative,ES_green,0,m,333,1527036,1527540,1527744
14,first,63,geizig,IAT_yellow3.bmp,yellow,starting_melody,melody,starting,c,negative,positive,ES_green,1,c,890,1529652,1530157,1530361
14,first,64,witzig,IAT_purple1.bmp,purple,starting_scream,scream,starting,m,positive,negative,ES_green,0,c,476,1532327,1532831,1533035
14,first,65,heiter,IAT_purple1.bmp,purple,starting_scream,scream,starting,m,positive,negative,ES_green,1,m,524,1535087,1535591,1535795
14,first,66,sozial,IAT_purple1.bmp,purple,starting_scream,scream,starting,m,positive,negative,ES_green,1,m,526,1537395,1537899,1538103
14,first,67,lustig,IAT_red1.bmp,red,ending_melody,melody,ending,m,positive,negative,ES_green,1,m,460,1539704,1540208,1540412
14,first,68,gerecht,IAT_green3.bmp,green,ending_scream,scream,ending,m,positive,positive,ES_green,1,m,369,1541948,1542452,1542656
14,first,69,sanft,IAT_purple1.bmp,purple,starting_scream,scream,starting,m,positive,negative,ES_green,1,m,473,1544101,1544606,1544810
14,first,70,lästig,IAT_green4.bmp,green,ending_scream,scream,ending,c,negative,positive,ES_green,1,c,762,1546359,1546863,1547067
14,first,71,brutal,IAT_green3.bmp,green,ending_scream,scream,ending,c,negative,positive,ES_green,1,c,597,1548904,1549409,1549613
14,first,72,einsam,IAT_red2.bmp,red,ending_melody,melody,ending,c,negative,negative,ES_green,1,c,595,1551285,1551789,1551993
14,first,73,human,IAT_yellow4.bmp,yellow,starting_melody,melody,starting,m,positive,positive,ES_green,1,m,436,1553663,1554168,1554372
14,first,74,streng,IAT_red4.bmp,red,ending_melody,melody,ending,c,negative,negative,ES_green,1,c,465,1555883,1556388,1556592
14,first,75,feige,IAT_red1.bmp,red,ending_melody,melody,ending,c,negative,negative,ES_green,1,c,417,1558133,1558637,1558841
14,first,76,sonnig,IAT_purple4.bmp,purple,starting_scream,scream,starting,m,positive,negative,ES_green,1,m,593,1560333,1560837,1561041
14,first,77,geizig,IAT_red4.bmp,red,ending_melody,melody,ending,c,negative,negative,ES_green,1,c,561,1562710,1563215,1563419
14,first,78,munter,IAT_purple3.bmp,purple,starting_scream,scream,starting,m,positive,negative,ES_green,1,m,494,1565054,1565558,1565762
14,first,79,sanft,IAT_yellow3.bmp,yellow,starting_melody,melody,starting,m,positive,positive,ES_green,1,m,604,1567332,1567836,1568040
14,first,80,witzig,IAT_red3.bmp,red,ending_melody,melody,ending,m,positive,negative,ES_green,1,m,511,1569720,1570225,1570429
14,first,81,heiter,IAT_red2.bmp,red,ending_melody,melody,ending,m,positive,negative,ES_green,1,m,611,1572015,1572520,1572724
14,first,82,human,IAT_green2.bmp,green,ending_scream,scream,ending,m,positive,positive,ES_green,1,m,387,1574411,1574916,1575120
14,first,83,falsch,IAT_purple3.bmp,purple,starting_scream,scream,starting,c,negative,negative,ES_green,1,c,571,1576582,1577086,1577290
14,first,84,brutal,IAT_yellow2.bmp,yellow,starting_melody,melody,starting,c,negative,positive,ES_green,0,m,386,1578937,1579441,1579645
14,first,85,heiter,IAT_red2.bmp,red,ending_melody,melody,ending,m,positive,negative,ES_green,1,m,448,1581607,1582111,1582315
14,first,86,lästig,IAT_red2.bmp,red,ending_melody,melody,ending,c,negative,negative,ES_green,1,c,514,1583839,1584344,1584548
14,first,87,munter,IAT_purple3.bmp,purple,starting_scream,scream,starting,m,positive,negative,ES_green,1,m,666,1586137,1586642,1586846
14,first,88,gesund,IAT_red1.bmp,red,ending_melody,melody,ending,m,positive,negative,ES_green,1,m,525,1588589,1589093,1589297
14,first,89,ehrlich,IAT_red3.bmp,red,ending_melody,melody,ending,m,positive,negative,ES_green,1,m,507,1590898,1591402,1591606
14,first,90,einsam,IAT_purple2.bmp,purple,starting_scream,scream,starting,c,negative,negative,ES_green,1,c,446,1593189,1593693,1593897
14,first,91,sozial,IAT_green3.bmp,green,ending_scream,scream,ending,m,positive,positive,ES_green,1,m,334,1595419,1595924,1596128
14,first,92,munter,IAT_green3.bmp,green,ending_scream,scream,ending,m,positive,positive,ES_green,1,m,321,1597538,1598042,1598246
14,first,93,sonnig,IAT_purple2.bmp,purple,starting_scream,scream,starting,m,positive,negative,ES_green,1,m,485,1599642,1600147,1600351
14,first,94,kaputt,IAT_purple2.bmp,purple,starting_scream,scream,starting,c,negative,negative,ES_green,1,c,459,1601912,1602416,1602620
14,first,95,krank,IAT_purple1.bmp,purple,starting_scream,scream,starting,c,negative,negative,ES_green,1,c,623,1604155,1604659,1604863
14,second,0,gierig,IAT_green2.bmp,green,ending_scream,scream,ending,c,negative,positive,ES_green,0,m,369,1618423,1618928,1619132
14,second,1,lustig,IAT_green1.bmp,green,ending_scream,scream,ending,m,positive,positive,ES_green,1,m,332,1621080,1621584,1621788
14,second,2,munter,IAT_yellow3.bmp,yellow,starting_melody,melody,starting,m,positive,positive,ES_green,1,m,345,1623195,1623700,1623904
14,second,3,feige,IAT_red4.bmp,red,ending_melody,melody,ending,c,negative,negative,ES_green,1,c,416,1625324,1625828,1626032
14,second,4,brutal,IAT_yellow2.bmp,yellow,starting_melody,melody,starting,c,negative,positive,ES_green,0,m,319,1627524,1628028,1628232
14,second,5,gesund,IAT_purple4.bmp,purple,starting_scream,scream,starting,m,positive,negative,ES_green,1,m,381,1630126,1630630,1630834
14,second,6,sozial,IAT_purple3.bmp,purple,starting_scream,scream,starting,m,positive,negative,ES_green,1,m,484,1632291,1632795,1632999
14,second,7,gerecht,IAT_red3.bmp,red,ending_melody,melody,ending,m,positive,negative,ES_green,1,m,644,1634559,1635063,1635267
14,second,8,munter,IAT_yellow4.bmp,yellow,starting_melody,melody,starting,m,positive,positive,ES_green,1,m,329,1636987,1637491,1637695
14,second,9,krank,IAT_red2.bmp,red,ending_melody,melody,ending,c,negative,negative,ES_green,1,c,459,1639100,1639604,1639808
14,second,10,brutal,IAT_green2.bmp,green,ending_scream,scream,ending,c,negative,positive,ES_green,0,m,280,1641343,1641847,1642051
14,second,11,lustig,IAT_purple3.bmp,purple,starting_scream,scream,starting,m,positive,negative,ES_green,1,m,477,1643906,1644410,1644614
14,second,12,kaputt,IAT_purple1.bmp,purple,starting_scream,scream,starting,c,negative,negative,ES_green,1,c,726,1646167,1646671,1646875
14,second,13,sozial,IAT_purple1.bmp,purple,starting_scream,scream,starting,m,positive,negative,ES_green,1,m,500,1648676,1649180,1649384
14,second,14,schön,IAT_purple3.bmp,purple,starting_scream,scream,starting,m,positive,negative,ES_green,1,m,406,1650960,1651464,1651668
14,second,15,lästig,IAT_purple3.bmp,purple,starting_scream,scream,starting,c,negative,negative,ES_green,1,c,576,1653150,1653654,1653858
14,second,16,gierig,IAT_purple2.bmp,purple,starting_scream,scream,starting,c,negative,negative,ES_green,1,c,421,1655510,1656014,1656218
14,second,17,gesund,IAT_green1.bmp,green,ending_scream,scream,ending,m,positive,positive,ES_green,1,m,289,1657714,1658219,1658423
14,second,18,sanft,IAT_red1.bmp,red,ending_melody,melody,ending,m,positive,negative,ES_green,0,c,436,1659787,1660291,1660495
14,second,19,witzig,IAT_yellow1.bmp,yellow,starting_melody,melody,starting,m,positive,positive,ES_green,1,m,464,1662507,1663012,1663216
14,second,20,kaputt,IAT_yellow3.bmp,yellow,starting_melody,melody,starting,c,negative,positive,ES_green,0,m,339,1664757,1665261,1665465
14,second,21,schön,IAT_purple2.bmp,purple,starting_scream,scream,starting,m,positive,negative,ES_green,1,m,406,1667380,1667885,1668089
14,second,22,heiter,IAT_green3.bmp,green,ending_scream,scream,ending,m,positive,positive,ES_green,1,m,357,1669571,1670075,1670279
14,second,23,munter,IAT_green3.bmp,green,ending_scream,scream,ending,m,positive,positive,ES_green,1,m,425,1671713,1672217,1672421
14,second,24,streng,IAT_green3.bmp,green,ending_scream,scream,ending,c,negative,positive,ES_green,1,c,491,1673922,1674427,1674631
14,second,25,einsam,IAT_yellow3.bmp,yellow,starting_melody,melody,starting,c,negative,positive,ES_green,1,c,572,1676198,1676703,1676907
14,second,26,falsch,IAT_green4.bmp,green,ending_scream,scream,ending,c,negative,positive,ES_green,1,c,637,1678554,1679059,1679263
14,second,27,gerecht,IAT_green2.bmp,green,ending_scream,scream,ending,m,positive,positive,ES_green,1,m,430,1680975,1681479,1681683
14,second,28,morsch,IAT_green4.bmp,green,ending_scream,scream,ending,c,negative,positive,ES_green,1,c,574,1683189,1683693,1683897
14,second,29,feige,IAT_yellow4.bmp,yellow,starting_melody,melody,starting,c,negative,positive,ES_green,1,c,613,1685546,1686051,1686255
14,second,30,krank,IAT_green4.bmp,green,ending_scream,scream,ending,c,negative,positive,ES_green,1,c,562,1687944,1688448,1688652
14,second,31,ehrlich,IAT_green3.bmp,green,ending_scream,scream,ending,m,positive,positive,ES_green,1,m,683,1690290,1690795,1690999
14,second,32,teuer,IAT_green1.bmp,green,ending_scream,scream,ending,c,negative,positive,ES_green,0,m,424,1692757,1693261,1693465
14,second,33,falsch,IAT_red4.bmp,red,ending_melody,melody,ending,c,negative,negative,ES_green,1,c,483,1695465,1695969,1696173
14,second,34,lästig,IAT_purple2.bmp,purple,starting_scream,scream,starting,c,negative,negative,ES_green,1,c,523,1697732,1698237,1698441
14,second,35,gerecht,IAT_yellow2.bmp,yellow,starting_melody,melody,starting,m,positive,positive,ES_green,1,m,534,1700041,1700545,1700749
14,second,36,streng,IAT_yellow4.bmp,yellow,starting_melody,melody,starting,c,negative,positive,ES_green,1,c,481,1702360,1702864,1703068
14,second,37,geizig,IAT_yellow2.bmp,yellow,starting_melody,melody,starting,c,negative,positive,ES_green,1,c,775,1704626,1705130,1705334
14,second,38,brutal,IAT_yellow1.bmp,yellow,starting_melody,melody,starting,c,negative,positive,ES_green,1,c,573,1707184,1707689,1707893
14,second,39,lästig,IAT_purple4.bmp,purple,starting_scream,scream,starting,c,negative,negative,ES_green,1,c,534,1709542,1710046,1710250
14,second,40,geizig,IAT_red3.bmp,red,ending_melody,melody,ending,c,negative,negative,ES_green,1,c,618,1711861,1712365,1712569
14,second,41,heiter,IAT_red4.bmp,red,ending_melody,melody,ending,m,positive,negative,ES_green,1,m,647,1714264,1714768,1714972
14,second,42,human,IAT_red3.bmp,red,ending_melody,melody,ending,m,positive,negative,ES_green,1,m,502,1716694,1717199,1717404
14,second,43,sanft,IAT_yellow1.bmp,yellow,starting_melody,melody,starting,m,positive,positive,ES_green,1,m,523,1718982,1719487,1719691
14,second,44,heiter,IAT_yellow4.bmp,yellow,starting_melody,melody,starting,m,positive,positive,ES_green,1,m,568,1721291,1721795,1721999
14,second,45,morsch,IAT_green4.bmp,green,ending_scream,scream,ending,c,negative,positive,ES_green,1,c,650,1723643,1724147,1724351
14,second,46,sozial,IAT_green4.bmp,green,ending_scream,scream,ending,m,positive,positive,ES_green,1,m,407,1726077,1726581,1726785
14,second,47,sonnig,IAT_red4.bmp,red,ending_melody,melody,ending,m,positive,negative,ES_green,1,m,478,1728269,1728774,1728978
14,second,48,heiter,IAT_purple1.bmp,purple,starting_scream,scream,starting,m,positive,negative,ES_green,1,m,473,1730532,1731036,1731240
14,second,49,kaputt,IAT_purple2.bmp,purple,starting_scream,scream,starting,c,negative,negative,ES_green,1,c,427,1732791,1733295,1733499
14,second,50,gesund,IAT_red1.bmp,red,ending_melody,melody,ending,m,positive,negative,ES_green,1,m,537,1735003,1735507,1735711
14,second,51,teuer,IAT_green3.bmp,green,ending_scream,scream,ending,c,negative,positive,ES_green,1,c,605,1737325,1737829,1738033
14,second,52,morsch,IAT_purple2.bmp,purple,starting_scream,scream,starting,c,negative,negative,ES_green,1,c,513,1739714,1740219,1740423
14,second,53,witzig,IAT_green1.bmp,green,ending_scream,scream,ending,m,positive,positive,ES_green,1,m,350,1742013,1742517,1742721
14,second,54,gierig,IAT_red1.bmp,red,ending_melody,melody,ending,c,negative,negative,ES_green,0,m,330,1744147,1744651,1744855
14,second,55,ehrlich,IAT_green1.bmp,green,ending_scream,scream,ending,m,positive,positive,ES_green,1,m,350,1746762,1747267,1747471
14,second,56,streng,IAT_red2.bmp,red,ending_melody,melody,ending,c,negative,negative,ES_green,1,c,428,1748896,1749401,1749605
14,second,57,krank,IAT_purple4.bmp,purple,starting_scream,scream,starting,c,negative,negative,ES_green,0,m,340,1751110,1751614,1751818
14,second,58,witzig,IAT_purple1.bmp,purple,starting_scream,scream,starting,m,positive,negative,ES_green,1,m,480,1753734,1754238,1754442
14,second,59,einsam,IAT_purple1.bmp,purple,starting_scream,scream,starting,c,negative,negative,ES_green,1,c,582,1755998,1756502,1756706
14,second,60,sonnig,IAT_red3.bmp,red,ending_melody,melody,ending,m,positive,negative,ES_green,0,c,429,1758364,1758869,1759073
14,second,61,lustig,IAT_purple4.bmp,purple,starting_scream,scream,starting,m,positive,negative,ES_green,1,m,506,1761078,1761582,1761786
14,second,62,feige,IAT_red2.bmp,red,ending_melody,melody,ending,c,negative,negative,ES_green,1,c,480,1763368,1763873,1764077
14,second,63,sanft,IAT_red2.bmp,red,ending_melody,melody,ending,m,positive,negative,ES_green,1,m,405,1765633,1766137,1766341
14,second,64,schön,IAT_yellow2.bmp,yellow,starting_melody,melody,starting,m,positive,positive,ES_green,1,m,369,1767822,1768327,1768531
14,second,65,einsam,IAT_red2.bmp,red,ending_melody,melody,ending,c,negative,negative,ES_green,1,c,498,1769976,1770480,1770684
14,second,66,brutal,IAT_red4.bmp,red,ending_melody,melody,ending,c,negative,negative,ES_green,1,c,576,1772258,1772762,1772966
14,second,67,human,IAT_yellow1.bmp,yellow,starting_melody,melody,starting,m,positive,positive,ES_green,1,m,529,1774619,1775123,1775327
14,second,68,ehrlich,IAT_yellow3.bmp,yellow,starting_melody,melody,starting,m,positive,positive,ES_green,1,m,435,1776932,1777436,1777640
14,second,69,feige,IAT_yellow4.bmp,yellow,starting_melody,melody,starting,c,negative,positive,ES_green,0,m,326,1779152,1779656,1779860
14,second,70,geizig,IAT_yellow2.bmp,yellow,starting_melody,melody,starting,c,negative,positive,ES_green,1,c,690,1781762,1782267,1782471
14,second,71,teuer,IAT_green1.bmp,green,ending_scream,scream,ending,c,negative,positive,ES_green,0,m,351,1784237,1784741,1784946
14,second,72,schön,IAT_yellow3.bmp,yellow,starting_melody,melody,starting,m,positive,positive,ES_green,1,m,440,1786874,1787378,1787582
14,second,73,streng,IAT_green2.bmp,green,ending_scream,scream,ending,c,negative,positive,ES_green,0,m,403,1789098,1789602,1789806
14,second,74,falsch,IAT_purple4.bmp,purple,starting_scream,scream,starting,c,negative,negative,ES_green,1,c,495,1791785,1792290,1792494
14,second,75,human,IAT_purple3.bmp,purple,starting_scream,scream,starting,m,positive,negative,ES_green,0,c,364,1794066,1794570,1794774
14,second,76,ehrlich,IAT_green2.bmp,green,ending_scream,scream,ending,m,positive,positive,ES_green,1,m,318,1796714,1797219,1797423
14,second,77,sanft,IAT_yellow1.bmp,yellow,starting_melody,melody,starting,m,positive,positive,ES_green,1,m,517,1798819,1799324,1799528
14,second,78,lästig,IAT_red4.bmp,red,ending_melody,melody,ending,c,negative,negative,ES_green,1,c,497,1801121,1801625,1801829
14,second,79,geizig,IAT_red1.bmp,red,ending_melody,melody,ending,c,negative,negative,ES_green,1,c,383,1803403,1803907,1804111
14,second,80,gesund,IAT_purple2.bmp,purple,starting_scream,scream,starting,m,positive,negative,ES_green,1,m,432,1805571,1806076,1806280
14,second,81,gierig,IAT_purple4.bmp,purple,starting_scream,scream,starting,c,negative,negative,ES_green,1,c,428,1807789,1808294,1808498
14,second,82,falsch,IAT_green2.bmp,green,ending_scream,scream,ending,c,negative,positive,ES_green,1,c,622,1810003,1810507,1810711
14,second,83,sozial,IAT_red1.bmp,red,ending_melody,melody,ending,m,positive,negative,ES_green,1,m,601,1812409,1812913,1813117
14,second,84,human,IAT_red1.bmp,red,ending_melody,melody,ending,m,positive,negative,ES_green,1,m,478,1814794,1815298,1815502
14,second,85,krank,IAT_purple3.bmp,purple,starting_scream,scream,starting,c,negative,negative,ES_green,1,c,754,1817055,1817559,1817763
14,second,86,einsam,IAT_red3.bmp,red,ending_melody,melody,ending,c,negative,negative,ES_green,1,c,498,1819594,1820098,1820302
14,second,87,gerecht,IAT_purple1.bmp,purple,starting_scream,scream,starting,m,positive,negative,ES_green,1,m,460,1821876,1822381,1822585
14,second,88,teuer,IAT_yellow2.bmp,yellow,starting_melody,melody,starting,c,negative,positive,ES_green,1,c,451,1824121,1824626,1824830
14,second,89,lustig,IAT_green4.bmp,green,ending_scream,scream,ending,m,positive,positive,ES_green,1,m,357,1826357,1826861,1827065
14,second,90,sonnig,IAT_yellow3.bmp,yellow,starting_melody,melody,starting,m,positive,positive,ES_green,1,m,501,1828500,1829004,1829208
14,second,91,munter,IAT_green3.bmp,green,ending_scream,scream,ending,m,positive,positive,ES_green,1,m,552,1830786,1831290,1831494
14,second,92,sonnig,IAT_red3.bmp,red,ending_melody,melody,ending,m,positive,negative,ES_green,1,m,521,1833122,1833627,1833831
14,second,93,morsch,IAT_yellow4.bmp,yellow,starting_melody,melody,starting,c,negative,positive,ES_green,1,c,381,1835429,1835933,1836137
14,second,94,kaputt,IAT_yellow1.bmp,yellow,starting_melody,melody,starting,c,negative,positive,ES_green,1,c,483,1837594,1838098,1838302
14,second,95,witzig,IAT_red2.bmp,red,ending_melody,melody,ending,m,positive,negative,ES_green,1,m,715,1839862,1840366,1840570
14,third,0,heiter,IAT_yellow3.bmp,yellow,starting_melody,melody,starting,m,positive,positive,ES_green,1,m,370,1873593,1874097,1874301
14,third,1,feige,IAT_yellow4.bmp,yellow,starting_melody,melody,starting,c,negative,positive,ES_green,1,c,379,1875748,1876253,1876457
14,third,2,gerecht,IAT_purple4.bmp,purple,starting_scream,scream,starting,m,positive,negative,ES_green,1,m,303,1877912,1878416,1878620
14,third,3,sanft,IAT_red3.bmp,red,ending_melody,melody,ending,m,positive,negative,ES_green,0,c,335,1879999,1880503,1880707
14,third,4,falsch,IAT_yellow4.bmp,yellow,starting_melody,melody,starting,c,negative,positive,ES_green,1,c,406,1882620,1883124,1883328
14,third,5,heiter,IAT_purple4.bmp,purple,starting_scream,scream,starting,m,positive,negative,ES_green,1,m,459,1884810,1885314,1885518
14,third,6,schön,IAT_green1.bmp,green,ending_scream,scream,ending,m,positive,positive,ES_green,1,m,313,1887052,1887556,1887760
14,third,7,krank,IAT_red2.bmp,red,ending_melody,melody,ending,c,negative,negative,ES_green,1,c,355,1889150,1889654,1889858
14,third,8,brutal,IAT_purple2.bmp,purple,starting_scream,scream,starting,c,negative,negative,ES_green,1,c,583,1891290,1891794,1891998
14,third,9,sanft,IAT_green1.bmp,green,ending_scream,scream,ending,m,positive,positive,ES_green,1,m,308,1893657,1894161,1894365
14,third,10,sonnig,IAT_red2.bmp,red,ending_melody,melody,ending,m,positive,negative,ES_green,1,m,477,1895750,1896254,1896458
14,third,11,teuer,IAT_green4.bmp,green,ending_scream,scream,ending,c,negative,positive,ES_green,1,c,464,1898011,1898515,1898719
14,third,12,kaputt,IAT_yellow2.bmp,yellow,starting_melody,melody,starting,c,negative,positive,ES_green,1,c,469,1900259,1900763,1900967
14,third,13,geizig,IAT_red2.bmp,red,ending_melody,melody,ending,c,negative,negative,ES_green,1,c,521,1902513,1903017,1903221
14,third,14,gerecht,IAT_red1.bmp,red,ending_melody,melody,ending,m,positive,negative,ES_green,0,c,461,1904818,1905323,1905527
14,third,15,einsam,IAT_purple4.bmp,purple,starting_scream,scream,starting,c,negative,negative,ES_green,1,c,475,1907563,1908067,1908271
14,third,16,schön,IAT_green3.bmp,green,ending_scream,scream,ending,m,positive,positive,ES_green,1,m,352,1909822,1910326,1910530
14,third,17,streng,IAT_yellow2.bmp,yellow,starting_melody,melody,starting,c,negative,positive,ES_green,1,c,480,1911958,1912463,1912667
14,third,18,geizig,IAT_purple2.bmp,purple,starting_scream,scream,starting,c,negative,negative,ES_green,1,c,484,1914223,1914727,1914931
14,third,19,lästig,IAT_red4.bmp,red,ending_melody,melody,ending,c,negative,negative,ES_green,0,m,394,1916491,1916995,1917199
14,third,20,krank,IAT_yellow4.bmp,yellow,starting_melody,melody,starting,c,negative,positive,ES_green,1,c,512,1919170,1919675,1919879
14,third,21,sanft,IAT_purple3.bmp,purple,starting_scream,scream,starting,m,positive,negative,ES_green,1,m,439,1921466,1921971,1922175
14,third,22,sonnig,IAT_green3.bmp,green,ending_scream,scream,ending,m,positive,positive,ES_green,1,m,341,1923690,1924194,1924398
14,third,23,human,IAT_purple1.bmp,purple,starting_scream,scream,starting,m,positive,negative,ES_green,0,c,320,1925815,1926319,1926524
14,third,24,sozial,IAT_yellow3.bmp,yellow,starting_melody,melody,starting,m,positive,positive,ES_green,1,m,459,1928421,1928925,1929129
14,third,25,brutal,IAT_purple1.bmp,purple,starting_scream,scream,starting,c,negative,negative,ES_green,1,c,396,1930666,1931170,1931374
14,third,26,kaputt,IAT_yellow4.bmp,yellow,starting_melody,melody,starting,c,negative,positive,ES_green,1,c,535,1932846,1933350,1933554
14,third,27,lustig,IAT_red1.bmp,red,ending_melody,melody,ending,m,positive,negative,ES_green,0,c,425,1935165,1935669,1935873
14,third,28,human,IAT_yellow1.bmp,yellow,starting_melody,melody,starting,m,positive,positive,ES_green,1,m,483,1937877,1938381,1938585
14,third,29,gierig,IAT_green4.bmp,green,ending_scream,scream,ending,c,negative,positive,ES_green,0,m,359,1940146,1940650,1940854
14,third,30,gesund,IAT_green4.bmp,green,ending_scream,scream,ending,m,positive,positive,ES_green,1,m,377,1942789,1943293,1943497
14,third,31,einsam,IAT_yellow3.bmp,yellow,starting_melody,melody,starting,c,negative,positive,ES_green,1,c,546,1944950,1945455,1945659
14,third,32,teuer,IAT_purple2.bmp,purple,starting_scream,scream,starting,c,negative,negative,ES_green,1,c,1467,1947282,1947787,1947991
14,third,33,feige,IAT_red2.bmp,red,ending_melody,melody,ending,c,negative,negative,ES_green,1,c,529,1950534,1951038,1951242
14,third,34,lustig,IAT_purple3.bmp,purple,starting_scream,scream,starting,m,positive,negative,ES_green,0,c,405,1952847,1953351,1953555
14,third,35,ehrlich,IAT_yellow2.bmp,yellow,starting_melody,melody,starting,m,positive,positive,ES_green,0,c,453,1955537,1956042,1956246
14,third,36,gierig,IAT_green2.bmp,green,ending_scream,scream,ending,c,negative,positive,ES_green,1,c,639,1958274,1958779,1958983
14,third,37,krank,IAT_green2.bmp,green,ending_scream,scream,ending,c,negative,positive,ES_green,1,c,504,1960698,1961202,1961406
14,third,38,sanft,IAT_green3.bmp,green,ending_scream,scream,ending,m,positive,positive,ES_green,0,c,426,1962987,1963491,1963695
14,third,39,feige,IAT_purple1.bmp,purple,starting_scream,scream,starting,c,negative,negative,ES_green,1,c,402,1965698,1966202,1966406
14,third,40,streng,IAT_red3.bmp,red,ending_melody,melody,ending,c,negative,negative,ES_green,1,c,357,1967884,1968389,1968593
14,third,41,witzig,IAT_red3.bmp,red,ending_melody,melody,ending,m,positive,negative,ES_green,0,c,361,1970025,1970530,1970734
14,third,42,teuer,IAT_green4.bmp,green,ending_scream,scream,ending,c,negative,positive,ES_green,0,m,322,1972672,1973176,1973380
14,third,43,lästig,IAT_red3.bmp,red,ending_melody,melody,ending,c,negative,negative,ES_green,1,c,616,1975280,1975784,1975988
14,third,44,brutal,IAT_green4.bmp,green,ending_scream,scream,ending,c,negative,positive,ES_green,1,c,439,1977680,1978184,1978388
14,third,45,streng,IAT_purple3.bmp,purple,starting_scream,scream,starting,c,negative,negative,ES_green,1,c,501,1979902,1980407,1980611
14,third,46,human,IAT_yellow4.bmp,yellow,starting_melody,melody,starting,m,positive,positive,ES_green,1,m,477,1982191,1982695,1982899
14,third,47,morsch,IAT_yellow1.bmp,yellow,starting_melody,melody,starting,c,negative,positive,ES_green,1,c,529,1984453,1984957,1985161
14,third,48,gesund,IAT_purple3.bmp,purple,starting_scream,scream,starting,m,positive,negative,ES_green,1,m,551,1986766,1987270,1987474
14,third,49,einsam,IAT_green3.bmp,green,ending_scream,scream,ending,c,negative,positive,ES_green,1,c,564,1989101,1989606,1989810
14,third,50,lustig,IAT_red3.bmp,red,ending_melody,melody,ending,m,positive,negative,ES_green,1,m,535,1991451,1991956,1992160
14,third,51,morsch,IAT_red4.bmp,red,ending_melody,melody,ending,c,negative,negative,ES_green,1,c,436,1993773,1994277,1994481
14,third,52,gierig,IAT_green1.bmp,green,ending_scream,scream,ending,c,negative,positive,ES_green,0,m,404,1995993,1996497,1996701
14,third,53,morsch,IAT_red1.bmp,red,ending_melody,melody,ending,c,negative,negative,ES_green,1,c,468,1998682,1999186,1999390
14,third,54,gerecht,IAT_red1.bmp,red,ending_melody,melody,ending,m,positive,negative,ES_green,1,m,505,2000935,2001439,2001643
14,third,55,brutal,IAT_purple4.bmp,purple,starting_scream,scream,starting,c,negative,negative,ES_green,1,c,468,2003224,2003729,2003933
14,third,56,falsch,IAT_red4.bmp,red,ending_melody,melody,ending,c,negative,negative,ES_green,1,c,442,2005477,2005981,2006185
14,third,57,munter,IAT_purple2.bmp,purple,starting_scream,scream,starting,m,positive,negative,ES_green,1,m,506,2007704,2008208,2008412
14,third,58,schön,IAT_green2.bmp,green,ending_scream,scream,ending,m,positive,positive,ES_green,1,m,453,2009995,2010499,2010704
14,third,59,kaputt,IAT_yellow2.bmp,yellow,starting_melody,melody,starting,c,negative,positive,ES_green,1,c,402,2012234,2012738,2012942
14,third,60,teuer,IAT_red1.bmp,red,ending_melody,melody,ending,c,negative,negative,ES_green,1,c,736,2014421,2014925,2015129
14,third,61,falsch,IAT_purple3.bmp,purple,starting_scream,scream,starting,c,negative,negative,ES_green,1,c,502,2016942,2017446,2017650
14,third,62,lustig,IAT_purple1.bmp,purple,starting_scream,scream,starting,m,positive,negative,ES_green,1,m,641,2019229,2019733,2019937
14,third,63,witzig,IAT_yellow1.bmp,yellow,starting_melody,melody,starting,m,positive,positive,ES_green,0,c,459,2021654,2022158,2022362
14,third,64,human,IAT_yellow3.bmp,yellow,starting_melody,melody,starting,m,positive,positive,ES_green,1,m,478,2024398,2024902,2025106
14,third,65,sonnig,IAT_yellow4.bmp,yellow,starting_melody,melody,starting,m,positive,positive,ES_green,1,m,408,2026661,2027166,2027370
14,third,66,sozial,IAT_green3.bmp,green,ending_scream,scream,ending,m,positive,positive,ES_green,1,m,383,2028855,2029359,2029563
14,third,67,munter,IAT_red1.bmp,red,ending_melody,melody,ending,m,positive,negative,ES_green,0,c,371,2031023,2031527,2031731
14,third,68,einsam,IAT_green3.bmp,green,ending_scream,scream,ending,c,negative,positive,ES_green,0,m,355,2033679,2034183,2034387
14,third,69,witzig,IAT_yellow1.bmp,yellow,starting_melody,melody,starting,m,positive,positive,ES_green,1,m,493,2036320,2036824,2037028
14,third,70,gesund,IAT_red3.bmp,red,ending_melody,melody,ending,m,positive,negative,ES_green,1,m,492,2038598,2039102,2039306
14,third,71,sonnig,IAT_green1.bmp,green,ending_scream,scream,ending,m,positive,positive,ES_green,1,m,489,2040873,2041378,2041582
14,third,72,munter,IAT_red2.bmp,red,ending_melody,melody,ending,m,positive,negative,ES_green,1,m,468,2043147,2043651,2043855
14,third,73,heiter,IAT_green4.bmp,green,ending_scream,scream,ending,m,positive,positive,ES_green,1,m,340,2045400,2045904,2046108
14,third,74,geizig,IAT_purple4.bmp,purple,starting_scream,scream,starting,c,negative,negative,ES_green,1,c,613,2047524,2048028,2048232
14,third,75,gierig,IAT_yellow3.bmp,yellow,starting_melody,melody,starting,c,negative,positive,ES_green,0,m,487,2049922,2050426,2050630
14,third,76,feige,IAT_red4.bmp,red,ending_melody,melody,ending,c,negative,negative,ES_green,1,c,525,2052693,2053198,2053402
14,third,77,geizig,IAT_green1.bmp,green,ending_scream,scream,ending,c,negative,positive,ES_green,1,c,1076,2055004,2055508,2055712
14,third,78,schön,IAT_green1.bmp,green,ending_scream,scream,ending,m,positive,positive,ES_green,1,m,429,2057865,2058369,2058573
14,third,79,lästig,IAT_yellow1.bmp,yellow,starting_melody,melody,starting,c,negative,positive,ES_green,1,c,432,2060079,2060583,2060787
14,third,80,falsch,IAT_red2.bmp,red,ending_melody,melody,ending,c,negative,negative,ES_green,1,c,495,2062296,2062800,2063004
14,third,81,streng,IAT_green2.bmp,green,ending_scream,scream,ending,c,negative,positive,ES_green,1,c,582,2064575,2065079,2065283
14,third,82,krank,IAT_purple2.bmp,purple,starting_scream,scream,starting,c,negative,negative,ES_green,1,c,449,2066941,2067446,2067650
14,third,83,ehrlich,IAT_yellow1.bmp,yellow,starting_melody,melody,starting,m,positive,positive,ES_green,0,c,499,2069176,2069680,2069884
14,third,84,sozial,IAT_red4.bmp,red,ending_melody,melody,ending,m,positive,negative,ES_green,1,m,538,2071961,2072465,2072669
14,third,85,gesund,IAT_purple2.bmp,purple,starting_scream,scream,starting,m,positive,negative,ES_green,1,m,485,2074283,2074787,2074991
14,third,86,kaputt,IAT_purple4.bmp,purple,starting_scream,scream,starting,c,negative,negative,ES_green,1,c,578,2076553,2077057,2077261
14,third,87,ehrlich,IAT_yellow2.bmp,yellow,starting_melody,melody,starting,m,positive,positive,ES_green,1,m,468,2078915,2079420,2079624
14,third,88,gerecht,IAT_purple1.bmp,purple,starting_scream,scream,starting,m,positive,negative,ES_green,1,m,517,2081169,2081673,2081877
14,third,89,morsch,IAT_green2.bmp,green,ending_scream,scream,ending,c,negative,positive,ES_green,0,m,344,2083471,2083975,2084179
14,third,90,munter,IAT_green2.bmp,green,ending_scream,scream,ending,m,positive,positive,ES_green,1,m,377,2086101,2086605,2086809
14,third,91,lästig,IAT_yellow2.bmp,yellow,starting_melody,melody,starting,c,negative,positive,ES_green,1,c,526,2088264,2088768,2088972
14,third,92,witzig,IAT_yellow3.bmp,yellow,starting_melody,melody,starting,m,positive,positive,ES_green,1,m,537,2090574,2091078,2091282
14,third,93,sozial,IAT_red4.bmp,red,ending_melody,melody,ending,m,positive,negative,ES_green,1,m,502,2092895,2093399,2093603
14,third,94,ehrlich,IAT_purple3.bmp,purple,starting_scream,scream,starting,m,positive,negative,ES_green,1,m,520,2095182,2095687,2095891
14,third,95,heiter,IAT_purple1.bmp,purple,starting_scream,scream,starting,m,positive,negative,ES_green,1,m,453,2097489,2097993,2098197
14,forth,0,gerecht,IAT_purple2.bmp,purple,starting_scream,scream,starting,m,positive,negative,ES_green,1,m,429,2110891,2111395,2111599
14,forth,1,lästig,IAT_yellow2.bmp,yellow,starting_melody,melody,starting,c,negative,positive,ES_green,1,c,422,2113105,2113609,2113813
14,forth,2,heiter,IAT_green2.bmp,green,ending_scream,scream,ending,m,positive,positive,ES_green,1,m,337,2115311,2115816,2116020
14,forth,3,gierig,IAT_purple2.bmp,purple,starting_scream,scream,starting,c,negative,negative,ES_green,1,c,522,2117433,2117937,2118141
14,forth,4,krank,IAT_purple2.bmp,purple,starting_scream,scream,starting,c,negative,negative,ES_green,1,c,375,2119740,2120244,2120448
14,forth,5,falsch,IAT_green2.bmp,green,ending_scream,scream,ending,c,negative,positive,ES_green,1,c,457,2121899,2122404,2122608
14,forth,6,gierig,IAT_red3.bmp,red,ending_melody,melody,ending,c,negative,negative,ES_green,1,c,633,2124141,2124645,2124849
14,forth,7,ehrlich,IAT_red3.bmp,red,ending_melody,melody,ending,m,positive,negative,ES_green,0,c,379,2126559,2127063,2127267
14,forth,8,witzig,IAT_yellow1.bmp,yellow,starting_melody,melody,starting,m,positive,positive,ES_green,0,c,430,2129225,2129729,2129933
14,forth,9,geizig,IAT_green1.bmp,green,ending_scream,scream,ending,c,negative,positive,ES_green,1,c,869,2131941,2132445,2132649
14,forth,10,lästig,IAT_yellow2.bmp,yellow,starting_melody,melody,starting,c,negative,positive,ES_green,1,c,440,2134595,2135100,2135304
14,forth,11,falsch,IAT_purple2.bmp,purple,starting_scream,scream,starting,c,negative,negative,ES_green,1,c,503,2136821,2137325,2137529
14,forth,12,sanft,IAT_red3.bmp,red,ending_melody,melody,ending,m,positive,negative,ES_green,1,m,494,2139110,2139615,2139819
14,forth,13,kaputt,IAT_red2.bmp,red,ending_melody,melody,ending,c,negative,negative,ES_green,1,c,497,2141391,2141895,2142099
14,forth,14,brutal,IAT_red4.bmp,red,ending_melody,melody,ending,c,negative,negative,ES_green,1,c,552,2143673,2144177,2144381
14,forth,15,lustig,IAT_green2.bmp,green,ending_scream,scream,ending,m,positive,positive,ES_green,1,m,409,2146009,2146513,2146717
14,forth,16,einsam,IAT_purple1.bmp,purple,starting_scream,scream,starting,c,negative,negative,ES_green,1,c,511,2148203,2148707,2148911
14,forth,17,munter,IAT_red4.bmp,red,ending_melody,melody,ending,m,positive,negative,ES_green,1,m,486,2150499,2151004,2151208
14,forth,18,sozial,IAT_red1.bmp,red,ending_melody,melody,ending,m,positive,negative,ES_green,1,m,442,2152772,2153276,2153480
14,forth,19,schön,IAT_green1.bmp,green,ending_scream,scream,ending,m,positive,positive,ES_green,1,m,416,2154999,2155504,2155708
14,forth,20,lästig,IAT_yellow4.bmp,yellow,starting_melody,melody,starting,c,negative,positive,ES_green,1,c,416,2157202,2157706,2157910
14,forth,21,feige,IAT_purple4.bmp,purple,starting_scream,scream,starting,c,negative,negative,ES_green,1,c,503,2159402,2159906,2160110
14,forth,22,gierig,IAT_purple4.bmp,purple,starting_scream,scream,starting,c,negative,negative,ES_green,1,c,800,2161690,2162194,2162398
14,forth,23,human,IAT_green4.bmp,green,ending_scream,scream,ending,m,positive,positive,ES_green,1,m,426,2164274,2164778,2164982
14,forth,24,lustig,IAT_green3.bmp,green,ending_scream,scream,ending,m,positive,positive,ES_green,0,c,517,2166485,2166989,2167193
14,forth,25,gesund,IAT_red1.bmp,red,ending_melody,melody,ending,m,positive,negative,ES_green,1,m,464,2169286,2169791,2169995
14,forth,26,sanft,IAT_yellow3.bmp,yellow,starting_melody,melody,starting,m,positive,positive,ES_green,1,m,521,2171536,2172040,2172244
14,forth,27,teuer,IAT_green4.bmp,green,ending_scream,scream,ending,c,negative,positive,ES_green,1,c,615,2173841,2174345,2174549
14,forth,28,feige,IAT_purple3.bmp,purple,starting_scream,scream,starting,c,negative,negative,ES_green,1,c,513,2176240,2176744,2176948
14,forth,29,ehrlich,IAT_purple4.bmp,purple,starting_scream,scream,starting,m,positive,negative,ES_green,1,m,1016,2178539,2179043,2179247
14,forth,30,human,IAT_green3.bmp,green,ending_scream,scream,ending,m,positive,positive,ES_green,1,m,370,2181346,2181850,2182054
14,forth,31,ehrlich,IAT_red4.bmp,red,ending_melody,melody,ending,m,positive,negative,ES_green,1,m,480,2183501,2184005,2184209
14,forth,32,gerecht,IAT_red3.bmp,red,ending_melody,melody,ending,m,positive,negative,ES_green,1,m,486,2185766,2186270,2186474
14,forth,33,sanft,IAT_red1.bmp,red,ending_melody,melody,ending,m,positive,negative,ES_green,1,m,393,2188036,2188540,2188744
14,forth,34,geizig,IAT_yellow4.bmp,yellow,starting_melody,melody,starting,c,negative,positive,ES_green,1,c,485,2190214,2190718,2190922
14,forth,35,feige,IAT_yellow2.bmp,yellow,starting_melody,melody,starting,c,negative,positive,ES_green,1,c,509,2192484,2192988,2193192
14,forth,36,falsch,IAT_purple4.bmp,purple,starting_scream,scream,starting,c,negative,negative,ES_green,1,c,471,2194778,2195282,2195486
14,forth,37,brutal,IAT_purple4.bmp,purple,starting_scream,scream,starting,c,negative,negative,ES_green,1,c,515,2197033,2197537,2197741
14,forth,38,morsch,IAT_red1.bmp,red,ending_melody,melody,ending,c,negative,negative,ES_green,1,c,521,2199333,2199837,2200041
14,forth,39,sonnig,IAT_red2.bmp,red,ending_melody,melody,ending,m,positive,negative,ES_green,1,m,448,2201639,2202143,2202347
14,forth,40,krank,IAT_yellow4.bmp,yellow,starting_melody,melody,starting,c,negative,positive,ES_green,1,c,481,2203872,2204376,2204580
14,forth,41,gerecht,IAT_red3.bmp,red,ending_melody,melody,ending,m,positive,negative,ES_green,1,m,494,2206138,2206643,2206847
14,forth,42,morsch,IAT_green4.bmp,green,ending_scream,scream,ending,c,negative,positive,ES_green,1,c,473,2208418,2208922,2209126
14,forth,43,krank,IAT_green3.bmp,green,ending_scream,scream,ending,c,negative,positive,ES_green,1,c,493,2210675,2211179,2211383
14,forth,44,falsch,IAT_green2.bmp,green,ending_scream,scream,ending,c,negative,positive,ES_green,1,c,481,2212952,2213456,2213660
14,forth,45,gesund,IAT_red2.bmp,red,ending_melody,melody,ending,m,positive,negative,ES_green,1,m,530,2215218,2215723,2215927
14,forth,46,munter,IAT_green1.bmp,green,ending_scream,scream,ending,m,positive,positive,ES_green,1,m,412,2217533,2218037,2218241
14,forth,47,witzig,IAT_yellow1.bmp,yellow,starting_melody,melody,starting,m,positive,positive,ES_green,1,m,487,2219730,2220234,2220438
14,forth,48,heiter,IAT_yellow1.bmp,yellow,starting_melody,melody,starting,m,positive,positive,ES_green,1,m,530,2222002,2222506,2222710
14,forth,49,geizig,IAT_red4.bmp,red,ending_melody,melody,ending,c,negative,negative,ES_green,1,c,626,2224316,2224820,2225024
14,forth,50,human,IAT_yellow3.bmp,yellow,starting_melody,melody,starting,m,positive,positive,ES_green,1,m,529,2226726,2227230,2227434
14,forth,51,heiter,IAT_purple1.bmp,purple,starting_scream,scream,starting,m,positive,negative,ES_green,1,m,558,2229039,2229544,2229748
14,forth,52,krank,IAT_purple1.bmp,purple,starting_scream,scream,starting,c,negative,negative,ES_green,1,c,488,2231383,2231887,2232091
14,forth,53,teuer,IAT_green3.bmp,green,ending_scream,scream,ending,c,negative,positive,ES_green,1,c,632,2233655,2234159,2234363
14,forth,54,streng,IAT_green2.bmp,green,ending_scream,scream,ending,c,negative,positive,ES_green,1,c,530,2236071,2236575,2236779
14,forth,55,witzig,IAT_yellow1.bmp,yellow,starting_melody,melody,starting,m,positive,positive,ES_green,1,m,484,2238385,2238889,2239093
14,forth,56,brutal,IAT_yellow4.bmp,yellow,starting_melody,melody,starting,c,negative,positive,ES_green,1,c,465,2240654,2241159,2241364
14,forth,57,kaputt,IAT_green2.bmp,green,ending_scream,scream,ending,c,negative,positive,ES_green,0,m,372,2242904,2243409,2243614
14,forth,58,gesund,IAT_yellow4.bmp,yellow,starting_melody,melody,starting,m,positive,positive,ES_green,1,m,495,2245564,2246068,2246272
14,forth,59,einsam,IAT_yellow1.bmp,yellow,starting_melody,melody,starting,c,negative,positive,ES_green,1,c,453,2247844,2248349,2248553
14,forth,60,streng,IAT_yellow3.bmp,yellow,starting_melody,melody,starting,c,negative,positive,ES_green,1,c,488,2250083,2250587,2250791
14,forth,61,teuer,IAT_yellow3.bmp,yellow,starting_melody,melody,starting,c,negative,positive,ES_green,1,c,433,2252355,2252859,2253063
14,forth,62,lustig,IAT_purple1.bmp,purple,starting_scream,scream,starting,m,positive,negative,ES_green,1,m,552,2254572,2255077,2255281
14,forth,63,einsam,IAT_green4.bmp,green,ending_scream,scream,ending,c,negative,positive,ES_green,1,c,500,2256909,2257413,2257617
14,forth,64,schön,IAT_green4.bmp,green,ending_scream,scream,ending,m,positive,positive,ES_green,1,m,438,2259193,2259697,2259901
14,forth,65,kaputt,IAT_green1.bmp,green,ending_scream,scream,ending,c,negative,positive,ES_green,1,c,399,2261415,2261919,2262124
14,forth,66,human,IAT_purple2.bmp,purple,starting_scream,scream,starting,m,positive,negative,ES_green,1,m,534,2263601,2264105,2264309
14,forth,67,einsam,IAT_red4.bmp,red,ending_melody,melody,ending,c,negative,negative,ES_green,1,c,455,2265920,2266424,2266628
14,forth,68,schön,IAT_yellow4.bmp,yellow,starting_melody,melody,starting,m,positive,positive,ES_green,1,m,383,2268159,2268663,2268867
14,forth,69,morsch,IAT_red3.bmp,red,ending_melody,melody,ending,c,negative,negative,ES_green,1,c,454,2270326,2270831,2271035
14,forth,70,ehrlich,IAT_purple1.bmp,purple,starting_scream,scream,starting,m,positive,negative,ES_green,1,m,458,2272565,2273069,2273273
14,forth,71,lästig,IAT_red4.bmp,red,ending_melody,melody,ending,c,negative,negative,ES_green,1,c,462,2274810,2275314,2275518
14,forth,72,sonnig,IAT_purple3.bmp,purple,starting_scream,scream,starting,m,positive,negative,ES_green,1,m,476,2277057,2277561,2277765
14,forth,73,kaputt,IAT_green4.bmp,green,ending_scream,scream,ending,c,negative,positive,ES_green,1,c,445,2279318,2279822,2280026
14,forth,74,sozial,IAT_purple3.bmp,purple,starting_scream,scream,starting,m,positive,negative,ES_green,1,m,567,2281547,2282051,2282255
14,forth,75,sonnig,IAT_red1.bmp,red,ending_melody,melody,ending,m,positive,negative,ES_green,1,m,455,2283899,2284404,2284608
14,forth,76,sozial,IAT_purple3.bmp,purple,starting_scream,scream,starting,m,positive,negative,ES_green,1,m,515,2286139,2286643,2286847
14,forth,77,munter,IAT_purple3.bmp,purple,starting_scream,scream,starting,m,positive,negative,ES_green,1,m,480,2288439,2288944,2289148
14,forth,78,sozial,IAT_yellow3.bmp,yellow,starting_melody,melody,starting,m,positive,positive,ES_green,1,m,512,2290704,2291208,2291412
14,forth,79,brutal,IAT_red2.bmp,red,ending_melody,melody,ending,c,negative,negative,ES_green,1,c,469,2293001,2293505,2293709
14,forth,80,gesund,IAT_green1.bmp,green,ending_scream,scream,ending,m,positive,positive,ES_green,1,m,418,2295255,2295759,2295964
14,forth,81,schön,IAT_green1.bmp,green,ending_scream,scream,ending,m,positive,positive,ES_green,1,m,350,2297459,2297964,2298168
14,forth,82,feige,IAT_yellow2.bmp,yellow,starting_melody,melody,starting,c,negative,positive,ES_green,1,c,420,2299595,2300099,2300303
14,forth,83,geizig,IAT_purple2.bmp,purple,starting_scream,scream,starting,c,negative,negative,ES_green,0,m,413,2301801,2302305,2302509
14,forth,84,heiter,IAT_purple1.bmp,purple,starting_scream,scream,starting,m,positive,negative,ES_green,1,m,521,2304499,2305003,2305207
14,forth,85,sanft,IAT_yellow2.bmp,yellow,starting_melody,melody,starting,m,positive,positive,ES_green,0,c,567,2306805,2307309,2307513
14,forth,86,streng,IAT_red2.bmp,red,ending_melody,melody,ending,c,negative,negative,ES_green,1,c,605,2309657,2310162,2310366
14,forth,87,gierig,IAT_red2.bmp,red,ending_melody,melody,ending,c,negative,negative,ES_green,1,c,611,2312048,2312552,2312756
14,forth,88,lustig,IAT_yellow2.bmp,yellow,starting_melody,melody,starting,m,positive,positive,ES_green,1,m,443,2314443,2314947,2315151
14,forth,89,streng,IAT_red1.bmp,red,ending_melody,melody,ending,c,negative,negative,ES_green,1,c,359,2316671,2317175,2317379
14,forth,90,sonnig,IAT_yellow3.bmp,yellow,starting_melody,melody,starting,m,positive,positive,ES_green,1,m,395,2318815,2319319,2319523
14,forth,91,witzig,IAT_green3.bmp,green,ending_scream,scream,ending,m,positive,positive,ES_green,1,m,489,2320994,2321499,2321703
14,forth,92,munter,IAT_green3.bmp,green,ending_scream,scream,ending,m,positive,positive,ES_green,1,m,408,2323270,2323774,2323978
14,forth,93,teuer,IAT_yellow1.bmp,yellow,starting_melody,melody,starting,c,negative,positive,ES_green,1,c,595,2325462,2325967,2326171
14,forth,94,gerecht,IAT_purple4.bmp,purple,starting_scream,scream,starting,m,positive,negative,ES_green,1,m,410,2327842,2328347,2328551
14,forth,95,morsch,IAT_purple3.bmp,purple,starting_scream,scream,starting,c,negative,negative,ES_green,1,c,514,2330038,2330542,2330746
