subject_nr,block,trialnr,trial_target,trial_prime,prime_color,prime_role,prime_us,prime_relation,correct_response,target_valence,prime_valence,color_counter,correct_first_response,response_first_response,response_time_first_response,fixation_show,prime_show,target_show
33,first,0,morsch,IAT_yellow4.bmp,yellow,ending_melody,melody,ending,c,negative,negative,ES_purple,1,c,431,1474185,1474690,1474894
33,first,1,kaputt,IAT_green4.bmp,green,starting_melody,melody,starting,c,negative,positive,ES_purple,1,c,351,1476401,1476905,1477109
33,first,2,brutal,IAT_green1.bmp,green,starting_melody,melody,starting,c,negative,positive,ES_purple,1,c,386,1478534,1479039,1479243
33,first,3,morsch,IAT_red3.bmp,red,starting_scream,scream,starting,c,negative,negative,ES_purple,0,m,391,1480704,1481208,1481412
33,first,4,gerecht,IAT_red1.bmp,red,starting_scream,scream,starting,m,positive,negative,ES_purple,0,c,279,1483377,1483882,1484086
33,first,5,sozial,IAT_green4.bmp,green,starting_melody,melody,starting,m,positive,positive,ES_purple,0,c,415,1485938,1486443,1486647
33,first,6,gesund,IAT_purple4.bmp,purple,ending_scream,scream,ending,m,positive,positive,ES_purple,1,m,491,1488635,1489139,1489343
33,first,7,lustig,IAT_yellow1.bmp,yellow,ending_melody,melody,ending,m,positive,negative,ES_purple,1,m,548,1490908,1491412,1491616
33,first,8,sanft,IAT_yellow3.bmp,yellow,ending_melody,melody,ending,m,positive,negative,ES_purple,1,m,448,1493237,1493742,1493946
33,first,9,munter,IAT_green3.bmp,green,starting_melody,melody,starting,m,positive,positive,ES_purple,1,m,490,1495467,1495971,1496175
33,first,10,brutal,IAT_green4.bmp,green,starting_melody,melody,starting,c,negative,positive,ES_purple,1,c,436,1497739,1498243,1498447
33,first,11,gerecht,IAT_red1.bmp,red,starting_scream,scream,starting,m,positive,negative,ES_purple,1,m,527,1499957,1500461,1500665
33,first,12,heiter,IAT_yellow1.bmp,yellow,ending_melody,melody,ending,m,positive,negative,ES_purple,1,m,485,1502265,1502770,1502974
33,first,13,falsch,IAT_purple2.bmp,purple,ending_scream,scream,ending,c,negative,positive,ES_purple,1,c,421,1504534,1505039,1505243
33,first,14,brutal,IAT_red1.bmp,red,starting_scream,scream,starting,c,negative,negative,ES_purple,1,c,461,1506737,1507242,1507446
33,first,15,munter,IAT_red3.bmp,red,starting_scream,scream,starting,m,positive,negative,ES_purple,1,m,437,1508982,1509486,1509690
33,first,16,einsam,IAT_green2.bmp,green,starting_melody,melody,starting,c,negative,positive,ES_purple,0,m,534,1511201,1511706,1511910
33,first,17,falsch,IAT_purple4.bmp,purple,ending_scream,scream,ending,c,negative,positive,ES_purple,1,c,1117,1514017,1514521,1514725
33,first,18,witzig,IAT_green1.bmp,green,starting_melody,melody,starting,m,positive,positive,ES_purple,1,m,510,1516915,1517419,1517623
33,first,19,ehrlich,IAT_purple1.bmp,purple,ending_scream,scream,ending,m,positive,positive,ES_purple,1,m,468,1519207,1519711,1519915
33,first,20,krank,IAT_red4.bmp,red,starting_scream,scream,starting,c,negative,negative,ES_purple,1,c,409,1521458,1521962,1522166
33,first,21,streng,IAT_yellow2.bmp,yellow,ending_melody,melody,ending,c,negative,negative,ES_purple,1,c,890,1523648,1524153,1524357
33,first,22,sanft,IAT_purple2.bmp,purple,ending_scream,scream,ending,m,positive,positive,ES_purple,1,m,619,1526321,1526825,1527029
33,first,23,gesund,IAT_purple3.bmp,purple,ending_scream,scream,ending,m,positive,positive,ES_purple,1,m,583,1528723,1529227,1529431
33,first,24,kaputt,IAT_purple1.bmp,purple,ending_scream,scream,ending,c,negative,positive,ES_purple,0,m,393,1531089,1531594,1531798
33,first,25,krank,IAT_yellow1.bmp,yellow,ending_melody,melody,ending,c,negative,negative,ES_purple,1,c,554,1533765,1534269,1534473
33,first,26,falsch,IAT_yellow1.bmp,yellow,ending_melody,melody,ending,c,negative,negative,ES_purple,1,c,525,1536101,1536606,1536810
33,first,27,lustig,IAT_purple4.bmp,purple,ending_scream,scream,ending,m,positive,positive,ES_purple,1,m,887,1538409,1538914,1539118
33,first,28,streng,IAT_yellow3.bmp,yellow,ending_melody,melody,ending,c,negative,negative,ES_purple,1,c,416,1541081,1541585,1541789
33,first,29,lästig,IAT_yellow4.bmp,yellow,ending_melody,melody,ending,c,negative,negative,ES_purple,1,c,506,1543279,1543783,1543987
33,first,30,feige,IAT_purple4.bmp,purple,ending_scream,scream,ending,c,negative,positive,ES_purple,0,m,437,1545568,1546072,1546277
33,first,31,sanft,IAT_red2.bmp,red,starting_scream,scream,starting,m,positive,negative,ES_purple,0,c,808,1548288,1548792,1548996
33,first,32,ehrlich,IAT_green1.bmp,green,starting_melody,melody,starting,m,positive,positive,ES_purple,1,m,772,1551378,1551882,1552086
33,first,33,munter,IAT_green3.bmp,green,starting_melody,melody,starting,m,positive,positive,ES_purple,1,m,461,1553933,1554437,1554641
33,first,34,streng,IAT_yellow2.bmp,yellow,ending_melody,melody,ending,c,negative,negative,ES_purple,1,c,399,1556176,1556680,1556884
33,first,35,gierig,IAT_red1.bmp,red,starting_scream,scream,starting,c,negative,negative,ES_purple,0,m,532,1558356,1558860,1559064
33,first,36,schön,IAT_purple3.bmp,purple,ending_scream,scream,ending,m,positive,positive,ES_purple,1,m,1117,1561169,1561674,1561878
33,first,37,sozial,IAT_red3.bmp,red,starting_scream,scream,starting,m,positive,negative,ES_purple,1,m,607,1564069,1564573,1564777
33,first,38,human,IAT_green1.bmp,green,starting_melody,melody,starting,m,positive,positive,ES_purple,1,m,351,1566458,1566962,1567166
33,first,39,witzig,IAT_red1.bmp,red,starting_scream,scream,starting,m,positive,negative,ES_purple,1,m,537,1568591,1569095,1569299
33,first,40,streng,IAT_purple2.bmp,purple,ending_scream,scream,ending,c,negative,positive,ES_purple,1,c,481,1570911,1571415,1571619
33,first,41,feige,IAT_purple2.bmp,purple,ending_scream,scream,ending,c,negative,positive,ES_purple,0,m,485,1573175,1573679,1573883
33,first,42,munter,IAT_yellow3.bmp,yellow,ending_melody,melody,ending,m,positive,negative,ES_purple,1,m,791,1575943,1576448,1576652
33,first,43,geizig,IAT_yellow3.bmp,yellow,ending_melody,melody,ending,c,negative,negative,ES_purple,1,c,585,1578517,1579022,1579226
33,first,44,gierig,IAT_green4.bmp,green,starting_melody,melody,starting,c,negative,positive,ES_purple,1,c,771,1580885,1581389,1581593
33,first,45,lästig,IAT_purple4.bmp,purple,ending_scream,scream,ending,c,negative,positive,ES_purple,1,c,862,1583438,1583943,1584147
33,first,46,sonnig,IAT_green2.bmp,green,starting_melody,melody,starting,m,positive,positive,ES_purple,1,m,600,1586083,1586588,1586792
33,first,47,schön,IAT_red1.bmp,red,starting_scream,scream,starting,m,positive,negative,ES_purple,0,c,399,1588466,1588970,1589174
33,first,48,morsch,IAT_yellow4.bmp,yellow,ending_melody,melody,ending,c,negative,negative,ES_purple,1,c,482,1591146,1591651,1591855
33,first,49,geizig,IAT_red2.bmp,red,starting_scream,scream,starting,c,negative,negative,ES_purple,1,c,426,1593411,1593915,1594119
33,first,50,falsch,IAT_purple4.bmp,purple,ending_scream,scream,ending,c,negative,positive,ES_purple,0,m,330,1595620,1596124,1596328
33,first,51,geizig,IAT_yellow2.bmp,yellow,ending_melody,melody,ending,c,negative,negative,ES_purple,1,c,626,1598233,1598737,1598941
33,first,52,heiter,IAT_yellow2.bmp,yellow,ending_melody,melody,ending,m,positive,negative,ES_purple,0,c,425,1600643,1601147,1601351
33,first,53,krank,IAT_purple2.bmp,purple,ending_scream,scream,ending,c,negative,positive,ES_purple,1,c,495,1603351,1603855,1604059
33,first,54,geizig,IAT_red2.bmp,red,starting_scream,scream,starting,c,negative,negative,ES_purple,0,m,475,1605628,1606132,1606336
33,first,55,feige,IAT_yellow4.bmp,yellow,ending_melody,melody,ending,c,negative,negative,ES_purple,1,c,663,1608386,1608890,1609094
33,first,56,lästig,IAT_green2.bmp,green,starting_melody,melody,starting,c,negative,positive,ES_purple,0,m,667,1610831,1611335,1611539
33,first,57,sozial,IAT_purple3.bmp,purple,ending_scream,scream,ending,m,positive,positive,ES_purple,0,None,1500,1613780,1614284,1614488
33,first,58,einsam,IAT_red3.bmp,red,starting_scream,scream,starting,c,negative,negative,ES_purple,1,c,557,1617562,1618067,1618271
33,first,59,gerecht,IAT_red2.bmp,red,starting_scream,scream,starting,m,positive,negative,ES_purple,0,c,545,1619903,1620407,1620611
33,first,60,teuer,IAT_green3.bmp,green,starting_melody,melody,starting,c,negative,positive,ES_purple,0,m,647,1622733,1623237,1623441
33,first,61,ehrlich,IAT_yellow4.bmp,yellow,ending_melody,melody,ending,m,positive,negative,ES_purple,0,c,465,1625663,1626167,1626371
33,first,62,kaputt,IAT_purple3.bmp,purple,ending_scream,scream,ending,c,negative,positive,ES_purple,1,c,528,1628410,1628914,1629118
33,first,63,morsch,IAT_yellow2.bmp,yellow,ending_melody,melody,ending,c,negative,negative,ES_purple,1,c,471,1630721,1631225,1631429
33,first,64,teuer,IAT_green1.bmp,green,starting_melody,melody,starting,c,negative,positive,ES_purple,0,m,564,1632975,1633479,1633683
33,first,65,gierig,IAT_green2.bmp,green,starting_melody,melody,starting,c,negative,positive,ES_purple,0,m,536,1635821,1636326,1636530
33,first,66,brutal,IAT_red4.bmp,red,starting_scream,scream,starting,c,negative,negative,ES_purple,1,c,469,1638641,1639145,1639349
33,first,67,gesund,IAT_purple2.bmp,purple,ending_scream,scream,ending,m,positive,positive,ES_purple,0,c,495,1640893,1641397,1641601
33,first,68,gierig,IAT_green3.bmp,green,starting_melody,melody,starting,c,negative,positive,ES_purple,1,c,795,1643670,1644175,1644379
33,first,69,human,IAT_yellow3.bmp,yellow,ending_melody,melody,ending,m,positive,negative,ES_purple,1,m,671,1646248,1646752,1646956
33,first,70,sozial,IAT_purple1.bmp,purple,ending_scream,scream,ending,m,positive,positive,ES_purple,1,m,563,1648703,1649207,1649411
33,first,71,human,IAT_purple1.bmp,purple,ending_scream,scream,ending,m,positive,positive,ES_purple,1,m,537,1651049,1651553,1651757
33,first,72,schön,IAT_yellow1.bmp,yellow,ending_melody,melody,ending,m,positive,negative,ES_purple,1,m,581,1653368,1653872,1654076
33,first,73,gerecht,IAT_yellow2.bmp,yellow,ending_melody,melody,ending,m,positive,negative,ES_purple,1,m,465,1655733,1656237,1656441
33,first,74,ehrlich,IAT_yellow4.bmp,yellow,ending_melody,melody,ending,m,positive,negative,ES_purple,1,m,391,1657981,1658485,1658689
33,first,75,heiter,IAT_purple3.bmp,purple,ending_scream,scream,ending,m,positive,positive,ES_purple,1,m,500,1660154,1660658,1660862
33,first,76,krank,IAT_red4.bmp,red,starting_scream,scream,starting,c,negative,negative,ES_purple,1,c,494,1662438,1662942,1663146
33,first,77,gesund,IAT_purple1.bmp,purple,ending_scream,scream,ending,m,positive,positive,ES_purple,1,m,576,1664715,1665220,1665424
33,first,78,heiter,IAT_green1.bmp,green,starting_melody,melody,starting,m,positive,positive,ES_purple,1,m,435,1667075,1667579,1667783
33,first,79,einsam,IAT_red2.bmp,red,starting_scream,scream,starting,c,negative,negative,ES_purple,1,c,388,1669293,1669798,1670002
33,first,80,teuer,IAT_red2.bmp,red,starting_scream,scream,starting,c,negative,negative,ES_purple,0,m,496,1671465,1671969,1672173
33,first,81,feige,IAT_red4.bmp,red,starting_scream,scream,starting,c,negative,negative,ES_purple,1,c,516,1674244,1674748,1674952
33,first,82,schön,IAT_yellow3.bmp,yellow,ending_melody,melody,ending,m,positive,negative,ES_purple,1,m,433,1676543,1677048,1677252
33,first,83,human,IAT_green4.bmp,green,starting_melody,melody,starting,m,positive,positive,ES_purple,1,m,466,1678760,1679264,1679468
33,first,84,lustig,IAT_green3.bmp,green,starting_melody,melody,starting,m,positive,positive,ES_purple,1,m,453,1681009,1681513,1681717
33,first,85,sanft,IAT_green3.bmp,green,starting_melody,melody,starting,m,positive,positive,ES_purple,1,m,485,1683245,1683749,1683953
33,first,86,lustig,IAT_red3.bmp,red,starting_scream,scream,starting,m,positive,negative,ES_purple,1,m,550,1685513,1686017,1686221
33,first,87,sonnig,IAT_red3.bmp,red,starting_scream,scream,starting,m,positive,negative,ES_purple,1,m,410,1687846,1688350,1688554
33,first,88,witzig,IAT_red4.bmp,red,starting_scream,scream,starting,m,positive,negative,ES_purple,1,m,447,1690041,1690546,1690750
33,first,89,lästig,IAT_purple3.bmp,purple,ending_scream,scream,ending,c,negative,positive,ES_purple,1,c,661,1692271,1692776,1692980
33,first,90,teuer,IAT_green4.bmp,green,starting_melody,melody,starting,c,negative,positive,ES_purple,1,c,662,1694717,1695221,1695425
33,first,91,sonnig,IAT_green2.bmp,green,starting_melody,melody,starting,m,positive,positive,ES_purple,1,m,512,1697161,1697666,1697870
33,first,92,einsam,IAT_green2.bmp,green,starting_melody,melody,starting,c,negative,positive,ES_purple,1,c,509,1699455,1699960,1700164
33,first,93,witzig,IAT_red4.bmp,red,starting_scream,scream,starting,m,positive,negative,ES_purple,1,m,646,1701747,1702251,1702455
33,first,94,sonnig,IAT_yellow1.bmp,yellow,ending_melody,melody,ending,m,positive,negative,ES_purple,0,c,847,1704176,1704680,1704884
33,first,95,kaputt,IAT_purple1.bmp,purple,ending_scream,scream,ending,c,negative,positive,ES_purple,1,c,589,1707308,1707812,1708016
33,second,0,lustig,IAT_yellow1.bmp,yellow,ending_melody,melody,ending,m,positive,negative,ES_purple,1,m,494,1735463,1735967,1736171
33,second,1,morsch,IAT_purple4.bmp,purple,ending_scream,scream,ending,c,negative,positive,ES_purple,1,c,344,1737739,1738243,1738447
33,second,2,brutal,IAT_purple4.bmp,purple,ending_scream,scream,ending,c,negative,positive,ES_purple,1,c,381,1739864,1740368,1740572
33,second,3,feige,IAT_green1.bmp,green,starting_melody,melody,starting,c,negative,positive,ES_purple,1,c,432,1742027,1742531,1742735
33,second,4,sonnig,IAT_green4.bmp,green,starting_melody,melody,starting,m,positive,positive,ES_purple,1,m,460,1744241,1744745,1744949
33,second,5,witzig,IAT_purple4.bmp,purple,ending_scream,scream,ending,m,positive,positive,ES_purple,0,c,454,1746483,1746987,1747191
33,second,6,morsch,IAT_red3.bmp,red,starting_scream,scream,starting,c,negative,negative,ES_purple,1,c,474,1749220,1749725,1749929
33,second,7,geizig,IAT_yellow4.bmp,yellow,ending_melody,melody,ending,c,negative,negative,ES_purple,1,c,515,1751476,1751980,1752184
33,second,8,gierig,IAT_green2.bmp,green,starting_melody,melody,starting,c,negative,positive,ES_purple,1,c,433,1753773,1754277,1754481
33,second,9,einsam,IAT_purple1.bmp,purple,ending_scream,scream,ending,c,negative,positive,ES_purple,1,c,435,1755987,1756491,1756695
33,second,10,lästig,IAT_yellow4.bmp,yellow,ending_melody,melody,ending,c,negative,negative,ES_purple,1,c,423,1758204,1758708,1758912
33,second,11,schön,IAT_yellow3.bmp,yellow,ending_melody,melody,ending,m,positive,negative,ES_purple,1,m,491,1760408,1760912,1761116
33,second,12,sozial,IAT_purple3.bmp,purple,ending_scream,scream,ending,m,positive,positive,ES_purple,0,c,533,1762680,1763184,1763388
33,second,13,teuer,IAT_red2.bmp,red,starting_scream,scream,starting,c,negative,negative,ES_purple,1,c,636,1765494,1765999,1766203
33,second,14,streng,IAT_yellow2.bmp,yellow,ending_melody,melody,ending,c,negative,negative,ES_purple,1,c,449,1767912,1768416,1768620
33,second,15,human,IAT_green3.bmp,green,starting_melody,melody,starting,m,positive,positive,ES_purple,1,m,536,1770143,1770647,1770851
33,second,16,krank,IAT_green3.bmp,green,starting_melody,melody,starting,c,negative,positive,ES_purple,1,c,345,1772461,1772965,1773169
33,second,17,streng,IAT_yellow1.bmp,yellow,ending_melody,melody,ending,c,negative,negative,ES_purple,1,c,352,1774587,1775091,1775295
33,second,18,heiter,IAT_red4.bmp,red,starting_scream,scream,starting,m,positive,negative,ES_purple,1,m,518,1776721,1777225,1777429
33,second,19,kaputt,IAT_green3.bmp,green,starting_melody,melody,starting,c,negative,positive,ES_purple,1,c,391,1779021,1779525,1779729
33,second,20,gesund,IAT_red1.bmp,red,starting_scream,scream,starting,m,positive,negative,ES_purple,0,c,271,1781194,1781698,1781902
33,second,21,einsam,IAT_purple1.bmp,purple,ending_scream,scream,ending,c,negative,positive,ES_purple,1,c,464,1783745,1784250,1784454
33,second,22,gerecht,IAT_red1.bmp,red,starting_scream,scream,starting,m,positive,negative,ES_purple,0,c,318,1785993,1786497,1786701
33,second,23,teuer,IAT_red2.bmp,red,starting_scream,scream,starting,c,negative,negative,ES_purple,1,c,533,1788592,1789097,1789301
33,second,24,munter,IAT_purple2.bmp,purple,ending_scream,scream,ending,m,positive,positive,ES_purple,1,m,1015,1790907,1791412,1791616
33,second,25,sozial,IAT_purple1.bmp,purple,ending_scream,scream,ending,m,positive,positive,ES_purple,1,m,642,1793704,1794208,1794412
33,second,26,krank,IAT_purple3.bmp,purple,ending_scream,scream,ending,c,negative,positive,ES_purple,1,c,430,1796128,1796632,1796836
33,second,27,ehrlich,IAT_purple1.bmp,purple,ending_scream,scream,ending,m,positive,positive,ES_purple,1,m,646,1798341,1798845,1799049
33,second,28,kaputt,IAT_purple2.bmp,purple,ending_scream,scream,ending,c,negative,positive,ES_purple,1,c,498,1800769,1801273,1801477
33,second,29,sozial,IAT_red1.bmp,red,starting_scream,scream,starting,m,positive,negative,ES_purple,0,c,353,1803049,1803554,1803758
33,second,30,brutal,IAT_green4.bmp,green,starting_melody,melody,starting,c,negative,positive,ES_purple,1,c,501,1805684,1806188,1806392
33,second,31,gesund,IAT_yellow3.bmp,yellow,ending_melody,melody,ending,m,positive,negative,ES_purple,0,c,460,1807967,1808471,1808675
33,second,32,lustig,IAT_purple1.bmp,purple,ending_scream,scream,ending,m,positive,positive,ES_purple,1,m,683,1810709,1811213,1811417
33,second,33,sonnig,IAT_green3.bmp,green,starting_melody,melody,starting,m,positive,positive,ES_purple,1,m,463,1813174,1813678,1813882
33,second,34,human,IAT_green1.bmp,green,starting_melody,melody,starting,m,positive,positive,ES_purple,1,m,508,1815417,1815922,1816126
33,second,35,falsch,IAT_green4.bmp,green,starting_melody,melody,starting,c,negative,positive,ES_purple,1,c,434,1817708,1818212,1818416
33,second,36,kaputt,IAT_red4.bmp,red,starting_scream,scream,starting,c,negative,negative,ES_purple,1,c,419,1819924,1820428,1820632
33,second,37,teuer,IAT_green1.bmp,green,starting_melody,melody,starting,c,negative,positive,ES_purple,1,c,549,1822124,1822629,1822833
33,second,38,witzig,IAT_green4.bmp,green,starting_melody,melody,starting,m,positive,positive,ES_purple,0,c,479,1824455,1824960,1825164
33,second,39,geizig,IAT_yellow3.bmp,yellow,ending_melody,melody,ending,c,negative,negative,ES_purple,1,c,516,1827216,1827720,1827924
33,second,40,feige,IAT_red3.bmp,red,starting_scream,scream,starting,c,negative,negative,ES_purple,1,c,426,1829514,1830018,1830222
33,second,41,einsam,IAT_yellow1.bmp,yellow,ending_melody,melody,ending,c,negative,negative,ES_purple,1,c,463,1831723,1832227,1832431
33,second,42,brutal,IAT_yellow4.bmp,yellow,ending_melody,melody,ending,c,negative,negative,ES_purple,1,c,386,1833968,1834472,1834676
33,second,43,lästig,IAT_purple2.bmp,purple,ending_scream,scream,ending,c,negative,positive,ES_purple,1,c,471,1836136,1836641,1836845
33,second,44,lustig,IAT_purple2.bmp,purple,ending_scream,scream,ending,m,positive,positive,ES_purple,0,c,427,1838390,1838894,1839098
33,second,45,schön,IAT_green1.bmp,green,starting_melody,melody,starting,m,positive,positive,ES_purple,1,m,461,1841099,1841603,1841807
33,second,46,heiter,IAT_yellow3.bmp,yellow,ending_melody,melody,ending,m,positive,negative,ES_purple,1,m,1012,1843342,1843846,1844050
33,second,47,gierig,IAT_red2.bmp,red,starting_scream,scream,starting,c,negative,negative,ES_purple,1,c,379,1846136,1846640,1846844
33,second,48,geizig,IAT_red2.bmp,red,starting_scream,scream,starting,c,negative,negative,ES_purple,1,c,460,1848297,1848801,1849005
33,second,49,falsch,IAT_green4.bmp,green,starting_melody,melody,starting,c,negative,positive,ES_purple,1,c,456,1850540,1851044,1851248
33,second,50,gesund,IAT_purple3.bmp,purple,ending_scream,scream,ending,m,positive,positive,ES_purple,0,c,351,1852778,1853282,1853486
33,second,51,feige,IAT_yellow3.bmp,yellow,ending_melody,melody,ending,c,negative,negative,ES_purple,1,c,473,1855411,1855915,1856119
33,second,52,streng,IAT_red1.bmp,red,starting_scream,scream,starting,c,negative,negative,ES_purple,1,c,487,1857665,1858169,1858373
33,second,53,munter,IAT_red3.bmp,red,starting_scream,scream,starting,m,positive,negative,ES_purple,1,m,882,1859934,1860438,1860642
33,second,54,sanft,IAT_yellow1.bmp,yellow,ending_melody,melody,ending,m,positive,negative,ES_purple,1,m,605,1862598,1863102,1863306
33,second,55,krank,IAT_red1.bmp,red,starting_scream,scream,starting,c,negative,negative,ES_purple,1,c,439,1864985,1865489,1865693
33,second,56,ehrlich,IAT_yellow4.bmp,yellow,ending_melody,melody,ending,m,positive,negative,ES_purple,1,m,642,1867207,1867711,1867915
33,second,57,sonnig,IAT_yellow2.bmp,yellow,ending_melody,melody,ending,m,positive,negative,ES_purple,0,c,453,1869631,1870135,1870339
33,second,58,teuer,IAT_purple4.bmp,purple,ending_scream,scream,ending,c,negative,positive,ES_purple,1,c,671,1872365,1872869,1873073
33,second,59,brutal,IAT_purple2.bmp,purple,ending_scream,scream,ending,c,negative,positive,ES_purple,1,c,561,1874818,1875322,1875526
33,second,60,feige,IAT_yellow2.bmp,yellow,ending_melody,melody,ending,c,negative,negative,ES_purple,1,c,499,1877161,1877665,1877869
33,second,61,gierig,IAT_yellow2.bmp,yellow,ending_melody,melody,ending,c,negative,negative,ES_purple,1,c,542,1879442,1879947,1880151
33,second,62,schön,IAT_green2.bmp,green,starting_melody,melody,starting,m,positive,positive,ES_purple,1,m,554,1881768,1882272,1882476
33,second,63,morsch,IAT_yellow4.bmp,yellow,ending_melody,melody,ending,c,negative,negative,ES_purple,1,c,517,1884105,1884609,1884813
33,second,64,sanft,IAT_red3.bmp,red,starting_scream,scream,starting,m,positive,negative,ES_purple,1,m,511,1886405,1886909,1887113
33,second,65,sozial,IAT_red2.bmp,red,starting_scream,scream,starting,m,positive,negative,ES_purple,0,c,417,1888698,1889202,1889406
33,second,66,sonnig,IAT_green3.bmp,green,starting_melody,melody,starting,m,positive,positive,ES_purple,1,m,840,1891396,1891900,1892104
33,second,67,gesund,IAT_red4.bmp,red,starting_scream,scream,starting,m,positive,negative,ES_purple,0,c,377,1894019,1894523,1894727
33,second,68,gerecht,IAT_red3.bmp,red,starting_scream,scream,starting,m,positive,negative,ES_purple,1,m,708,1896679,1897183,1897387
33,second,69,witzig,IAT_red3.bmp,red,starting_scream,scream,starting,m,positive,negative,ES_purple,0,c,769,1899169,1899673,1899877
33,second,70,geizig,IAT_purple4.bmp,purple,ending_scream,scream,ending,c,negative,positive,ES_purple,1,c,804,1902220,1902724,1902928
33,second,71,kaputt,IAT_red4.bmp,red,starting_scream,scream,starting,c,negative,negative,ES_purple,1,c,529,1904805,1905310,1905514
33,second,72,ehrlich,IAT_green3.bmp,green,starting_melody,melody,starting,m,positive,positive,ES_purple,1,m,445,1907118,1907622,1907826
33,second,73,lustig,IAT_purple3.bmp,purple,ending_scream,scream,ending,m,positive,positive,ES_purple,0,c,459,1909345,1909849,1910053
33,second,74,sanft,IAT_red1.bmp,red,starting_scream,scream,starting,m,positive,negative,ES_purple,1,m,583,1912086,1912591,1912795
33,second,75,munter,IAT_purple4.bmp,purple,ending_scream,scream,ending,m,positive,positive,ES_purple,1,m,432,1914451,1914956,1915160
33,second,76,gierig,IAT_yellow2.bmp,yellow,ending_melody,melody,ending,c,negative,negative,ES_purple,1,c,541,1916667,1917171,1917375
33,second,77,sanft,IAT_yellow1.bmp,yellow,ending_melody,melody,ending,m,positive,negative,ES_purple,1,m,637,1918990,1919494,1919698
33,second,78,falsch,IAT_red4.bmp,red,starting_scream,scream,starting,c,negative,negative,ES_purple,1,c,631,1921409,1921913,1922117
33,second,79,lästig,IAT_red4.bmp,red,starting_scream,scream,starting,c,negative,negative,ES_purple,1,c,370,1923823,1924327,1924531
33,second,80,ehrlich,IAT_yellow2.bmp,yellow,ending_melody,melody,ending,m,positive,negative,ES_purple,1,m,490,1925975,1926480,1926684
33,second,81,human,IAT_green2.bmp,green,starting_melody,melody,starting,m,positive,positive,ES_purple,1,m,311,1928247,1928751,1928955
33,second,82,heiter,IAT_red2.bmp,red,starting_scream,scream,starting,m,positive,negative,ES_purple,1,m,429,1930341,1930845,1931049
33,second,83,schön,IAT_yellow3.bmp,yellow,ending_melody,melody,ending,m,positive,negative,ES_purple,1,m,496,1932552,1933057,1933261
33,second,84,einsam,IAT_green4.bmp,green,starting_melody,melody,starting,c,negative,positive,ES_purple,0,m,463,1934831,1935335,1935539
33,second,85,lästig,IAT_green2.bmp,green,starting_melody,melody,starting,c,negative,positive,ES_purple,0,m,599,1937576,1938080,1938284
33,second,86,morsch,IAT_purple2.bmp,purple,ending_scream,scream,ending,c,negative,positive,ES_purple,1,c,492,1940457,1940961,1941165
33,second,87,witzig,IAT_green1.bmp,green,starting_melody,melody,starting,m,positive,positive,ES_purple,1,m,637,1942731,1943236,1943440
33,second,88,gerecht,IAT_purple3.bmp,purple,ending_scream,scream,ending,m,positive,positive,ES_purple,0,c,588,1945150,1945654,1945858
33,second,89,streng,IAT_green2.bmp,green,starting_melody,melody,starting,c,negative,positive,ES_purple,1,c,633,1948019,1948523,1948727
33,second,90,falsch,IAT_green2.bmp,green,starting_melody,melody,starting,c,negative,positive,ES_purple,1,c,586,1950433,1950938,1951142
33,second,91,munter,IAT_green1.bmp,green,starting_melody,melody,starting,m,positive,positive,ES_purple,1,m,456,1952802,1953306,1953510
33,second,92,gerecht,IAT_yellow4.bmp,yellow,ending_melody,melody,ending,m,positive,negative,ES_purple,1,m,499,1955041,1955545,1955749
33,second,93,heiter,IAT_yellow1.bmp,yellow,ending_melody,melody,ending,m,positive,negative,ES_purple,1,m,648,1957323,1957827,1958031
33,second,94,krank,IAT_purple3.bmp,purple,ending_scream,scream,ending,c,negative,positive,ES_purple,1,c,595,1959753,1960258,1960462
33,second,95,human,IAT_purple1.bmp,purple,ending_scream,scream,ending,m,positive,positive,ES_purple,1,m,1104,1962132,1962636,1962840
33,third,0,feige,IAT_red1.bmp,red,starting_scream,scream,starting,c,negative,negative,ES_purple,1,c,473,1991810,1992314,1992518
33,third,1,lustig,IAT_green2.bmp,green,starting_melody,melody,starting,m,positive,positive,ES_purple,1,m,370,1994065,1994569,1994773
33,third,2,schön,IAT_green3.bmp,green,starting_melody,melody,starting,m,positive,positive,ES_purple,1,m,374,1996216,1996720,1996924
33,third,3,sonnig,IAT_yellow4.bmp,yellow,ending_melody,melody,ending,m,positive,negative,ES_purple,1,m,518,1998372,1998876,1999080
33,third,4,lustig,IAT_green3.bmp,green,starting_melody,melody,starting,m,positive,positive,ES_purple,1,m,493,2000672,2001176,2001380
33,third,5,kaputt,IAT_yellow3.bmp,yellow,ending_melody,melody,ending,c,negative,negative,ES_purple,1,c,348,2002946,2003451,2003655
33,third,6,krank,IAT_green2.bmp,green,starting_melody,melody,starting,c,negative,positive,ES_purple,1,c,498,2005077,2005581,2005785
33,third,7,falsch,IAT_red2.bmp,red,starting_scream,scream,starting,c,negative,negative,ES_purple,1,c,495,2007356,2007861,2008065
33,third,8,sozial,IAT_yellow1.bmp,yellow,ending_melody,melody,ending,m,positive,negative,ES_purple,1,m,562,2009634,2010138,2010342
33,third,9,morsch,IAT_green4.bmp,green,starting_melody,melody,starting,c,negative,positive,ES_purple,1,c,406,2011978,2012482,2012686
33,third,10,gierig,IAT_purple1.bmp,purple,ending_scream,scream,ending,c,negative,positive,ES_purple,1,c,638,2014165,2014669,2014873
33,third,11,feige,IAT_yellow2.bmp,yellow,ending_melody,melody,ending,c,negative,negative,ES_purple,1,c,549,2016585,2017089,2017293
33,third,12,lästig,IAT_yellow4.bmp,yellow,ending_melody,melody,ending,c,negative,negative,ES_purple,0,m,550,2018916,2019420,2019624
33,third,13,human,IAT_purple1.bmp,purple,ending_scream,scream,ending,m,positive,positive,ES_purple,1,m,559,2021749,2022253,2022457
33,third,14,sozial,IAT_purple3.bmp,purple,ending_scream,scream,ending,m,positive,positive,ES_purple,1,m,444,2024089,2024594,2024798
33,third,15,witzig,IAT_purple2.bmp,purple,ending_scream,scream,ending,m,positive,positive,ES_purple,1,m,421,2026316,2026820,2027024
33,third,16,sanft,IAT_yellow2.bmp,yellow,ending_melody,melody,ending,m,positive,negative,ES_purple,1,m,541,2028519,2029023,2029227
33,third,17,einsam,IAT_green3.bmp,green,starting_melody,melody,starting,c,negative,positive,ES_purple,1,c,510,2030843,2031347,2031551
33,third,18,gesund,IAT_red1.bmp,red,starting_scream,scream,starting,m,positive,negative,ES_purple,0,c,429,2033134,2033639,2033843
33,third,19,kaputt,IAT_yellow4.bmp,yellow,ending_melody,melody,ending,c,negative,negative,ES_purple,1,c,581,2035846,2036350,2036554
33,third,20,streng,IAT_red4.bmp,red,starting_scream,scream,starting,c,negative,negative,ES_purple,1,c,454,2038209,2038713,2038917
33,third,21,heiter,IAT_yellow3.bmp,yellow,ending_melody,melody,ending,m,positive,negative,ES_purple,1,m,525,2040444,2040949,2041153
33,third,22,teuer,IAT_purple2.bmp,purple,ending_scream,scream,ending,c,negative,positive,ES_purple,1,c,597,2042753,2043258,2043462
33,third,23,human,IAT_yellow1.bmp,yellow,ending_melody,melody,ending,m,positive,negative,ES_purple,1,m,480,2045133,2045637,2045841
33,third,24,witzig,IAT_green3.bmp,green,starting_melody,melody,starting,m,positive,positive,ES_purple,0,c,457,2047394,2047899,2048103
33,third,25,streng,IAT_purple1.bmp,purple,ending_scream,scream,ending,c,negative,positive,ES_purple,1,c,520,2050134,2050638,2050842
33,third,26,sonnig,IAT_red2.bmp,red,starting_scream,scream,starting,m,positive,negative,ES_purple,1,m,530,2052435,2052940,2053144
33,third,27,sanft,IAT_yellow1.bmp,yellow,ending_melody,melody,ending,m,positive,negative,ES_purple,1,m,577,2054748,2055252,2055456
33,third,28,schön,IAT_yellow4.bmp,yellow,ending_melody,melody,ending,m,positive,negative,ES_purple,1,m,413,2057108,2057612,2057816
33,third,29,human,IAT_green4.bmp,green,starting_melody,melody,starting,m,positive,positive,ES_purple,1,m,459,2059303,2059807,2060011
33,third,30,einsam,IAT_green1.bmp,green,starting_melody,melody,starting,c,negative,positive,ES_purple,1,c,531,2061543,2062048,2062252
33,third,31,kaputt,IAT_red3.bmp,red,starting_scream,scream,starting,c,negative,negative,ES_purple,1,c,404,2063856,2064361,2064565
33,third,32,gerecht,IAT_yellow1.bmp,yellow,ending_melody,melody,ending,m,positive,negative,ES_purple,0,c,610,2066044,2066548,2066752
33,third,33,geizig,IAT_red2.bmp,red,starting_scream,scream,starting,c,negative,negative,ES_purple,1,c,433,2068936,2069440,2069644
33,third,34,falsch,IAT_purple2.bmp,purple,ending_scream,scream,ending,c,negative,positive,ES_purple,1,c,535,2071150,2071655,2071859
33,third,35,lustig,IAT_red4.bmp,red,starting_scream,scream,starting,m,positive,negative,ES_purple,1,m,674,2073468,2073972,2074176
33,third,36,munter,IAT_purple2.bmp,purple,ending_scream,scream,ending,m,positive,positive,ES_purple,0,c,782,2075924,2076429,2076633
33,third,37,teuer,IAT_purple3.bmp,purple,ending_scream,scream,ending,c,negative,positive,ES_purple,1,c,650,2078988,2079493,2079697
33,third,38,feige,IAT_green4.bmp,green,starting_melody,melody,starting,c,negative,positive,ES_purple,1,c,1140,2081422,2081926,2082130
33,third,39,einsam,IAT_purple4.bmp,purple,ending_scream,scream,ending,c,negative,positive,ES_purple,1,c,488,2084343,2084848,2085052
33,third,40,lästig,IAT_yellow2.bmp,yellow,ending_melody,melody,ending,c,negative,negative,ES_purple,1,c,625,2086614,2087118,2087322
33,third,41,teuer,IAT_green2.bmp,green,starting_melody,melody,starting,c,negative,positive,ES_purple,1,c,466,2089022,2089526,2089730
33,third,42,gerecht,IAT_green4.bmp,green,starting_melody,melody,starting,m,positive,positive,ES_purple,1,m,657,2091269,2091774,2091978
33,third,43,schön,IAT_red2.bmp,red,starting_scream,scream,starting,m,positive,negative,ES_purple,1,m,501,2093709,2094213,2094417
33,third,44,morsch,IAT_green2.bmp,green,starting_melody,melody,starting,c,negative,positive,ES_purple,1,c,460,2095993,2096497,2096701
33,third,45,sanft,IAT_yellow3.bmp,yellow,ending_melody,melody,ending,m,positive,negative,ES_purple,1,m,491,2098235,2098740,2098944
33,third,46,munter,IAT_red4.bmp,red,starting_scream,scream,starting,m,positive,negative,ES_purple,1,m,594,2100510,2101014,2101218
33,third,47,gesund,IAT_red3.bmp,red,starting_scream,scream,starting,m,positive,negative,ES_purple,1,m,439,2102886,2103390,2103594
33,third,48,brutal,IAT_red2.bmp,red,starting_scream,scream,starting,c,negative,negative,ES_purple,1,c,541,2105108,2105613,2105817
33,third,49,streng,IAT_purple2.bmp,purple,ending_scream,scream,ending,c,negative,positive,ES_purple,1,c,591,2107432,2107936,2108140
33,third,50,feige,IAT_green4.bmp,green,starting_melody,melody,starting,c,negative,positive,ES_purple,1,c,466,2109805,2110309,2110513
33,third,51,falsch,IAT_yellow4.bmp,yellow,ending_melody,melody,ending,c,negative,negative,ES_purple,1,c,432,2112054,2112558,2112762
33,third,52,einsam,IAT_purple4.bmp,purple,ending_scream,scream,ending,c,negative,positive,ES_purple,1,c,373,2114268,2114773,2114977
33,third,53,heiter,IAT_red1.bmp,red,starting_scream,scream,starting,m,positive,negative,ES_purple,1,m,454,2116425,2116929,2117133
33,third,54,brutal,IAT_yellow3.bmp,yellow,ending_melody,melody,ending,c,negative,negative,ES_purple,1,c,370,2118660,2119165,2119369
33,third,55,witzig,IAT_purple1.bmp,purple,ending_scream,scream,ending,m,positive,positive,ES_purple,1,m,574,2120814,2121318,2121522
33,third,56,sozial,IAT_purple3.bmp,purple,ending_scream,scream,ending,m,positive,positive,ES_purple,1,m,527,2123170,2123674,2123878
33,third,57,krank,IAT_red4.bmp,red,starting_scream,scream,starting,c,negative,negative,ES_purple,1,c,468,2125478,2125983,2126187
33,third,58,lästig,IAT_purple4.bmp,purple,ending_scream,scream,ending,c,negative,positive,ES_purple,0,m,488,2127729,2128233,2128437
33,third,59,ehrlich,IAT_green3.bmp,green,starting_melody,melody,starting,m,positive,positive,ES_purple,1,m,584,2130499,2131003,2131207
33,third,60,lustig,IAT_purple4.bmp,purple,ending_scream,scream,ending,m,positive,positive,ES_purple,0,c,373,2132865,2133369,2133573
33,third,61,streng,IAT_green3.bmp,green,starting_melody,melody,starting,c,negative,positive,ES_purple,1,c,591,2135521,2136025,2136229
33,third,62,heiter,IAT_purple3.bmp,purple,ending_scream,scream,ending,m,positive,positive,ES_purple,1,m,570,2137893,2138398,2138602
33,third,63,brutal,IAT_purple4.bmp,purple,ending_scream,scream,ending,c,negative,positive,ES_purple,1,c,446,2140245,2140749,2140953
33,third,64,witzig,IAT_purple3.bmp,purple,ending_scream,scream,ending,m,positive,positive,ES_purple,1,m,556,2142474,2142978,2143182
33,third,65,munter,IAT_red3.bmp,red,starting_scream,scream,starting,m,positive,negative,ES_purple,0,c,532,2144813,2145317,2145521
33,third,66,morsch,IAT_red1.bmp,red,starting_scream,scream,starting,c,negative,negative,ES_purple,1,c,666,2147628,2148132,2148336
33,third,67,gesund,IAT_green2.bmp,green,starting_melody,melody,starting,m,positive,positive,ES_purple,1,m,808,2150076,2150581,2150785
33,third,68,lästig,IAT_yellow1.bmp,yellow,ending_melody,melody,ending,c,negative,negative,ES_purple,1,c,535,2152668,2153172,2153376
33,third,69,munter,IAT_red1.bmp,red,starting_scream,scream,starting,m,positive,negative,ES_purple,0,c,794,2154985,2155490,2155694
33,third,70,krank,IAT_green4.bmp,green,starting_melody,melody,starting,c,negative,positive,ES_purple,1,c,564,2158063,2158568,2158772
33,third,71,gierig,IAT_red4.bmp,red,starting_scream,scream,starting,c,negative,negative,ES_purple,1,c,878,2160411,2160915,2161119
33,third,72,sozial,IAT_green1.bmp,green,starting_melody,melody,starting,m,positive,positive,ES_purple,1,m,1121,2163072,2163576,2163780
33,third,73,sonnig,IAT_purple1.bmp,purple,ending_scream,scream,ending,m,positive,positive,ES_purple,1,m,458,2165975,2166480,2166684
33,third,74,falsch,IAT_red2.bmp,red,starting_scream,scream,starting,c,negative,negative,ES_purple,1,c,407,2168217,2168721,2168925
33,third,75,gerecht,IAT_purple4.bmp,purple,ending_scream,scream,ending,m,positive,positive,ES_purple,0,c,653,2170406,2170910,2171114
33,third,76,ehrlich,IAT_red1.bmp,red,starting_scream,scream,starting,m,positive,negative,ES_purple,1,m,907,2173340,2173845,2174049
33,third,77,sonnig,IAT_green1.bmp,green,starting_melody,melody,starting,m,positive,positive,ES_purple,1,m,567,2176029,2176533,2176737
33,third,78,brutal,IAT_red3.bmp,red,starting_scream,scream,starting,c,negative,negative,ES_purple,1,c,554,2178379,2178883,2179087
33,third,79,morsch,IAT_green2.bmp,green,starting_melody,melody,starting,c,negative,positive,ES_purple,1,c,519,2180715,2181219,2181423
33,third,80,sanft,IAT_red3.bmp,red,starting_scream,scream,starting,m,positive,negative,ES_purple,1,m,571,2183017,2183521,2183725
33,third,81,teuer,IAT_red4.bmp,red,starting_scream,scream,starting,c,negative,negative,ES_purple,1,c,669,2185370,2185875,2186079
33,third,82,ehrlich,IAT_purple1.bmp,purple,ending_scream,scream,ending,m,positive,positive,ES_purple,0,c,922,2187822,2188326,2188530
33,third,83,human,IAT_yellow3.bmp,yellow,ending_melody,melody,ending,m,positive,negative,ES_purple,1,m,542,2191026,2191530,2191734
33,third,84,gesund,IAT_red3.bmp,red,starting_scream,scream,starting,m,positive,negative,ES_purple,1,m,631,2193351,2193855,2194059
33,third,85,geizig,IAT_purple2.bmp,purple,ending_scream,scream,ending,c,negative,positive,ES_purple,1,c,1054,2195765,2196269,2196473
33,third,86,gierig,IAT_yellow2.bmp,yellow,ending_melody,melody,ending,c,negative,negative,ES_purple,1,c,799,2198602,2199107,2199311
33,third,87,geizig,IAT_yellow1.bmp,yellow,ending_melody,melody,ending,c,negative,negative,ES_purple,1,c,1263,2201185,2201689,2201893
33,third,88,schön,IAT_yellow2.bmp,yellow,ending_melody,melody,ending,m,positive,negative,ES_purple,1,m,618,2204230,2204734,2204938
33,third,89,krank,IAT_purple3.bmp,purple,ending_scream,scream,ending,c,negative,positive,ES_purple,1,c,614,2206630,2207134,2207338
33,third,90,ehrlich,IAT_yellow3.bmp,yellow,ending_melody,melody,ending,m,positive,negative,ES_purple,1,m,722,2209026,2209530,2209734
33,third,91,geizig,IAT_yellow2.bmp,yellow,ending_melody,melody,ending,c,negative,negative,ES_purple,1,c,570,2211531,2212035,2212239
33,third,92,gierig,IAT_green1.bmp,green,starting_melody,melody,starting,c,negative,positive,ES_purple,1,c,1365,2213884,2214388,2214592
33,third,93,heiter,IAT_green1.bmp,green,starting_melody,melody,starting,m,positive,positive,ES_purple,1,m,518,2217031,2217535,2217739
33,third,94,gerecht,IAT_green1.bmp,green,starting_melody,melody,starting,m,positive,positive,ES_purple,1,m,647,2219331,2219835,2220039
33,third,95,kaputt,IAT_yellow4.bmp,yellow,ending_melody,melody,ending,c,negative,negative,ES_purple,1,c,783,2221761,2222265,2222469
33,forth,0,geizig,IAT_purple4.bmp,purple,ending_scream,scream,ending,c,negative,positive,ES_purple,1,c,524,2229722,2230226,2230430
33,forth,1,sanft,IAT_purple3.bmp,purple,ending_scream,scream,ending,m,positive,positive,ES_purple,1,m,494,2232029,2232533,2232738
33,forth,2,krank,IAT_green1.bmp,green,starting_melody,melody,starting,c,negative,positive,ES_purple,1,c,373,2234305,2234809,2235013
33,forth,3,lustig,IAT_yellow3.bmp,yellow,ending_melody,melody,ending,m,positive,negative,ES_purple,1,m,468,2236460,2236965,2237169
33,forth,4,teuer,IAT_green4.bmp,green,starting_melody,melody,starting,c,negative,positive,ES_purple,1,c,536,2238711,2239215,2239419
33,forth,5,sozial,IAT_green2.bmp,green,starting_melody,melody,starting,m,positive,positive,ES_purple,1,m,486,2241028,2241532,2241736
33,forth,6,falsch,IAT_red3.bmp,red,starting_scream,scream,starting,c,negative,negative,ES_purple,1,c,475,2243295,2243800,2244004
33,forth,7,ehrlich,IAT_purple1.bmp,purple,ending_scream,scream,ending,m,positive,positive,ES_purple,1,m,617,2245553,2246058,2246262
33,forth,8,schön,IAT_red2.bmp,red,starting_scream,scream,starting,m,positive,negative,ES_purple,1,m,524,2247954,2248459,2248663
33,forth,9,einsam,IAT_red2.bmp,red,starting_scream,scream,starting,c,negative,negative,ES_purple,1,c,671,2250261,2250766,2250970
33,forth,10,geizig,IAT_purple3.bmp,purple,ending_scream,scream,ending,c,negative,positive,ES_purple,1,c,497,2252715,2253219,2253423
33,forth,11,sonnig,IAT_green4.bmp,green,starting_melody,melody,starting,m,positive,positive,ES_purple,1,m,646,2254994,2255498,2255702
33,forth,12,munter,IAT_green4.bmp,green,starting_melody,melody,starting,m,positive,positive,ES_purple,1,m,660,2257422,2257926,2258130
33,forth,13,gesund,IAT_red1.bmp,red,starting_scream,scream,starting,m,positive,negative,ES_purple,0,c,414,2259864,2260368,2260572
33,forth,14,lustig,IAT_red3.bmp,red,starting_scream,scream,starting,m,positive,negative,ES_purple,1,m,500,2262561,2263065,2263269
33,forth,15,einsam,IAT_green4.bmp,green,starting_melody,melody,starting,c,negative,positive,ES_purple,1,c,467,2264843,2265347,2265551
33,forth,16,krank,IAT_yellow1.bmp,yellow,ending_melody,melody,ending,c,negative,negative,ES_purple,1,c,545,2267093,2267597,2267801
33,forth,17,gerecht,IAT_yellow1.bmp,yellow,ending_melody,melody,ending,m,positive,negative,ES_purple,1,m,537,2269421,2269925,2270129
33,forth,18,sozial,IAT_yellow3.bmp,yellow,ending_melody,melody,ending,m,positive,negative,ES_purple,0,c,628,2271741,2272245,2272449
33,forth,19,teuer,IAT_red4.bmp,red,starting_scream,scream,starting,c,negative,negative,ES_purple,1,c,627,2274652,2275156,2275360
33,forth,20,kaputt,IAT_purple2.bmp,purple,ending_scream,scream,ending,c,negative,positive,ES_purple,1,c,536,2277061,2277565,2277769
33,forth,21,heiter,IAT_yellow1.bmp,yellow,ending_melody,melody,ending,m,positive,negative,ES_purple,1,m,526,2279379,2279883,2280087
33,forth,22,morsch,IAT_purple3.bmp,purple,ending_scream,scream,ending,c,negative,positive,ES_purple,1,c,451,2281687,2282191,2282395
33,forth,23,gesund,IAT_purple3.bmp,purple,ending_scream,scream,ending,m,positive,positive,ES_purple,0,c,835,2283920,2284425,2284629
33,forth,24,gerecht,IAT_yellow4.bmp,yellow,ending_melody,melody,ending,m,positive,negative,ES_purple,1,m,695,2287038,2287542,2287746
33,forth,25,feige,IAT_red3.bmp,red,starting_scream,scream,starting,c,negative,negative,ES_purple,1,c,538,2289515,2290019,2290223
33,forth,26,sanft,IAT_yellow3.bmp,yellow,ending_melody,melody,ending,m,positive,negative,ES_purple,1,m,550,2291835,2292339,2292543
33,forth,27,geizig,IAT_red4.bmp,red,starting_scream,scream,starting,c,negative,negative,ES_purple,1,c,663,2294167,2294672,2294876
33,forth,28,falsch,IAT_yellow3.bmp,yellow,ending_melody,melody,ending,c,negative,negative,ES_purple,1,c,1192,2296614,2297118,2297322
33,forth,29,brutal,IAT_yellow2.bmp,yellow,ending_melody,melody,ending,c,negative,negative,ES_purple,1,c,559,2299588,2300092,2300296
33,forth,30,ehrlich,IAT_purple3.bmp,purple,ending_scream,scream,ending,m,positive,positive,ES_purple,1,m,1183,2301929,2302433,2302637
33,forth,31,munter,IAT_green1.bmp,green,starting_melody,melody,starting,m,positive,positive,ES_purple,0,c,604,2304895,2305399,2305603
33,forth,32,einsam,IAT_green4.bmp,green,starting_melody,melody,starting,c,negative,positive,ES_purple,1,c,609,2307782,2308286,2308490
33,forth,33,lustig,IAT_purple3.bmp,purple,ending_scream,scream,ending,m,positive,positive,ES_purple,1,m,640,2310173,2310678,2310882
33,forth,34,geizig,IAT_green2.bmp,green,starting_melody,melody,starting,c,negative,positive,ES_purple,1,c,690,2312595,2313100,2313304
33,forth,35,human,IAT_green2.bmp,green,starting_melody,melody,starting,m,positive,positive,ES_purple,1,m,518,2315068,2315573,2315777
33,forth,36,brutal,IAT_yellow2.bmp,yellow,ending_melody,melody,ending,c,negative,negative,ES_purple,1,c,617,2317370,2317874,2318078
33,forth,37,teuer,IAT_red4.bmp,red,starting_scream,scream,starting,c,negative,negative,ES_purple,1,c,452,2319769,2320273,2320477
33,forth,38,sonnig,IAT_green1.bmp,green,starting_melody,melody,starting,m,positive,positive,ES_purple,1,m,553,2322004,2322508,2322712
33,forth,39,gierig,IAT_green2.bmp,green,starting_melody,melody,starting,c,negative,positive,ES_purple,1,c,552,2324339,2324843,2325047
33,forth,40,human,IAT_red3.bmp,red,starting_scream,scream,starting,m,positive,negative,ES_purple,1,m,521,2326674,2327178,2327382
33,forth,41,gerecht,IAT_red2.bmp,red,starting_scream,scream,starting,m,positive,negative,ES_purple,0,c,423,2328977,2329482,2329686
33,forth,42,lästig,IAT_yellow4.bmp,yellow,ending_melody,melody,ending,c,negative,negative,ES_purple,1,c,691,2331684,2332188,2332392
33,forth,43,kaputt,IAT_yellow4.bmp,yellow,ending_melody,melody,ending,c,negative,negative,ES_purple,1,c,977,2334158,2334663,2334867
33,forth,44,sozial,IAT_purple2.bmp,purple,ending_scream,scream,ending,m,positive,positive,ES_purple,0,c,608,2336918,2337422,2337626
33,forth,45,streng,IAT_red1.bmp,red,starting_scream,scream,starting,c,negative,negative,ES_purple,1,c,548,2339809,2340313,2340517
33,forth,46,lästig,IAT_purple2.bmp,purple,ending_scream,scream,ending,c,negative,positive,ES_purple,0,m,538,2342140,2342644,2342848
33,forth,47,morsch,IAT_red4.bmp,red,starting_scream,scream,starting,c,negative,negative,ES_purple,1,c,522,2344959,2345463,2345667
33,forth,48,einsam,IAT_green3.bmp,green,starting_melody,melody,starting,c,negative,positive,ES_purple,1,c,571,2347264,2347768,2347972
33,forth,49,kaputt,IAT_green2.bmp,green,starting_melody,melody,starting,c,negative,positive,ES_purple,1,c,600,2349616,2350121,2350325
33,forth,50,lästig,IAT_purple2.bmp,purple,ending_scream,scream,ending,c,negative,positive,ES_purple,1,c,458,2351999,2352504,2352708
33,forth,51,gierig,IAT_red2.bmp,red,starting_scream,scream,starting,c,negative,negative,ES_purple,1,c,445,2354240,2354744,2354948
33,forth,52,gerecht,IAT_red4.bmp,red,starting_scream,scream,starting,m,positive,negative,ES_purple,1,m,636,2356468,2356972,2357176
33,forth,53,sonnig,IAT_purple1.bmp,purple,ending_scream,scream,ending,m,positive,positive,ES_purple,1,m,767,2358885,2359389,2359593
33,forth,54,witzig,IAT_green3.bmp,green,starting_melody,melody,starting,m,positive,positive,ES_purple,1,m,1334,2361435,2361939,2362143
33,forth,55,gesund,IAT_yellow2.bmp,yellow,ending_melody,melody,ending,m,positive,negative,ES_purple,1,m,464,2364552,2365057,2365261
33,forth,56,feige,IAT_green2.bmp,green,starting_melody,melody,starting,c,negative,positive,ES_purple,1,c,531,2366799,2367303,2367507
33,forth,57,heiter,IAT_red3.bmp,red,starting_scream,scream,starting,m,positive,negative,ES_purple,1,m,514,2369114,2369618,2369822
33,forth,58,gierig,IAT_purple1.bmp,purple,ending_scream,scream,ending,c,negative,positive,ES_purple,1,c,832,2371411,2371915,2372119
33,forth,59,streng,IAT_green3.bmp,green,starting_melody,melody,starting,c,negative,positive,ES_purple,1,c,589,2374024,2374529,2374733
33,forth,60,schön,IAT_red1.bmp,red,starting_scream,scream,starting,m,positive,negative,ES_purple,1,m,615,2376396,2376901,2377105
33,forth,61,sonnig,IAT_red1.bmp,red,starting_scream,scream,starting,m,positive,negative,ES_purple,0,c,393,2378795,2379299,2379503
33,forth,62,munter,IAT_green1.bmp,green,starting_melody,melody,starting,m,positive,positive,ES_purple,1,m,918,2381470,2381974,2382178
33,forth,63,gierig,IAT_red1.bmp,red,starting_scream,scream,starting,c,negative,negative,ES_purple,1,c,528,2384171,2384675,2384879
33,forth,64,sozial,IAT_green3.bmp,green,starting_melody,melody,starting,m,positive,positive,ES_purple,1,m,540,2386482,2386986,2387190
33,forth,65,lustig,IAT_green3.bmp,green,starting_melody,melody,starting,m,positive,positive,ES_purple,1,m,492,2388804,2389308,2389512
33,forth,66,human,IAT_yellow1.bmp,yellow,ending_melody,melody,ending,m,positive,negative,ES_purple,1,m,559,2391079,2391584,2391788
33,forth,67,witzig,IAT_red4.bmp,red,starting_scream,scream,starting,m,positive,negative,ES_purple,1,m,615,2393422,2393926,2394130
33,forth,68,morsch,IAT_yellow4.bmp,yellow,ending_melody,melody,ending,c,negative,negative,ES_purple,1,c,592,2395819,2396324,2396528
33,forth,69,falsch,IAT_red2.bmp,red,starting_scream,scream,starting,c,negative,negative,ES_purple,1,c,775,2398195,2398699,2398903
33,forth,70,streng,IAT_green4.bmp,green,starting_melody,melody,starting,c,negative,positive,ES_purple,1,c,615,2400753,2401257,2401461
33,forth,71,feige,IAT_yellow2.bmp,yellow,ending_melody,melody,ending,c,negative,negative,ES_purple,1,c,534,2403151,2403656,2403860
33,forth,72,brutal,IAT_purple4.bmp,purple,ending_scream,scream,ending,c,negative,positive,ES_purple,1,c,540,2405468,2405973,2406177
33,forth,73,sanft,IAT_yellow3.bmp,yellow,ending_melody,melody,ending,m,positive,negative,ES_purple,1,m,649,2407792,2408296,2408500
33,forth,74,heiter,IAT_red3.bmp,red,starting_scream,scream,starting,m,positive,negative,ES_purple,1,m,509,2410224,2410728,2410932
33,forth,75,sanft,IAT_yellow1.bmp,yellow,ending_melody,melody,ending,m,positive,negative,ES_purple,1,m,736,2412515,2413020,2413224
33,forth,76,feige,IAT_green1.bmp,green,starting_melody,melody,starting,c,negative,positive,ES_purple,1,c,545,2415034,2415538,2415742
33,forth,77,heiter,IAT_purple2.bmp,purple,ending_scream,scream,ending,m,positive,positive,ES_purple,1,m,460,2417362,2417866,2418070
33,forth,78,brutal,IAT_yellow1.bmp,yellow,ending_melody,melody,ending,c,negative,negative,ES_purple,1,c,769,2419604,2420109,2420313
33,forth,79,falsch,IAT_yellow4.bmp,yellow,ending_melody,melody,ending,c,negative,negative,ES_purple,1,c,769,2422157,2422661,2422865
33,forth,80,schön,IAT_red1.bmp,red,starting_scream,scream,starting,m,positive,negative,ES_purple,1,m,546,2424709,2425213,2425417
33,forth,81,krank,IAT_purple4.bmp,purple,ending_scream,scream,ending,c,negative,positive,ES_purple,1,c,509,2427037,2427541,2427745
33,forth,82,kaputt,IAT_purple1.bmp,purple,ending_scream,scream,ending,c,negative,positive,ES_purple,1,c,609,2429329,2429833,2430037
33,forth,83,witzig,IAT_purple4.bmp,purple,ending_scream,scream,ending,m,positive,positive,ES_purple,1,m,853,2431723,2432227,2432431
33,forth,84,human,IAT_green3.bmp,green,starting_melody,melody,starting,m,positive,positive,ES_purple,1,m,463,2434359,2434863,2435067
33,forth,85,lästig,IAT_yellow2.bmp,yellow,ending_melody,melody,ending,c,negative,negative,ES_purple,1,c,396,2436605,2437110,2437314
33,forth,86,krank,IAT_yellow3.bmp,yellow,ending_melody,melody,ending,c,negative,negative,ES_purple,1,c,553,2438784,2439289,2439493
33,forth,87,streng,IAT_purple2.bmp,purple,ending_scream,scream,ending,c,negative,positive,ES_purple,1,c,563,2441121,2441625,2441829
33,forth,88,ehrlich,IAT_purple4.bmp,purple,ending_scream,scream,ending,m,positive,positive,ES_purple,1,m,726,2443466,2443970,2444174
33,forth,89,gesund,IAT_purple1.bmp,purple,ending_scream,scream,ending,m,positive,positive,ES_purple,1,m,522,2445975,2446479,2446683
33,forth,90,teuer,IAT_red2.bmp,red,starting_scream,scream,starting,c,negative,negative,ES_purple,1,c,645,2448280,2448784,2448988
33,forth,91,schön,IAT_green1.bmp,green,starting_melody,melody,starting,m,positive,positive,ES_purple,1,m,480,2450707,2451211,2451415
33,forth,92,ehrlich,IAT_purple1.bmp,purple,ending_scream,scream,ending,m,positive,positive,ES_purple,1,m,509,2452971,2453475,2453679
33,forth,93,morsch,IAT_purple4.bmp,purple,ending_scream,scream,ending,c,negative,positive,ES_purple,1,c,434,2455263,2455768,2455972
33,forth,94,munter,IAT_yellow4.bmp,yellow,ending_melody,melody,ending,m,positive,negative,ES_purple,1,m,581,2457482,2457986,2458190
33,forth,95,witzig,IAT_yellow2.bmp,yellow,ending_melody,melody,ending,m,positive,negative,ES_purple,0,c,448,2459845,2460349,2460553
