subject_nr,block,trialnr,trial_target,trial_prime,prime_color,prime_role,prime_us,prime_relation,correct_response,target_valence,prime_valence,color_counter,correct_first_response,response_first_response,response_time_first_response,fixation_show,prime_show,target_show
1,first,0,feige,IAT_purple4.bmp,purple,starting_melody,melody,starting,c,negative,positive,ES_red,1,c,1143,1542322,1542826,1543030
1,first,1,sonnig,IAT_purple2.bmp,purple,starting_melody,melody,starting,m,positive,positive,ES_red,1,m,607,1545250,1545754,1545958
1,first,2,kaputt,IAT_green2.bmp,green,ending_melody,melody,ending,c,negative,negative,ES_red,0,m,650,1547639,1548144,1548348
1,first,3,witzig,IAT_green3.bmp,green,ending_melody,melody,ending,m,positive,negative,ES_red,1,m,753,1550575,1551079,1551283
1,first,4,morsch,IAT_green4.bmp,green,ending_melody,melody,ending,c,negative,negative,ES_red,1,c,810,1553111,1553615,1553819
1,first,5,gesund,IAT_green1.bmp,green,ending_melody,melody,ending,m,positive,negative,ES_red,1,m,861,1555703,1556207,1556411
1,first,6,heiter,IAT_yellow2.bmp,yellow,starting_scream,scream,starting,m,positive,negative,ES_red,0,c,798,1558347,1558851,1559055
1,first,7,schön,IAT_red3.bmp,red,ending_scream,scream,ending,m,positive,positive,ES_red,1,m,1007,1561429,1561933,1562137
1,first,8,teuer,IAT_yellow1.bmp,yellow,starting_scream,scream,starting,c,negative,negative,ES_red,1,c,726,1564219,1564723,1564927
1,first,9,sonnig,IAT_green4.bmp,green,ending_melody,melody,ending,m,positive,negative,ES_red,1,m,653,1566729,1567233,1567437
1,first,10,kaputt,IAT_purple3.bmp,purple,starting_melody,melody,starting,c,negative,positive,ES_red,1,c,856,1569163,1569668,1569872
1,first,11,brutal,IAT_green3.bmp,green,ending_melody,melody,ending,c,negative,negative,ES_red,1,c,789,1571803,1572308,1572512
1,first,12,falsch,IAT_red2.bmp,red,ending_scream,scream,ending,c,negative,positive,ES_red,1,c,684,1574375,1574879,1575083
1,first,13,geizig,IAT_yellow4.bmp,yellow,starting_scream,scream,starting,c,negative,negative,ES_red,0,m,880,1576841,1577345,1577549
1,first,14,human,IAT_green3.bmp,green,ending_melody,melody,ending,m,positive,negative,ES_red,1,m,711,1580004,1580508,1580712
1,first,15,einsam,IAT_purple4.bmp,purple,starting_melody,melody,starting,c,negative,positive,ES_red,1,c,811,1582497,1583001,1583205
1,first,16,gierig,IAT_green1.bmp,green,ending_melody,melody,ending,c,negative,negative,ES_red,0,m,1124,1585090,1585594,1585798
1,first,17,brutal,IAT_purple1.bmp,purple,starting_melody,melody,starting,c,negative,positive,ES_red,1,c,1164,1588496,1589000,1589204
1,first,18,lästig,IAT_yellow3.bmp,yellow,starting_scream,scream,starting,c,negative,negative,ES_red,0,m,943,1591442,1591946,1592150
1,first,19,heiter,IAT_purple1.bmp,purple,starting_melody,melody,starting,m,positive,positive,ES_red,1,m,638,1594667,1595171,1595375
1,first,20,schön,IAT_purple1.bmp,purple,starting_melody,melody,starting,m,positive,positive,ES_red,1,m,621,1597088,1597593,1597797
1,first,21,morsch,IAT_red2.bmp,red,ending_scream,scream,ending,c,negative,positive,ES_red,1,c,790,1599493,1599997,1600201
1,first,22,geizig,IAT_green3.bmp,green,ending_melody,melody,ending,c,negative,negative,ES_red,0,m,1084,1602065,1602569,1602773
1,first,23,einsam,IAT_yellow4.bmp,yellow,starting_scream,scream,starting,c,negative,negative,ES_red,1,c,959,1605431,1605936,1606140
1,first,24,morsch,IAT_purple1.bmp,purple,starting_melody,melody,starting,c,negative,positive,ES_red,1,c,1018,1608173,1608677,1608881
1,first,25,sozial,IAT_yellow4.bmp,yellow,starting_scream,scream,starting,m,positive,negative,ES_red,1,m,1049,1610973,1611477,1611681
1,first,26,streng,IAT_red1.bmp,red,ending_scream,scream,ending,c,negative,positive,ES_red,1,c,761,1613805,1614309,1614513
1,first,27,krank,IAT_green2.bmp,green,ending_melody,melody,ending,c,negative,negative,ES_red,1,c,657,1616349,1616853,1617057
1,first,28,munter,IAT_yellow1.bmp,yellow,starting_scream,scream,starting,m,positive,negative,ES_red,0,c,1080,1618789,1619293,1619497
1,first,29,sozial,IAT_green1.bmp,green,ending_melody,melody,ending,m,positive,negative,ES_red,1,m,888,1622151,1622656,1622860
1,first,30,teuer,IAT_yellow4.bmp,yellow,starting_scream,scream,starting,c,negative,negative,ES_red,1,c,690,1624823,1625327,1625531
1,first,31,brutal,IAT_yellow4.bmp,yellow,starting_scream,scream,starting,c,negative,negative,ES_red,1,c,763,1627295,1627799,1628003
1,first,32,sonnig,IAT_red2.bmp,red,ending_scream,scream,ending,m,positive,positive,ES_red,1,m,599,1629841,1630345,1630549
1,first,33,feige,IAT_yellow2.bmp,yellow,starting_scream,scream,starting,c,negative,negative,ES_red,1,c,1028,1632223,1632727,1632931
1,first,34,witzig,IAT_purple1.bmp,purple,starting_melody,melody,starting,m,positive,positive,ES_red,1,m,858,1635034,1635538,1635742
1,first,35,sozial,IAT_purple3.bmp,purple,starting_melody,melody,starting,m,positive,positive,ES_red,0,c,715,1637674,1638179,1638383
1,first,36,streng,IAT_red4.bmp,red,ending_scream,scream,ending,c,negative,positive,ES_red,1,c,619,1640673,1641177,1641381
1,first,37,gerecht,IAT_yellow3.bmp,yellow,starting_scream,scream,starting,m,positive,negative,ES_red,1,m,845,1643075,1643579,1643783
1,first,38,lustig,IAT_red1.bmp,red,ending_scream,scream,ending,m,positive,positive,ES_red,1,m,1095,1645703,1646207,1646411
1,first,39,ehrlich,IAT_purple4.bmp,purple,starting_melody,melody,starting,m,positive,positive,ES_red,1,m,604,1648581,1649085,1649289
1,first,40,schön,IAT_red1.bmp,red,ending_scream,scream,ending,m,positive,positive,ES_red,1,m,773,1650968,1651472,1651676
1,first,41,ehrlich,IAT_green2.bmp,green,ending_melody,melody,ending,m,positive,negative,ES_red,1,m,523,1653522,1654027,1654231
1,first,42,munter,IAT_purple3.bmp,purple,starting_melody,melody,starting,m,positive,positive,ES_red,0,c,1023,1655829,1656333,1656537
1,first,43,gerecht,IAT_red4.bmp,red,ending_scream,scream,ending,m,positive,positive,ES_red,1,m,1064,1659134,1659639,1659843
1,first,44,gierig,IAT_red1.bmp,red,ending_scream,scream,ending,c,negative,positive,ES_red,0,m,590,1661982,1662486,1662690
1,first,45,sanft,IAT_green1.bmp,green,ending_melody,melody,ending,m,positive,negative,ES_red,1,m,914,1664854,1665359,1665563
1,first,46,munter,IAT_yellow3.bmp,yellow,starting_scream,scream,starting,m,positive,negative,ES_red,1,m,527,1667550,1668055,1668259
1,first,47,lustig,IAT_red2.bmp,red,ending_scream,scream,ending,m,positive,positive,ES_red,1,m,568,1669860,1670365,1670569
1,first,48,human,IAT_green3.bmp,green,ending_melody,melody,ending,m,positive,negative,ES_red,1,m,495,1672211,1672715,1672919
1,first,49,sonnig,IAT_purple4.bmp,purple,starting_melody,melody,starting,m,positive,positive,ES_red,1,m,539,1674488,1674993,1675197
1,first,50,feige,IAT_red4.bmp,red,ending_scream,scream,ending,c,negative,positive,ES_red,1,c,858,1676811,1677315,1677519
1,first,51,streng,IAT_red2.bmp,red,ending_scream,scream,ending,c,negative,positive,ES_red,1,c,957,1679451,1679955,1680159
1,first,52,sanft,IAT_purple1.bmp,purple,starting_melody,melody,starting,m,positive,positive,ES_red,0,c,665,1682191,1682695,1682899
1,first,53,lästig,IAT_purple2.bmp,purple,starting_melody,melody,starting,c,negative,positive,ES_red,0,None,1500,1685139,1685643,1685847
1,first,54,gerecht,IAT_green1.bmp,green,ending_melody,melody,ending,m,positive,negative,ES_red,1,m,857,1688922,1689426,1689630
1,first,55,lustig,IAT_purple3.bmp,purple,starting_melody,melody,starting,m,positive,positive,ES_red,1,m,784,1691561,1692065,1692269
1,first,56,brutal,IAT_yellow2.bmp,yellow,starting_scream,scream,starting,c,negative,negative,ES_red,1,c,1321,1694127,1694632,1694836
1,first,57,krank,IAT_red3.bmp,red,ending_scream,scream,ending,c,negative,positive,ES_red,1,c,723,1697231,1697736,1697940
1,first,58,witzig,IAT_red1.bmp,red,ending_scream,scream,ending,m,positive,positive,ES_red,1,m,568,1699737,1700242,1700446
1,first,59,gerecht,IAT_yellow4.bmp,yellow,starting_scream,scream,starting,m,positive,negative,ES_red,1,m,1160,1702089,1702593,1702797
1,first,60,morsch,IAT_purple2.bmp,purple,starting_melody,melody,starting,c,negative,positive,ES_red,0,m,1321,1705032,1705536,1705740
1,first,61,kaputt,IAT_green2.bmp,green,ending_melody,melody,ending,c,negative,negative,ES_red,1,c,706,1708635,1709140,1709344
1,first,62,human,IAT_yellow1.bmp,yellow,starting_scream,scream,starting,m,positive,negative,ES_red,1,m,621,1711125,1711629,1711833
1,first,63,teuer,IAT_green4.bmp,green,ending_melody,melody,ending,c,negative,negative,ES_red,1,c,690,1713529,1714033,1714237
1,first,64,sanft,IAT_yellow1.bmp,yellow,starting_scream,scream,starting,m,positive,negative,ES_red,1,m,769,1716002,1716506,1716710
1,first,65,falsch,IAT_yellow2.bmp,yellow,starting_scream,scream,starting,c,negative,negative,ES_red,1,c,751,1718553,1719058,1719262
1,first,66,lästig,IAT_green4.bmp,green,ending_melody,melody,ending,c,negative,negative,ES_red,0,m,1407,1721088,1721592,1721796
1,first,67,witzig,IAT_yellow1.bmp,yellow,starting_scream,scream,starting,m,positive,negative,ES_red,1,m,651,1724778,1725283,1725487
1,first,68,munter,IAT_yellow3.bmp,yellow,starting_scream,scream,starting,m,positive,negative,ES_red,1,m,910,1727212,1727716,1727920
1,first,69,ehrlich,IAT_yellow3.bmp,yellow,starting_scream,scream,starting,m,positive,negative,ES_red,1,m,512,1729905,1730409,1730613
1,first,70,krank,IAT_red4.bmp,red,ending_scream,scream,ending,c,negative,positive,ES_red,1,c,611,1732200,1732704,1732908
1,first,71,teuer,IAT_purple3.bmp,purple,starting_melody,melody,starting,c,negative,positive,ES_red,1,c,773,1734593,1735097,1735301
1,first,72,sozial,IAT_green2.bmp,green,ending_melody,melody,ending,m,positive,negative,ES_red,1,m,1129,1737148,1737653,1737857
1,first,73,geizig,IAT_yellow3.bmp,yellow,starting_scream,scream,starting,c,negative,negative,ES_red,0,m,771,1740060,1740564,1740768
1,first,74,gesund,IAT_red1.bmp,red,ending_scream,scream,ending,m,positive,positive,ES_red,1,m,691,1743113,1743618,1743822
1,first,75,kaputt,IAT_green1.bmp,green,ending_melody,melody,ending,c,negative,negative,ES_red,1,c,630,1745588,1746093,1746297
1,first,76,geizig,IAT_red3.bmp,red,ending_scream,scream,ending,c,negative,positive,ES_red,1,c,732,1748001,1748505,1748709
1,first,77,heiter,IAT_green4.bmp,green,ending_melody,melody,ending,m,positive,negative,ES_red,1,m,1128,1750516,1751021,1751225
1,first,78,lästig,IAT_green4.bmp,green,ending_melody,melody,ending,c,negative,negative,ES_red,0,m,745,1753428,1753932,1754136
1,first,79,gesund,IAT_yellow2.bmp,yellow,starting_scream,scream,starting,m,positive,negative,ES_red,1,m,569,1756455,1756960,1757164
1,first,80,sanft,IAT_red3.bmp,red,ending_scream,scream,ending,m,positive,positive,ES_red,1,m,585,1758809,1759313,1759517
1,first,81,schön,IAT_red4.bmp,red,ending_scream,scream,ending,m,positive,positive,ES_red,1,m,506,1761177,1761681,1761885
1,first,82,human,IAT_purple3.bmp,purple,starting_melody,melody,starting,m,positive,positive,ES_red,1,m,469,1763465,1763969,1764173
1,first,83,falsch,IAT_green2.bmp,green,ending_melody,melody,ending,c,negative,negative,ES_red,1,c,854,1765716,1766220,1766424
1,first,84,feige,IAT_purple2.bmp,purple,starting_melody,melody,starting,c,negative,positive,ES_red,1,c,1133,1768353,1768857,1769061
1,first,85,streng,IAT_purple4.bmp,purple,starting_melody,melody,starting,c,negative,positive,ES_red,0,m,695,1771268,1771773,1771977
1,first,86,gierig,IAT_red2.bmp,red,ending_scream,scream,ending,c,negative,positive,ES_red,1,c,714,1774247,1774751,1774955
1,first,87,falsch,IAT_purple2.bmp,purple,starting_melody,melody,starting,c,negative,positive,ES_red,0,m,1021,1776743,1777248,1777452
1,first,88,gesund,IAT_red3.bmp,red,ending_scream,scream,ending,m,positive,positive,ES_red,1,m,1059,1780048,1780552,1780756
1,first,89,lustig,IAT_green3.bmp,green,ending_melody,melody,ending,m,positive,negative,ES_red,1,m,789,1782890,1783394,1783598
1,first,90,einsam,IAT_red4.bmp,red,ending_scream,scream,ending,c,negative,positive,ES_red,1,c,719,1785463,1785967,1786171
1,first,91,heiter,IAT_purple2.bmp,purple,starting_melody,melody,starting,m,positive,positive,ES_red,1,m,1097,1787965,1788469,1788673
1,first,92,gierig,IAT_yellow2.bmp,yellow,starting_scream,scream,starting,c,negative,negative,ES_red,0,m,888,1790845,1791349,1791553
1,first,93,einsam,IAT_yellow1.bmp,yellow,starting_scream,scream,starting,c,negative,negative,ES_red,1,c,671,1794016,1794520,1794724
1,first,94,ehrlich,IAT_red3.bmp,red,ending_scream,scream,ending,m,positive,positive,ES_red,1,m,668,1796470,1796974,1797178
1,first,95,krank,IAT_purple4.bmp,purple,starting_melody,melody,starting,c,negative,positive,ES_red,1,c,827,1798920,1799425,1799629
1,second,0,gesund,IAT_purple1.bmp,purple,starting_melody,melody,starting,m,positive,positive,ES_red,1,m,812,1820221,1820725,1820929
1,second,1,sanft,IAT_yellow1.bmp,yellow,starting_scream,scream,starting,m,positive,negative,ES_red,1,m,579,1822815,1823320,1823524
1,second,2,teuer,IAT_green3.bmp,green,ending_melody,melody,ending,c,negative,negative,ES_red,1,c,659,1825177,1825681,1825885
1,second,3,lustig,IAT_purple4.bmp,purple,starting_melody,melody,starting,m,positive,positive,ES_red,1,m,529,1827618,1828122,1828326
1,second,4,ehrlich,IAT_purple3.bmp,purple,starting_melody,melody,starting,m,positive,positive,ES_red,1,m,532,1829929,1830433,1830637
1,second,5,munter,IAT_yellow4.bmp,yellow,starting_scream,scream,starting,m,positive,negative,ES_red,0,c,793,1832243,1832747,1832951
1,second,6,geizig,IAT_green2.bmp,green,ending_melody,melody,ending,c,negative,negative,ES_red,0,m,685,1835319,1835824,1836028
1,second,7,sozial,IAT_red3.bmp,red,ending_scream,scream,ending,m,positive,positive,ES_red,1,m,594,1838286,1838790,1838994
1,second,8,gierig,IAT_yellow3.bmp,yellow,starting_scream,scream,starting,c,negative,negative,ES_red,0,m,979,1840660,1841165,1841369
1,second,9,feige,IAT_green4.bmp,green,ending_melody,melody,ending,c,negative,negative,ES_red,1,c,761,1843921,1844425,1844629
1,second,10,ehrlich,IAT_green1.bmp,green,ending_melody,melody,ending,m,positive,negative,ES_red,1,m,531,1846462,1846966,1847170
1,second,11,schön,IAT_yellow3.bmp,yellow,starting_scream,scream,starting,m,positive,negative,ES_red,1,m,520,1848773,1849278,1849482
1,second,12,human,IAT_purple4.bmp,purple,starting_melody,melody,starting,m,positive,positive,ES_red,1,m,473,1851074,1851578,1851782
1,second,13,gerecht,IAT_purple3.bmp,purple,starting_melody,melody,starting,m,positive,positive,ES_red,1,m,563,1853328,1853833,1854037
1,second,14,falsch,IAT_red3.bmp,red,ending_scream,scream,ending,c,negative,positive,ES_red,1,c,806,1855673,1856178,1856382
1,second,15,feige,IAT_red1.bmp,red,ending_scream,scream,ending,c,negative,positive,ES_red,1,c,714,1858260,1858765,1858969
1,second,16,ehrlich,IAT_purple3.bmp,purple,starting_melody,melody,starting,m,positive,positive,ES_red,1,m,564,1860756,1861260,1861464
1,second,17,lästig,IAT_green2.bmp,green,ending_melody,melody,ending,c,negative,negative,ES_red,1,c,1009,1863101,1863605,1863809
1,second,18,falsch,IAT_yellow4.bmp,yellow,starting_scream,scream,starting,c,negative,negative,ES_red,1,c,736,1865892,1866396,1866600
1,second,19,geizig,IAT_purple2.bmp,purple,starting_melody,melody,starting,c,negative,positive,ES_red,1,c,911,1868410,1868914,1869118
1,second,20,morsch,IAT_green4.bmp,green,ending_melody,melody,ending,c,negative,negative,ES_red,1,c,805,1871101,1871605,1871809
1,second,21,gierig,IAT_red4.bmp,red,ending_scream,scream,ending,c,negative,positive,ES_red,1,c,849,1873688,1874192,1874396
1,second,22,geizig,IAT_red4.bmp,red,ending_scream,scream,ending,c,negative,positive,ES_red,1,c,735,1876319,1876823,1877027
1,second,23,gesund,IAT_red3.bmp,red,ending_scream,scream,ending,m,positive,positive,ES_red,1,m,591,1878834,1879339,1879543
1,second,24,schön,IAT_green3.bmp,green,ending_melody,melody,ending,m,positive,negative,ES_red,1,m,544,1881207,1881712,1881916
1,second,25,brutal,IAT_yellow2.bmp,yellow,starting_scream,scream,starting,c,negative,negative,ES_red,1,c,659,1883533,1884037,1884241
1,second,26,teuer,IAT_green2.bmp,green,ending_melody,melody,ending,c,negative,negative,ES_red,1,c,710,1885974,1886478,1886682
1,second,27,kaputt,IAT_purple4.bmp,purple,starting_melody,melody,starting,c,negative,positive,ES_red,1,c,757,1888465,1888969,1889173
1,second,28,lustig,IAT_red1.bmp,red,ending_scream,scream,ending,m,positive,positive,ES_red,1,m,591,1891004,1891508,1891712
1,second,29,schön,IAT_red4.bmp,red,ending_scream,scream,ending,m,positive,positive,ES_red,1,m,709,1893377,1893882,1894086
1,second,30,teuer,IAT_purple4.bmp,purple,starting_melody,melody,starting,c,negative,positive,ES_red,1,c,568,1895868,1896373,1896577
1,second,31,morsch,IAT_red2.bmp,red,ending_scream,scream,ending,c,negative,positive,ES_red,1,c,587,1898219,1898723,1898927
1,second,32,feige,IAT_red2.bmp,red,ending_scream,scream,ending,c,negative,positive,ES_red,1,c,730,1900588,1901093,1901297
1,second,33,morsch,IAT_red2.bmp,red,ending_scream,scream,ending,c,negative,positive,ES_red,1,c,698,1903103,1903607,1903811
1,second,34,streng,IAT_yellow4.bmp,yellow,starting_scream,scream,starting,c,negative,negative,ES_red,1,c,789,1905583,1906087,1906291
1,second,35,sozial,IAT_yellow3.bmp,yellow,starting_scream,scream,starting,m,positive,negative,ES_red,1,m,633,1908153,1908657,1908861
1,second,36,gesund,IAT_yellow3.bmp,yellow,starting_scream,scream,starting,m,positive,negative,ES_red,1,m,529,1910568,1911072,1911276
1,second,37,munter,IAT_red3.bmp,red,ending_scream,scream,ending,m,positive,positive,ES_red,0,c,619,1912879,1913383,1913587
1,second,38,heiter,IAT_red2.bmp,red,ending_scream,scream,ending,m,positive,positive,ES_red,1,m,1040,1915779,1916284,1916488
1,second,39,einsam,IAT_yellow4.bmp,yellow,starting_scream,scream,starting,c,negative,negative,ES_red,1,c,647,1918601,1919106,1919310
1,second,40,streng,IAT_purple2.bmp,purple,starting_melody,melody,starting,c,negative,positive,ES_red,0,m,488,1921031,1921535,1921739
1,second,41,munter,IAT_purple1.bmp,purple,starting_melody,melody,starting,m,positive,positive,ES_red,0,c,964,1923801,1924305,1924509
1,second,42,kaputt,IAT_yellow2.bmp,yellow,starting_scream,scream,starting,c,negative,negative,ES_red,1,c,873,1927047,1927551,1927755
1,second,43,einsam,IAT_red3.bmp,red,ending_scream,scream,ending,c,negative,positive,ES_red,1,c,757,1929702,1930206,1930410
1,second,44,heiter,IAT_green3.bmp,green,ending_melody,melody,ending,m,positive,negative,ES_red,1,m,995,1932241,1932746,1932950
1,second,45,sozial,IAT_red1.bmp,red,ending_scream,scream,ending,m,positive,positive,ES_red,0,c,1013,1935019,1935523,1935727
1,second,46,gierig,IAT_yellow2.bmp,yellow,starting_scream,scream,starting,c,negative,negative,ES_red,0,m,899,1938314,1938818,1939022
1,second,47,lustig,IAT_purple3.bmp,purple,starting_melody,melody,starting,m,positive,positive,ES_red,1,m,588,1941494,1941998,1942202
1,second,48,falsch,IAT_purple3.bmp,purple,starting_melody,melody,starting,c,negative,positive,ES_red,1,c,645,1943863,1944367,1944571
1,second,49,human,IAT_yellow2.bmp,yellow,starting_scream,scream,starting,m,positive,negative,ES_red,1,m,609,1946290,1946794,1946998
1,second,50,sonnig,IAT_yellow1.bmp,yellow,starting_scream,scream,starting,m,positive,negative,ES_red,1,m,549,1948681,1949185,1949389
1,second,51,krank,IAT_green4.bmp,green,ending_melody,melody,ending,c,negative,negative,ES_red,1,c,826,1951012,1951516,1951720
1,second,52,sanft,IAT_green4.bmp,green,ending_melody,melody,ending,m,positive,negative,ES_red,1,m,606,1953620,1954124,1954328
1,second,53,brutal,IAT_green2.bmp,green,ending_melody,melody,ending,c,negative,negative,ES_red,1,c,599,1956008,1956512,1956716
1,second,54,feige,IAT_purple3.bmp,purple,starting_melody,melody,starting,c,negative,positive,ES_red,0,m,980,1958389,1958893,1959097
1,second,55,einsam,IAT_yellow3.bmp,yellow,starting_scream,scream,starting,c,negative,negative,ES_red,1,c,848,1961651,1962155,1962359
1,second,56,sonnig,IAT_yellow4.bmp,yellow,starting_scream,scream,starting,m,positive,negative,ES_red,1,m,561,1964281,1964785,1964989
1,second,57,human,IAT_green1.bmp,green,ending_melody,melody,ending,m,positive,negative,ES_red,1,m,411,1966623,1967128,1967332
1,second,58,lustig,IAT_red3.bmp,red,ending_scream,scream,ending,m,positive,positive,ES_red,1,m,815,1968818,1969323,1969527
1,second,59,witzig,IAT_red1.bmp,red,ending_scream,scream,ending,m,positive,positive,ES_red,1,m,609,1971415,1971920,1972124
1,second,60,falsch,IAT_purple4.bmp,purple,starting_melody,melody,starting,c,negative,positive,ES_red,1,c,570,1973807,1974312,1974516
1,second,61,krank,IAT_yellow1.bmp,yellow,starting_scream,scream,starting,c,negative,negative,ES_red,0,m,511,1976160,1976665,1976869
1,second,62,sonnig,IAT_green3.bmp,green,ending_melody,melody,ending,m,positive,negative,ES_red,1,m,576,1978954,1979458,1979662
1,second,63,lästig,IAT_red2.bmp,red,ending_scream,scream,ending,c,negative,positive,ES_red,1,c,1120,1981312,1981816,1982020
1,second,64,streng,IAT_purple1.bmp,purple,starting_melody,melody,starting,c,negative,positive,ES_red,1,c,746,1984214,1984718,1984922
1,second,65,morsch,IAT_green1.bmp,green,ending_melody,melody,ending,c,negative,negative,ES_red,1,c,800,1986741,1987245,1987449
1,second,66,einsam,IAT_green1.bmp,green,ending_melody,melody,ending,c,negative,negative,ES_red,1,c,695,1989322,1989826,1990030
1,second,67,brutal,IAT_green4.bmp,green,ending_melody,melody,ending,c,negative,negative,ES_red,1,c,566,1991799,1992303,1992507
1,second,68,gesund,IAT_green1.bmp,green,ending_melody,melody,ending,m,positive,negative,ES_red,1,m,615,1994146,1994650,1994854
1,second,69,witzig,IAT_green3.bmp,green,ending_melody,melody,ending,m,positive,negative,ES_red,1,m,598,1996543,1997047,1997251
1,second,70,heiter,IAT_red2.bmp,red,ending_scream,scream,ending,m,positive,positive,ES_red,1,m,1002,1998923,1999428,1999632
1,second,71,kaputt,IAT_green3.bmp,green,ending_melody,melody,ending,c,negative,negative,ES_red,1,c,742,2001708,2002212,2002416
1,second,72,gerecht,IAT_purple2.bmp,purple,starting_melody,melody,starting,m,positive,positive,ES_red,1,m,650,2004231,2004735,2004939
1,second,73,sanft,IAT_yellow1.bmp,yellow,starting_scream,scream,starting,m,positive,negative,ES_red,1,m,881,2006663,2007167,2007371
1,second,74,witzig,IAT_red1.bmp,red,ending_scream,scream,ending,m,positive,positive,ES_red,1,m,559,2009327,2009831,2010035
1,second,75,teuer,IAT_purple1.bmp,purple,starting_melody,melody,starting,c,negative,positive,ES_red,0,m,644,2011668,2012172,2012376
1,second,76,munter,IAT_green4.bmp,green,ending_melody,melody,ending,m,positive,negative,ES_red,0,c,952,2014594,2015098,2015302
1,second,77,streng,IAT_yellow4.bmp,yellow,starting_scream,scream,starting,c,negative,negative,ES_red,1,c,765,2017829,2018333,2018537
1,second,78,human,IAT_red4.bmp,red,ending_scream,scream,ending,m,positive,positive,ES_red,1,m,644,2020375,2020880,2021084
1,second,79,lästig,IAT_purple2.bmp,purple,starting_melody,melody,starting,c,negative,positive,ES_red,1,c,1073,2022803,2023307,2023511
1,second,80,krank,IAT_purple4.bmp,purple,starting_melody,melody,starting,c,negative,positive,ES_red,1,c,666,2025658,2026162,2026366
1,second,81,kaputt,IAT_red4.bmp,red,ending_scream,scream,ending,c,negative,positive,ES_red,1,c,769,2028107,2028611,2028815
1,second,82,ehrlich,IAT_green2.bmp,green,ending_melody,melody,ending,m,positive,negative,ES_red,1,m,505,2030658,2031162,2031366
1,second,83,gierig,IAT_yellow2.bmp,yellow,starting_scream,scream,starting,c,negative,negative,ES_red,1,c,1283,2032946,2033451,2033655
1,second,84,heiter,IAT_green1.bmp,green,ending_melody,melody,ending,m,positive,negative,ES_red,1,m,877,2036013,2036517,2036721
1,second,85,lästig,IAT_yellow1.bmp,yellow,starting_scream,scream,starting,c,negative,negative,ES_red,1,c,781,2038673,2039178,2039382
1,second,86,gerecht,IAT_purple2.bmp,purple,starting_melody,melody,starting,m,positive,positive,ES_red,1,m,656,2041238,2041743,2041947
1,second,87,brutal,IAT_red4.bmp,red,ending_scream,scream,ending,c,negative,positive,ES_red,1,c,775,2043678,2044183,2044387
1,second,88,geizig,IAT_red1.bmp,red,ending_scream,scream,ending,c,negative,positive,ES_red,1,c,938,2046237,2046741,2046945
1,second,89,sozial,IAT_yellow2.bmp,yellow,starting_scream,scream,starting,m,positive,negative,ES_red,1,m,563,2048958,2049463,2049667
1,second,90,krank,IAT_purple2.bmp,purple,starting_melody,melody,starting,c,negative,positive,ES_red,1,c,827,2051304,2051808,2052012
1,second,91,witzig,IAT_green2.bmp,green,ending_melody,melody,ending,m,positive,negative,ES_red,1,m,588,2053913,2054417,2054621
1,second,92,sonnig,IAT_purple1.bmp,purple,starting_melody,melody,starting,m,positive,positive,ES_red,1,m,515,2056283,2056787,2056991
1,second,93,gerecht,IAT_purple1.bmp,purple,starting_melody,melody,starting,m,positive,positive,ES_red,1,m,733,2058580,2059084,2059288
1,second,94,sanft,IAT_yellow1.bmp,yellow,starting_scream,scream,starting,m,positive,negative,ES_red,1,m,801,2061095,2061599,2061803
1,second,95,schön,IAT_yellow3.bmp,yellow,starting_scream,scream,starting,m,positive,negative,ES_red,1,m,538,2063678,2064183,2064387
1,third,0,ehrlich,IAT_yellow2.bmp,yellow,starting_scream,scream,starting,m,positive,negative,ES_red,1,m,1162,2089668,2090173,2090377
1,third,1,falsch,IAT_red4.bmp,red,ending_scream,scream,ending,c,negative,positive,ES_red,1,c,477,2092613,2093118,2093322
1,third,2,munter,IAT_red1.bmp,red,ending_scream,scream,ending,m,positive,positive,ES_red,0,c,957,2094873,2095377,2095581
1,third,3,heiter,IAT_red1.bmp,red,ending_scream,scream,ending,m,positive,positive,ES_red,1,m,649,2098113,2098617,2098821
1,third,4,gierig,IAT_yellow3.bmp,yellow,starting_scream,scream,starting,c,negative,negative,ES_red,1,c,854,2100544,2101048,2101252
1,third,5,kaputt,IAT_green1.bmp,green,ending_melody,melody,ending,c,negative,negative,ES_red,1,c,717,2103180,2103684,2103888
1,third,6,lustig,IAT_yellow3.bmp,yellow,starting_scream,scream,starting,m,positive,negative,ES_red,1,m,654,2105679,2106183,2106387
1,third,7,schön,IAT_red4.bmp,red,ending_scream,scream,ending,m,positive,positive,ES_red,1,m,596,2108115,2108620,2108824
1,third,8,krank,IAT_green3.bmp,green,ending_melody,melody,ending,c,negative,negative,ES_red,1,c,640,2110494,2110998,2111202
1,third,9,munter,IAT_red2.bmp,red,ending_scream,scream,ending,m,positive,positive,ES_red,0,c,797,2112916,2113421,2113625
1,third,10,witzig,IAT_purple3.bmp,purple,starting_melody,melody,starting,m,positive,positive,ES_red,1,m,522,2115995,2116499,2116703
1,third,11,gierig,IAT_green4.bmp,green,ending_melody,melody,ending,c,negative,negative,ES_red,1,c,936,2118299,2118804,2119008
1,third,12,lästig,IAT_purple4.bmp,purple,starting_melody,melody,starting,c,negative,positive,ES_red,1,c,800,2121018,2121523,2121727
1,third,13,streng,IAT_yellow2.bmp,yellow,starting_scream,scream,starting,c,negative,negative,ES_red,1,c,1068,2123601,2124105,2124309
1,third,14,gierig,IAT_red4.bmp,red,ending_scream,scream,ending,c,negative,positive,ES_red,1,c,850,2126451,2126955,2127159
1,third,15,lustig,IAT_yellow4.bmp,yellow,starting_scream,scream,starting,m,positive,negative,ES_red,1,m,592,2129083,2129587,2129791
1,third,16,feige,IAT_green2.bmp,green,ending_melody,melody,ending,c,negative,negative,ES_red,1,c,698,2131456,2131960,2132164
1,third,17,geizig,IAT_red2.bmp,red,ending_scream,scream,ending,c,negative,positive,ES_red,1,c,812,2133938,2134442,2134646
1,third,18,lästig,IAT_purple2.bmp,purple,starting_melody,melody,starting,c,negative,positive,ES_red,1,c,667,2136532,2137036,2137240
1,third,19,heiter,IAT_yellow3.bmp,yellow,starting_scream,scream,starting,m,positive,negative,ES_red,1,m,1130,2138981,2139485,2139689
1,third,20,morsch,IAT_yellow4.bmp,yellow,starting_scream,scream,starting,c,negative,negative,ES_red,1,c,707,2141894,2142398,2142602
1,third,21,teuer,IAT_purple3.bmp,purple,starting_melody,melody,starting,c,negative,positive,ES_red,1,c,829,2144383,2144887,2145091
1,third,22,brutal,IAT_green4.bmp,green,ending_melody,melody,ending,c,negative,negative,ES_red,1,c,775,2146994,2147498,2147702
1,third,23,teuer,IAT_purple1.bmp,purple,starting_melody,melody,starting,c,negative,positive,ES_red,1,c,557,2149551,2150055,2150259
1,third,24,kaputt,IAT_purple3.bmp,purple,starting_melody,melody,starting,c,negative,positive,ES_red,0,m,583,2151890,2152394,2152598
1,third,25,morsch,IAT_green2.bmp,green,ending_melody,melody,ending,c,negative,negative,ES_red,1,c,672,2154754,2155259,2155463
1,third,26,falsch,IAT_yellow4.bmp,yellow,starting_scream,scream,starting,c,negative,negative,ES_red,1,c,963,2157210,2157714,2157918
1,third,27,human,IAT_purple4.bmp,purple,starting_melody,melody,starting,m,positive,positive,ES_red,1,m,835,2159956,2160460,2160664
1,third,28,lustig,IAT_red3.bmp,red,ending_scream,scream,ending,m,positive,positive,ES_red,1,m,816,2162573,2163077,2163281
1,third,29,sonnig,IAT_red4.bmp,red,ending_scream,scream,ending,m,positive,positive,ES_red,1,m,566,2165171,2165676,2165880
1,third,30,sanft,IAT_red1.bmp,red,ending_scream,scream,ending,m,positive,positive,ES_red,1,m,594,2167520,2168024,2168228
1,third,31,einsam,IAT_green2.bmp,green,ending_melody,melody,ending,c,negative,negative,ES_red,1,c,792,2169896,2170401,2170605
1,third,32,ehrlich,IAT_green3.bmp,green,ending_melody,melody,ending,m,positive,negative,ES_red,1,m,529,2172472,2172976,2173180
1,third,33,geizig,IAT_yellow2.bmp,yellow,starting_scream,scream,starting,c,negative,negative,ES_red,1,c,783,2174783,2175287,2175491
1,third,34,krank,IAT_yellow4.bmp,yellow,starting_scream,scream,starting,c,negative,negative,ES_red,1,c,646,2177349,2177854,2178058
1,third,35,teuer,IAT_green2.bmp,green,ending_melody,melody,ending,c,negative,negative,ES_red,1,c,719,2179779,2180284,2180488
1,third,36,schön,IAT_green1.bmp,green,ending_melody,melody,ending,m,positive,negative,ES_red,1,m,551,2182280,2182784,2182988
1,third,37,gerecht,IAT_purple1.bmp,purple,starting_melody,melody,starting,m,positive,positive,ES_red,1,m,650,2184613,2185118,2185323
1,third,38,feige,IAT_red2.bmp,red,ending_scream,scream,ending,c,negative,positive,ES_red,1,c,636,2187047,2187551,2187755
1,third,39,gesund,IAT_green1.bmp,green,ending_melody,melody,ending,m,positive,negative,ES_red,1,m,613,2189464,2189969,2190173
1,third,40,sanft,IAT_green3.bmp,green,ending_melody,melody,ending,m,positive,negative,ES_red,1,m,630,2191860,2192364,2192568
1,third,41,sozial,IAT_green3.bmp,green,ending_melody,melody,ending,m,positive,negative,ES_red,1,m,875,2194272,2194776,2194980
1,third,42,brutal,IAT_red1.bmp,red,ending_scream,scream,ending,c,negative,positive,ES_red,1,c,570,2196929,2197434,2197638
1,third,43,morsch,IAT_yellow1.bmp,yellow,starting_scream,scream,starting,c,negative,negative,ES_red,1,c,727,2199282,2199786,2199990
1,third,44,lästig,IAT_red4.bmp,red,ending_scream,scream,ending,c,negative,positive,ES_red,1,c,827,2201792,2202297,2202501
1,third,45,geizig,IAT_red3.bmp,red,ending_scream,scream,ending,c,negative,positive,ES_red,1,c,714,2204402,2204906,2205110
1,third,46,lästig,IAT_purple2.bmp,purple,starting_melody,melody,starting,c,negative,positive,ES_red,1,c,603,2206899,2207403,2207607
1,third,47,gesund,IAT_yellow1.bmp,yellow,starting_scream,scream,starting,m,positive,negative,ES_red,1,m,588,2209286,2209790,2209994
1,third,48,human,IAT_green2.bmp,green,ending_melody,melody,ending,m,positive,negative,ES_red,1,m,496,2211655,2212159,2212363
1,third,49,gerecht,IAT_green1.bmp,green,ending_melody,melody,ending,m,positive,negative,ES_red,1,m,678,2213933,2214438,2214642
1,third,50,einsam,IAT_green4.bmp,green,ending_melody,melody,ending,c,negative,negative,ES_red,1,c,810,2216395,2216899,2217103
1,third,51,krank,IAT_red1.bmp,red,ending_scream,scream,ending,c,negative,positive,ES_red,1,c,786,2218988,2219493,2219697
1,third,52,gesund,IAT_yellow3.bmp,yellow,starting_scream,scream,starting,m,positive,negative,ES_red,1,m,623,2221557,2222061,2222265
1,third,53,kaputt,IAT_purple4.bmp,purple,starting_melody,melody,starting,c,negative,positive,ES_red,1,c,690,2223962,2224467,2224671
1,third,54,falsch,IAT_yellow1.bmp,yellow,starting_scream,scream,starting,c,negative,negative,ES_red,1,c,714,2226436,2226941,2227145
1,third,55,heiter,IAT_green4.bmp,green,ending_melody,melody,ending,m,positive,negative,ES_red,1,m,1034,2228933,2229437,2229641
1,third,56,sonnig,IAT_purple1.bmp,purple,starting_melody,melody,starting,m,positive,positive,ES_red,1,m,683,2231749,2232253,2232457
1,third,57,lustig,IAT_purple3.bmp,purple,starting_melody,melody,starting,m,positive,positive,ES_red,1,m,614,2234215,2234719,2234923
1,third,58,gierig,IAT_yellow3.bmp,yellow,starting_scream,scream,starting,c,negative,negative,ES_red,1,c,1043,2236611,2237116,2237320
1,third,59,sozial,IAT_yellow1.bmp,yellow,starting_scream,scream,starting,m,positive,negative,ES_red,1,m,591,2239439,2239943,2240147
1,third,60,streng,IAT_yellow4.bmp,yellow,starting_scream,scream,starting,c,negative,negative,ES_red,1,c,674,2241813,2242317,2242521
1,third,61,sanft,IAT_purple4.bmp,purple,starting_melody,melody,starting,m,positive,positive,ES_red,1,m,614,2244270,2244774,2244978
1,third,62,schön,IAT_green2.bmp,green,ending_melody,melody,ending,m,positive,negative,ES_red,1,m,524,2246665,2247169,2247373
1,third,63,witzig,IAT_red3.bmp,red,ending_scream,scream,ending,m,positive,positive,ES_red,1,m,731,2248972,2249476,2249680
1,third,64,falsch,IAT_purple4.bmp,purple,starting_melody,melody,starting,c,negative,positive,ES_red,1,c,720,2251485,2251990,2252194
1,third,65,teuer,IAT_purple4.bmp,purple,starting_melody,melody,starting,c,negative,positive,ES_red,1,c,940,2253989,2254493,2254697
1,third,66,streng,IAT_purple2.bmp,purple,starting_melody,melody,starting,c,negative,positive,ES_red,1,c,1007,2256711,2257215,2257419
1,third,67,munter,IAT_purple3.bmp,purple,starting_melody,melody,starting,m,positive,positive,ES_red,0,c,865,2259501,2260005,2260209
1,third,68,witzig,IAT_purple2.bmp,purple,starting_melody,melody,starting,m,positive,positive,ES_red,1,m,482,2262648,2263152,2263356
1,third,69,sozial,IAT_red3.bmp,red,ending_scream,scream,ending,m,positive,positive,ES_red,1,m,564,2264913,2265417,2265621
1,third,70,witzig,IAT_yellow1.bmp,yellow,starting_scream,scream,starting,m,positive,negative,ES_red,1,m,514,2267260,2267764,2267968
1,third,71,geizig,IAT_red2.bmp,red,ending_scream,scream,ending,c,negative,positive,ES_red,1,c,912,2269557,2270061,2270265
1,third,72,sonnig,IAT_purple2.bmp,purple,starting_melody,melody,starting,m,positive,positive,ES_red,1,m,495,2272251,2272755,2272959
1,third,73,gerecht,IAT_red1.bmp,red,ending_scream,scream,ending,m,positive,positive,ES_red,1,m,1161,2274529,2275033,2275237
1,third,74,feige,IAT_red2.bmp,red,ending_scream,scream,ending,c,negative,positive,ES_red,1,c,604,2277473,2277977,2278181
1,third,75,krank,IAT_purple1.bmp,purple,starting_melody,melody,starting,c,negative,positive,ES_red,1,c,743,2279860,2280364,2280568
1,third,76,sanft,IAT_purple3.bmp,purple,starting_melody,melody,starting,m,positive,positive,ES_red,1,m,946,2282385,2282889,2283093
1,third,77,streng,IAT_purple2.bmp,purple,starting_melody,melody,starting,c,negative,positive,ES_red,1,c,864,2285114,2285618,2285822
1,third,78,brutal,IAT_green3.bmp,green,ending_melody,melody,ending,c,negative,negative,ES_red,1,c,664,2287760,2288264,2288468
1,third,79,gesund,IAT_red3.bmp,red,ending_scream,scream,ending,m,positive,positive,ES_red,1,m,658,2290207,2290711,2290915
1,third,80,morsch,IAT_yellow2.bmp,yellow,starting_scream,scream,starting,c,negative,negative,ES_red,1,c,648,2292648,2293152,2293356
1,third,81,ehrlich,IAT_yellow4.bmp,yellow,starting_scream,scream,starting,m,positive,negative,ES_red,1,m,652,2295080,2295584,2295788
1,third,82,sonnig,IAT_green1.bmp,green,ending_melody,melody,ending,m,positive,negative,ES_red,1,m,479,2297514,2298018,2298222
1,third,83,human,IAT_green4.bmp,green,ending_melody,melody,ending,m,positive,negative,ES_red,1,m,723,2299775,2300280,2300484
1,third,84,gerecht,IAT_purple1.bmp,purple,starting_melody,melody,starting,m,positive,positive,ES_red,1,m,499,2302282,2302786,2302990
1,third,85,heiter,IAT_yellow1.bmp,yellow,starting_scream,scream,starting,m,positive,negative,ES_red,1,m,998,2304564,2305068,2305272
1,third,86,feige,IAT_red3.bmp,red,ending_scream,scream,ending,c,negative,positive,ES_red,1,c,658,2307344,2307848,2308052
1,third,87,munter,IAT_yellow3.bmp,yellow,starting_scream,scream,starting,m,positive,negative,ES_red,1,m,810,2309785,2310289,2310493
1,third,88,einsam,IAT_yellow2.bmp,yellow,starting_scream,scream,starting,c,negative,negative,ES_red,1,c,663,2312379,2312883,2313087
1,third,89,sozial,IAT_red2.bmp,red,ending_scream,scream,ending,m,positive,positive,ES_red,1,m,577,2314825,2315329,2315533
1,third,90,human,IAT_green3.bmp,green,ending_melody,melody,ending,m,positive,negative,ES_red,1,m,441,2317184,2317688,2317892
1,third,91,ehrlich,IAT_purple1.bmp,purple,starting_melody,melody,starting,m,positive,positive,ES_red,1,m,516,2319409,2319913,2320117
1,third,92,kaputt,IAT_red4.bmp,red,ending_scream,scream,ending,c,negative,positive,ES_red,1,c,578,2321708,2322212,2322416
1,third,93,einsam,IAT_green1.bmp,green,ending_melody,melody,ending,c,negative,negative,ES_red,0,m,489,2324069,2324573,2324777
1,third,94,schön,IAT_yellow2.bmp,yellow,starting_scream,scream,starting,m,positive,negative,ES_red,1,m,484,2326840,2327345,2327549
1,third,95,brutal,IAT_green4.bmp,green,ending_melody,melody,ending,c,negative,negative,ES_red,1,c,623,2329108,2329612,2329816
1,forth,0,krank,IAT_purple4.bmp,purple,starting_melody,melody,starting,c,negative,positive,ES_red,1,c,912,2338694,2339199,2339403
1,forth,1,heiter,IAT_red2.bmp,red,ending_scream,scream,ending,m,positive,positive,ES_red,1,m,725,2341390,2341895,2342099
1,forth,2,gerecht,IAT_purple4.bmp,purple,starting_melody,melody,starting,m,positive,positive,ES_red,0,c,752,2343898,2344402,2344606
1,forth,3,gierig,IAT_purple3.bmp,purple,starting_melody,melody,starting,c,negative,positive,ES_red,1,c,1039,2346933,2347437,2347641
1,forth,4,geizig,IAT_yellow4.bmp,yellow,starting_scream,scream,starting,c,negative,negative,ES_red,1,c,950,2349754,2350259,2350463
1,forth,5,streng,IAT_green4.bmp,green,ending_melody,melody,ending,c,negative,negative,ES_red,1,c,646,2352487,2352991,2353195
1,forth,6,feige,IAT_red3.bmp,red,ending_scream,scream,ending,c,negative,positive,ES_red,1,c,603,2354915,2355419,2355623
1,forth,7,gierig,IAT_purple4.bmp,purple,starting_melody,melody,starting,c,negative,positive,ES_red,1,c,525,2357300,2357805,2358009
1,forth,8,sonnig,IAT_yellow2.bmp,yellow,starting_scream,scream,starting,m,positive,negative,ES_red,1,m,579,2359609,2360113,2360317
1,forth,9,sozial,IAT_green3.bmp,green,ending_melody,melody,ending,m,positive,negative,ES_red,1,m,663,2361970,2362475,2362679
1,forth,10,sanft,IAT_red4.bmp,red,ending_scream,scream,ending,m,positive,positive,ES_red,1,m,585,2364417,2364922,2365126
1,forth,11,sonnig,IAT_green2.bmp,green,ending_melody,melody,ending,m,positive,negative,ES_red,1,m,433,2366785,2367289,2367493
1,forth,12,gerecht,IAT_green1.bmp,green,ending_melody,melody,ending,m,positive,negative,ES_red,1,m,661,2368999,2369504,2369708
1,forth,13,brutal,IAT_purple2.bmp,purple,starting_melody,melody,starting,c,negative,positive,ES_red,1,c,751,2371444,2371948,2372152
1,forth,14,einsam,IAT_red4.bmp,red,ending_scream,scream,ending,c,negative,positive,ES_red,1,c,719,2373977,2374481,2374685
1,forth,15,teuer,IAT_green4.bmp,green,ending_melody,melody,ending,c,negative,negative,ES_red,1,c,690,2376480,2376984,2377188
1,forth,16,lästig,IAT_red1.bmp,red,ending_scream,scream,ending,c,negative,positive,ES_red,1,c,618,2378953,2379457,2379661
1,forth,17,streng,IAT_green3.bmp,green,ending_melody,melody,ending,c,negative,negative,ES_red,1,c,879,2381353,2381857,2382061
1,forth,18,krank,IAT_green2.bmp,green,ending_melody,melody,ending,c,negative,negative,ES_red,1,c,605,2384015,2384519,2384723
1,forth,19,schön,IAT_purple1.bmp,purple,starting_melody,melody,starting,m,positive,positive,ES_red,1,m,488,2386403,2386907,2387111
1,forth,20,feige,IAT_green2.bmp,green,ending_melody,melody,ending,c,negative,negative,ES_red,1,c,605,2388672,2389176,2389380
1,forth,21,heiter,IAT_red3.bmp,red,ending_scream,scream,ending,m,positive,positive,ES_red,1,m,699,2391059,2391564,2391768
1,forth,22,falsch,IAT_yellow2.bmp,yellow,starting_scream,scream,starting,c,negative,negative,ES_red,1,c,557,2393543,2394047,2394251
1,forth,23,kaputt,IAT_red4.bmp,red,ending_scream,scream,ending,c,negative,positive,ES_red,1,c,585,2395883,2396387,2396591
1,forth,24,feige,IAT_yellow2.bmp,yellow,starting_scream,scream,starting,c,negative,negative,ES_red,1,c,653,2398251,2398756,2398960
1,forth,25,munter,IAT_red1.bmp,red,ending_scream,scream,ending,m,positive,positive,ES_red,1,m,1035,2400687,2401191,2401395
1,forth,26,sanft,IAT_green3.bmp,green,ending_melody,melody,ending,m,positive,negative,ES_red,1,m,620,2403504,2404009,2404213
1,forth,27,human,IAT_green1.bmp,green,ending_melody,melody,ending,m,positive,negative,ES_red,1,m,516,2405907,2406411,2406615
1,forth,28,morsch,IAT_green4.bmp,green,ending_melody,melody,ending,c,negative,negative,ES_red,1,c,669,2408205,2408709,2408913
1,forth,29,sozial,IAT_yellow1.bmp,yellow,starting_scream,scream,starting,m,positive,negative,ES_red,1,m,1074,2410657,2411161,2411365
1,forth,30,gesund,IAT_red1.bmp,red,ending_scream,scream,ending,m,positive,positive,ES_red,1,m,571,2413514,2414018,2414222
1,forth,31,sanft,IAT_yellow3.bmp,yellow,starting_scream,scream,starting,m,positive,negative,ES_red,1,m,444,2415868,2416372,2416576
1,forth,32,munter,IAT_green4.bmp,green,ending_melody,melody,ending,m,positive,negative,ES_red,1,m,724,2418094,2418598,2418802
1,forth,33,einsam,IAT_yellow4.bmp,yellow,starting_scream,scream,starting,c,negative,negative,ES_red,0,m,492,2420600,2421105,2421309
1,forth,34,brutal,IAT_purple3.bmp,purple,starting_melody,melody,starting,c,negative,positive,ES_red,1,c,636,2423376,2423880,2424084
1,forth,35,sozial,IAT_purple2.bmp,purple,starting_melody,melody,starting,m,positive,positive,ES_red,1,m,716,2425794,2426298,2426502
1,forth,36,human,IAT_yellow1.bmp,yellow,starting_scream,scream,starting,m,positive,negative,ES_red,1,m,519,2428293,2428798,2429002
1,forth,37,lustig,IAT_yellow3.bmp,yellow,starting_scream,scream,starting,m,positive,negative,ES_red,1,m,548,2430595,2431099,2431303
1,forth,38,geizig,IAT_green2.bmp,green,ending_melody,melody,ending,c,negative,negative,ES_red,0,m,645,2432925,2433429,2433633
1,forth,39,krank,IAT_red3.bmp,red,ending_scream,scream,ending,c,negative,positive,ES_red,1,c,496,2435852,2436356,2436560
1,forth,40,human,IAT_purple3.bmp,purple,starting_melody,melody,starting,m,positive,positive,ES_red,1,m,574,2438129,2438633,2438837
1,forth,41,ehrlich,IAT_yellow2.bmp,yellow,starting_scream,scream,starting,m,positive,negative,ES_red,1,m,812,2440485,2440989,2441193
1,forth,42,sanft,IAT_green2.bmp,green,ending_melody,melody,ending,m,positive,negative,ES_red,1,m,491,2443080,2443584,2443788
1,forth,43,gierig,IAT_purple2.bmp,purple,starting_melody,melody,starting,c,negative,positive,ES_red,0,m,1058,2445354,2445858,2446062
1,forth,44,einsam,IAT_purple2.bmp,purple,starting_melody,melody,starting,c,negative,positive,ES_red,1,c,721,2448695,2449199,2449403
1,forth,45,morsch,IAT_yellow2.bmp,yellow,starting_scream,scream,starting,c,negative,negative,ES_red,1,c,688,2451198,2451702,2451906
1,forth,46,lästig,IAT_purple1.bmp,purple,starting_melody,melody,starting,c,negative,positive,ES_red,1,c,762,2453669,2454173,2454377
1,forth,47,falsch,IAT_yellow4.bmp,yellow,starting_scream,scream,starting,c,negative,negative,ES_red,1,c,859,2456213,2456718,2456922
1,forth,48,gerecht,IAT_purple3.bmp,purple,starting_melody,melody,starting,m,positive,positive,ES_red,1,m,733,2458855,2459359,2459563
1,forth,49,sonnig,IAT_green1.bmp,green,ending_melody,melody,ending,m,positive,negative,ES_red,1,m,544,2461370,2461875,2462079
1,forth,50,kaputt,IAT_red1.bmp,red,ending_scream,scream,ending,c,negative,positive,ES_red,1,c,542,2463699,2464203,2464407
1,forth,51,geizig,IAT_red4.bmp,red,ending_scream,scream,ending,c,negative,positive,ES_red,1,c,842,2466024,2466528,2466732
1,forth,52,lästig,IAT_purple2.bmp,purple,starting_melody,melody,starting,c,negative,positive,ES_red,1,c,511,2468649,2469153,2469357
1,forth,53,witzig,IAT_yellow1.bmp,yellow,starting_scream,scream,starting,m,positive,negative,ES_red,1,m,764,2470942,2471447,2471651
1,forth,54,heiter,IAT_red3.bmp,red,ending_scream,scream,ending,m,positive,positive,ES_red,1,m,1428,2473490,2473994,2474198
1,forth,55,einsam,IAT_yellow3.bmp,yellow,starting_scream,scream,starting,c,negative,negative,ES_red,1,c,602,2476702,2477206,2477410
1,forth,56,krank,IAT_red2.bmp,red,ending_scream,scream,ending,c,negative,positive,ES_red,1,c,561,2479087,2479591,2479795
1,forth,57,brutal,IAT_yellow1.bmp,yellow,starting_scream,scream,starting,c,negative,negative,ES_red,1,c,589,2481431,2481935,2482139
1,forth,58,teuer,IAT_green1.bmp,green,ending_melody,melody,ending,c,negative,negative,ES_red,0,m,721,2483803,2484307,2484511
1,forth,59,feige,IAT_yellow2.bmp,yellow,starting_scream,scream,starting,c,negative,negative,ES_red,1,c,798,2486807,2487312,2487516
1,forth,60,schön,IAT_yellow1.bmp,yellow,starting_scream,scream,starting,m,positive,negative,ES_red,1,m,533,2489389,2489894,2490098
1,forth,61,lustig,IAT_yellow4.bmp,yellow,starting_scream,scream,starting,m,positive,negative,ES_red,0,c,425,2491706,2492211,2492415
1,forth,62,falsch,IAT_green1.bmp,green,ending_melody,melody,ending,c,negative,negative,ES_red,1,c,628,2494413,2494918,2495122
1,forth,63,geizig,IAT_yellow4.bmp,yellow,starting_scream,scream,starting,c,negative,negative,ES_red,1,c,709,2496824,2497328,2497532
1,forth,64,ehrlich,IAT_purple1.bmp,purple,starting_melody,melody,starting,m,positive,positive,ES_red,1,m,572,2499318,2499822,2500026
1,forth,65,gesund,IAT_red1.bmp,red,ending_scream,scream,ending,m,positive,positive,ES_red,1,m,651,2501672,2502176,2502380
1,forth,66,munter,IAT_red4.bmp,red,ending_scream,scream,ending,m,positive,positive,ES_red,0,c,952,2504106,2504610,2504814
1,forth,67,kaputt,IAT_red2.bmp,red,ending_scream,scream,ending,c,negative,positive,ES_red,1,c,631,2507341,2507845,2508049
1,forth,68,gesund,IAT_purple1.bmp,purple,starting_melody,melody,starting,m,positive,positive,ES_red,1,m,543,2509754,2510259,2510463
1,forth,69,gierig,IAT_purple4.bmp,purple,starting_melody,melody,starting,c,negative,positive,ES_red,1,c,1274,2512082,2512586,2512790
1,forth,70,teuer,IAT_red4.bmp,red,ending_scream,scream,ending,c,negative,positive,ES_red,1,c,1001,2515139,2515643,2515847
1,forth,71,brutal,IAT_red2.bmp,red,ending_scream,scream,ending,c,negative,positive,ES_red,1,c,529,2517923,2518428,2518632
1,forth,72,streng,IAT_purple1.bmp,purple,starting_melody,melody,starting,c,negative,positive,ES_red,0,m,516,2520236,2520740,2520944
1,forth,73,morsch,IAT_red2.bmp,red,ending_scream,scream,ending,c,negative,positive,ES_red,1,c,789,2523035,2523539,2523743
1,forth,74,sozial,IAT_red3.bmp,red,ending_scream,scream,ending,m,positive,positive,ES_red,1,m,585,2525607,2526111,2526315
1,forth,75,lustig,IAT_purple4.bmp,purple,starting_melody,melody,starting,m,positive,positive,ES_red,1,m,534,2527975,2528479,2528683
1,forth,76,heiter,IAT_red2.bmp,red,ending_scream,scream,ending,m,positive,positive,ES_red,1,m,641,2530291,2530796,2531000
1,forth,77,teuer,IAT_yellow1.bmp,yellow,starting_scream,scream,starting,c,negative,negative,ES_red,1,c,766,2532716,2533220,2533424
1,forth,78,witzig,IAT_yellow4.bmp,yellow,starting_scream,scream,starting,m,positive,negative,ES_red,1,m,796,2535266,2535770,2535974
1,forth,79,sonnig,IAT_yellow3.bmp,yellow,starting_scream,scream,starting,m,positive,negative,ES_red,1,m,480,2537844,2538349,2538553
1,forth,80,schön,IAT_purple2.bmp,purple,starting_melody,melody,starting,m,positive,positive,ES_red,1,m,447,2540108,2540612,2540816
1,forth,81,ehrlich,IAT_green4.bmp,green,ending_melody,melody,ending,m,positive,negative,ES_red,1,m,565,2542338,2542843,2543047
1,forth,82,witzig,IAT_purple3.bmp,purple,starting_melody,melody,starting,m,positive,positive,ES_red,1,m,495,2544686,2545191,2545395
1,forth,83,gesund,IAT_purple1.bmp,purple,starting_melody,melody,starting,m,positive,positive,ES_red,1,m,483,2546965,2547469,2547673
1,forth,84,munter,IAT_green3.bmp,green,ending_melody,melody,ending,m,positive,negative,ES_red,0,c,890,2549231,2549735,2549939
1,forth,85,streng,IAT_green3.bmp,green,ending_melody,melody,ending,c,negative,negative,ES_red,1,c,683,2552405,2552909,2553113
1,forth,86,kaputt,IAT_yellow3.bmp,yellow,starting_scream,scream,starting,c,negative,negative,ES_red,1,c,1075,2554872,2555376,2555580
1,forth,87,schön,IAT_red1.bmp,red,ending_scream,scream,ending,m,positive,positive,ES_red,1,m,620,2557730,2558234,2558438
1,forth,88,ehrlich,IAT_purple3.bmp,purple,starting_melody,melody,starting,m,positive,positive,ES_red,1,m,532,2560132,2560637,2560841
1,forth,89,gerecht,IAT_yellow3.bmp,yellow,starting_scream,scream,starting,m,positive,negative,ES_red,1,m,772,2562449,2562953,2563157
1,forth,90,witzig,IAT_green3.bmp,green,ending_melody,melody,ending,m,positive,negative,ES_red,1,m,494,2565005,2565509,2565713
1,forth,91,lästig,IAT_green2.bmp,green,ending_melody,melody,ending,c,negative,negative,ES_red,1,c,853,2567281,2567785,2567989
1,forth,92,human,IAT_red3.bmp,red,ending_scream,scream,ending,m,positive,positive,ES_red,1,m,637,2569918,2570422,2570626
1,forth,93,lustig,IAT_green1.bmp,green,ending_melody,melody,ending,m,positive,negative,ES_red,1,m,913,2572338,2572842,2573047
1,forth,94,morsch,IAT_purple4.bmp,purple,starting_melody,melody,starting,c,negative,positive,ES_red,1,c,777,2575035,2575539,2575743
1,forth,95,falsch,IAT_green4.bmp,green,ending_melody,melody,ending,c,negative,negative,ES_red,1,c,691,2577596,2578100,2578304
