subject_nr,block,trialnr,trial_target,trial_prime,prime_color,prime_role,prime_us,prime_relation,correct_response,target_valence,prime_valence,color_counter,correct_first_response,response_first_response,response_time_first_response,fixation_show,prime_show,target_show
25,first,0,schön,IAT_purple2.bmp,purple,ending_scream,scream,ending,m,positive,positive,ES_purple,0,c,296,1370273,1370777,1370981
25,first,1,morsch,IAT_green4.bmp,green,starting_melody,melody,starting,c,negative,positive,ES_purple,0,m,1359,1372883,1373388,1373592
25,first,2,gierig,IAT_yellow3.bmp,yellow,ending_melody,melody,ending,c,negative,negative,ES_purple,1,c,331,1376545,1377050,1377254
25,first,3,brutal,IAT_purple4.bmp,purple,ending_scream,scream,ending,c,negative,positive,ES_purple,1,c,309,1378658,1379162,1379366
25,first,4,heiter,IAT_green1.bmp,green,starting_melody,melody,starting,m,positive,positive,ES_purple,0,c,238,1380747,1381252,1381456
25,first,5,feige,IAT_yellow2.bmp,yellow,ending_melody,melody,ending,c,negative,negative,ES_purple,1,c,389,1383267,1383771,1383975
25,first,6,gierig,IAT_red2.bmp,red,starting_scream,scream,starting,c,negative,negative,ES_purple,0,m,370,1385507,1386011,1386215
25,first,7,lustig,IAT_green4.bmp,green,starting_melody,melody,starting,m,positive,positive,ES_purple,0,c,306,1388157,1388662,1388866
25,first,8,ehrlich,IAT_green2.bmp,green,starting_melody,melody,starting,m,positive,positive,ES_purple,1,m,234,1390746,1391250,1391454
25,first,9,sanft,IAT_red3.bmp,red,starting_scream,scream,starting,m,positive,negative,ES_purple,0,c,449,1392761,1393265,1393469
25,first,10,feige,IAT_red2.bmp,red,starting_scream,scream,starting,c,negative,negative,ES_purple,0,m,549,1395491,1395995,1396199
25,first,11,gerecht,IAT_green3.bmp,green,starting_melody,melody,starting,m,positive,positive,ES_purple,0,c,233,1398321,1398825,1399029
25,first,12,falsch,IAT_red2.bmp,red,starting_scream,scream,starting,c,negative,negative,ES_purple,1,c,336,1400836,1401340,1401545
25,first,13,lustig,IAT_green1.bmp,green,starting_melody,melody,starting,m,positive,positive,ES_purple,1,m,385,1402954,1403459,1403663
25,first,14,morsch,IAT_red4.bmp,red,starting_scream,scream,starting,c,negative,negative,ES_purple,1,c,513,1405121,1405625,1405829
25,first,15,schön,IAT_yellow3.bmp,yellow,ending_melody,melody,ending,m,positive,negative,ES_purple,1,m,340,1407416,1407920,1408124
25,first,16,gerecht,IAT_yellow4.bmp,yellow,ending_melody,melody,ending,m,positive,negative,ES_purple,1,m,361,1409538,1410042,1410246
25,first,17,sozial,IAT_yellow3.bmp,yellow,ending_melody,melody,ending,m,positive,negative,ES_purple,1,m,439,1411680,1412184,1412388
25,first,18,ehrlich,IAT_purple2.bmp,purple,ending_scream,scream,ending,m,positive,positive,ES_purple,0,c,300,1413901,1414405,1414609
25,first,19,sozial,IAT_green2.bmp,green,starting_melody,melody,starting,m,positive,positive,ES_purple,1,m,281,1416482,1416986,1417190
25,first,20,teuer,IAT_red4.bmp,red,starting_scream,scream,starting,c,negative,negative,ES_purple,0,m,362,1418545,1419049,1419253
25,first,21,lästig,IAT_purple4.bmp,purple,ending_scream,scream,ending,c,negative,positive,ES_purple,1,c,254,1421187,1421691,1421895
25,first,22,gierig,IAT_red4.bmp,red,starting_scream,scream,starting,c,negative,negative,ES_purple,1,c,340,1423222,1423726,1423930
25,first,23,heiter,IAT_red3.bmp,red,starting_scream,scream,starting,m,positive,negative,ES_purple,1,m,339,1425343,1425847,1426051
25,first,24,gesund,IAT_yellow2.bmp,yellow,ending_melody,melody,ending,m,positive,negative,ES_purple,0,c,353,1427464,1427968,1428172
25,first,25,gerecht,IAT_red2.bmp,red,starting_scream,scream,starting,m,positive,negative,ES_purple,1,m,200,1430100,1430604,1430808
25,first,26,einsam,IAT_purple4.bmp,purple,ending_scream,scream,ending,c,negative,positive,ES_purple,0,m,376,1432081,1432585,1432789
25,first,27,kaputt,IAT_yellow1.bmp,yellow,ending_melody,melody,ending,c,negative,negative,ES_purple,1,c,281,1434738,1435242,1435446
25,first,28,witzig,IAT_red4.bmp,red,starting_scream,scream,starting,m,positive,negative,ES_purple,1,m,312,1436800,1437305,1437509
25,first,29,lustig,IAT_green3.bmp,green,starting_melody,melody,starting,m,positive,positive,ES_purple,1,m,322,1438894,1439398,1439602
25,first,30,gerecht,IAT_purple3.bmp,purple,ending_scream,scream,ending,m,positive,positive,ES_purple,1,m,429,1441029,1441534,1441738
25,first,31,human,IAT_purple3.bmp,purple,ending_scream,scream,ending,m,positive,positive,ES_purple,1,m,362,1443239,1443744,1443949
25,first,32,streng,IAT_purple2.bmp,purple,ending_scream,scream,ending,c,negative,positive,ES_purple,0,m,357,1445384,1445889,1446093
25,first,33,sozial,IAT_red1.bmp,red,starting_scream,scream,starting,m,positive,negative,ES_purple,1,m,294,1448023,1448527,1448731
25,first,34,heiter,IAT_green4.bmp,green,starting_melody,melody,starting,m,positive,positive,ES_purple,0,c,415,1450099,1450603,1450807
25,first,35,human,IAT_purple3.bmp,purple,ending_scream,scream,ending,m,positive,positive,ES_purple,1,m,316,1452796,1453300,1453504
25,first,36,brutal,IAT_yellow3.bmp,yellow,ending_melody,melody,ending,c,negative,negative,ES_purple,0,m,351,1454893,1455397,1455601
25,first,37,munter,IAT_yellow4.bmp,yellow,ending_melody,melody,ending,m,positive,negative,ES_purple,1,m,320,1457526,1458030,1458234
25,first,38,geizig,IAT_purple1.bmp,purple,ending_scream,scream,ending,c,negative,positive,ES_purple,1,c,352,1459628,1460132,1460336
25,first,39,lustig,IAT_purple1.bmp,purple,ending_scream,scream,ending,m,positive,positive,ES_purple,0,c,334,1461761,1462265,1462469
25,first,40,falsch,IAT_green1.bmp,green,starting_melody,melody,starting,c,negative,positive,ES_purple,0,m,270,1464376,1464881,1465085
25,first,41,geizig,IAT_yellow4.bmp,yellow,ending_melody,melody,ending,c,negative,negative,ES_purple,0,m,326,1466930,1467434,1467638
25,first,42,sozial,IAT_purple4.bmp,purple,ending_scream,scream,ending,m,positive,positive,ES_purple,1,m,343,1469537,1470041,1470245
25,first,43,streng,IAT_green2.bmp,green,starting_melody,melody,starting,c,negative,positive,ES_purple,1,c,442,1471661,1472166,1472370
25,first,44,sonnig,IAT_red1.bmp,red,starting_scream,scream,starting,m,positive,negative,ES_purple,1,m,399,1473886,1474390,1474594
25,first,45,sanft,IAT_red3.bmp,red,starting_scream,scream,starting,m,positive,negative,ES_purple,1,m,497,1476066,1476570,1476774
25,first,46,schön,IAT_red3.bmp,red,starting_scream,scream,starting,m,positive,negative,ES_purple,1,m,386,1478345,1478849,1479053
25,first,47,witzig,IAT_purple4.bmp,purple,ending_scream,scream,ending,m,positive,positive,ES_purple,1,m,473,1480512,1481017,1481221
25,first,48,krank,IAT_yellow1.bmp,yellow,ending_melody,melody,ending,c,negative,negative,ES_purple,0,m,314,1482768,1483272,1483476
25,first,49,lästig,IAT_purple2.bmp,purple,ending_scream,scream,ending,c,negative,positive,ES_purple,1,c,524,1485364,1485868,1486072
25,first,50,geizig,IAT_red2.bmp,red,starting_scream,scream,starting,c,negative,negative,ES_purple,1,c,405,1487670,1488175,1488379
25,first,51,kaputt,IAT_green1.bmp,green,starting_melody,melody,starting,c,negative,positive,ES_purple,1,c,435,1489858,1490363,1490567
25,first,52,munter,IAT_green3.bmp,green,starting_melody,melody,starting,m,positive,positive,ES_purple,1,m,467,1492076,1492580,1492784
25,first,53,einsam,IAT_yellow2.bmp,yellow,ending_melody,melody,ending,c,negative,negative,ES_purple,0,m,428,1494325,1494829,1495033
25,first,54,krank,IAT_green3.bmp,green,starting_melody,melody,starting,c,negative,positive,ES_purple,1,c,402,1497035,1497539,1497743
25,first,55,human,IAT_yellow1.bmp,yellow,ending_melody,melody,ending,m,positive,negative,ES_purple,0,c,314,1499219,1499723,1499927
25,first,56,kaputt,IAT_yellow2.bmp,yellow,ending_melody,melody,ending,c,negative,negative,ES_purple,0,m,333,1501815,1502319,1502523
25,first,57,witzig,IAT_green1.bmp,green,starting_melody,melody,starting,m,positive,positive,ES_purple,1,m,506,1504430,1504934,1505138
25,first,58,gesund,IAT_yellow1.bmp,yellow,ending_melody,melody,ending,m,positive,negative,ES_purple,1,m,419,1506719,1507223,1507427
25,first,59,teuer,IAT_green3.bmp,green,starting_melody,melody,starting,c,negative,positive,ES_purple,1,c,424,1508920,1509424,1509628
25,first,60,sonnig,IAT_green3.bmp,green,starting_melody,melody,starting,m,positive,positive,ES_purple,1,m,428,1511126,1511630,1511834
25,first,61,ehrlich,IAT_red4.bmp,red,starting_scream,scream,starting,m,positive,negative,ES_purple,0,c,576,1513336,1513840,1514044
25,first,62,sonnig,IAT_purple1.bmp,purple,ending_scream,scream,ending,m,positive,positive,ES_purple,1,m,324,1516193,1516698,1516902
25,first,63,einsam,IAT_green2.bmp,green,starting_melody,melody,starting,c,negative,positive,ES_purple,0,m,383,1518298,1518803,1519007
25,first,64,lästig,IAT_yellow2.bmp,yellow,ending_melody,melody,ending,c,negative,negative,ES_purple,0,m,415,1520963,1521468,1521672
25,first,65,gesund,IAT_yellow1.bmp,yellow,ending_melody,melody,ending,m,positive,negative,ES_purple,1,m,406,1523661,1524166,1524370
25,first,66,human,IAT_red1.bmp,red,starting_scream,scream,starting,m,positive,negative,ES_purple,1,m,496,1525850,1526354,1526558
25,first,67,sanft,IAT_purple1.bmp,purple,ending_scream,scream,ending,m,positive,positive,ES_purple,1,m,406,1528128,1528632,1528836
25,first,68,teuer,IAT_green2.bmp,green,starting_melody,melody,starting,c,negative,positive,ES_purple,1,c,457,1530315,1530820,1531024
25,first,69,munter,IAT_green1.bmp,green,starting_melody,melody,starting,m,positive,positive,ES_purple,1,m,468,1532553,1533057,1533261
25,first,70,morsch,IAT_purple4.bmp,purple,ending_scream,scream,ending,c,negative,positive,ES_purple,1,c,471,1534802,1535307,1535511
25,first,71,feige,IAT_purple2.bmp,purple,ending_scream,scream,ending,c,negative,positive,ES_purple,0,m,549,1537056,1537561,1537765
25,first,72,sonnig,IAT_purple3.bmp,purple,ending_scream,scream,ending,m,positive,positive,ES_purple,1,m,617,1539888,1540392,1540596
25,first,73,ehrlich,IAT_yellow3.bmp,yellow,ending_melody,melody,ending,m,positive,negative,ES_purple,1,m,496,1542287,1542791,1542995
25,first,74,streng,IAT_yellow4.bmp,yellow,ending_melody,melody,ending,c,negative,negative,ES_purple,1,c,485,1544565,1545069,1545273
25,first,75,schön,IAT_purple1.bmp,purple,ending_scream,scream,ending,m,positive,positive,ES_purple,1,m,458,1546832,1547336,1547540
25,first,76,heiter,IAT_yellow3.bmp,yellow,ending_melody,melody,ending,m,positive,negative,ES_purple,1,m,534,1549072,1549576,1549780
25,first,77,falsch,IAT_green4.bmp,green,starting_melody,melody,starting,c,negative,positive,ES_purple,1,c,497,1551387,1551892,1552096
25,first,78,munter,IAT_red1.bmp,red,starting_scream,scream,starting,m,positive,negative,ES_purple,1,m,515,1553666,1554171,1554375
25,first,79,feige,IAT_purple3.bmp,purple,ending_scream,scream,ending,c,negative,positive,ES_purple,1,c,601,1555963,1556467,1556671
25,first,80,morsch,IAT_purple1.bmp,purple,ending_scream,scream,ending,c,negative,positive,ES_purple,0,m,485,1558346,1558851,1559055
25,first,81,einsam,IAT_red3.bmp,red,starting_scream,scream,starting,c,negative,negative,ES_purple,0,m,586,1561114,1561618,1561822
25,first,82,sanft,IAT_yellow1.bmp,yellow,ending_melody,melody,ending,m,positive,negative,ES_purple,1,m,579,1563982,1564487,1564691
25,first,83,krank,IAT_red1.bmp,red,starting_scream,scream,starting,c,negative,negative,ES_purple,1,c,402,1566344,1566848,1567052
25,first,84,geizig,IAT_green4.bmp,green,starting_melody,melody,starting,c,negative,positive,ES_purple,1,c,501,1568529,1569033,1569237
25,first,85,brutal,IAT_green4.bmp,green,starting_melody,melody,starting,c,negative,positive,ES_purple,1,c,552,1570812,1571316,1571520
25,first,86,krank,IAT_purple2.bmp,purple,ending_scream,scream,ending,c,negative,positive,ES_purple,1,c,389,1573146,1573650,1573855
25,first,87,teuer,IAT_red1.bmp,red,starting_scream,scream,starting,c,negative,negative,ES_purple,1,c,389,1575318,1575822,1576026
25,first,88,brutal,IAT_green2.bmp,green,starting_melody,melody,starting,c,negative,positive,ES_purple,1,c,450,1577490,1577995,1578199
25,first,89,falsch,IAT_red4.bmp,red,starting_scream,scream,starting,c,negative,negative,ES_purple,1,c,349,1579724,1580228,1580432
25,first,90,kaputt,IAT_yellow4.bmp,yellow,ending_melody,melody,ending,c,negative,negative,ES_purple,1,c,390,1581855,1582359,1582564
25,first,91,witzig,IAT_yellow2.bmp,yellow,ending_melody,melody,ending,m,positive,negative,ES_purple,0,c,365,1584029,1584533,1584737
25,first,92,lästig,IAT_red3.bmp,red,starting_scream,scream,starting,c,negative,negative,ES_purple,0,None,1500,1586676,1587181,1587385
25,first,93,gierig,IAT_yellow4.bmp,yellow,ending_melody,melody,ending,c,negative,negative,ES_purple,1,c,376,1590459,1590963,1591167
25,first,94,gesund,IAT_red2.bmp,red,starting_scream,scream,starting,m,positive,negative,ES_purple,0,c,319,1592617,1593121,1593325
25,first,95,streng,IAT_purple3.bmp,purple,ending_scream,scream,ending,c,negative,positive,ES_purple,0,m,315,1595217,1595721,1595925
25,second,0,gierig,IAT_purple4.bmp,purple,ending_scream,scream,ending,c,negative,positive,ES_purple,0,m,549,1613689,1614193,1614397
25,second,1,human,IAT_yellow2.bmp,yellow,ending_melody,melody,ending,m,positive,negative,ES_purple,1,m,311,1616523,1617027,1617231
25,second,2,sonnig,IAT_green3.bmp,green,starting_melody,melody,starting,m,positive,positive,ES_purple,1,m,220,1618615,1619119,1619323
25,second,3,brutal,IAT_red4.bmp,red,starting_scream,scream,starting,c,negative,negative,ES_purple,0,m,211,1620617,1621121,1621325
25,second,4,streng,IAT_purple4.bmp,purple,ending_scream,scream,ending,c,negative,positive,ES_purple,0,m,226,1623109,1623613,1623817
25,second,5,krank,IAT_purple2.bmp,purple,ending_scream,scream,ending,c,negative,positive,ES_purple,0,m,266,1625617,1626121,1626325
25,second,6,ehrlich,IAT_green2.bmp,green,starting_melody,melody,starting,m,positive,positive,ES_purple,1,m,252,1628164,1628668,1628872
25,second,7,witzig,IAT_yellow1.bmp,yellow,ending_melody,melody,ending,m,positive,negative,ES_purple,0,c,272,1630197,1630702,1630906
25,second,8,feige,IAT_yellow3.bmp,yellow,ending_melody,melody,ending,c,negative,negative,ES_purple,0,m,266,1632751,1633255,1633459
25,second,9,streng,IAT_purple4.bmp,purple,ending_scream,scream,ending,c,negative,positive,ES_purple,0,m,423,1635299,1635803,1636007
25,second,10,einsam,IAT_green4.bmp,green,starting_melody,melody,starting,c,negative,positive,ES_purple,0,m,744,1638003,1638507,1638711
25,second,11,brutal,IAT_red2.bmp,red,starting_scream,scream,starting,c,negative,negative,ES_purple,1,c,350,1641029,1641533,1641737
25,second,12,heiter,IAT_yellow4.bmp,yellow,ending_melody,melody,ending,m,positive,negative,ES_purple,1,m,447,1643161,1643665,1643869
25,second,13,morsch,IAT_purple4.bmp,purple,ending_scream,scream,ending,c,negative,positive,ES_purple,1,c,349,1645390,1645895,1646099
25,second,14,gerecht,IAT_red2.bmp,red,starting_scream,scream,starting,m,positive,negative,ES_purple,0,c,348,1647522,1648026,1648230
25,second,15,kaputt,IAT_yellow4.bmp,yellow,ending_melody,melody,ending,c,negative,negative,ES_purple,0,m,537,1650152,1650657,1650861
25,second,16,munter,IAT_green4.bmp,green,starting_melody,melody,starting,m,positive,positive,ES_purple,0,c,447,1652972,1653476,1653680
25,second,17,morsch,IAT_red4.bmp,red,starting_scream,scream,starting,c,negative,negative,ES_purple,0,m,557,1655700,1656205,1656409
25,second,18,sanft,IAT_red4.bmp,red,starting_scream,scream,starting,m,positive,negative,ES_purple,0,c,311,1658540,1659044,1659248
25,second,19,geizig,IAT_red2.bmp,red,starting_scream,scream,starting,c,negative,negative,ES_purple,1,c,566,1661132,1661636,1661840
25,second,20,lustig,IAT_red2.bmp,red,starting_scream,scream,starting,m,positive,negative,ES_purple,1,m,541,1663481,1663985,1664189
25,second,21,kaputt,IAT_green2.bmp,green,starting_melody,melody,starting,c,negative,positive,ES_purple,1,c,410,1665804,1666308,1666512
25,second,22,teuer,IAT_yellow4.bmp,yellow,ending_melody,melody,ending,c,negative,negative,ES_purple,1,c,433,1667997,1668501,1668705
25,second,23,morsch,IAT_red4.bmp,red,starting_scream,scream,starting,c,negative,negative,ES_purple,1,c,419,1670212,1670716,1670920
25,second,24,sonnig,IAT_yellow1.bmp,yellow,ending_melody,melody,ending,m,positive,negative,ES_purple,0,c,429,1672413,1672917,1673121
25,second,25,falsch,IAT_green3.bmp,green,starting_melody,melody,starting,c,negative,positive,ES_purple,1,c,449,1675126,1675630,1675834
25,second,26,kaputt,IAT_purple1.bmp,purple,ending_scream,scream,ending,c,negative,positive,ES_purple,1,c,430,1677356,1677861,1678065
25,second,27,krank,IAT_purple2.bmp,purple,ending_scream,scream,ending,c,negative,positive,ES_purple,1,c,452,1679569,1680073,1680277
25,second,28,teuer,IAT_yellow2.bmp,yellow,ending_melody,melody,ending,c,negative,negative,ES_purple,1,c,397,1681803,1682307,1682511
25,second,29,gerecht,IAT_green1.bmp,green,starting_melody,melody,starting,m,positive,positive,ES_purple,1,m,480,1683982,1684486,1684690
25,second,30,feige,IAT_green4.bmp,green,starting_melody,melody,starting,c,negative,positive,ES_purple,1,c,624,1686244,1686748,1686952
25,second,31,witzig,IAT_red4.bmp,red,starting_scream,scream,starting,m,positive,negative,ES_purple,1,m,613,1688650,1689155,1689359
25,second,32,geizig,IAT_yellow4.bmp,yellow,ending_melody,melody,ending,c,negative,negative,ES_purple,1,c,710,1691046,1691551,1691755
25,second,33,lustig,IAT_yellow3.bmp,yellow,ending_melody,melody,ending,m,positive,negative,ES_purple,1,m,528,1693540,1694044,1694248
25,second,34,munter,IAT_purple3.bmp,purple,ending_scream,scream,ending,m,positive,positive,ES_purple,1,m,563,1695851,1696355,1696559
25,second,35,ehrlich,IAT_yellow2.bmp,yellow,ending_melody,melody,ending,m,positive,negative,ES_purple,1,m,667,1698195,1698699,1698903
25,second,36,gierig,IAT_red4.bmp,red,starting_scream,scream,starting,c,negative,negative,ES_purple,1,c,609,1700645,1701149,1701353
25,second,37,sozial,IAT_red3.bmp,red,starting_scream,scream,starting,m,positive,negative,ES_purple,1,m,456,1703036,1703540,1703744
25,second,38,morsch,IAT_purple1.bmp,purple,ending_scream,scream,ending,c,negative,positive,ES_purple,1,c,537,1705274,1705778,1705982
25,second,39,human,IAT_red3.bmp,red,starting_scream,scream,starting,m,positive,negative,ES_purple,1,m,503,1707593,1708097,1708301
25,second,40,sonnig,IAT_purple4.bmp,purple,ending_scream,scream,ending,m,positive,positive,ES_purple,1,m,443,1709877,1710381,1710585
25,second,41,human,IAT_red1.bmp,red,starting_scream,scream,starting,m,positive,negative,ES_purple,1,m,660,1712102,1712606,1712810
25,second,42,teuer,IAT_yellow3.bmp,yellow,ending_melody,melody,ending,c,negative,negative,ES_purple,0,m,837,1714544,1715048,1715252
25,second,43,lästig,IAT_purple3.bmp,purple,ending_scream,scream,ending,c,negative,positive,ES_purple,1,c,686,1717663,1718168,1718372
25,second,44,gerecht,IAT_green3.bmp,green,starting_melody,melody,starting,m,positive,positive,ES_purple,1,m,619,1720132,1720636,1720841
25,second,45,streng,IAT_purple2.bmp,purple,ending_scream,scream,ending,c,negative,positive,ES_purple,1,c,1186,1722534,1723038,1723242
25,second,46,schön,IAT_green2.bmp,green,starting_melody,melody,starting,m,positive,positive,ES_purple,1,m,457,1725502,1726007,1726211
25,second,47,munter,IAT_green3.bmp,green,starting_melody,melody,starting,m,positive,positive,ES_purple,1,m,569,1727742,1728246,1728450
25,second,48,sanft,IAT_purple3.bmp,purple,ending_scream,scream,ending,m,positive,positive,ES_purple,1,m,572,1730092,1730596,1730800
25,second,49,sonnig,IAT_green4.bmp,green,starting_melody,melody,starting,m,positive,positive,ES_purple,1,m,691,1732446,1732951,1733155
25,second,50,einsam,IAT_yellow4.bmp,yellow,ending_melody,melody,ending,c,negative,negative,ES_purple,1,c,546,1734921,1735425,1735629
25,second,51,lustig,IAT_green1.bmp,green,starting_melody,melody,starting,m,positive,positive,ES_purple,1,m,521,1737249,1737753,1737957
25,second,52,geizig,IAT_green2.bmp,green,starting_melody,melody,starting,c,negative,positive,ES_purple,1,c,505,1739552,1740056,1740260
25,second,53,gesund,IAT_green1.bmp,green,starting_melody,melody,starting,m,positive,positive,ES_purple,1,m,599,1741840,1742344,1742548
25,second,54,gierig,IAT_purple2.bmp,purple,ending_scream,scream,ending,c,negative,positive,ES_purple,1,c,615,1744221,1744725,1744929
25,second,55,brutal,IAT_yellow2.bmp,yellow,ending_melody,melody,ending,c,negative,negative,ES_purple,1,c,753,1746618,1747122,1747326
25,second,56,einsam,IAT_red3.bmp,red,starting_scream,scream,starting,c,negative,negative,ES_purple,0,m,530,1749153,1749657,1749861
25,second,57,falsch,IAT_green2.bmp,green,starting_melody,melody,starting,c,negative,positive,ES_purple,0,m,552,1751964,1752469,1752673
25,second,58,schön,IAT_red1.bmp,red,starting_scream,scream,starting,m,positive,negative,ES_purple,1,m,537,1754799,1755303,1755507
25,second,59,sanft,IAT_purple2.bmp,purple,ending_scream,scream,ending,m,positive,positive,ES_purple,1,m,549,1757118,1757623,1757827
25,second,60,schön,IAT_purple3.bmp,purple,ending_scream,scream,ending,m,positive,positive,ES_purple,1,m,650,1759451,1759955,1760159
25,second,61,sozial,IAT_purple2.bmp,purple,ending_scream,scream,ending,m,positive,positive,ES_purple,0,c,508,1761883,1762387,1762591
25,second,62,gesund,IAT_green1.bmp,green,starting_melody,melody,starting,m,positive,positive,ES_purple,1,m,452,1764672,1765176,1765380
25,second,63,witzig,IAT_yellow1.bmp,yellow,ending_melody,melody,ending,m,positive,negative,ES_purple,1,m,572,1766906,1767410,1767615
25,second,64,lästig,IAT_red1.bmp,red,starting_scream,scream,starting,c,negative,negative,ES_purple,1,c,769,1769261,1769765,1769969
25,second,65,kaputt,IAT_purple3.bmp,purple,ending_scream,scream,ending,c,negative,positive,ES_purple,1,c,798,1771812,1772316,1772520
25,second,66,krank,IAT_red2.bmp,red,starting_scream,scream,starting,c,negative,negative,ES_purple,1,c,534,1774392,1774896,1775100
25,second,67,heiter,IAT_yellow4.bmp,yellow,ending_melody,melody,ending,m,positive,negative,ES_purple,1,m,504,1776708,1777212,1777416
25,second,68,einsam,IAT_red3.bmp,red,starting_scream,scream,starting,c,negative,negative,ES_purple,1,c,1101,1778994,1779498,1779702
25,second,69,lästig,IAT_red2.bmp,red,starting_scream,scream,starting,c,negative,negative,ES_purple,1,c,669,1781878,1782382,1782586
25,second,70,sozial,IAT_yellow3.bmp,yellow,ending_melody,melody,ending,m,positive,negative,ES_purple,1,m,515,1784330,1784835,1785039
25,second,71,brutal,IAT_red1.bmp,red,starting_scream,scream,starting,c,negative,negative,ES_purple,1,c,659,1786629,1787133,1787337
25,second,72,munter,IAT_green3.bmp,green,starting_melody,melody,starting,m,positive,positive,ES_purple,1,m,530,1789071,1789575,1789779
25,second,73,heiter,IAT_purple1.bmp,purple,ending_scream,scream,ending,m,positive,positive,ES_purple,1,m,651,1791383,1791887,1792091
25,second,74,sozial,IAT_purple4.bmp,purple,ending_scream,scream,ending,m,positive,positive,ES_purple,1,m,662,1793816,1794321,1794525
25,second,75,ehrlich,IAT_purple1.bmp,purple,ending_scream,scream,ending,m,positive,positive,ES_purple,1,m,685,1796262,1796766,1796970
25,second,76,gierig,IAT_green2.bmp,green,starting_melody,melody,starting,c,negative,positive,ES_purple,0,m,636,1798728,1799233,1799437
25,second,77,krank,IAT_yellow1.bmp,yellow,ending_melody,melody,ending,c,negative,negative,ES_purple,1,c,507,1801648,1802152,1802356
25,second,78,gesund,IAT_yellow1.bmp,yellow,ending_melody,melody,ending,m,positive,negative,ES_purple,1,m,576,1803939,1804443,1804647
25,second,79,schön,IAT_red1.bmp,red,starting_scream,scream,starting,m,positive,negative,ES_purple,1,m,548,1806298,1806802,1807006
25,second,80,gerecht,IAT_purple1.bmp,purple,ending_scream,scream,ending,m,positive,positive,ES_purple,1,m,704,1808628,1809132,1809336
25,second,81,falsch,IAT_green4.bmp,green,starting_melody,melody,starting,c,negative,positive,ES_purple,1,c,450,1811114,1811618,1811822
25,second,82,geizig,IAT_yellow2.bmp,yellow,ending_melody,melody,ending,c,negative,negative,ES_purple,0,m,693,1813346,1813851,1814055
25,second,83,gesund,IAT_yellow3.bmp,yellow,ending_melody,melody,ending,m,positive,negative,ES_purple,1,m,448,1816322,1816826,1817030
25,second,84,sanft,IAT_purple3.bmp,purple,ending_scream,scream,ending,m,positive,positive,ES_purple,1,m,518,1818552,1819056,1819260
25,second,85,lästig,IAT_green1.bmp,green,starting_melody,melody,starting,c,negative,positive,ES_purple,1,c,540,1820852,1821356,1821560
25,second,86,falsch,IAT_green1.bmp,green,starting_melody,melody,starting,c,negative,positive,ES_purple,1,c,808,1823174,1823679,1823883
25,second,87,feige,IAT_green4.bmp,green,starting_melody,melody,starting,c,negative,positive,ES_purple,1,c,590,1825766,1826270,1826474
25,second,88,heiter,IAT_red1.bmp,red,starting_scream,scream,starting,m,positive,negative,ES_purple,1,m,650,1828139,1828644,1828848
25,second,89,ehrlich,IAT_red3.bmp,red,starting_scream,scream,starting,m,positive,negative,ES_purple,0,c,433,1830573,1831077,1831281
25,second,90,lustig,IAT_purple1.bmp,purple,ending_scream,scream,ending,m,positive,positive,ES_purple,1,m,585,1833289,1833793,1833997
25,second,91,teuer,IAT_yellow2.bmp,yellow,ending_melody,melody,ending,c,negative,negative,ES_purple,1,c,419,1835657,1836161,1836365
25,second,92,human,IAT_red3.bmp,red,starting_scream,scream,starting,m,positive,negative,ES_purple,1,m,535,1837859,1838363,1838567
25,second,93,witzig,IAT_yellow3.bmp,yellow,ending_melody,melody,ending,m,positive,negative,ES_purple,0,c,484,1840177,1840681,1840885
25,second,94,streng,IAT_yellow1.bmp,yellow,ending_melody,melody,ending,c,negative,negative,ES_purple,0,m,536,1842944,1843448,1843652
25,second,95,feige,IAT_green3.bmp,green,starting_melody,melody,starting,c,negative,positive,ES_purple,0,None,1500,1845762,1846266,1846470
25,third,0,schön,IAT_purple3.bmp,purple,ending_scream,scream,ending,m,positive,positive,ES_purple,0,c,316,1870246,1870751,1870955
25,third,1,sanft,IAT_yellow2.bmp,yellow,ending_melody,melody,ending,m,positive,negative,ES_purple,1,m,338,1872848,1873352,1873557
25,third,2,sonnig,IAT_green4.bmp,green,starting_melody,melody,starting,m,positive,positive,ES_purple,1,m,505,1874968,1875473,1875677
25,third,3,schön,IAT_red1.bmp,red,starting_scream,scream,starting,m,positive,negative,ES_purple,1,m,379,1877256,1877760,1877964
25,third,4,gerecht,IAT_red2.bmp,red,starting_scream,scream,starting,m,positive,negative,ES_purple,1,m,481,1879417,1879921,1880125
25,third,5,lästig,IAT_green2.bmp,green,starting_melody,melody,starting,c,negative,positive,ES_purple,0,m,395,1881680,1882184,1882388
25,third,6,geizig,IAT_green1.bmp,green,starting_melody,melody,starting,c,negative,positive,ES_purple,1,c,550,1884357,1884862,1885066
25,third,7,teuer,IAT_red3.bmp,red,starting_scream,scream,starting,c,negative,negative,ES_purple,0,m,472,1886691,1887198,1887402
25,third,8,gesund,IAT_green3.bmp,green,starting_melody,melody,starting,m,positive,positive,ES_purple,0,c,276,1889448,1889952,1890156
25,third,9,einsam,IAT_yellow4.bmp,yellow,ending_melody,melody,ending,c,negative,negative,ES_purple,1,c,690,1892006,1892511,1892715
25,third,10,heiter,IAT_green3.bmp,green,starting_melody,melody,starting,m,positive,positive,ES_purple,1,m,502,1894479,1894984,1895188
25,third,11,sanft,IAT_red3.bmp,red,starting_scream,scream,starting,m,positive,negative,ES_purple,1,m,494,1896764,1897269,1897473
25,third,12,brutal,IAT_yellow2.bmp,yellow,ending_melody,melody,ending,c,negative,negative,ES_purple,0,m,652,1899041,1899546,1899750
25,third,13,streng,IAT_purple2.bmp,purple,ending_scream,scream,ending,c,negative,positive,ES_purple,0,m,546,1901976,1902480,1902684
25,third,14,einsam,IAT_yellow3.bmp,yellow,ending_melody,melody,ending,c,negative,negative,ES_purple,1,c,384,1904804,1905308,1905513
25,third,15,human,IAT_green1.bmp,green,starting_melody,melody,starting,m,positive,positive,ES_purple,1,m,457,1906971,1907475,1907679
25,third,16,geizig,IAT_purple3.bmp,purple,ending_scream,scream,ending,c,negative,positive,ES_purple,0,m,511,1909210,1909714,1909918
25,third,17,morsch,IAT_yellow4.bmp,yellow,ending_melody,melody,ending,c,negative,negative,ES_purple,0,m,320,1912003,1912507,1912711
25,third,18,ehrlich,IAT_green2.bmp,green,starting_melody,melody,starting,m,positive,positive,ES_purple,1,m,376,1914604,1915109,1915313
25,third,19,feige,IAT_purple2.bmp,purple,ending_scream,scream,ending,c,negative,positive,ES_purple,0,m,442,1916763,1917267,1917471
25,third,20,morsch,IAT_yellow3.bmp,yellow,ending_melody,melody,ending,c,negative,negative,ES_purple,0,m,281,1919487,1919991,1920195
25,third,21,witzig,IAT_red3.bmp,red,starting_scream,scream,starting,m,positive,negative,ES_purple,1,m,51,1922051,1922555,1922759
25,third,22,sanft,IAT_purple2.bmp,purple,ending_scream,scream,ending,m,positive,positive,ES_purple,1,m,291,1923884,1924388,1924592
25,third,23,sozial,IAT_purple3.bmp,purple,ending_scream,scream,ending,m,positive,positive,ES_purple,1,m,306,1925957,1926461,1926665
25,third,24,teuer,IAT_green3.bmp,green,starting_melody,melody,starting,c,negative,positive,ES_purple,0,m,353,1928045,1928549,1928753
25,third,25,kaputt,IAT_red1.bmp,red,starting_scream,scream,starting,c,negative,negative,ES_purple,1,c,267,1930681,1931186,1931390
25,third,26,witzig,IAT_red1.bmp,red,starting_scream,scream,starting,m,positive,negative,ES_purple,0,c,158,1932732,1933237,1933441
25,third,27,heiter,IAT_yellow4.bmp,yellow,ending_melody,melody,ending,m,positive,negative,ES_purple,1,m,213,1935174,1935678,1935882
25,third,28,geizig,IAT_yellow1.bmp,yellow,ending_melody,melody,ending,c,negative,negative,ES_purple,0,m,372,1937169,1937674,1937878
25,third,29,munter,IAT_green1.bmp,green,starting_melody,melody,starting,m,positive,positive,ES_purple,0,None,1500,1939823,1940328,1940532
25,third,30,krank,IAT_yellow2.bmp,yellow,ending_melody,melody,ending,c,negative,negative,ES_purple,0,m,9,1943606,1944111,1944315
25,third,31,schön,IAT_red1.bmp,red,starting_scream,scream,starting,m,positive,negative,ES_purple,1,m,1056,1945899,1946404,1946608
25,third,32,einsam,IAT_yellow1.bmp,yellow,ending_melody,melody,ending,c,negative,negative,ES_purple,0,m,309,1948739,1949243,1949447
25,third,33,munter,IAT_purple3.bmp,purple,ending_scream,scream,ending,m,positive,positive,ES_purple,1,m,211,1951330,1951834,1952038
25,third,34,gesund,IAT_green2.bmp,green,starting_melody,melody,starting,m,positive,positive,ES_purple,1,m,287,1953322,1953827,1954031
25,third,35,kaputt,IAT_purple2.bmp,purple,ending_scream,scream,ending,c,negative,positive,ES_purple,0,m,245,1955392,1955897,1956101
25,third,36,heiter,IAT_yellow3.bmp,yellow,ending_melody,melody,ending,m,positive,negative,ES_purple,1,m,177,1957920,1958425,1958629
25,third,37,gesund,IAT_purple4.bmp,purple,ending_scream,scream,ending,m,positive,positive,ES_purple,0,c,197,1959881,1960385,1960589
25,third,38,gierig,IAT_yellow2.bmp,yellow,ending_melody,melody,ending,c,negative,negative,ES_purple,0,m,191,1962362,1962866,1963070
25,third,39,teuer,IAT_red2.bmp,red,starting_scream,scream,starting,c,negative,negative,ES_purple,1,c,825,1964836,1965340,1965544
25,third,40,lustig,IAT_yellow4.bmp,yellow,ending_melody,melody,ending,m,positive,negative,ES_purple,1,m,246,1967443,1967948,1968152
25,third,41,krank,IAT_purple4.bmp,purple,ending_scream,scream,ending,c,negative,positive,ES_purple,0,m,97,1969472,1969976,1970180
25,third,42,streng,IAT_yellow4.bmp,yellow,ending_melody,melody,ending,c,negative,negative,ES_purple,0,m,438,1971852,1972357,1972561
25,third,43,falsch,IAT_purple2.bmp,purple,ending_scream,scream,ending,c,negative,positive,ES_purple,1,c,317,1974573,1975077,1975281
25,third,44,gierig,IAT_green4.bmp,green,starting_melody,melody,starting,c,negative,positive,ES_purple,1,c,469,1976672,1977176,1977380
25,third,45,lästig,IAT_green2.bmp,green,starting_melody,melody,starting,c,negative,positive,ES_purple,1,c,472,1978925,1979429,1979633
25,third,46,feige,IAT_red2.bmp,red,starting_scream,scream,starting,c,negative,negative,ES_purple,1,c,627,1981180,1981684,1981888
25,third,47,brutal,IAT_green3.bmp,green,starting_melody,melody,starting,c,negative,positive,ES_purple,1,c,488,1983589,1984094,1984298
25,third,48,sozial,IAT_purple4.bmp,purple,ending_scream,scream,ending,m,positive,positive,ES_purple,0,c,369,1985861,1986365,1986569
25,third,49,falsch,IAT_green4.bmp,green,starting_melody,melody,starting,c,negative,positive,ES_purple,1,c,798,1988513,1989017,1989221
25,third,50,teuer,IAT_green2.bmp,green,starting_melody,melody,starting,c,negative,positive,ES_purple,1,c,391,1991092,1991596,1991800
25,third,51,sonnig,IAT_red3.bmp,red,starting_scream,scream,starting,m,positive,negative,ES_purple,1,m,323,1993265,1993769,1993973
25,third,52,sozial,IAT_green4.bmp,green,starting_melody,melody,starting,m,positive,positive,ES_purple,0,c,459,1995371,1995875,1996079
25,third,53,munter,IAT_green3.bmp,green,starting_melody,melody,starting,m,positive,positive,ES_purple,0,c,471,1998112,1998617,1998821
25,third,54,witzig,IAT_yellow1.bmp,yellow,ending_melody,melody,ending,m,positive,negative,ES_purple,1,m,113,2000867,2001372,2001576
25,third,55,kaputt,IAT_red1.bmp,red,starting_scream,scream,starting,c,negative,negative,ES_purple,1,c,285,2002763,2003267,2003471
25,third,56,ehrlich,IAT_purple2.bmp,purple,ending_scream,scream,ending,m,positive,positive,ES_purple,1,m,316,2004830,2005335,2005539
25,third,57,krank,IAT_red4.bmp,red,starting_scream,scream,starting,c,negative,negative,ES_purple,1,c,617,2006929,2007433,2007637
25,third,58,human,IAT_red4.bmp,red,starting_scream,scream,starting,m,positive,negative,ES_purple,1,m,285,2009329,2009833,2010037
25,third,59,schön,IAT_yellow2.bmp,yellow,ending_melody,melody,ending,m,positive,negative,ES_purple,1,m,230,2011398,2011902,2012106
25,third,60,sozial,IAT_purple1.bmp,purple,ending_scream,scream,ending,m,positive,positive,ES_purple,1,m,291,2013411,2013915,2014119
25,third,61,ehrlich,IAT_yellow1.bmp,yellow,ending_melody,melody,ending,m,positive,negative,ES_purple,0,c,216,2015485,2015989,2016193
25,third,62,streng,IAT_purple4.bmp,purple,ending_scream,scream,ending,c,negative,positive,ES_purple,0,m,451,2017983,2018487,2018691
25,third,63,munter,IAT_yellow1.bmp,yellow,ending_melody,melody,ending,m,positive,negative,ES_purple,0,c,42,2020717,2021221,2021425
25,third,64,brutal,IAT_red4.bmp,red,starting_scream,scream,starting,c,negative,negative,ES_purple,0,m,1419,2023042,2023546,2023750
25,third,65,lästig,IAT_green2.bmp,green,starting_melody,melody,starting,c,negative,positive,ES_purple,0,m,276,2026744,2027248,2027452
25,third,66,sanft,IAT_red2.bmp,red,starting_scream,scream,starting,m,positive,negative,ES_purple,0,c,474,2029303,2029807,2030011
25,third,67,feige,IAT_purple3.bmp,purple,ending_scream,scream,ending,c,negative,positive,ES_purple,0,m,280,2032060,2032564,2032768
25,third,68,lustig,IAT_red1.bmp,red,starting_scream,scream,starting,m,positive,negative,ES_purple,0,c,127,2034623,2035127,2035331
25,third,69,geizig,IAT_red2.bmp,red,starting_scream,scream,starting,c,negative,negative,ES_purple,1,c,159,2037033,2037537,2037741
25,third,70,gerecht,IAT_green1.bmp,green,starting_melody,melody,starting,m,positive,positive,ES_purple,1,m,284,2038975,2039479,2039683
25,third,71,morsch,IAT_green1.bmp,green,starting_melody,melody,starting,c,negative,positive,ES_purple,1,c,306,2041042,2041546,2041750
25,third,72,feige,IAT_purple1.bmp,purple,ending_scream,scream,ending,c,negative,positive,ES_purple,0,m,417,2043131,2043636,2043840
25,third,73,human,IAT_purple3.bmp,purple,ending_scream,scream,ending,m,positive,positive,ES_purple,1,m,275,2045832,2046336,2046540
25,third,74,lästig,IAT_green4.bmp,green,starting_melody,melody,starting,c,negative,positive,ES_purple,0,m,446,2047891,2048395,2048599
25,third,75,witzig,IAT_purple1.bmp,purple,ending_scream,scream,ending,m,positive,positive,ES_purple,0,c,228,2050621,2051125,2051329
25,third,76,lustig,IAT_yellow1.bmp,yellow,ending_melody,melody,ending,m,positive,negative,ES_purple,1,m,469,2053132,2053637,2053841
25,third,77,morsch,IAT_green4.bmp,green,starting_melody,melody,starting,c,negative,positive,ES_purple,0,m,325,2055384,2055889,2056093
25,third,78,sonnig,IAT_green1.bmp,green,starting_melody,melody,starting,m,positive,positive,ES_purple,1,m,289,2057993,2058497,2058701
25,third,79,falsch,IAT_purple4.bmp,purple,ending_scream,scream,ending,c,negative,positive,ES_purple,1,c,287,2060065,2060569,2060773
25,third,80,einsam,IAT_yellow4.bmp,yellow,ending_melody,melody,ending,c,negative,negative,ES_purple,0,m,246,2062135,2062640,2062844
25,third,81,gierig,IAT_red2.bmp,red,starting_scream,scream,starting,c,negative,negative,ES_purple,1,c,176,2064665,2065169,2065373
25,third,82,heiter,IAT_purple1.bmp,purple,ending_scream,scream,ending,m,positive,positive,ES_purple,0,c,214,2066624,2067129,2067333
25,third,83,gerecht,IAT_red4.bmp,red,starting_scream,scream,starting,m,positive,negative,ES_purple,0,c,89,2069124,2069628,2069832
25,third,84,brutal,IAT_yellow2.bmp,yellow,ending_melody,melody,ending,c,negative,negative,ES_purple,0,m,420,2071496,2072001,2072205
25,third,85,gierig,IAT_red4.bmp,red,starting_scream,scream,starting,c,negative,negative,ES_purple,0,m,418,2074201,2074705,2074909
25,third,86,ehrlich,IAT_yellow3.bmp,yellow,ending_melody,melody,ending,m,positive,negative,ES_purple,1,m,313,2076902,2077406,2077610
25,third,87,sonnig,IAT_purple1.bmp,purple,ending_scream,scream,ending,m,positive,positive,ES_purple,1,m,360,2078997,2079501,2079705
25,third,88,gerecht,IAT_red3.bmp,red,starting_scream,scream,starting,m,positive,negative,ES_purple,1,m,294,2081141,2081645,2081849
25,third,89,lustig,IAT_green3.bmp,green,starting_melody,melody,starting,m,positive,positive,ES_purple,1,m,290,2083218,2083722,2083926
25,third,90,streng,IAT_purple1.bmp,purple,ending_scream,scream,ending,c,negative,positive,ES_purple,0,m,405,2085291,2085796,2086000
25,third,91,gesund,IAT_yellow3.bmp,yellow,ending_melody,melody,ending,m,positive,negative,ES_purple,1,m,232,2087980,2088485,2088689
25,third,92,falsch,IAT_red3.bmp,red,starting_scream,scream,starting,c,negative,negative,ES_purple,0,m,275,2089996,2090501,2090705
25,third,93,human,IAT_yellow3.bmp,yellow,ending_melody,melody,ending,m,positive,negative,ES_purple,0,c,97,2092555,2093060,2093264
25,third,94,kaputt,IAT_red4.bmp,red,starting_scream,scream,starting,c,negative,negative,ES_purple,1,c,283,2094937,2095441,2095645
25,third,95,krank,IAT_purple4.bmp,purple,ending_scream,scream,ending,c,negative,positive,ES_purple,1,c,253,2097002,2097507,2097711
25,forth,0,streng,IAT_red3.bmp,red,starting_scream,scream,starting,c,negative,negative,ES_purple,0,m,188,2118765,2119269,2119473
25,forth,1,lustig,IAT_green1.bmp,green,starting_melody,melody,starting,m,positive,positive,ES_purple,0,c,10,2121237,2121741,2121945
25,forth,2,munter,IAT_green3.bmp,green,starting_melody,melody,starting,m,positive,positive,ES_purple,1,m,258,2123530,2124035,2124239
25,forth,3,brutal,IAT_purple2.bmp,purple,ending_scream,scream,ending,c,negative,positive,ES_purple,0,m,290,2125571,2126076,2126280
25,forth,4,ehrlich,IAT_purple3.bmp,purple,ending_scream,scream,ending,m,positive,positive,ES_purple,0,c,137,2128143,2128647,2128851
25,forth,5,krank,IAT_red2.bmp,red,starting_scream,scream,starting,c,negative,negative,ES_purple,1,c,167,2130563,2131067,2131271
25,forth,6,morsch,IAT_purple4.bmp,purple,ending_scream,scream,ending,c,negative,positive,ES_purple,0,m,367,2132512,2133016,2133220
25,forth,7,human,IAT_red1.bmp,red,starting_scream,scream,starting,m,positive,negative,ES_purple,0,c,317,2135162,2135666,2135870
25,forth,8,falsch,IAT_green3.bmp,green,starting_melody,melody,starting,c,negative,positive,ES_purple,0,m,243,2137763,2138267,2138471
25,forth,9,heiter,IAT_yellow3.bmp,yellow,ending_melody,melody,ending,m,positive,negative,ES_purple,1,m,727,2140288,2140792,2140996
25,forth,10,krank,IAT_purple2.bmp,purple,ending_scream,scream,ending,c,negative,positive,ES_purple,1,c,245,2142797,2143301,2143505
25,forth,11,streng,IAT_yellow4.bmp,yellow,ending_melody,melody,ending,c,negative,negative,ES_purple,1,c,246,2144825,2145329,2145533
25,forth,12,sonnig,IAT_purple3.bmp,purple,ending_scream,scream,ending,m,positive,positive,ES_purple,1,m,258,2146855,2147359,2147563
25,forth,13,teuer,IAT_green4.bmp,green,starting_melody,melody,starting,c,negative,positive,ES_purple,1,c,181,2148895,2149399,2149603
25,forth,14,gerecht,IAT_green1.bmp,green,starting_melody,melody,starting,m,positive,positive,ES_purple,0,c,109,2150859,2151363,2151567
25,forth,15,brutal,IAT_red4.bmp,red,starting_scream,scream,starting,c,negative,negative,ES_purple,0,m,153,2153252,2153756,2153960
25,forth,16,human,IAT_purple2.bmp,purple,ending_scream,scream,ending,m,positive,positive,ES_purple,0,c,493,2155688,2156192,2156396
25,forth,17,geizig,IAT_red3.bmp,red,starting_scream,scream,starting,c,negative,negative,ES_purple,0,m,316,2158463,2158967,2159171
25,forth,18,sonnig,IAT_purple4.bmp,purple,ending_scream,scream,ending,m,positive,positive,ES_purple,1,m,266,2161062,2161566,2161770
25,forth,19,einsam,IAT_yellow1.bmp,yellow,ending_melody,melody,ending,c,negative,negative,ES_purple,0,m,263,2163111,2163615,2163819
25,forth,20,krank,IAT_yellow3.bmp,yellow,ending_melody,melody,ending,c,negative,negative,ES_purple,1,c,39,2165656,2166160,2166364
25,forth,21,lästig,IAT_green4.bmp,green,starting_melody,melody,starting,c,negative,positive,ES_purple,0,m,166,2167479,2167984,2168188
25,forth,22,heiter,IAT_red1.bmp,red,starting_scream,scream,starting,m,positive,negative,ES_purple,0,c,8,2169929,2170433,2170637
25,forth,23,krank,IAT_purple4.bmp,purple,ending_scream,scream,ending,c,negative,positive,ES_purple,1,c,207,2172218,2172723,2172927
25,forth,24,teuer,IAT_yellow2.bmp,yellow,ending_melody,melody,ending,c,negative,negative,ES_purple,0,m,267,2174209,2174714,2174918
25,forth,25,einsam,IAT_red4.bmp,red,starting_scream,scream,starting,c,negative,negative,ES_purple,1,c,58,2176761,2177265,2177469
25,forth,26,sanft,IAT_purple1.bmp,purple,ending_scream,scream,ending,m,positive,positive,ES_purple,0,c,31,2178603,2179107,2179311
25,forth,27,munter,IAT_purple3.bmp,purple,ending_scream,scream,ending,m,positive,positive,ES_purple,1,m,64,2180917,2181421,2181625
25,forth,28,gesund,IAT_red2.bmp,red,starting_scream,scream,starting,m,positive,negative,ES_purple,1,m,161,2182763,2183267,2183471
25,forth,29,gierig,IAT_red4.bmp,red,starting_scream,scream,starting,c,negative,negative,ES_purple,0,m,513,2184706,2185211,2185415
25,forth,30,sanft,IAT_yellow4.bmp,yellow,ending_melody,melody,ending,m,positive,negative,ES_purple,0,c,465,2187503,2188007,2188211
25,forth,31,sozial,IAT_purple1.bmp,purple,ending_scream,scream,ending,m,positive,positive,ES_purple,1,m,398,2190251,2190756,2190960
25,forth,32,ehrlich,IAT_green1.bmp,green,starting_melody,melody,starting,m,positive,positive,ES_purple,0,c,300,2192433,2192937,2193141
25,forth,33,schön,IAT_purple3.bmp,purple,ending_scream,scream,ending,m,positive,positive,ES_purple,0,c,14,2195015,2195519,2195723
25,forth,34,gesund,IAT_red4.bmp,red,starting_scream,scream,starting,m,positive,negative,ES_purple,1,m,355,2197312,2197816,2198020
25,forth,35,schön,IAT_yellow2.bmp,yellow,ending_melody,melody,ending,m,positive,negative,ES_purple,0,c,174,2199451,2199955,2200159
25,forth,36,einsam,IAT_yellow3.bmp,yellow,ending_melody,melody,ending,c,negative,negative,ES_purple,0,m,129,2201910,2202414,2202618
25,forth,37,munter,IAT_yellow3.bmp,yellow,ending_melody,melody,ending,m,positive,negative,ES_purple,1,m,5,2204321,2204826,2205030
25,forth,38,schön,IAT_yellow1.bmp,yellow,ending_melody,melody,ending,m,positive,negative,ES_purple,1,m,328,2206112,2206616,2206820
25,forth,39,witzig,IAT_green2.bmp,green,starting_melody,melody,starting,m,positive,positive,ES_purple,0,c,294,2208223,2208727,2208931
25,forth,40,feige,IAT_green4.bmp,green,starting_melody,melody,starting,c,negative,positive,ES_purple,0,m,15,2210800,2211305,2211509
25,forth,41,ehrlich,IAT_red3.bmp,red,starting_scream,scream,starting,m,positive,negative,ES_purple,1,m,481,2213100,2213605,2213809
25,forth,42,witzig,IAT_green3.bmp,green,starting_melody,melody,starting,m,positive,positive,ES_purple,1,m,87,2215365,2215870,2216074
25,forth,43,sanft,IAT_red3.bmp,red,starting_scream,scream,starting,m,positive,negative,ES_purple,1,m,178,2217235,2217740,2217944
25,forth,44,gerecht,IAT_yellow2.bmp,yellow,ending_melody,melody,ending,m,positive,negative,ES_purple,1,m,9,2219197,2219701,2219905
25,forth,45,schön,IAT_green3.bmp,green,starting_melody,melody,starting,m,positive,positive,ES_purple,1,m,80,2220989,2221493,2221697
25,forth,46,streng,IAT_purple2.bmp,purple,ending_scream,scream,ending,c,negative,positive,ES_purple,0,m,70,2222852,2223357,2223561
25,forth,47,feige,IAT_green2.bmp,green,starting_melody,melody,starting,c,negative,positive,ES_purple,1,c,146,2225206,2225710,2225914
25,forth,48,teuer,IAT_red2.bmp,red,starting_scream,scream,starting,c,negative,negative,ES_purple,1,c,12,2227136,2227640,2227844
25,forth,49,streng,IAT_green4.bmp,green,starting_melody,melody,starting,c,negative,positive,ES_purple,0,m,66,2228931,2229435,2229639
25,forth,50,feige,IAT_purple3.bmp,purple,ending_scream,scream,ending,c,negative,positive,ES_purple,1,c,189,2231281,2231785,2231989
25,forth,51,morsch,IAT_yellow4.bmp,yellow,ending_melody,melody,ending,c,negative,negative,ES_purple,1,c,284,2233253,2233757,2233962
25,forth,52,gesund,IAT_yellow3.bmp,yellow,ending_melody,melody,ending,m,positive,negative,ES_purple,0,c,69,2235321,2235825,2236029
25,forth,53,gierig,IAT_purple4.bmp,purple,ending_scream,scream,ending,c,negative,positive,ES_purple,0,m,59,2237673,2238178,2238382
25,forth,54,morsch,IAT_red2.bmp,red,starting_scream,scream,starting,c,negative,negative,ES_purple,1,c,205,2240016,2240521,2240725
25,forth,55,sozial,IAT_red3.bmp,red,starting_scream,scream,starting,m,positive,negative,ES_purple,0,c,70,2242005,2242509,2242713
25,forth,56,brutal,IAT_purple4.bmp,purple,ending_scream,scream,ending,c,negative,positive,ES_purple,0,m,36,2244358,2244862,2245066
25,forth,57,lästig,IAT_yellow1.bmp,yellow,ending_melody,melody,ending,c,negative,negative,ES_purple,1,c,361,2246677,2247182,2247386
25,forth,58,einsam,IAT_yellow4.bmp,yellow,ending_melody,melody,ending,c,negative,negative,ES_purple,1,c,299,2248822,2249327,2249531
25,forth,59,heiter,IAT_yellow1.bmp,yellow,ending_melody,melody,ending,m,positive,negative,ES_purple,0,c,93,2250906,2251410,2251614
25,forth,60,falsch,IAT_red1.bmp,red,starting_scream,scream,starting,c,negative,negative,ES_purple,0,m,36,2253282,2253786,2253990
25,forth,61,feige,IAT_green2.bmp,green,starting_melody,melody,starting,c,negative,positive,ES_purple,0,m,61,2255601,2256105,2256309
25,forth,62,gerecht,IAT_purple4.bmp,purple,ending_scream,scream,ending,m,positive,positive,ES_purple,1,m,649,2257946,2258450,2258655
25,forth,63,kaputt,IAT_red4.bmp,red,starting_scream,scream,starting,c,negative,negative,ES_purple,0,m,239,2260380,2260884,2261088
25,forth,64,geizig,IAT_green2.bmp,green,starting_melody,melody,starting,c,negative,positive,ES_purple,0,m,190,2262902,2263406,2263610
25,forth,65,brutal,IAT_red1.bmp,red,starting_scream,scream,starting,c,negative,negative,ES_purple,1,c,91,2265376,2265880,2266084
25,forth,66,kaputt,IAT_red2.bmp,red,starting_scream,scream,starting,c,negative,negative,ES_purple,1,c,50,2267251,2267756,2267960
25,forth,67,sozial,IAT_red1.bmp,red,starting_scream,scream,starting,m,positive,negative,ES_purple,0,c,35,2269085,2269589,2269793
25,forth,68,human,IAT_red4.bmp,red,starting_scream,scream,starting,m,positive,negative,ES_purple,1,m,41,2271403,2271907,2272111
25,forth,69,ehrlich,IAT_green4.bmp,green,starting_melody,melody,starting,m,positive,positive,ES_purple,0,c,284,2273227,2273731,2273935
25,forth,70,sanft,IAT_yellow1.bmp,yellow,ending_melody,melody,ending,m,positive,negative,ES_purple,0,c,387,2275794,2276299,2276503
25,forth,71,gierig,IAT_yellow2.bmp,yellow,ending_melody,melody,ending,c,negative,negative,ES_purple,0,m,62,2278465,2278970,2279174
25,forth,72,witzig,IAT_purple1.bmp,purple,ending_scream,scream,ending,m,positive,positive,ES_purple,0,c,223,2280812,2281316,2281520
25,forth,73,lustig,IAT_red3.bmp,red,starting_scream,scream,starting,m,positive,negative,ES_purple,1,m,321,2283318,2283822,2284026
25,forth,74,lästig,IAT_purple1.bmp,purple,ending_scream,scream,ending,c,negative,positive,ES_purple,0,m,281,2285422,2285926,2286130
25,forth,75,falsch,IAT_yellow4.bmp,yellow,ending_melody,melody,ending,c,negative,negative,ES_purple,1,c,482,2287986,2288491,2288695
25,forth,76,kaputt,IAT_purple2.bmp,purple,ending_scream,scream,ending,c,negative,positive,ES_purple,0,m,458,2290252,2290756,2290960
25,forth,77,teuer,IAT_green1.bmp,green,starting_melody,melody,starting,c,negative,positive,ES_purple,0,m,443,2292993,2293497,2293701
25,forth,78,morsch,IAT_green3.bmp,green,starting_melody,melody,starting,c,negative,positive,ES_purple,1,c,501,2295719,2296224,2296428
25,forth,79,gesund,IAT_yellow3.bmp,yellow,ending_melody,melody,ending,m,positive,negative,ES_purple,1,m,450,2298004,2298508,2298712
25,forth,80,kaputt,IAT_green2.bmp,green,starting_melody,melody,starting,c,negative,positive,ES_purple,0,None,1500,2300237,2300741,2300945
25,forth,81,sozial,IAT_green4.bmp,green,starting_melody,melody,starting,m,positive,positive,ES_purple,0,c,475,2304522,2305026,2305230
25,forth,82,geizig,IAT_yellow2.bmp,yellow,ending_melody,melody,ending,c,negative,negative,ES_purple,1,c,0,2307281,2307785,2307989
25,forth,83,sonnig,IAT_yellow4.bmp,yellow,ending_melody,melody,ending,m,positive,negative,ES_purple,0,c,454,2309066,2309570,2309774
25,forth,84,gerecht,IAT_yellow1.bmp,yellow,ending_melody,melody,ending,m,positive,negative,ES_purple,1,m,179,2311803,2312308,2312512
25,forth,85,lustig,IAT_green3.bmp,green,starting_melody,melody,starting,m,positive,positive,ES_purple,1,m,374,2313766,2314270,2314474
25,forth,86,human,IAT_red2.bmp,red,starting_scream,scream,starting,m,positive,negative,ES_purple,1,m,511,2315924,2316429,2316633
25,forth,87,munter,IAT_red1.bmp,red,starting_scream,scream,starting,m,positive,negative,ES_purple,1,m,408,2318219,2318723,2318927
25,forth,88,falsch,IAT_purple3.bmp,purple,ending_scream,scream,ending,c,negative,positive,ES_purple,1,c,450,2320411,2320915,2321119
25,forth,89,witzig,IAT_green1.bmp,green,starting_melody,melody,starting,m,positive,positive,ES_purple,1,m,520,2322644,2323148,2323352
25,forth,90,geizig,IAT_green1.bmp,green,starting_melody,melody,starting,c,negative,positive,ES_purple,0,m,379,2324948,2325452,2325656
25,forth,91,gierig,IAT_purple1.bmp,purple,ending_scream,scream,ending,c,negative,positive,ES_purple,1,c,436,2327611,2328115,2328319
25,forth,92,heiter,IAT_purple2.bmp,purple,ending_scream,scream,ending,m,positive,positive,ES_purple,1,m,410,2329831,2330335,2330539
25,forth,93,lustig,IAT_purple1.bmp,purple,ending_scream,scream,ending,m,positive,positive,ES_purple,1,m,491,2332024,2332529,2332733
25,forth,94,sonnig,IAT_green2.bmp,green,starting_melody,melody,starting,m,positive,positive,ES_purple,1,m,222,2334299,2334803,2335007
25,forth,95,lästig,IAT_yellow2.bmp,yellow,ending_melody,melody,ending,c,negative,negative,ES_purple,1,c,458,2336306,2336810,2337015
