subject_nr,block,trialnr,trial_target,trial_prime,prime_color,prime_role,prime_us,prime_relation,correct_response,target_valence,prime_valence,color_counter,correct_first_response,response_first_response,response_time_first_response,fixation_show,prime_show,target_show
18,first,0,sonnig,IAT_red2.bmp,red,ending_scream,scream,ending,m,positive,positive,ES_red,1,m,656,1468904,1469408,1469614
18,first,1,gerecht,IAT_yellow2.bmp,yellow,starting_scream,scream,starting,m,positive,negative,ES_red,1,m,667,1471350,1471854,1472060
18,first,2,gierig,IAT_red3.bmp,red,ending_scream,scream,ending,c,negative,positive,ES_red,0,m,684,1473805,1474310,1474515
18,first,3,lustig,IAT_red1.bmp,red,ending_scream,scream,ending,m,positive,positive,ES_red,1,m,643,1476778,1477282,1477487
18,first,4,geizig,IAT_purple1.bmp,purple,starting_melody,melody,starting,c,negative,positive,ES_red,1,c,783,1479209,1479713,1479918
18,first,5,sozial,IAT_yellow1.bmp,yellow,starting_scream,scream,starting,m,positive,negative,ES_red,1,m,722,1481780,1482285,1482489
18,first,6,krank,IAT_purple4.bmp,purple,starting_melody,melody,starting,c,negative,positive,ES_red,1,c,1193,1484290,1484794,1484999
18,first,7,streng,IAT_yellow1.bmp,yellow,starting_scream,scream,starting,c,negative,negative,ES_red,1,c,720,1487271,1487776,1487981
18,first,8,heiter,IAT_purple3.bmp,purple,starting_melody,melody,starting,m,positive,positive,ES_red,1,m,687,1489780,1490284,1490489
18,first,9,lästig,IAT_green1.bmp,green,ending_melody,melody,ending,c,negative,negative,ES_red,1,c,799,1492255,1492760,1492964
18,first,10,lustig,IAT_purple3.bmp,purple,starting_melody,melody,starting,m,positive,positive,ES_red,1,m,854,1494842,1495346,1495552
18,first,11,kaputt,IAT_red2.bmp,red,ending_scream,scream,ending,c,negative,positive,ES_red,1,c,734,1497483,1497987,1498193
18,first,12,gerecht,IAT_red4.bmp,red,ending_scream,scream,ending,m,positive,positive,ES_red,1,m,980,1500005,1500509,1500714
18,first,13,morsch,IAT_red1.bmp,red,ending_scream,scream,ending,c,negative,positive,ES_red,1,c,1341,1502773,1503278,1503483
18,first,14,krank,IAT_yellow2.bmp,yellow,starting_scream,scream,starting,c,negative,negative,ES_red,1,c,1004,1505903,1506407,1506612
18,first,15,human,IAT_purple3.bmp,purple,starting_melody,melody,starting,m,positive,positive,ES_red,1,m,807,1508695,1509200,1509406
18,first,16,teuer,IAT_purple4.bmp,purple,starting_melody,melody,starting,c,negative,positive,ES_red,1,c,865,1511290,1511794,1511999
18,first,17,feige,IAT_red2.bmp,red,ending_scream,scream,ending,c,negative,positive,ES_red,1,c,1113,1513944,1514449,1514653
18,first,18,einsam,IAT_green2.bmp,green,ending_melody,melody,ending,c,negative,negative,ES_red,1,c,1013,1516846,1517351,1517556
18,first,19,teuer,IAT_green4.bmp,green,ending_melody,melody,ending,c,negative,negative,ES_red,1,c,1320,1519648,1520152,1520357
18,first,20,feige,IAT_red3.bmp,red,ending_scream,scream,ending,c,negative,positive,ES_red,1,c,1322,1522756,1523260,1523465
18,first,21,teuer,IAT_purple3.bmp,purple,starting_melody,melody,starting,c,negative,positive,ES_red,1,c,1413,1525865,1526370,1526574
18,first,22,ehrlich,IAT_red3.bmp,red,ending_scream,scream,ending,m,positive,positive,ES_red,1,m,656,1529066,1529572,1529776
18,first,23,witzig,IAT_yellow3.bmp,yellow,starting_scream,scream,starting,m,positive,negative,ES_red,1,m,1420,1531512,1532016,1532221
18,first,24,heiter,IAT_red1.bmp,red,ending_scream,scream,ending,m,positive,positive,ES_red,1,m,715,1534721,1535225,1535430
18,first,25,gesund,IAT_red3.bmp,red,ending_scream,scream,ending,m,positive,positive,ES_red,1,m,737,1537224,1537728,1537933
18,first,26,lästig,IAT_purple2.bmp,purple,starting_melody,melody,starting,c,negative,positive,ES_red,1,c,781,1539748,1540253,1540457
18,first,27,sanft,IAT_yellow3.bmp,yellow,starting_scream,scream,starting,m,positive,negative,ES_red,1,m,885,1542317,1542822,1543027
18,first,28,sozial,IAT_purple2.bmp,purple,starting_melody,melody,starting,m,positive,positive,ES_red,1,m,1008,1544990,1545494,1545699
18,first,29,munter,IAT_green2.bmp,green,ending_melody,melody,ending,m,positive,negative,ES_red,1,m,859,1547786,1548291,1548495
18,first,30,gierig,IAT_red4.bmp,red,ending_scream,scream,ending,c,negative,positive,ES_red,1,c,1207,1550434,1550939,1551143
18,first,31,human,IAT_green3.bmp,green,ending_melody,melody,ending,m,positive,negative,ES_red,1,m,834,1553428,1553932,1554137
18,first,32,gesund,IAT_yellow1.bmp,yellow,starting_scream,scream,starting,m,positive,negative,ES_red,1,m,695,1556051,1556555,1556761
18,first,33,morsch,IAT_yellow1.bmp,yellow,starting_scream,scream,starting,c,negative,negative,ES_red,0,m,1053,1558533,1559037,1559242
18,first,34,schön,IAT_green2.bmp,green,ending_melody,melody,ending,m,positive,negative,ES_red,1,m,991,1561873,1562377,1562582
18,first,35,ehrlich,IAT_red3.bmp,red,ending_scream,scream,ending,m,positive,positive,ES_red,1,m,715,1564653,1565157,1565362
18,first,36,sonnig,IAT_green1.bmp,green,ending_melody,melody,ending,m,positive,negative,ES_red,1,m,627,1567155,1567659,1567864
18,first,37,ehrlich,IAT_red4.bmp,red,ending_scream,scream,ending,m,positive,positive,ES_red,1,m,716,1569570,1570076,1570281
18,first,38,sozial,IAT_purple1.bmp,purple,starting_melody,melody,starting,m,positive,positive,ES_red,1,m,1244,1572074,1572578,1572783
18,first,39,schön,IAT_purple1.bmp,purple,starting_melody,melody,starting,m,positive,positive,ES_red,1,m,898,1575106,1575611,1575816
18,first,40,krank,IAT_purple2.bmp,purple,starting_melody,melody,starting,c,negative,positive,ES_red,1,c,747,1577793,1578297,1578501
18,first,41,falsch,IAT_green1.bmp,green,ending_melody,melody,ending,c,negative,negative,ES_red,1,c,1256,1580327,1580831,1581036
18,first,42,human,IAT_red2.bmp,red,ending_scream,scream,ending,m,positive,positive,ES_red,1,m,704,1583372,1583876,1584082
18,first,43,munter,IAT_purple1.bmp,purple,starting_melody,melody,starting,m,positive,positive,ES_red,1,m,796,1585864,1586368,1586573
18,first,44,gesund,IAT_yellow2.bmp,yellow,starting_scream,scream,starting,m,positive,negative,ES_red,1,m,1171,1588448,1588953,1589157
18,first,45,brutal,IAT_green3.bmp,green,ending_melody,melody,ending,c,negative,negative,ES_red,1,c,629,1591407,1591911,1592116
18,first,46,sonnig,IAT_green1.bmp,green,ending_melody,melody,ending,m,positive,negative,ES_red,1,m,1018,1593824,1594329,1594534
18,first,47,einsam,IAT_purple1.bmp,purple,starting_melody,melody,starting,c,negative,positive,ES_red,1,c,911,1596632,1597136,1597341
18,first,48,streng,IAT_green2.bmp,green,ending_melody,melody,ending,c,negative,negative,ES_red,1,c,722,1599329,1599833,1600038
18,first,49,brutal,IAT_yellow3.bmp,yellow,starting_scream,scream,starting,c,negative,negative,ES_red,1,c,1059,1601843,1602348,1602553
18,first,50,gesund,IAT_green4.bmp,green,ending_melody,melody,ending,m,positive,negative,ES_red,1,m,1110,1604690,1605194,1605400
18,first,51,witzig,IAT_purple1.bmp,purple,starting_melody,melody,starting,m,positive,positive,ES_red,1,m,950,1607588,1608092,1608297
18,first,52,schön,IAT_red3.bmp,red,ending_scream,scream,ending,m,positive,positive,ES_red,1,m,1420,1610326,1610831,1611035
18,first,53,sanft,IAT_yellow1.bmp,yellow,starting_scream,scream,starting,m,positive,negative,ES_red,1,m,777,1613534,1614038,1614243
18,first,54,feige,IAT_green4.bmp,green,ending_melody,melody,ending,c,negative,negative,ES_red,1,c,740,1616097,1616603,1616808
18,first,55,sonnig,IAT_yellow4.bmp,yellow,starting_scream,scream,starting,m,positive,negative,ES_red,0,None,1500,1618627,1619131,1619336
18,first,56,gerecht,IAT_green3.bmp,green,ending_melody,melody,ending,m,positive,negative,ES_red,1,m,755,1622413,1622918,1623122
18,first,57,sanft,IAT_purple2.bmp,purple,starting_melody,melody,starting,m,positive,positive,ES_red,1,m,866,1624957,1625461,1625666
18,first,58,streng,IAT_red4.bmp,red,ending_scream,scream,ending,c,negative,positive,ES_red,1,c,771,1627612,1628116,1628320
18,first,59,falsch,IAT_yellow4.bmp,yellow,starting_scream,scream,starting,c,negative,negative,ES_red,1,c,1337,1630171,1630675,1630879
18,first,60,lästig,IAT_red4.bmp,red,ending_scream,scream,ending,c,negative,positive,ES_red,1,c,930,1633295,1633799,1634005
18,first,61,munter,IAT_yellow3.bmp,yellow,starting_scream,scream,starting,m,positive,negative,ES_red,1,m,1412,1636013,1636517,1636722
18,first,62,kaputt,IAT_yellow4.bmp,yellow,starting_scream,scream,starting,c,negative,negative,ES_red,1,c,762,1639214,1639719,1639924
18,first,63,sanft,IAT_purple4.bmp,purple,starting_melody,melody,starting,m,positive,positive,ES_red,1,m,1333,1641764,1642268,1642472
18,first,64,einsam,IAT_green4.bmp,green,ending_melody,melody,ending,c,negative,negative,ES_red,1,c,946,1644884,1645388,1645592
18,first,65,sozial,IAT_green4.bmp,green,ending_melody,melody,ending,m,positive,negative,ES_red,1,m,763,1647616,1648121,1648326
18,first,66,geizig,IAT_purple4.bmp,purple,starting_melody,melody,starting,c,negative,positive,ES_red,0,None,1500,1650166,1650671,1650876
18,first,67,brutal,IAT_purple2.bmp,purple,starting_melody,melody,starting,c,negative,positive,ES_red,1,c,759,1653955,1654460,1654664
18,first,68,witzig,IAT_yellow1.bmp,yellow,starting_scream,scream,starting,m,positive,negative,ES_red,1,m,822,1656503,1657007,1657212
18,first,69,heiter,IAT_yellow3.bmp,yellow,starting_scream,scream,starting,m,positive,negative,ES_red,1,m,846,1659113,1659617,1659821
18,first,70,gierig,IAT_red2.bmp,red,ending_scream,scream,ending,c,negative,positive,ES_red,1,c,883,1661746,1662251,1662455
18,first,71,lustig,IAT_green1.bmp,green,ending_melody,melody,ending,m,positive,negative,ES_red,1,m,662,1664416,1664920,1665125
18,first,72,ehrlich,IAT_red1.bmp,red,ending_scream,scream,ending,m,positive,positive,ES_red,1,m,1490,1666866,1667370,1667575
18,first,73,einsam,IAT_red2.bmp,red,ending_scream,scream,ending,c,negative,positive,ES_red,1,c,859,1670144,1670649,1670854
18,first,74,streng,IAT_red4.bmp,red,ending_scream,scream,ending,c,negative,positive,ES_red,0,m,982,1672791,1673295,1673500
18,first,75,brutal,IAT_green4.bmp,green,ending_melody,melody,ending,c,negative,negative,ES_red,1,c,935,1676061,1676566,1676772
18,first,76,lästig,IAT_purple3.bmp,purple,starting_melody,melody,starting,c,negative,positive,ES_red,1,c,733,1678784,1679290,1679494
18,first,77,morsch,IAT_green2.bmp,green,ending_melody,melody,ending,c,negative,negative,ES_red,1,c,739,1681305,1681809,1682014
18,first,78,feige,IAT_red1.bmp,red,ending_scream,scream,ending,c,negative,positive,ES_red,1,c,643,1683833,1684337,1684542
18,first,79,kaputt,IAT_green2.bmp,green,ending_melody,melody,ending,c,negative,negative,ES_red,1,c,604,1686262,1686767,1686972
18,first,80,teuer,IAT_yellow4.bmp,yellow,starting_scream,scream,starting,c,negative,negative,ES_red,1,c,833,1688654,1689159,1689363
18,first,81,schön,IAT_red1.bmp,red,ending_scream,scream,ending,m,positive,positive,ES_red,1,m,977,1691274,1691779,1691983
18,first,82,witzig,IAT_green1.bmp,green,ending_melody,melody,ending,m,positive,negative,ES_red,1,m,855,1694040,1694545,1694749
18,first,83,geizig,IAT_yellow3.bmp,yellow,starting_scream,scream,starting,c,negative,negative,ES_red,1,c,1256,1696682,1697187,1697392
18,first,84,lustig,IAT_purple3.bmp,purple,starting_melody,melody,starting,m,positive,positive,ES_red,1,m,756,1699726,1700230,1700435
18,first,85,krank,IAT_yellow2.bmp,yellow,starting_scream,scream,starting,c,negative,negative,ES_red,1,c,1315,1702270,1702774,1702980
18,first,86,morsch,IAT_yellow2.bmp,yellow,starting_scream,scream,starting,c,negative,negative,ES_red,1,c,785,1705373,1705877,1706082
18,first,87,gierig,IAT_green3.bmp,green,ending_melody,melody,ending,c,negative,negative,ES_red,1,c,908,1707947,1708451,1708656
18,first,88,human,IAT_green3.bmp,green,ending_melody,melody,ending,m,positive,negative,ES_red,1,m,1052,1710644,1711148,1711353
18,first,89,falsch,IAT_yellow2.bmp,yellow,starting_scream,scream,starting,c,negative,negative,ES_red,1,c,1321,1713483,1713987,1714192
18,first,90,geizig,IAT_yellow4.bmp,yellow,starting_scream,scream,starting,c,negative,negative,ES_red,1,c,751,1716593,1717097,1717303
18,first,91,kaputt,IAT_purple4.bmp,purple,starting_melody,melody,starting,c,negative,positive,ES_red,1,c,1175,1719132,1719636,1719841
18,first,92,munter,IAT_purple4.bmp,purple,starting_melody,melody,starting,m,positive,positive,ES_red,0,None,1500,1722095,1722601,1722805
18,first,93,heiter,IAT_green3.bmp,green,ending_melody,melody,ending,m,positive,negative,ES_red,1,m,649,1725883,1726387,1726591
18,first,94,falsch,IAT_purple2.bmp,purple,starting_melody,melody,starting,c,negative,positive,ES_red,1,c,740,1728319,1728824,1729030
18,first,95,gerecht,IAT_yellow4.bmp,yellow,starting_scream,scream,starting,m,positive,negative,ES_red,1,m,699,1730847,1731353,1731557
18,second,0,sanft,IAT_yellow3.bmp,yellow,starting_scream,scream,starting,m,positive,negative,ES_red,1,m,699,1750514,1751018,1751223
18,second,1,witzig,IAT_yellow3.bmp,yellow,starting_scream,scream,starting,m,positive,negative,ES_red,1,m,614,1753002,1753506,1753712
18,second,2,schön,IAT_red1.bmp,red,ending_scream,scream,ending,m,positive,positive,ES_red,1,m,615,1755403,1755907,1756113
18,second,3,lästig,IAT_green4.bmp,green,ending_melody,melody,ending,c,negative,negative,ES_red,1,c,1173,1757806,1758310,1758515
18,second,4,sanft,IAT_red1.bmp,red,ending_scream,scream,ending,m,positive,positive,ES_red,1,m,773,1760765,1761270,1761475
18,second,5,gierig,IAT_purple4.bmp,purple,starting_melody,melody,starting,c,negative,positive,ES_red,1,c,991,1763326,1763831,1764036
18,second,6,teuer,IAT_red4.bmp,red,ending_scream,scream,ending,c,negative,positive,ES_red,1,c,678,1766103,1766608,1766813
18,second,7,ehrlich,IAT_green3.bmp,green,ending_melody,melody,ending,m,positive,negative,ES_red,1,m,671,1768570,1769074,1769280
18,second,8,schön,IAT_purple1.bmp,purple,starting_melody,melody,starting,m,positive,positive,ES_red,1,m,691,1771028,1771532,1771737
18,second,9,falsch,IAT_yellow4.bmp,yellow,starting_scream,scream,starting,c,negative,negative,ES_red,1,c,767,1773506,1774010,1774215
18,second,10,munter,IAT_purple1.bmp,purple,starting_melody,melody,starting,m,positive,positive,ES_red,1,m,739,1776060,1776566,1776771
18,second,11,sozial,IAT_purple4.bmp,purple,starting_melody,melody,starting,m,positive,positive,ES_red,0,None,1500,1778586,1779091,1779296
18,second,12,gerecht,IAT_purple2.bmp,purple,starting_melody,melody,starting,m,positive,positive,ES_red,1,m,662,1782376,1782881,1783085
18,second,13,brutal,IAT_purple2.bmp,purple,starting_melody,melody,starting,c,negative,positive,ES_red,1,c,765,1784825,1785330,1785535
18,second,14,streng,IAT_purple1.bmp,purple,starting_melody,melody,starting,c,negative,positive,ES_red,1,c,1058,1787379,1787884,1788089
18,second,15,kaputt,IAT_red4.bmp,red,ending_scream,scream,ending,c,negative,positive,ES_red,1,c,1078,1790226,1790730,1790935
18,second,16,brutal,IAT_yellow3.bmp,yellow,starting_scream,scream,starting,c,negative,negative,ES_red,1,c,716,1793091,1793596,1793801
18,second,17,teuer,IAT_yellow4.bmp,yellow,starting_scream,scream,starting,c,negative,negative,ES_red,0,m,790,1795598,1796103,1796307
18,second,18,gesund,IAT_yellow4.bmp,yellow,starting_scream,scream,starting,m,positive,negative,ES_red,1,m,754,1798675,1799179,1799384
18,second,19,krank,IAT_green4.bmp,green,ending_melody,melody,ending,c,negative,negative,ES_red,1,c,712,1801216,1801720,1801925
18,second,20,sonnig,IAT_yellow1.bmp,yellow,starting_scream,scream,starting,m,positive,negative,ES_red,1,m,1261,1803716,1804221,1804426
18,second,21,kaputt,IAT_purple2.bmp,purple,starting_melody,melody,starting,c,negative,positive,ES_red,1,c,1056,1806764,1807268,1807473
18,second,22,krank,IAT_green1.bmp,green,ending_melody,melody,ending,c,negative,negative,ES_red,1,c,834,1809608,1810113,1810317
18,second,23,lästig,IAT_red2.bmp,red,ending_scream,scream,ending,c,negative,positive,ES_red,0,None,1500,1812229,1812733,1812938
18,second,24,heiter,IAT_green1.bmp,green,ending_melody,melody,ending,m,positive,negative,ES_red,1,m,658,1816015,1816520,1816724
18,second,25,sanft,IAT_purple3.bmp,purple,starting_melody,melody,starting,m,positive,positive,ES_red,1,m,1043,1818461,1818965,1819170
18,second,26,krank,IAT_purple3.bmp,purple,starting_melody,melody,starting,c,negative,positive,ES_red,1,c,695,1821291,1821795,1822000
18,second,27,schön,IAT_green3.bmp,green,ending_melody,melody,ending,m,positive,negative,ES_red,1,m,809,1823773,1824278,1824483
18,second,28,geizig,IAT_red4.bmp,red,ending_scream,scream,ending,c,negative,positive,ES_red,1,c,1239,1826370,1826874,1827080
18,second,29,einsam,IAT_yellow4.bmp,yellow,starting_scream,scream,starting,c,negative,negative,ES_red,1,c,1143,1829396,1829902,1830106
18,second,30,morsch,IAT_red2.bmp,red,ending_scream,scream,ending,c,negative,positive,ES_red,1,c,743,1832327,1832832,1833037
18,second,31,brutal,IAT_green1.bmp,green,ending_melody,melody,ending,c,negative,negative,ES_red,1,c,1139,1834858,1835362,1835567
18,second,32,sonnig,IAT_red1.bmp,red,ending_scream,scream,ending,m,positive,positive,ES_red,0,None,1500,1837786,1838291,1838495
18,second,33,gerecht,IAT_green4.bmp,green,ending_melody,melody,ending,m,positive,negative,ES_red,1,m,852,1841573,1842077,1842281
18,second,34,heiter,IAT_green3.bmp,green,ending_melody,melody,ending,m,positive,negative,ES_red,1,m,583,1844212,1844716,1844921
18,second,35,munter,IAT_purple3.bmp,purple,starting_melody,melody,starting,m,positive,positive,ES_red,1,m,600,1846582,1847087,1847292
18,second,36,witzig,IAT_red3.bmp,red,ending_scream,scream,ending,m,positive,positive,ES_red,1,m,715,1848970,1849475,1849680
18,second,37,falsch,IAT_purple1.bmp,purple,starting_melody,melody,starting,c,negative,positive,ES_red,1,c,1345,1851473,1851978,1852183
18,second,38,sozial,IAT_purple4.bmp,purple,starting_melody,melody,starting,m,positive,positive,ES_red,1,m,727,1854605,1855110,1855314
18,second,39,brutal,IAT_green2.bmp,green,ending_melody,melody,ending,c,negative,negative,ES_red,1,c,819,1857119,1857624,1857829
18,second,40,human,IAT_yellow1.bmp,yellow,starting_scream,scream,starting,m,positive,negative,ES_red,1,m,804,1859727,1860232,1860437
18,second,41,feige,IAT_green4.bmp,green,ending_melody,melody,ending,c,negative,negative,ES_red,1,c,1017,1862321,1862825,1863030
18,second,42,morsch,IAT_purple2.bmp,purple,starting_melody,melody,starting,c,negative,positive,ES_red,1,c,791,1865125,1865630,1865835
18,second,43,gesund,IAT_green1.bmp,green,ending_melody,melody,ending,m,positive,negative,ES_red,1,m,875,1867704,1868210,1868414
18,second,44,geizig,IAT_yellow1.bmp,yellow,starting_scream,scream,starting,c,negative,negative,ES_red,1,c,800,1870368,1870873,1871078
18,second,45,streng,IAT_green3.bmp,green,ending_melody,melody,ending,c,negative,negative,ES_red,1,c,762,1872955,1873460,1873664
18,second,46,munter,IAT_red3.bmp,red,ending_scream,scream,ending,m,positive,positive,ES_red,0,c,1309,1875504,1876008,1876214
18,second,47,heiter,IAT_yellow3.bmp,yellow,starting_scream,scream,starting,m,positive,negative,ES_red,1,m,591,1879101,1879605,1879810
18,second,48,ehrlich,IAT_purple1.bmp,purple,starting_melody,melody,starting,m,positive,positive,ES_red,1,m,760,1881503,1882011,1882215
18,second,49,sozial,IAT_red2.bmp,red,ending_scream,scream,ending,m,positive,positive,ES_red,1,m,619,1884053,1884559,1884764
18,second,50,falsch,IAT_green4.bmp,green,ending_melody,melody,ending,c,negative,negative,ES_red,1,c,804,1886461,1886966,1887170
18,second,51,streng,IAT_red3.bmp,red,ending_scream,scream,ending,c,negative,positive,ES_red,1,c,983,1889054,1889558,1889762
18,second,52,geizig,IAT_purple2.bmp,purple,starting_melody,melody,starting,c,negative,positive,ES_red,1,c,912,1891824,1892330,1892534
18,second,53,human,IAT_purple3.bmp,purple,starting_melody,melody,starting,m,positive,positive,ES_red,1,m,877,1894524,1895028,1895232
18,second,54,schön,IAT_yellow4.bmp,yellow,starting_scream,scream,starting,m,positive,negative,ES_red,1,m,655,1897189,1897693,1897898
18,second,55,sonnig,IAT_green4.bmp,green,ending_melody,melody,ending,m,positive,negative,ES_red,1,m,645,1899632,1900136,1900341
18,second,56,gesund,IAT_yellow1.bmp,yellow,starting_scream,scream,starting,m,positive,negative,ES_red,1,m,823,1902064,1902570,1902774
18,second,57,munter,IAT_yellow1.bmp,yellow,starting_scream,scream,starting,m,positive,negative,ES_red,1,m,869,1904676,1905181,1905385
18,second,58,lästig,IAT_yellow4.bmp,yellow,starting_scream,scream,starting,c,negative,negative,ES_red,0,m,750,1907333,1907838,1908042
18,second,59,ehrlich,IAT_red2.bmp,red,ending_scream,scream,ending,m,positive,positive,ES_red,1,m,779,1910371,1910875,1911080
18,second,60,gesund,IAT_green2.bmp,green,ending_melody,melody,ending,m,positive,negative,ES_red,1,m,762,1912938,1913443,1913648
18,second,61,lustig,IAT_yellow2.bmp,yellow,starting_scream,scream,starting,m,positive,negative,ES_red,1,m,656,1915489,1915994,1916199
18,second,62,human,IAT_yellow3.bmp,yellow,starting_scream,scream,starting,m,positive,negative,ES_red,1,m,669,1917933,1918437,1918641
18,second,63,sanft,IAT_red3.bmp,red,ending_scream,scream,ending,m,positive,positive,ES_red,1,m,635,1920390,1920894,1921100
18,second,64,gierig,IAT_purple3.bmp,purple,starting_melody,melody,starting,c,negative,positive,ES_red,1,c,802,1922812,1923317,1923522
18,second,65,sozial,IAT_purple1.bmp,purple,starting_melody,melody,starting,m,positive,positive,ES_red,1,m,813,1925402,1925906,1926110
18,second,66,morsch,IAT_green2.bmp,green,ending_melody,melody,ending,c,negative,negative,ES_red,1,c,795,1928002,1928506,1928711
18,second,67,falsch,IAT_purple4.bmp,purple,starting_melody,melody,starting,c,negative,positive,ES_red,1,c,724,1930584,1931088,1931292
18,second,68,einsam,IAT_yellow3.bmp,yellow,starting_scream,scream,starting,c,negative,negative,ES_red,1,c,992,1933093,1933597,1933802
18,second,69,heiter,IAT_purple3.bmp,purple,starting_melody,melody,starting,m,positive,positive,ES_red,1,m,734,1935872,1936377,1936582
18,second,70,sonnig,IAT_purple2.bmp,purple,starting_melody,melody,starting,m,positive,positive,ES_red,1,m,1052,1938395,1938899,1939104
18,second,71,krank,IAT_yellow2.bmp,yellow,starting_scream,scream,starting,c,negative,negative,ES_red,1,c,1119,1941234,1941738,1941943
18,second,72,teuer,IAT_red3.bmp,red,ending_scream,scream,ending,c,negative,positive,ES_red,1,c,815,1944141,1944646,1944851
18,second,73,gerecht,IAT_yellow2.bmp,yellow,starting_scream,scream,starting,m,positive,negative,ES_red,1,m,1008,1946744,1947248,1947452
18,second,74,lästig,IAT_purple4.bmp,purple,starting_melody,melody,starting,c,negative,positive,ES_red,1,c,946,1949538,1950042,1950247
18,second,75,einsam,IAT_yellow2.bmp,yellow,starting_scream,scream,starting,c,negative,negative,ES_red,0,m,1067,1952272,1952776,1952982
18,second,76,geizig,IAT_yellow2.bmp,yellow,starting_scream,scream,starting,c,negative,negative,ES_red,1,c,1276,1955626,1956131,1956336
18,second,77,witzig,IAT_green1.bmp,green,ending_melody,melody,ending,m,positive,negative,ES_red,1,m,874,1958691,1959196,1959401
18,second,78,teuer,IAT_red4.bmp,red,ending_scream,scream,ending,c,negative,positive,ES_red,1,c,1006,1961355,1961860,1962065
18,second,79,lustig,IAT_green2.bmp,green,ending_melody,melody,ending,m,positive,negative,ES_red,1,m,1465,1964148,1964653,1964857
18,second,80,gierig,IAT_yellow1.bmp,yellow,starting_scream,scream,starting,c,negative,negative,ES_red,1,c,747,1967402,1967907,1968111
18,second,81,morsch,IAT_yellow2.bmp,yellow,starting_scream,scream,starting,c,negative,negative,ES_red,1,c,880,1969936,1970440,1970645
18,second,82,feige,IAT_red2.bmp,red,ending_scream,scream,ending,c,negative,positive,ES_red,1,c,701,1972603,1973108,1973312
18,second,83,einsam,IAT_purple4.bmp,purple,starting_melody,melody,starting,c,negative,positive,ES_red,0,m,840,1975092,1975597,1975802
18,second,84,streng,IAT_green3.bmp,green,ending_melody,melody,ending,c,negative,negative,ES_red,1,c,857,1978222,1978727,1978931
18,second,85,human,IAT_red1.bmp,red,ending_scream,scream,ending,m,positive,positive,ES_red,1,m,880,1980866,1981370,1981575
18,second,86,lustig,IAT_red3.bmp,red,ending_scream,scream,ending,m,positive,positive,ES_red,1,m,753,1983534,1984038,1984243
18,second,87,witzig,IAT_green1.bmp,green,ending_melody,melody,ending,m,positive,negative,ES_red,1,m,979,1986074,1986579,1986784
18,second,88,gerecht,IAT_red4.bmp,red,ending_scream,scream,ending,m,positive,positive,ES_red,1,m,665,1988841,1989346,1989551
18,second,89,ehrlich,IAT_red4.bmp,red,ending_scream,scream,ending,m,positive,positive,ES_red,1,m,687,1991294,1991800,1992004
18,second,90,kaputt,IAT_green2.bmp,green,ending_melody,melody,ending,c,negative,negative,ES_red,1,c,965,1993770,1994275,1994480
18,second,91,feige,IAT_red1.bmp,red,ending_scream,scream,ending,c,negative,positive,ES_red,1,c,805,1996523,1997028,1997232
18,second,92,gierig,IAT_red2.bmp,red,ending_scream,scream,ending,c,negative,positive,ES_red,1,c,1247,1999116,1999621,1999825
18,second,93,lustig,IAT_green3.bmp,green,ending_melody,melody,ending,m,positive,negative,ES_red,1,m,1030,2002150,2002655,2002860
18,second,94,feige,IAT_green2.bmp,green,ending_melody,melody,ending,c,negative,negative,ES_red,1,c,1194,2004968,2005472,2005677
18,second,95,kaputt,IAT_red1.bmp,red,ending_scream,scream,ending,c,negative,positive,ES_red,1,c,794,2007950,2008455,2008661
18,third,0,lästig,IAT_purple4.bmp,purple,starting_melody,melody,starting,c,negative,positive,ES_red,1,c,779,2034333,2034838,2035042
18,third,1,morsch,IAT_yellow2.bmp,yellow,starting_scream,scream,starting,c,negative,negative,ES_red,1,c,649,2036901,2037405,2037611
18,third,2,brutal,IAT_red1.bmp,red,ending_scream,scream,ending,c,negative,positive,ES_red,1,c,669,2039337,2039842,2040046
18,third,3,gierig,IAT_purple2.bmp,purple,starting_melody,melody,starting,c,negative,positive,ES_red,1,c,914,2041794,2042298,2042503
18,third,4,gesund,IAT_red4.bmp,red,ending_scream,scream,ending,m,positive,positive,ES_red,0,None,1500,2044494,2045000,2045204
18,third,5,lustig,IAT_red2.bmp,red,ending_scream,scream,ending,m,positive,positive,ES_red,1,m,708,2048283,2048787,2048993
18,third,6,krank,IAT_yellow4.bmp,yellow,starting_scream,scream,starting,c,negative,negative,ES_red,1,c,903,2050778,2051282,2051487
18,third,7,geizig,IAT_red4.bmp,red,ending_scream,scream,ending,c,negative,positive,ES_red,1,c,774,2053469,2053975,2054179
18,third,8,munter,IAT_purple2.bmp,purple,starting_melody,melody,starting,m,positive,positive,ES_red,1,m,671,2056031,2056535,2056740
18,third,9,kaputt,IAT_red2.bmp,red,ending_scream,scream,ending,c,negative,positive,ES_red,1,c,840,2058490,2058994,2059199
18,third,10,schön,IAT_purple2.bmp,purple,starting_melody,melody,starting,m,positive,positive,ES_red,1,m,727,2061117,2061622,2061827
18,third,11,lustig,IAT_green1.bmp,green,ending_melody,melody,ending,m,positive,negative,ES_red,1,m,908,2063630,2064135,2064340
18,third,12,falsch,IAT_red4.bmp,red,ending_scream,scream,ending,c,negative,positive,ES_red,1,c,856,2066326,2066831,2067036
18,third,13,sanft,IAT_purple3.bmp,purple,starting_melody,melody,starting,m,positive,positive,ES_red,1,m,756,2068970,2069475,2069681
18,third,14,einsam,IAT_green1.bmp,green,ending_melody,melody,ending,c,negative,negative,ES_red,1,c,868,2071514,2072018,2072222
18,third,15,gierig,IAT_red4.bmp,red,ending_scream,scream,ending,c,negative,positive,ES_red,0,None,1500,2074170,2074674,2074879
18,third,16,streng,IAT_red2.bmp,red,ending_scream,scream,ending,c,negative,positive,ES_red,1,c,786,2077957,2078461,2078666
18,third,17,heiter,IAT_purple3.bmp,purple,starting_melody,melody,starting,m,positive,positive,ES_red,1,m,737,2080531,2081035,2081240
18,third,18,ehrlich,IAT_green3.bmp,green,ending_melody,melody,ending,m,positive,negative,ES_red,1,m,1171,2083055,2083560,2083764
18,third,19,krank,IAT_purple3.bmp,purple,starting_melody,melody,starting,c,negative,positive,ES_red,1,c,726,2086012,2086517,2086722
18,third,20,heiter,IAT_yellow3.bmp,yellow,starting_scream,scream,starting,m,positive,negative,ES_red,1,m,837,2088527,2089031,2089236
18,third,21,ehrlich,IAT_yellow1.bmp,yellow,starting_scream,scream,starting,m,positive,negative,ES_red,1,m,579,2091152,2091656,2091860
18,third,22,brutal,IAT_purple2.bmp,purple,starting_melody,melody,starting,c,negative,positive,ES_red,1,c,660,2093516,2094022,2094226
18,third,23,kaputt,IAT_yellow3.bmp,yellow,starting_scream,scream,starting,c,negative,negative,ES_red,1,c,649,2095964,2096468,2096672
18,third,24,gesund,IAT_purple4.bmp,purple,starting_melody,melody,starting,m,positive,positive,ES_red,1,m,1100,2098399,2098904,2099110
18,third,25,geizig,IAT_red2.bmp,red,ending_scream,scream,ending,c,negative,positive,ES_red,1,c,1024,2101287,2101793,2101997
18,third,26,sozial,IAT_green2.bmp,green,ending_melody,melody,ending,m,positive,negative,ES_red,1,m,1042,2104099,2104603,2104808
18,third,27,falsch,IAT_red1.bmp,red,ending_scream,scream,ending,c,negative,positive,ES_red,1,c,798,2106929,2107433,2107639
18,third,28,gerecht,IAT_yellow1.bmp,yellow,starting_scream,scream,starting,m,positive,negative,ES_red,1,m,895,2109514,2110018,2110223
18,third,29,lästig,IAT_yellow2.bmp,yellow,starting_scream,scream,starting,c,negative,negative,ES_red,1,c,1033,2112194,2112698,2112902
18,third,30,einsam,IAT_purple2.bmp,purple,starting_melody,melody,starting,c,negative,positive,ES_red,0,m,1008,2115013,2115518,2115723
18,third,31,ehrlich,IAT_red3.bmp,red,ending_scream,scream,ending,m,positive,positive,ES_red,1,m,719,2118311,2118816,2119022
18,third,32,human,IAT_green3.bmp,green,ending_melody,melody,ending,m,positive,negative,ES_red,1,m,705,2120818,2121323,2121528
18,third,33,schön,IAT_yellow3.bmp,yellow,starting_scream,scream,starting,m,positive,negative,ES_red,1,m,689,2123312,2123816,2124021
18,third,34,lästig,IAT_green4.bmp,green,ending_melody,melody,ending,c,negative,negative,ES_red,1,c,849,2125789,2126294,2126499
18,third,35,sozial,IAT_red4.bmp,red,ending_scream,scream,ending,m,positive,positive,ES_red,1,m,656,2128425,2128929,2129134
18,third,36,sonnig,IAT_red3.bmp,red,ending_scream,scream,ending,m,positive,positive,ES_red,1,m,642,2130870,2131374,2131580
18,third,37,witzig,IAT_yellow1.bmp,yellow,starting_scream,scream,starting,m,positive,negative,ES_red,1,m,751,2133301,2133805,2134010
18,third,38,sonnig,IAT_green4.bmp,green,ending_melody,melody,ending,m,positive,negative,ES_red,1,m,577,2135840,2136345,2136550
18,third,39,sanft,IAT_yellow3.bmp,yellow,starting_scream,scream,starting,m,positive,negative,ES_red,1,m,836,2138205,2138710,2138914
18,third,40,feige,IAT_purple2.bmp,purple,starting_melody,melody,starting,c,negative,positive,ES_red,1,c,758,2140829,2141334,2141538
18,third,41,lustig,IAT_red1.bmp,red,ending_scream,scream,ending,m,positive,positive,ES_red,1,m,739,2143374,2143878,2144082
18,third,42,streng,IAT_purple1.bmp,purple,starting_melody,melody,starting,c,negative,positive,ES_red,1,c,869,2145900,2146405,2146611
18,third,43,teuer,IAT_green2.bmp,green,ending_melody,melody,ending,c,negative,negative,ES_red,1,c,632,2148557,2149061,2149266
18,third,44,schön,IAT_yellow2.bmp,yellow,starting_scream,scream,starting,m,positive,negative,ES_red,1,m,1132,2150976,2151481,2151685
18,third,45,gerecht,IAT_red1.bmp,red,ending_scream,scream,ending,m,positive,positive,ES_red,1,m,994,2153896,2154401,2154606
18,third,46,krank,IAT_yellow2.bmp,yellow,starting_scream,scream,starting,c,negative,negative,ES_red,1,c,824,2156677,2157181,2157386
18,third,47,teuer,IAT_purple3.bmp,purple,starting_melody,melody,starting,c,negative,positive,ES_red,1,c,670,2159288,2159793,2159998
18,third,48,morsch,IAT_green4.bmp,green,ending_melody,melody,ending,c,negative,negative,ES_red,1,c,844,2161746,2162250,2162455
18,third,49,munter,IAT_purple1.bmp,purple,starting_melody,melody,starting,m,positive,positive,ES_red,1,m,709,2164378,2164883,2165088
18,third,50,teuer,IAT_green2.bmp,green,ending_melody,melody,ending,c,negative,negative,ES_red,1,c,831,2166875,2167380,2167584
18,third,51,witzig,IAT_yellow4.bmp,yellow,starting_scream,scream,starting,m,positive,negative,ES_red,1,m,683,2169494,2169998,2170203
18,third,52,streng,IAT_green2.bmp,green,ending_melody,melody,ending,c,negative,negative,ES_red,1,c,727,2171964,2172468,2172673
18,third,53,sozial,IAT_purple1.bmp,purple,starting_melody,melody,starting,m,positive,positive,ES_red,1,m,1178,2174479,2174984,2175189
18,third,54,gerecht,IAT_green3.bmp,green,ending_melody,melody,ending,m,positive,negative,ES_red,0,c,927,2177446,2177950,2178155
18,third,55,falsch,IAT_green2.bmp,green,ending_melody,melody,ending,c,negative,negative,ES_red,1,c,1012,2180660,2181165,2181370
18,third,56,morsch,IAT_yellow1.bmp,yellow,starting_scream,scream,starting,c,negative,negative,ES_red,1,c,1016,2183461,2183966,2184171
18,third,57,kaputt,IAT_purple4.bmp,purple,starting_melody,melody,starting,c,negative,positive,ES_red,1,c,924,2186264,2186768,2186972
18,third,58,gesund,IAT_purple3.bmp,purple,starting_melody,melody,starting,m,positive,positive,ES_red,1,m,1106,2188974,2189480,2189684
18,third,59,sozial,IAT_purple1.bmp,purple,starting_melody,melody,starting,m,positive,positive,ES_red,0,c,1149,2191869,2192373,2192578
18,third,60,gesund,IAT_purple3.bmp,purple,starting_melody,melody,starting,m,positive,positive,ES_red,1,m,771,2195305,2195809,2196014
18,third,61,brutal,IAT_yellow3.bmp,yellow,starting_scream,scream,starting,c,negative,negative,ES_red,1,c,699,2197863,2198367,2198571
18,third,62,feige,IAT_green4.bmp,green,ending_melody,melody,ending,c,negative,negative,ES_red,1,c,909,2200350,2200855,2201061
18,third,63,witzig,IAT_yellow2.bmp,yellow,starting_scream,scream,starting,m,positive,negative,ES_red,1,m,743,2203048,2203552,2203757
18,third,64,human,IAT_green1.bmp,green,ending_melody,melody,ending,m,positive,negative,ES_red,1,m,748,2205578,2206083,2206287
18,third,65,lustig,IAT_red2.bmp,red,ending_scream,scream,ending,m,positive,positive,ES_red,1,m,682,2208113,2208618,2208824
18,third,66,brutal,IAT_yellow4.bmp,yellow,starting_scream,scream,starting,c,negative,negative,ES_red,1,c,865,2210585,2211089,2211294
18,third,67,kaputt,IAT_red3.bmp,red,ending_scream,scream,ending,c,negative,positive,ES_red,1,c,1168,2213240,2213744,2213949
18,third,68,morsch,IAT_yellow2.bmp,yellow,starting_scream,scream,starting,c,negative,negative,ES_red,1,c,698,2216196,2216700,2216905
18,third,69,heiter,IAT_green1.bmp,green,ending_melody,melody,ending,m,positive,negative,ES_red,1,m,814,2218681,2219186,2219391
18,third,70,streng,IAT_green1.bmp,green,ending_melody,melody,ending,c,negative,negative,ES_red,1,c,872,2221284,2221790,2221994
18,third,71,sanft,IAT_red1.bmp,red,ending_scream,scream,ending,m,positive,positive,ES_red,1,m,721,2223946,2224450,2224655
18,third,72,krank,IAT_purple1.bmp,purple,starting_melody,melody,starting,c,negative,positive,ES_red,1,c,814,2226455,2226960,2227165
18,third,73,human,IAT_green4.bmp,green,ending_melody,melody,ending,m,positive,negative,ES_red,1,m,670,2229058,2229564,2229768
18,third,74,geizig,IAT_yellow4.bmp,yellow,starting_scream,scream,starting,c,negative,negative,ES_red,1,c,1017,2231516,2232020,2232225
18,third,75,schön,IAT_purple4.bmp,purple,starting_melody,melody,starting,m,positive,positive,ES_red,1,m,649,2234320,2234825,2235029
18,third,76,witzig,IAT_yellow4.bmp,yellow,starting_scream,scream,starting,m,positive,negative,ES_red,1,m,946,2236757,2237262,2237467
18,third,77,gierig,IAT_purple4.bmp,purple,starting_melody,melody,starting,c,negative,positive,ES_red,1,c,828,2239492,2239996,2240202
18,third,78,lästig,IAT_green3.bmp,green,ending_melody,melody,ending,c,negative,negative,ES_red,1,c,749,2242107,2242611,2242816
18,third,79,human,IAT_green3.bmp,green,ending_melody,melody,ending,m,positive,negative,ES_red,1,m,746,2244644,2245150,2245355
18,third,80,gerecht,IAT_green1.bmp,green,ending_melody,melody,ending,m,positive,negative,ES_red,1,m,892,2247178,2247683,2247889
18,third,81,feige,IAT_yellow1.bmp,yellow,starting_scream,scream,starting,c,negative,negative,ES_red,1,c,974,2249861,2250365,2250571
18,third,82,geizig,IAT_red3.bmp,red,ending_scream,scream,ending,c,negative,positive,ES_red,1,c,1143,2252623,2253127,2253333
18,third,83,gierig,IAT_purple4.bmp,purple,starting_melody,melody,starting,c,negative,positive,ES_red,0,m,1120,2255554,2256058,2256263
18,third,84,heiter,IAT_red3.bmp,red,ending_scream,scream,ending,m,positive,positive,ES_red,1,m,622,2258963,2259467,2259672
18,third,85,sonnig,IAT_red3.bmp,red,ending_scream,scream,ending,m,positive,positive,ES_red,1,m,719,2261373,2261877,2262081
18,third,86,munter,IAT_red1.bmp,red,ending_scream,scream,ending,m,positive,positive,ES_red,1,m,835,2263880,2264384,2264589
18,third,87,feige,IAT_green3.bmp,green,ending_melody,melody,ending,c,negative,negative,ES_red,1,c,779,2266504,2267009,2267213
18,third,88,einsam,IAT_green4.bmp,green,ending_melody,melody,ending,c,negative,negative,ES_red,1,c,947,2269072,2269576,2269781
18,third,89,teuer,IAT_red2.bmp,red,ending_scream,scream,ending,c,negative,positive,ES_red,1,c,926,2271807,2272311,2272516
18,third,90,einsam,IAT_red4.bmp,red,ending_scream,scream,ending,c,negative,positive,ES_red,1,c,905,2274521,2275025,2275231
18,third,91,falsch,IAT_yellow4.bmp,yellow,starting_scream,scream,starting,c,negative,negative,ES_red,1,c,1070,2277215,2277719,2277924
18,third,92,ehrlich,IAT_green2.bmp,green,ending_melody,melody,ending,m,positive,negative,ES_red,1,m,915,2280073,2280577,2280782
18,third,93,munter,IAT_yellow1.bmp,yellow,starting_scream,scream,starting,m,positive,negative,ES_red,1,m,669,2282776,2283282,2283486
18,third,94,sanft,IAT_yellow3.bmp,yellow,starting_scream,scream,starting,m,positive,negative,ES_red,1,m,754,2285233,2285739,2285943
18,third,95,sonnig,IAT_purple1.bmp,purple,starting_melody,melody,starting,m,positive,positive,ES_red,1,m,787,2287777,2288281,2288486
18,forth,0,kaputt,IAT_green2.bmp,green,ending_melody,melody,ending,c,negative,negative,ES_red,1,c,740,2303660,2304164,2304370
18,forth,1,witzig,IAT_red2.bmp,red,ending_scream,scream,ending,m,positive,positive,ES_red,1,m,747,2306190,2306694,2306900
18,forth,2,sonnig,IAT_yellow2.bmp,yellow,starting_scream,scream,starting,m,positive,negative,ES_red,1,m,584,2308727,2309232,2309436
18,forth,3,teuer,IAT_green2.bmp,green,ending_melody,melody,ending,c,negative,negative,ES_red,1,c,645,2311099,2311605,2311810
18,forth,4,gesund,IAT_yellow3.bmp,yellow,starting_scream,scream,starting,m,positive,negative,ES_red,1,m,763,2313533,2314038,2314243
18,forth,5,feige,IAT_red2.bmp,red,ending_scream,scream,ending,c,negative,positive,ES_red,1,c,646,2316086,2316591,2316795
18,forth,6,human,IAT_red3.bmp,red,ending_scream,scream,ending,m,positive,positive,ES_red,1,m,887,2318519,2319024,2319230
18,forth,7,sanft,IAT_purple3.bmp,purple,starting_melody,melody,starting,m,positive,positive,ES_red,1,m,687,2321195,2321701,2321905
18,forth,8,heiter,IAT_green3.bmp,green,ending_melody,melody,ending,m,positive,negative,ES_red,1,m,664,2323671,2324176,2324382
18,forth,9,human,IAT_purple2.bmp,purple,starting_melody,melody,starting,m,positive,positive,ES_red,1,m,824,2326124,2326630,2326834
18,forth,10,einsam,IAT_red4.bmp,red,ending_scream,scream,ending,c,negative,positive,ES_red,1,c,825,2328737,2329242,2329447
18,forth,11,munter,IAT_red3.bmp,red,ending_scream,scream,ending,m,positive,positive,ES_red,1,m,849,2331353,2331859,2332064
18,forth,12,sozial,IAT_purple3.bmp,purple,starting_melody,melody,starting,m,positive,positive,ES_red,1,m,950,2333991,2334496,2334701
18,forth,13,krank,IAT_purple2.bmp,purple,starting_melody,melody,starting,c,negative,positive,ES_red,1,c,770,2336730,2337234,2337439
18,forth,14,morsch,IAT_yellow3.bmp,yellow,starting_scream,scream,starting,c,negative,negative,ES_red,1,c,1097,2339290,2339795,2340000
18,forth,15,kaputt,IAT_yellow4.bmp,yellow,starting_scream,scream,starting,c,negative,negative,ES_red,1,c,1257,2342177,2342682,2342886
18,forth,16,teuer,IAT_red2.bmp,red,ending_scream,scream,ending,c,negative,positive,ES_red,1,c,1231,2345223,2345728,2345933
18,forth,17,schön,IAT_green1.bmp,green,ending_melody,melody,ending,m,positive,negative,ES_red,1,m,632,2348243,2348748,2348953
18,forth,18,geizig,IAT_red4.bmp,red,ending_scream,scream,ending,c,negative,positive,ES_red,1,c,1034,2350665,2351170,2351375
18,forth,19,streng,IAT_purple3.bmp,purple,starting_melody,melody,starting,c,negative,positive,ES_red,1,c,832,2353486,2353991,2354196
18,forth,20,gerecht,IAT_green4.bmp,green,ending_melody,melody,ending,m,positive,negative,ES_red,0,c,1011,2356107,2356611,2356816
18,forth,21,ehrlich,IAT_red1.bmp,red,ending_scream,scream,ending,m,positive,positive,ES_red,1,m,770,2359408,2359914,2360118
18,forth,22,geizig,IAT_yellow2.bmp,yellow,starting_scream,scream,starting,c,negative,negative,ES_red,1,c,898,2361967,2362471,2362676
18,forth,23,heiter,IAT_yellow1.bmp,yellow,starting_scream,scream,starting,m,positive,negative,ES_red,1,m,806,2364653,2365158,2365362
18,forth,24,sozial,IAT_green1.bmp,green,ending_melody,melody,ending,m,positive,negative,ES_red,1,m,759,2367247,2367753,2367957
18,forth,25,gerecht,IAT_purple1.bmp,purple,starting_melody,melody,starting,m,positive,positive,ES_red,1,m,853,2369796,2370300,2370506
18,forth,26,krank,IAT_green2.bmp,green,ending_melody,melody,ending,c,negative,negative,ES_red,1,c,730,2372437,2372942,2373147
18,forth,27,gierig,IAT_yellow4.bmp,yellow,starting_scream,scream,starting,c,negative,negative,ES_red,1,c,1190,2374957,2375462,2375667
18,forth,28,geizig,IAT_yellow1.bmp,yellow,starting_scream,scream,starting,c,negative,negative,ES_red,1,c,1388,2377940,2378445,2378650
18,forth,29,teuer,IAT_purple2.bmp,purple,starting_melody,melody,starting,c,negative,positive,ES_red,1,c,1153,2381117,2381621,2381826
18,forth,30,heiter,IAT_yellow2.bmp,yellow,starting_scream,scream,starting,m,positive,negative,ES_red,1,m,726,2384059,2384564,2384768
18,forth,31,sanft,IAT_purple3.bmp,purple,starting_melody,melody,starting,m,positive,positive,ES_red,1,m,938,2386574,2387080,2387284
18,forth,32,falsch,IAT_yellow2.bmp,yellow,starting_scream,scream,starting,c,negative,negative,ES_red,1,c,709,2389302,2389806,2390011
18,forth,33,feige,IAT_red4.bmp,red,ending_scream,scream,ending,c,negative,positive,ES_red,1,c,977,2391799,2392303,2392508
18,forth,34,sozial,IAT_yellow1.bmp,yellow,starting_scream,scream,starting,m,positive,negative,ES_red,1,m,954,2394566,2395071,2395276
18,forth,35,gesund,IAT_yellow3.bmp,yellow,starting_scream,scream,starting,m,positive,negative,ES_red,1,m,739,2397310,2397815,2398020
18,forth,36,teuer,IAT_red3.bmp,red,ending_scream,scream,ending,c,negative,positive,ES_red,1,c,1330,2399840,2400344,2400548
18,forth,37,lästig,IAT_green4.bmp,green,ending_melody,melody,ending,c,negative,negative,ES_red,1,c,1142,2402957,2403461,2403666
18,forth,38,gierig,IAT_purple2.bmp,purple,starting_melody,melody,starting,c,negative,positive,ES_red,1,c,1086,2405888,2406393,2406597
18,forth,39,lustig,IAT_red3.bmp,red,ending_scream,scream,ending,m,positive,positive,ES_red,1,m,1348,2408764,2409268,2409473
18,forth,40,sozial,IAT_purple4.bmp,purple,starting_melody,melody,starting,m,positive,positive,ES_red,1,m,645,2411901,2412405,2412610
18,forth,41,streng,IAT_green3.bmp,green,ending_melody,melody,ending,c,negative,negative,ES_red,1,c,1109,2414335,2414841,2415045
18,forth,42,feige,IAT_red2.bmp,red,ending_scream,scream,ending,c,negative,positive,ES_red,1,c,740,2417234,2417738,2417943
18,forth,43,schön,IAT_green3.bmp,green,ending_melody,melody,ending,m,positive,negative,ES_red,1,m,780,2419763,2420268,2420473
18,forth,44,lustig,IAT_yellow1.bmp,yellow,starting_scream,scream,starting,m,positive,negative,ES_red,1,m,753,2422333,2422838,2423043
18,forth,45,witzig,IAT_purple1.bmp,purple,starting_melody,melody,starting,m,positive,positive,ES_red,1,m,727,2424876,2425381,2425587
18,forth,46,munter,IAT_purple3.bmp,purple,starting_melody,melody,starting,m,positive,positive,ES_red,1,m,912,2427393,2427897,2428102
18,forth,47,morsch,IAT_red1.bmp,red,ending_scream,scream,ending,c,negative,positive,ES_red,1,c,930,2430094,2430598,2430803
18,forth,48,einsam,IAT_purple1.bmp,purple,starting_melody,melody,starting,c,negative,positive,ES_red,1,c,712,2432813,2433317,2433523
18,forth,49,falsch,IAT_red3.bmp,red,ending_scream,scream,ending,c,negative,positive,ES_red,1,c,826,2435315,2435819,2436024
18,forth,50,ehrlich,IAT_purple4.bmp,purple,starting_melody,melody,starting,m,positive,positive,ES_red,1,m,717,2437929,2438434,2438638
18,forth,51,brutal,IAT_yellow3.bmp,yellow,starting_scream,scream,starting,c,negative,negative,ES_red,1,c,731,2440436,2440941,2441145
18,forth,52,streng,IAT_green4.bmp,green,ending_melody,melody,ending,c,negative,negative,ES_red,1,c,748,2442957,2443461,2443666
18,forth,53,human,IAT_red4.bmp,red,ending_scream,scream,ending,m,positive,positive,ES_red,1,m,1428,2445493,2445998,2446202
18,forth,54,schön,IAT_purple2.bmp,purple,starting_melody,melody,starting,m,positive,positive,ES_red,1,m,570,2448711,2449215,2449420
18,forth,55,brutal,IAT_red1.bmp,red,ending_scream,scream,ending,c,negative,positive,ES_red,1,c,551,2451070,2451574,2451780
18,forth,56,morsch,IAT_red4.bmp,red,ending_scream,scream,ending,c,negative,positive,ES_red,1,c,861,2453411,2453915,2454120
18,forth,57,gerecht,IAT_purple1.bmp,purple,starting_melody,melody,starting,m,positive,positive,ES_red,1,m,638,2456060,2456564,2456769
18,forth,58,falsch,IAT_green2.bmp,green,ending_melody,melody,ending,c,negative,negative,ES_red,1,c,1185,2458486,2458991,2459196
18,forth,59,lästig,IAT_purple4.bmp,purple,starting_melody,melody,starting,c,negative,positive,ES_red,0,m,1399,2461461,2461965,2462171
18,forth,60,witzig,IAT_yellow3.bmp,yellow,starting_scream,scream,starting,m,positive,negative,ES_red,1,m,856,2465150,2465654,2465858
18,forth,61,brutal,IAT_yellow4.bmp,yellow,starting_scream,scream,starting,c,negative,negative,ES_red,1,c,730,2467795,2468300,2468504
18,forth,62,gierig,IAT_green3.bmp,green,ending_melody,melody,ending,c,negative,negative,ES_red,0,m,987,2470316,2470820,2471026
18,forth,63,feige,IAT_yellow2.bmp,yellow,starting_scream,scream,starting,c,negative,negative,ES_red,1,c,795,2473593,2474097,2474302
18,forth,64,streng,IAT_yellow4.bmp,yellow,starting_scream,scream,starting,c,negative,negative,ES_red,1,c,917,2476178,2476682,2476887
18,forth,65,morsch,IAT_purple4.bmp,purple,starting_melody,melody,starting,c,negative,positive,ES_red,1,c,777,2478885,2479390,2479594
18,forth,66,gierig,IAT_purple4.bmp,purple,starting_melody,melody,starting,c,negative,positive,ES_red,1,c,932,2481452,2481956,2482161
18,forth,67,munter,IAT_green3.bmp,green,ending_melody,melody,ending,m,positive,negative,ES_red,1,m,1186,2484173,2484678,2484883
18,forth,68,lustig,IAT_green4.bmp,green,ending_melody,melody,ending,m,positive,negative,ES_red,1,m,628,2487150,2487654,2487859
18,forth,69,einsam,IAT_yellow1.bmp,yellow,starting_scream,scream,starting,c,negative,negative,ES_red,1,c,948,2489568,2490072,2490277
18,forth,70,ehrlich,IAT_red4.bmp,red,ending_scream,scream,ending,m,positive,positive,ES_red,1,m,808,2492305,2492810,2493014
18,forth,71,falsch,IAT_green4.bmp,green,ending_melody,melody,ending,c,negative,negative,ES_red,1,c,913,2494903,2495407,2495612
18,forth,72,human,IAT_red1.bmp,red,ending_scream,scream,ending,m,positive,positive,ES_red,1,m,786,2497605,2498110,2498314
18,forth,73,ehrlich,IAT_green3.bmp,green,ending_melody,melody,ending,m,positive,negative,ES_red,1,m,1238,2500182,2500686,2500891
18,forth,74,sanft,IAT_green2.bmp,green,ending_melody,melody,ending,m,positive,negative,ES_red,1,m,685,2503210,2503714,2503920
18,forth,75,krank,IAT_red2.bmp,red,ending_scream,scream,ending,c,negative,positive,ES_red,1,c,789,2505685,2506190,2506394
18,forth,76,brutal,IAT_green1.bmp,green,ending_melody,melody,ending,c,negative,negative,ES_red,1,c,1457,2508263,2508767,2508972
18,forth,77,gesund,IAT_yellow3.bmp,yellow,starting_scream,scream,starting,m,positive,negative,ES_red,1,m,735,2511508,2512013,2512219
18,forth,78,sonnig,IAT_green1.bmp,green,ending_melody,melody,ending,m,positive,negative,ES_red,1,m,624,2514034,2514538,2514743
18,forth,79,kaputt,IAT_purple4.bmp,purple,starting_melody,melody,starting,c,negative,positive,ES_red,1,c,685,2516447,2516951,2517157
18,forth,80,munter,IAT_green1.bmp,green,ending_melody,melody,ending,m,positive,negative,ES_red,1,m,693,2518921,2519426,2519631
18,forth,81,lästig,IAT_green4.bmp,green,ending_melody,melody,ending,c,negative,negative,ES_red,1,c,1110,2521405,2521910,2522114
18,forth,82,gerecht,IAT_green2.bmp,green,ending_melody,melody,ending,m,positive,negative,ES_red,1,m,796,2524303,2524807,2525013
18,forth,83,sonnig,IAT_red2.bmp,red,ending_scream,scream,ending,m,positive,positive,ES_red,1,m,826,2526888,2527392,2527597
18,forth,84,witzig,IAT_red1.bmp,red,ending_scream,scream,ending,m,positive,positive,ES_red,1,m,678,2529503,2530007,2530212
18,forth,85,sonnig,IAT_purple1.bmp,purple,starting_melody,melody,starting,m,positive,positive,ES_red,1,m,697,2531972,2532477,2532682
18,forth,86,kaputt,IAT_purple3.bmp,purple,starting_melody,melody,starting,c,negative,positive,ES_red,1,c,763,2534459,2534963,2535168
18,forth,87,schön,IAT_yellow4.bmp,yellow,starting_scream,scream,starting,m,positive,negative,ES_red,1,m,1066,2537010,2537514,2537718
18,forth,88,geizig,IAT_purple2.bmp,purple,starting_melody,melody,starting,c,negative,positive,ES_red,1,c,1006,2539864,2540369,2540574
18,forth,89,einsam,IAT_green1.bmp,green,ending_melody,melody,ending,c,negative,negative,ES_red,1,c,716,2542661,2543165,2543370
18,forth,90,heiter,IAT_red3.bmp,red,ending_scream,scream,ending,m,positive,positive,ES_red,1,m,703,2545166,2545671,2545876
18,forth,91,krank,IAT_yellow2.bmp,yellow,starting_scream,scream,starting,c,negative,negative,ES_red,1,c,660,2547661,2548165,2548370
18,forth,92,lustig,IAT_red1.bmp,red,ending_scream,scream,ending,m,positive,positive,ES_red,1,m,1214,2550111,2550615,2550821
18,forth,93,sanft,IAT_yellow1.bmp,yellow,starting_scream,scream,starting,m,positive,negative,ES_red,1,m,1248,2553115,2553620,2553824
18,forth,94,lästig,IAT_purple1.bmp,purple,starting_melody,melody,starting,c,negative,positive,ES_red,1,c,739,2556154,2556658,2556863
18,forth,95,gesund,IAT_yellow4.bmp,yellow,starting_scream,scream,starting,m,positive,negative,ES_red,1,m,944,2558683,2559187,2559393
