subject_nr,block,trialnr,trial_target,trial_prime,prime_color,prime_role,prime_us,prime_relation,correct_response,target_valence,prime_valence,color_counter,correct_first_response,response_first_response,response_time_first_response,fixation_show,prime_show,target_show
44,first,0,falsch,IAT_purple4.bmp,purple,starting_scream,scream,starting,c,negative,negative,ES_green,0,m,556,1397963,1398468,1398672
44,first,1,lustig,IAT_green1.bmp,green,ending_scream,scream,ending,m,positive,positive,ES_green,1,m,550,1400805,1401309,1401513
44,first,2,gesund,IAT_purple3.bmp,purple,starting_scream,scream,starting,m,positive,negative,ES_green,0,c,1333,1403139,1403643,1403847
44,first,3,morsch,IAT_green4.bmp,green,ending_scream,scream,ending,c,negative,positive,ES_green,1,c,630,1406755,1407259,1407463
44,first,4,geizig,IAT_purple1.bmp,purple,starting_scream,scream,starting,c,negative,negative,ES_green,1,c,911,1409168,1409672,1409876
44,first,5,teuer,IAT_purple2.bmp,purple,starting_scream,scream,starting,c,negative,negative,ES_green,0,m,714,1411863,1412367,1412571
44,first,6,heiter,IAT_green4.bmp,green,ending_scream,scream,ending,m,positive,positive,ES_green,1,m,606,1414860,1415364,1415568
44,first,7,feige,IAT_purple3.bmp,purple,starting_scream,scream,starting,c,negative,negative,ES_green,1,c,640,1417249,1417754,1417958
44,first,8,gerecht,IAT_purple3.bmp,purple,starting_scream,scream,starting,m,positive,negative,ES_green,1,m,1076,1419673,1420178,1420382
44,first,9,human,IAT_red4.bmp,red,ending_melody,melody,ending,m,positive,negative,ES_green,1,m,843,1422534,1423038,1423243
44,first,10,morsch,IAT_red1.bmp,red,ending_melody,melody,ending,c,negative,negative,ES_green,1,c,583,1425161,1425665,1425869
44,first,11,sozial,IAT_green3.bmp,green,ending_scream,scream,ending,m,positive,positive,ES_green,1,m,577,1427528,1428033,1428237
44,first,12,gesund,IAT_yellow4.bmp,yellow,starting_melody,melody,starting,m,positive,positive,ES_green,1,m,592,1429889,1430393,1430597
44,first,13,sanft,IAT_green3.bmp,green,ending_scream,scream,ending,m,positive,positive,ES_green,1,m,592,1432264,1432768,1432972
44,first,14,geizig,IAT_yellow2.bmp,yellow,starting_melody,melody,starting,c,negative,positive,ES_green,1,c,535,1434640,1435144,1435348
44,first,15,gierig,IAT_yellow4.bmp,yellow,starting_melody,melody,starting,c,negative,positive,ES_green,1,c,690,1436962,1437466,1437670
44,first,16,gesund,IAT_purple1.bmp,purple,starting_scream,scream,starting,m,positive,negative,ES_green,1,m,742,1439435,1439939,1440143
44,first,17,morsch,IAT_red1.bmp,red,ending_melody,melody,ending,c,negative,negative,ES_green,1,c,617,1441961,1442465,1442669
44,first,18,streng,IAT_red3.bmp,red,ending_melody,melody,ending,c,negative,negative,ES_green,1,c,694,1444362,1444866,1445070
44,first,19,heiter,IAT_green1.bmp,green,ending_scream,scream,ending,m,positive,positive,ES_green,1,m,587,1446840,1447344,1447548
44,first,20,kaputt,IAT_purple4.bmp,purple,starting_scream,scream,starting,c,negative,negative,ES_green,1,c,1116,1449210,1449714,1449918
44,first,21,munter,IAT_red4.bmp,red,ending_melody,melody,ending,m,positive,negative,ES_green,1,m,717,1452109,1452613,1452817
44,first,22,falsch,IAT_green2.bmp,green,ending_scream,scream,ending,c,negative,positive,ES_green,1,c,640,1454609,1455114,1455318
44,first,23,lustig,IAT_yellow4.bmp,yellow,starting_melody,melody,starting,m,positive,positive,ES_green,1,m,444,1457034,1457538,1457742
44,first,24,lästig,IAT_green4.bmp,green,ending_scream,scream,ending,c,negative,positive,ES_green,1,c,748,1459261,1459765,1459969
44,first,25,krank,IAT_green3.bmp,green,ending_scream,scream,ending,c,negative,positive,ES_green,0,m,708,1461792,1462296,1462500
44,first,26,gerecht,IAT_red3.bmp,red,ending_melody,melody,ending,m,positive,negative,ES_green,0,c,1141,1464784,1465288,1465492
44,first,27,streng,IAT_red4.bmp,red,ending_melody,melody,ending,c,negative,negative,ES_green,1,c,604,1468209,1468713,1468917
44,first,28,schön,IAT_green2.bmp,green,ending_scream,scream,ending,m,positive,positive,ES_green,1,m,406,1470596,1471100,1471304
44,first,29,teuer,IAT_yellow1.bmp,yellow,starting_melody,melody,starting,c,negative,positive,ES_green,1,c,934,1472786,1473290,1473494
44,first,30,witzig,IAT_purple3.bmp,purple,starting_scream,scream,starting,m,positive,negative,ES_green,0,c,561,1475502,1476006,1476210
44,first,31,morsch,IAT_red4.bmp,red,ending_melody,melody,ending,c,negative,negative,ES_green,1,c,552,1478347,1478851,1479055
44,first,32,gierig,IAT_green4.bmp,green,ending_scream,scream,ending,c,negative,positive,ES_green,0,m,374,1480682,1481186,1481390
44,first,33,brutal,IAT_green3.bmp,green,ending_scream,scream,ending,c,negative,positive,ES_green,1,c,880,1483339,1483843,1484047
44,first,34,gierig,IAT_green2.bmp,green,ending_scream,scream,ending,c,negative,positive,ES_green,1,c,645,1486003,1486507,1486711
44,first,35,falsch,IAT_yellow2.bmp,yellow,starting_melody,melody,starting,c,negative,positive,ES_green,1,c,849,1488432,1488936,1489140
44,first,36,munter,IAT_green1.bmp,green,ending_scream,scream,ending,m,positive,positive,ES_green,1,m,484,1491064,1491568,1491772
44,first,37,sonnig,IAT_red3.bmp,red,ending_melody,melody,ending,m,positive,negative,ES_green,1,m,639,1493331,1493835,1494039
44,first,38,lästig,IAT_yellow4.bmp,yellow,starting_melody,melody,starting,c,negative,positive,ES_green,1,c,692,1495753,1496257,1496461
44,first,39,munter,IAT_yellow1.bmp,yellow,starting_melody,melody,starting,m,positive,positive,ES_green,1,m,1145,1498229,1498733,1498937
44,first,40,human,IAT_yellow3.bmp,yellow,starting_melody,melody,starting,m,positive,positive,ES_green,1,m,634,1501158,1501662,1501866
44,first,41,lustig,IAT_yellow3.bmp,yellow,starting_melody,melody,starting,m,positive,positive,ES_green,1,m,664,1503576,1504080,1504284
44,first,42,sozial,IAT_green2.bmp,green,ending_scream,scream,ending,m,positive,positive,ES_green,1,m,1163,1506024,1506528,1506732
44,first,43,streng,IAT_yellow4.bmp,yellow,starting_melody,melody,starting,c,negative,positive,ES_green,1,c,744,1508971,1509475,1509679
44,first,44,sonnig,IAT_yellow2.bmp,yellow,starting_melody,melody,starting,m,positive,positive,ES_green,0,c,962,1511499,1512004,1512208
44,first,45,sanft,IAT_red1.bmp,red,ending_melody,melody,ending,m,positive,negative,ES_green,0,c,1217,1514746,1515250,1515454
44,first,46,schön,IAT_purple3.bmp,purple,starting_scream,scream,starting,m,positive,negative,ES_green,1,m,657,1518245,1518750,1518954
44,first,47,einsam,IAT_red4.bmp,red,ending_melody,melody,ending,c,negative,negative,ES_green,1,c,577,1520687,1521191,1521395
44,first,48,human,IAT_red3.bmp,red,ending_melody,melody,ending,m,positive,negative,ES_green,1,m,689,1523048,1523552,1523756
44,first,49,heiter,IAT_red1.bmp,red,ending_melody,melody,ending,m,positive,negative,ES_green,1,m,1029,1525521,1526025,1526229
44,first,50,schön,IAT_green1.bmp,green,ending_scream,scream,ending,m,positive,positive,ES_green,1,m,1297,1528333,1528837,1529041
44,first,51,teuer,IAT_purple2.bmp,purple,starting_scream,scream,starting,c,negative,negative,ES_green,0,m,1204,1531413,1531918,1532122
44,first,52,gierig,IAT_yellow3.bmp,yellow,starting_melody,melody,starting,c,negative,positive,ES_green,1,c,1363,1534902,1535406,1535610
44,first,53,streng,IAT_yellow3.bmp,yellow,starting_melody,melody,starting,c,negative,positive,ES_green,1,c,1103,1538049,1538553,1538757
44,first,54,brutal,IAT_yellow4.bmp,yellow,starting_melody,melody,starting,c,negative,positive,ES_green,1,c,1161,1540936,1541440,1541644
44,first,55,sonnig,IAT_yellow2.bmp,yellow,starting_melody,melody,starting,m,positive,positive,ES_green,1,m,548,1543881,1544385,1544589
44,first,56,sanft,IAT_yellow1.bmp,yellow,starting_melody,melody,starting,m,positive,positive,ES_green,1,m,879,1546213,1546717,1546921
44,first,57,einsam,IAT_green2.bmp,green,ending_scream,scream,ending,c,negative,positive,ES_green,1,c,625,1548875,1549380,1549584
44,first,58,human,IAT_purple4.bmp,purple,starting_scream,scream,starting,m,positive,negative,ES_green,1,m,627,1551283,1551787,1551991
44,first,59,ehrlich,IAT_purple2.bmp,purple,starting_scream,scream,starting,m,positive,negative,ES_green,1,m,1048,1553693,1554197,1554401
44,first,60,kaputt,IAT_green1.bmp,green,ending_scream,scream,ending,c,negative,positive,ES_green,0,m,659,1556523,1557027,1557231
44,first,61,krank,IAT_red2.bmp,red,ending_melody,melody,ending,c,negative,negative,ES_green,1,c,675,1559465,1559970,1560174
44,first,62,sonnig,IAT_yellow1.bmp,yellow,starting_melody,melody,starting,m,positive,positive,ES_green,1,m,546,1561924,1562428,1562632
44,first,63,feige,IAT_yellow2.bmp,yellow,starting_melody,melody,starting,c,negative,positive,ES_green,1,c,572,1564253,1564757,1564961
44,first,64,sozial,IAT_red1.bmp,red,ending_melody,melody,ending,m,positive,negative,ES_green,1,m,595,1566608,1567112,1567316
44,first,65,gesund,IAT_purple4.bmp,purple,starting_scream,scream,starting,m,positive,negative,ES_green,1,m,811,1568986,1569490,1569694
44,first,66,kaputt,IAT_purple4.bmp,purple,starting_scream,scream,starting,c,negative,negative,ES_green,1,c,853,1571580,1572084,1572288
44,first,67,witzig,IAT_red1.bmp,red,ending_melody,melody,ending,m,positive,negative,ES_green,0,None,1500,1574215,1574719,1574923
44,first,68,schön,IAT_yellow3.bmp,yellow,starting_melody,melody,starting,m,positive,positive,ES_green,1,m,771,1577998,1578503,1578707
44,first,69,geizig,IAT_red4.bmp,red,ending_melody,melody,ending,c,negative,negative,ES_green,1,c,518,1580553,1581057,1581261
44,first,70,gerecht,IAT_green3.bmp,green,ending_scream,scream,ending,m,positive,positive,ES_green,1,m,435,1582854,1583358,1583562
44,first,71,krank,IAT_red2.bmp,red,ending_melody,melody,ending,c,negative,negative,ES_green,1,c,502,1585072,1585576,1585780
44,first,72,teuer,IAT_yellow1.bmp,yellow,starting_melody,melody,starting,c,negative,positive,ES_green,0,m,368,1587357,1587861,1588065
44,first,73,ehrlich,IAT_purple2.bmp,purple,starting_scream,scream,starting,m,positive,negative,ES_green,1,m,714,1590009,1590513,1590717
44,first,74,heiter,IAT_red2.bmp,red,ending_melody,melody,ending,m,positive,negative,ES_green,1,m,614,1592505,1593009,1593213
44,first,75,munter,IAT_yellow1.bmp,yellow,starting_melody,melody,starting,m,positive,positive,ES_green,0,c,1009,1594901,1595406,1595610
44,first,76,witzig,IAT_purple1.bmp,purple,starting_scream,scream,starting,m,positive,negative,ES_green,1,m,545,1598194,1598699,1598903
44,first,77,gerecht,IAT_yellow3.bmp,yellow,starting_melody,melody,starting,m,positive,positive,ES_green,1,m,593,1600523,1601027,1601231
44,first,78,ehrlich,IAT_purple1.bmp,purple,starting_scream,scream,starting,m,positive,negative,ES_green,1,m,469,1602899,1603403,1603607
44,first,79,krank,IAT_green1.bmp,green,ending_scream,scream,ending,c,negative,positive,ES_green,1,c,657,1605151,1605655,1605859
44,first,80,brutal,IAT_green4.bmp,green,ending_scream,scream,ending,c,negative,positive,ES_green,1,c,1306,1607590,1608095,1608299
44,first,81,lästig,IAT_purple3.bmp,purple,starting_scream,scream,starting,c,negative,negative,ES_green,0,None,1500,1610680,1611184,1611388
44,first,82,falsch,IAT_purple1.bmp,purple,starting_scream,scream,starting,c,negative,negative,ES_green,1,c,950,1614462,1614967,1615171
44,first,83,einsam,IAT_purple4.bmp,purple,starting_scream,scream,starting,c,negative,negative,ES_green,1,c,566,1617195,1617700,1617904
44,first,84,feige,IAT_red3.bmp,red,ending_melody,melody,ending,c,negative,negative,ES_green,1,c,529,1619546,1620050,1620254
44,first,85,witzig,IAT_green3.bmp,green,ending_scream,scream,ending,m,positive,positive,ES_green,1,m,767,1621858,1622362,1622566
44,first,86,lästig,IAT_purple2.bmp,purple,starting_scream,scream,starting,c,negative,negative,ES_green,1,c,636,1624408,1624912,1625116
44,first,87,brutal,IAT_green2.bmp,green,ending_scream,scream,ending,c,negative,positive,ES_green,1,c,558,1626826,1627330,1627534
44,first,88,sanft,IAT_purple1.bmp,purple,starting_scream,scream,starting,m,positive,negative,ES_green,0,c,611,1629168,1629672,1629876
44,first,89,feige,IAT_red2.bmp,red,ending_melody,melody,ending,c,negative,negative,ES_green,1,c,542,1632061,1632565,1632769
44,first,90,lustig,IAT_red2.bmp,red,ending_melody,melody,ending,m,positive,negative,ES_green,1,m,411,1634386,1634890,1635094
44,first,91,einsam,IAT_purple2.bmp,purple,starting_scream,scream,starting,c,negative,negative,ES_green,0,m,614,1636580,1637084,1637288
44,first,92,ehrlich,IAT_red3.bmp,red,ending_melody,melody,ending,m,positive,negative,ES_green,0,c,661,1639477,1639981,1640185
44,first,93,kaputt,IAT_red2.bmp,red,ending_melody,melody,ending,c,negative,negative,ES_green,1,c,723,1642421,1642925,1643129
44,first,94,geizig,IAT_yellow2.bmp,yellow,starting_melody,melody,starting,c,negative,positive,ES_green,1,c,849,1644928,1645432,1645636
44,first,95,sozial,IAT_green4.bmp,green,ending_scream,scream,ending,m,positive,positive,ES_green,1,m,528,1647560,1648064,1648268
44,second,0,schön,IAT_red3.bmp,red,ending_melody,melody,ending,m,positive,negative,ES_green,0,c,1444,1656511,1657016,1657220
44,second,1,human,IAT_yellow3.bmp,yellow,starting_melody,melody,starting,m,positive,positive,ES_green,1,m,1173,1660241,1660745,1660949
44,second,2,schön,IAT_red1.bmp,red,ending_melody,melody,ending,m,positive,negative,ES_green,1,m,549,1663197,1663701,1663905
44,second,3,teuer,IAT_yellow4.bmp,yellow,starting_melody,melody,starting,c,negative,positive,ES_green,1,c,1410,1665529,1666034,1666238
44,second,4,brutal,IAT_purple2.bmp,purple,starting_scream,scream,starting,c,negative,negative,ES_green,1,c,1022,1668723,1669227,1669431
44,second,5,ehrlich,IAT_red2.bmp,red,ending_melody,melody,ending,m,positive,negative,ES_green,1,m,791,1671528,1672033,1672237
44,second,6,sanft,IAT_green1.bmp,green,ending_scream,scream,ending,m,positive,positive,ES_green,1,m,505,1674101,1674605,1674809
44,second,7,kaputt,IAT_red4.bmp,red,ending_melody,melody,ending,c,negative,negative,ES_green,1,c,545,1676389,1676893,1677097
44,second,8,sonnig,IAT_yellow2.bmp,yellow,starting_melody,melody,starting,m,positive,positive,ES_green,1,m,610,1678717,1679221,1679425
44,second,9,feige,IAT_red2.bmp,red,ending_melody,melody,ending,c,negative,negative,ES_green,1,c,615,1681110,1681614,1681818
44,second,10,falsch,IAT_green1.bmp,green,ending_scream,scream,ending,c,negative,positive,ES_green,1,c,699,1683507,1684012,1684216
44,second,11,einsam,IAT_green4.bmp,green,ending_scream,scream,ending,c,negative,positive,ES_green,0,m,1125,1685990,1686494,1686698
44,second,12,morsch,IAT_purple4.bmp,purple,starting_scream,scream,starting,c,negative,negative,ES_green,1,c,625,1689398,1689902,1690106
44,second,13,ehrlich,IAT_yellow1.bmp,yellow,starting_melody,melody,starting,m,positive,positive,ES_green,1,m,532,1691806,1692311,1692515
44,second,14,streng,IAT_red2.bmp,red,ending_melody,melody,ending,c,negative,negative,ES_green,1,c,378,1694122,1694626,1694830
44,second,15,human,IAT_yellow1.bmp,yellow,starting_melody,melody,starting,m,positive,positive,ES_green,1,m,619,1696283,1696787,1696991
44,second,16,geizig,IAT_purple4.bmp,purple,starting_scream,scream,starting,c,negative,negative,ES_green,1,c,331,1698684,1699188,1699392
44,second,17,gierig,IAT_green2.bmp,green,ending_scream,scream,ending,c,negative,positive,ES_green,0,m,295,1700797,1701302,1701506
44,second,18,morsch,IAT_green4.bmp,green,ending_scream,scream,ending,c,negative,positive,ES_green,1,c,574,1703375,1703879,1704083
44,second,19,sozial,IAT_purple3.bmp,purple,starting_scream,scream,starting,m,positive,negative,ES_green,1,m,640,1705731,1706236,1706440
44,second,20,teuer,IAT_green2.bmp,green,ending_scream,scream,ending,c,negative,positive,ES_green,1,c,623,1708155,1708659,1708863
44,second,21,lustig,IAT_red3.bmp,red,ending_melody,melody,ending,m,positive,negative,ES_green,0,c,1148,1710561,1711065,1711269
44,second,22,gesund,IAT_purple4.bmp,purple,starting_scream,scream,starting,m,positive,negative,ES_green,1,m,848,1713992,1714496,1714700
44,second,23,krank,IAT_purple2.bmp,purple,starting_scream,scream,starting,c,negative,negative,ES_green,1,c,725,1716622,1717126,1717330
44,second,24,schön,IAT_purple1.bmp,purple,starting_scream,scream,starting,m,positive,negative,ES_green,1,m,850,1719129,1719634,1719838
44,second,25,gierig,IAT_green4.bmp,green,ending_scream,scream,ending,c,negative,positive,ES_green,1,c,951,1721763,1722267,1722471
44,second,26,teuer,IAT_green2.bmp,green,ending_scream,scream,ending,c,negative,positive,ES_green,1,c,1167,1724496,1725000,1725204
44,second,27,krank,IAT_red1.bmp,red,ending_melody,melody,ending,c,negative,negative,ES_green,1,c,912,1727446,1727951,1728155
44,second,28,falsch,IAT_red3.bmp,red,ending_melody,melody,ending,c,negative,negative,ES_green,1,c,1332,1730142,1730646,1730850
44,second,29,gesund,IAT_red2.bmp,red,ending_melody,melody,ending,m,positive,negative,ES_green,0,None,1500,1733257,1733761,1733965
44,second,30,streng,IAT_red4.bmp,red,ending_melody,melody,ending,c,negative,negative,ES_green,1,c,563,1737040,1737544,1737748
44,second,31,morsch,IAT_yellow2.bmp,yellow,starting_melody,melody,starting,c,negative,positive,ES_green,1,c,539,1739385,1739890,1740094
44,second,32,human,IAT_purple1.bmp,purple,starting_scream,scream,starting,m,positive,negative,ES_green,1,m,739,1741708,1742213,1742417
44,second,33,kaputt,IAT_red2.bmp,red,ending_melody,melody,ending,c,negative,negative,ES_green,1,c,601,1744231,1744735,1744939
44,second,34,gerecht,IAT_purple1.bmp,purple,starting_scream,scream,starting,m,positive,negative,ES_green,1,m,558,1746615,1747119,1747323
44,second,35,witzig,IAT_green3.bmp,green,ending_scream,scream,ending,m,positive,positive,ES_green,1,m,516,1748956,1749461,1749665
44,second,36,munter,IAT_purple4.bmp,purple,starting_scream,scream,starting,m,positive,negative,ES_green,0,c,401,1751255,1751760,1751964
44,second,37,lustig,IAT_yellow3.bmp,yellow,starting_melody,melody,starting,m,positive,positive,ES_green,0,c,580,1753940,1754444,1754648
44,second,38,munter,IAT_yellow1.bmp,yellow,starting_melody,melody,starting,m,positive,positive,ES_green,1,m,610,1756805,1757309,1757513
44,second,39,falsch,IAT_yellow3.bmp,yellow,starting_melody,melody,starting,c,negative,positive,ES_green,1,c,562,1759198,1759702,1759906
44,second,40,feige,IAT_green1.bmp,green,ending_scream,scream,ending,c,negative,positive,ES_green,0,m,409,1761543,1762047,1762251
44,second,41,gerecht,IAT_yellow4.bmp,yellow,starting_melody,melody,starting,m,positive,positive,ES_green,1,m,721,1764234,1764738,1764942
44,second,42,gesund,IAT_green3.bmp,green,ending_scream,scream,ending,m,positive,positive,ES_green,1,m,718,1766739,1767243,1767447
44,second,43,munter,IAT_green1.bmp,green,ending_scream,scream,ending,m,positive,positive,ES_green,1,m,270,1769240,1769744,1769948
44,second,44,lästig,IAT_purple3.bmp,purple,starting_scream,scream,starting,c,negative,negative,ES_green,1,c,681,1771292,1771797,1772001
44,second,45,einsam,IAT_purple2.bmp,purple,starting_scream,scream,starting,c,negative,negative,ES_green,0,m,461,1773757,1774261,1774465
44,second,46,lästig,IAT_purple4.bmp,purple,starting_scream,scream,starting,c,negative,negative,ES_green,1,c,945,1776501,1777005,1777209
44,second,47,brutal,IAT_red1.bmp,red,ending_melody,melody,ending,c,negative,negative,ES_green,1,c,772,1779229,1779734,1779938
44,second,48,sonnig,IAT_purple3.bmp,purple,starting_scream,scream,starting,m,positive,negative,ES_green,1,m,739,1781785,1782290,1782494
44,second,49,geizig,IAT_purple4.bmp,purple,starting_scream,scream,starting,c,negative,negative,ES_green,1,c,520,1784308,1784812,1785016
44,second,50,einsam,IAT_green2.bmp,green,ending_scream,scream,ending,c,negative,positive,ES_green,0,m,548,1786611,1787115,1787319
44,second,51,gerecht,IAT_green4.bmp,green,ending_scream,scream,ending,m,positive,positive,ES_green,1,m,565,1789442,1789946,1790150
44,second,52,feige,IAT_red2.bmp,red,ending_melody,melody,ending,c,negative,negative,ES_green,1,c,789,1791790,1792294,1792498
44,second,53,geizig,IAT_yellow2.bmp,yellow,starting_melody,melody,starting,c,negative,positive,ES_green,1,c,732,1794362,1794866,1795070
44,second,54,lustig,IAT_red1.bmp,red,ending_melody,melody,ending,m,positive,negative,ES_green,1,m,664,1796878,1797382,1797586
44,second,55,heiter,IAT_red1.bmp,red,ending_melody,melody,ending,m,positive,negative,ES_green,0,c,699,1799325,1799829,1800033
44,second,56,witzig,IAT_purple3.bmp,purple,starting_scream,scream,starting,m,positive,negative,ES_green,1,m,700,1802307,1802811,1803015
44,second,57,krank,IAT_purple3.bmp,purple,starting_scream,scream,starting,c,negative,negative,ES_green,1,c,859,1804790,1805294,1805498
44,second,58,brutal,IAT_red4.bmp,red,ending_melody,melody,ending,c,negative,negative,ES_green,1,c,841,1807432,1807936,1808140
44,second,59,sanft,IAT_purple2.bmp,purple,starting_scream,scream,starting,m,positive,negative,ES_green,1,m,1020,1810056,1810561,1810765
44,second,60,sonnig,IAT_red1.bmp,red,ending_melody,melody,ending,m,positive,negative,ES_green,1,m,584,1812861,1813365,1813569
44,second,61,sanft,IAT_red4.bmp,red,ending_melody,melody,ending,m,positive,negative,ES_green,1,m,654,1815228,1815733,1815937
44,second,62,krank,IAT_purple1.bmp,purple,starting_scream,scream,starting,c,negative,negative,ES_green,1,c,519,1817666,1818171,1818375
44,second,63,witzig,IAT_green2.bmp,green,ending_scream,scream,ending,m,positive,positive,ES_green,1,m,472,1819970,1820474,1820678
44,second,64,einsam,IAT_yellow4.bmp,yellow,starting_melody,melody,starting,c,negative,positive,ES_green,0,m,466,1822225,1822729,1822933
44,second,65,sozial,IAT_purple2.bmp,purple,starting_scream,scream,starting,m,positive,negative,ES_green,1,m,604,1824975,1825479,1825683
44,second,66,lustig,IAT_green4.bmp,green,ending_scream,scream,ending,m,positive,positive,ES_green,1,m,523,1827361,1827866,1828070
44,second,67,munter,IAT_green2.bmp,green,ending_scream,scream,ending,m,positive,positive,ES_green,1,m,568,1829668,1830172,1830376
44,second,68,sozial,IAT_yellow1.bmp,yellow,starting_melody,melody,starting,m,positive,positive,ES_green,1,m,524,1832021,1832525,1832729
44,second,69,gierig,IAT_yellow2.bmp,yellow,starting_melody,melody,starting,c,negative,positive,ES_green,1,c,745,1834328,1834833,1835037
44,second,70,kaputt,IAT_yellow2.bmp,yellow,starting_melody,melody,starting,c,negative,positive,ES_green,1,c,767,1836859,1837363,1837567
44,second,71,heiter,IAT_yellow4.bmp,yellow,starting_melody,melody,starting,m,positive,positive,ES_green,1,m,1178,1839411,1839915,1840119
44,second,72,feige,IAT_yellow4.bmp,yellow,starting_melody,melody,starting,c,negative,positive,ES_green,1,c,652,1842372,1842876,1843080
44,second,73,brutal,IAT_yellow3.bmp,yellow,starting_melody,melody,starting,c,negative,positive,ES_green,1,c,707,1844808,1845312,1845516
44,second,74,gerecht,IAT_red3.bmp,red,ending_melody,melody,ending,m,positive,negative,ES_green,1,m,880,1847299,1847803,1848007
44,second,75,morsch,IAT_green3.bmp,green,ending_scream,scream,ending,c,negative,positive,ES_green,1,c,564,1849962,1850466,1850670
44,second,76,geizig,IAT_purple1.bmp,purple,starting_scream,scream,starting,c,negative,negative,ES_green,1,c,659,1852309,1852814,1853018
44,second,77,heiter,IAT_green3.bmp,green,ending_scream,scream,ending,m,positive,positive,ES_green,1,m,517,1854752,1855256,1855460
44,second,78,falsch,IAT_green4.bmp,green,ending_scream,scream,ending,c,negative,positive,ES_green,1,c,683,1857053,1857557,1857761
44,second,79,lästig,IAT_purple2.bmp,purple,starting_scream,scream,starting,c,negative,negative,ES_green,0,m,847,1859519,1860024,1860228
44,second,80,ehrlich,IAT_green1.bmp,green,ending_scream,scream,ending,m,positive,positive,ES_green,1,m,479,1862651,1863155,1863359
44,second,81,sonnig,IAT_purple1.bmp,purple,starting_scream,scream,starting,m,positive,negative,ES_green,0,c,575,1864914,1865418,1865622
44,second,82,teuer,IAT_yellow1.bmp,yellow,starting_melody,melody,starting,c,negative,positive,ES_green,0,m,629,1867772,1868276,1868480
44,second,83,heiter,IAT_purple3.bmp,purple,starting_scream,scream,starting,m,positive,negative,ES_green,0,c,731,1870685,1871189,1871393
44,second,84,streng,IAT_green3.bmp,green,ending_scream,scream,ending,c,negative,positive,ES_green,1,c,1119,1873699,1874203,1874407
44,second,85,lästig,IAT_red3.bmp,red,ending_melody,melody,ending,c,negative,negative,ES_green,1,c,681,1876602,1877106,1877310
44,second,86,gesund,IAT_yellow3.bmp,yellow,starting_melody,melody,starting,m,positive,positive,ES_green,1,m,797,1879067,1879571,1879775
44,second,87,sanft,IAT_yellow2.bmp,yellow,starting_melody,melody,starting,m,positive,positive,ES_green,0,c,510,1881648,1882152,1882356
44,second,88,streng,IAT_yellow4.bmp,yellow,starting_melody,melody,starting,c,negative,positive,ES_green,1,c,1096,1884441,1884945,1885149
44,second,89,kaputt,IAT_red4.bmp,red,ending_melody,melody,ending,c,negative,negative,ES_green,1,c,916,1887320,1887824,1888028
44,second,90,gierig,IAT_yellow1.bmp,yellow,starting_melody,melody,starting,c,negative,positive,ES_green,0,m,1392,1890021,1890525,1890729
44,second,91,ehrlich,IAT_red4.bmp,red,ending_melody,melody,ending,m,positive,negative,ES_green,1,m,552,1893696,1894200,1894404
44,second,92,sozial,IAT_red3.bmp,red,ending_melody,melody,ending,m,positive,negative,ES_green,1,m,616,1896032,1896536,1896740
44,second,93,witzig,IAT_green3.bmp,green,ending_scream,scream,ending,m,positive,positive,ES_green,1,m,547,1898431,1898935,1899139
44,second,94,human,IAT_green1.bmp,green,ending_scream,scream,ending,m,positive,positive,ES_green,1,m,562,1900760,1901265,1901469
44,second,95,schön,IAT_yellow3.bmp,yellow,starting_melody,melody,starting,m,positive,positive,ES_green,1,m,646,1903107,1903611,1903815
44,third,0,schön,IAT_yellow4.bmp,yellow,starting_melody,melody,starting,m,positive,positive,ES_green,1,m,714,1952442,1952947,1953151
44,third,1,streng,IAT_purple2.bmp,purple,starting_scream,scream,starting,c,negative,negative,ES_green,1,c,704,1954941,1955445,1955649
44,third,2,kaputt,IAT_red3.bmp,red,ending_melody,melody,ending,c,negative,negative,ES_green,1,c,666,1957428,1957932,1958136
44,third,3,heiter,IAT_purple4.bmp,purple,starting_scream,scream,starting,m,positive,negative,ES_green,1,m,619,1959876,1960380,1960584
44,third,4,geizig,IAT_yellow2.bmp,yellow,starting_melody,melody,starting,c,negative,positive,ES_green,1,c,538,1962277,1962782,1962986
44,third,5,brutal,IAT_yellow1.bmp,yellow,starting_melody,melody,starting,c,negative,positive,ES_green,0,m,586,1964599,1965103,1965307
44,third,6,geizig,IAT_yellow2.bmp,yellow,starting_melody,melody,starting,c,negative,positive,ES_green,1,c,663,1967469,1967973,1968177
44,third,7,lustig,IAT_red2.bmp,red,ending_melody,melody,ending,m,positive,negative,ES_green,1,m,787,1969915,1970419,1970623
44,third,8,sozial,IAT_yellow2.bmp,yellow,starting_melody,melody,starting,m,positive,positive,ES_green,1,m,580,1972486,1972990,1973194
44,third,9,streng,IAT_red2.bmp,red,ending_melody,melody,ending,c,negative,negative,ES_green,1,c,396,1974849,1975353,1975557
44,third,10,lustig,IAT_red4.bmp,red,ending_melody,melody,ending,m,positive,negative,ES_green,1,m,518,1977029,1977533,1977737
44,third,11,witzig,IAT_red1.bmp,red,ending_melody,melody,ending,m,positive,negative,ES_green,0,c,355,1979330,1979834,1980038
44,third,12,sonnig,IAT_green1.bmp,green,ending_scream,scream,ending,m,positive,positive,ES_green,1,m,889,1981967,1982471,1982675
44,third,13,feige,IAT_green1.bmp,green,ending_scream,scream,ending,c,negative,positive,ES_green,1,c,686,1984639,1985143,1985347
44,third,14,witzig,IAT_purple1.bmp,purple,starting_scream,scream,starting,m,positive,negative,ES_green,1,m,442,1987108,1987613,1987817
44,third,15,einsam,IAT_red1.bmp,red,ending_melody,melody,ending,c,negative,negative,ES_green,1,c,1351,1989335,1989839,1990043
44,third,16,lustig,IAT_purple1.bmp,purple,starting_scream,scream,starting,m,positive,negative,ES_green,1,m,642,1992470,1992975,1993179
44,third,17,ehrlich,IAT_red3.bmp,red,ending_melody,melody,ending,m,positive,negative,ES_green,1,m,912,1994896,1995400,1995604
44,third,18,feige,IAT_purple2.bmp,purple,starting_scream,scream,starting,c,negative,negative,ES_green,1,c,466,1997595,1998099,1998303
44,third,19,gesund,IAT_yellow4.bmp,yellow,starting_melody,melody,starting,m,positive,positive,ES_green,1,m,716,1999845,2000349,2000553
44,third,20,witzig,IAT_green3.bmp,green,ending_scream,scream,ending,m,positive,positive,ES_green,1,m,571,2002344,2002848,2003052
44,third,21,schön,IAT_purple2.bmp,purple,starting_scream,scream,starting,m,positive,negative,ES_green,1,m,549,2004698,2005202,2005406
44,third,22,gesund,IAT_red1.bmp,red,ending_melody,melody,ending,m,positive,negative,ES_green,1,m,593,2007031,2007535,2007739
44,third,23,sonnig,IAT_yellow3.bmp,yellow,starting_melody,melody,starting,m,positive,positive,ES_green,1,m,484,2009408,2009912,2010116
44,third,24,kaputt,IAT_yellow2.bmp,yellow,starting_melody,melody,starting,c,negative,positive,ES_green,1,c,531,2011675,2012179,2012383
44,third,25,munter,IAT_green3.bmp,green,ending_scream,scream,ending,m,positive,positive,ES_green,1,m,412,2013990,2014494,2014698
44,third,26,sanft,IAT_yellow1.bmp,yellow,starting_melody,melody,starting,m,positive,positive,ES_green,0,c,310,2016185,2016689,2016893
44,third,27,morsch,IAT_yellow1.bmp,yellow,starting_melody,melody,starting,c,negative,positive,ES_green,1,c,526,2018780,2019284,2019488
44,third,28,sozial,IAT_red4.bmp,red,ending_melody,melody,ending,m,positive,negative,ES_green,1,m,539,2021090,2021594,2021798
44,third,29,heiter,IAT_red1.bmp,red,ending_melody,melody,ending,m,positive,negative,ES_green,0,c,408,2023413,2023917,2024121
44,third,30,human,IAT_green3.bmp,green,ending_scream,scream,ending,m,positive,positive,ES_green,1,m,400,2026104,2026609,2026813
44,third,31,falsch,IAT_green4.bmp,green,ending_scream,scream,ending,c,negative,positive,ES_green,1,c,590,2028290,2028794,2028998
44,third,32,krank,IAT_red4.bmp,red,ending_melody,melody,ending,c,negative,negative,ES_green,1,c,738,2030664,2031168,2031372
44,third,33,feige,IAT_yellow4.bmp,yellow,starting_melody,melody,starting,c,negative,positive,ES_green,0,m,1215,2033186,2033690,2033894
44,third,34,ehrlich,IAT_yellow3.bmp,yellow,starting_melody,melody,starting,m,positive,positive,ES_green,1,m,659,2036684,2037188,2037392
44,third,35,munter,IAT_purple3.bmp,purple,starting_scream,scream,starting,m,positive,negative,ES_green,0,c,650,2039127,2039631,2039835
44,third,36,human,IAT_yellow3.bmp,yellow,starting_melody,melody,starting,m,positive,positive,ES_green,1,m,750,2042061,2042565,2042769
44,third,37,heiter,IAT_green1.bmp,green,ending_scream,scream,ending,m,positive,positive,ES_green,1,m,947,2044594,2045098,2045302
44,third,38,kaputt,IAT_purple4.bmp,purple,starting_scream,scream,starting,c,negative,negative,ES_green,1,c,1107,2047324,2047828,2048032
44,third,39,krank,IAT_green4.bmp,green,ending_scream,scream,ending,c,negative,positive,ES_green,1,c,593,2050214,2050718,2050922
44,third,40,streng,IAT_green3.bmp,green,ending_scream,scream,ending,c,negative,positive,ES_green,1,c,855,2052591,2053095,2053299
44,third,41,krank,IAT_purple3.bmp,purple,starting_scream,scream,starting,c,negative,negative,ES_green,1,c,739,2055230,2055734,2055938
44,third,42,gierig,IAT_purple4.bmp,purple,starting_scream,scream,starting,c,negative,negative,ES_green,0,m,686,2057752,2058256,2058460
44,third,43,sanft,IAT_purple3.bmp,purple,starting_scream,scream,starting,m,positive,negative,ES_green,0,c,569,2060721,2061225,2061429
44,third,44,feige,IAT_red4.bmp,red,ending_melody,melody,ending,c,negative,negative,ES_green,0,m,647,2063573,2064077,2064281
44,third,45,munter,IAT_green2.bmp,green,ending_scream,scream,ending,m,positive,positive,ES_green,1,m,771,2066504,2067008,2067212
44,third,46,morsch,IAT_green4.bmp,green,ending_scream,scream,ending,c,negative,positive,ES_green,1,c,478,2069059,2069564,2069768
44,third,47,human,IAT_red1.bmp,red,ending_melody,melody,ending,m,positive,negative,ES_green,0,c,718,2071322,2071826,2072030
44,third,48,einsam,IAT_green2.bmp,green,ending_scream,scream,ending,c,negative,positive,ES_green,1,c,810,2074322,2074826,2075030
44,third,49,teuer,IAT_red2.bmp,red,ending_melody,melody,ending,c,negative,negative,ES_green,1,c,1016,2076917,2077421,2077625
44,third,50,kaputt,IAT_yellow4.bmp,yellow,starting_melody,melody,starting,c,negative,positive,ES_green,1,c,613,2079718,2080222,2080426
44,third,51,schön,IAT_purple1.bmp,purple,starting_scream,scream,starting,m,positive,negative,ES_green,1,m,792,2082115,2082620,2082824
44,third,52,sanft,IAT_green1.bmp,green,ending_scream,scream,ending,m,positive,positive,ES_green,1,m,974,2084692,2085196,2085400
44,third,53,sozial,IAT_green4.bmp,green,ending_scream,scream,ending,m,positive,positive,ES_green,1,m,580,2087450,2087954,2088158
44,third,54,witzig,IAT_green1.bmp,green,ending_scream,scream,ending,m,positive,positive,ES_green,0,c,617,2089813,2090317,2090521
44,third,55,gesund,IAT_purple4.bmp,purple,starting_scream,scream,starting,m,positive,negative,ES_green,1,m,572,2092713,2093217,2093421
44,third,56,lästig,IAT_yellow3.bmp,yellow,starting_melody,melody,starting,c,negative,positive,ES_green,1,c,791,2095069,2095573,2095777
44,third,57,gierig,IAT_purple2.bmp,purple,starting_scream,scream,starting,c,negative,negative,ES_green,1,c,994,2097645,2098149,2098353
44,third,58,sozial,IAT_purple3.bmp,purple,starting_scream,scream,starting,m,positive,negative,ES_green,1,m,566,2100422,2100926,2101130
44,third,59,einsam,IAT_purple1.bmp,purple,starting_scream,scream,starting,c,negative,negative,ES_green,1,c,1326,2102771,2103276,2103480
44,third,60,gerecht,IAT_yellow1.bmp,yellow,starting_melody,melody,starting,m,positive,positive,ES_green,0,c,631,2105882,2106387,2106591
44,third,61,brutal,IAT_green2.bmp,green,ending_scream,scream,ending,c,negative,positive,ES_green,1,c,586,2108798,2109302,2109506
44,third,62,lästig,IAT_yellow4.bmp,yellow,starting_melody,melody,starting,c,negative,positive,ES_green,1,c,968,2111169,2111673,2111877
44,third,63,morsch,IAT_green1.bmp,green,ending_scream,scream,ending,c,negative,positive,ES_green,1,c,639,2113921,2114425,2114629
44,third,64,ehrlich,IAT_purple3.bmp,purple,starting_scream,scream,starting,m,positive,negative,ES_green,1,m,621,2116344,2116848,2117052
44,third,65,teuer,IAT_purple3.bmp,purple,starting_scream,scream,starting,c,negative,negative,ES_green,0,m,751,2118749,2119253,2119457
44,third,66,streng,IAT_green2.bmp,green,ending_scream,scream,ending,c,negative,positive,ES_green,1,c,632,2121784,2122288,2122492
44,third,67,falsch,IAT_purple2.bmp,purple,starting_scream,scream,starting,c,negative,negative,ES_green,1,c,909,2124200,2124705,2124909
44,third,68,sanft,IAT_green2.bmp,green,ending_scream,scream,ending,m,positive,positive,ES_green,0,c,856,2126894,2127398,2127602
44,third,69,lustig,IAT_red3.bmp,red,ending_melody,melody,ending,m,positive,negative,ES_green,1,m,580,2130035,2130539,2130743
44,third,70,brutal,IAT_red4.bmp,red,ending_melody,melody,ending,c,negative,negative,ES_green,1,c,720,2132400,2132904,2133108
44,third,71,gerecht,IAT_yellow1.bmp,yellow,starting_melody,melody,starting,m,positive,positive,ES_green,1,m,909,2134905,2135409,2135613
44,third,72,gierig,IAT_green4.bmp,green,ending_scream,scream,ending,c,negative,positive,ES_green,1,c,760,2137598,2138103,2138307
44,third,73,sonnig,IAT_purple2.bmp,purple,starting_scream,scream,starting,m,positive,negative,ES_green,1,m,956,2140143,2140648,2140852
44,third,74,human,IAT_red3.bmp,red,ending_melody,melody,ending,m,positive,negative,ES_green,1,m,1362,2142884,2143389,2143593
44,third,75,geizig,IAT_red1.bmp,red,ending_melody,melody,ending,c,negative,negative,ES_green,1,c,579,2146032,2146536,2146740
44,third,76,gerecht,IAT_yellow3.bmp,yellow,starting_melody,melody,starting,m,positive,positive,ES_green,1,m,636,2148397,2148901,2149105
44,third,77,teuer,IAT_purple4.bmp,purple,starting_scream,scream,starting,c,negative,negative,ES_green,1,c,1390,2150817,2151321,2151525
44,third,78,lästig,IAT_green3.bmp,green,ending_scream,scream,ending,c,negative,positive,ES_green,0,None,1500,2153991,2154495,2154699
44,third,79,falsch,IAT_green2.bmp,green,ending_scream,scream,ending,c,negative,positive,ES_green,1,c,584,2157774,2158278,2158483
44,third,80,brutal,IAT_yellow2.bmp,yellow,starting_melody,melody,starting,c,negative,positive,ES_green,0,m,778,2160144,2160648,2160852
44,third,81,heiter,IAT_red2.bmp,red,ending_melody,melody,ending,m,positive,negative,ES_green,0,c,1458,2163207,2163711,2163915
44,third,82,falsch,IAT_yellow3.bmp,yellow,starting_melody,melody,starting,c,negative,positive,ES_green,1,c,676,2166950,2167454,2167658
44,third,83,gerecht,IAT_yellow1.bmp,yellow,starting_melody,melody,starting,m,positive,positive,ES_green,1,m,645,2169411,2169915,2170119
44,third,84,krank,IAT_yellow4.bmp,yellow,starting_melody,melody,starting,c,negative,positive,ES_green,1,c,505,2171841,2172345,2172549
44,third,85,ehrlich,IAT_purple1.bmp,purple,starting_scream,scream,starting,m,positive,negative,ES_green,0,c,658,2174130,2174635,2174839
44,third,86,schön,IAT_yellow2.bmp,yellow,starting_melody,melody,starting,m,positive,positive,ES_green,1,m,549,2177072,2177576,2177780
44,third,87,gesund,IAT_green4.bmp,green,ending_scream,scream,ending,m,positive,positive,ES_green,1,m,813,2179406,2179910,2180114
44,third,88,geizig,IAT_red2.bmp,red,ending_melody,melody,ending,c,negative,negative,ES_green,1,c,441,2182003,2182508,2182712
44,third,89,gierig,IAT_purple1.bmp,purple,starting_scream,scream,starting,c,negative,negative,ES_green,1,c,749,2184230,2184734,2184938
44,third,90,teuer,IAT_red4.bmp,red,ending_melody,melody,ending,c,negative,negative,ES_green,0,m,544,2186763,2187267,2187471
44,third,91,lästig,IAT_red2.bmp,red,ending_melody,melody,ending,c,negative,negative,ES_green,1,c,658,2189591,2190096,2190300
44,third,92,einsam,IAT_purple4.bmp,purple,starting_scream,scream,starting,c,negative,negative,ES_green,1,c,622,2192034,2192538,2192742
44,third,93,munter,IAT_red3.bmp,red,ending_melody,melody,ending,m,positive,negative,ES_green,0,c,621,2194440,2194945,2195149
44,third,94,sonnig,IAT_green3.bmp,green,ending_scream,scream,ending,m,positive,positive,ES_green,1,m,489,2197346,2197851,2198055
44,third,95,morsch,IAT_red3.bmp,red,ending_melody,melody,ending,c,negative,negative,ES_green,1,c,543,2199621,2200125,2200329
44,forth,0,gierig,IAT_yellow2.bmp,yellow,starting_melody,melody,starting,c,negative,positive,ES_green,1,c,1016,2230964,2231468,2231672
44,forth,1,kaputt,IAT_purple4.bmp,purple,starting_scream,scream,starting,c,negative,negative,ES_green,1,c,501,2233764,2234268,2234472
44,forth,2,morsch,IAT_purple1.bmp,purple,starting_scream,scream,starting,c,negative,negative,ES_green,1,c,472,2236051,2236555,2236759
44,forth,3,brutal,IAT_green2.bmp,green,ending_scream,scream,ending,c,negative,positive,ES_green,0,m,903,2238305,2238809,2239013
44,forth,4,streng,IAT_purple2.bmp,purple,starting_scream,scream,starting,c,negative,negative,ES_green,1,c,909,2241493,2241997,2242201
44,forth,5,schön,IAT_yellow2.bmp,yellow,starting_melody,melody,starting,m,positive,positive,ES_green,1,m,874,2244185,2244690,2244894
44,forth,6,teuer,IAT_purple2.bmp,purple,starting_scream,scream,starting,c,negative,negative,ES_green,1,c,474,2246845,2247349,2247553
44,forth,7,feige,IAT_yellow4.bmp,yellow,starting_melody,melody,starting,c,negative,positive,ES_green,1,c,517,2249103,2249607,2249811
44,forth,8,lustig,IAT_purple1.bmp,purple,starting_scream,scream,starting,m,positive,negative,ES_green,1,m,587,2251403,2251908,2252112
44,forth,9,krank,IAT_green3.bmp,green,ending_scream,scream,ending,c,negative,positive,ES_green,1,c,483,2253775,2254279,2254483
44,forth,10,gierig,IAT_green1.bmp,green,ending_scream,scream,ending,c,negative,positive,ES_green,0,m,432,2256043,2256547,2256751
44,forth,11,human,IAT_red3.bmp,red,ending_melody,melody,ending,m,positive,negative,ES_green,1,m,550,2258760,2259264,2259468
44,forth,12,brutal,IAT_purple2.bmp,purple,starting_scream,scream,starting,c,negative,negative,ES_green,1,c,595,2261094,2261599,2261803
44,forth,13,falsch,IAT_purple4.bmp,purple,starting_scream,scream,starting,c,negative,negative,ES_green,1,c,961,2263473,2263977,2264181
44,forth,14,streng,IAT_green2.bmp,green,ending_scream,scream,ending,c,negative,positive,ES_green,1,c,607,2266219,2266723,2266927
44,forth,15,ehrlich,IAT_red1.bmp,red,ending_melody,melody,ending,m,positive,negative,ES_green,1,m,1014,2268611,2269115,2269319
44,forth,16,einsam,IAT_red2.bmp,red,ending_melody,melody,ending,c,negative,negative,ES_green,1,c,491,2271409,2271914,2272118
44,forth,17,heiter,IAT_purple1.bmp,purple,starting_scream,scream,starting,m,positive,negative,ES_green,1,m,947,2273684,2274189,2274393
44,forth,18,gesund,IAT_yellow1.bmp,yellow,starting_melody,melody,starting,m,positive,positive,ES_green,1,m,601,2276417,2276922,2277126
44,forth,19,sanft,IAT_green2.bmp,green,ending_scream,scream,ending,m,positive,positive,ES_green,0,c,712,2278803,2279308,2279512
44,forth,20,gerecht,IAT_green4.bmp,green,ending_scream,scream,ending,m,positive,positive,ES_green,1,m,1228,2281800,2282304,2282508
44,forth,21,gesund,IAT_green3.bmp,green,ending_scream,scream,ending,m,positive,positive,ES_green,1,m,1402,2284812,2285316,2285520
44,forth,22,gerecht,IAT_green3.bmp,green,ending_scream,scream,ending,m,positive,positive,ES_green,1,m,1169,2288000,2288504,2288708
44,forth,23,feige,IAT_red4.bmp,red,ending_melody,melody,ending,c,negative,negative,ES_green,1,c,568,2290954,2291458,2291662
44,forth,24,teuer,IAT_purple1.bmp,purple,starting_scream,scream,starting,c,negative,negative,ES_green,0,m,853,2293306,2293810,2294014
44,forth,25,sozial,IAT_red3.bmp,red,ending_melody,melody,ending,m,positive,negative,ES_green,0,c,578,2296442,2296946,2297150
44,forth,26,geizig,IAT_yellow1.bmp,yellow,starting_melody,melody,starting,c,negative,positive,ES_green,1,c,1181,2299304,2299808,2300012
44,forth,27,ehrlich,IAT_red1.bmp,red,ending_melody,melody,ending,m,positive,negative,ES_green,1,m,848,2302270,2302774,2302978
44,forth,28,kaputt,IAT_green4.bmp,green,ending_scream,scream,ending,c,negative,positive,ES_green,1,c,504,2304903,2305407,2305611
44,forth,29,human,IAT_purple3.bmp,purple,starting_scream,scream,starting,m,positive,negative,ES_green,1,m,601,2307191,2307695,2307899
44,forth,30,feige,IAT_yellow2.bmp,yellow,starting_melody,melody,starting,c,negative,positive,ES_green,1,c,480,2309576,2310080,2310284
44,forth,31,gesund,IAT_green1.bmp,green,ending_scream,scream,ending,m,positive,positive,ES_green,1,m,458,2311840,2312344,2312548
44,forth,32,krank,IAT_green2.bmp,green,ending_scream,scream,ending,c,negative,positive,ES_green,1,c,448,2314082,2314586,2314790
44,forth,33,sanft,IAT_yellow3.bmp,yellow,starting_melody,melody,starting,m,positive,positive,ES_green,0,c,429,2316314,2316818,2317022
44,forth,34,kaputt,IAT_purple4.bmp,purple,starting_scream,scream,starting,c,negative,negative,ES_green,1,c,505,2319029,2319533,2319737
44,forth,35,gerecht,IAT_yellow4.bmp,yellow,starting_melody,melody,starting,m,positive,positive,ES_green,1,m,740,2321319,2321823,2322027
44,forth,36,sonnig,IAT_purple4.bmp,purple,starting_scream,scream,starting,m,positive,negative,ES_green,1,m,821,2323843,2324347,2324551
44,forth,37,schön,IAT_green3.bmp,green,ending_scream,scream,ending,m,positive,positive,ES_green,0,c,407,2326449,2326953,2327157
44,forth,38,falsch,IAT_red4.bmp,red,ending_melody,melody,ending,c,negative,negative,ES_green,1,c,477,2329141,2329645,2329849
44,forth,39,human,IAT_yellow3.bmp,yellow,starting_melody,melody,starting,m,positive,positive,ES_green,1,m,502,2331402,2331906,2332110
44,forth,40,lästig,IAT_yellow3.bmp,yellow,starting_melody,melody,starting,c,negative,positive,ES_green,1,c,692,2333689,2334193,2334397
44,forth,41,sanft,IAT_red3.bmp,red,ending_melody,melody,ending,m,positive,negative,ES_green,1,m,773,2336166,2336670,2336874
44,forth,42,krank,IAT_red2.bmp,red,ending_melody,melody,ending,c,negative,negative,ES_green,1,c,599,2338724,2339228,2339432
44,forth,43,heiter,IAT_yellow3.bmp,yellow,starting_melody,melody,starting,m,positive,positive,ES_green,1,m,876,2341107,2341611,2341815
44,forth,44,munter,IAT_green4.bmp,green,ending_scream,scream,ending,m,positive,positive,ES_green,0,c,407,2343768,2344272,2344476
44,forth,45,sozial,IAT_green1.bmp,green,ending_scream,scream,ending,m,positive,positive,ES_green,1,m,531,2346459,2346963,2347167
44,forth,46,morsch,IAT_green4.bmp,green,ending_scream,scream,ending,c,negative,positive,ES_green,1,c,494,2348774,2349278,2349482
44,forth,47,lästig,IAT_yellow4.bmp,yellow,starting_melody,melody,starting,c,negative,positive,ES_green,1,c,1080,2351054,2351558,2351762
44,forth,48,geizig,IAT_yellow4.bmp,yellow,starting_melody,melody,starting,c,negative,positive,ES_green,1,c,787,2353919,2354423,2354627
44,forth,49,streng,IAT_red4.bmp,red,ending_melody,melody,ending,c,negative,negative,ES_green,1,c,531,2356491,2356995,2357199
44,forth,50,sanft,IAT_green1.bmp,green,ending_scream,scream,ending,m,positive,positive,ES_green,1,m,315,2358807,2359311,2359515
44,forth,51,morsch,IAT_purple2.bmp,purple,starting_scream,scream,starting,c,negative,negative,ES_green,1,c,580,2360907,2361411,2361615
44,forth,52,witzig,IAT_yellow1.bmp,yellow,starting_melody,melody,starting,m,positive,positive,ES_green,1,m,492,2363272,2363776,2363980
44,forth,53,einsam,IAT_yellow2.bmp,yellow,starting_melody,melody,starting,c,negative,positive,ES_green,1,c,415,2365549,2366053,2366257
44,forth,54,lustig,IAT_purple4.bmp,purple,starting_scream,scream,starting,m,positive,negative,ES_green,1,m,1188,2367749,2368253,2368457
44,forth,55,gierig,IAT_red4.bmp,red,ending_melody,melody,ending,c,negative,negative,ES_green,1,c,568,2370721,2371226,2371430
44,forth,56,ehrlich,IAT_purple3.bmp,purple,starting_scream,scream,starting,m,positive,negative,ES_green,1,m,660,2373075,2373579,2373783
44,forth,57,streng,IAT_yellow2.bmp,yellow,starting_melody,melody,starting,c,negative,positive,ES_green,1,c,567,2375521,2376025,2376229
44,forth,58,sonnig,IAT_yellow2.bmp,yellow,starting_melody,melody,starting,m,positive,positive,ES_green,1,m,673,2377873,2378377,2378581
44,forth,59,krank,IAT_red2.bmp,red,ending_melody,melody,ending,c,negative,negative,ES_green,1,c,515,2380331,2380835,2381039
44,forth,60,lästig,IAT_red1.bmp,red,ending_melody,melody,ending,c,negative,negative,ES_green,1,c,505,2382631,2383135,2383339
44,forth,61,ehrlich,IAT_red1.bmp,red,ending_melody,melody,ending,m,positive,negative,ES_green,1,m,767,2384921,2385425,2385629
44,forth,62,munter,IAT_purple1.bmp,purple,starting_scream,scream,starting,m,positive,negative,ES_green,0,c,669,2387473,2387977,2388181
44,forth,63,geizig,IAT_red2.bmp,red,ending_melody,melody,ending,c,negative,negative,ES_green,0,m,967,2390426,2390931,2391135
44,forth,64,teuer,IAT_purple3.bmp,purple,starting_scream,scream,starting,c,negative,negative,ES_green,0,None,1500,2393679,2394183,2394387
44,forth,65,sonnig,IAT_yellow4.bmp,yellow,starting_melody,melody,starting,m,positive,positive,ES_green,1,m,684,2397963,2398467,2398671
44,forth,66,geizig,IAT_red1.bmp,red,ending_melody,melody,ending,c,negative,negative,ES_green,1,c,922,2400432,2400936,2401140
44,forth,67,witzig,IAT_red4.bmp,red,ending_melody,melody,ending,m,positive,negative,ES_green,1,m,822,2403139,2403643,2403847
44,forth,68,gierig,IAT_green4.bmp,green,ending_scream,scream,ending,c,negative,positive,ES_green,0,m,854,2405746,2406250,2406454
44,forth,69,heiter,IAT_red4.bmp,red,ending_melody,melody,ending,m,positive,negative,ES_green,1,m,656,2408884,2409388,2409592
44,forth,70,schön,IAT_red2.bmp,red,ending_melody,melody,ending,m,positive,negative,ES_green,1,m,748,2411325,2411829,2412033
44,forth,71,teuer,IAT_red3.bmp,red,ending_melody,melody,ending,c,negative,negative,ES_green,0,m,582,2413858,2414362,2414566
44,forth,72,sozial,IAT_yellow1.bmp,yellow,starting_melody,melody,starting,m,positive,positive,ES_green,1,m,696,2416725,2417229,2417433
44,forth,73,heiter,IAT_red2.bmp,red,ending_melody,melody,ending,m,positive,negative,ES_green,0,c,748,2419206,2419710,2419914
44,forth,74,sonnig,IAT_purple1.bmp,purple,starting_scream,scream,starting,m,positive,negative,ES_green,1,m,489,2422239,2422743,2422947
44,forth,75,kaputt,IAT_green2.bmp,green,ending_scream,scream,ending,c,negative,positive,ES_green,1,c,696,2424516,2425020,2425224
44,forth,76,falsch,IAT_purple4.bmp,purple,starting_scream,scream,starting,c,negative,negative,ES_green,1,c,576,2426997,2427501,2427705
44,forth,77,brutal,IAT_green3.bmp,green,ending_scream,scream,ending,c,negative,positive,ES_green,0,m,462,2429358,2429862,2430066
44,forth,78,witzig,IAT_green2.bmp,green,ending_scream,scream,ending,m,positive,positive,ES_green,1,m,494,2432104,2432609,2432813
44,forth,79,sozial,IAT_purple2.bmp,purple,starting_scream,scream,starting,m,positive,negative,ES_green,0,c,511,2434385,2434889,2435093
44,forth,80,gerecht,IAT_purple3.bmp,purple,starting_scream,scream,starting,m,positive,negative,ES_green,1,m,827,2437180,2437685,2437889
44,forth,81,lästig,IAT_red3.bmp,red,ending_melody,melody,ending,c,negative,negative,ES_green,1,c,743,2439793,2440298,2440502
44,forth,82,falsch,IAT_green1.bmp,green,ending_scream,scream,ending,c,negative,positive,ES_green,1,c,757,2442321,2442826,2443030
44,forth,83,human,IAT_yellow1.bmp,yellow,starting_melody,melody,starting,m,positive,positive,ES_green,1,m,645,2444864,2445369,2445573
44,forth,84,feige,IAT_green4.bmp,green,ending_scream,scream,ending,c,negative,positive,ES_green,1,c,748,2447294,2447799,2448003
44,forth,85,lustig,IAT_green3.bmp,green,ending_scream,scream,ending,m,positive,positive,ES_green,1,m,895,2449828,2450332,2450536
44,forth,86,munter,IAT_purple3.bmp,purple,starting_scream,scream,starting,m,positive,negative,ES_green,0,c,872,2452507,2453011,2453215
44,forth,87,einsam,IAT_purple3.bmp,purple,starting_scream,scream,starting,c,negative,negative,ES_green,1,c,727,2455664,2456168,2456373
44,forth,88,lustig,IAT_green1.bmp,green,ending_scream,scream,ending,m,positive,positive,ES_green,1,m,768,2458176,2458681,2458885
44,forth,89,brutal,IAT_yellow4.bmp,yellow,starting_melody,melody,starting,c,negative,positive,ES_green,1,c,501,2460730,2461235,2461439
44,forth,90,einsam,IAT_yellow3.bmp,yellow,starting_melody,melody,starting,c,negative,positive,ES_green,1,c,685,2463018,2463523,2463727
44,forth,91,morsch,IAT_yellow1.bmp,yellow,starting_melody,melody,starting,c,negative,positive,ES_green,1,c,649,2465489,2465993,2466197
44,forth,92,munter,IAT_yellow3.bmp,yellow,starting_melody,melody,starting,m,positive,positive,ES_green,0,c,675,2467923,2468427,2468631
44,forth,93,schön,IAT_red3.bmp,red,ending_melody,melody,ending,m,positive,negative,ES_green,1,m,713,2470882,2471386,2471590
44,forth,94,witzig,IAT_red1.bmp,red,ending_melody,melody,ending,m,positive,negative,ES_green,0,c,482,2473381,2473885,2474089
44,forth,95,gesund,IAT_purple2.bmp,purple,starting_scream,scream,starting,m,positive,negative,ES_green,1,m,455,2476148,2476652,2476856
