subject_nr,block,trialnr,trial_target,trial_prime,prime_color,prime_role,prime_us,prime_relation,correct_response,target_valence,prime_valence,color_counter,correct_first_response,response_first_response,response_time_first_response,fixation_show,prime_show,target_show
28,first,0,gerecht,IAT_green3.bmp,green,starting_melody,melody,starting,m,positive,positive,ES_purple,0,c,715,1625898,1626402,1626609
28,first,1,schön,IAT_yellow3.bmp,yellow,ending_melody,melody,ending,m,positive,negative,ES_purple,1,m,438,1628903,1629408,1629612
28,first,2,streng,IAT_red4.bmp,red,starting_scream,scream,starting,c,negative,negative,ES_purple,1,c,511,1631126,1631630,1631834
28,first,3,kaputt,IAT_green1.bmp,green,starting_melody,melody,starting,c,negative,positive,ES_purple,0,m,490,1633421,1633925,1634129
28,first,4,brutal,IAT_green1.bmp,green,starting_melody,melody,starting,c,negative,positive,ES_purple,1,c,621,1636194,1636698,1636902
28,first,5,witzig,IAT_red1.bmp,red,starting_scream,scream,starting,m,positive,negative,ES_purple,1,m,565,1638598,1639102,1639306
28,first,6,morsch,IAT_red4.bmp,red,starting_scream,scream,starting,c,negative,negative,ES_purple,1,c,564,1640947,1641451,1641655
28,first,7,sozial,IAT_green1.bmp,green,starting_melody,melody,starting,m,positive,positive,ES_purple,0,c,483,1643294,1643798,1644002
28,first,8,krank,IAT_yellow1.bmp,yellow,ending_melody,melody,ending,c,negative,negative,ES_purple,1,c,821,1646063,1646567,1646771
28,first,9,human,IAT_yellow1.bmp,yellow,ending_melody,melody,ending,m,positive,negative,ES_purple,1,m,542,1648667,1649171,1649375
28,first,10,lästig,IAT_green2.bmp,green,starting_melody,melody,starting,c,negative,positive,ES_purple,1,c,660,1650994,1651498,1651702
28,first,11,munter,IAT_green2.bmp,green,starting_melody,melody,starting,m,positive,positive,ES_purple,1,m,872,1653437,1653941,1654145
28,first,12,heiter,IAT_red4.bmp,red,starting_scream,scream,starting,m,positive,negative,ES_purple,1,m,565,1656092,1656597,1656801
28,first,13,feige,IAT_red2.bmp,red,starting_scream,scream,starting,c,negative,negative,ES_purple,1,c,691,1658442,1658946,1659150
28,first,14,gerecht,IAT_red3.bmp,red,starting_scream,scream,starting,m,positive,negative,ES_purple,1,m,550,1660919,1661423,1661627
28,first,15,sozial,IAT_green1.bmp,green,starting_melody,melody,starting,m,positive,positive,ES_purple,1,m,565,1663252,1663756,1663960
28,first,16,schön,IAT_yellow1.bmp,yellow,ending_melody,melody,ending,m,positive,negative,ES_purple,1,m,467,1665601,1666106,1666310
28,first,17,morsch,IAT_red1.bmp,red,starting_scream,scream,starting,c,negative,negative,ES_purple,1,c,599,1667852,1668357,1668561
28,first,18,lustig,IAT_green4.bmp,green,starting_melody,melody,starting,m,positive,positive,ES_purple,1,m,549,1670235,1670739,1670943
28,first,19,streng,IAT_purple1.bmp,purple,ending_scream,scream,ending,c,negative,positive,ES_purple,1,c,619,1672567,1673072,1673277
28,first,20,sanft,IAT_green1.bmp,green,starting_melody,melody,starting,m,positive,positive,ES_purple,1,m,556,1674971,1675475,1675679
28,first,21,gesund,IAT_red1.bmp,red,starting_scream,scream,starting,m,positive,negative,ES_purple,0,c,379,1677312,1677816,1678020
28,first,22,heiter,IAT_purple3.bmp,purple,ending_scream,scream,ending,m,positive,positive,ES_purple,1,m,775,1679974,1680479,1680683
28,first,23,sozial,IAT_yellow3.bmp,yellow,ending_melody,melody,ending,m,positive,negative,ES_purple,1,m,717,1682534,1683038,1683242
28,first,24,human,IAT_yellow4.bmp,yellow,ending_melody,melody,ending,m,positive,negative,ES_purple,1,m,476,1685035,1685539,1685743
28,first,25,munter,IAT_red3.bmp,red,starting_scream,scream,starting,m,positive,negative,ES_purple,1,m,493,1687295,1687799,1688003
28,first,26,human,IAT_red3.bmp,red,starting_scream,scream,starting,m,positive,negative,ES_purple,0,c,494,1689571,1690076,1690280
28,first,27,munter,IAT_purple2.bmp,purple,ending_scream,scream,ending,m,positive,positive,ES_purple,1,m,524,1692350,1692854,1693058
28,first,28,morsch,IAT_red4.bmp,red,starting_scream,scream,starting,c,negative,negative,ES_purple,1,c,1187,1694657,1695162,1695366
28,first,29,falsch,IAT_purple3.bmp,purple,ending_scream,scream,ending,c,negative,positive,ES_purple,1,c,582,1697629,1698133,1698337
28,first,30,brutal,IAT_yellow4.bmp,yellow,ending_melody,melody,ending,c,negative,negative,ES_purple,1,c,637,1699995,1700499,1700703
28,first,31,ehrlich,IAT_red3.bmp,red,starting_scream,scream,starting,m,positive,negative,ES_purple,1,m,676,1702416,1702920,1703124
28,first,32,munter,IAT_purple2.bmp,purple,ending_scream,scream,ending,m,positive,positive,ES_purple,1,m,1340,1704877,1705381,1705585
28,first,33,lästig,IAT_purple4.bmp,purple,ending_scream,scream,ending,c,negative,positive,ES_purple,1,c,652,1708000,1708504,1708708
28,first,34,geizig,IAT_yellow2.bmp,yellow,ending_melody,melody,ending,c,negative,negative,ES_purple,1,c,810,1710436,1710941,1711145
28,first,35,lästig,IAT_purple3.bmp,purple,ending_scream,scream,ending,c,negative,positive,ES_purple,0,m,597,1713030,1713535,1713739
28,first,36,feige,IAT_purple4.bmp,purple,ending_scream,scream,ending,c,negative,positive,ES_purple,1,c,1212,1715912,1716416,1716620
28,first,37,teuer,IAT_yellow3.bmp,yellow,ending_melody,melody,ending,c,negative,negative,ES_purple,1,c,1154,1718907,1719411,1719615
28,first,38,geizig,IAT_red3.bmp,red,starting_scream,scream,starting,c,negative,negative,ES_purple,1,c,1494,1721846,1722350,1722554
28,first,39,krank,IAT_red2.bmp,red,starting_scream,scream,starting,c,negative,negative,ES_purple,1,c,692,1725135,1725639,1725844
28,first,40,sozial,IAT_yellow3.bmp,yellow,ending_melody,melody,ending,m,positive,negative,ES_purple,1,m,595,1727611,1728115,1728319
28,first,41,einsam,IAT_green4.bmp,green,starting_melody,melody,starting,c,negative,positive,ES_purple,0,m,525,1729990,1730495,1730699
28,first,42,witzig,IAT_yellow1.bmp,yellow,ending_melody,melody,ending,m,positive,negative,ES_purple,1,m,675,1732803,1733307,1733511
28,first,43,heiter,IAT_purple1.bmp,purple,ending_scream,scream,ending,m,positive,positive,ES_purple,1,m,536,1735262,1735766,1735970
28,first,44,krank,IAT_yellow2.bmp,yellow,ending_melody,melody,ending,c,negative,negative,ES_purple,1,c,501,1737583,1738087,1738291
28,first,45,lustig,IAT_green2.bmp,green,starting_melody,melody,starting,m,positive,positive,ES_purple,0,c,793,1739868,1740372,1740576
28,first,46,heiter,IAT_purple1.bmp,purple,ending_scream,scream,ending,m,positive,positive,ES_purple,1,m,587,1742944,1743448,1743652
28,first,47,sonnig,IAT_purple3.bmp,purple,ending_scream,scream,ending,m,positive,positive,ES_purple,1,m,518,1745313,1745817,1746021
28,first,48,schön,IAT_red2.bmp,red,starting_scream,scream,starting,m,positive,negative,ES_purple,1,m,477,1747614,1748118,1748322
28,first,49,feige,IAT_green3.bmp,green,starting_melody,melody,starting,c,negative,positive,ES_purple,1,c,817,1749876,1750380,1750585
28,first,50,human,IAT_yellow2.bmp,yellow,ending_melody,melody,ending,m,positive,negative,ES_purple,1,m,720,1752477,1752981,1753185
28,first,51,krank,IAT_red1.bmp,red,starting_scream,scream,starting,c,negative,negative,ES_purple,1,c,946,1754981,1755485,1755689
28,first,52,teuer,IAT_green2.bmp,green,starting_melody,melody,starting,c,negative,positive,ES_purple,1,c,1105,1757710,1758215,1758419
28,first,53,sonnig,IAT_green3.bmp,green,starting_melody,melody,starting,m,positive,positive,ES_purple,1,m,545,1760600,1761104,1761308
28,first,54,gerecht,IAT_red1.bmp,red,starting_scream,scream,starting,m,positive,negative,ES_purple,1,m,820,1762928,1763432,1763636
28,first,55,falsch,IAT_yellow3.bmp,yellow,ending_melody,melody,ending,c,negative,negative,ES_purple,1,c,660,1765531,1766036,1766240
28,first,56,gierig,IAT_red4.bmp,red,starting_scream,scream,starting,c,negative,negative,ES_purple,1,c,614,1767977,1768481,1768685
28,first,57,lustig,IAT_purple4.bmp,purple,ending_scream,scream,ending,m,positive,positive,ES_purple,1,m,562,1770374,1770878,1771082
28,first,58,kaputt,IAT_yellow2.bmp,yellow,ending_melody,melody,ending,c,negative,negative,ES_purple,1,c,682,1772720,1773225,1773429
28,first,59,sanft,IAT_red4.bmp,red,starting_scream,scream,starting,m,positive,negative,ES_purple,1,m,587,1775186,1775690,1775894
28,first,60,geizig,IAT_purple4.bmp,purple,ending_scream,scream,ending,c,negative,positive,ES_purple,1,c,579,1777556,1778060,1778264
28,first,61,streng,IAT_yellow4.bmp,yellow,ending_melody,melody,ending,c,negative,negative,ES_purple,1,c,1244,1779917,1780422,1780626
28,first,62,schön,IAT_green1.bmp,green,starting_melody,melody,starting,m,positive,positive,ES_purple,1,m,615,1782945,1783450,1783654
28,first,63,falsch,IAT_yellow4.bmp,yellow,ending_melody,melody,ending,c,negative,negative,ES_purple,1,c,1235,1785344,1785848,1786052
28,first,64,gierig,IAT_purple4.bmp,purple,ending_scream,scream,ending,c,negative,positive,ES_purple,0,m,1330,1788362,1788867,1789071
28,first,65,lästig,IAT_purple2.bmp,purple,ending_scream,scream,ending,c,negative,positive,ES_purple,1,c,721,1791976,1792480,1792684
28,first,66,ehrlich,IAT_red1.bmp,red,starting_scream,scream,starting,m,positive,negative,ES_purple,0,None,1500,1794481,1794986,1795190
28,first,67,gesund,IAT_purple1.bmp,purple,ending_scream,scream,ending,m,positive,positive,ES_purple,1,m,684,1798264,1798768,1798972
28,first,68,einsam,IAT_red2.bmp,red,starting_scream,scream,starting,c,negative,negative,ES_purple,1,c,680,1800731,1801236,1801440
28,first,69,geizig,IAT_green3.bmp,green,starting_melody,melody,starting,c,negative,positive,ES_purple,1,c,901,1803196,1803701,1803905
28,first,70,teuer,IAT_green2.bmp,green,starting_melody,melody,starting,c,negative,positive,ES_purple,0,m,653,1805881,1806385,1806589
28,first,71,brutal,IAT_red3.bmp,red,starting_scream,scream,starting,c,negative,negative,ES_purple,1,c,559,1808817,1809321,1809525
28,first,72,kaputt,IAT_yellow4.bmp,yellow,ending_melody,melody,ending,c,negative,negative,ES_purple,1,c,645,1811160,1811664,1811868
28,first,73,lustig,IAT_purple3.bmp,purple,ending_scream,scream,ending,m,positive,positive,ES_purple,1,m,799,1813589,1814093,1814297
28,first,74,sonnig,IAT_yellow2.bmp,yellow,ending_melody,melody,ending,m,positive,negative,ES_purple,1,m,491,1816171,1816676,1816880
28,first,75,falsch,IAT_green4.bmp,green,starting_melody,melody,starting,c,negative,positive,ES_purple,0,None,1500,1818446,1818950,1819155
28,first,76,witzig,IAT_green3.bmp,green,starting_melody,melody,starting,m,positive,positive,ES_purple,1,m,612,1822230,1822734,1822938
28,first,77,gerecht,IAT_yellow1.bmp,yellow,ending_melody,melody,ending,m,positive,negative,ES_purple,0,c,594,1824626,1825130,1825334
28,first,78,einsam,IAT_purple2.bmp,purple,ending_scream,scream,ending,c,negative,positive,ES_purple,1,c,603,1827503,1828007,1828211
28,first,79,gierig,IAT_purple1.bmp,purple,ending_scream,scream,ending,c,negative,positive,ES_purple,1,c,479,1829891,1830395,1830599
28,first,80,gesund,IAT_purple1.bmp,purple,ending_scream,scream,ending,m,positive,positive,ES_purple,1,m,671,1832154,1832658,1832862
28,first,81,kaputt,IAT_green4.bmp,green,starting_melody,melody,starting,c,negative,positive,ES_purple,1,c,606,1834609,1835114,1835318
28,first,82,witzig,IAT_green3.bmp,green,starting_melody,melody,starting,m,positive,positive,ES_purple,1,m,1193,1836999,1837503,1837707
28,first,83,gierig,IAT_green4.bmp,green,starting_melody,melody,starting,c,negative,positive,ES_purple,1,c,573,1839976,1840480,1840685
28,first,84,gesund,IAT_yellow3.bmp,yellow,ending_melody,melody,ending,m,positive,negative,ES_purple,1,m,595,1842333,1842837,1843041
28,first,85,sanft,IAT_purple4.bmp,purple,ending_scream,scream,ending,m,positive,positive,ES_purple,1,m,538,1844712,1845216,1845420
28,first,86,ehrlich,IAT_purple3.bmp,purple,ending_scream,scream,ending,m,positive,positive,ES_purple,1,m,626,1847033,1847537,1847741
28,first,87,sanft,IAT_green4.bmp,green,starting_melody,melody,starting,m,positive,positive,ES_purple,1,m,516,1849442,1849947,1850151
28,first,88,sonnig,IAT_red2.bmp,red,starting_scream,scream,starting,m,positive,negative,ES_purple,1,m,537,1851742,1852247,1852451
28,first,89,ehrlich,IAT_yellow4.bmp,yellow,ending_melody,melody,ending,m,positive,negative,ES_purple,1,m,600,1854063,1854567,1854771
28,first,90,morsch,IAT_yellow1.bmp,yellow,ending_melody,melody,ending,c,negative,negative,ES_purple,1,c,610,1856449,1856953,1857157
28,first,91,einsam,IAT_purple2.bmp,purple,ending_scream,scream,ending,c,negative,positive,ES_purple,1,c,402,1858843,1859347,1859551
28,first,92,brutal,IAT_purple2.bmp,purple,ending_scream,scream,ending,c,negative,positive,ES_purple,1,c,581,1861028,1861533,1861737
28,first,93,feige,IAT_yellow2.bmp,yellow,ending_melody,melody,ending,c,negative,negative,ES_purple,0,m,723,1863393,1863898,1864102
28,first,94,teuer,IAT_red2.bmp,red,starting_scream,scream,starting,c,negative,negative,ES_purple,1,c,1309,1866401,1866905,1867109
28,first,95,streng,IAT_green2.bmp,green,starting_melody,melody,starting,c,negative,positive,ES_purple,1,c,511,1869495,1869999,1870204
28,second,0,teuer,IAT_purple4.bmp,purple,ending_scream,scream,ending,c,negative,positive,ES_purple,0,None,1500,1893949,1894453,1894657
28,second,1,gesund,IAT_red3.bmp,red,starting_scream,scream,starting,m,positive,negative,ES_purple,1,m,538,1897733,1898237,1898441
28,second,2,munter,IAT_red4.bmp,red,starting_scream,scream,starting,m,positive,negative,ES_purple,1,m,863,1900053,1900557,1900761
28,second,3,gierig,IAT_green1.bmp,green,starting_melody,melody,starting,c,negative,positive,ES_purple,1,c,500,1902699,1903204,1903408
28,second,4,ehrlich,IAT_yellow3.bmp,yellow,ending_melody,melody,ending,m,positive,negative,ES_purple,1,m,975,1904982,1905486,1905690
28,second,5,brutal,IAT_red2.bmp,red,starting_scream,scream,starting,c,negative,negative,ES_purple,1,c,539,1907740,1908245,1908449
28,second,6,krank,IAT_purple4.bmp,purple,ending_scream,scream,ending,c,negative,positive,ES_purple,1,c,461,1910061,1910566,1910770
28,second,7,lästig,IAT_yellow4.bmp,yellow,ending_melody,melody,ending,c,negative,negative,ES_purple,1,c,589,1912305,1912809,1913013
28,second,8,feige,IAT_yellow2.bmp,yellow,ending_melody,melody,ending,c,negative,negative,ES_purple,1,c,524,1914676,1915180,1915384
28,second,9,sanft,IAT_purple1.bmp,purple,ending_scream,scream,ending,m,positive,positive,ES_purple,1,m,518,1916982,1917486,1917690
28,second,10,lustig,IAT_purple3.bmp,purple,ending_scream,scream,ending,m,positive,positive,ES_purple,1,m,657,1919282,1919786,1919990
28,second,11,gesund,IAT_purple4.bmp,purple,ending_scream,scream,ending,m,positive,positive,ES_purple,1,m,539,1921720,1922224,1922428
28,second,12,ehrlich,IAT_purple2.bmp,purple,ending_scream,scream,ending,m,positive,positive,ES_purple,1,m,618,1924042,1924546,1924750
28,second,13,geizig,IAT_green4.bmp,green,starting_melody,melody,starting,c,negative,positive,ES_purple,1,c,627,1926442,1926946,1927150
28,second,14,teuer,IAT_green2.bmp,green,starting_melody,melody,starting,c,negative,positive,ES_purple,1,c,989,1928851,1929355,1929559
28,second,15,sonnig,IAT_red3.bmp,red,starting_scream,scream,starting,m,positive,negative,ES_purple,1,m,538,1931622,1932127,1932331
28,second,16,gierig,IAT_purple2.bmp,purple,ending_scream,scream,ending,c,negative,positive,ES_purple,1,c,558,1933943,1934447,1934651
28,second,17,brutal,IAT_red1.bmp,red,starting_scream,scream,starting,c,negative,negative,ES_purple,1,c,589,1936283,1936787,1936991
28,second,18,teuer,IAT_yellow3.bmp,yellow,ending_melody,melody,ending,c,negative,negative,ES_purple,1,c,411,1938653,1939157,1939361
28,second,19,kaputt,IAT_red2.bmp,red,starting_scream,scream,starting,c,negative,negative,ES_purple,1,c,552,1940846,1941350,1941555
28,second,20,schön,IAT_green1.bmp,green,starting_melody,melody,starting,m,positive,positive,ES_purple,0,c,481,1943180,1943684,1943888
28,second,21,heiter,IAT_yellow1.bmp,yellow,ending_melody,melody,ending,m,positive,negative,ES_purple,1,m,589,1945944,1946448,1946652
28,second,22,feige,IAT_purple3.bmp,purple,ending_scream,scream,ending,c,negative,positive,ES_purple,1,c,667,1948313,1948817,1949021
28,second,23,falsch,IAT_red2.bmp,red,starting_scream,scream,starting,c,negative,negative,ES_purple,1,c,1018,1950762,1951266,1951470
28,second,24,lästig,IAT_yellow1.bmp,yellow,ending_melody,melody,ending,c,negative,negative,ES_purple,0,m,517,1953562,1954067,1954271
28,second,25,witzig,IAT_red1.bmp,red,starting_scream,scream,starting,m,positive,negative,ES_purple,1,m,1137,1956362,1956866,1957070
28,second,26,brutal,IAT_yellow4.bmp,yellow,ending_melody,melody,ending,c,negative,negative,ES_purple,1,c,574,1959281,1959786,1959990
28,second,27,streng,IAT_purple2.bmp,purple,ending_scream,scream,ending,c,negative,positive,ES_purple,1,c,748,1961639,1962143,1962347
28,second,28,einsam,IAT_green2.bmp,green,starting_melody,melody,starting,c,negative,positive,ES_purple,0,m,588,1964169,1964673,1964877
28,second,29,streng,IAT_purple2.bmp,purple,ending_scream,scream,ending,c,negative,positive,ES_purple,1,c,649,1967039,1967543,1967747
28,second,30,falsch,IAT_red4.bmp,red,starting_scream,scream,starting,c,negative,negative,ES_purple,1,c,1057,1969470,1969975,1970179
28,second,31,heiter,IAT_purple1.bmp,purple,ending_scream,scream,ending,m,positive,positive,ES_purple,1,m,600,1972311,1972815,1973019
28,second,32,morsch,IAT_green3.bmp,green,starting_melody,melody,starting,c,negative,positive,ES_purple,1,c,785,1974693,1975197,1975401
28,second,33,schön,IAT_yellow4.bmp,yellow,ending_melody,melody,ending,m,positive,negative,ES_purple,1,m,681,1977260,1977765,1977969
28,second,34,gerecht,IAT_red3.bmp,red,starting_scream,scream,starting,m,positive,negative,ES_purple,1,m,791,1979724,1980228,1980432
28,second,35,human,IAT_yellow1.bmp,yellow,ending_melody,melody,ending,m,positive,negative,ES_purple,1,m,672,1982297,1982801,1983005
28,second,36,sozial,IAT_purple1.bmp,purple,ending_scream,scream,ending,m,positive,positive,ES_purple,1,m,667,1984752,1985256,1985460
28,second,37,schön,IAT_purple4.bmp,purple,ending_scream,scream,ending,m,positive,positive,ES_purple,1,m,490,1987201,1987705,1987909
28,second,38,witzig,IAT_purple3.bmp,purple,ending_scream,scream,ending,m,positive,positive,ES_purple,1,m,621,1989473,1989977,1990181
28,second,39,gerecht,IAT_yellow1.bmp,yellow,ending_melody,melody,ending,m,positive,negative,ES_purple,1,m,670,1991877,1992381,1992585
28,second,40,sanft,IAT_green1.bmp,green,starting_melody,melody,starting,m,positive,positive,ES_purple,1,m,555,1994328,1994832,1995036
28,second,41,geizig,IAT_purple4.bmp,purple,ending_scream,scream,ending,c,negative,positive,ES_purple,0,m,665,1996665,1997169,1997373
28,second,42,gerecht,IAT_yellow2.bmp,yellow,ending_melody,melody,ending,m,positive,negative,ES_purple,1,m,653,1999612,2000117,2000321
28,second,43,lästig,IAT_red4.bmp,red,starting_scream,scream,starting,c,negative,negative,ES_purple,0,m,522,2002048,2002552,2002756
28,second,44,sanft,IAT_yellow2.bmp,yellow,ending_melody,melody,ending,m,positive,negative,ES_purple,1,m,1190,2004852,2005356,2005560
28,second,45,sozial,IAT_purple3.bmp,purple,ending_scream,scream,ending,m,positive,positive,ES_purple,1,m,538,2007823,2008328,2008532
28,second,46,brutal,IAT_yellow2.bmp,yellow,ending_melody,melody,ending,c,negative,negative,ES_purple,1,c,610,2010144,2010648,2010852
28,second,47,sonnig,IAT_red1.bmp,red,starting_scream,scream,starting,m,positive,negative,ES_purple,1,m,502,2012536,2013040,2013244
28,second,48,munter,IAT_green2.bmp,green,starting_melody,melody,starting,m,positive,positive,ES_purple,1,m,853,2014821,2015325,2015529
28,second,49,schön,IAT_green4.bmp,green,starting_melody,melody,starting,m,positive,positive,ES_purple,1,m,485,2017456,2017960,2018164
28,second,50,munter,IAT_green3.bmp,green,starting_melody,melody,starting,m,positive,positive,ES_purple,1,m,705,2019723,2020227,2020431
28,second,51,lustig,IAT_red1.bmp,red,starting_scream,scream,starting,m,positive,negative,ES_purple,1,m,876,2022211,2022715,2022919
28,second,52,feige,IAT_red4.bmp,red,starting_scream,scream,starting,c,negative,negative,ES_purple,1,c,668,2024870,2025375,2025579
28,second,53,sonnig,IAT_yellow1.bmp,yellow,ending_melody,melody,ending,m,positive,negative,ES_purple,1,m,604,2027321,2027826,2028030
28,second,54,lästig,IAT_yellow3.bmp,yellow,ending_melody,melody,ending,c,negative,negative,ES_purple,1,c,1053,2029709,2030213,2030417
28,second,55,feige,IAT_red4.bmp,red,starting_scream,scream,starting,c,negative,negative,ES_purple,1,c,517,2032544,2033048,2033252
28,second,56,gierig,IAT_green4.bmp,green,starting_melody,melody,starting,c,negative,positive,ES_purple,1,c,755,2034843,2035347,2035551
28,second,57,sanft,IAT_green4.bmp,green,starting_melody,melody,starting,m,positive,positive,ES_purple,1,m,539,2037381,2037885,2038089
28,second,58,ehrlich,IAT_yellow3.bmp,yellow,ending_melody,melody,ending,m,positive,negative,ES_purple,1,m,588,2039703,2040207,2040411
28,second,59,heiter,IAT_green1.bmp,green,starting_melody,melody,starting,m,positive,positive,ES_purple,1,m,442,2042072,2042577,2042781
28,second,60,streng,IAT_yellow4.bmp,yellow,ending_melody,melody,ending,c,negative,negative,ES_purple,1,c,694,2044297,2044802,2045006
28,second,61,ehrlich,IAT_red4.bmp,red,starting_scream,scream,starting,m,positive,negative,ES_purple,1,m,1129,2046774,2047278,2047482
28,second,62,krank,IAT_purple2.bmp,purple,ending_scream,scream,ending,c,negative,positive,ES_purple,1,c,808,2049685,2050189,2050393
28,second,63,gerecht,IAT_purple2.bmp,purple,ending_scream,scream,ending,m,positive,positive,ES_purple,1,m,710,2052275,2052779,2052983
28,second,64,falsch,IAT_green3.bmp,green,starting_melody,melody,starting,c,negative,positive,ES_purple,0,m,629,2054768,2055273,2055477
28,second,65,human,IAT_green1.bmp,green,starting_melody,melody,starting,m,positive,positive,ES_purple,1,m,1094,2057680,2058185,2058389
28,second,66,morsch,IAT_red3.bmp,red,starting_scream,scream,starting,c,negative,negative,ES_purple,1,c,729,2060557,2061062,2061266
28,second,67,falsch,IAT_purple1.bmp,purple,ending_scream,scream,ending,c,negative,positive,ES_purple,1,c,521,2063071,2063575,2063779
28,second,68,einsam,IAT_green4.bmp,green,starting_melody,melody,starting,c,negative,positive,ES_purple,1,c,673,2065373,2065878,2066082
28,second,69,witzig,IAT_yellow3.bmp,yellow,ending_melody,melody,ending,m,positive,negative,ES_purple,1,m,692,2067830,2068335,2068539
28,second,70,heiter,IAT_red2.bmp,red,starting_scream,scream,starting,m,positive,negative,ES_purple,1,m,605,2070306,2070810,2071014
28,second,71,geizig,IAT_yellow1.bmp,yellow,ending_melody,melody,ending,c,negative,negative,ES_purple,1,c,663,2072693,2073197,2073401
28,second,72,human,IAT_yellow3.bmp,yellow,ending_melody,melody,ending,m,positive,negative,ES_purple,1,m,689,2075140,2075644,2075848
28,second,73,morsch,IAT_yellow2.bmp,yellow,ending_melody,melody,ending,c,negative,negative,ES_purple,1,c,695,2077612,2078116,2078320
28,second,74,gesund,IAT_red3.bmp,red,starting_scream,scream,starting,m,positive,negative,ES_purple,1,m,738,2080089,2080594,2080798
28,second,75,witzig,IAT_green2.bmp,green,starting_melody,melody,starting,m,positive,positive,ES_purple,1,m,797,2082610,2083115,2083319
28,second,76,krank,IAT_green2.bmp,green,starting_melody,melody,starting,c,negative,positive,ES_purple,1,c,1049,2085190,2085694,2085898
28,second,77,sonnig,IAT_green3.bmp,green,starting_melody,melody,starting,m,positive,positive,ES_purple,1,m,583,2088022,2088526,2088730
28,second,78,munter,IAT_yellow4.bmp,yellow,ending_melody,melody,ending,m,positive,negative,ES_purple,1,m,1488,2090387,2090891,2091095
28,second,79,kaputt,IAT_yellow2.bmp,yellow,ending_melody,melody,ending,c,negative,negative,ES_purple,0,None,1500,2093658,2094162,2094366
28,second,80,teuer,IAT_green2.bmp,green,starting_melody,melody,starting,c,negative,positive,ES_purple,0,m,1044,2097440,2097944,2098148
28,second,81,human,IAT_green3.bmp,green,starting_melody,melody,starting,m,positive,positive,ES_purple,1,m,656,2100766,2101270,2101474
28,second,82,lustig,IAT_red2.bmp,red,starting_scream,scream,starting,m,positive,negative,ES_purple,1,m,1479,2103203,2103708,2103912
28,second,83,streng,IAT_red2.bmp,red,starting_scream,scream,starting,c,negative,negative,ES_purple,1,c,1011,2106466,2106970,2107174
28,second,84,sozial,IAT_green3.bmp,green,starting_melody,melody,starting,m,positive,positive,ES_purple,1,m,1055,2109260,2109765,2109969
28,second,85,kaputt,IAT_red3.bmp,red,starting_scream,scream,starting,c,negative,negative,ES_purple,1,c,712,2112098,2112602,2112806
28,second,86,einsam,IAT_red1.bmp,red,starting_scream,scream,starting,c,negative,negative,ES_purple,1,c,722,2114592,2115096,2115300
28,second,87,gierig,IAT_purple3.bmp,purple,ending_scream,scream,ending,c,negative,positive,ES_purple,1,c,1032,2117097,2117601,2117805
28,second,88,krank,IAT_green4.bmp,green,starting_melody,melody,starting,c,negative,positive,ES_purple,1,c,741,2119911,2120415,2120619
28,second,89,morsch,IAT_green1.bmp,green,starting_melody,melody,starting,c,negative,positive,ES_purple,1,c,576,2122435,2122939,2123143
28,second,90,kaputt,IAT_yellow4.bmp,yellow,ending_melody,melody,ending,c,negative,negative,ES_purple,0,None,1500,2124794,2125298,2125502
28,second,91,einsam,IAT_purple4.bmp,purple,ending_scream,scream,ending,c,negative,positive,ES_purple,1,c,583,2128576,2129080,2129284
28,second,92,lustig,IAT_purple1.bmp,purple,ending_scream,scream,ending,m,positive,positive,ES_purple,1,m,1119,2130942,2131446,2131650
28,second,93,geizig,IAT_purple1.bmp,purple,ending_scream,scream,ending,c,negative,positive,ES_purple,1,c,692,2133843,2134347,2134551
28,second,94,gesund,IAT_purple3.bmp,purple,ending_scream,scream,ending,m,positive,positive,ES_purple,1,m,855,2136316,2136821,2137025
28,second,95,sozial,IAT_red1.bmp,red,starting_scream,scream,starting,m,positive,negative,ES_purple,1,m,805,2138955,2139459,2139663
28,third,0,gesund,IAT_purple4.bmp,purple,ending_scream,scream,ending,m,positive,positive,ES_purple,1,m,839,2152363,2152867,2153071
28,third,1,witzig,IAT_red3.bmp,red,starting_scream,scream,starting,m,positive,negative,ES_purple,1,m,738,2154985,2155489,2155693
28,third,2,morsch,IAT_red4.bmp,red,starting_scream,scream,starting,c,negative,negative,ES_purple,1,c,733,2157503,2158008,2158212
28,third,3,teuer,IAT_green1.bmp,green,starting_melody,melody,starting,c,negative,positive,ES_purple,0,None,1500,2160018,2160523,2160727
28,third,4,kaputt,IAT_purple4.bmp,purple,ending_scream,scream,ending,c,negative,positive,ES_purple,1,c,530,2163802,2164306,2164510
28,third,5,falsch,IAT_red1.bmp,red,starting_scream,scream,starting,c,negative,negative,ES_purple,1,c,416,2166114,2166618,2166822
28,third,6,munter,IAT_green3.bmp,green,starting_melody,melody,starting,m,positive,positive,ES_purple,1,m,1143,2168312,2168816,2169020
28,third,7,brutal,IAT_yellow4.bmp,yellow,ending_melody,melody,ending,c,negative,negative,ES_purple,1,c,577,2171239,2171743,2171947
28,third,8,lästig,IAT_green1.bmp,green,starting_melody,melody,starting,c,negative,positive,ES_purple,0,m,645,2173597,2174102,2174306
28,third,9,streng,IAT_red1.bmp,red,starting_scream,scream,starting,c,negative,negative,ES_purple,1,c,615,2176524,2177028,2177232
28,third,10,gerecht,IAT_yellow1.bmp,yellow,ending_melody,melody,ending,m,positive,negative,ES_purple,1,m,1066,2178922,2179426,2179630
28,third,11,teuer,IAT_yellow4.bmp,yellow,ending_melody,melody,ending,c,negative,negative,ES_purple,1,c,561,2181771,2182275,2182479
28,third,12,gierig,IAT_red3.bmp,red,starting_scream,scream,starting,c,negative,negative,ES_purple,1,c,741,2184116,2184620,2184824
28,third,13,streng,IAT_green2.bmp,green,starting_melody,melody,starting,c,negative,positive,ES_purple,1,c,518,2186638,2187143,2187347
28,third,14,human,IAT_yellow1.bmp,yellow,ending_melody,melody,ending,m,positive,negative,ES_purple,1,m,1297,2188939,2189444,2189648
28,third,15,sanft,IAT_red1.bmp,red,starting_scream,scream,starting,m,positive,negative,ES_purple,0,None,1500,2192019,2192524,2192728
28,third,16,kaputt,IAT_yellow1.bmp,yellow,ending_melody,melody,ending,c,negative,negative,ES_purple,1,c,847,2195802,2196306,2196510
28,third,17,streng,IAT_yellow3.bmp,yellow,ending_melody,melody,ending,c,negative,negative,ES_purple,1,c,495,2198431,2198935,2199139
28,third,18,sonnig,IAT_red1.bmp,red,starting_scream,scream,starting,m,positive,negative,ES_purple,1,m,461,2200710,2201214,2201418
28,third,19,schön,IAT_yellow4.bmp,yellow,ending_melody,melody,ending,m,positive,negative,ES_purple,1,m,504,2202953,2203457,2203661
28,third,20,geizig,IAT_red4.bmp,red,starting_scream,scream,starting,c,negative,negative,ES_purple,1,c,615,2205239,2205743,2205947
28,third,21,munter,IAT_purple2.bmp,purple,ending_scream,scream,ending,m,positive,positive,ES_purple,0,c,533,2207636,2208141,2208345
28,third,22,sozial,IAT_red2.bmp,red,starting_scream,scream,starting,m,positive,negative,ES_purple,1,m,1105,2210452,2210956,2211160
28,third,23,falsch,IAT_purple4.bmp,purple,ending_scream,scream,ending,c,negative,positive,ES_purple,1,c,752,2213338,2213843,2214047
28,third,24,schön,IAT_green1.bmp,green,starting_melody,melody,starting,m,positive,positive,ES_purple,1,m,670,2215873,2216377,2216581
28,third,25,gierig,IAT_yellow2.bmp,yellow,ending_melody,melody,ending,c,negative,negative,ES_purple,1,c,725,2218325,2218829,2219034
28,third,26,feige,IAT_purple4.bmp,purple,ending_scream,scream,ending,c,negative,positive,ES_purple,1,c,684,2220833,2221337,2221541
28,third,27,gierig,IAT_purple4.bmp,purple,ending_scream,scream,ending,c,negative,positive,ES_purple,1,c,475,2223299,2223803,2224007
28,third,28,gerecht,IAT_yellow3.bmp,yellow,ending_melody,melody,ending,m,positive,negative,ES_purple,1,m,682,2225556,2226060,2226264
28,third,29,falsch,IAT_green3.bmp,green,starting_melody,melody,starting,c,negative,positive,ES_purple,0,None,1500,2228020,2228525,2228729
28,third,30,munter,IAT_purple1.bmp,purple,ending_scream,scream,ending,m,positive,positive,ES_purple,0,c,716,2231803,2232307,2232511
28,third,31,heiter,IAT_green1.bmp,green,starting_melody,melody,starting,m,positive,positive,ES_purple,1,m,521,2234801,2235306,2235510
28,third,32,lustig,IAT_green1.bmp,green,starting_melody,melody,starting,m,positive,positive,ES_purple,1,m,535,2237104,2237609,2237814
28,third,33,human,IAT_yellow1.bmp,yellow,ending_melody,melody,ending,m,positive,negative,ES_purple,1,m,494,2239423,2239928,2240132
28,third,34,sonnig,IAT_red1.bmp,red,starting_scream,scream,starting,m,positive,negative,ES_purple,1,m,506,2241701,2242205,2242409
28,third,35,feige,IAT_green2.bmp,green,starting_melody,melody,starting,c,negative,positive,ES_purple,1,c,618,2243988,2244493,2244697
28,third,36,einsam,IAT_purple2.bmp,purple,ending_scream,scream,ending,c,negative,positive,ES_purple,1,c,593,2246389,2246894,2247098
28,third,37,streng,IAT_green4.bmp,green,starting_melody,melody,starting,c,negative,positive,ES_purple,1,c,528,2248765,2249269,2249473
28,third,38,ehrlich,IAT_green4.bmp,green,starting_melody,melody,starting,m,positive,positive,ES_purple,1,m,789,2251075,2251580,2251784
28,third,39,sonnig,IAT_red3.bmp,red,starting_scream,scream,starting,m,positive,negative,ES_purple,1,m,615,2253647,2254152,2254356
28,third,40,kaputt,IAT_green4.bmp,green,starting_melody,melody,starting,c,negative,positive,ES_purple,1,c,599,2256046,2256550,2256755
28,third,41,witzig,IAT_red2.bmp,red,starting_scream,scream,starting,m,positive,negative,ES_purple,0,c,602,2258428,2258932,2259136
28,third,42,munter,IAT_green3.bmp,green,starting_melody,melody,starting,m,positive,positive,ES_purple,1,m,984,2261313,2261817,2262021
28,third,43,krank,IAT_yellow2.bmp,yellow,ending_melody,melody,ending,c,negative,negative,ES_purple,0,m,861,2264081,2264585,2264789
28,third,44,sozial,IAT_green2.bmp,green,starting_melody,melody,starting,m,positive,positive,ES_purple,1,m,822,2267224,2267729,2267933
28,third,45,kaputt,IAT_red2.bmp,red,starting_scream,scream,starting,c,negative,negative,ES_purple,1,c,1449,2269830,2270334,2270538
28,third,46,witzig,IAT_green1.bmp,green,starting_melody,melody,starting,m,positive,positive,ES_purple,1,m,599,2273062,2273566,2273770
28,third,47,gesund,IAT_red4.bmp,red,starting_scream,scream,starting,m,positive,negative,ES_purple,0,None,1500,2275444,2275948,2276152
28,third,48,morsch,IAT_green2.bmp,green,starting_melody,melody,starting,c,negative,positive,ES_purple,1,c,636,2279227,2279731,2279935
28,third,49,sozial,IAT_yellow3.bmp,yellow,ending_melody,melody,ending,m,positive,negative,ES_purple,1,m,615,2281646,2282150,2282354
28,third,50,gierig,IAT_red3.bmp,red,starting_scream,scream,starting,c,negative,negative,ES_purple,1,c,494,2284043,2284547,2284751
28,third,51,einsam,IAT_green2.bmp,green,starting_melody,melody,starting,c,negative,positive,ES_purple,1,c,1150,2286320,2286824,2287028
28,third,52,heiter,IAT_purple1.bmp,purple,ending_scream,scream,ending,m,positive,positive,ES_purple,1,m,569,2289252,2289756,2289960
28,third,53,lästig,IAT_yellow3.bmp,yellow,ending_melody,melody,ending,c,negative,negative,ES_purple,0,m,876,2291604,2292108,2292312
28,third,54,gerecht,IAT_green4.bmp,green,starting_melody,melody,starting,m,positive,positive,ES_purple,1,m,764,2294762,2295266,2295470
28,third,55,brutal,IAT_purple2.bmp,purple,ending_scream,scream,ending,c,negative,positive,ES_purple,1,c,661,2297309,2297814,2298018
28,third,56,heiter,IAT_green3.bmp,green,starting_melody,melody,starting,m,positive,positive,ES_purple,0,c,549,2299754,2300259,2300463
28,third,57,lästig,IAT_green3.bmp,green,starting_melody,melody,starting,c,negative,positive,ES_purple,1,c,919,2302586,2303090,2303294
28,third,58,human,IAT_purple1.bmp,purple,ending_scream,scream,ending,m,positive,positive,ES_purple,1,m,630,2305288,2305792,2305996
28,third,59,krank,IAT_purple3.bmp,purple,ending_scream,scream,ending,c,negative,positive,ES_purple,1,c,1414,2307700,2308204,2308408
28,third,60,lustig,IAT_red4.bmp,red,starting_scream,scream,starting,m,positive,negative,ES_purple,1,m,623,2310897,2311401,2311605
28,third,61,lästig,IAT_purple3.bmp,purple,ending_scream,scream,ending,c,negative,positive,ES_purple,0,None,1500,2313303,2313807,2314011
28,third,62,geizig,IAT_green4.bmp,green,starting_melody,melody,starting,c,negative,positive,ES_purple,1,c,1145,2317085,2317590,2317794
28,third,63,schön,IAT_yellow2.bmp,yellow,ending_melody,melody,ending,m,positive,negative,ES_purple,1,m,1227,2320014,2320518,2320722
28,third,64,ehrlich,IAT_purple3.bmp,purple,ending_scream,scream,ending,m,positive,positive,ES_purple,0,None,1500,2323023,2323527,2323731
28,third,65,sanft,IAT_purple1.bmp,purple,ending_scream,scream,ending,m,positive,positive,ES_purple,1,m,1422,2326806,2327311,2327515
28,third,66,gesund,IAT_purple2.bmp,purple,ending_scream,scream,ending,m,positive,positive,ES_purple,1,m,562,2330012,2330516,2330720
28,third,67,feige,IAT_red2.bmp,red,starting_scream,scream,starting,c,negative,negative,ES_purple,1,c,617,2332359,2332863,2333067
28,third,68,morsch,IAT_yellow4.bmp,yellow,ending_melody,melody,ending,c,negative,negative,ES_purple,0,None,1500,2334760,2335264,2335468
28,third,69,schön,IAT_purple3.bmp,purple,ending_scream,scream,ending,m,positive,positive,ES_purple,1,m,739,2338542,2339046,2339250
28,third,70,teuer,IAT_green4.bmp,green,starting_melody,melody,starting,c,negative,positive,ES_purple,0,None,1500,2341063,2341567,2341771
28,third,71,feige,IAT_yellow2.bmp,yellow,ending_melody,melody,ending,c,negative,negative,ES_purple,1,c,638,2344845,2345349,2345553
28,third,72,witzig,IAT_red3.bmp,red,starting_scream,scream,starting,m,positive,negative,ES_purple,0,None,1500,2347266,2347770,2347974
28,third,73,brutal,IAT_yellow1.bmp,yellow,ending_melody,melody,ending,c,negative,negative,ES_purple,1,c,656,2351049,2351553,2351757
28,third,74,morsch,IAT_red2.bmp,red,starting_scream,scream,starting,c,negative,negative,ES_purple,1,c,622,2353488,2353992,2354196
28,third,75,sozial,IAT_green3.bmp,green,starting_melody,melody,starting,m,positive,positive,ES_purple,1,m,712,2355893,2356397,2356601
28,third,76,brutal,IAT_red2.bmp,red,starting_scream,scream,starting,c,negative,negative,ES_purple,1,c,543,2358387,2358891,2359095
28,third,77,human,IAT_yellow3.bmp,yellow,ending_melody,melody,ending,m,positive,negative,ES_purple,1,m,576,2360713,2361217,2361421
28,third,78,einsam,IAT_red4.bmp,red,starting_scream,scream,starting,c,negative,negative,ES_purple,1,c,617,2363072,2363576,2363780
28,third,79,lustig,IAT_purple4.bmp,purple,ending_scream,scream,ending,m,positive,positive,ES_purple,0,None,1500,2365472,2365976,2366180
28,third,80,krank,IAT_purple1.bmp,purple,ending_scream,scream,ending,c,negative,positive,ES_purple,1,c,1018,2369254,2369758,2369962
28,third,81,sonnig,IAT_purple3.bmp,purple,ending_scream,scream,ending,m,positive,positive,ES_purple,1,m,469,2372054,2372558,2372762
28,third,82,heiter,IAT_yellow1.bmp,yellow,ending_melody,melody,ending,m,positive,negative,ES_purple,0,c,772,2374306,2374810,2375014
28,third,83,geizig,IAT_purple1.bmp,purple,ending_scream,scream,ending,c,negative,positive,ES_purple,1,c,884,2377361,2377866,2378070
28,third,84,teuer,IAT_yellow2.bmp,yellow,ending_melody,melody,ending,c,negative,negative,ES_purple,1,c,782,2380030,2380535,2380739
28,third,85,sanft,IAT_green2.bmp,green,starting_melody,melody,starting,m,positive,positive,ES_purple,1,m,497,2382595,2383100,2383304
28,third,86,ehrlich,IAT_yellow2.bmp,yellow,ending_melody,melody,ending,m,positive,negative,ES_purple,1,m,918,2384877,2385382,2385586
28,third,87,gesund,IAT_yellow3.bmp,yellow,ending_melody,melody,ending,m,positive,negative,ES_purple,1,m,551,2387579,2388084,2388288
28,third,88,gerecht,IAT_red1.bmp,red,starting_scream,scream,starting,m,positive,negative,ES_purple,1,m,621,2389914,2390418,2390622
28,third,89,falsch,IAT_yellow4.bmp,yellow,ending_melody,melody,ending,c,negative,negative,ES_purple,0,m,506,2392318,2392822,2393026
28,third,90,krank,IAT_purple2.bmp,purple,ending_scream,scream,ending,c,negative,positive,ES_purple,1,c,998,2395107,2395611,2395815
28,third,91,ehrlich,IAT_red3.bmp,red,starting_scream,scream,starting,m,positive,negative,ES_purple,1,m,675,2397889,2398393,2398597
28,third,92,einsam,IAT_purple2.bmp,purple,ending_scream,scream,ending,c,negative,positive,ES_purple,1,c,622,2400347,2400851,2401055
28,third,93,lustig,IAT_yellow4.bmp,yellow,ending_melody,melody,ending,m,positive,negative,ES_purple,1,m,1021,2402753,2403257,2403461
28,third,94,sanft,IAT_purple3.bmp,purple,ending_scream,scream,ending,m,positive,positive,ES_purple,0,c,1471,2405557,2406062,2406266
28,third,95,geizig,IAT_red4.bmp,red,starting_scream,scream,starting,c,negative,negative,ES_purple,1,c,1140,2409312,2409816,2410020
28,forth,0,streng,IAT_yellow2.bmp,yellow,ending_melody,melody,ending,c,negative,negative,ES_purple,1,c,544,2440001,2440505,2440709
28,forth,1,einsam,IAT_yellow3.bmp,yellow,ending_melody,melody,ending,c,negative,negative,ES_purple,1,c,709,2442330,2442834,2443038
28,forth,2,schön,IAT_red3.bmp,red,starting_scream,scream,starting,m,positive,negative,ES_purple,1,m,596,2444821,2445325,2445529
28,forth,3,morsch,IAT_red4.bmp,red,starting_scream,scream,starting,c,negative,negative,ES_purple,1,c,589,2447201,2447705,2447909
28,forth,4,ehrlich,IAT_red3.bmp,red,starting_scream,scream,starting,m,positive,negative,ES_purple,1,m,600,2449572,2450076,2450280
28,forth,5,krank,IAT_purple2.bmp,purple,ending_scream,scream,ending,c,negative,positive,ES_purple,1,c,575,2451956,2452460,2452664
28,forth,6,lästig,IAT_green4.bmp,green,starting_melody,melody,starting,c,negative,positive,ES_purple,1,c,708,2454314,2454818,2455022
28,forth,7,munter,IAT_purple1.bmp,purple,ending_scream,scream,ending,m,positive,positive,ES_purple,0,c,600,2456805,2457309,2457513
28,forth,8,gesund,IAT_green2.bmp,green,starting_melody,melody,starting,m,positive,positive,ES_purple,1,m,529,2459688,2460193,2460397
28,forth,9,einsam,IAT_red4.bmp,red,starting_scream,scream,starting,c,negative,negative,ES_purple,1,c,804,2462001,2462505,2462709
28,forth,10,heiter,IAT_purple1.bmp,purple,ending_scream,scream,ending,m,positive,positive,ES_purple,0,c,973,2464588,2465092,2465296
28,forth,11,teuer,IAT_red2.bmp,red,starting_scream,scream,starting,c,negative,negative,ES_purple,1,c,553,2467844,2468348,2468552
28,forth,12,feige,IAT_red2.bmp,red,starting_scream,scream,starting,c,negative,negative,ES_purple,1,c,616,2470179,2470683,2470887
28,forth,13,streng,IAT_red4.bmp,red,starting_scream,scream,starting,c,negative,negative,ES_purple,1,c,953,2472576,2473081,2473285
28,forth,14,gesund,IAT_red3.bmp,red,starting_scream,scream,starting,m,positive,negative,ES_purple,1,m,608,2475313,2475817,2476021
28,forth,15,gierig,IAT_purple1.bmp,purple,ending_scream,scream,ending,c,negative,positive,ES_purple,1,c,928,2477704,2478208,2478412
28,forth,16,ehrlich,IAT_green1.bmp,green,starting_melody,melody,starting,m,positive,positive,ES_purple,1,m,571,2480415,2480919,2481124
28,forth,17,sanft,IAT_red1.bmp,red,starting_scream,scream,starting,m,positive,negative,ES_purple,1,m,457,2482769,2483273,2483477
28,forth,18,streng,IAT_yellow4.bmp,yellow,ending_melody,melody,ending,c,negative,negative,ES_purple,0,m,431,2485009,2485514,2485718
28,forth,19,witzig,IAT_red4.bmp,red,starting_scream,scream,starting,m,positive,negative,ES_purple,1,m,627,2487723,2488227,2488431
28,forth,20,falsch,IAT_yellow2.bmp,yellow,ending_melody,melody,ending,c,negative,negative,ES_purple,1,c,842,2490132,2490637,2490841
28,forth,21,sanft,IAT_green3.bmp,green,starting_melody,melody,starting,m,positive,positive,ES_purple,1,m,957,2492758,2493262,2493466
28,forth,22,gerecht,IAT_purple2.bmp,purple,ending_scream,scream,ending,m,positive,positive,ES_purple,0,None,1500,2495498,2496002,2496206
28,forth,23,einsam,IAT_red2.bmp,red,starting_scream,scream,starting,c,negative,negative,ES_purple,1,c,648,2499780,2500284,2500488
28,forth,24,lustig,IAT_yellow3.bmp,yellow,ending_melody,melody,ending,m,positive,negative,ES_purple,1,m,617,2502210,2502715,2502919
28,forth,25,ehrlich,IAT_red1.bmp,red,starting_scream,scream,starting,m,positive,negative,ES_purple,1,m,784,2504611,2505115,2505319
28,forth,26,heiter,IAT_yellow2.bmp,yellow,ending_melody,melody,ending,m,positive,negative,ES_purple,1,m,570,2507178,2507682,2507886
28,forth,27,kaputt,IAT_green2.bmp,green,starting_melody,melody,starting,c,negative,positive,ES_purple,1,c,492,2509531,2510035,2510239
28,forth,28,teuer,IAT_yellow4.bmp,yellow,ending_melody,melody,ending,c,negative,negative,ES_purple,1,c,586,2511806,2512310,2512514
28,forth,29,sozial,IAT_red1.bmp,red,starting_scream,scream,starting,m,positive,negative,ES_purple,1,m,994,2514175,2514679,2514884
28,forth,30,lästig,IAT_purple4.bmp,purple,ending_scream,scream,ending,c,negative,positive,ES_purple,1,c,654,2516951,2517456,2517660
28,forth,31,krank,IAT_purple3.bmp,purple,ending_scream,scream,ending,c,negative,positive,ES_purple,0,None,1500,2519389,2519893,2520097
28,forth,32,witzig,IAT_yellow3.bmp,yellow,ending_melody,melody,ending,m,positive,negative,ES_purple,1,m,553,2523673,2524177,2524381
28,forth,33,heiter,IAT_green1.bmp,green,starting_melody,melody,starting,m,positive,positive,ES_purple,1,m,627,2526009,2526513,2526717
28,forth,34,munter,IAT_purple3.bmp,purple,ending_scream,scream,ending,m,positive,positive,ES_purple,0,c,670,2528419,2528923,2529127
28,forth,35,sonnig,IAT_red2.bmp,red,starting_scream,scream,starting,m,positive,negative,ES_purple,1,m,565,2531371,2531875,2532079
28,forth,36,sozial,IAT_red2.bmp,red,starting_scream,scream,starting,m,positive,negative,ES_purple,1,m,516,2533719,2534224,2534428
28,forth,37,sonnig,IAT_purple3.bmp,purple,ending_scream,scream,ending,m,positive,positive,ES_purple,1,m,492,2536018,2536522,2536726
28,forth,38,teuer,IAT_purple2.bmp,purple,ending_scream,scream,ending,c,negative,positive,ES_purple,0,m,633,2538293,2538797,2539001
28,forth,39,schön,IAT_green3.bmp,green,starting_melody,melody,starting,m,positive,positive,ES_purple,1,m,758,2541209,2541714,2541918
28,forth,40,geizig,IAT_green1.bmp,green,starting_melody,melody,starting,c,negative,positive,ES_purple,0,None,1500,2543751,2544255,2544459
28,forth,41,sonnig,IAT_green4.bmp,green,starting_melody,melody,starting,m,positive,positive,ES_purple,1,m,691,2548033,2548537,2548741
28,forth,42,morsch,IAT_green4.bmp,green,starting_melody,melody,starting,c,negative,positive,ES_purple,1,c,626,2550508,2551012,2551216
28,forth,43,krank,IAT_purple2.bmp,purple,ending_scream,scream,ending,c,negative,positive,ES_purple,1,c,1075,2552917,2553422,2553626
28,forth,44,sanft,IAT_yellow1.bmp,yellow,ending_melody,melody,ending,m,positive,negative,ES_purple,1,m,690,2555776,2556280,2556484
28,forth,45,munter,IAT_red3.bmp,red,starting_scream,scream,starting,m,positive,negative,ES_purple,0,c,1197,2558248,2558752,2558956
28,forth,46,kaputt,IAT_yellow1.bmp,yellow,ending_melody,melody,ending,c,negative,negative,ES_purple,1,c,525,2561727,2562232,2562436
28,forth,47,geizig,IAT_purple3.bmp,purple,ending_scream,scream,ending,c,negative,positive,ES_purple,1,c,497,2564036,2564540,2564744
28,forth,48,brutal,IAT_purple4.bmp,purple,ending_scream,scream,ending,c,negative,positive,ES_purple,1,c,536,2566315,2566820,2567024
28,forth,49,lustig,IAT_green2.bmp,green,starting_melody,melody,starting,m,positive,positive,ES_purple,1,m,729,2568634,2569139,2569343
28,forth,50,falsch,IAT_green2.bmp,green,starting_melody,melody,starting,c,negative,positive,ES_purple,1,c,1113,2571147,2571651,2571855
28,forth,51,gerecht,IAT_purple2.bmp,purple,ending_scream,scream,ending,m,positive,positive,ES_purple,1,m,645,2574043,2574547,2574751
28,forth,52,kaputt,IAT_green4.bmp,green,starting_melody,melody,starting,c,negative,positive,ES_purple,1,c,1197,2576471,2576975,2577179
28,forth,53,morsch,IAT_green4.bmp,green,starting_melody,melody,starting,c,negative,positive,ES_purple,1,c,597,2579451,2579955,2580159
28,forth,54,feige,IAT_yellow4.bmp,yellow,ending_melody,melody,ending,c,negative,negative,ES_purple,1,c,492,2581831,2582336,2582540
28,forth,55,geizig,IAT_yellow2.bmp,yellow,ending_melody,melody,ending,c,negative,negative,ES_purple,1,c,32,2584107,2584612,2584816
28,forth,56,einsam,IAT_green3.bmp,green,starting_melody,melody,starting,c,negative,positive,ES_purple,0,None,1500,2585923,2586427,2586631
28,forth,57,sozial,IAT_purple1.bmp,purple,ending_scream,scream,ending,m,positive,positive,ES_purple,1,m,679,2590205,2590709,2590913
28,forth,58,brutal,IAT_yellow3.bmp,yellow,ending_melody,melody,ending,c,negative,negative,ES_purple,1,c,518,2592667,2593171,2593375
28,forth,59,schön,IAT_yellow1.bmp,yellow,ending_melody,melody,ending,m,positive,negative,ES_purple,1,m,825,2594968,2595473,2595677
28,forth,60,teuer,IAT_red1.bmp,red,starting_scream,scream,starting,c,negative,negative,ES_purple,0,m,297,2597577,2598081,2598285
28,forth,61,human,IAT_yellow4.bmp,yellow,ending_melody,melody,ending,m,positive,negative,ES_purple,1,m,650,2600157,2600661,2600865
28,forth,62,witzig,IAT_red1.bmp,red,starting_scream,scream,starting,m,positive,negative,ES_purple,1,m,883,2602590,2603094,2603298
28,forth,63,munter,IAT_yellow2.bmp,yellow,ending_melody,melody,ending,m,positive,negative,ES_purple,1,m,713,2605256,2605761,2605965
28,forth,64,gierig,IAT_purple4.bmp,purple,ending_scream,scream,ending,c,negative,positive,ES_purple,1,c,830,2607752,2608257,2608461
28,forth,65,lustig,IAT_purple1.bmp,purple,ending_scream,scream,ending,m,positive,positive,ES_purple,1,m,540,2610366,2610870,2611074
28,forth,66,schön,IAT_yellow1.bmp,yellow,ending_melody,melody,ending,m,positive,negative,ES_purple,1,m,1235,2612690,2613194,2613398
28,forth,67,sonnig,IAT_yellow3.bmp,yellow,ending_melody,melody,ending,m,positive,negative,ES_purple,1,m,509,2615708,2616212,2616416
28,forth,68,falsch,IAT_red3.bmp,red,starting_scream,scream,starting,c,negative,negative,ES_purple,0,m,1098,2618000,2618504,2618708
28,forth,69,human,IAT_green4.bmp,green,starting_melody,melody,starting,m,positive,positive,ES_purple,1,m,794,2621381,2621885,2622089
28,forth,70,feige,IAT_red2.bmp,red,starting_scream,scream,starting,c,negative,negative,ES_purple,0,m,624,2623959,2624463,2624667
28,forth,71,falsch,IAT_red1.bmp,red,starting_scream,scream,starting,c,negative,negative,ES_purple,1,c,732,2626866,2627371,2627575
28,forth,72,witzig,IAT_purple4.bmp,purple,ending_scream,scream,ending,m,positive,positive,ES_purple,0,None,1500,2629382,2629886,2630090
28,forth,73,gesund,IAT_yellow1.bmp,yellow,ending_melody,melody,ending,m,positive,negative,ES_purple,1,m,601,2633664,2634168,2634372
28,forth,74,gerecht,IAT_green1.bmp,green,starting_melody,melody,starting,m,positive,positive,ES_purple,1,m,512,2636048,2636552,2636756
28,forth,75,lästig,IAT_purple2.bmp,purple,ending_scream,scream,ending,c,negative,positive,ES_purple,0,m,459,2638343,2638847,2639051
28,forth,76,sanft,IAT_yellow4.bmp,yellow,ending_melody,melody,ending,m,positive,negative,ES_purple,1,m,550,2641086,2641590,2641794
28,forth,77,gierig,IAT_yellow1.bmp,yellow,ending_melody,melody,ending,c,negative,negative,ES_purple,1,c,671,2643419,2643924,2644128
28,forth,78,streng,IAT_yellow2.bmp,yellow,ending_melody,melody,ending,c,negative,negative,ES_purple,0,m,708,2645874,2646378,2646582
28,forth,79,human,IAT_yellow3.bmp,yellow,ending_melody,melody,ending,m,positive,negative,ES_purple,1,m,794,2648865,2649369,2649573
28,forth,80,heiter,IAT_purple3.bmp,purple,ending_scream,scream,ending,m,positive,positive,ES_purple,1,m,560,2651442,2651946,2652150
28,forth,81,gerecht,IAT_purple3.bmp,purple,ending_scream,scream,ending,m,positive,positive,ES_purple,1,m,466,2653784,2654289,2654493
28,forth,82,geizig,IAT_purple4.bmp,purple,ending_scream,scream,ending,c,negative,positive,ES_purple,0,None,1500,2656033,2656537,2656741
28,forth,83,feige,IAT_green1.bmp,green,starting_melody,melody,starting,c,negative,positive,ES_purple,1,c,1477,2660316,2660820,2661024
28,forth,84,human,IAT_red4.bmp,red,starting_scream,scream,starting,m,positive,negative,ES_purple,1,m,604,2663576,2664080,2664284
28,forth,85,ehrlich,IAT_green3.bmp,green,starting_melody,melody,starting,m,positive,positive,ES_purple,1,m,664,2665964,2666468,2666672
28,forth,86,lästig,IAT_purple1.bmp,purple,ending_scream,scream,ending,c,negative,positive,ES_purple,1,c,765,2668412,2668916,2669120
28,forth,87,lustig,IAT_green3.bmp,green,starting_melody,melody,starting,m,positive,positive,ES_purple,1,m,132,2670961,2671465,2671669
28,forth,88,sozial,IAT_purple4.bmp,purple,ending_scream,scream,ending,m,positive,positive,ES_purple,1,m,556,2672875,2673380,2673584
28,forth,89,morsch,IAT_green2.bmp,green,starting_melody,melody,starting,c,negative,positive,ES_purple,0,None,1500,2675214,2675718,2675922
28,forth,90,brutal,IAT_green3.bmp,green,starting_melody,melody,starting,c,negative,positive,ES_purple,1,c,684,2679497,2680001,2680205
28,forth,91,krank,IAT_red4.bmp,red,starting_scream,scream,starting,c,negative,negative,ES_purple,1,c,583,2681964,2682468,2682672
28,forth,92,gesund,IAT_green1.bmp,green,starting_melody,melody,starting,m,positive,positive,ES_purple,1,m,859,2684331,2684835,2685039
28,forth,93,brutal,IAT_yellow4.bmp,yellow,ending_melody,melody,ending,c,negative,negative,ES_purple,1,c,517,2686973,2687477,2687681
28,forth,94,kaputt,IAT_red3.bmp,red,starting_scream,scream,starting,c,negative,negative,ES_purple,1,c,551,2689275,2689779,2689984
28,forth,95,gierig,IAT_green2.bmp,green,starting_melody,melody,starting,c,negative,positive,ES_purple,0,m,929,2691611,2692115,2692319
