subject_nr,block,trialnr,trial_target,trial_prime,prime_color,prime_role,prime_us,prime_relation,correct_response,target_valence,prime_valence,color_counter,correct_first_response,response_first_response,response_time_first_response,fixation_show,prime_show,target_show
65,first,0,teuer,IAT_purple4.bmp,purple,starting_scream,scream,starting,c,negative,negative,ES_green,1,c,585,1491395,1491899,1492103
65,first,1,gesund,IAT_red3.bmp,red,ending_melody,melody,ending,m,positive,negative,ES_green,1,m,475,1493762,1494267,1494471
65,first,2,lustig,IAT_red3.bmp,red,ending_melody,melody,ending,m,positive,negative,ES_green,1,m,482,1496020,1496524,1496728
65,first,3,gesund,IAT_yellow1.bmp,yellow,starting_melody,melody,starting,m,positive,positive,ES_green,1,m,520,1498284,1498788,1498992
65,first,4,falsch,IAT_yellow2.bmp,yellow,starting_melody,melody,starting,c,negative,positive,ES_green,1,c,486,1500585,1501089,1501293
65,first,5,sonnig,IAT_red1.bmp,red,ending_melody,melody,ending,m,positive,negative,ES_green,1,m,414,1502851,1503356,1503560
65,first,6,gerecht,IAT_yellow1.bmp,yellow,starting_melody,melody,starting,m,positive,positive,ES_green,1,m,566,1505047,1505552,1505756
65,first,7,munter,IAT_green4.bmp,green,ending_scream,scream,ending,m,positive,positive,ES_green,0,c,429,1507395,1507899,1508103
65,first,8,human,IAT_yellow3.bmp,yellow,starting_melody,melody,starting,m,positive,positive,ES_green,1,m,655,1510107,1510611,1510815
65,first,9,kaputt,IAT_red4.bmp,red,ending_melody,melody,ending,c,negative,negative,ES_green,1,c,575,1512543,1513047,1513251
65,first,10,schön,IAT_purple2.bmp,purple,starting_scream,scream,starting,m,positive,negative,ES_green,1,m,548,1514899,1515403,1515607
65,first,11,witzig,IAT_green1.bmp,green,ending_scream,scream,ending,m,positive,positive,ES_green,1,m,531,1517227,1517731,1517935
65,first,12,sozial,IAT_red1.bmp,red,ending_melody,melody,ending,m,positive,negative,ES_green,1,m,419,1519540,1520045,1520249
65,first,13,lästig,IAT_red2.bmp,red,ending_melody,melody,ending,c,negative,negative,ES_green,1,c,486,1521742,1522246,1522450
65,first,14,gerecht,IAT_red2.bmp,red,ending_melody,melody,ending,m,positive,negative,ES_green,1,m,466,1524009,1524514,1524718
65,first,15,schön,IAT_yellow1.bmp,yellow,starting_melody,melody,starting,m,positive,positive,ES_green,1,m,520,1526259,1526763,1526967
65,first,16,geizig,IAT_purple4.bmp,purple,starting_scream,scream,starting,c,negative,negative,ES_green,1,c,472,1528560,1529064,1529268
65,first,17,gierig,IAT_yellow4.bmp,yellow,starting_melody,melody,starting,c,negative,positive,ES_green,1,c,543,1530813,1531317,1531521
65,first,18,einsam,IAT_red2.bmp,red,ending_melody,melody,ending,c,negative,negative,ES_green,0,m,435,1533137,1533642,1533846
65,first,19,ehrlich,IAT_yellow3.bmp,yellow,starting_melody,melody,starting,m,positive,positive,ES_green,1,m,728,1535855,1536359,1536563
65,first,20,kaputt,IAT_yellow3.bmp,yellow,starting_melody,melody,starting,c,negative,positive,ES_green,1,c,517,1538365,1538869,1539074
65,first,21,gesund,IAT_green2.bmp,green,ending_scream,scream,ending,m,positive,positive,ES_green,1,m,553,1540664,1541169,1541373
65,first,22,munter,IAT_purple1.bmp,purple,starting_scream,scream,starting,m,positive,negative,ES_green,0,c,591,1543000,1543505,1543709
65,first,23,sonnig,IAT_green3.bmp,green,ending_scream,scream,ending,m,positive,positive,ES_green,1,m,555,1545875,1546379,1546583
65,first,24,ehrlich,IAT_red2.bmp,red,ending_melody,melody,ending,m,positive,negative,ES_green,1,m,585,1548211,1548715,1548919
65,first,25,brutal,IAT_purple1.bmp,purple,starting_scream,scream,starting,c,negative,negative,ES_green,1,c,483,1550577,1551082,1551286
65,first,26,morsch,IAT_purple2.bmp,purple,starting_scream,scream,starting,c,negative,negative,ES_green,1,c,541,1552841,1553346,1553550
65,first,27,kaputt,IAT_purple4.bmp,purple,starting_scream,scream,starting,c,negative,negative,ES_green,1,c,559,1555164,1555669,1555873
65,first,28,heiter,IAT_purple3.bmp,purple,starting_scream,scream,starting,m,positive,negative,ES_green,1,m,595,1557506,1558010,1558214
65,first,29,schön,IAT_yellow4.bmp,yellow,starting_melody,melody,starting,m,positive,positive,ES_green,1,m,584,1559882,1560386,1560590
65,first,30,gierig,IAT_red2.bmp,red,ending_melody,melody,ending,c,negative,negative,ES_green,1,c,529,1562248,1562752,1562956
65,first,31,feige,IAT_green2.bmp,green,ending_scream,scream,ending,c,negative,positive,ES_green,1,c,507,1564559,1565064,1565268
65,first,32,sanft,IAT_yellow4.bmp,yellow,starting_melody,melody,starting,m,positive,positive,ES_green,1,m,535,1566850,1567354,1567558
65,first,33,ehrlich,IAT_purple4.bmp,purple,starting_scream,scream,starting,m,positive,negative,ES_green,0,c,642,1569166,1569670,1569874
65,first,34,einsam,IAT_purple3.bmp,purple,starting_scream,scream,starting,c,negative,negative,ES_green,1,c,1050,1572090,1572594,1572798
65,first,35,lästig,IAT_green4.bmp,green,ending_scream,scream,ending,c,negative,positive,ES_green,1,c,665,1574921,1575425,1575629
65,first,36,gesund,IAT_red1.bmp,red,ending_melody,melody,ending,m,positive,negative,ES_green,1,m,623,1577368,1577872,1578076
65,first,37,gerecht,IAT_purple4.bmp,purple,starting_scream,scream,starting,m,positive,negative,ES_green,1,m,814,1579772,1580276,1580480
65,first,38,sonnig,IAT_yellow3.bmp,yellow,starting_melody,melody,starting,m,positive,positive,ES_green,1,m,734,1582368,1582873,1583077
65,first,39,sanft,IAT_yellow3.bmp,yellow,starting_melody,melody,starting,m,positive,positive,ES_green,1,m,508,1584883,1585387,1585591
65,first,40,geizig,IAT_green2.bmp,green,ending_scream,scream,ending,c,negative,positive,ES_green,1,c,802,1587171,1587675,1587879
65,first,41,human,IAT_green2.bmp,green,ending_scream,scream,ending,m,positive,positive,ES_green,1,m,888,1589755,1590259,1590463
65,first,42,lustig,IAT_red4.bmp,red,ending_melody,melody,ending,m,positive,negative,ES_green,1,m,762,1592424,1592928,1593132
65,first,43,morsch,IAT_purple3.bmp,purple,starting_scream,scream,starting,c,negative,negative,ES_green,1,c,426,1594966,1595470,1595674
65,first,44,gierig,IAT_red3.bmp,red,ending_melody,melody,ending,c,negative,negative,ES_green,1,c,585,1597172,1597676,1597880
65,first,45,krank,IAT_yellow1.bmp,yellow,starting_melody,melody,starting,c,negative,positive,ES_green,1,c,585,1599540,1600044,1600248
65,first,46,ehrlich,IAT_green1.bmp,green,ending_scream,scream,ending,m,positive,positive,ES_green,1,m,586,1601906,1602410,1602614
65,first,47,human,IAT_yellow2.bmp,yellow,starting_melody,melody,starting,m,positive,positive,ES_green,1,m,490,1604274,1604778,1604982
65,first,48,sozial,IAT_purple3.bmp,purple,starting_scream,scream,starting,m,positive,negative,ES_green,1,m,515,1606546,1607050,1607254
65,first,49,sanft,IAT_red4.bmp,red,ending_melody,melody,ending,m,positive,negative,ES_green,1,m,589,1608842,1609347,1609551
65,first,50,falsch,IAT_red1.bmp,red,ending_melody,melody,ending,c,negative,negative,ES_green,1,c,562,1611213,1611717,1611921
65,first,51,geizig,IAT_green4.bmp,green,ending_scream,scream,ending,c,negative,positive,ES_green,1,c,763,1613556,1614061,1614265
65,first,52,witzig,IAT_purple3.bmp,purple,starting_scream,scream,starting,m,positive,negative,ES_green,1,m,594,1616101,1616606,1616810
65,first,53,krank,IAT_yellow4.bmp,yellow,starting_melody,melody,starting,c,negative,positive,ES_green,1,c,751,1618478,1618982,1619186
65,first,54,geizig,IAT_purple2.bmp,purple,starting_scream,scream,starting,c,negative,negative,ES_green,1,c,603,1621010,1621514,1621718
65,first,55,streng,IAT_yellow2.bmp,yellow,starting_melody,melody,starting,c,negative,positive,ES_green,1,c,528,1623395,1623899,1624103
65,first,56,falsch,IAT_green2.bmp,green,ending_scream,scream,ending,c,negative,positive,ES_green,1,c,517,1625704,1626209,1626413
65,first,57,heiter,IAT_purple1.bmp,purple,starting_scream,scream,starting,m,positive,negative,ES_green,1,m,628,1628002,1628506,1628710
65,first,58,lustig,IAT_red1.bmp,red,ending_melody,melody,ending,m,positive,negative,ES_green,1,m,915,1630412,1630916,1631120
65,first,59,witzig,IAT_purple1.bmp,purple,starting_scream,scream,starting,m,positive,negative,ES_green,1,m,561,1633110,1633614,1633818
65,first,60,teuer,IAT_red4.bmp,red,ending_melody,melody,ending,c,negative,negative,ES_green,1,c,719,1635452,1635957,1636161
65,first,61,sozial,IAT_green3.bmp,green,ending_scream,scream,ending,m,positive,positive,ES_green,1,m,581,1637954,1638459,1638663
65,first,62,einsam,IAT_yellow4.bmp,yellow,starting_melody,melody,starting,c,negative,positive,ES_green,1,c,752,1640318,1640823,1641027
65,first,63,teuer,IAT_green3.bmp,green,ending_scream,scream,ending,c,negative,positive,ES_green,0,m,587,1642851,1643355,1643559
65,first,64,streng,IAT_purple2.bmp,purple,starting_scream,scream,starting,c,negative,negative,ES_green,1,c,586,1645720,1646224,1646428
65,first,65,heiter,IAT_red3.bmp,red,ending_melody,melody,ending,m,positive,negative,ES_green,1,m,491,1648088,1648592,1648796
65,first,66,teuer,IAT_green4.bmp,green,ending_scream,scream,ending,c,negative,positive,ES_green,1,c,593,1650361,1650865,1651069
65,first,67,morsch,IAT_green1.bmp,green,ending_scream,scream,ending,c,negative,positive,ES_green,1,c,544,1652735,1653239,1653443
65,first,68,lustig,IAT_purple1.bmp,purple,starting_scream,scream,starting,m,positive,negative,ES_green,1,m,595,1655061,1655565,1655769
65,first,69,munter,IAT_purple2.bmp,purple,starting_scream,scream,starting,m,positive,negative,ES_green,1,m,526,1657439,1657943,1658147
65,first,70,streng,IAT_green3.bmp,green,ending_scream,scream,ending,c,negative,positive,ES_green,1,c,486,1659747,1660251,1660455
65,first,71,lästig,IAT_yellow4.bmp,yellow,starting_melody,melody,starting,c,negative,positive,ES_green,1,c,684,1662015,1662519,1662724
65,first,72,feige,IAT_red1.bmp,red,ending_melody,melody,ending,c,negative,negative,ES_green,1,c,588,1664482,1664986,1665190
65,first,73,einsam,IAT_purple4.bmp,purple,starting_scream,scream,starting,c,negative,negative,ES_green,0,m,548,1666851,1667355,1667559
65,first,74,falsch,IAT_purple1.bmp,purple,starting_scream,scream,starting,c,negative,negative,ES_green,1,c,819,1669681,1670185,1670389
65,first,75,brutal,IAT_red3.bmp,red,ending_melody,melody,ending,c,negative,negative,ES_green,1,c,619,1672282,1672786,1672990
65,first,76,sonnig,IAT_red3.bmp,red,ending_melody,melody,ending,m,positive,negative,ES_green,1,m,615,1674682,1675186,1675390
65,first,77,gierig,IAT_yellow1.bmp,yellow,starting_melody,melody,starting,c,negative,positive,ES_green,1,c,613,1677080,1677584,1677788
65,first,78,morsch,IAT_red4.bmp,red,ending_melody,melody,ending,c,negative,negative,ES_green,1,c,496,1679475,1679979,1680184
65,first,79,munter,IAT_green3.bmp,green,ending_scream,scream,ending,m,positive,positive,ES_green,1,m,576,1681754,1682259,1682463
65,first,80,brutal,IAT_green2.bmp,green,ending_scream,scream,ending,c,negative,positive,ES_green,1,c,539,1684112,1684616,1684820
65,first,81,sanft,IAT_green1.bmp,green,ending_scream,scream,ending,m,positive,positive,ES_green,1,m,655,1686432,1686936,1687140
65,first,82,witzig,IAT_green3.bmp,green,ending_scream,scream,ending,m,positive,positive,ES_green,1,m,494,1688870,1689374,1689578
65,first,83,lästig,IAT_yellow2.bmp,yellow,starting_melody,melody,starting,c,negative,positive,ES_green,1,c,639,1691145,1691650,1691854
65,first,84,brutal,IAT_yellow3.bmp,yellow,starting_melody,melody,starting,c,negative,positive,ES_green,1,c,585,1693566,1694070,1694274
65,first,85,kaputt,IAT_red4.bmp,red,ending_melody,melody,ending,c,negative,negative,ES_green,1,c,562,1695933,1696437,1696641
65,first,86,feige,IAT_yellow2.bmp,yellow,starting_melody,melody,starting,c,negative,positive,ES_green,1,c,534,1698278,1698782,1698986
65,first,87,streng,IAT_green4.bmp,green,ending_scream,scream,ending,c,negative,positive,ES_green,1,c,1350,1700594,1701098,1701302
65,first,88,krank,IAT_purple2.bmp,purple,starting_scream,scream,starting,c,negative,negative,ES_green,1,c,475,1703726,1704230,1704434
65,first,89,human,IAT_green4.bmp,green,ending_scream,scream,ending,m,positive,positive,ES_green,1,m,450,1705983,1706487,1706691
65,first,90,heiter,IAT_purple3.bmp,purple,starting_scream,scream,starting,m,positive,negative,ES_green,1,m,485,1708214,1708719,1708923
65,first,91,sozial,IAT_green1.bmp,green,ending_scream,scream,ending,m,positive,positive,ES_green,1,m,491,1710481,1710985,1711189
65,first,92,gerecht,IAT_yellow2.bmp,yellow,starting_melody,melody,starting,m,positive,positive,ES_green,1,m,563,1712754,1713258,1713463
65,first,93,feige,IAT_red2.bmp,red,ending_melody,melody,ending,c,negative,negative,ES_green,1,c,512,1715101,1715605,1715809
65,first,94,schön,IAT_yellow1.bmp,yellow,starting_melody,melody,starting,m,positive,positive,ES_green,1,m,424,1717395,1717899,1718103
65,first,95,krank,IAT_green1.bmp,green,ending_scream,scream,ending,c,negative,positive,ES_green,1,c,469,1719601,1720105,1720309
65,second,0,falsch,IAT_red3.bmp,red,ending_melody,melody,ending,c,negative,negative,ES_green,1,c,572,1738634,1739138,1739342
65,second,1,sanft,IAT_purple3.bmp,purple,starting_scream,scream,starting,m,positive,negative,ES_green,1,m,547,1740989,1741493,1741697
65,second,2,gesund,IAT_purple1.bmp,purple,starting_scream,scream,starting,m,positive,negative,ES_green,1,m,596,1743318,1743823,1744027
65,second,3,lustig,IAT_red2.bmp,red,ending_melody,melody,ending,m,positive,negative,ES_green,1,m,484,1745697,1746201,1746405
65,second,4,streng,IAT_yellow1.bmp,yellow,starting_melody,melody,starting,c,negative,positive,ES_green,1,c,520,1747963,1748468,1748672
65,second,5,ehrlich,IAT_purple3.bmp,purple,starting_scream,scream,starting,m,positive,negative,ES_green,1,m,665,1750265,1750769,1750974
65,second,6,brutal,IAT_purple4.bmp,purple,starting_scream,scream,starting,c,negative,negative,ES_green,1,c,557,1752711,1753216,1753420
65,second,7,lustig,IAT_red3.bmp,red,ending_melody,melody,ending,m,positive,negative,ES_green,1,m,377,1755051,1755556,1755760
65,second,8,kaputt,IAT_red2.bmp,red,ending_melody,melody,ending,c,negative,negative,ES_green,1,c,508,1757210,1757715,1757919
65,second,9,streng,IAT_red2.bmp,red,ending_melody,melody,ending,c,negative,negative,ES_green,0,m,439,1759501,1760005,1760209
65,second,10,human,IAT_red3.bmp,red,ending_melody,melody,ending,m,positive,negative,ES_green,1,m,477,1762225,1762729,1762933
65,second,11,teuer,IAT_purple3.bmp,purple,starting_scream,scream,starting,c,negative,negative,ES_green,1,c,602,1764483,1764988,1765192
65,second,12,gesund,IAT_red1.bmp,red,ending_melody,melody,ending,m,positive,negative,ES_green,1,m,497,1766869,1767374,1767578
65,second,13,gierig,IAT_purple2.bmp,purple,starting_scream,scream,starting,c,negative,negative,ES_green,1,c,457,1769150,1769654,1769858
65,second,14,krank,IAT_yellow4.bmp,yellow,starting_melody,melody,starting,c,negative,positive,ES_green,1,c,665,1771390,1771894,1772098
65,second,15,lästig,IAT_green2.bmp,green,ending_scream,scream,ending,c,negative,positive,ES_green,1,c,587,1773835,1774340,1774544
65,second,16,falsch,IAT_green1.bmp,green,ending_scream,scream,ending,c,negative,positive,ES_green,1,c,485,1776205,1776709,1776913
65,second,17,gierig,IAT_purple4.bmp,purple,starting_scream,scream,starting,c,negative,negative,ES_green,1,c,557,1778470,1778975,1779179
65,second,18,streng,IAT_red1.bmp,red,ending_melody,melody,ending,c,negative,negative,ES_green,0,m,548,1780810,1781314,1781518
65,second,19,falsch,IAT_green2.bmp,green,ending_scream,scream,ending,c,negative,positive,ES_green,1,c,706,1783640,1784145,1784349
65,second,20,morsch,IAT_purple1.bmp,purple,starting_scream,scream,starting,c,negative,negative,ES_green,1,c,594,1786131,1786635,1786839
65,second,21,ehrlich,IAT_red1.bmp,red,ending_melody,melody,ending,m,positive,negative,ES_green,1,m,581,1788508,1789012,1789216
65,second,22,brutal,IAT_green1.bmp,green,ending_scream,scream,ending,c,negative,positive,ES_green,1,c,764,1790871,1791375,1791579
65,second,23,schön,IAT_yellow3.bmp,yellow,starting_melody,melody,starting,m,positive,positive,ES_green,1,m,507,1793417,1793921,1794125
65,second,24,witzig,IAT_purple4.bmp,purple,starting_scream,scream,starting,m,positive,negative,ES_green,0,c,580,1795705,1796209,1796413
65,second,25,heiter,IAT_green4.bmp,green,ending_scream,scream,ending,m,positive,positive,ES_green,1,m,1412,1798567,1799072,1799276
65,second,26,gerecht,IAT_yellow1.bmp,yellow,starting_melody,melody,starting,m,positive,positive,ES_green,1,m,1111,1801762,1802266,1802470
65,second,27,lästig,IAT_green3.bmp,green,ending_scream,scream,ending,c,negative,positive,ES_green,1,c,652,1804655,1805159,1805363
65,second,28,sonnig,IAT_red4.bmp,red,ending_melody,melody,ending,m,positive,negative,ES_green,1,m,438,1807088,1807593,1807797
65,second,29,einsam,IAT_yellow4.bmp,yellow,starting_melody,melody,starting,c,negative,positive,ES_green,1,c,1155,1809309,1809814,1810018
65,second,30,munter,IAT_purple1.bmp,purple,starting_scream,scream,starting,m,positive,negative,ES_green,1,m,514,1812247,1812751,1812955
65,second,31,sozial,IAT_red3.bmp,red,ending_melody,melody,ending,m,positive,negative,ES_green,1,m,534,1814544,1815048,1815252
65,second,32,sanft,IAT_purple4.bmp,purple,starting_scream,scream,starting,m,positive,negative,ES_green,1,m,590,1816860,1817364,1817568
65,second,33,geizig,IAT_yellow4.bmp,yellow,starting_melody,melody,starting,c,negative,positive,ES_green,1,c,757,1819232,1819736,1819940
65,second,34,sonnig,IAT_green1.bmp,green,ending_scream,scream,ending,m,positive,positive,ES_green,1,m,483,1821771,1822275,1822479
65,second,35,munter,IAT_green3.bmp,green,ending_scream,scream,ending,m,positive,positive,ES_green,0,c,643,1824036,1824541,1824745
65,second,36,gierig,IAT_purple2.bmp,purple,starting_scream,scream,starting,c,negative,negative,ES_green,1,c,1023,1826962,1827466,1827670
65,second,37,schön,IAT_yellow3.bmp,yellow,starting_melody,melody,starting,m,positive,positive,ES_green,1,m,475,1829766,1830270,1830474
65,second,38,streng,IAT_red4.bmp,red,ending_melody,melody,ending,c,negative,negative,ES_green,1,c,731,1832022,1832526,1832730
65,second,39,ehrlich,IAT_purple2.bmp,purple,starting_scream,scream,starting,m,positive,negative,ES_green,1,m,606,1834536,1835040,1835244
65,second,40,gierig,IAT_green4.bmp,green,ending_scream,scream,ending,c,negative,positive,ES_green,1,c,724,1836925,1837429,1837634
65,second,41,krank,IAT_green2.bmp,green,ending_scream,scream,ending,c,negative,positive,ES_green,1,c,534,1839431,1839936,1840140
65,second,42,einsam,IAT_purple1.bmp,purple,starting_scream,scream,starting,c,negative,negative,ES_green,0,m,567,1841748,1842252,1842456
65,second,43,sonnig,IAT_purple2.bmp,purple,starting_scream,scream,starting,m,positive,negative,ES_green,1,m,581,1844597,1845101,1845305
65,second,44,human,IAT_red1.bmp,red,ending_melody,melody,ending,m,positive,negative,ES_green,1,m,414,1846961,1847465,1847669
65,second,45,gesund,IAT_yellow3.bmp,yellow,starting_melody,melody,starting,m,positive,positive,ES_green,1,m,523,1849157,1849661,1849865
65,second,46,teuer,IAT_red4.bmp,red,ending_melody,melody,ending,c,negative,negative,ES_green,1,c,613,1851462,1851966,1852170
65,second,47,einsam,IAT_yellow2.bmp,yellow,starting_melody,melody,starting,c,negative,positive,ES_green,1,c,853,1853857,1854362,1854566
65,second,48,witzig,IAT_yellow1.bmp,yellow,starting_melody,melody,starting,m,positive,positive,ES_green,1,m,546,1856492,1856996,1857200
65,second,49,schön,IAT_yellow4.bmp,yellow,starting_melody,melody,starting,m,positive,positive,ES_green,1,m,425,1858820,1859325,1859529
65,second,50,feige,IAT_red1.bmp,red,ending_melody,melody,ending,c,negative,negative,ES_green,1,c,590,1861029,1861533,1861737
65,second,51,gerecht,IAT_green3.bmp,green,ending_scream,scream,ending,m,positive,positive,ES_green,1,m,563,1863401,1863905,1864109
65,second,52,falsch,IAT_red4.bmp,red,ending_melody,melody,ending,c,negative,negative,ES_green,1,c,606,1865746,1866250,1866454
65,second,53,geizig,IAT_yellow1.bmp,yellow,starting_melody,melody,starting,c,negative,positive,ES_green,0,m,1409,1868135,1868639,1868843
65,second,54,human,IAT_purple3.bmp,purple,starting_scream,scream,starting,m,positive,negative,ES_green,1,m,485,1871826,1872330,1872534
65,second,55,sozial,IAT_yellow2.bmp,yellow,starting_melody,melody,starting,m,positive,positive,ES_green,1,m,469,1874093,1874597,1874801
65,second,56,ehrlich,IAT_yellow2.bmp,yellow,starting_melody,melody,starting,m,positive,positive,ES_green,1,m,688,1876345,1876849,1877053
65,second,57,lustig,IAT_yellow1.bmp,yellow,starting_melody,melody,starting,m,positive,positive,ES_green,1,m,516,1878814,1879319,1879523
65,second,58,witzig,IAT_purple1.bmp,purple,starting_scream,scream,starting,m,positive,negative,ES_green,1,m,539,1881113,1881617,1881821
65,second,59,schön,IAT_red3.bmp,red,ending_melody,melody,ending,m,positive,negative,ES_green,1,m,448,1883435,1883939,1884143
65,second,60,morsch,IAT_yellow3.bmp,yellow,starting_melody,melody,starting,c,negative,positive,ES_green,1,c,518,1885666,1886170,1886374
65,second,61,sonnig,IAT_green2.bmp,green,ending_scream,scream,ending,m,positive,positive,ES_green,1,m,756,1887966,1888470,1888674
65,second,62,feige,IAT_purple4.bmp,purple,starting_scream,scream,starting,c,negative,negative,ES_green,1,c,582,1890505,1891009,1891213
65,second,63,kaputt,IAT_green2.bmp,green,ending_scream,scream,ending,c,negative,positive,ES_green,1,c,632,1892869,1893374,1893578
65,second,64,morsch,IAT_red3.bmp,red,ending_melody,melody,ending,c,negative,negative,ES_green,1,c,487,1895284,1895788,1895992
65,second,65,kaputt,IAT_purple2.bmp,purple,starting_scream,scream,starting,c,negative,negative,ES_green,1,c,516,1897553,1898057,1898261
65,second,66,heiter,IAT_green3.bmp,green,ending_scream,scream,ending,m,positive,positive,ES_green,1,m,461,1899851,1900356,1900560
65,second,67,sozial,IAT_purple3.bmp,purple,starting_scream,scream,starting,m,positive,negative,ES_green,1,m,473,1902094,1902599,1902803
65,second,68,feige,IAT_purple3.bmp,purple,starting_scream,scream,starting,c,negative,negative,ES_green,1,c,1055,1904350,1904855,1905059
65,second,69,munter,IAT_yellow4.bmp,yellow,starting_melody,melody,starting,m,positive,positive,ES_green,1,m,718,1907190,1907694,1907898
65,second,70,lästig,IAT_yellow4.bmp,yellow,starting_melody,melody,starting,c,negative,positive,ES_green,1,c,628,1909691,1910196,1910400
65,second,71,heiter,IAT_red4.bmp,red,ending_melody,melody,ending,m,positive,negative,ES_green,1,m,475,1912104,1912608,1912812
65,second,72,geizig,IAT_purple4.bmp,purple,starting_scream,scream,starting,c,negative,negative,ES_green,1,c,645,1914362,1914866,1915070
65,second,73,human,IAT_green1.bmp,green,ending_scream,scream,ending,m,positive,positive,ES_green,1,m,444,1916790,1917294,1917498
65,second,74,gesund,IAT_purple1.bmp,purple,starting_scream,scream,starting,m,positive,negative,ES_green,1,m,552,1919017,1919521,1919725
65,second,75,krank,IAT_purple2.bmp,purple,starting_scream,scream,starting,c,negative,negative,ES_green,1,c,463,1921351,1921856,1922060
65,second,76,brutal,IAT_yellow3.bmp,yellow,starting_melody,melody,starting,c,negative,positive,ES_green,1,c,613,1923597,1924101,1924305
65,second,77,lustig,IAT_yellow1.bmp,yellow,starting_melody,melody,starting,m,positive,positive,ES_green,1,m,553,1925993,1926497,1926701
65,second,78,einsam,IAT_green4.bmp,green,ending_scream,scream,ending,c,negative,positive,ES_green,1,c,629,1928330,1928834,1929038
65,second,79,sozial,IAT_yellow3.bmp,yellow,starting_melody,melody,starting,m,positive,positive,ES_green,1,m,436,1930741,1931245,1931449
65,second,80,krank,IAT_green4.bmp,green,ending_scream,scream,ending,c,negative,positive,ES_green,1,c,486,1932960,1933465,1933669
65,second,81,teuer,IAT_yellow2.bmp,yellow,starting_melody,melody,starting,c,negative,positive,ES_green,1,c,690,1935230,1935734,1935938
65,second,82,gerecht,IAT_green3.bmp,green,ending_scream,scream,ending,m,positive,positive,ES_green,1,m,610,1937702,1938206,1938410
65,second,83,munter,IAT_green2.bmp,green,ending_scream,scream,ending,m,positive,positive,ES_green,1,m,544,1940094,1940598,1940802
65,second,84,sanft,IAT_red1.bmp,red,ending_melody,melody,ending,m,positive,negative,ES_green,1,m,488,1942421,1942925,1943129
65,second,85,brutal,IAT_red2.bmp,red,ending_melody,melody,ending,c,negative,negative,ES_green,1,c,488,1944692,1945196,1945400
65,second,86,morsch,IAT_yellow2.bmp,yellow,starting_melody,melody,starting,c,negative,positive,ES_green,1,c,447,1946962,1947466,1947670
65,second,87,witzig,IAT_red2.bmp,red,ending_melody,melody,ending,m,positive,negative,ES_green,1,m,480,1949193,1949697,1949901
65,second,88,teuer,IAT_red2.bmp,red,ending_melody,melody,ending,c,negative,negative,ES_green,1,c,459,1951456,1951960,1952164
65,second,89,kaputt,IAT_green3.bmp,green,ending_scream,scream,ending,c,negative,positive,ES_green,1,c,528,1953698,1954202,1954406
65,second,90,lästig,IAT_green4.bmp,green,ending_scream,scream,ending,c,negative,positive,ES_green,0,m,464,1956010,1956514,1956718
65,second,91,gerecht,IAT_green1.bmp,green,ending_scream,scream,ending,m,positive,positive,ES_green,0,c,609,1958757,1959262,1959466
65,second,92,geizig,IAT_yellow2.bmp,yellow,starting_melody,melody,starting,c,negative,positive,ES_green,1,c,662,1961650,1962155,1962359
65,second,93,heiter,IAT_green4.bmp,green,ending_scream,scream,ending,m,positive,positive,ES_green,1,m,570,1964096,1964601,1964805
65,second,94,sanft,IAT_green1.bmp,green,ending_scream,scream,ending,m,positive,positive,ES_green,1,m,510,1966450,1966954,1967158
65,second,95,feige,IAT_red4.bmp,red,ending_melody,melody,ending,c,negative,negative,ES_green,1,c,545,1968743,1969247,1969451
65,third,0,schön,IAT_red2.bmp,red,ending_melody,melody,ending,m,positive,negative,ES_green,1,m,584,1990674,1991179,1991383
65,third,1,lustig,IAT_purple3.bmp,purple,starting_scream,scream,starting,m,positive,negative,ES_green,1,m,549,1993043,1993547,1993751
65,third,2,geizig,IAT_yellow3.bmp,yellow,starting_melody,melody,starting,c,negative,positive,ES_green,1,c,657,1995374,1995878,1996082
65,third,3,heiter,IAT_yellow1.bmp,yellow,starting_melody,melody,starting,m,positive,positive,ES_green,1,m,417,1997814,1998318,1998522
65,third,4,sonnig,IAT_yellow1.bmp,yellow,starting_melody,melody,starting,m,positive,positive,ES_green,1,m,517,2000013,2000517,2000721
65,third,5,gerecht,IAT_purple1.bmp,purple,starting_scream,scream,starting,m,positive,negative,ES_green,1,m,697,2002312,2002816,2003020
65,third,6,witzig,IAT_green3.bmp,green,ending_scream,scream,ending,m,positive,positive,ES_green,1,m,467,2004791,2005295,2005499
65,third,7,sozial,IAT_red1.bmp,red,ending_melody,melody,ending,m,positive,negative,ES_green,1,m,445,2007040,2007544,2007748
65,third,8,gierig,IAT_purple4.bmp,purple,starting_scream,scream,starting,c,negative,negative,ES_green,1,c,469,2009267,2009771,2009975
65,third,9,krank,IAT_red2.bmp,red,ending_melody,melody,ending,c,negative,negative,ES_green,1,c,597,2011518,2012022,2012226
65,third,10,falsch,IAT_purple2.bmp,purple,starting_scream,scream,starting,c,negative,negative,ES_green,1,c,1010,2013897,2014401,2014605
65,third,11,gesund,IAT_yellow3.bmp,yellow,starting_melody,melody,starting,m,positive,positive,ES_green,1,m,927,2016690,2017194,2017398
65,third,12,geizig,IAT_purple3.bmp,purple,starting_scream,scream,starting,c,negative,negative,ES_green,1,c,481,2019399,2019903,2020107
65,third,13,sonnig,IAT_red4.bmp,red,ending_melody,melody,ending,m,positive,negative,ES_green,1,m,481,2021662,2022166,2022370
65,third,14,streng,IAT_red4.bmp,red,ending_melody,melody,ending,c,negative,negative,ES_green,1,c,1060,2023926,2024430,2024634
65,third,15,schön,IAT_purple1.bmp,purple,starting_scream,scream,starting,m,positive,negative,ES_green,1,m,525,2026768,2027273,2027477
65,third,16,brutal,IAT_green2.bmp,green,ending_scream,scream,ending,c,negative,positive,ES_green,1,c,489,2029076,2029580,2029784
65,third,17,witzig,IAT_purple3.bmp,purple,starting_scream,scream,starting,m,positive,negative,ES_green,1,m,704,2031347,2031851,2032055
65,third,18,einsam,IAT_green2.bmp,green,ending_scream,scream,ending,c,negative,positive,ES_green,1,c,650,2033832,2034336,2034540
65,third,19,gerecht,IAT_green2.bmp,green,ending_scream,scream,ending,m,positive,positive,ES_green,1,m,987,2036264,2036768,2036972
65,third,20,brutal,IAT_red2.bmp,red,ending_melody,melody,ending,c,negative,negative,ES_green,1,c,512,2039033,2039538,2039742
65,third,21,human,IAT_purple4.bmp,purple,starting_scream,scream,starting,m,positive,negative,ES_green,1,m,545,2041328,2041833,2042037
65,third,22,falsch,IAT_yellow4.bmp,yellow,starting_melody,melody,starting,c,negative,positive,ES_green,1,c,547,2043656,2044161,2044365
65,third,23,kaputt,IAT_yellow4.bmp,yellow,starting_melody,melody,starting,c,negative,positive,ES_green,1,c,472,2045987,2046491,2046695
65,third,24,einsam,IAT_red2.bmp,red,ending_melody,melody,ending,c,negative,negative,ES_green,1,c,681,2048241,2048746,2048950
65,third,25,kaputt,IAT_red1.bmp,red,ending_melody,melody,ending,c,negative,negative,ES_green,1,c,533,2050705,2051209,2051413
65,third,26,teuer,IAT_red2.bmp,red,ending_melody,melody,ending,c,negative,negative,ES_green,1,c,581,2053020,2053524,2053728
65,third,27,heiter,IAT_green4.bmp,green,ending_scream,scream,ending,m,positive,positive,ES_green,1,m,672,2055384,2055888,2056092
65,third,28,feige,IAT_red4.bmp,red,ending_melody,melody,ending,c,negative,negative,ES_green,1,c,560,2057839,2058343,2058547
65,third,29,falsch,IAT_green3.bmp,green,ending_scream,scream,ending,c,negative,positive,ES_green,1,c,604,2060181,2060686,2060890
65,third,30,feige,IAT_purple1.bmp,purple,starting_scream,scream,starting,c,negative,negative,ES_green,1,c,577,2062569,2063073,2063277
65,third,31,gerecht,IAT_green3.bmp,green,ending_scream,scream,ending,m,positive,positive,ES_green,1,m,602,2064930,2065434,2065638
65,third,32,morsch,IAT_green4.bmp,green,ending_scream,scream,ending,c,negative,positive,ES_green,1,c,657,2067313,2067817,2068021
65,third,33,heiter,IAT_green3.bmp,green,ending_scream,scream,ending,m,positive,positive,ES_green,1,m,633,2069752,2070256,2070460
65,third,34,sozial,IAT_purple2.bmp,purple,starting_scream,scream,starting,m,positive,negative,ES_green,1,m,536,2072167,2072671,2072875
65,third,35,einsam,IAT_green4.bmp,green,ending_scream,scream,ending,c,negative,positive,ES_green,1,c,636,2074485,2074990,2075194
65,third,36,sanft,IAT_yellow2.bmp,yellow,starting_melody,melody,starting,m,positive,positive,ES_green,1,m,522,2076904,2077409,2077613
65,third,37,teuer,IAT_red3.bmp,red,ending_melody,melody,ending,c,negative,negative,ES_green,1,c,1212,2079209,2079713,2079917
65,third,38,morsch,IAT_purple3.bmp,purple,starting_scream,scream,starting,c,negative,negative,ES_green,1,c,532,2082202,2082706,2082910
65,third,39,teuer,IAT_red4.bmp,red,ending_melody,melody,ending,c,negative,negative,ES_green,1,c,515,2084517,2085021,2085225
65,third,40,ehrlich,IAT_yellow1.bmp,yellow,starting_melody,melody,starting,m,positive,positive,ES_green,1,m,577,2086814,2087318,2087522
65,third,41,human,IAT_yellow3.bmp,yellow,starting_melody,melody,starting,m,positive,positive,ES_green,1,m,553,2089173,2089677,2089881
65,third,42,heiter,IAT_yellow1.bmp,yellow,starting_melody,melody,starting,m,positive,positive,ES_green,1,m,498,2091509,2092013,2092217
65,third,43,gerecht,IAT_red3.bmp,red,ending_melody,melody,ending,m,positive,negative,ES_green,1,m,615,2093789,2094293,2094497
65,third,44,lustig,IAT_red3.bmp,red,ending_melody,melody,ending,m,positive,negative,ES_green,1,m,470,2096185,2096690,2096894
65,third,45,munter,IAT_red1.bmp,red,ending_melody,melody,ending,m,positive,negative,ES_green,1,m,454,2098440,2098944,2099148
65,third,46,gesund,IAT_yellow4.bmp,yellow,starting_melody,melody,starting,m,positive,positive,ES_green,1,m,574,2100677,2101181,2101385
65,third,47,brutal,IAT_green2.bmp,green,ending_scream,scream,ending,c,negative,positive,ES_green,1,c,599,2103032,2103536,2103740
65,third,48,kaputt,IAT_red1.bmp,red,ending_melody,melody,ending,c,negative,negative,ES_green,1,c,686,2105414,2105918,2106122
65,third,49,lustig,IAT_purple4.bmp,purple,starting_scream,scream,starting,m,positive,negative,ES_green,1,m,515,2107883,2108387,2108591
65,third,50,sanft,IAT_green2.bmp,green,ending_scream,scream,ending,m,positive,positive,ES_green,1,m,551,2110180,2110684,2110888
65,third,51,sonnig,IAT_yellow2.bmp,yellow,starting_melody,melody,starting,m,positive,positive,ES_green,1,m,467,2112514,2113019,2113223
65,third,52,lästig,IAT_yellow1.bmp,yellow,starting_melody,melody,starting,c,negative,positive,ES_green,1,c,733,2114766,2115271,2115475
65,third,53,schön,IAT_green1.bmp,green,ending_scream,scream,ending,m,positive,positive,ES_green,1,m,596,2117282,2117786,2117990
65,third,54,sanft,IAT_red2.bmp,red,ending_melody,melody,ending,m,positive,negative,ES_green,1,m,441,2119661,2120165,2120369
65,third,55,krank,IAT_yellow2.bmp,yellow,starting_melody,melody,starting,c,negative,positive,ES_green,1,c,896,2121886,2122390,2122594
65,third,56,brutal,IAT_purple2.bmp,purple,starting_scream,scream,starting,c,negative,negative,ES_green,1,c,496,2124565,2125069,2125273
65,third,57,gierig,IAT_yellow4.bmp,yellow,starting_melody,melody,starting,c,negative,positive,ES_green,1,c,710,2126844,2127348,2127552
65,third,58,ehrlich,IAT_purple3.bmp,purple,starting_scream,scream,starting,m,positive,negative,ES_green,1,m,604,2129336,2129840,2130044
65,third,59,sozial,IAT_purple1.bmp,purple,starting_scream,scream,starting,m,positive,negative,ES_green,1,m,612,2131723,2132228,2132432
65,third,60,kaputt,IAT_red3.bmp,red,ending_melody,melody,ending,c,negative,negative,ES_green,1,c,541,2134119,2134623,2134827
65,third,61,munter,IAT_purple2.bmp,purple,starting_scream,scream,starting,m,positive,negative,ES_green,1,m,658,2136444,2136948,2137152
65,third,62,witzig,IAT_red1.bmp,red,ending_melody,melody,ending,m,positive,negative,ES_green,1,m,630,2138885,2139389,2139593
65,third,63,lustig,IAT_green1.bmp,green,ending_scream,scream,ending,m,positive,positive,ES_green,1,m,535,2141297,2141802,2142006
65,third,64,falsch,IAT_red4.bmp,red,ending_melody,melody,ending,c,negative,negative,ES_green,1,c,459,2143615,2144120,2144324
65,third,65,lästig,IAT_purple4.bmp,purple,starting_scream,scream,starting,c,negative,negative,ES_green,1,c,579,2145857,2146362,2146566
65,third,66,krank,IAT_purple2.bmp,purple,starting_scream,scream,starting,c,negative,negative,ES_green,1,c,530,2148220,2148724,2148928
65,third,67,feige,IAT_purple1.bmp,purple,starting_scream,scream,starting,c,negative,negative,ES_green,1,c,580,2150532,2151037,2151241
65,third,68,morsch,IAT_purple2.bmp,purple,starting_scream,scream,starting,c,negative,negative,ES_green,1,c,515,2152895,2153399,2153604
65,third,69,gesund,IAT_red4.bmp,red,ending_melody,melody,ending,m,positive,negative,ES_green,1,m,513,2155192,2155697,2155901
65,third,70,munter,IAT_green4.bmp,green,ending_scream,scream,ending,m,positive,positive,ES_green,1,m,630,2157490,2157994,2158198
65,third,71,gierig,IAT_green3.bmp,green,ending_scream,scream,ending,c,negative,positive,ES_green,1,c,813,2159902,2160406,2160610
65,third,72,morsch,IAT_yellow4.bmp,yellow,starting_melody,melody,starting,c,negative,positive,ES_green,1,c,559,2162497,2163002,2163206
65,third,73,teuer,IAT_green1.bmp,green,ending_scream,scream,ending,c,negative,positive,ES_green,0,m,638,2164841,2165345,2165549
65,third,74,gierig,IAT_yellow1.bmp,yellow,starting_melody,melody,starting,c,negative,positive,ES_green,1,c,1185,2167763,2168267,2168471
65,third,75,human,IAT_purple1.bmp,purple,starting_scream,scream,starting,m,positive,negative,ES_green,1,m,541,2170731,2171235,2171439
65,third,76,ehrlich,IAT_yellow3.bmp,yellow,starting_melody,melody,starting,m,positive,positive,ES_green,1,m,973,2173056,2173560,2173764
65,third,77,sozial,IAT_red3.bmp,red,ending_melody,melody,ending,m,positive,negative,ES_green,1,m,536,2175812,2176316,2176520
65,third,78,sonnig,IAT_green1.bmp,green,ending_scream,scream,ending,m,positive,positive,ES_green,1,m,605,2178131,2178635,2178839
65,third,79,sanft,IAT_purple3.bmp,purple,starting_scream,scream,starting,m,positive,negative,ES_green,1,m,530,2180519,2181024,2181228
65,third,80,schön,IAT_yellow3.bmp,yellow,starting_melody,melody,starting,m,positive,positive,ES_green,1,m,575,2182834,2183338,2183542
65,third,81,krank,IAT_yellow2.bmp,yellow,starting_melody,melody,starting,c,negative,positive,ES_green,1,c,731,2185192,2185696,2185900
65,third,82,streng,IAT_green4.bmp,green,ending_scream,scream,ending,c,negative,positive,ES_green,1,c,728,2187705,2188210,2188414
65,third,83,human,IAT_yellow4.bmp,yellow,starting_melody,melody,starting,m,positive,positive,ES_green,1,m,984,2190218,2190722,2190926
65,third,84,geizig,IAT_green2.bmp,green,ending_scream,scream,ending,c,negative,positive,ES_green,1,c,659,2192985,2193489,2193693
65,third,85,munter,IAT_red1.bmp,red,ending_melody,melody,ending,m,positive,negative,ES_green,1,m,783,2195428,2195932,2196136
65,third,86,streng,IAT_green1.bmp,green,ending_scream,scream,ending,c,negative,positive,ES_green,1,c,720,2197993,2198497,2198701
65,third,87,lästig,IAT_yellow2.bmp,yellow,starting_melody,melody,starting,c,negative,positive,ES_green,1,c,585,2200496,2201000,2201204
65,third,88,ehrlich,IAT_red3.bmp,red,ending_melody,melody,ending,m,positive,negative,ES_green,1,m,527,2202863,2203368,2203572
65,third,89,witzig,IAT_green3.bmp,green,ending_scream,scream,ending,m,positive,positive,ES_green,1,m,506,2205174,2205678,2205882
65,third,90,einsam,IAT_purple4.bmp,purple,starting_scream,scream,starting,c,negative,negative,ES_green,1,c,671,2207461,2207966,2208170
65,third,91,gesund,IAT_green1.bmp,green,ending_scream,scream,ending,m,positive,positive,ES_green,1,m,621,2209916,2210420,2210624
65,third,92,streng,IAT_green4.bmp,green,ending_scream,scream,ending,c,negative,positive,ES_green,1,c,446,2212321,2212825,2213029
65,third,93,feige,IAT_purple4.bmp,purple,starting_scream,scream,starting,c,negative,negative,ES_green,1,c,510,2214550,2215054,2215258
65,third,94,geizig,IAT_yellow2.bmp,yellow,starting_melody,melody,starting,c,negative,positive,ES_green,1,c,760,2216844,2217348,2217552
65,third,95,lästig,IAT_yellow3.bmp,yellow,starting_melody,melody,starting,c,negative,positive,ES_green,1,c,684,2219388,2219893,2220097
65,forth,0,gesund,IAT_purple4.bmp,purple,starting_scream,scream,starting,m,positive,negative,ES_green,1,m,551,2235774,2236278,2236482
65,forth,1,gerecht,IAT_green3.bmp,green,ending_scream,scream,ending,m,positive,positive,ES_green,0,c,553,2238109,2238613,2238817
65,forth,2,brutal,IAT_purple4.bmp,purple,starting_scream,scream,starting,c,negative,negative,ES_green,1,c,563,2240945,2241449,2241654
65,forth,3,morsch,IAT_green1.bmp,green,ending_scream,scream,ending,c,negative,positive,ES_green,1,c,590,2243291,2243795,2243999
65,forth,4,ehrlich,IAT_yellow1.bmp,yellow,starting_melody,melody,starting,m,positive,positive,ES_green,1,m,550,2245664,2246168,2246372
65,forth,5,sanft,IAT_red1.bmp,red,ending_melody,melody,ending,m,positive,negative,ES_green,1,m,515,2247996,2248500,2248704
65,forth,6,feige,IAT_green2.bmp,green,ending_scream,scream,ending,c,negative,positive,ES_green,0,m,537,2250292,2250796,2251000
65,forth,7,gesund,IAT_yellow2.bmp,yellow,starting_melody,melody,starting,m,positive,positive,ES_green,1,m,576,2253111,2253616,2253820
65,forth,8,lästig,IAT_green2.bmp,green,ending_scream,scream,ending,c,negative,positive,ES_green,1,c,674,2255470,2255975,2256179
65,forth,9,brutal,IAT_red3.bmp,red,ending_melody,melody,ending,c,negative,negative,ES_green,1,c,585,2257928,2258432,2258636
65,forth,10,teuer,IAT_green3.bmp,green,ending_scream,scream,ending,c,negative,positive,ES_green,1,c,600,2260295,2260799,2261003
65,forth,11,human,IAT_yellow3.bmp,yellow,starting_melody,melody,starting,m,positive,positive,ES_green,1,m,494,2262678,2263183,2263387
65,forth,12,gierig,IAT_yellow3.bmp,yellow,starting_melody,melody,starting,c,negative,positive,ES_green,1,c,583,2264955,2265459,2265663
65,forth,13,morsch,IAT_red4.bmp,red,ending_melody,melody,ending,c,negative,negative,ES_green,1,c,502,2267320,2267824,2268028
65,forth,14,witzig,IAT_yellow3.bmp,yellow,starting_melody,melody,starting,m,positive,positive,ES_green,1,m,710,2269605,2270109,2270313
65,forth,15,sonnig,IAT_purple1.bmp,purple,starting_scream,scream,starting,m,positive,negative,ES_green,1,m,712,2272099,2272603,2272807
65,forth,16,schön,IAT_yellow1.bmp,yellow,starting_melody,melody,starting,m,positive,positive,ES_green,1,m,1100,2274593,2275097,2275301
65,forth,17,lästig,IAT_yellow2.bmp,yellow,starting_melody,melody,starting,c,negative,positive,ES_green,1,c,573,2277476,2277980,2278184
65,forth,18,streng,IAT_yellow2.bmp,yellow,starting_melody,melody,starting,c,negative,positive,ES_green,1,c,611,2279831,2280335,2280539
65,forth,19,lustig,IAT_yellow4.bmp,yellow,starting_melody,melody,starting,m,positive,positive,ES_green,1,m,744,2282224,2282728,2282932
65,forth,20,krank,IAT_purple1.bmp,purple,starting_scream,scream,starting,c,negative,negative,ES_green,1,c,486,2284751,2285255,2285459
65,forth,21,lästig,IAT_red3.bmp,red,ending_melody,melody,ending,c,negative,negative,ES_green,1,c,689,2287019,2287523,2287727
65,forth,22,sozial,IAT_purple1.bmp,purple,starting_scream,scream,starting,m,positive,negative,ES_green,1,m,475,2289491,2289995,2290199
65,forth,23,teuer,IAT_red4.bmp,red,ending_melody,melody,ending,c,negative,negative,ES_green,1,c,607,2291750,2292254,2292458
65,forth,24,ehrlich,IAT_red1.bmp,red,ending_melody,melody,ending,m,positive,negative,ES_green,1,m,1081,2294140,2294644,2294848
65,forth,25,geizig,IAT_purple4.bmp,purple,starting_scream,scream,starting,c,negative,negative,ES_green,1,c,579,2297003,2297507,2297711
65,forth,26,sonnig,IAT_green2.bmp,green,ending_scream,scream,ending,m,positive,positive,ES_green,1,m,802,2299365,2299869,2300073
65,forth,27,lustig,IAT_purple3.bmp,purple,starting_scream,scream,starting,m,positive,negative,ES_green,1,m,917,2301950,2302454,2302658
65,forth,28,sonnig,IAT_purple4.bmp,purple,starting_scream,scream,starting,m,positive,negative,ES_green,1,m,642,2304649,2305154,2305358
65,forth,29,sozial,IAT_green3.bmp,green,ending_scream,scream,ending,m,positive,positive,ES_green,1,m,511,2307075,2307579,2307783
65,forth,30,streng,IAT_purple2.bmp,purple,starting_scream,scream,starting,c,negative,negative,ES_green,1,c,398,2309369,2309873,2310077
65,forth,31,teuer,IAT_yellow1.bmp,yellow,starting_melody,melody,starting,c,negative,positive,ES_green,1,c,507,2311550,2312054,2312258
65,forth,32,einsam,IAT_yellow3.bmp,yellow,starting_melody,melody,starting,c,negative,positive,ES_green,0,m,471,2313840,2314344,2314548
65,forth,33,kaputt,IAT_yellow4.bmp,yellow,starting_melody,melody,starting,c,negative,positive,ES_green,1,c,958,2316595,2317099,2317303
65,forth,34,streng,IAT_red4.bmp,red,ending_melody,melody,ending,c,negative,negative,ES_green,1,c,682,2319336,2319841,2320045
65,forth,35,heiter,IAT_purple1.bmp,purple,starting_scream,scream,starting,m,positive,negative,ES_green,1,m,521,2321802,2322306,2322510
65,forth,36,einsam,IAT_red2.bmp,red,ending_melody,melody,ending,c,negative,negative,ES_green,1,c,1088,2324106,2324611,2324815
65,forth,37,ehrlich,IAT_green3.bmp,green,ending_scream,scream,ending,m,positive,positive,ES_green,1,m,782,2326978,2327482,2327686
65,forth,38,krank,IAT_green2.bmp,green,ending_scream,scream,ending,c,negative,positive,ES_green,1,c,570,2329542,2330047,2330251
65,forth,39,human,IAT_purple2.bmp,purple,starting_scream,scream,starting,m,positive,negative,ES_green,1,m,521,2331896,2332400,2332604
65,forth,40,gerecht,IAT_red3.bmp,red,ending_melody,melody,ending,m,positive,negative,ES_green,1,m,536,2334200,2334704,2334908
65,forth,41,sanft,IAT_yellow1.bmp,yellow,starting_melody,melody,starting,m,positive,positive,ES_green,1,m,488,2336519,2337023,2337227
65,forth,42,gerecht,IAT_green2.bmp,green,ending_scream,scream,ending,m,positive,positive,ES_green,1,m,688,2338791,2339295,2339499
65,forth,43,heiter,IAT_purple1.bmp,purple,starting_scream,scream,starting,m,positive,negative,ES_green,1,m,493,2341261,2341765,2341969
65,forth,44,lustig,IAT_green4.bmp,green,ending_scream,scream,ending,m,positive,positive,ES_green,1,m,453,2343537,2344041,2344245
65,forth,45,streng,IAT_yellow4.bmp,yellow,starting_melody,melody,starting,c,negative,positive,ES_green,1,c,644,2345774,2346278,2346482
65,forth,46,falsch,IAT_green3.bmp,green,ending_scream,scream,ending,c,negative,positive,ES_green,1,c,811,2348200,2348704,2348908
65,forth,47,sozial,IAT_red4.bmp,red,ending_melody,melody,ending,m,positive,negative,ES_green,1,m,537,2350793,2351298,2351502
65,forth,48,geizig,IAT_green4.bmp,green,ending_scream,scream,ending,c,negative,positive,ES_green,1,c,627,2353115,2353619,2353823
65,forth,49,feige,IAT_red2.bmp,red,ending_melody,melody,ending,c,negative,negative,ES_green,1,c,571,2355526,2356030,2356234
65,forth,50,munter,IAT_red3.bmp,red,ending_melody,melody,ending,m,positive,negative,ES_green,1,m,721,2357880,2358384,2358588
65,forth,51,falsch,IAT_red4.bmp,red,ending_melody,melody,ending,c,negative,negative,ES_green,1,c,652,2360385,2360889,2361094
65,forth,52,sanft,IAT_red3.bmp,red,ending_melody,melody,ending,m,positive,negative,ES_green,1,m,547,2362821,2363325,2363529
65,forth,53,kaputt,IAT_purple2.bmp,purple,starting_scream,scream,starting,c,negative,negative,ES_green,1,c,604,2365152,2365656,2365860
65,forth,54,feige,IAT_yellow2.bmp,yellow,starting_melody,melody,starting,c,negative,positive,ES_green,1,c,729,2367540,2368044,2368248
65,forth,55,witzig,IAT_green1.bmp,green,ending_scream,scream,ending,m,positive,positive,ES_green,1,m,566,2370051,2370556,2370760
65,forth,56,gesund,IAT_purple3.bmp,purple,starting_scream,scream,starting,m,positive,negative,ES_green,1,m,489,2372402,2372906,2373116
65,forth,57,einsam,IAT_purple2.bmp,purple,starting_scream,scream,starting,c,negative,negative,ES_green,0,m,501,2374683,2375187,2375391
65,forth,58,schön,IAT_yellow4.bmp,yellow,starting_melody,melody,starting,m,positive,positive,ES_green,1,m,435,2377468,2377973,2378177
65,forth,59,ehrlich,IAT_green1.bmp,green,ending_scream,scream,ending,m,positive,positive,ES_green,1,m,625,2379687,2380191,2380395
65,forth,60,krank,IAT_red2.bmp,red,ending_melody,melody,ending,c,negative,negative,ES_green,1,c,541,2382095,2382599,2382804
65,forth,61,brutal,IAT_yellow1.bmp,yellow,starting_melody,melody,starting,c,negative,positive,ES_green,1,c,503,2384421,2384925,2385129
65,forth,62,falsch,IAT_purple4.bmp,purple,starting_scream,scream,starting,c,negative,negative,ES_green,1,c,616,2386708,2387212,2387416
65,forth,63,witzig,IAT_yellow3.bmp,yellow,starting_melody,melody,starting,m,positive,positive,ES_green,1,m,521,2389107,2389612,2389816
65,forth,64,kaputt,IAT_purple3.bmp,purple,starting_scream,scream,starting,c,negative,negative,ES_green,1,c,472,2391412,2391916,2392120
65,forth,65,lästig,IAT_red1.bmp,red,ending_melody,melody,ending,c,negative,negative,ES_green,1,c,819,2393668,2394173,2394377
65,forth,66,einsam,IAT_green1.bmp,green,ending_scream,scream,ending,c,negative,positive,ES_green,0,m,626,2396272,2396776,2396980
65,forth,67,human,IAT_green1.bmp,green,ending_scream,scream,ending,m,positive,positive,ES_green,1,m,591,2399182,2399686,2399890
65,forth,68,geizig,IAT_green4.bmp,green,ending_scream,scream,ending,c,negative,positive,ES_green,1,c,629,2401557,2402061,2402265
65,forth,69,sonnig,IAT_red2.bmp,red,ending_melody,melody,ending,m,positive,negative,ES_green,1,m,519,2403970,2404474,2404678
65,forth,70,gerecht,IAT_green1.bmp,green,ending_scream,scream,ending,m,positive,positive,ES_green,1,m,1082,2406272,2406777,2406981
65,forth,71,morsch,IAT_purple3.bmp,purple,starting_scream,scream,starting,c,negative,negative,ES_green,1,c,592,2409140,2409644,2409848
65,forth,72,lustig,IAT_green3.bmp,green,ending_scream,scream,ending,m,positive,positive,ES_green,1,m,503,2411516,2412020,2412224
65,forth,73,sanft,IAT_red3.bmp,red,ending_melody,melody,ending,m,positive,negative,ES_green,1,m,513,2413803,2414307,2414511
65,forth,74,brutal,IAT_purple4.bmp,purple,starting_scream,scream,starting,c,negative,negative,ES_green,1,c,485,2416100,2416604,2416808
65,forth,75,munter,IAT_green4.bmp,green,ending_scream,scream,ending,m,positive,positive,ES_green,1,m,630,2418368,2418873,2419077
65,forth,76,heiter,IAT_purple3.bmp,purple,starting_scream,scream,starting,m,positive,negative,ES_green,1,m,510,2420783,2421287,2421491
65,forth,77,schön,IAT_yellow2.bmp,yellow,starting_melody,melody,starting,m,positive,positive,ES_green,1,m,502,2423077,2423582,2423786
65,forth,78,krank,IAT_purple2.bmp,purple,starting_scream,scream,starting,c,negative,negative,ES_green,1,c,577,2425364,2425868,2426072
65,forth,79,teuer,IAT_green2.bmp,green,ending_scream,scream,ending,c,negative,positive,ES_green,1,c,700,2427724,2428229,2428433
65,forth,80,gierig,IAT_yellow4.bmp,yellow,starting_melody,melody,starting,c,negative,positive,ES_green,1,c,748,2430210,2430714,2430918
65,forth,81,kaputt,IAT_yellow4.bmp,yellow,starting_melody,melody,starting,c,negative,positive,ES_green,1,c,1216,2432742,2433246,2433450
65,forth,82,munter,IAT_purple3.bmp,purple,starting_scream,scream,starting,m,positive,negative,ES_green,1,m,533,2435742,2436246,2436450
65,forth,83,gierig,IAT_yellow2.bmp,yellow,starting_melody,melody,starting,c,negative,positive,ES_green,1,c,611,2438059,2438563,2438767
65,forth,84,morsch,IAT_green4.bmp,green,ending_scream,scream,ending,c,negative,positive,ES_green,1,c,596,2440454,2440958,2441162
65,forth,85,schön,IAT_red2.bmp,red,ending_melody,melody,ending,m,positive,negative,ES_green,1,m,639,2442834,2443338,2443542
65,forth,86,human,IAT_red1.bmp,red,ending_melody,melody,ending,m,positive,negative,ES_green,1,m,507,2445257,2445761,2445965
65,forth,87,munter,IAT_red4.bmp,red,ending_melody,melody,ending,m,positive,negative,ES_green,1,m,529,2447548,2448053,2448257
65,forth,88,sozial,IAT_yellow3.bmp,yellow,starting_melody,melody,starting,m,positive,positive,ES_green,1,m,489,2449862,2450366,2450570
65,forth,89,geizig,IAT_green4.bmp,green,ending_scream,scream,ending,c,negative,positive,ES_green,1,c,810,2452134,2452639,2452843
65,forth,90,witzig,IAT_purple2.bmp,purple,starting_scream,scream,starting,m,positive,negative,ES_green,1,m,958,2454731,2455235,2455439
65,forth,91,heiter,IAT_red1.bmp,red,ending_melody,melody,ending,m,positive,negative,ES_green,1,m,483,2457473,2457977,2458181
65,forth,92,gierig,IAT_red2.bmp,red,ending_melody,melody,ending,c,negative,negative,ES_green,1,c,767,2459740,2460244,2460448
65,forth,93,gesund,IAT_yellow1.bmp,yellow,starting_melody,melody,starting,m,positive,positive,ES_green,1,m,735,2462291,2462796,2463000
65,forth,94,feige,IAT_red1.bmp,red,ending_melody,melody,ending,c,negative,negative,ES_green,1,c,609,2464811,2465315,2465519
65,forth,95,falsch,IAT_purple1.bmp,purple,starting_scream,scream,starting,c,negative,negative,ES_green,1,c,661,2467203,2467708,2467912
