subject_nr,block,trialnr,trial_target,trial_prime,prime_color,prime_role,prime_us,prime_relation,correct_response,target_valence,prime_valence,color_counter,correct_first_response,response_first_response,response_time_first_response,fixation_show,prime_show,target_show
58,first,0,schön,IAT_purple2.bmp,purple,ending_melody,melody,ending,m,positive,negative,ES_yellow,1,m,610,1558216,1558720,1558924
58,first,1,heiter,IAT_red2.bmp,red,starting_melody,melody,starting,m,positive,positive,ES_yellow,1,m,541,1560611,1561116,1561320
58,first,2,munter,IAT_yellow1.bmp,yellow,ending_scream,scream,ending,m,positive,positive,ES_yellow,1,m,527,1562935,1563439,1563644
58,first,3,heiter,IAT_purple2.bmp,purple,ending_melody,melody,ending,m,positive,negative,ES_yellow,1,m,489,1565246,1565750,1565954
58,first,4,sozial,IAT_green2.bmp,green,starting_scream,scream,starting,m,positive,negative,ES_yellow,1,m,541,1567517,1568021,1568226
58,first,5,lästig,IAT_green2.bmp,green,starting_scream,scream,starting,c,negative,negative,ES_yellow,1,c,568,1569841,1570345,1570550
58,first,6,gesund,IAT_yellow3.bmp,yellow,ending_scream,scream,ending,m,positive,positive,ES_yellow,1,m,447,1572192,1572696,1572901
58,first,7,witzig,IAT_yellow3.bmp,yellow,ending_scream,scream,ending,m,positive,positive,ES_yellow,1,m,518,1574423,1574927,1575131
58,first,8,morsch,IAT_green2.bmp,green,starting_scream,scream,starting,c,negative,negative,ES_yellow,1,c,584,1576724,1577228,1577433
58,first,9,lästig,IAT_yellow1.bmp,yellow,ending_scream,scream,ending,c,negative,positive,ES_yellow,1,c,557,1579090,1579595,1579800
58,first,10,ehrlich,IAT_purple1.bmp,purple,ending_melody,melody,ending,m,positive,negative,ES_yellow,1,m,470,1581430,1581934,1582139
58,first,11,gierig,IAT_green3.bmp,green,starting_scream,scream,starting,c,negative,negative,ES_yellow,1,c,507,1583686,1584190,1584394
58,first,12,sonnig,IAT_green1.bmp,green,starting_scream,scream,starting,m,positive,negative,ES_yellow,1,m,455,1585975,1586479,1586684
58,first,13,brutal,IAT_red4.bmp,red,starting_melody,melody,starting,c,negative,positive,ES_yellow,1,c,536,1588214,1588719,1588923
58,first,14,schön,IAT_green3.bmp,green,starting_scream,scream,starting,m,positive,negative,ES_yellow,1,m,418,1590534,1591038,1591242
58,first,15,teuer,IAT_red3.bmp,red,starting_melody,melody,starting,c,negative,positive,ES_yellow,1,c,511,1592735,1593240,1593445
58,first,16,falsch,IAT_red2.bmp,red,starting_melody,melody,starting,c,negative,positive,ES_yellow,1,c,496,1595030,1595534,1595739
58,first,17,sozial,IAT_yellow1.bmp,yellow,ending_scream,scream,ending,m,positive,positive,ES_yellow,1,m,488,1597310,1597814,1598019
58,first,18,krank,IAT_yellow2.bmp,yellow,ending_scream,scream,ending,c,negative,positive,ES_yellow,1,c,569,1599580,1600084,1600289
58,first,19,teuer,IAT_green1.bmp,green,starting_scream,scream,starting,c,negative,negative,ES_yellow,1,c,433,1601934,1602438,1602643
58,first,20,sanft,IAT_yellow2.bmp,yellow,ending_scream,scream,ending,m,positive,positive,ES_yellow,1,m,561,1604151,1604655,1604860
58,first,21,geizig,IAT_red4.bmp,red,starting_melody,melody,starting,c,negative,positive,ES_yellow,1,c,421,1606496,1607001,1607206
58,first,22,morsch,IAT_green4.bmp,green,starting_scream,scream,starting,c,negative,negative,ES_yellow,1,c,524,1608702,1609206,1609411
58,first,23,gierig,IAT_yellow1.bmp,yellow,ending_scream,scream,ending,c,negative,positive,ES_yellow,1,c,508,1611010,1611514,1611719
58,first,24,witzig,IAT_red3.bmp,red,starting_melody,melody,starting,m,positive,positive,ES_yellow,1,m,543,1613301,1613806,1614011
58,first,25,schön,IAT_red3.bmp,red,starting_melody,melody,starting,m,positive,positive,ES_yellow,1,m,551,1615628,1616132,1616336
58,first,26,sonnig,IAT_purple3.bmp,purple,ending_melody,melody,ending,m,positive,negative,ES_yellow,1,m,510,1617961,1618466,1618671
58,first,27,kaputt,IAT_red2.bmp,red,starting_melody,melody,starting,c,negative,positive,ES_yellow,1,c,409,1620256,1620760,1620964
58,first,28,brutal,IAT_yellow4.bmp,yellow,ending_scream,scream,ending,c,negative,positive,ES_yellow,1,c,482,1622448,1622952,1623157
58,first,29,feige,IAT_purple3.bmp,purple,ending_melody,melody,ending,c,negative,negative,ES_yellow,1,c,662,1624714,1625218,1625423
58,first,30,morsch,IAT_purple1.bmp,purple,ending_melody,melody,ending,c,negative,negative,ES_yellow,1,c,536,1627160,1627664,1627869
58,first,31,kaputt,IAT_purple4.bmp,purple,ending_melody,melody,ending,c,negative,negative,ES_yellow,1,c,444,1629481,1629985,1630190
58,first,32,einsam,IAT_green2.bmp,green,starting_scream,scream,starting,c,negative,negative,ES_yellow,0,m,545,1631708,1632214,1632418
58,first,33,lästig,IAT_purple3.bmp,purple,ending_melody,melody,ending,c,negative,negative,ES_yellow,0,m,518,1634537,1635042,1635247
58,first,34,sozial,IAT_yellow4.bmp,yellow,ending_scream,scream,ending,m,positive,positive,ES_yellow,1,m,595,1637341,1637845,1638050
58,first,35,feige,IAT_green1.bmp,green,starting_scream,scream,starting,c,negative,negative,ES_yellow,1,c,499,1639720,1640224,1640429
58,first,36,ehrlich,IAT_purple3.bmp,purple,ending_melody,melody,ending,m,positive,negative,ES_yellow,1,m,598,1642003,1642508,1642712
58,first,37,krank,IAT_purple4.bmp,purple,ending_melody,melody,ending,c,negative,negative,ES_yellow,1,c,513,1644385,1644889,1645093
58,first,38,falsch,IAT_red2.bmp,red,starting_melody,melody,starting,c,negative,positive,ES_yellow,1,c,449,1646681,1647186,1647391
58,first,39,lustig,IAT_green3.bmp,green,starting_scream,scream,starting,m,positive,negative,ES_yellow,1,m,506,1648916,1649421,1649626
58,first,40,gerecht,IAT_red3.bmp,red,starting_melody,melody,starting,m,positive,positive,ES_yellow,0,c,456,1651207,1651711,1651916
58,first,41,lustig,IAT_purple4.bmp,purple,ending_melody,melody,ending,m,positive,negative,ES_yellow,1,m,535,1653946,1654451,1654656
58,first,42,streng,IAT_yellow4.bmp,yellow,ending_scream,scream,ending,c,negative,positive,ES_yellow,1,c,625,1656266,1656770,1656974
58,first,43,munter,IAT_green1.bmp,green,starting_scream,scream,starting,m,positive,negative,ES_yellow,1,m,597,1658675,1659179,1659383
58,first,44,sanft,IAT_purple3.bmp,purple,ending_melody,melody,ending,m,positive,negative,ES_yellow,1,m,604,1661055,1661559,1661763
58,first,45,kaputt,IAT_purple2.bmp,purple,ending_melody,melody,ending,c,negative,negative,ES_yellow,1,c,501,1663443,1663947,1664151
58,first,46,feige,IAT_yellow4.bmp,yellow,ending_scream,scream,ending,c,negative,positive,ES_yellow,1,c,552,1665729,1666234,1666438
58,first,47,krank,IAT_green4.bmp,green,starting_scream,scream,starting,c,negative,negative,ES_yellow,1,c,510,1668065,1668569,1668774
58,first,48,feige,IAT_purple2.bmp,purple,ending_melody,melody,ending,c,negative,negative,ES_yellow,1,c,444,1670359,1670864,1671068
58,first,49,falsch,IAT_yellow3.bmp,yellow,ending_scream,scream,ending,c,negative,positive,ES_yellow,1,c,463,1672586,1673090,1673295
58,first,50,gesund,IAT_red4.bmp,red,starting_melody,melody,starting,m,positive,positive,ES_yellow,1,m,536,1674834,1675338,1675542
58,first,51,human,IAT_yellow4.bmp,yellow,ending_scream,scream,ending,m,positive,positive,ES_yellow,1,m,639,1677155,1677659,1677863
58,first,52,lästig,IAT_yellow2.bmp,yellow,ending_scream,scream,ending,c,negative,positive,ES_yellow,0,m,594,1679577,1680081,1680286
58,first,53,witzig,IAT_green3.bmp,green,starting_scream,scream,starting,m,positive,negative,ES_yellow,1,m,575,1682456,1682961,1683165
58,first,54,sanft,IAT_red1.bmp,red,starting_melody,melody,starting,m,positive,positive,ES_yellow,1,m,686,1684815,1685320,1685524
58,first,55,munter,IAT_yellow3.bmp,yellow,ending_scream,scream,ending,m,positive,positive,ES_yellow,1,m,553,1687285,1687790,1687995
58,first,56,human,IAT_green4.bmp,green,starting_scream,scream,starting,m,positive,negative,ES_yellow,1,m,562,1689623,1690128,1690332
58,first,57,einsam,IAT_red3.bmp,red,starting_melody,melody,starting,c,negative,positive,ES_yellow,0,m,562,1691969,1692474,1692679
58,first,58,geizig,IAT_red4.bmp,red,starting_melody,melody,starting,c,negative,positive,ES_yellow,1,c,537,1694817,1695321,1695526
58,first,59,sanft,IAT_red1.bmp,red,starting_melody,melody,starting,m,positive,positive,ES_yellow,1,m,564,1697138,1697642,1697847
58,first,60,gesund,IAT_red1.bmp,red,starting_melody,melody,starting,m,positive,positive,ES_yellow,1,m,583,1699486,1699991,1700195
58,first,61,streng,IAT_yellow3.bmp,yellow,ending_scream,scream,ending,c,negative,positive,ES_yellow,1,c,476,1701854,1702358,1702562
58,first,62,gierig,IAT_green4.bmp,green,starting_scream,scream,starting,c,negative,negative,ES_yellow,1,c,464,1704112,1704616,1704821
58,first,63,ehrlich,IAT_purple1.bmp,purple,ending_melody,melody,ending,m,positive,negative,ES_yellow,1,m,582,1706361,1706865,1707070
58,first,64,falsch,IAT_red1.bmp,red,starting_melody,melody,starting,c,negative,positive,ES_yellow,1,c,459,1708727,1709231,1709436
58,first,65,geizig,IAT_green3.bmp,green,starting_scream,scream,starting,c,negative,negative,ES_yellow,1,c,604,1710971,1711475,1711680
58,first,66,morsch,IAT_purple4.bmp,purple,ending_melody,melody,ending,c,negative,negative,ES_yellow,1,c,566,1713359,1713864,1714069
58,first,67,brutal,IAT_purple4.bmp,purple,ending_melody,melody,ending,c,negative,negative,ES_yellow,1,c,502,1715710,1716215,1716420
58,first,68,gerecht,IAT_green2.bmp,green,starting_scream,scream,starting,m,positive,negative,ES_yellow,1,m,592,1717997,1718502,1718706
58,first,69,sonnig,IAT_purple1.bmp,purple,ending_melody,melody,ending,m,positive,negative,ES_yellow,1,m,577,1720374,1720879,1721084
58,first,70,lustig,IAT_green1.bmp,green,starting_scream,scream,starting,m,positive,negative,ES_yellow,1,m,493,1722736,1723240,1723444
58,first,71,ehrlich,IAT_purple3.bmp,purple,ending_melody,melody,ending,m,positive,negative,ES_yellow,1,m,502,1725013,1725518,1725722
58,first,72,streng,IAT_yellow2.bmp,yellow,ending_scream,scream,ending,c,negative,positive,ES_yellow,1,c,587,1727299,1727804,1728009
58,first,73,krank,IAT_red1.bmp,red,starting_melody,melody,starting,c,negative,positive,ES_yellow,1,c,458,1729671,1730176,1730381
58,first,74,sonnig,IAT_green3.bmp,green,starting_scream,scream,starting,m,positive,negative,ES_yellow,1,m,498,1731915,1732419,1732623
58,first,75,geizig,IAT_green4.bmp,green,starting_scream,scream,starting,c,negative,negative,ES_yellow,1,c,513,1734196,1734700,1734904
58,first,76,schön,IAT_yellow1.bmp,yellow,ending_scream,scream,ending,m,positive,positive,ES_yellow,1,m,468,1736494,1736998,1737202
58,first,77,gerecht,IAT_purple1.bmp,purple,ending_melody,melody,ending,m,positive,negative,ES_yellow,0,c,480,1738746,1739250,1739454
58,first,78,streng,IAT_red4.bmp,red,starting_melody,melody,starting,c,negative,positive,ES_yellow,1,c,537,1741510,1742014,1742219
58,first,79,human,IAT_yellow1.bmp,yellow,ending_scream,scream,ending,m,positive,positive,ES_yellow,1,m,555,1743831,1744335,1744540
58,first,80,gierig,IAT_yellow4.bmp,yellow,ending_scream,scream,ending,c,negative,positive,ES_yellow,1,c,529,1746171,1746677,1746881
58,first,81,einsam,IAT_purple2.bmp,purple,ending_melody,melody,ending,c,negative,negative,ES_yellow,1,c,683,1748485,1748989,1749193
58,first,82,brutal,IAT_red2.bmp,red,starting_melody,melody,starting,c,negative,positive,ES_yellow,1,c,497,1750951,1751456,1751661
58,first,83,lustig,IAT_green1.bmp,green,starting_scream,scream,starting,m,positive,negative,ES_yellow,1,m,483,1753233,1753738,1753942
58,first,84,teuer,IAT_purple1.bmp,purple,ending_melody,melody,ending,c,negative,negative,ES_yellow,1,c,558,1755501,1756005,1756210
58,first,85,heiter,IAT_red3.bmp,red,starting_melody,melody,starting,m,positive,positive,ES_yellow,1,m,618,1757845,1758349,1758554
58,first,86,gerecht,IAT_red1.bmp,red,starting_melody,melody,starting,m,positive,positive,ES_yellow,1,m,586,1760248,1760753,1760958
58,first,87,witzig,IAT_yellow2.bmp,yellow,ending_scream,scream,ending,m,positive,positive,ES_yellow,1,m,580,1762619,1763123,1763328
58,first,88,munter,IAT_yellow3.bmp,yellow,ending_scream,scream,ending,m,positive,positive,ES_yellow,1,m,494,1764985,1765489,1765694
58,first,89,einsam,IAT_purple2.bmp,purple,ending_melody,melody,ending,c,negative,negative,ES_yellow,1,c,630,1767264,1767769,1767973
58,first,90,sozial,IAT_purple4.bmp,purple,ending_melody,melody,ending,m,positive,negative,ES_yellow,1,m,527,1769680,1770184,1770389
58,first,91,heiter,IAT_green4.bmp,green,starting_scream,scream,starting,m,positive,negative,ES_yellow,1,m,553,1771992,1772497,1772702
58,first,92,kaputt,IAT_yellow2.bmp,yellow,ending_scream,scream,ending,c,negative,positive,ES_yellow,1,c,396,1774331,1774836,1775041
58,first,93,teuer,IAT_green2.bmp,green,starting_scream,scream,starting,c,negative,negative,ES_yellow,1,c,474,1776514,1777018,1777223
58,first,94,human,IAT_red4.bmp,red,starting_melody,melody,starting,m,positive,positive,ES_yellow,1,m,535,1778775,1779279,1779483
58,first,95,gesund,IAT_red2.bmp,red,starting_melody,melody,starting,m,positive,positive,ES_yellow,1,m,684,1781095,1781599,1781804
58,second,0,brutal,IAT_purple2.bmp,purple,ending_melody,melody,ending,c,negative,negative,ES_yellow,1,c,548,1805055,1805560,1805764
58,second,1,lästig,IAT_yellow4.bmp,yellow,ending_scream,scream,ending,c,negative,positive,ES_yellow,0,m,411,1807388,1807894,1808098
58,second,2,ehrlich,IAT_red3.bmp,red,starting_melody,melody,starting,m,positive,positive,ES_yellow,1,m,571,1810086,1810590,1810794
58,second,3,morsch,IAT_yellow1.bmp,yellow,ending_scream,scream,ending,c,negative,positive,ES_yellow,1,c,556,1812441,1812945,1813150
58,second,4,einsam,IAT_yellow2.bmp,yellow,ending_scream,scream,ending,c,negative,positive,ES_yellow,0,m,489,1814782,1815286,1815491
58,second,5,munter,IAT_yellow3.bmp,yellow,ending_scream,scream,ending,m,positive,positive,ES_yellow,1,m,634,1817555,1818060,1818265
58,second,6,gierig,IAT_red3.bmp,red,starting_melody,melody,starting,c,negative,positive,ES_yellow,1,c,576,1819974,1820478,1820682
58,second,7,sozial,IAT_purple1.bmp,purple,ending_melody,melody,ending,m,positive,negative,ES_yellow,1,m,539,1822335,1822839,1823043
58,second,8,geizig,IAT_purple4.bmp,purple,ending_melody,melody,ending,c,negative,negative,ES_yellow,1,c,586,1824656,1825160,1825364
58,second,9,kaputt,IAT_yellow4.bmp,yellow,ending_scream,scream,ending,c,negative,positive,ES_yellow,1,c,508,1827026,1827531,1827736
58,second,10,feige,IAT_purple2.bmp,purple,ending_melody,melody,ending,c,negative,negative,ES_yellow,1,c,536,1829320,1829824,1830029
58,second,11,sonnig,IAT_green1.bmp,green,starting_scream,scream,starting,m,positive,negative,ES_yellow,1,m,431,1831638,1832143,1832348
58,second,12,gesund,IAT_red4.bmp,red,starting_melody,melody,starting,m,positive,positive,ES_yellow,1,m,572,1833854,1834358,1834563
58,second,13,schön,IAT_yellow4.bmp,yellow,ending_scream,scream,ending,m,positive,positive,ES_yellow,1,m,467,1836210,1836715,1836920
58,second,14,witzig,IAT_red2.bmp,red,starting_melody,melody,starting,m,positive,positive,ES_yellow,1,m,569,1838463,1838967,1839171
58,second,15,brutal,IAT_red2.bmp,red,starting_melody,melody,starting,c,negative,positive,ES_yellow,1,c,487,1840816,1841320,1841524
58,second,16,einsam,IAT_red4.bmp,red,starting_melody,melody,starting,c,negative,positive,ES_yellow,0,m,458,1843086,1843591,1843795
58,second,17,morsch,IAT_purple4.bmp,purple,ending_melody,melody,ending,c,negative,negative,ES_yellow,1,c,578,1845827,1846331,1846535
58,second,18,feige,IAT_red2.bmp,red,starting_melody,melody,starting,c,negative,positive,ES_yellow,1,c,543,1848189,1848694,1848898
58,second,19,sozial,IAT_purple1.bmp,purple,ending_melody,melody,ending,m,positive,negative,ES_yellow,1,m,492,1850516,1851020,1851224
58,second,20,heiter,IAT_yellow3.bmp,yellow,ending_scream,scream,ending,m,positive,positive,ES_yellow,1,m,586,1852792,1853297,1853501
58,second,21,lustig,IAT_yellow3.bmp,yellow,ending_scream,scream,ending,m,positive,positive,ES_yellow,1,m,491,1855163,1855667,1855871
58,second,22,sonnig,IAT_green2.bmp,green,starting_scream,scream,starting,m,positive,negative,ES_yellow,1,m,462,1857436,1857940,1858144
58,second,23,schön,IAT_yellow1.bmp,yellow,ending_scream,scream,ending,m,positive,positive,ES_yellow,1,m,472,1859683,1860187,1860392
58,second,24,sanft,IAT_green4.bmp,green,starting_scream,scream,starting,m,positive,negative,ES_yellow,1,m,544,1861939,1862444,1862649
58,second,25,gierig,IAT_yellow2.bmp,yellow,ending_scream,scream,ending,c,negative,positive,ES_yellow,1,c,426,1864268,1864774,1864978
58,second,26,munter,IAT_purple4.bmp,purple,ending_melody,melody,ending,m,positive,negative,ES_yellow,1,m,592,1866478,1866982,1867186
58,second,27,human,IAT_red1.bmp,red,starting_melody,melody,starting,m,positive,positive,ES_yellow,1,m,563,1868855,1869359,1869564
58,second,28,ehrlich,IAT_green1.bmp,green,starting_scream,scream,starting,m,positive,negative,ES_yellow,1,m,583,1871202,1871706,1871911
58,second,29,sozial,IAT_yellow3.bmp,yellow,ending_scream,scream,ending,m,positive,positive,ES_yellow,1,m,545,1873568,1874074,1874278
58,second,30,gerecht,IAT_purple4.bmp,purple,ending_melody,melody,ending,m,positive,negative,ES_yellow,0,c,590,1875897,1876401,1876605
58,second,31,streng,IAT_green4.bmp,green,starting_scream,scream,starting,c,negative,negative,ES_yellow,1,c,717,1878771,1879275,1879480
58,second,32,lästig,IAT_purple1.bmp,purple,ending_melody,melody,ending,c,negative,negative,ES_yellow,1,c,585,1881272,1881776,1881981
58,second,33,sanft,IAT_yellow1.bmp,yellow,ending_scream,scream,ending,m,positive,positive,ES_yellow,1,m,531,1883643,1884148,1884352
58,second,34,kaputt,IAT_yellow3.bmp,yellow,ending_scream,scream,ending,c,negative,positive,ES_yellow,1,c,441,1885958,1886463,1886668
58,second,35,krank,IAT_yellow4.bmp,yellow,ending_scream,scream,ending,c,negative,positive,ES_yellow,1,c,491,1888185,1888689,1888893
58,second,36,kaputt,IAT_red4.bmp,red,starting_melody,melody,starting,c,negative,positive,ES_yellow,1,c,463,1890460,1890964,1891169
58,second,37,brutal,IAT_red2.bmp,red,starting_melody,melody,starting,c,negative,positive,ES_yellow,1,c,402,1892707,1893211,1893416
58,second,38,teuer,IAT_yellow3.bmp,yellow,ending_scream,scream,ending,c,negative,positive,ES_yellow,1,c,564,1894894,1895398,1895603
58,second,39,munter,IAT_red2.bmp,red,starting_melody,melody,starting,m,positive,positive,ES_yellow,1,m,558,1897244,1897748,1897952
58,second,40,human,IAT_yellow2.bmp,yellow,ending_scream,scream,ending,m,positive,positive,ES_yellow,1,m,628,1899586,1900090,1900294
58,second,41,kaputt,IAT_purple4.bmp,purple,ending_melody,melody,ending,c,negative,negative,ES_yellow,1,c,481,1901998,1902502,1902706
58,second,42,brutal,IAT_green2.bmp,green,starting_scream,scream,starting,c,negative,negative,ES_yellow,1,c,404,1904263,1904768,1904972
58,second,43,gierig,IAT_purple2.bmp,purple,ending_melody,melody,ending,c,negative,negative,ES_yellow,1,c,487,1906451,1906956,1907161
58,second,44,gesund,IAT_purple1.bmp,purple,ending_melody,melody,ending,m,positive,negative,ES_yellow,1,m,537,1908725,1909229,1909433
58,second,45,schön,IAT_green3.bmp,green,starting_scream,scream,starting,m,positive,negative,ES_yellow,1,m,450,1911046,1911550,1911754
58,second,46,geizig,IAT_green4.bmp,green,starting_scream,scream,starting,c,negative,negative,ES_yellow,1,c,485,1913280,1913785,1913990
58,second,47,ehrlich,IAT_green1.bmp,green,starting_scream,scream,starting,m,positive,negative,ES_yellow,1,m,465,1915550,1916054,1916259
58,second,48,falsch,IAT_red1.bmp,red,starting_melody,melody,starting,c,negative,positive,ES_yellow,1,c,421,1917800,1918306,1918510
58,second,49,gerecht,IAT_red3.bmp,red,starting_melody,melody,starting,m,positive,positive,ES_yellow,0,c,421,1920006,1920511,1920716
58,second,50,heiter,IAT_green2.bmp,green,starting_scream,scream,starting,m,positive,negative,ES_yellow,1,m,500,1922712,1923217,1923422
58,second,51,lustig,IAT_green3.bmp,green,starting_scream,scream,starting,m,positive,negative,ES_yellow,1,m,491,1924997,1925501,1925705
58,second,52,streng,IAT_purple1.bmp,purple,ending_melody,melody,ending,c,negative,negative,ES_yellow,1,c,580,1927273,1927777,1927982
58,second,53,morsch,IAT_green4.bmp,green,starting_scream,scream,starting,c,negative,negative,ES_yellow,1,c,524,1929636,1930140,1930344
58,second,54,heiter,IAT_red3.bmp,red,starting_melody,melody,starting,m,positive,positive,ES_yellow,1,m,446,1931945,1932449,1932654
58,second,55,krank,IAT_yellow4.bmp,yellow,ending_scream,scream,ending,c,negative,positive,ES_yellow,1,c,452,1934176,1934680,1934885
58,second,56,lustig,IAT_yellow1.bmp,yellow,ending_scream,scream,ending,m,positive,positive,ES_yellow,1,m,473,1936413,1936918,1937123
58,second,57,falsch,IAT_purple3.bmp,purple,ending_melody,melody,ending,c,negative,negative,ES_yellow,1,c,506,1938672,1939176,1939381
58,second,58,krank,IAT_purple2.bmp,purple,ending_melody,melody,ending,c,negative,negative,ES_yellow,1,c,505,1940964,1941468,1941674
58,second,59,gierig,IAT_purple3.bmp,purple,ending_melody,melody,ending,c,negative,negative,ES_yellow,1,c,441,1943254,1943758,1943962
58,second,60,gesund,IAT_green1.bmp,green,starting_scream,scream,starting,m,positive,negative,ES_yellow,1,m,455,1945477,1945982,1946187
58,second,61,falsch,IAT_green3.bmp,green,starting_scream,scream,starting,c,negative,negative,ES_yellow,1,c,394,1947719,1948224,1948428
58,second,62,human,IAT_red1.bmp,red,starting_melody,melody,starting,m,positive,positive,ES_yellow,1,m,564,1949897,1950401,1950605
58,second,63,witzig,IAT_red3.bmp,red,starting_melody,melody,starting,m,positive,positive,ES_yellow,1,m,520,1952245,1952750,1952954
58,second,64,morsch,IAT_green2.bmp,green,starting_scream,scream,starting,c,negative,negative,ES_yellow,1,c,470,1954549,1955053,1955258
58,second,65,gerecht,IAT_purple2.bmp,purple,ending_melody,melody,ending,m,positive,negative,ES_yellow,0,c,468,1956804,1957308,1957512
58,second,66,teuer,IAT_green4.bmp,green,starting_scream,scream,starting,c,negative,negative,ES_yellow,1,c,525,1959555,1960059,1960263
58,second,67,witzig,IAT_green3.bmp,green,starting_scream,scream,starting,m,positive,negative,ES_yellow,1,m,475,1961865,1962369,1962574
58,second,68,streng,IAT_yellow1.bmp,yellow,ending_scream,scream,ending,c,negative,positive,ES_yellow,1,c,517,1964126,1964630,1964834
58,second,69,ehrlich,IAT_red1.bmp,red,starting_melody,melody,starting,m,positive,positive,ES_yellow,1,m,520,1966427,1966931,1967135
58,second,70,munter,IAT_purple3.bmp,purple,ending_melody,melody,ending,m,positive,negative,ES_yellow,1,m,840,1968731,1969235,1969440
58,second,71,einsam,IAT_green1.bmp,green,starting_scream,scream,starting,c,negative,negative,ES_yellow,1,c,720,1971356,1971860,1972064
58,second,72,krank,IAT_yellow2.bmp,yellow,ending_scream,scream,ending,c,negative,positive,ES_yellow,1,c,518,1973861,1974365,1974570
58,second,73,sanft,IAT_yellow4.bmp,yellow,ending_scream,scream,ending,m,positive,positive,ES_yellow,1,m,636,1976164,1976668,1976872
58,second,74,sonnig,IAT_purple3.bmp,purple,ending_melody,melody,ending,m,positive,negative,ES_yellow,1,m,609,1978583,1979088,1979292
58,second,75,teuer,IAT_green2.bmp,green,starting_scream,scream,starting,c,negative,negative,ES_yellow,1,c,454,1980977,1981481,1981686
58,second,76,witzig,IAT_red1.bmp,red,starting_melody,melody,starting,m,positive,positive,ES_yellow,1,m,509,1983216,1983720,1983924
58,second,77,geizig,IAT_red3.bmp,red,starting_melody,melody,starting,c,negative,positive,ES_yellow,1,c,509,1985511,1986015,1986220
58,second,78,human,IAT_purple3.bmp,purple,ending_melody,melody,ending,m,positive,negative,ES_yellow,1,m,537,1987804,1988308,1988513
58,second,79,heiter,IAT_yellow1.bmp,yellow,ending_scream,scream,ending,m,positive,positive,ES_yellow,1,m,546,1990127,1990631,1990835
58,second,80,lustig,IAT_green3.bmp,green,starting_scream,scream,starting,m,positive,negative,ES_yellow,1,m,603,1992457,1992961,1993166
58,second,81,gerecht,IAT_green4.bmp,green,starting_scream,scream,starting,m,positive,negative,ES_yellow,0,c,493,1994845,1995350,1995555
58,second,82,teuer,IAT_green3.bmp,green,starting_scream,scream,starting,c,negative,negative,ES_yellow,1,c,569,1997625,1998129,1998334
58,second,83,einsam,IAT_green1.bmp,green,starting_scream,scream,starting,c,negative,negative,ES_yellow,0,m,511,1999978,2000482,2000687
58,second,84,feige,IAT_red4.bmp,red,starting_melody,melody,starting,c,negative,positive,ES_yellow,1,c,654,2002774,2003279,2003484
58,second,85,sanft,IAT_purple2.bmp,purple,ending_melody,melody,ending,m,positive,negative,ES_yellow,1,m,477,2005214,2005718,2005923
58,second,86,schön,IAT_red4.bmp,red,starting_melody,melody,starting,m,positive,positive,ES_yellow,1,m,492,2007476,2007980,2008185
58,second,87,geizig,IAT_red4.bmp,red,starting_melody,melody,starting,c,negative,positive,ES_yellow,1,c,570,2009754,2010258,2010462
58,second,88,feige,IAT_purple4.bmp,purple,ending_melody,melody,ending,c,negative,negative,ES_yellow,1,c,521,2012108,2012613,2012818
58,second,89,streng,IAT_yellow2.bmp,yellow,ending_scream,scream,ending,c,negative,positive,ES_yellow,1,c,471,2014417,2014921,2015125
58,second,90,lästig,IAT_green2.bmp,green,starting_scream,scream,starting,c,negative,negative,ES_yellow,0,m,457,2016672,2017176,2017381
58,second,91,sozial,IAT_yellow2.bmp,yellow,ending_scream,scream,ending,m,positive,positive,ES_yellow,1,m,550,2019415,2019919,2020124
58,second,92,falsch,IAT_red2.bmp,red,starting_melody,melody,starting,c,negative,positive,ES_yellow,1,c,522,2021749,2022253,2022458
58,second,93,lästig,IAT_red1.bmp,red,starting_melody,melody,starting,c,negative,positive,ES_yellow,1,c,489,2024055,2024560,2024765
58,second,94,sonnig,IAT_purple1.bmp,purple,ending_melody,melody,ending,m,positive,negative,ES_yellow,1,m,573,2026331,2026835,2027040
58,second,95,gesund,IAT_purple3.bmp,purple,ending_melody,melody,ending,m,positive,negative,ES_yellow,1,m,556,2028689,2029193,2029398
58,third,0,heiter,IAT_green1.bmp,green,starting_scream,scream,starting,m,positive,negative,ES_yellow,1,m,501,2085945,2086449,2086653
58,third,1,streng,IAT_green1.bmp,green,starting_scream,scream,starting,c,negative,negative,ES_yellow,1,c,552,2088230,2088734,2088939
58,third,2,lästig,IAT_green2.bmp,green,starting_scream,scream,starting,c,negative,negative,ES_yellow,1,c,507,2090565,2091070,2091274
58,third,3,gerecht,IAT_green3.bmp,green,starting_scream,scream,starting,m,positive,negative,ES_yellow,0,c,468,2092856,2093360,2093564
58,third,4,munter,IAT_green3.bmp,green,starting_scream,scream,starting,m,positive,negative,ES_yellow,1,m,520,2095608,2096112,2096316
58,third,5,witzig,IAT_red1.bmp,red,starting_melody,melody,starting,m,positive,positive,ES_yellow,1,m,588,2097913,2098417,2098622
58,third,6,gesund,IAT_red3.bmp,red,starting_melody,melody,starting,m,positive,positive,ES_yellow,1,m,610,2100286,2100790,2100995
58,third,7,ehrlich,IAT_yellow1.bmp,yellow,ending_scream,scream,ending,m,positive,positive,ES_yellow,1,m,574,2102682,2103186,2103391
58,third,8,streng,IAT_red2.bmp,red,starting_melody,melody,starting,c,negative,positive,ES_yellow,1,c,623,2105040,2105545,2105750
58,third,9,human,IAT_red1.bmp,red,starting_melody,melody,starting,m,positive,positive,ES_yellow,1,m,516,2107448,2107952,2108156
58,third,10,morsch,IAT_yellow1.bmp,yellow,ending_scream,scream,ending,c,negative,positive,ES_yellow,1,c,553,2109748,2110253,2110458
58,third,11,munter,IAT_yellow3.bmp,yellow,ending_scream,scream,ending,m,positive,positive,ES_yellow,1,m,579,2112087,2112591,2112796
58,third,12,geizig,IAT_purple2.bmp,purple,ending_melody,melody,ending,c,negative,negative,ES_yellow,1,c,590,2114451,2114955,2115160
58,third,13,kaputt,IAT_purple3.bmp,purple,ending_melody,melody,ending,c,negative,negative,ES_yellow,1,c,498,2116826,2117330,2117534
58,third,14,einsam,IAT_purple1.bmp,purple,ending_melody,melody,ending,c,negative,negative,ES_yellow,0,m,492,2119109,2119613,2119817
58,third,15,gerecht,IAT_green2.bmp,green,starting_scream,scream,starting,m,positive,negative,ES_yellow,1,m,816,2121885,2122389,2122594
58,third,16,schön,IAT_red2.bmp,red,starting_melody,melody,starting,m,positive,positive,ES_yellow,1,m,594,2124486,2124990,2125195
58,third,17,feige,IAT_red2.bmp,red,starting_melody,melody,starting,c,negative,positive,ES_yellow,1,c,584,2126864,2127369,2127573
58,third,18,ehrlich,IAT_yellow1.bmp,yellow,ending_scream,scream,ending,m,positive,positive,ES_yellow,1,m,705,2129234,2129738,2129942
58,third,19,morsch,IAT_yellow2.bmp,yellow,ending_scream,scream,ending,c,negative,positive,ES_yellow,1,c,505,2131724,2132228,2132432
58,third,20,munter,IAT_purple3.bmp,purple,ending_melody,melody,ending,m,positive,negative,ES_yellow,1,m,576,2134012,2134517,2134721
58,third,21,kaputt,IAT_yellow4.bmp,yellow,ending_scream,scream,ending,c,negative,positive,ES_yellow,1,c,504,2136373,2136877,2137083
58,third,22,brutal,IAT_green2.bmp,green,starting_scream,scream,starting,c,negative,negative,ES_yellow,1,c,510,2138664,2139168,2139372
58,third,23,ehrlich,IAT_green4.bmp,green,starting_scream,scream,starting,m,positive,negative,ES_yellow,1,m,515,2140958,2141462,2141666
58,third,24,witzig,IAT_green1.bmp,green,starting_scream,scream,starting,m,positive,negative,ES_yellow,1,m,562,2143256,2143760,2143964
58,third,25,kaputt,IAT_purple2.bmp,purple,ending_melody,melody,ending,c,negative,negative,ES_yellow,1,c,488,2145602,2146107,2146312
58,third,26,sanft,IAT_purple1.bmp,purple,ending_melody,melody,ending,m,positive,negative,ES_yellow,1,m,552,2147876,2148380,2148585
58,third,27,heiter,IAT_green1.bmp,green,starting_scream,scream,starting,m,positive,negative,ES_yellow,1,m,506,2150213,2150718,2150922
58,third,28,sonnig,IAT_red1.bmp,red,starting_melody,melody,starting,m,positive,positive,ES_yellow,1,m,475,2152504,2153008,2153212
58,third,29,teuer,IAT_green2.bmp,green,starting_scream,scream,starting,c,negative,negative,ES_yellow,1,c,495,2154764,2155268,2155472
58,third,30,gerecht,IAT_yellow2.bmp,yellow,ending_scream,scream,ending,m,positive,positive,ES_yellow,1,m,774,2157044,2157548,2157752
58,third,31,gesund,IAT_red3.bmp,red,starting_melody,melody,starting,m,positive,positive,ES_yellow,1,m,549,2159602,2160106,2160311
58,third,32,geizig,IAT_yellow1.bmp,yellow,ending_scream,scream,ending,c,negative,positive,ES_yellow,1,c,641,2161936,2162441,2162645
58,third,33,streng,IAT_green4.bmp,green,starting_scream,scream,starting,c,negative,negative,ES_yellow,1,c,520,2164362,2164867,2165072
58,third,34,teuer,IAT_red3.bmp,red,starting_melody,melody,starting,c,negative,positive,ES_yellow,1,c,473,2166668,2167174,2167378
58,third,35,schön,IAT_green1.bmp,green,starting_scream,scream,starting,m,positive,negative,ES_yellow,1,m,463,2168926,2169430,2169634
58,third,36,gesund,IAT_purple3.bmp,purple,ending_melody,melody,ending,m,positive,negative,ES_yellow,1,m,722,2171174,2171679,2171883
58,third,37,gerecht,IAT_yellow3.bmp,yellow,ending_scream,scream,ending,m,positive,positive,ES_yellow,0,c,609,2173681,2174185,2174390
58,third,38,falsch,IAT_yellow4.bmp,yellow,ending_scream,scream,ending,c,negative,positive,ES_yellow,1,c,727,2176575,2177079,2177284
58,third,39,sanft,IAT_green3.bmp,green,starting_scream,scream,starting,m,positive,negative,ES_yellow,1,m,660,2179087,2179591,2179795
58,third,40,sonnig,IAT_red1.bmp,red,starting_melody,melody,starting,m,positive,positive,ES_yellow,1,m,462,2181530,2182034,2182239
58,third,41,brutal,IAT_green4.bmp,green,starting_scream,scream,starting,c,negative,negative,ES_yellow,1,c,517,2183776,2184280,2184484
58,third,42,lustig,IAT_purple3.bmp,purple,ending_melody,melody,ending,m,positive,negative,ES_yellow,1,m,515,2186076,2186580,2186784
58,third,43,feige,IAT_red4.bmp,red,starting_melody,melody,starting,c,negative,positive,ES_yellow,1,c,470,2188375,2188880,2189084
58,third,44,sonnig,IAT_red3.bmp,red,starting_melody,melody,starting,m,positive,positive,ES_yellow,1,m,486,2190630,2191134,2191339
58,third,45,teuer,IAT_red2.bmp,red,starting_melody,melody,starting,c,negative,positive,ES_yellow,1,c,434,2192900,2193404,2193609
58,third,46,morsch,IAT_green3.bmp,green,starting_scream,scream,starting,c,negative,negative,ES_yellow,1,c,522,2195120,2195625,2195829
58,third,47,feige,IAT_purple2.bmp,purple,ending_melody,melody,ending,c,negative,negative,ES_yellow,1,c,475,2197426,2197930,2198134
58,third,48,sozial,IAT_yellow4.bmp,yellow,ending_scream,scream,ending,m,positive,positive,ES_yellow,1,m,511,2199686,2200190,2200394
58,third,49,streng,IAT_green4.bmp,green,starting_scream,scream,starting,c,negative,negative,ES_yellow,1,c,455,2201982,2202487,2202691
58,third,50,lustig,IAT_purple4.bmp,purple,ending_melody,melody,ending,m,positive,negative,ES_yellow,1,m,431,2204222,2204726,2204931
58,third,51,witzig,IAT_yellow1.bmp,yellow,ending_scream,scream,ending,m,positive,positive,ES_yellow,1,m,637,2206438,2206942,2207146
58,third,52,sozial,IAT_purple1.bmp,purple,ending_melody,melody,ending,m,positive,negative,ES_yellow,1,m,473,2208859,2209364,2209568
58,third,53,teuer,IAT_red1.bmp,red,starting_melody,melody,starting,c,negative,positive,ES_yellow,1,c,493,2211116,2211621,2211825
58,third,54,sanft,IAT_yellow2.bmp,yellow,ending_scream,scream,ending,m,positive,positive,ES_yellow,1,m,438,2213395,2213899,2214104
58,third,55,lästig,IAT_purple4.bmp,purple,ending_melody,melody,ending,c,negative,negative,ES_yellow,1,c,624,2215616,2216121,2216325
58,third,56,gierig,IAT_red4.bmp,red,starting_melody,melody,starting,c,negative,positive,ES_yellow,1,c,457,2218026,2218530,2218734
58,third,57,kaputt,IAT_green3.bmp,green,starting_scream,scream,starting,c,negative,negative,ES_yellow,1,c,531,2220268,2220773,2220978
58,third,58,lästig,IAT_yellow2.bmp,yellow,ending_scream,scream,ending,c,negative,positive,ES_yellow,1,c,582,2222585,2223090,2223294
58,third,59,brutal,IAT_yellow4.bmp,yellow,ending_scream,scream,ending,c,negative,positive,ES_yellow,1,c,488,2224952,2225456,2225661
58,third,60,heiter,IAT_green2.bmp,green,starting_scream,scream,starting,m,positive,negative,ES_yellow,1,m,520,2227225,2227730,2227934
58,third,61,human,IAT_green4.bmp,green,starting_scream,scream,starting,m,positive,negative,ES_yellow,1,m,637,2229530,2230034,2230239
58,third,62,lustig,IAT_purple2.bmp,purple,ending_melody,melody,ending,m,positive,negative,ES_yellow,1,m,539,2231952,2232456,2232661
58,third,63,munter,IAT_purple3.bmp,purple,ending_melody,melody,ending,m,positive,negative,ES_yellow,0,c,519,2234276,2234781,2234986
58,third,64,krank,IAT_purple1.bmp,purple,ending_melody,melody,ending,c,negative,negative,ES_yellow,1,c,614,2237083,2237587,2237792
58,third,65,falsch,IAT_red3.bmp,red,starting_melody,melody,starting,c,negative,positive,ES_yellow,1,c,533,2239482,2239986,2240191
58,third,66,schön,IAT_purple1.bmp,purple,ending_melody,melody,ending,m,positive,negative,ES_yellow,1,m,473,2241801,2242305,2242510
58,third,67,heiter,IAT_red3.bmp,red,starting_melody,melody,starting,m,positive,positive,ES_yellow,1,m,497,2244059,2244564,2244768
58,third,68,sanft,IAT_green3.bmp,green,starting_scream,scream,starting,m,positive,negative,ES_yellow,1,m,685,2246342,2246846,2247051
58,third,69,sonnig,IAT_yellow4.bmp,yellow,ending_scream,scream,ending,m,positive,positive,ES_yellow,1,m,490,2248813,2249318,2249523
58,third,70,feige,IAT_yellow2.bmp,yellow,ending_scream,scream,ending,c,negative,positive,ES_yellow,1,c,571,2251090,2251594,2251799
58,third,71,human,IAT_yellow3.bmp,yellow,ending_scream,scream,ending,m,positive,positive,ES_yellow,1,m,537,2253446,2253950,2254154
58,third,72,ehrlich,IAT_purple2.bmp,purple,ending_melody,melody,ending,m,positive,negative,ES_yellow,1,m,600,2255767,2256271,2256475
58,third,73,krank,IAT_yellow2.bmp,yellow,ending_scream,scream,ending,c,negative,positive,ES_yellow,1,c,499,2258151,2258656,2258861
58,third,74,schön,IAT_purple4.bmp,purple,ending_melody,melody,ending,m,positive,negative,ES_yellow,1,m,581,2260436,2260940,2261144
58,third,75,gierig,IAT_purple4.bmp,purple,ending_melody,melody,ending,c,negative,negative,ES_yellow,1,c,437,2262802,2263306,2263511
58,third,76,sozial,IAT_red4.bmp,red,starting_melody,melody,starting,m,positive,positive,ES_yellow,1,m,464,2265024,2265528,2265734
58,third,77,geizig,IAT_purple4.bmp,purple,ending_melody,melody,ending,c,negative,negative,ES_yellow,0,m,510,2267273,2267777,2267982
58,third,78,falsch,IAT_yellow4.bmp,yellow,ending_scream,scream,ending,c,negative,positive,ES_yellow,1,c,510,2270068,2270572,2270776
58,third,79,brutal,IAT_green4.bmp,green,starting_scream,scream,starting,c,negative,negative,ES_yellow,1,c,606,2272363,2272867,2273071
58,third,80,gierig,IAT_green2.bmp,green,starting_scream,scream,starting,c,negative,negative,ES_yellow,1,c,492,2274753,2275258,2275462
58,third,81,einsam,IAT_red4.bmp,red,starting_melody,melody,starting,c,negative,positive,ES_yellow,0,m,436,2277030,2277535,2277739
58,third,82,lästig,IAT_purple2.bmp,purple,ending_melody,melody,ending,c,negative,negative,ES_yellow,1,c,1193,2279751,2280255,2280460
58,third,83,lustig,IAT_red2.bmp,red,starting_melody,melody,starting,m,positive,positive,ES_yellow,1,m,802,2282731,2283235,2283440
58,third,84,einsam,IAT_yellow3.bmp,yellow,ending_scream,scream,ending,c,negative,positive,ES_yellow,1,c,681,2285319,2285823,2286028
58,third,85,morsch,IAT_red4.bmp,red,starting_melody,melody,starting,c,negative,positive,ES_yellow,1,c,539,2287787,2288291,2288495
58,third,86,einsam,IAT_red1.bmp,red,starting_melody,melody,starting,c,negative,positive,ES_yellow,1,c,731,2290111,2290615,2290820
58,third,87,witzig,IAT_yellow3.bmp,yellow,ending_scream,scream,ending,m,positive,positive,ES_yellow,1,m,559,2292627,2293133,2293337
58,third,88,krank,IAT_green1.bmp,green,starting_scream,scream,starting,c,negative,negative,ES_yellow,1,c,1159,2294972,2295476,2295681
58,third,89,falsch,IAT_purple3.bmp,purple,ending_melody,melody,ending,c,negative,negative,ES_yellow,1,c,507,2297916,2298420,2298625
58,third,90,krank,IAT_yellow3.bmp,yellow,ending_scream,scream,ending,c,negative,positive,ES_yellow,1,c,588,2300208,2300712,2300916
58,third,91,human,IAT_red4.bmp,red,starting_melody,melody,starting,m,positive,positive,ES_yellow,1,m,569,2302580,2303085,2303290
58,third,92,gesund,IAT_yellow1.bmp,yellow,ending_scream,scream,ending,m,positive,positive,ES_yellow,0,c,492,2304935,2305439,2305643
58,third,93,gierig,IAT_red2.bmp,red,starting_melody,melody,starting,c,negative,positive,ES_yellow,1,c,591,2307713,2308218,2308422
58,third,94,sozial,IAT_purple1.bmp,purple,ending_melody,melody,ending,m,positive,negative,ES_yellow,1,m,570,2310089,2310594,2310799
58,third,95,geizig,IAT_purple4.bmp,purple,ending_melody,melody,ending,c,negative,negative,ES_yellow,1,c,738,2312445,2312949,2313153
58,forth,0,witzig,IAT_green1.bmp,green,starting_scream,scream,starting,m,positive,negative,ES_yellow,1,m,869,2345721,2346225,2346430
58,forth,1,sonnig,IAT_green1.bmp,green,starting_scream,scream,starting,m,positive,negative,ES_yellow,1,m,545,2348376,2348880,2349084
58,forth,2,witzig,IAT_green1.bmp,green,starting_scream,scream,starting,m,positive,negative,ES_yellow,1,m,523,2350705,2351210,2351414
58,forth,3,falsch,IAT_red4.bmp,red,starting_melody,melody,starting,c,negative,positive,ES_yellow,1,c,458,2353014,2353518,2353722
58,forth,4,sanft,IAT_red3.bmp,red,starting_melody,melody,starting,m,positive,positive,ES_yellow,1,m,456,2355256,2355760,2355964
58,forth,5,krank,IAT_green2.bmp,green,starting_scream,scream,starting,c,negative,negative,ES_yellow,1,c,480,2357495,2357999,2358203
58,forth,6,gerecht,IAT_green3.bmp,green,starting_scream,scream,starting,m,positive,negative,ES_yellow,1,m,643,2359760,2360264,2360469
58,forth,7,kaputt,IAT_green4.bmp,green,starting_scream,scream,starting,c,negative,negative,ES_yellow,1,c,429,2362187,2362691,2362897
58,forth,8,einsam,IAT_yellow3.bmp,yellow,ending_scream,scream,ending,c,negative,positive,ES_yellow,0,m,462,2364402,2364906,2365111
58,forth,9,sozial,IAT_yellow4.bmp,yellow,ending_scream,scream,ending,m,positive,positive,ES_yellow,1,m,616,2367148,2367652,2367856
58,forth,10,gierig,IAT_red2.bmp,red,starting_melody,melody,starting,c,negative,positive,ES_yellow,1,c,572,2369549,2370054,2370258
58,forth,11,lustig,IAT_purple2.bmp,purple,ending_melody,melody,ending,m,positive,negative,ES_yellow,1,m,468,2371906,2372410,2372614
58,forth,12,geizig,IAT_yellow2.bmp,yellow,ending_scream,scream,ending,c,negative,positive,ES_yellow,1,c,645,2374157,2374662,2374866
58,forth,13,morsch,IAT_green1.bmp,green,starting_scream,scream,starting,c,negative,negative,ES_yellow,1,c,511,2376586,2377091,2377295
58,forth,14,krank,IAT_purple2.bmp,purple,ending_melody,melody,ending,c,negative,negative,ES_yellow,1,c,537,2378882,2379386,2379591
58,forth,15,ehrlich,IAT_red3.bmp,red,starting_melody,melody,starting,m,positive,positive,ES_yellow,1,m,724,2381204,2381708,2381913
58,forth,16,gierig,IAT_purple1.bmp,purple,ending_melody,melody,ending,c,negative,negative,ES_yellow,1,c,544,2383714,2384218,2384424
58,forth,17,teuer,IAT_purple4.bmp,purple,ending_melody,melody,ending,c,negative,negative,ES_yellow,1,c,640,2386043,2386548,2386754
58,forth,18,munter,IAT_red3.bmp,red,starting_melody,melody,starting,m,positive,positive,ES_yellow,0,c,514,2388469,2388974,2389183
58,forth,19,morsch,IAT_red4.bmp,red,starting_melody,melody,starting,c,negative,positive,ES_yellow,1,c,584,2391272,2391776,2391981
58,forth,20,einsam,IAT_green4.bmp,green,starting_scream,scream,starting,c,negative,negative,ES_yellow,0,m,467,2393640,2394144,2394349
58,forth,21,gesund,IAT_green2.bmp,green,starting_scream,scream,starting,m,positive,negative,ES_yellow,1,m,724,2396392,2396896,2397101
58,forth,22,feige,IAT_green3.bmp,green,starting_scream,scream,starting,c,negative,negative,ES_yellow,1,c,496,2398901,2399406,2399610
58,forth,23,falsch,IAT_green3.bmp,green,starting_scream,scream,starting,c,negative,negative,ES_yellow,1,c,688,2401183,2401687,2401892
58,forth,24,lästig,IAT_purple3.bmp,purple,ending_melody,melody,ending,c,negative,negative,ES_yellow,1,c,602,2403656,2404160,2404365
58,forth,25,schön,IAT_purple4.bmp,purple,ending_melody,melody,ending,m,positive,negative,ES_yellow,1,m,509,2406043,2406548,2406752
58,forth,26,geizig,IAT_red3.bmp,red,starting_melody,melody,starting,c,negative,positive,ES_yellow,1,c,653,2408336,2408840,2409044
58,forth,27,sonnig,IAT_red1.bmp,red,starting_melody,melody,starting,m,positive,positive,ES_yellow,1,m,512,2410774,2411279,2411484
58,forth,28,morsch,IAT_purple3.bmp,purple,ending_melody,melody,ending,c,negative,negative,ES_yellow,1,c,495,2413072,2413576,2413781
58,forth,29,feige,IAT_red2.bmp,red,starting_melody,melody,starting,c,negative,positive,ES_yellow,1,c,567,2415353,2415857,2416061
58,forth,30,sozial,IAT_green1.bmp,green,starting_scream,scream,starting,m,positive,negative,ES_yellow,1,m,543,2417705,2418209,2418413
58,forth,31,heiter,IAT_red1.bmp,red,starting_melody,melody,starting,m,positive,positive,ES_yellow,1,m,617,2420031,2420535,2420740
58,forth,32,schön,IAT_green3.bmp,green,starting_scream,scream,starting,m,positive,negative,ES_yellow,1,m,475,2422434,2422938,2423144
58,forth,33,munter,IAT_yellow3.bmp,yellow,ending_scream,scream,ending,m,positive,positive,ES_yellow,1,m,653,2424695,2425199,2425404
58,forth,34,schön,IAT_purple1.bmp,purple,ending_melody,melody,ending,m,positive,negative,ES_yellow,1,m,482,2427133,2427638,2427842
58,forth,35,gesund,IAT_purple3.bmp,purple,ending_melody,melody,ending,m,positive,negative,ES_yellow,1,m,575,2429400,2429904,2430109
58,forth,36,human,IAT_red2.bmp,red,starting_melody,melody,starting,m,positive,positive,ES_yellow,1,m,562,2431759,2432263,2432468
58,forth,37,sonnig,IAT_yellow1.bmp,yellow,ending_scream,scream,ending,m,positive,positive,ES_yellow,1,m,416,2434106,2434611,2434816
58,forth,38,munter,IAT_red3.bmp,red,starting_melody,melody,starting,m,positive,positive,ES_yellow,1,m,482,2436308,2436812,2437018
58,forth,39,gerecht,IAT_yellow2.bmp,yellow,ending_scream,scream,ending,m,positive,positive,ES_yellow,1,m,737,2438576,2439080,2439284
58,forth,40,ehrlich,IAT_purple3.bmp,purple,ending_melody,melody,ending,m,positive,negative,ES_yellow,1,m,539,2441096,2441601,2441805
58,forth,41,witzig,IAT_purple2.bmp,purple,ending_melody,melody,ending,m,positive,negative,ES_yellow,1,m,598,2443420,2443924,2444129
58,forth,42,human,IAT_purple3.bmp,purple,ending_melody,melody,ending,m,positive,negative,ES_yellow,1,m,588,2445802,2446306,2446511
58,forth,43,einsam,IAT_purple4.bmp,purple,ending_melody,melody,ending,c,negative,negative,ES_yellow,0,m,432,2448175,2448679,2448884
58,forth,44,sanft,IAT_yellow3.bmp,yellow,ending_scream,scream,ending,m,positive,positive,ES_yellow,1,m,818,2450892,2451396,2451601
58,forth,45,teuer,IAT_yellow1.bmp,yellow,ending_scream,scream,ending,c,negative,positive,ES_yellow,1,c,567,2453495,2453999,2454205
58,forth,46,streng,IAT_purple2.bmp,purple,ending_melody,melody,ending,c,negative,negative,ES_yellow,1,c,597,2455847,2456351,2456555
58,forth,47,brutal,IAT_yellow4.bmp,yellow,ending_scream,scream,ending,c,negative,positive,ES_yellow,1,c,463,2458228,2458732,2458936
58,forth,48,gerecht,IAT_yellow3.bmp,yellow,ending_scream,scream,ending,m,positive,positive,ES_yellow,1,m,1128,2460475,2460979,2461183
58,forth,49,heiter,IAT_yellow1.bmp,yellow,ending_scream,scream,ending,m,positive,positive,ES_yellow,1,m,592,2463387,2463892,2464097
58,forth,50,feige,IAT_red4.bmp,red,starting_melody,melody,starting,c,negative,positive,ES_yellow,1,c,604,2465765,2466270,2466474
58,forth,51,sonnig,IAT_red4.bmp,red,starting_melody,melody,starting,m,positive,positive,ES_yellow,1,m,569,2468155,2468659,2468864
58,forth,52,kaputt,IAT_purple4.bmp,purple,ending_melody,melody,ending,c,negative,negative,ES_yellow,1,c,542,2470508,2471012,2471217
58,forth,53,lästig,IAT_yellow1.bmp,yellow,ending_scream,scream,ending,c,negative,positive,ES_yellow,1,c,597,2472836,2473340,2473544
58,forth,54,sanft,IAT_green2.bmp,green,starting_scream,scream,starting,m,positive,negative,ES_yellow,1,m,490,2475217,2475721,2475925
58,forth,55,kaputt,IAT_yellow4.bmp,yellow,ending_scream,scream,ending,c,negative,positive,ES_yellow,1,c,506,2477492,2477997,2478201
58,forth,56,krank,IAT_red1.bmp,red,starting_melody,melody,starting,c,negative,positive,ES_yellow,1,c,504,2479785,2480289,2480494
58,forth,57,streng,IAT_yellow4.bmp,yellow,ending_scream,scream,ending,c,negative,positive,ES_yellow,1,c,515,2482074,2482578,2482782
58,forth,58,gesund,IAT_red4.bmp,red,starting_melody,melody,starting,m,positive,positive,ES_yellow,1,m,748,2484374,2484878,2485082
58,forth,59,ehrlich,IAT_purple1.bmp,purple,ending_melody,melody,ending,m,positive,negative,ES_yellow,1,m,766,2486906,2487411,2487615
58,forth,60,lustig,IAT_purple4.bmp,purple,ending_melody,melody,ending,m,positive,negative,ES_yellow,1,m,532,2489457,2489961,2490166
58,forth,61,krank,IAT_purple4.bmp,purple,ending_melody,melody,ending,c,negative,negative,ES_yellow,1,c,591,2491775,2492279,2492483
58,forth,62,morsch,IAT_red2.bmp,red,starting_melody,melody,starting,c,negative,positive,ES_yellow,1,c,539,2494150,2494655,2494860
58,forth,63,streng,IAT_yellow2.bmp,yellow,ending_scream,scream,ending,c,negative,positive,ES_yellow,1,c,501,2496475,2496980,2497185
58,forth,64,sanft,IAT_green4.bmp,green,starting_scream,scream,starting,m,positive,negative,ES_yellow,1,m,506,2498764,2499268,2499472
58,forth,65,lustig,IAT_green3.bmp,green,starting_scream,scream,starting,m,positive,negative,ES_yellow,1,m,532,2501055,2501560,2501764
58,forth,66,geizig,IAT_purple2.bmp,purple,ending_melody,melody,ending,c,negative,negative,ES_yellow,1,c,667,2503374,2503878,2504082
58,forth,67,schön,IAT_yellow3.bmp,yellow,ending_scream,scream,ending,m,positive,positive,ES_yellow,1,m,539,2505826,2506331,2506536
58,forth,68,streng,IAT_green2.bmp,green,starting_scream,scream,starting,c,negative,negative,ES_yellow,1,c,532,2508151,2508656,2508861
58,forth,69,kaputt,IAT_green4.bmp,green,starting_scream,scream,starting,c,negative,negative,ES_yellow,1,c,486,2510469,2510974,2511178
58,forth,70,falsch,IAT_yellow2.bmp,yellow,ending_scream,scream,ending,c,negative,positive,ES_yellow,1,c,534,2512742,2513246,2513451
58,forth,71,human,IAT_red1.bmp,red,starting_melody,melody,starting,m,positive,positive,ES_yellow,1,m,521,2515061,2515565,2515770
58,forth,72,brutal,IAT_purple2.bmp,purple,ending_melody,melody,ending,c,negative,negative,ES_yellow,1,c,523,2517368,2517873,2518078
58,forth,73,gierig,IAT_green2.bmp,green,starting_scream,scream,starting,c,negative,negative,ES_yellow,1,c,443,2519677,2520181,2520386
58,forth,74,sozial,IAT_green3.bmp,green,starting_scream,scream,starting,m,positive,negative,ES_yellow,1,m,488,2521906,2522410,2522614
58,forth,75,geizig,IAT_red4.bmp,red,starting_melody,melody,starting,c,negative,positive,ES_yellow,1,c,585,2524179,2524684,2524888
58,forth,76,gerecht,IAT_purple1.bmp,purple,ending_melody,melody,ending,m,positive,negative,ES_yellow,1,m,854,2526549,2527054,2527258
58,forth,77,sozial,IAT_yellow1.bmp,yellow,ending_scream,scream,ending,m,positive,positive,ES_yellow,1,m,649,2529189,2529694,2529898
58,forth,78,witzig,IAT_yellow1.bmp,yellow,ending_scream,scream,ending,m,positive,positive,ES_yellow,1,m,637,2531624,2532128,2532333
58,forth,79,human,IAT_red1.bmp,red,starting_melody,melody,starting,m,positive,positive,ES_yellow,1,m,546,2534047,2534551,2534756
58,forth,80,ehrlich,IAT_red2.bmp,red,starting_melody,melody,starting,m,positive,positive,ES_yellow,1,m,642,2536379,2536883,2537088
58,forth,81,lästig,IAT_red2.bmp,red,starting_melody,melody,starting,c,negative,positive,ES_yellow,1,c,698,2538807,2539311,2539515
58,forth,82,lustig,IAT_purple1.bmp,purple,ending_melody,melody,ending,m,positive,negative,ES_yellow,1,m,553,2541289,2541794,2541998
58,forth,83,heiter,IAT_purple3.bmp,purple,ending_melody,melody,ending,m,positive,negative,ES_yellow,1,m,545,2543627,2544131,2544336
58,forth,84,gesund,IAT_yellow4.bmp,yellow,ending_scream,scream,ending,m,positive,positive,ES_yellow,1,m,515,2545957,2546462,2546667
58,forth,85,brutal,IAT_yellow3.bmp,yellow,ending_scream,scream,ending,c,negative,positive,ES_yellow,1,c,633,2548259,2548763,2548968
58,forth,86,teuer,IAT_red1.bmp,red,starting_melody,melody,starting,c,negative,positive,ES_yellow,1,c,609,2550678,2551182,2551387
58,forth,87,feige,IAT_red3.bmp,red,starting_melody,melody,starting,c,negative,positive,ES_yellow,1,c,595,2553074,2553578,2553783
58,forth,88,falsch,IAT_yellow2.bmp,yellow,ending_scream,scream,ending,c,negative,positive,ES_yellow,1,c,479,2555455,2555960,2556164
58,forth,89,einsam,IAT_yellow4.bmp,yellow,ending_scream,scream,ending,c,negative,positive,ES_yellow,1,c,574,2557720,2558224,2558429
58,forth,90,heiter,IAT_yellow2.bmp,yellow,ending_scream,scream,ending,m,positive,positive,ES_yellow,1,m,611,2560080,2560585,2560790
58,forth,91,teuer,IAT_green2.bmp,green,starting_scream,scream,starting,c,negative,negative,ES_yellow,1,c,489,2562476,2562981,2563185
58,forth,92,munter,IAT_green4.bmp,green,starting_scream,scream,starting,m,positive,negative,ES_yellow,1,m,700,2564751,2565255,2565460
58,forth,93,brutal,IAT_purple1.bmp,purple,ending_melody,melody,ending,c,negative,negative,ES_yellow,1,c,507,2567236,2567740,2567945
58,forth,94,lästig,IAT_green1.bmp,green,starting_scream,scream,starting,c,negative,negative,ES_yellow,1,c,623,2569529,2570033,2570238
58,forth,95,gierig,IAT_green4.bmp,green,starting_scream,scream,starting,c,negative,negative,ES_yellow,1,c,594,2571937,2572441,2572646
