subject_nr,block,trialnr,trial_target,trial_prime,prime_color,prime_role,prime_us,prime_relation,correct_response,target_valence,prime_valence,color_counter,correct_first_response,response_first_response,response_time_first_response,fixation_show,prime_show,target_show
83,first,0,witzig,IAT_purple1.bmp,purple,starting_scream,scream,starting,m,positive,negative,ES_green,0,c,428,1453757,1454262,1454466
83,first,1,feige,IAT_purple2.bmp,purple,starting_scream,scream,starting,c,negative,negative,ES_green,0,m,141,1456469,1456974,1457178
83,first,2,gierig,IAT_red2.bmp,red,ending_melody,melody,ending,c,negative,negative,ES_green,1,c,133,1458892,1459397,1459601
83,first,3,gerecht,IAT_red1.bmp,red,ending_melody,melody,ending,m,positive,negative,ES_green,1,m,413,1460807,1461311,1461515
83,first,4,munter,IAT_green1.bmp,green,ending_scream,scream,ending,m,positive,positive,ES_green,1,m,249,1463000,1463504,1463708
83,first,5,krank,IAT_green1.bmp,green,ending_scream,scream,ending,c,negative,positive,ES_green,0,m,260,1465029,1465533,1465737
83,first,6,morsch,IAT_yellow4.bmp,yellow,starting_melody,melody,starting,c,negative,positive,ES_green,0,m,380,1467570,1468074,1468278
83,first,7,gesund,IAT_green1.bmp,green,ending_scream,scream,ending,m,positive,positive,ES_green,1,m,382,1470230,1470735,1470939
83,first,8,brutal,IAT_red4.bmp,red,ending_melody,melody,ending,c,negative,negative,ES_green,1,c,325,1472394,1472898,1473102
83,first,9,ehrlich,IAT_red2.bmp,red,ending_melody,melody,ending,m,positive,negative,ES_green,1,m,306,1474501,1475005,1475209
83,first,10,teuer,IAT_green4.bmp,green,ending_scream,scream,ending,c,negative,positive,ES_green,1,c,252,1476587,1477092,1477296
83,first,11,kaputt,IAT_purple4.bmp,purple,starting_scream,scream,starting,c,negative,negative,ES_green,1,c,390,1478620,1479124,1479328
83,first,12,gerecht,IAT_yellow3.bmp,yellow,starting_melody,melody,starting,m,positive,positive,ES_green,1,m,311,1480792,1481296,1481500
83,first,13,geizig,IAT_red3.bmp,red,ending_melody,melody,ending,c,negative,negative,ES_green,0,m,436,1482894,1483399,1483603
83,first,14,heiter,IAT_yellow4.bmp,yellow,starting_melody,melody,starting,m,positive,positive,ES_green,1,m,425,1485612,1486116,1486320
83,first,15,einsam,IAT_purple4.bmp,purple,starting_scream,scream,starting,c,negative,negative,ES_green,0,m,491,1487818,1488322,1488526
83,first,16,streng,IAT_yellow3.bmp,yellow,starting_melody,melody,starting,c,negative,positive,ES_green,1,c,407,1490591,1491095,1491300
83,first,17,schön,IAT_yellow2.bmp,yellow,starting_melody,melody,starting,m,positive,positive,ES_green,1,m,439,1492779,1493284,1493488
83,first,18,feige,IAT_red1.bmp,red,ending_melody,melody,ending,c,negative,negative,ES_green,1,c,347,1494999,1495503,1495707
83,first,19,gierig,IAT_yellow1.bmp,yellow,starting_melody,melody,starting,c,negative,positive,ES_green,0,m,359,1497127,1497631,1497835
83,first,20,teuer,IAT_yellow1.bmp,yellow,starting_melody,melody,starting,c,negative,positive,ES_green,1,c,571,1499767,1500271,1500476
83,first,21,human,IAT_green4.bmp,green,ending_scream,scream,ending,m,positive,positive,ES_green,1,m,420,1502120,1502624,1502828
83,first,22,sanft,IAT_purple3.bmp,purple,starting_scream,scream,starting,m,positive,negative,ES_green,0,c,389,1504320,1504824,1505028
83,first,23,heiter,IAT_green3.bmp,green,ending_scream,scream,ending,m,positive,positive,ES_green,1,m,554,1506990,1507494,1507698
83,first,24,falsch,IAT_purple2.bmp,purple,starting_scream,scream,starting,c,negative,negative,ES_green,0,m,495,1509324,1509828,1510032
83,first,25,lästig,IAT_red2.bmp,red,ending_melody,melody,ending,c,negative,negative,ES_green,1,c,428,1512099,1512603,1512807
83,first,26,schön,IAT_yellow1.bmp,yellow,starting_melody,melody,starting,m,positive,positive,ES_green,1,m,349,1514308,1514812,1515016
83,first,27,brutal,IAT_yellow2.bmp,yellow,starting_melody,melody,starting,c,negative,positive,ES_green,1,c,363,1516438,1516943,1517147
83,first,28,sonnig,IAT_yellow3.bmp,yellow,starting_melody,melody,starting,m,positive,positive,ES_green,1,m,444,1518582,1519087,1519291
83,first,29,gesund,IAT_green2.bmp,green,ending_scream,scream,ending,m,positive,positive,ES_green,1,m,340,1520809,1521314,1521519
83,first,30,falsch,IAT_purple4.bmp,purple,starting_scream,scream,starting,c,negative,negative,ES_green,1,c,277,1522932,1523436,1523640
83,first,31,ehrlich,IAT_green3.bmp,green,ending_scream,scream,ending,m,positive,positive,ES_green,0,c,379,1524989,1525494,1525698
83,first,32,streng,IAT_purple3.bmp,purple,starting_scream,scream,starting,c,negative,negative,ES_green,1,c,431,1527650,1528154,1528358
83,first,33,human,IAT_yellow4.bmp,yellow,starting_melody,melody,starting,m,positive,positive,ES_green,1,m,322,1529862,1530366,1530570
83,first,34,gerecht,IAT_green1.bmp,green,ending_scream,scream,ending,m,positive,positive,ES_green,1,m,493,1531964,1532468,1532672
83,first,35,lästig,IAT_purple1.bmp,purple,starting_scream,scream,starting,c,negative,negative,ES_green,1,c,314,1534237,1534742,1534946
83,first,36,falsch,IAT_yellow4.bmp,yellow,starting_melody,melody,starting,c,negative,positive,ES_green,0,m,349,1536334,1536838,1537042
83,first,37,lustig,IAT_green4.bmp,green,ending_scream,scream,ending,m,positive,positive,ES_green,0,c,379,1538963,1539467,1539671
83,first,38,brutal,IAT_green4.bmp,green,ending_scream,scream,ending,c,negative,positive,ES_green,1,c,575,1541623,1542127,1542331
83,first,39,witzig,IAT_purple2.bmp,purple,starting_scream,scream,starting,m,positive,negative,ES_green,1,m,439,1543979,1544483,1544687
83,first,40,krank,IAT_green2.bmp,green,ending_scream,scream,ending,c,negative,positive,ES_green,0,m,653,1546198,1546703,1546907
83,first,41,lustig,IAT_purple4.bmp,purple,starting_scream,scream,starting,m,positive,negative,ES_green,0,c,398,1549132,1549636,1549840
83,first,42,geizig,IAT_red3.bmp,red,ending_melody,melody,ending,c,negative,negative,ES_green,0,m,380,1551812,1552316,1552520
83,first,43,sozial,IAT_red4.bmp,red,ending_melody,melody,ending,m,positive,negative,ES_green,0,c,478,1554473,1554977,1555181
83,first,44,gerecht,IAT_yellow3.bmp,yellow,starting_melody,melody,starting,m,positive,positive,ES_green,1,m,508,1557232,1557737,1557941
83,first,45,kaputt,IAT_yellow2.bmp,yellow,starting_melody,melody,starting,c,negative,positive,ES_green,1,c,574,1559523,1560027,1560231
83,first,46,gesund,IAT_red3.bmp,red,ending_melody,melody,ending,m,positive,negative,ES_green,1,m,367,1561878,1562383,1562587
83,first,47,einsam,IAT_purple2.bmp,purple,starting_scream,scream,starting,c,negative,negative,ES_green,0,m,506,1564027,1564531,1564735
83,first,48,sozial,IAT_red1.bmp,red,ending_melody,melody,ending,m,positive,negative,ES_green,1,m,684,1566814,1567319,1567523
83,first,49,geizig,IAT_red2.bmp,red,ending_melody,melody,ending,c,negative,negative,ES_green,1,c,464,1569280,1569785,1569989
83,first,50,sanft,IAT_purple3.bmp,purple,starting_scream,scream,starting,m,positive,negative,ES_green,1,m,566,1571526,1572030,1572234
83,first,51,sonnig,IAT_purple3.bmp,purple,starting_scream,scream,starting,m,positive,negative,ES_green,1,m,489,1573873,1574378,1574582
83,first,52,witzig,IAT_purple2.bmp,purple,starting_scream,scream,starting,m,positive,negative,ES_green,1,m,474,1576144,1576648,1576852
83,first,53,lustig,IAT_red4.bmp,red,ending_melody,melody,ending,m,positive,negative,ES_green,1,m,455,1578398,1578903,1579107
83,first,54,lästig,IAT_red1.bmp,red,ending_melody,melody,ending,c,negative,negative,ES_green,1,c,455,1580634,1581139,1581343
83,first,55,morsch,IAT_red4.bmp,red,ending_melody,melody,ending,c,negative,negative,ES_green,1,c,576,1582871,1583375,1583579
83,first,56,gierig,IAT_green1.bmp,green,ending_scream,scream,ending,c,negative,positive,ES_green,1,c,503,1585227,1585732,1585936
83,first,57,witzig,IAT_green2.bmp,green,ending_scream,scream,ending,m,positive,positive,ES_green,1,m,398,1587512,1588016,1588220
83,first,58,munter,IAT_yellow2.bmp,yellow,starting_melody,melody,starting,m,positive,positive,ES_green,0,c,462,1589692,1590196,1590400
83,first,59,human,IAT_green1.bmp,green,ending_scream,scream,ending,m,positive,positive,ES_green,1,m,659,1592435,1592939,1593143
83,first,60,schön,IAT_red1.bmp,red,ending_melody,melody,ending,m,positive,negative,ES_green,1,m,538,1594875,1595379,1595583
83,first,61,heiter,IAT_red1.bmp,red,ending_melody,melody,ending,m,positive,negative,ES_green,1,m,506,1597194,1597698,1597902
83,first,62,falsch,IAT_purple2.bmp,purple,starting_scream,scream,starting,c,negative,negative,ES_green,1,c,340,1599482,1599986,1600190
83,first,63,sanft,IAT_yellow1.bmp,yellow,starting_melody,melody,starting,m,positive,positive,ES_green,1,m,390,1601603,1602108,1602312
83,first,64,einsam,IAT_green4.bmp,green,ending_scream,scream,ending,c,negative,positive,ES_green,1,c,560,1603775,1604279,1604483
83,first,65,krank,IAT_green4.bmp,green,ending_scream,scream,ending,c,negative,positive,ES_green,0,m,445,1606115,1606619,1606823
83,first,66,streng,IAT_green2.bmp,green,ending_scream,scream,ending,c,negative,positive,ES_green,1,c,643,1608841,1609346,1609550
83,first,67,feige,IAT_red2.bmp,red,ending_melody,melody,ending,c,negative,negative,ES_green,1,c,621,1611265,1611769,1611973
83,first,68,brutal,IAT_red4.bmp,red,ending_melody,melody,ending,c,negative,negative,ES_green,1,c,451,1613667,1614171,1614375
83,first,69,lästig,IAT_green3.bmp,green,ending_scream,scream,ending,c,negative,positive,ES_green,1,c,958,1615899,1616403,1616607
83,first,70,geizig,IAT_green2.bmp,green,ending_scream,scream,ending,c,negative,positive,ES_green,1,c,524,1618637,1619141,1619345
83,first,71,ehrlich,IAT_purple3.bmp,purple,starting_scream,scream,starting,m,positive,negative,ES_green,1,m,509,1620942,1621447,1621651
83,first,72,sonnig,IAT_green3.bmp,green,ending_scream,scream,ending,m,positive,positive,ES_green,1,m,407,1623233,1623737,1623941
83,first,73,munter,IAT_red3.bmp,red,ending_melody,melody,ending,m,positive,negative,ES_green,1,m,544,1625422,1625926,1626130
83,first,74,human,IAT_purple4.bmp,purple,starting_scream,scream,starting,m,positive,negative,ES_green,1,m,367,1627747,1628251,1628455
83,first,75,feige,IAT_yellow2.bmp,yellow,starting_melody,melody,starting,c,negative,positive,ES_green,1,c,433,1629895,1630399,1630603
83,first,76,morsch,IAT_yellow3.bmp,yellow,starting_melody,melody,starting,c,negative,positive,ES_green,0,m,496,1632109,1632614,1632818
83,first,77,kaputt,IAT_purple4.bmp,purple,starting_scream,scream,starting,c,negative,negative,ES_green,1,c,487,1634887,1635391,1635595
83,first,78,sanft,IAT_yellow1.bmp,yellow,starting_melody,melody,starting,m,positive,positive,ES_green,1,m,470,1637155,1637660,1637864
83,first,79,gesund,IAT_red3.bmp,red,ending_melody,melody,ending,m,positive,negative,ES_green,0,c,370,1639408,1639912,1640116
83,first,80,schön,IAT_yellow3.bmp,yellow,starting_melody,melody,starting,m,positive,positive,ES_green,1,m,512,1642059,1642563,1642767
83,first,81,streng,IAT_green2.bmp,green,ending_scream,scream,ending,c,negative,positive,ES_green,1,c,430,1644353,1644857,1645061
83,first,82,krank,IAT_yellow4.bmp,yellow,starting_melody,melody,starting,c,negative,positive,ES_green,1,c,426,1646564,1647068,1647272
83,first,83,gierig,IAT_purple1.bmp,purple,starting_scream,scream,starting,c,negative,negative,ES_green,1,c,412,1648773,1649277,1649481
83,first,84,sozial,IAT_green3.bmp,green,ending_scream,scream,ending,m,positive,positive,ES_green,0,c,476,1650966,1651471,1651675
83,first,85,morsch,IAT_yellow4.bmp,yellow,starting_melody,melody,starting,c,negative,positive,ES_green,1,c,511,1653724,1654228,1654432
83,first,86,teuer,IAT_purple3.bmp,purple,starting_scream,scream,starting,c,negative,negative,ES_green,1,c,700,1656016,1656521,1656725
83,first,87,einsam,IAT_yellow2.bmp,yellow,starting_melody,melody,starting,c,negative,positive,ES_green,1,c,663,1658500,1659004,1659208
83,first,88,sonnig,IAT_yellow1.bmp,yellow,starting_melody,melody,starting,m,positive,positive,ES_green,1,m,474,1660944,1661448,1661652
83,first,89,lustig,IAT_purple1.bmp,purple,starting_scream,scream,starting,m,positive,negative,ES_green,1,m,604,1663199,1663703,1663907
83,first,90,kaputt,IAT_red4.bmp,red,ending_melody,melody,ending,c,negative,negative,ES_green,1,c,424,1665584,1666089,1666293
83,first,91,munter,IAT_red3.bmp,red,ending_melody,melody,ending,m,positive,negative,ES_green,1,m,508,1667791,1668295,1668499
83,first,92,ehrlich,IAT_purple1.bmp,purple,starting_scream,scream,starting,m,positive,negative,ES_green,0,c,365,1670080,1670585,1670789
83,first,93,heiter,IAT_purple1.bmp,purple,starting_scream,scream,starting,m,positive,negative,ES_green,0,c,403,1672727,1673232,1673436
83,first,94,sozial,IAT_red2.bmp,red,ending_melody,melody,ending,m,positive,negative,ES_green,1,m,518,1675413,1675917,1676121
83,first,95,teuer,IAT_green3.bmp,green,ending_scream,scream,ending,c,negative,positive,ES_green,1,c,699,1677713,1678217,1678421
83,second,0,sanft,IAT_red1.bmp,red,ending_melody,melody,ending,m,positive,negative,ES_green,1,m,459,1692218,1692722,1692926
83,second,1,streng,IAT_green2.bmp,green,ending_scream,scream,ending,c,negative,positive,ES_green,1,c,480,1694460,1694964,1695168
83,second,2,ehrlich,IAT_green4.bmp,green,ending_scream,scream,ending,m,positive,positive,ES_green,1,m,524,1696721,1697225,1697429
83,second,3,sozial,IAT_red2.bmp,red,ending_melody,melody,ending,m,positive,negative,ES_green,1,m,599,1699025,1699529,1699733
83,second,4,morsch,IAT_red1.bmp,red,ending_melody,melody,ending,c,negative,negative,ES_green,1,c,437,1701404,1701909,1702113
83,second,5,witzig,IAT_purple4.bmp,purple,starting_scream,scream,starting,m,positive,negative,ES_green,1,m,903,1703623,1704127,1704331
83,second,6,heiter,IAT_red3.bmp,red,ending_melody,melody,ending,m,positive,negative,ES_green,1,m,470,1706308,1706812,1707016
83,second,7,falsch,IAT_red4.bmp,red,ending_melody,melody,ending,c,negative,negative,ES_green,1,c,394,1708558,1709062,1709266
83,second,8,einsam,IAT_green4.bmp,green,ending_scream,scream,ending,c,negative,positive,ES_green,0,m,561,1710734,1711238,1711442
83,second,9,brutal,IAT_green2.bmp,green,ending_scream,scream,ending,c,negative,positive,ES_green,1,c,524,1713578,1714082,1714286
83,second,10,gerecht,IAT_yellow4.bmp,yellow,starting_melody,melody,starting,m,positive,positive,ES_green,1,m,331,1715883,1716387,1716591
83,second,11,witzig,IAT_purple1.bmp,purple,starting_scream,scream,starting,m,positive,negative,ES_green,0,c,380,1717994,1718499,1718703
83,second,12,gierig,IAT_green4.bmp,green,ending_scream,scream,ending,c,negative,positive,ES_green,1,c,571,1720656,1721160,1721364
83,second,13,sonnig,IAT_yellow1.bmp,yellow,starting_melody,melody,starting,m,positive,positive,ES_green,1,m,327,1723009,1723513,1723717
83,second,14,schön,IAT_red1.bmp,red,ending_melody,melody,ending,m,positive,negative,ES_green,1,m,443,1725118,1725622,1725826
83,second,15,sonnig,IAT_yellow3.bmp,yellow,starting_melody,melody,starting,m,positive,positive,ES_green,1,m,306,1727343,1727847,1728051
83,second,16,falsch,IAT_yellow2.bmp,yellow,starting_melody,melody,starting,c,negative,positive,ES_green,1,c,396,1729432,1729936,1730140
83,second,17,gesund,IAT_red3.bmp,red,ending_melody,melody,ending,m,positive,negative,ES_green,0,c,425,1731610,1732114,1732318
83,second,18,morsch,IAT_yellow4.bmp,yellow,starting_melody,melody,starting,c,negative,positive,ES_green,1,c,651,1734318,1734822,1735026
83,second,19,lustig,IAT_green3.bmp,green,ending_scream,scream,ending,m,positive,positive,ES_green,1,m,474,1736751,1737256,1737460
83,second,20,ehrlich,IAT_green2.bmp,green,ending_scream,scream,ending,m,positive,positive,ES_green,1,m,454,1739007,1739512,1739716
83,second,21,geizig,IAT_yellow1.bmp,yellow,starting_melody,melody,starting,c,negative,positive,ES_green,1,c,416,1741245,1741749,1741953
83,second,22,sonnig,IAT_purple3.bmp,purple,starting_scream,scream,starting,m,positive,negative,ES_green,1,m,576,1743443,1743947,1744151
83,second,23,ehrlich,IAT_purple1.bmp,purple,starting_scream,scream,starting,m,positive,negative,ES_green,1,m,531,1745800,1746304,1746508
83,second,24,gesund,IAT_green1.bmp,green,ending_scream,scream,ending,m,positive,positive,ES_green,1,m,421,1748113,1748617,1748821
83,second,25,streng,IAT_red4.bmp,red,ending_melody,melody,ending,c,negative,negative,ES_green,1,c,327,1750316,1750820,1751024
83,second,26,falsch,IAT_red2.bmp,red,ending_melody,melody,ending,c,negative,negative,ES_green,1,c,513,1752424,1752929,1753133
83,second,27,sonnig,IAT_red1.bmp,red,ending_melody,melody,ending,m,positive,negative,ES_green,1,m,422,1754721,1755226,1755430
83,second,28,schön,IAT_red4.bmp,red,ending_melody,melody,ending,m,positive,negative,ES_green,1,m,428,1756926,1757430,1757634
83,second,29,lustig,IAT_green1.bmp,green,ending_scream,scream,ending,m,positive,positive,ES_green,1,m,484,1759136,1759641,1759845
83,second,30,feige,IAT_green1.bmp,green,ending_scream,scream,ending,c,negative,positive,ES_green,0,m,343,1761403,1761907,1762111
83,second,31,morsch,IAT_red3.bmp,red,ending_melody,melody,ending,c,negative,negative,ES_green,1,c,422,1764030,1764534,1764738
83,second,32,sozial,IAT_green4.bmp,green,ending_scream,scream,ending,m,positive,positive,ES_green,1,m,767,1766233,1766737,1766941
83,second,33,kaputt,IAT_yellow1.bmp,yellow,starting_melody,melody,starting,c,negative,positive,ES_green,1,c,402,1768784,1769288,1769492
83,second,34,witzig,IAT_yellow3.bmp,yellow,starting_melody,melody,starting,m,positive,positive,ES_green,0,c,446,1770968,1771472,1771676
83,second,35,lästig,IAT_red1.bmp,red,ending_melody,melody,ending,c,negative,negative,ES_green,1,c,581,1773696,1774200,1774404
83,second,36,teuer,IAT_green3.bmp,green,ending_scream,scream,ending,c,negative,positive,ES_green,0,m,487,1776059,1776563,1776767
83,second,37,sozial,IAT_purple3.bmp,purple,starting_scream,scream,starting,m,positive,negative,ES_green,1,m,605,1778828,1779332,1779536
83,second,38,human,IAT_purple4.bmp,purple,starting_scream,scream,starting,m,positive,negative,ES_green,1,m,594,1781214,1781718,1781922
83,second,39,munter,IAT_yellow2.bmp,yellow,starting_melody,melody,starting,m,positive,positive,ES_green,1,m,465,1783590,1784095,1784299
83,second,40,lustig,IAT_red4.bmp,red,ending_melody,melody,ending,m,positive,negative,ES_green,1,m,416,1785837,1786342,1786546
83,second,41,munter,IAT_green1.bmp,green,ending_scream,scream,ending,m,positive,positive,ES_green,1,m,484,1788034,1788539,1788743
83,second,42,heiter,IAT_purple2.bmp,purple,starting_scream,scream,starting,m,positive,negative,ES_green,1,m,459,1790302,1790807,1791011
83,second,43,lustig,IAT_purple3.bmp,purple,starting_scream,scream,starting,m,positive,negative,ES_green,1,m,411,1792543,1793048,1793252
83,second,44,krank,IAT_red2.bmp,red,ending_melody,melody,ending,c,negative,negative,ES_green,1,c,346,1794736,1795241,1795445
83,second,45,schön,IAT_yellow1.bmp,yellow,starting_melody,melody,starting,m,positive,positive,ES_green,1,m,372,1796866,1797370,1797574
83,second,46,gierig,IAT_purple3.bmp,purple,starting_scream,scream,starting,c,negative,negative,ES_green,1,c,535,1799019,1799523,1799727
83,second,47,witzig,IAT_red1.bmp,red,ending_melody,melody,ending,m,positive,negative,ES_green,1,m,445,1801336,1801840,1802044
83,second,48,munter,IAT_yellow2.bmp,yellow,starting_melody,melody,starting,m,positive,positive,ES_green,1,m,429,1803563,1804067,1804271
83,second,49,krank,IAT_yellow2.bmp,yellow,starting_melody,melody,starting,c,negative,positive,ES_green,1,c,453,1805774,1806278,1806482
83,second,50,teuer,IAT_yellow4.bmp,yellow,starting_melody,melody,starting,c,negative,positive,ES_green,0,m,451,1808009,1808513,1808717
83,second,51,brutal,IAT_green2.bmp,green,ending_scream,scream,ending,c,negative,positive,ES_green,1,c,523,1810742,1811246,1811450
83,second,52,sanft,IAT_green1.bmp,green,ending_scream,scream,ending,m,positive,positive,ES_green,1,m,437,1813046,1813550,1813754
83,second,53,geizig,IAT_yellow3.bmp,yellow,starting_melody,melody,starting,c,negative,positive,ES_green,1,c,521,1815264,1815769,1815973
83,second,54,ehrlich,IAT_purple1.bmp,purple,starting_scream,scream,starting,m,positive,negative,ES_green,1,m,671,1817569,1818073,1818277
83,second,55,gerecht,IAT_green3.bmp,green,ending_scream,scream,ending,m,positive,positive,ES_green,0,c,346,1820022,1820526,1820730
83,second,56,sanft,IAT_yellow4.bmp,yellow,starting_melody,melody,starting,m,positive,positive,ES_green,1,m,509,1822650,1823154,1823358
83,second,57,kaputt,IAT_green1.bmp,green,ending_scream,scream,ending,c,negative,positive,ES_green,1,c,342,1824941,1825445,1825649
83,second,58,teuer,IAT_purple2.bmp,purple,starting_scream,scream,starting,c,negative,negative,ES_green,1,c,619,1827064,1827569,1827773
83,second,59,gierig,IAT_red2.bmp,red,ending_melody,melody,ending,c,negative,negative,ES_green,1,c,503,1829465,1829969,1830173
83,second,60,einsam,IAT_red3.bmp,red,ending_melody,melody,ending,c,negative,negative,ES_green,0,m,514,1831752,1832256,1832460
83,second,61,feige,IAT_yellow4.bmp,yellow,starting_melody,melody,starting,c,negative,positive,ES_green,1,c,506,1834548,1835052,1835256
83,second,62,human,IAT_yellow3.bmp,yellow,starting_melody,melody,starting,m,positive,positive,ES_green,1,m,668,1836836,1837340,1837544
83,second,63,einsam,IAT_green2.bmp,green,ending_scream,scream,ending,c,negative,positive,ES_green,1,c,460,1839286,1839790,1839994
83,second,64,sozial,IAT_green3.bmp,green,ending_scream,scream,ending,m,positive,positive,ES_green,1,m,463,1841528,1842032,1842236
83,second,65,gesund,IAT_red2.bmp,red,ending_melody,melody,ending,m,positive,negative,ES_green,0,c,361,1843773,1844277,1844481
83,second,66,schön,IAT_green2.bmp,green,ending_scream,scream,ending,m,positive,positive,ES_green,1,m,552,1846417,1846922,1847126
83,second,67,heiter,IAT_purple3.bmp,purple,starting_scream,scream,starting,m,positive,negative,ES_green,1,m,530,1848752,1849256,1849460
83,second,68,brutal,IAT_purple3.bmp,purple,starting_scream,scream,starting,c,negative,negative,ES_green,1,c,677,1851064,1851568,1851772
83,second,69,einsam,IAT_purple2.bmp,purple,starting_scream,scream,starting,c,negative,negative,ES_green,1,c,786,1853523,1854027,1854231
83,second,70,geizig,IAT_yellow2.bmp,yellow,starting_melody,melody,starting,c,negative,positive,ES_green,1,c,924,1856092,1856597,1856801
83,second,71,gierig,IAT_red4.bmp,red,ending_melody,melody,ending,c,negative,negative,ES_green,1,c,629,1858799,1859303,1859507
83,second,72,kaputt,IAT_yellow2.bmp,yellow,starting_melody,melody,starting,c,negative,positive,ES_green,1,c,420,1861211,1861715,1861919
83,second,73,streng,IAT_yellow3.bmp,yellow,starting_melody,melody,starting,c,negative,positive,ES_green,1,c,447,1863413,1863917,1864121
83,second,74,human,IAT_yellow3.bmp,yellow,starting_melody,melody,starting,m,positive,positive,ES_green,1,m,454,1865643,1866147,1866352
83,second,75,kaputt,IAT_purple4.bmp,purple,starting_scream,scream,starting,c,negative,negative,ES_green,1,c,497,1867879,1868384,1868588
83,second,76,krank,IAT_red4.bmp,red,ending_melody,melody,ending,c,negative,negative,ES_green,1,c,419,1870160,1870664,1870868
83,second,77,teuer,IAT_purple4.bmp,purple,starting_scream,scream,starting,c,negative,negative,ES_green,1,c,412,1872362,1872866,1873070
83,second,78,streng,IAT_purple2.bmp,purple,starting_scream,scream,starting,c,negative,negative,ES_green,1,c,475,1874556,1875060,1875264
83,second,79,lästig,IAT_purple1.bmp,purple,starting_scream,scream,starting,c,negative,negative,ES_green,1,c,473,1876813,1877317,1877521
83,second,80,gerecht,IAT_red3.bmp,red,ending_melody,melody,ending,m,positive,negative,ES_green,1,m,611,1879068,1879572,1879776
83,second,81,feige,IAT_green4.bmp,green,ending_scream,scream,ending,c,negative,positive,ES_green,1,c,422,1881461,1881965,1882169
83,second,82,human,IAT_yellow1.bmp,yellow,starting_melody,melody,starting,m,positive,positive,ES_green,1,m,523,1883667,1884171,1884376
83,second,83,munter,IAT_purple2.bmp,purple,starting_scream,scream,starting,m,positive,negative,ES_green,1,m,502,1885974,1886478,1886682
83,second,84,gesund,IAT_red3.bmp,red,ending_melody,melody,ending,m,positive,negative,ES_green,1,m,503,1888259,1888763,1888967
83,second,85,sanft,IAT_green3.bmp,green,ending_scream,scream,ending,m,positive,positive,ES_green,1,m,389,1890544,1891048,1891252
83,second,86,krank,IAT_purple2.bmp,purple,starting_scream,scream,starting,c,negative,negative,ES_green,1,c,415,1892716,1893220,1893424
83,second,87,lästig,IAT_purple4.bmp,purple,starting_scream,scream,starting,c,negative,negative,ES_green,0,m,438,1894912,1895417,1895621
83,second,88,brutal,IAT_red2.bmp,red,ending_melody,melody,ending,c,negative,negative,ES_green,1,c,497,1897633,1898138,1898342
83,second,89,falsch,IAT_purple4.bmp,purple,starting_scream,scream,starting,c,negative,negative,ES_green,1,c,567,1899913,1900418,1900622
83,second,90,lästig,IAT_purple1.bmp,purple,starting_scream,scream,starting,c,negative,negative,ES_green,1,c,494,1902264,1902768,1902972
83,second,91,feige,IAT_green3.bmp,green,ending_scream,scream,ending,c,negative,positive,ES_green,1,c,458,1904541,1905045,1905249
83,second,92,gerecht,IAT_purple1.bmp,purple,starting_scream,scream,starting,m,positive,negative,ES_green,0,c,509,1906782,1907286,1907490
83,second,93,geizig,IAT_green4.bmp,green,ending_scream,scream,ending,c,negative,positive,ES_green,1,c,546,1909574,1910078,1910282
83,second,94,heiter,IAT_yellow1.bmp,yellow,starting_melody,melody,starting,m,positive,positive,ES_green,1,m,459,1911903,1912407,1912611
83,second,95,morsch,IAT_yellow4.bmp,yellow,starting_melody,melody,starting,c,negative,positive,ES_green,1,c,544,1914145,1914650,1914854
83,third,0,witzig,IAT_yellow1.bmp,yellow,starting_melody,melody,starting,m,positive,positive,ES_green,0,None,1500,1933763,1934268,1934472
83,third,1,einsam,IAT_purple4.bmp,purple,starting_scream,scream,starting,c,negative,negative,ES_green,0,m,771,1937546,1938051,1938255
83,third,2,geizig,IAT_red4.bmp,red,ending_melody,melody,ending,c,negative,negative,ES_green,1,c,470,1940600,1941104,1941308
83,third,3,sozial,IAT_green2.bmp,green,ending_scream,scream,ending,m,positive,positive,ES_green,1,m,486,1942852,1943356,1943560
83,third,4,heiter,IAT_red3.bmp,red,ending_melody,melody,ending,m,positive,negative,ES_green,0,c,348,1945120,1945625,1945829
83,third,5,gesund,IAT_red3.bmp,red,ending_melody,melody,ending,m,positive,negative,ES_green,1,m,514,1947751,1948255,1948459
83,third,6,witzig,IAT_yellow4.bmp,yellow,starting_melody,melody,starting,m,positive,positive,ES_green,1,m,473,1950047,1950551,1950755
83,third,7,ehrlich,IAT_red4.bmp,red,ending_melody,melody,ending,m,positive,negative,ES_green,0,c,384,1952302,1952806,1953010
83,third,8,einsam,IAT_yellow4.bmp,yellow,starting_melody,melody,starting,c,negative,positive,ES_green,0,m,374,1954968,1955472,1955676
83,third,9,morsch,IAT_purple4.bmp,purple,starting_scream,scream,starting,c,negative,negative,ES_green,1,c,482,1957622,1958127,1958331
83,third,10,streng,IAT_yellow4.bmp,yellow,starting_melody,melody,starting,c,negative,positive,ES_green,1,c,515,1959888,1960392,1960596
83,third,11,brutal,IAT_purple4.bmp,purple,starting_scream,scream,starting,c,negative,negative,ES_green,1,c,390,1962184,1962688,1962892
83,third,12,sozial,IAT_purple4.bmp,purple,starting_scream,scream,starting,m,positive,negative,ES_green,1,m,449,1964355,1964860,1965064
83,third,13,gesund,IAT_purple3.bmp,purple,starting_scream,scream,starting,m,positive,negative,ES_green,1,m,528,1966586,1967094,1967299
83,third,14,feige,IAT_green2.bmp,green,ending_scream,scream,ending,c,negative,positive,ES_green,1,c,436,1968900,1969405,1969609
83,third,15,streng,IAT_yellow1.bmp,yellow,starting_melody,melody,starting,c,negative,positive,ES_green,1,c,570,1971119,1971623,1971827
83,third,16,sonnig,IAT_red3.bmp,red,ending_melody,melody,ending,m,positive,negative,ES_green,1,m,539,1973472,1973976,1974180
83,third,17,lästig,IAT_green4.bmp,green,ending_scream,scream,ending,c,negative,positive,ES_green,1,c,540,1975793,1976297,1976501
83,third,18,schön,IAT_purple2.bmp,purple,starting_scream,scream,starting,m,positive,negative,ES_green,1,m,531,1978116,1978620,1978824
83,third,19,lustig,IAT_red2.bmp,red,ending_melody,melody,ending,m,positive,negative,ES_green,1,m,1214,1980430,1980935,1981139
83,third,20,krank,IAT_red4.bmp,red,ending_melody,melody,ending,c,negative,negative,ES_green,1,c,403,1983427,1983931,1984135
83,third,21,teuer,IAT_purple2.bmp,purple,starting_scream,scream,starting,c,negative,negative,ES_green,1,c,509,1985612,1986116,1986320
83,third,22,heiter,IAT_purple3.bmp,purple,starting_scream,scream,starting,m,positive,negative,ES_green,1,m,432,1987903,1988407,1988611
83,third,23,gerecht,IAT_purple3.bmp,purple,starting_scream,scream,starting,m,positive,negative,ES_green,1,m,547,1990117,1990621,1990826
83,third,24,sonnig,IAT_green1.bmp,green,ending_scream,scream,ending,m,positive,positive,ES_green,1,m,421,1992446,1992951,1993155
83,third,25,kaputt,IAT_green1.bmp,green,ending_scream,scream,ending,c,negative,positive,ES_green,1,c,490,1994649,1995154,1995358
83,third,26,ehrlich,IAT_green1.bmp,green,ending_scream,scream,ending,m,positive,positive,ES_green,1,m,538,1996922,1997426,1997630
83,third,27,brutal,IAT_red3.bmp,red,ending_melody,melody,ending,c,negative,negative,ES_green,1,c,443,1999242,1999746,1999950
83,third,28,feige,IAT_green1.bmp,green,ending_scream,scream,ending,c,negative,positive,ES_green,1,c,659,2001466,2001971,2002175
83,third,29,schön,IAT_green2.bmp,green,ending_scream,scream,ending,m,positive,positive,ES_green,1,m,468,2003908,2004412,2004616
83,third,30,brutal,IAT_purple1.bmp,purple,starting_scream,scream,starting,c,negative,negative,ES_green,1,c,634,2006159,2006663,2006867
83,third,31,kaputt,IAT_purple3.bmp,purple,starting_scream,scream,starting,c,negative,negative,ES_green,1,c,389,2008574,2009078,2009282
83,third,32,gierig,IAT_red2.bmp,red,ending_melody,melody,ending,c,negative,negative,ES_green,1,c,622,2010745,2011249,2011453
83,third,33,falsch,IAT_purple2.bmp,purple,starting_scream,scream,starting,c,negative,negative,ES_green,1,c,419,2013148,2013653,2013857
83,third,34,witzig,IAT_purple4.bmp,purple,starting_scream,scream,starting,m,positive,negative,ES_green,1,m,437,2015349,2015854,2016058
83,third,35,streng,IAT_yellow4.bmp,yellow,starting_melody,melody,starting,c,negative,positive,ES_green,1,c,432,2017572,2018076,2018280
83,third,36,kaputt,IAT_red2.bmp,red,ending_melody,melody,ending,c,negative,negative,ES_green,1,c,523,2019786,2020290,2020494
83,third,37,krank,IAT_green4.bmp,green,ending_scream,scream,ending,c,negative,positive,ES_green,1,c,466,2022092,2022596,2022800
83,third,38,munter,IAT_purple3.bmp,purple,starting_scream,scream,starting,m,positive,negative,ES_green,0,c,468,2024340,2024844,2025048
83,third,39,gerecht,IAT_purple1.bmp,purple,starting_scream,scream,starting,m,positive,negative,ES_green,1,m,511,2027091,2027595,2027799
83,third,40,lustig,IAT_red1.bmp,red,ending_melody,melody,ending,m,positive,negative,ES_green,0,c,526,2029384,2029888,2030092
83,third,41,sonnig,IAT_yellow3.bmp,yellow,starting_melody,melody,starting,m,positive,positive,ES_green,1,m,445,2032192,2032696,2032900
83,third,42,gerecht,IAT_red1.bmp,red,ending_melody,melody,ending,m,positive,negative,ES_green,1,m,949,2034419,2034923,2035127
83,third,43,human,IAT_green1.bmp,green,ending_scream,scream,ending,m,positive,positive,ES_green,1,m,480,2037149,2037653,2037857
83,third,44,lästig,IAT_green3.bmp,green,ending_scream,scream,ending,c,negative,positive,ES_green,1,c,590,2039412,2039916,2040120
83,third,45,gesund,IAT_red2.bmp,red,ending_melody,melody,ending,m,positive,negative,ES_green,1,m,432,2041785,2042289,2042493
83,third,46,gierig,IAT_yellow3.bmp,yellow,starting_melody,melody,starting,c,negative,positive,ES_green,1,c,564,2044000,2044504,2044708
83,third,47,brutal,IAT_purple3.bmp,purple,starting_scream,scream,starting,c,negative,negative,ES_green,1,c,605,2046345,2046849,2047053
83,third,48,sanft,IAT_green1.bmp,green,ending_scream,scream,ending,m,positive,positive,ES_green,1,m,503,2048732,2049236,2049440
83,third,49,teuer,IAT_yellow1.bmp,yellow,starting_melody,melody,starting,c,negative,positive,ES_green,1,c,1080,2051017,2051521,2051725
83,third,50,lustig,IAT_green4.bmp,green,ending_scream,scream,ending,m,positive,positive,ES_green,1,m,495,2053879,2054383,2054587
83,third,51,morsch,IAT_red4.bmp,red,ending_melody,melody,ending,c,negative,negative,ES_green,1,c,599,2056157,2056661,2056865
83,third,52,streng,IAT_red4.bmp,red,ending_melody,melody,ending,c,negative,negative,ES_green,1,c,465,2058538,2059042,2059246
83,third,53,munter,IAT_green3.bmp,green,ending_scream,scream,ending,m,positive,positive,ES_green,1,m,686,2060786,2061291,2061496
83,third,54,gerecht,IAT_yellow1.bmp,yellow,starting_melody,melody,starting,m,positive,positive,ES_green,1,m,522,2063257,2063761,2063966
83,third,55,gesund,IAT_green3.bmp,green,ending_scream,scream,ending,m,positive,positive,ES_green,1,m,507,2065562,2066066,2066270
83,third,56,einsam,IAT_purple2.bmp,purple,starting_scream,scream,starting,c,negative,negative,ES_green,1,c,608,2067851,2068356,2068560
83,third,57,falsch,IAT_yellow4.bmp,yellow,starting_melody,melody,starting,c,negative,positive,ES_green,1,c,706,2070243,2070747,2070951
83,third,58,feige,IAT_purple2.bmp,purple,starting_scream,scream,starting,c,negative,negative,ES_green,1,c,484,2072731,2073235,2073439
83,third,59,krank,IAT_purple1.bmp,purple,starting_scream,scream,starting,c,negative,negative,ES_green,0,m,459,2074998,2075502,2075706
83,third,60,einsam,IAT_green2.bmp,green,ending_scream,scream,ending,c,negative,positive,ES_green,1,c,389,2077740,2078244,2078448
83,third,61,geizig,IAT_red1.bmp,red,ending_melody,melody,ending,c,negative,negative,ES_green,1,c,531,2079912,2080417,2080621
83,third,62,kaputt,IAT_yellow2.bmp,yellow,starting_melody,melody,starting,c,negative,positive,ES_green,1,c,465,2082228,2082732,2082936
83,third,63,sanft,IAT_purple1.bmp,purple,starting_scream,scream,starting,m,positive,negative,ES_green,1,m,503,2084478,2084982,2085186
83,third,64,munter,IAT_yellow2.bmp,yellow,starting_melody,melody,starting,m,positive,positive,ES_green,1,m,410,2086764,2087268,2087472
83,third,65,falsch,IAT_green4.bmp,green,ending_scream,scream,ending,c,negative,positive,ES_green,1,c,433,2088956,2089460,2089664
83,third,66,morsch,IAT_red2.bmp,red,ending_melody,melody,ending,c,negative,negative,ES_green,1,c,453,2091172,2091676,2091880
83,third,67,lustig,IAT_red1.bmp,red,ending_melody,melody,ending,m,positive,negative,ES_green,1,m,525,2093408,2093913,2094117
83,third,68,ehrlich,IAT_yellow3.bmp,yellow,starting_melody,melody,starting,m,positive,positive,ES_green,1,m,672,2095716,2096220,2096424
83,third,69,gierig,IAT_yellow3.bmp,yellow,starting_melody,melody,starting,c,negative,positive,ES_green,1,c,546,2098172,2098676,2098880
83,third,70,human,IAT_yellow3.bmp,yellow,starting_melody,melody,starting,m,positive,positive,ES_green,1,m,551,2100500,2101005,2101209
83,third,71,morsch,IAT_yellow2.bmp,yellow,starting_melody,melody,starting,c,negative,positive,ES_green,1,c,428,2102834,2103338,2103542
83,third,72,teuer,IAT_yellow2.bmp,yellow,starting_melody,melody,starting,c,negative,positive,ES_green,0,m,446,2105046,2105551,2105755
83,third,73,geizig,IAT_purple4.bmp,purple,starting_scream,scream,starting,c,negative,negative,ES_green,1,c,361,2107776,2108280,2108484
83,third,74,sanft,IAT_purple1.bmp,purple,starting_scream,scream,starting,m,positive,negative,ES_green,1,m,583,2109920,2110424,2110628
83,third,75,sonnig,IAT_red4.bmp,red,ending_melody,melody,ending,m,positive,negative,ES_green,1,m,676,2112286,2112790,2112994
83,third,76,lästig,IAT_green2.bmp,green,ending_scream,scream,ending,c,negative,positive,ES_green,1,c,573,2114743,2115248,2115452
83,third,77,human,IAT_yellow2.bmp,yellow,starting_melody,melody,starting,m,positive,positive,ES_green,1,m,1084,2117100,2117604,2117808
83,third,78,geizig,IAT_red3.bmp,red,ending_melody,melody,ending,c,negative,negative,ES_green,1,c,396,2119966,2120470,2120674
83,third,79,lästig,IAT_green3.bmp,green,ending_scream,scream,ending,c,negative,positive,ES_green,1,c,549,2122145,2122649,2122853
83,third,80,witzig,IAT_red3.bmp,red,ending_melody,melody,ending,m,positive,negative,ES_green,1,m,544,2124477,2124981,2125185
83,third,81,schön,IAT_yellow3.bmp,yellow,starting_melody,melody,starting,m,positive,positive,ES_green,1,m,500,2126803,2127308,2127512
83,third,82,heiter,IAT_yellow1.bmp,yellow,starting_melody,melody,starting,m,positive,positive,ES_green,1,m,505,2129087,2129592,2129796
83,third,83,gierig,IAT_red1.bmp,red,ending_melody,melody,ending,c,negative,negative,ES_green,0,m,389,2131376,2131881,2132086
83,third,84,sozial,IAT_yellow1.bmp,yellow,starting_melody,melody,starting,m,positive,positive,ES_green,1,m,427,2134051,2134556,2134760
83,third,85,heiter,IAT_green3.bmp,green,ending_scream,scream,ending,m,positive,positive,ES_green,1,m,463,2136262,2136766,2136970
83,third,86,human,IAT_purple2.bmp,purple,starting_scream,scream,starting,m,positive,negative,ES_green,1,m,464,2138508,2139013,2139217
83,third,87,falsch,IAT_red2.bmp,red,ending_melody,melody,ending,c,negative,negative,ES_green,1,c,442,2140756,2141261,2141465
83,third,88,feige,IAT_green2.bmp,green,ending_scream,scream,ending,c,negative,positive,ES_green,1,c,646,2142983,2143487,2143691
83,third,89,munter,IAT_green4.bmp,green,ending_scream,scream,ending,m,positive,positive,ES_green,1,m,457,2145412,2145917,2146121
83,third,90,teuer,IAT_green4.bmp,green,ending_scream,scream,ending,c,negative,positive,ES_green,1,c,519,2147653,2148157,2148361
83,third,91,sanft,IAT_purple1.bmp,purple,starting_scream,scream,starting,m,positive,negative,ES_green,1,m,477,2149956,2150460,2150664
83,third,92,ehrlich,IAT_green3.bmp,green,ending_scream,scream,ending,m,positive,positive,ES_green,0,c,675,2152216,2152720,2152924
83,third,93,schön,IAT_red1.bmp,red,ending_melody,melody,ending,m,positive,negative,ES_green,1,m,556,2155174,2155679,2155883
83,third,94,krank,IAT_yellow2.bmp,yellow,starting_melody,melody,starting,c,negative,positive,ES_green,1,c,436,2157514,2158018,2158222
83,third,95,sozial,IAT_yellow4.bmp,yellow,starting_melody,melody,starting,m,positive,positive,ES_green,1,m,423,2159733,2160237,2160441
83,forth,0,morsch,IAT_red3.bmp,red,ending_melody,melody,ending,c,negative,negative,ES_green,1,c,477,2171126,2171631,2171835
83,forth,1,lästig,IAT_green4.bmp,green,ending_scream,scream,ending,c,negative,positive,ES_green,1,c,577,2173387,2173891,2174095
83,forth,2,sozial,IAT_purple1.bmp,purple,starting_scream,scream,starting,m,positive,negative,ES_green,1,m,456,2175745,2176249,2176453
83,forth,3,schön,IAT_green3.bmp,green,ending_scream,scream,ending,m,positive,positive,ES_green,1,m,419,2177982,2178487,2178691
83,forth,4,gesund,IAT_red1.bmp,red,ending_melody,melody,ending,m,positive,negative,ES_green,1,m,516,2180183,2180687,2180891
83,forth,5,heiter,IAT_green1.bmp,green,ending_scream,scream,ending,m,positive,positive,ES_green,1,m,527,2182482,2182986,2183190
83,forth,6,kaputt,IAT_yellow4.bmp,yellow,starting_melody,melody,starting,c,negative,positive,ES_green,1,c,439,2184792,2185296,2185500
83,forth,7,gierig,IAT_yellow2.bmp,yellow,starting_melody,melody,starting,c,negative,positive,ES_green,1,c,530,2187013,2187517,2187721
83,forth,8,gesund,IAT_yellow3.bmp,yellow,starting_melody,melody,starting,m,positive,positive,ES_green,1,m,376,2189325,2189829,2190033
83,forth,9,kaputt,IAT_purple4.bmp,purple,starting_scream,scream,starting,c,negative,negative,ES_green,1,c,473,2191482,2191986,2192190
83,forth,10,brutal,IAT_green4.bmp,green,ending_scream,scream,ending,c,negative,positive,ES_green,1,c,523,2193736,2194240,2194444
83,forth,11,gierig,IAT_purple4.bmp,purple,starting_scream,scream,starting,c,negative,negative,ES_green,1,c,576,2196041,2196545,2196749
83,forth,12,geizig,IAT_yellow4.bmp,yellow,starting_melody,melody,starting,c,negative,positive,ES_green,1,c,443,2198399,2198903,2199107
83,forth,13,gierig,IAT_purple2.bmp,purple,starting_scream,scream,starting,c,negative,negative,ES_green,1,c,410,2200623,2201127,2201331
83,forth,14,schön,IAT_green1.bmp,green,ending_scream,scream,ending,m,positive,positive,ES_green,1,m,437,2202814,2203318,2203522
83,forth,15,falsch,IAT_red4.bmp,red,ending_melody,melody,ending,c,negative,negative,ES_green,1,c,441,2205033,2205538,2205742
83,forth,16,lästig,IAT_green4.bmp,green,ending_scream,scream,ending,c,negative,positive,ES_green,1,c,438,2207256,2207760,2207964
83,forth,17,feige,IAT_red2.bmp,red,ending_melody,melody,ending,c,negative,negative,ES_green,1,c,370,2209475,2209980,2210184
83,forth,18,morsch,IAT_yellow2.bmp,yellow,starting_melody,melody,starting,c,negative,positive,ES_green,1,c,435,2211629,2212133,2212337
83,forth,19,brutal,IAT_purple2.bmp,purple,starting_scream,scream,starting,c,negative,negative,ES_green,1,c,415,2213847,2214351,2214555
83,forth,20,feige,IAT_yellow4.bmp,yellow,starting_melody,melody,starting,c,negative,positive,ES_green,1,c,492,2216044,2216548,2216752
83,forth,21,lästig,IAT_red2.bmp,red,ending_melody,melody,ending,c,negative,negative,ES_green,1,c,485,2218318,2218822,2219026
83,forth,22,falsch,IAT_green3.bmp,green,ending_scream,scream,ending,c,negative,positive,ES_green,1,c,414,2220586,2221090,2221294
83,forth,23,witzig,IAT_red2.bmp,red,ending_melody,melody,ending,m,positive,negative,ES_green,1,m,528,2222782,2223287,2223491
83,forth,24,gerecht,IAT_yellow1.bmp,yellow,starting_melody,melody,starting,m,positive,positive,ES_green,1,m,452,2225094,2225599,2225803
83,forth,25,munter,IAT_yellow3.bmp,yellow,starting_melody,melody,starting,m,positive,positive,ES_green,1,m,473,2227328,2227832,2228036
83,forth,26,teuer,IAT_green3.bmp,green,ending_scream,scream,ending,c,negative,positive,ES_green,0,m,402,2229583,2230088,2230292
83,forth,27,sanft,IAT_red3.bmp,red,ending_melody,melody,ending,m,positive,negative,ES_green,1,m,757,2232268,2232773,2232977
83,forth,28,gesund,IAT_green2.bmp,green,ending_scream,scream,ending,m,positive,positive,ES_green,1,m,456,2234813,2235317,2235521
83,forth,29,geizig,IAT_green1.bmp,green,ending_scream,scream,ending,c,negative,positive,ES_green,1,c,663,2237052,2237557,2237762
83,forth,30,morsch,IAT_yellow3.bmp,yellow,starting_melody,melody,starting,c,negative,positive,ES_green,1,c,442,2239499,2240003,2240207
83,forth,31,witzig,IAT_yellow2.bmp,yellow,starting_melody,melody,starting,m,positive,positive,ES_green,1,m,504,2241724,2242228,2242432
83,forth,32,heiter,IAT_red4.bmp,red,ending_melody,melody,ending,m,positive,negative,ES_green,1,m,508,2244011,2244516,2244720
83,forth,33,feige,IAT_red1.bmp,red,ending_melody,melody,ending,c,negative,negative,ES_green,1,c,515,2246303,2246808,2247012
83,forth,34,einsam,IAT_purple2.bmp,purple,starting_scream,scream,starting,c,negative,negative,ES_green,0,m,627,2248602,2249106,2249310
83,forth,35,krank,IAT_yellow1.bmp,yellow,starting_melody,melody,starting,c,negative,positive,ES_green,1,c,581,2251513,2252017,2252221
83,forth,36,sozial,IAT_green3.bmp,green,ending_scream,scream,ending,m,positive,positive,ES_green,1,m,581,2253878,2254382,2254586
83,forth,37,kaputt,IAT_red3.bmp,red,ending_melody,melody,ending,c,negative,negative,ES_green,1,c,419,2256241,2256746,2256950
83,forth,38,lästig,IAT_green2.bmp,green,ending_scream,scream,ending,c,negative,positive,ES_green,1,c,611,2258442,2258946,2259150
83,forth,39,brutal,IAT_red4.bmp,red,ending_melody,melody,ending,c,negative,negative,ES_green,1,c,514,2260836,2261340,2261544
83,forth,40,lustig,IAT_purple3.bmp,purple,starting_scream,scream,starting,m,positive,negative,ES_green,1,m,589,2263132,2263636,2263840
83,forth,41,heiter,IAT_purple3.bmp,purple,starting_scream,scream,starting,m,positive,negative,ES_green,1,m,633,2265503,2266007,2266211
83,forth,42,einsam,IAT_green4.bmp,green,ending_scream,scream,ending,c,negative,positive,ES_green,1,c,594,2267918,2268422,2268626
83,forth,43,teuer,IAT_green2.bmp,green,ending_scream,scream,ending,c,negative,positive,ES_green,1,c,583,2270293,2270797,2271001
83,forth,44,schön,IAT_red3.bmp,red,ending_melody,melody,ending,m,positive,negative,ES_green,1,m,903,2272660,2273164,2273368
83,forth,45,morsch,IAT_purple4.bmp,purple,starting_scream,scream,starting,c,negative,negative,ES_green,1,c,523,2275344,2275849,2276053
83,forth,46,sonnig,IAT_green4.bmp,green,ending_scream,scream,ending,m,positive,positive,ES_green,1,m,535,2277651,2278155,2278359
83,forth,47,brutal,IAT_yellow2.bmp,yellow,starting_melody,melody,starting,c,negative,positive,ES_green,1,c,538,2279968,2280472,2280676
83,forth,48,gerecht,IAT_purple2.bmp,purple,starting_scream,scream,starting,m,positive,negative,ES_green,1,m,548,2282288,2282792,2282996
83,forth,49,witzig,IAT_green3.bmp,green,ending_scream,scream,ending,m,positive,positive,ES_green,1,m,438,2284618,2285123,2285327
83,forth,50,sozial,IAT_yellow1.bmp,yellow,starting_melody,melody,starting,m,positive,positive,ES_green,1,m,412,2286840,2287344,2287548
83,forth,51,munter,IAT_red1.bmp,red,ending_melody,melody,ending,m,positive,negative,ES_green,1,m,497,2289034,2289538,2289742
83,forth,52,gerecht,IAT_yellow1.bmp,yellow,starting_melody,melody,starting,m,positive,positive,ES_green,1,m,623,2291314,2291818,2292022
83,forth,53,einsam,IAT_red4.bmp,red,ending_melody,melody,ending,c,negative,negative,ES_green,1,c,591,2293720,2294224,2294428
83,forth,54,ehrlich,IAT_purple2.bmp,purple,starting_scream,scream,starting,m,positive,negative,ES_green,1,m,561,2296093,2296598,2296802
83,forth,55,lustig,IAT_purple1.bmp,purple,starting_scream,scream,starting,m,positive,negative,ES_green,1,m,463,2298438,2298942,2299146
83,forth,56,kaputt,IAT_red4.bmp,red,ending_melody,melody,ending,c,negative,negative,ES_green,1,c,454,2300684,2301188,2301392
83,forth,57,heiter,IAT_purple3.bmp,purple,starting_scream,scream,starting,m,positive,negative,ES_green,1,m,467,2302920,2303424,2303628
83,forth,58,falsch,IAT_green2.bmp,green,ending_scream,scream,ending,c,negative,positive,ES_green,1,c,460,2305169,2305673,2305877
83,forth,59,teuer,IAT_yellow1.bmp,yellow,starting_melody,melody,starting,c,negative,positive,ES_green,1,c,547,2307412,2307917,2308121
83,forth,60,streng,IAT_red2.bmp,red,ending_melody,melody,ending,c,negative,negative,ES_green,1,c,531,2309743,2310247,2310451
83,forth,61,lustig,IAT_red1.bmp,red,ending_melody,melody,ending,m,positive,negative,ES_green,1,m,446,2312057,2312561,2312765
83,forth,62,human,IAT_yellow4.bmp,yellow,starting_melody,melody,starting,m,positive,positive,ES_green,1,m,613,2314286,2314790,2314994
83,forth,63,teuer,IAT_yellow3.bmp,yellow,starting_melody,melody,starting,c,negative,positive,ES_green,1,c,481,2316682,2317186,2317390
83,forth,64,sanft,IAT_purple1.bmp,purple,starting_scream,scream,starting,m,positive,negative,ES_green,1,m,477,2318946,2319450,2319654
83,forth,65,einsam,IAT_purple3.bmp,purple,starting_scream,scream,starting,c,negative,negative,ES_green,1,c,497,2321205,2321709,2321913
83,forth,66,sozial,IAT_yellow2.bmp,yellow,starting_melody,melody,starting,m,positive,positive,ES_green,0,c,438,2323484,2323989,2324193
83,forth,67,krank,IAT_green1.bmp,green,ending_scream,scream,ending,c,negative,positive,ES_green,1,c,558,2326204,2326709,2326913
83,forth,68,sonnig,IAT_yellow1.bmp,yellow,starting_melody,melody,starting,m,positive,positive,ES_green,1,m,353,2328546,2329050,2329254
83,forth,69,sanft,IAT_red3.bmp,red,ending_melody,melody,ending,m,positive,negative,ES_green,1,m,501,2330682,2331186,2331390
83,forth,70,gerecht,IAT_purple3.bmp,purple,starting_scream,scream,starting,m,positive,negative,ES_green,1,m,536,2332965,2333469,2333673
83,forth,71,streng,IAT_purple1.bmp,purple,starting_scream,scream,starting,c,negative,negative,ES_green,1,c,393,2335284,2335789,2335993
83,forth,72,sonnig,IAT_red2.bmp,red,ending_melody,melody,ending,m,positive,negative,ES_green,1,m,507,2337461,2337965,2338169
83,forth,73,munter,IAT_yellow4.bmp,yellow,starting_melody,melody,starting,m,positive,positive,ES_green,1,m,569,2339752,2340257,2340461
83,forth,74,gierig,IAT_purple4.bmp,purple,starting_scream,scream,starting,c,negative,negative,ES_green,1,c,591,2342104,2342609,2342813
83,forth,75,gesund,IAT_green1.bmp,green,ending_scream,scream,ending,m,positive,positive,ES_green,1,m,524,2344479,2344983,2345187
83,forth,76,munter,IAT_red4.bmp,red,ending_melody,melody,ending,m,positive,negative,ES_green,1,m,515,2346786,2347290,2347494
83,forth,77,krank,IAT_purple3.bmp,purple,starting_scream,scream,starting,c,negative,negative,ES_green,1,c,479,2349083,2349587,2349791
83,forth,78,witzig,IAT_green4.bmp,green,ending_scream,scream,ending,m,positive,positive,ES_green,1,m,444,2351344,2351849,2352053
83,forth,79,sonnig,IAT_purple4.bmp,purple,starting_scream,scream,starting,m,positive,negative,ES_green,1,m,493,2353572,2354077,2354281
83,forth,80,falsch,IAT_red2.bmp,red,ending_melody,melody,ending,c,negative,negative,ES_green,1,c,448,2355848,2356353,2356557
83,forth,81,ehrlich,IAT_green2.bmp,green,ending_scream,scream,ending,m,positive,positive,ES_green,1,m,516,2358079,2358583,2358787
83,forth,82,schön,IAT_purple1.bmp,purple,starting_scream,scream,starting,m,positive,negative,ES_green,1,m,535,2360379,2360883,2361087
83,forth,83,streng,IAT_purple2.bmp,purple,starting_scream,scream,starting,c,negative,negative,ES_green,1,c,432,2362697,2363201,2363405
83,forth,84,human,IAT_red1.bmp,red,ending_melody,melody,ending,m,positive,negative,ES_green,1,m,508,2364912,2365416,2365620
83,forth,85,krank,IAT_purple1.bmp,purple,starting_scream,scream,starting,c,negative,negative,ES_green,1,c,443,2367203,2367707,2367911
83,forth,86,ehrlich,IAT_purple4.bmp,purple,starting_scream,scream,starting,m,positive,negative,ES_green,1,m,411,2369428,2369932,2370136
83,forth,87,lustig,IAT_red3.bmp,red,ending_melody,melody,ending,m,positive,negative,ES_green,1,m,960,2371622,2372126,2372330
83,forth,88,human,IAT_green3.bmp,green,ending_scream,scream,ending,m,positive,positive,ES_green,0,c,453,2374365,2374869,2375073
83,forth,89,sanft,IAT_yellow3.bmp,yellow,starting_melody,melody,starting,m,positive,positive,ES_green,1,m,436,2377102,2377606,2377810
83,forth,90,human,IAT_green1.bmp,green,ending_scream,scream,ending,m,positive,positive,ES_green,1,m,428,2379320,2379825,2380029
83,forth,91,geizig,IAT_yellow2.bmp,yellow,starting_melody,melody,starting,c,negative,positive,ES_green,1,c,654,2381533,2382037,2382241
83,forth,92,streng,IAT_yellow4.bmp,yellow,starting_melody,melody,starting,c,negative,positive,ES_green,1,c,494,2383970,2384474,2384678
83,forth,93,feige,IAT_red1.bmp,red,ending_melody,melody,ending,c,negative,negative,ES_green,1,c,521,2386246,2386751,2386955
83,forth,94,ehrlich,IAT_yellow3.bmp,yellow,starting_melody,melody,starting,m,positive,positive,ES_green,1,m,396,2388552,2389056,2389260
83,forth,95,geizig,IAT_green2.bmp,green,ending_scream,scream,ending,c,negative,positive,ES_green,1,c,508,2390732,2391236,2391440
