experiment	subject	block	trial	order	material	repeated	related	probetype	response	correct	rt	math_response	math_correctresponse	math_correct	math_rt	confidence	confidence_rt	probe	item1	item2	item3	item4	item5	item6	age	sex	handedness	color_vision	mother_tongue	occupation
FAUST_1[2014-06]	101	1	22	2	1	1	1	1	2	0	2077	2	2	1	2237	3	1481	MINUTE	tochter	minute	vater	onkel	mutter	vater	29	1	1	1	1	PSYCHOLOGIE
FAUST_1[2014-06]	101	1	21	2	1	2	1	1	2	0	4197	2	2	1	2054	3	2581	HAND	tequila	rum	gin	hand	whiskey	hand	29	1	1	1	1	PSYCHOLOGIE
FAUST_1[2014-06]	101	1	32	2	1	1	2	1	1	1	1263	2	1	0	2279	4	1568	PFENNIG	dollar	hessen	pfennig	hessen	mark	euro	29	1	1	1	1	PSYCHOLOGIE
FAUST_1[2014-06]	101	1	30	2	1	2	2	1	1	1	1343	2	2	1	1899	4	2495	CHOPIN	vivaldi	chopin	brahms	chopin	beethoven	elbe	29	1	1	1	1	PSYCHOLOGIE
FAUST_1[2014-06]	101	1	11	2	1	1	1	1	2	0	2289	1	1	1	2107	3	1890	AFRIKA	klebeband	brieföffner	afrika	brieföffner	locher	büroklammer	29	1	1	1	1	PSYCHOLOGIE
FAUST_1[2014-06]	101	1	25	2	1	2	1	1	2	0	9078	2	1	0	2586	2	1916	ZEITUNG	porsche	zeitung	mercedes	zeitung	volvo	peugeot	29	1	1	1	1	PSYCHOLOGIE
FAUST_1[2014-06]	101	1	8	2	1	1	2	1	2	0	3839	2	1	0	1791	3	2478	DIESEL	präposition	diesel	petroleum	kerosin	präposition	benzin	29	1	1	1	1	PSYCHOLOGIE
FAUST_1[2014-06]	101	1	14	2	1	2	2	1	2	0	2473	2	1	0	1830	3	2391	SONNENSCHEIN	sonnenschein	regen	sonnenschein	baracke	schnee	hagel	29	1	1	1	1	PSYCHOLOGIE
FAUST_1[2014-06]	101	1	31	2	1	1	1	1	1	1	1382	1	1	1	2073	4	1759	YACHT	regal	schrank	tisch	yacht	sofa	regal	29	1	1	1	1	PSYCHOLOGIE
FAUST_1[2014-06]	101	1	12	2	1	2	1	1	1	1	2108	2	2	1	2270	3	2230	FINK	fink	tomaten	bohnen	fink	karotten	spinat	29	1	1	1	1	PSYCHOLOGIE
FAUST_1[2014-06]	101	1	3	2	1	1	2	1	1	1	2559	1	2	0	2644	4	6928	HAMBURG	hamburg	berlin	gewehr	hannover	stuttgart	gewehr	29	1	1	1	1	PSYCHOLOGIE
FAUST_1[2014-06]	101	1	15	2	1	2	2	1	1	1	1944	2	2	1	1857	2	5282	HAUPTSCHULE	hauptschule	gymnasium	berufsschule	hauptschule	realschule	pflaume	29	1	1	1	1	PSYCHOLOGIE
FAUST_1[2014-06]	101	1	6	2	1	1	1	2	2	1	1638	2	2	1	2162	4	4523	GLAS	schach	halma	monopoly	halma	backgammon	kanne	29	1	1	1	1	PSYCHOLOGIE
FAUST_1[2014-06]	101	1	18	2	1	2	1	2	2	1	2429	2	2	1	2864	3	3279	JACKE	hemd	tanne	birke	buche	eiche	hemd	29	1	1	1	1	PSYCHOLOGIE
FAUST_1[2014-06]	101	1	26	2	1	1	2	2	2	1	1054	2	2	1	1916	4	2049	TEMPEL	heroin	moschee	synagoge	heroin	kirche	kapelle	29	1	1	1	1	PSYCHOLOGIE
FAUST_1[2014-06]	101	1	7	2	1	2	2	2	2	1	3790	1	1	1	1818	3	3491	SATURN	merkur	kilometer	pluto	venus	merkur	jupiter	29	1	1	1	1	PSYCHOLOGIE
FAUST_1[2014-06]	101	1	29	2	1	1	1	2	2	1	1679	2	2	1	2654	4	1391	MEIßEL	flöte	oboe	klarinette	flöte	posaune	bohrer	29	1	1	1	1	PSYCHOLOGIE
FAUST_1[2014-06]	101	1	16	2	1	2	1	2	2	1	3260	2	2	1	2498	3	3491	GOLD	puma	eisen	gepard	leopard	panther	eisen	29	1	1	1	1	PSYCHOLOGIE
FAUST_1[2014-06]	101	1	19	2	1	1	2	2	2	1	2152	1	1	1	2309	4	2320	KOMÖDIE	thriller	western	rose	horrorfilm	actionfilm	rose	29	1	1	1	1	PSYCHOLOGIE
FAUST_1[2014-06]	101	1	17	2	1	2	2	2	2	1	1823	2	2	1	1923	3	1731	FREUDE	angst	trauer	ärger	mumps	angst	scham	29	1	1	1	1	PSYCHOLOGIE
FAUST_1[2014-06]	101	1	9	2	1	1	1	2	2	1	2587	1	2	0	2414	3	1992	GOLF	leber	lunge	niere	leber	fußball	herz	29	1	1	1	1	PSYCHOLOGIE
FAUST_1[2014-06]	101	1	5	2	1	2	1	2	1	0	2601	2	2	1	2102	4	2950	WOLLE	konzertsaal	baumwolle	kino	baumwolle	theater	zirkus	29	1	1	1	1	PSYCHOLOGIE
FAUST_1[2014-06]	101	1	10	2	1	1	2	2	2	1	3639	1	1	1	2299	3	1841	BRATWURST	pommes	döner	rückspiegel	hamburger	rückspiegel	pizza	29	1	1	1	1	PSYCHOLOGIE
FAUST_1[2014-06]	101	1	1	2	1	2	2	2	2	1	2128	2	2	1	1724	3	4375	ZUG	taxi	straßenbahn	taxi	zombie	bus	fahrrad	29	1	1	1	1	PSYCHOLOGIE
FAUST_1[2014-06]	101	1	23	2	1	1	1	3	2	1	1381	2	1	0	1998	4	1980	ZEICHNEN	lippenstift	wimperntusche	lippenstift	lidschatten	küchenwaage	rouge	29	1	1	1	1	PSYCHOLOGIE
FAUST_1[2014-06]	101	1	20	2	1	2	1	3	2	1	1428	1	1	1	2774	4	2628	DINKEL	gummibärchen	quadrat	bonbons	karamell	quadrat	lakritz	29	1	1	1	1	PSYCHOLOGIE
FAUST_1[2014-06]	101	1	24	2	1	1	1	3	2	1	1346	2	2	1	3152	4	1711	KAMERA	dänemark	england	sehen	italien	schweiz	dänemark	29	1	1	1	1	PSYCHOLOGIE
FAUST_1[2014-06]	101	1	4	2	1	2	1	3	1	0	5954	1	2	0	1928	2	5339	THYMIAN	graf	ozean	könig	herzog	fürst	ozean	29	1	1	1	1	PSYCHOLOGIE
FAUST_1[2014-06]	101	1	27	2	1	1	1	3	2	1	1126	1	2	0	1972	4	1979	FORELLE	gabel	bleistift	löffel	messer	löffel	teelöffel	29	1	1	1	1	PSYCHOLOGIE
FAUST_1[2014-06]	101	1	2	2	1	2	1	3	2	1	2135	1	1	1	1872	4	4130	RUMBA	stecknadel	häkelnadel	lila	nähnadel	lila	stricknadel	29	1	1	1	1	PSYCHOLOGIE
FAUST_1[2014-06]	101	1	28	2	1	1	1	3	2	1	1149	1	1	1	2305	4	1697	CHEMIE	steinbock	dackel	wassermann	jungfrau	schütze	wassermann	29	1	1	1	1	PSYCHOLOGIE
FAUST_1[2014-06]	101	1	13	2	1	2	1	3	2	1	2044	2	2	1	2533	3	2104	LEHRER	ameise	hummel	stickstoff	wespe	biene	stickstoff	29	1	1	1	1	PSYCHOLOGIE
FAUST_1[2014-06]	101	2	13	2	3	1	1	1	1	1	1392	2	2	1	2010	4	1302	mic_12.bmp	powerstrip_7.bmp	powerstrip_13.bmp	powerstrip_10.bmp	powerstrip_8.bmp	mic_12.bmp	powerstrip_13.bmp	29	1	1	1	1	PSYCHOLOGIE
FAUST_1[2014-06]	101	2	32	2	3	2	1	1	1	1	1094	2	2	1	1559	4	1944	router_7.bmp	laptop_15.bmp	router_7.bmp	laptop_10.bmp	laptop_7.bmp	laptop_14.bmp	router_7.bmp	29	1	1	1	1	PSYCHOLOGIE
FAUST_1[2014-06]	101	2	24	2	3	1	2	1	1	1	1944	1	2	0	1518	3	1737	glasses_15.bmp	glasses_6.bmp	glasses_9.bmp	sink_10.bmp	glasses_13.bmp	sink_10.bmp	glasses_15.bmp	29	1	1	1	1	PSYCHOLOGIE
FAUST_1[2014-06]	101	2	19	2	3	2	2	1	1	1	1413	2	2	1	1352	3	1427	circuitboard_4.bmp	cake_4.bmp	circuitboard_4.bmp	circuitboard_2.bmp	circuitboard_4.bmp	circuitboard_8.bmp	circuitboard_16.bmp	29	1	1	1	1	PSYCHOLOGIE
FAUST_1[2014-06]	101	2	7	2	3	1	1	1	1	1	1319	2	1	0	1478	4	1787	turtle_6.bmp	cat_5.bmp	cat_10.bmp	cat_9.bmp	cat_5.bmp	cat_4.bmp	turtle_6.bmp	29	1	1	1	1	PSYCHOLOGIE
FAUST_1[2014-06]	101	2	15	2	3	2	1	1	1	1	1244	2	2	1	2140	3	1398	cellphone_11.bmp	highchair_10.bmp	highchair_3.bmp	cellphone_11.bmp	highchair_4.bmp	cellphone_11.bmp	highchair_6.bmp	29	1	1	1	1	PSYCHOLOGIE
FAUST_1[2014-06]	101	2	20	2	3	1	2	1	1	1	1303	2	2	1	1367	4	1539	saddle_3.bmp	saddle_3.bmp	saddle_8.bmp	vase_1.bmp	saddle_15.bmp	saddle_4.bmp	vase_1.bmp	29	1	1	1	1	PSYCHOLOGIE
FAUST_1[2014-06]	101	2	3	2	3	2	2	1	1	1	1990	2	1	0	2459	4	2285	printer_1.bmp	printer_5.bmp	printer_1.bmp	printer_16.bmp	printer_1.bmp	trophy_16.bmp	printer_14.bmp	29	1	1	1	1	PSYCHOLOGIE
FAUST_1[2014-06]	101	2	4	2	3	1	1	1	1	1	1393	1	2	0	1648	4	1906	orifan_1.bmp	remote_3.bmp	remote_13.bmp	remote_2.bmp	orifan_1.bmp	remote_14.bmp	remote_13.bmp	29	1	1	1	1	PSYCHOLOGIE
FAUST_1[2014-06]	101	2	18	2	3	2	1	1	1	1	1284	1	2	0	1281	4	1229	birdhouse_6.bmp	windchime_3.bmp	birdhouse_6.bmp	windchime_15.bmp	windchime_16.bmp	windchime_10.bmp	birdhouse_6.bmp	29	1	1	1	1	PSYCHOLOGIE
FAUST_1[2014-06]	101	2	6	2	3	1	2	1	1	1	2078	2	2	1	3107	4	2210	scooter_11.bmp	easteregg_14.bmp	scooter_5.bmp	scooter_11.bmp	scooter_8.bmp	easteregg_14.bmp	scooter_10.bmp	29	1	1	1	1	PSYCHOLOGIE
FAUST_1[2014-06]	101	2	27	2	3	2	2	1	1	1	4221	1	2	0	1880	4	2449	babycrib_9.bmp	babycrib_9.bmp	babycrib_6.bmp	babycrib_7.bmp	babycrib_2.bmp	babycrib_9.bmp	rollerskates_8.bmp	29	1	1	1	1	PSYCHOLOGIE
FAUST_1[2014-06]	101	2	12	2	3	1	1	2	2	1	1237	1	1	1	2071	4	1408	chair_5.bmp	abacus_7.bmp	abacus_2.bmp	abacus_6.bmp	abacus_2.bmp	abacus_4.bmp	chair_2.bmp	29	1	1	1	1	PSYCHOLOGIE
FAUST_1[2014-06]	101	2	31	2	3	2	1	2	2	1	2666	2	2	1	1599	4	1605	garbagecan_2.bmp	guitar_8.bmp	guitar_14.bmp	garbagecan_13.bmp	guitar_10.bmp	guitar_5.bmp	garbagecan_13.bmp	29	1	1	1	1	PSYCHOLOGIE
FAUST_1[2014-06]	101	2	22	2	3	1	2	2	1	0	2212	1	2	0	1369	3	1459	trumpet_5.bmp	socks_15.bmp	trumpet_17.bmp	socks_15.bmp	trumpet_6.bmp	trumpet_1.bmp	trumpet_3.bmp	29	1	1	1	1	PSYCHOLOGIE
FAUST_1[2014-06]	101	2	23	2	3	2	2	2	1	0	2167	1	1	1	1393	3	1398	bagel_4.bmp	bagel_14.bmp	shredder_5.bmp	bagel_12.bmp	bagel_16.bmp	bagel_12.bmp	bagel_10.bmp	29	1	1	1	1	PSYCHOLOGIE
FAUST_1[2014-06]	101	2	1	2	3	1	1	2	2	1	3485	1	1	1	2239	2	2539	speaker_6.bmp	shoe_9.bmp	speaker_15.bmp	shoe_13.bmp	shoe_17.bmp	shoe_9.bmp	shoe_15.bmp	29	1	1	1	1	PSYCHOLOGIE
FAUST_1[2014-06]	101	2	2	2	3	2	1	2	2	1	1492	2	1	0	2049	3	2127	jacket_11.bmp	parfait_13.bmp	jacket_7.bmp	parfait_15.bmp	parfait_11.bmp	jacket_7.bmp	parfait_4.bmp	29	1	1	1	1	PSYCHOLOGIE
FAUST_1[2014-06]	101	2	8	2	3	1	2	2	2	1	6362	2	1	0	2258	3	4728	doorknocker_5.bmp	doorknocker_4.bmp	doorknocker_14.bmp	pasta_10.bmp	doorknocker_2.bmp	pasta_10.bmp	doorknocker_11.bmp	29	1	1	1	1	PSYCHOLOGIE
FAUST_1[2014-06]	101	2	28	2	3	2	2	2	2	1	1421	2	2	1	1695	4	2160	skateboard_3.bmp	skateboard_15.bmp	skateboard_14.bmp	skateboard_11.bmp	sofa_6.bmp	skateboard_11.bmp	skateboard_16.bmp	29	1	1	1	1	PSYCHOLOGIE
FAUST_1[2014-06]	101	2	14	2	3	1	1	2	1	0	2054	2	2	1	1988	3	1768	lawnmower_8.bmp	hairdryer_14.bmp	hairdryer_12.bmp	hairdryer_14.bmp	hairdryer_13.bmp	lawnmower_13.bmp	hairdryer_2.bmp	29	1	1	1	1	PSYCHOLOGIE
FAUST_1[2014-06]	101	2	17	2	3	2	1	2	1	0	1507	1	1	1	1703	3	1582	carriage_3.bmp	glove_8.bmp	carriage_2.bmp	glove_5.bmp	glove_10.bmp	carriage_2.bmp	glove_12.bmp	29	1	1	1	1	PSYCHOLOGIE
FAUST_1[2014-06]	101	2	30	2	3	1	2	2	2	1	1953	2	2	1	1618	3	1643	hairbrush_15.bmp	goggle_3.bmp	hairbrush_7.bmp	hairbrush_17.bmp	hairbrush_12.bmp	goggle_3.bmp	hairbrush_16.bmp	29	1	1	1	1	PSYCHOLOGIE
FAUST_1[2014-06]	101	2	11	2	3	2	2	2	2	1	4658	1	1	1	2547	3	1653	saltpeppershake_12.bmp	saltpeppershake_8.bmp	saltpeppershake_2.bmp	saltpeppershake_17.bmp	saltpeppershake_9.bmp	saltpeppershake_8.bmp	coffee_14.bmp	29	1	1	1	1	PSYCHOLOGIE
FAUST_1[2014-06]	101	2	21	2	3	1	1	3	2	1	1111	2	2	1	1476	4	1600	camera_4.bmp	watergun_3.bmp	backpack_13.bmp	backpack_12.bmp	backpack_6.bmp	backpack_16.bmp	backpack_6.bmp	29	1	1	1	1	PSYCHOLOGIE
FAUST_1[2014-06]	101	2	10	2	3	2	1	3	2	1	721	1	1	1	2001	4	1471	iceskates_14.bmp	wig_7.bmp	wig_9.bmp	rusdoll_1.bmp	wig_6.bmp	rusdoll_1.bmp	wig_12.bmp	29	1	1	1	1	PSYCHOLOGIE
FAUST_1[2014-06]	101	2	25	2	3	1	1	3	2	1	2892	1	2	0	2067	4	1736	bowlingpin_13.bmp	ring_8.bmp	ring_15.bmp	doorknob_17.bmp	ring_12.bmp	ring_8.bmp	ring_11.bmp	29	1	1	1	1	PSYCHOLOGIE
FAUST_1[2014-06]	101	2	9	2	3	2	1	3	2	1	1257	1	1	1	2178	4	1632	watch_3.bmp	tv_8.bmp	tv_16.bmp	trunk_7.bmp	tv_4.bmp	trunk_7.bmp	tv_7.bmp	29	1	1	1	1	PSYCHOLOGIE
FAUST_1[2014-06]	101	2	29	2	3	1	1	3	2	1	1146	1	1	1	1765	4	1336	carabiner_7.bmp	hammer_6.bmp	fan_1.bmp	fan_11.bmp	fan_17.bmp	fan_15.bmp	fan_1.bmp	29	1	1	1	1	PSYCHOLOGIE
FAUST_1[2014-06]	101	2	16	2	3	2	1	3	2	1	2234	1	1	1	1847	4	1663	horseshoe_5.bmp	beanbagchair_17.bmp	cheesegrater_11.bmp	beanbagchair_3.bmp	beanbagchair_15.bmp	beanbagchair_12.bmp	cheesegrater_11.bmp	29	1	1	1	1	PSYCHOLOGIE
FAUST_1[2014-06]	101	2	5	2	3	1	1	3	2	1	2233	2	1	0	2576	4	1750	leatherman_10.bmp	flashlight_17.bmp	flashlight_12.bmp	videogamecontroller_5.bmp	flashlight_13.bmp	flashlight_12.bmp	flashlight_2.bmp	29	1	1	1	1	PSYCHOLOGIE
FAUST_1[2014-06]	101	2	26	2	3	2	1	3	2	1	4896	2	1	0	2357	4	1985	cherubstatue_6.bmp	tricycle_5.bmp	plant_14.bmp	tricycle_2.bmp	tricycle_10.bmp	tricycle_15.bmp	plant_14.bmp	29	1	1	1	1	PSYCHOLOGIE
FAUST_1[2014-06]	101	3	20	2	2	1	1	1	1	1	1086	1	2	0	1337	3	1315	Key20.bmp	Screw13.bmp	Screw16.bmp	Key20.bmp	Screw16.bmp	Screw18.bmp	Screw10.bmp	29	1	1	1	1	PSYCHOLOGIE
FAUST_1[2014-06]	101	3	18	2	2	2	1	1	1	1	2116	2	1	0	1560	4	2235	Ginger17.bmp	Daff21.bmp	Daff3.bmp	Ginger17.bmp	Daff9.bmp	Daff22.bmp	Ginger17.bmp	29	1	1	1	1	PSYCHOLOGIE
FAUST_1[2014-06]	101	3	7	2	2	1	2	1	1	1	2550	2	1	0	1827	3	1619	Leaf13.bmp	Leaf13.bmp	Leaf21.bmp	Bracelet8.bmp	Leaf22.bmp	Leaf10.bmp	Bracelet8.bmp	29	1	1	1	1	PSYCHOLOGIE
FAUST_1[2014-06]	101	3	8	2	2	2	2	1	1	1	1344	2	2	1	1034	4	1516	Pear15.bmp	Pear15.bmp	Bun12.bmp	Pear15.bmp	Pear4.bmp	Pear16.bmp	Pear18.bmp	29	1	1	1	1	PSYCHOLOGIE
FAUST_1[2014-06]	101	3	10	2	2	1	1	1	1	1	1091	2	2	1	2494	4	1712	Fork8.bmp	Fork8.bmp	Stapler7.bmp	Stapler10.bmp	Stapler8.bmp	Stapler6.bmp	Stapler7.bmp	29	1	1	1	1	PSYCHOLOGIE
FAUST_1[2014-06]	101	3	19	2	2	2	1	1	1	1	1315	1	1	1	2325	4	1409	Coins10.bmp	Bag5.bmp	Coins10.bmp	Bag21.bmp	Bag25.bmp	Bag3.bmp	Coins10.bmp	29	1	1	1	1	PSYCHOLOGIE
FAUST_1[2014-06]	101	3	3	2	2	1	2	1	1	1	2075	2	2	1	1456	2	3679	Car14.bmp	Car7.bmp	Car13.bmp	Man15.bmp	Car12.bmp	Car14.bmp	Man15.bmp	29	1	1	1	1	PSYCHOLOGIE
FAUST_1[2014-06]	101	3	13	2	2	2	2	1	1	1	1483	2	1	0	1833	4	1216	Swirl1.bmp	Swirl5.bmp	Swirl1.bmp	Swirl10.bmp	Button20.bmp	Swirl1.bmp	Swirl23.bmp	29	1	1	1	1	PSYCHOLOGIE
FAUST_1[2014-06]	101	3	17	2	2	1	1	2	2	1	2515	2	2	1	1684	3	1971	Hanger2.bmp	Tomato18.bmp	Tomato3.bmp	Tomato5.bmp	Hanger7.bmp	Tomato12.bmp	Tomato18.bmp	29	1	1	1	1	PSYCHOLOGIE
FAUST_1[2014-06]	101	3	16	2	2	2	1	2	2	1	2560	2	2	1	2399	3	1439	Strawberry3.bmp	Strawberry14.bmp	Glass12.bmp	Glass4.bmp	Glass16.bmp	Glass19.bmp	Strawberry14.bmp	29	1	1	1	1	PSYCHOLOGIE
FAUST_1[2014-06]	101	3	11	2	2	1	2	2	2	1	2129	2	2	1	1579	3	2368	Chilli12.bmp	Star19.bmp	Chilli22.bmp	Star19.bmp	Chilli19.bmp	Chilli14.bmp	Chilli11.bmp	29	1	1	1	1	PSYCHOLOGIE
FAUST_1[2014-06]	101	3	1	2	2	2	2	2	1	0	3545	1	2	0	1539	3	2829	Hand17.bmp	Hand10.bmp	Hand8.bmp	Hand10.bmp	Hand13.bmp	Hand1.bmp	Jigsaw11.bmp	29	1	1	1	1	PSYCHOLOGIE
FAUST_1[2014-06]	101	3	15	2	2	1	1	2	2	1	3653	2	1	0	1928	4	1720	Feather2.bmp	Fudge15.bmp	Feather14.bmp	Fudge15.bmp	Fudge5.bmp	Fudge17.bmp	Fudge8.bmp	29	1	1	1	1	PSYCHOLOGIE
FAUST_1[2014-06]	101	3	5	2	2	2	1	2	1	0	1152	2	1	0	2409	3	2629	Scissors3.bmp	Chocolate5.bmp	Scissors14.bmp	Chocolate17.bmp	Chocolate24.bmp	Scissors14.bmp	Chocolate9.bmp	29	1	1	1	1	PSYCHOLOGIE
FAUST_1[2014-06]	101	3	9	2	2	1	2	2	2	1	2711	2	1	0	1222	2	1659	Plug4.bmp	Plug6.bmp	Nut2.bmp	Plug9.bmp	Plug8.bmp	Plug18.bmp	Nut2.bmp	29	1	1	1	1	PSYCHOLOGIE
FAUST_1[2014-06]	101	3	22	2	2	2	2	2	2	1	2439	2	2	1	1191	3	1435	Toothbrush10.bmp	Toothbrush6.bmp	Toothbrush12.bmp	Toothbrush9.bmp	Varnish3.bmp	Toothbrush6.bmp	Toothbrush1.bmp	29	1	1	1	1	PSYCHOLOGIE
FAUST_1[2014-06]	101	3	14	2	2	1	1	3	2	1	1631	1	2	0	1744	4	1702	Candle20.bmp	Holly14.bmp	Holly20.bmp	Holly11.bmp	Present17.bmp	Holly3.bmp	Holly14.bmp	29	1	1	1	1	PSYCHOLOGIE
FAUST_1[2014-06]	101	3	6	2	2	2	1	3	2	1	2488	2	2	1	1303	3	2846	Brocolli4.bmp	Cake24.bmp	Paperclip4.bmp	Paperclip14.bmp	Paperclip9.bmp	Cake24.bmp	Paperclip13.bmp	29	1	1	1	1	PSYCHOLOGIE
FAUST_1[2014-06]	101	3	4	2	2	1	1	3	2	1	2513	1	2	0	1320	4	1348	Umbrella7.bmp	Apple24.bmp	String9.bmp	String8.bmp	String9.bmp	String6.bmp	String2.bmp	29	1	1	1	1	PSYCHOLOGIE
FAUST_1[2014-06]	101	3	12	2	2	2	1	3	2	1	4609	2	1	0	1573	4	1537	Onion19.bmp	Mushroom14.bmp	Pen17.bmp	Mushroom7.bmp	Mushroom25.bmp	Mushroom6.bmp	Pen17.bmp	29	1	1	1	1	PSYCHOLOGIE
FAUST_1[2014-06]	101	3	2	2	2	1	1	3	2	1	1071	2	2	1	2585	4	2169	Keys6.bmp	Lipstick2.bmp	Lipstick7.bmp	Flower14.bmp	Lipstick15.bmp	Lipstick7.bmp	Lipstick3.bmp	29	1	1	1	1	PSYCHOLOGIE
FAUST_1[2014-06]	101	3	21	2	2	2	1	3	2	1	1221	2	1	0	2035	4	1477	Sweet10.bmp	Biscuit20.bmp	Shell17.bmp	Biscuit20.bmp	Shell9.bmp	Shell5.bmp	Shell18.bmp	29	1	1	1	1	PSYCHOLOGIE
FAUST_1[2014-06]	101	2	29	2	1	1	1	1	2	0	1087	2	2	1	1429	3	1629	VIERECK	internet	radio	fernsehen	radio	zeitung	viereck	29	1	1	1	1	PSYCHOLOGIE
FAUST_1[2014-06]	101	2	19	2	1	2	1	1	1	1	1315	1	2	0	2231	4	1730	LAKRITZ	lakritz	sohn	lakritz	vater	tochter	mutter	29	1	1	1	1	PSYCHOLOGIE
FAUST_1[2014-06]	101	2	14	2	1	1	2	1	2	0	843	2	1	0	2181	4	1241	SÄGE	zange	weizen	säge	meißel	bohrer	weizen	29	1	1	1	1	PSYCHOLOGIE
FAUST_1[2014-06]	101	2	26	2	1	2	2	1	1	1	961	2	2	1	2601	4	1558	HÄKELNADEL	häkelnadel	thymian	sicherheitsnadel	stricknadel	stecknadel	häkelnadel	29	1	1	1	1	PSYCHOLOGIE
FAUST_1[2014-06]	101	2	3	2	1	1	1	1	2	0	1428	2	2	1	1821	4	1341	BLUSE	schreiben	lesen	zeichnen	basteln	bluse	basteln	29	1	1	1	1	PSYCHOLOGIE
FAUST_1[2014-06]	101	2	21	2	1	2	1	1	1	1	1122	2	2	1	2283	4	1828	SCHEUNE	scheune	chachacha	walzer	scheune	rumba	foxtrott	29	1	1	1	1	PSYCHOLOGIE
FAUST_1[2014-06]	101	2	8	2	1	1	2	1	2	0	4850	1	1	1	1877	3	4021	ADVERB	verb	wassermann	adjektiv	wassermann	adverb	nomen	29	1	1	1	1	PSYCHOLOGIE
FAUST_1[2014-06]	101	2	2	2	1	2	2	1	1	1	1804	2	1	0	2677	4	1661	MÜNCHEN	münchen	becher	münchen	stuttgart	hamburg	berlin	29	1	1	1	1	PSYCHOLOGIE
FAUST_1[2014-06]	101	2	18	2	1	1	1	1	2	0	1000	2	1	0	2398	3	1891	TENNIS	tennis	silber	eisen	bronze	messing	eisen	29	1	1	1	1	PSYCHOLOGIE
FAUST_1[2014-06]	101	2	23	2	1	2	1	1	1	1	1218	2	1	0	2420	4	1928	GRÜN	western	grün	thriller	horrorfilm	komödie	grün	29	1	1	1	1	PSYCHOLOGIE
FAUST_1[2014-06]	101	2	30	2	1	1	2	1	1	1	1094	2	2	1	2543	4	1196	HASCHISCH	straßenbahn	cannabis	kokain	straßenbahn	heroin	haschisch	29	1	1	1	1	PSYCHOLOGIE
FAUST_1[2014-06]	101	2	11	2	1	2	2	1	1	1	1143	2	2	1	2286	4	1431	MASERN	masern	röteln	masern	windpocken	grippe	österreich	29	1	1	1	1	PSYCHOLOGIE
FAUST_1[2014-06]	101	2	5	2	1	1	1	2	2	1	1160	1	2	0	1506	4	1277	MILLIMETER	volvo	porsche	peugeot	meile	mercedes	peugeot	29	1	1	1	1	PSYCHOLOGIE
FAUST_1[2014-06]	101	2	15	2	1	2	1	2	2	1	1642	1	2	0	2079	4	1744	NEBEL	sonnenschein	pistole	schwert	dolch	gewehr	sonnenschein	29	1	1	1	1	PSYCHOLOGIE
FAUST_1[2014-06]	101	2	10	2	1	1	2	2	2	1	1244	2	2	1	2214	4	1286	GESAMTSCHULE	baumwolle	berufsschule	realschule	gymnasium	baumwolle	hauptschule	29	1	1	1	1	PSYCHOLOGIE
FAUST_1[2014-06]	101	2	4	2	1	2	2	2	2	1	986	1	1	1	2359	4	1254	HEXE	werwolf	vampir	zombie	werwolf	dämon	lippenstift	29	1	1	1	1	PSYCHOLOGIE
FAUST_1[2014-06]	101	2	25	2	1	1	1	2	2	1	980	2	1	0	2101	4	2149	SCHÄFERHUND	tempel	synagoge	moschee	kirche	mops	moschee	29	1	1	1	1	PSYCHOLOGIE
FAUST_1[2014-06]	101	2	1	2	1	2	1	2	1	0	2094	2	2	1	2648	2	2123	HUMMEL	wespe	polizist	wespe	richter	arzt	lehrer	29	1	1	1	1	PSYCHOLOGIE
FAUST_1[2014-06]	101	2	17	2	1	1	2	2	1	0	4090	2	1	0	2545	3	1334	WODKA	gin	brotmesser	tequila	whiskey	brotmesser	rum	29	1	1	1	1	PSYCHOLOGIE
FAUST_1[2014-06]	101	2	24	2	1	2	2	2	2	1	1022	1	2	0	1889	3	2719	OZEAN	teich	fluss	see	meer	fluss	bratwurst	29	1	1	1	1	PSYCHOLOGIE
FAUST_1[2014-06]	101	2	16	2	1	1	1	2	2	1	3981	2	2	1	1849	2	4697	ROSE	elbe	rhein	weser	donau	rhein	lilie	29	1	1	1	1	PSYCHOLOGIE
FAUST_1[2014-06]	101	2	22	2	1	2	1	2	2	1	1407	2	2	1	1951	4	1887	HELIUM	stickstoff	lunge	leber	magen	herz	stickstoff	29	1	1	1	1	PSYCHOLOGIE
FAUST_1[2014-06]	101	2	9	2	1	1	2	2	2	1	1065	2	1	0	1991	3	1465	BACKFORM	chemie	nudelholz	backblech	pfannenwender	chemie	küchenwaage	29	1	1	1	1	PSYCHOLOGIE
FAUST_1[2014-06]	101	2	31	2	1	2	2	2	2	1	957	2	2	1	1551	4	1988	FILZSTIFT	buntstift	kugelschreiber	eiche	füller	kugelschreiber	bleistift	29	1	1	1	1	PSYCHOLOGIE
FAUST_1[2014-06]	101	2	7	2	1	1	1	3	2	1	913	1	2	0	2277	4	1559	BIRNE	herzog	tisch	könig	herzog	kaiser	fürst	29	1	1	1	1	PSYCHOLOGIE
FAUST_1[2014-06]	101	2	12	2	1	2	1	3	2	1	915	1	2	0	1665	4	1953	KOPF	minute	tag	fähre	stunde	sekunde	fähre	29	1	1	1	1	PSYCHOLOGIE
FAUST_1[2014-06]	101	2	27	2	1	1	1	3	2	1	2527	-1	1	0	0	3	2104	DRUCKER	gepard	puma	leopard	tiger	gepard	euro	29	1	1	1	1	PSYCHOLOGIE
FAUST_1[2014-06]	101	2	20	2	1	2	1	3	2	1	970	1	2	0	1589	4	1782	BRIEFÖFFNER	blumenkohl	tomaten	beethoven	spinat	karotten	beethoven	29	1	1	1	1	PSYCHOLOGIE
FAUST_1[2014-06]	101	2	32	2	1	1	1	3	2	1	1104	2	2	1	1492	3	1302	SEHEN	halma	backgammon	schach	scrabble	meise	backgammon	29	1	1	1	1	PSYCHOLOGIE
FAUST_1[2014-06]	101	2	13	2	1	2	1	3	2	1	961	1	1	1	2002	4	1561	BRANDENBURG	freude	petroleum	diesel	kerosin	benzin	freude	29	1	1	1	1	PSYCHOLOGIE
FAUST_1[2014-06]	101	2	28	2	1	1	1	3	2	1	790	1	2	0	1475	3	1922	AFRIKA	lenkrad	zirkus	kupplung	lenkrad	rückspiegel	gaspedal	29	1	1	1	1	PSYCHOLOGIE
FAUST_1[2014-06]	101	2	6	2	1	2	1	3	2	1	924	2	2	1	1984	3	1732	FLÖTE	jupiter	venus	pluto	forelle	merkur	forelle	29	1	1	1	1	PSYCHOLOGIE
FAUST_1[2014-06]	101	3	32	2	3	1	1	1	1	1	1216	2	2	1	1277	4	2060	trunk_2.bmp	router_7.bmp	router_12.bmp	trunk_2.bmp	router_16.bmp	router_5.bmp	router_16.bmp	29	1	1	1	1	PSYCHOLOGIE
FAUST_1[2014-06]	101	3	19	2	3	2	1	1	1	1	3823	2	2	1	1490	2	1807	fan_10.bmp	cellphone_11.bmp	fan_10.bmp	cellphone_12.bmp	fan_10.bmp	cellphone_3.bmp	cellphone_8.bmp	29	1	1	1	1	PSYCHOLOGIE
FAUST_1[2014-06]	101	3	11	2	3	1	2	1	1	1	1223	1	1	1	1743	4	1275	shredder_15.bmp	shredder_6.bmp	shredder_5.bmp	tricycle_10.bmp	shredder_7.bmp	tricycle_10.bmp	shredder_15.bmp	29	1	1	1	1	PSYCHOLOGIE
FAUST_1[2014-06]	101	3	25	2	3	2	2	1	1	1	1859	2	1	0	1664	4	854	windchime_6.bmp	windchime_15.bmp	windchime_6.bmp	windchime_10.bmp	windchime_6.bmp	windchime_16.bmp	speaker_10.bmp	29	1	1	1	1	PSYCHOLOGIE
FAUST_1[2014-06]	101	3	22	2	3	1	1	1	1	1	1240	1	1	1	1192	3	1480	tv_4.bmp	abacus_4.bmp	abacus_7.bmp	abacus_2.bmp	abacus_6.bmp	abacus_7.bmp	tv_4.bmp	29	1	1	1	1	PSYCHOLOGIE
FAUST_1[2014-06]	101	3	14	2	3	2	1	1	1	1	1114	2	2	1	1061	4	1505	hammer_17.bmp	cat_10.bmp	hammer_17.bmp	cat_1.bmp	hammer_17.bmp	cat_4.bmp	cat_9.bmp	29	1	1	1	1	PSYCHOLOGIE
FAUST_1[2014-06]	101	3	4	2	3	1	2	1	1	1	1204	1	1	1	1847	3	1415	horseshoe_5.bmp	horseshoe_4.bmp	horseshoe_3.bmp	lawnmower_3.bmp	horseshoe_5.bmp	lawnmower_3.bmp	horseshoe_12.bmp	29	1	1	1	1	PSYCHOLOGIE
FAUST_1[2014-06]	101	3	12	2	3	2	2	1	1	1	1115	2	2	1	1839	4	1449	ring_12.bmp	ring_12.bmp	glove_12.bmp	ring_8.bmp	ring_7.bmp	ring_12.bmp	ring_11.bmp	29	1	1	1	1	PSYCHOLOGIE
FAUST_1[2014-06]	101	3	29	2	3	1	1	1	1	1	1058	1	1	1	2361	3	839	bowlingpin_4.bmp	camera_3.bmp	camera_6.bmp	bowlingpin_4.bmp	camera_9.bmp	camera_4.bmp	camera_6.bmp	29	1	1	1	1	PSYCHOLOGIE
FAUST_1[2014-06]	101	3	24	2	3	2	1	1	1	1	1272	2	2	1	1927	4	1756	skateboard_14.bmp	videogamecontroller_5.bmp	skateboard_14.bmp	videogamecontroller_2.bmp	videogamecontroller_13.bmp	skateboard_14.bmp	videogamecontroller_3.bmp	29	1	1	1	1	PSYCHOLOGIE
FAUST_1[2014-06]	101	3	3	2	3	1	2	1	1	1	1206	2	2	1	2207	4	1558	shoe_7.bmp	powerstrip_13.bmp	shoe_15.bmp	powerstrip_13.bmp	shoe_9.bmp	shoe_17.bmp	shoe_7.bmp	29	1	1	1	1	PSYCHOLOGIE
FAUST_1[2014-06]	101	3	9	2	3	2	2	1	1	1	1116	1	2	0	1560	3	1609	sofa_6.bmp	sofa_6.bmp	sofa_3.bmp	sofa_6.bmp	parfait_11.bmp	sofa_13.bmp	sofa_9.bmp	29	1	1	1	1	PSYCHOLOGIE
FAUST_1[2014-06]	101	3	31	2	3	1	1	2	2	1	1966	2	2	1	888	3	1643	saddle_4.bmp	saddle_5.bmp	chair_11.bmp	chair_3.bmp	chair_2.bmp	chair_5.bmp	chair_2.bmp	29	1	1	1	1	PSYCHOLOGIE
FAUST_1[2014-06]	101	3	5	2	3	2	1	2	2	1	3346	2	2	1	1849	2	3560	vase_1.bmp	goggle_13.bmp	vase_6.bmp	goggle_1.bmp	goggle_9.bmp	goggle_4.bmp	vase_6.bmp	29	1	1	1	1	PSYCHOLOGIE
FAUST_1[2014-06]	101	3	17	2	3	1	2	2	2	1	1156	1	2	0	1373	4	1155	carriage_14.bmp	jacket_13.bmp	carriage_9.bmp	carriage_3.bmp	jacket_13.bmp	carriage_2.bmp	carriage_12.bmp	29	1	1	1	1	PSYCHOLOGIE
FAUST_1[2014-06]	101	3	20	2	3	2	2	2	1	0	1403	2	2	1	1319	3	1241	birdhouse_7.bmp	birdhouse_11.bmp	guitar_5.bmp	birdhouse_9.bmp	birdhouse_6.bmp	birdhouse_14.bmp	birdhouse_11.bmp	29	1	1	1	1	PSYCHOLOGIE
FAUST_1[2014-06]	101	3	26	2	3	1	1	2	2	1	1954	2	1	0	1332	3	2107	printer_16.bmp	coffee_7.bmp	coffee_1.bmp	printer_5.bmp	coffee_14.bmp	coffee_15.bmp	coffee_7.bmp	29	1	1	1	1	PSYCHOLOGIE
FAUST_1[2014-06]	101	3	6	2	3	2	1	2	2	1	1468	2	2	1	2650	4	1370	cake_3.bmp	cake_4.bmp	highchair_4.bmp	highchair_15.bmp	highchair_6.bmp	cake_4.bmp	highchair_3.bmp	29	1	1	1	1	PSYCHOLOGIE
FAUST_1[2014-06]	101	3	28	2	3	1	2	2	1	0	1362	1	2	0	2696	3	1233	hairbrush_12.bmp	hairbrush_16.bmp	beanbagchair_17.bmp	hairbrush_7.bmp	beanbagchair_17.bmp	hairbrush_15.bmp	hairbrush_17.bmp	29	1	1	1	1	PSYCHOLOGIE
FAUST_1[2014-06]	101	3	30	2	3	2	2	2	2	1	782	2	1	0	1936	4	1352	trophy_6.bmp	trophy_14.bmp	garbagecan_2.bmp	trophy_15.bmp	trophy_14.bmp	trophy_4.bmp	trophy_16.bmp	29	1	1	1	1	PSYCHOLOGIE
FAUST_1[2014-06]	101	3	1	2	3	1	1	2	1	0	1142	2	2	1	1543	3	1792	watch_3.bmp	hairdryer_13.bmp	watch_8.bmp	hairdryer_2.bmp	hairdryer_12.bmp	hairdryer_2.bmp	hairdryer_14.bmp	29	1	1	1	1	PSYCHOLOGIE
FAUST_1[2014-06]	101	3	23	2	3	2	1	2	1	0	3767	2	1	0	1610	1	1746	leatherman_14.bmp	circuitboard_2.bmp	circuitboard_4.bmp	leatherman_10.bmp	circuitboard_8.bmp	circuitboard_13.bmp	leatherman_10.bmp	29	1	1	1	1	PSYCHOLOGIE
FAUST_1[2014-06]	101	3	18	2	3	1	2	2	2	1	946	1	1	1	1647	3	1554	turtle_11.bmp	turtle_12.bmp	turtle_2.bmp	pasta_15.bmp	turtle_6.bmp	pasta_15.bmp	turtle_7.bmp	29	1	1	1	1	PSYCHOLOGIE
FAUST_1[2014-06]	101	3	15	2	3	2	2	2	1	0	1319	2	2	1	1475	3	972	mic_5.bmp	mic_12.bmp	mic_3.bmp	watergun_8.bmp	mic_2.bmp	mic_10.bmp	mic_12.bmp	29	1	1	1	1	PSYCHOLOGIE
FAUST_1[2014-06]	101	3	16	2	3	1	1	3	2	1	1041	2	2	1	1983	4	1447	sink_6.bmp	backpack_13.bmp	backpack_6.bmp	backpack_16.bmp	socks_12.bmp	backpack_12.bmp	backpack_13.bmp	29	1	1	1	1	PSYCHOLOGIE
FAUST_1[2014-06]	101	3	8	2	3	2	1	3	2	1	700	1	2	0	1980	4	1392	carabiner_5.bmp	plant_14.bmp	plant_5.bmp	rusdoll_1.bmp	plant_8.bmp	rusdoll_1.bmp	plant_13.bmp	29	1	1	1	1	PSYCHOLOGIE
FAUST_1[2014-06]	101	3	7	2	3	1	1	3	2	1	919	1	1	1	1405	4	1411	doorknob_2.bmp	cheesegrater_14.bmp	cheesegrater_15.bmp	cheesegrater_11.bmp	easteregg_14.bmp	cheesegrater_14.bmp	cheesegrater_5.bmp	29	1	1	1	1	PSYCHOLOGIE
FAUST_1[2014-06]	101	3	21	2	3	2	1	3	2	1	1297	2	2	1	1278	4	1207	glasses_6.bmp	trumpet_17.bmp	orifan_6.bmp	orifan_14.bmp	orifan_17.bmp	orifan_7.bmp	trumpet_17.bmp	29	1	1	1	1	PSYCHOLOGIE
FAUST_1[2014-06]	101	3	10	2	3	1	1	3	2	1	1180	1	1	1	1244	4	2000	wig_12.bmp	rollerskates_7.bmp	remote_2.bmp	remote_11.bmp	remote_14.bmp	remote_13.bmp	remote_14.bmp	29	1	1	1	1	PSYCHOLOGIE
FAUST_1[2014-06]	101	3	13	2	3	2	1	3	2	1	1281	2	1	0	1719	4	1581	doorknocker_11.bmp	saltpeppershake_9.bmp	babycrib_7.bmp	saltpeppershake_12.bmp	saltpeppershake_2.bmp	babycrib_7.bmp	saltpeppershake_17.bmp	29	1	1	1	1	PSYCHOLOGIE
FAUST_1[2014-06]	101	3	2	2	3	1	1	3	2	1	4624	2	1	0	1413	4	2188	scooter_10.bmp	laptop_14.bmp	bagel_16.bmp	laptop_14.bmp	laptop_15.bmp	laptop_16.bmp	laptop_10.bmp	29	1	1	1	1	PSYCHOLOGIE
FAUST_1[2014-06]	101	3	27	2	3	2	1	3	2	1	991	2	1	0	1145	4	2189	cherubstatue_6.bmp	flashlight_1.bmp	iceskates_7.bmp	iceskates_5.bmp	iceskates_16.bmp	flashlight_1.bmp	iceskates_9.bmp	29	1	1	1	1	PSYCHOLOGIE
FAUST_1[2014-06]	101	4	9	2	2	1	1	1	1	1	1167	1	2	0	2272	4	1136	Hand17.bmp	Hand17.bmp	Coins12.bmp	Coins14.bmp	Coins8.bmp	Coins14.bmp	Coins3.bmp	29	1	1	1	1	PSYCHOLOGIE
FAUST_1[2014-06]	101	4	12	2	2	2	1	1	1	1	1083	2	2	1	2651	4	1002	Hanger12.bmp	Candle10.bmp	Candle20.bmp	Hanger12.bmp	Candle1.bmp	Hanger12.bmp	Candle17.bmp	29	1	1	1	1	PSYCHOLOGIE
FAUST_1[2014-06]	101	4	18	2	2	1	2	1	1	1	1321	1	1	1	1988	4	1118	Fudge8.bmp	Fudge8.bmp	Sweet25.bmp	Fudge20.bmp	Fudge17.bmp	Fudge5.bmp	Sweet25.bmp	29	1	1	1	1	PSYCHOLOGIE
FAUST_1[2014-06]	101	4	14	2	2	2	2	1	1	1	1451	1	1	1	1845	4	1576	Present9.bmp	Present9.bmp	Present2.bmp	Present17.bmp	Paperclip14.bmp	Present9.bmp	Present14.bmp	29	1	1	1	1	PSYCHOLOGIE
FAUST_1[2014-06]	101	4	15	2	2	1	1	1	1	1	1206	2	2	1	2456	3	1452	Nut19.bmp	Pear18.bmp	Nut19.bmp	Pear4.bmp	Pear15.bmp	Pear16.bmp	Pear18.bmp	29	1	1	1	1	PSYCHOLOGIE
FAUST_1[2014-06]	101	4	3	2	2	2	1	1	1	1	1344	2	2	1	1831	3	1411	Bag21.bmp	Bag21.bmp	Flower13.bmp	Flower17.bmp	Flower14.bmp	Bag21.bmp	Flower18.bmp	29	1	1	1	1	PSYCHOLOGIE
FAUST_1[2014-06]	101	4	7	2	2	1	2	1	1	1	1263	1	1	1	1624	4	1104	Car13.bmp	Glass16.bmp	Car21.bmp	Car7.bmp	Glass16.bmp	Car13.bmp	Car12.bmp	29	1	1	1	1	PSYCHOLOGIE
FAUST_1[2014-06]	101	4	5	2	2	2	2	1	1	1	1532	2	2	1	1781	4	1366	Bun5.bmp	Bun22.bmp	Bun5.bmp	Feather18.bmp	Bun19.bmp	Bun5.bmp	Bun12.bmp	29	1	1	1	1	PSYCHOLOGIE
FAUST_1[2014-06]	101	4	17	2	2	1	1	2	2	1	2457	2	2	1	1983	3	1472	Star1.bmp	Ginger3.bmp	Ginger10.bmp	Ginger17.bmp	Ginger5.bmp	Star7.bmp	Ginger5.bmp	29	1	1	1	1	PSYCHOLOGIE
FAUST_1[2014-06]	101	4	22	2	2	2	1	2	1	0	1469	2	1	0	1244	3	1122	Mushroom6.bmp	Holly20.bmp	Mushroom25.bmp	Holly14.bmp	Mushroom25.bmp	Holly3.bmp	Holly11.bmp	29	1	1	1	1	PSYCHOLOGIE
FAUST_1[2014-06]	101	4	6	2	2	1	2	2	2	1	5058	2	2	1	2229	3	2565	Umbrella7.bmp	Umbrella17.bmp	Plug8.bmp	Umbrella19.bmp	Umbrella21.bmp	Umbrella6.bmp	Plug8.bmp	29	1	1	1	1	PSYCHOLOGIE
FAUST_1[2014-06]	101	4	10	2	2	2	2	2	2	1	3192	2	2	1	2233	2	1813	Shell18.bmp	Apple10.bmp	Shell9.bmp	Shell1.bmp	Shell9.bmp	Shell5.bmp	Shell17.bmp	29	1	1	1	1	PSYCHOLOGIE
FAUST_1[2014-06]	101	4	21	2	2	1	1	2	2	1	990	2	2	1	1738	3	1232	Toothbrush9.bmp	Scissors3.bmp	Scissors11.bmp	Toothbrush6.bmp	Scissors14.bmp	Scissors23.bmp	Scissors11.bmp	29	1	1	1	1	PSYCHOLOGIE
FAUST_1[2014-06]	101	4	8	2	2	2	1	2	2	1	2922	2	1	0	1331	2	1191	Jigsaw18.bmp	Man2.bmp	Jigsaw17.bmp	Man4.bmp	Jigsaw17.bmp	Man15.bmp	Man10.bmp	29	1	1	1	1	PSYCHOLOGIE
FAUST_1[2014-06]	101	4	11	2	2	1	2	2	2	1	1456	1	2	0	2866	2	1050	Varnish3.bmp	Varnish11.bmp	Screw10.bmp	Varnish5.bmp	Varnish14.bmp	Screw10.bmp	Varnish17.bmp	29	1	1	1	1	PSYCHOLOGIE
FAUST_1[2014-06]	101	4	19	2	2	2	2	2	2	1	1497	1	1	1	1510	2	1568	Biscuit17.bmp	Biscuit9.bmp	Biscuit25.bmp	Biscuit4.bmp	Biscuit9.bmp	Biscuit20.bmp	Keys8.bmp	29	1	1	1	1	PSYCHOLOGIE
FAUST_1[2014-06]	101	4	16	2	2	1	1	3	2	1	1136	1	1	1	1462	3	1173	Button14.bmp	Daff3.bmp	Daff1.bmp	Daff3.bmp	Daff21.bmp	Bracelet8.bmp	Daff9.bmp	29	1	1	1	1	PSYCHOLOGIE
FAUST_1[2014-06]	101	4	13	2	2	2	1	3	2	1	1087	1	2	0	3340	4	1873	Pen5.bmp	Onion18.bmp	Swirl23.bmp	Onion7.bmp	Onion19.bmp	Onion13.bmp	Swirl23.bmp	29	1	1	1	1	PSYCHOLOGIE
FAUST_1[2014-06]	101	4	4	2	2	1	1	3	2	1	929	2	1	0	2082	4	1369	Key13.bmp	Chilli12.bmp	Chilli19.bmp	Lipstick7.bmp	Chilli19.bmp	Chilli14.bmp	Chilli22.bmp	29	1	1	1	1	PSYCHOLOGIE
FAUST_1[2014-06]	101	4	1	2	2	2	1	3	2	1	916	1	1	1	1466	4	1229	Fork9.bmp	Leaf22.bmp	Brocolli4.bmp	Brocolli19.bmp	Brocolli10.bmp	Leaf22.bmp	Brocolli14.bmp	29	1	1	1	1	PSYCHOLOGIE
FAUST_1[2014-06]	101	4	20	2	2	1	1	3	2	1	1040	1	1	1	2308	4	933	Stapler8.bmp	String2.bmp	Cake18.bmp	String9.bmp	String8.bmp	String6.bmp	String2.bmp	29	1	1	1	1	PSYCHOLOGIE
FAUST_1[2014-06]	101	4	2	2	2	2	1	3	2	1	1354	2	1	0	1223	4	1098	Strawberry3.bmp	Tomato3.bmp	Tomato2.bmp	Tomato5.bmp	Chocolate6.bmp	Tomato18.bmp	Chocolate6.bmp	29	1	1	1	1	PSYCHOLOGIE
