experiment	subject	block	trial	order	material	repeated	related	probetype	response	correct	rt	math_response	math_correctresponse	math_correct	math_rt	confidence	confidence_rt	probe	item1	item2	item3	item4	item5	item6	age	sex	handedness	color_vision	mother_tongue	occupation
FAUST_1[2014-06]	102	1	10	1	1	1	1	1	2	0	1635	2	2	1	2398	4	1869	SAUERSTOFF	lippenstift	lidschatten	lippenstift	kajal	sauerstoff	wimperntusche	21	2	1	1	1	PSYCHOLOGIE
FAUST_1[2014-06]	102	1	2	1	1	2	1	1	2	0	1368	2	2	1	1924	3	1608	BERLIN	hören	riechen	berlin	schmecken	sehen	berlin	21	2	1	1	1	PSYCHOLOGIE
FAUST_1[2014-06]	102	1	18	1	1	1	2	1	1	1	2786	-1	2	0	0	3	2367	VOLVO	audi	terrier	mercedes	volvo	terrier	porsche	21	2	1	1	1	PSYCHOLOGIE
FAUST_1[2014-06]	102	1	15	1	1	2	2	1	1	1	1573	2	2	1	1791	4	1928	FLÖTE	posaune	kaiser	flöte	oboe	flöte	trompete	21	2	1	1	1	PSYCHOLOGIE
FAUST_1[2014-06]	102	1	26	1	1	1	1	1	1	1	1774	2	2	1	2345	4	1788	WODKA	karamell	bonbons	karamell	lakritz	gummibärchen	wodka	21	2	1	1	1	PSYCHOLOGIE
FAUST_1[2014-06]	102	1	17	1	1	2	1	1	2	0	1802	1	1	1	2263	4	2719	DOLLAR	tempel	dollar	kapelle	moschee	dollar	synagoge	21	2	1	1	1	PSYCHOLOGIE
FAUST_1[2014-06]	102	1	16	1	1	1	2	1	1	1	1790	1	1	1	2207	4	1695	STRICKNADEL	stecknadel	stricknadel	lunge	nähnadel	sicherheitsnadel	lunge	21	2	1	1	1	PSYCHOLOGIE
FAUST_1[2014-06]	102	1	21	1	1	2	2	1	1	1	1841	2	1	0	2004	4	1766	FILZSTIFT	filzstift	bleistift	füller	filzstift	kugelschreiber	nomen	21	2	1	1	1	PSYCHOLOGIE
FAUST_1[2014-06]	102	1	4	1	1	1	1	1	2	0	2472	2	1	0	3409	2	3528	HEROIN	birke	weide	buche	tanne	heroin	weide	21	2	1	1	1	PSYCHOLOGIE
FAUST_1[2014-06]	102	1	31	1	1	2	1	1	2	0	2046	2	1	0	2226	4	1269	AFRIKA	diesel	afrika	benzin	afrika	kerosin	petroleum	21	2	1	1	1	PSYCHOLOGIE
FAUST_1[2014-06]	102	1	8	1	1	1	2	1	1	1	1605	2	2	1	2545	3	2013	SCHAM	fähre	freude	fähre	trauer	scham	angst	21	2	1	1	1	PSYCHOLOGIE
FAUST_1[2014-06]	102	1	30	1	1	2	2	1	1	1	1629	1	2	0	2666	4	1469	PANTHER	panther	puma	tiger	brieföffner	leopard	panther	21	2	1	1	1	PSYCHOLOGIE
FAUST_1[2014-06]	102	1	27	1	1	1	1	2	2	1	1277	1	1	1	2210	4	1764	ZWILLING	jungfrau	vampir	dämon	hexe	werwolf	hexe	21	2	1	1	1	PSYCHOLOGIE
FAUST_1[2014-06]	102	1	12	1	1	2	1	2	2	1	1716	2	1	0	1673	4	1329	PISTOLE	stuhl	gewehr	tisch	schrank	sofa	gewehr	21	2	1	1	1	PSYCHOLOGIE
FAUST_1[2014-06]	102	1	24	1	1	1	2	2	2	1	1227	1	1	1	1868	2	3583	HORRORFILM	masern	komödie	thriller	actionfilm	masern	western	21	2	1	1	1	PSYCHOLOGIE
FAUST_1[2014-06]	102	1	14	1	1	2	2	2	2	1	1315	1	1	1	3019	2	2237	DRUCKER	computer	zeichnen	mobiltelefon	kamera	laptop	mobiltelefon	21	2	1	1	1	PSYCHOLOGIE
FAUST_1[2014-06]	102	1	7	1	1	1	1	2	2	1	1675	2	2	1	1744	3	1431	PIZZA	main	elbe	pommes	weser	donau	weser	21	2	1	1	1	PSYCHOLOGIE
FAUST_1[2014-06]	102	1	3	1	1	2	1	2	1	0	1959	1	1	1	2900	1	1045	WESPE	hummel	monopoly	halma	hummel	scrabble	backgammon	21	2	1	1	1	PSYCHOLOGIE
FAUST_1[2014-06]	102	1	32	1	1	1	2	2	1	0	4128	2	2	1	1832	3	1422	SCHWEIZ	dänemark	jahr	england	italien	jahr	österreich	21	2	1	1	1	PSYCHOLOGIE
FAUST_1[2014-06]	102	1	5	1	1	2	2	2	2	1	2148	2	1	0	3477	3	2295	KILOMETER	millimeter	zentimeter	millimeter	meter	meile	realschule	21	2	1	1	1	PSYCHOLOGIE
FAUST_1[2014-06]	102	1	20	1	1	1	1	2	2	1	2535	-1	1	0	0	4	1842	HÜTTE	brandenburg	thüringen	hessen	schuppen	hessen	saarland	21	2	1	1	1	PSYCHOLOGIE
FAUST_1[2014-06]	102	1	28	1	1	2	1	2	2	1	4366	2	2	1	1579	1	1512	THEATER	kino	flasche	kino	becher	glas	kanne	21	2	1	1	1	PSYCHOLOGIE
FAUST_1[2014-06]	102	1	23	1	1	1	2	2	1	0	3234	1	1	1	1870	3	2317	WALZER	straßenbahn	tango	straßenbahn	foxtrott	rumba	chachacha	21	2	1	1	1	PSYCHOLOGIE
FAUST_1[2014-06]	102	1	1	1	1	2	2	2	1	0	38	2	1	0	2595	1	5283	MESSING	bronze	kopf	bronze	eisen	gold	silber	21	2	1	1	1	PSYCHOLOGIE
FAUST_1[2014-06]	102	1	6	1	1	1	1	3	2	1	1675	2	1	0	2516	4	1519	LILA	majoran	thymian	chemie	koriander	rosmarin	thymian	21	2	1	1	1	PSYCHOLOGIE
FAUST_1[2014-06]	102	1	25	1	1	2	1	3	2	1	1695	1	1	1	1619	4	2365	HAGEL	ozean	tennis	fluss	teich	tennis	see	21	2	1	1	1	PSYCHOLOGIE
FAUST_1[2014-06]	102	1	13	1	1	1	1	3	2	1	1416	2	2	1	2346	4	1618	INTERNET	amsel	sohn	mutter	onkel	vater	mutter	21	2	1	1	1	PSYCHOLOGIE
FAUST_1[2014-06]	102	1	29	1	1	2	1	3	2	1	3124	1	1	1	2131	2	1399	LENKRAD	lilie	bohrer	zange	säge	meißel	lilie	21	2	1	1	1	PSYCHOLOGIE
FAUST_1[2014-06]	102	1	19	1	1	1	1	3	1	0	2070	2	2	1	3069	1	2314	BIRNE	quadrat	viereck	dreieck	rechteck	jupiter	dreieck	21	2	1	1	1	PSYCHOLOGIE
FAUST_1[2014-06]	102	1	9	1	1	2	1	3	2	1	1687	1	2	0	2410	4	1666	MESSER	lehrer	leinen	flanell	lehrer	seide	baumwolle	21	2	1	1	1	PSYCHOLOGIE
FAUST_1[2014-06]	102	1	22	1	1	1	1	3	2	1	1199	1	1	1	2139	4	1317	TOMATEN	thunfisch	forelle	makrele	hafer	forelle	hering	21	2	1	1	1	PSYCHOLOGIE
FAUST_1[2014-06]	102	1	11	1	1	2	1	3	2	1	1347	1	1	1	2616	4	1728	ROCK	mozart	nudelholz	beethoven	vivaldi	nudelholz	chopin	21	2	1	1	1	PSYCHOLOGIE
FAUST_1[2014-06]	102	2	7	1	2	1	1	1	1	1	1533	2	1	0	3254	4	1742	Hanger12.bmp	Strawberry18.bmp	Strawberry14.bmp	Strawberry3.bmp	Strawberry14.bmp	Hanger12.bmp	Strawberry21.bmp	21	2	1	1	1	PSYCHOLOGIE
FAUST_1[2014-06]	102	2	10	1	2	2	1	1	1	1	1183	2	2	1	2208	4	1332	Glass4.bmp	Glass4.bmp	Pear7.bmp	Pear16.bmp	Pear18.bmp	Pear15.bmp	Glass4.bmp	21	2	1	1	1	PSYCHOLOGIE
FAUST_1[2014-06]	102	2	19	1	2	1	2	1	1	1	2320	2	1	0	2764	4	986	Fudge20.bmp	Fudge20.bmp	Fudge5.bmp	Feather11.bmp	Fudge8.bmp	Fudge17.bmp	Feather11.bmp	21	2	1	1	1	PSYCHOLOGIE
FAUST_1[2014-06]	102	2	14	1	2	2	2	1	1	1	1254	2	2	1	2650	4	1292	Sweet1.bmp	Sweet1.bmp	Pen20.bmp	Sweet22.bmp	Sweet1.bmp	Sweet18.bmp	Sweet10.bmp	21	2	1	1	1	PSYCHOLOGIE
FAUST_1[2014-06]	102	2	15	1	2	1	1	1	1	1	1522	1	1	1	1063	4	1384	Shell1.bmp	Biscuit20.bmp	Biscuit9.bmp	Shell1.bmp	Biscuit25.bmp	Biscuit17.bmp	Biscuit25.bmp	21	2	1	1	1	PSYCHOLOGIE
FAUST_1[2014-06]	102	2	12	1	2	2	1	1	1	1	1814	1	1	1	1373	4	1334	Button18.bmp	Button18.bmp	Umbrella19.bmp	Umbrella21.bmp	Button18.bmp	Umbrella6.bmp	Umbrella17.bmp	21	2	1	1	1	PSYCHOLOGIE
FAUST_1[2014-06]	102	2	16	1	2	1	2	1	1	1	1385	2	1	0	3338	4	1281	Swirl23.bmp	Stapler7.bmp	Swirl23.bmp	Stapler7.bmp	Swirl1.bmp	Swirl10.bmp	Swirl5.bmp	21	2	1	1	1	PSYCHOLOGIE
FAUST_1[2014-06]	102	2	20	1	2	2	2	1	1	1	3133	1	1	1	2499	2	1376	Key9.bmp	Key5.bmp	Key9.bmp	Key13.bmp	Key20.bmp	Lipstick15.bmp	Key9.bmp	21	2	1	1	1	PSYCHOLOGIE
FAUST_1[2014-06]	102	2	9	1	2	1	1	2	1	0	3050	1	1	1	2577	3	1824	Brocolli14.bmp	Scissors1.bmp	Scissors3.bmp	Scissors23.bmp	Brocolli19.bmp	Scissors23.bmp	Scissors14.bmp	21	2	1	1	1	PSYCHOLOGIE
FAUST_1[2014-06]	102	2	21	1	2	2	1	2	2	1	1566	2	2	1	1940	4	2118	Varnish14.bmp	Varnish17.bmp	Hand10.bmp	Varnish17.bmp	Hand1.bmp	Hand17.bmp	Hand8.bmp	21	2	1	1	1	PSYCHOLOGIE
FAUST_1[2014-06]	102	2	1	1	2	1	2	2	1	0	1753	1	1	1	1859	4	2863	Nut21.bmp	Nut2.bmp	Present2.bmp	Nut18.bmp	Nut19.bmp	Nut11.bmp	Present2.bmp	21	2	1	1	1	PSYCHOLOGIE
FAUST_1[2014-06]	102	2	13	1	2	2	2	2	1	0	3650	2	1	0	1636	2	1508	Car21.bmp	Car12.bmp	Car13.bmp	Car14.bmp	Car7.bmp	Toothbrush1.bmp	Car12.bmp	21	2	1	1	1	PSYCHOLOGIE
FAUST_1[2014-06]	102	2	4	1	2	1	1	2	1	0	4918	2	2	1	1395	4	1842	Star1.bmp	Keys8.bmp	Keys5.bmp	Keys9.bmp	Keys8.bmp	Star17.bmp	Keys6.bmp	21	2	1	1	1	PSYCHOLOGIE
FAUST_1[2014-06]	102	2	18	1	2	2	1	2	1	0	2240	2	2	1	2777	3	1215	Holly17.bmp	Bag4.bmp	Bag3.bmp	Holly20.bmp	Bag5.bmp	Bag25.bmp	Holly20.bmp	21	2	1	1	1	PSYCHOLOGIE
FAUST_1[2014-06]	102	2	8	1	2	1	2	2	1	0	1907	2	2	1	1922	4	993	Candle17.bmp	Jigsaw14.bmp	Candle10.bmp	Jigsaw14.bmp	Candle20.bmp	Candle13.bmp	Candle1.bmp	21	2	1	1	1	PSYCHOLOGIE
FAUST_1[2014-06]	102	2	2	1	2	2	2	2	2	1	3640	2	2	1	1513	2	1981	String9.bmp	String6.bmp	String8.bmp	String12.bmp	String2.bmp	Fork14.bmp	String12.bmp	21	2	1	1	1	PSYCHOLOGIE
FAUST_1[2014-06]	102	2	17	1	2	1	1	3	2	1	1295	2	2	1	2111	4	1707	Daff9.bmp	Man15.bmp	Man10.bmp	Apple24.bmp	Man2.bmp	Man15.bmp	Man4.bmp	21	2	1	1	1	PSYCHOLOGIE
FAUST_1[2014-06]	102	2	3	1	2	2	1	3	2	1	1804	1	1	1	1746	4	1458	Cake24.bmp	Bun19.bmp	Flower14.bmp	Flower3.bmp	Flower13.bmp	Flower17.bmp	Bun19.bmp	21	2	1	1	1	PSYCHOLOGIE
FAUST_1[2014-06]	102	2	11	1	2	1	1	3	2	1	1526	2	2	1	1632	4	1236	Leaf13.bmp	Screw16.bmp	Screw10.bmp	Screw13.bmp	Screw9.bmp	Tomato18.bmp	Screw10.bmp	21	2	1	1	1	PSYCHOLOGIE
FAUST_1[2014-06]	102	2	22	1	2	2	1	3	2	1	1261	2	2	1	3016	4	1110	Bracelet5.bmp	Chilli14.bmp	Chilli12.bmp	Onion13.bmp	Chilli11.bmp	Onion13.bmp	Chilli22.bmp	21	2	1	1	1	PSYCHOLOGIE
FAUST_1[2014-06]	102	2	6	1	2	1	1	3	2	1	1126	1	1	1	1619	4	1205	Plug9.bmp	Mushroom14.bmp	Chocolate17.bmp	Chocolate6.bmp	Chocolate9.bmp	Chocolate6.bmp	Chocolate24.bmp	21	2	1	1	1	PSYCHOLOGIE
FAUST_1[2014-06]	102	2	5	1	2	2	1	3	2	1	1641	2	2	1	1961	4	1302	Coins14.bmp	Paperclip9.bmp	Ginger10.bmp	Paperclip14.bmp	Paperclip4.bmp	Paperclip13.bmp	Ginger10.bmp	21	2	1	1	1	PSYCHOLOGIE
FAUST_1[2014-06]	102	3	6	1	3	1	1	1	1	1	1483	2	2	1	1869	4	1242	jacket_11.bmp	jacket_11.bmp	cake_14.bmp	cake_1.bmp	cake_14.bmp	cake_4.bmp	cake_5.bmp	21	2	1	1	1	PSYCHOLOGIE
FAUST_1[2014-06]	102	3	17	1	3	2	1	1	1	1	1326	1	1	1	1982	4	1181	horseshoe_5.bmp	horseshoe_5.bmp	mic_3.bmp	mic_12.bmp	mic_2.bmp	horseshoe_5.bmp	mic_5.bmp	21	2	1	1	1	PSYCHOLOGIE
FAUST_1[2014-06]	102	3	24	1	3	1	2	1	1	1	1605	1	1	1	2599	3	982	tricycle_10.bmp	powerstrip_14.bmp	tricycle_10.bmp	tricycle_8.bmp	tricycle_5.bmp	powerstrip_14.bmp	tricycle_2.bmp	21	2	1	1	1	PSYCHOLOGIE
FAUST_1[2014-06]	102	3	25	1	3	2	2	1	1	1	819	2	2	1	1610	4	1228	bowlingpin_11.bmp	bowlingpin_11.bmp	bowlingpin_3.bmp	bowlingpin_11.bmp	laptop_10.bmp	bowlingpin_13.bmp	bowlingpin_4.bmp	21	2	1	1	1	PSYCHOLOGIE
FAUST_1[2014-06]	102	3	18	1	3	1	1	1	1	1	1556	2	1	0	2462	4	1012	hairdryer_2.bmp	guitar_14.bmp	guitar_7.bmp	guitar_5.bmp	hairdryer_2.bmp	guitar_5.bmp	guitar_8.bmp	21	2	1	1	1	PSYCHOLOGIE
FAUST_1[2014-06]	102	3	32	1	3	2	1	1	1	1	1292	1	1	1	1223	4	872	speaker_10.bmp	trumpet_6.bmp	speaker_10.bmp	trumpet_1.bmp	trumpet_5.bmp	trumpet_3.bmp	speaker_10.bmp	21	2	1	1	1	PSYCHOLOGIE
FAUST_1[2014-06]	102	3	28	1	3	1	2	1	1	1	1117	1	1	1	2097	4	1041	rollerskates_7.bmp	doorknocker_14.bmp	rollerskates_8.bmp	rollerskates_17.bmp	rollerskates_2.bmp	rollerskates_7.bmp	doorknocker_14.bmp	21	2	1	1	1	PSYCHOLOGIE
FAUST_1[2014-06]	102	3	2	1	3	2	2	1	1	1	1378	1	1	1	2480	4	1265	hairbrush_12.bmp	hairbrush_12.bmp	hairbrush_15.bmp	hairbrush_7.bmp	hairbrush_17.bmp	router_7.bmp	hairbrush_12.bmp	21	2	1	1	1	PSYCHOLOGIE
FAUST_1[2014-06]	102	3	14	1	3	1	1	1	1	1	1202	2	2	1	1406	4	1557	watergun_3.bmp	shredder_6.bmp	shredder_1.bmp	shredder_15.bmp	watergun_3.bmp	shredder_1.bmp	shredder_5.bmp	21	2	1	1	1	PSYCHOLOGIE
FAUST_1[2014-06]	102	3	22	1	3	2	1	1	1	1	1301	2	2	1	2153	4	1108	chair_11.bmp	plant_5.bmp	chair_11.bmp	plant_14.bmp	plant_8.bmp	chair_11.bmp	plant_2.bmp	21	2	1	1	1	PSYCHOLOGIE
FAUST_1[2014-06]	102	3	23	1	3	1	2	1	1	1	1136	2	2	1	2362	4	1289	shoe_13.bmp	shoe_13.bmp	glasses_9.bmp	shoe_7.bmp	shoe_15.bmp	shoe_17.bmp	glasses_9.bmp	21	2	1	1	1	PSYCHOLOGIE
FAUST_1[2014-06]	102	3	4	1	3	2	2	1	1	1	1371	1	2	0	2957	4	1004	sofa_3.bmp	saltpeppershake_8.bmp	sofa_3.bmp	sofa_6.bmp	sofa_12.bmp	sofa_13.bmp	sofa_3.bmp	21	2	1	1	1	PSYCHOLOGIE
FAUST_1[2014-06]	102	3	31	1	3	1	1	2	1	0	1355	2	2	1	1646	4	1158	easteregg_17.bmp	turtle_7.bmp	turtle_12.bmp	turtle_6.bmp	easteregg_14.bmp	turtle_7.bmp	turtle_2.bmp	21	2	1	1	1	PSYCHOLOGIE
FAUST_1[2014-06]	102	3	5	1	3	2	1	2	2	1	1143	2	2	1	1735	4	1123	watch_7.bmp	glove_5.bmp	glove_15.bmp	watch_14.bmp	glove_8.bmp	glove_12.bmp	watch_14.bmp	21	2	1	1	1	PSYCHOLOGIE
FAUST_1[2014-06]	102	3	7	1	3	1	2	2	1	0	1596	2	2	1	1466	4	1093	abacus_2.bmp	abacus_4.bmp	ring_7.bmp	abacus_6.bmp	ring_7.bmp	abacus_7.bmp	abacus_15.bmp	21	2	1	1	1	PSYCHOLOGIE
FAUST_1[2014-06]	102	3	27	1	3	2	2	2	1	0	1522	2	1	0	1690	3	1247	cellphone_12.bmp	cellphone_4.bmp	garbagecan_2.bmp	cellphone_11.bmp	cellphone_3.bmp	cellphone_11.bmp	cellphone_8.bmp	21	2	1	1	1	PSYCHOLOGIE
FAUST_1[2014-06]	102	3	8	1	3	1	1	2	2	1	1223	1	1	1	1360	4	1542	doorknob_17.bmp	iceskates_7.bmp	doorknob_14.bmp	iceskates_14.bmp	iceskates_5.bmp	iceskates_9.bmp	iceskates_14.bmp	21	2	1	1	1	PSYCHOLOGIE
FAUST_1[2014-06]	102	3	1	1	3	2	1	2	2	1	1149	1	1	1	2553	4	1760	saddle_3.bmp	bagel_4.bmp	saddle_8.bmp	bagel_16.bmp	bagel_14.bmp	bagel_12.bmp	saddle_8.bmp	21	2	1	1	1	PSYCHOLOGIE
FAUST_1[2014-06]	102	3	21	1	3	1	2	2	2	1	1515	2	2	1	1641	3	1695	leatherman_2.bmp	hammer_17.bmp	leatherman_7.bmp	leatherman_10.bmp	hammer_17.bmp	leatherman_14.bmp	leatherman_5.bmp	21	2	1	1	1	PSYCHOLOGIE
FAUST_1[2014-06]	102	3	16	1	3	2	2	2	1	0	5650	2	2	1	2458	1	1396	goggle_1.bmp	goggle_3.bmp	goggle_13.bmp	goggle_9.bmp	tv_7.bmp	goggle_4.bmp	goggle_9.bmp	21	2	1	1	1	PSYCHOLOGIE
FAUST_1[2014-06]	102	3	29	1	3	1	1	2	1	0	3093	2	1	0	1998	2	1155	cherubstatue_5.bmp	orifan_6.bmp	cherubstatue_6.bmp	orifan_14.bmp	orifan_17.bmp	orifan_1.bmp	orifan_14.bmp	21	2	1	1	1	PSYCHOLOGIE
FAUST_1[2014-06]	102	3	19	1	3	2	1	2	2	1	921	1	1	1	1741	4	1441	beanbagchair_3.bmp	cat_9.bmp	cat_10.bmp	beanbagchair_14.bmp	cat_5.bmp	cat_4.bmp	beanbagchair_14.bmp	21	2	1	1	1	PSYCHOLOGIE
FAUST_1[2014-06]	102	3	10	1	3	1	2	2	1	0	2014	2	2	1	1429	4	1365	scooter_8.bmp	videogamecontroller_2.bmp	scooter_5.bmp	scooter_10.bmp	scooter_4.bmp	scooter_11.bmp	videogamecontroller_2.bmp	21	2	1	1	1	PSYCHOLOGIE
FAUST_1[2014-06]	102	3	11	1	3	2	2	2	1	0	2309	1	1	1	2308	2	2128	remote_13.bmp	remote_2.bmp	remote_14.bmp	remote_3.bmp	remote_11.bmp	remote_2.bmp	trunk_1.bmp	21	2	1	1	1	PSYCHOLOGIE
FAUST_1[2014-06]	102	3	26	1	3	1	1	3	2	1	926	1	1	1	1435	4	1236	camera_9.bmp	carabiner_5.bmp	carabiner_7.bmp	carabiner_6.bmp	carabiner_9.bmp	carabiner_7.bmp	babycrib_9.bmp	21	2	1	1	1	PSYCHOLOGIE
FAUST_1[2014-06]	102	3	13	1	3	2	1	3	2	1	735	1	1	1	2815	4	1186	circuitboard_16.bmp	fan_1.bmp	fan_15.bmp	fan_11.bmp	vase_5.bmp	fan_17.bmp	vase_5.bmp	21	2	1	1	1	PSYCHOLOGIE
FAUST_1[2014-06]	102	3	3	1	3	1	1	3	2	1	813	1	1	1	1624	4	1245	cheesegrater_5.bmp	printer_5.bmp	printer_14.bmp	printer_3.bmp	printer_16.bmp	printer_3.bmp	windchime_3.bmp	21	2	1	1	1	PSYCHOLOGIE
FAUST_1[2014-06]	102	3	12	1	3	2	1	3	2	1	1059	2	2	1	2662	4	1228	pasta_9.bmp	birdhouse_6.bmp	rusdoll_1.bmp	rusdoll_3.bmp	rusdoll_6.bmp	birdhouse_6.bmp	rusdoll_8.bmp	21	2	1	1	1	PSYCHOLOGIE
FAUST_1[2014-06]	102	3	20	1	3	1	1	3	2	1	1279	1	1	1	2557	4	1175	coffee_15.bmp	socks_4.bmp	socks_12.bmp	socks_13.bmp	socks_4.bmp	flashlight_17.bmp	socks_10.bmp	21	2	1	1	1	PSYCHOLOGIE
FAUST_1[2014-06]	102	3	9	1	3	2	1	3	2	1	964	2	2	1	1656	4	1325	backpack_10.bmp	wig_7.bmp	sink_6.bmp	wig_6.bmp	sink_6.bmp	wig_1.bmp	wig_12.bmp	21	2	1	1	1	PSYCHOLOGIE
FAUST_1[2014-06]	102	3	15	1	3	1	1	3	2	1	909	2	1	0	2841	4	1235	parfait_11.bmp	carriage_3.bmp	trophy_6.bmp	carriage_14.bmp	carriage_2.bmp	carriage_12.bmp	carriage_3.bmp	21	2	1	1	1	PSYCHOLOGIE
FAUST_1[2014-06]	102	3	30	1	3	2	1	3	2	1	817	1	1	1	3181	4	1248	skateboard_3.bmp	lawnmower_17.bmp	highchair_10.bmp	lawnmower_13.bmp	highchair_10.bmp	lawnmower_3.bmp	lawnmower_15.bmp	21	2	1	1	1	PSYCHOLOGIE
FAUST_1[2014-06]	102	2	32	1	1	1	1	1	1	1	1829	2	1	0	3477	2	1049	EICHE	erdkunde	eiche	chemie	mathematik	physik	chemie	21	2	1	1	1	PSYCHOLOGIE
FAUST_1[2014-06]	102	2	21	1	1	2	1	1	1	1	1070	2	1	0	1684	4	925	BIRNE	herz	leber	lunge	birne	magen	birne	21	2	1	1	1	PSYCHOLOGIE
FAUST_1[2014-06]	102	2	26	1	1	1	2	1	1	1	1100	1	1	1	2142	4	1047	BEETHOVEN	riechen	vivaldi	chopin	riechen	beethoven	brahms	21	2	1	1	1	PSYCHOLOGIE
FAUST_1[2014-06]	102	2	10	1	1	2	2	1	1	1	1057	2	2	1	1510	4	941	SCRABBLE	backgammon	schach	richter	scrabble	monopoly	scrabble	21	2	1	1	1	PSYCHOLOGIE
FAUST_1[2014-06]	102	2	9	1	1	1	1	1	1	1	1290	2	2	1	1639	3	1421	NÄHNADEL	leinen	baumwolle	nähnadel	seide	baumwolle	flanell	21	2	1	1	1	PSYCHOLOGIE
FAUST_1[2014-06]	102	2	14	1	1	2	1	1	1	1	1394	2	2	1	1892	4	1087	TEMPEL	tempel	rosmarin	oregano	majoran	thymian	tempel	21	2	1	1	1	PSYCHOLOGIE
FAUST_1[2014-06]	102	2	24	1	1	1	2	1	1	1	2358	1	1	1	2621	1	1173	OPIUM	hessen	cannabis	opium	haschisch	hessen	heroin	21	2	1	1	1	PSYCHOLOGIE
FAUST_1[2014-06]	102	2	15	1	1	2	2	1	2	0	2459	1	1	1	2576	2	1007	ÄRGER	freude	ärger	thunfisch	trauer	scham	ärger	21	2	1	1	1	PSYCHOLOGIE
FAUST_1[2014-06]	102	2	23	1	1	1	1	1	1	1	1184	1	1	1	1450	4	988	GABEL	chachacha	foxtrott	chachacha	gabel	tango	rumba	21	2	1	1	1	PSYCHOLOGIE
FAUST_1[2014-06]	102	2	18	1	1	2	1	1	1	1	1149	2	2	1	2570	4	981	FLÖTE	adverb	flöte	verb	präposition	flöte	nomen	21	2	1	1	1	PSYCHOLOGIE
FAUST_1[2014-06]	102	2	28	1	1	1	2	1	1	1	978	1	1	1	1640	4	824	RÖTELN	röteln	werwolf	mumps	windpocken	werwolf	grippe	21	2	1	1	1	PSYCHOLOGIE
FAUST_1[2014-06]	102	2	29	1	1	2	2	1	1	1	1011	2	2	1	1540	4	1331	VEILCHEN	nelke	veilchen	fernsehen	lilie	veilchen	rose	21	2	1	1	1	PSYCHOLOGIE
FAUST_1[2014-06]	102	2	7	1	1	1	1	2	2	1	1225	1	1	1	1198	4	1126	STUNDE	zug	straßenbahn	taxi	tag	bus	taxi	21	2	1	1	1	PSYCHOLOGIE
FAUST_1[2014-06]	102	2	30	1	1	2	1	2	2	1	1120	1	1	1	1545	3	1580	AFRIKA	südamerika	wimperntusche	lidschatten	lippenstift	südamerika	rouge	21	2	1	1	1	PSYCHOLOGIE
FAUST_1[2014-06]	102	2	17	1	1	1	2	2	1	0	1197	2	2	1	1528	4	914	JUNGFRAU	zwilling	schütze	karotten	steinbock	karotten	wassermann	21	2	1	1	1	PSYCHOLOGIE
FAUST_1[2014-06]	102	2	27	1	1	2	2	2	1	0	2489	2	1	0	1567	1	1132	HELIUM	wasserstoff	stickstoff	kohlenstoff	sauerstoff	fähre	kohlenstoff	21	2	1	1	1	PSYCHOLOGIE
FAUST_1[2014-06]	102	2	8	1	1	1	1	2	2	1	1077	1	1	1	2695	4	1189	FUß	main	rhein	weser	elbe	arm	weser	21	2	1	1	1	PSYCHOLOGIE
FAUST_1[2014-06]	102	2	2	1	1	2	1	2	2	1	1271	1	1	1	1849	4	1020	BACKFORM	hauptschule	pfannenwender	gesamtschule	gymnasium	pfannenwender	berufsschule	21	2	1	1	1	PSYCHOLOGIE
FAUST_1[2014-06]	102	2	3	1	1	1	2	2	1	0	2449	2	1	0	2919	4	1240	KEROSIN	bleifrei	taube	benzin	taube	petroleum	diesel	21	2	1	1	1	PSYCHOLOGIE
FAUST_1[2014-06]	102	2	4	1	1	2	2	2	1	0	2947	2	2	1	1912	2	1066	HAMBURG	hannover	münchen	hannover	stuttgart	berlin	gummibärchen	21	2	1	1	1	PSYCHOLOGIE
FAUST_1[2014-06]	102	2	13	1	1	1	1	2	2	1	1262	2	2	1	1776	4	1271	PANTHER	euro	pfennig	dollar	euro	mark	puma	21	2	1	1	1	PSYCHOLOGIE
FAUST_1[2014-06]	102	2	1	1	1	2	1	2	2	1	2071	2	2	1	1018	1	2162	HERZOG	fürst	gerste	hafer	fürst	weizen	roggen	21	2	1	1	1	PSYCHOLOGIE
FAUST_1[2014-06]	102	2	6	1	1	1	2	2	1	0	2131	2	2	1	1749	3	1056	FLASCHE	kanne	glas	österreich	karaffe	österreich	becher	21	2	1	1	1	PSYCHOLOGIE
FAUST_1[2014-06]	102	2	16	1	1	2	2	2	1	0	1323	1	1	1	2919	4	1130	COMPUTER	mobiltelefon	laptop	terrier	drucker	kamera	laptop	21	2	1	1	1	PSYCHOLOGIE
FAUST_1[2014-06]	102	2	19	1	1	1	1	3	2	1	2418	2	1	0	2584	1	1276	MEILE	rum	bleistift	kugelschreiber	füller	bleistift	buntstift	21	2	1	1	1	PSYCHOLOGIE
FAUST_1[2014-06]	102	2	20	1	1	2	1	3	2	1	1095	1	1	1	1697	2	1371	BRONZE	volvo	zeichnen	malen	basteln	schreiben	volvo	21	2	1	1	1	PSYCHOLOGIE
FAUST_1[2014-06]	102	2	25	1	1	1	1	3	2	1	1393	2	2	1	1660	4	1251	DÖNER	regen	sonnenschein	regen	schnee	fluss	nebel	21	2	1	1	1	PSYCHOLOGIE
FAUST_1[2014-06]	102	2	5	1	1	2	1	3	2	1	1482	2	1	0	1554	4	1606	BRIEFÖFFNER	sohn	zirkus	theater	sohn	konzertsaal	kino	21	2	1	1	1	PSYCHOLOGIE
FAUST_1[2014-06]	102	2	22	1	1	1	1	3	2	1	1092	2	2	1	1685	3	2309	SÄGE	handbremse	rückspiegel	lenkrad	rückspiegel	merkur	gaspedal	21	2	1	1	1	PSYCHOLOGIE
FAUST_1[2014-06]	102	2	11	1	1	2	1	3	2	1	2731	2	2	1	1637	4	1399	SCHEUNE	sofa	blau	regal	schrank	stuhl	blau	21	2	1	1	1	PSYCHOLOGIE
FAUST_1[2014-06]	102	2	12	1	1	1	1	3	2	1	927	1	1	1	1330	4	1357	SCHWERT	quadrat	kreis	quadrat	dreieck	rechteck	jacke	21	2	1	1	1	PSYCHOLOGIE
FAUST_1[2014-06]	102	2	31	1	1	2	1	3	2	1	1675	1	1	1	1738	3	1644	SCHWIMMEN	komödie	actionfilm	horrorfilm	biene	thriller	biene	21	2	1	1	1	PSYCHOLOGIE
FAUST_1[2014-06]	102	3	5	1	2	1	1	1	2	0	1980	2	2	1	1269	4	2014	Lipstick9.bmp	Nut21.bmp	Nut19.bmp	Nut18.bmp	Nut21.bmp	Lipstick9.bmp	Nut2.bmp	21	2	1	1	1	PSYCHOLOGIE
FAUST_1[2014-06]	102	3	3	1	2	2	1	1	1	1	1200	2	2	1	1307	4	1166	Fork8.bmp	Tomato12.bmp	Fork8.bmp	Tomato3.bmp	Tomato18.bmp	Tomato5.bmp	Fork8.bmp	21	2	1	1	1	PSYCHOLOGIE
FAUST_1[2014-06]	102	3	15	1	2	1	2	1	1	1	1667	2	2	1	2241	3	1179	Jigsaw10.bmp	Jigsaw14.bmp	Glass3.bmp	Jigsaw10.bmp	Jigsaw17.bmp	Glass3.bmp	Jigsaw11.bmp	21	2	1	1	1	PSYCHOLOGIE
FAUST_1[2014-06]	102	3	11	1	2	2	2	1	1	1	998	2	2	1	2325	4	1420	Scissors23.bmp	Scissors23.bmp	Chocolate17.bmp	Scissors1.bmp	Scissors23.bmp	Scissors14.bmp	Scissors3.bmp	21	2	1	1	1	PSYCHOLOGIE
FAUST_1[2014-06]	102	3	13	1	2	1	1	1	1	1	1246	2	1	0	1313	3	967	Fudge17.bmp	Bracelet5.bmp	Bracelet2.bmp	Bracelet1.bmp	Fudge17.bmp	Bracelet1.bmp	Bracelet8.bmp	21	2	1	1	1	PSYCHOLOGIE
FAUST_1[2014-06]	102	3	16	1	2	2	1	1	1	1	1559	2	2	1	1057	2	1858	Pen20.bmp	Screw16.bmp	Pen20.bmp	Screw9.bmp	Pen20.bmp	Screw10.bmp	Screw18.bmp	21	2	1	1	1	PSYCHOLOGIE
FAUST_1[2014-06]	102	3	12	1	2	1	2	1	1	1	1321	2	2	1	1901	4	1347	Feather14.bmp	Button14.bmp	Feather14.bmp	Feather11.bmp	Feather18.bmp	Feather12.bmp	Button14.bmp	21	2	1	1	1	PSYCHOLOGIE
FAUST_1[2014-06]	102	3	10	1	2	2	2	1	1	1	1581	2	2	1	1472	4	1117	Ginger5.bmp	Ginger15.bmp	Ginger5.bmp	Ginger17.bmp	Ginger10.bmp	Ginger5.bmp	Biscuit9.bmp	21	2	1	1	1	PSYCHOLOGIE
FAUST_1[2014-06]	102	3	6	1	2	1	1	2	1	0	3612	2	2	1	1932	1	1505	Strawberry18.bmp	Star17.bmp	Star19.bmp	Strawberry3.bmp	Star2.bmp	Star7.bmp	Star17.bmp	21	2	1	1	1	PSYCHOLOGIE
FAUST_1[2014-06]	102	3	20	1	2	2	1	2	1	0	3051	1	1	1	1937	4	1440	Holly17.bmp	Paperclip13.bmp	Holly14.bmp	Paperclip4.bmp	Holly14.bmp	Paperclip9.bmp	Paperclip14.bmp	21	2	1	1	1	PSYCHOLOGIE
FAUST_1[2014-06]	102	3	21	1	2	1	2	2	1	0	3185	1	1	1	1113	2	2397	Apple24.bmp	Leaf22.bmp	Apple5.bmp	Apple21.bmp	Apple18.bmp	Leaf22.bmp	Apple10.bmp	21	2	1	1	1	PSYCHOLOGIE
FAUST_1[2014-06]	102	3	9	1	2	2	2	2	1	0	1604	1	2	0	1856	3	1091	Key9.bmp	Key13.bmp	Key20.bmp	Key13.bmp	Sweet10.bmp	Key11.bmp	Key5.bmp	21	2	1	1	1	PSYCHOLOGIE
FAUST_1[2014-06]	102	3	1	1	2	1	1	2	1	0	971	2	2	1	1503	3	1222	Shell5.bmp	Flower13.bmp	Flower18.bmp	Flower14.bmp	Flower3.bmp	Shell9.bmp	Flower3.bmp	21	2	1	1	1	PSYCHOLOGIE
FAUST_1[2014-06]	102	3	17	1	2	2	1	2	2	1	6404	2	2	1	1229	3	1326	Daff21.bmp	Plug6.bmp	Plug4.bmp	Daff22.bmp	Plug8.bmp	Daff22.bmp	Plug9.bmp	21	2	1	1	1	PSYCHOLOGIE
FAUST_1[2014-06]	102	3	22	1	2	1	2	2	1	0	1178	1	1	1	1025	4	1269	Pear15.bmp	Pear16.bmp	Car12.bmp	Pear18.bmp	Pear7.bmp	Car12.bmp	Pear4.bmp	21	2	1	1	1	PSYCHOLOGIE
FAUST_1[2014-06]	102	3	7	1	2	2	2	2	1	0	1314	2	1	0	2119	4	1019	Chilli14.bmp	Chilli11.bmp	Chilli22.bmp	Chilli19.bmp	Toothbrush12.bmp	Chilli11.bmp	Chilli12.bmp	21	2	1	1	1	PSYCHOLOGIE
FAUST_1[2014-06]	102	3	8	1	2	1	1	3	2	1	2051	2	2	1	2588	4	1283	Man24.bmp	Coins10.bmp	Coins8.bmp	Coins12.bmp	Bag25.bmp	Coins10.bmp	Coins3.bmp	21	2	1	1	1	PSYCHOLOGIE
FAUST_1[2014-06]	102	3	4	1	2	2	1	3	2	1	1711	2	1	0	2296	4	1479	Candle13.bmp	Varnish17.bmp	Swirl10.bmp	Varnish17.bmp	Swirl23.bmp	Swirl5.bmp	Swirl13.bmp	21	2	1	1	1	PSYCHOLOGIE
FAUST_1[2014-06]	102	3	19	1	2	1	1	3	2	1	1952	2	2	1	1829	4	1310	Present14.bmp	Umbrella21.bmp	Hand8.bmp	Umbrella21.bmp	Umbrella19.bmp	Umbrella6.bmp	Umbrella17.bmp	21	2	1	1	1	PSYCHOLOGIE
FAUST_1[2014-06]	102	3	2	1	2	2	1	3	2	1	1042	2	2	1	1748	4	1090	Hanger7.bmp	Bun12.bmp	Cake25.bmp	Cake18.bmp	Cake16.bmp	Bun12.bmp	Cake24.bmp	21	2	1	1	1	PSYCHOLOGIE
FAUST_1[2014-06]	102	3	14	1	2	1	1	3	2	1	1084	1	1	1	2333	4	1943	String9.bmp	Mushroom14.bmp	Onion19.bmp	Mushroom7.bmp	Mushroom18.bmp	Mushroom25.bmp	Mushroom7.bmp	21	2	1	1	1	PSYCHOLOGIE
FAUST_1[2014-06]	102	3	18	1	2	2	1	3	2	1	2524	2	2	1	2228	4	1472	Keys5.bmp	Brocolli10.bmp	Stapler10.bmp	Brocolli10.bmp	Stapler9.bmp	Stapler8.bmp	Stapler7.bmp	21	2	1	1	1	PSYCHOLOGIE
FAUST_1[2014-06]	102	4	14	1	3	1	1	1	1	1	1236	1	2	0	2555	4	1076	chair_3.bmp	ring_15.bmp	ring_12.bmp	ring_8.bmp	ring_15.bmp	chair_3.bmp	ring_7.bmp	21	2	1	1	1	PSYCHOLOGIE
FAUST_1[2014-06]	102	4	24	1	3	2	1	1	1	1	843	2	2	1	1382	4	1183	saddle_15.bmp	saddle_15.bmp	saltpeppershake_17.bmp	saltpeppershake_12.bmp	saltpeppershake_9.bmp	saddle_15.bmp	saltpeppershake_2.bmp	21	2	1	1	1	PSYCHOLOGIE
FAUST_1[2014-06]	102	4	18	1	3	1	2	1	1	1	1226	1	1	1	2363	4	1064	wig_12.bmp	wig_9.bmp	vase_5.bmp	wig_12.bmp	wig_1.bmp	vase_5.bmp	wig_7.bmp	21	2	1	1	1	PSYCHOLOGIE
FAUST_1[2014-06]	102	4	22	1	3	2	2	1	1	1	1583	2	2	1	1511	4	1092	doorknob_17.bmp	doorknob_2.bmp	beanbagchair_12.bmp	doorknob_17.bmp	doorknob_14.bmp	doorknob_17.bmp	doorknob_7.bmp	21	2	1	1	1	PSYCHOLOGIE
FAUST_1[2014-06]	102	4	9	1	3	1	1	1	1	1	1034	2	2	1	1081	4	1498	trophy_6.bmp	shoe_13.bmp	shoe_17.bmp	shoe_15.bmp	shoe_7.bmp	trophy_6.bmp	shoe_13.bmp	21	2	1	1	1	PSYCHOLOGIE
FAUST_1[2014-06]	102	4	5	1	3	2	1	1	1	1	1138	2	2	1	1984	4	1288	windchime_10.bmp	sink_11.bmp	windchime_10.bmp	sink_1.bmp	windchime_10.bmp	sink_6.bmp	sink_15.bmp	21	2	1	1	1	PSYCHOLOGIE
FAUST_1[2014-06]	102	4	23	1	3	1	2	1	1	1	1259	2	2	1	2565	4	1549	bagel_14.bmp	bagel_12.bmp	leatherman_7.bmp	bagel_10.bmp	bagel_16.bmp	bagel_14.bmp	leatherman_7.bmp	21	2	1	1	1	PSYCHOLOGIE
FAUST_1[2014-06]	102	4	26	1	3	2	2	1	1	1	891	2	2	1	1022	4	901	cheesegrater_15.bmp	easteregg_16.bmp	cheesegrater_11.bmp	cheesegrater_8.bmp	cheesegrater_15.bmp	cheesegrater_5.bmp	cheesegrater_15.bmp	21	2	1	1	1	PSYCHOLOGIE
FAUST_1[2014-06]	102	4	32	1	3	1	1	1	1	1	850	2	2	1	1954	4	1170	goggle_4.bmp	plant_13.bmp	plant_14.bmp	plant_8.bmp	plant_2.bmp	plant_8.bmp	goggle_4.bmp	21	2	1	1	1	PSYCHOLOGIE
FAUST_1[2014-06]	102	4	21	1	3	2	1	1	1	1	944	2	2	1	2182	4	1247	garbagecan_8.bmp	garbagecan_8.bmp	doorknocker_14.bmp	doorknocker_11.bmp	garbagecan_8.bmp	doorknocker_4.bmp	doorknocker_5.bmp	21	2	1	1	1	PSYCHOLOGIE
FAUST_1[2014-06]	102	4	2	1	3	1	2	1	1	1	1340	1	1	1	2013	4	1002	horseshoe_6.bmp	hairdryer_14.bmp	horseshoe_6.bmp	horseshoe_3.bmp	horseshoe_12.bmp	horseshoe_4.bmp	hairdryer_14.bmp	21	2	1	1	1	PSYCHOLOGIE
FAUST_1[2014-06]	102	4	17	1	3	2	2	1	1	1	1104	2	1	0	2211	4	1347	fan_15.bmp	fan_15.bmp	fan_11.bmp	fan_17.bmp	fan_15.bmp	flashlight_17.bmp	fan_10.bmp	21	2	1	1	1	PSYCHOLOGIE
FAUST_1[2014-06]	102	4	6	1	3	1	1	2	2	1	2834	1	1	1	1756	2	1894	guitar_14.bmp	cake_3.bmp	cake_4.bmp	cake_14.bmp	cake_5.bmp	cake_14.bmp	guitar_8.bmp	21	2	1	1	1	PSYCHOLOGIE
FAUST_1[2014-06]	102	4	12	1	3	2	1	2	2	1	1083	2	2	1	2545	4	863	router_6.bmp	router_16.bmp	cellphone_12.bmp	cellphone_3.bmp	cellphone_11.bmp	cellphone_8.bmp	router_16.bmp	21	2	1	1	1	PSYCHOLOGIE
FAUST_1[2014-06]	102	4	3	1	3	1	2	2	1	0	1051	1	1	1	1515	3	867	highchair_3.bmp	highchair_10.bmp	highchair_15.bmp	trunk_1.bmp	highchair_6.bmp	highchair_4.bmp	trunk_1.bmp	21	2	1	1	1	PSYCHOLOGIE
FAUST_1[2014-06]	102	4	13	1	3	2	2	2	1	0	1257	1	1	1	1739	4	2034	glasses_13.bmp	glasses_8.bmp	glasses_6.bmp	glasses_9.bmp	glasses_15.bmp	backpack_12.bmp	glasses_15.bmp	21	2	1	1	1	PSYCHOLOGIE
FAUST_1[2014-06]	102	4	7	1	3	1	1	2	2	1	1202	2	1	0	3236	4	1297	tv_16.bmp	camera_4.bmp	camera_7.bmp	tv_5.bmp	camera_4.bmp	camera_3.bmp	camera_6.bmp	21	2	1	1	1	PSYCHOLOGIE
FAUST_1[2014-06]	102	4	20	1	3	2	1	2	2	1	1350	2	2	1	1088	4	1174	watergun_9.bmp	turtle_6.bmp	turtle_2.bmp	watergun_7.bmp	turtle_7.bmp	watergun_7.bmp	turtle_12.bmp	21	2	1	1	1	PSYCHOLOGIE
FAUST_1[2014-06]	102	4	25	1	3	1	2	2	2	1	1417	2	2	1	1749	1	1015	trumpet_1.bmp	trumpet_5.bmp	trumpet_6.bmp	coffee_2.bmp	trumpet_3.bmp	trumpet_17.bmp	coffee_2.bmp	21	2	1	1	1	PSYCHOLOGIE
FAUST_1[2014-06]	102	4	27	1	3	2	2	2	2	1	958	1	1	1	1814	4	1342	sofa_13.bmp	sofa_6.bmp	sofa_12.bmp	laptop_14.bmp	sofa_6.bmp	sofa_9.bmp	sofa_3.bmp	21	2	1	1	1	PSYCHOLOGIE
FAUST_1[2014-06]	102	4	11	1	3	1	1	2	2	1	3694	2	1	0	2852	1	1505	iceskates_7.bmp	carriage_14.bmp	carriage_3.bmp	carriage_2.bmp	carriage_9.bmp	carriage_14.bmp	iceskates_9.bmp	21	2	1	1	1	PSYCHOLOGIE
FAUST_1[2014-06]	102	4	15	1	3	2	1	2	2	1	3029	2	2	1	1357	2	1444	lawnmower_3.bmp	lawnmower_15.bmp	hairbrush_12.bmp	hairbrush_16.bmp	hairbrush_15.bmp	hairbrush_7.bmp	lawnmower_15.bmp	21	2	1	1	1	PSYCHOLOGIE
FAUST_1[2014-06]	102	4	28	1	3	1	2	2	2	1	1157	1	1	1	1494	1	855	videogamecontroller_3.bmp	scooter_8.bmp	videogamecontroller_2.bmp	videogamecontroller_11.bmp	scooter_8.bmp	videogamecontroller_13.bmp	videogamecontroller_5.bmp	21	2	1	1	1	PSYCHOLOGIE
FAUST_1[2014-06]	102	4	1	1	3	2	2	2	2	1	4645	1	2	0	2428	1	1226	circuitboard_4.bmp	rollerskates_17.bmp	circuitboard_16.bmp	circuitboard_13.bmp	circuitboard_16.bmp	circuitboard_8.bmp	circuitboard_2.bmp	21	2	1	1	1	PSYCHOLOGIE
FAUST_1[2014-06]	102	4	31	1	3	1	1	3	2	1	2572	2	1	0	2539	4	1612	shredder_5.bmp	powerstrip_13.bmp	powerstrip_10.bmp	carabiner_9.bmp	powerstrip_14.bmp	powerstrip_13.bmp	powerstrip_8.bmp	21	2	1	1	1	PSYCHOLOGIE
FAUST_1[2014-06]	102	4	4	1	3	2	1	3	2	1	2725	2	1	0	2066	3	1462	mic_12.bmp	orifan_17.bmp	parfait_11.bmp	orifan_7.bmp	orifan_14.bmp	orifan_6.bmp	parfait_11.bmp	21	2	1	1	1	PSYCHOLOGIE
FAUST_1[2014-06]	102	4	16	1	3	1	1	3	2	1	887	2	2	1	2309	4	1018	watch_7.bmp	birdhouse_9.bmp	birdhouse_11.bmp	birdhouse_9.bmp	cat_1.bmp	birdhouse_14.bmp	birdhouse_7.bmp	21	2	1	1	1	PSYCHOLOGIE
FAUST_1[2014-06]	102	4	30	1	3	2	1	3	2	1	1242	1	1	1	2642	3	955	rusdoll_1.bmp	jacket_10.bmp	jacket_6.bmp	jacket_7.bmp	tricycle_2.bmp	jacket_11.bmp	tricycle_2.bmp	21	2	1	1	1	PSYCHOLOGIE
FAUST_1[2014-06]	102	4	10	1	3	1	1	3	2	1	769	2	2	1	1207	4	1217	pasta_11.bmp	babycrib_6.bmp	babycrib_5.bmp	cherubstatue_5.bmp	babycrib_2.bmp	babycrib_7.bmp	babycrib_2.bmp	21	2	1	1	1	PSYCHOLOGIE
FAUST_1[2014-06]	102	4	29	1	3	2	1	3	1	0	3073	1	1	1	2499	1	741	printer_3.bmp	abacus_2.bmp	bowlingpin_1.bmp	bowlingpin_4.bmp	abacus_2.bmp	bowlingpin_13.bmp	bowlingpin_3.bmp	21	2	1	1	1	PSYCHOLOGIE
FAUST_1[2014-06]	102	4	19	1	3	1	1	3	2	1	898	2	2	1	1180	4	1868	speaker_10.bmp	skateboard_16.bmp	skateboard_14.bmp	skateboard_11.bmp	hammer_6.bmp	skateboard_3.bmp	skateboard_14.bmp	21	2	1	1	1	PSYCHOLOGIE
FAUST_1[2014-06]	102	4	8	1	3	2	1	3	2	1	891	2	2	1	1495	4	1041	remote_13.bmp	glove_10.bmp	socks_4.bmp	socks_13.bmp	socks_12.bmp	glove_10.bmp	socks_10.bmp	21	2	1	1	1	PSYCHOLOGIE
