experiment	subject	block	trial	order	material	repeated	related	probetype	response	correct	rt	math_response	math_correctresponse	math_correct	math_rt	confidence	confidence_rt	probe	item1	item2	item3	item4	item5	item6	age	sex	handedness	color_vision	mother_tongue	occupation
FAUST_1[2014-06]	103	1	14	3	2	1	1	1	1	1	4759	1	1	1	3396	3	2881	String8.bmp	Onion18.bmp	Onion19.bmp	Onion13.bmp	Onion19.bmp	Onion7.bmp	String8.bmp	27	1	1	1	1	ENGLISCHS
FAUST_1[2014-06]	103	1	4	3	2	2	1	1	1	1	2283	-1	1	0	0	4	2326	Star17.bmp	Star17.bmp	Fudge20.bmp	Fudge5.bmp	Fudge8.bmp	Star17.bmp	Fudge15.bmp	27	1	1	1	1	ENGLISCHS
FAUST_1[2014-06]	103	1	11	3	2	1	2	1	1	1	2565	1	1	1	2956	3	2949	Nut2.bmp	Chocolate5.bmp	Nut18.bmp	Nut2.bmp	Chocolate5.bmp	Nut19.bmp	Nut11.bmp	27	1	1	1	1	ENGLISCHS
FAUST_1[2014-06]	103	1	9	3	2	2	2	1	1	1	1638	2	2	1	2993	4	2063	Cake18.bmp	Cake24.bmp	Cake18.bmp	Cake16.bmp	Cake18.bmp	Shell17.bmp	Cake7.bmp	27	1	1	1	1	ENGLISCHS
FAUST_1[2014-06]	103	1	3	3	2	1	1	1	1	1	2022	1	1	1	1806	4	3227	Hand10.bmp	Umbrella19.bmp	Hand10.bmp	Umbrella7.bmp	Umbrella21.bmp	Umbrella7.bmp	Umbrella6.bmp	27	1	1	1	1	ENGLISCHS
FAUST_1[2014-06]	103	1	6	3	2	2	1	1	1	1	1803	1	1	1	1951	4	2148	Coins14.bmp	Pear16.bmp	Pear18.bmp	Coins14.bmp	Pear15.bmp	Coins14.bmp	Pear4.bmp	27	1	1	1	1	ENGLISCHS
FAUST_1[2014-06]	103	1	21	3	2	1	2	1	1	1	2581	1	1	1	2982	3	1734	Mushroom6.bmp	Mushroom14.bmp	Mushroom18.bmp	Car12.bmp	Mushroom25.bmp	Car12.bmp	Mushroom6.bmp	27	1	1	1	1	ENGLISCHS
FAUST_1[2014-06]	103	1	16	3	2	2	2	1	1	1	2281	1	2	0	3284	3	3190	Chilli19.bmp	Chilli19.bmp	Chilli14.bmp	Chilli19.bmp	Chilli12.bmp	Chilli22.bmp	Bag3.bmp	27	1	1	1	1	ENGLISCHS
FAUST_1[2014-06]	103	1	20	3	2	1	1	2	1	0	1367	2	2	1	2745	1	2055	Sweet1.bmp	Screw9.bmp	Screw16.bmp	Sweet18.bmp	Screw18.bmp	Screw16.bmp	Screw13.bmp	27	1	1	1	1	ENGLISCHS
FAUST_1[2014-06]	103	1	2	3	2	2	1	2	2	1	1525	-1	2	0	0	4	2306	Plug4.bmp	Toothbrush9.bmp	Toothbrush6.bmp	Toothbrush10.bmp	Plug9.bmp	Toothbrush1.bmp	Plug9.bmp	27	1	1	1	1	ENGLISCHS
FAUST_1[2014-06]	103	1	13	3	2	1	2	2	1	0	1657	2	1	0	2421	4	1712	Bun17.bmp	Bun12.bmp	Bun5.bmp	Keys6.bmp	Bun19.bmp	Bun22.bmp	Keys6.bmp	27	1	1	1	1	ENGLISCHS
FAUST_1[2014-06]	103	1	19	3	2	2	2	2	2	1	2934	1	1	1	2791	3	2222	Biscuit4.bmp	Biscuit25.bmp	Biscuit17.bmp	Biscuit20.bmp	Biscuit9.bmp	Feather14.bmp	Biscuit9.bmp	27	1	1	1	1	ENGLISCHS
FAUST_1[2014-06]	103	1	22	3	2	1	1	2	2	1	2171	2	2	1	3404	3	1341	Lipstick9.bmp	Varnish17.bmp	Varnish3.bmp	Varnish5.bmp	Lipstick7.bmp	Varnish14.bmp	Varnish5.bmp	27	1	1	1	1	ENGLISCHS
FAUST_1[2014-06]	103	1	5	3	2	2	1	2	2	1	108	-1	2	0	0	1	5380	Fork9.bmp	Hanger15.bmp	Hanger14.bmp	Hanger7.bmp	Fork17.bmp	Hanger2.bmp	Fork17.bmp	27	1	1	1	1	ENGLISCHS
FAUST_1[2014-06]	103	1	15	3	2	1	2	2	2	1	2895	-1	2	0	0	3	2396	Stapler6.bmp	Stapler8.bmp	Stapler7.bmp	Daff1.bmp	Stapler9.bmp	Stapler10.bmp	Daff1.bmp	27	1	1	1	1	ENGLISCHS
FAUST_1[2014-06]	103	1	17	3	2	2	2	2	1	0	2285	2	2	1	3117	3	1662	Apple5.bmp	Apple21.bmp	Glass19.bmp	Apple24.bmp	Apple18.bmp	Apple10.bmp	Apple21.bmp	27	1	1	1	1	ENGLISCHS
FAUST_1[2014-06]	103	1	8	3	2	1	1	3	2	1	2413	-1	2	0	0	4	4167	Leaf13.bmp	Key5.bmp	Key11.bmp	Present17.bmp	Key13.bmp	Key20.bmp	Key11.bmp	27	1	1	1	1	ENGLISCHS
FAUST_1[2014-06]	103	1	12	3	2	2	1	3	2	1	1304	-1	2	0	0	4	5465	Strawberry3.bmp	Bracelet1.bmp	Jigsaw17.bmp	Bracelet1.bmp	Jigsaw14.bmp	Jigsaw10.bmp	Jigsaw11.bmp	27	1	1	1	1	ENGLISCHS
FAUST_1[2014-06]	103	1	10	3	2	1	1	3	2	1	1479	2	1	0	3344	4	2763	Brocolli19.bmp	Man10.bmp	Man2.bmp	Man15.bmp	Swirl5.bmp	Man10.bmp	Man24.bmp	27	1	1	1	1	ENGLISCHS
FAUST_1[2014-06]	103	1	1	3	2	2	1	3	2	1	1351	2	2	1	2690	4	4100	Candle10.bmp	Paperclip14.bmp	Paperclip9.bmp	Flower17.bmp	Paperclip13.bmp	Flower17.bmp	Paperclip6.bmp	27	1	1	1	1	ENGLISCHS
FAUST_1[2014-06]	103	1	7	3	2	1	1	3	2	1	1390	1	1	1	1362	4	2047	Holly14.bmp	Tomato18.bmp	Button3.bmp	Button20.bmp	Button3.bmp	Button14.bmp	Button18.bmp	27	1	1	1	1	ENGLISCHS
FAUST_1[2014-06]	103	1	18	3	2	2	1	3	2	1	1763	-1	1	0	0	4	2492	Ginger3.bmp	Pen1.bmp	Scissors23.bmp	Scissors1.bmp	Scissors11.bmp	Pen1.bmp	Scissors3.bmp	27	1	1	1	1	ENGLISCHS
FAUST_1[2014-06]	103	2	7	3	3	1	1	1	2	0	3407	-1	1	0	0	3	1779	carabiner_7.bmp	plant_5.bmp	plant_2.bmp	plant_8.bmp	plant_2.bmp	carabiner_7.bmp	plant_14.bmp	27	1	1	1	1	ENGLISCHS
FAUST_1[2014-06]	103	2	31	3	3	2	1	1	1	1	2095	1	1	1	2466	4	1678	circuitboard_2.bmp	circuitboard_2.bmp	videogamecontroller_3.bmp	videogamecontroller_11.bmp	circuitboard_2.bmp	videogamecontroller_13.bmp	videogamecontroller_5.bmp	27	1	1	1	1	ENGLISCHS
FAUST_1[2014-06]	103	2	32	3	3	1	2	1	1	1	4362	1	1	1	2181	2	2335	guitar_7.bmp	guitar_14.bmp	guitar_7.bmp	shoe_7.bmp	guitar_5.bmp	shoe_7.bmp	guitar_10.bmp	27	1	1	1	1	ENGLISCHS
FAUST_1[2014-06]	103	2	6	3	3	2	2	1	1	1	1571	1	2	0	1930	4	1709	hairdryer_7.bmp	hairdryer_13.bmp	hairdryer_7.bmp	hairdryer_12.bmp	hairdryer_7.bmp	hairdryer_14.bmp	wig_1.bmp	27	1	1	1	1	ENGLISCHS
FAUST_1[2014-06]	103	2	11	3	3	1	1	1	1	1	3000	1	2	0	2535	4	2357	watergun_8.bmp	watergun_8.bmp	cat_5.bmp	cat_4.bmp	cat_10.bmp	cat_1.bmp	cat_4.bmp	27	1	1	1	1	ENGLISCHS
FAUST_1[2014-06]	103	2	3	3	3	2	1	1	1	1	2172	1	1	1	2992	4	3477	doorknocker_11.bmp	orifan_1.bmp	orifan_6.bmp	doorknocker_11.bmp	orifan_14.bmp	orifan_17.bmp	doorknocker_11.bmp	27	1	1	1	1	ENGLISCHS
FAUST_1[2014-06]	103	2	25	3	3	1	2	1	1	1	1781	2	1	0	2177	4	1492	remote_3.bmp	remote_2.bmp	remote_13.bmp	rusdoll_1.bmp	remote_3.bmp	rusdoll_1.bmp	remote_11.bmp	27	1	1	1	1	ENGLISCHS
FAUST_1[2014-06]	103	2	4	3	3	2	2	1	1	1	2018	1	2	0	2006	4	1884	tv_7.bmp	tv_16.bmp	tv_7.bmp	tv_8.bmp	bowlingpin_11.bmp	tv_5.bmp	tv_7.bmp	27	1	1	1	1	ENGLISCHS
FAUST_1[2014-06]	103	2	16	3	3	1	1	1	1	1	1926	1	1	1	3369	3	1633	shredder_5.bmp	babycrib_2.bmp	babycrib_6.bmp	babycrib_9.bmp	babycrib_5.bmp	babycrib_6.bmp	shredder_5.bmp	27	1	1	1	1	ENGLISCHS
FAUST_1[2014-06]	103	2	19	3	3	2	1	1	1	1	1919	1	1	1	2466	4	5150	doorknob_10.bmp	doorknob_10.bmp	watch_14.bmp	watch_6.bmp	watch_8.bmp	watch_3.bmp	doorknob_10.bmp	27	1	1	1	1	ENGLISCHS
FAUST_1[2014-06]	103	2	1	3	3	1	2	1	1	1	3085	1	2	0	2448	4	3522	router_6.bmp	windchime_16.bmp	router_12.bmp	router_5.bmp	windchime_16.bmp	router_16.bmp	router_6.bmp	27	1	1	1	1	ENGLISCHS
FAUST_1[2014-06]	103	2	26	3	3	2	2	1	1	1	2221	1	1	1	2584	3	1700	easteregg_14.bmp	easteregg_5.bmp	easteregg_9.bmp	easteregg_14.bmp	powerstrip_14.bmp	easteregg_14.bmp	easteregg_16.bmp	27	1	1	1	1	ENGLISCHS
FAUST_1[2014-06]	103	2	29	3	3	1	1	2	2	1	1484	1	1	1	2276	2	2210	ring_11.bmp	leatherman_5.bmp	ring_15.bmp	leatherman_10.bmp	leatherman_14.bmp	leatherman_10.bmp	leatherman_2.bmp	27	1	1	1	1	ENGLISCHS
FAUST_1[2014-06]	103	2	23	3	3	2	1	2	2	1	2279	2	2	1	2921	4	1330	birdhouse_11.bmp	tricycle_2.bmp	birdhouse_6.bmp	tricycle_10.bmp	tricycle_8.bmp	birdhouse_6.bmp	tricycle_5.bmp	27	1	1	1	1	ENGLISCHS
FAUST_1[2014-06]	103	2	8	3	3	1	2	2	2	1	3833	1	1	1	1621	3	1828	camera_3.bmp	camera_9.bmp	printer_16.bmp	camera_4.bmp	printer_16.bmp	camera_7.bmp	camera_6.bmp	27	1	1	1	1	ENGLISCHS
FAUST_1[2014-06]	103	2	18	3	3	2	2	2	2	1	1477	1	2	0	2079	4	1882	parfait_1.bmp	parfait_11.bmp	parfait_15.bmp	coffee_2.bmp	parfait_4.bmp	parfait_13.bmp	parfait_11.bmp	27	1	1	1	1	ENGLISCHS
FAUST_1[2014-06]	103	2	27	3	3	1	1	2	2	1	3813	-1	1	0	0	3	1583	skateboard_16.bmp	laptop_10.bmp	laptop_15.bmp	laptop_14.bmp	laptop_10.bmp	skateboard_14.bmp	laptop_16.bmp	27	1	1	1	1	ENGLISCHS
FAUST_1[2014-06]	103	2	12	3	3	2	1	2	2	1	2394	2	2	1	2890	3	1631	scooter_4.bmp	scooter_5.bmp	cherubstatue_5.bmp	cherubstatue_10.bmp	scooter_5.bmp	cherubstatue_6.bmp	cherubstatue_11.bmp	27	1	1	1	1	ENGLISCHS
FAUST_1[2014-06]	103	2	13	3	3	1	2	2	2	1	2398	1	1	1	2864	3	1933	cellphone_3.bmp	cellphone_4.bmp	cellphone_8.bmp	saltpeppershake_12.bmp	cellphone_11.bmp	saltpeppershake_12.bmp	cellphone_12.bmp	27	1	1	1	1	ENGLISCHS
FAUST_1[2014-06]	103	2	24	3	3	2	2	2	2	1	3249	2	2	1	3233	3	2706	glove_12.bmp	saddle_5.bmp	glove_10.bmp	glove_15.bmp	glove_5.bmp	glove_8.bmp	glove_10.bmp	27	1	1	1	1	ENGLISCHS
FAUST_1[2014-06]	103	2	30	3	3	1	1	2	2	1	1346	1	1	1	2733	4	1984	bagel_4.bmp	bagel_14.bmp	glasses_13.bmp	glasses_15.bmp	glasses_8.bmp	glasses_15.bmp	glasses_6.bmp	27	1	1	1	1	ENGLISCHS
FAUST_1[2014-06]	103	2	20	3	3	2	1	2	2	1	1210	1	1	1	3084	4	1213	beanbagchair_3.bmp	flashlight_13.bmp	beanbagchair_14.bmp	flashlight_17.bmp	flashlight_2.bmp	flashlight_1.bmp	beanbagchair_14.bmp	27	1	1	1	1	ENGLISCHS
FAUST_1[2014-06]	103	2	21	3	3	1	2	2	2	1	1825	2	2	1	2037	4	1533	sink_6.bmp	sink_15.bmp	sink_10.bmp	sink_11.bmp	fan_15.bmp	sink_1.bmp	fan_15.bmp	27	1	1	1	1	ENGLISCHS
FAUST_1[2014-06]	103	2	14	3	3	2	2	2	2	1	1309	2	1	0	2655	4	1416	speaker_10.bmp	speaker_17.bmp	hairbrush_17.bmp	speaker_6.bmp	speaker_15.bmp	speaker_6.bmp	speaker_4.bmp	27	1	1	1	1	ENGLISCHS
FAUST_1[2014-06]	103	2	15	3	3	1	1	3	2	1	1242	2	2	1	2337	4	1394	vase_13.bmp	highchair_3.bmp	mic_12.bmp	highchair_10.bmp	highchair_3.bmp	highchair_4.bmp	highchair_15.bmp	27	1	1	1	1	ENGLISCHS
FAUST_1[2014-06]	103	2	2	3	3	2	1	3	2	1	1419	1	1	1	2048	4	1910	trophy_16.bmp	backpack_16.bmp	backpack_12.bmp	lawnmower_15.bmp	backpack_13.bmp	backpack_10.bmp	lawnmower_15.bmp	27	1	1	1	1	ENGLISCHS
FAUST_1[2014-06]	103	2	10	3	3	1	1	3	2	1	1504	2	2	1	2152	4	1598	rollerskates_8.bmp	goggle_3.bmp	carriage_14.bmp	carriage_12.bmp	carriage_2.bmp	carriage_12.bmp	carriage_3.bmp	27	1	1	1	1	ENGLISCHS
FAUST_1[2014-06]	103	2	22	3	3	2	1	3	2	1	1371	1	1	1	3187	4	1573	hammer_17.bmp	cheesegrater_8.bmp	abacus_4.bmp	abacus_15.bmp	cheesegrater_8.bmp	abacus_6.bmp	abacus_2.bmp	27	1	1	1	1	ENGLISCHS
FAUST_1[2014-06]	103	2	9	3	3	1	1	3	2	1	1436	2	2	1	1869	3	1353	pasta_13.bmp	horseshoe_6.bmp	cake_5.bmp	horseshoe_4.bmp	horseshoe_12.bmp	horseshoe_6.bmp	horseshoe_5.bmp	27	1	1	1	1	ENGLISCHS
FAUST_1[2014-06]	103	2	17	3	3	2	1	3	2	1	1068	-1	2	0	0	4	1521	trunk_1.bmp	garbagecan_2.bmp	jacket_10.bmp	garbagecan_10.bmp	garbagecan_17.bmp	jacket_10.bmp	garbagecan_8.bmp	27	1	1	1	1	ENGLISCHS
FAUST_1[2014-06]	103	2	28	3	3	1	1	3	1	0	1849	1	2	0	2645	1	2291	chair_16.bmp	sofa_13.bmp	sofa_9.bmp	sofa_3.bmp	iceskates_14.bmp	sofa_13.bmp	sofa_6.bmp	27	1	1	1	1	ENGLISCHS
FAUST_1[2014-06]	103	2	5	3	3	2	1	3	2	1	2174	1	1	1	2280	4	1624	socks_10.bmp	turtle_6.bmp	trumpet_3.bmp	turtle_12.bmp	trumpet_3.bmp	turtle_7.bmp	turtle_2.bmp	27	1	1	1	1	ENGLISCHS
FAUST_1[2014-06]	103	3	19	3	1	1	1	1	1	1	1653	2	2	1	1439	4	1521	SCHMECKEN	bronze	gold	silber	eisen	gold	schmecken	27	1	1	1	1	ENGLISCHS
FAUST_1[2014-06]	103	3	13	3	1	2	1	1	1	1	3847	1	2	0	1278	3	1048	DACKEL	dackel	onkel	tochter	dackel	vater	sohn	27	1	1	1	1	ENGLISCHS
FAUST_1[2014-06]	103	3	3	3	1	1	2	1	1	1	2837	2	2	1	2592	4	1382	THUNFISCH	lenkrad	thunfisch	makrele	hering	lachs	lenkrad	27	1	1	1	1	ENGLISCHS
FAUST_1[2014-06]	103	3	6	3	1	2	2	1	1	1	1404	2	1	0	2168	4	1404	WASSERMANN	wassermann	jungfrau	zwilling	schütze	yacht	wassermann	27	1	1	1	1	ENGLISCHS
FAUST_1[2014-06]	103	3	24	3	1	1	1	1	1	1	1583	1	2	0	1953	4	1872	PUMA	flöte	oboe	trompete	puma	posaune	trompete	27	1	1	1	1	ENGLISCHS
FAUST_1[2014-06]	103	3	25	3	1	2	1	1	1	1	1486	1	2	0	2210	4	1375	LILA	lila	schrank	sofa	stuhl	lila	regal	27	1	1	1	1	ENGLISCHS
FAUST_1[2014-06]	103	3	18	3	1	1	2	1	1	1	1998	2	2	1	1793	3	2130	RHEIN	biene	donau	main	biene	rhein	weser	27	1	1	1	1	ENGLISCHS
FAUST_1[2014-06]	103	3	31	3	1	2	2	1	1	1	1673	2	2	1	1080	4	1312	SCRABBLE	halma	backgammon	schach	scrabble	scham	scrabble	27	1	1	1	1	ENGLISCHS
FAUST_1[2014-06]	103	3	1	3	1	1	1	1	1	1	3091	-1	1	0	0	4	2431	KOMÖDIE	lehrer	arzt	richter	lehrer	polizist	komödie	27	1	1	1	1	ENGLISCHS
FAUST_1[2014-06]	103	3	9	3	1	2	1	1	1	1	2578	2	2	1	1737	4	1454	DRUCKER	drucker	bluse	hose	drucker	hemd	jacke	27	1	1	1	1	ENGLISCHS
FAUST_1[2014-06]	103	3	4	3	1	1	2	1	1	1	1680	1	1	1	1675	4	1449	REALSCHULE	realschule	berufsschule	stunde	hauptschule	stunde	gymnasium	27	1	1	1	1	ENGLISCHS
FAUST_1[2014-06]	103	3	30	3	1	2	2	1	1	1	1464	2	2	1	2412	4	1260	TAUBE	taube	schwalbe	amsel	kopf	taube	meise	27	1	1	1	1	ENGLISCHS
FAUST_1[2014-06]	103	3	14	3	1	1	1	2	2	1	2704	1	1	1	1666	3	1296	BRAHMS	beethoven	skifahren	tennis	schwimmen	skifahren	fußball	27	1	1	1	1	ENGLISCHS
FAUST_1[2014-06]	103	3	22	3	1	2	1	2	2	1	2470	1	1	1	1571	3	1250	REGEN	bratwurst	pizza	schnee	hamburger	döner	schnee	27	1	1	1	1	ENGLISCHS
FAUST_1[2014-06]	103	3	27	3	1	1	2	2	2	1	2789	2	2	1	1725	4	2550	CANNABIS	haschisch	gin	opium	heroin	kokain	gin	27	1	1	1	1	ENGLISCHS
FAUST_1[2014-06]	103	3	2	3	1	2	2	2	2	1	2458	1	2	0	2114	3	1753	SACHSEN	hessen	gummibärchen	brandenburg	thüringen	brandenburg	saarland	27	1	1	1	1	ENGLISCHS
FAUST_1[2014-06]	103	3	20	3	1	1	1	2	1	0	2832	1	2	0	1817	3	1480	TOMATEN	merkur	saturn	pluto	merkur	venus	spinat	27	1	1	1	1	ENGLISCHS
FAUST_1[2014-06]	103	3	7	3	1	2	1	2	2	1	2589	1	2	0	1872	3	1418	ÖSTERREICH	england	gabel	löffel	england	brotmesser	teelöffel	27	1	1	1	1	ENGLISCHS
FAUST_1[2014-06]	103	3	28	3	1	1	2	2	2	1	1457	2	2	1	2790	4	1274	ADVERB	banane	präposition	verb	nomen	banane	adjektiv	27	1	1	1	1	ENGLISCHS
FAUST_1[2014-06]	103	3	29	3	1	2	2	2	2	1	1329	2	2	1	2450	4	1181	NUDELHOLZ	küchenwaage	pfannenwender	fluss	küchenwaage	backblech	backform	27	1	1	1	1	ENGLISCHS
FAUST_1[2014-06]	103	3	5	3	1	1	1	2	2	1	1668	2	2	1	2088	4	1348	QUADRAT	volvo	mercedes	kreis	mercedes	audi	peugeot	27	1	1	1	1	ENGLISCHS
FAUST_1[2014-06]	103	3	17	3	1	2	1	2	2	1	1915	1	2	0	1163	3	1120	DÄMON	hexe	zeitung	hexe	buch	radio	internet	27	1	1	1	1	ENGLISCHS
FAUST_1[2014-06]	103	3	15	3	1	1	2	2	1	0	5275	1	2	0	1075	3	2212	WEIZEN	hafer	stuttgart	gerste	dinkel	stuttgart	roggen	27	1	1	1	1	ENGLISCHS
FAUST_1[2014-06]	103	3	16	3	1	2	2	2	2	1	2376	2	2	1	1005	3	1288	SEIDE	leinen	benzin	baumwolle	wolle	leinen	flanell	27	1	1	1	1	ENGLISCHS
FAUST_1[2014-06]	103	3	32	3	1	1	1	3	2	1	1932	2	1	0	1613	4	1018	GRAF	tulpe	rose	lilie	scheune	nelke	tulpe	27	1	1	1	1	ENGLISCHS
FAUST_1[2014-06]	103	3	21	3	1	2	1	3	2	1	1897	2	2	1	2097	4	1202	SÜDAMERIKA	basteln	zeichnen	filzstift	malen	lesen	filzstift	27	1	1	1	1	ENGLISCHS
FAUST_1[2014-06]	103	3	23	3	1	1	1	3	2	1	2537	2	2	1	1700	4	1576	WINDPOCKEN	koriander	bombe	pistole	gewehr	schwert	bombe	27	1	1	1	1	ENGLISCHS
FAUST_1[2014-06]	103	3	26	3	1	2	1	3	2	1	1731	1	2	0	1717	4	1149	HELIUM	synagoge	moschee	tempel	büroklammer	kirche	büroklammer	27	1	1	1	1	ENGLISCHS
FAUST_1[2014-06]	103	3	10	3	1	1	1	3	2	1	1430	2	1	0	2253	4	1759	LIPPENSTIFT	biologie	chemie	mathematik	erdkunde	mathematik	lunge	27	1	1	1	1	ENGLISCHS
FAUST_1[2014-06]	103	3	8	3	1	2	1	3	2	1	1803	2	2	1	2535	3	1171	RUMBA	kanne	glas	oper	flasche	karaffe	oper	27	1	1	1	1	ENGLISCHS
FAUST_1[2014-06]	103	3	11	3	1	1	1	3	2	1	1747	1	2	0	1281	3	1355	METER	euro	zange	cent	pfennig	dollar	euro	27	1	1	1	1	ENGLISCHS
FAUST_1[2014-06]	103	3	12	3	1	2	1	3	2	1	2438	2	1	0	1595	3	1140	NÄHNADEL	fahrrad	buche	tanne	birke	fahrrad	eiche	27	1	1	1	1	ENGLISCHS
FAUST_1[2014-06]	103	2	20	3	2	1	1	1	1	1	1545	2	2	1	1412	4	1201	Glass4.bmp	Chilli14.bmp	Chilli12.bmp	Chilli11.bmp	Chilli22.bmp	Glass4.bmp	Chilli12.bmp	27	1	1	1	1	ENGLISCHS
FAUST_1[2014-06]	103	2	3	3	2	2	1	1	1	1	1591	2	2	1	2400	3	1587	Fudge17.bmp	Umbrella6.bmp	Fudge17.bmp	Umbrella19.bmp	Fudge17.bmp	Umbrella17.bmp	Umbrella21.bmp	27	1	1	1	1	ENGLISCHS
FAUST_1[2014-06]	103	2	8	3	2	1	2	1	1	1	1550	2	2	1	1381	4	1257	Mushroom6.bmp	Mushroom6.bmp	Mushroom14.bmp	Bun17.bmp	Mushroom25.bmp	Mushroom7.bmp	Bun17.bmp	27	1	1	1	1	ENGLISCHS
FAUST_1[2014-06]	103	2	16	3	2	2	2	1	1	1	2267	2	2	1	2897	3	4688	Onion7.bmp	Onion7.bmp	Onion14.bmp	Onion18.bmp	Onion7.bmp	Onion13.bmp	Star19.bmp	27	1	1	1	1	ENGLISCHS
FAUST_1[2014-06]	103	2	7	3	2	1	1	1	1	1	1608	2	1	0	1273	4	1264	Lipstick3.bmp	Shell18.bmp	Shell1.bmp	Shell9.bmp	Lipstick3.bmp	Shell18.bmp	Shell5.bmp	27	1	1	1	1	ENGLISCHS
FAUST_1[2014-06]	103	2	14	3	2	2	1	1	1	1	1611	1	2	0	823	4	1258	Bag4.bmp	Chocolate6.bmp	Bag4.bmp	Chocolate9.bmp	Chocolate24.bmp	Chocolate17.bmp	Bag4.bmp	27	1	1	1	1	ENGLISCHS
FAUST_1[2014-06]	103	2	10	3	2	1	2	1	1	1	2215	2	2	1	1799	3	1408	Screw9.bmp	Screw9.bmp	Screw10.bmp	Screw13.bmp	Car14.bmp	Screw16.bmp	Car14.bmp	27	1	1	1	1	ENGLISCHS
FAUST_1[2014-06]	103	2	2	3	2	2	2	1	1	1	1978	1	2	0	1294	2	1396	Ginger15.bmp	Ginger5.bmp	Ginger17.bmp	Ginger15.bmp	Pear15.bmp	Ginger10.bmp	Ginger15.bmp	27	1	1	1	1	ENGLISCHS
FAUST_1[2014-06]	103	2	6	3	2	1	1	2	2	1	3067	1	2	0	1491	3	1470	Biscuit9.bmp	Biscuit17.bmp	Apple10.bmp	Apple24.bmp	Apple21.bmp	Apple18.bmp	Apple24.bmp	27	1	1	1	1	ENGLISCHS
FAUST_1[2014-06]	103	2	19	3	2	2	1	2	1	0	2181	1	2	0	1919	3	1362	Sweet22.bmp	Feather2.bmp	Feather11.bmp	Sweet10.bmp	Feather14.bmp	Sweet10.bmp	Feather12.bmp	27	1	1	1	1	ENGLISCHS
FAUST_1[2014-06]	103	2	9	3	2	1	2	2	2	1	1582	2	2	1	1036	3	1533	Varnish14.bmp	Daff1.bmp	Varnish5.bmp	Daff1.bmp	Varnish3.bmp	Varnish17.bmp	Varnish11.bmp	27	1	1	1	1	ENGLISCHS
FAUST_1[2014-06]	103	2	21	3	2	2	2	2	1	0	3232	2	1	0	1354	3	1904	Toothbrush1.bmp	Toothbrush10.bmp	Toothbrush6.bmp	Toothbrush9.bmp	Toothbrush12.bmp	Toothbrush6.bmp	Leaf21.bmp	27	1	1	1	1	ENGLISCHS
FAUST_1[2014-06]	103	2	18	3	2	1	1	2	2	1	1292	1	1	1	1645	4	1109	Swirl1.bmp	Swirl23.bmp	Flower14.bmp	Flower17.bmp	Flower13.bmp	Flower18.bmp	Flower17.bmp	27	1	1	1	1	ENGLISCHS
FAUST_1[2014-06]	103	2	11	3	2	2	1	2	2	1	1772	2	2	1	1056	3	1688	Coins10.bmp	Coins14.bmp	Bracelet8.bmp	Bracelet18.bmp	Bracelet2.bmp	Bracelet5.bmp	Coins14.bmp	27	1	1	1	1	ENGLISCHS
FAUST_1[2014-06]	103	2	22	3	2	1	2	2	2	1	1294	2	1	0	1297	4	1165	Pen20.bmp	Pen10.bmp	Strawberry14.bmp	Pen5.bmp	Pen17.bmp	Pen1.bmp	Strawberry14.bmp	27	1	1	1	1	ENGLISCHS
FAUST_1[2014-06]	103	2	1	3	2	2	2	2	2	1	2670	2	1	0	2697	3	1471	Fork9.bmp	Candle10.bmp	Fork17.bmp	Fork14.bmp	Fork8.bmp	Fork7.bmp	Fork8.bmp	27	1	1	1	1	ENGLISCHS
FAUST_1[2014-06]	103	2	4	3	2	1	1	3	2	1	1229	2	1	0	1517	4	1190	Brocolli14.bmp	Cake7.bmp	Keys5.bmp	Keys9.bmp	Keys7.bmp	Keys9.bmp	Keys8.bmp	27	1	1	1	1	ENGLISCHS
FAUST_1[2014-06]	103	2	13	3	2	2	1	3	2	1	1235	2	2	1	1124	4	1635	Present14.bmp	Scissors3.bmp	Scissors1.bmp	Key11.bmp	Scissors23.bmp	Key11.bmp	Scissors14.bmp	27	1	1	1	1	ENGLISCHS
FAUST_1[2014-06]	103	2	5	3	2	1	1	3	2	1	2224	2	1	0	1114	4	1001	Man15.bmp	Holly3.bmp	Hand1.bmp	Holly11.bmp	Holly14.bmp	Holly17.bmp	Holly14.bmp	27	1	1	1	1	ENGLISCHS
FAUST_1[2014-06]	103	2	17	3	2	2	1	3	2	1	1505	2	2	1	1832	4	1595	Stapler8.bmp	Nut19.bmp	Plug9.bmp	Plug8.bmp	Plug6.bmp	Nut19.bmp	Plug18.bmp	27	1	1	1	1	ENGLISCHS
FAUST_1[2014-06]	103	2	12	3	2	1	1	3	2	1	1342	1	1	1	1778	4	942	Paperclip9.bmp	Hanger2.bmp	Jigsaw17.bmp	Hanger12.bmp	Hanger7.bmp	Hanger15.bmp	Hanger7.bmp	27	1	1	1	1	ENGLISCHS
FAUST_1[2014-06]	103	2	15	3	2	2	1	3	2	1	1106	1	2	0	2155	4	1378	String8.bmp	Tomato12.bmp	Button20.bmp	Button14.bmp	Button18.bmp	Button10.bmp	Tomato12.bmp	27	1	1	1	1	ENGLISCHS
FAUST_1[2014-06]	103	3	13	3	3	1	1	1	1	1	1680	1	1	1	817	3	1239	videogamecontroller_13.bmp	socks_15.bmp	socks_10.bmp	socks_12.bmp	videogamecontroller_13.bmp	socks_4.bmp	socks_10.bmp	27	1	1	1	1	ENGLISCHS
FAUST_1[2014-06]	103	3	20	3	3	2	1	1	1	1	1532	2	1	0	1779	4	1330	tricycle_10.bmp	cherubstatue_10.bmp	tricycle_10.bmp	cherubstatue_6.bmp	cherubstatue_5.bmp	cherubstatue_12.bmp	tricycle_10.bmp	27	1	1	1	1	ENGLISCHS
FAUST_1[2014-06]	103	3	30	3	3	1	2	1	1	1	4307	1	1	1	1065	3	2003	backpack_10.bmp	rollerskates_2.bmp	backpack_12.bmp	rollerskates_2.bmp	backpack_10.bmp	backpack_13.bmp	backpack_16.bmp	27	1	1	1	1	ENGLISCHS
FAUST_1[2014-06]	103	3	21	3	3	2	2	1	1	1	1295	2	2	1	1811	4	1338	glasses_15.bmp	ring_7.bmp	glasses_9.bmp	glasses_15.bmp	glasses_8.bmp	glasses_15.bmp	glasses_6.bmp	27	1	1	1	1	ENGLISCHS
FAUST_1[2014-06]	103	3	14	3	3	1	1	1	1	1	1572	2	2	1	1343	4	1282	abacus_15.bmp	chair_3.bmp	chair_11.bmp	abacus_15.bmp	chair_2.bmp	chair_16.bmp	chair_11.bmp	27	1	1	1	1	ENGLISCHS
FAUST_1[2014-06]	103	3	2	3	3	2	1	1	1	1	1897	1	1	1	2018	4	1896	bowlingpin_1.bmp	bowlingpin_1.bmp	cat_5.bmp	cat_10.bmp	bowlingpin_1.bmp	cat_1.bmp	cat_4.bmp	27	1	1	1	1	ENGLISCHS
FAUST_1[2014-06]	103	3	15	3	3	1	2	1	2	0	1694	2	1	0	976	3	1512	circuitboard_13.bmp	circuitboard_2.bmp	horseshoe_4.bmp	circuitboard_13.bmp	circuitboard_16.bmp	horseshoe_4.bmp	circuitboard_4.bmp	27	1	1	1	1	ENGLISCHS
FAUST_1[2014-06]	103	3	28	3	3	2	2	1	1	1	3360	2	1	0	1762	2	1653	babycrib_2.bmp	babycrib_9.bmp	babycrib_6.bmp	babycrib_5.bmp	babycrib_2.bmp	tv_4.bmp	babycrib_2.bmp	27	1	1	1	1	ENGLISCHS
FAUST_1[2014-06]	103	3	25	3	3	1	1	1	1	1	1603	2	2	1	1935	4	1154	easteregg_5.bmp	cheesegrater_11.bmp	cheesegrater_5.bmp	easteregg_5.bmp	cheesegrater_11.bmp	cheesegrater_15.bmp	cheesegrater_14.bmp	27	1	1	1	1	ENGLISCHS
FAUST_1[2014-06]	103	3	23	3	3	2	1	1	1	1	1474	1	2	0	1921	4	1661	speaker_10.bmp	speaker_10.bmp	birdhouse_6.bmp	speaker_10.bmp	birdhouse_14.bmp	birdhouse_9.bmp	birdhouse_11.bmp	27	1	1	1	1	ENGLISCHS
FAUST_1[2014-06]	103	3	31	3	3	1	2	1	1	1	1642	2	2	1	1746	3	1584	guitar_8.bmp	plant_5.bmp	guitar_5.bmp	guitar_8.bmp	guitar_14.bmp	guitar_10.bmp	plant_5.bmp	27	1	1	1	1	ENGLISCHS
FAUST_1[2014-06]	103	3	11	3	3	2	2	1	1	1	1603	1	2	0	1573	4	1213	sofa_12.bmp	sofa_13.bmp	sofa_6.bmp	sofa_12.bmp	sofa_3.bmp	laptop_10.bmp	sofa_12.bmp	27	1	1	1	1	ENGLISCHS
FAUST_1[2014-06]	103	3	7	3	3	1	1	2	2	1	1484	2	2	1	1438	4	1283	hairbrush_7.bmp	windchime_10.bmp	windchime_6.bmp	hairbrush_17.bmp	windchime_6.bmp	windchime_16.bmp	windchime_3.bmp	27	1	1	1	1	ENGLISCHS
FAUST_1[2014-06]	103	3	9	3	3	2	1	2	1	0	1681	1	2	0	1443	3	1261	doorknocker_11.bmp	mic_5.bmp	mic_12.bmp	mic_2.bmp	doorknocker_4.bmp	mic_3.bmp	doorknocker_4.bmp	27	1	1	1	1	ENGLISCHS
FAUST_1[2014-06]	103	3	17	3	3	1	2	2	2	1	1413	2	1	0	2348	4	1039	saltpeppershake_17.bmp	saltpeppershake_8.bmp	saltpeppershake_12.bmp	sink_11.bmp	saltpeppershake_2.bmp	sink_11.bmp	saltpeppershake_9.bmp	27	1	1	1	1	ENGLISCHS
FAUST_1[2014-06]	103	3	18	3	3	2	2	2	1	0	1992	-1	1	0	0	4	1684	cellphone_11.bmp	cellphone_8.bmp	cellphone_12.bmp	cellphone_3.bmp	cellphone_4.bmp	carriage_2.bmp	cellphone_8.bmp	27	1	1	1	1	ENGLISCHS
FAUST_1[2014-06]	103	3	29	3	3	1	1	2	2	1	1499	2	2	1	1250	4	1355	powerstrip_10.bmp	glove_15.bmp	glove_12.bmp	glove_5.bmp	glove_10.bmp	glove_12.bmp	powerstrip_13.bmp	27	1	1	1	1	ENGLISCHS
FAUST_1[2014-06]	103	3	10	3	3	2	1	2	2	1	1272	2	1	0	1466	4	1724	orifan_7.bmp	orifan_1.bmp	parfait_4.bmp	orifan_1.bmp	parfait_13.bmp	parfait_1.bmp	parfait_11.bmp	27	1	1	1	1	ENGLISCHS
FAUST_1[2014-06]	103	3	4	3	3	1	2	2	2	1	4085	2	2	1	2188	3	1118	skateboard_16.bmp	doorknob_17.bmp	skateboard_15.bmp	doorknob_17.bmp	skateboard_3.bmp	skateboard_11.bmp	skateboard_14.bmp	27	1	1	1	1	ENGLISCHS
FAUST_1[2014-06]	103	3	5	3	3	2	2	2	2	1	1680	2	2	1	1140	3	1560	leatherman_2.bmp	leatherman_5.bmp	leatherman_7.bmp	leatherman_14.bmp	leatherman_10.bmp	scooter_10.bmp	leatherman_5.bmp	27	1	1	1	1	ENGLISCHS
FAUST_1[2014-06]	103	3	22	3	3	1	1	2	2	1	2226	2	1	0	1619	3	1392	saddle_15.bmp	watergun_9.bmp	watergun_3.bmp	watergun_8.bmp	saddle_3.bmp	watergun_8.bmp	watergun_7.bmp	27	1	1	1	1	ENGLISCHS
FAUST_1[2014-06]	103	3	26	3	3	2	1	2	2	1	1737	2	2	1	1432	3	1411	trumpet_6.bmp	trumpet_3.bmp	rusdoll_1.bmp	trumpet_3.bmp	rusdoll_6.bmp	rusdoll_3.bmp	rusdoll_5.bmp	27	1	1	1	1	ENGLISCHS
FAUST_1[2014-06]	103	3	6	3	3	1	2	2	2	1	2388	2	2	1	1442	3	1557	turtle_6.bmp	turtle_7.bmp	turtle_2.bmp	turtle_12.bmp	bagel_16.bmp	turtle_11.bmp	bagel_16.bmp	27	1	1	1	1	ENGLISCHS
FAUST_1[2014-06]	103	3	3	3	3	2	2	2	1	0	1630	1	1	1	1796	3	1161	hairdryer_2.bmp	hairdryer_13.bmp	hairdryer_14.bmp	hairdryer_13.bmp	hairdryer_7.bmp	shoe_7.bmp	hairdryer_12.bmp	27	1	1	1	1	ENGLISCHS
FAUST_1[2014-06]	103	3	32	3	3	1	1	3	2	1	2245	2	2	1	2001	4	1479	pasta_9.bmp	fan_17.bmp	beanbagchair_14.bmp	beanbagchair_3.bmp	beanbagchair_15.bmp	beanbagchair_17.bmp	beanbagchair_3.bmp	27	1	1	1	1	ENGLISCHS
FAUST_1[2014-06]	103	3	27	3	3	2	1	3	2	1	1488	2	2	1	1971	4	1131	printer_3.bmp	goggle_4.bmp	goggle_1.bmp	hammer_17.bmp	goggle_9.bmp	hammer_17.bmp	goggle_13.bmp	27	1	1	1	1	ENGLISCHS
FAUST_1[2014-06]	103	3	24	3	3	1	1	3	2	1	1558	2	2	1	1726	4	1276	vase_1.bmp	cake_1.bmp	trophy_4.bmp	trophy_14.bmp	trophy_4.bmp	trophy_15.bmp	trophy_16.bmp	27	1	1	1	1	ENGLISCHS
FAUST_1[2014-06]	103	3	19	3	3	2	1	3	2	1	1177	1	2	0	1999	4	1108	shredder_1.bmp	remote_2.bmp	carabiner_7.bmp	remote_14.bmp	remote_3.bmp	remote_11.bmp	carabiner_7.bmp	27	1	1	1	1	ENGLISCHS
FAUST_1[2014-06]	103	3	16	3	3	1	1	3	2	1	1483	2	1	0	1705	4	1362	flashlight_13.bmp	garbagecan_10.bmp	garbagecan_17.bmp	trunk_5.bmp	garbagecan_10.bmp	garbagecan_2.bmp	garbagecan_8.bmp	27	1	1	1	1	ENGLISCHS
FAUST_1[2014-06]	103	3	8	3	3	2	1	3	2	1	2728	1	1	1	1089	4	1622	jacket_7.bmp	lawnmower_17.bmp	watch_14.bmp	watch_6.bmp	watch_3.bmp	lawnmower_17.bmp	watch_8.bmp	27	1	1	1	1	ENGLISCHS
FAUST_1[2014-06]	103	3	12	3	3	1	1	3	2	1	1847	2	1	0	1479	4	1543	iceskates_16.bmp	camera_3.bmp	wig_1.bmp	camera_6.bmp	camera_4.bmp	camera_7.bmp	camera_6.bmp	27	1	1	1	1	ENGLISCHS
FAUST_1[2014-06]	103	3	1	3	3	2	1	3	2	1	1450	2	2	1	2186	4	1352	router_16.bmp	highchair_6.bmp	coffee_14.bmp	coffee_15.bmp	coffee_7.bmp	highchair_6.bmp	coffee_2.bmp	27	1	1	1	1	ENGLISCHS
FAUST_1[2014-06]	103	4	31	3	1	1	1	1	1	1	1613	2	2	1	1859	4	1167	MILLIMETER	sonnenschein	nebel	schnee	millimeter	schnee	regen	27	1	1	1	1	ENGLISCHS
FAUST_1[2014-06]	103	4	26	3	1	2	1	1	1	1	1442	2	1	0	1147	4	1134	NIERE	niere	schreiben	lesen	malen	niere	basteln	27	1	1	1	1	ENGLISCHS
FAUST_1[2014-06]	103	4	16	3	1	1	2	1	1	1	2312	1	1	1	1030	4	1995	ADJEKTIV	lakritz	präposition	nomen	lakritz	verb	adjektiv	27	1	1	1	1	ENGLISCHS
FAUST_1[2014-06]	103	4	32	3	1	2	2	1	2	0	2880	2	2	1	2408	4	1224	BUCHE	berufsschule	birke	weide	buche	tanne	buche	27	1	1	1	1	ENGLISCHS
FAUST_1[2014-06]	103	4	8	3	1	1	1	1	2	0	1223	1	2	0	988	4	1143	KINO	cannabis	haschisch	kokain	heroin	kino	cannabis	27	1	1	1	1	ENGLISCHS
FAUST_1[2014-06]	103	4	17	3	1	2	1	1	1	1	1414	2	2	1	2016	4	2123	DACKEL	dackel	stunde	sekunde	tag	dackel	minute	27	1	1	1	1	ENGLISCHS
FAUST_1[2014-06]	103	4	18	3	1	1	2	1	1	1	2487	2	2	1	1786	4	2076	ROT	döner	rot	döner	gelb	lila	blau	27	1	1	1	1	ENGLISCHS
FAUST_1[2014-06]	103	4	20	3	1	2	2	1	1	1	3649	1	1	1	2414	3	1841	ARZT	arzt	lehrer	buntstift	richter	pfarrer	arzt	27	1	1	1	1	ENGLISCHS
FAUST_1[2014-06]	103	4	27	3	1	1	1	1	1	1	2232	2	2	1	1874	4	1232	RÖTELN	schrank	regal	stuhl	röteln	sofa	stuhl	27	1	1	1	1	ENGLISCHS
FAUST_1[2014-06]	103	4	14	3	1	2	1	1	1	1	1990	1	2	0	2104	4	1286	BRANDENBURG	brandenburg	südamerika	australien	brandenburg	afrika	nordamerika	27	1	1	1	1	ENGLISCHS
FAUST_1[2014-06]	103	4	6	3	1	1	2	1	1	1	1529	2	2	1	1794	4	1388	DINKEL	weizen	physik	gerste	dinkel	physik	hafer	27	1	1	1	1	ENGLISCHS
FAUST_1[2014-06]	103	4	12	3	1	2	2	1	1	1	1914	1	1	1	1320	4	2044	PUMA	panther	gepard	puma	leopard	ameise	puma	27	1	1	1	1	ENGLISCHS
FAUST_1[2014-06]	103	4	1	3	1	1	1	2	2	1	2233	2	2	1	1524	4	1615	LÖFFEL	brotmesser	könig	kaiser	graf	fürst	graf	27	1	1	1	1	ENGLISCHS
FAUST_1[2014-06]	103	4	9	3	1	2	1	2	2	1	2212	2	1	0	985	4	1274	KANU	audi	mercedes	yacht	peugeot	yacht	porsche	27	1	1	1	1	ENGLISCHS
FAUST_1[2014-06]	103	4	5	3	1	1	2	2	2	1	1293	1	1	1	2032	4	1086	POSAUNE	spinat	trompete	klarinette	oboe	flöte	spinat	27	1	1	1	1	ENGLISCHS
FAUST_1[2014-06]	103	4	22	3	1	2	2	2	2	1	2470	1	1	1	2151	4	1397	HAMMER	zange	bohrer	meißel	säge	bohrer	golf	27	1	1	1	1	ENGLISCHS
FAUST_1[2014-06]	103	4	29	3	1	1	1	2	2	1	1901	2	1	0	1441	4	1166	LINEAL	diesel	kerosin	petroleum	diesel	bleifrei	locher	27	1	1	1	1	ENGLISCHS
FAUST_1[2014-06]	103	4	13	3	1	2	1	2	2	1	1833	2	2	1	935	4	1171	RIECHEN	seide	leinen	wolle	hören	baumwolle	hören	27	1	1	1	1	ENGLISCHS
FAUST_1[2014-06]	103	4	21	3	1	1	2	2	2	1	4164	2	1	0	925	3	1457	COMPUTER	laptop	dollar	kamera	mobiltelefon	dollar	drucker	27	1	1	1	1	ENGLISCHS
FAUST_1[2014-06]	103	4	11	3	1	2	2	2	2	1	1665	2	2	1	1410	4	1346	MAKRELE	hering	forelle	thunfisch	lachs	pluto	forelle	27	1	1	1	1	ENGLISCHS
FAUST_1[2014-06]	103	4	19	3	1	1	1	2	2	1	1914	2	2	1	1480	4	1424	GIN	halma	schach	scrabble	backgammon	halma	tequila	27	1	1	1	1	ENGLISCHS
FAUST_1[2014-06]	103	4	23	3	1	2	1	2	2	1	1853	2	1	0	1079	4	1387	BRAHMS	mozart	onkel	mutter	mozart	tochter	sohn	27	1	1	1	1	ENGLISCHS
FAUST_1[2014-06]	103	4	4	3	1	1	2	2	2	1	1458	1	2	0	1968	4	1035	TANGO	walzer	rumba	chachacha	majoran	foxtrott	majoran	27	1	1	1	1	ENGLISCHS
FAUST_1[2014-06]	103	4	15	3	1	2	2	2	2	1	1659	2	1	0	1949	4	1430	WERWOLF	hexe	vampir	schweiz	vampir	zombie	dämon	27	1	1	1	1	ENGLISCHS
FAUST_1[2014-06]	103	4	3	3	1	1	1	3	2	1	1408	2	1	0	1974	4	932	NUDELHOLZ	eisen	gold	bronze	silber	fink	gold	27	1	1	1	1	ENGLISCHS
FAUST_1[2014-06]	103	4	30	3	1	2	1	3	2	1	1757	1	2	0	685	4	1308	JACKE	sicherheitsnadel	ozean	nähnadel	ozean	stricknadel	häkelnadel	27	1	1	1	1	ENGLISCHS
FAUST_1[2014-06]	103	4	24	3	1	1	1	3	2	1	1086	1	2	0	2507	4	1262	VEILCHEN	pflaume	birne	banane	birne	apfel	dreieck	27	1	1	1	1	ENGLISCHS
FAUST_1[2014-06]	103	4	2	3	1	2	1	3	2	1	1462	1	1	1	1419	4	1324	SCHWERT	stickstoff	kajal	wimperntusche	lidschatten	stickstoff	lippenstift	27	1	1	1	1	ENGLISCHS
FAUST_1[2014-06]	103	4	25	3	1	1	1	3	2	1	1146	1	1	1	949	4	1337	BARACKE	kopf	hand	internet	hand	arm	fuß	27	1	1	1	1	ENGLISCHS
FAUST_1[2014-06]	103	4	7	3	1	2	1	3	2	1	1785	2	1	0	1533	4	1093	TRAUER	taxi	fahrrad	zug	kanne	bus	kanne	27	1	1	1	1	ENGLISCHS
FAUST_1[2014-06]	103	4	28	3	1	1	1	3	1	0	1970	2	1	0	1005	2	2032	WESTERN	elbe	main	weser	rhein	weser	steinbock	27	1	1	1	1	ENGLISCHS
FAUST_1[2014-06]	103	4	10	3	1	2	1	3	2	1	1333	1	2	0	710	4	2739	KUPPLUNG	hamburg	moschee	synagoge	kirche	kapelle	hamburg	27	1	1	1	1	ENGLISCHS
