experiment	subject	block	trial	order	material	repeated	related	probetype	response	correct	rt	math_response	math_correctresponse	math_correct	math_rt	confidence	confidence_rt	probe	item1	item2	item3	item4	item5	item6	age	sex	handedness	color_vision	mother_tongue	occupation
FAUST_1[2014-06]	104	1	9	5	3	1	1	1	2	0	1718	2	1	0	3458	1	5212	orifan_6.bmp	coffee_15.bmp	orifan_6.bmp	coffee_1.bmp	coffee_14.bmp	coffee_15.bmp	coffee_7.bmp	48	1	1	1	2	PSYCHOLOGIE
FAUST_1[2014-06]	104	1	30	5	3	2	1	1	1	1	2148	1	2	0	2724	3	2616	chair_2.bmp	cat_9.bmp	cat_5.bmp	chair_2.bmp	cat_4.bmp	chair_2.bmp	cat_10.bmp	48	1	1	1	2	PSYCHOLOGIE
FAUST_1[2014-06]	104	1	5	5	3	1	2	1	1	1	2359	-1	2	0	0	4	4771	beanbagchair_14.bmp	goggle_4.bmp	beanbagchair_15.bmp	beanbagchair_14.bmp	beanbagchair_17.bmp	goggle_4.bmp	beanbagchair_3.bmp	48	1	1	1	2	PSYCHOLOGIE
FAUST_1[2014-06]	104	1	11	5	3	2	2	1	1	1	1886	2	2	1	3142	3	2278	horseshoe_4.bmp	horseshoe_12.bmp	horseshoe_6.bmp	horseshoe_5.bmp	horseshoe_4.bmp	trunk_7.bmp	horseshoe_4.bmp	48	1	1	1	2	PSYCHOLOGIE
FAUST_1[2014-06]	104	1	10	5	3	1	1	1	2	0	2219	2	2	1	2937	2	2119	highchair_15.bmp	circuitboard_2.bmp	circuitboard_4.bmp	circuitboard_2.bmp	circuitboard_16.bmp	circuitboard_13.bmp	highchair_15.bmp	48	1	1	1	2	PSYCHOLOGIE
FAUST_1[2014-06]	104	1	27	5	3	2	1	1	2	0	1085	-1	1	0	0	2	1601	parfait_4.bmp	birdhouse_14.bmp	birdhouse_6.bmp	parfait_4.bmp	birdhouse_7.bmp	birdhouse_9.bmp	parfait_4.bmp	48	1	1	1	2	PSYCHOLOGIE
FAUST_1[2014-06]	104	1	18	5	3	1	2	1	1	1	2260	2	2	1	1951	2	2677	backpack_16.bmp	laptop_7.bmp	backpack_16.bmp	backpack_6.bmp	backpack_10.bmp	backpack_12.bmp	laptop_7.bmp	48	1	1	1	2	PSYCHOLOGIE
FAUST_1[2014-06]	104	1	26	5	3	2	2	1	2	0	1883	-1	1	0	0	3	1385	skateboard_3.bmp	skateboard_15.bmp	skateboard_3.bmp	tricycle_2.bmp	skateboard_3.bmp	skateboard_11.bmp	skateboard_16.bmp	48	1	1	1	2	PSYCHOLOGIE
FAUST_1[2014-06]	104	1	24	5	3	1	1	1	2	0	2507	1	1	1	1676	2	2791	fan_11.bmp	flashlight_13.bmp	flashlight_2.bmp	flashlight_17.bmp	flashlight_1.bmp	fan_11.bmp	flashlight_2.bmp	48	1	1	1	2	PSYCHOLOGIE
FAUST_1[2014-06]	104	1	12	5	3	2	1	1	1	1	1919	1	1	1	2523	3	2553	saddle_4.bmp	carabiner_9.bmp	saddle_4.bmp	carabiner_6.bmp	carabiner_7.bmp	saddle_4.bmp	carabiner_5.bmp	48	1	1	1	2	PSYCHOLOGIE
FAUST_1[2014-06]	104	1	32	5	3	1	2	1	2	0	1875	1	2	0	2535	4	2265	router_12.bmp	router_7.bmp	wig_9.bmp	router_5.bmp	wig_9.bmp	router_12.bmp	router_16.bmp	48	1	1	1	2	PSYCHOLOGIE
FAUST_1[2014-06]	104	1	17	5	3	2	2	1	2	0	4883	2	2	1	2150	1	3660	mic_12.bmp	mic_10.bmp	mic_12.bmp	mic_5.bmp	jacket_6.bmp	mic_12.bmp	mic_2.bmp	48	1	1	1	2	PSYCHOLOGIE
FAUST_1[2014-06]	104	1	31	5	3	1	1	2	2	1	3858	1	1	1	1580	3	3442	bowlingpin_13.bmp	speaker_15.bmp	bowlingpin_4.bmp	speaker_6.bmp	speaker_4.bmp	speaker_10.bmp	speaker_6.bmp	48	1	1	1	2	PSYCHOLOGIE
FAUST_1[2014-06]	104	1	3	5	3	2	1	2	2	1	1967	1	1	1	2935	2	2308	doorknob_2.bmp	doorknob_14.bmp	windchime_16.bmp	windchime_6.bmp	windchime_3.bmp	windchime_10.bmp	doorknob_14.bmp	48	1	1	1	2	PSYCHOLOGIE
FAUST_1[2014-06]	104	1	16	5	3	1	2	2	2	1	1321	-1	1	0	0	2	3131	vase_1.bmp	rusdoll_8.bmp	vase_15.bmp	vase_6.bmp	vase_13.bmp	vase_5.bmp	rusdoll_8.bmp	48	1	1	1	2	PSYCHOLOGIE
FAUST_1[2014-06]	104	1	13	5	3	2	2	2	2	1	1271	1	1	1	3168	3	3768	rollerskates_2.bmp	cellphone_8.bmp	rollerskates_8.bmp	rollerskates_5.bmp	rollerskates_7.bmp	rollerskates_17.bmp	rollerskates_7.bmp	48	1	1	1	2	PSYCHOLOGIE
FAUST_1[2014-06]	104	1	20	5	3	1	1	2	2	1	1391	1	1	1	2806	2	4961	watch_3.bmp	watch_7.bmp	glasses_9.bmp	glasses_6.bmp	glasses_9.bmp	glasses_8.bmp	glasses_15.bmp	48	1	1	1	2	PSYCHOLOGIE
FAUST_1[2014-06]	104	1	25	5	3	2	1	2	2	1	994	1	1	1	1835	4	1784	saltpeppershake_12.bmp	plant_8.bmp	saltpeppershake_9.bmp	plant_2.bmp	plant_13.bmp	saltpeppershake_9.bmp	plant_5.bmp	48	1	1	1	2	PSYCHOLOGIE
FAUST_1[2014-06]	104	1	29	5	3	1	2	2	2	1	1833	2	2	1	2539	2	2178	hairdryer_14.bmp	abacus_15.bmp	hairdryer_12.bmp	abacus_15.bmp	hairdryer_7.bmp	hairdryer_13.bmp	hairdryer_2.bmp	48	1	1	1	2	PSYCHOLOGIE
FAUST_1[2014-06]	104	1	19	5	3	2	2	2	2	1	1907	-1	1	0	0	1	2795	shredder_1.bmp	shredder_6.bmp	shredder_7.bmp	shredder_6.bmp	shredder_15.bmp	camera_4.bmp	shredder_5.bmp	48	1	1	1	2	PSYCHOLOGIE
FAUST_1[2014-06]	104	1	14	5	3	1	1	2	2	1	1687	2	2	1	3210	3	2389	videogamecontroller_11.bmp	leatherman_14.bmp	leatherman_10.bmp	videogamecontroller_5.bmp	leatherman_2.bmp	leatherman_7.bmp	leatherman_2.bmp	48	1	1	1	2	PSYCHOLOGIE
FAUST_1[2014-06]	104	1	15	5	3	2	1	2	2	1	2246	2	2	1	2923	3	3062	ring_15.bmp	ring_7.bmp	cake_5.bmp	ring_7.bmp	cake_3.bmp	cake_1.bmp	cake_14.bmp	48	1	1	1	2	PSYCHOLOGIE
FAUST_1[2014-06]	104	1	23	5	3	1	2	2	1	0	1780	-1	1	0	0	4	4397	cheesegrater_14.bmp	cheesegrater_5.bmp	cheesegrater_8.bmp	cheesegrater_15.bmp	iceskates_5.bmp	cheesegrater_11.bmp	iceskates_5.bmp	48	1	1	1	2	PSYCHOLOGIE
FAUST_1[2014-06]	104	1	2	5	3	2	2	2	1	0	1964	2	2	1	2203	3	5959	cherubstatue_6.bmp	cherubstatue_5.bmp	cherubstatue_10.bmp	cherubstatue_12.bmp	easteregg_5.bmp	cherubstatue_10.bmp	cherubstatue_11.bmp	48	1	1	1	2	PSYCHOLOGIE
FAUST_1[2014-06]	104	1	1	5	3	1	1	3	1	0	2260	-1	2	0	0	2	3690	socks_15.bmp	hammer_6.bmp	hammer_17.bmp	hammer_15.bmp	hammer_6.bmp	powerstrip_10.bmp	hammer_8.bmp	48	1	1	1	2	PSYCHOLOGIE
FAUST_1[2014-06]	104	1	28	5	3	2	1	3	2	1	1662	2	1	0	1533	2	2481	trophy_14.bmp	pasta_9.bmp	watergun_7.bmp	watergun_3.bmp	watergun_8.bmp	pasta_9.bmp	watergun_15.bmp	48	1	1	1	2	PSYCHOLOGIE
FAUST_1[2014-06]	104	1	4	5	3	1	1	3	2	1	2210	-1	1	0	0	3	5354	garbagecan_10.bmp	turtle_6.bmp	turtle_11.bmp	sink_15.bmp	turtle_6.bmp	turtle_7.bmp	turtle_12.bmp	48	1	1	1	2	PSYCHOLOGIE
FAUST_1[2014-06]	104	1	6	5	3	2	1	3	2	1	1937	-1	1	0	0	2	4047	glove_5.bmp	babycrib_5.bmp	babycrib_7.bmp	remote_3.bmp	babycrib_9.bmp	babycrib_2.bmp	remote_3.bmp	48	1	1	1	2	PSYCHOLOGIE
FAUST_1[2014-06]	104	1	8	5	3	1	1	3	2	1	1138	-1	1	0	0	2	5954	carriage_3.bmp	printer_16.bmp	printer_14.bmp	printer_3.bmp	printer_1.bmp	sofa_12.bmp	printer_1.bmp	48	1	1	1	2	PSYCHOLOGIE
FAUST_1[2014-06]	104	1	22	5	3	2	1	3	2	1	4471	1	1	1	2327	4	2040	scooter_10.bmp	lawnmower_15.bmp	doorknocker_2.bmp	lawnmower_13.bmp	lawnmower_17.bmp	lawnmower_3.bmp	doorknocker_2.bmp	48	1	1	1	2	PSYCHOLOGIE
FAUST_1[2014-06]	104	1	7	5	3	1	1	3	2	1	1330	2	2	1	3241	3	3924	bagel_16.bmp	shoe_9.bmp	shoe_13.bmp	shoe_17.bmp	tv_4.bmp	shoe_15.bmp	shoe_17.bmp	48	1	1	1	2	PSYCHOLOGIE
FAUST_1[2014-06]	104	1	21	5	3	2	1	3	2	1	1075	2	2	1	1825	4	3524	trumpet_6.bmp	hairbrush_15.bmp	hairbrush_16.bmp	hairbrush_17.bmp	guitar_8.bmp	hairbrush_7.bmp	guitar_8.bmp	48	1	1	1	2	PSYCHOLOGIE
FAUST_1[2014-06]	104	2	16	5	2	1	1	1	1	1	2544	2	2	1	2056	1	3176	Varnish14.bmp	Sweet25.bmp	Varnish14.bmp	Sweet10.bmp	Sweet18.bmp	Sweet22.bmp	Sweet25.bmp	48	1	1	1	2	PSYCHOLOGIE
FAUST_1[2014-06]	104	2	14	5	2	2	1	1	1	1	1275	2	2	1	1654	4	1141	Stapler8.bmp	Feather2.bmp	Stapler8.bmp	Feather14.bmp	Feather18.bmp	Stapler8.bmp	Feather11.bmp	48	1	1	1	2	PSYCHOLOGIE
FAUST_1[2014-06]	104	2	21	5	2	1	2	1	1	1	1441	1	1	1	3230	1	2362	Daff9.bmp	Daff1.bmp	Key13.bmp	Daff22.bmp	Key13.bmp	Daff9.bmp	Daff21.bmp	48	1	1	1	2	PSYCHOLOGIE
FAUST_1[2014-06]	104	2	13	5	2	2	2	1	1	1	3112	2	2	1	3086	4	1949	Ginger15.bmp	Ginger5.bmp	Ginger3.bmp	Ginger15.bmp	Glass3.bmp	Ginger17.bmp	Ginger15.bmp	48	1	1	1	2	PSYCHOLOGIE
FAUST_1[2014-06]	104	2	7	5	2	1	1	1	2	0	1010	-1	2	0	0	4	1317	Jigsaw11.bmp	Plug8.bmp	Plug4.bmp	Plug18.bmp	Jigsaw11.bmp	Plug6.bmp	Plug8.bmp	48	1	1	1	2	PSYCHOLOGIE
FAUST_1[2014-06]	104	2	18	5	2	2	1	1	2	0	3993	2	2	1	2875	2	2291	Biscuit9.bmp	Bag4.bmp	Bag25.bmp	Biscuit9.bmp	Bag21.bmp	Biscuit9.bmp	Bag3.bmp	48	1	1	1	2	PSYCHOLOGIE
FAUST_1[2014-06]	104	2	22	5	2	1	2	1	2	0	1681	2	2	1	2272	2	2542	Button3.bmp	Button3.bmp	Candle10.bmp	Button10.bmp	Button20.bmp	Button18.bmp	Candle10.bmp	48	1	1	1	2	PSYCHOLOGIE
FAUST_1[2014-06]	104	2	1	5	2	2	2	1	1	1	1191	2	2	1	1991	4	3145	Bracelet5.bmp	Bracelet5.bmp	Bracelet8.bmp	Bracelet1.bmp	Bracelet18.bmp	Bracelet5.bmp	Brocolli14.bmp	48	1	1	1	2	PSYCHOLOGIE
FAUST_1[2014-06]	104	2	15	5	2	1	1	2	2	1	1116	2	2	1	2217	4	1958	Lipstick7.bmp	Cake25.bmp	Cake24.bmp	Cake18.bmp	Cake16.bmp	Cake18.bmp	Lipstick9.bmp	48	1	1	1	2	PSYCHOLOGIE
FAUST_1[2014-06]	104	2	4	5	2	2	1	2	2	1	1916	1	1	1	1787	4	3563	Hanger15.bmp	Coins8.bmp	Coins3.bmp	Hanger7.bmp	Coins14.bmp	Coins12.bmp	Hanger7.bmp	48	1	1	1	2	PSYCHOLOGIE
FAUST_1[2014-06]	104	2	3	5	2	1	2	2	2	1	1528	2	1	0	2536	3	2067	Car14.bmp	Car7.bmp	Chocolate9.bmp	Car21.bmp	Car13.bmp	Chocolate9.bmp	Car12.bmp	48	1	1	1	2	PSYCHOLOGIE
FAUST_1[2014-06]	104	2	2	5	2	2	2	2	1	0	2826	2	2	1	1431	4	1500	Chilli12.bmp	Tomato5.bmp	Chilli22.bmp	Chilli11.bmp	Chilli19.bmp	Chilli14.bmp	Chilli22.bmp	48	1	1	1	2	PSYCHOLOGIE
FAUST_1[2014-06]	104	2	17	5	2	1	1	2	2	1	3259	1	1	1	1527	4	1962	Swirl23.bmp	Leaf10.bmp	Leaf21.bmp	Leaf15.bmp	Leaf13.bmp	Swirl5.bmp	Leaf10.bmp	48	1	1	1	2	PSYCHOLOGIE
FAUST_1[2014-06]	104	2	9	5	2	2	1	2	2	1	1175	-1	2	0	0	4	1440	Pear16.bmp	Pear4.bmp	Mushroom6.bmp	Pear4.bmp	Mushroom25.bmp	Mushroom18.bmp	Mushroom14.bmp	48	1	1	1	2	PSYCHOLOGIE
FAUST_1[2014-06]	104	2	12	5	2	1	2	2	1	0	2216	1	1	1	1940	3	2478	Fudge5.bmp	Star2.bmp	Fudge17.bmp	Star2.bmp	Fudge15.bmp	Fudge20.bmp	Fudge8.bmp	48	1	1	1	2	PSYCHOLOGIE
FAUST_1[2014-06]	104	2	10	5	2	2	2	2	1	0	1475	2	2	1	2634	2	2361	Umbrella17.bmp	Scissors3.bmp	Umbrella21.bmp	Umbrella19.bmp	Umbrella7.bmp	Umbrella19.bmp	Umbrella6.bmp	48	1	1	1	2	PSYCHOLOGIE
FAUST_1[2014-06]	104	2	6	5	2	1	1	3	2	1	1068	1	1	1	3073	4	1535	Hand10.bmp	Present17.bmp	Present3.bmp	Present2.bmp	Present14.bmp	Toothbrush1.bmp	Present14.bmp	48	1	1	1	2	PSYCHOLOGIE
FAUST_1[2014-06]	104	2	5	5	2	2	1	3	2	1	1014	2	2	1	2964	4	1847	Strawberry4.bmp	Bun17.bmp	Nut21.bmp	Nut18.bmp	Nut2.bmp	Bun17.bmp	Nut11.bmp	48	1	1	1	2	PSYCHOLOGIE
FAUST_1[2014-06]	104	2	11	5	2	1	1	3	2	1	1128	2	2	1	1852	4	1522	Fork14.bmp	Paperclip13.bmp	Paperclip9.bmp	Paperclip13.bmp	Paperclip4.bmp	Paperclip14.bmp	Shell5.bmp	48	1	1	1	2	PSYCHOLOGIE
FAUST_1[2014-06]	104	2	8	5	2	2	1	3	2	1	808	1	1	1	1138	4	1364	String8.bmp	Pen1.bmp	Pen17.bmp	Pen20.bmp	Apple24.bmp	Pen10.bmp	Apple24.bmp	48	1	1	1	2	PSYCHOLOGIE
FAUST_1[2014-06]	104	2	20	5	2	1	1	3	2	1	1836	1	1	1	3167	3	2211	Holly17.bmp	Onion7.bmp	Screw9.bmp	Onion7.bmp	Onion13.bmp	Onion18.bmp	Onion19.bmp	48	1	1	1	2	PSYCHOLOGIE
FAUST_1[2014-06]	104	2	19	5	2	2	1	3	2	1	2546	2	1	0	3491	4	2740	Flower14.bmp	Man4.bmp	Keys6.bmp	Man4.bmp	Keys8.bmp	Keys9.bmp	Keys7.bmp	48	1	1	1	2	PSYCHOLOGIE
FAUST_1[2014-06]	104	3	23	5	1	1	1	1	2	0	1171	2	2	1	2950	4	1414	VENUS	rose	lilie	tulpe	lilie	veilchen	venus	48	1	1	1	2	PSYCHOLOGIE
FAUST_1[2014-06]	104	3	19	5	1	2	1	1	2	0	1080	2	2	1	2130	3	1297	SCHMECKEN	schwimmen	tennis	golf	schmecken	skifahren	schmecken	48	1	1	1	2	PSYCHOLOGIE
FAUST_1[2014-06]	104	3	27	5	1	1	2	1	1	1	1499	1	1	1	1358	3	3555	MONOPOLY	vivaldi	scrabble	backgammon	vivaldi	monopoly	schach	48	1	1	1	2	PSYCHOLOGIE
FAUST_1[2014-06]	104	3	20	5	1	2	2	1	2	0	3090	2	2	1	2529	2	1254	GIN	gin	tequila	tag	whiskey	gin	wodka	48	1	1	1	2	PSYCHOLOGIE
FAUST_1[2014-06]	104	3	6	5	1	1	1	1	2	0	1034	1	1	1	2093	4	1568	PRÄPOSITION	afrika	südamerika	präposition	nordamerika	australien	südamerika	48	1	1	1	2	PSYCHOLOGIE
FAUST_1[2014-06]	104	3	15	5	1	2	1	1	2	0	1388	2	2	1	3185	4	1667	DRUCKER	drucker	rosmarin	oregano	thymian	drucker	koriander	48	1	1	1	2	PSYCHOLOGIE
FAUST_1[2014-06]	104	3	11	5	1	1	2	1	2	0	1247	1	1	1	2113	4	1415	KLEBEBAND	sohn	locher	brieföffner	büroklammer	klebeband	sohn	48	1	1	1	2	PSYCHOLOGIE
FAUST_1[2014-06]	104	3	32	5	1	2	2	1	2	0	925	2	2	1	3357	3	1238	STICKSTOFF	kirche	kohlenstoff	stickstoff	wasserstoff	sauerstoff	stickstoff	48	1	1	1	2	PSYCHOLOGIE
FAUST_1[2014-06]	104	3	5	5	1	1	1	1	2	0	1264	-1	2	0	0	3	2345	GUMMIBÄRCHEN	yacht	boot	fähre	boot	schiff	gummibärchen	48	1	1	1	2	PSYCHOLOGIE
FAUST_1[2014-06]	104	3	16	5	1	2	1	1	1	1	1900	2	2	1	2505	3	2171	EICHE	eiche	komödie	eiche	western	thriller	actionfilm	48	1	1	1	2	PSYCHOLOGIE
FAUST_1[2014-06]	104	3	1	5	1	1	2	1	2	0	1241	2	2	1	2415	2	2528	MAGEN	magen	porsche	lunge	niere	herz	porsche	48	1	1	1	2	PSYCHOLOGIE
FAUST_1[2014-06]	104	3	21	5	1	2	2	1	2	0	1238	1	1	1	2456	4	1276	SCHÄFERHUND	schäferhund	dogge	wespe	mops	schäferhund	dackel	48	1	1	1	2	PSYCHOLOGIE
FAUST_1[2014-06]	104	3	22	5	1	1	1	2	2	1	772	2	2	1	1705	4	2216	TAXI	gewehr	pistole	gewehr	bombe	dolch	zug	48	1	1	1	2	PSYCHOLOGIE
FAUST_1[2014-06]	104	3	29	5	1	2	1	2	2	1	1108	-1	1	0	0	2	1630	HAND	kopf	hannover	hamburg	stuttgart	münchen	kopf	48	1	1	1	2	PSYCHOLOGIE
FAUST_1[2014-06]	104	3	3	5	1	1	2	2	2	1	1736	2	2	1	2468	4	1745	ÄRGER	freude	physik	scham	trauer	angst	physik	48	1	1	1	2	PSYCHOLOGIE
FAUST_1[2014-06]	104	3	24	5	1	2	2	2	1	0	3733	1	1	1	2136	2	2412	BLEISTIFT	filzstift	kugelschreiber	puma	buntstift	füller	filzstift	48	1	1	1	2	PSYCHOLOGIE
FAUST_1[2014-06]	104	3	14	5	1	1	1	2	2	1	1003	2	2	1	1570	4	1677	HEXE	mark	werwolf	dollar	cent	euro	cent	48	1	1	1	2	PSYCHOLOGIE
FAUST_1[2014-06]	104	3	12	5	1	2	1	2	2	1	4945	1	2	0	3027	2	2591	MILLIMETER	österreich	kilometer	england	italien	schweiz	kilometer	48	1	1	1	2	PSYCHOLOGIE
FAUST_1[2014-06]	104	3	13	5	1	1	2	2	2	1	1048	-1	2	0	0	2	2083	HAMMER	zange	meißel	säge	karotten	bohrer	karotten	48	1	1	1	2	PSYCHOLOGIE
FAUST_1[2014-06]	104	3	25	5	1	2	2	2	2	1	1118	1	1	1	3416	3	1250	TAUBE	meise	dreieck	schwalbe	amsel	fink	amsel	48	1	1	1	2	PSYCHOLOGIE
FAUST_1[2014-06]	104	3	28	5	1	1	1	2	2	1	1037	2	2	1	2794	4	1190	WESER	graf	fürst	graf	herzog	main	könig	48	1	1	1	2	PSYCHOLOGIE
FAUST_1[2014-06]	104	3	7	5	1	2	1	2	2	1	3923	1	1	1	1961	4	1693	WOLLE	baumwolle	ozean	baumwolle	meer	fluss	see	48	1	1	1	2	PSYCHOLOGIE
FAUST_1[2014-06]	104	3	26	5	1	1	2	2	2	1	870	2	2	1	2411	4	1816	WIMPERNTUSCHE	tango	kajal	tango	lidschatten	rouge	lippenstift	48	1	1	1	2	PSYCHOLOGIE
FAUST_1[2014-06]	104	3	4	5	1	2	2	2	2	1	907	1	1	1	1845	4	2451	LACHS	forelle	makrele	hering	forelle	schreiben	thunfisch	48	1	1	1	2	PSYCHOLOGIE
FAUST_1[2014-06]	104	3	18	5	1	1	1	3	2	1	936	2	2	1	2714	3	2269	REGEN	rückspiegel	kupplung	gaspedal	rückspiegel	pfannenwender	lenkrad	48	1	1	1	2	PSYCHOLOGIE
FAUST_1[2014-06]	104	3	31	5	1	2	1	3	2	1	989	1	1	1	1925	3	1307	MASERN	sicherheitsnadel	stecknadel	internet	stricknadel	internet	nähnadel	48	1	1	1	2	PSYCHOLOGIE
FAUST_1[2014-06]	104	3	9	5	1	1	1	3	2	1	1635	1	1	1	1746	2	1626	SOFA	löffel	gesamtschule	gymnasium	gesamtschule	berufsschule	realschule	48	1	1	1	2	PSYCHOLOGIE
FAUST_1[2014-06]	104	3	2	5	1	2	1	3	2	1	1794	2	2	1	3010	3	2121	HAMBURGER	oper	klarinette	konzertsaal	kino	zirkus	klarinette	48	1	1	1	2	PSYCHOLOGIE
FAUST_1[2014-06]	104	3	17	5	1	1	1	3	2	1	838	1	1	1	2568	4	1892	LEHRER	lila	grün	rot	grün	pflaume	blau	48	1	1	1	2	PSYCHOLOGIE
FAUST_1[2014-06]	104	3	30	5	1	2	1	3	2	1	1301	1	1	1	1309	2	1633	HEMD	roggen	brandenburg	roggen	thüringen	hessen	saarland	48	1	1	1	2	PSYCHOLOGIE
FAUST_1[2014-06]	104	3	8	5	1	1	1	3	2	1	964	1	1	1	1213	4	2076	MESSING	flasche	glas	kanne	glas	kerosin	becher	48	1	1	1	2	PSYCHOLOGIE
FAUST_1[2014-06]	104	3	10	5	1	2	1	3	2	1	3723	1	1	1	2569	4	2114	WASSERMANN	schuppen	heroin	schuppen	kokain	haschisch	cannabis	48	1	1	1	2	PSYCHOLOGIE
FAUST_1[2014-06]	104	2	3	5	3	1	1	1	1	1	1415	1	1	1	2640	3	3672	pasta_15.bmp	orifan_17.bmp	orifan_6.bmp	pasta_15.bmp	orifan_1.bmp	orifan_14.bmp	orifan_6.bmp	48	1	1	1	2	PSYCHOLOGIE
FAUST_1[2014-06]	104	2	17	5	3	2	1	1	1	1	1153	1	1	1	2130	4	2715	iceskates_5.bmp	iceskates_5.bmp	guitar_14.bmp	guitar_8.bmp	guitar_7.bmp	iceskates_5.bmp	guitar_5.bmp	48	1	1	1	2	PSYCHOLOGIE
FAUST_1[2014-06]	104	2	11	5	3	1	2	1	1	1	2746	2	2	1	2598	2	1418	bowlingpin_11.bmp	horseshoe_12.bmp	bowlingpin_13.bmp	horseshoe_12.bmp	bowlingpin_4.bmp	bowlingpin_11.bmp	bowlingpin_1.bmp	48	1	1	1	2	PSYCHOLOGIE
FAUST_1[2014-06]	104	2	21	5	3	2	2	1	1	1	1549	1	1	1	1903	4	1719	hammer_11.bmp	sofa_12.bmp	hammer_11.bmp	hammer_8.bmp	hammer_11.bmp	hammer_17.bmp	hammer_6.bmp	48	1	1	1	2	PSYCHOLOGIE
FAUST_1[2014-06]	104	2	14	5	3	1	1	1	2	0	1055	-1	2	0	0	3	2094	watch_8.bmp	videogamecontroller_11.bmp	videogamecontroller_2.bmp	watch_8.bmp	videogamecontroller_13.bmp	videogamecontroller_11.bmp	videogamecontroller_5.bmp	48	1	1	1	2	PSYCHOLOGIE
FAUST_1[2014-06]	104	2	12	5	3	2	1	1	1	1	1480	2	1	0	2357	2	1340	camera_4.bmp	doorknob_17.bmp	doorknob_14.bmp	camera_4.bmp	doorknob_2.bmp	doorknob_10.bmp	camera_4.bmp	48	1	1	1	2	PSYCHOLOGIE
FAUST_1[2014-06]	104	2	5	5	3	1	2	1	1	1	1821	2	2	1	3008	4	2082	shoe_13.bmp	watergun_7.bmp	shoe_13.bmp	shoe_17.bmp	watergun_7.bmp	shoe_7.bmp	shoe_15.bmp	48	1	1	1	2	PSYCHOLOGIE
FAUST_1[2014-06]	104	2	26	5	3	2	2	1	1	1	1391	1	1	1	2376	3	1854	lawnmower_17.bmp	lawnmower_15.bmp	lawnmower_17.bmp	easteregg_9.bmp	lawnmower_13.bmp	lawnmower_17.bmp	lawnmower_8.bmp	48	1	1	1	2	PSYCHOLOGIE
FAUST_1[2014-06]	104	2	15	5	3	1	1	1	1	1	1437	1	1	1	1267	4	2171	cake_14.bmp	cake_14.bmp	highchair_10.bmp	highchair_6.bmp	highchair_3.bmp	highchair_10.bmp	highchair_15.bmp	48	1	1	1	2	PSYCHOLOGIE
FAUST_1[2014-06]	104	2	23	5	3	2	1	1	2	0	1587	2	2	1	2942	1	3461	trumpet_17.bmp	trumpet_17.bmp	glove_15.bmp	trumpet_17.bmp	glove_8.bmp	glove_5.bmp	glove_12.bmp	48	1	1	1	2	PSYCHOLOGIE
FAUST_1[2014-06]	104	2	28	5	3	1	2	1	1	1	1932	1	1	1	1835	2	4190	glasses_9.bmp	sink_1.bmp	glasses_9.bmp	glasses_15.bmp	glasses_8.bmp	glasses_6.bmp	sink_1.bmp	48	1	1	1	2	PSYCHOLOGIE
FAUST_1[2014-06]	104	2	1	5	3	2	2	1	2	0	1578	1	1	1	2699	1	2700	scooter_8.bmp	scooter_8.bmp	tv_4.bmp	scooter_5.bmp	scooter_11.bmp	scooter_8.bmp	scooter_4.bmp	48	1	1	1	2	PSYCHOLOGIE
FAUST_1[2014-06]	104	2	22	5	3	1	1	2	1	0	1169	2	2	1	2251	4	1647	chair_5.bmp	rusdoll_8.bmp	rusdoll_3.bmp	chair_16.bmp	rusdoll_6.bmp	rusdoll_1.bmp	rusdoll_3.bmp	48	1	1	1	2	PSYCHOLOGIE
FAUST_1[2014-06]	104	2	29	5	3	2	1	2	2	1	4665	1	1	1	1483	2	1725	fan_11.bmp	garbagecan_10.bmp	garbagecan_2.bmp	garbagecan_13.bmp	fan_1.bmp	garbagecan_17.bmp	fan_1.bmp	48	1	1	1	2	PSYCHOLOGIE
FAUST_1[2014-06]	104	2	25	5	3	1	2	2	1	0	4781	1	1	1	1521	2	1657	plant_14.bmp	jacket_6.bmp	plant_13.bmp	plant_8.bmp	plant_2.bmp	jacket_6.bmp	plant_5.bmp	48	1	1	1	2	PSYCHOLOGIE
FAUST_1[2014-06]	104	2	7	5	3	2	2	2	1	0	3079	2	2	1	2758	2	3967	hairbrush_17.bmp	hairbrush_7.bmp	hairbrush_12.bmp	hairbrush_15.bmp	backpack_6.bmp	hairbrush_16.bmp	hairbrush_7.bmp	48	1	1	1	2	PSYCHOLOGIE
FAUST_1[2014-06]	104	2	18	5	3	1	1	2	2	1	1035	2	2	1	2880	4	1885	turtle_12.bmp	router_5.bmp	router_16.bmp	router_5.bmp	router_12.bmp	turtle_7.bmp	router_7.bmp	48	1	1	1	2	PSYCHOLOGIE
FAUST_1[2014-06]	104	2	4	5	3	2	1	2	1	0	1140	1	1	1	1068	2	2045	leatherman_5.bmp	windchime_16.bmp	leatherman_7.bmp	windchime_10.bmp	leatherman_7.bmp	windchime_6.bmp	windchime_15.bmp	48	1	1	1	2	PSYCHOLOGIE
FAUST_1[2014-06]	104	2	9	5	3	1	2	2	1	0	1388	1	1	1	2135	4	2929	shredder_1.bmp	coffee_7.bmp	shredder_6.bmp	shredder_15.bmp	shredder_5.bmp	shredder_7.bmp	coffee_7.bmp	48	1	1	1	2	PSYCHOLOGIE
FAUST_1[2014-06]	104	2	13	5	3	2	2	2	1	0	1198	2	2	1	2161	3	1520	parfait_4.bmp	parfait_11.bmp	parfait_1.bmp	parfait_13.bmp	parfait_11.bmp	parfait_15.bmp	saddle_8.bmp	48	1	1	1	2	PSYCHOLOGIE
FAUST_1[2014-06]	104	2	8	5	3	1	1	2	2	1	1290	-1	2	0	0	4	2454	flashlight_2.bmp	socks_10.bmp	socks_12.bmp	socks_15.bmp	flashlight_12.bmp	socks_10.bmp	socks_13.bmp	48	1	1	1	2	PSYCHOLOGIE
FAUST_1[2014-06]	104	2	30	5	3	2	1	2	2	1	2878	1	1	1	1826	2	2097	cheesegrater_8.bmp	cheesegrater_11.bmp	tricycle_2.bmp	tricycle_15.bmp	tricycle_10.bmp	tricycle_8.bmp	cheesegrater_11.bmp	48	1	1	1	2	PSYCHOLOGIE
FAUST_1[2014-06]	104	2	16	5	3	1	2	2	2	1	1416	-1	2	0	0	4	1555	hairdryer_13.bmp	hairdryer_14.bmp	hairdryer_12.bmp	goggle_9.bmp	hairdryer_2.bmp	hairdryer_7.bmp	goggle_9.bmp	48	1	1	1	2	PSYCHOLOGIE
FAUST_1[2014-06]	104	2	27	5	3	2	2	2	2	1	2424	-1	2	0	0	1	2553	skateboard_3.bmp	skateboard_11.bmp	skateboard_16.bmp	skateboard_15.bmp	skateboard_16.bmp	skateboard_14.bmp	rollerskates_7.bmp	48	1	1	1	2	PSYCHOLOGIE
FAUST_1[2014-06]	104	2	10	5	3	1	1	3	2	1	3024	1	1	1	928	3	1390	remote_11.bmp	mic_3.bmp	carriage_12.bmp	mic_10.bmp	mic_5.bmp	mic_10.bmp	mic_2.bmp	48	1	1	1	2	PSYCHOLOGIE
FAUST_1[2014-06]	104	2	32	5	3	2	1	3	2	1	977	1	2	0	2160	4	3207	carabiner_5.bmp	babycrib_5.bmp	laptop_15.bmp	babycrib_2.bmp	babycrib_6.bmp	babycrib_9.bmp	laptop_15.bmp	48	1	1	1	2	PSYCHOLOGIE
FAUST_1[2014-06]	104	2	20	5	3	1	1	3	2	1	832	-1	2	0	0	2	1270	vase_1.bmp	abacus_4.bmp	beanbagchair_17.bmp	beanbagchair_3.bmp	beanbagchair_14.bmp	beanbagchair_15.bmp	beanbagchair_17.bmp	48	1	1	1	2	PSYCHOLOGIE
FAUST_1[2014-06]	104	2	6	5	3	2	1	3	2	1	1048	1	1	1	2455	3	1676	trunk_7.bmp	cellphone_11.bmp	printer_14.bmp	printer_1.bmp	cellphone_11.bmp	printer_3.bmp	printer_16.bmp	48	1	1	1	2	PSYCHOLOGIE
FAUST_1[2014-06]	104	2	31	5	3	1	1	3	2	1	2791	-1	2	0	0	4	1226	bagel_4.bmp	trophy_4.bmp	trophy_15.bmp	saltpeppershake_2.bmp	trophy_14.bmp	trophy_16.bmp	trophy_4.bmp	48	1	1	1	2	PSYCHOLOGIE
FAUST_1[2014-06]	104	2	19	5	3	2	1	3	2	1	2325	2	1	0	2504	4	1408	doorknocker_5.bmp	wig_7.bmp	speaker_6.bmp	wig_6.bmp	wig_1.bmp	speaker_6.bmp	wig_9.bmp	48	1	1	1	2	PSYCHOLOGIE
FAUST_1[2014-06]	104	2	24	5	3	1	1	3	2	1	966	1	1	1	1998	4	2365	cat_9.bmp	powerstrip_7.bmp	powerstrip_10.bmp	powerstrip_13.bmp	powerstrip_7.bmp	powerstrip_14.bmp	cherubstatue_5.bmp	48	1	1	1	2	PSYCHOLOGIE
FAUST_1[2014-06]	104	2	2	5	3	2	1	3	2	1	861	1	1	1	1963	4	1844	birdhouse_11.bmp	circuitboard_8.bmp	ring_15.bmp	ring_11.bmp	circuitboard_8.bmp	ring_12.bmp	ring_8.bmp	48	1	1	1	2	PSYCHOLOGIE
FAUST_1[2014-06]	104	3	13	5	2	1	1	1	1	1	919	2	2	1	2718	4	1573	Pen1.bmp	Pen1.bmp	Apple24.bmp	Apple10.bmp	Apple21.bmp	Apple18.bmp	Apple21.bmp	48	1	1	1	2	PSYCHOLOGIE
FAUST_1[2014-06]	104	3	12	5	2	2	1	1	1	1	986	2	2	1	2523	4	1529	Candle13.bmp	Candle13.bmp	Sweet22.bmp	Candle13.bmp	Sweet1.bmp	Sweet25.bmp	Sweet10.bmp	48	1	1	1	2	PSYCHOLOGIE
FAUST_1[2014-06]	104	3	10	5	2	1	2	1	1	1	1153	1	1	1	780	4	2050	Bag21.bmp	Bag21.bmp	Bag25.bmp	Bag3.bmp	Tomato12.bmp	Bag5.bmp	Tomato12.bmp	48	1	1	1	2	PSYCHOLOGIE
FAUST_1[2014-06]	104	3	1	5	2	2	2	1	2	0	1481	1	1	1	1482	2	2121	Brocolli14.bmp	Brocolli14.bmp	Brocolli10.bmp	Bun5.bmp	Brocolli9.bmp	Brocolli14.bmp	Brocolli4.bmp	48	1	1	1	2	PSYCHOLOGIE
FAUST_1[2014-06]	104	3	3	5	2	1	1	1	1	1	1304	1	1	1	1503	4	1544	Varnish11.bmp	Flower13.bmp	Varnish11.bmp	Flower18.bmp	Flower3.bmp	Flower17.bmp	Flower3.bmp	48	1	1	1	2	PSYCHOLOGIE
FAUST_1[2014-06]	104	3	16	5	2	2	1	1	1	1	2056	2	2	1	1635	4	2316	Present17.bmp	Present17.bmp	Ginger5.bmp	Present17.bmp	Ginger10.bmp	Ginger3.bmp	Ginger17.bmp	48	1	1	1	2	PSYCHOLOGIE
FAUST_1[2014-06]	104	3	22	5	2	1	2	1	1	1	2383	1	1	1	1677	4	1505	Man2.bmp	Man10.bmp	Chocolate24.bmp	Man2.bmp	Man24.bmp	Man4.bmp	Chocolate24.bmp	48	1	1	1	2	PSYCHOLOGIE
FAUST_1[2014-06]	104	3	7	5	2	2	2	1	1	1	1652	2	2	1	2263	4	1235	Chilli19.bmp	Chilli12.bmp	Chilli19.bmp	Fork9.bmp	Chilli11.bmp	Chilli19.bmp	Chilli14.bmp	48	1	1	1	2	PSYCHOLOGIE
FAUST_1[2014-06]	104	3	15	5	2	1	1	2	2	1	1102	-1	2	0	0	2	1303	Scissors3.bmp	Shell17.bmp	Shell5.bmp	Shell1.bmp	Shell9.bmp	Scissors11.bmp	Shell9.bmp	48	1	1	1	2	PSYCHOLOGIE
FAUST_1[2014-06]	104	3	19	5	2	2	1	2	1	0	1134	1	1	1	1109	2	1699	Button18.bmp	Daff3.bmp	Button20.bmp	Daff9.bmp	Daff22.bmp	Daff21.bmp	Button20.bmp	48	1	1	1	2	PSYCHOLOGIE
FAUST_1[2014-06]	104	3	11	5	2	1	2	2	1	0	1378	2	1	0	3248	3	1202	Jigsaw14.bmp	Hanger14.bmp	Jigsaw18.bmp	Jigsaw10.bmp	Hanger14.bmp	Jigsaw11.bmp	Jigsaw17.bmp	48	1	1	1	2	PSYCHOLOGIE
FAUST_1[2014-06]	104	3	21	5	2	2	2	2	1	0	1147	1	1	1	825	4	1336	Toothbrush1.bmp	Toothbrush6.bmp	Toothbrush10.bmp	Toothbrush12.bmp	Toothbrush9.bmp	Coins8.bmp	Toothbrush12.bmp	48	1	1	1	2	PSYCHOLOGIE
FAUST_1[2014-06]	104	3	2	5	2	1	1	2	1	0	1290	1	1	1	865	3	2097	Leaf22.bmp	Key20.bmp	Key5.bmp	Leaf15.bmp	Key9.bmp	Key13.bmp	Key9.bmp	48	1	1	1	2	PSYCHOLOGIE
FAUST_1[2014-06]	104	3	5	5	2	2	1	2	1	0	1493	1	1	1	2616	2	1446	Paperclip14.bmp	Strawberry4.bmp	Paperclip6.bmp	Strawberry3.bmp	Strawberry14.bmp	Paperclip6.bmp	Strawberry21.bmp	48	1	1	1	2	PSYCHOLOGIE
FAUST_1[2014-06]	104	3	6	5	2	1	2	2	1	0	1330	2	2	1	2268	4	1399	Fudge15.bmp	Screw9.bmp	Fudge5.bmp	Screw9.bmp	Fudge8.bmp	Fudge17.bmp	Fudge20.bmp	48	1	1	1	2	PSYCHOLOGIE
FAUST_1[2014-06]	104	3	18	5	2	2	2	2	1	0	1316	1	1	1	2609	3	1691	Cake7.bmp	Cake24.bmp	Hand8.bmp	Cake25.bmp	Cake16.bmp	Cake18.bmp	Cake24.bmp	48	1	1	1	2	PSYCHOLOGIE
FAUST_1[2014-06]	104	3	17	5	2	1	1	3	2	1	1152	2	1	0	2434	3	1840	Pear16.bmp	Car13.bmp	Car21.bmp	Car7.bmp	String2.bmp	Car21.bmp	Car12.bmp	48	1	1	1	2	PSYCHOLOGIE
FAUST_1[2014-06]	104	3	20	5	2	2	1	3	2	1	856	1	1	1	1154	4	1437	Stapler6.bmp	Glass3.bmp	Mushroom25.bmp	Mushroom6.bmp	Glass3.bmp	Mushroom14.bmp	Mushroom18.bmp	48	1	1	1	2	PSYCHOLOGIE
FAUST_1[2014-06]	104	3	9	5	2	1	1	3	2	1	1870	1	1	1	1336	2	1328	Lipstick3.bmp	Keys9.bmp	Keys5.bmp	Keys6.bmp	Nut18.bmp	Keys8.bmp	Keys9.bmp	48	1	1	1	2	PSYCHOLOGIE
FAUST_1[2014-06]	104	3	14	5	2	2	1	3	2	1	3637	1	2	0	2265	2	2232	Biscuit9.bmp	Plug6.bmp	Star1.bmp	Star17.bmp	Star2.bmp	Plug6.bmp	Star7.bmp	48	1	1	1	2	PSYCHOLOGIE
FAUST_1[2014-06]	104	3	8	5	2	1	1	3	2	1	2055	1	1	1	1093	2	1283	Holly11.bmp	Onion19.bmp	Onion18.bmp	Onion13.bmp	Onion7.bmp	Swirl23.bmp	Onion19.bmp	48	1	1	1	2	PSYCHOLOGIE
FAUST_1[2014-06]	104	3	4	5	2	2	1	3	2	1	2282	1	2	0	2570	3	1528	Feather18.bmp	Bracelet5.bmp	Umbrella6.bmp	Bracelet2.bmp	Bracelet8.bmp	Bracelet1.bmp	Umbrella6.bmp	48	1	1	1	2	PSYCHOLOGIE
FAUST_1[2014-06]	104	4	32	5	1	1	1	1	2	0	1602	1	1	1	1883	2	1307	STRAßENBAHN	flanell	baumwolle	wolle	flanell	straßenbahn	leinen	48	1	1	1	2	PSYCHOLOGIE
FAUST_1[2014-06]	104	4	4	5	1	2	1	1	2	0	2918	1	2	0	1288	3	2835	CENT	regen	cent	hagel	cent	nebel	sonnenschein	48	1	1	1	2	PSYCHOLOGIE
FAUST_1[2014-06]	104	4	31	5	1	1	2	1	1	1	1119	1	1	1	2250	2	1429	THUNFISCH	sehen	forelle	hering	thunfisch	sehen	lachs	48	1	1	1	2	PSYCHOLOGIE
FAUST_1[2014-06]	104	4	21	5	1	2	2	1	1	1	1011	2	2	1	2003	3	2583	KLEBEBAND	brieföffner	klebeband	lineal	adjektiv	klebeband	büroklammer	48	1	1	1	2	PSYCHOLOGIE
FAUST_1[2014-06]	104	4	7	5	1	1	1	1	2	0	949	1	1	1	1104	3	2083	LAPTOP	vampir	dämon	zombie	werwolf	laptop	zombie	48	1	1	1	2	PSYCHOLOGIE
FAUST_1[2014-06]	104	4	14	5	1	2	1	1	1	1	1362	1	1	1	1578	2	2326	MOZART	mozart	oregano	rosmarin	majoran	koriander	mozart	48	1	1	1	2	PSYCHOLOGIE
FAUST_1[2014-06]	104	4	2	5	1	1	2	1	1	1	1266	2	2	1	2162	3	2727	BOHRER	gewehr	zange	gewehr	hammer	meißel	bohrer	48	1	1	1	2	PSYCHOLOGIE
FAUST_1[2014-06]	104	4	29	5	1	2	2	1	2	0	2925	1	2	0	2557	2	1517	TERRIER	terrier	tochter	schäferhund	dackel	terrier	dogge	48	1	1	1	2	PSYCHOLOGIE
FAUST_1[2014-06]	104	4	17	5	1	1	1	1	2	0	1913	1	2	0	1442	1	1217	GOLD	gold	fernsehen	zeitung	internet	radio	internet	48	1	1	1	2	PSYCHOLOGIE
FAUST_1[2014-06]	104	4	18	5	1	2	1	1	1	1	1647	1	1	1	2096	3	1261	KILOMETER	birke	buche	eiche	kilometer	tanne	kilometer	48	1	1	1	2	PSYCHOLOGIE
FAUST_1[2014-06]	104	4	11	5	1	1	2	1	1	1	1323	1	1	1	2896	3	3813	BLUMENKOHL	blumenkohl	tomaten	bohnen	rückspiegel	karotten	rückspiegel	48	1	1	1	2	PSYCHOLOGIE
FAUST_1[2014-06]	104	4	20	5	1	2	2	1	1	1	1206	1	1	1	2284	4	1191	BIENE	wespe	hand	biene	ameise	biene	mücke	48	1	1	1	2	PSYCHOLOGIE
FAUST_1[2014-06]	104	4	1	5	1	1	1	2	2	1	1511	1	1	1	2521	2	3082	RUM	apfel	birne	whiskey	pflaume	erdbeere	apfel	48	1	1	1	2	PSYCHOLOGIE
FAUST_1[2014-06]	104	4	23	5	1	2	1	2	2	1	1879	2	2	1	1931	2	1292	NUDELHOLZ	backform	masern	backform	röteln	windpocken	grippe	48	1	1	1	2	PSYCHOLOGIE
FAUST_1[2014-06]	104	4	25	5	1	1	2	2	2	1	1121	2	2	1	1885	2	1446	QUADRAT	freude	viereck	freude	dreieck	rechteck	kreis	48	1	1	1	2	PSYCHOLOGIE
FAUST_1[2014-06]	104	4	12	5	1	2	2	2	2	1	1394	-1	2	0	0	2	1629	SACHSEN	saarland	hessen	brandenburg	steinbock	hessen	thüringen	48	1	1	1	2	PSYCHOLOGIE
FAUST_1[2014-06]	104	4	10	5	1	1	1	2	2	1	2300	1	1	1	1351	3	935	HASCHISCH	stecknadel	häkelnadel	cannabis	sicherheitsnadel	nähnadel	stecknadel	48	1	1	1	2	PSYCHOLOGIE
FAUST_1[2014-06]	104	4	22	5	1	2	1	2	2	1	1855	2	2	1	3344	4	2545	ASIEN	südamerika	mathematik	erdkunde	südamerika	physik	chemie	48	1	1	1	2	PSYCHOLOGIE
FAUST_1[2014-06]	104	4	8	5	1	1	2	2	1	0	1286	1	1	1	1244	4	1787	HANNOVER	rouge	stuttgart	hamburg	berlin	rouge	münchen	48	1	1	1	2	PSYCHOLOGIE
FAUST_1[2014-06]	104	4	5	5	1	2	2	2	1	0	2148	1	1	1	1587	3	2092	THRILLER	actionfilm	horrorfilm	western	tag	horrorfilm	komödie	48	1	1	1	2	PSYCHOLOGIE
FAUST_1[2014-06]	104	4	24	5	1	1	1	2	2	1	1097	2	1	0	2054	4	1603	FÄHRE	rot	lila	grün	blau	yacht	lila	48	1	1	1	2	PSYCHOLOGIE
FAUST_1[2014-06]	104	4	28	5	1	2	1	2	1	0	1616	1	1	1	1342	2	1921	DONAU	rhein	lilie	rose	tulpe	nelke	rhein	48	1	1	1	2	PSYCHOLOGIE
FAUST_1[2014-06]	104	4	3	5	1	1	2	2	2	1	868	2	2	1	2920	4	1679	ZEICHNEN	fluss	schreiben	lesen	basteln	malen	fluss	48	1	1	1	2	PSYCHOLOGIE
FAUST_1[2014-06]	104	4	6	5	1	2	2	2	2	1	1797	1	1	1	1278	2	1064	NIERE	leber	lunge	berufsschule	lunge	herz	magen	48	1	1	1	2	PSYCHOLOGIE
FAUST_1[2014-06]	104	4	16	5	1	1	1	3	1	0	1314	1	2	0	1347	4	1290	RICHTER	theater	konzertsaal	kino	zirkus	theater	füller	48	1	1	1	2	PSYCHOLOGIE
FAUST_1[2014-06]	104	4	26	5	1	2	1	3	2	1	1428	2	2	1	2766	1	1253	MARZIPAN	baracke	schuppen	jacke	blockhaus	jacke	scheune	48	1	1	1	2	PSYCHOLOGIE
FAUST_1[2014-06]	104	4	30	5	1	1	1	3	2	1	1033	-1	2	0	0	4	2006	SCHWALBE	rumba	tango	chachacha	foxtrott	chachacha	skifahren	48	1	1	1	2	PSYCHOLOGIE
FAUST_1[2014-06]	104	4	27	5	1	2	1	3	2	1	1793	1	1	1	1205	2	1652	PIZZA	volvo	panther	puma	volvo	gepard	tiger	48	1	1	1	2	PSYCHOLOGIE
FAUST_1[2014-06]	104	4	19	5	1	1	1	3	2	1	1252	1	2	0	2009	2	2326	FLASCHE	helium	backgammon	wasserstoff	sauerstoff	wasserstoff	stickstoff	48	1	1	1	2	PSYCHOLOGIE
FAUST_1[2014-06]	104	4	15	5	1	2	1	3	2	1	913	-1	1	0	0	4	1412	BENZIN	synagoge	brotmesser	kapelle	brotmesser	moschee	kirche	48	1	1	1	2	PSYCHOLOGIE
FAUST_1[2014-06]	104	4	13	5	1	1	1	3	2	1	1376	1	2	0	1004	1	1575	TISCH	venus	saturn	pluto	trompete	pluto	merkur	48	1	1	1	2	PSYCHOLOGIE
FAUST_1[2014-06]	104	4	9	5	1	2	1	3	2	1	965	1	1	1	3153	4	1397	DINKEL	herzog	könig	schweiz	graf	kaiser	schweiz	48	1	1	1	2	PSYCHOLOGIE
