experiment	subject	block	trial	order	material	repeated	related	probetype	response	correct	rt	math_response	math_correctresponse	math_correct	math_rt	confidence	confidence_rt	probe	item1	item2	item3	item4	item5	item6	age	sex	handedness	color_vision	mother_tongue	occupation
FAUST_1[2014-06]	106	1	14	5	3	1	1	1	1	1	1208	2	2	1	1286	4	1521	hairbrush_17.bmp	cake_1.bmp	cake_4.bmp	cake_3.bmp	cake_14.bmp	hairbrush_17.bmp	cake_1.bmp	26	1	1	1	1	HUMANMEDIZIN
FAUST_1[2014-06]	106	1	19	5	3	2	1	1	1	1	1455	2	2	1	1160	4	1273	socks_10.bmp	goggle_3.bmp	socks_10.bmp	goggle_1.bmp	goggle_13.bmp	goggle_4.bmp	socks_10.bmp	26	1	1	1	1	HUMANMEDIZIN
FAUST_1[2014-06]	106	1	8	5	3	1	2	1	1	1	1435	2	2	1	1890	4	1499	rollerskates_5.bmp	rollerskates_7.bmp	plant_5.bmp	rollerskates_17.bmp	plant_5.bmp	rollerskates_8.bmp	rollerskates_5.bmp	26	1	1	1	1	HUMANMEDIZIN
FAUST_1[2014-06]	106	1	21	5	3	2	2	1	1	1	1624	2	1	0	511	4	1357	ring_11.bmp	ring_15.bmp	ring_11.bmp	mic_2.bmp	ring_7.bmp	ring_11.bmp	ring_8.bmp	26	1	1	1	1	HUMANMEDIZIN
FAUST_1[2014-06]	106	1	5	5	3	1	1	1	2	0	5653	2	1	0	2240	1	1710	remote_13.bmp	pasta_10.bmp	remote_13.bmp	pasta_15.bmp	pasta_10.bmp	pasta_9.bmp	pasta_13.bmp	26	1	1	1	1	HUMANMEDIZIN
FAUST_1[2014-06]	106	1	6	5	3	2	1	1	1	1	2902	2	2	1	953	4	1181	skateboard_11.bmp	skateboard_11.bmp	glasses_13.bmp	skateboard_11.bmp	glasses_6.bmp	glasses_15.bmp	glasses_8.bmp	26	1	1	1	1	HUMANMEDIZIN
FAUST_1[2014-06]	106	1	11	5	3	1	2	1	2	0	1412	2	2	1	962	2	1741	cellphone_4.bmp	cellphone_11.bmp	trunk_5.bmp	cellphone_8.bmp	cellphone_3.bmp	trunk_5.bmp	cellphone_4.bmp	26	1	1	1	1	HUMANMEDIZIN
FAUST_1[2014-06]	106	1	31	5	3	2	2	1	2	0	2293	1	1	1	1449	1	917	lawnmower_13.bmp	lawnmower_15.bmp	lawnmower_17.bmp	lawnmower_13.bmp	tv_7.bmp	lawnmower_3.bmp	lawnmower_13.bmp	26	1	1	1	1	HUMANMEDIZIN
FAUST_1[2014-06]	106	1	7	5	3	1	1	1	1	1	1348	1	1	1	2065	4	1848	turtle_11.bmp	turtle_11.bmp	cat_9.bmp	cat_10.bmp	cat_4.bmp	cat_5.bmp	cat_4.bmp	26	1	1	1	1	HUMANMEDIZIN
FAUST_1[2014-06]	106	1	25	5	3	2	1	1	1	1	1118	2	2	1	992	4	1470	shoe_13.bmp	shoe_13.bmp	vase_6.bmp	vase_15.bmp	vase_13.bmp	vase_1.bmp	shoe_13.bmp	26	1	1	1	1	HUMANMEDIZIN
FAUST_1[2014-06]	106	1	2	5	3	1	2	1	1	1	2887	1	2	0	2228	4	1833	wig_12.bmp	wig_12.bmp	wig_7.bmp	circuitboard_13.bmp	wig_9.bmp	wig_1.bmp	circuitboard_13.bmp	26	1	1	1	1	HUMANMEDIZIN
FAUST_1[2014-06]	106	1	10	5	3	2	2	1	1	1	3268	1	1	1	1534	4	1593	hammer_11.bmp	hammer_15.bmp	hammer_17.bmp	hammer_11.bmp	windchime_10.bmp	hammer_8.bmp	hammer_11.bmp	26	1	1	1	1	HUMANMEDIZIN
FAUST_1[2014-06]	106	1	22	5	3	1	1	2	1	0	4541	2	1	0	562	1	1462	printer_14.bmp	hairdryer_13.bmp	hairdryer_2.bmp	printer_1.bmp	hairdryer_7.bmp	hairdryer_13.bmp	hairdryer_14.bmp	26	1	1	1	1	HUMANMEDIZIN
FAUST_1[2014-06]	106	1	26	5	3	2	1	2	2	1	4763	1	2	0	847	4	1901	bagel_10.bmp	scooter_11.bmp	scooter_4.bmp	bagel_16.bmp	scooter_8.bmp	scooter_5.bmp	bagel_16.bmp	26	1	1	1	1	HUMANMEDIZIN
FAUST_1[2014-06]	106	1	12	5	3	1	2	2	2	1	3428	2	2	1	1384	1	1566	fan_10.bmp	horseshoe_5.bmp	fan_1.bmp	fan_17.bmp	horseshoe_5.bmp	fan_15.bmp	fan_11.bmp	26	1	1	1	1	HUMANMEDIZIN
FAUST_1[2014-06]	106	1	3	5	3	2	2	2	1	0	2908	2	2	1	2635	4	1799	sink_10.bmp	sink_6.bmp	sink_1.bmp	sink_15.bmp	carriage_2.bmp	sink_6.bmp	sink_11.bmp	26	1	1	1	1	HUMANMEDIZIN
FAUST_1[2014-06]	106	1	32	5	3	1	1	2	1	0	3888	2	1	0	602	1	1511	coffee_7.bmp	saltpeppershake_17.bmp	coffee_2.bmp	saltpeppershake_9.bmp	saltpeppershake_2.bmp	saltpeppershake_12.bmp	saltpeppershake_9.bmp	26	1	1	1	1	HUMANMEDIZIN
FAUST_1[2014-06]	106	1	4	5	3	2	1	2	2	1	2985	-1	2	0	0	1	1741	doorknob_17.bmp	glove_15.bmp	glove_5.bmp	doorknob_10.bmp	glove_12.bmp	glove_10.bmp	doorknob_10.bmp	26	1	1	1	1	HUMANMEDIZIN
FAUST_1[2014-06]	106	1	16	5	3	1	2	2	1	0	6450	2	1	0	725	3	1503	backpack_10.bmp	parfait_13.bmp	backpack_13.bmp	backpack_12.bmp	backpack_6.bmp	parfait_13.bmp	backpack_16.bmp	26	1	1	1	1	HUMANMEDIZIN
FAUST_1[2014-06]	106	1	23	5	3	2	2	2	1	0	2780	2	1	0	1538	3	1356	tricycle_5.bmp	tricycle_8.bmp	tricycle_2.bmp	tricycle_10.bmp	tricycle_15.bmp	saddle_8.bmp	tricycle_8.bmp	26	1	1	1	1	HUMANMEDIZIN
FAUST_1[2014-06]	106	1	27	5	3	1	1	2	2	1	5423	2	1	0	814	1	1410	babycrib_7.bmp	carabiner_9.bmp	babycrib_6.bmp	carabiner_5.bmp	carabiner_7.bmp	carabiner_5.bmp	carabiner_2.bmp	26	1	1	1	1	HUMANMEDIZIN
FAUST_1[2014-06]	106	1	13	5	3	2	1	2	2	1	3571	2	1	0	900	4	1629	easteregg_17.bmp	easteregg_14.bmp	speaker_17.bmp	speaker_15.bmp	easteregg_14.bmp	speaker_6.bmp	speaker_4.bmp	26	1	1	1	1	HUMANMEDIZIN
FAUST_1[2014-06]	106	1	28	5	3	1	2	2	1	0	1516	2	2	1	1133	4	1621	garbagecan_8.bmp	videogamecontroller_5.bmp	garbagecan_13.bmp	garbagecan_17.bmp	videogamecontroller_5.bmp	garbagecan_2.bmp	garbagecan_10.bmp	26	1	1	1	1	HUMANMEDIZIN
FAUST_1[2014-06]	106	1	18	5	3	2	2	2	1	0	1686	2	2	1	713	3	2299	guitar_8.bmp	guitar_5.bmp	abacus_4.bmp	guitar_14.bmp	guitar_10.bmp	guitar_7.bmp	guitar_14.bmp	26	1	1	1	1	HUMANMEDIZIN
FAUST_1[2014-06]	106	1	20	5	3	1	1	3	2	1	1280	1	1	1	953	4	1252	watergun_15.bmp	beanbagchair_15.bmp	cheesegrater_14.bmp	beanbagchair_14.bmp	beanbagchair_12.bmp	beanbagchair_15.bmp	beanbagchair_17.bmp	26	1	1	1	1	HUMANMEDIZIN
FAUST_1[2014-06]	106	1	17	5	3	2	1	3	2	1	2017	2	2	1	726	2	1278	router_12.bmp	birdhouse_6.bmp	shredder_5.bmp	shredder_7.bmp	shredder_15.bmp	shredder_6.bmp	birdhouse_6.bmp	26	1	1	1	1	HUMANMEDIZIN
FAUST_1[2014-06]	106	1	30	5	3	1	1	3	2	1	3121	2	2	1	1244	1	1293	powerstrip_10.bmp	flashlight_1.bmp	flashlight_17.bmp	flashlight_1.bmp	leatherman_2.bmp	flashlight_12.bmp	flashlight_13.bmp	26	1	1	1	1	HUMANMEDIZIN
FAUST_1[2014-06]	106	1	9	5	3	2	1	3	2	1	2245	1	2	0	2687	3	1866	trophy_6.bmp	jacket_10.bmp	doorknocker_5.bmp	jacket_10.bmp	doorknocker_4.bmp	doorknocker_2.bmp	doorknocker_14.bmp	26	1	1	1	1	HUMANMEDIZIN
FAUST_1[2014-06]	106	1	15	5	3	1	1	3	2	1	2490	2	2	1	1141	4	2068	camera_6.bmp	laptop_15.bmp	laptop_16.bmp	laptop_7.bmp	iceskates_5.bmp	laptop_14.bmp	laptop_7.bmp	26	1	1	1	1	HUMANMEDIZIN
FAUST_1[2014-06]	106	1	29	5	3	2	1	3	2	1	2122	2	2	1	1264	3	1235	chair_16.bmp	highchair_6.bmp	orifan_6.bmp	orifan_1.bmp	orifan_7.bmp	orifan_17.bmp	highchair_6.bmp	26	1	1	1	1	HUMANMEDIZIN
FAUST_1[2014-06]	106	1	24	5	3	1	1	3	2	1	1473	2	2	1	2047	4	1452	trumpet_3.bmp	rusdoll_8.bmp	rusdoll_6.bmp	cherubstatue_10.bmp	rusdoll_8.bmp	rusdoll_1.bmp	rusdoll_5.bmp	26	1	1	1	1	HUMANMEDIZIN
FAUST_1[2014-06]	106	1	1	5	3	2	1	3	2	1	2931	2	1	0	2614	4	2614	watch_7.bmp	sofa_9.bmp	bowlingpin_4.bmp	bowlingpin_13.bmp	sofa_9.bmp	bowlingpin_1.bmp	bowlingpin_3.bmp	26	1	1	1	1	HUMANMEDIZIN
FAUST_1[2014-06]	106	2	5	5	2	1	1	1	1	1	1481	1	1	1	965	4	1116	Glass16.bmp	Ginger17.bmp	Ginger15.bmp	Ginger5.bmp	Ginger15.bmp	Ginger3.bmp	Glass16.bmp	26	1	1	1	1	HUMANMEDIZIN
FAUST_1[2014-06]	106	2	14	5	2	2	1	1	1	1	837	2	2	1	1040	4	1441	Biscuit17.bmp	Biscuit17.bmp	Scissors11.bmp	Scissors3.bmp	Scissors1.bmp	Scissors23.bmp	Biscuit17.bmp	26	1	1	1	1	HUMANMEDIZIN
FAUST_1[2014-06]	106	2	7	5	2	1	2	1	1	1	1950	2	2	1	946	3	1673	Toothbrush6.bmp	Toothbrush10.bmp	Toothbrush1.bmp	Lipstick15.bmp	Toothbrush9.bmp	Lipstick15.bmp	Toothbrush6.bmp	26	1	1	1	1	HUMANMEDIZIN
FAUST_1[2014-06]	106	2	18	5	2	2	2	1	1	1	4769	1	2	0	1091	2	1554	Leaf21.bmp	Sweet1.bmp	Leaf21.bmp	Leaf22.bmp	Leaf10.bmp	Leaf21.bmp	Leaf15.bmp	26	1	1	1	1	HUMANMEDIZIN
FAUST_1[2014-06]	106	2	6	5	2	1	1	1	2	0	1403	2	1	0	775	2	1600	Plug18.bmp	Bracelet2.bmp	Bracelet8.bmp	Plug18.bmp	Bracelet1.bmp	Bracelet5.bmp	Bracelet1.bmp	26	1	1	1	1	HUMANMEDIZIN
FAUST_1[2014-06]	106	2	15	5	2	2	1	1	1	1	1191	2	1	0	814	4	1571	Nut11.bmp	Nut11.bmp	Varnish3.bmp	Nut11.bmp	Varnish17.bmp	Varnish11.bmp	Varnish14.bmp	26	1	1	1	1	HUMANMEDIZIN
FAUST_1[2014-06]	106	2	22	5	2	1	2	1	1	1	963	2	1	0	646	3	1918	Jigsaw17.bmp	Hand1.bmp	Jigsaw10.bmp	Jigsaw14.bmp	Jigsaw11.bmp	Hand1.bmp	Jigsaw17.bmp	26	1	1	1	1	HUMANMEDIZIN
FAUST_1[2014-06]	106	2	16	5	2	2	2	1	1	1	872	1	1	1	863	4	2287	Mushroom14.bmp	Mushroom14.bmp	Mushroom7.bmp	Mushroom14.bmp	Brocolli9.bmp	Mushroom6.bmp	Mushroom18.bmp	26	1	1	1	1	HUMANMEDIZIN
FAUST_1[2014-06]	106	2	9	5	2	1	1	2	1	0	2379	2	1	0	658	1	1570	Car21.bmp	Coins12.bmp	Coins10.bmp	Coins8.bmp	Car12.bmp	Coins8.bmp	Coins3.bmp	26	1	1	1	1	HUMANMEDIZIN
FAUST_1[2014-06]	106	2	8	5	2	2	1	2	1	0	5713	2	1	0	661	3	1719	Fudge17.bmp	Fork14.bmp	Fork17.bmp	Fork7.bmp	Fudge5.bmp	Fork8.bmp	Fudge5.bmp	26	1	1	1	1	HUMANMEDIZIN
FAUST_1[2014-06]	106	2	19	5	2	1	2	2	1	0	1510	2	2	1	352	3	2087	Key5.bmp	Feather18.bmp	Key11.bmp	Key13.bmp	Key20.bmp	Feather18.bmp	Key9.bmp	26	1	1	1	1	HUMANMEDIZIN
FAUST_1[2014-06]	106	2	2	5	2	2	2	2	1	0	1479	1	1	1	939	4	2525	Bun12.bmp	Bun5.bmp	Bun17.bmp	Bun19.bmp	Pen17.bmp	Bun22.bmp	Bun19.bmp	26	1	1	1	1	HUMANMEDIZIN
FAUST_1[2014-06]	106	2	20	5	2	1	1	2	1	0	1456	1	1	1	973	3	1444	Keys6.bmp	Shell9.bmp	Keys8.bmp	Shell1.bmp	Shell9.bmp	Shell18.bmp	Shell17.bmp	26	1	1	1	1	HUMANMEDIZIN
FAUST_1[2014-06]	106	2	21	5	2	2	1	2	1	0	1727	2	2	1	391	4	929	Man10.bmp	Holly20.bmp	Man24.bmp	Holly14.bmp	Man24.bmp	Holly17.bmp	Holly3.bmp	26	1	1	1	1	HUMANMEDIZIN
FAUST_1[2014-06]	106	2	13	5	2	1	2	2	1	0	1072	2	1	0	991	4	972	Pear4.bmp	Pear16.bmp	Screw16.bmp	Pear15.bmp	Pear18.bmp	Pear7.bmp	Screw16.bmp	26	1	1	1	1	HUMANMEDIZIN
FAUST_1[2014-06]	106	2	11	5	2	2	2	2	1	0	1584	1	1	1	535	4	2709	Bag21.bmp	Bag4.bmp	Bag5.bmp	Bag3.bmp	Bag25.bmp	Daff22.bmp	Bag5.bmp	26	1	1	1	1	HUMANMEDIZIN
FAUST_1[2014-06]	106	2	4	5	2	1	1	3	2	1	3586	2	2	1	585	3	1120	Strawberry4.bmp	Onion19.bmp	Chilli19.bmp	Chilli11.bmp	Chilli22.bmp	Chilli12.bmp	Chilli22.bmp	26	1	1	1	1	HUMANMEDIZIN
FAUST_1[2014-06]	106	2	3	5	2	2	1	3	2	1	1405	2	2	1	758	4	1323	Paperclip6.bmp	Button10.bmp	Tomato12.bmp	Button20.bmp	Button3.bmp	Tomato12.bmp	Button18.bmp	26	1	1	1	1	HUMANMEDIZIN
FAUST_1[2014-06]	106	2	12	5	2	1	1	3	2	1	1346	2	1	0	343	2	1111	Stapler10.bmp	Star19.bmp	Star7.bmp	Star2.bmp	Cake16.bmp	Star2.bmp	Star1.bmp	26	1	1	1	1	HUMANMEDIZIN
FAUST_1[2014-06]	106	2	10	5	2	2	1	3	2	1	1326	2	2	1	100	1	1520	Hanger14.bmp	Swirl1.bmp	Swirl5.bmp	Swirl10.bmp	Umbrella6.bmp	Swirl23.bmp	Umbrella6.bmp	26	1	1	1	1	HUMANMEDIZIN
FAUST_1[2014-06]	106	2	1	5	2	1	1	3	2	1	1603	2	2	1	1062	4	1632	String2.bmp	Flower18.bmp	Apple21.bmp	Apple5.bmp	Apple21.bmp	Apple18.bmp	Apple24.bmp	26	1	1	1	1	HUMANMEDIZIN
FAUST_1[2014-06]	106	2	17	5	2	2	1	3	2	1	1289	2	2	1	417	3	1731	Chocolate24.bmp	Present2.bmp	Present14.bmp	Candle17.bmp	Present9.bmp	Present3.bmp	Candle17.bmp	26	1	1	1	1	HUMANMEDIZIN
FAUST_1[2014-06]	106	3	19	5	1	1	1	1	1	1	1713	2	2	1	1367	4	1704	MOZART	hören	fühlen	mozart	schmecken	fühlen	sehen	26	1	1	1	1	HUMANMEDIZIN
FAUST_1[2014-06]	106	3	5	5	1	2	1	1	1	1	1375	2	1	0	706	4	1076	TERRIER	terrier	brandenburg	sachsen	saarland	hessen	terrier	26	1	1	1	1	HUMANMEDIZIN
FAUST_1[2014-06]	106	3	8	5	1	1	2	1	2	0	4051	2	1	0	810	1	1323	FLASCHE	becher	glas	löffel	kanne	flasche	löffel	26	1	1	1	1	HUMANMEDIZIN
FAUST_1[2014-06]	106	3	18	5	1	2	2	1	1	1	1297	2	2	1	916	3	3241	MESSING	messing	gold	benzin	eisen	messing	silber	26	1	1	1	1	HUMANMEDIZIN
FAUST_1[2014-06]	106	3	4	5	1	1	1	1	1	1	1192	1	1	1	834	4	1362	HERZOG	schwert	gewehr	herzog	gewehr	pistole	dolch	26	1	1	1	1	HUMANMEDIZIN
FAUST_1[2014-06]	106	3	26	5	1	2	1	1	1	1	1039	1	2	0	744	4	2053	FUß	herz	fuß	magen	fuß	leber	lunge	26	1	1	1	1	HUMANMEDIZIN
FAUST_1[2014-06]	106	3	30	5	1	1	2	1	1	1	1161	1	1	1	1109	4	1159	ROSMARIN	rosmarin	backform	koriander	oregano	thymian	backform	26	1	1	1	1	HUMANMEDIZIN
FAUST_1[2014-06]	106	3	17	5	1	2	2	1	1	1	1500	2	1	0	445	4	1653	HAMMER	säge	hammer	meißel	zange	hammer	kugelschreiber	26	1	1	1	1	HUMANMEDIZIN
FAUST_1[2014-06]	106	3	12	5	1	1	1	1	1	1	907	2	2	1	537	4	1112	OPIUM	werwolf	vampir	dämon	hexe	opium	hexe	26	1	1	1	1	HUMANMEDIZIN
FAUST_1[2014-06]	106	3	29	5	1	2	1	1	2	0	3634	1	2	0	1764	1	1055	ROSE	nomen	verb	rose	präposition	rose	adjektiv	26	1	1	1	1	HUMANMEDIZIN
FAUST_1[2014-06]	106	3	22	5	1	1	2	1	2	0	2596	2	2	1	846	3	1401	KAROTTEN	tomaten	bohnen	lidschatten	blumenkohl	karotten	lidschatten	26	1	1	1	1	HUMANMEDIZIN
FAUST_1[2014-06]	106	3	20	5	1	2	2	1	1	1	1056	2	1	0	534	4	3436	MINUTE	tag	jahr	minute	stunde	minute	rock	26	1	1	1	1	HUMANMEDIZIN
FAUST_1[2014-06]	106	3	3	5	1	1	1	2	2	1	1332	2	1	0	638	4	2002	CHACHACHA	lesen	zeichnen	foxtrott	malen	schreiben	malen	26	1	1	1	1	HUMANMEDIZIN
FAUST_1[2014-06]	106	3	24	5	1	2	1	2	1	0	4245	2	2	1	676	3	1882	HAMBURG	angst	münchen	ärger	trauer	freude	münchen	26	1	1	1	1	HUMANMEDIZIN
FAUST_1[2014-06]	106	3	13	5	1	1	2	2	2	1	1432	2	1	0	849	3	1713	LAKRITZ	marzipan	yacht	karamell	yacht	gummibärchen	bonbons	26	1	1	1	1	HUMANMEDIZIN
FAUST_1[2014-06]	106	3	25	5	1	2	2	2	2	1	2152	2	1	0	158	3	1443	BERUFSSCHULE	blau	gymnasium	gesamtschule	hauptschule	gesamtschule	realschule	26	1	1	1	1	HUMANMEDIZIN
FAUST_1[2014-06]	106	3	11	5	1	1	1	2	2	1	2321	2	1	0	901	1	1085	STEINBOCK	zwilling	tanne	buche	weide	tanne	eiche	26	1	1	1	1	HUMANMEDIZIN
FAUST_1[2014-06]	106	3	27	5	1	2	1	2	2	1	1058	2	2	1	475	3	1976	FLUSS	ozean	physik	ozean	biologie	erdkunde	mathematik	26	1	1	1	1	HUMANMEDIZIN
FAUST_1[2014-06]	106	3	32	5	1	1	2	2	2	1	1311	2	2	1	1340	2	1355	LEINEN	baumwolle	flanell	elbe	wolle	elbe	seide	26	1	1	1	1	HUMANMEDIZIN
FAUST_1[2014-06]	106	3	6	5	1	2	2	2	2	1	3416	2	2	1	522	2	1516	RECHTECK	pflaume	viereck	dreieck	quadrat	dreieck	kreis	26	1	1	1	1	HUMANMEDIZIN
FAUST_1[2014-06]	106	3	21	5	1	1	1	2	2	1	1628	2	2	1	472	4	1549	RÜCKSPIEGEL	zentimeter	meter	kilometer	gaspedal	kilometer	meile	26	1	1	1	1	HUMANMEDIZIN
FAUST_1[2014-06]	106	3	31	5	1	2	1	2	2	1	1344	2	2	1	799	3	1559	ROGGEN	makrele	lachs	weizen	hering	weizen	forelle	26	1	1	1	1	HUMANMEDIZIN
FAUST_1[2014-06]	106	3	9	5	1	1	2	2	2	1	1642	1	2	0	801	3	1353	GIN	rum	tequila	mark	whiskey	wodka	mark	26	1	1	1	1	HUMANMEDIZIN
FAUST_1[2014-06]	106	3	16	5	1	2	2	2	2	1	1504	1	2	0	650	1	1740	KAPELLE	fernsehen	synagoge	kirche	tempel	moschee	tempel	26	1	1	1	1	HUMANMEDIZIN
FAUST_1[2014-06]	106	3	15	5	1	1	1	3	2	1	1852	2	2	1	464	1	2002	PFARRER	dänemark	italien	dänemark	afrika	österreich	schweiz	26	1	1	1	1	HUMANMEDIZIN
FAUST_1[2014-06]	106	3	23	5	1	2	1	3	2	1	1358	2	2	1	222	4	4744	POMMES	audi	scheune	audi	hütte	schuppen	baracke	26	1	1	1	1	HUMANMEDIZIN
FAUST_1[2014-06]	106	3	28	5	1	1	1	3	2	1	1526	2	1	0	156	2	1373	KINO	horrorfilm	thriller	western	nähnadel	komödie	thriller	26	1	1	1	1	HUMANMEDIZIN
FAUST_1[2014-06]	106	3	14	5	1	2	1	3	2	1	1448	1	2	0	514	3	1771	MASERN	helium	posaune	helium	flöte	klarinette	oboe	26	1	1	1	1	HUMANMEDIZIN
FAUST_1[2014-06]	106	3	7	5	1	1	1	3	2	1	1753	1	1	1	440	2	1166	SCRABBLE	brieföffner	büroklammer	klebeband	lineal	büroklammer	sofa	26	1	1	1	1	HUMANMEDIZIN
FAUST_1[2014-06]	106	3	1	5	1	2	1	3	2	1	1369	2	1	0	737	3	1662	SATURN	computer	mutter	mobiltelefon	drucker	laptop	mutter	26	1	1	1	1	HUMANMEDIZIN
FAUST_1[2014-06]	106	3	2	5	1	1	1	3	2	1	1359	1	1	1	662	4	2226	WESPE	taube	schwalbe	fink	taube	nebel	amsel	26	1	1	1	1	HUMANMEDIZIN
FAUST_1[2014-06]	106	3	10	5	1	2	1	3	2	1	1146	2	2	1	672	3	1419	FUßBALL	zug	bus	taxi	panther	fahrrad	panther	26	1	1	1	1	HUMANMEDIZIN
FAUST_1[2014-06]	106	2	3	5	3	1	1	1	1	1	1027	2	2	1	728	4	1502	shoe_13.bmp	guitar_14.bmp	shoe_13.bmp	guitar_5.bmp	guitar_10.bmp	guitar_5.bmp	guitar_7.bmp	26	1	1	1	1	HUMANMEDIZIN
FAUST_1[2014-06]	106	2	23	5	3	2	1	1	1	1	2164	1	2	0	976	4	1258	beanbagchair_15.bmp	bowlingpin_3.bmp	bowlingpin_1.bmp	beanbagchair_15.bmp	bowlingpin_11.bmp	beanbagchair_15.bmp	bowlingpin_4.bmp	26	1	1	1	1	HUMANMEDIZIN
FAUST_1[2014-06]	106	2	27	5	3	1	2	1	1	1	915	1	2	0	658	3	1347	glove_8.bmp	skateboard_3.bmp	glove_12.bmp	glove_5.bmp	skateboard_3.bmp	glove_15.bmp	glove_8.bmp	26	1	1	1	1	HUMANMEDIZIN
FAUST_1[2014-06]	106	2	16	5	3	2	2	1	1	1	1208	2	1	0	547	3	1169	lawnmower_8.bmp	lawnmower_8.bmp	lawnmower_15.bmp	lawnmower_17.bmp	lawnmower_13.bmp	hairbrush_12.bmp	lawnmower_8.bmp	26	1	1	1	1	HUMANMEDIZIN
FAUST_1[2014-06]	106	2	31	5	3	1	1	1	1	1	1118	1	2	0	868	4	1915	carabiner_5.bmp	glasses_13.bmp	glasses_15.bmp	glasses_8.bmp	glasses_6.bmp	glasses_15.bmp	carabiner_5.bmp	26	1	1	1	1	HUMANMEDIZIN
FAUST_1[2014-06]	106	2	32	5	3	2	1	1	1	1	860	2	1	0	471	4	1921	leatherman_2.bmp	easteregg_14.bmp	leatherman_2.bmp	easteregg_5.bmp	easteregg_9.bmp	easteregg_17.bmp	leatherman_2.bmp	26	1	1	1	1	HUMANMEDIZIN
FAUST_1[2014-06]	106	2	5	5	3	1	2	1	1	1	1678	2	2	1	1152	3	2118	wig_6.bmp	wig_12.bmp	wig_7.bmp	rollerskates_7.bmp	wig_6.bmp	wig_1.bmp	rollerskates_7.bmp	26	1	1	1	1	HUMANMEDIZIN
FAUST_1[2014-06]	106	2	7	5	3	2	2	1	1	1	1180	2	1	0	728	4	1042	orifan_17.bmp	orifan_17.bmp	orifan_6.bmp	hairdryer_2.bmp	orifan_17.bmp	orifan_1.bmp	orifan_7.bmp	26	1	1	1	1	HUMANMEDIZIN
FAUST_1[2014-06]	106	2	17	5	3	1	1	1	1	1	1682	2	1	0	541	4	1192	socks_13.bmp	doorknob_7.bmp	socks_13.bmp	doorknob_17.bmp	doorknob_2.bmp	doorknob_14.bmp	doorknob_7.bmp	26	1	1	1	1	HUMANMEDIZIN
FAUST_1[2014-06]	106	2	24	5	3	2	1	1	1	1	1162	2	2	1	740	2	1097	watch_6.bmp	watch_6.bmp	laptop_14.bmp	watch_6.bmp	laptop_10.bmp	laptop_15.bmp	laptop_7.bmp	26	1	1	1	1	HUMANMEDIZIN
FAUST_1[2014-06]	106	2	19	5	3	1	2	1	1	1	2385	2	2	1	834	4	1312	mic_3.bmp	windchime_3.bmp	mic_3.bmp	mic_5.bmp	windchime_3.bmp	mic_10.bmp	mic_12.bmp	26	1	1	1	1	HUMANMEDIZIN
FAUST_1[2014-06]	106	2	25	5	3	2	2	1	1	1	865	2	2	1	1065	4	1165	tricycle_10.bmp	tricycle_10.bmp	tricycle_2.bmp	tricycle_8.bmp	tricycle_10.bmp	tricycle_15.bmp	cake_14.bmp	26	1	1	1	1	HUMANMEDIZIN
FAUST_1[2014-06]	106	2	30	5	3	1	1	2	2	1	854	2	2	1	452	2	1580	bagel_10.bmp	parfait_13.bmp	parfait_4.bmp	parfait_15.bmp	bagel_14.bmp	parfait_13.bmp	parfait_1.bmp	26	1	1	1	1	HUMANMEDIZIN
FAUST_1[2014-06]	106	2	15	5	3	2	1	2	2	1	1428	1	2	0	465	4	1150	watergun_3.bmp	sink_10.bmp	watergun_15.bmp	sink_11.bmp	sink_6.bmp	watergun_15.bmp	sink_15.bmp	26	1	1	1	1	HUMANMEDIZIN
FAUST_1[2014-06]	106	2	14	5	3	1	2	2	2	1	1440	2	2	1	484	1	950	abacus_2.bmp	abacus_6.bmp	abacus_15.bmp	coffee_2.bmp	abacus_4.bmp	abacus_7.bmp	coffee_2.bmp	26	1	1	1	1	HUMANMEDIZIN
FAUST_1[2014-06]	106	2	20	5	3	2	2	2	1	0	3296	1	1	1	972	4	2609	router_12.bmp	router_6.bmp	router_7.bmp	router_5.bmp	router_16.bmp	router_6.bmp	cat_9.bmp	26	1	1	1	1	HUMANMEDIZIN
FAUST_1[2014-06]	106	2	29	5	3	1	1	2	2	1	2658	1	2	0	815	2	2663	horseshoe_3.bmp	camera_6.bmp	camera_7.bmp	camera_4.bmp	camera_6.bmp	camera_9.bmp	horseshoe_5.bmp	26	1	1	1	1	HUMANMEDIZIN
FAUST_1[2014-06]	106	2	2	5	3	2	1	2	1	0	1441	2	1	0	830	1	1312	cellphone_8.bmp	cellphone_12.bmp	pasta_11.bmp	pasta_10.bmp	pasta_15.bmp	pasta_9.bmp	cellphone_12.bmp	26	1	1	1	1	HUMANMEDIZIN
FAUST_1[2014-06]	106	2	9	5	3	1	2	2	1	0	1600	2	2	1	1381	3	1466	shredder_7.bmp	shredder_1.bmp	shredder_5.bmp	fan_17.bmp	shredder_15.bmp	shredder_6.bmp	fan_17.bmp	26	1	1	1	1	HUMANMEDIZIN
FAUST_1[2014-06]	106	2	12	5	3	2	2	2	2	1	1960	2	2	1	1149	2	1405	plant_5.bmp	plant_8.bmp	plant_14.bmp	plant_13.bmp	carriage_12.bmp	plant_2.bmp	plant_14.bmp	26	1	1	1	1	HUMANMEDIZIN
FAUST_1[2014-06]	106	2	11	5	3	1	1	2	2	1	1117	2	2	1	901	1	1289	backpack_6.bmp	rusdoll_8.bmp	rusdoll_1.bmp	rusdoll_3.bmp	rusdoll_6.bmp	backpack_10.bmp	rusdoll_1.bmp	26	1	1	1	1	HUMANMEDIZIN
FAUST_1[2014-06]	106	2	26	5	3	2	1	2	1	0	1318	2	1	0	429	4	1016	iceskates_16.bmp	videogamecontroller_2.bmp	videogamecontroller_3.bmp	videogamecontroller_11.bmp	iceskates_9.bmp	videogamecontroller_5.bmp	iceskates_9.bmp	26	1	1	1	1	HUMANMEDIZIN
FAUST_1[2014-06]	106	2	21	5	3	1	2	2	1	0	1038	2	1	0	671	3	862	speaker_15.bmp	speaker_17.bmp	saltpeppershake_17.bmp	speaker_4.bmp	speaker_10.bmp	speaker_6.bmp	saltpeppershake_17.bmp	26	1	1	1	1	HUMANMEDIZIN
FAUST_1[2014-06]	106	2	6	5	3	2	2	2	2	1	1184	1	1	1	628	3	1350	tv_16.bmp	tv_7.bmp	tv_4.bmp	tv_8.bmp	tv_5.bmp	sofa_9.bmp	tv_5.bmp	26	1	1	1	1	HUMANMEDIZIN
FAUST_1[2014-06]	106	2	1	5	3	1	1	3	2	1	5913	1	2	0	1154	2	1751	cheesegrater_15.bmp	turtle_11.bmp	turtle_7.bmp	printer_16.bmp	turtle_2.bmp	turtle_6.bmp	turtle_11.bmp	26	1	1	1	1	HUMANMEDIZIN
FAUST_1[2014-06]	106	2	28	5	3	2	1	3	2	1	1482	2	1	0	1055	2	1728	highchair_4.bmp	jacket_7.bmp	trumpet_3.bmp	jacket_6.bmp	jacket_11.bmp	trumpet_3.bmp	jacket_13.bmp	26	1	1	1	1	HUMANMEDIZIN
FAUST_1[2014-06]	106	2	18	5	3	1	1	3	2	1	2714	2	1	0	53	3	2087	trunk_2.bmp	cherubstatue_12.bmp	babycrib_7.bmp	babycrib_5.bmp	babycrib_2.bmp	babycrib_7.bmp	babycrib_9.bmp	26	1	1	1	1	HUMANMEDIZIN
FAUST_1[2014-06]	106	2	10	5	3	2	1	3	1	0	1827	2	2	1	1201	1	1239	vase_13.bmp	remote_3.bmp	remote_2.bmp	circuitboard_2.bmp	remote_13.bmp	circuitboard_2.bmp	remote_14.bmp	26	1	1	1	1	HUMANMEDIZIN
FAUST_1[2014-06]	106	2	13	5	3	1	1	3	2	1	1743	2	2	1	193	3	1321	trophy_15.bmp	chair_2.bmp	saddle_8.bmp	saddle_3.bmp	saddle_15.bmp	saddle_5.bmp	saddle_3.bmp	26	1	1	1	1	HUMANMEDIZIN
FAUST_1[2014-06]	106	2	8	5	3	2	1	3	2	1	2534	2	2	1	858	3	1853	goggle_3.bmp	powerstrip_8.bmp	doorknocker_11.bmp	doorknocker_5.bmp	doorknocker_4.bmp	doorknocker_14.bmp	powerstrip_8.bmp	26	1	1	1	1	HUMANMEDIZIN
FAUST_1[2014-06]	106	2	22	5	3	1	1	3	2	1	1091	2	1	0	816	3	1800	birdhouse_11.bmp	scooter_8.bmp	scooter_5.bmp	scooter_11.bmp	ring_15.bmp	scooter_8.bmp	scooter_4.bmp	26	1	1	1	1	HUMANMEDIZIN
FAUST_1[2014-06]	106	2	4	5	3	2	1	3	2	1	1380	1	1	1	960	3	1724	garbagecan_13.bmp	hammer_17.bmp	flashlight_1.bmp	hammer_17.bmp	flashlight_13.bmp	flashlight_2.bmp	flashlight_17.bmp	26	1	1	1	1	HUMANMEDIZIN
FAUST_1[2014-06]	106	3	8	5	2	1	1	1	2	0	1645	1	1	1	360	3	1001	Swirl23.bmp	Flower13.bmp	Swirl23.bmp	Flower17.bmp	Flower14.bmp	Flower3.bmp	Flower13.bmp	26	1	1	1	1	HUMANMEDIZIN
FAUST_1[2014-06]	106	3	9	5	2	2	1	1	1	1	1176	2	2	1	123	4	861	Pear18.bmp	Fork7.bmp	Fork8.bmp	Pear18.bmp	Fork14.bmp	Fork9.bmp	Pear18.bmp	26	1	1	1	1	HUMANMEDIZIN
FAUST_1[2014-06]	106	3	16	5	2	1	2	1	2	0	2176	2	1	0	711	2	1045	Jigsaw18.bmp	Man24.bmp	Jigsaw10.bmp	Man24.bmp	Jigsaw18.bmp	Jigsaw17.bmp	Jigsaw14.bmp	26	1	1	1	1	HUMANMEDIZIN
FAUST_1[2014-06]	106	3	1	5	2	2	2	1	1	1	994	1	2	0	595	4	1433	Umbrella17.bmp	Umbrella6.bmp	Umbrella19.bmp	Umbrella17.bmp	Umbrella21.bmp	Umbrella17.bmp	Present14.bmp	26	1	1	1	1	HUMANMEDIZIN
FAUST_1[2014-06]	106	3	12	5	2	1	1	1	1	1	1429	2	1	0	818	4	1240	Nut19.bmp	Sweet25.bmp	Sweet10.bmp	Sweet25.bmp	Nut19.bmp	Sweet1.bmp	Sweet22.bmp	26	1	1	1	1	HUMANMEDIZIN
FAUST_1[2014-06]	106	3	18	5	2	2	1	1	1	1	4127	2	1	0	507	2	1311	Star19.bmp	Car14.bmp	Star19.bmp	Car13.bmp	Car21.bmp	Car7.bmp	Star19.bmp	26	1	1	1	1	HUMANMEDIZIN
FAUST_1[2014-06]	106	3	11	5	2	1	2	1	1	1	934	1	1	1	406	4	2505	Tomato2.bmp	Tomato2.bmp	Tomato5.bmp	Tomato3.bmp	Candle1.bmp	Tomato12.bmp	Candle1.bmp	26	1	1	1	1	HUMANMEDIZIN
FAUST_1[2014-06]	106	3	10	5	2	2	2	1	1	1	764	2	1	0	429	4	1320	Key11.bmp	String9.bmp	Key11.bmp	Key20.bmp	Key13.bmp	Key11.bmp	Key5.bmp	26	1	1	1	1	HUMANMEDIZIN
FAUST_1[2014-06]	106	3	21	5	2	1	1	2	2	1	800	2	1	0	138	1	1864	Biscuit20.bmp	Keys8.bmp	Keys5.bmp	Biscuit9.bmp	Keys6.bmp	Keys9.bmp	Keys8.bmp	26	1	1	1	1	HUMANMEDIZIN
FAUST_1[2014-06]	106	3	4	5	2	2	1	2	1	0	801	2	1	0	526	4	1249	Brocolli19.bmp	Brocolli10.bmp	Hanger14.bmp	Hanger12.bmp	Hanger7.bmp	Brocolli10.bmp	Hanger15.bmp	26	1	1	1	1	HUMANMEDIZIN
FAUST_1[2014-06]	106	3	3	5	2	1	2	2	1	0	865	2	1	0	709	2	1707	Leaf21.bmp	Leaf13.bmp	Leaf22.bmp	Chilli12.bmp	Leaf10.bmp	Chilli12.bmp	Leaf15.bmp	26	1	1	1	1	HUMANMEDIZIN
FAUST_1[2014-06]	106	3	2	5	2	2	2	2	1	0	1531	2	2	1	219	4	992	Bun19.bmp	Bun22.bmp	Bun17.bmp	Bun12.bmp	Hand13.bmp	Bun5.bmp	Bun17.bmp	26	1	1	1	1	HUMANMEDIZIN
FAUST_1[2014-06]	106	3	17	5	2	1	1	2	1	0	922	1	2	0	431	4	1337	Strawberry14.bmp	Paperclip6.bmp	Paperclip4.bmp	Strawberry21.bmp	Paperclip13.bmp	Paperclip14.bmp	Paperclip13.bmp	26	1	1	1	1	HUMANMEDIZIN
FAUST_1[2014-06]	106	3	6	5	2	2	1	2	1	0	919	2	1	0	779	3	1234	Shell9.bmp	Shell17.bmp	Stapler9.bmp	Stapler8.bmp	Shell17.bmp	Stapler10.bmp	Stapler6.bmp	26	1	1	1	1	HUMANMEDIZIN
FAUST_1[2014-06]	106	3	15	5	2	1	2	2	2	1	2816	2	1	0	801	1	1604	Holly11.bmp	Holly3.bmp	Holly17.bmp	Apple21.bmp	Holly20.bmp	Apple21.bmp	Holly14.bmp	26	1	1	1	1	HUMANMEDIZIN
FAUST_1[2014-06]	106	3	22	5	2	2	2	2	2	1	1968	2	1	0	579	1	1275	Pen5.bmp	Pen10.bmp	Pen20.bmp	Toothbrush9.bmp	Pen17.bmp	Pen10.bmp	Pen1.bmp	26	1	1	1	1	HUMANMEDIZIN
FAUST_1[2014-06]	106	3	7	5	2	1	1	3	2	1	1349	2	1	0	840	3	1816	Mushroom14.bmp	Screw18.bmp	Screw13.bmp	Screw9.bmp	Screw16.bmp	Screw13.bmp	Fudge17.bmp	26	1	1	1	1	HUMANMEDIZIN
FAUST_1[2014-06]	106	3	14	5	2	2	1	3	1	0	2350	2	1	0	814	1	1871	Lipstick9.bmp	Cake24.bmp	Varnish17.bmp	Cake24.bmp	Varnish3.bmp	Varnish5.bmp	Varnish11.bmp	26	1	1	1	1	HUMANMEDIZIN
FAUST_1[2014-06]	106	3	13	5	2	1	1	3	2	1	1263	1	1	1	599	3	1186	Daff21.bmp	Plug4.bmp	Plug6.bmp	Plug18.bmp	Scissors23.bmp	Plug18.bmp	Plug8.bmp	26	1	1	1	1	HUMANMEDIZIN
FAUST_1[2014-06]	106	3	20	5	2	2	1	3	2	1	1160	1	2	0	489	4	1341	Coins10.bmp	Bag4.bmp	Bag3.bmp	Chocolate6.bmp	Bag5.bmp	Bag21.bmp	Chocolate6.bmp	26	1	1	1	1	HUMANMEDIZIN
FAUST_1[2014-06]	106	3	5	5	2	1	1	3	2	1	1074	1	1	1	404	2	1160	Bracelet18.bmp	Feather2.bmp	Feather11.bmp	Button3.bmp	Feather18.bmp	Feather14.bmp	Feather2.bmp	26	1	1	1	1	HUMANMEDIZIN
FAUST_1[2014-06]	106	3	19	5	2	2	1	3	2	1	1319	2	1	0	713	4	1188	Glass16.bmp	Ginger5.bmp	Onion18.bmp	Ginger5.bmp	Onion19.bmp	Onion7.bmp	Onion14.bmp	26	1	1	1	1	HUMANMEDIZIN
FAUST_1[2014-06]	106	4	18	5	1	1	1	1	2	0	884	2	1	0	533	2	1852	NIERE	niere	leopard	puma	tiger	puma	gepard	26	1	1	1	1	HUMANMEDIZIN
FAUST_1[2014-06]	106	4	28	5	1	2	1	1	1	1	841	2	1	0	644	4	1393	SCHEUNE	thymian	rosmarin	scheune	majoran	scheune	oregano	26	1	1	1	1	HUMANMEDIZIN
FAUST_1[2014-06]	106	4	9	5	1	1	2	1	2	0	1350	1	1	1	229	1	1747	FÄHRE	meißel	boot	yacht	meißel	kanu	fähre	26	1	1	1	1	HUMANMEDIZIN
FAUST_1[2014-06]	106	4	3	5	1	2	2	1	1	1	1493	2	2	1	778	3	852	ZEITUNG	schwimmen	buch	zeitung	radio	fernsehen	zeitung	26	1	1	1	1	HUMANMEDIZIN
FAUST_1[2014-06]	106	4	7	5	1	1	1	1	1	1	1172	1	2	0	1055	4	1204	GUMMIBÄRCHEN	kohlenstoff	gummibärchen	helium	sauerstoff	helium	wasserstoff	26	1	1	1	1	HUMANMEDIZIN
FAUST_1[2014-06]	106	4	20	5	1	2	1	1	1	1	1367	1	1	1	538	4	1188	VATER	vater	nelke	vater	tulpe	lilie	veilchen	26	1	1	1	1	HUMANMEDIZIN
FAUST_1[2014-06]	106	4	32	5	1	1	2	1	1	1	1711	1	1	1	674	1	1122	DACKEL	dackel	terrier	mops	nebel	dogge	nebel	26	1	1	1	1	HUMANMEDIZIN
FAUST_1[2014-06]	106	4	13	5	1	2	2	1	1	1	1134	1	2	0	547	4	980	SCHWERT	gewehr	schwert	thüringen	pistole	bombe	schwert	26	1	1	1	1	HUMANMEDIZIN
FAUST_1[2014-06]	106	4	14	5	1	1	1	1	2	0	718	2	1	0	327	1	1734	SEHEN	nordamerika	afrika	nordamerika	sehen	südamerika	asien	26	1	1	1	1	HUMANMEDIZIN
FAUST_1[2014-06]	106	4	24	5	1	2	1	1	1	1	1731	1	1	1	1141	4	906	WINDPOCKEN	windpocken	lesen	zeichnen	basteln	malen	windpocken	26	1	1	1	1	HUMANMEDIZIN
FAUST_1[2014-06]	106	4	19	5	1	1	2	1	1	1	1475	1	1	1	403	1	1047	FLUSS	scrabble	ozean	meer	fluss	scrabble	teich	26	1	1	1	1	HUMANMEDIZIN
FAUST_1[2014-06]	106	4	6	5	1	2	2	1	1	1	1817	1	2	0	791	4	1122	BRATWURST	pommes	nudelholz	bratwurst	hamburger	bratwurst	pizza	26	1	1	1	1	HUMANMEDIZIN
FAUST_1[2014-06]	106	4	25	5	1	1	1	2	2	1	3220	1	1	1	320	1	905	STUHL	kino	sofa	zirkus	oper	theater	kino	26	1	1	1	1	HUMANMEDIZIN
FAUST_1[2014-06]	106	4	5	5	1	2	1	2	2	1	1119	2	2	1	464	3	1100	HAFER	roggen	häkelnadel	roggen	stricknadel	nähnadel	sicherheitsnadel	26	1	1	1	1	HUMANMEDIZIN
FAUST_1[2014-06]	106	4	27	5	1	1	2	2	2	1	1377	2	2	1	658	3	1095	SYNAGOGE	tanne	kapelle	tempel	tanne	moschee	kirche	26	1	1	1	1	HUMANMEDIZIN
FAUST_1[2014-06]	106	4	11	5	1	2	2	2	2	1	2669	2	2	1	257	1	1109	SCHWEIZ	dänemark	österreich	merkur	italien	england	dänemark	26	1	1	1	1	HUMANMEDIZIN
FAUST_1[2014-06]	106	4	12	5	1	1	1	2	2	1	2119	2	2	1	683	2	1047	BEETHOVEN	tag	jahr	tag	vivaldi	sekunde	stunde	26	1	1	1	1	HUMANMEDIZIN
FAUST_1[2014-06]	106	4	26	5	1	2	1	2	2	1	2801	1	1	1	1193	4	1321	SPINAT	bohnen	gin	whiskey	bohnen	rum	tequila	26	1	1	1	1	HUMANMEDIZIN
FAUST_1[2014-06]	106	4	23	5	1	1	2	2	2	1	1362	2	1	0	530	2	789	KUGELSCHREIBER	bleistift	füller	verb	filzstift	buntstift	verb	26	1	1	1	1	HUMANMEDIZIN
FAUST_1[2014-06]	106	4	22	5	1	2	2	2	1	0	1345	1	1	1	975	4	1368	VAMPIR	zombie	hexe	werwolf	handbremse	dämon	zombie	26	1	1	1	1	HUMANMEDIZIN
FAUST_1[2014-06]	106	4	15	5	1	1	1	2	2	1	1073	2	1	0	1235	3	1093	SCHÜTZE	apfel	erdbeere	steinbock	erdbeere	pflaume	banane	26	1	1	1	1	HUMANMEDIZIN
FAUST_1[2014-06]	106	4	21	5	1	2	1	2	2	1	1003	2	1	0	504	4	1499	KANNE	mathematik	biologie	glas	erdkunde	glas	physik	26	1	1	1	1	HUMANMEDIZIN
FAUST_1[2014-06]	106	4	1	5	1	1	2	2	1	0	1965	2	1	0	983	1	1084	WOLLE	flanell	wespe	leinen	baumwolle	wespe	seide	26	1	1	1	1	HUMANMEDIZIN
FAUST_1[2014-06]	106	4	2	5	1	2	2	2	2	1	1905	2	1	0	247	1	939	BLUSE	hose	cent	rock	hemd	jacke	rock	26	1	1	1	1	HUMANMEDIZIN
FAUST_1[2014-06]	106	4	29	5	1	1	1	3	2	1	937	1	2	0	1406	4	1115	HAND	rouge	brotmesser	lidschatten	rouge	lippenstift	kajal	26	1	1	1	1	HUMANMEDIZIN
FAUST_1[2014-06]	106	4	16	5	1	2	1	3	2	1	1311	2	2	1	225	2	1107	PETROLEUM	forelle	western	thriller	komödie	actionfilm	forelle	26	1	1	1	1	HUMANMEDIZIN
FAUST_1[2014-06]	106	4	30	5	1	1	1	3	2	1	1675	1	1	1	766	2	2025	KAMERA	haschisch	opium	haschisch	kokain	heroin	hauptschule	26	1	1	1	1	HUMANMEDIZIN
FAUST_1[2014-06]	106	4	17	5	1	2	1	3	2	1	1354	1	1	1	194	3	1799	TROMPETE	hamburg	kilometer	millimeter	hamburg	zentimeter	meter	26	1	1	1	1	HUMANMEDIZIN
FAUST_1[2014-06]	106	4	8	5	1	1	1	3	2	1	1651	2	1	0	436	3	2101	KAISER	fink	meise	taube	amsel	meise	lehrer	26	1	1	1	1	HUMANMEDIZIN
FAUST_1[2014-06]	106	4	4	5	1	2	1	3	2	1	1686	2	2	1	862	3	1406	TANGO	volvo	quadrat	volvo	kreis	viereck	rechteck	26	1	1	1	1	HUMANMEDIZIN
FAUST_1[2014-06]	106	4	10	5	1	1	1	3	1	0	1388	2	1	0	1090	1	1567	SCHAM	main	eisen	silber	messing	gold	eisen	26	1	1	1	1	HUMANMEDIZIN
FAUST_1[2014-06]	106	4	31	5	1	2	1	3	2	1	1553	1	2	0	335	3	879	ZUG	locher	brieföffner	blau	lineal	büroklammer	blau	26	1	1	1	1	HUMANMEDIZIN
