experiment	subject	block	trial	order	material	repeated	related	probetype	response	correct	rt	math_response	math_correctresponse	math_correct	math_rt	confidence	confidence_rt	probe	item1	item2	item3	item4	item5	item6	age	sex	handedness	color_vision	mother_tongue	occupation
FAUST_1[2014-06]	109	1	9	4	2	1	1	1	2	0	4559	1	1	1	2315	2	1353	Button18.bmp	Plug18.bmp	Plug6.bmp	Button18.bmp	Plug6.bmp	Plug4.bmp	Plug8.bmp	19	1	1	1	1	PSYCHOLOGIE
FAUST_1[2014-06]	109	1	19	4	2	2	1	1	1	1	1294	1	2	0	1689	4	1328	Lipstick15.bmp	Sweet25.bmp	Lipstick15.bmp	Sweet18.bmp	Lipstick15.bmp	Sweet10.bmp	Sweet22.bmp	19	1	1	1	1	PSYCHOLOGIE
FAUST_1[2014-06]	109	1	22	4	2	1	2	1	1	1	1406	2	2	1	1894	4	1440	Apple5.bmp	Apple10.bmp	Varnish5.bmp	Apple21.bmp	Apple18.bmp	Varnish5.bmp	Apple5.bmp	19	1	1	1	1	PSYCHOLOGIE
FAUST_1[2014-06]	109	1	11	4	2	2	2	1	1	1	1701	2	1	0	1780	3	1573	Screw16.bmp	Screw16.bmp	Scissors11.bmp	Screw10.bmp	Screw18.bmp	Screw16.bmp	Screw9.bmp	19	1	1	1	1	PSYCHOLOGIE
FAUST_1[2014-06]	109	1	8	4	2	1	1	1	1	1	1852	2	1	0	1736	3	2364	Candle20.bmp	Bun5.bmp	Bun17.bmp	Candle20.bmp	Bun22.bmp	Bun12.bmp	Bun22.bmp	19	1	1	1	1	PSYCHOLOGIE
FAUST_1[2014-06]	109	1	15	4	2	2	1	1	1	1	1623	2	1	0	2656	3	1157	Feather12.bmp	Coins8.bmp	Coins10.bmp	Feather12.bmp	Coins14.bmp	Coins12.bmp	Feather12.bmp	19	1	1	1	1	PSYCHOLOGIE
FAUST_1[2014-06]	109	1	5	4	2	1	2	1	2	0	7626	1	2	0	2853	2	1171	Pear7.bmp	Flower13.bmp	Pear7.bmp	Pear16.bmp	Pear15.bmp	Pear4.bmp	Flower13.bmp	19	1	1	1	1	PSYCHOLOGIE
FAUST_1[2014-06]	109	1	20	4	2	2	2	1	1	1	1348	1	1	1	2134	3	1583	Fork9.bmp	Fork9.bmp	Fork8.bmp	Fork17.bmp	Onion18.bmp	Fork9.bmp	Fork7.bmp	19	1	1	1	1	PSYCHOLOGIE
FAUST_1[2014-06]	109	1	14	4	2	1	1	2	2	1	1387	1	1	1	2133	3	1571	Chilli19.bmp	Hanger7.bmp	Hanger12.bmp	Hanger2.bmp	Hanger15.bmp	Hanger2.bmp	Chilli11.bmp	19	1	1	1	1	PSYCHOLOGIE
FAUST_1[2014-06]	109	1	7	4	2	2	1	2	2	1	1457	2	1	0	2121	4	1430	Man24.bmp	Man15.bmp	Umbrella6.bmp	Man15.bmp	Umbrella7.bmp	Umbrella21.bmp	Umbrella19.bmp	19	1	1	1	1	PSYCHOLOGIE
FAUST_1[2014-06]	109	1	13	4	2	1	2	2	1	0	2480	1	2	0	2487	3	1921	Fudge15.bmp	Bracelet1.bmp	Fudge20.bmp	Fudge5.bmp	Fudge8.bmp	Fudge17.bmp	Bracelet1.bmp	19	1	1	1	1	PSYCHOLOGIE
FAUST_1[2014-06]	109	1	4	4	2	2	2	2	2	1	2572	2	1	0	2321	3	1689	Strawberry3.bmp	Strawberry14.bmp	Strawberry18.bmp	Strawberry4.bmp	Strawberry21.bmp	Holly11.bmp	Strawberry18.bmp	19	1	1	1	1	PSYCHOLOGIE
FAUST_1[2014-06]	109	1	2	4	2	1	1	2	2	1	2086	1	1	1	2247	4	2014	Paperclip14.bmp	Paperclip9.bmp	Swirl10.bmp	Swirl1.bmp	Swirl5.bmp	Swirl23.bmp	Swirl5.bmp	19	1	1	1	1	PSYCHOLOGIE
FAUST_1[2014-06]	109	1	21	4	2	2	1	2	2	1	2702	1	1	1	1507	3	1343	Car21.bmp	Cake25.bmp	Car12.bmp	Cake16.bmp	Cake18.bmp	Cake24.bmp	Car12.bmp	19	1	1	1	1	PSYCHOLOGIE
FAUST_1[2014-06]	109	1	3	4	2	1	2	2	1	0	1525	1	1	1	1989	3	2029	Shell1.bmp	Shell18.bmp	Brocolli9.bmp	Shell9.bmp	Brocolli9.bmp	Shell5.bmp	Shell17.bmp	19	1	1	1	1	PSYCHOLOGIE
FAUST_1[2014-06]	109	1	12	4	2	2	2	2	1	0	1507	1	1	1	2071	3	1128	Toothbrush12.bmp	Toothbrush1.bmp	Ginger3.bmp	Toothbrush9.bmp	Toothbrush6.bmp	Toothbrush1.bmp	Toothbrush10.bmp	19	1	1	1	1	PSYCHOLOGIE
FAUST_1[2014-06]	109	1	16	4	2	1	1	3	2	1	1055	1	1	1	1619	4	1188	Mushroom25.bmp	Tomato12.bmp	Star2.bmp	Tomato2.bmp	Tomato3.bmp	Tomato12.bmp	Tomato18.bmp	19	1	1	1	1	PSYCHOLOGIE
FAUST_1[2014-06]	109	1	10	4	2	2	1	3	2	1	1429	1	2	0	2109	3	2218	Stapler10.bmp	String12.bmp	Chocolate24.bmp	Chocolate9.bmp	Chocolate5.bmp	String12.bmp	Chocolate17.bmp	19	1	1	1	1	PSYCHOLOGIE
FAUST_1[2014-06]	109	1	18	4	2	1	1	3	2	1	2191	1	1	1	1893	3	1368	Nut18.bmp	Daff9.bmp	Leaf10.bmp	Daff3.bmp	Daff22.bmp	Daff1.bmp	Daff22.bmp	19	1	1	1	1	PSYCHOLOGIE
FAUST_1[2014-06]	109	1	1	4	2	2	1	3	2	1	3500	1	1	1	2306	3	2100	Pen5.bmp	Hand1.bmp	Hand8.bmp	Hand17.bmp	Bag3.bmp	Hand10.bmp	Bag3.bmp	19	1	1	1	1	PSYCHOLOGIE
FAUST_1[2014-06]	109	1	6	4	2	1	1	3	2	1	2290	1	2	0	2421	3	1905	Jigsaw18.bmp	Keys5.bmp	Keys7.bmp	Biscuit20.bmp	Keys9.bmp	Keys8.bmp	Keys5.bmp	19	1	1	1	1	PSYCHOLOGIE
FAUST_1[2014-06]	109	1	17	4	2	2	1	3	2	1	1276	1	1	1	2089	3	1746	Present9.bmp	Key20.bmp	Glass16.bmp	Glass12.bmp	Glass19.bmp	Glass3.bmp	Key20.bmp	19	1	1	1	1	PSYCHOLOGIE
FAUST_1[2014-06]	109	2	16	4	1	1	1	1	1	1	881	1	2	0	1788	3	1304	BOHNEN	opium	kokain	haschisch	bohnen	opium	heroin	19	1	1	1	1	PSYCHOLOGIE
FAUST_1[2014-06]	109	2	3	4	1	2	1	1	1	1	973	1	1	1	1922	4	1306	HAGEL	lesen	hagel	zeichnen	basteln	hagel	schreiben	19	1	1	1	1	PSYCHOLOGIE
FAUST_1[2014-06]	109	2	4	4	1	1	2	1	1	1	1951	1	1	1	2647	4	1414	AMSEL	schwalbe	meise	italien	amsel	italien	taube	19	1	1	1	1	PSYCHOLOGIE
FAUST_1[2014-06]	109	2	13	4	1	2	2	1	1	1	1364	2	2	1	2420	3	1168	AUDI	peugeot	audi	porsche	hauptschule	audi	volvo	19	1	1	1	1	PSYCHOLOGIE
FAUST_1[2014-06]	109	2	5	4	1	1	1	1	2	0	4208	2	1	0	2268	2	1101	KINO	wimperntusche	kino	lippenstift	wimperntusche	kajal	rouge	19	1	1	1	1	PSYCHOLOGIE
FAUST_1[2014-06]	109	2	29	4	1	2	1	1	1	1	882	1	1	1	1406	4	1629	HAFER	hafer	saturn	pluto	jupiter	merkur	hafer	19	1	1	1	1	PSYCHOLOGIE
FAUST_1[2014-06]	109	2	17	4	1	1	2	1	1	1	1050	2	2	1	1433	3	1094	THÜRINGEN	hessen	saarland	polizist	thüringen	polizist	brandenburg	19	1	1	1	1	PSYCHOLOGIE
FAUST_1[2014-06]	109	2	20	4	1	2	2	1	1	1	833	1	2	0	1391	2	3119	SCHWERT	schwert	pistole	dolch	rückspiegel	bombe	schwert	19	1	1	1	1	PSYCHOLOGIE
FAUST_1[2014-06]	109	2	30	4	1	1	1	1	1	1	741	1	1	1	1882	4	1485	HAMBURGER	zombie	werwolf	vampir	werwolf	hexe	hamburger	19	1	1	1	1	PSYCHOLOGIE
FAUST_1[2014-06]	109	2	9	4	1	2	1	1	1	1	1303	2	1	0	1312	3	1235	BÜROKLAMMER	büroklammer	petroleum	büroklammer	kerosin	benzin	diesel	19	1	1	1	1	PSYCHOLOGIE
FAUST_1[2014-06]	109	2	18	4	1	1	2	1	1	1	816	2	1	0	1969	4	1349	TEMPEL	tempel	rum	kirche	moschee	rum	kapelle	19	1	1	1	1	PSYCHOLOGIE
FAUST_1[2014-06]	109	2	2	4	1	2	2	1	1	1	847	2	2	1	1874	4	1298	DONAU	donau	weser	rhein	donau	gelb	elbe	19	1	1	1	1	PSYCHOLOGIE
FAUST_1[2014-06]	109	2	10	4	1	1	1	2	1	0	1078	1	2	0	1738	4	1431	SÜDAMERIKA	nordamerika	baracke	hütte	schuppen	hütte	scheune	19	1	1	1	1	PSYCHOLOGIE
FAUST_1[2014-06]	109	2	19	4	1	2	1	2	2	1	1353	1	1	1	1899	3	1121	TANGO	foxtrott	backgammon	monopoly	halma	foxtrott	schach	19	1	1	1	1	PSYCHOLOGIE
FAUST_1[2014-06]	109	2	22	4	1	1	2	2	2	1	2275	1	2	0	938	2	1283	NÄHNADEL	stickstoff	häkelnadel	stricknadel	sicherheitsnadel	stickstoff	stecknadel	19	1	1	1	1	PSYCHOLOGIE
FAUST_1[2014-06]	109	2	27	4	1	2	2	2	2	1	1500	2	2	1	2507	3	1523	MEILE	kilometer	zentimeter	meter	millimeter	tochter	millimeter	19	1	1	1	1	PSYCHOLOGIE
FAUST_1[2014-06]	109	2	6	4	1	1	1	2	2	1	1589	1	1	1	2344	3	1546	BIRNE	apfel	lachs	hering	forelle	hering	makrele	19	1	1	1	1	PSYCHOLOGIE
FAUST_1[2014-06]	109	2	11	4	1	2	1	2	1	0	1742	1	2	0	2137	2	2282	SEHEN	buche	schmecken	eiche	birke	schmecken	weide	19	1	1	1	1	PSYCHOLOGIE
FAUST_1[2014-06]	109	2	1	4	1	1	2	2	2	1	1332	1	2	0	2064	3	1718	QUADRAT	dreieck	seide	kreis	viereck	seide	rechteck	19	1	1	1	1	PSYCHOLOGIE
FAUST_1[2014-06]	109	2	32	4	1	2	2	2	2	1	1041	2	2	1	2252	3	1210	BROTMESSER	messer	löffel	teelöffel	messer	western	gabel	19	1	1	1	1	PSYCHOLOGIE
FAUST_1[2014-06]	109	2	31	4	1	1	1	2	2	1	1019	1	1	1	2082	4	1723	TRAUER	kaiser	fürst	könig	graf	angst	fürst	19	1	1	1	1	PSYCHOLOGIE
FAUST_1[2014-06]	109	2	15	4	1	2	1	2	2	1	1136	1	2	0	1971	3	1459	MÜNCHEN	bus	zug	berlin	taxi	berlin	straßenbahn	19	1	1	1	1	PSYCHOLOGIE
FAUST_1[2014-06]	109	2	23	4	1	1	2	2	1	0	2806	1	2	0	2055	2	1531	BUNTSTIFT	kugelschreiber	fußball	filzstift	bleistift	füller	fußball	19	1	1	1	1	PSYCHOLOGIE
FAUST_1[2014-06]	109	2	8	4	1	2	2	2	1	0	1401	2	2	1	1798	2	1712	BACKBLECH	küchenwaage	nudelholz	backform	lilie	backform	pfannenwender	19	1	1	1	1	PSYCHOLOGIE
FAUST_1[2014-06]	109	2	12	4	1	1	1	3	2	1	1081	2	2	1	1503	3	1827	WASSERMANN	sofa	schrank	sofa	stuhl	regal	zeitung	19	1	1	1	1	PSYCHOLOGIE
FAUST_1[2014-06]	109	2	7	4	1	2	1	3	2	1	956	1	1	1	1141	4	1408	DACKEL	adjektiv	kanu	fähre	boot	adjektiv	schiff	19	1	1	1	1	PSYCHOLOGIE
FAUST_1[2014-06]	109	2	24	4	1	1	1	3	2	1	1603	1	1	1	1532	3	1380	MOZART	drucker	computer	kamera	laptop	kamera	pfennig	19	1	1	1	1	PSYCHOLOGIE
FAUST_1[2014-06]	109	2	26	4	1	2	1	3	2	1	930	2	2	1	1801	4	1022	MEIßEL	glas	gummibärchen	bonbons	lakritz	glas	karamell	19	1	1	1	1	PSYCHOLOGIE
FAUST_1[2014-06]	109	2	21	4	1	1	1	3	2	1	886	1	1	1	2729	4	1413	MASERN	niere	puma	gepard	puma	panther	leopard	19	1	1	1	1	PSYCHOLOGIE
FAUST_1[2014-06]	109	2	25	4	1	2	1	3	2	1	892	2	2	1	1884	3	1223	HEMD	fluss	oregano	rosmarin	thymian	koriander	fluss	19	1	1	1	1	PSYCHOLOGIE
FAUST_1[2014-06]	109	2	14	4	1	1	1	3	2	1	916	2	1	0	1815	4	1479	ARM	biologie	trompete	oboe	flöte	posaune	flöte	19	1	1	1	1	PSYCHOLOGIE
FAUST_1[2014-06]	109	2	28	4	1	2	1	3	2	1	1581	2	1	0	2823	3	1734	SEKUNDE	biene	bronze	silber	eisen	biene	gold	19	1	1	1	1	PSYCHOLOGIE
FAUST_1[2014-06]	109	3	14	4	3	1	1	1	1	1	904	2	2	1	1999	4	1222	garbagecan_2.bmp	leatherman_14.bmp	garbagecan_2.bmp	leatherman_10.bmp	leatherman_14.bmp	leatherman_7.bmp	leatherman_2.bmp	19	1	1	1	1	PSYCHOLOGIE
FAUST_1[2014-06]	109	3	27	4	3	2	1	1	1	1	1889	1	1	1	2188	4	1811	parfait_1.bmp	shredder_1.bmp	parfait_1.bmp	shredder_6.bmp	shredder_5.bmp	shredder_15.bmp	parfait_1.bmp	19	1	1	1	1	PSYCHOLOGIE
FAUST_1[2014-06]	109	3	31	4	3	1	2	1	2	0	1777	1	1	1	1745	2	1027	cake_14.bmp	cake_1.bmp	cake_5.bmp	windchime_16.bmp	cake_14.bmp	windchime_16.bmp	cake_4.bmp	19	1	1	1	1	PSYCHOLOGIE
FAUST_1[2014-06]	109	3	22	4	3	2	2	1	1	1	954	1	2	0	2242	4	1272	chair_11.bmp	chair_2.bmp	chair_3.bmp	trunk_3.bmp	chair_11.bmp	chair_5.bmp	chair_11.bmp	19	1	1	1	1	PSYCHOLOGIE
FAUST_1[2014-06]	109	3	12	4	3	1	1	1	1	1	1059	2	1	0	2136	4	1377	tv_5.bmp	tv_5.bmp	pasta_15.bmp	pasta_13.bmp	pasta_15.bmp	pasta_11.bmp	pasta_10.bmp	19	1	1	1	1	PSYCHOLOGIE
FAUST_1[2014-06]	109	3	1	4	3	2	1	1	1	1	1391	2	2	1	1775	4	1364	circuitboard_13.bmp	orifan_7.bmp	orifan_6.bmp	orifan_17.bmp	circuitboard_13.bmp	orifan_1.bmp	circuitboard_13.bmp	19	1	1	1	1	PSYCHOLOGIE
FAUST_1[2014-06]	109	3	5	4	3	1	2	1	1	1	1114	2	2	1	1623	3	1402	wig_6.bmp	wig_7.bmp	laptop_15.bmp	wig_1.bmp	wig_12.bmp	wig_6.bmp	laptop_15.bmp	19	1	1	1	1	PSYCHOLOGIE
FAUST_1[2014-06]	109	3	16	4	3	2	2	1	1	1	975	2	2	1	2181	3	2047	hammer_17.bmp	hammer_17.bmp	hammer_8.bmp	remote_11.bmp	hammer_11.bmp	hammer_17.bmp	hammer_6.bmp	19	1	1	1	1	PSYCHOLOGIE
FAUST_1[2014-06]	109	3	13	4	3	1	1	1	1	1	1261	2	2	1	2018	3	994	babycrib_5.bmp	babycrib_5.bmp	bagel_16.bmp	bagel_14.bmp	bagel_16.bmp	bagel_10.bmp	bagel_4.bmp	19	1	1	1	1	PSYCHOLOGIE
FAUST_1[2014-06]	109	3	3	4	3	2	1	1	2	0	4554	1	1	1	2538	2	1202	lawnmower_3.bmp	lawnmower_3.bmp	goggle_4.bmp	goggle_9.bmp	goggle_1.bmp	goggle_13.bmp	lawnmower_3.bmp	19	1	1	1	1	PSYCHOLOGIE
FAUST_1[2014-06]	109	3	20	4	3	1	2	1	1	1	1458	1	1	1	2587	3	1665	cellphone_3.bmp	cellphone_4.bmp	beanbagchair_3.bmp	cellphone_12.bmp	cellphone_11.bmp	cellphone_3.bmp	beanbagchair_3.bmp	19	1	1	1	1	PSYCHOLOGIE
FAUST_1[2014-06]	109	3	30	4	3	2	2	1	1	1	936	1	1	1	1384	4	952	trumpet_3.bmp	trumpet_3.bmp	trumpet_1.bmp	trumpet_5.bmp	flashlight_1.bmp	trumpet_3.bmp	trumpet_17.bmp	19	1	1	1	1	PSYCHOLOGIE
FAUST_1[2014-06]	109	3	26	4	3	1	1	2	1	0	1514	2	1	0	411	3	1560	watch_3.bmp	coffee_14.bmp	coffee_15.bmp	coffee_2.bmp	watch_8.bmp	coffee_2.bmp	coffee_1.bmp	19	1	1	1	1	PSYCHOLOGIE
FAUST_1[2014-06]	109	3	19	4	3	2	1	2	2	1	783	1	1	1	1253	3	1861	abacus_4.bmp	backpack_12.bmp	abacus_6.bmp	backpack_6.bmp	backpack_10.bmp	abacus_6.bmp	backpack_16.bmp	19	1	1	1	1	PSYCHOLOGIE
FAUST_1[2014-06]	109	3	21	4	3	1	2	2	1	0	1578	1	1	1	3069	3	1293	glasses_6.bmp	glasses_9.bmp	glasses_15.bmp	glasses_13.bmp	scooter_8.bmp	glasses_8.bmp	scooter_8.bmp	19	1	1	1	1	PSYCHOLOGIE
FAUST_1[2014-06]	109	3	7	4	3	2	2	2	1	0	1526	1	1	1	1718	3	2025	router_5.bmp	birdhouse_7.bmp	router_12.bmp	router_7.bmp	router_6.bmp	router_16.bmp	router_12.bmp	19	1	1	1	1	PSYCHOLOGIE
FAUST_1[2014-06]	109	3	8	4	3	1	1	2	2	1	2169	2	1	0	1707	3	1629	saltpeppershake_8.bmp	horseshoe_12.bmp	horseshoe_4.bmp	horseshoe_3.bmp	horseshoe_6.bmp	horseshoe_4.bmp	saltpeppershake_9.bmp	19	1	1	1	1	PSYCHOLOGIE
FAUST_1[2014-06]	109	3	32	4	3	2	1	2	1	0	1118	1	2	0	2363	2	1976	speaker_10.bmp	speaker_6.bmp	mic_2.bmp	mic_5.bmp	speaker_6.bmp	mic_3.bmp	mic_10.bmp	19	1	1	1	1	PSYCHOLOGIE
FAUST_1[2014-06]	109	3	9	4	3	1	2	2	1	0	1431	1	2	0	1662	3	1197	iceskates_7.bmp	easteregg_5.bmp	iceskates_16.bmp	easteregg_5.bmp	iceskates_9.bmp	iceskates_14.bmp	iceskates_5.bmp	19	1	1	1	1	PSYCHOLOGIE
FAUST_1[2014-06]	109	3	24	4	3	2	2	2	1	0	1904	1	1	1	1228	2	2450	skateboard_16.bmp	skateboard_11.bmp	skateboard_14.bmp	carriage_3.bmp	skateboard_3.bmp	skateboard_15.bmp	skateboard_14.bmp	19	1	1	1	1	PSYCHOLOGIE
FAUST_1[2014-06]	109	3	10	4	3	1	1	2	2	1	1142	1	1	1	2632	3	1393	carabiner_5.bmp	guitar_8.bmp	carabiner_9.bmp	guitar_8.bmp	guitar_10.bmp	guitar_7.bmp	guitar_14.bmp	19	1	1	1	1	PSYCHOLOGIE
FAUST_1[2014-06]	109	3	4	4	3	2	1	2	2	1	6120	2	1	0	1698	2	1654	glove_5.bmp	glove_15.bmp	tricycle_10.bmp	tricycle_5.bmp	glove_15.bmp	tricycle_8.bmp	tricycle_15.bmp	19	1	1	1	1	PSYCHOLOGIE
FAUST_1[2014-06]	109	3	2	4	3	1	2	2	2	1	1586	2	2	1	2601	3	1000	printer_14.bmp	printer_5.bmp	highchair_4.bmp	printer_16.bmp	printer_3.bmp	printer_1.bmp	highchair_4.bmp	19	1	1	1	1	PSYCHOLOGIE
FAUST_1[2014-06]	109	3	18	4	3	2	2	2	2	1	1000	1	1	1	2575	3	1788	shoe_15.bmp	shoe_7.bmp	rollerskates_7.bmp	shoe_17.bmp	shoe_7.bmp	shoe_9.bmp	shoe_13.bmp	19	1	1	1	1	PSYCHOLOGIE
FAUST_1[2014-06]	109	3	11	4	3	1	1	3	2	1	1263	1	1	1	1375	4	1456	sink_10.bmp	rusdoll_8.bmp	rusdoll_3.bmp	rusdoll_5.bmp	rusdoll_6.bmp	sofa_6.bmp	rusdoll_8.bmp	19	1	1	1	1	PSYCHOLOGIE
FAUST_1[2014-06]	109	3	29	4	3	2	1	3	2	1	1240	1	1	1	1896	4	1245	doorknob_14.bmp	watergun_8.bmp	trophy_16.bmp	trophy_14.bmp	trophy_4.bmp	trophy_15.bmp	watergun_8.bmp	19	1	1	1	1	PSYCHOLOGIE
FAUST_1[2014-06]	109	3	25	4	3	1	1	3	2	1	1069	2	2	1	425	3	2302	hairbrush_16.bmp	cheesegrater_8.bmp	cheesegrater_15.bmp	cheesegrater_11.bmp	videogamecontroller_5.bmp	cheesegrater_5.bmp	cheesegrater_8.bmp	19	1	1	1	1	PSYCHOLOGIE
FAUST_1[2014-06]	109	3	17	4	3	2	1	3	2	1	955	1	1	1	1839	3	1255	camera_9.bmp	hairdryer_14.bmp	hairdryer_7.bmp	hairdryer_2.bmp	saddle_15.bmp	hairdryer_12.bmp	saddle_15.bmp	19	1	1	1	1	PSYCHOLOGIE
FAUST_1[2014-06]	109	3	28	4	3	1	1	3	2	1	758	1	1	1	2070	4	1161	fan_17.bmp	socks_12.bmp	jacket_7.bmp	socks_15.bmp	socks_12.bmp	socks_13.bmp	socks_4.bmp	19	1	1	1	1	PSYCHOLOGIE
FAUST_1[2014-06]	109	3	6	4	3	2	1	3	2	1	1088	2	2	1	1667	3	1353	powerstrip_10.bmp	turtle_11.bmp	cat_4.bmp	turtle_6.bmp	turtle_12.bmp	turtle_2.bmp	cat_4.bmp	19	1	1	1	1	PSYCHOLOGIE
FAUST_1[2014-06]	109	3	15	4	3	1	1	3	2	1	992	2	1	0	2897	4	1016	plant_2.bmp	bowlingpin_13.bmp	bowlingpin_1.bmp	cherubstatue_10.bmp	bowlingpin_11.bmp	bowlingpin_4.bmp	bowlingpin_11.bmp	19	1	1	1	1	PSYCHOLOGIE
FAUST_1[2014-06]	109	3	23	4	3	2	1	3	2	1	959	2	2	1	2077	4	1471	ring_12.bmp	doorknocker_4.bmp	vase_15.bmp	vase_5.bmp	doorknocker_4.bmp	vase_1.bmp	vase_6.bmp	19	1	1	1	1	PSYCHOLOGIE
FAUST_1[2014-06]	109	2	4	4	2	1	1	1	1	1	684	1	1	1	1215	4	1224	Coins14.bmp	Nut11.bmp	Nut21.bmp	Nut2.bmp	Coins14.bmp	Nut11.bmp	Nut18.bmp	19	1	1	1	1	PSYCHOLOGIE
FAUST_1[2014-06]	109	2	15	4	2	2	1	1	1	1	830	1	1	1	2000	4	1060	Ginger17.bmp	Present17.bmp	Ginger17.bmp	Present14.bmp	Present9.bmp	Ginger17.bmp	Present3.bmp	19	1	1	1	1	PSYCHOLOGIE
FAUST_1[2014-06]	109	2	13	4	2	1	2	1	1	1	1052	1	1	1	1499	3	788	Lipstick15.bmp	Swirl5.bmp	Lipstick2.bmp	Swirl5.bmp	Lipstick9.bmp	Lipstick15.bmp	Lipstick7.bmp	19	1	1	1	1	PSYCHOLOGIE
FAUST_1[2014-06]	109	2	16	4	2	2	2	1	1	1	744	1	1	1	1935	4	889	Bun17.bmp	Bun17.bmp	Holly11.bmp	Bun5.bmp	Bun12.bmp	Bun22.bmp	Bun17.bmp	19	1	1	1	1	PSYCHOLOGIE
FAUST_1[2014-06]	109	2	19	4	2	1	1	1	1	1	3077	1	1	1	2008	2	883	Scissors14.bmp	Stapler6.bmp	Stapler10.bmp	Scissors14.bmp	Stapler8.bmp	Stapler9.bmp	Stapler10.bmp	19	1	1	1	1	PSYCHOLOGIE
FAUST_1[2014-06]	109	2	7	4	2	2	1	1	2	0	1600	2	1	0	1391	2	1239	Shell17.bmp	Shell17.bmp	Strawberry18.bmp	Strawberry14.bmp	Strawberry21.bmp	Strawberry4.bmp	Shell17.bmp	19	1	1	1	1	PSYCHOLOGIE
FAUST_1[2014-06]	109	2	6	4	2	1	2	1	1	1	768	1	1	1	1641	4	1096	String6.bmp	String2.bmp	Daff21.bmp	String12.bmp	Daff21.bmp	String6.bmp	String8.bmp	19	1	1	1	1	PSYCHOLOGIE
FAUST_1[2014-06]	109	2	12	4	2	2	2	1	1	1	1040	1	2	0	2340	4	1200	Car7.bmp	Car7.bmp	Tomato12.bmp	Car21.bmp	Car13.bmp	Car14.bmp	Car7.bmp	19	1	1	1	1	PSYCHOLOGIE
FAUST_1[2014-06]	109	2	3	4	2	1	1	2	1	0	879	1	2	0	1701	3	1485	Cake16.bmp	Screw16.bmp	Cake7.bmp	Screw13.bmp	Screw10.bmp	Screw13.bmp	Screw18.bmp	19	1	1	1	1	PSYCHOLOGIE
FAUST_1[2014-06]	109	2	18	4	2	2	1	2	1	0	1076	1	2	0	2032	3	971	Toothbrush12.bmp	Toothbrush9.bmp	Pen1.bmp	Toothbrush9.bmp	Pen5.bmp	Pen10.bmp	Pen17.bmp	19	1	1	1	1	PSYCHOLOGIE
FAUST_1[2014-06]	109	2	20	4	2	1	2	2	1	0	1129	2	2	1	1912	3	900	Key20.bmp	Key9.bmp	Key13.bmp	Plug8.bmp	Key5.bmp	Key11.bmp	Plug8.bmp	19	1	1	1	1	PSYCHOLOGIE
FAUST_1[2014-06]	109	2	17	4	2	2	2	2	1	0	691	2	2	1	2261	4	1175	Biscuit4.bmp	Biscuit17.bmp	Bracelet1.bmp	Biscuit9.bmp	Biscuit25.bmp	Biscuit17.bmp	Biscuit20.bmp	19	1	1	1	1	PSYCHOLOGIE
FAUST_1[2014-06]	109	2	22	4	2	1	1	2	1	0	1026	2	2	1	1880	3	1478	Umbrella6.bmp	Mushroom18.bmp	Mushroom7.bmp	Mushroom18.bmp	Umbrella7.bmp	Mushroom14.bmp	Mushroom6.bmp	19	1	1	1	1	PSYCHOLOGIE
FAUST_1[2014-06]	109	2	1	4	2	2	1	2	1	0	1360	1	2	0	901	4	1241	Star7.bmp	Man24.bmp	Man15.bmp	Star1.bmp	Man2.bmp	Man10.bmp	Star1.bmp	19	1	1	1	1	PSYCHOLOGIE
FAUST_1[2014-06]	109	2	21	4	2	1	2	2	2	1	4547	1	1	1	957	2	1445	Onion19.bmp	Onion18.bmp	Onion14.bmp	Brocolli14.bmp	Onion13.bmp	Brocolli14.bmp	Onion7.bmp	19	1	1	1	1	PSYCHOLOGIE
FAUST_1[2014-06]	109	2	5	4	2	2	2	2	2	1	4955	2	2	1	1352	2	961	Hand8.bmp	Hand10.bmp	Hand1.bmp	Hand17.bmp	Chocolate24.bmp	Hand13.bmp	Hand1.bmp	19	1	1	1	1	PSYCHOLOGIE
FAUST_1[2014-06]	109	2	11	4	2	1	1	3	2	1	1188	1	1	1	1149	2	827	Bag3.bmp	Keys7.bmp	Keys9.bmp	Keys8.bmp	Keys5.bmp	Fudge20.bmp	Keys5.bmp	19	1	1	1	1	PSYCHOLOGIE
FAUST_1[2014-06]	109	2	10	4	2	2	1	3	2	1	832	2	2	1	1965	4	1161	Apple18.bmp	Varnish14.bmp	Candle1.bmp	Candle17.bmp	Varnish14.bmp	Candle10.bmp	Candle13.bmp	19	1	1	1	1	PSYCHOLOGIE
FAUST_1[2014-06]	109	2	9	4	2	1	1	3	2	1	873	1	2	0	2234	4	868	Pear16.bmp	Jigsaw17.bmp	Jigsaw11.bmp	Jigsaw18.bmp	Chilli14.bmp	Jigsaw18.bmp	Jigsaw14.bmp	19	1	1	1	1	PSYCHOLOGIE
FAUST_1[2014-06]	109	2	8	4	2	2	1	3	2	1	817	1	1	1	1542	4	988	Button10.bmp	Leaf15.bmp	Flower18.bmp	Leaf13.bmp	Leaf21.bmp	Leaf22.bmp	Flower18.bmp	19	1	1	1	1	PSYCHOLOGIE
FAUST_1[2014-06]	109	2	2	4	2	1	1	3	2	1	915	1	1	1	1357	4	995	Glass16.bmp	Fork7.bmp	Fork9.bmp	Fork17.bmp	Fork14.bmp	Sweet22.bmp	Fork17.bmp	19	1	1	1	1	PSYCHOLOGIE
FAUST_1[2014-06]	109	2	14	4	2	2	1	3	2	1	720	2	2	1	1603	4	1105	Hanger2.bmp	Feather18.bmp	Feather12.bmp	Feather11.bmp	Paperclip4.bmp	Feather2.bmp	Paperclip4.bmp	19	1	1	1	1	PSYCHOLOGIE
FAUST_1[2014-06]	109	3	12	4	1	1	1	1	1	1	1116	1	1	1	373	3	971	HEROIN	sehen	hören	sehen	heroin	fühlen	schmecken	19	1	1	1	1	PSYCHOLOGIE
FAUST_1[2014-06]	109	3	14	4	1	2	1	1	1	1	1198	1	2	0	2490	3	1557	MARK	gewehr	mark	bombe	mark	pistole	schwert	19	1	1	1	1	PSYCHOLOGIE
FAUST_1[2014-06]	109	3	17	4	1	1	2	1	1	1	999	1	2	0	2547	4	859	ROGGEN	scheune	dinkel	roggen	weizen	gerste	scheune	19	1	1	1	1	PSYCHOLOGIE
FAUST_1[2014-06]	109	3	7	4	1	2	2	1	1	1	2297	1	1	1	2149	2	1355	FERNSEHEN	internet	buch	fernsehen	zeitung	teich	fernsehen	19	1	1	1	1	PSYCHOLOGIE
FAUST_1[2014-06]	109	3	4	4	1	1	1	1	1	1	852	2	2	1	2432	3	1148	SÜDAMERIKA	lilie	veilchen	rose	tulpe	rose	südamerika	19	1	1	1	1	PSYCHOLOGIE
FAUST_1[2014-06]	109	3	22	4	1	2	1	1	1	1	730	1	2	0	1854	4	1542	DIESEL	diesel	ameise	diesel	biene	mücke	wespe	19	1	1	1	1	PSYCHOLOGIE
FAUST_1[2014-06]	109	3	16	4	1	1	2	1	1	1	1034	1	1	1	2062	3	1127	ONKEL	vater	onkel	tochter	sekunde	sohn	sekunde	19	1	1	1	1	PSYCHOLOGIE
FAUST_1[2014-06]	109	3	23	4	1	2	2	1	1	1	977	2	2	1	882	3	1275	AUDI	audi	volvo	porsche	makrele	mercedes	audi	19	1	1	1	1	PSYCHOLOGIE
FAUST_1[2014-06]	109	3	24	4	1	1	1	1	2	0	1383	1	1	1	1630	2	1349	SCHNEE	schiff	fähre	kanu	boot	schnee	kanu	19	1	1	1	1	PSYCHOLOGIE
FAUST_1[2014-06]	109	3	18	4	1	2	1	1	1	1	793	2	1	0	1936	3	841	WODKA	scham	ärger	angst	wodka	freude	wodka	19	1	1	1	1	PSYCHOLOGIE
FAUST_1[2014-06]	109	3	28	4	1	1	2	1	2	0	859	2	2	1	2636	2	2462	SKIFAHREN	skifahren	golf	taube	fußball	tennis	taube	19	1	1	1	1	PSYCHOLOGIE
FAUST_1[2014-06]	109	3	21	4	1	2	2	1	1	1	841	2	1	0	1001	4	1158	MÜNCHEN	teelöffel	münchen	hamburg	münchen	hannover	berlin	19	1	1	1	1	PSYCHOLOGIE
FAUST_1[2014-06]	109	3	13	4	1	1	1	2	2	1	3414	1	2	0	465	3	826	WASSERMANN	walzer	foxtrott	jungfrau	chachacha	tango	foxtrott	19	1	1	1	1	PSYCHOLOGIE
FAUST_1[2014-06]	109	3	5	4	1	2	1	2	2	1	1035	2	2	1	2143	3	961	TISCH	sofa	präposition	nomen	verb	adverb	sofa	19	1	1	1	1	PSYCHOLOGIE
FAUST_1[2014-06]	109	3	29	4	1	1	2	2	2	1	955	1	1	1	1760	3	1173	GRAF	arm	könig	arm	herzog	kaiser	fürst	19	1	1	1	1	PSYCHOLOGIE
FAUST_1[2014-06]	109	3	8	4	1	2	2	2	2	1	1454	1	1	1	1827	4	915	KARAMELL	straßenbahn	lakritz	gummibärchen	lakritz	marzipan	bonbons	19	1	1	1	1	PSYCHOLOGIE
FAUST_1[2014-06]	109	3	6	4	1	1	1	2	2	1	1022	1	1	1	2062	3	963	GOLD	stickstoff	wasserstoff	messing	stickstoff	sauerstoff	kohlenstoff	19	1	1	1	1	PSYCHOLOGIE
FAUST_1[2014-06]	109	3	1	4	1	2	1	2	2	1	878	1	1	1	982	4	1104	HERZ	magen	panther	magen	tiger	puma	gepard	19	1	1	1	1	PSYCHOLOGIE
FAUST_1[2014-06]	109	3	11	4	1	1	2	2	2	1	1001	1	1	1	568	3	953	OPER	kino	konzertsaal	zombie	theater	zombie	zirkus	19	1	1	1	1	PSYCHOLOGIE
FAUST_1[2014-06]	109	3	9	4	1	2	2	2	2	1	3445	2	1	0	1599	3	1370	GRÜN	blau	lila	gelb	saturn	lila	rot	19	1	1	1	1	PSYCHOLOGIE
FAUST_1[2014-06]	109	3	25	4	1	1	1	2	2	1	945	2	2	1	2273	3	874	TEMPEL	kamera	kirche	drucker	computer	laptop	computer	19	1	1	1	1	PSYCHOLOGIE
FAUST_1[2014-06]	109	3	3	4	1	2	1	2	2	1	1059	2	1	0	928	4	1717	FÜLLER	buntstift	bohrer	zange	säge	meißel	buntstift	19	1	1	1	1	PSYCHOLOGIE
FAUST_1[2014-06]	109	3	15	4	1	1	2	2	2	1	1070	2	2	1	1644	3	1320	BRIEFÖFFNER	oregano	lineal	oregano	klebeband	büroklammer	locher	19	1	1	1	1	PSYCHOLOGIE
FAUST_1[2014-06]	109	3	2	4	1	2	2	2	2	1	1017	1	1	1	1912	3	1060	SEIDE	baumwolle	flanell	leinen	glas	flanell	wolle	19	1	1	1	1	PSYCHOLOGIE
FAUST_1[2014-06]	109	3	30	4	1	1	1	3	2	1	1078	1	2	0	2209	3	1110	BOHNEN	dreieck	meile	millimeter	kilometer	meile	zentimeter	19	1	1	1	1	PSYCHOLOGIE
FAUST_1[2014-06]	109	3	26	4	1	2	1	3	2	1	936	2	1	0	2306	3	1395	BRANDENBURG	schweiz	england	österreich	backform	dänemark	backform	19	1	1	1	1	PSYCHOLOGIE
FAUST_1[2014-06]	109	3	31	4	1	1	1	3	2	1	903	2	2	1	1980	3	1058	BIOLOGIE	lidschatten	lippenstift	rouge	kupplung	wimperntusche	rouge	19	1	1	1	1	PSYCHOLOGIE
FAUST_1[2014-06]	109	3	10	4	1	2	1	3	2	1	1406	1	1	1	1975	3	915	SCHACH	schäferhund	mops	döner	dackel	döner	dogge	19	1	1	1	1	PSYCHOLOGIE
FAUST_1[2014-06]	109	3	32	4	1	1	1	3	2	1	917	1	1	1	1766	4	899	PFARRER	häkelnadel	horrorfilm	stricknadel	häkelnadel	nähnadel	sicherheitsnadel	19	1	1	1	1	PSYCHOLOGIE
FAUST_1[2014-06]	109	3	20	4	1	2	1	3	2	1	1264	1	1	1	1440	3	1397	OBOE	chopin	vivaldi	röteln	brahms	mozart	röteln	19	1	1	1	1	PSYCHOLOGIE
FAUST_1[2014-06]	109	3	19	4	1	1	1	3	2	1	1094	2	2	1	2797	3	1577	APFEL	weide	gymnasium	birke	buche	eiche	birke	19	1	1	1	1	PSYCHOLOGIE
FAUST_1[2014-06]	109	3	27	4	1	2	1	3	2	1	1265	2	2	1	1698	4	1225	ELBE	bluse	hemd	schreiben	hose	schreiben	rock	19	1	1	1	1	PSYCHOLOGIE
FAUST_1[2014-06]	109	4	7	4	3	1	1	1	1	1	785	2	2	1	1626	4	1085	trophy_14.bmp	wig_12.bmp	wig_1.bmp	wig_7.bmp	trophy_14.bmp	wig_7.bmp	wig_6.bmp	19	1	1	1	1	PSYCHOLOGIE
FAUST_1[2014-06]	109	4	32	4	3	2	1	1	2	0	817	1	2	0	1952	3	1035	laptop_14.bmp	mic_3.bmp	laptop_14.bmp	mic_12.bmp	mic_2.bmp	laptop_14.bmp	mic_5.bmp	19	1	1	1	1	PSYCHOLOGIE
FAUST_1[2014-06]	109	4	10	4	3	1	2	1	1	1	822	1	1	1	1858	3	1029	parfait_11.bmp	coffee_15.bmp	parfait_4.bmp	parfait_11.bmp	parfait_15.bmp	coffee_15.bmp	parfait_13.bmp	19	1	1	1	1	PSYCHOLOGIE
FAUST_1[2014-06]	109	4	31	4	3	2	2	1	1	1	768	1	2	0	2172	4	1479	trunk_5.bmp	trunk_5.bmp	trunk_3.bmp	trunk_1.bmp	trunk_5.bmp	bagel_12.bmp	trunk_2.bmp	19	1	1	1	1	PSYCHOLOGIE
FAUST_1[2014-06]	109	4	22	4	3	1	1	1	1	1	908	1	1	1	2420	3	670	hairdryer_7.bmp	watergun_9.bmp	hairdryer_7.bmp	watergun_9.bmp	watergun_8.bmp	watergun_15.bmp	watergun_3.bmp	19	1	1	1	1	PSYCHOLOGIE
FAUST_1[2014-06]	109	4	18	4	3	2	1	1	1	1	852	1	2	0	1958	3	1348	backpack_13.bmp	glove_5.bmp	backpack_13.bmp	glove_15.bmp	glove_8.bmp	glove_12.bmp	backpack_13.bmp	19	1	1	1	1	PSYCHOLOGIE
FAUST_1[2014-06]	109	4	3	4	3	1	2	1	1	1	722	1	1	1	1943	3	1126	abacus_6.bmp	trumpet_1.bmp	abacus_7.bmp	abacus_15.bmp	trumpet_1.bmp	abacus_2.bmp	abacus_6.bmp	19	1	1	1	1	PSYCHOLOGIE
FAUST_1[2014-06]	109	4	20	4	3	2	2	1	1	1	732	2	1	0	2372	3	923	guitar_5.bmp	guitar_14.bmp	guitar_5.bmp	tricycle_5.bmp	guitar_5.bmp	guitar_10.bmp	guitar_8.bmp	19	1	1	1	1	PSYCHOLOGIE
FAUST_1[2014-06]	109	4	9	4	3	1	1	1	1	1	1373	1	2	0	2386	2	1141	iceskates_14.bmp	socks_15.bmp	socks_4.bmp	socks_10.bmp	iceskates_14.bmp	socks_12.bmp	socks_10.bmp	19	1	1	1	1	PSYCHOLOGIE
FAUST_1[2014-06]	109	4	28	4	3	2	1	1	1	1	1573	2	2	1	1621	4	1672	beanbagchair_3.bmp	speaker_17.bmp	beanbagchair_3.bmp	speaker_15.bmp	speaker_6.bmp	beanbagchair_3.bmp	speaker_10.bmp	19	1	1	1	1	PSYCHOLOGIE
FAUST_1[2014-06]	109	4	1	4	3	1	2	1	1	1	726	1	2	0	1104	3	1257	plant_13.bmp	plant_2.bmp	shoe_9.bmp	plant_5.bmp	shoe_9.bmp	plant_14.bmp	plant_13.bmp	19	1	1	1	1	PSYCHOLOGIE
FAUST_1[2014-06]	109	4	27	4	3	2	2	1	1	1	725	1	1	1	1324	3	881	cake_4.bmp	cake_4.bmp	cake_5.bmp	cake_4.bmp	doorknob_7.bmp	cake_14.bmp	cake_1.bmp	19	1	1	1	1	PSYCHOLOGIE
FAUST_1[2014-06]	109	4	2	4	3	1	1	2	2	1	929	2	2	1	1192	3	1245	hammer_6.bmp	carabiner_9.bmp	carabiner_7.bmp	carabiner_5.bmp	carabiner_2.bmp	carabiner_5.bmp	hammer_17.bmp	19	1	1	1	1	PSYCHOLOGIE
FAUST_1[2014-06]	109	4	12	4	3	2	1	2	2	1	1042	2	2	1	1370	3	909	vase_5.bmp	scooter_5.bmp	vase_13.bmp	scooter_11.bmp	scooter_8.bmp	vase_13.bmp	scooter_4.bmp	19	1	1	1	1	PSYCHOLOGIE
FAUST_1[2014-06]	109	4	25	4	3	1	2	2	1	0	757	1	1	1	1851	4	979	sink_15.bmp	leatherman_14.bmp	sink_10.bmp	sink_11.bmp	sink_6.bmp	sink_1.bmp	leatherman_14.bmp	19	1	1	1	1	PSYCHOLOGIE
FAUST_1[2014-06]	109	4	6	4	3	2	2	2	1	0	1389	1	1	1	2469	3	1127	rollerskates_7.bmp	rollerskates_8.bmp	flashlight_1.bmp	rollerskates_8.bmp	rollerskates_2.bmp	rollerskates_5.bmp	rollerskates_17.bmp	19	1	1	1	1	PSYCHOLOGIE
FAUST_1[2014-06]	109	4	17	4	3	1	1	2	2	1	3998	2	2	1	1602	3	799	camera_7.bmp	turtle_12.bmp	camera_9.bmp	turtle_7.bmp	turtle_12.bmp	turtle_11.bmp	turtle_2.bmp	19	1	1	1	1	PSYCHOLOGIE
FAUST_1[2014-06]	109	4	4	4	3	2	1	2	2	1	2592	1	1	1	1698	3	913	carriage_9.bmp	carriage_2.bmp	babycrib_9.bmp	carriage_2.bmp	babycrib_5.bmp	babycrib_2.bmp	babycrib_7.bmp	19	1	1	1	1	PSYCHOLOGIE
FAUST_1[2014-06]	109	4	11	4	3	1	2	2	1	0	870	1	1	1	2128	3	1404	highchair_10.bmp	highchair_15.bmp	highchair_4.bmp	glasses_6.bmp	highchair_6.bmp	glasses_6.bmp	highchair_3.bmp	19	1	1	1	1	PSYCHOLOGIE
FAUST_1[2014-06]	109	4	26	4	3	2	2	2	1	0	1208	2	1	0	2769	3	733	remote_14.bmp	remote_11.bmp	remote_2.bmp	remote_3.bmp	remote_2.bmp	circuitboard_13.bmp	remote_13.bmp	19	1	1	1	1	PSYCHOLOGIE
FAUST_1[2014-06]	109	4	15	4	3	1	1	2	2	1	3328	2	2	1	1622	2	871	fan_11.bmp	garbagecan_8.bmp	garbagecan_10.bmp	garbagecan_17.bmp	garbagecan_8.bmp	fan_1.bmp	garbagecan_2.bmp	19	1	1	1	1	PSYCHOLOGIE
FAUST_1[2014-06]	109	4	13	4	3	2	1	2	2	1	2938	2	1	0	2441	3	1377	saltpeppershake_9.bmp	saltpeppershake_17.bmp	hairbrush_15.bmp	hairbrush_7.bmp	hairbrush_17.bmp	saltpeppershake_17.bmp	hairbrush_16.bmp	19	1	1	1	1	PSYCHOLOGIE
FAUST_1[2014-06]	109	4	14	4	3	1	2	2	2	1	1267	1	2	0	2188	3	1212	cat_10.bmp	cat_5.bmp	cat_1.bmp	lawnmower_3.bmp	cat_9.bmp	lawnmower_3.bmp	cat_4.bmp	19	1	1	1	1	PSYCHOLOGIE
FAUST_1[2014-06]	109	4	29	4	3	2	2	2	2	1	1074	1	1	1	2328	3	1094	ring_7.bmp	ring_12.bmp	ring_11.bmp	ring_12.bmp	printer_5.bmp	ring_8.bmp	ring_15.bmp	19	1	1	1	1	PSYCHOLOGIE
FAUST_1[2014-06]	109	4	5	4	3	1	1	3	2	1	812	2	1	0	1306	3	784	jacket_10.bmp	chair_2.bmp	chair_11.bmp	chair_3.bmp	powerstrip_13.bmp	chair_5.bmp	chair_11.bmp	19	1	1	1	1	PSYCHOLOGIE
FAUST_1[2014-06]	109	4	16	4	3	2	1	3	2	1	821	1	2	0	2110	4	1131	rusdoll_3.bmp	saddle_8.bmp	saddle_15.bmp	shredder_7.bmp	saddle_4.bmp	shredder_7.bmp	saddle_5.bmp	19	1	1	1	1	PSYCHOLOGIE
FAUST_1[2014-06]	109	4	23	4	3	1	1	3	2	1	1406	2	1	0	1307	3	1149	cellphone_11.bmp	doorknocker_4.bmp	windchime_10.bmp	doorknocker_2.bmp	doorknocker_5.bmp	doorknocker_11.bmp	doorknocker_2.bmp	19	1	1	1	1	PSYCHOLOGIE
FAUST_1[2014-06]	109	4	8	4	3	2	1	3	2	1	694	1	1	1	1785	4	1248	easteregg_17.bmp	sofa_13.bmp	cheesegrater_5.bmp	sofa_12.bmp	sofa_3.bmp	sofa_9.bmp	cheesegrater_5.bmp	19	1	1	1	1	PSYCHOLOGIE
FAUST_1[2014-06]	109	4	24	4	3	1	1	3	2	1	849	1	1	1	2384	3	1442	horseshoe_12.bmp	birdhouse_7.bmp	birdhouse_14.bmp	tv_16.bmp	birdhouse_7.bmp	birdhouse_11.bmp	birdhouse_9.bmp	19	1	1	1	1	PSYCHOLOGIE
FAUST_1[2014-06]	109	4	30	4	3	2	1	3	2	1	1101	1	2	0	1301	4	1442	goggle_13.bmp	pasta_10.bmp	bowlingpin_11.bmp	pasta_11.bmp	pasta_13.bmp	pasta_15.bmp	bowlingpin_11.bmp	19	1	1	1	1	PSYCHOLOGIE
FAUST_1[2014-06]	109	4	19	4	3	1	1	3	2	1	722	1	1	1	1514	3	770	skateboard_15.bmp	videogamecontroller_5.bmp	videogamecontroller_11.bmp	videogamecontroller_3.bmp	videogamecontroller_13.bmp	cherubstatue_10.bmp	videogamecontroller_5.bmp	19	1	1	1	1	PSYCHOLOGIE
FAUST_1[2014-06]	109	4	21	4	3	2	1	3	2	1	2616	2	1	0	2185	3	1053	watch_7.bmp	router_7.bmp	orifan_1.bmp	router_7.bmp	orifan_6.bmp	orifan_14.bmp	orifan_7.bmp	19	1	1	1	1	PSYCHOLOGIE
