experiment	subject	block	trial	order	material	repeated	related	probetype	response	correct	rt	math_response	math_correctresponse	math_correct	math_rt	confidence	confidence_rt	probe	item1	item2	item3	item4	item5	item6	age	sex	handedness	color_vision	mother_tongue	occupation
FAUST_1[2014-06]	111	1	3	4	2	1	1	1	1	1	2163	1	1	1	1962	4	5359	Swirl5.bmp	Glass12.bmp	Glass3.bmp	Glass16.bmp	Glass19.bmp	Swirl5.bmp	Glass3.bmp	23	2	1	1	2	PSYVCHOLOGIE
FAUST_1[2014-06]	111	1	16	4	2	2	1	1	1	1	1280	1	1	1	1794	4	1596	Pen1.bmp	Pen1.bmp	Sweet25.bmp	Sweet22.bmp	Sweet1.bmp	Sweet10.bmp	Pen1.bmp	23	2	1	1	2	PSYVCHOLOGIE
FAUST_1[2014-06]	111	1	5	4	2	1	2	1	1	1	2291	1	1	1	1808	4	1709	Bracelet8.bmp	Bracelet2.bmp	Candle17.bmp	Bracelet1.bmp	Bracelet18.bmp	Candle17.bmp	Bracelet8.bmp	23	2	1	1	2	PSYVCHOLOGIE
FAUST_1[2014-06]	111	1	19	4	2	2	2	1	1	1	1731	1	1	1	3105	4	1285	Ginger15.bmp	Apple24.bmp	Ginger10.bmp	Ginger5.bmp	Ginger15.bmp	Ginger17.bmp	Ginger15.bmp	23	2	1	1	2	PSYVCHOLOGIE
FAUST_1[2014-06]	111	1	17	4	2	1	1	1	1	1	1695	2	2	1	2671	4	1523	Paperclip14.bmp	Present17.bmp	Present3.bmp	Present17.bmp	Present2.bmp	Paperclip14.bmp	Present9.bmp	23	2	1	1	2	PSYVCHOLOGIE
FAUST_1[2014-06]	111	1	14	4	2	2	1	1	1	1	1920	2	2	1	2817	4	1393	Varnish3.bmp	Car14.bmp	Varnish3.bmp	Car21.bmp	Car7.bmp	Car12.bmp	Varnish3.bmp	23	2	1	1	2	PSYVCHOLOGIE
FAUST_1[2014-06]	111	1	1	4	2	1	2	1	1	1	2888	1	1	1	3016	4	3328	Umbrella21.bmp	Umbrella19.bmp	Umbrella17.bmp	Umbrella7.bmp	Shell1.bmp	Umbrella21.bmp	Shell1.bmp	23	2	1	1	2	PSYVCHOLOGIE
FAUST_1[2014-06]	111	1	18	4	2	2	2	1	1	1	1629	2	2	1	1434	4	1347	Chilli19.bmp	Chilli19.bmp	Bag4.bmp	Chilli14.bmp	Chilli19.bmp	Chilli11.bmp	Chilli22.bmp	23	2	1	1	2	PSYVCHOLOGIE
FAUST_1[2014-06]	111	1	13	4	2	1	1	2	1	0	2162	2	2	1	3228	4	2066	Man2.bmp	Man24.bmp	Bun12.bmp	Bun22.bmp	Bun17.bmp	Bun5.bmp	Bun12.bmp	23	2	1	1	2	PSYVCHOLOGIE
FAUST_1[2014-06]	111	1	4	4	2	2	1	2	2	1	5080	2	1	0	1961	2	1674	Star2.bmp	Star17.bmp	Stapler10.bmp	Star17.bmp	Stapler9.bmp	Stapler7.bmp	Stapler8.bmp	23	2	1	1	2	PSYVCHOLOGIE
FAUST_1[2014-06]	111	1	20	4	2	1	2	2	1	0	2624	1	1	1	2968	3	1453	Leaf21.bmp	Flower13.bmp	Leaf13.bmp	Flower13.bmp	Leaf15.bmp	Leaf22.bmp	Leaf10.bmp	23	2	1	1	2	PSYVCHOLOGIE
FAUST_1[2014-06]	111	1	6	4	2	2	2	2	2	1	3147	2	1	0	2516	2	1381	Strawberry4.bmp	Strawberry18.bmp	Strawberry14.bmp	Strawberry21.bmp	Strawberry18.bmp	Strawberry3.bmp	Fudge20.bmp	23	2	1	1	2	PSYVCHOLOGIE
FAUST_1[2014-06]	111	1	7	4	2	1	1	2	1	0	2280	1	2	0	1580	4	2189	String9.bmp	Daff9.bmp	Daff21.bmp	Daff22.bmp	Daff1.bmp	String8.bmp	Daff21.bmp	23	2	1	1	2	PSYVCHOLOGIE
FAUST_1[2014-06]	111	1	22	4	2	2	1	2	2	1	1805	1	1	1	1694	4	1665	Scissors1.bmp	Toothbrush12.bmp	Scissors3.bmp	Toothbrush1.bmp	Toothbrush10.bmp	Toothbrush9.bmp	Scissors3.bmp	23	2	1	1	2	PSYVCHOLOGIE
FAUST_1[2014-06]	111	1	12	4	2	1	2	2	1	0	1440	1	1	1	2406	4	1518	Coins10.bmp	Pear7.bmp	Coins3.bmp	Coins14.bmp	Coins12.bmp	Pear7.bmp	Coins8.bmp	23	2	1	1	2	PSYVCHOLOGIE
FAUST_1[2014-06]	111	1	21	4	2	2	2	2	2	1	6073	1	1	1	2922	3	3673	Button10.bmp	Button18.bmp	Button14.bmp	Button3.bmp	Button18.bmp	Onion7.bmp	Button20.bmp	23	2	1	1	2	PSYVCHOLOGIE
FAUST_1[2014-06]	111	1	9	4	2	1	1	3	2	1	3283	2	2	1	2622	3	1559	Fork14.bmp	Feather2.bmp	Tomato3.bmp	Feather11.bmp	Feather18.bmp	Feather14.bmp	Feather11.bmp	23	2	1	1	2	PSYVCHOLOGIE
FAUST_1[2014-06]	111	1	8	4	2	2	1	3	2	1	2089	2	2	1	2388	4	1678	Hanger15.bmp	Hand13.bmp	Keys8.bmp	Hand8.bmp	Hand1.bmp	Hand17.bmp	Keys8.bmp	23	2	1	1	2	PSYVCHOLOGIE
FAUST_1[2014-06]	111	1	2	4	2	1	1	3	2	1	2520	1	1	1	2737	3	2145	Holly11.bmp	Nut11.bmp	Brocolli14.bmp	Nut19.bmp	Nut18.bmp	Nut2.bmp	Nut19.bmp	23	2	1	1	2	PSYVCHOLOGIE
FAUST_1[2014-06]	111	1	10	4	2	2	1	3	2	1	1724	2	2	1	2060	4	1495	Key13.bmp	Cake7.bmp	Cake16.bmp	Chocolate6.bmp	Cake18.bmp	Cake25.bmp	Chocolate6.bmp	23	2	1	1	2	PSYVCHOLOGIE
FAUST_1[2014-06]	111	1	15	4	2	1	1	3	2	1	2303	2	2	1	2548	4	1771	Screw10.bmp	Biscuit20.bmp	Biscuit25.bmp	Biscuit9.bmp	Lipstick3.bmp	Biscuit4.bmp	Biscuit9.bmp	23	2	1	1	2	PSYVCHOLOGIE
FAUST_1[2014-06]	111	1	11	4	2	2	1	3	2	1	1386	1	1	1	2562	4	2259	Plug6.bmp	Jigsaw18.bmp	Jigsaw14.bmp	Jigsaw11.bmp	Mushroom18.bmp	Jigsaw17.bmp	Mushroom18.bmp	23	2	1	1	2	PSYVCHOLOGIE
FAUST_1[2014-06]	111	2	21	4	1	1	1	1	1	1	1776	-1	2	0	0	4	1767	TULPE	tochter	vater	mutter	tulpe	tochter	sohn	23	2	1	1	2	PSYVCHOLOGIE
FAUST_1[2014-06]	111	2	2	4	1	2	1	1	2	0	213	-1	2	0	0	1	4241	SPINAT	asien	australien	spinat	nordamerika	afrika	spinat	23	2	1	1	2	PSYVCHOLOGIE
FAUST_1[2014-06]	111	2	29	4	1	1	2	1	1	1	1422	1	2	0	1972	4	1576	MÜNCHEN	döner	hannover	hamburg	münchen	stuttgart	döner	23	2	1	1	2	PSYVCHOLOGIE
FAUST_1[2014-06]	111	2	7	4	1	2	2	1	1	1	1830	2	1	0	1786	3	1482	KONZERTSAAL	konzertsaal	kino	kanne	konzertsaal	zirkus	oper	23	2	1	1	2	PSYVCHOLOGIE
FAUST_1[2014-06]	111	2	15	4	1	1	1	1	1	1	2136	2	2	1	1315	3	1612	SAARLAND	saarland	beethoven	mozart	chopin	vivaldi	beethoven	23	2	1	1	2	PSYVCHOLOGIE
FAUST_1[2014-06]	111	2	14	4	1	2	1	1	2	0	1192	1	1	1	1530	3	1699	MEIßEL	meißel	stickstoff	helium	sauerstoff	wasserstoff	meißel	23	2	1	1	2	PSYVCHOLOGIE
FAUST_1[2014-06]	111	2	18	4	1	1	2	1	2	0	2404	2	2	1	2444	1	1176	RHEIN	biene	main	biene	rhein	donau	weser	23	2	1	1	2	PSYVCHOLOGIE
FAUST_1[2014-06]	111	2	27	4	1	2	2	1	2	0	3162	2	2	1	1531	2	1226	PANTHER	panther	leopard	tiger	gepard	arzt	panther	23	2	1	1	2	PSYVCHOLOGIE
FAUST_1[2014-06]	111	2	25	4	1	1	1	1	1	1	1217	2	2	1	2132	4	1545	REGEN	regen	minute	stunde	jahr	minute	tag	23	2	1	1	2	PSYVCHOLOGIE
FAUST_1[2014-06]	111	2	9	4	1	2	1	1	2	0	1878	1	1	1	1710	4	1606	KORIANDER	fluss	meer	koriander	teich	koriander	see	23	2	1	1	2	PSYVCHOLOGIE
FAUST_1[2014-06]	111	2	28	4	1	1	2	1	2	0	970	1	1	1	1621	4	1495	OBOE	posaune	oboe	flöte	rum	klarinette	rum	23	2	1	1	2	PSYVCHOLOGIE
FAUST_1[2014-06]	111	2	31	4	1	2	2	1	2	0	911	1	1	1	1771	1	1651	GRÜN	blau	grün	lila	gelb	bonbons	grün	23	2	1	1	2	PSYVCHOLOGIE
FAUST_1[2014-06]	111	2	23	4	1	1	1	2	2	1	1542	2	2	1	1361	4	1208	FÜHLEN	hören	computer	mobiltelefon	computer	kamera	drucker	23	2	1	1	2	PSYVCHOLOGIE
FAUST_1[2014-06]	111	2	26	4	1	2	1	2	2	1	1073	2	2	1	1446	4	1675	YACHT	arm	hand	schiff	fuß	bein	schiff	23	2	1	1	2	PSYVCHOLOGIE
FAUST_1[2014-06]	111	2	20	4	1	1	2	2	2	1	1121	2	2	1	1511	4	3362	MUMPS	wimperntusche	röteln	masern	wimperntusche	grippe	windpocken	23	2	1	1	2	PSYVCHOLOGIE
FAUST_1[2014-06]	111	2	3	4	1	2	2	2	2	1	1178	1	1	1	1267	4	1548	ROGGEN	hafer	gerste	stuhl	weizen	hafer	dinkel	23	2	1	1	2	PSYVCHOLOGIE
FAUST_1[2014-06]	111	2	6	4	1	1	1	2	1	0	3783	1	2	0	1878	1	1149	HOSE	blockhaus	hütte	scheune	baracke	hemd	blockhaus	23	2	1	1	2	PSYVCHOLOGIE
FAUST_1[2014-06]	111	2	1	4	1	2	1	2	2	1	1866	2	1	0	1956	2	2497	ZWILLING	ärger	scham	schütze	angst	schütze	trauer	23	2	1	1	2	PSYVCHOLOGIE
FAUST_1[2014-06]	111	2	19	4	1	1	2	2	2	1	945	1	1	1	1985	3	2076	LÖFFEL	teelöffel	gabel	volvo	messer	brotmesser	volvo	23	2	1	1	2	PSYVCHOLOGIE
FAUST_1[2014-06]	111	2	12	4	1	2	2	2	1	0	1897	2	1	0	1475	4	1601	SCHWEIZ	italien	zeichnen	england	dänemark	italien	österreich	23	2	1	1	2	PSYVCHOLOGIE
FAUST_1[2014-06]	111	2	5	4	1	1	1	2	2	1	1245	1	1	1	1455	3	1824	DOGGE	pflaume	birne	apfel	erdbeere	schäferhund	pflaume	23	2	1	1	2	PSYVCHOLOGIE
FAUST_1[2014-06]	111	2	16	4	1	2	1	2	2	1	1470	2	2	1	1466	2	2714	ZUG	taxi	amsel	schwalbe	meise	fink	taxi	23	2	1	1	2	PSYVCHOLOGIE
FAUST_1[2014-06]	111	2	24	4	1	1	2	2	2	1	1264	1	1	1	1936	2	1363	CHEMIE	cannabis	biologie	erdkunde	mathematik	physik	cannabis	23	2	1	1	2	PSYVCHOLOGIE
FAUST_1[2014-06]	111	2	32	4	1	2	2	2	1	0	1577	2	1	0	2346	4	2371	VENUS	pluto	saturn	jupiter	merkur	backform	jupiter	23	2	1	1	2	PSYVCHOLOGIE
FAUST_1[2014-06]	111	2	4	4	1	1	1	3	2	1	1165	2	2	1	2644	3	1317	QUADRAT	stricknadel	häkelnadel	stecknadel	tanne	häkelnadel	nähnadel	23	2	1	1	2	PSYVCHOLOGIE
FAUST_1[2014-06]	111	2	8	4	1	2	1	3	2	1	1588	1	1	1	1794	2	1727	GOLF	berufsschule	füller	buntstift	bleistift	berufsschule	kugelschreiber	23	2	1	1	2	PSYVCHOLOGIE
FAUST_1[2014-06]	111	2	13	4	1	1	1	3	2	1	1907	1	1	1	2378	2	1175	LEINEN	hexe	werwolf	magen	zombie	hexe	vampir	23	2	1	1	2	PSYVCHOLOGIE
FAUST_1[2014-06]	111	2	17	4	1	2	1	3	2	1	1004	1	1	1	1067	4	1352	METER	zeitung	horrorfilm	komödie	zeitung	thriller	western	23	2	1	1	2	PSYVCHOLOGIE
FAUST_1[2014-06]	111	2	11	4	1	1	1	3	2	1	1105	2	2	1	2087	3	1044	PISTOLE	adverb	scrabble	halma	monopoly	schach	scrabble	23	2	1	1	2	PSYVCHOLOGIE
FAUST_1[2014-06]	111	2	30	4	1	2	1	3	2	1	974	1	1	1	1817	4	1583	LINEAL	lachs	synagoge	lachs	tempel	kirche	kapelle	23	2	1	1	2	PSYVCHOLOGIE
FAUST_1[2014-06]	111	2	10	4	1	1	1	3	2	1	946	2	2	1	1957	2	1270	GOLD	rückspiegel	lenkrad	euro	handbremse	rückspiegel	kupplung	23	2	1	1	2	PSYVCHOLOGIE
FAUST_1[2014-06]	111	2	22	4	1	2	1	3	2	1	2080	2	1	0	1660	3	1617	FOXTROTT	petroleum	kaiser	benzin	kaiser	bleifrei	kerosin	23	2	1	1	2	PSYVCHOLOGIE
FAUST_1[2014-06]	111	3	21	4	3	1	1	1	1	1	1301	2	2	1	822	4	1373	parfait_13.bmp	guitar_7.bmp	parfait_13.bmp	guitar_8.bmp	guitar_10.bmp	guitar_5.bmp	guitar_8.bmp	23	2	1	1	2	PSYVCHOLOGIE
FAUST_1[2014-06]	111	3	7	4	3	2	1	1	1	1	1227	2	1	0	1626	4	1359	shredder_15.bmp	shredder_15.bmp	videogamecontroller_3.bmp	videogamecontroller_5.bmp	videogamecontroller_11.bmp	shredder_15.bmp	videogamecontroller_2.bmp	23	2	1	1	2	PSYVCHOLOGIE
FAUST_1[2014-06]	111	3	22	4	3	1	2	1	1	1	2171	2	2	1	1555	3	2483	rollerskates_7.bmp	plant_5.bmp	rollerskates_7.bmp	plant_5.bmp	rollerskates_17.bmp	rollerskates_8.bmp	rollerskates_2.bmp	23	2	1	1	2	PSYVCHOLOGIE
FAUST_1[2014-06]	111	3	32	4	3	2	2	1	1	1	1157	2	2	1	1895	4	1405	shoe_17.bmp	shoe_17.bmp	shoe_7.bmp	shoe_17.bmp	powerstrip_10.bmp	shoe_13.bmp	shoe_9.bmp	23	2	1	1	2	PSYVCHOLOGIE
FAUST_1[2014-06]	111	3	15	4	3	1	1	1	1	1	1473	2	2	1	1438	4	1351	trumpet_1.bmp	flashlight_13.bmp	flashlight_2.bmp	flashlight_17.bmp	flashlight_1.bmp	flashlight_17.bmp	trumpet_1.bmp	23	2	1	1	2	PSYVCHOLOGIE
FAUST_1[2014-06]	111	3	30	4	3	2	1	1	1	1	1208	2	1	0	1184	4	1310	backpack_13.bmp	mic_3.bmp	mic_5.bmp	backpack_13.bmp	mic_10.bmp	backpack_13.bmp	mic_12.bmp	23	2	1	1	2	PSYVCHOLOGIE
FAUST_1[2014-06]	111	3	25	4	3	1	2	1	1	1	1513	2	1	0	1262	3	1162	fan_17.bmp	vase_1.bmp	fan_1.bmp	vase_1.bmp	fan_17.bmp	fan_10.bmp	fan_15.bmp	23	2	1	1	2	PSYVCHOLOGIE
FAUST_1[2014-06]	111	3	26	4	3	2	2	1	1	1	1435	1	1	1	1629	4	1676	saltpeppershake_12.bmp	saltpeppershake_12.bmp	saltpeppershake_17.bmp	saltpeppershake_8.bmp	saltpeppershake_12.bmp	jacket_11.bmp	saltpeppershake_2.bmp	23	2	1	1	2	PSYVCHOLOGIE
FAUST_1[2014-06]	111	3	10	4	3	1	1	1	1	1	1485	2	2	1	1296	4	1482	wig_6.bmp	beanbagchair_3.bmp	wig_6.bmp	beanbagchair_3.bmp	beanbagchair_17.bmp	beanbagchair_15.bmp	beanbagchair_12.bmp	23	2	1	1	2	PSYVCHOLOGIE
FAUST_1[2014-06]	111	3	17	4	3	2	1	1	1	1	2848	2	1	0	1607	3	5579	saddle_8.bmp	windchime_10.bmp	saddle_8.bmp	windchime_6.bmp	windchime_3.bmp	saddle_8.bmp	windchime_15.bmp	23	2	1	1	2	PSYVCHOLOGIE
FAUST_1[2014-06]	111	3	27	4	3	1	2	1	1	1	1204	1	1	1	903	4	1863	bagel_12.bmp	bagel_4.bmp	bagel_16.bmp	highchair_10.bmp	bagel_12.bmp	highchair_10.bmp	bagel_10.bmp	23	2	1	1	2	PSYVCHOLOGIE
FAUST_1[2014-06]	111	3	14	4	3	2	2	1	1	1	1364	2	2	1	2265	4	1259	cherubstatue_6.bmp	cherubstatue_6.bmp	hammer_11.bmp	cherubstatue_5.bmp	cherubstatue_10.bmp	cherubstatue_12.bmp	cherubstatue_6.bmp	23	2	1	1	2	PSYVCHOLOGIE
FAUST_1[2014-06]	111	3	28	4	3	1	1	2	1	0	3244	2	1	0	714	3	1817	orifan_6.bmp	hairdryer_2.bmp	hairdryer_7.bmp	hairdryer_13.bmp	orifan_7.bmp	hairdryer_13.bmp	hairdryer_14.bmp	23	2	1	1	2	PSYVCHOLOGIE
FAUST_1[2014-06]	111	3	31	4	3	2	1	2	2	1	1518	1	1	1	2235	4	1534	abacus_2.bmp	carabiner_2.bmp	carabiner_7.bmp	abacus_4.bmp	carabiner_5.bmp	carabiner_6.bmp	abacus_4.bmp	23	2	1	1	2	PSYVCHOLOGIE
FAUST_1[2014-06]	111	3	6	4	3	1	2	2	2	1	1464	1	2	0	1245	4	2240	trunk_3.bmp	trunk_7.bmp	trunk_1.bmp	trunk_5.bmp	doorknocker_2.bmp	trunk_2.bmp	doorknocker_2.bmp	23	2	1	1	2	PSYVCHOLOGIE
FAUST_1[2014-06]	111	3	20	4	3	2	2	2	1	0	2069	1	1	1	1815	4	2220	rusdoll_3.bmp	rusdoll_5.bmp	rusdoll_6.bmp	camera_9.bmp	rusdoll_8.bmp	rusdoll_1.bmp	rusdoll_6.bmp	23	2	1	1	2	PSYVCHOLOGIE
FAUST_1[2014-06]	111	3	18	4	3	1	1	2	2	1	2269	1	1	1	921	3	2528	tricycle_5.bmp	trophy_15.bmp	trophy_14.bmp	trophy_6.bmp	trophy_14.bmp	tricycle_10.bmp	trophy_16.bmp	23	2	1	1	2	PSYVCHOLOGIE
FAUST_1[2014-06]	111	3	29	4	3	2	1	2	2	1	1197	2	2	1	2087	4	1823	cheesegrater_15.bmp	cheesegrater_11.bmp	watch_14.bmp	watch_6.bmp	watch_7.bmp	cheesegrater_11.bmp	watch_8.bmp	23	2	1	1	2	PSYVCHOLOGIE
FAUST_1[2014-06]	111	3	4	4	3	1	2	2	1	0	1735	1	1	1	1800	3	1358	horseshoe_3.bmp	horseshoe_5.bmp	horseshoe_12.bmp	socks_10.bmp	horseshoe_4.bmp	horseshoe_6.bmp	socks_10.bmp	23	2	1	1	2	PSYVCHOLOGIE
FAUST_1[2014-06]	111	3	2	4	3	2	2	2	1	0	1553	2	1	0	928	4	1291	goggle_13.bmp	goggle_9.bmp	goggle_4.bmp	goggle_1.bmp	goggle_4.bmp	goggle_3.bmp	leatherman_5.bmp	23	2	1	1	2	PSYVCHOLOGIE
FAUST_1[2014-06]	111	3	24	4	3	1	1	2	2	1	1262	2	2	1	746	4	1595	cat_9.bmp	cat_4.bmp	scooter_4.bmp	scooter_11.bmp	scooter_8.bmp	scooter_5.bmp	scooter_8.bmp	23	2	1	1	2	PSYVCHOLOGIE
FAUST_1[2014-06]	111	3	11	4	3	2	1	2	2	1	1454	2	2	1	1496	4	1367	turtle_7.bmp	cellphone_12.bmp	turtle_2.bmp	cellphone_3.bmp	cellphone_4.bmp	turtle_2.bmp	cellphone_11.bmp	23	2	1	1	2	PSYVCHOLOGIE
FAUST_1[2014-06]	111	3	9	4	3	1	2	2	2	1	1117	2	2	1	1347	4	1749	speaker_4.bmp	glasses_6.bmp	speaker_6.bmp	speaker_15.bmp	glasses_6.bmp	speaker_10.bmp	speaker_17.bmp	23	2	1	1	2	PSYVCHOLOGIE
FAUST_1[2014-06]	111	3	5	4	3	2	2	2	1	0	2277	2	2	1	1586	4	2161	printer_5.bmp	printer_1.bmp	printer_3.bmp	printer_14.bmp	printer_16.bmp	printer_3.bmp	remote_11.bmp	23	2	1	1	2	PSYVCHOLOGIE
FAUST_1[2014-06]	111	3	1	4	3	1	1	3	2	1	1052	2	2	1	1615	4	1522	hairbrush_17.bmp	cake_3.bmp	pasta_11.bmp	pasta_13.bmp	pasta_9.bmp	pasta_10.bmp	pasta_9.bmp	23	2	1	1	2	PSYVCHOLOGIE
FAUST_1[2014-06]	111	3	8	4	3	2	1	3	2	1	1186	1	1	1	1384	4	1783	babycrib_5.bmp	laptop_16.bmp	laptop_10.bmp	laptop_7.bmp	easteregg_16.bmp	laptop_15.bmp	easteregg_16.bmp	23	2	1	1	2	PSYVCHOLOGIE
FAUST_1[2014-06]	111	3	3	4	3	1	1	3	2	1	1194	2	1	0	1417	4	1406	bowlingpin_1.bmp	doorknob_14.bmp	carriage_12.bmp	doorknob_2.bmp	doorknob_10.bmp	doorknob_7.bmp	doorknob_14.bmp	23	2	1	1	2	PSYVCHOLOGIE
FAUST_1[2014-06]	111	3	19	4	3	2	1	3	2	1	2767	1	2	0	891	4	1628	chair_2.bmp	lawnmower_3.bmp	lawnmower_17.bmp	coffee_15.bmp	lawnmower_15.bmp	lawnmower_8.bmp	coffee_15.bmp	23	2	1	1	2	PSYVCHOLOGIE
FAUST_1[2014-06]	111	3	13	4	3	1	1	3	2	1	1114	1	2	0	962	4	1059	watergun_3.bmp	skateboard_15.bmp	birdhouse_11.bmp	birdhouse_9.bmp	birdhouse_6.bmp	birdhouse_14.bmp	birdhouse_9.bmp	23	2	1	1	2	PSYVCHOLOGIE
FAUST_1[2014-06]	111	3	12	4	3	2	1	3	2	1	1308	2	1	0	1548	4	959	router_5.bmp	iceskates_16.bmp	ring_8.bmp	ring_7.bmp	ring_12.bmp	ring_11.bmp	iceskates_16.bmp	23	2	1	1	2	PSYVCHOLOGIE
FAUST_1[2014-06]	111	3	23	4	3	1	1	3	2	1	1721	2	1	0	1210	4	1800	garbagecan_2.bmp	circuitboard_4.bmp	circuitboard_8.bmp	circuitboard_2.bmp	circuitboard_8.bmp	circuitboard_13.bmp	tv_5.bmp	23	2	1	1	2	PSYVCHOLOGIE
FAUST_1[2014-06]	111	3	16	4	3	2	1	3	2	1	1235	1	1	1	1324	4	2553	sink_10.bmp	glove_10.bmp	sofa_6.bmp	glove_15.bmp	glove_5.bmp	sofa_6.bmp	glove_12.bmp	23	2	1	1	2	PSYVCHOLOGIE
FAUST_1[2014-06]	111	2	16	4	2	1	1	1	1	1	1290	1	2	0	1663	4	1162	Hanger7.bmp	Pear15.bmp	Hanger7.bmp	Pear7.bmp	Pear4.bmp	Pear18.bmp	Pear15.bmp	23	2	1	1	2	PSYVCHOLOGIE
FAUST_1[2014-06]	111	2	21	4	2	2	1	1	1	1	1218	2	1	0	883	4	1791	Present9.bmp	Present9.bmp	Glass4.bmp	Glass12.bmp	Glass3.bmp	Glass16.bmp	Present9.bmp	23	2	1	1	2	PSYVCHOLOGIE
FAUST_1[2014-06]	111	2	18	4	2	1	2	1	1	1	1394	1	1	1	1407	4	1298	Biscuit17.bmp	Biscuit17.bmp	Feather11.bmp	Biscuit25.bmp	Biscuit4.bmp	Feather11.bmp	Biscuit9.bmp	23	2	1	1	2	PSYVCHOLOGIE
FAUST_1[2014-06]	111	2	15	4	2	2	2	1	1	1	1643	1	1	1	1647	4	2306	Coins3.bmp	Coins12.bmp	Leaf15.bmp	Coins3.bmp	Coins10.bmp	Coins8.bmp	Coins3.bmp	23	2	1	1	2	PSYVCHOLOGIE
FAUST_1[2014-06]	111	2	17	4	2	1	1	1	1	1	1370	1	1	1	1489	4	1328	Fork7.bmp	Paperclip14.bmp	Paperclip13.bmp	Paperclip6.bmp	Paperclip4.bmp	Fork7.bmp	Paperclip4.bmp	23	2	1	1	2	PSYVCHOLOGIE
FAUST_1[2014-06]	111	2	9	4	2	2	1	1	1	1	1144	2	2	1	1529	4	1162	Car7.bmp	Car7.bmp	Toothbrush1.bmp	Toothbrush10.bmp	Toothbrush12.bmp	Car7.bmp	Toothbrush9.bmp	23	2	1	1	2	PSYVCHOLOGIE
FAUST_1[2014-06]	111	2	20	4	2	1	2	1	1	1	1211	1	1	1	1271	4	1045	Varnish11.bmp	Varnish5.bmp	Scissors11.bmp	Varnish14.bmp	Varnish17.bmp	Varnish11.bmp	Scissors11.bmp	23	2	1	1	2	PSYVCHOLOGIE
FAUST_1[2014-06]	111	2	10	4	2	2	2	1	1	1	1308	1	1	1	1735	4	1505	Apple10.bmp	Bracelet2.bmp	Apple10.bmp	Apple18.bmp	Apple10.bmp	Apple24.bmp	Apple21.bmp	23	2	1	1	2	PSYVCHOLOGIE
FAUST_1[2014-06]	111	2	14	4	2	1	1	2	2	1	1453	1	1	1	2136	4	1680	Ginger15.bmp	String2.bmp	String8.bmp	String2.bmp	Ginger10.bmp	String12.bmp	String9.bmp	23	2	1	1	2	PSYVCHOLOGIE
FAUST_1[2014-06]	111	2	22	4	2	2	1	2	2	1	932	1	1	1	1442	4	1191	Pen5.bmp	Strawberry18.bmp	Pen20.bmp	Strawberry14.bmp	Strawberry21.bmp	Strawberry4.bmp	Pen20.bmp	23	2	1	1	2	PSYVCHOLOGIE
FAUST_1[2014-06]	111	2	19	4	2	1	2	2	2	1	1130	1	2	0	1757	1	1082	Holly14.bmp	Holly20.bmp	Holly11.bmp	Holly3.bmp	Bag5.bmp	Holly17.bmp	Bag5.bmp	23	2	1	1	2	PSYVCHOLOGIE
FAUST_1[2014-06]	111	2	11	4	2	2	2	2	1	0	1232	2	1	0	1026	3	1862	Onion13.bmp	Onion19.bmp	Onion14.bmp	Bun22.bmp	Onion18.bmp	Onion7.bmp	Onion18.bmp	23	2	1	1	2	PSYVCHOLOGIE
FAUST_1[2014-06]	111	2	4	4	2	1	1	2	2	1	1027	1	1	1	1503	4	1146	Flower14.bmp	Star7.bmp	Star1.bmp	Star19.bmp	Star2.bmp	Flower13.bmp	Star2.bmp	23	2	1	1	2	PSYVCHOLOGIE
FAUST_1[2014-06]	111	2	3	4	2	2	1	2	2	1	1113	2	1	0	1229	4	994	Screw9.bmp	Chocolate17.bmp	Chocolate9.bmp	Chocolate5.bmp	Screw10.bmp	Chocolate6.bmp	Screw10.bmp	23	2	1	1	2	PSYVCHOLOGIE
FAUST_1[2014-06]	111	2	12	4	2	1	2	2	1	0	1227	2	1	0	1043	4	2070	Tomato18.bmp	Tomato5.bmp	Tomato3.bmp	Tomato2.bmp	Lipstick7.bmp	Tomato12.bmp	Lipstick7.bmp	23	2	1	1	2	PSYVCHOLOGIE
FAUST_1[2014-06]	111	2	6	4	2	2	2	2	1	0	1236	1	1	1	1119	4	1260	Mushroom18.bmp	Mushroom6.bmp	Mushroom7.bmp	Mushroom6.bmp	Mushroom25.bmp	Candle10.bmp	Mushroom14.bmp	23	2	1	1	2	PSYVCHOLOGIE
FAUST_1[2014-06]	111	2	1	4	2	1	1	3	2	1	1034	1	2	0	2033	4	1205	Swirl23.bmp	Hand13.bmp	Hand8.bmp	Hand13.bmp	Cake25.bmp	Hand17.bmp	Hand10.bmp	23	2	1	1	2	PSYVCHOLOGIE
FAUST_1[2014-06]	111	2	8	4	2	2	1	3	2	1	1130	2	1	0	680	4	1302	Fudge15.bmp	Keys7.bmp	Daff3.bmp	Keys6.bmp	Daff3.bmp	Keys5.bmp	Keys8.bmp	23	2	1	1	2	PSYVCHOLOGIE
FAUST_1[2014-06]	111	2	2	4	2	1	1	3	2	1	1615	2	2	1	1106	4	1347	Chilli19.bmp	Sweet1.bmp	Jigsaw14.bmp	Sweet25.bmp	Sweet18.bmp	Sweet1.bmp	Sweet22.bmp	23	2	1	1	2	PSYVCHOLOGIE
FAUST_1[2014-06]	111	2	5	4	2	2	1	3	2	1	1247	2	1	0	1516	4	1059	Stapler9.bmp	Umbrella6.bmp	Nut2.bmp	Umbrella19.bmp	Nut2.bmp	Umbrella21.bmp	Umbrella17.bmp	23	2	1	1	2	PSYVCHOLOGIE
FAUST_1[2014-06]	111	2	13	4	2	1	1	3	2	1	1098	1	1	1	1735	4	1921	Man24.bmp	Key11.bmp	Button18.bmp	Button10.bmp	Button14.bmp	Button3.bmp	Button14.bmp	23	2	1	1	2	PSYVCHOLOGIE
FAUST_1[2014-06]	111	2	7	4	2	2	1	3	2	1	822	1	1	1	1806	4	1095	Shell9.bmp	Plug4.bmp	Plug8.bmp	Brocolli9.bmp	Plug9.bmp	Brocolli9.bmp	Plug18.bmp	23	2	1	1	2	PSYVCHOLOGIE
FAUST_1[2014-06]	111	3	10	4	1	1	1	1	1	1	2301	2	2	1	1367	2	1228	KARAFFE	nordamerika	asien	südamerika	australien	karaffe	australien	23	2	1	1	2	PSYVCHOLOGIE
FAUST_1[2014-06]	111	3	22	4	1	2	1	1	1	1	1275	1	1	1	690	3	1361	METER	meter	lineal	locher	brieföffner	meter	klebeband	23	2	1	1	2	PSYVCHOLOGIE
FAUST_1[2014-06]	111	3	19	4	1	1	2	1	1	1	1459	1	2	0	568	4	1206	SOFA	lachs	tisch	stuhl	regal	lachs	sofa	23	2	1	1	2	PSYVCHOLOGIE
FAUST_1[2014-06]	111	3	7	4	1	2	2	1	1	1	1138	2	2	1	1510	4	1442	NEBEL	regen	nebel	hagel	birke	nebel	schnee	23	2	1	1	2	PSYVCHOLOGIE
FAUST_1[2014-06]	111	3	1	4	1	1	1	1	1	1	1141	1	1	1	1303	4	1172	KOKAIN	hafer	gerste	weizen	gerste	kokain	dinkel	23	2	1	1	2	PSYVCHOLOGIE
FAUST_1[2014-06]	111	3	6	4	1	2	1	1	1	1	1397	1	2	0	2712	3	1115	PFLAUME	baracke	scheune	pflaume	blockhaus	hütte	pflaume	23	2	1	1	2	PSYVCHOLOGIE
FAUST_1[2014-06]	111	3	9	4	1	1	2	1	2	0	1073	1	1	1	935	1	1877	VERB	präposition	adverb	hauptschule	verb	hauptschule	nomen	23	2	1	1	2	PSYVCHOLOGIE
FAUST_1[2014-06]	111	3	21	4	1	2	2	1	1	1	2260	2	1	0	547	4	1385	FILZSTIFT	filzstift	buntstift	füller	filzstift	kugelschreiber	marzipan	23	2	1	1	2	PSYVCHOLOGIE
FAUST_1[2014-06]	111	3	26	4	1	1	1	1	1	1	1191	2	1	0	1326	3	958	WHISKEY	messer	whiskey	messer	teelöffel	löffel	brotmesser	23	2	1	1	2	PSYVCHOLOGIE
FAUST_1[2014-06]	111	3	30	4	1	2	1	1	1	1	1997	2	1	0	993	2	1015	SEE	yacht	boot	see	schiff	see	fähre	23	2	1	1	2	PSYVCHOLOGIE
FAUST_1[2014-06]	111	3	17	4	1	1	2	1	2	0	1447	1	1	1	1009	1	1341	GRAF	herzog	magen	könig	magen	graf	fürst	23	2	1	1	2	PSYVCHOLOGIE
FAUST_1[2014-06]	111	3	2	4	1	2	2	1	1	1	1027	1	1	1	1812	4	944	SAARLAND	saarland	sachsen	brandenburg	dänemark	saarland	thüringen	23	2	1	1	2	PSYVCHOLOGIE
FAUST_1[2014-06]	111	3	4	4	1	1	1	2	2	1	1222	1	1	1	2212	3	1214	BLUMENKOHL	dreieck	rechteck	karotten	viereck	dreieck	kreis	23	2	1	1	2	PSYVCHOLOGIE
FAUST_1[2014-06]	111	3	23	4	1	2	1	2	1	0	1158	1	2	0	292	4	1630	LENKRAD	gaspedal	stunde	gaspedal	sekunde	jahr	tag	23	2	1	1	2	PSYVCHOLOGIE
FAUST_1[2014-06]	111	3	16	4	1	1	2	2	2	1	1201	2	2	1	831	3	1414	ERDKUNDE	rock	physik	mathematik	biologie	rock	chemie	23	2	1	1	2	PSYVCHOLOGIE
FAUST_1[2014-06]	111	3	28	4	1	2	2	2	2	1	3410	-1	1	0	0	2	1174	SILBER	bronze	gold	eisen	messing	fühlen	eisen	23	2	1	1	2	PSYVCHOLOGIE
FAUST_1[2014-06]	111	3	8	4	1	1	1	2	2	1	1008	1	1	1	1377	2	1099	AMEISE	fernsehen	mücke	buch	internet	zeitung	fernsehen	23	2	1	1	2	PSYVCHOLOGIE
FAUST_1[2014-06]	111	3	12	4	1	2	1	2	2	1	1158	1	2	0	1311	2	1030	HAMMER	bohrer	scrabble	monopoly	schach	backgammon	bohrer	23	2	1	1	2	PSYVCHOLOGIE
FAUST_1[2014-06]	111	3	29	4	1	1	2	2	2	1	1190	2	2	1	349	3	1445	VEILCHEN	main	lilie	nelke	tulpe	main	rose	23	2	1	1	2	PSYVCHOLOGIE
FAUST_1[2014-06]	111	3	13	4	1	2	2	2	2	1	1018	2	2	1	1638	3	1045	TANGO	walzer	foxtrott	chachacha	actionfilm	rumba	walzer	23	2	1	1	2	PSYVCHOLOGIE
FAUST_1[2014-06]	111	3	24	4	1	1	1	2	2	1	1181	2	2	1	2468	2	1135	KOPF	posaune	flöte	oboe	trompete	bein	flöte	23	2	1	1	2	PSYVCHOLOGIE
FAUST_1[2014-06]	111	3	20	4	1	2	1	2	2	1	1667	1	2	0	1609	3	862	SKIFAHREN	tennis	hexe	zombie	vampir	werwolf	tennis	23	2	1	1	2	PSYVCHOLOGIE
FAUST_1[2014-06]	111	3	14	4	1	1	2	2	2	1	1299	1	1	1	1837	2	1153	BASTELN	malen	zeichnen	mozart	schreiben	lesen	mozart	23	2	1	1	2	PSYVCHOLOGIE
FAUST_1[2014-06]	111	3	32	4	1	2	2	2	2	1	2331	2	2	1	666	3	1045	LIDSCHATTEN	wimperntusche	kajal	wimperntusche	synagoge	rouge	lippenstift	23	2	1	1	2	PSYVCHOLOGIE
FAUST_1[2014-06]	111	3	11	4	1	1	1	3	2	1	1454	1	2	0	1533	3	1457	BUS	pizza	sohn	pizza	döner	bratwurst	hamburger	23	2	1	1	2	PSYVCHOLOGIE
FAUST_1[2014-06]	111	3	18	4	1	2	1	3	2	1	843	1	1	1	1340	2	1463	LEOPARD	stickstoff	kamera	kohlenstoff	kamera	wasserstoff	sauerstoff	23	2	1	1	2	PSYVCHOLOGIE
FAUST_1[2014-06]	111	3	15	4	1	1	1	3	2	1	800	1	1	1	557	4	1898	EURO	angst	freude	grippe	trauer	scham	freude	23	2	1	1	2	PSYVCHOLOGIE
FAUST_1[2014-06]	111	3	27	4	1	2	1	3	2	1	2231	2	1	0	497	4	1364	MÜNCHEN	theater	küchenwaage	backblech	theater	nudelholz	pfannenwender	23	2	1	1	2	PSYVCHOLOGIE
FAUST_1[2014-06]	111	3	5	4	1	1	1	3	2	1	1421	2	2	1	1576	2	1596	POLIZIST	benzin	jungfrau	petroleum	kerosin	bleifrei	benzin	23	2	1	1	2	PSYVCHOLOGIE
FAUST_1[2014-06]	111	3	31	4	1	2	1	3	1	0	1245	1	2	0	1203	3	1549	MEISE	peugeot	jupiter	audi	volvo	jupiter	porsche	23	2	1	1	2	PSYVCHOLOGIE
FAUST_1[2014-06]	111	3	3	4	1	1	1	3	2	1	3255	2	1	0	1849	2	1419	SCHWERT	terrier	dogge	rosmarin	terrier	schäferhund	mops	23	2	1	1	2	PSYVCHOLOGIE
FAUST_1[2014-06]	111	3	25	4	1	2	1	3	2	1	1182	1	1	1	787	1	896	ROT	flanell	seide	häkelnadel	leinen	baumwolle	häkelnadel	23	2	1	1	2	PSYVCHOLOGIE
FAUST_1[2014-06]	111	4	23	4	3	1	1	1	2	0	1930	2	2	1	990	2	1174	flashlight_2.bmp	cat_10.bmp	cat_9.bmp	flashlight_2.bmp	cat_5.bmp	cat_1.bmp	cat_5.bmp	23	2	1	1	2	PSYVCHOLOGIE
FAUST_1[2014-06]	111	4	14	4	3	2	1	1	1	1	3703	2	1	0	935	4	951	skateboard_11.bmp	skateboard_11.bmp	doorknocker_11.bmp	skateboard_11.bmp	doorknocker_2.bmp	doorknocker_5.bmp	doorknocker_14.bmp	23	2	1	1	2	PSYVCHOLOGIE
FAUST_1[2014-06]	111	4	11	4	3	1	2	1	1	1	1679	1	2	0	147	4	1100	rusdoll_3.bmp	rusdoll_6.bmp	rusdoll_3.bmp	carriage_3.bmp	rusdoll_8.bmp	carriage_3.bmp	rusdoll_1.bmp	23	2	1	1	2	PSYVCHOLOGIE
FAUST_1[2014-06]	111	4	24	4	3	2	2	1	1	1	1381	1	1	1	289	4	1544	pasta_9.bmp	pasta_15.bmp	pasta_11.bmp	pasta_13.bmp	pasta_9.bmp	highchair_6.bmp	pasta_9.bmp	23	2	1	1	2	PSYVCHOLOGIE
FAUST_1[2014-06]	111	4	5	4	3	1	1	1	1	1	1175	2	2	1	2130	4	1314	scooter_4.bmp	shoe_13.bmp	shoe_15.bmp	shoe_7.bmp	scooter_4.bmp	shoe_15.bmp	shoe_9.bmp	23	2	1	1	2	PSYVCHOLOGIE
FAUST_1[2014-06]	111	4	2	4	3	2	1	1	1	1	1512	2	2	1	1200	4	1227	guitar_8.bmp	guitar_8.bmp	sofa_13.bmp	sofa_6.bmp	sofa_3.bmp	sofa_9.bmp	guitar_8.bmp	23	2	1	1	2	PSYVCHOLOGIE
FAUST_1[2014-06]	111	4	25	4	3	1	2	1	1	1	1022	1	1	1	666	3	950	cherubstatue_5.bmp	cherubstatue_10.bmp	cherubstatue_6.bmp	cherubstatue_12.bmp	trunk_3.bmp	cherubstatue_5.bmp	trunk_3.bmp	23	2	1	1	2	PSYVCHOLOGIE
FAUST_1[2014-06]	111	4	1	4	3	2	2	1	1	1	1607	1	2	0	1029	4	1042	videogamecontroller_5.bmp	goggle_13.bmp	videogamecontroller_5.bmp	videogamecontroller_2.bmp	videogamecontroller_5.bmp	videogamecontroller_3.bmp	videogamecontroller_11.bmp	23	2	1	1	2	PSYVCHOLOGIE
FAUST_1[2014-06]	111	4	19	4	3	1	1	1	1	1	1181	1	2	0	1160	4	1054	easteregg_14.bmp	backpack_6.bmp	backpack_10.bmp	backpack_16.bmp	easteregg_14.bmp	backpack_10.bmp	backpack_13.bmp	23	2	1	1	2	PSYVCHOLOGIE
FAUST_1[2014-06]	111	4	9	4	3	2	1	1	2	0	2826	2	1	0	1699	2	1108	fan_15.bmp	powerstrip_7.bmp	fan_15.bmp	powerstrip_13.bmp	powerstrip_8.bmp	powerstrip_10.bmp	fan_15.bmp	23	2	1	1	2	PSYVCHOLOGIE
FAUST_1[2014-06]	111	4	21	4	3	1	2	1	2	0	2137	2	2	1	1957	1	924	speaker_15.bmp	hammer_8.bmp	speaker_15.bmp	hammer_8.bmp	speaker_10.bmp	speaker_6.bmp	speaker_4.bmp	23	2	1	1	2	PSYVCHOLOGIE
FAUST_1[2014-06]	111	4	29	4	3	2	2	1	1	1	1084	2	1	0	48	4	863	camera_9.bmp	camera_9.bmp	camera_3.bmp	wig_12.bmp	camera_6.bmp	camera_7.bmp	camera_9.bmp	23	2	1	1	2	PSYVCHOLOGIE
FAUST_1[2014-06]	111	4	26	4	3	1	1	2	1	0	1586	2	2	1	970	4	885	rollerskates_7.bmp	saddle_15.bmp	saddle_8.bmp	saddle_3.bmp	saddle_8.bmp	rollerskates_17.bmp	saddle_5.bmp	23	2	1	1	2	PSYVCHOLOGIE
FAUST_1[2014-06]	111	4	3	4	3	2	1	2	1	0	1696	1	1	1	1249	4	905	circuitboard_16.bmp	circuitboard_8.bmp	sink_11.bmp	circuitboard_8.bmp	sink_1.bmp	sink_6.bmp	sink_15.bmp	23	2	1	1	2	PSYVCHOLOGIE
FAUST_1[2014-06]	111	4	15	4	3	1	2	2	1	0	1609	2	2	1	759	3	1212	windchime_10.bmp	windchime_15.bmp	plant_5.bmp	windchime_3.bmp	windchime_6.bmp	plant_5.bmp	windchime_16.bmp	23	2	1	1	2	PSYVCHOLOGIE
FAUST_1[2014-06]	111	4	13	4	3	2	2	2	1	0	1054	2	2	1	1238	4	1307	tricycle_8.bmp	tricycle_5.bmp	tricycle_15.bmp	tricycle_10.bmp	tricycle_15.bmp	babycrib_9.bmp	tricycle_2.bmp	23	2	1	1	2	PSYVCHOLOGIE
FAUST_1[2014-06]	111	4	6	4	3	1	1	2	1	0	1717	1	1	1	490	1	931	mic_3.bmp	leatherman_2.bmp	mic_12.bmp	leatherman_5.bmp	leatherman_2.bmp	leatherman_14.bmp	leatherman_7.bmp	23	2	1	1	2	PSYVCHOLOGIE
FAUST_1[2014-06]	111	4	32	4	3	2	1	2	2	1	823	2	1	0	188	1	1692	shredder_1.bmp	cheesegrater_11.bmp	cheesegrater_14.bmp	shredder_5.bmp	cheesegrater_15.bmp	cheesegrater_5.bmp	shredder_5.bmp	23	2	1	1	2	PSYVCHOLOGIE
FAUST_1[2014-06]	111	4	27	4	3	1	2	2	2	1	848	2	2	1	393	1	1824	carabiner_2.bmp	carabiner_6.bmp	carabiner_7.bmp	carabiner_5.bmp	watergun_8.bmp	carabiner_9.bmp	watergun_8.bmp	23	2	1	1	2	PSYVCHOLOGIE
FAUST_1[2014-06]	111	4	18	4	3	2	2	2	1	0	1510	2	1	0	741	1	1350	trophy_4.bmp	horseshoe_4.bmp	trophy_16.bmp	trophy_14.bmp	trophy_6.bmp	trophy_15.bmp	trophy_6.bmp	23	2	1	1	2	PSYVCHOLOGIE
FAUST_1[2014-06]	111	4	7	4	3	1	1	2	2	1	1183	2	2	1	1128	4	1808	orifan_7.bmp	ring_12.bmp	ring_8.bmp	orifan_1.bmp	ring_7.bmp	ring_12.bmp	ring_15.bmp	23	2	1	1	2	PSYVCHOLOGIE
FAUST_1[2014-06]	111	4	16	4	3	2	1	2	2	1	2165	2	1	0	634	1	2168	remote_14.bmp	remote_13.bmp	birdhouse_11.bmp	birdhouse_9.bmp	remote_13.bmp	birdhouse_6.bmp	birdhouse_7.bmp	23	2	1	1	2	PSYVCHOLOGIE
FAUST_1[2014-06]	111	4	20	4	3	1	2	2	1	0	1288	1	2	0	780	4	1024	garbagecan_8.bmp	iceskates_5.bmp	garbagecan_10.bmp	garbagecan_2.bmp	iceskates_5.bmp	garbagecan_13.bmp	garbagecan_17.bmp	23	2	1	1	2	PSYVCHOLOGIE
FAUST_1[2014-06]	111	4	17	4	3	2	2	2	1	0	2096	2	1	0	1292	4	1306	watch_6.bmp	watch_7.bmp	watch_14.bmp	trumpet_1.bmp	watch_8.bmp	watch_14.bmp	watch_3.bmp	23	2	1	1	2	PSYVCHOLOGIE
FAUST_1[2014-06]	111	4	12	4	3	1	1	3	2	1	13040	-1	1	0	0	2	1196	bagel_4.bmp	tv_8.bmp	beanbagchair_15.bmp	tv_8.bmp	tv_16.bmp	tv_7.bmp	tv_5.bmp	23	2	1	1	2	PSYVCHOLOGIE
FAUST_1[2014-06]	111	4	4	4	3	2	1	3	2	1	1493	1	1	1	733	4	1221	jacket_11.bmp	bowlingpin_13.bmp	glasses_15.bmp	bowlingpin_11.bmp	glasses_15.bmp	bowlingpin_1.bmp	bowlingpin_3.bmp	23	2	1	1	2	PSYVCHOLOGIE
FAUST_1[2014-06]	111	4	30	4	3	1	1	3	2	1	908	1	1	1	363	4	921	hairdryer_7.bmp	chair_3.bmp	turtle_6.bmp	turtle_2.bmp	turtle_7.bmp	turtle_12.bmp	turtle_2.bmp	23	2	1	1	2	PSYVCHOLOGIE
FAUST_1[2014-06]	111	4	22	4	3	2	1	3	2	1	1278	1	1	1	737	4	1324	cake_3.bmp	abacus_2.bmp	parfait_4.bmp	abacus_2.bmp	parfait_15.bmp	parfait_13.bmp	parfait_1.bmp	23	2	1	1	2	PSYVCHOLOGIE
FAUST_1[2014-06]	111	4	31	4	3	1	1	3	2	1	975	1	1	1	237	4	1969	lawnmower_15.bmp	cellphone_8.bmp	cellphone_12.bmp	laptop_10.bmp	cellphone_4.bmp	cellphone_12.bmp	cellphone_11.bmp	23	2	1	1	2	PSYVCHOLOGIE
FAUST_1[2014-06]	111	4	10	4	3	2	1	3	2	1	1133	1	1	1	2058	4	1165	hairbrush_15.bmp	vase_15.bmp	vase_5.bmp	saltpeppershake_8.bmp	vase_1.bmp	vase_13.bmp	saltpeppershake_8.bmp	23	2	1	1	2	PSYVCHOLOGIE
FAUST_1[2014-06]	111	4	8	4	3	1	1	3	2	1	2808	1	2	0	216	4	1751	doorknob_2.bmp	printer_1.bmp	glove_5.bmp	glove_15.bmp	glove_10.bmp	glove_8.bmp	glove_10.bmp	23	2	1	1	2	PSYVCHOLOGIE
FAUST_1[2014-06]	111	4	28	4	3	2	1	3	2	1	1739	2	2	1	646	4	683	router_6.bmp	socks_15.bmp	coffee_15.bmp	socks_10.bmp	coffee_15.bmp	socks_4.bmp	socks_12.bmp	23	2	1	1	2	PSYVCHOLOGIE
