experiment	subject	block	trial	order	material	repeated	related	probetype	response	correct	rt	math_response	math_correctresponse	math_correct	math_rt	confidence	confidence_rt	probe	item1	item2	item3	item4	item5	item6	age	sex	handedness	color_vision	mother_tongue	occupation
FAUST_1[2014-06]	116	1	2	2	1	1	1	1	2	0	1684	1	1	1	1336	3	1886	TANNE	volvo	audi	peugeot	tanne	peugeot	porsche	22	1	1	1	1	PSYCHOLOGIE
FAUST_1[2014-06]	116	1	8	2	1	2	1	1	1	1	1663	1	2	0	1975	3	1696	HERING	hering	mark	hering	dollar	pfennig	cent	22	1	1	1	1	PSYCHOLOGIE
FAUST_1[2014-06]	116	1	12	2	1	1	2	1	1	1	2118	1	1	1	2184	3	1357	PFARRER	venus	lehrer	polizist	arzt	venus	pfarrer	22	1	1	1	1	PSYCHOLOGIE
FAUST_1[2014-06]	116	1	28	2	1	2	2	1	1	1	2930	1	1	1	975	4	2059	LAKRITZ	dänemark	lakritz	marzipan	karamell	gummibärchen	lakritz	22	1	1	1	1	PSYCHOLOGIE
FAUST_1[2014-06]	116	1	20	2	1	1	1	1	2	0	1872	1	2	0	1393	2	1239	FLÖTE	flöte	zange	bohrer	hammer	zange	säge	22	1	1	1	1	PSYCHOLOGIE
FAUST_1[2014-06]	116	1	24	2	1	2	1	1	2	0	1410	1	1	1	2360	2	1643	APFEL	onkel	apfel	tochter	mutter	apfel	vater	22	1	1	1	1	PSYCHOLOGIE
FAUST_1[2014-06]	116	1	25	2	1	1	2	1	2	0	1684	2	1	0	670	3	2164	GASPEDAL	handbremse	wimperntusche	gaspedal	kupplung	rückspiegel	wimperntusche	22	1	1	1	1	PSYCHOLOGIE
FAUST_1[2014-06]	116	1	30	2	1	2	2	1	1	1	1702	1	1	1	1054	3	1952	BERUFSSCHULE	berufsschule	gymnasium	hauptschule	berufsschule	gesamtschule	koriander	22	1	1	1	1	PSYCHOLOGIE
FAUST_1[2014-06]	116	1	31	2	1	1	1	1	1	1	2566	2	2	1	710	2	1604	BRATWURST	bratwurst	stuhl	sofa	regal	schrank	regal	22	1	1	1	1	PSYCHOLOGIE
FAUST_1[2014-06]	116	1	13	2	1	2	1	1	2	0	4331	1	2	0	1641	3	2170	RECHTECK	foxtrott	rechteck	chachacha	walzer	rechteck	tango	22	1	1	1	1	PSYCHOLOGIE
FAUST_1[2014-06]	116	1	14	2	1	1	2	1	2	0	3402	1	2	0	1105	2	1914	METER	silber	meile	meter	silber	millimeter	kilometer	22	1	1	1	1	PSYCHOLOGIE
FAUST_1[2014-06]	116	1	15	2	1	2	2	1	1	1	1973	2	2	1	790	2	1417	JACKE	jacke	schütze	hemd	rock	bluse	jacke	22	1	1	1	1	PSYCHOLOGIE
FAUST_1[2014-06]	116	1	29	2	1	1	1	2	2	1	1352	2	1	0	2152	3	1334	ACTIONFILM	komödie	löffel	gabel	messer	teelöffel	gabel	22	1	1	1	1	PSYCHOLOGIE
FAUST_1[2014-06]	116	1	23	2	1	2	1	2	2	1	3211	1	1	1	571	3	1470	BLOCKHAUS	hütte	diesel	kerosin	benzin	hütte	petroleum	22	1	1	1	1	PSYCHOLOGIE
FAUST_1[2014-06]	116	1	18	2	1	1	2	2	2	1	1346	1	1	1	1320	2	1278	ÄRGER	trauer	scham	karotten	freude	angst	karotten	22	1	1	1	1	PSYCHOLOGIE
FAUST_1[2014-06]	116	1	5	2	1	2	2	2	2	1	2545	-1	1	0	0	3	1751	KOHLENSTOFF	sauerstoff	helium	wasserstoff	fühlen	helium	stickstoff	22	1	1	1	1	PSYCHOLOGIE
FAUST_1[2014-06]	116	1	3	2	1	1	1	2	2	1	1796	1	2	0	1536	3	1633	BRANDENBURG	boot	yacht	boot	schiff	thüringen	fähre	22	1	1	1	1	PSYCHOLOGIE
FAUST_1[2014-06]	116	1	6	2	1	2	1	2	2	1	1223	1	1	1	2023	3	2199	TERRIER	zeichnen	mops	malen	lesen	schreiben	mops	22	1	1	1	1	PSYCHOLOGIE
FAUST_1[2014-06]	116	1	22	2	1	1	2	2	2	1	1718	2	2	1	612	3	1852	BUCH	internet	radio	vampir	zeitung	fernsehen	vampir	22	1	1	1	1	PSYCHOLOGIE
FAUST_1[2014-06]	116	1	32	2	1	2	2	2	1	0	1739	2	1	0	845	2	2447	AMSEL	konzertsaal	fink	meise	fink	taube	schwalbe	22	1	1	1	1	PSYCHOLOGIE
FAUST_1[2014-06]	116	1	10	2	1	1	1	2	2	1	1180	1	2	0	873	3	1952	FILZSTIFT	sekunde	bleistift	stunde	jahr	stunde	minute	22	1	1	1	1	PSYCHOLOGIE
FAUST_1[2014-06]	116	1	21	2	1	2	1	2	1	0	3984	2	2	1	1191	2	1279	BUS	straßenbahn	röteln	mumps	straßenbahn	grippe	windpocken	22	1	1	1	1	PSYCHOLOGIE
FAUST_1[2014-06]	116	1	27	2	1	1	2	2	2	1	3331	2	2	1	826	2	2337	ADVERB	tiger	verb	adjektiv	tiger	nomen	präposition	22	1	1	1	1	PSYCHOLOGIE
FAUST_1[2014-06]	116	1	17	2	1	2	2	2	2	1	5145	2	1	0	609	2	2113	LILA	blau	kopf	blau	grün	rot	gelb	22	1	1	1	1	PSYCHOLOGIE
FAUST_1[2014-06]	116	1	16	2	1	1	1	3	2	1	1681	1	2	0	714	2	2007	WEIZEN	könig	graf	kaiser	scrabble	herzog	graf	22	1	1	1	1	PSYCHOLOGIE
FAUST_1[2014-06]	116	1	7	2	1	2	1	3	2	1	1397	-1	1	0	0	3	2042	SONNENSCHEIN	locher	teich	klebeband	brieföffner	teich	lineal	22	1	1	1	1	PSYCHOLOGIE
FAUST_1[2014-06]	116	1	11	2	1	1	1	3	2	1	1288	2	1	0	1615	3	1810	KARAFFE	ameise	hummel	mücke	hummel	nähnadel	wespe	22	1	1	1	1	PSYCHOLOGIE
FAUST_1[2014-06]	116	1	26	2	1	2	1	3	2	1	1177	1	2	0	551	3	2519	NUDELHOLZ	leber	donau	weser	main	leber	rhein	22	1	1	1	1	PSYCHOLOGIE
FAUST_1[2014-06]	116	1	19	2	1	1	1	3	2	1	3444	2	2	1	1193	4	952	FLANELL	gewehr	erdkunde	physik	biologie	chemie	biologie	22	1	1	1	1	PSYCHOLOGIE
FAUST_1[2014-06]	116	1	4	2	1	2	1	3	2	1	1316	1	1	1	2619	4	1390	HASCHISCH	tequila	afrika	gin	rum	afrika	whiskey	22	1	1	1	1	PSYCHOLOGIE
FAUST_1[2014-06]	116	1	1	2	1	1	1	3	2	1	1651	2	1	0	1898	4	2048	BRAHMS	skifahren	laptop	mobiltelefon	kamera	laptop	computer	22	1	1	1	1	PSYCHOLOGIE
FAUST_1[2014-06]	116	1	9	2	1	2	1	3	2	1	1551	2	1	0	1696	3	1909	BERLIN	kapelle	synagoge	lilie	tempel	lilie	kirche	22	1	1	1	1	PSYCHOLOGIE
FAUST_1[2014-06]	116	2	31	2	3	1	1	1	2	0	1975	1	2	0	486	3	1535	powerstrip_8.bmp	chair_11.bmp	chair_16.bmp	chair_2.bmp	powerstrip_8.bmp	chair_3.bmp	chair_2.bmp	22	1	1	1	1	PSYCHOLOGIE
FAUST_1[2014-06]	116	2	20	2	3	2	1	1	2	0	2885	1	2	0	1076	2	2039	videogamecontroller_5.bmp	videogamecontroller_5.bmp	turtle_2.bmp	videogamecontroller_5.bmp	turtle_7.bmp	turtle_6.bmp	turtle_11.bmp	22	1	1	1	1	PSYCHOLOGIE
FAUST_1[2014-06]	116	2	28	2	3	1	2	1	1	1	1459	2	2	1	1887	3	2577	printer_3.bmp	printer_3.bmp	babycrib_6.bmp	printer_1.bmp	printer_5.bmp	printer_14.bmp	babycrib_6.bmp	22	1	1	1	1	PSYCHOLOGIE
FAUST_1[2014-06]	116	2	32	2	3	2	2	1	1	1	1533	1	2	0	821	4	1807	bagel_16.bmp	bagel_14.bmp	bagel_16.bmp	bagel_10.bmp	bagel_16.bmp	bagel_4.bmp	fan_17.bmp	22	1	1	1	1	PSYCHOLOGIE
FAUST_1[2014-06]	116	2	14	2	3	1	1	1	1	1	3280	1	2	0	694	3	1908	cherubstatue_11.bmp	camera_9.bmp	camera_3.bmp	cherubstatue_11.bmp	camera_6.bmp	camera_7.bmp	camera_9.bmp	22	1	1	1	1	PSYCHOLOGIE
FAUST_1[2014-06]	116	2	29	2	3	2	1	1	1	1	2157	1	2	0	580	2	1652	jacket_7.bmp	highchair_3.bmp	jacket_7.bmp	highchair_15.bmp	highchair_10.bmp	jacket_7.bmp	highchair_4.bmp	22	1	1	1	1	PSYCHOLOGIE
FAUST_1[2014-06]	116	2	10	2	3	1	2	1	1	1	1150	2	2	1	541	3	1601	remote_2.bmp	router_5.bmp	remote_2.bmp	remote_3.bmp	router_5.bmp	remote_13.bmp	remote_14.bmp	22	1	1	1	1	PSYCHOLOGIE
FAUST_1[2014-06]	116	2	4	2	3	2	2	1	1	1	1601	2	2	1	1176	2	1535	cellphone_4.bmp	cellphone_8.bmp	cellphone_4.bmp	cellphone_3.bmp	watergun_15.bmp	cellphone_4.bmp	cellphone_11.bmp	22	1	1	1	1	PSYCHOLOGIE
FAUST_1[2014-06]	116	2	2	2	3	1	1	1	2	0	1344	2	2	1	805	3	1281	shoe_15.bmp	coffee_15.bmp	shoe_15.bmp	coffee_14.bmp	coffee_7.bmp	coffee_1.bmp	coffee_7.bmp	22	1	1	1	1	PSYCHOLOGIE
FAUST_1[2014-06]	116	2	15	2	3	2	1	1	2	0	1608	1	1	1	837	3	1223	tv_5.bmp	tv_5.bmp	rusdoll_8.bmp	tv_5.bmp	rusdoll_3.bmp	rusdoll_1.bmp	rusdoll_5.bmp	22	1	1	1	1	PSYCHOLOGIE
FAUST_1[2014-06]	116	2	30	2	3	1	2	1	2	0	1811	2	2	1	910	3	2056	plant_13.bmp	scooter_11.bmp	plant_2.bmp	plant_13.bmp	plant_5.bmp	scooter_11.bmp	plant_14.bmp	22	1	1	1	1	PSYCHOLOGIE
FAUST_1[2014-06]	116	2	3	2	3	2	2	1	1	1	2446	1	2	0	622	3	1652	leatherman_2.bmp	leatherman_10.bmp	leatherman_2.bmp	leatherman_7.bmp	beanbagchair_17.bmp	leatherman_14.bmp	leatherman_2.bmp	22	1	1	1	1	PSYCHOLOGIE
FAUST_1[2014-06]	116	2	25	2	3	1	1	2	2	1	1388	1	1	1	456	3	2407	vase_15.bmp	ring_12.bmp	ring_7.bmp	vase_5.bmp	ring_11.bmp	ring_15.bmp	ring_11.bmp	22	1	1	1	1	PSYCHOLOGIE
FAUST_1[2014-06]	116	2	6	2	3	2	1	2	2	1	2105	1	1	1	643	3	2093	saltpeppershake_2.bmp	saltpeppershake_17.bmp	guitar_7.bmp	guitar_10.bmp	guitar_5.bmp	saltpeppershake_17.bmp	guitar_14.bmp	22	1	1	1	1	PSYCHOLOGIE
FAUST_1[2014-06]	116	2	7	2	3	1	2	2	2	1	1997	1	1	1	836	2	1895	shredder_1.bmp	shredder_15.bmp	shredder_7.bmp	trunk_3.bmp	shredder_5.bmp	shredder_6.bmp	trunk_3.bmp	22	1	1	1	1	PSYCHOLOGIE
FAUST_1[2014-06]	116	2	9	2	3	2	2	2	1	0	978	2	1	0	643	3	1471	parfait_11.bmp	windchime_16.bmp	parfait_4.bmp	parfait_15.bmp	parfait_4.bmp	parfait_13.bmp	parfait_1.bmp	22	1	1	1	1	PSYCHOLOGIE
FAUST_1[2014-06]	116	2	21	2	3	1	1	2	2	1	1317	1	1	1	1504	3	1741	cheesegrater_11.bmp	saddle_3.bmp	saddle_8.bmp	cheesegrater_15.bmp	saddle_3.bmp	saddle_15.bmp	saddle_5.bmp	22	1	1	1	1	PSYCHOLOGIE
FAUST_1[2014-06]	116	2	1	2	3	2	1	2	1	0	3965	1	2	0	1324	3	3744	mic_12.bmp	mic_5.bmp	hammer_6.bmp	mic_5.bmp	hammer_17.bmp	hammer_11.bmp	hammer_8.bmp	22	1	1	1	1	PSYCHOLOGIE
FAUST_1[2014-06]	116	2	27	2	3	1	2	2	2	1	2078	1	2	0	689	2	1533	abacus_15.bmp	circuitboard_16.bmp	abacus_2.bmp	abacus_7.bmp	abacus_4.bmp	circuitboard_16.bmp	abacus_6.bmp	22	1	1	1	1	PSYCHOLOGIE
FAUST_1[2014-06]	116	2	22	2	3	2	2	2	1	0	1450	1	1	1	659	2	1134	sofa_12.bmp	sofa_9.bmp	sofa_6.bmp	sofa_13.bmp	sofa_3.bmp	sofa_13.bmp	trophy_14.bmp	22	1	1	1	1	PSYCHOLOGIE
FAUST_1[2014-06]	116	2	18	2	3	1	1	2	2	1	1497	1	1	1	1012	3	1519	doorknocker_14.bmp	doorknocker_5.bmp	iceskates_7.bmp	iceskates_9.bmp	iceskates_14.bmp	iceskates_7.bmp	iceskates_16.bmp	22	1	1	1	1	PSYCHOLOGIE
FAUST_1[2014-06]	116	2	24	2	3	2	1	2	1	0	1640	1	2	0	629	3	1847	carriage_9.bmp	cake_1.bmp	cake_3.bmp	carriage_12.bmp	cake_5.bmp	carriage_12.bmp	cake_14.bmp	22	1	1	1	1	PSYCHOLOGIE
FAUST_1[2014-06]	116	2	23	2	3	1	2	2	1	0	1633	1	1	1	1082	3	1865	rollerskates_7.bmp	watch_14.bmp	rollerskates_8.bmp	rollerskates_17.bmp	rollerskates_5.bmp	rollerskates_2.bmp	watch_14.bmp	22	1	1	1	1	PSYCHOLOGIE
FAUST_1[2014-06]	116	2	8	2	3	2	2	2	1	0	2075	1	2	0	967	2	1657	glove_15.bmp	backpack_16.bmp	glove_12.bmp	glove_5.bmp	glove_8.bmp	glove_10.bmp	glove_8.bmp	22	1	1	1	1	PSYCHOLOGIE
FAUST_1[2014-06]	116	2	19	2	3	1	1	3	2	1	1521	1	2	0	1071	3	2196	doorknob_17.bmp	laptop_16.bmp	laptop_14.bmp	laptop_16.bmp	laptop_15.bmp	laptop_10.bmp	trumpet_6.bmp	22	1	1	1	1	PSYCHOLOGIE
FAUST_1[2014-06]	116	2	5	2	3	2	1	3	2	1	1983	2	2	1	937	3	2045	horseshoe_5.bmp	easteregg_9.bmp	tricycle_8.bmp	tricycle_2.bmp	tricycle_10.bmp	tricycle_5.bmp	easteregg_9.bmp	22	1	1	1	1	PSYCHOLOGIE
FAUST_1[2014-06]	116	2	11	2	3	1	1	3	1	0	2124	1	2	0	582	1	2119	birdhouse_14.bmp	bowlingpin_3.bmp	bowlingpin_1.bmp	bowlingpin_4.bmp	skateboard_15.bmp	bowlingpin_11.bmp	bowlingpin_4.bmp	22	1	1	1	1	PSYCHOLOGIE
FAUST_1[2014-06]	116	2	16	2	3	2	1	3	2	1	1493	1	1	1	905	3	1163	flashlight_17.bmp	hairbrush_7.bmp	hairbrush_16.bmp	hairbrush_17.bmp	pasta_10.bmp	hairbrush_15.bmp	pasta_10.bmp	22	1	1	1	1	PSYCHOLOGIE
FAUST_1[2014-06]	116	2	26	2	3	1	1	3	2	1	2931	1	2	0	990	3	1919	sink_6.bmp	garbagecan_17.bmp	garbagecan_13.bmp	speaker_4.bmp	garbagecan_17.bmp	garbagecan_10.bmp	garbagecan_8.bmp	22	1	1	1	1	PSYCHOLOGIE
FAUST_1[2014-06]	116	2	13	2	3	2	1	3	2	1	1437	2	2	1	996	4	1988	lawnmower_15.bmp	wig_6.bmp	goggle_1.bmp	wig_7.bmp	wig_1.bmp	goggle_1.bmp	wig_12.bmp	22	1	1	1	1	PSYCHOLOGIE
FAUST_1[2014-06]	116	2	17	2	3	1	1	3	1	0	1297	1	2	0	923	1	2130	cat_1.bmp	orifan_1.bmp	orifan_7.bmp	orifan_6.bmp	orifan_7.bmp	orifan_14.bmp	hairdryer_14.bmp	22	1	1	1	1	PSYCHOLOGIE
FAUST_1[2014-06]	116	2	12	2	3	2	1	3	2	1	1488	1	1	1	1440	4	1508	socks_13.bmp	glasses_6.bmp	carabiner_9.bmp	carabiner_6.bmp	carabiner_5.bmp	glasses_6.bmp	carabiner_7.bmp	22	1	1	1	1	PSYCHOLOGIE
FAUST_1[2014-06]	116	3	20	2	2	1	1	1	2	0	1999	2	1	0	1178	2	1580	Leaf21.bmp	Candle1.bmp	Leaf21.bmp	Candle13.bmp	Candle20.bmp	Candle10.bmp	Candle1.bmp	22	1	1	1	1	PSYCHOLOGIE
FAUST_1[2014-06]	116	3	7	2	2	2	1	1	1	1	2248	1	1	1	522	3	1366	Biscuit17.bmp	Car13.bmp	Biscuit17.bmp	Car7.bmp	Car21.bmp	Car12.bmp	Biscuit17.bmp	22	1	1	1	1	PSYCHOLOGIE
FAUST_1[2014-06]	116	3	21	2	2	1	2	1	1	1	1162	1	1	1	467	4	1759	Ginger5.bmp	Ginger10.bmp	Ginger5.bmp	Star2.bmp	Ginger15.bmp	Star2.bmp	Ginger3.bmp	22	1	1	1	1	PSYCHOLOGIE
FAUST_1[2014-06]	116	3	22	2	2	2	2	1	1	1	1201	1	2	0	949	4	2777	Button18.bmp	Hanger15.bmp	Button18.bmp	Button10.bmp	Button18.bmp	Button20.bmp	Button3.bmp	22	1	1	1	1	PSYCHOLOGIE
FAUST_1[2014-06]	116	3	13	2	2	1	1	1	1	1	1639	1	1	1	1109	3	1861	Tomato18.bmp	Onion14.bmp	Tomato18.bmp	Onion19.bmp	Onion13.bmp	Onion18.bmp	Onion14.bmp	22	1	1	1	1	PSYCHOLOGIE
FAUST_1[2014-06]	116	3	9	2	2	2	1	1	2	0	1528	1	2	0	736	4	3098	Hand17.bmp	Shell9.bmp	Shell17.bmp	Hand17.bmp	Shell18.bmp	Hand17.bmp	Shell5.bmp	22	1	1	1	1	PSYCHOLOGIE
FAUST_1[2014-06]	116	3	15	2	2	1	2	1	2	0	3163	1	2	0	589	2	1425	String6.bmp	Man24.bmp	String12.bmp	String9.bmp	String2.bmp	Man24.bmp	String6.bmp	22	1	1	1	1	PSYCHOLOGIE
FAUST_1[2014-06]	116	3	17	2	2	2	2	1	1	1	1513	1	2	0	967	4	1274	Pear16.bmp	Cake16.bmp	Pear16.bmp	Pear18.bmp	Pear15.bmp	Pear7.bmp	Pear16.bmp	22	1	1	1	1	PSYCHOLOGIE
FAUST_1[2014-06]	116	3	6	2	2	1	1	2	1	0	1215	2	1	0	909	2	1251	Screw13.bmp	Chocolate6.bmp	Chocolate24.bmp	Chocolate5.bmp	Chocolate6.bmp	Screw9.bmp	Chocolate9.bmp	22	1	1	1	1	PSYCHOLOGIE
FAUST_1[2014-06]	116	3	16	2	2	2	1	2	2	1	3503	1	2	0	871	2	1930	Flower17.bmp	Flower14.bmp	Glass4.bmp	Glass19.bmp	Flower14.bmp	Glass16.bmp	Glass3.bmp	22	1	1	1	1	PSYCHOLOGIE
FAUST_1[2014-06]	116	3	10	2	2	1	2	2	1	0	1697	2	1	0	2035	4	2002	Bun17.bmp	Bun5.bmp	Bun19.bmp	Bun22.bmp	Varnish5.bmp	Bun12.bmp	Varnish5.bmp	22	1	1	1	1	PSYCHOLOGIE
FAUST_1[2014-06]	116	3	14	2	2	2	2	2	1	0	1419	1	2	0	569	4	1356	Paperclip9.bmp	Paperclip14.bmp	Paperclip4.bmp	Paperclip13.bmp	Paperclip6.bmp	Present3.bmp	Paperclip14.bmp	22	1	1	1	1	PSYCHOLOGIE
FAUST_1[2014-06]	116	3	19	2	2	1	1	2	1	0	3336	1	2	0	1683	3	2462	Bag5.bmp	Jigsaw10.bmp	Jigsaw14.bmp	Jigsaw10.bmp	Jigsaw11.bmp	Bag4.bmp	Jigsaw18.bmp	22	1	1	1	1	PSYCHOLOGIE
FAUST_1[2014-06]	116	3	1	2	2	2	1	2	1	0	2634	1	1	1	1125	3	1403	Coins10.bmp	Mushroom6.bmp	Coins14.bmp	Mushroom14.bmp	Mushroom7.bmp	Mushroom25.bmp	Coins14.bmp	22	1	1	1	1	PSYCHOLOGIE
FAUST_1[2014-06]	116	3	3	2	2	1	2	2	1	0	1524	2	1	0	1042	3	2343	Plug8.bmp	Brocolli19.bmp	Plug4.bmp	Plug18.bmp	Plug9.bmp	Plug6.bmp	Brocolli19.bmp	22	1	1	1	1	PSYCHOLOGIE
FAUST_1[2014-06]	116	3	11	2	2	2	2	2	1	0	1402	1	2	0	454	3	2238	Bracelet1.bmp	Bracelet2.bmp	Strawberry3.bmp	Bracelet18.bmp	Bracelet5.bmp	Bracelet8.bmp	Bracelet18.bmp	22	1	1	1	1	PSYCHOLOGIE
FAUST_1[2014-06]	116	3	18	2	2	1	1	3	2	1	2428	1	2	0	2701	2	1526	Sweet10.bmp	Apple5.bmp	Apple10.bmp	Apple24.bmp	Apple5.bmp	Apple18.bmp	Scissors11.bmp	22	1	1	1	1	PSYCHOLOGIE
FAUST_1[2014-06]	116	3	12	2	2	2	1	3	2	1	1235	1	2	0	505	3	1475	Stapler9.bmp	Lipstick2.bmp	Nut19.bmp	Nut2.bmp	Nut11.bmp	Lipstick2.bmp	Nut21.bmp	22	1	1	1	1	PSYCHOLOGIE
FAUST_1[2014-06]	116	3	4	2	2	1	1	3	2	1	1734	1	1	1	670	3	1431	Feather14.bmp	Swirl23.bmp	Swirl5.bmp	Holly17.bmp	Swirl10.bmp	Swirl5.bmp	Swirl1.bmp	22	1	1	1	1	PSYCHOLOGIE
FAUST_1[2014-06]	116	3	2	2	2	2	1	3	2	1	1150	1	2	0	601	3	1399	Key5.bmp	Pen1.bmp	Pen10.bmp	Pen17.bmp	Toothbrush12.bmp	Pen5.bmp	Toothbrush12.bmp	22	1	1	1	1	PSYCHOLOGIE
FAUST_1[2014-06]	116	3	8	2	2	1	1	3	2	1	1356	1	1	1	502	3	1782	Fork7.bmp	Daff22.bmp	Daff9.bmp	Daff1.bmp	Daff21.bmp	Keys8.bmp	Daff22.bmp	22	1	1	1	1	PSYCHOLOGIE
FAUST_1[2014-06]	116	3	5	2	2	2	1	3	2	1	2206	1	2	0	810	2	1335	Chilli19.bmp	Fudge8.bmp	Umbrella19.bmp	Umbrella17.bmp	Umbrella21.bmp	Fudge8.bmp	Umbrella6.bmp	22	1	1	1	1	PSYCHOLOGIE
FAUST_1[2014-06]	116	2	10	2	1	1	1	1	1	1	1603	1	2	0	550	4	1571	ADVERB	vampir	zombie	vampir	dämon	adverb	hexe	22	1	1	1	1	PSYCHOLOGIE
FAUST_1[2014-06]	116	2	24	2	1	2	1	1	2	0	1703	2	1	0	1103	3	1732	LAPTOP	laptop	gummibärchen	laptop	marzipan	lakritz	bonbons	22	1	1	1	1	PSYCHOLOGIE
FAUST_1[2014-06]	116	2	12	2	1	1	2	1	2	0	1587	1	1	1	922	3	1353	RHEIN	weser	donau	backgammon	main	rhein	backgammon	22	1	1	1	1	PSYCHOLOGIE
FAUST_1[2014-06]	116	2	21	2	1	2	2	1	1	1	1589	1	2	0	559	2	1903	MEIßEL	zange	bohrer	säge	meißel	schweiz	meißel	22	1	1	1	1	PSYCHOLOGIE
FAUST_1[2014-06]	116	2	2	2	1	1	1	1	1	1	1702	1	1	1	688	4	1296	DIESEL	döner	pommes	pizza	bratwurst	diesel	pizza	22	1	1	1	1	PSYCHOLOGIE
FAUST_1[2014-06]	116	2	5	2	1	2	1	1	1	1	1566	1	1	1	542	2	1284	DOGGE	kanu	dogge	boot	dogge	schiff	yacht	22	1	1	1	1	PSYCHOLOGIE
FAUST_1[2014-06]	116	2	30	2	1	1	2	1	1	1	1848	1	1	1	1348	2	1383	BLUSE	gelb	hemd	gelb	jacke	bluse	hose	22	1	1	1	1	PSYCHOLOGIE
FAUST_1[2014-06]	116	2	26	2	1	2	2	1	1	1	1617	1	2	0	916	3	1418	KAROTTEN	tisch	blumenkohl	karotten	tomaten	spinat	karotten	22	1	1	1	1	PSYCHOLOGIE
FAUST_1[2014-06]	116	2	19	2	1	1	1	1	2	0	3155	1	2	0	912	2	1786	LEBER	koriander	rosmarin	majoran	rosmarin	leber	oregano	22	1	1	1	1	PSYCHOLOGIE
FAUST_1[2014-06]	116	2	15	2	1	2	1	1	1	1	1713	1	2	0	457	2	1475	FÜLLER	füller	komödie	horrorfilm	füller	thriller	actionfilm	22	1	1	1	1	PSYCHOLOGIE
FAUST_1[2014-06]	116	2	20	2	1	1	2	1	1	1	1725	2	2	1	692	2	1439	ERDBEERE	zentimeter	banane	apfel	birne	erdbeere	zentimeter	22	1	1	1	1	PSYCHOLOGIE
FAUST_1[2014-06]	116	2	13	2	1	2	2	1	1	1	2119	2	2	1	640	2	2557	ZEICHNEN	zeichnen	bombe	basteln	zeichnen	schreiben	malen	22	1	1	1	1	PSYCHOLOGIE
FAUST_1[2014-06]	116	2	23	2	1	1	1	2	2	1	1861	1	2	0	626	2	1960	BAUMWOLLE	dollar	flanell	cent	pfennig	cent	mark	22	1	1	1	1	PSYCHOLOGIE
FAUST_1[2014-06]	116	2	25	2	1	2	1	2	2	1	2385	1	1	1	422	3	1973	MEER	wasserstoff	ozean	stickstoff	helium	ozean	sauerstoff	22	1	1	1	1	PSYCHOLOGIE
FAUST_1[2014-06]	116	2	32	2	1	1	2	2	2	1	2024	2	2	1	775	2	1446	QUADRAT	tennis	dreieck	kreis	viereck	tennis	rechteck	22	1	1	1	1	PSYCHOLOGIE
FAUST_1[2014-06]	116	2	1	2	1	2	2	2	2	1	2420	1	1	1	1396	2	1812	KIRCHE	tempel	kapelle	tempel	meise	synagoge	moschee	22	1	1	1	1	PSYCHOLOGIE
FAUST_1[2014-06]	116	2	28	2	1	1	1	2	2	1	1461	1	1	1	764	3	1147	BERUFSSCHULE	merkur	pluto	venus	gesamtschule	merkur	jupiter	22	1	1	1	1	PSYCHOLOGIE
FAUST_1[2014-06]	116	2	7	2	1	2	1	2	2	1	2170	1	2	0	744	2	941	TIGER	gepard	physik	gepard	chemie	biologie	mathematik	22	1	1	1	1	PSYCHOLOGIE
FAUST_1[2014-06]	116	2	31	2	1	1	2	2	2	1	2036	1	1	1	550	2	1012	MUTTER	südamerika	tochter	südamerika	onkel	sohn	vater	22	1	1	1	1	PSYCHOLOGIE
FAUST_1[2014-06]	116	2	4	2	1	2	2	2	2	1	1258	1	2	0	617	3	1505	GRIPPE	windpocken	nudelholz	mumps	masern	windpocken	röteln	22	1	1	1	1	PSYCHOLOGIE
FAUST_1[2014-06]	116	2	29	2	1	1	1	2	2	1	1641	1	2	0	534	4	2172	MAKRELE	forelle	arzt	lehrer	arzt	pfarrer	polizist	22	1	1	1	1	PSYCHOLOGIE
FAUST_1[2014-06]	116	2	17	2	1	2	1	2	2	1	1147	1	2	0	325	3	1328	THÜRINGEN	walzer	tango	brandenburg	chachacha	brandenburg	rumba	22	1	1	1	1	PSYCHOLOGIE
FAUST_1[2014-06]	116	2	6	2	1	1	2	2	2	1	1439	1	2	0	516	3	1611	REGEN	hagel	sonnenschein	schnee	gaspedal	nebel	gaspedal	22	1	1	1	1	PSYCHOLOGIE
FAUST_1[2014-06]	116	2	8	2	1	2	2	2	2	1	1598	1	2	0	1064	2	1789	ROUGE	lippenstift	wimperntusche	hand	kajal	lippenstift	lidschatten	22	1	1	1	1	PSYCHOLOGIE
FAUST_1[2014-06]	116	2	9	2	1	1	1	3	1	0	2106	2	1	0	1819	2	1469	BIENE	häkelnadel	blockhaus	hütte	schuppen	baracke	schuppen	22	1	1	1	1	PSYCHOLOGIE
FAUST_1[2014-06]	116	2	11	2	1	2	1	3	2	1	1504	1	2	0	1416	3	1353	ZIRKUS	weide	stunde	tag	weide	jahr	sekunde	22	1	1	1	1	PSYCHOLOGIE
FAUST_1[2014-06]	116	2	3	2	1	1	1	3	2	1	1874	2	2	1	952	3	896	POSAUNE	taxi	straßenbahn	zug	fahrrad	fühlen	fahrrad	22	1	1	1	1	PSYCHOLOGIE
FAUST_1[2014-06]	116	2	18	2	1	2	1	3	1	0	1380	2	1	0	1007	1	1206	GRAF	beethoven	hannover	vivaldi	chopin	brahms	hannover	22	1	1	1	1	PSYCHOLOGIE
FAUST_1[2014-06]	116	2	22	2	1	1	1	3	2	1	2125	2	1	0	539	2	1378	BECHER	mercedes	peugeot	audi	mercedes	silber	porsche	22	1	1	1	1	PSYCHOLOGIE
FAUST_1[2014-06]	116	2	27	2	1	2	1	3	2	1	1521	2	2	1	849	3	1407	ÄRGER	brotmesser	gabel	teelöffel	nelke	löffel	nelke	22	1	1	1	1	PSYCHOLOGIE
FAUST_1[2014-06]	116	2	14	2	1	1	1	3	2	1	1295	1	2	0	384	3	964	RADIO	steinbock	lineal	brieföffner	klebeband	brieföffner	locher	22	1	1	1	1	PSYCHOLOGIE
FAUST_1[2014-06]	116	2	16	2	1	2	1	3	2	1	1164	1	2	0	1811	3	1546	WODKA	hafer	kokain	cannabis	heroin	opium	hafer	22	1	1	1	1	PSYCHOLOGIE
FAUST_1[2014-06]	116	3	22	2	3	1	1	1	1	1	1181	2	2	1	737	4	1537	cat_9.bmp	powerstrip_13.bmp	powerstrip_10.bmp	powerstrip_13.bmp	powerstrip_7.bmp	powerstrip_14.bmp	cat_9.bmp	22	1	1	1	1	PSYCHOLOGIE
FAUST_1[2014-06]	116	3	24	2	3	2	1	1	1	1	1353	1	2	0	579	4	1223	saltpeppershake_8.bmp	tv_16.bmp	tv_7.bmp	saltpeppershake_8.bmp	tv_5.bmp	saltpeppershake_8.bmp	tv_4.bmp	22	1	1	1	1	PSYCHOLOGIE
FAUST_1[2014-06]	116	3	7	2	3	1	2	1	1	1	1581	1	2	0	1050	2	1743	jacket_10.bmp	orifan_6.bmp	jacket_10.bmp	orifan_6.bmp	jacket_7.bmp	jacket_13.bmp	jacket_6.bmp	22	1	1	1	1	PSYCHOLOGIE
FAUST_1[2014-06]	116	3	30	2	3	2	2	1	1	1	1786	2	2	1	1191	3	2460	hammer_15.bmp	hammer_17.bmp	hammer_15.bmp	hammer_8.bmp	hammer_15.bmp	carriage_3.bmp	hammer_6.bmp	22	1	1	1	1	PSYCHOLOGIE
FAUST_1[2014-06]	116	3	19	2	3	1	1	1	2	0	2810	2	1	0	604	2	893	laptop_14.bmp	printer_5.bmp	printer_1.bmp	laptop_14.bmp	printer_3.bmp	printer_16.bmp	printer_3.bmp	22	1	1	1	1	PSYCHOLOGIE
FAUST_1[2014-06]	116	3	32	2	3	2	1	1	2	0	1843	1	2	0	838	2	2370	mic_5.bmp	trumpet_17.bmp	mic_5.bmp	trumpet_3.bmp	trumpet_6.bmp	mic_5.bmp	trumpet_5.bmp	22	1	1	1	1	PSYCHOLOGIE
FAUST_1[2014-06]	116	3	27	2	3	1	2	1	1	1	1431	1	1	1	678	3	1505	birdhouse_6.bmp	birdhouse_7.bmp	birdhouse_14.bmp	birdhouse_11.bmp	skateboard_16.bmp	birdhouse_6.bmp	skateboard_16.bmp	22	1	1	1	1	PSYCHOLOGIE
FAUST_1[2014-06]	116	3	28	2	3	2	2	1	1	1	2470	1	2	0	326	3	1133	beanbagchair_15.bmp	beanbagchair_15.bmp	trunk_1.bmp	beanbagchair_3.bmp	beanbagchair_17.bmp	beanbagchair_15.bmp	beanbagchair_12.bmp	22	1	1	1	1	PSYCHOLOGIE
FAUST_1[2014-06]	116	3	8	2	3	1	1	1	2	0	1816	2	1	0	936	3	1704	lawnmower_3.bmp	camera_7.bmp	camera_3.bmp	lawnmower_3.bmp	camera_4.bmp	camera_6.bmp	camera_7.bmp	22	1	1	1	1	PSYCHOLOGIE
FAUST_1[2014-06]	116	3	31	2	3	2	1	1	1	1	1645	2	2	1	1566	4	1781	parfait_11.bmp	hairdryer_7.bmp	hairdryer_14.bmp	parfait_11.bmp	hairdryer_2.bmp	hairdryer_13.bmp	parfait_11.bmp	22	1	1	1	1	PSYCHOLOGIE
FAUST_1[2014-06]	116	3	15	2	3	1	2	1	2	0	2123	2	1	0	800	2	1674	shredder_7.bmp	shredder_1.bmp	shredder_6.bmp	windchime_3.bmp	shredder_15.bmp	windchime_3.bmp	shredder_7.bmp	22	1	1	1	1	PSYCHOLOGIE
FAUST_1[2014-06]	116	3	21	2	3	2	2	1	1	1	1436	1	1	1	1885	2	1881	watergun_15.bmp	watergun_15.bmp	watergun_9.bmp	ring_8.bmp	watergun_15.bmp	watergun_3.bmp	watergun_8.bmp	22	1	1	1	1	PSYCHOLOGIE
FAUST_1[2014-06]	116	3	10	2	3	1	1	2	1	0	1286	1	2	0	597	2	1089	iceskates_14.bmp	turtle_6.bmp	turtle_11.bmp	turtle_7.bmp	turtle_6.bmp	iceskates_16.bmp	turtle_2.bmp	22	1	1	1	1	PSYCHOLOGIE
FAUST_1[2014-06]	116	3	17	2	3	2	1	2	1	0	1512	1	2	0	1240	3	1234	garbagecan_2.bmp	garbagecan_8.bmp	cake_1.bmp	cake_3.bmp	cake_14.bmp	cake_4.bmp	garbagecan_8.bmp	22	1	1	1	1	PSYCHOLOGIE
FAUST_1[2014-06]	116	3	25	2	3	1	2	2	1	0	2280	1	1	1	712	2	2055	trophy_4.bmp	trophy_16.bmp	leatherman_2.bmp	trophy_6.bmp	leatherman_2.bmp	trophy_14.bmp	trophy_15.bmp	22	1	1	1	1	PSYCHOLOGIE
FAUST_1[2014-06]	116	3	1	2	3	2	2	2	1	0	1349	1	1	1	615	3	2276	plant_8.bmp	plant_13.bmp	plant_5.bmp	glasses_6.bmp	plant_14.bmp	plant_2.bmp	plant_5.bmp	22	1	1	1	1	PSYCHOLOGIE
FAUST_1[2014-06]	116	3	2	2	3	1	1	2	2	1	1553	2	2	1	931	3	1239	tricycle_10.bmp	bowlingpin_13.bmp	bowlingpin_1.bmp	tricycle_15.bmp	bowlingpin_4.bmp	bowlingpin_3.bmp	bowlingpin_13.bmp	22	1	1	1	1	PSYCHOLOGIE
FAUST_1[2014-06]	116	3	20	2	3	2	1	2	2	1	2906	1	2	0	1282	2	1218	carabiner_7.bmp	carabiner_6.bmp	doorknob_7.bmp	doorknob_10.bmp	carabiner_6.bmp	doorknob_2.bmp	doorknob_17.bmp	22	1	1	1	1	PSYCHOLOGIE
FAUST_1[2014-06]	116	3	12	2	3	1	2	2	2	1	1250	1	2	0	1092	2	1823	guitar_7.bmp	guitar_10.bmp	remote_13.bmp	guitar_14.bmp	guitar_5.bmp	remote_13.bmp	guitar_8.bmp	22	1	1	1	1	PSYCHOLOGIE
FAUST_1[2014-06]	116	3	6	2	3	2	2	2	1	0	1586	1	2	0	924	3	1330	bagel_4.bmp	rollerskates_17.bmp	bagel_16.bmp	bagel_10.bmp	bagel_12.bmp	bagel_14.bmp	bagel_16.bmp	22	1	1	1	1	PSYCHOLOGIE
FAUST_1[2014-06]	116	3	14	2	3	1	1	2	1	0	1594	1	1	1	1187	2	1268	wig_7.bmp	wig_12.bmp	easteregg_5.bmp	easteregg_16.bmp	easteregg_14.bmp	easteregg_9.bmp	easteregg_14.bmp	22	1	1	1	1	PSYCHOLOGIE
FAUST_1[2014-06]	116	3	4	2	3	2	1	2	2	1	2483	1	2	0	369	3	1398	vase_6.bmp	vase_15.bmp	horseshoe_6.bmp	vase_15.bmp	horseshoe_12.bmp	horseshoe_4.bmp	horseshoe_3.bmp	22	1	1	1	1	PSYCHOLOGIE
FAUST_1[2014-06]	116	3	29	2	3	1	2	2	2	1	1363	1	2	0	493	4	2039	fan_15.bmp	hairbrush_15.bmp	fan_11.bmp	fan_1.bmp	fan_10.bmp	fan_17.bmp	hairbrush_15.bmp	22	1	1	1	1	PSYCHOLOGIE
FAUST_1[2014-06]	116	3	13	2	3	2	2	2	1	0	1481	1	2	0	690	3	1537	cheesegrater_15.bmp	cheesegrater_11.bmp	cheesegrater_8.bmp	cheesegrater_5.bmp	cheesegrater_14.bmp	router_16.bmp	cheesegrater_11.bmp	22	1	1	1	1	PSYCHOLOGIE
FAUST_1[2014-06]	116	3	23	2	3	1	1	3	1	0	2155	2	1	0	677	2	1199	scooter_10.bmp	cherubstatue_6.bmp	cherubstatue_11.bmp	cherubstatue_12.bmp	saddle_15.bmp	cherubstatue_6.bmp	cherubstatue_10.bmp	22	1	1	1	1	PSYCHOLOGIE
FAUST_1[2014-06]	116	3	11	2	3	2	1	3	2	1	1247	1	2	0	1705	4	1463	flashlight_12.bmp	backpack_12.bmp	backpack_13.bmp	backpack_16.bmp	highchair_10.bmp	backpack_6.bmp	highchair_10.bmp	22	1	1	1	1	PSYCHOLOGIE
FAUST_1[2014-06]	116	3	18	2	3	1	1	3	2	1	2926	2	2	1	590	2	2263	speaker_15.bmp	goggle_4.bmp	goggle_1.bmp	glove_15.bmp	goggle_9.bmp	goggle_3.bmp	goggle_4.bmp	22	1	1	1	1	PSYCHOLOGIE
FAUST_1[2014-06]	116	3	3	2	3	2	1	3	2	1	1507	1	1	1	931	4	1790	sink_10.bmp	doorknocker_14.bmp	chair_5.bmp	doorknocker_11.bmp	doorknocker_4.bmp	doorknocker_5.bmp	chair_5.bmp	22	1	1	1	1	PSYCHOLOGIE
FAUST_1[2014-06]	116	3	16	2	3	1	1	3	2	1	3515	1	2	0	902	2	1750	abacus_2.bmp	cellphone_12.bmp	cellphone_3.bmp	cellphone_12.bmp	watch_14.bmp	cellphone_11.bmp	cellphone_8.bmp	22	1	1	1	1	PSYCHOLOGIE
FAUST_1[2014-06]	116	3	5	2	3	2	1	3	2	1	1199	1	2	0	961	3	1619	shoe_17.bmp	socks_15.bmp	socks_10.bmp	sofa_13.bmp	socks_4.bmp	socks_13.bmp	sofa_13.bmp	22	1	1	1	1	PSYCHOLOGIE
FAUST_1[2014-06]	116	3	9	2	3	1	1	3	2	1	3000	1	2	0	108	3	1383	babycrib_2.bmp	coffee_1.bmp	videogamecontroller_11.bmp	videogamecontroller_5.bmp	videogamecontroller_3.bmp	videogamecontroller_2.bmp	videogamecontroller_3.bmp	22	1	1	1	1	PSYCHOLOGIE
FAUST_1[2014-06]	116	3	26	2	3	2	1	3	2	1	1384	2	1	0	783	4	1524	pasta_11.bmp	circuitboard_16.bmp	rusdoll_1.bmp	circuitboard_4.bmp	circuitboard_2.bmp	rusdoll_1.bmp	circuitboard_8.bmp	22	1	1	1	1	PSYCHOLOGIE
FAUST_1[2014-06]	116	4	1	2	2	1	1	1	2	0	2622	2	1	0	1006	2	2039	Leaf15.bmp	Leaf15.bmp	Chocolate24.bmp	Chocolate6.bmp	Chocolate9.bmp	Chocolate5.bmp	Chocolate6.bmp	22	1	1	1	1	PSYCHOLOGIE
FAUST_1[2014-06]	116	4	12	2	2	2	1	1	2	0	1219	1	2	0	397	3	1337	Bag21.bmp	Bag21.bmp	Tomato18.bmp	Bag21.bmp	Tomato2.bmp	Tomato12.bmp	Tomato3.bmp	22	1	1	1	1	PSYCHOLOGIE
FAUST_1[2014-06]	116	4	2	2	2	1	2	1	2	0	2176	1	1	1	841	2	1583	Hand1.bmp	Feather14.bmp	Hand10.bmp	Hand13.bmp	Hand8.bmp	Hand1.bmp	Feather14.bmp	22	1	1	1	1	PSYCHOLOGIE
FAUST_1[2014-06]	116	4	19	2	2	2	2	1	1	1	1888	1	1	1	1085	4	1433	Jigsaw10.bmp	Jigsaw10.bmp	Present2.bmp	Jigsaw18.bmp	Jigsaw17.bmp	Jigsaw14.bmp	Jigsaw10.bmp	22	1	1	1	1	PSYCHOLOGIE
FAUST_1[2014-06]	116	4	5	2	2	1	1	1	1	1	1676	2	2	1	821	2	1859	Coins12.bmp	Man4.bmp	Man10.bmp	Man2.bmp	Coins12.bmp	Man2.bmp	Man24.bmp	22	1	1	1	1	PSYCHOLOGIE
FAUST_1[2014-06]	116	4	4	2	2	2	1	1	1	1	2332	1	2	0	623	3	1841	Toothbrush1.bmp	Paperclip13.bmp	Toothbrush1.bmp	Paperclip4.bmp	Paperclip14.bmp	Toothbrush1.bmp	Paperclip6.bmp	22	1	1	1	1	PSYCHOLOGIE
FAUST_1[2014-06]	116	4	16	2	2	1	2	1	1	1	1553	2	2	1	621	3	3210	Candle13.bmp	Candle1.bmp	Sweet1.bmp	Candle10.bmp	Candle20.bmp	Candle13.bmp	Sweet1.bmp	22	1	1	1	1	PSYCHOLOGIE
FAUST_1[2014-06]	116	4	7	2	2	2	2	1	2	0	1801	1	1	1	596	2	1233	Star2.bmp	Star19.bmp	Star2.bmp	String12.bmp	Star1.bmp	Star2.bmp	Star17.bmp	22	1	1	1	1	PSYCHOLOGIE
FAUST_1[2014-06]	116	4	6	2	2	1	1	2	1	0	1683	1	1	1	624	4	1901	Varnish5.bmp	Ginger3.bmp	Ginger10.bmp	Ginger3.bmp	Ginger15.bmp	Varnish11.bmp	Ginger17.bmp	22	1	1	1	1	PSYCHOLOGIE
FAUST_1[2014-06]	116	4	14	2	2	2	1	2	1	0	1613	1	1	1	1061	4	1312	Umbrella21.bmp	Screw16.bmp	Umbrella7.bmp	Screw9.bmp	Screw18.bmp	Screw13.bmp	Umbrella7.bmp	22	1	1	1	1	PSYCHOLOGIE
FAUST_1[2014-06]	116	4	11	2	2	1	2	2	1	0	1084	2	1	0	1573	3	1668	Swirl1.bmp	Key5.bmp	Swirl5.bmp	Swirl23.bmp	Swirl10.bmp	Swirl13.bmp	Key5.bmp	22	1	1	1	1	PSYCHOLOGIE
FAUST_1[2014-06]	116	4	8	2	2	2	2	2	1	0	1464	1	2	0	1222	3	1256	Brocolli14.bmp	Brocolli10.bmp	Brocolli9.bmp	Brocolli4.bmp	Car21.bmp	Brocolli19.bmp	Brocolli4.bmp	22	1	1	1	1	PSYCHOLOGIE
FAUST_1[2014-06]	116	4	21	2	2	1	1	2	1	0	1787	1	2	0	557	3	1503	Pen10.bmp	Nut2.bmp	Nut21.bmp	Pen5.bmp	Nut18.bmp	Nut21.bmp	Nut11.bmp	22	1	1	1	1	PSYCHOLOGIE
FAUST_1[2014-06]	116	4	15	2	2	2	1	2	1	0	1128	1	2	0	461	3	1580	Biscuit25.bmp	Biscuit17.bmp	Fork9.bmp	Fork8.bmp	Fork17.bmp	Fork7.bmp	Biscuit17.bmp	22	1	1	1	1	PSYCHOLOGIE
FAUST_1[2014-06]	116	4	13	2	2	1	2	2	1	0	1768	2	1	0	510	3	1925	Keys8.bmp	Keys9.bmp	Keys7.bmp	Onion13.bmp	Keys6.bmp	Onion13.bmp	Keys5.bmp	22	1	1	1	1	PSYCHOLOGIE
FAUST_1[2014-06]	116	4	22	2	2	2	2	2	1	0	1649	2	2	1	457	2	930	Scissors11.bmp	Scissors1.bmp	Scissors3.bmp	Scissors14.bmp	Button18.bmp	Scissors23.bmp	Scissors14.bmp	22	1	1	1	1	PSYCHOLOGIE
FAUST_1[2014-06]	116	4	17	2	2	1	1	3	2	1	1456	2	2	1	664	4	2477	Holly17.bmp	Plug8.bmp	Plug18.bmp	Plug6.bmp	Plug9.bmp	Flower14.bmp	Plug8.bmp	22	1	1	1	1	PSYCHOLOGIE
FAUST_1[2014-06]	116	4	10	2	2	2	1	3	2	1	1235	1	2	0	439	2	1217	Bracelet5.bmp	Fudge20.bmp	Fudge17.bmp	Fudge15.bmp	Cake24.bmp	Fudge8.bmp	Cake24.bmp	22	1	1	1	1	PSYCHOLOGIE
FAUST_1[2014-06]	116	4	18	2	2	1	1	3	2	1	1309	1	1	1	605	2	1471	Chilli22.bmp	Daff21.bmp	Daff9.bmp	Apple24.bmp	Daff22.bmp	Daff3.bmp	Daff21.bmp	22	1	1	1	1	PSYCHOLOGIE
FAUST_1[2014-06]	116	4	20	2	2	2	1	3	2	1	1306	2	2	1	580	4	1065	Glass16.bmp	Stapler7.bmp	Bun22.bmp	Stapler10.bmp	Stapler9.bmp	Bun22.bmp	Stapler8.bmp	22	1	1	1	1	PSYCHOLOGIE
FAUST_1[2014-06]	116	4	9	2	2	1	1	3	2	1	2997	2	1	0	821	2	1458	Shell1.bmp	Pear7.bmp	Pear16.bmp	Pear4.bmp	Pear7.bmp	Pear18.bmp	Lipstick15.bmp	22	1	1	1	1	PSYCHOLOGIE
FAUST_1[2014-06]	116	4	3	2	2	2	1	3	2	1	1900	2	1	0	1391	2	1167	Hanger12.bmp	Mushroom7.bmp	Strawberry21.bmp	Strawberry4.bmp	Mushroom7.bmp	Strawberry18.bmp	Strawberry14.bmp	22	1	1	1	1	PSYCHOLOGIE
