experiment	subject	block	trial	order	material	repeated	related	probetype	response	correct	rt	math_response	math_correctresponse	math_correct	math_rt	confidence	confidence_rt	probe	item1	item2	item3	item4	item5	item6	age	sex	handedness	color_vision	mother_tongue	occupation
FAUST_1[2014-06]	118	1	14	3	2	1	1	1	2	0	2895	1	1	1	2799	4	1750	Lipstick15.bmp	Candle20.bmp	Candle1.bmp	Candle13.bmp	Lipstick15.bmp	Candle20.bmp	Candle17.bmp	32	1	1	1	1	ZAHNMEDIZIN
FAUST_1[2014-06]	118	1	7	3	2	2	1	1	1	1	1014	2	1	0	2380	4	991	Pear4.bmp	Keys8.bmp	Pear4.bmp	Keys5.bmp	Pear4.bmp	Keys9.bmp	Keys6.bmp	32	1	1	1	1	ZAHNMEDIZIN
FAUST_1[2014-06]	118	1	15	3	2	1	2	1	2	0	1498	2	2	1	3155	4	1453	Swirl23.bmp	Coins8.bmp	Swirl1.bmp	Swirl13.bmp	Swirl23.bmp	Coins8.bmp	Swirl10.bmp	32	1	1	1	1	ZAHNMEDIZIN
FAUST_1[2014-06]	118	1	3	3	2	2	2	1	1	1	3282	-1	1	0	0	4	1894	Chocolate6.bmp	Chocolate17.bmp	Chocolate9.bmp	Chocolate6.bmp	Paperclip13.bmp	Chocolate6.bmp	Chocolate5.bmp	32	1	1	1	1	ZAHNMEDIZIN
FAUST_1[2014-06]	118	1	5	3	2	1	1	1	1	1	1146	2	1	0	3053	4	1245	Key11.bmp	Feather14.bmp	Feather11.bmp	Key11.bmp	Feather2.bmp	Feather14.bmp	Feather12.bmp	32	1	1	1	1	ZAHNMEDIZIN
FAUST_1[2014-06]	118	1	4	3	2	2	1	1	1	1	1284	2	2	1	2768	4	1076	Pen5.bmp	Pen5.bmp	Plug18.bmp	Plug8.bmp	Pen5.bmp	Plug4.bmp	Plug6.bmp	32	1	1	1	1	ZAHNMEDIZIN
FAUST_1[2014-06]	118	1	6	3	2	1	2	1	1	1	1077	2	2	1	3025	4	1037	Sweet25.bmp	Sweet25.bmp	Screw18.bmp	Sweet18.bmp	Screw18.bmp	Sweet1.bmp	Sweet10.bmp	32	1	1	1	1	ZAHNMEDIZIN
FAUST_1[2014-06]	118	1	19	3	2	2	2	1	2	0	1330	2	2	1	3297	4	1695	Apple10.bmp	Apple10.bmp	Apple5.bmp	Apple21.bmp	Apple18.bmp	Fork7.bmp	Apple10.bmp	32	1	1	1	1	ZAHNMEDIZIN
FAUST_1[2014-06]	118	1	21	3	2	1	1	2	2	1	4503	2	2	1	2600	4	2594	Fudge5.bmp	Bun5.bmp	Bun17.bmp	Bun12.bmp	Fudge8.bmp	Bun19.bmp	Bun12.bmp	32	1	1	1	1	ZAHNMEDIZIN
FAUST_1[2014-06]	118	1	22	3	2	2	1	2	2	1	5158	-1	2	0	0	4	2335	Leaf10.bmp	Toothbrush9.bmp	Toothbrush6.bmp	Leaf13.bmp	Toothbrush1.bmp	Toothbrush12.bmp	Leaf13.bmp	32	1	1	1	1	ZAHNMEDIZIN
FAUST_1[2014-06]	118	1	12	3	2	1	2	2	1	0	2024	2	2	1	2239	4	1845	Man4.bmp	Jigsaw17.bmp	Man15.bmp	Man10.bmp	Jigsaw17.bmp	Man24.bmp	Man2.bmp	32	1	1	1	1	ZAHNMEDIZIN
FAUST_1[2014-06]	118	1	18	3	2	2	2	2	2	1	1153	-1	1	0	0	4	1488	Bag3.bmp	Bag4.bmp	Bag5.bmp	Onion13.bmp	Bag25.bmp	Bag5.bmp	Bag21.bmp	32	1	1	1	1	ZAHNMEDIZIN
FAUST_1[2014-06]	118	1	2	3	2	1	1	2	1	0	2187	-1	1	0	0	4	2008	Brocolli19.bmp	Brocolli9.bmp	Stapler6.bmp	Stapler7.bmp	Stapler9.bmp	Stapler10.bmp	Stapler6.bmp	32	1	1	1	1	ZAHNMEDIZIN
FAUST_1[2014-06]	118	1	16	3	2	2	1	2	2	1	2987	-1	1	0	0	4	1411	Daff3.bmp	Star1.bmp	Star2.bmp	Daff21.bmp	Star19.bmp	Star7.bmp	Daff21.bmp	32	1	1	1	1	ZAHNMEDIZIN
FAUST_1[2014-06]	118	1	17	3	2	1	2	2	2	1	1009	2	2	1	2459	4	981	Car14.bmp	Car21.bmp	Car13.bmp	Car12.bmp	Chilli14.bmp	Car7.bmp	Chilli14.bmp	32	1	1	1	1	ZAHNMEDIZIN
FAUST_1[2014-06]	118	1	1	3	2	2	2	2	1	0	2821	2	2	1	3121	4	3140	Holly11.bmp	Strawberry3.bmp	Holly17.bmp	Holly20.bmp	Holly14.bmp	Holly3.bmp	Holly17.bmp	32	1	1	1	1	ZAHNMEDIZIN
FAUST_1[2014-06]	118	1	8	3	2	1	1	3	2	1	1494	2	2	1	2427	4	1715	Hanger15.bmp	Bracelet8.bmp	Bracelet2.bmp	Bracelet1.bmp	Umbrella6.bmp	Bracelet18.bmp	Bracelet1.bmp	32	1	1	1	1	ZAHNMEDIZIN
FAUST_1[2014-06]	118	1	9	3	2	2	1	3	2	1	2394	1	1	1	3273	4	2228	Shell18.bmp	Mushroom7.bmp	Mushroom14.bmp	Mushroom25.bmp	Glass12.bmp	Mushroom6.bmp	Glass12.bmp	32	1	1	1	1	ZAHNMEDIZIN
FAUST_1[2014-06]	118	1	13	3	2	1	1	3	2	1	1234	1	1	1	3326	4	1989	Button18.bmp	Tomato5.bmp	Tomato12.bmp	Hand10.bmp	Tomato3.bmp	Tomato2.bmp	Tomato5.bmp	32	1	1	1	1	ZAHNMEDIZIN
FAUST_1[2014-06]	118	1	10	3	2	2	1	3	1	0	55	-1	1	0	0	1	6549	String2.bmp	Cake7.bmp	Varnish17.bmp	Cake16.bmp	Varnish17.bmp	Cake25.bmp	Cake24.bmp	32	1	1	1	1	ZAHNMEDIZIN
FAUST_1[2014-06]	118	1	11	3	2	1	1	3	2	1	1493	2	2	1	2661	4	2022	Present3.bmp	Ginger17.bmp	Ginger5.bmp	Ginger15.bmp	Ginger10.bmp	Flower14.bmp	Ginger5.bmp	32	1	1	1	1	ZAHNMEDIZIN
FAUST_1[2014-06]	118	1	20	3	2	2	1	3	2	1	1205	-1	2	0	0	4	1131	Scissors11.bmp	Biscuit25.bmp	Nut21.bmp	Biscuit9.bmp	Biscuit4.bmp	Biscuit17.bmp	Nut21.bmp	32	1	1	1	1	ZAHNMEDIZIN
FAUST_1[2014-06]	118	2	2	3	3	1	1	1	2	0	4745	2	1	0	3090	4	1139	tv_8.bmp	hammer_6.bmp	tv_8.bmp	hammer_6.bmp	hammer_11.bmp	hammer_17.bmp	hammer_8.bmp	32	1	1	1	1	ZAHNMEDIZIN
FAUST_1[2014-06]	118	2	23	3	3	2	1	1	2	0	3342	1	2	0	2479	4	1592	skateboard_15.bmp	skateboard_15.bmp	printer_5.bmp	skateboard_15.bmp	printer_1.bmp	printer_16.bmp	printer_14.bmp	32	1	1	1	1	ZAHNMEDIZIN
FAUST_1[2014-06]	118	2	12	3	3	1	2	1	1	1	1725	2	2	1	3461	4	907	glove_12.bmp	glove_5.bmp	glove_15.bmp	coffee_2.bmp	glove_12.bmp	glove_10.bmp	coffee_2.bmp	32	1	1	1	1	ZAHNMEDIZIN
FAUST_1[2014-06]	118	2	22	3	3	2	2	1	1	1	1018	1	1	1	1880	4	1468	bowlingpin_1.bmp	bowlingpin_1.bmp	bowlingpin_3.bmp	bowlingpin_4.bmp	bowlingpin_13.bmp	lawnmower_8.bmp	bowlingpin_1.bmp	32	1	1	1	1	ZAHNMEDIZIN
FAUST_1[2014-06]	118	2	32	3	3	1	1	1	2	0	1278	1	2	0	2515	4	1344	parfait_4.bmp	remote_11.bmp	remote_3.bmp	remote_2.bmp	parfait_4.bmp	remote_14.bmp	remote_11.bmp	32	1	1	1	1	ZAHNMEDIZIN
FAUST_1[2014-06]	118	2	7	3	3	2	1	1	1	1	2403	-1	1	0	0	4	1612	orifan_17.bmp	orifan_17.bmp	turtle_11.bmp	turtle_12.bmp	turtle_6.bmp	orifan_17.bmp	turtle_7.bmp	32	1	1	1	1	ZAHNMEDIZIN
FAUST_1[2014-06]	118	2	26	3	3	1	2	1	2	0	1576	1	1	1	3036	4	947	sink_6.bmp	saltpeppershake_8.bmp	sink_10.bmp	sink_6.bmp	sink_1.bmp	saltpeppershake_8.bmp	sink_11.bmp	32	1	1	1	1	ZAHNMEDIZIN
FAUST_1[2014-06]	118	2	29	3	3	2	2	1	2	0	1231	2	2	1	1445	4	1242	camera_6.bmp	babycrib_7.bmp	camera_3.bmp	camera_4.bmp	camera_6.bmp	camera_7.bmp	camera_6.bmp	32	1	1	1	1	ZAHNMEDIZIN
FAUST_1[2014-06]	118	2	3	3	3	1	1	1	2	0	4191	2	1	0	3286	4	1422	shredder_5.bmp	speaker_6.bmp	speaker_4.bmp	speaker_10.bmp	shredder_5.bmp	speaker_17.bmp	speaker_10.bmp	32	1	1	1	1	ZAHNMEDIZIN
FAUST_1[2014-06]	118	2	9	3	3	2	1	1	1	1	1670	1	1	1	2766	4	1415	cake_14.bmp	trumpet_6.bmp	trumpet_3.bmp	trumpet_1.bmp	cake_14.bmp	trumpet_5.bmp	cake_14.bmp	32	1	1	1	1	ZAHNMEDIZIN
FAUST_1[2014-06]	118	2	13	3	3	1	2	1	1	1	4355	1	1	1	2765	4	1362	glasses_13.bmp	router_12.bmp	glasses_9.bmp	glasses_15.bmp	glasses_13.bmp	glasses_6.bmp	router_12.bmp	32	1	1	1	1	ZAHNMEDIZIN
FAUST_1[2014-06]	118	2	17	3	3	2	2	1	1	1	3526	-1	1	0	0	4	1427	doorknocker_5.bmp	doorknocker_5.bmp	mic_3.bmp	doorknocker_11.bmp	doorknocker_14.bmp	doorknocker_5.bmp	doorknocker_4.bmp	32	1	1	1	1	ZAHNMEDIZIN
FAUST_1[2014-06]	118	2	15	3	3	1	1	2	2	1	2419	2	1	0	3294	4	1444	beanbagchair_12.bmp	fan_15.bmp	beanbagchair_14.bmp	fan_1.bmp	fan_17.bmp	fan_1.bmp	fan_10.bmp	32	1	1	1	1	ZAHNMEDIZIN
FAUST_1[2014-06]	118	2	10	3	3	2	1	2	1	0	2509	-1	1	0	0	4	1907	saddle_15.bmp	trophy_6.bmp	trophy_14.bmp	trophy_4.bmp	saddle_8.bmp	trophy_15.bmp	saddle_8.bmp	32	1	1	1	1	ZAHNMEDIZIN
FAUST_1[2014-06]	118	2	24	3	3	1	2	2	2	1	1781	-1	2	0	0	4	1977	pasta_13.bmp	backpack_10.bmp	pasta_15.bmp	pasta_11.bmp	pasta_9.bmp	backpack_10.bmp	pasta_10.bmp	32	1	1	1	1	ZAHNMEDIZIN
FAUST_1[2014-06]	118	2	4	3	3	2	2	2	2	1	3275	2	1	0	3287	4	1872	ring_7.bmp	ring_11.bmp	ring_15.bmp	ring_8.bmp	ring_12.bmp	watch_3.bmp	ring_8.bmp	32	1	1	1	1	ZAHNMEDIZIN
FAUST_1[2014-06]	118	2	20	3	3	1	1	2	1	0	4052	2	1	0	3108	4	2690	flashlight_17.bmp	garbagecan_13.bmp	garbagecan_17.bmp	garbagecan_2.bmp	flashlight_13.bmp	garbagecan_10.bmp	garbagecan_13.bmp	32	1	1	1	1	ZAHNMEDIZIN
FAUST_1[2014-06]	118	2	21	3	3	2	1	2	1	0	1326	1	1	1	2993	4	748	chair_3.bmp	chair_2.bmp	leatherman_5.bmp	leatherman_10.bmp	leatherman_2.bmp	leatherman_14.bmp	chair_2.bmp	32	1	1	1	1	ZAHNMEDIZIN
FAUST_1[2014-06]	118	2	30	3	3	1	2	2	2	1	1078	-1	1	0	0	4	1230	cherubstatue_12.bmp	hairdryer_2.bmp	cherubstatue_11.bmp	cherubstatue_10.bmp	cherubstatue_5.bmp	hairdryer_2.bmp	cherubstatue_6.bmp	32	1	1	1	1	ZAHNMEDIZIN
FAUST_1[2014-06]	118	2	6	3	3	2	2	2	2	1	1256	2	2	1	3203	4	1674	doorknob_2.bmp	doorknob_17.bmp	doorknob_10.bmp	doorknob_7.bmp	jacket_11.bmp	doorknob_14.bmp	doorknob_7.bmp	32	1	1	1	1	ZAHNMEDIZIN
FAUST_1[2014-06]	118	2	25	3	3	1	1	2	2	1	1677	2	2	1	2313	4	1530	wig_6.bmp	cat_10.bmp	wig_1.bmp	cat_1.bmp	cat_10.bmp	cat_9.bmp	cat_4.bmp	32	1	1	1	1	ZAHNMEDIZIN
FAUST_1[2014-06]	118	2	28	3	3	2	1	2	2	1	1249	-1	2	0	0	4	1236	goggle_3.bmp	goggle_4.bmp	shoe_9.bmp	goggle_4.bmp	shoe_15.bmp	shoe_7.bmp	shoe_17.bmp	32	1	1	1	1	ZAHNMEDIZIN
FAUST_1[2014-06]	118	2	14	3	3	1	2	2	1	0	1329	-1	2	0	0	4	1081	sofa_13.bmp	sofa_3.bmp	watergun_3.bmp	sofa_12.bmp	sofa_6.bmp	watergun_3.bmp	sofa_9.bmp	32	1	1	1	1	ZAHNMEDIZIN
FAUST_1[2014-06]	118	2	27	3	3	2	2	2	2	1	1085	1	1	1	3285	4	1443	carriage_3.bmp	carriage_14.bmp	carriage_12.bmp	videogamecontroller_13.bmp	carriage_2.bmp	carriage_9.bmp	carriage_14.bmp	32	1	1	1	1	ZAHNMEDIZIN
FAUST_1[2014-06]	118	2	1	3	3	1	1	3	2	1	1257	2	2	1	2861	4	1294	horseshoe_3.bmp	easteregg_5.bmp	rollerskates_2.bmp	easteregg_5.bmp	easteregg_17.bmp	easteregg_16.bmp	easteregg_9.bmp	32	1	1	1	1	ZAHNMEDIZIN
FAUST_1[2014-06]	118	2	31	3	3	2	1	3	2	1	1348	2	2	1	2321	4	1786	birdhouse_9.bmp	rusdoll_6.bmp	rusdoll_8.bmp	iceskates_7.bmp	rusdoll_1.bmp	rusdoll_3.bmp	iceskates_7.bmp	32	1	1	1	1	ZAHNMEDIZIN
FAUST_1[2014-06]	118	2	8	3	3	1	1	3	2	1	95	-1	1	0	0	4	2368	socks_13.bmp	circuitboard_16.bmp	circuitboard_8.bmp	circuitboard_16.bmp	circuitboard_2.bmp	cellphone_8.bmp	circuitboard_4.bmp	32	1	1	1	1	ZAHNMEDIZIN
FAUST_1[2014-06]	118	2	16	3	3	2	1	3	2	1	1570	-1	1	0	0	4	1194	tricycle_15.bmp	highchair_15.bmp	trunk_7.bmp	trunk_2.bmp	trunk_1.bmp	highchair_15.bmp	trunk_5.bmp	32	1	1	1	1	ZAHNMEDIZIN
FAUST_1[2014-06]	118	2	19	3	3	1	1	3	2	1	1167	2	2	1	2273	4	837	abacus_2.bmp	windchime_6.bmp	guitar_8.bmp	guitar_5.bmp	guitar_14.bmp	guitar_5.bmp	guitar_7.bmp	32	1	1	1	1	ZAHNMEDIZIN
FAUST_1[2014-06]	118	2	18	3	3	2	1	3	2	1	1796	1	1	1	2834	4	1853	hairbrush_15.bmp	powerstrip_8.bmp	carabiner_7.bmp	carabiner_5.bmp	carabiner_9.bmp	carabiner_2.bmp	powerstrip_8.bmp	32	1	1	1	1	ZAHNMEDIZIN
FAUST_1[2014-06]	118	2	11	3	3	1	1	3	1	0	1289	2	1	0	3048	1	2283	plant_5.bmp	laptop_16.bmp	laptop_7.bmp	vase_15.bmp	laptop_7.bmp	laptop_14.bmp	laptop_15.bmp	32	1	1	1	1	ZAHNMEDIZIN
FAUST_1[2014-06]	118	2	5	3	3	2	1	3	2	1	1036	2	2	1	3493	4	951	scooter_8.bmp	bagel_14.bmp	cheesegrater_11.bmp	bagel_10.bmp	cheesegrater_11.bmp	bagel_12.bmp	bagel_16.bmp	32	1	1	1	1	ZAHNMEDIZIN
FAUST_1[2014-06]	118	3	29	3	1	1	1	1	1	1	2542	2	1	0	2320	4	1918	RIECHEN	theater	oper	riechen	zirkus	oper	konzertsaal	32	1	1	1	1	ZAHNMEDIZIN
FAUST_1[2014-06]	118	3	11	3	1	2	1	1	2	0	1000	1	1	1	2232	4	2408	DÄMON	dämon	zwilling	schütze	steinbock	dämon	wassermann	32	1	1	1	1	ZAHNMEDIZIN
FAUST_1[2014-06]	118	3	27	3	1	1	2	1	1	1	1473	1	1	1	2929	4	1118	POMMES	küchenwaage	döner	bratwurst	küchenwaage	pommes	pizza	32	1	1	1	1	ZAHNMEDIZIN
FAUST_1[2014-06]	118	3	2	3	1	2	2	1	2	0	1471	1	2	0	1600	4	1256	FORELLE	hering	forelle	makrele	lachs	forelle	gin	32	1	1	1	1	ZAHNMEDIZIN
FAUST_1[2014-06]	118	3	15	3	1	1	1	1	2	0	729	-1	2	0	0	4	1712	NÄHNADEL	lunge	nähnadel	lunge	magen	herz	niere	32	1	1	1	1	ZAHNMEDIZIN
FAUST_1[2014-06]	118	3	30	3	1	2	1	1	1	1	1559	-1	1	0	0	4	1231	KAMERA	bluse	kamera	rock	kamera	jacke	hemd	32	1	1	1	1	ZAHNMEDIZIN
FAUST_1[2014-06]	118	3	14	3	1	1	2	1	2	0	718	1	2	0	2434	4	1573	GRIPPE	masern	klebeband	mumps	windpocken	grippe	klebeband	32	1	1	1	1	ZAHNMEDIZIN
FAUST_1[2014-06]	118	3	9	3	1	2	2	1	2	0	1639	1	1	1	2769	4	1353	BRONZE	silber	messing	bronze	komödie	gold	bronze	32	1	1	1	1	ZAHNMEDIZIN
FAUST_1[2014-06]	118	3	23	3	1	1	1	1	2	0	1050	2	2	1	2991	4	1243	MARK	mark	thüringen	brandenburg	sachsen	hessen	sachsen	32	1	1	1	1	ZAHNMEDIZIN
FAUST_1[2014-06]	118	3	13	3	1	2	1	1	2	0	2516	2	1	0	2439	4	1486	BLEIFREI	bleifrei	fink	taube	bleifrei	amsel	meise	32	1	1	1	1	ZAHNMEDIZIN
FAUST_1[2014-06]	118	3	16	3	1	1	2	1	2	0	968	-1	2	0	0	4	2605	SAUERSTOFF	filzstift	kohlenstoff	wasserstoff	filzstift	helium	sauerstoff	32	1	1	1	1	ZAHNMEDIZIN
FAUST_1[2014-06]	118	3	26	3	1	2	2	1	2	0	1227	1	2	0	2842	1	1772	CHOPIN	chopin	brahms	vivaldi	fuß	beethoven	chopin	32	1	1	1	1	ZAHNMEDIZIN
FAUST_1[2014-06]	118	3	6	3	1	1	1	2	2	1	1032	2	1	0	3043	4	2363	KARAFFE	flasche	kreis	dreieck	rechteck	quadrat	dreieck	32	1	1	1	1	ZAHNMEDIZIN
FAUST_1[2014-06]	118	3	8	3	1	2	1	2	2	1	828	-1	1	0	0	4	1188	HERZOG	schnee	graf	nebel	sonnenschein	graf	regen	32	1	1	1	1	ZAHNMEDIZIN
FAUST_1[2014-06]	118	3	18	3	1	1	2	2	2	1	1077	2	1	0	3051	4	1588	NOMEN	donau	adjektiv	donau	verb	adverb	präposition	32	1	1	1	1	ZAHNMEDIZIN
FAUST_1[2014-06]	118	3	25	3	1	2	2	2	2	1	1064	-1	2	0	0	4	1395	MONOPOLY	scrabble	halma	erdbeere	schach	backgammon	schach	32	1	1	1	1	ZAHNMEDIZIN
FAUST_1[2014-06]	118	3	12	3	1	1	1	2	2	1	793	-1	1	0	0	4	1326	HEROIN	hummel	wespe	opium	biene	wespe	mücke	32	1	1	1	1	ZAHNMEDIZIN
FAUST_1[2014-06]	118	3	5	3	1	2	1	2	2	1	1290	1	1	1	2590	4	1273	DOLCH	löffel	gabel	schwert	teelöffel	brotmesser	schwert	32	1	1	1	1	ZAHNMEDIZIN
FAUST_1[2014-06]	118	3	19	3	1	1	2	2	2	1	2197	2	2	1	1782	4	2199	MEER	teich	puma	ozean	puma	see	fluss	32	1	1	1	1	ZAHNMEDIZIN
FAUST_1[2014-06]	118	3	4	3	1	2	2	2	2	1	1105	2	2	1	3114	4	1216	TENNIS	schwimmen	golf	fußball	skifahren	golf	rumba	32	1	1	1	1	ZAHNMEDIZIN
FAUST_1[2014-06]	118	3	7	3	1	1	1	2	2	1	775	-1	2	0	0	4	2223	HAFER	oregano	koriander	rosmarin	majoran	weizen	rosmarin	32	1	1	1	1	ZAHNMEDIZIN
FAUST_1[2014-06]	118	3	17	3	1	2	1	2	2	1	932	2	1	0	3254	4	1148	KUPPLUNG	kanu	gaspedal	fähre	gaspedal	schiff	boot	32	1	1	1	1	ZAHNMEDIZIN
FAUST_1[2014-06]	118	3	10	3	1	1	2	2	2	1	904	1	1	1	1666	4	1221	LAKRITZ	meißel	bonbons	meißel	marzipan	karamell	gummibärchen	32	1	1	1	1	ZAHNMEDIZIN
FAUST_1[2014-06]	118	3	24	3	1	2	2	2	2	1	805	1	1	1	2183	4	2033	SPINAT	posaune	tomaten	karotten	bohnen	blumenkohl	bohnen	32	1	1	1	1	ZAHNMEDIZIN
FAUST_1[2014-06]	118	3	28	3	1	1	1	3	1	0	10	-1	1	0	0	1	1862	SCHÄFERHUND	lila	grün	taxi	gelb	blau	gelb	32	1	1	1	1	ZAHNMEDIZIN
FAUST_1[2014-06]	118	3	32	3	1	2	1	3	2	1	1333	1	1	1	1937	4	1268	SOHN	sofa	regal	tisch	biologie	schrank	biologie	32	1	1	1	1	ZAHNMEDIZIN
FAUST_1[2014-06]	118	3	3	3	1	1	1	3	2	1	1245	1	1	1	3033	4	1351	MÜNCHEN	gymnasium	gesamtschule	dänemark	gymnasium	hauptschule	berufsschule	32	1	1	1	1	ZAHNMEDIZIN
FAUST_1[2014-06]	118	3	21	3	1	2	1	3	2	1	4029	2	1	0	2761	4	1471	JUPITER	zentimeter	mercedes	millimeter	meter	mercedes	kilometer	32	1	1	1	1	ZAHNMEDIZIN
FAUST_1[2014-06]	118	3	1	3	1	1	1	3	2	1	2341	1	2	0	3173	4	2142	BIRKE	tag	stunde	sekunde	tag	südamerika	jahr	32	1	1	1	1	ZAHNMEDIZIN
FAUST_1[2014-06]	118	3	20	3	1	2	1	3	2	1	1805	2	2	1	2492	4	1170	KAPELLE	lidschatten	scheune	rouge	scheune	kajal	wimperntusche	32	1	1	1	1	ZAHNMEDIZIN
FAUST_1[2014-06]	118	3	22	3	1	1	1	3	2	1	1397	1	1	1	2401	4	1408	BASTELN	richter	pfarrer	arzt	radio	richter	lehrer	32	1	1	1	1	ZAHNMEDIZIN
FAUST_1[2014-06]	118	3	31	3	1	2	1	3	2	1	2219	2	2	1	2020	4	2018	ANGST	baumwolle	seide	nelke	wolle	flanell	nelke	32	1	1	1	1	ZAHNMEDIZIN
FAUST_1[2014-06]	118	2	8	3	2	1	1	1	1	1	1453	1	1	1	2647	4	833	Key11.bmp	Lipstick15.bmp	Lipstick7.bmp	Lipstick9.bmp	Lipstick2.bmp	Key11.bmp	Lipstick7.bmp	32	1	1	1	1	ZAHNMEDIZIN
FAUST_1[2014-06]	118	2	4	3	2	2	1	1	1	1	1510	2	2	1	2396	4	1242	Present3.bmp	Present3.bmp	Screw18.bmp	Screw16.bmp	Screw13.bmp	Present3.bmp	Screw10.bmp	32	1	1	1	1	ZAHNMEDIZIN
FAUST_1[2014-06]	118	2	22	3	2	1	2	1	1	1	3036	2	1	0	1624	4	1086	Feather2.bmp	Feather18.bmp	Feather2.bmp	Feather12.bmp	Fork14.bmp	Feather11.bmp	Fork14.bmp	32	1	1	1	1	ZAHNMEDIZIN
FAUST_1[2014-06]	118	2	13	3	2	2	2	1	1	1	1245	1	1	1	1708	4	675	Chocolate5.bmp	Chocolate17.bmp	Chocolate5.bmp	Chocolate24.bmp	Chocolate5.bmp	Chocolate9.bmp	Sweet10.bmp	32	1	1	1	1	ZAHNMEDIZIN
FAUST_1[2014-06]	118	2	12	3	2	1	1	1	1	1	1287	2	2	1	2892	4	1423	Umbrella17.bmp	Swirl23.bmp	Swirl13.bmp	Swirl1.bmp	Umbrella17.bmp	Swirl23.bmp	Swirl10.bmp	32	1	1	1	1	ZAHNMEDIZIN
FAUST_1[2014-06]	118	2	16	3	2	2	1	1	1	1	1055	1	1	1	1798	4	1190	Strawberry3.bmp	Button10.bmp	Strawberry3.bmp	Button18.bmp	Button3.bmp	Strawberry3.bmp	Button14.bmp	32	1	1	1	1	ZAHNMEDIZIN
FAUST_1[2014-06]	118	2	20	3	2	1	2	1	1	1	1116	2	2	1	1822	4	904	Leaf22.bmp	Leaf15.bmp	Varnish17.bmp	Leaf22.bmp	Leaf21.bmp	Varnish17.bmp	Leaf13.bmp	32	1	1	1	1	ZAHNMEDIZIN
FAUST_1[2014-06]	118	2	19	3	2	2	2	1	1	1	1459	1	1	1	3206	4	968	Candle1.bmp	Candle17.bmp	Candle1.bmp	Onion14.bmp	Candle20.bmp	Candle1.bmp	Candle10.bmp	32	1	1	1	1	ZAHNMEDIZIN
FAUST_1[2014-06]	118	2	11	3	2	1	1	2	2	1	1100	1	1	1	2936	4	987	Paperclip14.bmp	Glass16.bmp	Glass12.bmp	Glass16.bmp	Paperclip6.bmp	Glass19.bmp	Glass3.bmp	32	1	1	1	1	ZAHNMEDIZIN
FAUST_1[2014-06]	118	2	1	3	2	2	1	2	1	0	1870	-1	1	0	0	4	2339	Coins8.bmp	Coins12.bmp	Flower13.bmp	Flower3.bmp	Coins12.bmp	Flower14.bmp	Flower18.bmp	32	1	1	1	1	ZAHNMEDIZIN
FAUST_1[2014-06]	118	2	2	3	2	1	2	2	1	0	1223	2	1	0	3295	4	1425	Chilli19.bmp	Bracelet8.bmp	Chilli12.bmp	Bracelet8.bmp	Chilli14.bmp	Chilli22.bmp	Chilli11.bmp	32	1	1	1	1	ZAHNMEDIZIN
FAUST_1[2014-06]	118	2	3	3	2	2	2	2	1	0	1915	2	2	1	2707	4	1151	Hand1.bmp	Hand10.bmp	Hand8.bmp	String6.bmp	Hand13.bmp	Hand17.bmp	Hand8.bmp	32	1	1	1	1	ZAHNMEDIZIN
FAUST_1[2014-06]	118	2	7	3	2	1	1	2	1	0	1282	2	2	1	1957	4	848	Toothbrush1.bmp	Apple18.bmp	Apple24.bmp	Apple21.bmp	Toothbrush9.bmp	Apple10.bmp	Apple21.bmp	32	1	1	1	1	ZAHNMEDIZIN
FAUST_1[2014-06]	118	2	14	3	2	2	1	2	1	0	941	-1	1	0	0	4	1067	Biscuit20.bmp	Shell1.bmp	Biscuit4.bmp	Shell9.bmp	Shell18.bmp	Biscuit4.bmp	Shell5.bmp	32	1	1	1	1	ZAHNMEDIZIN
FAUST_1[2014-06]	118	2	17	3	2	1	2	2	1	0	1446	1	2	0	2185	4	1304	Daff21.bmp	Daff1.bmp	Holly20.bmp	Daff9.bmp	Daff3.bmp	Holly20.bmp	Daff22.bmp	32	1	1	1	1	ZAHNMEDIZIN
FAUST_1[2014-06]	118	2	5	3	2	2	2	2	1	0	904	1	1	1	2290	4	790	Ginger17.bmp	Ginger3.bmp	Bun5.bmp	Ginger3.bmp	Ginger15.bmp	Ginger5.bmp	Ginger10.bmp	32	1	1	1	1	ZAHNMEDIZIN
FAUST_1[2014-06]	118	2	6	3	2	1	1	3	2	1	1223	2	2	1	2023	4	1290	Pear15.bmp	Keys9.bmp	Bag21.bmp	Keys5.bmp	Keys8.bmp	Keys7.bmp	Keys5.bmp	32	1	1	1	1	ZAHNMEDIZIN
FAUST_1[2014-06]	118	2	21	3	2	2	1	3	2	1	972	2	2	1	1607	4	1396	Brocolli14.bmp	Stapler10.bmp	Stapler7.bmp	Car21.bmp	Stapler6.bmp	Car21.bmp	Stapler9.bmp	32	1	1	1	1	ZAHNMEDIZIN
FAUST_1[2014-06]	118	2	10	3	2	1	1	3	2	1	972	2	2	1	1717	4	1217	Fudge17.bmp	Pen10.bmp	Pen17.bmp	Cake7.bmp	Pen1.bmp	Pen20.bmp	Pen1.bmp	32	1	1	1	1	ZAHNMEDIZIN
FAUST_1[2014-06]	118	2	9	3	2	2	1	3	2	1	1134	2	1	0	3037	4	1274	Plug6.bmp	Jigsaw10.bmp	Jigsaw11.bmp	Hanger7.bmp	Jigsaw18.bmp	Jigsaw17.bmp	Hanger7.bmp	32	1	1	1	1	ZAHNMEDIZIN
FAUST_1[2014-06]	118	2	15	3	2	1	1	3	2	1	1143	1	1	1	2117	4	2169	Star17.bmp	Man4.bmp	Tomato2.bmp	Man2.bmp	Man15.bmp	Man24.bmp	Man15.bmp	32	1	1	1	1	ZAHNMEDIZIN
FAUST_1[2014-06]	118	2	18	3	2	2	1	3	2	1	1463	2	2	1	1843	4	1351	Scissors3.bmp	Nut19.bmp	Nut2.bmp	Mushroom6.bmp	Nut11.bmp	Mushroom6.bmp	Nut18.bmp	32	1	1	1	1	ZAHNMEDIZIN
FAUST_1[2014-06]	118	3	18	3	3	1	1	1	1	1	1352	2	2	1	2986	4	886	bowlingpin_3.bmp	glasses_6.bmp	glasses_9.bmp	glasses_8.bmp	glasses_9.bmp	bowlingpin_3.bmp	glasses_13.bmp	32	1	1	1	1	ZAHNMEDIZIN
FAUST_1[2014-06]	118	3	24	3	3	2	1	1	2	0	5148	1	2	0	2466	1	2216	hairdryer_14.bmp	hairdryer_14.bmp	windchime_3.bmp	windchime_10.bmp	windchime_16.bmp	windchime_6.bmp	hairdryer_14.bmp	32	1	1	1	1	ZAHNMEDIZIN
FAUST_1[2014-06]	118	3	5	3	3	1	2	1	1	1	2225	2	1	0	2966	4	1314	router_16.bmp	powerstrip_7.bmp	router_7.bmp	router_16.bmp	router_6.bmp	powerstrip_7.bmp	router_5.bmp	32	1	1	1	1	ZAHNMEDIZIN
FAUST_1[2014-06]	118	3	17	3	3	2	2	1	1	1	1295	2	2	1	2029	4	1130	orifan_17.bmp	orifan_17.bmp	orifan_7.bmp	socks_4.bmp	orifan_14.bmp	orifan_1.bmp	orifan_17.bmp	32	1	1	1	1	ZAHNMEDIZIN
FAUST_1[2014-06]	118	3	10	3	3	1	1	1	2	0	4461	2	1	0	2539	4	1671	tricycle_8.bmp	shoe_9.bmp	shoe_15.bmp	shoe_13.bmp	shoe_15.bmp	shoe_17.bmp	tricycle_8.bmp	32	1	1	1	1	ZAHNMEDIZIN
FAUST_1[2014-06]	118	3	16	3	3	2	1	1	1	1	1349	2	2	1	2794	4	886	rusdoll_3.bmp	rusdoll_3.bmp	highchair_10.bmp	rusdoll_3.bmp	highchair_4.bmp	highchair_15.bmp	highchair_3.bmp	32	1	1	1	1	ZAHNMEDIZIN
FAUST_1[2014-06]	118	3	26	3	3	1	2	1	1	1	1074	2	2	1	3067	4	1044	garbagecan_17.bmp	jacket_7.bmp	garbagecan_17.bmp	jacket_7.bmp	garbagecan_2.bmp	garbagecan_13.bmp	garbagecan_8.bmp	32	1	1	1	1	ZAHNMEDIZIN
FAUST_1[2014-06]	118	3	22	3	3	2	2	1	2	0	871	1	1	1	3003	4	1264	vase_6.bmp	vase_6.bmp	vase_15.bmp	vase_13.bmp	vase_6.bmp	camera_4.bmp	vase_1.bmp	32	1	1	1	1	ZAHNMEDIZIN
FAUST_1[2014-06]	118	3	15	3	3	1	1	1	2	0	1256	1	1	1	3403	4	1049	circuitboard_16.bmp	glove_15.bmp	glove_5.bmp	glove_10.bmp	glove_8.bmp	glove_5.bmp	circuitboard_16.bmp	32	1	1	1	1	ZAHNMEDIZIN
FAUST_1[2014-06]	118	3	11	3	3	2	1	1	2	0	894	-1	1	0	0	4	1151	hammer_6.bmp	fan_15.bmp	fan_10.bmp	fan_1.bmp	hammer_6.bmp	fan_17.bmp	hammer_6.bmp	32	1	1	1	1	ZAHNMEDIZIN
FAUST_1[2014-06]	118	3	9	3	3	1	2	1	1	1	1272	2	2	1	2365	4	878	plant_13.bmp	plant_5.bmp	plant_13.bmp	sofa_13.bmp	plant_14.bmp	plant_2.bmp	sofa_13.bmp	32	1	1	1	1	ZAHNMEDIZIN
FAUST_1[2014-06]	118	3	7	3	3	2	2	1	1	1	972	-1	2	0	0	4	1041	saltpeppershake_9.bmp	shredder_6.bmp	saltpeppershake_8.bmp	saltpeppershake_17.bmp	saltpeppershake_9.bmp	saltpeppershake_2.bmp	saltpeppershake_9.bmp	32	1	1	1	1	ZAHNMEDIZIN
FAUST_1[2014-06]	118	3	31	3	3	1	1	2	2	1	2195	1	2	0	3106	4	1102	cheesegrater_11.bmp	hairbrush_17.bmp	cheesegrater_5.bmp	hairbrush_16.bmp	hairbrush_12.bmp	hairbrush_7.bmp	hairbrush_16.bmp	32	1	1	1	1	ZAHNMEDIZIN
FAUST_1[2014-06]	118	3	20	3	3	2	1	2	1	0	1193	2	2	1	1653	4	829	birdhouse_14.bmp	birdhouse_7.bmp	rollerskates_5.bmp	birdhouse_7.bmp	rollerskates_8.bmp	rollerskates_7.bmp	rollerskates_17.bmp	32	1	1	1	1	ZAHNMEDIZIN
FAUST_1[2014-06]	118	3	30	3	3	1	2	2	1	0	941	1	1	1	2379	4	1546	saddle_8.bmp	saddle_4.bmp	saddle_15.bmp	saddle_3.bmp	turtle_11.bmp	saddle_5.bmp	turtle_11.bmp	32	1	1	1	1	ZAHNMEDIZIN
FAUST_1[2014-06]	118	3	12	3	3	2	2	2	1	0	2113	2	1	0	3452	4	953	mic_5.bmp	carriage_12.bmp	mic_3.bmp	mic_10.bmp	mic_12.bmp	mic_2.bmp	mic_3.bmp	32	1	1	1	1	ZAHNMEDIZIN
FAUST_1[2014-06]	118	3	32	3	3	1	1	2	2	1	924	1	1	1	2910	4	1163	trophy_4.bmp	chair_2.bmp	chair_3.bmp	trophy_15.bmp	chair_2.bmp	chair_11.bmp	chair_5.bmp	32	1	1	1	1	ZAHNMEDIZIN
FAUST_1[2014-06]	118	3	13	3	3	2	1	2	1	0	1133	1	1	1	2152	4	1194	bagel_10.bmp	remote_3.bmp	bagel_16.bmp	remote_14.bmp	bagel_16.bmp	remote_2.bmp	remote_13.bmp	32	1	1	1	1	ZAHNMEDIZIN
FAUST_1[2014-06]	118	3	2	3	3	1	2	2	2	1	1653	2	2	1	1949	4	1266	doorknocker_4.bmp	doorknocker_11.bmp	laptop_15.bmp	doorknocker_2.bmp	laptop_15.bmp	doorknocker_5.bmp	doorknocker_14.bmp	32	1	1	1	1	ZAHNMEDIZIN
FAUST_1[2014-06]	118	3	6	3	3	2	2	2	1	0	1076	1	1	1	2045	4	1333	skateboard_16.bmp	skateboard_11.bmp	skateboard_3.bmp	ring_15.bmp	skateboard_11.bmp	skateboard_15.bmp	skateboard_14.bmp	32	1	1	1	1	ZAHNMEDIZIN
FAUST_1[2014-06]	118	3	19	3	3	1	1	2	2	1	2429	2	1	0	1771	4	1093	printer_1.bmp	trunk_5.bmp	trunk_7.bmp	trunk_3.bmp	trunk_7.bmp	trunk_1.bmp	printer_16.bmp	32	1	1	1	1	ZAHNMEDIZIN
FAUST_1[2014-06]	118	3	28	3	3	2	1	2	1	0	2513	2	2	1	3077	4	1269	cat_9.bmp	sink_15.bmp	cat_5.bmp	sink_6.bmp	sink_11.bmp	cat_5.bmp	sink_10.bmp	32	1	1	1	1	ZAHNMEDIZIN
FAUST_1[2014-06]	118	3	25	3	3	1	2	2	2	1	785	1	2	0	3134	4	1875	leatherman_2.bmp	speaker_4.bmp	leatherman_10.bmp	leatherman_14.bmp	leatherman_5.bmp	speaker_4.bmp	leatherman_7.bmp	32	1	1	1	1	ZAHNMEDIZIN
FAUST_1[2014-06]	118	3	3	3	3	2	2	2	1	0	1392	1	1	1	1432	4	1038	cherubstatue_11.bmp	cherubstatue_6.bmp	cherubstatue_5.bmp	coffee_2.bmp	cherubstatue_12.bmp	cherubstatue_5.bmp	cherubstatue_10.bmp	32	1	1	1	1	ZAHNMEDIZIN
FAUST_1[2014-06]	118	3	8	3	3	1	1	3	2	1	966	-1	1	0	0	4	1080	scooter_4.bmp	goggle_1.bmp	easteregg_14.bmp	goggle_1.bmp	goggle_4.bmp	goggle_3.bmp	goggle_9.bmp	32	1	1	1	1	ZAHNMEDIZIN
FAUST_1[2014-06]	118	3	27	3	3	2	1	3	2	1	864	1	1	1	1751	4	1158	cellphone_12.bmp	carabiner_6.bmp	trumpet_6.bmp	trumpet_5.bmp	trumpet_3.bmp	trumpet_17.bmp	carabiner_6.bmp	32	1	1	1	1	ZAHNMEDIZIN
FAUST_1[2014-06]	118	3	14	3	3	1	1	3	2	1	1177	2	2	1	2847	4	1034	flashlight_13.bmp	pasta_9.bmp	pasta_15.bmp	pasta_10.bmp	pasta_13.bmp	iceskates_14.bmp	pasta_9.bmp	32	1	1	1	1	ZAHNMEDIZIN
FAUST_1[2014-06]	118	3	29	3	3	2	1	3	2	1	2118	2	1	0	2768	4	1669	videogamecontroller_13.bmp	guitar_8.bmp	guitar_10.bmp	lawnmower_17.bmp	guitar_5.bmp	lawnmower_17.bmp	guitar_14.bmp	32	1	1	1	1	ZAHNMEDIZIN
FAUST_1[2014-06]	118	3	4	3	3	1	1	3	2	1	1372	2	2	1	290	4	1258	tv_5.bmp	parfait_15.bmp	parfait_4.bmp	parfait_1.bmp	parfait_13.bmp	babycrib_2.bmp	parfait_13.bmp	32	1	1	1	1	ZAHNMEDIZIN
FAUST_1[2014-06]	118	3	1	3	3	2	1	3	2	1	846	2	2	1	1776	4	1717	beanbagchair_14.bmp	wig_1.bmp	doorknob_10.bmp	wig_1.bmp	doorknob_17.bmp	doorknob_7.bmp	doorknob_14.bmp	32	1	1	1	1	ZAHNMEDIZIN
FAUST_1[2014-06]	118	3	21	3	3	1	1	3	2	1	1193	1	2	0	2105	4	1695	abacus_6.bmp	watch_7.bmp	cake_1.bmp	cake_4.bmp	cake_1.bmp	cake_3.bmp	cake_5.bmp	32	1	1	1	1	ZAHNMEDIZIN
FAUST_1[2014-06]	118	3	23	3	3	2	1	3	2	1	1779	-1	1	0	0	4	1202	backpack_12.bmp	watergun_8.bmp	horseshoe_6.bmp	watergun_15.bmp	watergun_7.bmp	horseshoe_6.bmp	watergun_9.bmp	32	1	1	1	1	ZAHNMEDIZIN
FAUST_1[2014-06]	118	4	18	3	1	1	1	1	1	1	1401	2	1	0	2782	4	940	SCHWALBE	scheune	schuppen	hütte	scheune	blockhaus	schwalbe	32	1	1	1	1	ZAHNMEDIZIN
FAUST_1[2014-06]	118	4	8	3	1	2	1	1	1	1	1132	2	2	1	2481	4	1460	SKIFAHREN	hose	hemd	skifahren	rock	skifahren	bluse	32	1	1	1	1	ZAHNMEDIZIN
FAUST_1[2014-06]	118	4	1	3	1	1	2	1	1	1	1223	2	2	1	1561	4	1070	KAMERA	kamera	schmecken	mobiltelefon	schmecken	computer	laptop	32	1	1	1	1	ZAHNMEDIZIN
FAUST_1[2014-06]	118	4	9	3	1	2	2	1	1	1	1191	1	1	1	1368	4	1753	LESEN	gymnasium	lesen	zeichnen	schreiben	malen	lesen	32	1	1	1	1	ZAHNMEDIZIN
FAUST_1[2014-06]	118	4	24	3	1	1	1	1	1	1	962	2	2	1	1485	4	943	PEUGEOT	gin	peugeot	rum	tequila	gin	whiskey	32	1	1	1	1	ZAHNMEDIZIN
FAUST_1[2014-06]	118	4	27	3	1	2	1	1	2	0	891	-1	2	0	0	4	1300	TAG	brieföffner	tag	lineal	tag	locher	klebeband	32	1	1	1	1	ZAHNMEDIZIN
FAUST_1[2014-06]	118	4	29	3	1	1	2	1	2	0	925	2	1	0	3314	4	1224	BIRNE	erdbeere	pflaume	bohnen	banane	bohnen	birne	32	1	1	1	1	ZAHNMEDIZIN
FAUST_1[2014-06]	118	4	19	3	1	2	2	1	1	1	1326	-1	1	0	0	4	877	WINDPOCKEN	sachsen	masern	windpocken	röteln	grippe	windpocken	32	1	1	1	1	ZAHNMEDIZIN
FAUST_1[2014-06]	118	4	13	3	1	1	1	1	2	0	1409	-1	1	0	0	2	635	FLÖTE	flöte	freude	trauer	angst	scham	trauer	32	1	1	1	1	ZAHNMEDIZIN
FAUST_1[2014-06]	118	4	2	3	1	2	1	1	1	1	1271	1	1	1	3138	4	909	MOPS	bleifrei	kerosin	benzin	mops	petroleum	mops	32	1	1	1	1	ZAHNMEDIZIN
FAUST_1[2014-06]	118	4	32	3	1	1	2	1	2	0	1078	2	1	0	2374	4	1211	MÜCKE	hummel	wolle	biene	mücke	wolle	ameise	32	1	1	1	1	ZAHNMEDIZIN
FAUST_1[2014-06]	118	4	31	3	1	2	2	1	2	0	1491	2	2	1	2794	4	1075	ASIEN	nordamerika	halma	asien	australien	asien	südamerika	32	1	1	1	1	ZAHNMEDIZIN
FAUST_1[2014-06]	118	4	7	3	1	1	1	2	2	1	1270	2	2	1	2975	4	1074	KARAMELL	lakritz	kanne	glas	flasche	karaffe	flasche	32	1	1	1	1	ZAHNMEDIZIN
FAUST_1[2014-06]	118	4	10	3	1	2	1	2	2	1	767	2	2	1	1408	4	998	NOMEN	bronze	gold	adverb	messing	adverb	eisen	32	1	1	1	1	ZAHNMEDIZIN
FAUST_1[2014-06]	118	4	5	3	1	1	2	2	2	1	651	2	2	1	2362	4	964	TANGO	foxtrott	vater	chachacha	walzer	vater	rumba	32	1	1	1	1	ZAHNMEDIZIN
FAUST_1[2014-06]	118	4	21	3	1	2	2	2	2	1	1077	2	2	1	2243	4	1385	REGEN	sonnenschein	hagel	hand	schnee	sonnenschein	nebel	32	1	1	1	1	ZAHNMEDIZIN
FAUST_1[2014-06]	118	4	25	3	1	1	1	2	2	1	1044	2	2	1	3216	4	969	INTERNET	lilie	nelke	radio	nelke	veilchen	rose	32	1	1	1	1	ZAHNMEDIZIN
FAUST_1[2014-06]	118	4	16	3	1	2	1	2	2	1	2283	2	2	1	2698	4	1011	NÄHNADEL	venus	merkur	jupiter	häkelnadel	pluto	häkelnadel	32	1	1	1	1	ZAHNMEDIZIN
FAUST_1[2014-06]	118	4	28	3	1	1	2	2	2	1	959	2	2	1	2640	4	1028	EICHE	tanne	jungfrau	weide	birke	jungfrau	buche	32	1	1	1	1	ZAHNMEDIZIN
FAUST_1[2014-06]	118	4	14	3	1	2	2	2	2	1	1509	1	1	1	1646	4	1259	DONAU	pfannenwender	rhein	weser	elbe	main	rhein	32	1	1	1	1	ZAHNMEDIZIN
FAUST_1[2014-06]	118	4	3	3	1	1	1	2	2	1	1055	1	1	1	2911	4	1216	FLUSS	see	koriander	oregano	thymian	majoran	thymian	32	1	1	1	1	ZAHNMEDIZIN
FAUST_1[2014-06]	118	4	26	3	1	2	1	2	2	1	2211	2	2	1	2761	4	1332	ACTIONFILM	biologie	komödie	erdkunde	komödie	mathematik	physik	32	1	1	1	1	ZAHNMEDIZIN
FAUST_1[2014-06]	118	4	20	3	1	1	2	2	2	1	1726	1	1	1	2547	4	1317	HEXE	tiger	zombie	werwolf	tiger	vampir	dämon	32	1	1	1	1	ZAHNMEDIZIN
FAUST_1[2014-06]	118	4	23	3	1	2	2	2	2	1	1550	1	1	1	2223	4	1793	REGAL	stuhl	sofa	tisch	schrank	gelb	schrank	32	1	1	1	1	ZAHNMEDIZIN
FAUST_1[2014-06]	118	4	22	3	1	1	1	3	2	1	720	1	1	1	1494	4	1281	OPER	bratwurst	pommes	bratwurst	berlin	pizza	döner	32	1	1	1	1	ZAHNMEDIZIN
FAUST_1[2014-06]	118	4	15	3	1	2	1	3	2	1	1235	1	1	1	1773	4	1196	MOSCHEE	brotmesser	rückspiegel	gabel	teelöffel	löffel	rückspiegel	32	1	1	1	1	ZAHNMEDIZIN
FAUST_1[2014-06]	118	4	30	3	1	1	1	3	2	1	1121	2	2	1	3261	4	1797	HELIUM	taxi	fahrrad	bus	straßenbahn	bus	gewehr	32	1	1	1	1	ZAHNMEDIZIN
FAUST_1[2014-06]	118	4	6	3	1	2	1	3	2	1	24	-1	2	0	0	4	2022	PFARRER	kilometer	italien	kilometer	dänemark	österreich	england	32	1	1	1	1	ZAHNMEDIZIN
FAUST_1[2014-06]	118	4	11	3	1	1	1	3	2	1	825	1	1	1	2944	4	1000	FÜRST	kreis	bleistift	viereck	dreieck	kreis	quadrat	32	1	1	1	1	ZAHNMEDIZIN
FAUST_1[2014-06]	118	4	12	3	1	2	1	3	2	1	804	2	2	1	3010	4	1340	EURO	lippenstift	weizen	lippenstift	hafer	roggen	gerste	32	1	1	1	1	ZAHNMEDIZIN
FAUST_1[2014-06]	118	4	17	3	1	1	1	3	2	1	653	-1	2	0	0	4	1460	BOOT	forelle	makrele	lachs	hering	magen	forelle	32	1	1	1	1	ZAHNMEDIZIN
FAUST_1[2014-06]	118	4	4	3	1	2	1	3	2	1	968	1	1	1	2596	4	943	HEROIN	säge	mozart	brahms	beethoven	vivaldi	säge	32	1	1	1	1	ZAHNMEDIZIN
