experiment	subject	block	trial	order	material	repeated	related	probetype	response	correct	rt	math_response	math_correctresponse	math_correct	math_rt	confidence	confidence_rt	probe	item1	item2	item3	item4	item5	item6	age	sex	handedness	color_vision	mother_tongue	occupation
FAUST_1[2014-06]	119	1	8	5	3	1	1	1	1	1	1784	2	1	0	2136	2	2248	turtle_7.bmp	turtle_7.bmp	tv_8.bmp	tv_7.bmp	tv_8.bmp	tv_5.bmp	tv_4.bmp	30	2	1	1	1	PHILOSOPHIEG
FAUST_1[2014-06]	119	1	14	5	3	2	1	1	1	1	2007	1	1	1	2219	3	1837	ring_11.bmp	ring_11.bmp	rusdoll_8.bmp	rusdoll_3.bmp	rusdoll_5.bmp	rusdoll_6.bmp	ring_11.bmp	30	2	1	1	1	PHILOSOPHIEG
FAUST_1[2014-06]	119	1	27	5	3	1	2	1	2	0	1036	1	1	1	847	3	1259	powerstrip_13.bmp	carriage_14.bmp	powerstrip_8.bmp	powerstrip_13.bmp	carriage_14.bmp	powerstrip_14.bmp	powerstrip_10.bmp	30	2	1	1	1	PHILOSOPHIEG
FAUST_1[2014-06]	119	1	11	5	3	2	2	1	2	0	5393	-1	2	0	0	2	6240	remote_11.bmp	remote_2.bmp	remote_11.bmp	abacus_7.bmp	remote_14.bmp	remote_3.bmp	remote_11.bmp	30	2	1	1	1	PHILOSOPHIEG
FAUST_1[2014-06]	119	1	3	5	3	1	1	1	2	0	2346	2	2	1	2623	4	1748	leatherman_2.bmp	leatherman_2.bmp	backpack_10.bmp	backpack_6.bmp	backpack_13.bmp	backpack_16.bmp	backpack_10.bmp	30	2	1	1	1	PHILOSOPHIEG
FAUST_1[2014-06]	119	1	2	5	3	2	1	1	1	1	3222	-1	2	0	0	2	2662	trophy_14.bmp	babycrib_2.bmp	trophy_14.bmp	babycrib_7.bmp	babycrib_9.bmp	babycrib_6.bmp	trophy_14.bmp	30	2	1	1	1	PHILOSOPHIEG
FAUST_1[2014-06]	119	1	25	5	3	1	2	1	2	0	1648	1	1	1	1391	2	1643	cellphone_11.bmp	cellphone_11.bmp	bowlingpin_1.bmp	cellphone_4.bmp	bowlingpin_1.bmp	cellphone_3.bmp	cellphone_12.bmp	30	2	1	1	1	PHILOSOPHIEG
FAUST_1[2014-06]	119	1	24	5	3	2	2	1	1	1	1832	2	2	1	613	3	2653	circuitboard_2.bmp	circuitboard_2.bmp	circuitboard_16.bmp	circuitboard_13.bmp	circuitboard_2.bmp	circuitboard_4.bmp	pasta_10.bmp	30	2	1	1	1	PHILOSOPHIEG
FAUST_1[2014-06]	119	1	28	5	3	1	1	1	2	0	3626	2	1	0	660	3	1710	scooter_10.bmp	skateboard_3.bmp	skateboard_14.bmp	scooter_10.bmp	skateboard_3.bmp	skateboard_15.bmp	skateboard_11.bmp	30	2	1	1	1	PHILOSOPHIEG
FAUST_1[2014-06]	119	1	7	5	3	2	1	1	2	0	3387	1	1	1	1994	3	1850	guitar_14.bmp	guitar_14.bmp	trunk_1.bmp	trunk_2.bmp	guitar_14.bmp	trunk_3.bmp	trunk_7.bmp	30	2	1	1	1	PHILOSOPHIEG
FAUST_1[2014-06]	119	1	12	5	3	1	2	1	2	0	2915	-1	2	0	0	3	1992	flashlight_2.bmp	flashlight_13.bmp	flashlight_12.bmp	cat_9.bmp	flashlight_2.bmp	flashlight_17.bmp	cat_9.bmp	30	2	1	1	1	PHILOSOPHIEG
FAUST_1[2014-06]	119	1	31	5	3	2	2	1	1	1	3148	2	1	0	431	3	2371	cherubstatue_6.bmp	cherubstatue_6.bmp	cherubstatue_5.bmp	cherubstatue_6.bmp	saddle_8.bmp	cherubstatue_12.bmp	cherubstatue_10.bmp	30	2	1	1	1	PHILOSOPHIEG
FAUST_1[2014-06]	119	1	20	5	3	1	1	2	1	0	947	2	1	0	1293	2	2327	tricycle_15.bmp	sofa_13.bmp	sofa_12.bmp	sofa_9.bmp	sofa_13.bmp	tricycle_10.bmp	sofa_3.bmp	30	2	1	1	1	PHILOSOPHIEG
FAUST_1[2014-06]	119	1	10	5	3	2	1	2	1	0	3625	2	2	1	2654	2	2446	coffee_15.bmp	coffee_7.bmp	mic_2.bmp	mic_12.bmp	coffee_7.bmp	mic_10.bmp	mic_5.bmp	30	2	1	1	1	PHILOSOPHIEG
FAUST_1[2014-06]	119	1	4	5	3	1	2	2	1	0	2771	-1	2	0	0	3	2533	shredder_5.bmp	camera_9.bmp	shredder_15.bmp	shredder_6.bmp	shredder_1.bmp	camera_9.bmp	shredder_7.bmp	30	2	1	1	1	PHILOSOPHIEG
FAUST_1[2014-06]	119	1	5	5	3	2	2	2	1	0	1853	2	2	1	2678	3	1574	chair_3.bmp	chair_2.bmp	chair_11.bmp	chair_16.bmp	glasses_15.bmp	chair_5.bmp	chair_11.bmp	30	2	1	1	1	PHILOSOPHIEG
FAUST_1[2014-06]	119	1	32	5	3	1	1	2	2	1	1064	1	2	0	336	3	1377	hairbrush_16.bmp	horseshoe_4.bmp	horseshoe_3.bmp	horseshoe_6.bmp	horseshoe_12.bmp	horseshoe_6.bmp	hairbrush_7.bmp	30	2	1	1	1	PHILOSOPHIEG
FAUST_1[2014-06]	119	1	22	5	3	2	1	2	2	1	1777	1	1	1	565	2	1368	easteregg_5.bmp	bagel_10.bmp	bagel_16.bmp	easteregg_17.bmp	bagel_14.bmp	bagel_4.bmp	easteregg_17.bmp	30	2	1	1	1	PHILOSOPHIEG
FAUST_1[2014-06]	119	1	17	5	3	1	2	2	1	0	3812	2	2	1	2449	2	2295	printer_16.bmp	printer_5.bmp	printer_3.bmp	laptop_16.bmp	printer_1.bmp	laptop_16.bmp	printer_14.bmp	30	2	1	1	1	PHILOSOPHIEG
FAUST_1[2014-06]	119	1	13	5	3	2	2	2	2	1	1756	2	1	0	1859	3	1671	parfait_4.bmp	parfait_1.bmp	parfait_13.bmp	parfait_11.bmp	parfait_15.bmp	parfait_1.bmp	watch_8.bmp	30	2	1	1	1	PHILOSOPHIEG
FAUST_1[2014-06]	119	1	30	5	3	1	1	2	2	1	1341	1	1	1	810	3	2833	lawnmower_3.bmp	shoe_13.bmp	shoe_17.bmp	shoe_9.bmp	lawnmower_17.bmp	shoe_9.bmp	shoe_15.bmp	30	2	1	1	1	PHILOSOPHIEG
FAUST_1[2014-06]	119	1	21	5	3	2	1	2	2	1	1333	2	2	1	487	3	1437	router_5.bmp	beanbagchair_12.bmp	router_6.bmp	beanbagchair_3.bmp	beanbagchair_14.bmp	beanbagchair_17.bmp	router_6.bmp	30	2	1	1	1	PHILOSOPHIEG
FAUST_1[2014-06]	119	1	16	5	3	1	2	2	2	1	2284	2	2	1	1788	2	2287	fan_15.bmp	fan_17.bmp	fan_10.bmp	windchime_16.bmp	fan_1.bmp	windchime_16.bmp	fan_11.bmp	30	2	1	1	1	PHILOSOPHIEG
FAUST_1[2014-06]	119	1	6	5	3	2	2	2	2	1	3543	-1	2	0	0	3	3298	rollerskates_17.bmp	rollerskates_7.bmp	rollerskates_2.bmp	rollerskates_8.bmp	rollerskates_5.bmp	rollerskates_8.bmp	wig_9.bmp	30	2	1	1	1	PHILOSOPHIEG
FAUST_1[2014-06]	119	1	26	5	3	1	1	3	2	1	1013	2	2	1	1243	3	2560	plant_13.bmp	iceskates_7.bmp	iceskates_9.bmp	iceskates_7.bmp	iceskates_14.bmp	iceskates_5.bmp	highchair_6.bmp	30	2	1	1	1	PHILOSOPHIEG
FAUST_1[2014-06]	119	1	19	5	3	2	1	3	2	1	12385	1	1	1	2910	3	1765	sink_10.bmp	goggle_9.bmp	orifan_1.bmp	orifan_14.bmp	goggle_9.bmp	orifan_17.bmp	orifan_6.bmp	30	2	1	1	1	PHILOSOPHIEG
FAUST_1[2014-06]	119	1	18	5	3	1	1	3	2	1	6826	2	1	0	1636	2	1274	garbagecan_13.bmp	cake_1.bmp	cake_4.bmp	cake_5.bmp	cake_14.bmp	vase_5.bmp	cake_1.bmp	30	2	1	1	1	PHILOSOPHIEG
FAUST_1[2014-06]	119	1	9	5	3	2	1	3	2	1	2486	2	2	1	2598	3	2190	doorknocker_11.bmp	carabiner_2.bmp	doorknob_7.bmp	doorknob_17.bmp	doorknob_10.bmp	carabiner_2.bmp	doorknob_14.bmp	30	2	1	1	1	PHILOSOPHIEG
FAUST_1[2014-06]	119	1	23	5	3	1	1	3	2	1	1327	1	1	1	1278	3	1329	hammer_15.bmp	birdhouse_7.bmp	birdhouse_6.bmp	birdhouse_11.bmp	watergun_8.bmp	birdhouse_9.bmp	birdhouse_6.bmp	30	2	1	1	1	PHILOSOPHIEG
FAUST_1[2014-06]	119	1	29	5	3	2	1	3	2	1	959	1	2	0	340	2	1374	speaker_15.bmp	cheesegrater_11.bmp	trumpet_5.bmp	trumpet_3.bmp	trumpet_1.bmp	trumpet_17.bmp	cheesegrater_11.bmp	30	2	1	1	1	PHILOSOPHIEG
FAUST_1[2014-06]	119	1	1	5	3	1	1	3	2	1	3191	2	1	0	3402	4	2764	socks_15.bmp	hairdryer_2.bmp	hairdryer_7.bmp	hairdryer_2.bmp	hairdryer_13.bmp	glove_12.bmp	hairdryer_14.bmp	30	2	1	1	1	PHILOSOPHIEG
FAUST_1[2014-06]	119	1	15	5	3	2	1	3	2	1	3086	-1	2	0	0	3	2078	jacket_6.bmp	saltpeppershake_8.bmp	videogamecontroller_2.bmp	videogamecontroller_11.bmp	videogamecontroller_3.bmp	saltpeppershake_8.bmp	videogamecontroller_13.bmp	30	2	1	1	1	PHILOSOPHIEG
FAUST_1[2014-06]	119	2	10	5	2	1	1	1	1	1	2814	1	1	1	1135	3	2477	Pen1.bmp	Hanger14.bmp	Hanger7.bmp	Hanger15.bmp	Hanger7.bmp	Hanger12.bmp	Pen1.bmp	30	2	1	1	1	PHILOSOPHIEG
FAUST_1[2014-06]	119	2	2	5	2	2	1	1	1	1	1761	2	2	1	547	4	2416	Ginger15.bmp	Ginger15.bmp	Keys6.bmp	Ginger15.bmp	Keys7.bmp	Keys8.bmp	Keys5.bmp	30	2	1	1	1	PHILOSOPHIEG
FAUST_1[2014-06]	119	2	14	5	2	1	2	1	1	1	1525	2	2	1	695	4	2604	Pear18.bmp	Pear7.bmp	Pear18.bmp	Candle1.bmp	Pear16.bmp	Candle1.bmp	Pear4.bmp	30	2	1	1	1	PHILOSOPHIEG
FAUST_1[2014-06]	119	2	19	5	2	2	2	1	1	1	1217	2	2	1	1662	4	1402	Man24.bmp	Man24.bmp	Man4.bmp	Sweet1.bmp	Man24.bmp	Man2.bmp	Man15.bmp	30	2	1	1	1	PHILOSOPHIEG
FAUST_1[2014-06]	119	2	4	5	2	1	1	1	2	0	1660	2	1	0	345	3	1877	Jigsaw10.bmp	Jigsaw10.bmp	Mushroom18.bmp	Mushroom14.bmp	Mushroom25.bmp	Mushroom6.bmp	Mushroom14.bmp	30	2	1	1	1	PHILOSOPHIEG
FAUST_1[2014-06]	119	2	17	5	2	2	1	1	1	1	1731	2	1	0	265	3	2086	Apple5.bmp	Glass4.bmp	Apple5.bmp	Glass19.bmp	Glass3.bmp	Glass16.bmp	Apple5.bmp	30	2	1	1	1	PHILOSOPHIEG
FAUST_1[2014-06]	119	2	22	5	2	1	2	1	1	1	1500	1	1	1	346	4	1904	Chilli22.bmp	Chilli11.bmp	Chilli12.bmp	Chilli22.bmp	Paperclip13.bmp	Chilli19.bmp	Paperclip13.bmp	30	2	1	1	1	PHILOSOPHIEG
FAUST_1[2014-06]	119	2	18	5	2	2	2	1	1	1	1100	1	1	1	493	3	2155	Leaf13.bmp	Leaf13.bmp	Leaf10.bmp	Leaf13.bmp	Leaf15.bmp	Leaf22.bmp	Present2.bmp	30	2	1	1	1	PHILOSOPHIEG
FAUST_1[2014-06]	119	2	13	5	2	1	1	2	1	0	1322	1	1	1	339	3	1859	Shell17.bmp	Nut21.bmp	Nut18.bmp	Nut2.bmp	Shell9.bmp	Nut19.bmp	Nut18.bmp	30	2	1	1	1	PHILOSOPHIEG
FAUST_1[2014-06]	119	2	11	5	2	2	1	2	2	1	2656	2	2	1	985	3	2598	Feather11.bmp	Feather14.bmp	Screw10.bmp	Screw16.bmp	Screw18.bmp	Feather14.bmp	Screw13.bmp	30	2	1	1	1	PHILOSOPHIEG
FAUST_1[2014-06]	119	2	7	5	2	1	2	2	2	1	1819	1	2	0	560	1	2100	Key20.bmp	Button18.bmp	Key11.bmp	Button18.bmp	Key9.bmp	Key5.bmp	Key13.bmp	30	2	1	1	1	PHILOSOPHIEG
FAUST_1[2014-06]	119	2	8	5	2	2	2	2	1	0	1353	1	2	0	1011	4	1897	Bag25.bmp	Cake7.bmp	Bag4.bmp	Bag21.bmp	Bag5.bmp	Bag4.bmp	Bag3.bmp	30	2	1	1	1	PHILOSOPHIEG
FAUST_1[2014-06]	119	2	3	5	2	1	1	2	2	1	1821	2	2	1	485	1	4738	Toothbrush10.bmp	Hand1.bmp	Hand17.bmp	Hand1.bmp	Hand8.bmp	Hand10.bmp	Toothbrush9.bmp	30	2	1	1	1	PHILOSOPHIEG
FAUST_1[2014-06]	119	2	20	5	2	2	1	2	2	1	2620	2	1	0	828	2	1443	Stapler10.bmp	Stapler9.bmp	Bun17.bmp	Bun22.bmp	Stapler9.bmp	Bun5.bmp	Bun12.bmp	30	2	1	1	1	PHILOSOPHIEG
FAUST_1[2014-06]	119	2	15	5	2	1	2	2	1	0	1721	1	1	1	556	2	2028	Lipstick9.bmp	Lipstick7.bmp	Lipstick15.bmp	Brocolli19.bmp	Lipstick3.bmp	Brocolli19.bmp	Lipstick2.bmp	30	2	1	1	1	PHILOSOPHIEG
FAUST_1[2014-06]	119	2	16	5	2	2	2	2	1	0	1653	2	1	0	190	4	1530	Swirl10.bmp	Swirl1.bmp	Swirl13.bmp	Swirl23.bmp	Swirl1.bmp	Swirl5.bmp	Coins10.bmp	30	2	1	1	1	PHILOSOPHIEG
FAUST_1[2014-06]	119	2	21	5	2	1	1	3	2	1	1235	2	2	1	1071	3	2716	Umbrella17.bmp	Star1.bmp	Daff22.bmp	Star1.bmp	Star2.bmp	Star7.bmp	Star17.bmp	30	2	1	1	1	PHILOSOPHIEG
FAUST_1[2014-06]	119	2	1	5	2	2	1	3	2	1	2081	2	1	0	1173	4	1957	Chocolate6.bmp	Scissors1.bmp	Scissors11.bmp	Scissors14.bmp	Flower3.bmp	Scissors23.bmp	Flower3.bmp	30	2	1	1	1	PHILOSOPHIEG
FAUST_1[2014-06]	119	2	9	5	2	1	1	3	2	1	1217	1	1	1	749	4	2066	Strawberry4.bmp	Onion7.bmp	Onion14.bmp	Onion13.bmp	Plug6.bmp	Onion13.bmp	Onion18.bmp	30	2	1	1	1	PHILOSOPHIEG
FAUST_1[2014-06]	119	2	5	5	2	2	1	3	2	1	1015	1	1	1	1598	4	1188	Tomato3.bmp	Bracelet5.bmp	Bracelet18.bmp	Bracelet8.bmp	Biscuit20.bmp	Bracelet1.bmp	Biscuit20.bmp	30	2	1	1	1	PHILOSOPHIEG
FAUST_1[2014-06]	119	2	6	5	2	1	1	3	2	1	2400	2	2	1	237	4	1457	Car13.bmp	Holly17.bmp	Holly14.bmp	Holly11.bmp	Holly3.bmp	String2.bmp	Holly11.bmp	30	2	1	1	1	PHILOSOPHIEG
FAUST_1[2014-06]	119	2	12	5	2	2	1	3	2	1	1306	1	2	0	305	4	1589	Fork17.bmp	Varnish11.bmp	Fudge8.bmp	Varnish11.bmp	Fudge20.bmp	Fudge17.bmp	Fudge5.bmp	30	2	1	1	1	PHILOSOPHIEG
FAUST_1[2014-06]	119	3	7	5	1	1	1	1	1	1	1371	2	1	0	425	4	2003	SCHACH	adjektiv	nomen	adjektiv	schach	präposition	verb	30	2	1	1	1	PHILOSOPHIEG
FAUST_1[2014-06]	119	3	25	5	1	2	1	1	1	1	1138	1	2	0	1241	3	1823	SCHÄFERHUND	schäferhund	realschule	berufsschule	gymnasium	schäferhund	hauptschule	30	2	1	1	1	PHILOSOPHIEG
FAUST_1[2014-06]	119	3	27	5	1	1	2	1	1	1	1954	1	2	0	1421	2	1775	CHEMIE	biologie	chemie	thüringen	physik	thüringen	erdkunde	30	2	1	1	1	PHILOSOPHIEG
FAUST_1[2014-06]	119	3	9	5	1	2	2	1	1	1	1175	1	1	1	681	4	1275	KUGELSCHREIBER	kugelschreiber	füller	kugelschreiber	buntstift	mozart	filzstift	30	2	1	1	1	PHILOSOPHIEG
FAUST_1[2014-06]	119	3	13	5	1	1	1	1	1	1	2522	2	2	1	317	3	1497	SCHWALBE	england	italien	österreich	schwalbe	england	dänemark	30	2	1	1	1	PHILOSOPHIEG
FAUST_1[2014-06]	119	3	4	5	1	2	1	1	2	0	992	1	2	0	1248	4	1064	LEHRER	dinkel	lehrer	gerste	roggen	lehrer	hafer	30	2	1	1	1	PHILOSOPHIEG
FAUST_1[2014-06]	119	3	6	5	1	1	2	1	2	0	2383	1	2	0	1764	3	1466	RÜCKSPIEGEL	handbremse	tiger	lenkrad	rückspiegel	tiger	gaspedal	30	2	1	1	1	PHILOSOPHIEG
FAUST_1[2014-06]	119	3	12	5	1	2	2	1	1	1	1029	2	2	1	447	4	1357	WEIDE	weide	eiche	donau	weide	tanne	buche	30	2	1	1	1	PHILOSOPHIEG
FAUST_1[2014-06]	119	3	21	5	1	1	1	1	2	0	3026	2	1	0	981	2	1607	WHISKEY	whiskey	messer	löffel	messer	brotmesser	teelöffel	30	2	1	1	1	PHILOSOPHIEG
FAUST_1[2014-06]	119	3	24	5	1	2	1	1	1	1	2134	2	2	1	898	3	1610	BUS	schwimmen	fußball	bus	tennis	bus	skifahren	30	2	1	1	1	PHILOSOPHIEG
FAUST_1[2014-06]	119	3	11	5	1	1	2	1	1	1	1071	2	1	0	409	4	1257	BERLIN	silber	hannover	silber	münchen	berlin	stuttgart	30	2	1	1	1	PHILOSOPHIEG
FAUST_1[2014-06]	119	3	22	5	1	2	2	1	1	1	2048	1	1	1	1138	3	1838	GELB	gelb	rot	ameise	gelb	lila	grün	30	2	1	1	1	PHILOSOPHIEG
FAUST_1[2014-06]	119	3	26	5	1	1	1	2	2	1	1135	1	2	0	719	1	2047	REGAL	majoran	tisch	rosmarin	majoran	thymian	oregano	30	2	1	1	1	PHILOSOPHIEG
FAUST_1[2014-06]	119	3	20	5	1	2	1	2	1	0	2030	1	1	1	1883	2	1633	ERDBEERE	apfel	bohnen	karotten	spinat	apfel	blumenkohl	30	2	1	1	1	PHILOSOPHIEG
FAUST_1[2014-06]	119	3	5	5	1	1	2	2	2	1	1160	2	2	1	573	4	1390	SEKUNDE	rose	jahr	minute	stunde	rose	tag	30	2	1	1	1	PHILOSOPHIEG
FAUST_1[2014-06]	119	3	30	5	1	2	2	2	1	0	1999	2	2	1	764	3	1779	WASSERSTOFF	lakritz	stickstoff	helium	stickstoff	kohlenstoff	sauerstoff	30	2	1	1	1	PHILOSOPHIEG
FAUST_1[2014-06]	119	3	16	5	1	1	1	2	2	1	2897	1	2	0	897	3	1518	KÖNIG	bohrer	kaiser	hammer	meißel	bohrer	säge	30	2	1	1	1	PHILOSOPHIEG
FAUST_1[2014-06]	119	3	28	5	1	2	1	2	2	1	1557	1	2	0	874	3	1604	PEUGEOT	audi	vater	sohn	audi	mutter	tochter	30	2	1	1	1	PHILOSOPHIEG
FAUST_1[2014-06]	119	3	2	5	1	1	2	2	2	1	1011	1	2	0	363	4	1892	FOXTROTT	tango	rock	rumba	rock	walzer	chachacha	30	2	1	1	1	PHILOSOPHIEG
FAUST_1[2014-06]	119	3	32	5	1	2	2	2	1	0	1200	1	1	1	1533	4	1442	FLASCHE	becher	makrele	karaffe	kanne	glas	karaffe	30	2	1	1	1	PHILOSOPHIEG
FAUST_1[2014-06]	119	3	19	5	1	1	1	2	2	1	1017	1	1	1	959	3	1402	MEILE	lineal	meter	locher	lineal	klebeband	brieföffner	30	2	1	1	1	PHILOSOPHIEG
FAUST_1[2014-06]	119	3	18	5	1	2	1	2	2	1	1194	1	2	0	674	4	1550	DIESEL	benzin	viereck	rechteck	benzin	kreis	quadrat	30	2	1	1	1	PHILOSOPHIEG
FAUST_1[2014-06]	119	3	1	5	1	1	2	2	2	1	1047	1	1	1	553	3	1565	PFANNENWENDER	nudelholz	freude	backform	küchenwaage	backblech	freude	30	2	1	1	1	PHILOSOPHIEG
FAUST_1[2014-06]	119	3	31	5	1	2	2	2	2	1	1141	2	1	0	991	3	2236	SCHÜTZE	yacht	steinbock	jungfrau	steinbock	zwilling	wassermann	30	2	1	1	1	PHILOSOPHIEG
FAUST_1[2014-06]	119	3	15	5	1	1	1	3	2	1	1169	2	1	0	785	4	1174	CANNABIS	lippenstift	lidschatten	wimperntusche	scheune	wimperntusche	rouge	30	2	1	1	1	PHILOSOPHIEG
FAUST_1[2014-06]	119	3	3	5	1	2	1	3	2	1	1385	2	2	1	433	4	1353	FUß	komödie	schnee	sonnenschein	regen	komödie	nebel	30	2	1	1	1	PHILOSOPHIEG
FAUST_1[2014-06]	119	3	23	5	1	1	1	3	2	1	1706	2	2	1	1918	2	1509	THEATER	fernsehen	internet	pommes	zeitung	internet	buch	30	2	1	1	1	PHILOSOPHIEG
FAUST_1[2014-06]	119	3	8	5	1	2	1	3	2	1	993	1	2	0	709	3	1292	MALEN	tempel	sehen	hören	schmecken	tempel	fühlen	30	2	1	1	1	PHILOSOPHIEG
FAUST_1[2014-06]	119	3	10	5	1	1	1	3	2	1	1036	1	1	1	2074	4	1083	ZOMBIE	pluto	jupiter	baumwolle	venus	jupiter	merkur	30	2	1	1	1	PHILOSOPHIEG
FAUST_1[2014-06]	119	3	14	5	1	2	1	3	2	1	1267	2	1	0	340	4	1385	SICHERHEITSNADEL	oboe	posaune	drucker	flöte	trompete	drucker	30	2	1	1	1	PHILOSOPHIEG
FAUST_1[2014-06]	119	3	29	5	1	1	1	3	2	1	967	1	1	1	877	3	1324	GRIPPE	teich	meer	ozean	mark	ozean	fluss	30	2	1	1	1	PHILOSOPHIEG
FAUST_1[2014-06]	119	3	17	5	1	2	1	3	2	1	1912	1	2	0	688	4	1094	DOLCH	magen	asien	magen	afrika	nordamerika	australien	30	2	1	1	1	PHILOSOPHIEG
FAUST_1[2014-06]	119	2	31	5	3	1	1	1	1	1	958	2	2	1	982	4	1359	carabiner_9.bmp	coffee_7.bmp	coffee_14.bmp	coffee_15.bmp	carabiner_9.bmp	coffee_15.bmp	coffee_1.bmp	30	2	1	1	1	PHILOSOPHIEG
FAUST_1[2014-06]	119	2	1	5	3	2	1	1	1	1	1159	1	1	1	548	4	1672	iceskates_14.bmp	saltpeppershake_9.bmp	saltpeppershake_12.bmp	iceskates_14.bmp	saltpeppershake_2.bmp	iceskates_14.bmp	saltpeppershake_17.bmp	30	2	1	1	1	PHILOSOPHIEG
FAUST_1[2014-06]	119	2	18	5	3	1	2	1	1	1	2948	2	2	1	524	3	1812	horseshoe_5.bmp	horseshoe_6.bmp	horseshoe_4.bmp	printer_16.bmp	horseshoe_12.bmp	horseshoe_5.bmp	printer_16.bmp	30	2	1	1	1	PHILOSOPHIEG
FAUST_1[2014-06]	119	2	16	5	3	2	2	1	2	0	2648	2	2	1	932	2	1307	router_16.bmp	router_16.bmp	router_7.bmp	fan_11.bmp	router_12.bmp	router_5.bmp	router_16.bmp	30	2	1	1	1	PHILOSOPHIEG
FAUST_1[2014-06]	119	2	32	5	3	1	1	1	2	0	1343	2	1	0	1982	4	1203	cellphone_11.bmp	cellphone_11.bmp	jacket_11.bmp	jacket_6.bmp	jacket_11.bmp	jacket_10.bmp	jacket_7.bmp	30	2	1	1	1	PHILOSOPHIEG
FAUST_1[2014-06]	119	2	19	5	3	2	1	1	1	1	1215	2	1	0	862	4	1539	beanbagchair_3.bmp	rollerskates_8.bmp	beanbagchair_3.bmp	rollerskates_17.bmp	beanbagchair_3.bmp	rollerskates_5.bmp	rollerskates_2.bmp	30	2	1	1	1	PHILOSOPHIEG
FAUST_1[2014-06]	119	2	29	5	3	1	2	1	1	1	1032	2	1	0	1078	4	1431	scooter_8.bmp	wig_1.bmp	scooter_4.bmp	scooter_10.bmp	scooter_8.bmp	wig_1.bmp	scooter_5.bmp	30	2	1	1	1	PHILOSOPHIEG
FAUST_1[2014-06]	119	2	26	5	3	2	2	1	1	1	1658	2	2	1	1671	4	1707	trophy_16.bmp	trophy_6.bmp	guitar_7.bmp	trophy_4.bmp	trophy_16.bmp	trophy_14.bmp	trophy_16.bmp	30	2	1	1	1	PHILOSOPHIEG
FAUST_1[2014-06]	119	2	6	5	3	1	1	1	1	1	2267	2	2	1	1204	4	1735	abacus_4.bmp	camera_4.bmp	camera_6.bmp	camera_4.bmp	camera_3.bmp	camera_7.bmp	abacus_4.bmp	30	2	1	1	1	PHILOSOPHIEG
FAUST_1[2014-06]	119	2	22	5	3	2	1	1	1	1	2018	1	1	1	913	4	1785	powerstrip_10.bmp	powerstrip_10.bmp	pasta_11.bmp	pasta_9.bmp	pasta_13.bmp	pasta_15.bmp	powerstrip_10.bmp	30	2	1	1	1	PHILOSOPHIEG
FAUST_1[2014-06]	119	2	15	5	3	1	2	1	1	1	1238	1	1	1	477	4	1586	doorknob_10.bmp	doorknob_10.bmp	doorknob_14.bmp	babycrib_9.bmp	doorknob_17.bmp	doorknob_7.bmp	babycrib_9.bmp	30	2	1	1	1	PHILOSOPHIEG
FAUST_1[2014-06]	119	2	3	5	3	2	2	1	1	1	2275	1	2	0	969	3	1419	sink_15.bmp	sink_15.bmp	carriage_12.bmp	sink_6.bmp	sink_1.bmp	sink_15.bmp	sink_11.bmp	30	2	1	1	1	PHILOSOPHIEG
FAUST_1[2014-06]	119	2	13	5	3	1	1	2	2	1	982	2	2	1	1082	4	1213	mic_3.bmp	tricycle_10.bmp	tricycle_2.bmp	mic_2.bmp	tricycle_2.bmp	tricycle_8.bmp	tricycle_15.bmp	30	2	1	1	1	PHILOSOPHIEG
FAUST_1[2014-06]	119	2	30	5	3	2	1	2	2	1	2121	1	1	1	2045	3	1043	backpack_16.bmp	remote_3.bmp	backpack_13.bmp	remote_2.bmp	remote_14.bmp	backpack_13.bmp	remote_13.bmp	30	2	1	1	1	PHILOSOPHIEG
FAUST_1[2014-06]	119	2	21	5	3	1	2	2	2	1	1199	1	1	1	899	3	1278	cat_4.bmp	cat_5.bmp	sofa_9.bmp	cat_9.bmp	cat_1.bmp	sofa_9.bmp	cat_10.bmp	30	2	1	1	1	PHILOSOPHIEG
FAUST_1[2014-06]	119	2	23	5	3	2	2	2	2	1	1065	1	1	1	1062	3	1789	glove_10.bmp	glove_15.bmp	glove_12.bmp	cherubstatue_5.bmp	glove_12.bmp	glove_5.bmp	glove_8.bmp	30	2	1	1	1	PHILOSOPHIEG
FAUST_1[2014-06]	119	2	9	5	3	1	1	2	2	1	2872	1	1	1	974	3	1467	plant_2.bmp	laptop_7.bmp	laptop_16.bmp	plant_13.bmp	laptop_15.bmp	laptop_10.bmp	laptop_7.bmp	30	2	1	1	1	PHILOSOPHIEG
FAUST_1[2014-06]	119	2	2	5	3	2	1	2	1	0	1181	2	1	0	998	3	1808	hammer_15.bmp	hammer_6.bmp	rusdoll_3.bmp	rusdoll_8.bmp	rusdoll_5.bmp	rusdoll_1.bmp	hammer_6.bmp	30	2	1	1	1	PHILOSOPHIEG
FAUST_1[2014-06]	119	2	25	5	3	1	2	2	2	1	2434	1	2	0	1206	3	1541	parfait_1.bmp	turtle_12.bmp	parfait_15.bmp	parfait_11.bmp	parfait_13.bmp	turtle_12.bmp	parfait_4.bmp	30	2	1	1	1	PHILOSOPHIEG
FAUST_1[2014-06]	119	2	8	5	3	2	2	2	1	0	1492	1	2	0	495	2	1489	cheesegrater_5.bmp	cheesegrater_14.bmp	cheesegrater_11.bmp	cheesegrater_8.bmp	cheesegrater_15.bmp	cheesegrater_14.bmp	trunk_5.bmp	30	2	1	1	1	PHILOSOPHIEG
FAUST_1[2014-06]	119	2	24	5	3	1	1	2	2	1	1049	2	2	1	879	3	1205	chair_5.bmp	highchair_4.bmp	highchair_10.bmp	highchair_15.bmp	highchair_3.bmp	highchair_15.bmp	chair_11.bmp	30	2	1	1	1	PHILOSOPHIEG
FAUST_1[2014-06]	119	2	28	5	3	2	1	2	1	0	2132	2	2	1	1128	3	2659	leatherman_10.bmp	birdhouse_9.bmp	leatherman_7.bmp	birdhouse_11.bmp	birdhouse_7.bmp	leatherman_7.bmp	birdhouse_6.bmp	30	2	1	1	1	PHILOSOPHIEG
FAUST_1[2014-06]	119	2	20	5	3	1	2	2	2	1	2125	2	1	0	1047	3	1471	speaker_17.bmp	speaker_10.bmp	flashlight_13.bmp	speaker_15.bmp	speaker_6.bmp	speaker_4.bmp	flashlight_13.bmp	30	2	1	1	1	PHILOSOPHIEG
FAUST_1[2014-06]	119	2	5	5	3	2	2	2	1	0	1893	1	2	0	428	2	2652	socks_12.bmp	socks_15.bmp	socks_10.bmp	socks_15.bmp	socks_4.bmp	socks_13.bmp	tv_7.bmp	30	2	1	1	1	PHILOSOPHIEG
FAUST_1[2014-06]	119	2	12	5	3	1	1	3	2	1	1752	2	1	0	1269	4	1851	garbagecan_13.bmp	shoe_17.bmp	shoe_13.bmp	shoe_17.bmp	shoe_15.bmp	shoe_7.bmp	skateboard_11.bmp	30	2	1	1	1	PHILOSOPHIEG
FAUST_1[2014-06]	119	2	17	5	3	2	1	3	2	1	1046	1	1	1	1100	4	1106	watch_3.bmp	easteregg_17.bmp	bowlingpin_3.bmp	bowlingpin_13.bmp	bowlingpin_1.bmp	bowlingpin_11.bmp	easteregg_17.bmp	30	2	1	1	1	PHILOSOPHIEG
FAUST_1[2014-06]	119	2	11	5	3	1	1	3	2	1	882	2	2	1	665	4	1148	trumpet_17.bmp	hairbrush_7.bmp	hairbrush_17.bmp	hairbrush_16.bmp	hairbrush_7.bmp	hairbrush_15.bmp	videogamecontroller_13.bmp	30	2	1	1	1	PHILOSOPHIEG
FAUST_1[2014-06]	119	2	14	5	3	2	1	3	2	1	1823	2	2	1	2039	4	1335	vase_1.bmp	goggle_1.bmp	cake_1.bmp	cake_14.bmp	goggle_1.bmp	cake_3.bmp	cake_5.bmp	30	2	1	1	1	PHILOSOPHIEG
FAUST_1[2014-06]	119	2	10	5	3	1	1	3	2	1	1176	1	2	0	807	3	1560	doorknocker_5.bmp	ring_7.bmp	ring_15.bmp	ring_8.bmp	ring_12.bmp	glasses_15.bmp	ring_15.bmp	30	2	1	1	1	PHILOSOPHIEG
FAUST_1[2014-06]	119	2	4	5	3	2	1	3	2	1	1034	1	2	0	1298	4	1437	watergun_15.bmp	shredder_7.bmp	lawnmower_15.bmp	shredder_5.bmp	lawnmower_15.bmp	shredder_15.bmp	shredder_1.bmp	30	2	1	1	1	PHILOSOPHIEG
FAUST_1[2014-06]	119	2	7	5	3	1	1	3	2	1	2343	2	2	1	1262	4	1298	windchime_10.bmp	hairdryer_2.bmp	hairdryer_7.bmp	hairdryer_13.bmp	saddle_15.bmp	hairdryer_12.bmp	hairdryer_2.bmp	30	2	1	1	1	PHILOSOPHIEG
FAUST_1[2014-06]	119	2	27	5	3	2	1	3	2	1	889	2	2	1	784	4	1368	orifan_6.bmp	bagel_16.bmp	circuitboard_13.bmp	circuitboard_16.bmp	circuitboard_4.bmp	circuitboard_8.bmp	bagel_16.bmp	30	2	1	1	1	PHILOSOPHIEG
FAUST_1[2014-06]	119	3	19	5	2	1	1	1	1	1	783	2	1	0	1516	4	1439	Paperclip9.bmp	Keys5.bmp	Keys8.bmp	Keys5.bmp	Paperclip9.bmp	Keys9.bmp	Keys6.bmp	30	2	1	1	1	PHILOSOPHIEG
FAUST_1[2014-06]	119	3	9	5	2	2	1	1	1	1	949	1	1	1	2553	4	1081	Shell1.bmp	Shell1.bmp	Fudge5.bmp	Fudge15.bmp	Fudge17.bmp	Shell1.bmp	Fudge8.bmp	30	2	1	1	1	PHILOSOPHIEG
FAUST_1[2014-06]	119	3	11	5	2	1	2	1	1	1	1438	1	2	0	1472	3	2708	Apple24.bmp	Hand13.bmp	Apple24.bmp	Apple10.bmp	Apple21.bmp	Hand13.bmp	Apple18.bmp	30	2	1	1	1	PHILOSOPHIEG
FAUST_1[2014-06]	119	3	1	5	2	2	2	1	1	1	955	1	2	0	1227	4	1412	Scissors23.bmp	Scissors23.bmp	Scissors14.bmp	Candle1.bmp	Scissors11.bmp	Scissors23.bmp	Scissors1.bmp	30	2	1	1	1	PHILOSOPHIEG
FAUST_1[2014-06]	119	3	22	5	2	1	1	1	1	1	1074	2	1	0	1807	3	1579	Pen5.bmp	Screw10.bmp	Screw16.bmp	Screw9.bmp	Screw13.bmp	Screw16.bmp	Pen5.bmp	30	2	1	1	1	PHILOSOPHIEG
FAUST_1[2014-06]	119	3	21	5	2	2	1	1	1	1	2932	2	2	1	2543	2	1668	Lipstick3.bmp	Bag5.bmp	Lipstick3.bmp	Bag25.bmp	Lipstick3.bmp	Bag21.bmp	Bag3.bmp	30	2	1	1	1	PHILOSOPHIEG
FAUST_1[2014-06]	119	3	15	5	2	1	2	1	1	1	1282	1	1	1	2308	4	1122	Coins10.bmp	Coins10.bmp	Present2.bmp	Coins8.bmp	Coins14.bmp	Present2.bmp	Coins3.bmp	30	2	1	1	1	PHILOSOPHIEG
FAUST_1[2014-06]	119	3	7	5	2	2	2	1	1	1	902	2	2	1	1226	4	1643	Nut2.bmp	Nut18.bmp	Toothbrush1.bmp	Nut2.bmp	Nut21.bmp	Nut11.bmp	Nut2.bmp	30	2	1	1	1	PHILOSOPHIEG
FAUST_1[2014-06]	119	3	2	5	2	1	1	2	2	1	1139	1	2	0	2009	4	1855	Key5.bmp	Button20.bmp	Button10.bmp	Button18.bmp	Key9.bmp	Button20.bmp	Button3.bmp	30	2	1	1	1	PHILOSOPHIEG
FAUST_1[2014-06]	119	3	17	5	2	2	1	2	1	0	889	1	1	1	2460	4	923	Swirl13.bmp	Umbrella17.bmp	Umbrella6.bmp	Swirl5.bmp	Umbrella7.bmp	Umbrella19.bmp	Swirl5.bmp	30	2	1	1	1	PHILOSOPHIEG
FAUST_1[2014-06]	119	3	13	5	2	1	2	2	1	0	1141	2	1	0	1543	4	975	Plug4.bmp	Varnish14.bmp	Plug8.bmp	Plug9.bmp	Varnish14.bmp	Plug18.bmp	Plug6.bmp	30	2	1	1	1	PHILOSOPHIEG
FAUST_1[2014-06]	119	3	8	5	2	2	2	2	1	0	949	2	1	0	975	4	1116	Feather2.bmp	Feather12.bmp	Feather18.bmp	Feather12.bmp	Feather14.bmp	Feather11.bmp	Bracelet5.bmp	30	2	1	1	1	PHILOSOPHIEG
FAUST_1[2014-06]	119	3	18	5	2	1	1	2	1	0	1055	1	1	1	2125	4	1599	Man4.bmp	Man15.bmp	Biscuit20.bmp	Biscuit4.bmp	Biscuit9.bmp	Biscuit17.bmp	Biscuit4.bmp	30	2	1	1	1	PHILOSOPHIEG
FAUST_1[2014-06]	119	3	5	5	2	2	1	2	2	1	2680	1	1	1	270	4	1075	Chilli19.bmp	Onion13.bmp	Onion7.bmp	Chilli11.bmp	Onion19.bmp	Onion18.bmp	Chilli11.bmp	30	2	1	1	1	PHILOSOPHIEG
FAUST_1[2014-06]	119	3	20	5	2	1	2	2	2	1	989	1	1	1	1485	4	1354	Hanger12.bmp	Hanger7.bmp	Hanger2.bmp	Strawberry14.bmp	Hanger15.bmp	Hanger14.bmp	Strawberry14.bmp	30	2	1	1	1	PHILOSOPHIEG
FAUST_1[2014-06]	119	3	10	5	2	2	2	2	1	0	842	2	2	1	968	4	989	Ginger15.bmp	Ginger17.bmp	Ginger5.bmp	Ginger10.bmp	Ginger5.bmp	Tomato2.bmp	Ginger3.bmp	30	2	1	1	1	PHILOSOPHIEG
FAUST_1[2014-06]	119	3	14	5	2	1	1	3	2	1	1629	2	1	0	1946	4	1401	Daff3.bmp	Jigsaw10.bmp	Pear7.bmp	Jigsaw18.bmp	Jigsaw14.bmp	Jigsaw17.bmp	Jigsaw14.bmp	30	2	1	1	1	PHILOSOPHIEG
FAUST_1[2014-06]	119	3	6	5	2	2	1	3	2	1	1450	2	2	1	1104	4	1629	Glass4.bmp	Cake16.bmp	Mushroom7.bmp	Mushroom25.bmp	Cake16.bmp	Mushroom14.bmp	Mushroom6.bmp	30	2	1	1	1	PHILOSOPHIEG
FAUST_1[2014-06]	119	3	12	5	2	1	1	3	2	1	978	2	1	0	2243	4	1265	Car13.bmp	Stapler6.bmp	Stapler7.bmp	Stapler9.bmp	Leaf22.bmp	Stapler8.bmp	Stapler9.bmp	30	2	1	1	1	PHILOSOPHIEG
FAUST_1[2014-06]	119	3	16	5	2	2	1	3	2	1	1093	1	2	0	2135	4	1277	Sweet18.bmp	Brocolli10.bmp	Fork14.bmp	Fork17.bmp	Fork8.bmp	Brocolli10.bmp	Fork9.bmp	30	2	1	1	1	PHILOSOPHIEG
FAUST_1[2014-06]	119	3	4	5	2	1	1	3	2	1	916	2	2	1	2339	4	1330	String9.bmp	Chocolate24.bmp	Chocolate17.bmp	Chocolate24.bmp	Star19.bmp	Chocolate6.bmp	Chocolate5.bmp	30	2	1	1	1	PHILOSOPHIEG
FAUST_1[2014-06]	119	3	3	5	2	2	1	3	2	1	860	1	1	1	642	4	1210	Holly14.bmp	Bun19.bmp	Bun17.bmp	Flower18.bmp	Bun12.bmp	Flower18.bmp	Bun22.bmp	30	2	1	1	1	PHILOSOPHIEG
FAUST_1[2014-06]	119	4	31	5	1	1	1	1	1	1	1397	2	1	0	1607	3	2020	PRÄPOSITION	kirche	moschee	tempel	moschee	präposition	kapelle	30	2	1	1	1	PHILOSOPHIEG
FAUST_1[2014-06]	119	4	18	5	1	2	1	1	1	1	928	2	1	0	1484	4	2048	ONKEL	bratwurst	onkel	pommes	pizza	hamburger	onkel	30	2	1	1	1	PHILOSOPHIEG
FAUST_1[2014-06]	119	4	29	5	1	1	2	1	1	1	1710	2	1	0	1452	3	1368	KÜCHENWAAGE	backform	amsel	küchenwaage	amsel	nudelholz	pfannenwender	30	2	1	1	1	PHILOSOPHIEG
FAUST_1[2014-06]	119	4	26	5	1	2	2	1	2	0	1459	2	1	0	1378	2	1554	WINDPOCKEN	masern	windpocken	pistole	windpocken	mumps	grippe	30	2	1	1	1	PHILOSOPHIEG
FAUST_1[2014-06]	119	4	28	5	1	1	1	1	1	1	1207	1	1	1	1555	3	1343	THYMIAN	thymian	hauptschule	gesamtschule	berufsschule	gymnasium	gesamtschule	30	2	1	1	1	PHILOSOPHIEG
FAUST_1[2014-06]	119	4	9	5	1	2	1	1	2	0	2482	1	1	1	482	3	867	TANNE	halma	schach	backgammon	tanne	scrabble	tanne	30	2	1	1	1	PHILOSOPHIEG
FAUST_1[2014-06]	119	4	30	5	1	1	2	1	1	1	914	2	1	0	1498	4	2185	WERWOLF	marzipan	hexe	dämon	werwolf	marzipan	vampir	30	2	1	1	1	PHILOSOPHIEG
FAUST_1[2014-06]	119	4	21	5	1	2	2	1	1	1	1183	1	1	1	2060	3	1518	GABEL	brotmesser	gabel	teelöffel	löffel	gabel	hose	30	2	1	1	1	PHILOSOPHIEG
FAUST_1[2014-06]	119	4	13	5	1	1	1	1	2	0	886	2	1	0	534	4	1053	RÜCKSPIEGEL	taxi	fahrrad	rückspiegel	bus	straßenbahn	taxi	30	2	1	1	1	PHILOSOPHIEG
FAUST_1[2014-06]	119	4	23	5	1	2	1	1	2	0	2555	2	2	1	1710	3	1739	DOGGE	physik	chemie	mathematik	dogge	biologie	dogge	30	2	1	1	1	PHILOSOPHIEG
FAUST_1[2014-06]	119	4	14	5	1	1	2	1	2	0	2160	2	1	0	707	3	1295	MOBILTELEFON	kajal	laptop	drucker	mobiltelefon	kamera	kajal	30	2	1	1	1	PHILOSOPHIEG
FAUST_1[2014-06]	119	4	4	5	1	2	2	1	1	1	884	2	2	1	1520	4	1349	YACHT	fähre	yacht	polizist	kanu	yacht	schiff	30	2	1	1	1	PHILOSOPHIEG
FAUST_1[2014-06]	119	4	6	5	1	1	1	2	2	1	865	2	2	1	2123	4	1811	ZIRKUS	arm	bein	oper	kopf	hand	arm	30	2	1	1	1	PHILOSOPHIEG
FAUST_1[2014-06]	119	4	2	5	1	2	1	2	2	1	1404	1	2	0	522	4	1647	REGEN	schnee	kohlenstoff	schnee	helium	wasserstoff	stickstoff	30	2	1	1	1	PHILOSOPHIEG
FAUST_1[2014-06]	119	4	22	5	1	1	2	2	2	1	1750	2	2	1	1581	4	1837	HÄKELNADEL	meter	sicherheitsnadel	stecknadel	stricknadel	meter	nähnadel	30	2	1	1	1	PHILOSOPHIEG
FAUST_1[2014-06]	119	4	16	5	1	2	2	2	2	1	879	1	2	0	480	3	1191	LINEAL	locher	brieföffner	locher	büroklammer	klebeband	lila	30	2	1	1	1	PHILOSOPHIEG
FAUST_1[2014-06]	119	4	1	5	1	1	1	2	2	1	1950	1	1	1	1099	4	1463	DÄNEMARK	lachs	england	lachs	hering	forelle	thunfisch	30	2	1	1	1	PHILOSOPHIEG
FAUST_1[2014-06]	119	4	27	5	1	2	1	2	2	1	1158	2	1	0	1716	1	1491	LEOPARD	opium	kokain	gepard	cannabis	gepard	haschisch	30	2	1	1	1	PHILOSOPHIEG
FAUST_1[2014-06]	119	4	24	5	1	1	2	2	2	1	1194	2	2	1	1736	4	1189	TANGO	dinkel	rumba	chachacha	dinkel	foxtrott	walzer	30	2	1	1	1	PHILOSOPHIEG
FAUST_1[2014-06]	119	4	12	5	1	2	2	2	2	1	792	1	2	0	354	4	1085	ELBE	donau	sekunde	weser	rhein	main	rhein	30	2	1	1	1	PHILOSOPHIEG
FAUST_1[2014-06]	119	4	17	5	1	1	1	2	2	1	713	1	1	1	1922	4	1287	SÜDAMERIKA	chopin	australien	mozart	beethoven	vivaldi	chopin	30	2	1	1	1	PHILOSOPHIEG
FAUST_1[2014-06]	119	4	19	5	1	2	1	2	2	1	1067	2	1	0	1934	3	1429	WASSERMANN	hannover	zwilling	berlin	zwilling	stuttgart	münchen	30	2	1	1	1	PHILOSOPHIEG
FAUST_1[2014-06]	119	4	15	5	1	1	2	2	2	1	1564	2	1	0	686	3	2087	RECHTECK	regal	viereck	dreieck	kreis	regal	quadrat	30	2	1	1	1	PHILOSOPHIEG
FAUST_1[2014-06]	119	4	32	5	1	2	2	2	1	0	1925	2	1	0	2283	3	1513	FUßBALL	schwimmen	skifahren	golf	lilie	tennis	skifahren	30	2	1	1	1	PHILOSOPHIEG
FAUST_1[2014-06]	119	4	3	5	1	1	1	3	2	1	923	1	2	0	1922	4	1024	SACHSEN	fühlen	rum	gin	tequila	rum	whiskey	30	2	1	1	1	PHILOSOPHIEG
FAUST_1[2014-06]	119	4	25	5	1	2	1	3	2	1	2052	-1	2	0	0	3	1594	AUDI	erdbeere	pflaume	merkur	birne	merkur	apfel	30	2	1	1	1	PHILOSOPHIEG
FAUST_1[2014-06]	119	4	20	5	1	1	1	3	2	1	897	2	1	0	1402	4	1200	POSAUNE	western	seide	leinen	flanell	leinen	wolle	30	2	1	1	1	PHILOSOPHIEG
FAUST_1[2014-06]	119	4	8	5	1	2	1	3	2	1	869	2	2	1	1583	4	853	ZEICHNEN	pfennig	mücke	biene	pfennig	ameise	wespe	30	2	1	1	1	PHILOSOPHIEG
FAUST_1[2014-06]	119	4	11	5	1	1	1	3	2	1	802	1	2	0	460	4	1413	HAMMER	fernsehen	buch	zeitung	radio	fernsehen	herz	30	2	1	1	1	PHILOSOPHIEG
FAUST_1[2014-06]	119	4	7	5	1	2	1	3	2	1	1357	2	2	1	1219	4	1106	FÜLLER	messing	eisen	bronze	scham	silber	scham	30	2	1	1	1	PHILOSOPHIEG
FAUST_1[2014-06]	119	4	10	5	1	1	1	3	2	1	784	2	1	0	908	4	1067	PETROLEUM	ozean	flasche	kanne	becher	flasche	glas	30	2	1	1	1	PHILOSOPHIEG
FAUST_1[2014-06]	119	4	5	5	1	2	1	3	2	1	922	1	1	1	1690	3	1314	TOMATEN	herzog	graf	schuppen	kaiser	könig	schuppen	30	2	1	1	1	PHILOSOPHIEG
