experiment	subject	block	trial	order	material	repeated	related	probetype	response	correct	rt	math_response	math_correctresponse	math_correct	math_rt	confidence	confidence_rt	probe	item1	item2	item3	item4	item5	item6	age	sex	handedness	color_vision	mother_tongue	occupation
FAUST_1[2014-06]	120	1	2	3	2	1	1	1	2	0	8455	2	2	1	3197	4	2143	Onion14.bmp	Coins8.bmp	Coins14.bmp	Coins12.bmp	Coins8.bmp	Onion14.bmp	Coins10.bmp	28	2	1	1	1	SOZIOLOGIESTUDENT
FAUST_1[2014-06]	120	1	19	3	2	2	1	1	1	1	2350	-1	2	0	0	4	2250	Sweet10.bmp	Umbrella6.bmp	Sweet10.bmp	Umbrella19.bmp	Sweet10.bmp	Umbrella7.bmp	Umbrella21.bmp	28	2	1	1	1	SOZIOLOGIESTUDENT
FAUST_1[2014-06]	120	1	15	3	2	1	2	1	1	1	3103	-1	1	0	0	2	1819	Hand1.bmp	Hand17.bmp	Hand8.bmp	Bun5.bmp	Hand1.bmp	Bun5.bmp	Hand10.bmp	28	2	1	1	1	SOZIOLOGIESTUDENT
FAUST_1[2014-06]	120	1	17	3	2	2	2	1	1	1	2233	-1	2	0	0	4	2010	Key5.bmp	Key5.bmp	Key11.bmp	Key9.bmp	Screw10.bmp	Key13.bmp	Key5.bmp	28	2	1	1	1	SOZIOLOGIESTUDENT
FAUST_1[2014-06]	120	1	14	3	2	1	1	1	2	0	1946	1	1	1	2984	4	2469	Jigsaw14.bmp	Strawberry18.bmp	Strawberry3.bmp	Strawberry21.bmp	Strawberry18.bmp	Strawberry4.bmp	Jigsaw14.bmp	28	2	1	1	1	SOZIOLOGIESTUDENT
FAUST_1[2014-06]	120	1	3	3	2	2	1	1	1	1	3139	-1	1	0	0	3	2960	Swirl10.bmp	Swirl10.bmp	Bracelet1.bmp	Bracelet5.bmp	Bracelet8.bmp	Bracelet2.bmp	Swirl10.bmp	28	2	1	1	1	SOZIOLOGIESTUDENT
FAUST_1[2014-06]	120	1	20	3	2	1	2	1	1	1	3133	-1	1	0	0	4	1399	Toothbrush9.bmp	Toothbrush10.bmp	Pear18.bmp	Toothbrush9.bmp	Toothbrush1.bmp	Toothbrush12.bmp	Pear18.bmp	28	2	1	1	1	SOZIOLOGIESTUDENT
FAUST_1[2014-06]	120	1	6	3	2	2	2	1	1	1	2504	-1	1	0	0	3	2356	Car21.bmp	Car12.bmp	Car14.bmp	Car21.bmp	Car13.bmp	Man10.bmp	Car21.bmp	28	2	1	1	1	SOZIOLOGIESTUDENT
FAUST_1[2014-06]	120	1	9	3	2	1	1	2	2	1	3334	1	1	1	2580	4	2580	Shell9.bmp	Ginger5.bmp	Shell1.bmp	Ginger10.bmp	Ginger15.bmp	Ginger17.bmp	Ginger15.bmp	28	2	1	1	1	SOZIOLOGIESTUDENT
FAUST_1[2014-06]	120	1	1	3	2	2	1	2	2	1	2399	2	1	0	2974	3	3265	Mushroom7.bmp	Tomato18.bmp	Tomato2.bmp	Mushroom14.bmp	Tomato5.bmp	Mushroom14.bmp	Tomato3.bmp	28	2	1	1	1	SOZIOLOGIESTUDENT
FAUST_1[2014-06]	120	1	13	3	2	1	2	2	1	0	958	2	2	1	2307	2	1559	Chilli11.bmp	Button3.bmp	Chilli12.bmp	Chilli19.bmp	Chilli14.bmp	Chilli22.bmp	Button3.bmp	28	2	1	1	1	SOZIOLOGIESTUDENT
FAUST_1[2014-06]	120	1	7	3	2	2	2	2	1	0	1334	2	2	1	2940	2	2307	Nut19.bmp	Nut11.bmp	Nut2.bmp	Nut18.bmp	Nut11.bmp	Nut21.bmp	Apple5.bmp	28	2	1	1	1	SOZIOLOGIESTUDENT
FAUST_1[2014-06]	120	1	10	3	2	1	1	2	1	0	1725	2	1	0	596	2	2104	Varnish5.bmp	Stapler6.bmp	Varnish3.bmp	Stapler8.bmp	Stapler6.bmp	Stapler10.bmp	Stapler9.bmp	28	2	1	1	1	SOZIOLOGIESTUDENT
FAUST_1[2014-06]	120	1	11	3	2	2	1	2	1	0	1911	2	2	1	2394	2	3012	Candle17.bmp	Glass19.bmp	Glass3.bmp	Glass16.bmp	Candle10.bmp	Glass12.bmp	Candle10.bmp	28	2	1	1	1	SOZIOLOGIESTUDENT
FAUST_1[2014-06]	120	1	5	3	2	1	2	2	1	0	2915	1	1	1	2934	3	3380	Present14.bmp	Present2.bmp	Feather2.bmp	Present3.bmp	Feather2.bmp	Present17.bmp	Present9.bmp	28	2	1	1	1	SOZIOLOGIESTUDENT
FAUST_1[2014-06]	120	1	8	3	2	2	2	2	1	0	2504	2	2	1	2007	3	2961	Biscuit9.bmp	Biscuit20.bmp	Biscuit4.bmp	Biscuit25.bmp	Biscuit17.bmp	Biscuit4.bmp	String8.bmp	28	2	1	1	1	SOZIOLOGIESTUDENT
FAUST_1[2014-06]	120	1	4	3	2	1	1	3	2	1	5106	1	1	1	2836	2	4406	Chocolate6.bmp	Fork17.bmp	Fork9.bmp	Brocolli9.bmp	Fork7.bmp	Fork14.bmp	Fork7.bmp	28	2	1	1	1	SOZIOLOGIESTUDENT
FAUST_1[2014-06]	120	1	12	3	2	2	1	3	2	1	1189	1	2	0	2287	2	1913	Scissors14.bmp	Star17.bmp	Holly14.bmp	Star7.bmp	Star19.bmp	Holly14.bmp	Star2.bmp	28	2	1	1	1	SOZIOLOGIESTUDENT
FAUST_1[2014-06]	120	1	16	3	2	1	1	3	2	1	3632	-1	2	0	0	3	2438	Daff1.bmp	Leaf21.bmp	Leaf10.bmp	Leaf15.bmp	Leaf22.bmp	Plug6.bmp	Leaf10.bmp	28	2	1	1	1	SOZIOLOGIESTUDENT
FAUST_1[2014-06]	120	1	21	3	2	2	1	3	2	1	1892	-1	2	0	0	4	1870	Paperclip6.bmp	Pen1.bmp	Pen5.bmp	Keys5.bmp	Pen17.bmp	Keys5.bmp	Pen10.bmp	28	2	1	1	1	SOZIOLOGIESTUDENT
FAUST_1[2014-06]	120	1	22	3	2	1	1	3	2	1	1195	-1	1	0	0	4	2133	Flower18.bmp	Fudge8.bmp	Fudge15.bmp	Fudge17.bmp	Fudge5.bmp	Hanger14.bmp	Fudge8.bmp	28	2	1	1	1	SOZIOLOGIESTUDENT
FAUST_1[2014-06]	120	1	18	3	2	2	1	3	2	1	1637	-1	2	0	0	4	2288	Lipstick15.bmp	Cake16.bmp	Bag4.bmp	Cake25.bmp	Cake7.bmp	Cake18.bmp	Bag4.bmp	28	2	1	1	1	SOZIOLOGIESTUDENT
FAUST_1[2014-06]	120	2	8	3	3	1	1	1	1	1	1779	2	2	1	563	4	3625	fan_17.bmp	fan_17.bmp	highchair_4.bmp	highchair_15.bmp	highchair_10.bmp	highchair_3.bmp	highchair_10.bmp	28	2	1	1	1	SOZIOLOGIESTUDENT
FAUST_1[2014-06]	120	2	12	3	3	2	1	1	1	1	1290	2	1	0	574	4	1252	watergun_3.bmp	watergun_3.bmp	watch_6.bmp	watergun_3.bmp	watch_3.bmp	watch_8.bmp	watch_7.bmp	28	2	1	1	1	SOZIOLOGIESTUDENT
FAUST_1[2014-06]	120	2	13	3	3	1	2	1	1	1	1249	2	1	0	774	4	1665	easteregg_14.bmp	rollerskates_5.bmp	easteregg_16.bmp	easteregg_14.bmp	rollerskates_5.bmp	easteregg_5.bmp	easteregg_17.bmp	28	2	1	1	1	SOZIOLOGIESTUDENT
FAUST_1[2014-06]	120	2	15	3	3	2	2	1	1	1	1253	1	1	1	2832	4	1890	guitar_10.bmp	guitar_7.bmp	guitar_10.bmp	garbagecan_2.bmp	guitar_10.bmp	guitar_8.bmp	guitar_14.bmp	28	2	1	1	1	SOZIOLOGIESTUDENT
FAUST_1[2014-06]	120	2	28	3	3	1	1	1	1	1	1202	2	2	1	258	4	1262	windchime_16.bmp	windchime_16.bmp	lawnmower_3.bmp	lawnmower_13.bmp	lawnmower_17.bmp	lawnmower_8.bmp	lawnmower_17.bmp	28	2	1	1	1	SOZIOLOGIESTUDENT
FAUST_1[2014-06]	120	2	18	3	3	2	1	1	1	1	1212	2	1	0	518	4	1895	circuitboard_8.bmp	carabiner_5.bmp	circuitboard_8.bmp	carabiner_6.bmp	carabiner_9.bmp	carabiner_7.bmp	circuitboard_8.bmp	28	2	1	1	1	SOZIOLOGIESTUDENT
FAUST_1[2014-06]	120	2	7	3	3	1	2	1	1	1	2181	2	1	0	814	2	2876	ring_8.bmp	ring_8.bmp	ring_12.bmp	remote_3.bmp	ring_7.bmp	ring_11.bmp	remote_3.bmp	28	2	1	1	1	SOZIOLOGIESTUDENT
FAUST_1[2014-06]	120	2	5	3	3	2	2	1	1	1	2395	-1	2	0	0	3	1801	speaker_4.bmp	speaker_4.bmp	speaker_15.bmp	speaker_10.bmp	speaker_6.bmp	glasses_8.bmp	speaker_4.bmp	28	2	1	1	1	SOZIOLOGIESTUDENT
FAUST_1[2014-06]	120	2	24	3	3	1	1	1	1	1	1479	2	2	1	775	4	1387	doorknocker_2.bmp	cellphone_12.bmp	cellphone_4.bmp	cellphone_11.bmp	doorknocker_2.bmp	cellphone_3.bmp	cellphone_11.bmp	28	2	1	1	1	SOZIOLOGIESTUDENT
FAUST_1[2014-06]	120	2	20	3	3	2	1	1	1	1	1476	2	2	1	405	4	1810	saltpeppershake_17.bmp	abacus_6.bmp	abacus_7.bmp	saltpeppershake_17.bmp	abacus_4.bmp	abacus_15.bmp	saltpeppershake_17.bmp	28	2	1	1	1	SOZIOLOGIESTUDENT
FAUST_1[2014-06]	120	2	29	3	3	1	2	1	1	1	2091	1	2	0	1564	4	1921	hairdryer_13.bmp	mic_3.bmp	hairdryer_13.bmp	hairdryer_2.bmp	mic_3.bmp	hairdryer_7.bmp	hairdryer_14.bmp	28	2	1	1	1	SOZIOLOGIESTUDENT
FAUST_1[2014-06]	120	2	16	3	3	2	2	1	1	1	1311	-1	1	0	0	4	2033	coffee_1.bmp	coffee_1.bmp	coffee_15.bmp	coffee_7.bmp	scooter_10.bmp	coffee_1.bmp	coffee_14.bmp	28	2	1	1	1	SOZIOLOGIESTUDENT
FAUST_1[2014-06]	120	2	3	3	3	1	1	2	1	0	1887	-1	2	0	0	2	3664	goggle_9.bmp	wig_7.bmp	wig_12.bmp	wig_9.bmp	goggle_1.bmp	wig_7.bmp	wig_1.bmp	28	2	1	1	1	SOZIOLOGIESTUDENT
FAUST_1[2014-06]	120	2	4	3	3	2	1	2	2	1	4018	-1	2	0	0	1	1501	socks_15.bmp	socks_13.bmp	glove_12.bmp	glove_8.bmp	glove_10.bmp	glove_5.bmp	socks_13.bmp	28	2	1	1	1	SOZIOLOGIESTUDENT
FAUST_1[2014-06]	120	2	21	3	3	1	2	2	1	0	1793	2	2	1	352	4	1513	flashlight_13.bmp	flashlight_1.bmp	tv_7.bmp	flashlight_12.bmp	flashlight_17.bmp	flashlight_2.bmp	tv_7.bmp	28	2	1	1	1	SOZIOLOGIESTUDENT
FAUST_1[2014-06]	120	2	26	3	3	2	2	2	1	0	1133	1	1	1	345	4	1167	trunk_5.bmp	trunk_3.bmp	trunk_1.bmp	carriage_2.bmp	trunk_7.bmp	trunk_3.bmp	trunk_2.bmp	28	2	1	1	1	SOZIOLOGIESTUDENT
FAUST_1[2014-06]	120	2	2	3	3	1	1	2	2	1	1595	-1	1	0	0	4	2023	saddle_4.bmp	trophy_14.bmp	trophy_4.bmp	trophy_14.bmp	trophy_6.bmp	trophy_15.bmp	saddle_3.bmp	28	2	1	1	1	SOZIOLOGIESTUDENT
FAUST_1[2014-06]	120	2	14	3	3	2	1	2	1	0	1180	2	2	1	644	4	1775	trumpet_5.bmp	trumpet_1.bmp	videogamecontroller_3.bmp	videogamecontroller_5.bmp	videogamecontroller_11.bmp	videogamecontroller_13.bmp	trumpet_1.bmp	28	2	1	1	1	SOZIOLOGIESTUDENT
FAUST_1[2014-06]	120	2	11	3	3	1	2	2	1	0	8505	-1	1	0	0	4	3047	rusdoll_8.bmp	rusdoll_6.bmp	iceskates_16.bmp	rusdoll_1.bmp	rusdoll_5.bmp	rusdoll_3.bmp	iceskates_16.bmp	28	2	1	1	1	SOZIOLOGIESTUDENT
FAUST_1[2014-06]	120	2	17	3	3	2	2	2	1	0	988	2	1	0	246	4	1211	sofa_3.bmp	sofa_9.bmp	sofa_6.bmp	jacket_10.bmp	sofa_6.bmp	sofa_13.bmp	sofa_12.bmp	28	2	1	1	1	SOZIOLOGIESTUDENT
FAUST_1[2014-06]	120	2	25	3	3	1	1	2	2	1	3359	2	1	0	469	4	2117	doorknob_17.bmp	camera_4.bmp	camera_3.bmp	camera_6.bmp	camera_3.bmp	camera_9.bmp	doorknob_2.bmp	28	2	1	1	1	SOZIOLOGIESTUDENT
FAUST_1[2014-06]	120	2	23	3	3	2	1	2	1	0	1246	2	1	0	448	4	3327	hairbrush_15.bmp	router_12.bmp	hairbrush_7.bmp	router_7.bmp	router_16.bmp	router_6.bmp	hairbrush_7.bmp	28	2	1	1	1	SOZIOLOGIESTUDENT
FAUST_1[2014-06]	120	2	9	3	3	1	2	2	2	1	4248	2	2	1	601	1	1521	beanbagchair_3.bmp	cheesegrater_15.bmp	beanbagchair_15.bmp	beanbagchair_17.bmp	beanbagchair_14.bmp	beanbagchair_12.bmp	cheesegrater_15.bmp	28	2	1	1	1	SOZIOLOGIESTUDENT
FAUST_1[2014-06]	120	2	6	3	3	2	2	2	1	0	1634	1	2	0	1263	1	3135	sink_11.bmp	powerstrip_14.bmp	sink_1.bmp	sink_10.bmp	sink_6.bmp	sink_15.bmp	sink_1.bmp	28	2	1	1	1	SOZIOLOGIESTUDENT
FAUST_1[2014-06]	120	2	10	3	3	1	1	3	2	1	1683	2	1	0	251	4	2600	skateboard_15.bmp	shoe_9.bmp	turtle_7.bmp	turtle_6.bmp	turtle_12.bmp	turtle_2.bmp	turtle_12.bmp	28	2	1	1	1	SOZIOLOGIESTUDENT
FAUST_1[2014-06]	120	2	31	3	3	2	1	3	2	1	1683	2	1	0	357	4	2558	shredder_15.bmp	bowlingpin_13.bmp	backpack_10.bmp	backpack_6.bmp	bowlingpin_13.bmp	backpack_13.bmp	backpack_12.bmp	28	2	1	1	1	SOZIOLOGIESTUDENT
FAUST_1[2014-06]	120	2	22	3	3	1	1	3	2	1	1632	2	2	1	456	4	1891	tricycle_5.bmp	cat_4.bmp	cake_4.bmp	cat_10.bmp	cat_1.bmp	cat_4.bmp	cat_9.bmp	28	2	1	1	1	SOZIOLOGIESTUDENT
FAUST_1[2014-06]	120	2	32	3	3	2	1	3	2	1	2039	1	1	1	1505	4	1557	orifan_1.bmp	parfait_15.bmp	horseshoe_5.bmp	parfait_13.bmp	parfait_1.bmp	horseshoe_5.bmp	parfait_11.bmp	28	2	1	1	1	SOZIOLOGIESTUDENT
FAUST_1[2014-06]	120	2	30	3	3	1	1	3	2	1	2011	2	2	1	726	4	1360	birdhouse_11.bmp	plant_8.bmp	plant_14.bmp	plant_5.bmp	plant_13.bmp	plant_5.bmp	leatherman_10.bmp	28	2	1	1	1	SOZIOLOGIESTUDENT
FAUST_1[2014-06]	120	2	1	3	3	2	1	3	2	1	2637	-1	2	0	0	4	2903	chair_3.bmp	hammer_8.bmp	cherubstatue_5.bmp	cherubstatue_11.bmp	hammer_8.bmp	cherubstatue_10.bmp	cherubstatue_6.bmp	28	2	1	1	1	SOZIOLOGIESTUDENT
FAUST_1[2014-06]	120	2	27	3	3	1	1	3	2	1	1877	1	2	0	695	4	1529	bagel_14.bmp	printer_1.bmp	printer_14.bmp	printer_5.bmp	laptop_14.bmp	printer_16.bmp	printer_5.bmp	28	2	1	1	1	SOZIOLOGIESTUDENT
FAUST_1[2014-06]	120	2	19	3	3	2	1	3	2	1	4441	1	2	0	491	3	2538	vase_5.bmp	babycrib_5.bmp	babycrib_9.bmp	babycrib_7.bmp	pasta_15.bmp	babycrib_2.bmp	pasta_15.bmp	28	2	1	1	1	SOZIOLOGIESTUDENT
FAUST_1[2014-06]	120	3	21	3	1	1	1	1	1	1	1023	2	2	1	162	4	865	NIERE	actionfilm	horrorfilm	niere	komödie	western	komödie	28	2	1	1	1	SOZIOLOGIESTUDENT
FAUST_1[2014-06]	120	3	12	3	1	2	1	1	2	0	1509	2	1	0	163	1	1200	SILBER	oboe	silber	posaune	silber	klarinette	trompete	28	2	1	1	1	SOZIOLOGIESTUDENT
FAUST_1[2014-06]	120	3	31	3	1	1	2	1	1	1	1818	2	1	0	277	4	2168	GRIPPE	meißel	mumps	masern	röteln	meißel	grippe	28	2	1	1	1	SOZIOLOGIESTUDENT
FAUST_1[2014-06]	120	3	1	3	1	2	2	1	1	1	1083	2	2	1	197	4	1215	KARAMELL	karamell	lakritz	karamell	teelöffel	bonbons	gummibärchen	28	2	1	1	1	SOZIOLOGIESTUDENT
FAUST_1[2014-06]	120	3	25	3	1	1	1	1	1	1	1072	2	2	1	436	4	1802	BOHNEN	büroklammer	bohnen	locher	klebeband	büroklammer	brieföffner	28	2	1	1	1	SOZIOLOGIESTUDENT
FAUST_1[2014-06]	120	3	15	3	1	2	1	1	1	1	1988	2	2	1	166	3	2098	NORDAMERIKA	nordamerika	rhein	nordamerika	elbe	donau	main	28	2	1	1	1	SOZIOLOGIESTUDENT
FAUST_1[2014-06]	120	3	23	3	1	1	2	1	1	1	1277	2	2	1	404	4	1194	GOLF	fußball	schwimmen	bus	skifahren	golf	bus	28	2	1	1	1	SOZIOLOGIESTUDENT
FAUST_1[2014-06]	120	3	3	3	1	2	2	1	1	1	1111	2	2	1	156	4	906	MONOPOLY	monopoly	flasche	backgammon	scrabble	schach	monopoly	28	2	1	1	1	SOZIOLOGIESTUDENT
FAUST_1[2014-06]	120	3	8	3	1	1	1	1	1	1	1042	2	2	1	466	4	1252	COMPUTER	kerosin	benzin	petroleum	bleifrei	kerosin	computer	28	2	1	1	1	SOZIOLOGIESTUDENT
FAUST_1[2014-06]	120	3	17	3	1	2	1	1	1	1	1053	2	1	0	171	4	1205	MEISE	rückspiegel	kupplung	handbremse	meise	lenkrad	meise	28	2	1	1	1	SOZIOLOGIESTUDENT
FAUST_1[2014-06]	120	3	9	3	1	1	2	1	1	1	839	2	2	1	321	4	1949	GEWEHR	nähnadel	gewehr	schwert	dolch	bombe	nähnadel	28	2	1	1	1	SOZIOLOGIESTUDENT
FAUST_1[2014-06]	120	3	2	3	1	2	2	1	1	1	1167	2	2	1	315	4	1183	SACHSEN	sachsen	brandenburg	thüringen	sachsen	rot	hessen	28	2	1	1	1	SOZIOLOGIESTUDENT
FAUST_1[2014-06]	120	3	24	3	1	1	1	2	2	1	897	2	2	1	356	4	1880	SEIDE	dollar	pfennig	dollar	flanell	euro	cent	28	2	1	1	1	SOZIOLOGIESTUDENT
FAUST_1[2014-06]	120	3	5	3	1	2	1	2	2	1	1463	2	1	0	672	4	1994	FÜHLEN	meile	meter	kilometer	riechen	millimeter	riechen	28	2	1	1	1	SOZIOLOGIESTUDENT
FAUST_1[2014-06]	120	3	7	3	1	1	2	2	1	0	1352	2	1	0	2022	4	1559	LEOPARD	dinkel	tiger	gepard	dinkel	panther	puma	28	2	1	1	1	SOZIOLOGIESTUDENT
FAUST_1[2014-06]	120	3	19	3	1	2	2	2	2	1	1437	2	1	0	234	4	1607	ZIRKUS	kino	vivaldi	konzertsaal	theater	konzertsaal	oper	28	2	1	1	1	SOZIOLOGIESTUDENT
FAUST_1[2014-06]	120	3	22	3	1	1	1	2	2	1	1233	2	1	0	101	4	1473	TOCHTER	sonnenschein	nebel	schnee	regen	onkel	schnee	28	2	1	1	1	SOZIOLOGIESTUDENT
FAUST_1[2014-06]	120	3	27	3	1	2	1	2	2	1	2338	2	2	1	316	1	1410	WASSERMANN	chemie	physik	erdkunde	schütze	mathematik	schütze	28	2	1	1	1	SOZIOLOGIESTUDENT
FAUST_1[2014-06]	120	3	16	3	1	1	2	2	2	1	5489	2	1	0	48	1	1297	SCHÄFERHUND	dogge	kajal	terrier	dackel	kajal	mops	28	2	1	1	1	SOZIOLOGIESTUDENT
FAUST_1[2014-06]	120	3	10	3	1	2	2	2	1	0	3409	2	2	1	197	1	3311	SOFA	schrank	trauer	schrank	tisch	regal	stuhl	28	2	1	1	1	SOZIOLOGIESTUDENT
FAUST_1[2014-06]	120	3	14	3	1	1	1	2	2	1	1651	2	1	0	280	1	958	LACHS	viereck	kreis	quadrat	makrele	dreieck	kreis	28	2	1	1	1	SOZIOLOGIESTUDENT
FAUST_1[2014-06]	120	3	29	3	1	2	1	2	1	0	1661	2	1	0	338	4	3619	OREGANO	realschule	majoran	gesamtschule	hauptschule	berufsschule	majoran	28	2	1	1	1	SOZIOLOGIESTUDENT
FAUST_1[2014-06]	120	3	32	3	1	1	2	2	1	0	836	2	2	1	238	4	1255	GIN	rum	tequila	münchen	whiskey	wodka	münchen	28	2	1	1	1	SOZIOLOGIESTUDENT
FAUST_1[2014-06]	120	3	18	3	1	2	2	2	2	1	1249	2	2	1	178	4	1802	CHACHACHA	arm	foxtrott	rumba	walzer	tango	walzer	28	2	1	1	1	SOZIOLOGIESTUDENT
FAUST_1[2014-06]	120	3	26	3	1	1	1	3	1	0	2794	2	2	1	207	1	955	MERCEDES	baracke	hütte	venus	blockhaus	baracke	scheune	28	2	1	1	1	SOZIOLOGIESTUDENT
FAUST_1[2014-06]	120	3	4	3	1	2	1	3	2	1	1202	2	1	0	669	4	1575	SEKUNDE	internet	jacke	hose	bluse	rock	internet	28	2	1	1	1	SOZIOLOGIESTUDENT
FAUST_1[2014-06]	120	3	28	3	1	1	1	3	2	1	1538	2	1	0	380	2	1539	FÄHRE	hummel	filzstift	wespe	biene	ameise	biene	28	2	1	1	1	SOZIOLOGIESTUDENT
FAUST_1[2014-06]	120	3	6	3	1	2	1	3	2	1	1296	1	1	1	300	4	1180	KIRCHE	kokain	zeichnen	kokain	schreiben	basteln	malen	28	2	1	1	1	SOZIOLOGIESTUDENT
FAUST_1[2014-06]	120	3	20	3	1	1	1	3	2	1	1471	2	1	0	298	1	1480	DÄMON	graf	herzog	graf	kaiser	teich	fürst	28	2	1	1	1	SOZIOLOGIESTUDENT
FAUST_1[2014-06]	120	3	30	3	1	2	1	3	2	1	3260	2	2	1	291	3	1147	BACKBLECH	polizist	sauerstoff	helium	wasserstoff	kohlenstoff	polizist	28	2	1	1	1	SOZIOLOGIESTUDENT
FAUST_1[2014-06]	120	3	11	3	1	1	1	3	2	1	1385	2	2	1	188	4	1350	DÖNER	verb	nomen	adjektiv	birke	adjektiv	adverb	28	2	1	1	1	SOZIOLOGIESTUDENT
FAUST_1[2014-06]	120	3	13	3	1	2	1	3	2	1	1224	2	2	1	99	4	1861	ENGLAND	lilie	apfel	lilie	birne	erdbeere	pflaume	28	2	1	1	1	SOZIOLOGIESTUDENT
FAUST_1[2014-06]	120	2	21	3	2	1	1	1	1	1	2387	2	2	1	344	1	2744	Hand8.bmp	Brocolli19.bmp	Brocolli9.bmp	Brocolli4.bmp	Hand8.bmp	Brocolli4.bmp	Brocolli14.bmp	28	2	1	1	1	SOZIOLOGIESTUDENT
FAUST_1[2014-06]	120	2	9	3	2	2	1	1	1	1	1063	2	2	1	277	4	1380	Star2.bmp	Star2.bmp	Shell18.bmp	Star2.bmp	Shell5.bmp	Shell1.bmp	Shell17.bmp	28	2	1	1	1	SOZIOLOGIESTUDENT
FAUST_1[2014-06]	120	2	8	3	2	1	2	1	1	1	1116	1	1	1	36	4	1722	Stapler8.bmp	Stapler9.bmp	Stapler6.bmp	Stapler10.bmp	Fudge17.bmp	Stapler8.bmp	Fudge17.bmp	28	2	1	1	1	SOZIOLOGIESTUDENT
FAUST_1[2014-06]	120	2	1	3	2	2	2	1	1	1	1700	2	1	0	485	4	2022	Flower3.bmp	Screw16.bmp	Flower3.bmp	Flower13.bmp	Flower3.bmp	Flower14.bmp	Flower17.bmp	28	2	1	1	1	SOZIOLOGIESTUDENT
FAUST_1[2014-06]	120	2	5	3	2	1	1	1	1	1	1030	2	1	0	397	4	1367	Swirl23.bmp	Swirl23.bmp	Man2.bmp	Man15.bmp	Man10.bmp	Man4.bmp	Man10.bmp	28	2	1	1	1	SOZIOLOGIESTUDENT
FAUST_1[2014-06]	120	2	2	3	2	2	1	1	1	1	1815	2	1	0	554	4	2692	Holly11.bmp	Holly11.bmp	Bracelet2.bmp	Bracelet1.bmp	Bracelet18.bmp	Bracelet8.bmp	Holly11.bmp	28	2	1	1	1	SOZIOLOGIESTUDENT
FAUST_1[2014-06]	120	2	19	3	2	1	2	1	1	1	1520	1	2	0	411	4	1411	Bun17.bmp	Leaf22.bmp	Bun5.bmp	Bun12.bmp	Leaf22.bmp	Bun22.bmp	Bun17.bmp	28	2	1	1	1	SOZIOLOGIESTUDENT
FAUST_1[2014-06]	120	2	4	3	2	2	2	1	1	1	1910	1	1	1	192	3	1776	Pen5.bmp	Pen20.bmp	Pen17.bmp	Pen5.bmp	Pen1.bmp	Button18.bmp	Pen5.bmp	28	2	1	1	1	SOZIOLOGIESTUDENT
FAUST_1[2014-06]	120	2	6	3	2	1	1	2	1	0	711	2	2	1	826	3	1356	Pear15.bmp	Paperclip6.bmp	Pear4.bmp	Paperclip6.bmp	Paperclip13.bmp	Paperclip4.bmp	Paperclip14.bmp	28	2	1	1	1	SOZIOLOGIESTUDENT
FAUST_1[2014-06]	120	2	15	3	2	2	1	2	1	0	902	2	2	1	294	4	1111	Present14.bmp	Car14.bmp	Present3.bmp	Car7.bmp	Car12.bmp	Car13.bmp	Present3.bmp	28	2	1	1	1	SOZIOLOGIESTUDENT
FAUST_1[2014-06]	120	2	16	3	2	1	2	2	1	0	1164	2	1	0	200	4	2646	Candle10.bmp	Tomato18.bmp	Candle17.bmp	Candle20.bmp	Tomato18.bmp	Candle13.bmp	Candle1.bmp	28	2	1	1	1	SOZIOLOGIESTUDENT
FAUST_1[2014-06]	120	2	11	3	2	2	2	2	1	0	2956	2	1	0	336	2	910	Coins3.bmp	Coins8.bmp	Coins10.bmp	Coins14.bmp	Umbrella21.bmp	Coins8.bmp	Coins12.bmp	28	2	1	1	1	SOZIOLOGIESTUDENT
FAUST_1[2014-06]	120	2	13	3	2	1	1	2	2	1	2193	2	1	0	418	1	2530	Scissors3.bmp	Feather14.bmp	Feather18.bmp	Feather12.bmp	Feather11.bmp	Scissors11.bmp	Feather18.bmp	28	2	1	1	1	SOZIOLOGIESTUDENT
FAUST_1[2014-06]	120	2	14	3	2	2	1	2	1	0	1700	2	1	0	818	4	2181	Fork17.bmp	Fork7.bmp	String8.bmp	String12.bmp	Fork7.bmp	String2.bmp	String9.bmp	28	2	1	1	1	SOZIOLOGIESTUDENT
FAUST_1[2014-06]	120	2	20	3	2	1	2	2	1	0	1090	2	1	0	153	4	1411	Bag3.bmp	Ginger10.bmp	Bag4.bmp	Bag25.bmp	Ginger10.bmp	Bag5.bmp	Bag21.bmp	28	2	1	1	1	SOZIOLOGIESTUDENT
FAUST_1[2014-06]	120	2	7	3	2	2	2	2	2	1	4598	1	1	1	417	1	914	Chocolate24.bmp	Chocolate9.bmp	Chocolate17.bmp	Hanger2.bmp	Chocolate6.bmp	Chocolate5.bmp	Chocolate6.bmp	28	2	1	1	1	SOZIOLOGIESTUDENT
FAUST_1[2014-06]	120	2	12	3	2	1	1	3	2	1	1368	2	2	1	304	4	1220	Cake7.bmp	Varnish11.bmp	Varnish3.bmp	Varnish5.bmp	Nut11.bmp	Varnish14.bmp	Varnish3.bmp	28	2	1	1	1	SOZIOLOGIESTUDENT
FAUST_1[2014-06]	120	2	17	3	2	2	1	3	2	1	2694	2	2	1	31	4	1346	Plug4.bmp	Toothbrush10.bmp	Daff9.bmp	Daff21.bmp	Daff3.bmp	Daff22.bmp	Toothbrush10.bmp	28	2	1	1	1	SOZIOLOGIESTUDENT
FAUST_1[2014-06]	120	2	3	3	2	1	1	3	2	1	1438	2	1	0	315	4	1490	Glass4.bmp	Strawberry21.bmp	Strawberry18.bmp	Strawberry21.bmp	Lipstick3.bmp	Strawberry14.bmp	Strawberry3.bmp	28	2	1	1	1	SOZIOLOGIESTUDENT
FAUST_1[2014-06]	120	2	10	3	2	2	1	3	2	1	1279	2	2	1	163	4	1432	Keys6.bmp	Apple18.bmp	Jigsaw10.bmp	Jigsaw14.bmp	Jigsaw11.bmp	Jigsaw18.bmp	Apple18.bmp	28	2	1	1	1	SOZIOLOGIESTUDENT
FAUST_1[2014-06]	120	2	18	3	2	1	1	3	2	1	2229	-1	1	0	0	4	1276	Biscuit9.bmp	Chilli14.bmp	Chilli19.bmp	Chilli14.bmp	Chilli11.bmp	Chilli12.bmp	Sweet1.bmp	28	2	1	1	1	SOZIOLOGIESTUDENT
FAUST_1[2014-06]	120	2	22	3	2	2	1	3	2	1	1917	2	2	1	864	4	1153	Key5.bmp	Onion14.bmp	Onion13.bmp	Mushroom14.bmp	Onion19.bmp	Mushroom14.bmp	Onion7.bmp	28	2	1	1	1	SOZIOLOGIESTUDENT
FAUST_1[2014-06]	120	3	9	3	3	1	1	1	1	1	843	2	2	1	1534	4	981	babycrib_5.bmp	pasta_13.bmp	pasta_9.bmp	babycrib_5.bmp	pasta_11.bmp	pasta_15.bmp	pasta_11.bmp	28	2	1	1	1	SOZIOLOGIESTUDENT
FAUST_1[2014-06]	120	3	31	3	3	2	1	1	1	1	3493	2	1	0	175	2	1833	windchime_15.bmp	horseshoe_12.bmp	horseshoe_4.bmp	windchime_15.bmp	horseshoe_3.bmp	windchime_15.bmp	horseshoe_5.bmp	28	2	1	1	1	SOZIOLOGIESTUDENT
FAUST_1[2014-06]	120	3	1	3	3	1	2	1	1	1	2651	-1	2	0	0	4	1340	remote_11.bmp	remote_3.bmp	backpack_13.bmp	remote_14.bmp	backpack_13.bmp	remote_2.bmp	remote_11.bmp	28	2	1	1	1	SOZIOLOGIESTUDENT
FAUST_1[2014-06]	120	3	11	3	3	2	2	1	1	1	970	2	2	1	486	4	1595	doorknocker_5.bmp	iceskates_5.bmp	doorknocker_5.bmp	doorknocker_14.bmp	doorknocker_5.bmp	doorknocker_4.bmp	doorknocker_11.bmp	28	2	1	1	1	SOZIOLOGIESTUDENT
FAUST_1[2014-06]	120	3	18	3	3	1	1	1	1	1	940	2	1	0	274	4	1296	glove_15.bmp	sink_6.bmp	sink_1.bmp	sink_6.bmp	sink_15.bmp	glove_15.bmp	sink_11.bmp	28	2	1	1	1	SOZIOLOGIESTUDENT
FAUST_1[2014-06]	120	3	7	3	3	2	1	1	1	1	2135	2	1	0	227	1	807	shoe_9.bmp	hairbrush_17.bmp	hairbrush_12.bmp	shoe_9.bmp	hairbrush_15.bmp	shoe_9.bmp	hairbrush_16.bmp	28	2	1	1	1	SOZIOLOGIESTUDENT
FAUST_1[2014-06]	120	3	21	3	3	1	2	1	1	1	889	2	1	0	499	2	1916	chair_2.bmp	chair_3.bmp	ring_12.bmp	chair_5.bmp	chair_2.bmp	chair_11.bmp	ring_12.bmp	28	2	1	1	1	SOZIOLOGIESTUDENT
FAUST_1[2014-06]	120	3	14	3	3	2	2	1	1	1	1057	2	2	1	238	4	1647	saltpeppershake_8.bmp	saltpeppershake_8.bmp	jacket_13.bmp	saltpeppershake_8.bmp	saltpeppershake_12.bmp	saltpeppershake_17.bmp	saltpeppershake_2.bmp	28	2	1	1	1	SOZIOLOGIESTUDENT
FAUST_1[2014-06]	120	3	25	3	3	1	1	1	1	1	2976	2	1	0	185	4	1485	wig_7.bmp	wig_7.bmp	glasses_6.bmp	glasses_15.bmp	glasses_13.bmp	glasses_9.bmp	glasses_13.bmp	28	2	1	1	1	SOZIOLOGIESTUDENT
FAUST_1[2014-06]	120	3	6	3	3	2	1	1	1	1	2194	-1	2	0	0	4	1555	goggle_3.bmp	goggle_3.bmp	cat_9.bmp	cat_4.bmp	goggle_3.bmp	cat_10.bmp	cat_1.bmp	28	2	1	1	1	SOZIOLOGIESTUDENT
FAUST_1[2014-06]	120	3	19	3	3	1	2	1	1	1	2432	-1	2	0	0	4	2330	camera_9.bmp	camera_6.bmp	camera_9.bmp	camera_3.bmp	hairdryer_2.bmp	camera_4.bmp	hairdryer_2.bmp	28	2	1	1	1	SOZIOLOGIESTUDENT
FAUST_1[2014-06]	120	3	13	3	3	2	2	1	1	1	1259	2	2	1	538	4	2375	watergun_3.bmp	watergun_3.bmp	plant_8.bmp	watergun_15.bmp	watergun_3.bmp	watergun_7.bmp	watergun_8.bmp	28	2	1	1	1	SOZIOLOGIESTUDENT
FAUST_1[2014-06]	120	3	15	3	3	1	1	2	1	0	4398	2	2	1	404	4	1010	saddle_8.bmp	watch_6.bmp	watch_7.bmp	saddle_15.bmp	watch_6.bmp	watch_8.bmp	watch_3.bmp	28	2	1	1	1	SOZIOLOGIESTUDENT
FAUST_1[2014-06]	120	3	29	3	3	2	1	2	2	1	2069	2	1	0	833	4	1209	beanbagchair_14.bmp	beanbagchair_15.bmp	leatherman_7.bmp	beanbagchair_15.bmp	leatherman_14.bmp	leatherman_5.bmp	leatherman_10.bmp	28	2	1	1	1	SOZIOLOGIESTUDENT
FAUST_1[2014-06]	120	3	27	3	3	1	2	2	1	0	1977	1	1	1	361	4	967	doorknob_10.bmp	vase_6.bmp	doorknob_17.bmp	vase_6.bmp	doorknob_14.bmp	doorknob_7.bmp	doorknob_2.bmp	28	2	1	1	1	SOZIOLOGIESTUDENT
FAUST_1[2014-06]	120	3	32	3	3	2	2	2	1	0	794	2	1	0	306	4	1190	printer_5.bmp	garbagecan_2.bmp	printer_1.bmp	printer_3.bmp	printer_1.bmp	printer_14.bmp	printer_16.bmp	28	2	1	1	1	SOZIOLOGIESTUDENT
FAUST_1[2014-06]	120	3	3	3	3	1	1	2	1	0	1715	2	2	1	395	4	1320	trophy_6.bmp	lawnmower_3.bmp	lawnmower_13.bmp	lawnmower_17.bmp	trophy_4.bmp	lawnmower_15.bmp	lawnmower_13.bmp	28	2	1	1	1	SOZIOLOGIESTUDENT
FAUST_1[2014-06]	120	3	20	3	3	2	1	2	1	0	1638	2	2	1	880	4	1386	rollerskates_8.bmp	carriage_2.bmp	carriage_3.bmp	rollerskates_17.bmp	carriage_12.bmp	carriage_14.bmp	rollerskates_17.bmp	28	2	1	1	1	SOZIOLOGIESTUDENT
FAUST_1[2014-06]	120	3	17	3	3	1	2	2	1	0	924	2	1	0	971	4	2120	mic_3.bmp	mic_10.bmp	mic_5.bmp	cellphone_4.bmp	mic_2.bmp	cellphone_4.bmp	mic_12.bmp	28	2	1	1	1	SOZIOLOGIESTUDENT
FAUST_1[2014-06]	120	3	28	3	3	2	2	2	1	0	974	1	1	1	1166	4	1185	fan_10.bmp	fan_1.bmp	fan_15.bmp	fan_17.bmp	fan_11.bmp	turtle_6.bmp	fan_17.bmp	28	2	1	1	1	SOZIOLOGIESTUDENT
FAUST_1[2014-06]	120	3	26	3	3	1	1	2	2	1	1740	-1	1	0	0	1	3691	trumpet_1.bmp	videogamecontroller_13.bmp	trumpet_3.bmp	videogamecontroller_3.bmp	videogamecontroller_2.bmp	videogamecontroller_13.bmp	videogamecontroller_5.bmp	28	2	1	1	1	SOZIOLOGIESTUDENT
FAUST_1[2014-06]	120	3	2	3	3	2	1	2	1	0	1744	2	1	0	1171	4	1590	bowlingpin_1.bmp	speaker_15.bmp	bowlingpin_4.bmp	speaker_4.bmp	speaker_6.bmp	bowlingpin_4.bmp	speaker_17.bmp	28	2	1	1	1	SOZIOLOGIESTUDENT
FAUST_1[2014-06]	120	3	8	3	3	1	2	2	1	0	1701	2	2	1	340	4	2023	abacus_15.bmp	abacus_2.bmp	abacus_4.bmp	abacus_7.bmp	highchair_10.bmp	abacus_6.bmp	highchair_10.bmp	28	2	1	1	1	SOZIOLOGIESTUDENT
FAUST_1[2014-06]	120	3	24	3	3	2	2	2	1	0	1585	2	2	1	235	4	1265	scooter_5.bmp	scooter_4.bmp	scooter_11.bmp	scooter_10.bmp	sofa_9.bmp	scooter_8.bmp	scooter_11.bmp	28	2	1	1	1	SOZIOLOGIESTUDENT
FAUST_1[2014-06]	120	3	22	3	3	1	1	3	2	1	1213	2	2	1	3123	4	2499	flashlight_2.bmp	coffee_14.bmp	coffee_1.bmp	coffee_7.bmp	coffee_1.bmp	coffee_15.bmp	parfait_13.bmp	28	2	1	1	1	SOZIOLOGIESTUDENT
FAUST_1[2014-06]	120	3	5	3	3	2	1	3	2	1	1749	2	2	1	171	4	1706	cake_4.bmp	cheesegrater_5.bmp	cheesegrater_15.bmp	cheesegrater_8.bmp	socks_4.bmp	cheesegrater_14.bmp	socks_4.bmp	28	2	1	1	1	SOZIOLOGIESTUDENT
FAUST_1[2014-06]	120	3	16	3	3	1	1	3	2	1	930	2	2	1	1527	4	2402	shredder_6.bmp	trunk_2.bmp	trunk_7.bmp	trunk_1.bmp	trunk_5.bmp	trunk_1.bmp	carabiner_6.bmp	28	2	1	1	1	SOZIOLOGIESTUDENT
FAUST_1[2014-06]	120	3	30	3	3	2	1	3	2	1	2842	2	2	1	1103	4	1453	powerstrip_14.bmp	rusdoll_5.bmp	cherubstatue_5.bmp	rusdoll_8.bmp	rusdoll_1.bmp	rusdoll_3.bmp	cherubstatue_5.bmp	28	2	1	1	1	SOZIOLOGIESTUDENT
FAUST_1[2014-06]	120	3	23	3	3	1	1	3	2	1	1471	2	2	1	426	4	1019	easteregg_16.bmp	bagel_4.bmp	birdhouse_6.bmp	bagel_12.bmp	bagel_16.bmp	bagel_4.bmp	bagel_14.bmp	28	2	1	1	1	SOZIOLOGIESTUDENT
FAUST_1[2014-06]	120	3	12	3	3	2	1	3	2	1	1427	2	2	1	527	4	1624	tv_7.bmp	hammer_11.bmp	laptop_7.bmp	hammer_6.bmp	laptop_7.bmp	hammer_15.bmp	hammer_17.bmp	28	2	1	1	1	SOZIOLOGIESTUDENT
FAUST_1[2014-06]	120	3	4	3	3	1	1	3	2	1	1858	-1	2	0	0	4	2113	router_12.bmp	orifan_1.bmp	orifan_7.bmp	orifan_6.bmp	skateboard_11.bmp	orifan_17.bmp	orifan_7.bmp	28	2	1	1	1	SOZIOLOGIESTUDENT
FAUST_1[2014-06]	120	3	10	3	3	2	1	3	2	1	1070	2	2	1	266	4	1555	guitar_10.bmp	tricycle_8.bmp	circuitboard_13.bmp	tricycle_8.bmp	circuitboard_8.bmp	circuitboard_16.bmp	circuitboard_4.bmp	28	2	1	1	1	SOZIOLOGIESTUDENT
FAUST_1[2014-06]	120	4	8	3	1	1	1	1	1	1	1799	2	1	0	231	4	1076	SCRABBLE	zentimeter	meter	millimeter	zentimeter	meile	scrabble	28	2	1	1	1	SOZIOLOGIESTUDENT
FAUST_1[2014-06]	120	4	13	3	1	2	1	1	1	1	791	2	1	0	68	4	2422	FÄHRE	fähre	minute	stunde	jahr	fähre	tag	28	2	1	1	1	SOZIOLOGIESTUDENT
FAUST_1[2014-06]	120	4	18	3	1	1	2	1	1	1	1269	2	2	1	336	4	1604	RHEIN	sicherheitsnadel	weser	rhein	sicherheitsnadel	elbe	main	28	2	1	1	1	SOZIOLOGIESTUDENT
FAUST_1[2014-06]	120	4	14	3	1	2	2	1	1	1	694	1	1	1	521	4	1132	HEROIN	heroin	haschisch	cannabis	opium	heroin	gaspedal	28	2	1	1	1	SOZIOLOGIESTUDENT
FAUST_1[2014-06]	120	4	27	3	1	1	1	1	1	1	1199	2	2	1	2176	1	3214	PUMA	bohrer	zange	meißel	zange	puma	säge	28	2	1	1	1	SOZIOLOGIESTUDENT
FAUST_1[2014-06]	120	4	29	3	1	2	1	1	1	1	1616	2	1	0	935	1	833	VERB	kohlenstoff	helium	verb	sauerstoff	verb	stickstoff	28	2	1	1	1	SOZIOLOGIESTUDENT
FAUST_1[2014-06]	120	4	26	3	1	1	2	1	1	1	512	1	2	0	922	1	617	VIERECK	viereck	veilchen	dreieck	rechteck	veilchen	quadrat	28	2	1	1	1	SOZIOLOGIESTUDENT
FAUST_1[2014-06]	120	4	10	3	1	2	2	1	2	0	3543	2	1	0	2200	1	5369	LOCHER	locher	lineal	locher	gold	klebeband	brieföffner	28	2	1	1	1	SOZIOLOGIESTUDENT
FAUST_1[2014-06]	120	4	19	3	1	1	1	1	2	0	1441	2	1	0	1317	4	2138	WIMPERNTUSCHE	mathematik	erdkunde	wimperntusche	chemie	physik	erdkunde	28	2	1	1	1	SOZIOLOGIESTUDENT
FAUST_1[2014-06]	120	4	30	3	1	2	1	1	1	1	609	2	2	1	3250	1	5582	GERSTE	gerste	vivaldi	beethoven	chopin	brahms	gerste	28	2	1	1	1	SOZIOLOGIESTUDENT
FAUST_1[2014-06]	120	4	21	3	1	1	2	1	2	0	1574	-1	2	0	0	1	698	LEINEN	leinen	flanell	seide	pfannenwender	wolle	pfannenwender	28	2	1	1	1	SOZIOLOGIESTUDENT
FAUST_1[2014-06]	120	4	5	3	1	2	2	1	1	1	2610	2	2	1	750	4	4615	DOGGE	dogge	mops	hering	schäferhund	terrier	dogge	28	2	1	1	1	SOZIOLOGIESTUDENT
FAUST_1[2014-06]	120	4	2	3	1	1	1	2	2	1	2124	2	1	0	218	4	1081	HANNOVER	trompete	klarinette	flöte	stuttgart	klarinette	posaune	28	2	1	1	1	SOZIOLOGIESTUDENT
FAUST_1[2014-06]	120	4	9	3	1	2	1	2	2	1	1015	2	2	1	383	1	1804	MERKUR	saturn	bus	taxi	zug	saturn	straßenbahn	28	2	1	1	1	SOZIOLOGIESTUDENT
FAUST_1[2014-06]	120	4	31	3	1	1	2	2	2	1	420	2	2	1	1831	2	8050	MARK	pfennig	euro	cent	eiche	dollar	eiche	28	2	1	1	1	SOZIOLOGIESTUDENT
FAUST_1[2014-06]	120	4	32	3	1	2	2	2	1	0	669	2	1	0	2203	3	3768	INTERNET	fernsehen	zeitung	radio	buch	zeitung	hauptschule	28	2	1	1	1	SOZIOLOGIESTUDENT
FAUST_1[2014-06]	120	4	16	3	1	1	1	2	2	1	1435	2	2	1	327	4	1187	LAPTOP	drucker	polizist	richter	arzt	pfarrer	arzt	28	2	1	1	1	SOZIOLOGIESTUDENT
FAUST_1[2014-06]	120	4	23	3	1	2	1	2	2	1	5263	2	2	1	3129	1	1559	ÄRGER	hütte	freude	blockhaus	baracke	freude	schuppen	28	2	1	1	1	SOZIOLOGIESTUDENT
FAUST_1[2014-06]	120	4	22	3	1	1	2	2	2	1	812	2	1	0	1044	4	2468	HESSEN	wassermann	sachsen	saarland	brandenburg	thüringen	wassermann	28	2	1	1	1	SOZIOLOGIESTUDENT
FAUST_1[2014-06]	120	4	7	3	1	2	2	2	1	0	1287	2	2	1	571	4	1949	GRIPPE	masern	mumps	röteln	mumps	bombe	windpocken	28	2	1	1	1	SOZIOLOGIESTUDENT
FAUST_1[2014-06]	120	4	24	3	1	1	1	2	1	0	3556	-1	2	0	0	2	928	ZEICHNEN	sofa	regal	tisch	stuhl	schreiben	stuhl	28	2	1	1	1	SOZIOLOGIESTUDENT
FAUST_1[2014-06]	120	4	6	3	1	2	1	2	1	0	1504	1	2	0	279	4	1470	RUM	whiskey	diesel	bleifrei	petroleum	whiskey	benzin	28	2	1	1	1	SOZIOLOGIESTUDENT
FAUST_1[2014-06]	120	4	20	3	1	1	2	2	2	1	961	2	2	1	1059	2	2723	TEELÖFFEL	karaffe	messer	brotmesser	karaffe	löffel	gabel	28	2	1	1	1	SOZIOLOGIESTUDENT
FAUST_1[2014-06]	120	4	28	3	1	2	2	2	1	0	523	2	1	0	379	1	1208	GOLF	schwimmen	fußball	schwimmen	tennis	skifahren	kugelschreiber	28	2	1	1	1	SOZIOLOGIESTUDENT
FAUST_1[2014-06]	120	4	3	3	1	1	1	3	2	1	1644	2	1	0	1713	4	1396	ENGLAND	hagel	mücke	hummel	biene	wespe	hummel	28	2	1	1	1	SOZIOLOGIESTUDENT
FAUST_1[2014-06]	120	4	1	3	1	2	1	3	2	1	844	1	1	1	1790	4	1399	VAMPIR	amsel	hamburger	bratwurst	pommes	amsel	döner	28	2	1	1	1	SOZIOLOGIESTUDENT
FAUST_1[2014-06]	120	4	11	3	1	1	1	3	1	0	2497	2	1	0	270	1	2181	HAND	actionfilm	thriller	komödie	western	fühlen	actionfilm	28	2	1	1	1	SOZIOLOGIESTUDENT
FAUST_1[2014-06]	120	4	4	3	1	2	1	3	2	1	1427	2	1	0	389	4	1870	SÜDAMERIKA	karamell	lakritz	marzipan	sohn	bonbons	sohn	28	2	1	1	1	SOZIOLOGIESTUDENT
FAUST_1[2014-06]	120	4	17	3	1	1	1	3	1	0	2268	2	2	1	122	1	1060	KIRCHE	gelb	grün	lila	blau	oper	gelb	28	2	1	1	1	SOZIOLOGIESTUDENT
FAUST_1[2014-06]	120	4	15	3	1	2	1	3	2	1	1224	2	2	1	199	4	1283	TEICH	tomaten	hose	bohnen	blumenkohl	hose	karotten	28	2	1	1	1	SOZIOLOGIESTUDENT
FAUST_1[2014-06]	120	4	12	3	1	1	1	3	2	1	1122	1	1	1	31	4	1213	AUDI	majoran	foxtrott	rosmarin	thymian	koriander	thymian	28	2	1	1	1	SOZIOLOGIESTUDENT
FAUST_1[2014-06]	120	4	25	3	1	2	1	3	1	0	622	2	1	0	2040	2	1611	KÖNIG	magen	birne	lunge	niere	birne	herz	28	2	1	1	1	SOZIOLOGIESTUDENT
