experiment	subject	block	trial	order	material	repeated	related	probetype	response	correct	rt	math_response	math_correctresponse	math_correct	math_rt	confidence	confidence_rt	probe	item1	item2	item3	item4	item5	item6	age	sex	handedness	color_vision	mother_tongue	occupation
FAUST_1[2014-06]	121	1	16	6	3	1	1	1	2	0	1503	2	2	1	1356	3	2323	hairdryer_13.bmp	lawnmower_17.bmp	lawnmower_3.bmp	hairdryer_13.bmp	lawnmower_15.bmp	lawnmower_3.bmp	lawnmower_8.bmp	28	2	1	1	1	LEHRAMTSSTUDENT
FAUST_1[2014-06]	121	1	14	6	3	2	1	1	1	1	2115	2	2	1	2312	3	1855	cake_5.bmp	parfait_1.bmp	cake_5.bmp	parfait_11.bmp	cake_5.bmp	parfait_4.bmp	parfait_13.bmp	28	2	1	1	1	LEHRAMTSSTUDENT
FAUST_1[2014-06]	121	1	15	6	3	1	2	1	2	0	1429	-1	1	0	0	3	2052	carabiner_6.bmp	shredder_15.bmp	carabiner_2.bmp	shredder_15.bmp	carabiner_9.bmp	carabiner_5.bmp	carabiner_6.bmp	28	2	1	1	1	LEHRAMTSSTUDENT
FAUST_1[2014-06]	121	1	17	6	3	2	2	1	2	0	1897	2	1	0	2152	3	1610	chair_11.bmp	chair_11.bmp	chair_2.bmp	chair_11.bmp	rusdoll_1.bmp	chair_16.bmp	chair_3.bmp	28	2	1	1	1	LEHRAMTSSTUDENT
FAUST_1[2014-06]	121	1	28	6	3	1	1	1	2	0	1022	1	1	1	2407	3	1820	sofa_13.bmp	sofa_13.bmp	trumpet_17.bmp	trumpet_1.bmp	trumpet_17.bmp	trumpet_6.bmp	trumpet_3.bmp	28	2	1	1	1	LEHRAMTSSTUDENT
FAUST_1[2014-06]	121	1	31	6	3	2	1	1	1	1	1329	1	1	1	2187	4	1250	flashlight_13.bmp	flashlight_13.bmp	saddle_8.bmp	saddle_3.bmp	saddle_4.bmp	saddle_5.bmp	flashlight_13.bmp	28	2	1	1	1	LEHRAMTSSTUDENT
FAUST_1[2014-06]	121	1	22	6	3	1	2	1	1	1	2428	2	2	1	1269	3	1646	bagel_10.bmp	windchime_15.bmp	bagel_14.bmp	bagel_12.bmp	windchime_15.bmp	bagel_10.bmp	bagel_16.bmp	28	2	1	1	1	LEHRAMTSSTUDENT
FAUST_1[2014-06]	121	1	6	6	3	2	2	1	2	0	2105	2	2	1	1707	1	1613	socks_4.bmp	socks_10.bmp	socks_4.bmp	socks_15.bmp	trunk_7.bmp	socks_4.bmp	socks_12.bmp	28	2	1	1	1	LEHRAMTSSTUDENT
FAUST_1[2014-06]	121	1	19	6	3	1	1	1	1	1	1553	2	1	0	1147	4	1500	videogamecontroller_13.bmp	cherubstatue_11.bmp	cherubstatue_12.bmp	cherubstatue_5.bmp	cherubstatue_6.bmp	cherubstatue_11.bmp	videogamecontroller_13.bmp	28	2	1	1	1	LEHRAMTSSTUDENT
FAUST_1[2014-06]	121	1	21	6	3	2	1	1	1	1	1877	2	2	1	1660	4	1158	babycrib_6.bmp	powerstrip_13.bmp	babycrib_6.bmp	powerstrip_8.bmp	babycrib_6.bmp	powerstrip_10.bmp	powerstrip_7.bmp	28	2	1	1	1	LEHRAMTSSTUDENT
FAUST_1[2014-06]	121	1	26	6	3	1	2	1	2	0	2305	1	1	1	2324	2	1719	vase_6.bmp	vase_6.bmp	vase_5.bmp	cheesegrater_14.bmp	vase_1.bmp	vase_15.bmp	cheesegrater_14.bmp	28	2	1	1	1	LEHRAMTSSTUDENT
FAUST_1[2014-06]	121	1	10	6	3	2	2	1	1	1	2425	2	2	1	2765	3	1734	glasses_6.bmp	glasses_13.bmp	glasses_6.bmp	abacus_6.bmp	glasses_9.bmp	glasses_6.bmp	glasses_8.bmp	28	2	1	1	1	LEHRAMTSSTUDENT
FAUST_1[2014-06]	121	1	11	6	3	1	1	2	2	1	1089	1	1	1	2401	4	2036	wig_9.bmp	easteregg_17.bmp	easteregg_16.bmp	easteregg_5.bmp	easteregg_14.bmp	wig_6.bmp	easteregg_5.bmp	28	2	1	1	1	LEHRAMTSSTUDENT
FAUST_1[2014-06]	121	1	1	6	3	2	1	2	1	0	9691	-1	1	0	0	4	8096	tricycle_5.bmp	pasta_10.bmp	tricycle_10.bmp	pasta_15.bmp	pasta_11.bmp	tricycle_10.bmp	pasta_9.bmp	28	2	1	1	1	LEHRAMTSSTUDENT
FAUST_1[2014-06]	121	1	2	6	3	1	2	2	2	1	2327	-1	2	0	0	3	3150	cat_4.bmp	cat_1.bmp	cat_9.bmp	cat_5.bmp	glove_12.bmp	cat_10.bmp	glove_12.bmp	28	2	1	1	1	LEHRAMTSSTUDENT
FAUST_1[2014-06]	121	1	5	6	3	2	2	2	1	0	1413	2	2	1	2292	3	1894	mic_5.bmp	mic_10.bmp	goggle_4.bmp	mic_2.bmp	mic_12.bmp	mic_3.bmp	mic_10.bmp	28	2	1	1	1	LEHRAMTSSTUDENT
FAUST_1[2014-06]	121	1	29	6	3	1	1	2	2	1	1149	1	1	1	3235	4	1895	sink_15.bmp	cellphone_3.bmp	cellphone_11.bmp	cellphone_8.bmp	sink_11.bmp	cellphone_12.bmp	cellphone_11.bmp	28	2	1	1	1	LEHRAMTSSTUDENT
FAUST_1[2014-06]	121	1	23	6	3	2	1	2	1	0	2000	2	2	1	1839	3	1166	garbagecan_13.bmp	carriage_9.bmp	garbagecan_17.bmp	carriage_3.bmp	garbagecan_17.bmp	carriage_2.bmp	carriage_14.bmp	28	2	1	1	1	LEHRAMTSSTUDENT
FAUST_1[2014-06]	121	1	30	6	3	1	2	2	2	1	1695	2	2	1	3405	3	1870	backpack_10.bmp	laptop_7.bmp	backpack_16.bmp	laptop_7.bmp	backpack_13.bmp	backpack_12.bmp	backpack_6.bmp	28	2	1	1	1	LEHRAMTSSTUDENT
FAUST_1[2014-06]	121	1	20	6	3	2	2	2	1	0	2154	2	2	1	2011	3	1434	camera_6.bmp	camera_9.bmp	watergun_7.bmp	camera_3.bmp	camera_7.bmp	camera_9.bmp	camera_4.bmp	28	2	1	1	1	LEHRAMTSSTUDENT
FAUST_1[2014-06]	121	1	12	6	3	1	1	2	2	1	1246	1	1	1	2226	3	2024	doorknocker_11.bmp	hairbrush_15.bmp	hairbrush_12.bmp	hairbrush_16.bmp	doorknocker_5.bmp	hairbrush_17.bmp	hairbrush_16.bmp	28	2	1	1	1	LEHRAMTSSTUDENT
FAUST_1[2014-06]	121	1	9	6	3	2	1	2	2	1	1333	1	1	1	2036	4	1552	jacket_6.bmp	jacket_11.bmp	circuitboard_16.bmp	circuitboard_8.bmp	circuitboard_2.bmp	circuitboard_13.bmp	jacket_11.bmp	28	2	1	1	1	LEHRAMTSSTUDENT
FAUST_1[2014-06]	121	1	3	6	3	1	2	2	1	0	1967	2	1	0	1505	2	2362	shoe_9.bmp	shoe_17.bmp	saltpeppershake_8.bmp	shoe_7.bmp	shoe_15.bmp	shoe_13.bmp	saltpeppershake_8.bmp	28	2	1	1	1	LEHRAMTSSTUDENT
FAUST_1[2014-06]	121	1	7	6	3	2	2	2	1	0	1792	2	2	1	1341	3	1516	birdhouse_14.bmp	birdhouse_7.bmp	birdhouse_6.bmp	birdhouse_9.bmp	birdhouse_6.bmp	birdhouse_11.bmp	rollerskates_7.bmp	28	2	1	1	1	LEHRAMTSSTUDENT
FAUST_1[2014-06]	121	1	27	6	3	1	1	3	2	1	2616	2	1	0	2181	2	1985	speaker_6.bmp	coffee_14.bmp	coffee_7.bmp	coffee_15.bmp	coffee_2.bmp	printer_5.bmp	coffee_7.bmp	28	2	1	1	1	LEHRAMTSSTUDENT
FAUST_1[2014-06]	121	1	24	6	3	2	1	3	2	1	1115	2	2	1	2442	3	1445	iceskates_7.bmp	trophy_6.bmp	scooter_5.bmp	trophy_16.bmp	trophy_15.bmp	scooter_5.bmp	trophy_4.bmp	28	2	1	1	1	LEHRAMTSSTUDENT
FAUST_1[2014-06]	121	1	25	6	3	1	1	3	2	1	1144	1	1	1	2151	4	1547	horseshoe_6.bmp	tv_7.bmp	tv_5.bmp	orifan_7.bmp	tv_4.bmp	tv_8.bmp	tv_5.bmp	28	2	1	1	1	LEHRAMTSSTUDENT
FAUST_1[2014-06]	121	1	18	6	3	2	1	3	2	1	1236	1	1	1	2616	3	2223	plant_13.bmp	watch_14.bmp	router_5.bmp	watch_6.bmp	watch_3.bmp	watch_7.bmp	router_5.bmp	28	2	1	1	1	LEHRAMTSSTUDENT
FAUST_1[2014-06]	121	1	32	6	3	1	1	3	2	1	1038	2	2	1	1264	4	1623	guitar_10.bmp	skateboard_11.bmp	skateboard_14.bmp	skateboard_15.bmp	skateboard_16.bmp	skateboard_11.bmp	turtle_7.bmp	28	2	1	1	1	LEHRAMTSSTUDENT
FAUST_1[2014-06]	121	1	13	6	3	2	1	3	2	1	1388	2	2	1	1281	3	1336	remote_13.bmp	ring_8.bmp	leatherman_2.bmp	leatherman_7.bmp	leatherman_10.bmp	leatherman_5.bmp	ring_8.bmp	28	2	1	1	1	LEHRAMTSSTUDENT
FAUST_1[2014-06]	121	1	8	6	3	1	1	3	1	0	2492	1	1	1	2268	2	2341	bowlingpin_1.bmp	fan_17.bmp	fan_1.bmp	fan_15.bmp	fan_1.bmp	fan_10.bmp	highchair_10.bmp	28	2	1	1	1	LEHRAMTSSTUDENT
FAUST_1[2014-06]	121	1	4	6	3	2	1	3	2	1	1383	2	2	1	2012	4	1987	beanbagchair_17.bmp	doorknob_14.bmp	hammer_8.bmp	doorknob_14.bmp	hammer_17.bmp	hammer_11.bmp	hammer_6.bmp	28	2	1	1	1	LEHRAMTSSTUDENT
FAUST_1[2014-06]	121	2	15	6	1	1	1	1	2	0	1019	2	2	1	2403	3	2521	GEWEHR	tempel	kirche	gewehr	tempel	moschee	kapelle	28	2	1	1	1	LEHRAMTSSTUDENT
FAUST_1[2014-06]	121	2	25	6	1	2	1	1	1	1	2018	2	2	1	2042	3	1128	TANNE	vater	mutter	tanne	onkel	tanne	sohn	28	2	1	1	1	LEHRAMTSSTUDENT
FAUST_1[2014-06]	121	2	26	6	1	1	2	1	1	1	1917	2	1	0	1446	2	2060	PHYSIK	erdkunde	biologie	birne	chemie	birne	physik	28	2	1	1	1	LEHRAMTSSTUDENT
FAUST_1[2014-06]	121	2	8	6	1	2	2	1	2	0	1300	2	1	0	2659	4	1201	PRÄPOSITION	adverb	nomen	verb	präposition	tomaten	präposition	28	2	1	1	1	LEHRAMTSSTUDENT
FAUST_1[2014-06]	121	2	19	6	1	1	1	1	1	1	1419	2	2	1	1626	4	1068	TROMPETE	scrabble	backgammon	scrabble	schach	monopoly	trompete	28	2	1	1	1	LEHRAMTSSTUDENT
FAUST_1[2014-06]	121	2	22	6	1	2	1	1	1	1	1705	1	1	1	1899	4	1602	OPER	donau	oper	rhein	elbe	oper	weser	28	2	1	1	1	LEHRAMTSSTUDENT
FAUST_1[2014-06]	121	2	9	6	1	1	2	1	1	1	1675	2	1	0	2060	4	1496	GIN	wodka	whiskey	karamell	rum	karamell	gin	28	2	1	1	1	LEHRAMTSSTUDENT
FAUST_1[2014-06]	121	2	1	6	1	2	2	1	1	1	1485	2	2	1	2225	4	1500	FREUDE	pfennig	scham	freude	angst	trauer	freude	28	2	1	1	1	LEHRAMTSSTUDENT
FAUST_1[2014-06]	121	2	24	6	1	1	1	1	1	1	1582	1	1	1	1830	4	845	SCHUPPEN	rechteck	dreieck	viereck	schuppen	rechteck	quadrat	28	2	1	1	1	LEHRAMTSSTUDENT
FAUST_1[2014-06]	121	2	32	6	1	2	1	1	1	1	1203	2	2	1	2765	3	1404	LILIE	lachs	makrele	lilie	hering	forelle	lilie	28	2	1	1	1	LEHRAMTSSTUDENT
FAUST_1[2014-06]	121	2	13	6	1	1	2	1	2	0	1228	2	2	1	2779	3	1515	BÜROKLAMMER	italien	büroklammer	locher	klebeband	lineal	italien	28	2	1	1	1	LEHRAMTSSTUDENT
FAUST_1[2014-06]	121	2	7	6	1	2	2	1	1	1	1316	2	1	0	1134	4	1756	LÖFFEL	löffel	brotmesser	teelöffel	messer	kupplung	löffel	28	2	1	1	1	LEHRAMTSSTUDENT
FAUST_1[2014-06]	121	2	29	6	1	1	1	2	2	1	1378	2	2	1	1176	4	2044	VIVALDI	beethoven	schmecken	sehen	schmecken	fühlen	hören	28	2	1	1	1	LEHRAMTSSTUDENT
FAUST_1[2014-06]	121	2	4	6	1	2	1	2	2	1	1027	2	2	1	1763	3	1763	BUS	straßenbahn	hummel	biene	wespe	mücke	straßenbahn	28	2	1	1	1	LEHRAMTSSTUDENT
FAUST_1[2014-06]	121	2	16	6	1	1	2	2	1	0	1356	2	2	1	1128	3	1228	KILOMETER	zentimeter	meter	meise	meile	millimeter	meise	28	2	1	1	1	LEHRAMTSSTUDENT
FAUST_1[2014-06]	121	2	31	6	1	2	2	2	1	0	1199	1	1	1	1495	3	994	OZEAN	teich	fluss	afrika	meer	teich	see	28	2	1	1	1	LEHRAMTSSTUDENT
FAUST_1[2014-06]	121	2	5	6	1	1	1	2	2	1	941	2	2	1	1536	3	1413	GOLD	hexe	werwolf	vampir	dämon	werwolf	silber	28	2	1	1	1	LEHRAMTSSTUDENT
FAUST_1[2014-06]	121	2	21	6	1	2	1	2	2	1	1015	1	1	1	1692	4	3192	CANNABIS	opium	fürst	könig	graf	kaiser	opium	28	2	1	1	1	LEHRAMTSSTUDENT
FAUST_1[2014-06]	121	2	23	6	1	1	2	2	1	0	1599	1	1	1	1499	2	866	MERCEDES	volvo	rock	audi	peugeot	porsche	rock	28	2	1	1	1	LEHRAMTSSTUDENT
FAUST_1[2014-06]	121	2	28	6	1	2	2	2	1	0	2041	-1	2	0	0	2	2039	SEKUNDE	tag	minute	gepard	jahr	stunde	jahr	28	2	1	1	1	LEHRAMTSSTUDENT
FAUST_1[2014-06]	121	2	10	6	1	1	1	2	2	1	1049	2	2	1	3277	3	1396	SKIFAHREN	lesen	malen	golf	lesen	basteln	zeichnen	28	2	1	1	1	LEHRAMTSSTUDENT
FAUST_1[2014-06]	121	2	20	6	1	2	1	2	1	0	1659	1	1	1	2035	4	784	GERSTE	häkelnadel	dinkel	stricknadel	nähnadel	sicherheitsnadel	dinkel	28	2	1	1	1	LEHRAMTSSTUDENT
FAUST_1[2014-06]	121	2	30	6	1	1	2	2	1	0	1314	1	1	1	1793	3	1283	NIERE	leber	lunge	wasserstoff	magen	herz	wasserstoff	28	2	1	1	1	LEHRAMTSSTUDENT
FAUST_1[2014-06]	121	2	27	6	1	2	2	2	1	0	1771	2	2	1	2970	3	1271	KANNE	becher	karaffe	glas	flasche	döner	glas	28	2	1	1	1	LEHRAMTSSTUDENT
FAUST_1[2014-06]	121	2	17	6	1	1	1	3	1	0	2192	1	1	1	2546	4	990	RUMBA	windpocken	röteln	grippe	komödie	windpocken	mumps	28	2	1	1	1	LEHRAMTSSTUDENT
FAUST_1[2014-06]	121	2	18	6	1	2	1	3	2	1	1048	1	1	1	2298	3	1154	LAPTOP	filzstift	sonnenschein	füller	sonnenschein	kugelschreiber	buntstift	28	2	1	1	1	LEHRAMTSSTUDENT
FAUST_1[2014-06]	121	2	12	6	1	1	1	3	2	1	894	2	2	1	1197	3	1388	STUHL	fähre	boot	bohrer	boot	kanu	yacht	28	2	1	1	1	LEHRAMTSSTUDENT
FAUST_1[2014-06]	121	2	3	6	1	2	1	3	2	1	2451	2	2	1	1257	2	1390	STUTTGART	berufsschule	schütze	jungfrau	steinbock	zwilling	berufsschule	28	2	1	1	1	LEHRAMTSSTUDENT
FAUST_1[2014-06]	121	2	6	6	1	1	1	3	2	1	1042	2	2	1	1457	3	1347	FERNSEHEN	leinen	sachsen	wolle	baumwolle	flanell	leinen	28	2	1	1	1	LEHRAMTSSTUDENT
FAUST_1[2014-06]	121	2	2	6	1	2	1	3	2	1	1060	2	2	1	2937	3	1510	HAND	bleifrei	dogge	bleifrei	dackel	mops	schäferhund	28	2	1	1	1	LEHRAMTSSTUDENT
FAUST_1[2014-06]	121	2	11	6	1	1	1	3	2	1	1160	2	2	1	2366	2	1329	ROT	backform	nudelholz	backform	backblech	pfannenwender	arzt	28	2	1	1	1	LEHRAMTSSTUDENT
FAUST_1[2014-06]	121	2	14	6	1	2	1	3	2	1	1056	1	1	1	1676	3	1329	ROSMARIN	lidschatten	wimperntusche	saturn	kajal	rouge	saturn	28	2	1	1	1	LEHRAMTSSTUDENT
FAUST_1[2014-06]	121	3	9	6	2	1	1	1	2	0	1358	1	1	1	1398	2	1539	Car21.bmp	Pen20.bmp	Pen5.bmp	Pen17.bmp	Pen10.bmp	Car21.bmp	Pen20.bmp	28	2	1	1	1	LEHRAMTSSTUDENT
FAUST_1[2014-06]	121	3	1	6	2	2	1	1	1	1	1059	2	2	1	1451	4	1788	Leaf15.bmp	String9.bmp	String12.bmp	Leaf15.bmp	String8.bmp	String2.bmp	Leaf15.bmp	28	2	1	1	1	LEHRAMTSSTUDENT
FAUST_1[2014-06]	121	3	16	6	2	1	2	1	1	1	1310	2	2	1	1227	4	1220	Feather12.bmp	Feather11.bmp	Feather12.bmp	Key9.bmp	Feather2.bmp	Feather18.bmp	Key9.bmp	28	2	1	1	1	LEHRAMTSSTUDENT
FAUST_1[2014-06]	121	3	13	6	2	2	2	1	1	1	1034	2	2	1	817	4	1204	Glass16.bmp	Glass12.bmp	Glass16.bmp	Glass4.bmp	Glass3.bmp	Chilli19.bmp	Glass16.bmp	28	2	1	1	1	LEHRAMTSSTUDENT
FAUST_1[2014-06]	121	3	11	6	2	1	1	1	2	0	914	1	1	1	1529	3	1388	Hanger12.bmp	Tomato3.bmp	Tomato12.bmp	Tomato3.bmp	Tomato18.bmp	Tomato5.bmp	Hanger12.bmp	28	2	1	1	1	LEHRAMTSSTUDENT
FAUST_1[2014-06]	121	3	3	6	2	2	1	1	1	1	1541	1	2	0	1387	4	1577	Fudge20.bmp	Chocolate17.bmp	Fudge20.bmp	Chocolate24.bmp	Chocolate5.bmp	Fudge20.bmp	Chocolate6.bmp	28	2	1	1	1	LEHRAMTSSTUDENT
FAUST_1[2014-06]	121	3	12	6	2	1	2	1	1	1	1420	2	2	1	946	3	1278	Cake7.bmp	Cake7.bmp	Cake16.bmp	Hand1.bmp	Cake24.bmp	Hand1.bmp	Cake18.bmp	28	2	1	1	1	LEHRAMTSSTUDENT
FAUST_1[2014-06]	121	3	2	6	2	2	2	1	1	1	1520	2	2	1	1292	4	1537	Shell1.bmp	Strawberry21.bmp	Shell5.bmp	Shell1.bmp	Shell18.bmp	Shell17.bmp	Shell1.bmp	28	2	1	1	1	LEHRAMTSSTUDENT
FAUST_1[2014-06]	121	3	4	6	2	1	1	2	1	0	1044	2	2	1	1105	4	1493	Man4.bmp	Daff1.bmp	Daff9.bmp	Daff3.bmp	Daff21.bmp	Man15.bmp	Daff21.bmp	28	2	1	1	1	LEHRAMTSSTUDENT
FAUST_1[2014-06]	121	3	18	6	2	2	1	2	1	0	1788	2	2	1	1785	3	1700	Toothbrush9.bmp	Candle1.bmp	Toothbrush10.bmp	Candle20.bmp	Candle17.bmp	Toothbrush10.bmp	Candle10.bmp	28	2	1	1	1	LEHRAMTSSTUDENT
FAUST_1[2014-06]	121	3	5	6	2	1	2	2	1	0	1376	1	1	1	1506	4	1330	Umbrella7.bmp	Umbrella17.bmp	Mushroom25.bmp	Umbrella21.bmp	Umbrella6.bmp	Umbrella19.bmp	Mushroom25.bmp	28	2	1	1	1	LEHRAMTSSTUDENT
FAUST_1[2014-06]	121	3	8	6	2	2	2	2	2	1	1014	2	2	1	1718	4	1768	Screw18.bmp	Bag4.bmp	Screw16.bmp	Screw9.bmp	Screw16.bmp	Screw13.bmp	Screw10.bmp	28	2	1	1	1	LEHRAMTSSTUDENT
FAUST_1[2014-06]	121	3	19	6	2	1	1	2	1	0	1167	2	1	0	1708	4	1074	Biscuit20.bmp	Biscuit17.bmp	Swirl1.bmp	Swirl5.bmp	Swirl13.bmp	Swirl23.bmp	Swirl5.bmp	28	2	1	1	1	LEHRAMTSSTUDENT
FAUST_1[2014-06]	121	3	6	6	2	2	1	2	2	1	1772	2	2	1	1125	3	1658	Paperclip4.bmp	Present9.bmp	Paperclip6.bmp	Present14.bmp	Present3.bmp	Paperclip6.bmp	Present2.bmp	28	2	1	1	1	LEHRAMTSSTUDENT
FAUST_1[2014-06]	121	3	17	6	2	1	2	2	2	1	1172	2	1	0	911	3	1464	Lipstick2.bmp	Flower18.bmp	Lipstick15.bmp	Flower18.bmp	Lipstick9.bmp	Lipstick3.bmp	Lipstick7.bmp	28	2	1	1	1	LEHRAMTSSTUDENT
FAUST_1[2014-06]	121	3	15	6	2	2	2	2	2	1	1039	1	2	0	1770	3	1199	Coins12.bmp	Coins14.bmp	Coins10.bmp	Coins3.bmp	Coins8.bmp	Sweet18.bmp	Coins10.bmp	28	2	1	1	1	LEHRAMTSSTUDENT
FAUST_1[2014-06]	121	3	21	6	2	1	1	3	2	1	851	2	2	1	1065	4	1666	Stapler7.bmp	Button20.bmp	Button14.bmp	Button20.bmp	Keys6.bmp	Button3.bmp	Button18.bmp	28	2	1	1	1	LEHRAMTSSTUDENT
FAUST_1[2014-06]	121	3	10	6	2	2	1	3	2	1	993	2	2	1	914	4	1938	Nut21.bmp	Apple10.bmp	Ginger15.bmp	Apple5.bmp	Apple18.bmp	Apple21.bmp	Ginger15.bmp	28	2	1	1	1	LEHRAMTSSTUDENT
FAUST_1[2014-06]	121	3	20	6	2	1	1	3	2	1	808	2	2	1	2013	3	1103	Holly11.bmp	Plug18.bmp	Plug8.bmp	Plug9.bmp	Plug6.bmp	Varnish14.bmp	Plug6.bmp	28	2	1	1	1	LEHRAMTSSTUDENT
FAUST_1[2014-06]	121	3	22	6	2	2	1	3	2	1	1767	2	1	0	1236	2	1188	Bun19.bmp	Jigsaw17.bmp	Onion19.bmp	Onion7.bmp	Onion13.bmp	Onion14.bmp	Jigsaw17.bmp	28	2	1	1	1	LEHRAMTSSTUDENT
FAUST_1[2014-06]	121	3	7	6	2	1	1	3	2	1	3828	1	1	1	1876	3	2409	Scissors3.bmp	Pear7.bmp	Pear18.bmp	Pear15.bmp	Brocolli19.bmp	Pear7.bmp	Pear16.bmp	28	2	1	1	1	LEHRAMTSSTUDENT
FAUST_1[2014-06]	121	3	14	6	2	2	1	3	2	1	904	2	2	1	1347	4	1879	Star2.bmp	Fork14.bmp	Bracelet8.bmp	Fork8.bmp	Fork9.bmp	Bracelet8.bmp	Fork7.bmp	28	2	1	1	1	LEHRAMTSSTUDENT
FAUST_1[2014-06]	121	2	23	6	3	1	1	1	1	1	930	1	1	1	1174	3	991	cheesegrater_5.bmp	sofa_3.bmp	sofa_6.bmp	sofa_12.bmp	sofa_3.bmp	sofa_13.bmp	cheesegrater_5.bmp	28	2	1	1	1	LEHRAMTSSTUDENT
FAUST_1[2014-06]	121	2	20	6	3	2	1	1	1	1	970	2	2	1	1682	4	1701	tricycle_8.bmp	carabiner_2.bmp	carabiner_7.bmp	tricycle_8.bmp	carabiner_5.bmp	tricycle_8.bmp	carabiner_9.bmp	28	2	1	1	1	LEHRAMTSSTUDENT
FAUST_1[2014-06]	121	2	16	6	3	1	2	1	1	1	1353	2	1	0	1073	4	1668	camera_7.bmp	glasses_13.bmp	camera_7.bmp	camera_6.bmp	camera_4.bmp	camera_9.bmp	glasses_13.bmp	28	2	1	1	1	LEHRAMTSSTUDENT
FAUST_1[2014-06]	121	2	13	6	3	2	2	1	1	1	1294	2	2	1	1204	4	1076	abacus_15.bmp	abacus_7.bmp	abacus_6.bmp	abacus_15.bmp	abacus_4.bmp	abacus_15.bmp	iceskates_14.bmp	28	2	1	1	1	LEHRAMTSSTUDENT
FAUST_1[2014-06]	121	2	8	6	3	1	1	1	2	0	993	2	2	1	1321	2	1246	vase_15.bmp	rollerskates_5.bmp	rollerskates_17.bmp	rollerskates_7.bmp	rollerskates_17.bmp	vase_15.bmp	rollerskates_8.bmp	28	2	1	1	1	LEHRAMTSSTUDENT
FAUST_1[2014-06]	121	2	12	6	3	2	1	1	1	1	910	2	2	1	1164	4	1383	skateboard_11.bmp	skateboard_11.bmp	printer_14.bmp	printer_16.bmp	skateboard_11.bmp	printer_1.bmp	printer_3.bmp	28	2	1	1	1	LEHRAMTSSTUDENT
FAUST_1[2014-06]	121	2	11	6	3	1	2	1	1	1	968	2	2	1	1688	3	1799	router_12.bmp	saltpeppershake_9.bmp	router_5.bmp	router_7.bmp	router_12.bmp	router_6.bmp	saltpeppershake_9.bmp	28	2	1	1	1	LEHRAMTSSTUDENT
FAUST_1[2014-06]	121	2	27	6	3	2	2	1	1	1	1296	1	1	1	1694	4	994	trophy_14.bmp	trophy_6.bmp	trophy_14.bmp	trunk_2.bmp	trophy_14.bmp	trophy_15.bmp	trophy_4.bmp	28	2	1	1	1	LEHRAMTSSTUDENT
FAUST_1[2014-06]	121	2	9	6	3	1	1	1	1	1	1386	1	1	1	2624	3	1201	cake_1.bmp	saddle_5.bmp	saddle_3.bmp	saddle_8.bmp	cake_1.bmp	saddle_15.bmp	saddle_5.bmp	28	2	1	1	1	LEHRAMTSSTUDENT
FAUST_1[2014-06]	121	2	19	6	3	2	1	1	1	1	731	2	1	0	624	4	1685	ring_7.bmp	ring_7.bmp	speaker_15.bmp	ring_7.bmp	speaker_6.bmp	speaker_4.bmp	speaker_10.bmp	28	2	1	1	1	LEHRAMTSSTUDENT
FAUST_1[2014-06]	121	2	30	6	3	1	2	1	1	1	754	1	1	1	1275	4	1456	parfait_1.bmp	parfait_4.bmp	doorknob_2.bmp	parfait_11.bmp	parfait_1.bmp	doorknob_2.bmp	parfait_13.bmp	28	2	1	1	1	LEHRAMTSSTUDENT
FAUST_1[2014-06]	121	2	22	6	3	2	2	1	1	1	2785	2	1	0	2109	2	1463	circuitboard_13.bmp	circuitboard_2.bmp	windchime_10.bmp	circuitboard_13.bmp	circuitboard_4.bmp	circuitboard_16.bmp	circuitboard_13.bmp	28	2	1	1	1	LEHRAMTSSTUDENT
FAUST_1[2014-06]	121	2	18	6	3	1	1	2	2	1	694	2	2	1	893	3	1162	leatherman_7.bmp	birdhouse_6.bmp	birdhouse_9.bmp	leatherman_5.bmp	birdhouse_14.bmp	birdhouse_6.bmp	birdhouse_7.bmp	28	2	1	1	1	LEHRAMTSSTUDENT
FAUST_1[2014-06]	121	2	1	6	3	2	1	2	2	1	975	1	1	1	1852	3	1655	easteregg_16.bmp	easteregg_5.bmp	powerstrip_10.bmp	powerstrip_8.bmp	easteregg_5.bmp	powerstrip_13.bmp	powerstrip_7.bmp	28	2	1	1	1	LEHRAMTSSTUDENT
FAUST_1[2014-06]	121	2	31	6	3	1	2	2	1	0	944	1	1	1	1038	3	1063	sink_6.bmp	watergun_3.bmp	sink_10.bmp	sink_11.bmp	sink_1.bmp	sink_15.bmp	watergun_3.bmp	28	2	1	1	1	LEHRAMTSSTUDENT
FAUST_1[2014-06]	121	2	24	6	3	2	2	2	1	0	2234	1	2	0	1820	3	947	glove_5.bmp	glove_10.bmp	glove_8.bmp	garbagecan_2.bmp	glove_12.bmp	glove_15.bmp	glove_12.bmp	28	2	1	1	1	LEHRAMTSSTUDENT
FAUST_1[2014-06]	121	2	7	6	3	1	1	2	2	1	967	2	2	1	1547	3	1320	plant_13.bmp	carriage_9.bmp	plant_14.bmp	carriage_14.bmp	carriage_9.bmp	carriage_12.bmp	carriage_2.bmp	28	2	1	1	1	LEHRAMTSSTUDENT
FAUST_1[2014-06]	121	2	10	6	3	2	1	2	1	0	1102	2	2	1	2007	3	1490	babycrib_6.bmp	babycrib_2.bmp	cherubstatue_5.bmp	cherubstatue_12.bmp	babycrib_2.bmp	cherubstatue_10.bmp	cherubstatue_11.bmp	28	2	1	1	1	LEHRAMTSSTUDENT
FAUST_1[2014-06]	121	2	6	6	3	1	2	2	2	1	1383	1	2	0	1254	2	1402	shoe_9.bmp	bagel_16.bmp	shoe_7.bmp	shoe_13.bmp	shoe_17.bmp	bagel_16.bmp	shoe_15.bmp	28	2	1	1	1	LEHRAMTSSTUDENT
FAUST_1[2014-06]	121	2	3	6	3	2	2	2	1	0	1325	2	2	1	1376	4	1187	watch_8.bmp	watch_7.bmp	watch_14.bmp	watch_3.bmp	watch_6.bmp	watch_14.bmp	flashlight_2.bmp	28	2	1	1	1	LEHRAMTSSTUDENT
FAUST_1[2014-06]	121	2	29	6	3	1	1	2	2	1	1411	1	1	1	1074	2	1016	doorknocker_2.bmp	chair_5.bmp	chair_16.bmp	chair_2.bmp	chair_3.bmp	doorknocker_5.bmp	chair_3.bmp	28	2	1	1	1	LEHRAMTSSTUDENT
FAUST_1[2014-06]	121	2	2	6	3	2	1	2	2	1	1910	2	2	1	1155	2	1596	backpack_12.bmp	cellphone_4.bmp	backpack_13.bmp	cellphone_8.bmp	cellphone_12.bmp	cellphone_3.bmp	backpack_13.bmp	28	2	1	1	1	LEHRAMTSSTUDENT
FAUST_1[2014-06]	121	2	17	6	3	1	2	2	1	0	963	2	2	1	1944	4	1440	pasta_15.bmp	guitar_7.bmp	pasta_13.bmp	guitar_7.bmp	pasta_11.bmp	pasta_9.bmp	pasta_10.bmp	28	2	1	1	1	LEHRAMTSSTUDENT
FAUST_1[2014-06]	121	2	25	6	3	2	2	2	1	0	720	1	1	1	1354	4	1543	turtle_7.bmp	turtle_2.bmp	turtle_6.bmp	turtle_12.bmp	turtle_11.bmp	turtle_2.bmp	highchair_15.bmp	28	2	1	1	1	LEHRAMTSSTUDENT
FAUST_1[2014-06]	121	2	21	6	3	1	1	3	1	0	1237	2	1	0	1027	3	1165	fan_15.bmp	rusdoll_5.bmp	rusdoll_6.bmp	rusdoll_1.bmp	scooter_4.bmp	rusdoll_6.bmp	rusdoll_8.bmp	28	2	1	1	1	LEHRAMTSSTUDENT
FAUST_1[2014-06]	121	2	14	6	3	2	1	3	2	1	844	1	1	1	1350	4	1492	beanbagchair_12.bmp	goggle_3.bmp	goggle_4.bmp	goggle_13.bmp	hairbrush_17.bmp	goggle_1.bmp	hairbrush_17.bmp	28	2	1	1	1	LEHRAMTSSTUDENT
FAUST_1[2014-06]	121	2	26	6	3	1	1	3	2	1	1085	1	1	1	1875	3	883	mic_2.bmp	orifan_17.bmp	orifan_7.bmp	orifan_1.bmp	bowlingpin_11.bmp	orifan_14.bmp	orifan_1.bmp	28	2	1	1	1	LEHRAMTSSTUDENT
FAUST_1[2014-06]	121	2	28	6	3	2	1	3	2	1	805	1	1	1	1055	4	1388	lawnmower_15.bmp	laptop_10.bmp	remote_14.bmp	laptop_10.bmp	remote_11.bmp	remote_2.bmp	remote_13.bmp	28	2	1	1	1	LEHRAMTSSTUDENT
FAUST_1[2014-06]	121	2	5	6	3	1	1	3	2	1	772	2	2	1	1503	4	1279	cat_5.bmp	horseshoe_4.bmp	jacket_11.bmp	horseshoe_4.bmp	horseshoe_6.bmp	horseshoe_5.bmp	horseshoe_12.bmp	28	2	1	1	1	LEHRAMTSSTUDENT
FAUST_1[2014-06]	121	2	15	6	3	2	1	3	2	1	1039	1	1	1	1114	3	1494	coffee_1.bmp	videogamecontroller_2.bmp	videogamecontroller_11.bmp	videogamecontroller_5.bmp	shredder_6.bmp	videogamecontroller_3.bmp	shredder_6.bmp	28	2	1	1	1	LEHRAMTSSTUDENT
FAUST_1[2014-06]	121	2	4	6	3	1	1	3	2	1	1290	2	2	1	1426	2	1453	hammer_17.bmp	socks_12.bmp	trumpet_1.bmp	trumpet_6.bmp	trumpet_17.bmp	trumpet_3.bmp	trumpet_17.bmp	28	2	1	1	1	LEHRAMTSSTUDENT
FAUST_1[2014-06]	121	2	32	6	3	2	1	3	2	1	935	2	2	1	952	3	1192	hairdryer_13.bmp	tv_16.bmp	tv_4.bmp	tv_7.bmp	wig_6.bmp	tv_5.bmp	wig_6.bmp	28	2	1	1	1	LEHRAMTSSTUDENT
FAUST_1[2014-06]	121	3	18	6	1	1	1	1	1	1	1262	1	1	1	1419	3	1170	RÜCKSPIEGEL	schreiben	lesen	basteln	lesen	malen	rückspiegel	28	2	1	1	1	LEHRAMTSSTUDENT
FAUST_1[2014-06]	121	3	1	6	1	2	1	1	1	1	1289	2	2	1	1190	4	1448	SYNAGOGE	synagoge	fink	amsel	synagoge	taube	meise	28	2	1	1	1	LEHRAMTSSTUDENT
FAUST_1[2014-06]	121	3	4	6	1	1	2	1	1	1	1785	2	2	1	922	3	1064	GRIPPE	zange	röteln	mumps	grippe	zange	windpocken	28	2	1	1	1	LEHRAMTSSTUDENT
FAUST_1[2014-06]	121	3	26	6	1	2	2	1	1	1	1518	1	1	1	897	4	1056	KUGELSCHREIBER	kugelschreiber	mozart	bleistift	füller	kugelschreiber	filzstift	28	2	1	1	1	LEHRAMTSSTUDENT
FAUST_1[2014-06]	121	3	9	6	1	1	1	1	2	0	1037	2	2	1	966	3	1530	LÖFFEL	flanell	seide	wolle	löffel	baumwolle	wolle	28	2	1	1	1	LEHRAMTSSTUDENT
FAUST_1[2014-06]	121	3	17	6	1	2	1	1	2	0	933	2	2	1	918	2	2761	KAMERA	kamera	yacht	kamera	fähre	kanu	schiff	28	2	1	1	1	LEHRAMTSSTUDENT
FAUST_1[2014-06]	121	3	32	6	1	1	2	1	1	1	809	1	2	0	1739	4	1217	SONNENSCHEIN	rouge	schnee	regen	rouge	sonnenschein	hagel	28	2	1	1	1	LEHRAMTSSTUDENT
FAUST_1[2014-06]	121	3	30	6	1	2	2	1	1	1	1116	2	2	1	1370	4	1076	SPINAT	karotten	fuß	spinat	tomaten	spinat	blumenkohl	28	2	1	1	1	LEHRAMTSSTUDENT
FAUST_1[2014-06]	121	3	24	6	1	1	1	1	1	1	991	2	2	1	1336	4	1609	LEBER	berlin	stuttgart	hamburg	münchen	leber	berlin	28	2	1	1	1	LEHRAMTSSTUDENT
FAUST_1[2014-06]	121	3	27	6	1	2	1	1	1	1	1371	1	1	1	1123	4	1115	JUNGFRAU	jungfrau	hose	jacke	jungfrau	bluse	hemd	28	2	1	1	1	LEHRAMTSSTUDENT
FAUST_1[2014-06]	121	3	5	6	1	1	2	1	2	0	1244	2	2	1	1292	3	1769	GELB	gelb	lila	grün	italien	blau	italien	28	2	1	1	1	LEHRAMTSSTUDENT
FAUST_1[2014-06]	121	3	31	6	1	2	2	1	1	1	1459	1	1	1	1333	4	1338	PORSCHE	nordamerika	audi	peugeot	porsche	mercedes	porsche	28	2	1	1	1	LEHRAMTSSTUDENT
FAUST_1[2014-06]	121	3	14	6	1	1	1	2	2	1	772	2	2	1	1484	3	2042	GYMNASIUM	weser	donau	elbe	berufsschule	weser	rhein	28	2	1	1	1	LEHRAMTSSTUDENT
FAUST_1[2014-06]	121	3	29	6	1	2	1	2	2	1	913	2	2	1	910	3	1542	GLAS	flasche	roggen	gerste	flasche	weizen	dinkel	28	2	1	1	1	LEHRAMTSSTUDENT
FAUST_1[2014-06]	121	3	2	6	1	1	2	2	2	1	857	2	2	1	1547	3	1239	KONZERTSAAL	zirkus	oper	lehrer	kino	lehrer	theater	28	2	1	1	1	LEHRAMTSSTUDENT
FAUST_1[2014-06]	121	3	11	6	1	2	2	2	2	1	787	2	2	1	1312	3	1648	NOMEN	adjektiv	verb	adverb	präposition	verb	zeitung	28	2	1	1	1	LEHRAMTSSTUDENT
FAUST_1[2014-06]	121	3	12	6	1	1	1	2	2	1	1015	2	2	1	1242	1	1504	DACKEL	stickstoff	sauerstoff	dogge	helium	kohlenstoff	helium	28	2	1	1	1	LEHRAMTSSTUDENT
FAUST_1[2014-06]	121	3	6	6	1	2	1	2	2	1	995	2	2	1	1127	3	1732	SATURN	meter	venus	meile	millimeter	zentimeter	venus	28	2	1	1	1	LEHRAMTSSTUDENT
FAUST_1[2014-06]	121	3	20	6	1	1	2	2	1	0	1258	1	1	1	767	4	1007	BIRNE	apfel	pflaume	majoran	erdbeere	majoran	banane	28	2	1	1	1	LEHRAMTSSTUDENT
FAUST_1[2014-06]	121	3	28	6	1	2	2	2	1	0	2673	1	1	1	2390	3	1095	VIERECK	rechteck	quadrat	halma	dreieck	quadrat	kreis	28	2	1	1	1	LEHRAMTSSTUDENT
FAUST_1[2014-06]	121	3	16	6	1	1	1	2	1	0	1834	2	2	1	996	3	1091	JAHR	sofa	sekunde	tisch	stuhl	sofa	schrank	28	2	1	1	1	LEHRAMTSSTUDENT
FAUST_1[2014-06]	121	3	15	6	1	2	1	2	2	1	712	1	1	1	969	3	1413	TEICH	ozean	ameise	hummel	wespe	ozean	mücke	28	2	1	1	1	LEHRAMTSSTUDENT
FAUST_1[2014-06]	121	3	25	6	1	1	2	2	1	0	1624	2	2	1	1757	2	1269	FÜRST	rumba	graf	kaiser	könig	rumba	herzog	28	2	1	1	1	LEHRAMTSSTUDENT
FAUST_1[2014-06]	121	3	7	6	1	2	2	2	2	1	1153	1	1	1	2917	3	1123	MATHEMATIK	erdkunde	biologie	stecknadel	biologie	physik	chemie	28	2	1	1	1	LEHRAMTSSTUDENT
FAUST_1[2014-06]	121	3	10	6	1	1	1	3	2	1	1151	2	2	1	2246	4	1002	GEPARD	schwimmen	golf	fußball	locher	skifahren	schwimmen	28	2	1	1	1	LEHRAMTSSTUDENT
FAUST_1[2014-06]	121	3	3	6	1	2	1	3	2	1	737	2	2	1	840	4	1552	PFANNENWENDER	cent	klarinette	cent	trompete	flöte	oboe	28	2	1	1	1	LEHRAMTSSTUDENT
FAUST_1[2014-06]	121	3	13	6	1	1	1	3	2	1	1007	2	2	1	1590	3	2522	LACHS	rose	veilchen	lilie	nelke	saarland	lilie	28	2	1	1	1	LEHRAMTSSTUDENT
FAUST_1[2014-06]	121	3	19	6	1	2	1	3	1	0	1652	1	1	1	1878	3	1157	SOHN	bronze	opium	silber	opium	messing	eisen	28	2	1	1	1	LEHRAMTSSTUDENT
FAUST_1[2014-06]	121	3	8	6	1	1	1	3	2	1	1127	1	1	1	1738	4	997	HAMBURGER	gin	wodka	bombe	gin	rum	whiskey	28	2	1	1	1	LEHRAMTSSTUDENT
FAUST_1[2014-06]	121	3	21	6	1	2	1	3	2	1	909	2	2	1	1649	3	1125	SCHUPPEN	weide	kerosin	eiche	tanne	kerosin	birke	28	2	1	1	1	LEHRAMTSSTUDENT
FAUST_1[2014-06]	121	3	23	6	1	1	1	3	2	1	1964	2	1	0	852	4	1810	KOMÖDIE	fühlen	hören	riechen	fühlen	schmecken	bus	28	2	1	1	1	LEHRAMTSSTUDENT
FAUST_1[2014-06]	121	3	22	6	1	2	1	3	2	1	976	2	2	1	804	2	1450	VAMPIR	karamell	ärger	angst	freude	karamell	scham	28	2	1	1	1	LEHRAMTSSTUDENT
FAUST_1[2014-06]	121	4	6	6	2	1	1	1	1	1	1183	2	2	1	977	4	1589	Bun5.bmp	Glass3.bmp	Glass4.bmp	Glass12.bmp	Bun5.bmp	Glass12.bmp	Glass19.bmp	28	2	1	1	1	LEHRAMTSSTUDENT
FAUST_1[2014-06]	121	4	20	6	2	2	1	1	1	1	661	1	1	1	1680	4	1252	Swirl23.bmp	Swirl23.bmp	Car12.bmp	Swirl23.bmp	Car7.bmp	Car13.bmp	Car14.bmp	28	2	1	1	1	LEHRAMTSSTUDENT
FAUST_1[2014-06]	121	4	21	6	2	1	2	1	1	1	1914	2	2	1	792	2	646	Flower17.bmp	Tomato18.bmp	Flower3.bmp	Flower17.bmp	Flower13.bmp	Flower14.bmp	Tomato18.bmp	28	2	1	1	1	LEHRAMTSSTUDENT
FAUST_1[2014-06]	121	4	15	6	2	2	2	1	1	1	887	1	1	1	792	4	1054	Button10.bmp	Button10.bmp	Button18.bmp	Button10.bmp	Scissors14.bmp	Button3.bmp	Button20.bmp	28	2	1	1	1	LEHRAMTSSTUDENT
FAUST_1[2014-06]	121	4	3	6	2	1	1	1	1	1	884	2	2	1	663	4	1337	Shell5.bmp	Holly3.bmp	Shell5.bmp	Holly14.bmp	Holly17.bmp	Holly11.bmp	Holly17.bmp	28	2	1	1	1	LEHRAMTSSTUDENT
FAUST_1[2014-06]	121	4	9	6	2	2	1	1	2	0	902	2	2	1	1256	4	1043	Ginger15.bmp	Ginger15.bmp	Varnish11.bmp	Varnish3.bmp	Varnish14.bmp	Ginger15.bmp	Varnish5.bmp	28	2	1	1	1	LEHRAMTSSTUDENT
FAUST_1[2014-06]	121	4	17	6	2	1	2	1	1	1	691	2	2	1	1457	4	1187	Leaf13.bmp	Leaf15.bmp	Leaf10.bmp	Screw13.bmp	Leaf22.bmp	Screw13.bmp	Leaf13.bmp	28	2	1	1	1	LEHRAMTSSTUDENT
FAUST_1[2014-06]	121	4	16	6	2	2	2	1	1	1	658	2	2	1	877	4	933	Fudge20.bmp	Fudge20.bmp	Fudge8.bmp	Fudge5.bmp	Fudge15.bmp	Fudge20.bmp	Cake24.bmp	28	2	1	1	1	LEHRAMTSSTUDENT
FAUST_1[2014-06]	121	4	10	6	2	1	1	2	2	1	1059	1	1	1	1714	3	2035	Umbrella19.bmp	Feather18.bmp	Feather12.bmp	Umbrella6.bmp	Feather14.bmp	Feather2.bmp	Feather12.bmp	28	2	1	1	1	LEHRAMTSSTUDENT
FAUST_1[2014-06]	121	4	5	6	2	2	1	2	1	0	1364	2	2	1	1241	4	847	Star2.bmp	Bracelet5.bmp	Bracelet8.bmp	Bracelet1.bmp	Star19.bmp	Bracelet18.bmp	Star19.bmp	28	2	1	1	1	LEHRAMTSSTUDENT
FAUST_1[2014-06]	121	4	12	6	2	1	2	2	2	1	831	2	1	0	1163	2	1586	Fork7.bmp	Key11.bmp	Fork17.bmp	Fork9.bmp	Fork14.bmp	Fork8.bmp	Key11.bmp	28	2	1	1	1	LEHRAMTSSTUDENT
FAUST_1[2014-06]	121	4	7	6	2	2	2	2	1	0	1374	2	2	1	778	4	1021	Daff22.bmp	Daff9.bmp	Daff1.bmp	Daff3.bmp	Jigsaw11.bmp	Daff21.bmp	Daff3.bmp	28	2	1	1	1	LEHRAMTSSTUDENT
FAUST_1[2014-06]	121	4	13	6	2	1	1	2	1	0	844	1	1	1	915	3	964	Onion13.bmp	String2.bmp	String12.bmp	String8.bmp	Onion19.bmp	String8.bmp	String6.bmp	28	2	1	1	1	LEHRAMTSSTUDENT
FAUST_1[2014-06]	121	4	4	6	2	2	1	2	1	0	1702	1	1	1	932	3	1344	Stapler6.bmp	Brocolli14.bmp	Stapler10.bmp	Brocolli9.bmp	Brocolli19.bmp	Stapler10.bmp	Brocolli10.bmp	28	2	1	1	1	LEHRAMTSSTUDENT
FAUST_1[2014-06]	121	4	19	6	2	1	2	2	1	0	2041	2	2	1	1212	4	824	Candle20.bmp	Candle13.bmp	Candle17.bmp	Keys7.bmp	Candle1.bmp	Keys7.bmp	Candle10.bmp	28	2	1	1	1	LEHRAMTSSTUDENT
FAUST_1[2014-06]	121	4	2	6	2	2	2	2	1	0	1040	2	2	1	1590	3	1041	Plug9.bmp	Plug4.bmp	Plug18.bmp	Pen20.bmp	Plug6.bmp	Plug8.bmp	Plug4.bmp	28	2	1	1	1	LEHRAMTSSTUDENT
FAUST_1[2014-06]	121	4	14	6	2	1	1	3	1	0	887	2	2	1	974	3	2010	Mushroom14.bmp	Hanger14.bmp	Hanger7.bmp	Biscuit4.bmp	Hanger2.bmp	Hanger15.bmp	Hanger7.bmp	28	2	1	1	1	LEHRAMTSSTUDENT
FAUST_1[2014-06]	121	4	8	6	2	2	1	3	2	1	922	2	1	0	902	3	1752	Nut18.bmp	Apple21.bmp	Apple5.bmp	Apple18.bmp	Sweet25.bmp	Apple24.bmp	Sweet25.bmp	28	2	1	1	1	LEHRAMTSSTUDENT
FAUST_1[2014-06]	121	4	11	6	2	1	1	3	2	1	898	1	1	1	1808	2	867	Strawberry21.bmp	Hand1.bmp	Hand8.bmp	Hand17.bmp	Hand8.bmp	Hand10.bmp	Paperclip4.bmp	28	2	1	1	1	LEHRAMTSSTUDENT
FAUST_1[2014-06]	121	4	1	6	2	2	1	3	2	1	1583	1	1	1	1087	3	1053	Pear15.bmp	Bag21.bmp	Lipstick9.bmp	Bag3.bmp	Bag4.bmp	Lipstick9.bmp	Bag25.bmp	28	2	1	1	1	LEHRAMTSSTUDENT
FAUST_1[2014-06]	121	4	18	6	2	1	1	3	2	1	765	2	2	1	2031	4	1279	Chilli14.bmp	Chocolate17.bmp	Toothbrush10.bmp	Toothbrush1.bmp	Toothbrush10.bmp	Toothbrush9.bmp	Toothbrush12.bmp	28	2	1	1	1	LEHRAMTSSTUDENT
FAUST_1[2014-06]	121	4	22	6	2	2	1	3	2	1	744	2	1	0	1539	4	1170	Coins3.bmp	Man4.bmp	Present3.bmp	Man4.bmp	Present2.bmp	Present17.bmp	Present14.bmp	28	2	1	1	1	LEHRAMTSSTUDENT
