experiment	subject	block	trial	order	material	repeated	related	probetype	response	correct	rt	math_response	math_correctresponse	math_correct	math_rt	confidence	confidence_rt	probe	item1	item2	item3	item4	item5	item6	age	sex	handedness	color_vision	mother_tongue	occupation
FAUST_1[2014-06]	122	1	7	2	1	1	1	1	1	1	4796	2	2	1	2456	3	1461	DREIECK	oper	kino	zirkus	konzertsaal	dreieck	konzertsaal	61	1	1	1	2	GESCHICHTES
FAUST_1[2014-06]	122	1	16	2	1	2	1	1	1	1	2346	2	2	1	1187	3	1476	TEMPEL	teelöffel	tempel	löffel	brotmesser	tempel	gabel	61	1	1	1	2	GESCHICHTES
FAUST_1[2014-06]	122	1	15	2	1	1	2	1	1	1	2910	1	1	1	2167	3	1772	AFRIKA	richter	nordamerika	afrika	südamerika	australien	richter	61	1	1	1	2	GESCHICHTES
FAUST_1[2014-06]	122	1	28	2	1	2	2	1	2	0	2130	1	2	0	2825	3	1303	SCHACH	schach	backgammon	schach	monopoly	halma	komödie	61	1	1	1	2	GESCHICHTES
FAUST_1[2014-06]	122	1	10	2	1	1	1	1	1	1	2060	-1	2	0	0	3	1302	FÄHRE	cannabis	fähre	heroin	haschisch	heroin	kokain	61	1	1	1	2	GESCHICHTES
FAUST_1[2014-06]	122	1	11	2	1	2	1	1	1	1	2427	-1	2	0	0	3	1878	TOMATEN	tomaten	dänemark	england	österreich	tomaten	schweiz	61	1	1	1	2	GESCHICHTES
FAUST_1[2014-06]	122	1	14	2	1	1	2	1	2	0	2972	2	2	1	1997	3	1674	LILA	lila	baracke	gelb	blau	baracke	rot	61	1	1	1	2	GESCHICHTES
FAUST_1[2014-06]	122	1	25	2	1	2	2	1	1	1	684	-1	2	0	0	3	2750	LIDSCHATTEN	wimperntusche	rouge	kajal	lidschatten	handbremse	lidschatten	61	1	1	1	2	GESCHICHTES
FAUST_1[2014-06]	122	1	8	2	1	1	1	1	1	1	2814	2	2	1	1947	3	1802	SCHNEE	becher	schnee	becher	flasche	glas	karaffe	61	1	1	1	2	GESCHICHTES
FAUST_1[2014-06]	122	1	12	2	1	2	1	1	1	1	1449	2	2	1	1516	3	2176	ONKEL	onkel	jacke	bluse	rock	onkel	hemd	61	1	1	1	2	GESCHICHTES
FAUST_1[2014-06]	122	1	26	2	1	1	2	1	1	1	1583	-1	1	0	0	4	2725	MOZART	mozart	klarinette	vivaldi	brahms	chopin	klarinette	61	1	1	1	2	GESCHICHTES
FAUST_1[2014-06]	122	1	22	2	1	2	2	1	1	1	33	2	1	0	1941	3	3520	ZEICHNEN	realschule	zeichnen	malen	zeichnen	lesen	basteln	61	1	1	1	2	GESCHICHTES
FAUST_1[2014-06]	122	1	17	2	1	1	1	2	1	0	1659	1	1	1	2364	3	1327	ÄRGER	gin	whiskey	angst	gin	tequila	wodka	61	1	1	1	2	GESCHICHTES
FAUST_1[2014-06]	122	1	4	2	1	2	1	2	1	0	837	-1	1	0	0	3	2696	KÜCHENWAAGE	kerosin	bleifrei	backblech	diesel	petroleum	backblech	61	1	1	1	2	GESCHICHTES
FAUST_1[2014-06]	122	1	24	2	1	1	2	2	1	0	3037	2	2	1	3364	3	966	RIECHEN	hören	hammer	schmecken	sehen	fühlen	hammer	61	1	1	1	2	GESCHICHTES
FAUST_1[2014-06]	122	1	6	2	1	2	2	2	1	0	3654	2	2	1	1849	3	2396	AMEISE	hummel	biene	saturn	wespe	hummel	mücke	61	1	1	1	2	GESCHICHTES
FAUST_1[2014-06]	122	1	3	2	1	1	1	2	1	0	4606	1	1	1	2385	3	2200	ROSMARIN	dogge	koriander	mops	schäferhund	terrier	mops	61	1	1	1	2	GESCHICHTES
FAUST_1[2014-06]	122	1	5	2	1	2	1	2	1	0	1717	2	2	1	2521	3	1989	HAND	zentimeter	arm	kilometer	meile	meter	arm	61	1	1	1	2	GESCHICHTES
FAUST_1[2014-06]	122	1	29	2	1	1	2	2	1	0	1689	2	2	1	3241	3	1560	VERB	adjektiv	kugelschreiber	präposition	nomen	kugelschreiber	adverb	61	1	1	1	2	GESCHICHTES
FAUST_1[2014-06]	122	1	20	2	1	2	2	2	2	1	1843	-1	2	0	0	4	2421	VOLVO	mercedes	internet	mercedes	porsche	peugeot	audi	61	1	1	1	2	GESCHICHTES
FAUST_1[2014-06]	122	1	2	2	1	1	1	2	1	0	2582	1	1	1	3431	3	1745	PFLAUME	eisen	silber	messing	gold	silber	birne	61	1	1	1	2	GESCHICHTES
FAUST_1[2014-06]	122	1	19	2	1	2	1	2	1	0	1889	2	2	1	1845	3	1522	MINUTE	sekunde	hannover	sekunde	münchen	hamburg	berlin	61	1	1	1	2	GESCHICHTES
FAUST_1[2014-06]	122	1	21	2	1	1	2	2	1	0	3562	-1	2	0	0	3	1173	RÖTELN	physik	windpocken	grippe	physik	mumps	masern	61	1	1	1	2	GESCHICHTES
FAUST_1[2014-06]	122	1	32	2	1	2	2	2	1	0	1449	1	1	1	1266	3	2145	NELKE	tulpe	lilie	rose	veilchen	lilie	mark	61	1	1	1	2	GESCHICHTES
FAUST_1[2014-06]	122	1	27	2	1	1	1	3	1	0	3005	2	2	1	2765	4	1715	BUS	pistole	dolch	kohlenstoff	bombe	gewehr	bombe	61	1	1	1	2	GESCHICHTES
FAUST_1[2014-06]	122	1	23	2	1	2	1	3	2	1	7577	2	2	1	3358	4	2005	BRIEFÖFFNER	golf	steinbock	schwimmen	skifahren	tennis	steinbock	61	1	1	1	2	GESCHICHTES
FAUST_1[2014-06]	122	1	9	2	1	1	1	3	2	1	2498	-1	2	0	0	3	2587	REGAL	herz	magen	leber	magen	karamell	lunge	61	1	1	1	2	GESCHICHTES
FAUST_1[2014-06]	122	1	1	2	1	2	1	3	2	1	3635	1	1	1	2558	4	2230	PIZZA	panther	computer	tiger	gepard	computer	leopard	61	1	1	1	2	GESCHICHTES
FAUST_1[2014-06]	122	1	13	2	1	1	1	3	1	0	2421	2	2	1	1358	3	1702	TEICH	hering	forelle	makrele	herzog	makrele	lachs	61	1	1	1	2	GESCHICHTES
FAUST_1[2014-06]	122	1	18	2	1	2	1	3	2	1	3105	2	2	1	1471	3	1404	WERWOLF	chachacha	elbe	foxtrott	elbe	rumba	walzer	61	1	1	1	2	GESCHICHTES
FAUST_1[2014-06]	122	1	31	2	1	1	1	3	1	0	1475	1	1	1	2550	3	1298	TAUBE	wolle	flanell	leinen	wolle	seide	hessen	61	1	1	1	2	GESCHICHTES
FAUST_1[2014-06]	122	1	30	2	1	2	1	3	1	0	1575	-1	1	0	0	3	1125	WEIDE	hafer	dinkel	nähnadel	weizen	roggen	nähnadel	61	1	1	1	2	GESCHICHTES
FAUST_1[2014-06]	122	2	21	2	3	1	1	1	2	0	1511	1	1	1	3034	4	1618	orifan_17.bmp	trunk_5.bmp	trunk_1.bmp	trunk_7.bmp	orifan_17.bmp	trunk_2.bmp	trunk_7.bmp	61	1	1	1	2	GESCHICHTES
FAUST_1[2014-06]	122	2	19	2	3	2	1	1	2	0	1943	-1	2	0	0	4	1607	coffee_7.bmp	coffee_7.bmp	birdhouse_6.bmp	birdhouse_7.bmp	birdhouse_11.bmp	coffee_7.bmp	birdhouse_9.bmp	61	1	1	1	2	GESCHICHTES
FAUST_1[2014-06]	122	2	26	2	3	1	2	1	1	1	974	1	1	1	2473	3	1660	videogamecontroller_13.bmp	videogamecontroller_5.bmp	videogamecontroller_11.bmp	videogamecontroller_3.bmp	pasta_9.bmp	videogamecontroller_13.bmp	pasta_9.bmp	61	1	1	1	2	GESCHICHTES
FAUST_1[2014-06]	122	2	22	2	3	2	2	1	2	0	99	-1	1	0	0	4	2949	circuitboard_16.bmp	circuitboard_2.bmp	circuitboard_13.bmp	circuitboard_16.bmp	circuitboard_8.bmp	circuitboard_16.bmp	sofa_13.bmp	61	1	1	1	2	GESCHICHTES
FAUST_1[2014-06]	122	2	17	2	3	1	1	1	1	1	1352	2	2	1	3143	4	1658	garbagecan_13.bmp	highchair_3.bmp	garbagecan_13.bmp	highchair_3.bmp	highchair_10.bmp	highchair_15.bmp	highchair_6.bmp	61	1	1	1	2	GESCHICHTES
FAUST_1[2014-06]	122	2	2	2	3	2	1	1	1	1	2325	1	1	1	2103	4	2261	turtle_12.bmp	turtle_12.bmp	easteregg_5.bmp	easteregg_9.bmp	easteregg_14.bmp	easteregg_17.bmp	turtle_12.bmp	61	1	1	1	2	GESCHICHTES
FAUST_1[2014-06]	122	2	23	2	3	1	2	1	2	0	2735	1	1	1	2389	3	1695	babycrib_2.bmp	babycrib_5.bmp	babycrib_6.bmp	cheesegrater_5.bmp	babycrib_9.bmp	babycrib_2.bmp	cheesegrater_5.bmp	61	1	1	1	2	GESCHICHTES
FAUST_1[2014-06]	122	2	28	2	3	2	2	1	1	1	935	-1	2	0	0	4	1640	trophy_14.bmp	trophy_14.bmp	trophy_6.bmp	trophy_14.bmp	trophy_15.bmp	trophy_4.bmp	horseshoe_3.bmp	61	1	1	1	2	GESCHICHTES
FAUST_1[2014-06]	122	2	3	2	3	1	1	1	1	1	1475	2	1	0	1803	4	2371	cake_4.bmp	powerstrip_10.bmp	powerstrip_13.bmp	cake_4.bmp	powerstrip_7.bmp	powerstrip_8.bmp	powerstrip_7.bmp	61	1	1	1	2	GESCHICHTES
FAUST_1[2014-06]	122	2	14	2	3	2	1	1	1	1	1079	1	1	1	2551	4	1464	jacket_6.bmp	jacket_6.bmp	doorknocker_14.bmp	doorknocker_11.bmp	doorknocker_4.bmp	doorknocker_2.bmp	jacket_6.bmp	61	1	1	1	2	GESCHICHTES
FAUST_1[2014-06]	122	2	16	2	3	1	2	1	1	1	1014	1	1	1	2641	4	1424	camera_3.bmp	camera_3.bmp	camera_7.bmp	camera_4.bmp	trumpet_6.bmp	camera_6.bmp	trumpet_6.bmp	61	1	1	1	2	GESCHICHTES
FAUST_1[2014-06]	122	2	6	2	3	2	2	1	1	1	3426	1	1	1	2820	4	1379	printer_5.bmp	printer_5.bmp	hammer_17.bmp	printer_1.bmp	printer_16.bmp	printer_5.bmp	printer_14.bmp	61	1	1	1	2	GESCHICHTES
FAUST_1[2014-06]	122	2	20	2	3	1	1	2	2	1	972	1	1	1	3138	4	1584	abacus_7.bmp	hairdryer_7.bmp	abacus_4.bmp	hairdryer_12.bmp	hairdryer_13.bmp	hairdryer_7.bmp	hairdryer_14.bmp	61	1	1	1	2	GESCHICHTES
FAUST_1[2014-06]	122	2	9	2	3	2	1	2	2	1	1582	2	2	1	2430	4	1787	windchime_15.bmp	windchime_10.bmp	rusdoll_8.bmp	rusdoll_6.bmp	rusdoll_3.bmp	windchime_10.bmp	rusdoll_5.bmp	61	1	1	1	2	GESCHICHTES
FAUST_1[2014-06]	122	2	12	2	3	1	2	2	1	0	1671	1	1	1	2686	3	1830	remote_11.bmp	remote_14.bmp	remote_2.bmp	laptop_7.bmp	remote_3.bmp	remote_13.bmp	laptop_7.bmp	61	1	1	1	2	GESCHICHTES
FAUST_1[2014-06]	122	2	29	2	3	2	2	2	2	1	2489	2	1	0	3063	3	1725	beanbagchair_12.bmp	beanbagchair_3.bmp	iceskates_5.bmp	beanbagchair_3.bmp	beanbagchair_15.bmp	beanbagchair_17.bmp	beanbagchair_14.bmp	61	1	1	1	2	GESCHICHTES
FAUST_1[2014-06]	122	2	10	2	3	1	1	2	2	1	1708	2	2	1	1988	4	1598	tv_16.bmp	goggle_4.bmp	goggle_9.bmp	goggle_1.bmp	goggle_3.bmp	tv_7.bmp	goggle_1.bmp	61	1	1	1	2	GESCHICHTES
FAUST_1[2014-06]	122	2	5	2	3	2	1	2	2	1	209	-1	2	0	0	2	7361	tricycle_5.bmp	tricycle_8.bmp	hairbrush_7.bmp	hairbrush_15.bmp	hairbrush_17.bmp	tricycle_8.bmp	hairbrush_12.bmp	61	1	1	1	2	GESCHICHTES
FAUST_1[2014-06]	122	2	8	2	3	1	2	2	1	0	1900	1	1	1	2804	4	2113	mic_12.bmp	mic_10.bmp	mic_5.bmp	plant_5.bmp	mic_3.bmp	mic_2.bmp	plant_5.bmp	61	1	1	1	2	GESCHICHTES
FAUST_1[2014-06]	122	2	25	2	3	2	2	2	1	0	1454	2	1	0	2066	3	1364	backpack_12.bmp	backpack_16.bmp	backpack_10.bmp	lawnmower_17.bmp	backpack_6.bmp	backpack_10.bmp	backpack_13.bmp	61	1	1	1	2	GESCHICHTES
FAUST_1[2014-06]	122	2	11	2	3	1	1	2	2	1	1928	2	2	1	2846	3	1949	wig_6.bmp	bagel_12.bmp	bagel_14.bmp	wig_9.bmp	bagel_16.bmp	bagel_4.bmp	bagel_16.bmp	61	1	1	1	2	GESCHICHTES
FAUST_1[2014-06]	122	2	13	2	3	2	1	2	1	0	2714	1	1	1	2565	3	1390	cellphone_4.bmp	fan_17.bmp	cellphone_3.bmp	fan_10.bmp	cellphone_3.bmp	fan_1.bmp	fan_11.bmp	61	1	1	1	2	GESCHICHTES
FAUST_1[2014-06]	122	2	27	2	3	1	2	2	1	0	1180	2	1	0	2007	4	2088	chair_5.bmp	cat_9.bmp	chair_2.bmp	chair_16.bmp	cat_9.bmp	chair_3.bmp	chair_11.bmp	61	1	1	1	2	GESCHICHTES
FAUST_1[2014-06]	122	2	24	2	3	2	2	2	1	0	1921	1	1	1	3049	4	1600	glove_15.bmp	glove_10.bmp	glove_5.bmp	glove_12.bmp	watch_7.bmp	glove_8.bmp	glove_12.bmp	61	1	1	1	2	GESCHICHTES
FAUST_1[2014-06]	122	2	32	2	3	1	1	3	2	1	953	2	2	1	1677	4	2539	bowlingpin_13.bmp	glasses_6.bmp	glasses_13.bmp	glasses_6.bmp	glasses_9.bmp	glasses_15.bmp	sink_15.bmp	61	1	1	1	2	GESCHICHTES
FAUST_1[2014-06]	122	2	31	2	3	2	1	3	2	1	961	-1	2	0	0	4	1597	speaker_4.bmp	leatherman_10.bmp	saddle_5.bmp	leatherman_2.bmp	leatherman_5.bmp	saddle_5.bmp	leatherman_7.bmp	61	1	1	1	2	GESCHICHTES
FAUST_1[2014-06]	122	2	15	2	3	1	1	3	2	1	2753	2	2	1	3247	4	1200	rollerskates_2.bmp	flashlight_12.bmp	doorknob_10.bmp	doorknob_17.bmp	doorknob_7.bmp	doorknob_2.bmp	doorknob_17.bmp	61	1	1	1	2	GESCHICHTES
FAUST_1[2014-06]	122	2	7	2	3	2	1	3	2	1	1280	1	1	1	2830	4	1798	ring_8.bmp	carabiner_7.bmp	shredder_1.bmp	shredder_6.bmp	shredder_15.bmp	carabiner_7.bmp	shredder_7.bmp	61	1	1	1	2	GESCHICHTES
FAUST_1[2014-06]	122	2	4	2	3	1	1	3	2	1	2621	2	2	1	2781	4	2121	watergun_7.bmp	cherubstatue_6.bmp	cherubstatue_5.bmp	cherubstatue_12.bmp	skateboard_11.bmp	cherubstatue_12.bmp	cherubstatue_10.bmp	61	1	1	1	2	GESCHICHTES
FAUST_1[2014-06]	122	2	30	2	3	2	1	3	2	1	1173	2	2	1	3013	4	1896	carriage_14.bmp	vase_15.bmp	socks_10.bmp	socks_12.bmp	socks_15.bmp	vase_15.bmp	socks_13.bmp	61	1	1	1	2	GESCHICHTES
FAUST_1[2014-06]	122	2	18	2	3	1	1	3	2	1	1648	-1	2	0	0	4	1805	guitar_5.bmp	saltpeppershake_12.bmp	scooter_5.bmp	saltpeppershake_8.bmp	saltpeppershake_9.bmp	saltpeppershake_17.bmp	saltpeppershake_12.bmp	61	1	1	1	2	GESCHICHTES
FAUST_1[2014-06]	122	2	1	2	3	2	1	3	2	1	3596	-1	1	0	0	4	2907	router_5.bmp	shoe_17.bmp	shoe_15.bmp	parfait_11.bmp	shoe_9.bmp	parfait_11.bmp	shoe_13.bmp	61	1	1	1	2	GESCHICHTES
FAUST_1[2014-06]	122	3	1	2	2	1	1	1	1	1	220	2	1	0	3279	4	2165	Key5.bmp	Feather18.bmp	Feather2.bmp	Feather18.bmp	Key5.bmp	Feather11.bmp	Feather14.bmp	61	1	1	1	2	GESCHICHTES
FAUST_1[2014-06]	122	3	21	2	2	2	1	1	1	1	1134	2	2	1	2366	4	1426	Lipstick2.bmp	Lipstick2.bmp	Ginger5.bmp	Ginger3.bmp	Lipstick2.bmp	Ginger17.bmp	Ginger10.bmp	61	1	1	1	2	GESCHICHTES
FAUST_1[2014-06]	122	3	15	2	2	1	2	1	1	1	1335	2	2	1	1932	4	1332	Jigsaw18.bmp	Pear16.bmp	Jigsaw17.bmp	Jigsaw11.bmp	Jigsaw14.bmp	Pear16.bmp	Jigsaw18.bmp	61	1	1	1	2	GESCHICHTES
FAUST_1[2014-06]	122	3	10	2	2	2	2	1	1	1	964	2	2	1	1425	4	1274	Shell18.bmp	Shell17.bmp	Chilli19.bmp	Shell18.bmp	Shell1.bmp	Shell18.bmp	Shell9.bmp	61	1	1	1	2	GESCHICHTES
FAUST_1[2014-06]	122	3	20	2	2	1	1	1	2	0	439	-1	1	0	0	3	7384	Leaf10.bmp	Keys9.bmp	Keys8.bmp	Leaf10.bmp	Keys6.bmp	Keys8.bmp	Keys7.bmp	61	1	1	1	2	GESCHICHTES
FAUST_1[2014-06]	122	3	2	2	2	2	1	1	1	1	1538	1	1	1	1426	4	1898	Bracelet8.bmp	Paperclip4.bmp	Paperclip14.bmp	Bracelet8.bmp	Paperclip9.bmp	Bracelet8.bmp	Paperclip6.bmp	61	1	1	1	2	GESCHICHTES
FAUST_1[2014-06]	122	3	8	2	2	1	2	1	1	1	1133	1	1	1	2187	4	1701	String2.bmp	Cake24.bmp	String2.bmp	String12.bmp	Cake24.bmp	String8.bmp	String9.bmp	61	1	1	1	2	GESCHICHTES
FAUST_1[2014-06]	122	3	4	2	2	2	2	1	1	1	1051	-1	2	0	0	4	1053	Daff21.bmp	Stapler8.bmp	Daff1.bmp	Daff21.bmp	Daff9.bmp	Daff21.bmp	Daff3.bmp	61	1	1	1	2	GESCHICHTES
FAUST_1[2014-06]	122	3	6	2	2	1	1	2	1	0	1245	2	2	1	3311	3	1515	Holly14.bmp	Plug9.bmp	Holly20.bmp	Plug9.bmp	Plug18.bmp	Plug6.bmp	Plug8.bmp	61	1	1	1	2	GESCHICHTES
FAUST_1[2014-06]	122	3	5	2	2	2	1	2	1	0	1157	-1	1	0	0	4	1255	Bun12.bmp	Bun19.bmp	Pen1.bmp	Bun19.bmp	Pen20.bmp	Pen5.bmp	Pen17.bmp	61	1	1	1	2	GESCHICHTES
FAUST_1[2014-06]	122	3	14	2	2	1	2	2	1	0	1125	2	2	1	1865	4	2121	Varnish3.bmp	Candle1.bmp	Varnish14.bmp	Varnish5.bmp	Varnish17.bmp	Varnish11.bmp	Candle1.bmp	61	1	1	1	2	GESCHICHTES
FAUST_1[2014-06]	122	3	22	2	2	2	2	2	1	0	1158	1	1	1	1806	4	1335	Apple10.bmp	Apple21.bmp	Apple5.bmp	Apple24.bmp	Strawberry21.bmp	Apple21.bmp	Apple18.bmp	61	1	1	1	2	GESCHICHTES
FAUST_1[2014-06]	122	3	18	2	2	1	1	2	2	1	3766	2	2	1	2882	3	1548	Screw18.bmp	Button10.bmp	Screw10.bmp	Button3.bmp	Button14.bmp	Button20.bmp	Button3.bmp	61	1	1	1	2	GESCHICHTES
FAUST_1[2014-06]	122	3	7	2	2	2	1	2	1	0	1004	2	1	0	2489	4	1543	Bag3.bmp	Bag21.bmp	Toothbrush1.bmp	Toothbrush6.bmp	Toothbrush9.bmp	Toothbrush12.bmp	Bag21.bmp	61	1	1	1	2	GESCHICHTES
FAUST_1[2014-06]	122	3	12	2	2	1	2	2	1	0	985	2	2	1	2597	4	1747	Umbrella6.bmp	Umbrella17.bmp	Umbrella21.bmp	Hanger15.bmp	Umbrella7.bmp	Umbrella19.bmp	Hanger15.bmp	61	1	1	1	2	GESCHICHTES
FAUST_1[2014-06]	122	3	13	2	2	2	2	2	1	0	977	1	1	1	2310	4	1086	Swirl23.bmp	Swirl1.bmp	Biscuit9.bmp	Swirl5.bmp	Swirl10.bmp	Swirl13.bmp	Swirl5.bmp	61	1	1	1	2	GESCHICHTES
FAUST_1[2014-06]	122	3	17	2	2	1	1	3	2	1	743	1	2	0	3340	4	1270	Car12.bmp	Glass16.bmp	Glass3.bmp	Glass4.bmp	Glass12.bmp	Onion7.bmp	Glass12.bmp	61	1	1	1	2	GESCHICHTES
FAUST_1[2014-06]	122	3	16	2	2	2	1	3	2	1	1193	1	1	1	1989	4	1099	Star17.bmp	Sweet22.bmp	Present14.bmp	Sweet10.bmp	Sweet1.bmp	Present14.bmp	Sweet18.bmp	61	1	1	1	2	GESCHICHTES
FAUST_1[2014-06]	122	3	19	2	2	1	1	3	2	1	976	2	1	0	3419	4	1465	Hand8.bmp	Scissors23.bmp	Scissors1.bmp	Scissors3.bmp	Scissors11.bmp	Scissors3.bmp	Man10.bmp	61	1	1	1	2	GESCHICHTES
FAUST_1[2014-06]	122	3	11	2	2	2	1	3	2	1	1834	1	1	1	2355	4	2179	Brocolli4.bmp	Tomato3.bmp	Mushroom18.bmp	Tomato2.bmp	Tomato5.bmp	Mushroom18.bmp	Tomato18.bmp	61	1	1	1	2	GESCHICHTES
FAUST_1[2014-06]	122	3	3	2	2	1	1	3	2	1	1832	2	2	1	2903	3	1969	Fudge15.bmp	Chocolate5.bmp	Nut18.bmp	Chocolate6.bmp	Chocolate24.bmp	Chocolate6.bmp	Chocolate17.bmp	61	1	1	1	2	GESCHICHTES
FAUST_1[2014-06]	122	3	9	2	2	2	1	3	1	0	1617	-1	2	0	0	3	2187	Fork8.bmp	Coins8.bmp	Flower13.bmp	Coins12.bmp	Coins10.bmp	Flower13.bmp	Coins3.bmp	61	1	1	1	2	GESCHICHTES
FAUST_1[2014-06]	122	2	24	2	1	1	1	1	2	0	1710	1	1	1	1248	3	1174	STUTTGART	nordamerika	südamerika	australien	afrika	stuttgart	australien	61	1	1	1	2	GESCHICHTES
FAUST_1[2014-06]	122	2	8	2	1	2	1	1	2	0	797	2	2	1	2860	3	1588	WOLLE	rouge	wolle	wimperntusche	lippenstift	lidschatten	wolle	61	1	1	1	2	GESCHICHTES
FAUST_1[2014-06]	122	2	25	2	1	1	2	1	2	0	1144	1	1	1	1607	3	1175	PANTHER	puma	tiger	panther	weizen	leopard	weizen	61	1	1	1	2	GESCHICHTES
FAUST_1[2014-06]	122	2	11	2	1	2	2	1	2	0	1957	-1	1	0	0	3	1608	INTERNET	fernsehen	internet	zeitung	buch	internet	meißel	61	1	1	1	2	GESCHICHTES
FAUST_1[2014-06]	122	2	5	2	1	1	1	1	2	0	1478	2	2	1	2631	4	1684	BACKGAMMON	saturn	venus	saturn	merkur	jupiter	backgammon	61	1	1	1	2	GESCHICHTES
FAUST_1[2014-06]	122	2	15	2	1	2	1	1	2	0	1452	-1	1	0	0	3	1308	ELBE	elbe	quadrat	elbe	rechteck	dreieck	viereck	61	1	1	1	2	GESCHICHTES
FAUST_1[2014-06]	122	2	21	2	1	1	2	1	1	1	1148	1	1	1	3428	3	1414	GRIPPE	mumps	masern	schweiz	windpocken	schweiz	grippe	61	1	1	1	2	GESCHICHTES
FAUST_1[2014-06]	122	2	14	2	1	2	2	1	2	0	1886	2	2	1	2328	4	1253	KLEBEBAND	locher	klebeband	büroklammer	häkelnadel	klebeband	brieföffner	61	1	1	1	2	GESCHICHTES
FAUST_1[2014-06]	122	2	29	2	1	1	1	1	2	0	1734	2	2	1	1292	3	1559	SCHAM	kugelschreiber	scham	füller	filzstift	bleistift	filzstift	61	1	1	1	2	GESCHICHTES
FAUST_1[2014-06]	122	2	28	2	1	2	1	1	1	1	1179	2	2	1	2509	3	2042	OPER	arzt	oper	lehrer	polizist	oper	richter	61	1	1	1	2	GESCHICHTES
FAUST_1[2014-06]	122	2	12	2	1	1	2	1	1	1	1604	2	2	1	2287	3	1601	BANANE	vivaldi	erdbeere	birne	pflaume	banane	vivaldi	61	1	1	1	2	GESCHICHTES
FAUST_1[2014-06]	122	2	30	2	1	2	2	1	1	1	1232	2	2	1	1746	3	1077	EISEN	foxtrott	eisen	gold	messing	silber	eisen	61	1	1	1	2	GESCHICHTES
FAUST_1[2014-06]	122	2	27	2	1	1	1	2	2	1	1221	1	1	1	1614	3	1373	RUM	teich	whiskey	fluss	ozean	see	teich	61	1	1	1	2	GESCHICHTES
FAUST_1[2014-06]	122	2	31	2	1	2	1	2	2	1	1247	1	1	1	2936	4	1284	BOMBE	dolch	karamell	marzipan	dolch	bonbons	lakritz	61	1	1	1	2	GESCHICHTES
FAUST_1[2014-06]	122	2	4	2	1	1	2	2	2	1	1505	1	1	1	3351	3	2256	BOHNEN	kupplung	spinat	tomaten	blumenkohl	kupplung	karotten	61	1	1	1	2	GESCHICHTES
FAUST_1[2014-06]	122	2	16	2	1	2	2	2	1	0	1527	1	1	1	2050	3	1314	FLÖTE	trompete	posaune	cannabis	klarinette	trompete	oboe	61	1	1	1	2	GESCHICHTES
FAUST_1[2014-06]	122	2	1	2	1	1	1	2	2	1	4233	2	2	1	2724	3	2653	ADJEKTIV	hagel	nomen	regen	nebel	schnee	hagel	61	1	1	1	2	GESCHICHTES
FAUST_1[2014-06]	122	2	7	2	1	2	1	2	2	1	894	1	1	1	2533	3	1449	HÜTTE	fink	baracke	schwalbe	baracke	meise	taube	61	1	1	1	2	GESCHICHTES
FAUST_1[2014-06]	122	2	2	2	1	1	2	2	1	0	1663	-1	2	0	0	3	2371	BUS	taxi	fahrrad	vater	zug	vater	straßenbahn	61	1	1	1	2	GESCHICHTES
FAUST_1[2014-06]	122	2	32	2	1	2	2	2	1	0	50	2	1	0	2932	2	8288	BLUSE	hemd	kaiser	jacke	rock	hose	hemd	61	1	1	1	2	GESCHICHTES
FAUST_1[2014-06]	122	2	26	2	1	1	1	2	2	1	1104	1	2	0	2166	4	1468	KEROSIN	biene	mücke	diesel	wespe	mücke	ameise	61	1	1	1	2	GESCHICHTES
FAUST_1[2014-06]	122	2	3	2	1	2	1	2	2	1	1355	1	1	1	2957	3	2245	BEIN	hering	fuß	makrele	fuß	thunfisch	lachs	61	1	1	1	2	GESCHICHTES
FAUST_1[2014-06]	122	2	10	2	1	1	2	2	2	1	1501	2	2	1	2626	3	1602	DÖNER	bratwurst	hamburger	yacht	pizza	yacht	pommes	61	1	1	1	2	GESCHICHTES
FAUST_1[2014-06]	122	2	19	2	1	2	2	2	2	1	1208	2	2	1	2346	3	1410	WASSERMANN	schütze	schäferhund	zwilling	steinbock	zwilling	jungfrau	61	1	1	1	2	GESCHICHTES
FAUST_1[2014-06]	122	2	23	2	1	1	1	3	2	1	991	2	2	1	1905	4	1658	SAUERSTOFF	tag	jahr	tag	sekunde	hören	minute	61	1	1	1	2	GESCHICHTES
FAUST_1[2014-06]	122	2	17	2	1	2	1	3	2	1	783	1	1	1	2946	3	1332	LEBER	werwolf	majoran	thymian	koriander	werwolf	rosmarin	61	1	1	1	2	GESCHICHTES
FAUST_1[2014-06]	122	2	13	2	1	1	1	3	2	1	1007	1	1	1	1915	4	2176	SYNAGOGE	backblech	pfannenwender	nudelholz	realschule	backform	pfannenwender	61	1	1	1	2	GESCHICHTES
FAUST_1[2014-06]	122	2	22	2	1	2	1	3	2	1	1453	-1	2	0	0	4	1769	HORRORFILM	glas	malen	becher	malen	kanne	karaffe	61	1	1	1	2	GESCHICHTES
FAUST_1[2014-06]	122	2	20	2	1	1	1	3	1	0	1533	2	2	1	1609	3	1143	BIRKE	löffel	nelke	veilchen	nelke	tulpe	rose	61	1	1	1	2	GESCHICHTES
FAUST_1[2014-06]	122	2	6	2	1	2	1	3	2	1	1571	-1	2	0	0	4	2029	BRANDENBURG	gelb	rot	grün	regal	lila	regal	61	1	1	1	2	GESCHICHTES
FAUST_1[2014-06]	122	2	18	2	1	1	1	3	2	1	1015	1	1	1	2518	3	1281	BIOLOGIE	volvo	peugeot	zentimeter	audi	porsche	volvo	61	1	1	1	2	GESCHICHTES
FAUST_1[2014-06]	122	2	9	2	1	2	1	3	2	1	751	1	1	1	3140	3	1554	EURO	skifahren	mobiltelefon	fußball	schwimmen	mobiltelefon	golf	61	1	1	1	2	GESCHICHTES
FAUST_1[2014-06]	122	3	17	2	3	1	1	1	1	1	1345	1	1	1	2178	4	1658	backpack_13.bmp	remote_14.bmp	remote_2.bmp	backpack_13.bmp	remote_3.bmp	remote_13.bmp	remote_3.bmp	61	1	1	1	2	GESCHICHTES
FAUST_1[2014-06]	122	3	32	2	3	2	1	1	1	1	1181	1	1	1	1708	4	5862	cat_5.bmp	cat_5.bmp	rusdoll_8.bmp	rusdoll_1.bmp	rusdoll_3.bmp	cat_5.bmp	rusdoll_6.bmp	61	1	1	1	2	GESCHICHTES
FAUST_1[2014-06]	122	3	3	2	3	1	2	1	1	1	1237	2	2	1	2097	4	1772	windchime_3.bmp	powerstrip_14.bmp	windchime_10.bmp	windchime_3.bmp	windchime_6.bmp	powerstrip_14.bmp	windchime_15.bmp	61	1	1	1	2	GESCHICHTES
FAUST_1[2014-06]	122	3	26	2	3	2	2	1	1	1	863	2	2	1	1755	4	1167	saddle_5.bmp	saddle_8.bmp	easteregg_16.bmp	saddle_5.bmp	saddle_4.bmp	saddle_5.bmp	saddle_15.bmp	61	1	1	1	2	GESCHICHTES
FAUST_1[2014-06]	122	3	24	2	3	1	1	1	2	0	2500	1	1	1	2693	3	1314	highchair_6.bmp	horseshoe_3.bmp	horseshoe_12.bmp	highchair_6.bmp	horseshoe_12.bmp	horseshoe_5.bmp	horseshoe_4.bmp	61	1	1	1	2	GESCHICHTES
FAUST_1[2014-06]	122	3	7	2	3	2	1	1	1	1	1203	2	2	1	3261	4	2007	sofa_9.bmp	ring_12.bmp	sofa_9.bmp	ring_11.bmp	ring_8.bmp	ring_7.bmp	sofa_9.bmp	61	1	1	1	2	GESCHICHTES
FAUST_1[2014-06]	122	3	9	2	3	1	2	1	1	1	1108	2	2	1	2755	4	1781	parfait_4.bmp	shoe_17.bmp	parfait_13.bmp	parfait_4.bmp	parfait_15.bmp	parfait_1.bmp	shoe_17.bmp	61	1	1	1	2	GESCHICHTES
FAUST_1[2014-06]	122	3	27	2	3	2	2	1	1	1	1323	2	2	1	1809	4	1501	doorknob_2.bmp	doorknob_17.bmp	doorknob_14.bmp	doorknob_2.bmp	coffee_2.bmp	doorknob_10.bmp	doorknob_2.bmp	61	1	1	1	2	GESCHICHTES
FAUST_1[2014-06]	122	3	18	2	3	1	1	1	1	1	1245	2	2	1	3197	4	1323	birdhouse_11.bmp	birdhouse_11.bmp	chair_11.bmp	chair_5.bmp	chair_11.bmp	chair_2.bmp	chair_3.bmp	61	1	1	1	2	GESCHICHTES
FAUST_1[2014-06]	122	3	30	2	3	2	1	1	1	1	1164	2	2	1	1841	4	1401	cellphone_11.bmp	cellphone_11.bmp	tv_16.bmp	cellphone_11.bmp	tv_7.bmp	tv_4.bmp	tv_8.bmp	61	1	1	1	2	GESCHICHTES
FAUST_1[2014-06]	122	3	25	2	3	1	2	1	1	1	973	-1	2	0	0	4	1071	videogamecontroller_2.bmp	glasses_9.bmp	videogamecontroller_3.bmp	videogamecontroller_2.bmp	videogamecontroller_5.bmp	videogamecontroller_11.bmp	glasses_9.bmp	61	1	1	1	2	GESCHICHTES
FAUST_1[2014-06]	122	3	21	2	3	2	2	1	1	1	894	2	1	0	2084	4	1412	garbagecan_10.bmp	garbagecan_17.bmp	garbagecan_10.bmp	garbagecan_13.bmp	garbagecan_2.bmp	garbagecan_10.bmp	sink_1.bmp	61	1	1	1	2	GESCHICHTES
FAUST_1[2014-06]	122	3	16	2	3	1	1	2	1	0	2508	1	1	1	2246	3	2122	bagel_16.bmp	socks_12.bmp	socks_13.bmp	socks_10.bmp	socks_13.bmp	bagel_14.bmp	socks_4.bmp	61	1	1	1	2	GESCHICHTES
FAUST_1[2014-06]	122	3	20	2	3	2	1	2	2	1	849	2	2	1	3477	4	2010	watergun_3.bmp	watergun_7.bmp	vase_6.bmp	watergun_7.bmp	vase_5.bmp	vase_1.bmp	vase_15.bmp	61	1	1	1	2	GESCHICHTES
FAUST_1[2014-06]	122	3	5	2	3	1	2	2	1	0	1008	1	1	1	3199	4	1000	turtle_7.bmp	tricycle_2.bmp	turtle_2.bmp	tricycle_2.bmp	turtle_12.bmp	turtle_11.bmp	turtle_6.bmp	61	1	1	1	2	GESCHICHTES
FAUST_1[2014-06]	122	3	19	2	3	2	2	2	1	0	1162	2	2	1	2792	4	1219	abacus_15.bmp	abacus_2.bmp	abacus_7.bmp	flashlight_1.bmp	abacus_6.bmp	abacus_4.bmp	abacus_7.bmp	61	1	1	1	2	GESCHICHTES
FAUST_1[2014-06]	122	3	2	2	3	1	1	2	2	1	3592	2	2	1	1921	4	6295	rollerskates_17.bmp	babycrib_7.bmp	babycrib_6.bmp	babycrib_9.bmp	babycrib_2.bmp	rollerskates_2.bmp	babycrib_9.bmp	61	1	1	1	2	GESCHICHTES
FAUST_1[2014-06]	122	3	28	2	3	2	1	2	1	0	2451	2	2	1	1589	3	1848	lawnmower_17.bmp	lawnmower_8.bmp	glove_12.bmp	glove_10.bmp	glove_8.bmp	lawnmower_8.bmp	glove_5.bmp	61	1	1	1	2	GESCHICHTES
FAUST_1[2014-06]	122	3	29	2	3	1	2	2	1	0	1072	1	1	1	1492	3	2676	jacket_10.bmp	carabiner_9.bmp	jacket_11.bmp	jacket_7.bmp	jacket_13.bmp	carabiner_9.bmp	jacket_6.bmp	61	1	1	1	2	GESCHICHTES
FAUST_1[2014-06]	122	3	14	2	3	2	2	2	1	0	1017	2	2	1	1835	4	1129	laptop_7.bmp	laptop_16.bmp	laptop_14.bmp	laptop_10.bmp	laptop_15.bmp	laptop_14.bmp	iceskates_7.bmp	61	1	1	1	2	GESCHICHTES
FAUST_1[2014-06]	122	3	15	2	3	1	1	2	2	1	779	1	1	1	3095	3	2172	doorknocker_2.bmp	leatherman_10.bmp	leatherman_2.bmp	leatherman_14.bmp	leatherman_2.bmp	doorknocker_5.bmp	leatherman_5.bmp	61	1	1	1	2	GESCHICHTES
FAUST_1[2014-06]	122	3	10	2	3	2	1	2	2	1	5045	1	1	1	2188	3	1301	carriage_9.bmp	camera_6.bmp	camera_9.bmp	camera_7.bmp	carriage_3.bmp	camera_4.bmp	carriage_3.bmp	61	1	1	1	2	GESCHICHTES
FAUST_1[2014-06]	122	3	4	2	3	1	2	2	1	0	958	2	1	0	2445	4	1396	scooter_11.bmp	scooter_4.bmp	scooter_8.bmp	router_5.bmp	scooter_5.bmp	scooter_10.bmp	router_5.bmp	61	1	1	1	2	GESCHICHTES
FAUST_1[2014-06]	122	3	22	2	3	2	2	2	1	0	830	2	2	1	3130	4	1368	cake_5.bmp	circuitboard_4.bmp	cake_14.bmp	cake_3.bmp	cake_4.bmp	cake_1.bmp	cake_3.bmp	61	1	1	1	2	GESCHICHTES
FAUST_1[2014-06]	122	3	31	2	3	1	1	3	2	1	838	2	2	1	2739	4	1753	speaker_6.bmp	skateboard_16.bmp	mic_3.bmp	skateboard_14.bmp	skateboard_11.bmp	skateboard_14.bmp	skateboard_3.bmp	61	1	1	1	2	GESCHICHTES
FAUST_1[2014-06]	122	3	6	2	3	2	1	3	2	1	899	1	1	1	1384	4	1502	plant_5.bmp	trophy_15.bmp	trophy_4.bmp	shredder_6.bmp	trophy_16.bmp	shredder_6.bmp	trophy_14.bmp	61	1	1	1	2	GESCHICHTES
FAUST_1[2014-06]	122	3	13	2	3	1	1	3	2	1	2844	1	1	1	1508	4	2165	fan_10.bmp	orifan_14.bmp	orifan_7.bmp	orifan_6.bmp	orifan_17.bmp	pasta_11.bmp	orifan_14.bmp	61	1	1	1	2	GESCHICHTES
FAUST_1[2014-06]	122	3	1	2	3	2	1	3	2	1	718	1	1	1	3102	4	1826	guitar_5.bmp	hairbrush_15.bmp	wig_6.bmp	hairbrush_15.bmp	wig_12.bmp	wig_9.bmp	wig_7.bmp	61	1	1	1	2	GESCHICHTES
FAUST_1[2014-06]	122	3	8	2	3	1	1	3	2	1	1390	2	2	1	2130	4	1325	watch_6.bmp	trumpet_6.bmp	cheesegrater_15.bmp	trumpet_17.bmp	trumpet_3.bmp	trumpet_17.bmp	trumpet_1.bmp	61	1	1	1	2	GESCHICHTES
FAUST_1[2014-06]	122	3	11	2	3	2	1	3	2	1	818	2	2	1	2356	4	1315	goggle_1.bmp	bowlingpin_1.bmp	bowlingpin_4.bmp	bowlingpin_11.bmp	saltpeppershake_17.bmp	bowlingpin_3.bmp	saltpeppershake_17.bmp	61	1	1	1	2	GESCHICHTES
FAUST_1[2014-06]	122	3	23	2	3	1	1	3	2	1	1632	1	1	1	1908	4	1434	hairdryer_14.bmp	beanbagchair_3.bmp	beanbagchair_17.bmp	beanbagchair_3.bmp	printer_1.bmp	beanbagchair_15.bmp	beanbagchair_12.bmp	61	1	1	1	2	GESCHICHTES
FAUST_1[2014-06]	122	3	12	2	3	2	1	3	2	1	747	2	2	1	2850	4	1361	cherubstatue_5.bmp	trunk_1.bmp	trunk_5.bmp	hammer_6.bmp	trunk_2.bmp	hammer_6.bmp	trunk_3.bmp	61	1	1	1	2	GESCHICHTES
FAUST_1[2014-06]	122	4	17	2	2	1	1	1	1	1	3245	1	1	1	2727	3	1741	Chocolate9.bmp	Ginger15.bmp	Chocolate9.bmp	Ginger3.bmp	Ginger10.bmp	Ginger17.bmp	Ginger10.bmp	61	1	1	1	2	GESCHICHTES
FAUST_1[2014-06]	122	4	8	2	2	2	1	1	1	1	1422	2	1	0	2074	4	1299	Car12.bmp	Feather14.bmp	Car12.bmp	Feather12.bmp	Feather18.bmp	Feather11.bmp	Car12.bmp	61	1	1	1	2	GESCHICHTES
FAUST_1[2014-06]	122	4	3	2	2	1	2	1	1	1	1178	-1	1	0	0	4	1254	Shell17.bmp	Bag21.bmp	Shell5.bmp	Shell9.bmp	Shell17.bmp	Shell18.bmp	Bag21.bmp	61	1	1	1	2	GESCHICHTES
FAUST_1[2014-06]	122	4	5	2	2	2	2	1	1	1	863	2	2	1	2292	4	1055	Brocolli19.bmp	Brocolli14.bmp	Brocolli19.bmp	Hand10.bmp	Brocolli19.bmp	Brocolli4.bmp	Brocolli9.bmp	61	1	1	1	2	GESCHICHTES
FAUST_1[2014-06]	122	4	1	2	2	1	1	1	1	1	2664	2	2	1	1420	3	2114	Varnish5.bmp	Mushroom14.bmp	Mushroom25.bmp	Mushroom14.bmp	Mushroom7.bmp	Varnish5.bmp	Mushroom18.bmp	61	1	1	1	2	GESCHICHTES
FAUST_1[2014-06]	122	4	14	2	2	2	1	1	1	1	1071	1	1	1	1367	4	3855	Chilli12.bmp	String2.bmp	String9.bmp	Chilli12.bmp	String12.bmp	Chilli12.bmp	String6.bmp	61	1	1	1	2	GESCHICHTES
FAUST_1[2014-06]	122	4	7	2	2	1	2	1	1	1	888	1	1	1	1274	4	938	Glass16.bmp	Glass16.bmp	Glass19.bmp	Candle13.bmp	Glass3.bmp	Glass4.bmp	Candle13.bmp	61	1	1	1	2	GESCHICHTES
FAUST_1[2014-06]	122	4	20	2	2	2	2	1	1	1	970	2	2	1	2531	4	1545	Fudge20.bmp	Fudge15.bmp	Fudge20.bmp	Fudge8.bmp	Fudge17.bmp	Fudge20.bmp	Pear16.bmp	61	1	1	1	2	GESCHICHTES
FAUST_1[2014-06]	122	4	19	2	2	1	1	2	1	0	845	1	1	1	1620	4	1302	Toothbrush1.bmp	Present17.bmp	Toothbrush10.bmp	Present17.bmp	Present14.bmp	Present9.bmp	Present3.bmp	61	1	1	1	2	GESCHICHTES
FAUST_1[2014-06]	122	4	10	2	2	2	1	2	1	0	623	-1	2	0	0	4	1361	Hanger12.bmp	Scissors23.bmp	Scissors11.bmp	Scissors3.bmp	Hanger15.bmp	Scissors14.bmp	Hanger15.bmp	61	1	1	1	2	GESCHICHTES
FAUST_1[2014-06]	122	4	2	2	2	1	2	2	2	1	2637	2	2	1	2269	3	1804	Flower17.bmp	Flower13.bmp	Flower18.bmp	Flower3.bmp	Onion18.bmp	Flower14.bmp	Onion18.bmp	61	1	1	1	2	GESCHICHTES
FAUST_1[2014-06]	122	4	22	2	2	2	2	2	1	0	856	1	1	1	1547	4	1530	Screw18.bmp	Screw13.bmp	Jigsaw18.bmp	Screw16.bmp	Screw9.bmp	Screw10.bmp	Screw13.bmp	61	1	1	1	2	GESCHICHTES
FAUST_1[2014-06]	122	4	6	2	2	1	1	2	1	0	852	2	2	1	2387	4	1362	Coins12.bmp	Key11.bmp	Key13.bmp	Key20.bmp	Coins3.bmp	Key20.bmp	Key9.bmp	61	1	1	1	2	GESCHICHTES
FAUST_1[2014-06]	122	4	13	2	2	2	1	2	1	0	875	2	1	0	2182	4	1404	Button20.bmp	Tomato2.bmp	Button18.bmp	Tomato18.bmp	Tomato3.bmp	Tomato5.bmp	Button18.bmp	61	1	1	1	2	GESCHICHTES
FAUST_1[2014-06]	122	4	18	2	2	1	2	2	1	0	1520	2	2	1	1545	3	1522	Holly3.bmp	Sweet10.bmp	Holly11.bmp	Holly17.bmp	Sweet10.bmp	Holly14.bmp	Holly20.bmp	61	1	1	1	2	GESCHICHTES
FAUST_1[2014-06]	122	4	12	2	2	2	2	2	1	0	837	2	1	0	2474	4	1033	Paperclip13.bmp	Paperclip6.bmp	Swirl13.bmp	Paperclip4.bmp	Paperclip6.bmp	Paperclip9.bmp	Paperclip14.bmp	61	1	1	1	2	GESCHICHTES
FAUST_1[2014-06]	122	4	21	2	2	1	1	3	2	1	961	1	1	1	1727	4	1341	Strawberry3.bmp	Bracelet8.bmp	Bracelet1.bmp	Bracelet8.bmp	Bracelet5.bmp	Bracelet18.bmp	Nut11.bmp	61	1	1	1	2	GESCHICHTES
FAUST_1[2014-06]	122	4	11	2	2	2	1	3	2	1	950	1	1	1	1462	4	1202	Man24.bmp	Leaf15.bmp	Leaf10.bmp	Leaf13.bmp	Umbrella17.bmp	Leaf22.bmp	Umbrella17.bmp	61	1	1	1	2	GESCHICHTES
FAUST_1[2014-06]	122	4	9	2	2	1	1	3	2	1	999	-1	2	0	0	4	1580	Cake16.bmp	Pen17.bmp	Pen20.bmp	Pen5.bmp	Keys5.bmp	Pen10.bmp	Pen20.bmp	61	1	1	1	2	GESCHICHTES
FAUST_1[2014-06]	122	4	4	2	2	2	1	3	2	1	776	1	1	1	2148	4	1282	Star2.bmp	Stapler9.bmp	Stapler8.bmp	Bun5.bmp	Stapler10.bmp	Stapler6.bmp	Bun5.bmp	61	1	1	1	2	GESCHICHTES
FAUST_1[2014-06]	122	4	15	2	2	1	1	3	2	1	1592	1	1	1	1809	4	1503	Apple5.bmp	Plug9.bmp	Plug4.bmp	Plug9.bmp	Plug8.bmp	Plug18.bmp	Biscuit9.bmp	61	1	1	1	2	GESCHICHTES
FAUST_1[2014-06]	122	4	16	2	2	2	1	3	2	1	755	1	1	1	2146	4	952	Daff1.bmp	Fork7.bmp	Fork17.bmp	Fork9.bmp	Lipstick7.bmp	Fork8.bmp	Lipstick7.bmp	61	1	1	1	2	GESCHICHTES
