experiment	subject	block	trial	order	material	repeated	related	probetype	response	correct	rt	math_response	math_correctresponse	math_correct	math_rt	confidence	confidence_rt	probe	item1	item2	item3	item4	item5	item6	age	sex	handedness	color_vision	mother_tongue	occupation
FAUST_1[2014-06]	128	1	9	2	1	1	1	1	1	1	1781	1	1	1	2145	3	3044	VIERECK	apfel	viereck	pflaume	apfel	birne	erdbeere	37	2	1	1	1	MUSIKWISSENSCHAFT
FAUST_1[2014-06]	128	1	19	2	1	2	1	1	2	0	3609	-1	1	0	0	3	4002	SAARLAND	saarland	eiche	buche	weide	birke	saarland	37	2	1	1	1	MUSIKWISSENSCHAFT
FAUST_1[2014-06]	128	1	25	2	1	1	2	1	2	0	3260	-1	1	0	0	2	2303	BOOT	boot	panther	schiff	kanu	panther	yacht	37	2	1	1	1	MUSIKWISSENSCHAFT
FAUST_1[2014-06]	128	1	31	2	1	2	2	1	2	0	3705	1	1	1	2460	3	2017	KLARINETTE	posaune	flöte	klarinette	trompete	klarinette	flanell	37	2	1	1	1	MUSIKWISSENSCHAFT
FAUST_1[2014-06]	128	1	15	2	1	1	1	1	1	1	2017	1	2	0	2741	3	2028	HANNOVER	veilchen	nelke	hannover	veilchen	rose	lilie	37	2	1	1	1	MUSIKWISSENSCHAFT
FAUST_1[2014-06]	128	1	20	2	1	2	1	1	1	1	2016	1	1	1	2733	4	2500	MAKRELE	makrele	sehen	riechen	makrele	fühlen	schmecken	37	2	1	1	1	MUSIKWISSENSCHAFT
FAUST_1[2014-06]	128	1	14	2	1	1	2	1	2	0	3106	1	2	0	694	2	2388	TEELÖFFEL	rot	teelöffel	löffel	rot	brotmesser	gabel	37	2	1	1	1	MUSIKWISSENSCHAFT
FAUST_1[2014-06]	128	1	3	2	1	2	2	1	1	1	3033	1	1	1	2424	4	3172	NEBEL	hagel	bonbons	nebel	sonnenschein	schnee	nebel	37	2	1	1	1	MUSIKWISSENSCHAFT
FAUST_1[2014-06]	128	1	22	2	1	1	1	1	1	1	3779	1	2	0	2802	3	1968	PEUGEOT	handbremse	rückspiegel	handbremse	kupplung	gaspedal	peugeot	37	2	1	1	1	MUSIKWISSENSCHAFT
FAUST_1[2014-06]	128	1	11	2	1	2	1	1	2	0	1283	1	2	0	1664	1	1966	LOCHER	füller	filzstift	locher	kugelschreiber	locher	buntstift	37	2	1	1	1	MUSIKWISSENSCHAFT
FAUST_1[2014-06]	128	1	13	2	1	1	2	1	2	0	2117	1	1	1	1913	3	1804	DOGGE	sekunde	terrier	mops	sekunde	schäferhund	dogge	37	2	1	1	1	MUSIKWISSENSCHAFT
FAUST_1[2014-06]	128	1	12	2	1	2	2	1	1	1	2177	2	1	0	2264	4	1952	KOKAIN	kokain	opium	backblech	kokain	heroin	cannabis	37	2	1	1	1	MUSIKWISSENSCHAFT
FAUST_1[2014-06]	128	1	17	2	1	1	1	2	1	0	4089	1	1	1	2227	3	3018	ZEITUNG	physik	mathematik	erdkunde	chemie	radio	mathematik	37	2	1	1	1	MUSIKWISSENSCHAFT
FAUST_1[2014-06]	128	1	10	2	1	2	1	2	2	1	2276	2	2	1	2751	3	4237	BRONZE	pistole	dolch	silber	bombe	gewehr	silber	37	2	1	1	1	MUSIKWISSENSCHAFT
FAUST_1[2014-06]	128	1	29	2	1	1	2	2	1	0	2082	1	1	1	2727	3	2109	JUPITER	saturn	pluto	vivaldi	merkur	vivaldi	venus	37	2	1	1	1	MUSIKWISSENSCHAFT
FAUST_1[2014-06]	128	1	4	2	1	2	2	2	1	0	2143	1	2	0	1942	2	8740	ROUGE	lippenstift	kajal	wimperntusche	lippenstift	lidschatten	wespe	37	2	1	1	1	MUSIKWISSENSCHAFT
FAUST_1[2014-06]	128	1	27	2	1	1	1	2	2	1	4297	1	2	0	3164	4	1923	HALMA	scrabble	asien	südamerika	asien	afrika	australien	37	2	1	1	1	MUSIKWISSENSCHAFT
FAUST_1[2014-06]	128	1	16	2	1	2	1	2	1	0	3178	2	2	1	2700	2	2807	MOBILTELEFON	tennis	kamera	golf	skifahren	kamera	schwimmen	37	2	1	1	1	MUSIKWISSENSCHAFT
FAUST_1[2014-06]	128	1	7	2	1	1	2	2	2	1	2108	1	1	1	1180	4	2544	SCHEUNE	schuppen	baracke	blockhaus	pfennig	hütte	pfennig	37	2	1	1	1	MUSIKWISSENSCHAFT
FAUST_1[2014-06]	128	1	6	2	1	2	2	2	2	1	3851	1	2	0	1396	2	3169	STEINBOCK	vampir	jungfrau	schütze	wassermann	zwilling	jungfrau	37	2	1	1	1	MUSIKWISSENSCHAFT
FAUST_1[2014-06]	128	1	26	2	1	1	1	2	2	1	2382	2	2	1	3338	4	2318	SICHERHEITSNADEL	kaiser	herzog	kaiser	stricknadel	graf	könig	37	2	1	1	1	MUSIKWISSENSCHAFT
FAUST_1[2014-06]	128	1	28	2	1	2	1	2	2	1	1608	2	2	1	3057	4	2104	GLAS	kanne	zange	säge	bohrer	meißel	kanne	37	2	1	1	1	MUSIKWISSENSCHAFT
FAUST_1[2014-06]	128	1	5	2	1	1	2	2	2	1	2540	1	1	1	2304	4	3812	KOPF	masern	hand	bein	masern	arm	fuß	37	2	1	1	1	MUSIKWISSENSCHAFT
FAUST_1[2014-06]	128	1	32	2	1	2	2	2	2	1	3150	1	1	1	756	3	2674	PETROLEUM	kerosin	koriander	kerosin	bleifrei	benzin	diesel	37	2	1	1	1	MUSIKWISSENSCHAFT
FAUST_1[2014-06]	128	1	24	2	1	1	1	3	2	1	2573	1	2	0	1593	4	2083	CHACHACHA	zeichnen	western	thriller	horrorfilm	thriller	komödie	37	2	1	1	1	MUSIKWISSENSCHAFT
FAUST_1[2014-06]	128	1	18	2	1	2	1	3	2	1	2257	-1	2	0	0	3	1763	ANGST	tisch	sauerstoff	sofa	stuhl	regal	sauerstoff	37	2	1	1	1	MUSIKWISSENSCHAFT
FAUST_1[2014-06]	128	1	2	2	1	1	1	3	2	1	1794	1	2	0	2557	4	4481	BLUMENKOHL	adjektiv	präposition	verb	hauptschule	verb	nomen	37	2	1	1	1	MUSIKWISSENSCHAFT
FAUST_1[2014-06]	128	1	30	2	1	2	1	3	2	1	2078	1	2	0	2340	4	2902	WHISKEY	donau	magen	herz	lunge	donau	leber	37	2	1	1	1	MUSIKWISSENSCHAFT
FAUST_1[2014-06]	128	1	23	2	1	1	1	3	1	0	6300	2	1	0	2985	3	4149	LEHRER	moschee	konzertsaal	kirche	moschee	kapelle	tempel	37	2	1	1	1	MUSIKWISSENSCHAFT
FAUST_1[2014-06]	128	1	8	2	1	2	1	3	2	1	2956	1	1	1	2262	3	2666	ROGGEN	fahrrad	see	straßenbahn	zug	bus	see	37	2	1	1	1	MUSIKWISSENSCHAFT
FAUST_1[2014-06]	128	1	21	2	1	1	1	3	2	1	2073	2	2	1	2716	4	4482	AMSEL	pizza	rock	bratwurst	hamburger	bratwurst	döner	37	2	1	1	1	MUSIKWISSENSCHAFT
FAUST_1[2014-06]	128	1	1	2	1	2	1	3	2	1	1960	2	1	0	2114	4	3242	ONKEL	zentimeter	england	meter	kilometer	millimeter	england	37	2	1	1	1	MUSIKWISSENSCHAFT
FAUST_1[2014-06]	128	2	13	2	3	1	1	1	1	1	3003	2	2	1	353	4	2143	babycrib_9.bmp	doorknocker_11.bmp	doorknocker_2.bmp	doorknocker_5.bmp	doorknocker_2.bmp	doorknocker_14.bmp	babycrib_9.bmp	37	2	1	1	1	MUSIKWISSENSCHAFT
FAUST_1[2014-06]	128	2	21	2	3	2	1	1	1	1	2094	1	2	0	2106	4	6388	carriage_3.bmp	horseshoe_5.bmp	carriage_3.bmp	horseshoe_6.bmp	carriage_3.bmp	horseshoe_12.bmp	horseshoe_4.bmp	37	2	1	1	1	MUSIKWISSENSCHAFT
FAUST_1[2014-06]	128	2	32	2	3	1	2	1	2	0	1851	2	2	1	2709	4	3297	doorknob_7.bmp	laptop_14.bmp	doorknob_14.bmp	doorknob_17.bmp	doorknob_7.bmp	laptop_14.bmp	doorknob_10.bmp	37	2	1	1	1	MUSIKWISSENSCHAFT
FAUST_1[2014-06]	128	2	15	2	3	2	2	1	1	1	1039	1	2	0	275	4	2028	printer_16.bmp	printer_16.bmp	turtle_7.bmp	printer_3.bmp	printer_5.bmp	printer_14.bmp	printer_16.bmp	37	2	1	1	1	MUSIKWISSENSCHAFT
FAUST_1[2014-06]	128	2	10	2	3	1	1	1	2	0	1599	2	2	1	2113	4	2567	orifan_6.bmp	camera_6.bmp	camera_4.bmp	camera_7.bmp	orifan_6.bmp	camera_7.bmp	camera_3.bmp	37	2	1	1	1	MUSIKWISSENSCHAFT
FAUST_1[2014-06]	128	2	1	2	3	2	1	1	1	1	2682	2	1	0	2703	4	2365	speaker_10.bmp	speaker_10.bmp	mic_3.bmp	speaker_10.bmp	mic_12.bmp	mic_5.bmp	mic_2.bmp	37	2	1	1	1	MUSIKWISSENSCHAFT
FAUST_1[2014-06]	128	2	3	2	3	1	2	1	1	1	2104	2	2	1	2045	4	1888	circuitboard_13.bmp	tricycle_8.bmp	circuitboard_4.bmp	circuitboard_13.bmp	circuitboard_16.bmp	circuitboard_8.bmp	tricycle_8.bmp	37	2	1	1	1	MUSIKWISSENSCHAFT
FAUST_1[2014-06]	128	2	2	2	3	2	2	1	1	1	2073	1	2	0	1220	4	1604	windchime_16.bmp	windchime_3.bmp	windchime_16.bmp	windchime_15.bmp	windchime_6.bmp	leatherman_5.bmp	windchime_16.bmp	37	2	1	1	1	MUSIKWISSENSCHAFT
FAUST_1[2014-06]	128	2	26	2	3	1	1	1	2	0	1457	2	1	0	1178	3	1665	beanbagchair_17.bmp	plant_2.bmp	plant_13.bmp	plant_14.bmp	beanbagchair_17.bmp	plant_14.bmp	plant_8.bmp	37	2	1	1	1	MUSIKWISSENSCHAFT
FAUST_1[2014-06]	128	2	18	2	3	2	1	1	1	1	1866	1	1	1	1459	4	2455	trunk_3.bmp	videogamecontroller_5.bmp	videogamecontroller_2.bmp	trunk_3.bmp	videogamecontroller_13.bmp	trunk_3.bmp	videogamecontroller_3.bmp	37	2	1	1	1	MUSIKWISSENSCHAFT
FAUST_1[2014-06]	128	2	9	2	3	1	2	1	2	0	1994	2	2	1	2431	4	1975	cherubstatue_10.bmp	cherubstatue_11.bmp	cherubstatue_5.bmp	socks_4.bmp	cherubstatue_10.bmp	socks_4.bmp	cherubstatue_12.bmp	37	2	1	1	1	MUSIKWISSENSCHAFT
FAUST_1[2014-06]	128	2	5	2	3	2	2	1	1	1	1209	2	2	1	3098	4	2647	ring_7.bmp	ring_8.bmp	ring_7.bmp	ring_12.bmp	saltpeppershake_2.bmp	ring_15.bmp	ring_7.bmp	37	2	1	1	1	MUSIKWISSENSCHAFT
FAUST_1[2014-06]	128	2	31	2	3	1	1	2	2	1	1925	2	2	1	2698	4	3424	easteregg_16.bmp	trumpet_6.bmp	trumpet_17.bmp	trumpet_5.bmp	trumpet_17.bmp	trumpet_3.bmp	easteregg_5.bmp	37	2	1	1	1	MUSIKWISSENSCHAFT
FAUST_1[2014-06]	128	2	4	2	3	2	1	2	1	0	1682	2	2	1	2330	4	1849	coffee_14.bmp	vase_5.bmp	vase_13.bmp	vase_6.bmp	coffee_15.bmp	vase_1.bmp	coffee_15.bmp	37	2	1	1	1	MUSIKWISSENSCHAFT
FAUST_1[2014-06]	128	2	24	2	3	1	2	2	1	0	2055	1	1	1	2415	4	2262	iceskates_16.bmp	iceskates_5.bmp	iceskates_14.bmp	iceskates_9.bmp	pasta_11.bmp	iceskates_7.bmp	pasta_11.bmp	37	2	1	1	1	MUSIKWISSENSCHAFT
FAUST_1[2014-06]	128	2	22	2	3	2	2	2	2	1	1453	2	1	0	1120	4	1716	glove_10.bmp	glove_12.bmp	glove_15.bmp	glove_8.bmp	glove_12.bmp	glove_5.bmp	hairbrush_15.bmp	37	2	1	1	1	MUSIKWISSENSCHAFT
FAUST_1[2014-06]	128	2	17	2	3	1	1	2	2	1	2016	1	2	0	1510	4	2794	lawnmower_17.bmp	rusdoll_3.bmp	rusdoll_1.bmp	lawnmower_8.bmp	rusdoll_8.bmp	rusdoll_3.bmp	rusdoll_5.bmp	37	2	1	1	1	MUSIKWISSENSCHAFT
FAUST_1[2014-06]	128	2	11	2	3	2	1	2	2	1	3079	2	1	0	2641	4	1968	cat_4.bmp	cat_9.bmp	glasses_15.bmp	glasses_8.bmp	glasses_13.bmp	cat_9.bmp	glasses_6.bmp	37	2	1	1	1	MUSIKWISSENSCHAFT
FAUST_1[2014-06]	128	2	19	2	3	1	2	2	1	0	1703	2	2	1	699	4	2786	cheesegrater_15.bmp	cheesegrater_5.bmp	cheesegrater_11.bmp	cheesegrater_14.bmp	goggle_4.bmp	cheesegrater_8.bmp	goggle_4.bmp	37	2	1	1	1	MUSIKWISSENSCHAFT
FAUST_1[2014-06]	128	2	8	2	3	2	2	2	2	1	2206	1	2	0	2548	4	2203	watergun_3.bmp	jacket_10.bmp	watergun_7.bmp	watergun_9.bmp	watergun_15.bmp	watergun_7.bmp	watergun_8.bmp	37	2	1	1	1	MUSIKWISSENSCHAFT
FAUST_1[2014-06]	128	2	16	2	3	1	1	2	1	0	10505	2	1	0	640	2	2092	wig_12.bmp	shredder_6.bmp	shredder_15.bmp	shredder_1.bmp	wig_1.bmp	shredder_6.bmp	shredder_7.bmp	37	2	1	1	1	MUSIKWISSENSCHAFT
FAUST_1[2014-06]	128	2	29	2	3	2	1	2	2	1	5602	1	1	1	532	3	2349	watch_14.bmp	flashlight_12.bmp	watch_6.bmp	flashlight_1.bmp	watch_6.bmp	flashlight_2.bmp	flashlight_13.bmp	37	2	1	1	1	MUSIKWISSENSCHAFT
FAUST_1[2014-06]	128	2	30	2	3	1	2	2	2	1	4490	2	1	0	2032	4	1948	garbagecan_8.bmp	garbagecan_17.bmp	garbagecan_10.bmp	highchair_3.bmp	garbagecan_13.bmp	highchair_3.bmp	garbagecan_2.bmp	37	2	1	1	1	MUSIKWISSENSCHAFT
FAUST_1[2014-06]	128	2	25	2	3	2	2	2	2	1	1545	2	2	1	2257	4	2278	sofa_9.bmp	sofa_12.bmp	hammer_15.bmp	sofa_6.bmp	sofa_3.bmp	sofa_13.bmp	sofa_3.bmp	37	2	1	1	1	MUSIKWISSENSCHAFT
FAUST_1[2014-06]	128	2	14	2	3	1	1	3	2	1	1588	2	2	1	1786	4	1676	abacus_6.bmp	trophy_6.bmp	trophy_15.bmp	trophy_6.bmp	parfait_11.bmp	trophy_14.bmp	trophy_16.bmp	37	2	1	1	1	MUSIKWISSENSCHAFT
FAUST_1[2014-06]	128	2	23	2	3	2	1	3	2	1	1144	1	2	0	1150	4	3117	birdhouse_9.bmp	powerstrip_13.bmp	cake_3.bmp	cake_14.bmp	cake_1.bmp	cake_4.bmp	powerstrip_13.bmp	37	2	1	1	1	MUSIKWISSENSCHAFT
FAUST_1[2014-06]	128	2	12	2	3	1	1	3	2	1	2305	1	2	0	617	4	3649	carabiner_9.bmp	fan_11.bmp	fan_1.bmp	fan_15.bmp	fan_10.bmp	fan_1.bmp	shoe_15.bmp	37	2	1	1	1	MUSIKWISSENSCHAFT
FAUST_1[2014-06]	128	2	28	2	3	2	1	3	2	1	1632	1	2	0	1374	4	1927	cellphone_4.bmp	tv_8.bmp	bagel_12.bmp	bagel_14.bmp	bagel_16.bmp	tv_8.bmp	bagel_4.bmp	37	2	1	1	1	MUSIKWISSENSCHAFT
FAUST_1[2014-06]	128	2	6	2	3	1	1	3	2	1	1636	2	2	1	2166	4	2183	remote_14.bmp	rollerskates_5.bmp	rollerskates_2.bmp	rollerskates_7.bmp	rollerskates_8.bmp	hairdryer_14.bmp	rollerskates_7.bmp	37	2	1	1	1	MUSIKWISSENSCHAFT
FAUST_1[2014-06]	128	2	7	2	3	2	1	3	2	1	3372	1	1	1	2439	4	2452	scooter_4.bmp	sink_6.bmp	saddle_5.bmp	saddle_8.bmp	saddle_3.bmp	saddle_4.bmp	sink_6.bmp	37	2	1	1	1	MUSIKWISSENSCHAFT
FAUST_1[2014-06]	128	2	27	2	3	1	1	3	2	1	1993	1	1	1	977	4	2212	skateboard_16.bmp	router_5.bmp	router_16.bmp	chair_3.bmp	router_12.bmp	router_7.bmp	router_12.bmp	37	2	1	1	1	MUSIKWISSENSCHAFT
FAUST_1[2014-06]	128	2	20	2	3	2	1	3	2	1	1204	1	1	1	2094	4	2052	guitar_10.bmp	bowlingpin_3.bmp	bowlingpin_4.bmp	backpack_16.bmp	bowlingpin_13.bmp	bowlingpin_1.bmp	backpack_16.bmp	37	2	1	1	1	MUSIKWISSENSCHAFT
FAUST_1[2014-06]	128	3	17	2	2	1	1	1	2	0	1507	2	2	1	1261	3	2370	Shell18.bmp	Fork7.bmp	Shell18.bmp	Fork14.bmp	Fork8.bmp	Fork9.bmp	Fork7.bmp	37	2	1	1	1	MUSIKWISSENSCHAFT
FAUST_1[2014-06]	128	3	3	2	2	2	1	1	1	1	1614	2	1	0	2984	4	3204	Strawberry3.bmp	Hanger14.bmp	Strawberry3.bmp	Hanger7.bmp	Hanger2.bmp	Hanger12.bmp	Strawberry3.bmp	37	2	1	1	1	MUSIKWISSENSCHAFT
FAUST_1[2014-06]	128	3	21	2	2	1	2	1	2	0	3896	1	1	1	733	3	2112	Varnish3.bmp	Varnish3.bmp	Sweet25.bmp	Varnish14.bmp	Varnish11.bmp	Sweet25.bmp	Varnish17.bmp	37	2	1	1	1	MUSIKWISSENSCHAFT
FAUST_1[2014-06]	128	3	10	2	2	2	2	1	1	1	2126	1	1	1	1839	4	2006	Chilli22.bmp	Chilli22.bmp	Chilli12.bmp	Chilli22.bmp	Star2.bmp	Chilli14.bmp	Chilli11.bmp	37	2	1	1	1	MUSIKWISSENSCHAFT
FAUST_1[2014-06]	128	3	8	2	2	1	1	1	2	0	2079	1	1	1	2784	3	3099	Chocolate17.bmp	Jigsaw10.bmp	Chocolate17.bmp	Jigsaw17.bmp	Jigsaw14.bmp	Jigsaw18.bmp	Jigsaw10.bmp	37	2	1	1	1	MUSIKWISSENSCHAFT
FAUST_1[2014-06]	128	3	9	2	2	2	1	1	2	0	1518	1	2	0	1264	1	2001	Paperclip14.bmp	Onion19.bmp	Paperclip14.bmp	Onion18.bmp	Onion14.bmp	Onion13.bmp	Paperclip14.bmp	37	2	1	1	1	MUSIKWISSENSCHAFT
FAUST_1[2014-06]	128	3	18	2	2	1	2	1	2	0	1757	2	2	1	2523	4	1840	Glass19.bmp	Glass19.bmp	Glass4.bmp	Present3.bmp	Glass16.bmp	Glass3.bmp	Present3.bmp	37	2	1	1	1	MUSIKWISSENSCHAFT
FAUST_1[2014-06]	128	3	1	2	2	2	2	1	1	1	1836	2	2	1	2357	3	1373	String8.bmp	String8.bmp	Keys8.bmp	String2.bmp	String9.bmp	String6.bmp	String8.bmp	37	2	1	1	1	MUSIKWISSENSCHAFT
FAUST_1[2014-06]	128	3	22	2	2	1	1	2	2	1	1417	1	2	0	1404	3	1719	Candle20.bmp	Candle13.bmp	Scissors11.bmp	Scissors14.bmp	Scissors23.bmp	Scissors1.bmp	Scissors11.bmp	37	2	1	1	1	MUSIKWISSENSCHAFT
FAUST_1[2014-06]	128	3	13	2	2	2	1	2	1	0	5530	2	1	0	2395	3	1697	Ginger10.bmp	Leaf15.bmp	Leaf21.bmp	Ginger15.bmp	Leaf13.bmp	Leaf10.bmp	Ginger15.bmp	37	2	1	1	1	MUSIKWISSENSCHAFT
FAUST_1[2014-06]	128	3	11	2	2	1	2	2	1	0	2168	2	2	1	989	4	2563	Button10.bmp	Button20.bmp	Button3.bmp	Button14.bmp	Tomato18.bmp	Button18.bmp	Tomato18.bmp	37	2	1	1	1	MUSIKWISSENSCHAFT
FAUST_1[2014-06]	128	3	15	2	2	2	2	2	2	1	2652	1	1	1	553	3	3541	Hand17.bmp	Hand1.bmp	Hand13.bmp	Hand8.bmp	Hand10.bmp	Hand8.bmp	Umbrella21.bmp	37	2	1	1	1	MUSIKWISSENSCHAFT
FAUST_1[2014-06]	128	3	19	2	2	1	1	2	2	1	1589	2	1	0	973	3	1611	Apple5.bmp	Holly14.bmp	Holly17.bmp	Holly3.bmp	Holly17.bmp	Holly11.bmp	Apple10.bmp	37	2	1	1	1	MUSIKWISSENSCHAFT
FAUST_1[2014-06]	128	3	6	2	2	2	1	2	1	0	2374	-1	1	0	0	4	1673	Biscuit25.bmp	Biscuit9.bmp	Bag3.bmp	Bag21.bmp	Bag25.bmp	Bag4.bmp	Biscuit9.bmp	37	2	1	1	1	MUSIKWISSENSCHAFT
FAUST_1[2014-06]	128	3	5	2	2	1	2	2	1	0	1596	2	2	1	3302	4	1764	Man10.bmp	Man2.bmp	Mushroom18.bmp	Man15.bmp	Man24.bmp	Mushroom18.bmp	Man4.bmp	37	2	1	1	1	MUSIKWISSENSCHAFT
FAUST_1[2014-06]	128	3	7	2	2	2	2	2	1	0	3268	2	1	0	656	3	2047	Fudge15.bmp	Coins8.bmp	Fudge5.bmp	Fudge20.bmp	Fudge17.bmp	Fudge20.bmp	Fudge8.bmp	37	2	1	1	1	MUSIKWISSENSCHAFT
FAUST_1[2014-06]	128	3	4	2	2	1	1	3	2	1	2091	1	2	0	815	4	1611	Toothbrush6.bmp	Screw10.bmp	Lipstick9.bmp	Lipstick15.bmp	Lipstick2.bmp	Lipstick15.bmp	Lipstick3.bmp	37	2	1	1	1	MUSIKWISSENSCHAFT
FAUST_1[2014-06]	128	3	16	2	2	2	1	3	2	1	1964	1	1	1	694	4	2121	Stapler7.bmp	Key5.bmp	Bun22.bmp	Key5.bmp	Bun19.bmp	Bun5.bmp	Bun17.bmp	37	2	1	1	1	MUSIKWISSENSCHAFT
FAUST_1[2014-06]	128	3	2	2	2	1	1	3	2	1	2118	2	1	0	2393	4	1876	Cake18.bmp	Swirl1.bmp	Swirl13.bmp	Swirl5.bmp	Swirl10.bmp	Flower18.bmp	Swirl5.bmp	37	2	1	1	1	MUSIKWISSENSCHAFT
FAUST_1[2014-06]	128	3	14	2	2	2	1	3	2	1	1220	1	1	1	2277	4	3248	Car13.bmp	Nut11.bmp	Nut19.bmp	Pear7.bmp	Nut18.bmp	Pear7.bmp	Nut21.bmp	37	2	1	1	1	MUSIKWISSENSCHAFT
FAUST_1[2014-06]	128	3	20	2	2	1	1	3	2	1	940	1	2	0	720	4	2564	Bracelet18.bmp	Feather2.bmp	Feather14.bmp	Daff1.bmp	Feather12.bmp	Feather11.bmp	Feather2.bmp	37	2	1	1	1	MUSIKWISSENSCHAFT
FAUST_1[2014-06]	128	3	12	2	2	2	1	3	2	1	1793	1	1	1	1535	4	2151	Brocolli9.bmp	Pen10.bmp	Plug9.bmp	Plug8.bmp	Plug18.bmp	Pen10.bmp	Plug4.bmp	37	2	1	1	1	MUSIKWISSENSCHAFT
FAUST_1[2014-06]	128	2	12	2	1	1	1	1	2	0	3130	1	1	1	1645	3	2539	HESSEN	fahrrad	taxi	hessen	straßenbahn	taxi	bus	37	2	1	1	1	MUSIKWISSENSCHAFT
FAUST_1[2014-06]	128	2	13	2	1	2	1	1	1	1	1468	1	2	0	2045	3	1461	HALMA	riechen	halma	hören	fühlen	halma	sehen	37	2	1	1	1	MUSIKWISSENSCHAFT
FAUST_1[2014-06]	128	2	28	2	1	1	2	1	2	0	2077	2	1	0	2847	3	1977	LILIE	veilchen	lilie	nelke	erdbeere	rose	erdbeere	37	2	1	1	1	MUSIKWISSENSCHAFT
FAUST_1[2014-06]	128	2	1	2	1	2	2	1	1	1	1814	2	2	1	661	4	2417	THUNFISCH	thunfisch	forelle	mücke	thunfisch	makrele	lachs	37	2	1	1	1	MUSIKWISSENSCHAFT
FAUST_1[2014-06]	128	2	3	2	1	1	1	1	2	0	5153	1	2	0	218	4	1936	GRÜN	mutter	sohn	onkel	grün	sohn	tochter	37	2	1	1	1	MUSIKWISSENSCHAFT
FAUST_1[2014-06]	128	2	32	2	1	2	1	1	2	0	2684	2	2	1	1057	3	1035	PHYSIK	cannabis	physik	haschisch	opium	heroin	physik	37	2	1	1	1	MUSIKWISSENSCHAFT
FAUST_1[2014-06]	128	2	4	2	1	1	2	1	1	1	2113	1	2	0	2608	4	2007	WOLLE	wolle	seide	meter	baumwolle	leinen	meter	37	2	1	1	1	MUSIKWISSENSCHAFT
FAUST_1[2014-06]	128	2	5	2	1	2	2	1	2	0	3130	-1	1	0	0	3	2579	FERNSEHEN	fernsehen	kirche	radio	fernsehen	internet	buch	37	2	1	1	1	MUSIKWISSENSCHAFT
FAUST_1[2014-06]	128	2	14	2	1	1	1	1	2	0	1174	1	2	0	1070	4	1920	DIESEL	diesel	marzipan	bonbons	karamell	bonbons	gummibärchen	37	2	1	1	1	MUSIKWISSENSCHAFT
FAUST_1[2014-06]	128	2	6	2	1	2	1	1	2	0	2710	2	2	1	2164	3	1653	STECKNADEL	scham	ärger	stecknadel	trauer	angst	stecknadel	37	2	1	1	1	MUSIKWISSENSCHAFT
FAUST_1[2014-06]	128	2	7	2	1	1	2	1	1	1	2489	1	1	1	573	4	2104	LEHRER	arzt	wimperntusche	pfarrer	lehrer	wimperntusche	polizist	37	2	1	1	1	MUSIKWISSENSCHAFT
FAUST_1[2014-06]	128	2	20	2	1	2	2	1	2	0	1716	2	2	1	987	3	1720	WASSERMANN	wassermann	oboe	wassermann	zwilling	steinbock	jungfrau	37	2	1	1	1	MUSIKWISSENSCHAFT
FAUST_1[2014-06]	128	2	27	2	1	1	1	2	2	1	1871	1	2	0	1036	3	2195	GRIPPE	zirkus	windpocken	zirkus	theater	oper	kino	37	2	1	1	1	MUSIKWISSENSCHAFT
FAUST_1[2014-06]	128	2	16	2	1	2	1	2	2	1	2602	1	1	1	2756	4	2269	ADJEKTIV	verb	scheune	verb	baracke	hütte	schuppen	37	2	1	1	1	MUSIKWISSENSCHAFT
FAUST_1[2014-06]	128	2	9	2	1	1	2	2	2	1	2449	1	2	0	1875	4	2491	ZOMBIE	vampir	elbe	hexe	dämon	werwolf	elbe	37	2	1	1	1	MUSIKWISSENSCHAFT
FAUST_1[2014-06]	128	2	30	2	1	2	2	2	2	1	2351	2	1	0	2873	3	2355	HANDBREMSE	lenkrad	gaspedal	stunde	lenkrad	kupplung	rückspiegel	37	2	1	1	1	MUSIKWISSENSCHAFT
FAUST_1[2014-06]	128	2	29	2	1	1	1	2	2	1	1704	1	1	1	2017	4	2591	ROGGEN	dinkel	leopard	panther	leopard	gepard	puma	37	2	1	1	1	MUSIKWISSENSCHAFT
FAUST_1[2014-06]	128	2	18	2	1	2	1	2	2	1	1461	2	2	1	2177	4	2361	JUPITER	asien	venus	australien	afrika	südamerika	venus	37	2	1	1	1	MUSIKWISSENSCHAFT
FAUST_1[2014-06]	128	2	23	2	1	1	2	2	2	1	3520	2	1	0	3329	3	1868	LEBER	magen	herz	rock	lunge	rock	niere	37	2	1	1	1	MUSIKWISSENSCHAFT
FAUST_1[2014-06]	128	2	11	2	1	2	2	2	2	1	3029	1	1	1	2621	4	2109	GRAF	fürst	kanne	könig	fürst	herzog	kaiser	37	2	1	1	1	MUSIKWISSENSCHAFT
FAUST_1[2014-06]	128	2	10	2	1	1	1	2	2	1	2431	-1	1	0	0	3	1402	HAMBURG	münchen	messer	teelöffel	brotmesser	messer	löffel	37	2	1	1	1	MUSIKWISSENSCHAFT
FAUST_1[2014-06]	128	2	26	2	1	2	1	2	2	1	4496	1	1	1	2972	3	2032	ÖSTERREICH	hauptschule	italien	berufsschule	gymnasium	italien	gesamtschule	37	2	1	1	1	MUSIKWISSENSCHAFT
FAUST_1[2014-06]	128	2	17	2	1	1	2	2	1	0	2418	2	2	1	1055	2	1932	SKIFAHREN	schwimmen	oregano	golf	tennis	oregano	fußball	37	2	1	1	1	MUSIKWISSENSCHAFT
FAUST_1[2014-06]	128	2	31	2	1	2	2	2	2	1	3962	1	1	1	2052	3	2894	MERCEDES	porsche	schwalbe	peugeot	volvo	audi	peugeot	37	2	1	1	1	MUSIKWISSENSCHAFT
FAUST_1[2014-06]	128	2	15	2	1	1	1	3	2	1	1824	2	1	0	479	3	2111	CENT	kanu	fähre	yacht	komödie	boot	kanu	37	2	1	1	1	MUSIKWISSENSCHAFT
FAUST_1[2014-06]	128	2	2	2	1	2	1	3	2	1	2002	2	2	1	477	3	2595	STICKSTOFF	kugelschreiber	fluss	kugelschreiber	teich	ozean	meer	37	2	1	1	1	MUSIKWISSENSCHAFT
FAUST_1[2014-06]	128	2	19	2	1	1	1	3	1	0	1934	1	2	0	1634	4	2619	TOMATEN	fuß	regal	fuß	hand	kopf	arm	37	2	1	1	1	MUSIKWISSENSCHAFT
FAUST_1[2014-06]	128	2	8	2	1	2	1	3	2	1	1850	1	1	1	480	4	4171	CHOPIN	eiche	birke	locher	buche	locher	weide	37	2	1	1	1	MUSIKWISSENSCHAFT
FAUST_1[2014-06]	128	2	24	2	1	1	1	3	2	1	1825	1	2	0	380	3	1449	DOLCH	küchenwaage	nudelholz	mobiltelefon	backblech	backform	nudelholz	37	2	1	1	1	MUSIKWISSENSCHAFT
FAUST_1[2014-06]	128	2	21	2	1	2	1	3	2	1	1190	1	2	0	749	4	2340	PIZZA	hammer	foxtrott	meißel	säge	foxtrott	zange	37	2	1	1	1	MUSIKWISSENSCHAFT
FAUST_1[2014-06]	128	2	22	2	1	1	1	3	2	1	1059	2	2	1	957	4	3396	GOLD	zeichnen	schreiben	basteln	lesen	zeichnen	mops	37	2	1	1	1	MUSIKWISSENSCHAFT
FAUST_1[2014-06]	128	2	25	2	1	2	1	3	2	1	984	2	1	0	2658	3	2514	REGEN	gin	quadrat	whiskey	tequila	rum	quadrat	37	2	1	1	1	MUSIKWISSENSCHAFT
FAUST_1[2014-06]	128	3	15	2	3	1	1	1	2	0	2659	2	2	1	2440	3	1742	trunk_2.bmp	rollerskates_8.bmp	rollerskates_7.bmp	rollerskates_17.bmp	rollerskates_2.bmp	rollerskates_7.bmp	trunk_2.bmp	37	2	1	1	1	MUSIKWISSENSCHAFT
FAUST_1[2014-06]	128	3	32	2	3	2	1	1	1	1	1986	2	2	1	2501	3	2328	tv_8.bmp	rusdoll_5.bmp	rusdoll_8.bmp	rusdoll_6.bmp	tv_8.bmp	rusdoll_1.bmp	tv_8.bmp	37	2	1	1	1	MUSIKWISSENSCHAFT
FAUST_1[2014-06]	128	3	6	2	3	1	2	1	2	0	1604	1	1	1	811	3	2823	chair_11.bmp	easteregg_9.bmp	chair_11.bmp	chair_5.bmp	chair_16.bmp	easteregg_9.bmp	chair_2.bmp	37	2	1	1	1	MUSIKWISSENSCHAFT
FAUST_1[2014-06]	128	3	2	2	3	2	2	1	1	1	2300	2	2	1	2538	4	1774	ring_7.bmp	ring_8.bmp	ring_11.bmp	ring_12.bmp	ring_7.bmp	vase_15.bmp	ring_7.bmp	37	2	1	1	1	MUSIKWISSENSCHAFT
FAUST_1[2014-06]	128	3	7	2	3	1	1	1	2	0	2005	-1	1	0	0	4	3566	sink_11.bmp	coffee_15.bmp	coffee_7.bmp	coffee_15.bmp	coffee_2.bmp	coffee_1.bmp	sink_11.bmp	37	2	1	1	1	MUSIKWISSENSCHAFT
FAUST_1[2014-06]	128	3	3	2	3	2	1	1	2	0	2142	2	2	1	3475	3	2004	jacket_7.bmp	jacket_7.bmp	babycrib_9.bmp	jacket_7.bmp	babycrib_7.bmp	babycrib_6.bmp	babycrib_5.bmp	37	2	1	1	1	MUSIKWISSENSCHAFT
FAUST_1[2014-06]	128	3	21	2	3	1	2	1	2	0	3907	2	1	0	1847	3	1917	saltpeppershake_8.bmp	saltpeppershake_8.bmp	saltpeppershake_12.bmp	saltpeppershake_17.bmp	hammer_11.bmp	saltpeppershake_2.bmp	hammer_11.bmp	37	2	1	1	1	MUSIKWISSENSCHAFT
FAUST_1[2014-06]	128	3	22	2	3	2	2	1	1	1	3270	2	2	1	1733	3	4055	circuitboard_16.bmp	circuitboard_16.bmp	fan_10.bmp	circuitboard_16.bmp	circuitboard_13.bmp	circuitboard_4.bmp	circuitboard_8.bmp	37	2	1	1	1	MUSIKWISSENSCHAFT
FAUST_1[2014-06]	128	3	24	2	3	1	1	1	1	1	3955	2	1	0	1929	4	2311	goggle_1.bmp	cherubstatue_12.bmp	goggle_1.bmp	cherubstatue_10.bmp	cherubstatue_6.bmp	cherubstatue_5.bmp	cherubstatue_6.bmp	37	2	1	1	1	MUSIKWISSENSCHAFT
FAUST_1[2014-06]	128	3	18	2	3	2	1	1	1	1	1134	2	2	1	1535	4	3402	cellphone_4.bmp	highchair_15.bmp	highchair_10.bmp	cellphone_4.bmp	highchair_4.bmp	cellphone_4.bmp	highchair_3.bmp	37	2	1	1	1	MUSIKWISSENSCHAFT
FAUST_1[2014-06]	128	3	17	2	3	1	2	1	1	1	2821	1	1	1	2105	3	3799	mic_10.bmp	mic_12.bmp	mic_2.bmp	turtle_2.bmp	mic_5.bmp	mic_10.bmp	turtle_2.bmp	37	2	1	1	1	MUSIKWISSENSCHAFT
FAUST_1[2014-06]	128	3	8	2	3	2	2	1	1	1	1547	2	2	1	2309	3	2741	lawnmower_13.bmp	powerstrip_13.bmp	lawnmower_15.bmp	lawnmower_13.bmp	lawnmower_8.bmp	lawnmower_3.bmp	lawnmower_13.bmp	37	2	1	1	1	MUSIKWISSENSCHAFT
FAUST_1[2014-06]	128	3	5	2	3	1	1	2	2	1	5439	2	2	1	2707	3	4186	carabiner_2.bmp	carabiner_6.bmp	camera_4.bmp	camera_7.bmp	camera_9.bmp	camera_6.bmp	camera_9.bmp	37	2	1	1	1	MUSIKWISSENSCHAFT
FAUST_1[2014-06]	128	3	16	2	3	2	1	2	2	1	2584	2	1	0	2741	3	2842	speaker_4.bmp	videogamecontroller_11.bmp	speaker_10.bmp	videogamecontroller_5.bmp	videogamecontroller_13.bmp	videogamecontroller_2.bmp	speaker_10.bmp	37	2	1	1	1	MUSIKWISSENSCHAFT
FAUST_1[2014-06]	128	3	25	2	3	1	2	2	1	0	2903	2	2	1	3250	3	3224	doorknocker_4.bmp	doorknocker_14.bmp	doorknocker_2.bmp	glasses_6.bmp	doorknocker_5.bmp	glasses_6.bmp	doorknocker_11.bmp	37	2	1	1	1	MUSIKWISSENSCHAFT
FAUST_1[2014-06]	128	3	29	2	3	2	2	2	1	0	1476	2	2	1	3330	3	2150	printer_14.bmp	printer_5.bmp	printer_16.bmp	printer_1.bmp	printer_16.bmp	watch_14.bmp	printer_3.bmp	37	2	1	1	1	MUSIKWISSENSCHAFT
FAUST_1[2014-06]	128	3	27	2	3	1	1	2	2	1	1714	2	2	1	534	3	2639	bagel_12.bmp	birdhouse_14.bmp	bagel_16.bmp	birdhouse_14.bmp	birdhouse_11.bmp	birdhouse_7.bmp	birdhouse_9.bmp	37	2	1	1	1	MUSIKWISSENSCHAFT
FAUST_1[2014-06]	128	3	9	2	3	2	1	2	2	1	1177	1	2	0	1101	1	3334	trophy_16.bmp	router_16.bmp	trophy_14.bmp	router_6.bmp	router_7.bmp	router_5.bmp	trophy_14.bmp	37	2	1	1	1	MUSIKWISSENSCHAFT
FAUST_1[2014-06]	128	3	4	2	3	1	2	2	2	1	2546	-1	2	0	0	3	2967	scooter_11.bmp	cheesegrater_5.bmp	scooter_5.bmp	scooter_8.bmp	cheesegrater_5.bmp	scooter_4.bmp	scooter_10.bmp	37	2	1	1	1	MUSIKWISSENSCHAFT
FAUST_1[2014-06]	128	3	30	2	3	2	2	2	1	0	1331	2	1	0	2393	2	2189	orifan_14.bmp	watergun_15.bmp	orifan_7.bmp	orifan_6.bmp	orifan_17.bmp	orifan_7.bmp	orifan_1.bmp	37	2	1	1	1	MUSIKWISSENSCHAFT
FAUST_1[2014-06]	128	3	14	2	3	1	1	2	1	0	2207	1	2	0	2603	3	2217	glove_8.bmp	doorknob_10.bmp	glove_5.bmp	doorknob_10.bmp	doorknob_7.bmp	doorknob_17.bmp	doorknob_14.bmp	37	2	1	1	1	MUSIKWISSENSCHAFT
FAUST_1[2014-06]	128	3	10	2	3	2	1	2	2	1	1927	-1	2	0	0	3	2679	leatherman_14.bmp	wig_9.bmp	wig_1.bmp	leatherman_7.bmp	wig_12.bmp	wig_7.bmp	leatherman_7.bmp	37	2	1	1	1	MUSIKWISSENSCHAFT
FAUST_1[2014-06]	128	3	13	2	3	1	2	2	2	1	3751	1	1	1	2359	3	1633	skateboard_3.bmp	flashlight_13.bmp	skateboard_15.bmp	skateboard_11.bmp	flashlight_13.bmp	skateboard_14.bmp	skateboard_16.bmp	37	2	1	1	1	MUSIKWISSENSCHAFT
FAUST_1[2014-06]	128	3	1	2	3	2	2	2	1	0	3106	2	1	0	2458	3	2496	hairbrush_17.bmp	hairbrush_15.bmp	hairbrush_12.bmp	shoe_13.bmp	hairbrush_12.bmp	hairbrush_7.bmp	hairbrush_16.bmp	37	2	1	1	1	MUSIKWISSENSCHAFT
FAUST_1[2014-06]	128	3	20	2	3	1	1	3	2	1	3250	2	1	0	1801	3	2612	shredder_15.bmp	cake_14.bmp	cake_3.bmp	horseshoe_4.bmp	cake_5.bmp	cake_3.bmp	cake_4.bmp	37	2	1	1	1	MUSIKWISSENSCHAFT
FAUST_1[2014-06]	128	3	12	2	3	2	1	3	2	1	1443	2	1	0	2025	4	2351	guitar_10.bmp	garbagecan_13.bmp	garbagecan_10.bmp	plant_13.bmp	garbagecan_8.bmp	plant_13.bmp	garbagecan_2.bmp	37	2	1	1	1	MUSIKWISSENSCHAFT
FAUST_1[2014-06]	128	3	11	2	3	1	1	3	1	0	2873	1	1	1	2278	3	2158	windchime_16.bmp	parfait_15.bmp	parfait_1.bmp	parfait_4.bmp	backpack_16.bmp	parfait_11.bmp	parfait_1.bmp	37	2	1	1	1	MUSIKWISSENSCHAFT
FAUST_1[2014-06]	128	3	31	2	3	2	1	3	1	0	1610	2	2	1	620	2	876	socks_10.bmp	laptop_7.bmp	bowlingpin_13.bmp	laptop_15.bmp	laptop_16.bmp	bowlingpin_13.bmp	laptop_14.bmp	37	2	1	1	1	MUSIKWISSENSCHAFT
FAUST_1[2014-06]	128	3	28	2	3	1	1	3	2	1	3172	1	2	0	775	3	3145	tricycle_5.bmp	remote_3.bmp	pasta_10.bmp	pasta_9.bmp	pasta_15.bmp	pasta_13.bmp	pasta_15.bmp	37	2	1	1	1	MUSIKWISSENSCHAFT
FAUST_1[2014-06]	128	3	26	2	3	2	1	3	2	1	2136	1	1	1	950	3	2996	hairdryer_13.bmp	beanbagchair_3.bmp	iceskates_5.bmp	beanbagchair_17.bmp	beanbagchair_14.bmp	iceskates_5.bmp	beanbagchair_12.bmp	37	2	1	1	1	MUSIKWISSENSCHAFT
FAUST_1[2014-06]	128	3	23	2	3	1	1	3	2	1	6980	2	2	1	943	3	2187	saddle_3.bmp	trumpet_5.bmp	trumpet_3.bmp	trumpet_1.bmp	cat_5.bmp	trumpet_1.bmp	trumpet_6.bmp	37	2	1	1	1	MUSIKWISSENSCHAFT
FAUST_1[2014-06]	128	3	19	2	3	2	1	3	2	1	1997	1	1	1	2145	4	3815	abacus_15.bmp	carriage_2.bmp	carriage_9.bmp	carriage_14.bmp	sofa_9.bmp	carriage_3.bmp	sofa_9.bmp	37	2	1	1	1	MUSIKWISSENSCHAFT
FAUST_1[2014-06]	128	4	10	2	2	1	1	1	2	0	1167	1	2	0	435	4	2592	Jigsaw14.bmp	Pen5.bmp	Pen1.bmp	Pen5.bmp	Jigsaw14.bmp	Pen17.bmp	Pen20.bmp	37	2	1	1	1	MUSIKWISSENSCHAFT
FAUST_1[2014-06]	128	4	11	2	2	2	1	1	2	0	1651	2	2	1	1881	4	1534	Scissors1.bmp	Scissors1.bmp	Apple24.bmp	Apple10.bmp	Scissors1.bmp	Apple18.bmp	Apple5.bmp	37	2	1	1	1	MUSIKWISSENSCHAFT
FAUST_1[2014-06]	128	4	4	2	2	1	2	1	1	1	2009	1	2	0	2664	3	2384	Star7.bmp	Lipstick15.bmp	Star1.bmp	Star2.bmp	Lipstick15.bmp	Star17.bmp	Star7.bmp	37	2	1	1	1	MUSIKWISSENSCHAFT
FAUST_1[2014-06]	128	4	14	2	2	2	2	1	1	1	2123	2	2	1	2573	2	2200	Hand17.bmp	Hand17.bmp	Hand8.bmp	Hand13.bmp	Bun5.bmp	Hand17.bmp	Hand1.bmp	37	2	1	1	1	MUSIKWISSENSCHAFT
FAUST_1[2014-06]	128	4	9	2	2	1	1	1	1	1	973	2	2	1	577	4	2333	Toothbrush1.bmp	Toothbrush1.bmp	Swirl1.bmp	Swirl13.bmp	Swirl23.bmp	Swirl5.bmp	Swirl23.bmp	37	2	1	1	1	MUSIKWISSENSCHAFT
FAUST_1[2014-06]	128	4	3	2	2	2	1	1	1	1	1796	-1	2	0	0	4	2574	Candle13.bmp	Candle13.bmp	Nut2.bmp	Nut11.bmp	Nut21.bmp	Nut18.bmp	Candle13.bmp	37	2	1	1	1	MUSIKWISSENSCHAFT
FAUST_1[2014-06]	128	4	15	2	2	1	2	1	1	1	1609	2	2	1	3317	3	1924	Glass3.bmp	Glass16.bmp	Coins14.bmp	Glass4.bmp	Coins14.bmp	Glass3.bmp	Glass12.bmp	37	2	1	1	1	MUSIKWISSENSCHAFT
FAUST_1[2014-06]	128	4	12	2	2	2	2	1	1	1	1688	2	2	1	2416	3	1980	Car21.bmp	Button20.bmp	Car12.bmp	Car21.bmp	Car7.bmp	Car21.bmp	Car14.bmp	37	2	1	1	1	MUSIKWISSENSCHAFT
FAUST_1[2014-06]	128	4	21	2	2	1	1	2	2	1	1530	2	1	0	1890	1	1734	Cake18.bmp	Flower14.bmp	Flower17.bmp	Cake24.bmp	Flower17.bmp	Flower13.bmp	Flower18.bmp	37	2	1	1	1	MUSIKWISSENSCHAFT
FAUST_1[2014-06]	128	4	20	2	2	2	1	2	2	1	2553	2	1	0	2257	3	4677	Ginger15.bmp	Ginger5.bmp	Pear4.bmp	Ginger5.bmp	Pear18.bmp	Pear7.bmp	Pear15.bmp	37	2	1	1	1	MUSIKWISSENSCHAFT
FAUST_1[2014-06]	128	4	6	2	2	1	2	2	2	1	1247	2	1	0	2573	1	2510	Daff9.bmp	Daff3.bmp	Daff1.bmp	Leaf13.bmp	Daff21.bmp	Leaf13.bmp	Daff22.bmp	37	2	1	1	1	MUSIKWISSENSCHAFT
FAUST_1[2014-06]	128	4	17	2	2	2	2	2	2	1	1800	-1	1	0	0	4	5008	Onion7.bmp	Onion18.bmp	Fork14.bmp	Onion19.bmp	Onion13.bmp	Onion19.bmp	Onion14.bmp	37	2	1	1	1	MUSIKWISSENSCHAFT
FAUST_1[2014-06]	128	4	8	2	2	1	1	2	1	0	1983	1	1	1	2782	1	2203	Bag3.bmp	Bag5.bmp	Paperclip14.bmp	Paperclip6.bmp	Paperclip13.bmp	Paperclip4.bmp	Paperclip13.bmp	37	2	1	1	1	MUSIKWISSENSCHAFT
FAUST_1[2014-06]	128	4	22	2	2	2	1	2	1	0	1664	1	1	1	2531	4	2384	Strawberry14.bmp	Stapler8.bmp	Stapler10.bmp	Strawberry21.bmp	Stapler7.bmp	Strawberry21.bmp	Stapler6.bmp	37	2	1	1	1	MUSIKWISSENSCHAFT
FAUST_1[2014-06]	128	4	19	2	2	1	2	2	2	1	894	2	1	0	258	2	3702	Varnish3.bmp	Screw10.bmp	Varnish5.bmp	Varnish17.bmp	Varnish11.bmp	Varnish14.bmp	Screw10.bmp	37	2	1	1	1	MUSIKWISSENSCHAFT
FAUST_1[2014-06]	128	4	16	2	2	2	2	2	1	0	2438	1	2	0	1080	4	1717	Brocolli14.bmp	Brocolli4.bmp	Present3.bmp	Brocolli10.bmp	Brocolli9.bmp	Brocolli19.bmp	Brocolli4.bmp	37	2	1	1	1	MUSIKWISSENSCHAFT
FAUST_1[2014-06]	128	4	5	2	2	1	1	3	1	0	2431	2	1	0	2324	3	2689	Fudge17.bmp	Hanger15.bmp	Hanger2.bmp	Hanger15.bmp	Hanger14.bmp	Hanger7.bmp	Chilli12.bmp	37	2	1	1	1	MUSIKWISSENSCHAFT
FAUST_1[2014-06]	128	4	2	2	2	2	1	3	2	1	1395	2	2	1	2250	3	1976	Sweet18.bmp	Holly17.bmp	Biscuit20.bmp	Biscuit9.bmp	Holly17.bmp	Biscuit4.bmp	Biscuit17.bmp	37	2	1	1	1	MUSIKWISSENSCHAFT
FAUST_1[2014-06]	128	4	18	2	2	1	1	3	2	1	2029	2	2	1	2226	1	2169	Shell5.bmp	Umbrella17.bmp	Umbrella6.bmp	Umbrella7.bmp	Umbrella17.bmp	Umbrella21.bmp	Bracelet18.bmp	37	2	1	1	1	MUSIKWISSENSCHAFT
FAUST_1[2014-06]	128	4	7	2	2	2	1	3	1	0	2670	-1	1	0	0	1	2870	Plug4.bmp	Mushroom18.bmp	Keys8.bmp	Keys5.bmp	Mushroom18.bmp	Keys6.bmp	Keys9.bmp	37	2	1	1	1	MUSIKWISSENSCHAFT
FAUST_1[2014-06]	128	4	13	2	2	1	1	3	2	1	1617	1	1	1	1434	3	2065	Key20.bmp	String2.bmp	String8.bmp	String12.bmp	Chocolate5.bmp	String6.bmp	String2.bmp	37	2	1	1	1	MUSIKWISSENSCHAFT
FAUST_1[2014-06]	128	4	1	2	2	2	1	3	1	0	1794	2	2	1	2814	1	5043	Man10.bmp	Tomato5.bmp	Feather14.bmp	Feather18.bmp	Feather11.bmp	Tomato5.bmp	Feather2.bmp	37	2	1	1	1	MUSIKWISSENSCHAFT
