experiment	subject	block	trial	order	material	repeated	related	probetype	response	correct	rt	math_response	math_correctresponse	math_correct	math_rt	confidence	confidence_rt	probe	item1	item2	item3	item4	item5	item6	age	sex	handedness	color_vision	mother_tongue	occupation
FAUST_1[2014-06]	12	1	5	3	2	1	1	1	1	1	2570	1	1	1	2055	2	2632	Varnish5.bmp	Daff9.bmp	Daff3.bmp	Varnish5.bmp	Daff21.bmp	Daff22.bmp	Daff21.bmp	21	1	1	1	1	STONDERPÄDAGOGIK
FAUST_1[2014-06]	12	1	10	3	2	2	1	1	1	1	1056	1	1	1	1301	3	1647	Man2.bmp	Hand1.bmp	Man2.bmp	Hand8.bmp	Hand13.bmp	Hand17.bmp	Man2.bmp	21	1	1	1	1	STONDERPÄDAGOGIK
FAUST_1[2014-06]	12	1	12	3	2	1	2	1	1	1	1134	2	1	0	1153	4	1500	Chocolate9.bmp	Chocolate17.bmp	Chocolate6.bmp	Chocolate9.bmp	Bun22.bmp	Chocolate24.bmp	Bun22.bmp	21	1	1	1	1	STONDERPÄDAGOGIK
FAUST_1[2014-06]	12	1	9	3	2	2	2	1	1	1	2492	2	1	0	1993	4	2486	Shell5.bmp	Shell5.bmp	Leaf15.bmp	Shell1.bmp	Shell5.bmp	Shell9.bmp	Shell17.bmp	21	1	1	1	1	STONDERPÄDAGOGIK
FAUST_1[2014-06]	12	1	4	3	2	1	1	1	1	1	1270	2	2	1	1737	4	1791	Candle10.bmp	Biscuit17.bmp	Biscuit25.bmp	Biscuit20.bmp	Candle10.bmp	Biscuit4.bmp	Biscuit25.bmp	21	1	1	1	1	STONDERPÄDAGOGIK
FAUST_1[2014-06]	12	1	1	3	2	2	1	1	1	1	1492	-1	2	0	0	4	2959	Ginger15.bmp	Flower13.bmp	Flower17.bmp	Ginger15.bmp	Flower3.bmp	Ginger15.bmp	Flower18.bmp	21	1	1	1	1	STONDERPÄDAGOGIK
FAUST_1[2014-06]	12	1	21	3	2	1	2	1	1	1	1217	1	2	0	825	3	1284	Holly17.bmp	Star2.bmp	Holly11.bmp	Holly3.bmp	Holly17.bmp	Star2.bmp	Holly20.bmp	21	1	1	1	1	STONDERPÄDAGOGIK
FAUST_1[2014-06]	12	1	19	3	2	2	2	1	1	1	1169	2	1	0	716	4	1810	Onion19.bmp	Onion7.bmp	Onion19.bmp	Onion18.bmp	Onion13.bmp	Onion19.bmp	Hanger2.bmp	21	1	1	1	1	STONDERPÄDAGOGIK
FAUST_1[2014-06]	12	1	14	3	2	1	1	2	2	1	2002	2	2	1	864	3	1450	Fork7.bmp	Coins10.bmp	Coins8.bmp	Fork14.bmp	Coins14.bmp	Coins3.bmp	Coins8.bmp	21	1	1	1	1	STONDERPÄDAGOGIK
FAUST_1[2014-06]	12	1	11	3	2	2	1	2	1	0	1424	1	1	1	947	4	1537	Toothbrush6.bmp	Toothbrush1.bmp	Car14.bmp	Car12.bmp	Car7.bmp	Toothbrush1.bmp	Car21.bmp	21	1	1	1	1	STONDERPÄDAGOGIK
FAUST_1[2014-06]	12	1	3	3	2	1	2	2	1	0	2101	2	2	1	1941	3	2505	Cake18.bmp	Apple21.bmp	Cake7.bmp	Cake16.bmp	Cake24.bmp	Apple21.bmp	Cake25.bmp	21	1	1	1	1	STONDERPÄDAGOGIK
FAUST_1[2014-06]	12	1	16	3	2	2	2	2	1	0	1454	2	2	1	1502	3	1488	Screw18.bmp	Bracelet2.bmp	Screw13.bmp	Screw16.bmp	Screw10.bmp	Screw9.bmp	Screw10.bmp	21	1	1	1	1	STONDERPÄDAGOGIK
FAUST_1[2014-06]	12	1	17	3	2	1	1	2	2	1	1425	2	2	1	763	3	1330	Pen10.bmp	Swirl10.bmp	Swirl1.bmp	Pen5.bmp	Swirl10.bmp	Swirl13.bmp	Swirl5.bmp	21	1	1	1	1	STONDERPÄDAGOGIK
FAUST_1[2014-06]	12	1	22	3	2	2	1	2	1	0	1197	2	1	0	962	4	1349	Tomato2.bmp	Tomato5.bmp	Sweet25.bmp	Sweet22.bmp	Sweet1.bmp	Tomato5.bmp	Sweet10.bmp	21	1	1	1	1	STONDERPÄDAGOGIK
FAUST_1[2014-06]	12	1	8	3	2	1	2	2	1	0	1906	1	1	1	1021	4	1561	Bag5.bmp	Bag25.bmp	Bag3.bmp	Bag21.bmp	Glass19.bmp	Bag4.bmp	Glass19.bmp	21	1	1	1	1	STONDERPÄDAGOGIK
FAUST_1[2014-06]	12	1	15	3	2	2	2	2	2	1	1644	2	1	0	528	3	1810	Strawberry3.bmp	Strawberry21.bmp	Chilli19.bmp	Strawberry18.bmp	Strawberry4.bmp	Strawberry18.bmp	Strawberry14.bmp	21	1	1	1	1	STONDERPÄDAGOGIK
FAUST_1[2014-06]	12	1	2	3	2	1	1	3	2	1	1265	1	1	1	2639	4	2098	Key20.bmp	Plug18.bmp	Plug4.bmp	Plug8.bmp	Present3.bmp	Plug4.bmp	Plug9.bmp	21	1	1	1	1	STONDERPÄDAGOGIK
FAUST_1[2014-06]	12	1	13	3	2	2	1	3	1	0	1063	1	1	1	703	1	2442	Brocolli14.bmp	Fudge8.bmp	Fudge15.bmp	Fudge20.bmp	Button10.bmp	Fudge5.bmp	Button10.bmp	21	1	1	1	1	STONDERPÄDAGOGIK
FAUST_1[2014-06]	12	1	6	3	2	1	1	3	2	1	2214	2	2	1	1433	4	2244	Jigsaw11.bmp	Stapler10.bmp	Stapler6.bmp	Keys6.bmp	Stapler9.bmp	Stapler6.bmp	Stapler7.bmp	21	1	1	1	1	STONDERPÄDAGOGIK
FAUST_1[2014-06]	12	1	18	3	2	2	1	3	2	1	1288	2	1	0	1078	4	1449	Scissors3.bmp	String8.bmp	Nut19.bmp	Nut18.bmp	Nut11.bmp	String8.bmp	Nut2.bmp	21	1	1	1	1	STONDERPÄDAGOGIK
FAUST_1[2014-06]	12	1	7	3	2	1	1	3	2	1	1210	2	2	1	1399	4	1693	Feather12.bmp	Umbrella19.bmp	Lipstick3.bmp	Umbrella19.bmp	Umbrella21.bmp	Umbrella6.bmp	Umbrella7.bmp	21	1	1	1	1	STONDERPÄDAGOGIK
FAUST_1[2014-06]	12	1	20	3	2	2	1	3	2	1	1471	2	2	1	1010	4	1543	Mushroom25.bmp	Paperclip9.bmp	Pear4.bmp	Paperclip9.bmp	Pear16.bmp	Pear18.bmp	Pear7.bmp	21	1	1	1	1	STONDERPÄDAGOGIK
FAUST_1[2014-06]	12	2	11	3	3	1	1	1	1	1	1437	1	2	0	682	3	1407	carriage_14.bmp	glasses_13.bmp	glasses_9.bmp	glasses_8.bmp	glasses_6.bmp	glasses_8.bmp	carriage_14.bmp	21	1	1	1	1	STONDERPÄDAGOGIK
FAUST_1[2014-06]	12	2	26	3	3	2	1	1	2	0	1182	1	2	0	470	2	855	fan_11.bmp	fan_11.bmp	horseshoe_4.bmp	horseshoe_3.bmp	horseshoe_12.bmp	fan_11.bmp	horseshoe_5.bmp	21	1	1	1	1	STONDERPÄDAGOGIK
FAUST_1[2014-06]	12	2	20	3	3	1	2	1	2	0	1246	2	2	1	424	2	1588	flashlight_17.bmp	watergun_7.bmp	flashlight_1.bmp	flashlight_17.bmp	flashlight_12.bmp	flashlight_13.bmp	watergun_7.bmp	21	1	1	1	1	STONDERPÄDAGOGIK
FAUST_1[2014-06]	12	2	16	3	3	2	2	1	1	1	1193	1	1	1	1100	4	1059	iceskates_14.bmp	iceskates_14.bmp	iceskates_16.bmp	cake_1.bmp	iceskates_7.bmp	iceskates_5.bmp	iceskates_14.bmp	21	1	1	1	1	STONDERPÄDAGOGIK
FAUST_1[2014-06]	12	2	10	3	3	1	1	1	1	1	1404	2	2	1	1014	4	965	rollerskates_5.bmp	cat_10.bmp	cat_4.bmp	cat_9.bmp	cat_4.bmp	cat_1.bmp	rollerskates_5.bmp	21	1	1	1	1	STONDERPÄDAGOGIK
FAUST_1[2014-06]	12	2	3	3	3	2	1	1	1	1	1236	2	1	0	2002	4	920	beanbagchair_3.bmp	beanbagchair_3.bmp	circuitboard_16.bmp	circuitboard_4.bmp	circuitboard_8.bmp	circuitboard_2.bmp	beanbagchair_3.bmp	21	1	1	1	1	STONDERPÄDAGOGIK
FAUST_1[2014-06]	12	2	2	3	3	1	2	1	1	1	1232	1	2	0	730	4	1261	windchime_16.bmp	speaker_17.bmp	windchime_10.bmp	windchime_16.bmp	windchime_15.bmp	speaker_17.bmp	windchime_3.bmp	21	1	1	1	1	STONDERPÄDAGOGIK
FAUST_1[2014-06]	12	2	14	3	3	2	2	1	1	1	1425	1	1	1	689	4	1718	parfait_11.bmp	parfait_11.bmp	parfait_13.bmp	parfait_15.bmp	parfait_1.bmp	watch_14.bmp	parfait_11.bmp	21	1	1	1	1	STONDERPÄDAGOGIK
FAUST_1[2014-06]	12	2	13	3	3	1	1	1	2	0	1482	2	1	0	434	3	2052	skateboard_15.bmp	glove_8.bmp	glove_15.bmp	glove_10.bmp	glove_8.bmp	skateboard_15.bmp	glove_5.bmp	21	1	1	1	1	STONDERPÄDAGOGIK
FAUST_1[2014-06]	12	2	27	3	3	2	1	1	1	1	1191	1	2	0	446	4	1028	coffee_2.bmp	shredder_5.bmp	coffee_2.bmp	shredder_7.bmp	shredder_15.bmp	coffee_2.bmp	shredder_1.bmp	21	1	1	1	1	STONDERPÄDAGOGIK
FAUST_1[2014-06]	12	2	7	3	3	1	2	1	1	1	1197	2	1	0	1091	4	963	lawnmower_3.bmp	rusdoll_6.bmp	lawnmower_15.bmp	rusdoll_6.bmp	lawnmower_17.bmp	lawnmower_3.bmp	lawnmower_13.bmp	21	1	1	1	1	STONDERPÄDAGOGIK
FAUST_1[2014-06]	12	2	9	3	3	2	2	1	1	1	1032	2	2	1	599	4	854	vase_1.bmp	tricycle_15.bmp	vase_1.bmp	vase_5.bmp	vase_15.bmp	vase_1.bmp	vase_13.bmp	21	1	1	1	1	STONDERPÄDAGOGIK
FAUST_1[2014-06]	12	2	6	3	3	1	1	2	1	0	3983	2	2	1	1119	3	1955	plant_2.bmp	scooter_10.bmp	scooter_5.bmp	scooter_11.bmp	scooter_4.bmp	scooter_11.bmp	plant_14.bmp	21	1	1	1	1	STONDERPÄDAGOGIK
FAUST_1[2014-06]	12	2	4	3	3	2	1	2	2	1	1207	2	1	0	772	4	1129	tv_5.bmp	doorknob_17.bmp	doorknob_14.bmp	tv_4.bmp	doorknob_2.bmp	doorknob_7.bmp	tv_4.bmp	21	1	1	1	1	STONDERPÄDAGOGIK
FAUST_1[2014-06]	12	2	31	3	3	1	2	2	2	1	1165	1	2	0	622	2	976	powerstrip_14.bmp	orifan_14.bmp	powerstrip_13.bmp	powerstrip_10.bmp	powerstrip_7.bmp	powerstrip_8.bmp	orifan_14.bmp	21	1	1	1	1	STONDERPÄDAGOGIK
FAUST_1[2014-06]	12	2	12	3	3	2	2	2	1	0	1113	1	1	1	885	4	1797	chair_2.bmp	chair_11.bmp	chair_16.bmp	chair_3.bmp	abacus_4.bmp	chair_5.bmp	chair_11.bmp	21	1	1	1	1	STONDERPÄDAGOGIK
FAUST_1[2014-06]	12	2	32	3	3	1	1	2	2	1	1129	1	2	0	788	3	1008	sofa_13.bmp	camera_6.bmp	sofa_6.bmp	camera_4.bmp	camera_3.bmp	camera_9.bmp	camera_6.bmp	21	1	1	1	1	STONDERPÄDAGOGIK
FAUST_1[2014-06]	12	2	15	3	3	2	1	2	1	0	1161	1	1	1	831	3	1292	backpack_10.bmp	trophy_4.bmp	trophy_6.bmp	trophy_16.bmp	backpack_13.bmp	trophy_15.bmp	backpack_13.bmp	21	1	1	1	1	STONDERPÄDAGOGIK
FAUST_1[2014-06]	12	2	1	3	3	1	2	2	1	0	1222	2	2	1	902	4	1691	cheesegrater_15.bmp	highchair_4.bmp	cheesegrater_14.bmp	cheesegrater_8.bmp	cheesegrater_5.bmp	cheesegrater_11.bmp	highchair_4.bmp	21	1	1	1	1	STONDERPÄDAGOGIK
FAUST_1[2014-06]	12	2	22	3	3	2	2	2	2	1	1234	1	2	0	378	1	752	hairbrush_15.bmp	hairbrush_16.bmp	hairbrush_17.bmp	hairbrush_16.bmp	hairbrush_7.bmp	hairbrush_12.bmp	garbagecan_10.bmp	21	1	1	1	1	STONDERPÄDAGOGIK
FAUST_1[2014-06]	12	2	29	3	3	1	1	2	1	0	1170	1	2	0	651	1	1312	wig_6.bmp	pasta_11.bmp	pasta_13.bmp	pasta_9.bmp	pasta_10.bmp	pasta_9.bmp	wig_12.bmp	21	1	1	1	1	STONDERPÄDAGOGIK
FAUST_1[2014-06]	12	2	18	3	3	2	1	2	1	0	1600	1	1	1	526	1	1351	mic_3.bmp	saltpeppershake_12.bmp	saltpeppershake_9.bmp	mic_5.bmp	saltpeppershake_8.bmp	saltpeppershake_17.bmp	mic_5.bmp	21	1	1	1	1	STONDERPÄDAGOGIK
FAUST_1[2014-06]	12	2	25	3	3	1	2	2	1	0	893	1	1	1	491	4	1994	ring_12.bmp	ring_8.bmp	trunk_2.bmp	ring_11.bmp	ring_15.bmp	ring_7.bmp	trunk_2.bmp	21	1	1	1	1	STONDERPÄDAGOGIK
FAUST_1[2014-06]	12	2	28	3	3	2	2	2	1	0	1104	2	2	1	751	3	1247	remote_11.bmp	remote_14.bmp	videogamecontroller_13.bmp	remote_3.bmp	remote_13.bmp	remote_2.bmp	remote_13.bmp	21	1	1	1	1	STONDERPÄDAGOGIK
FAUST_1[2014-06]	12	2	23	3	3	1	1	3	2	1	1030	2	2	1	379	4	842	guitar_7.bmp	hairdryer_2.bmp	babycrib_7.bmp	babycrib_2.bmp	babycrib_6.bmp	babycrib_9.bmp	babycrib_2.bmp	21	1	1	1	1	STONDERPÄDAGOGIK
FAUST_1[2014-06]	12	2	5	3	3	2	1	3	2	1	930	2	2	1	1308	4	726	bowlingpin_13.bmp	birdhouse_11.bmp	carabiner_5.bmp	carabiner_7.bmp	carabiner_6.bmp	birdhouse_11.bmp	carabiner_2.bmp	21	1	1	1	1	STONDERPÄDAGOGIK
FAUST_1[2014-06]	12	2	8	3	3	1	1	3	2	1	790	1	1	1	959	4	1333	bagel_4.bmp	cherubstatue_11.bmp	cherubstatue_12.bmp	cherubstatue_6.bmp	cherubstatue_12.bmp	cherubstatue_10.bmp	jacket_13.bmp	21	1	1	1	1	STONDERPÄDAGOGIK
FAUST_1[2014-06]	12	2	21	3	3	2	1	3	2	1	1459	2	2	1	532	2	1013	hammer_8.bmp	printer_1.bmp	socks_10.bmp	socks_15.bmp	socks_12.bmp	socks_13.bmp	printer_1.bmp	21	1	1	1	1	STONDERPÄDAGOGIK
FAUST_1[2014-06]	12	2	30	3	3	1	1	3	2	1	828	2	2	1	649	4	1258	sink_15.bmp	easteregg_14.bmp	easteregg_9.bmp	doorknocker_11.bmp	easteregg_17.bmp	easteregg_16.bmp	easteregg_9.bmp	21	1	1	1	1	STONDERPÄDAGOGIK
FAUST_1[2014-06]	12	2	19	3	3	2	1	3	2	1	738	1	1	1	712	4	835	leatherman_2.bmp	goggle_3.bmp	router_5.bmp	router_16.bmp	router_6.bmp	router_7.bmp	goggle_3.bmp	21	1	1	1	1	STONDERPÄDAGOGIK
FAUST_1[2014-06]	12	2	24	3	3	1	1	3	2	1	1083	2	1	0	620	4	799	shoe_17.bmp	trumpet_1.bmp	trumpet_5.bmp	saddle_15.bmp	trumpet_6.bmp	trumpet_17.bmp	trumpet_1.bmp	21	1	1	1	1	STONDERPÄDAGOGIK
FAUST_1[2014-06]	12	2	17	3	3	2	1	3	2	1	914	1	1	1	712	4	1409	turtle_6.bmp	laptop_15.bmp	cellphone_4.bmp	laptop_7.bmp	laptop_14.bmp	laptop_16.bmp	cellphone_4.bmp	21	1	1	1	1	STONDERPÄDAGOGIK
FAUST_1[2014-06]	12	3	1	3	1	1	1	1	1	1	1697	1	1	1	1156	4	1863	MÜNCHEN	rose	münchen	lilie	veilchen	tulpe	veilchen	21	1	1	1	1	STONDERPÄDAGOGIK
FAUST_1[2014-06]	12	3	11	3	1	2	1	1	2	0	873	1	2	0	1142	4	841	TISCH	benzin	petroleum	tisch	diesel	bleifrei	tisch	21	1	1	1	1	STONDERPÄDAGOGIK
FAUST_1[2014-06]	12	3	31	3	1	1	2	1	1	1	1143	1	2	0	507	4	773	REGEN	stunde	hagel	nebel	stunde	regen	sonnenschein	21	1	1	1	1	STONDERPÄDAGOGIK
FAUST_1[2014-06]	12	3	14	3	1	2	2	1	1	1	1363	2	1	0	2258	4	742	BUCH	buch	internet	hering	buch	fernsehen	radio	21	1	1	1	1	STONDERPÄDAGOGIK
FAUST_1[2014-06]	12	3	27	3	1	1	1	1	2	0	1546	1	1	1	1075	2	1281	SAUERSTOFF	kreis	quadrat	viereck	sauerstoff	viereck	rechteck	21	1	1	1	1	STONDERPÄDAGOGIK
FAUST_1[2014-06]	12	3	30	3	1	2	1	1	2	0	982	1	2	0	825	2	933	JACKE	jacke	adverb	präposition	verb	nomen	jacke	21	1	1	1	1	STONDERPÄDAGOGIK
FAUST_1[2014-06]	12	3	5	3	1	1	2	1	1	1	2037	1	2	0	837	4	892	SYNAGOGE	nordamerika	tempel	nordamerika	moschee	kirche	synagoge	21	1	1	1	1	STONDERPÄDAGOGIK
FAUST_1[2014-06]	12	3	7	3	1	2	2	1	1	1	1382	1	1	1	1674	4	761	PFANNENWENDER	backform	pfannenwender	tomaten	pfannenwender	nudelholz	backblech	21	1	1	1	1	STONDERPÄDAGOGIK
FAUST_1[2014-06]	12	3	4	3	1	1	1	1	2	0	1137	2	2	1	956	1	1786	FLASCHE	dolch	bombe	schwert	flasche	pistole	bombe	21	1	1	1	1	STONDERPÄDAGOGIK
FAUST_1[2014-06]	12	3	2	3	1	2	1	1	1	1	1202	1	1	1	973	4	695	CHEMIE	steinbock	chemie	zwilling	jungfrau	chemie	wassermann	21	1	1	1	1	STONDERPÄDAGOGIK
FAUST_1[2014-06]	12	3	6	3	1	1	2	1	2	0	2011	1	2	0	1562	1	916	FUßBALL	skifahren	stricknadel	fußball	stricknadel	golf	tennis	21	1	1	1	1	STONDERPÄDAGOGIK
FAUST_1[2014-06]	12	3	20	3	1	2	2	1	1	1	1205	1	2	0	1114	4	923	CENT	theater	euro	pfennig	cent	mark	cent	21	1	1	1	1	STONDERPÄDAGOGIK
FAUST_1[2014-06]	12	3	19	3	1	1	1	2	2	1	1021	1	2	0	1194	4	980	WESPE	mücke	pfarrer	arzt	lehrer	polizist	lehrer	21	1	1	1	1	STONDERPÄDAGOGIK
FAUST_1[2014-06]	12	3	15	3	1	2	1	2	1	0	1353	2	2	1	1162	3	1073	HAFER	mops	weizen	dogge	schäferhund	weizen	dackel	21	1	1	1	1	STONDERPÄDAGOGIK
FAUST_1[2014-06]	12	3	23	3	1	1	2	2	2	1	1988	1	2	0	1235	4	817	WERWOLF	tiger	hexe	zombie	tiger	vampir	dämon	21	1	1	1	1	STONDERPÄDAGOGIK
FAUST_1[2014-06]	12	3	21	3	1	2	2	2	2	1	1603	1	2	0	1314	4	1064	CHACHACHA	foxtrott	walzer	rumba	haschisch	tango	walzer	21	1	1	1	1	STONDERPÄDAGOGIK
FAUST_1[2014-06]	12	3	9	3	1	1	1	2	2	1	1013	1	2	0	806	4	1065	HERZOG	lunge	niere	graf	niere	herz	leber	21	1	1	1	1	STONDERPÄDAGOGIK
FAUST_1[2014-06]	12	3	24	3	1	2	1	2	2	1	1192	2	1	0	587	4	887	POSAUNE	flöte	scrabble	monopoly	schach	flöte	halma	21	1	1	1	1	STONDERPÄDAGOGIK
FAUST_1[2014-06]	12	3	3	3	1	1	2	2	2	1	2419	2	1	0	874	3	1393	RUM	whiskey	yacht	wodka	gin	tequila	yacht	21	1	1	1	1	STONDERPÄDAGOGIK
FAUST_1[2014-06]	12	3	8	3	1	2	2	2	2	1	1622	2	1	0	1478	4	998	WIMPERNTUSCHE	lidschatten	kajal	lippenstift	rückspiegel	lippenstift	rouge	21	1	1	1	1	STONDERPÄDAGOGIK
FAUST_1[2014-06]	12	3	26	3	1	1	1	2	2	1	1088	2	2	1	1984	3	610	MEILE	main	elbe	zentimeter	main	donau	weser	21	1	1	1	1	STONDERPÄDAGOGIK
FAUST_1[2014-06]	12	3	18	3	1	2	1	2	2	1	1003	2	1	0	538	4	917	MAJORAN	koriander	buche	eiche	tanne	birke	koriander	21	1	1	1	1	STONDERPÄDAGOGIK
FAUST_1[2014-06]	12	3	28	3	1	1	2	2	2	1	1264	1	2	0	662	2	1430	HESSEN	brandenburg	mutter	saarland	thüringen	sachsen	mutter	21	1	1	1	1	STONDERPÄDAGOGIK
FAUST_1[2014-06]	12	3	25	3	1	2	2	2	2	1	2265	1	2	0	832	1	1827	GYMNASIUM	berufsschule	füller	gesamtschule	realschule	hauptschule	realschule	21	1	1	1	1	STONDERPÄDAGOGIK
FAUST_1[2014-06]	12	3	22	3	1	1	1	3	2	1	1698	2	2	1	743	4	805	GRÜN	angst	locher	büroklammer	brieföffner	klebeband	brieföffner	21	1	1	1	1	STONDERPÄDAGOGIK
FAUST_1[2014-06]	12	3	32	3	1	2	1	3	2	1	1155	1	2	0	1419	4	755	BRONZE	teich	fluss	erdbeere	see	ozean	erdbeere	21	1	1	1	1	STONDERPÄDAGOGIK
FAUST_1[2014-06]	12	3	13	3	1	1	1	3	2	1	1123	2	1	0	1186	4	735	WOLLE	säge	baracke	hammer	bohrer	zange	hammer	21	1	1	1	1	STONDERPÄDAGOGIK
FAUST_1[2014-06]	12	3	12	3	1	2	1	3	2	1	766	2	2	1	930	4	958	VOLVO	österreich	kopf	arm	österreich	bein	hand	21	1	1	1	1	STONDERPÄDAGOGIK
FAUST_1[2014-06]	12	3	10	3	1	1	1	3	2	1	1092	2	2	1	909	4	882	BROTMESSER	bus	taxi	fahrrad	zug	hören	fahrrad	21	1	1	1	1	STONDERPÄDAGOGIK
FAUST_1[2014-06]	12	3	16	3	1	2	1	3	2	1	925	1	1	1	1396	4	958	DÖNER	drucker	taube	laptop	kamera	taube	computer	21	1	1	1	1	STONDERPÄDAGOGIK
FAUST_1[2014-06]	12	3	29	3	1	1	1	3	2	1	874	2	2	1	2134	4	741	GRIPPE	marzipan	bonbons	lakritz	marzipan	western	karamell	21	1	1	1	1	STONDERPÄDAGOGIK
FAUST_1[2014-06]	12	3	17	3	1	2	1	3	2	1	890	1	1	1	914	4	667	MOZART	schreiben	basteln	jupiter	lesen	malen	jupiter	21	1	1	1	1	STONDERPÄDAGOGIK
FAUST_1[2014-06]	12	2	21	3	2	1	1	1	1	1	1223	2	2	1	1037	3	1012	Leaf15.bmp	Chocolate5.bmp	Chocolate9.bmp	Chocolate17.bmp	Leaf15.bmp	Chocolate24.bmp	Chocolate5.bmp	21	1	1	1	1	STONDERPÄDAGOGIK
FAUST_1[2014-06]	12	2	12	3	2	2	1	1	1	1	1549	1	1	1	507	4	956	Chilli11.bmp	Bun5.bmp	Chilli11.bmp	Bun17.bmp	Bun12.bmp	Chilli11.bmp	Bun19.bmp	21	1	1	1	1	STONDERPÄDAGOGIK
FAUST_1[2014-06]	12	2	1	3	2	1	2	1	1	1	1182	1	1	1	990	4	1032	Apple21.bmp	Apple21.bmp	Cake24.bmp	Apple18.bmp	Apple10.bmp	Apple24.bmp	Cake24.bmp	21	1	1	1	1	STONDERPÄDAGOGIK
FAUST_1[2014-06]	12	2	5	3	2	2	2	1	1	1	2358	1	2	0	3069	4	2018	Paperclip14.bmp	Paperclip6.bmp	Paperclip14.bmp	Paperclip4.bmp	Paperclip9.bmp	Paperclip14.bmp	Onion7.bmp	21	1	1	1	1	STONDERPÄDAGOGIK
FAUST_1[2014-06]	12	2	22	3	2	1	1	1	1	1	1909	1	1	1	1284	4	1174	Jigsaw17.bmp	Candle20.bmp	Candle10.bmp	Candle1.bmp	Candle20.bmp	Candle13.bmp	Jigsaw17.bmp	21	1	1	1	1	STONDERPÄDAGOGIK
FAUST_1[2014-06]	12	2	9	3	2	2	1	1	1	1	1224	1	1	1	877	4	784	Holly14.bmp	Holly14.bmp	Flower18.bmp	Flower13.bmp	Flower3.bmp	Holly14.bmp	Flower17.bmp	21	1	1	1	1	STONDERPÄDAGOGIK
FAUST_1[2014-06]	12	2	19	3	2	1	2	1	1	1	994	1	1	1	1711	4	592	Keys6.bmp	Keys9.bmp	Keys6.bmp	Plug4.bmp	Keys7.bmp	Keys5.bmp	Plug4.bmp	21	1	1	1	1	STONDERPÄDAGOGIK
FAUST_1[2014-06]	12	2	14	3	2	2	2	1	1	1	1194	1	1	1	754	4	1068	Screw16.bmp	Screw18.bmp	Feather11.bmp	Screw10.bmp	Screw16.bmp	Screw9.bmp	Screw16.bmp	21	1	1	1	1	STONDERPÄDAGOGIK
FAUST_1[2014-06]	12	2	10	3	2	1	1	2	2	1	1372	2	1	0	709	3	969	Scissors1.bmp	Car7.bmp	Car21.bmp	Scissors11.bmp	Car7.bmp	Car13.bmp	Car12.bmp	21	1	1	1	1	STONDERPÄDAGOGIK
FAUST_1[2014-06]	12	2	3	3	2	2	1	2	2	1	1323	1	1	1	890	4	911	Button14.bmp	Coins14.bmp	Button10.bmp	Coins10.bmp	Button10.bmp	Coins8.bmp	Coins12.bmp	21	1	1	1	1	STONDERPÄDAGOGIK
FAUST_1[2014-06]	12	2	17	3	2	1	2	2	1	0	1586	1	2	0	398	4	1020	Nut2.bmp	Nut19.bmp	Swirl5.bmp	Nut18.bmp	Swirl5.bmp	Nut11.bmp	Nut21.bmp	21	1	1	1	1	STONDERPÄDAGOGIK
FAUST_1[2014-06]	12	2	8	3	2	2	2	2	2	1	995	2	1	0	1026	2	893	Sweet18.bmp	Sweet22.bmp	Sweet10.bmp	Sweet25.bmp	Sweet1.bmp	Man4.bmp	Sweet25.bmp	21	1	1	1	1	STONDERPÄDAGOGIK
FAUST_1[2014-06]	12	2	15	3	2	1	1	2	1	0	1096	1	1	1	1982	3	1426	Pear4.bmp	Stapler6.bmp	Stapler10.bmp	Stapler8.bmp	Pear18.bmp	Stapler6.bmp	Stapler7.bmp	21	1	1	1	1	STONDERPÄDAGOGIK
FAUST_1[2014-06]	12	2	4	3	2	2	1	2	1	0	1260	1	2	0	375	2	797	Fudge15.bmp	Daff3.bmp	Daff1.bmp	Daff9.bmp	Fudge17.bmp	Daff21.bmp	Fudge17.bmp	21	1	1	1	1	STONDERPÄDAGOGIK
FAUST_1[2014-06]	12	2	13	3	2	1	2	2	1	0	1088	1	1	1	1409	4	1343	Mushroom6.bmp	Mushroom7.bmp	Hanger12.bmp	Mushroom25.bmp	Mushroom18.bmp	Hanger12.bmp	Mushroom14.bmp	21	1	1	1	1	STONDERPÄDAGOGIK
FAUST_1[2014-06]	12	2	18	3	2	2	2	2	1	0	1318	2	1	0	1032	4	936	Umbrella21.bmp	Umbrella7.bmp	Umbrella19.bmp	Umbrella7.bmp	Shell17.bmp	Umbrella17.bmp	Umbrella6.bmp	21	1	1	1	1	STONDERPÄDAGOGIK
FAUST_1[2014-06]	12	2	20	3	2	1	1	3	1	0	1258	2	1	0	888	1	962	Lipstick15.bmp	Varnish3.bmp	Fork17.bmp	Varnish14.bmp	Varnish11.bmp	Varnish5.bmp	Varnish11.bmp	21	1	1	1	1	STONDERPÄDAGOGIK
FAUST_1[2014-06]	12	2	16	3	2	2	1	3	2	1	1120	1	1	1	1003	4	975	Pen17.bmp	Hand17.bmp	Biscuit17.bmp	Biscuit25.bmp	Biscuit20.bmp	Hand17.bmp	Biscuit4.bmp	21	1	1	1	1	STONDERPÄDAGOGIK
FAUST_1[2014-06]	12	2	11	3	2	1	1	3	1	0	1301	2	1	0	547	1	1290	String12.bmp	Ginger10.bmp	Strawberry18.bmp	Ginger5.bmp	Ginger10.bmp	Ginger3.bmp	Ginger15.bmp	21	1	1	1	1	STONDERPÄDAGOGIK
FAUST_1[2014-06]	12	2	2	3	2	2	1	3	1	0	1229	1	2	0	950	1	1267	Toothbrush6.bmp	Brocolli4.bmp	Present14.bmp	Brocolli4.bmp	Present2.bmp	Present9.bmp	Present3.bmp	21	1	1	1	1	STONDERPÄDAGOGIK
FAUST_1[2014-06]	12	2	7	3	2	1	1	3	2	1	1003	2	1	0	589	4	572	Bag3.bmp	Tomato3.bmp	Star7.bmp	Star19.bmp	Star1.bmp	Star17.bmp	Star19.bmp	21	1	1	1	1	STONDERPÄDAGOGIK
FAUST_1[2014-06]	12	2	6	3	2	2	1	3	2	1	1281	2	1	0	937	4	1067	Key20.bmp	Glass3.bmp	Glass19.bmp	Glass12.bmp	Bracelet18.bmp	Glass16.bmp	Bracelet18.bmp	21	1	1	1	1	STONDERPÄDAGOGIK
FAUST_1[2014-06]	12	3	15	3	3	1	1	1	1	1	1161	2	2	1	596	4	767	mic_5.bmp	jacket_11.bmp	mic_5.bmp	jacket_7.bmp	jacket_13.bmp	jacket_11.bmp	jacket_10.bmp	21	1	1	1	1	STONDERPÄDAGOGIK
FAUST_1[2014-06]	12	3	2	3	3	2	1	1	1	1	1227	1	2	0	1089	4	802	doorknocker_2.bmp	coffee_15.bmp	coffee_1.bmp	coffee_2.bmp	doorknocker_2.bmp	coffee_14.bmp	doorknocker_2.bmp	21	1	1	1	1	STONDERPÄDAGOGIK
FAUST_1[2014-06]	12	3	30	3	3	1	2	1	2	0	999	2	2	1	868	1	1072	backpack_12.bmp	backpack_10.bmp	flashlight_2.bmp	backpack_13.bmp	backpack_12.bmp	flashlight_2.bmp	backpack_16.bmp	21	1	1	1	1	STONDERPÄDAGOGIK
FAUST_1[2014-06]	12	3	6	3	3	2	2	1	1	1	1106	1	2	0	866	4	941	camera_4.bmp	camera_4.bmp	camera_9.bmp	camera_7.bmp	saddle_5.bmp	camera_6.bmp	camera_4.bmp	21	1	1	1	1	STONDERPÄDAGOGIK
FAUST_1[2014-06]	12	3	7	3	3	1	1	1	1	1	1210	2	1	0	1060	3	1135	powerstrip_8.bmp	powerstrip_8.bmp	wig_6.bmp	wig_1.bmp	wig_9.bmp	wig_6.bmp	wig_12.bmp	21	1	1	1	1	STONDERPÄDAGOGIK
FAUST_1[2014-06]	12	3	26	3	3	2	1	1	1	1	1183	2	2	1	111	4	1186	windchime_10.bmp	circuitboard_13.bmp	circuitboard_2.bmp	circuitboard_16.bmp	windchime_10.bmp	circuitboard_8.bmp	windchime_10.bmp	21	1	1	1	1	STONDERPÄDAGOGIK
FAUST_1[2014-06]	12	3	4	3	3	1	2	1	1	1	1274	1	1	1	1717	4	863	plant_14.bmp	plant_14.bmp	goggle_4.bmp	plant_5.bmp	plant_2.bmp	plant_8.bmp	goggle_4.bmp	21	1	1	1	1	STONDERPÄDAGOGIK
FAUST_1[2014-06]	12	3	23	3	3	2	2	1	1	1	1101	2	2	1	533	4	640	turtle_6.bmp	turtle_11.bmp	turtle_12.bmp	turtle_6.bmp	turtle_7.bmp	ring_11.bmp	turtle_6.bmp	21	1	1	1	1	STONDERPÄDAGOGIK
FAUST_1[2014-06]	12	3	21	3	3	1	1	1	2	0	1046	1	2	0	446	1	979	carriage_2.bmp	laptop_7.bmp	laptop_16.bmp	laptop_10.bmp	laptop_7.bmp	carriage_2.bmp	laptop_15.bmp	21	1	1	1	1	STONDERPÄDAGOGIK
FAUST_1[2014-06]	12	3	8	3	3	2	1	1	1	1	1106	1	1	1	817	4	1352	birdhouse_11.bmp	leatherman_10.bmp	birdhouse_11.bmp	leatherman_7.bmp	leatherman_5.bmp	birdhouse_11.bmp	leatherman_2.bmp	21	1	1	1	1	STONDERPÄDAGOGIK
FAUST_1[2014-06]	12	3	27	3	3	1	2	1	2	0	623	2	2	1	870	2	601	rollerskates_8.bmp	rollerskates_2.bmp	rusdoll_6.bmp	rollerskates_7.bmp	rusdoll_6.bmp	rollerskates_8.bmp	rollerskates_17.bmp	21	1	1	1	1	STONDERPÄDAGOGIK
FAUST_1[2014-06]	12	3	5	3	3	2	2	1	1	1	872	1	1	1	1207	4	833	bowlingpin_13.bmp	bowlingpin_13.bmp	bowlingpin_11.bmp	vase_6.bmp	bowlingpin_13.bmp	bowlingpin_4.bmp	bowlingpin_1.bmp	21	1	1	1	1	STONDERPÄDAGOGIK
FAUST_1[2014-06]	12	3	28	3	3	1	1	2	2	1	1019	2	1	0	588	3	1446	cherubstatue_11.bmp	skateboard_16.bmp	cherubstatue_6.bmp	skateboard_3.bmp	skateboard_11.bmp	skateboard_3.bmp	skateboard_15.bmp	21	1	1	1	1	STONDERPÄDAGOGIK
FAUST_1[2014-06]	12	3	17	3	3	2	1	2	2	1	719	2	2	1	631	4	1169	printer_3.bmp	hairdryer_13.bmp	hairdryer_12.bmp	hairdryer_7.bmp	printer_16.bmp	hairdryer_14.bmp	printer_16.bmp	21	1	1	1	1	STONDERPÄDAGOGIK
FAUST_1[2014-06]	12	3	32	3	3	1	2	2	2	1	1877	2	2	1	1054	1	1768	cake_3.bmp	cake_14.bmp	cake_1.bmp	iceskates_16.bmp	cake_4.bmp	iceskates_16.bmp	cake_5.bmp	21	1	1	1	1	STONDERPÄDAGOGIK
FAUST_1[2014-06]	12	3	3	3	3	2	2	2	1	0	1053	2	1	0	865	4	824	garbagecan_13.bmp	garbagecan_2.bmp	garbagecan_17.bmp	garbagecan_10.bmp	shredder_5.bmp	garbagecan_10.bmp	garbagecan_8.bmp	21	1	1	1	1	STONDERPÄDAGOGIK
FAUST_1[2014-06]	12	3	31	3	3	1	1	2	2	1	812	1	2	0	808	1	1051	guitar_14.bmp	babycrib_2.bmp	babycrib_7.bmp	babycrib_2.bmp	babycrib_9.bmp	guitar_7.bmp	babycrib_5.bmp	21	1	1	1	1	STONDERPÄDAGOGIK
FAUST_1[2014-06]	12	3	22	3	3	2	1	2	1	0	917	1	2	0	633	2	691	tricycle_15.bmp	tricycle_10.bmp	cat_1.bmp	tricycle_10.bmp	cat_9.bmp	cat_10.bmp	cat_5.bmp	21	1	1	1	1	STONDERPÄDAGOGIK
FAUST_1[2014-06]	12	3	9	3	3	1	2	2	1	0	1042	1	2	0	841	4	945	parfait_11.bmp	parfait_1.bmp	doorknob_7.bmp	parfait_15.bmp	doorknob_7.bmp	parfait_13.bmp	parfait_4.bmp	21	1	1	1	1	STONDERPÄDAGOGIK
FAUST_1[2014-06]	12	3	14	3	3	2	2	2	1	0	1222	1	2	0	507	4	783	pasta_10.bmp	pasta_11.bmp	pasta_15.bmp	pasta_9.bmp	tv_16.bmp	pasta_13.bmp	pasta_9.bmp	21	1	1	1	1	STONDERPÄDAGOGIK
FAUST_1[2014-06]	12	3	13	3	3	1	1	2	1	0	929	1	1	1	524	3	1130	scooter_4.bmp	scooter_10.bmp	watch_6.bmp	watch_3.bmp	watch_14.bmp	watch_8.bmp	watch_14.bmp	21	1	1	1	1	STONDERPÄDAGOGIK
FAUST_1[2014-06]	12	3	1	3	3	2	1	2	1	0	1182	1	1	1	1076	4	697	orifan_1.bmp	orifan_14.bmp	videogamecontroller_13.bmp	videogamecontroller_5.bmp	videogamecontroller_3.bmp	orifan_14.bmp	videogamecontroller_2.bmp	21	1	1	1	1	STONDERPÄDAGOGIK
FAUST_1[2014-06]	12	3	24	3	3	1	2	2	1	0	963	1	1	1	804	4	722	trumpet_5.bmp	glasses_13.bmp	trumpet_6.bmp	glasses_13.bmp	trumpet_17.bmp	trumpet_1.bmp	trumpet_3.bmp	21	1	1	1	1	STONDERPÄDAGOGIK
FAUST_1[2014-06]	12	3	10	3	3	2	2	2	1	0	913	1	2	0	750	4	920	cheesegrater_11.bmp	cheesegrater_8.bmp	cheesegrater_15.bmp	cheesegrater_5.bmp	cheesegrater_14.bmp	remote_13.bmp	cheesegrater_8.bmp	21	1	1	1	1	STONDERPÄDAGOGIK
FAUST_1[2014-06]	12	3	11	3	3	1	1	3	2	1	1023	2	2	1	581	4	792	hairbrush_12.bmp	sink_11.bmp	sink_6.bmp	sink_10.bmp	sink_11.bmp	chair_16.bmp	sink_1.bmp	21	1	1	1	1	STONDERPÄDAGOGIK
FAUST_1[2014-06]	12	3	29	3	3	2	1	3	1	0	774	1	2	0	655	1	868	beanbagchair_17.bmp	highchair_10.bmp	highchair_3.bmp	speaker_6.bmp	highchair_4.bmp	speaker_6.bmp	highchair_15.bmp	21	1	1	1	1	STONDERPÄDAGOGIK
FAUST_1[2014-06]	12	3	25	3	3	1	1	3	2	1	979	1	2	0	512	4	1227	easteregg_9.bmp	trophy_16.bmp	trophy_4.bmp	trophy_14.bmp	watergun_3.bmp	trophy_6.bmp	trophy_4.bmp	21	1	1	1	1	STONDERPÄDAGOGIK
FAUST_1[2014-06]	12	3	16	3	3	2	1	3	2	1	696	1	2	0	766	4	801	sofa_6.bmp	fan_1.bmp	fan_11.bmp	bagel_16.bmp	fan_10.bmp	bagel_16.bmp	fan_17.bmp	21	1	1	1	1	STONDERPÄDAGOGIK
FAUST_1[2014-06]	12	3	20	3	3	1	1	3	2	1	754	2	1	0	605	4	980	abacus_4.bmp	carabiner_9.bmp	carabiner_2.bmp	carabiner_7.bmp	glove_10.bmp	carabiner_7.bmp	carabiner_6.bmp	21	1	1	1	1	STONDERPÄDAGOGIK
FAUST_1[2014-06]	12	3	12	3	3	2	1	3	2	1	919	1	1	1	1036	4	787	trunk_2.bmp	shoe_13.bmp	shoe_15.bmp	hammer_17.bmp	shoe_17.bmp	hammer_17.bmp	shoe_7.bmp	21	1	1	1	1	STONDERPÄDAGOGIK
FAUST_1[2014-06]	12	3	18	3	3	1	1	3	2	1	1046	1	2	0	1024	4	973	socks_4.bmp	router_6.bmp	horseshoe_5.bmp	router_16.bmp	router_6.bmp	router_5.bmp	router_12.bmp	21	1	1	1	1	STONDERPÄDAGOGIK
FAUST_1[2014-06]	12	3	19	3	3	2	1	3	1	0	1429	1	1	1	603	1	673	cellphone_12.bmp	lawnmower_13.bmp	saltpeppershake_8.bmp	saltpeppershake_9.bmp	lawnmower_13.bmp	saltpeppershake_2.bmp	saltpeppershake_17.bmp	21	1	1	1	1	STONDERPÄDAGOGIK
FAUST_1[2014-06]	12	4	5	3	1	1	1	1	1	1	1152	2	2	1	1824	3	1049	ROSMARIN	flanell	wolle	seide	baumwolle	flanell	rosmarin	21	1	1	1	1	STONDERPÄDAGOGIK
FAUST_1[2014-06]	12	4	15	3	1	2	1	1	1	1	1259	1	2	0	840	4	946	MÜNCHEN	könig	münchen	graf	münchen	fürst	kaiser	21	1	1	1	1	STONDERPÄDAGOGIK
FAUST_1[2014-06]	12	4	18	3	1	1	2	1	2	0	974	1	1	1	1548	3	1108	LILA	tulpe	blau	grün	rot	tulpe	lila	21	1	1	1	1	STONDERPÄDAGOGIK
FAUST_1[2014-06]	12	4	30	3	1	2	2	1	1	1	1032	2	2	1	1367	4	585	DÖNER	bratwurst	hamburger	döner	rumba	döner	pizza	21	1	1	1	1	STONDERPÄDAGOGIK
FAUST_1[2014-06]	12	4	31	3	1	1	1	1	1	1	1243	2	1	0	1545	3	1301	LEOPARD	sohn	vater	onkel	leopard	tochter	vater	21	1	1	1	1	STONDERPÄDAGOGIK
FAUST_1[2014-06]	12	4	27	3	1	2	1	1	2	0	885	2	1	0	1473	1	868	MERCEDES	rouge	kajal	mercedes	lippenstift	wimperntusche	mercedes	21	1	1	1	1	STONDERPÄDAGOGIK
FAUST_1[2014-06]	12	4	22	3	1	1	2	1	1	1	1505	2	1	0	1607	3	927	LAKRITZ	lakritz	bonbons	sicherheitsnadel	karamell	gummibärchen	sicherheitsnadel	21	1	1	1	1	STONDERPÄDAGOGIK
FAUST_1[2014-06]	12	4	23	3	1	2	2	1	1	1	1311	1	2	0	2809	4	782	MILLIMETER	millimeter	biologie	zentimeter	meter	meile	millimeter	21	1	1	1	1	STONDERPÄDAGOGIK
FAUST_1[2014-06]	12	4	21	3	1	1	1	1	2	0	1021	2	2	1	1234	1	1237	AFRIKA	saarland	sachsen	saarland	brandenburg	afrika	thüringen	21	1	1	1	1	STONDERPÄDAGOGIK
FAUST_1[2014-06]	12	4	10	3	1	2	1	1	2	0	1285	1	2	0	998	2	684	MOZART	mozart	jupiter	mozart	merkur	venus	saturn	21	1	1	1	1	STONDERPÄDAGOGIK
FAUST_1[2014-06]	12	4	29	3	1	1	2	1	2	0	779	2	2	1	1105	1	1079	SCHREIBEN	basteln	bronze	zeichnen	schreiben	bronze	lesen	21	1	1	1	1	STONDERPÄDAGOGIK
FAUST_1[2014-06]	12	4	20	3	1	2	2	1	2	0	939	2	2	1	1589	1	1346	FUß	bein	halma	arm	fuß	kopf	fuß	21	1	1	1	1	STONDERPÄDAGOGIK
FAUST_1[2014-06]	12	4	25	3	1	1	1	2	2	1	1260	2	2	1	1305	4	1252	BIENE	fahrrad	zug	taxi	zug	wespe	bus	21	1	1	1	1	STONDERPÄDAGOGIK
FAUST_1[2014-06]	12	4	32	3	1	2	1	2	1	0	1120	2	1	0	974	3	754	SCHWEIZ	schwimmen	italien	tennis	skifahren	golf	italien	21	1	1	1	1	STONDERPÄDAGOGIK
FAUST_1[2014-06]	12	4	8	3	1	1	2	2	2	1	937	2	2	1	1596	3	1065	SCHWERT	gewehr	hören	bombe	dolch	pistole	hören	21	1	1	1	1	STONDERPÄDAGOGIK
FAUST_1[2014-06]	12	4	19	3	1	2	2	2	2	1	1324	2	2	1	1740	1	729	WODKA	hagel	whiskey	tequila	gin	rum	whiskey	21	1	1	1	1	STONDERPÄDAGOGIK
FAUST_1[2014-06]	12	4	1	3	1	1	1	2	2	1	1366	1	2	0	1196	3	765	GRIPPE	blumenkohl	spinat	windpocken	blumenkohl	karotten	tomaten	21	1	1	1	1	STONDERPÄDAGOGIK
FAUST_1[2014-06]	12	4	12	3	1	2	1	2	2	1	790	2	2	1	1220	3	778	RECHTECK	dollar	quadrat	pfennig	quadrat	euro	cent	21	1	1	1	1	STONDERPÄDAGOGIK
FAUST_1[2014-06]	12	4	11	3	1	1	2	2	2	1	966	2	2	1	1538	3	846	RÜCKSPIEGEL	gaspedal	handbremse	lenkrad	taube	kupplung	taube	21	1	1	1	1	STONDERPÄDAGOGIK
FAUST_1[2014-06]	12	4	26	3	1	2	2	2	2	1	941	2	2	1	2433	3	631	ARZT	pfarrer	richter	lehrer	richter	polizist	tanne	21	1	1	1	1	STONDERPÄDAGOGIK
FAUST_1[2014-06]	12	4	2	3	1	1	1	2	1	0	1425	2	1	0	981	4	2127	FILZSTIFT	oper	zirkus	buntstift	oper	konzertsaal	theater	21	1	1	1	1	STONDERPÄDAGOGIK
FAUST_1[2014-06]	12	4	17	3	1	2	1	2	2	1	825	2	1	0	633	1	729	PFLAUME	hafer	birne	roggen	weizen	birne	gerste	21	1	1	1	1	STONDERPÄDAGOGIK
FAUST_1[2014-06]	12	4	13	3	1	1	2	2	2	1	1413	2	1	0	408	2	1986	SCHIFF	rhein	boot	rhein	fähre	kanu	yacht	21	1	1	1	1	STONDERPÄDAGOGIK
FAUST_1[2014-06]	12	4	7	3	1	2	2	2	2	1	1077	2	1	0	1094	4	1719	KÜCHENWAAGE	brieföffner	backform	backblech	pfannenwender	nudelholz	backblech	21	1	1	1	1	STONDERPÄDAGOGIK
FAUST_1[2014-06]	12	4	9	3	1	1	1	3	2	1	949	2	1	0	951	4	730	JUNGFRAU	hammer	bohrer	zange	bohrer	säge	mobiltelefon	21	1	1	1	1	STONDERPÄDAGOGIK
FAUST_1[2014-06]	12	4	3	3	1	2	1	3	2	1	2007	2	1	0	1228	4	947	REALSCHULE	sekunde	becher	tag	jahr	becher	stunde	21	1	1	1	1	STONDERPÄDAGOGIK
FAUST_1[2014-06]	12	4	14	3	1	1	1	3	2	1	994	1	1	1	1350	3	861	WASSERSTOFF	dämon	hering	vampir	hexe	dämon	zombie	21	1	1	1	1	STONDERPÄDAGOGIK
FAUST_1[2014-06]	12	4	24	3	1	2	1	3	2	1	1127	2	1	0	2164	3	726	LEBER	adjektiv	meer	ozean	see	adjektiv	fluss	21	1	1	1	1	STONDERPÄDAGOGIK
FAUST_1[2014-06]	12	4	16	3	1	1	1	3	2	1	961	1	2	0	850	4	810	SCHUPPEN	scham	ärger	angst	kirche	scham	trauer	21	1	1	1	1	STONDERPÄDAGOGIK
FAUST_1[2014-06]	12	4	28	3	1	2	1	3	2	1	828	2	1	0	1142	3	944	BLEIFREI	trompete	fernsehen	zeitung	internet	trompete	buch	21	1	1	1	1	STONDERPÄDAGOGIK
FAUST_1[2014-06]	12	4	4	3	1	1	1	3	2	1	1104	1	2	0	1987	4	664	HEROIN	teelöffel	gabel	löffel	terrier	löffel	brotmesser	21	1	1	1	1	STONDERPÄDAGOGIK
FAUST_1[2014-06]	12	4	6	3	1	2	1	3	2	1	963	1	1	1	1095	4	895	KOMÖDIE	rock	sofa	jacke	hose	sofa	hemd	21	1	1	1	1	STONDERPÄDAGOGIK
