experiment	subject	block	trial	order	material	repeated	related	probetype	response	correct	rt	math_response	math_correctresponse	math_correct	math_rt	confidence	confidence_rt	probe	item1	item2	item3	item4	item5	item6	age	sex	handedness	color_vision	mother_tongue	occupation
FAUST_1[2014-06]	13	1	2	6	3	1	1	1	1	1	2013	1	1	1	3039	3	2571	printer_16.bmp	glove_10.bmp	glove_5.bmp	glove_15.bmp	glove_5.bmp	printer_16.bmp	glove_8.bmp	19	1	2	1	1	PASYCHOLOGIE
FAUST_1[2014-06]	13	1	18	6	3	2	1	1	1	1	1240	1	1	1	2640	4	1423	watergun_7.bmp	watergun_7.bmp	watch_8.bmp	watch_14.bmp	watergun_7.bmp	watch_3.bmp	watch_6.bmp	19	1	2	1	1	PASYCHOLOGIE
FAUST_1[2014-06]	13	1	4	6	3	1	2	1	1	1	2546	1	1	1	1210	2	2530	powerstrip_13.bmp	videogamecontroller_5.bmp	powerstrip_13.bmp	powerstrip_14.bmp	powerstrip_8.bmp	videogamecontroller_5.bmp	powerstrip_7.bmp	19	1	2	1	1	PASYCHOLOGIE
FAUST_1[2014-06]	13	1	7	6	3	2	2	1	1	1	1500	2	2	1	1638	3	4372	cheesegrater_15.bmp	cheesegrater_15.bmp	cheesegrater_5.bmp	cheesegrater_11.bmp	cheesegrater_15.bmp	cheesegrater_14.bmp	rusdoll_8.bmp	19	1	2	1	1	PASYCHOLOGIE
FAUST_1[2014-06]	13	1	6	6	3	1	1	1	1	1	1985	2	2	1	2325	3	2269	cake_4.bmp	jacket_13.bmp	jacket_10.bmp	jacket_7.bmp	jacket_10.bmp	jacket_6.bmp	cake_4.bmp	19	1	2	1	1	PASYCHOLOGIE
FAUST_1[2014-06]	13	1	8	6	3	2	1	1	1	1	1381	2	2	1	1765	4	1234	cherubstatue_6.bmp	socks_13.bmp	socks_10.bmp	socks_12.bmp	cherubstatue_6.bmp	socks_15.bmp	cherubstatue_6.bmp	19	1	2	1	1	PASYCHOLOGIE
FAUST_1[2014-06]	13	1	9	6	3	1	2	1	1	1	2452	1	1	1	2582	2	2661	tricycle_5.bmp	tricycle_5.bmp	goggle_4.bmp	tricycle_15.bmp	tricycle_8.bmp	goggle_4.bmp	tricycle_10.bmp	19	1	2	1	1	PASYCHOLOGIE
FAUST_1[2014-06]	13	1	27	6	3	2	2	1	1	1	1463	1	1	1	1197	3	2733	cellphone_4.bmp	abacus_15.bmp	cellphone_3.bmp	cellphone_11.bmp	cellphone_4.bmp	cellphone_8.bmp	cellphone_4.bmp	19	1	2	1	1	PASYCHOLOGIE
FAUST_1[2014-06]	13	1	19	6	3	1	1	1	1	1	3070	2	2	1	1793	3	4284	sink_6.bmp	flashlight_1.bmp	flashlight_13.bmp	flashlight_17.bmp	flashlight_1.bmp	flashlight_2.bmp	sink_6.bmp	19	1	2	1	1	PASYCHOLOGIE
FAUST_1[2014-06]	13	1	14	6	3	2	1	1	1	1	1538	2	2	1	1541	4	2192	parfait_11.bmp	parfait_11.bmp	remote_3.bmp	remote_13.bmp	remote_14.bmp	remote_11.bmp	parfait_11.bmp	19	1	2	1	1	PASYCHOLOGIE
FAUST_1[2014-06]	13	1	1	6	3	1	2	1	1	1	2709	1	1	1	1538	3	5906	mic_12.bmp	mic_5.bmp	mic_12.bmp	mic_10.bmp	scooter_10.bmp	mic_3.bmp	scooter_10.bmp	19	1	2	1	1	PASYCHOLOGIE
FAUST_1[2014-06]	13	1	10	6	3	2	2	1	1	1	1498	2	2	1	2861	4	1154	babycrib_7.bmp	babycrib_9.bmp	babycrib_7.bmp	babycrib_6.bmp	babycrib_7.bmp	easteregg_17.bmp	babycrib_5.bmp	19	1	2	1	1	PASYCHOLOGIE
FAUST_1[2014-06]	13	1	3	6	3	1	1	2	2	1	3449	2	2	1	1937	2	2368	doorknob_10.bmp	fan_10.bmp	doorknob_7.bmp	fan_17.bmp	fan_10.bmp	fan_1.bmp	fan_11.bmp	19	1	2	1	1	PASYCHOLOGIE
FAUST_1[2014-06]	13	1	15	6	3	2	1	2	1	0	2918	1	1	1	2045	1	2437	shoe_13.bmp	shoe_15.bmp	iceskates_5.bmp	shoe_15.bmp	iceskates_9.bmp	iceskates_16.bmp	iceskates_7.bmp	19	1	2	1	1	PASYCHOLOGIE
FAUST_1[2014-06]	13	1	26	6	3	1	2	2	1	0	2329	2	2	1	1565	2	1390	speaker_17.bmp	speaker_4.bmp	bowlingpin_4.bmp	speaker_10.bmp	speaker_15.bmp	bowlingpin_4.bmp	speaker_6.bmp	19	1	2	1	1	PASYCHOLOGIE
FAUST_1[2014-06]	13	1	29	6	3	2	2	2	1	0	1230	2	2	1	1914	3	1298	skateboard_15.bmp	skateboard_14.bmp	skateboard_16.bmp	backpack_6.bmp	skateboard_14.bmp	skateboard_3.bmp	skateboard_11.bmp	19	1	2	1	1	PASYCHOLOGIE
FAUST_1[2014-06]	13	1	30	6	3	1	1	2	2	1	2451	1	1	1	1477	2	1460	doorknocker_4.bmp	trophy_14.bmp	trophy_15.bmp	trophy_14.bmp	doorknocker_5.bmp	trophy_4.bmp	trophy_16.bmp	19	1	2	1	1	PASYCHOLOGIE
FAUST_1[2014-06]	13	1	28	6	3	2	1	2	1	0	2587	2	1	0	2337	2	3637	saltpeppershake_12.bmp	vase_6.bmp	saltpeppershake_8.bmp	vase_15.bmp	vase_5.bmp	saltpeppershake_8.bmp	vase_1.bmp	19	1	2	1	1	PASYCHOLOGIE
FAUST_1[2014-06]	13	1	16	6	3	1	2	2	1	0	1156	2	2	1	1516	4	2287	horseshoe_4.bmp	horseshoe_6.bmp	garbagecan_17.bmp	horseshoe_12.bmp	horseshoe_3.bmp	horseshoe_5.bmp	garbagecan_17.bmp	19	1	2	1	1	PASYCHOLOGIE
FAUST_1[2014-06]	13	1	21	6	3	2	2	2	1	0	1340	2	2	1	2503	4	2014	birdhouse_9.bmp	birdhouse_7.bmp	birdhouse_14.bmp	birdhouse_6.bmp	birdhouse_11.bmp	carabiner_6.bmp	birdhouse_7.bmp	19	1	2	1	1	PASYCHOLOGIE
FAUST_1[2014-06]	13	1	24	6	3	1	1	2	1	0	3566	2	2	1	1614	2	1271	circuitboard_16.bmp	trunk_5.bmp	circuitboard_2.bmp	trunk_3.bmp	trunk_1.bmp	trunk_5.bmp	trunk_7.bmp	19	1	2	1	1	PASYCHOLOGIE
FAUST_1[2014-06]	13	1	22	6	3	2	1	2	2	1	1708	1	1	1	1432	3	2327	cat_1.bmp	cat_5.bmp	orifan_17.bmp	cat_5.bmp	orifan_6.bmp	orifan_1.bmp	orifan_7.bmp	19	1	2	1	1	PASYCHOLOGIE
FAUST_1[2014-06]	13	1	12	6	3	1	2	2	1	0	1155	2	2	1	1359	3	1336	hairbrush_15.bmp	guitar_14.bmp	hairbrush_17.bmp	hairbrush_12.bmp	hairbrush_7.bmp	hairbrush_16.bmp	guitar_14.bmp	19	1	2	1	1	PASYCHOLOGIE
FAUST_1[2014-06]	13	1	32	6	3	2	2	2	1	0	1295	1	1	1	1125	3	1126	coffee_7.bmp	coffee_1.bmp	camera_3.bmp	coffee_14.bmp	coffee_2.bmp	coffee_14.bmp	coffee_15.bmp	19	1	2	1	1	PASYCHOLOGIE
FAUST_1[2014-06]	13	1	25	6	3	1	1	3	2	1	1154	2	2	1	1751	3	1417	laptop_10.bmp	highchair_15.bmp	highchair_4.bmp	highchair_15.bmp	highchair_3.bmp	highchair_6.bmp	hammer_15.bmp	19	1	2	1	1	PASYCHOLOGIE
FAUST_1[2014-06]	13	1	13	6	3	2	1	3	2	1	1601	1	1	1	2851	3	2367	plant_13.bmp	sofa_13.bmp	lawnmower_17.bmp	lawnmower_8.bmp	lawnmower_15.bmp	lawnmower_13.bmp	sofa_13.bmp	19	1	2	1	1	PASYCHOLOGIE
FAUST_1[2014-06]	13	1	11	6	3	1	1	3	2	1	1889	2	2	1	2709	3	2321	glasses_9.bmp	pasta_13.bmp	pasta_9.bmp	pasta_15.bmp	trumpet_3.bmp	pasta_15.bmp	pasta_11.bmp	19	1	2	1	1	PASYCHOLOGIE
FAUST_1[2014-06]	13	1	5	6	3	2	1	3	2	1	1538	2	2	1	1842	3	2571	hairdryer_12.bmp	bagel_16.bmp	beanbagchair_12.bmp	bagel_16.bmp	beanbagchair_17.bmp	beanbagchair_15.bmp	beanbagchair_14.bmp	19	1	2	1	1	PASYCHOLOGIE
FAUST_1[2014-06]	13	1	17	6	3	1	1	3	2	1	2522	1	1	1	1580	3	3268	wig_1.bmp	leatherman_14.bmp	saddle_8.bmp	saddle_15.bmp	saddle_4.bmp	saddle_3.bmp	saddle_15.bmp	19	1	2	1	1	PASYCHOLOGIE
FAUST_1[2014-06]	13	1	31	6	3	2	1	3	2	1	1746	1	1	1	1239	2	1888	tv_16.bmp	ring_15.bmp	router_7.bmp	ring_15.bmp	router_5.bmp	router_6.bmp	router_12.bmp	19	1	2	1	1	PASYCHOLOGIE
FAUST_1[2014-06]	13	1	20	6	3	1	1	3	2	1	1578	1	1	1	1949	3	1224	chair_16.bmp	turtle_2.bmp	carriage_3.bmp	turtle_6.bmp	turtle_7.bmp	turtle_12.bmp	turtle_7.bmp	19	1	2	1	1	PASYCHOLOGIE
FAUST_1[2014-06]	13	1	23	6	3	2	1	3	2	1	2785	1	1	1	2207	2	2328	windchime_10.bmp	rollerskates_17.bmp	rollerskates_5.bmp	shredder_1.bmp	rollerskates_2.bmp	shredder_1.bmp	rollerskates_8.bmp	19	1	2	1	1	PASYCHOLOGIE
FAUST_1[2014-06]	13	2	18	6	1	1	1	1	1	1	2493	1	1	1	1123	4	1779	DOLCH	weser	main	donau	rhein	dolch	weser	19	1	2	1	1	PASYCHOLOGIE
FAUST_1[2014-06]	13	2	3	6	1	2	1	1	1	1	3765	1	1	1	1801	1	3055	TISCH	euro	mark	cent	tisch	dollar	tisch	19	1	2	1	1	PASYCHOLOGIE
FAUST_1[2014-06]	13	2	27	6	1	1	2	1	2	0	1868	1	1	1	1343	1	1743	PHYSIK	erdkunde	hessen	chemie	hessen	physik	mathematik	19	1	2	1	1	PASYCHOLOGIE
FAUST_1[2014-06]	13	2	12	6	1	2	2	1	1	1	1518	1	1	1	1326	3	1469	SCHÜTZE	schütze	wassermann	schütze	zwilling	steinbock	majoran	19	1	2	1	1	PASYCHOLOGIE
FAUST_1[2014-06]	13	2	15	6	1	1	1	1	2	0	1195	1	2	0	2221	3	1799	MEILE	rumba	walzer	chachacha	meile	chachacha	foxtrott	19	1	2	1	1	PASYCHOLOGIE
FAUST_1[2014-06]	13	2	1	6	1	2	1	1	1	1	1215	2	1	0	2718	4	1507	BOHNEN	bohnen	bluse	hose	jacke	rock	bohnen	19	1	2	1	1	PASYCHOLOGIE
FAUST_1[2014-06]	13	2	2	6	1	1	2	1	1	1	1410	2	2	1	2726	4	1774	DINKEL	straßenbahn	hafer	gerste	weizen	dinkel	straßenbahn	19	1	2	1	1	PASYCHOLOGIE
FAUST_1[2014-06]	13	2	7	6	1	2	2	1	1	1	1842	2	2	1	1836	3	1880	SCHWALBE	fink	schwalbe	taube	schwalbe	whiskey	amsel	19	1	2	1	1	PASYCHOLOGIE
FAUST_1[2014-06]	13	2	8	6	1	1	1	1	1	1	4959	2	2	1	1472	3	2006	SEIDE	seide	computer	laptop	mobiltelefon	drucker	laptop	19	1	2	1	1	PASYCHOLOGIE
FAUST_1[2014-06]	13	2	26	6	1	2	1	1	1	1	2276	2	2	1	1972	2	1657	ZEICHNEN	helium	stickstoff	kohlenstoff	zeichnen	sauerstoff	zeichnen	19	1	2	1	1	PASYCHOLOGIE
FAUST_1[2014-06]	13	2	29	6	1	1	2	1	1	1	2427	1	1	1	1260	2	2017	KOKAIN	haschisch	kokain	hütte	opium	hütte	heroin	19	1	2	1	1	PASYCHOLOGIE
FAUST_1[2014-06]	13	2	20	6	1	2	2	1	1	1	1364	1	1	1	1293	3	1852	LEOPARD	england	gepard	leopard	panther	puma	leopard	19	1	2	1	1	PASYCHOLOGIE
FAUST_1[2014-06]	13	2	9	6	1	1	1	2	1	0	1756	1	1	1	2479	2	1626	MERKUR	brieföffner	büroklammer	jupiter	locher	büroklammer	lineal	19	1	2	1	1	PASYCHOLOGIE
FAUST_1[2014-06]	13	2	4	6	1	2	1	2	2	1	2017	2	2	1	2009	1	3431	EISEN	gold	grippe	röteln	masern	gold	windpocken	19	1	2	1	1	PASYCHOLOGIE
FAUST_1[2014-06]	13	2	19	6	1	1	2	2	1	0	5875	2	2	1	2452	1	2369	BENZIN	petroleum	synagoge	kerosin	diesel	synagoge	bleifrei	19	1	2	1	1	PASYCHOLOGIE
FAUST_1[2014-06]	13	2	16	6	1	2	2	2	1	0	1429	1	1	1	1484	3	1569	ROUGE	kajal	wimperntusche	klarinette	lidschatten	lippenstift	kajal	19	1	2	1	1	PASYCHOLOGIE
FAUST_1[2014-06]	13	2	22	6	1	1	1	2	1	0	1574	1	1	1	2236	2	1359	KAISER	lunge	magen	fürst	niere	leber	niere	19	1	2	1	1	PASYCHOLOGIE
FAUST_1[2014-06]	13	2	23	6	1	2	1	2	2	1	1766	1	1	1	1064	4	2522	DREIECK	apfel	birne	banane	rechteck	pflaume	rechteck	19	1	2	1	1	PASYCHOLOGIE
FAUST_1[2014-06]	13	2	5	6	1	1	2	2	2	1	3618	-1	1	0	0	3	1883	SONNENSCHEIN	golf	hagel	golf	schnee	nebel	regen	19	1	2	1	1	PASYCHOLOGIE
FAUST_1[2014-06]	13	2	25	6	1	2	2	2	2	1	1567	1	1	1	1420	4	1993	KOPF	arm	hand	bein	arm	fuß	gesamtschule	19	1	2	1	1	PASYCHOLOGIE
FAUST_1[2014-06]	13	2	14	6	1	1	1	2	2	1	1744	1	1	1	2315	4	2181	GASPEDAL	flasche	handbremse	karaffe	kanne	flasche	glas	19	1	2	1	1	PASYCHOLOGIE
FAUST_1[2014-06]	13	2	21	6	1	2	1	2	2	1	1835	2	2	1	1874	3	1963	DÖNER	forelle	hamburger	thunfisch	makrele	lachs	hamburger	19	1	2	1	1	PASYCHOLOGIE
FAUST_1[2014-06]	13	2	24	6	1	1	2	2	2	1	2910	1	1	1	1807	2	2676	DÄMON	buch	werwolf	vampir	zombie	hexe	buch	19	1	2	1	1	PASYCHOLOGIE
FAUST_1[2014-06]	13	2	17	6	1	2	2	2	2	1	1896	1	1	1	1611	3	1520	PRÄPOSITION	verb	adjektiv	nomen	adverb	adjektiv	mücke	19	1	2	1	1	PASYCHOLOGIE
FAUST_1[2014-06]	13	2	31	6	1	1	1	3	2	1	1938	1	1	1	1806	3	2844	CHOPIN	trauer	nähnadel	stricknadel	häkelnadel	nähnadel	sicherheitsnadel	19	1	2	1	1	PASYCHOLOGIE
FAUST_1[2014-06]	13	2	10	6	1	2	1	3	2	1	1964	2	2	1	2395	2	1819	GABEL	boot	yacht	bohrer	schiff	kanu	bohrer	19	1	2	1	1	PASYCHOLOGIE
FAUST_1[2014-06]	13	2	28	6	1	1	1	3	2	1	1764	2	1	0	1780	2	1382	RIECHEN	pfannenwender	rot	küchenwaage	backblech	nudelholz	backblech	19	1	2	1	1	PASYCHOLOGIE
FAUST_1[2014-06]	13	2	30	6	1	2	1	3	2	1	1436	2	2	1	2020	2	2709	BLEISTIFT	horrorfilm	actionfilm	konzertsaal	komödie	konzertsaal	western	19	1	2	1	1	PASYCHOLOGIE
FAUST_1[2014-06]	13	2	13	6	1	1	1	3	2	1	1475	2	2	1	2346	3	1633	LEHRER	hamburg	vater	münchen	berlin	stuttgart	hamburg	19	1	2	1	1	PASYCHOLOGIE
FAUST_1[2014-06]	13	2	32	6	1	2	1	3	2	1	2100	2	2	1	2166	2	989	SEE	afrika	südamerika	birke	asien	nordamerika	birke	19	1	2	1	1	PASYCHOLOGIE
FAUST_1[2014-06]	13	2	11	6	1	1	1	3	2	1	2635	1	1	1	1146	3	1555	DOGGE	veilchen	rose	nelke	veilchen	mercedes	tulpe	19	1	2	1	1	PASYCHOLOGIE
FAUST_1[2014-06]	13	2	6	6	1	2	1	3	2	1	1604	1	1	1	1472	3	2218	MONOPOLY	karamell	stunde	bonbons	lakritz	stunde	gummibärchen	19	1	2	1	1	PASYCHOLOGIE
FAUST_1[2014-06]	13	3	6	6	2	1	1	1	2	0	1460	1	1	1	1810	3	1944	Holly20.bmp	Paperclip6.bmp	Paperclip13.bmp	Paperclip6.bmp	Holly20.bmp	Paperclip9.bmp	Paperclip4.bmp	19	1	2	1	1	PASYCHOLOGIE
FAUST_1[2014-06]	13	3	11	6	2	2	1	1	1	1	5624	2	2	1	1905	3	2315	Swirl13.bmp	Cake24.bmp	Cake7.bmp	Cake18.bmp	Swirl13.bmp	Cake16.bmp	Swirl13.bmp	19	1	2	1	1	PASYCHOLOGIE
FAUST_1[2014-06]	13	3	15	6	2	1	2	1	1	1	1437	2	2	1	1783	3	2343	Star19.bmp	Star19.bmp	String2.bmp	Star1.bmp	Star2.bmp	String2.bmp	Star7.bmp	19	1	2	1	1	PASYCHOLOGIE
FAUST_1[2014-06]	13	3	16	6	2	2	2	1	1	1	1299	2	2	1	1504	3	4145	Apple5.bmp	Hanger12.bmp	Apple5.bmp	Apple21.bmp	Apple24.bmp	Apple5.bmp	Apple18.bmp	19	1	2	1	1	PASYCHOLOGIE
FAUST_1[2014-06]	13	3	4	6	2	1	1	1	1	1	1334	2	2	1	1526	3	1352	Toothbrush10.bmp	Toothbrush10.bmp	Keys7.bmp	Keys6.bmp	Keys5.bmp	Keys8.bmp	Keys5.bmp	19	1	2	1	1	PASYCHOLOGIE
FAUST_1[2014-06]	13	3	20	6	2	2	1	1	1	1	1938	2	2	1	1394	1	1336	Jigsaw17.bmp	Jigsaw17.bmp	Stapler7.bmp	Stapler6.bmp	Stapler9.bmp	Stapler8.bmp	Jigsaw17.bmp	19	1	2	1	1	PASYCHOLOGIE
FAUST_1[2014-06]	13	3	22	6	2	1	2	1	2	0	3860	2	2	1	1121	2	1641	Biscuit20.bmp	Biscuit25.bmp	Flower18.bmp	Biscuit20.bmp	Biscuit4.bmp	Flower18.bmp	Biscuit17.bmp	19	1	2	1	1	PASYCHOLOGIE
FAUST_1[2014-06]	13	3	18	6	2	2	2	1	1	1	1091	2	2	1	1714	3	2213	Pear16.bmp	Pear18.bmp	Pear4.bmp	Mushroom18.bmp	Pear16.bmp	Pear15.bmp	Pear16.bmp	19	1	2	1	1	PASYCHOLOGIE
FAUST_1[2014-06]	13	3	3	6	2	1	1	2	1	0	2403	1	1	1	1420	1	1593	Button14.bmp	Car13.bmp	Car7.bmp	Car13.bmp	Button3.bmp	Car21.bmp	Car12.bmp	19	1	2	1	1	PASYCHOLOGIE
FAUST_1[2014-06]	13	3	19	6	2	2	1	2	2	1	2464	1	1	1	1606	4	1628	Chocolate5.bmp	Feather12.bmp	Chocolate6.bmp	Feather11.bmp	Feather2.bmp	Feather14.bmp	Chocolate6.bmp	19	1	2	1	1	PASYCHOLOGIE
FAUST_1[2014-06]	13	3	8	6	2	1	2	2	1	0	1214	1	1	1	1784	3	1937	Candle20.bmp	Present3.bmp	Candle10.bmp	Candle13.bmp	Present3.bmp	Candle17.bmp	Candle1.bmp	19	1	2	1	1	PASYCHOLOGIE
FAUST_1[2014-06]	13	3	1	6	2	2	2	2	1	0	1610	1	2	0	1562	3	2651	Scissors23.bmp	Scissors3.bmp	Scissors1.bmp	Scissors3.bmp	Scissors11.bmp	Scissors14.bmp	Leaf22.bmp	19	1	2	1	1	PASYCHOLOGIE
FAUST_1[2014-06]	13	3	13	6	2	1	1	2	2	1	1796	1	1	1	1706	3	1974	Shell18.bmp	Shell17.bmp	Bracelet1.bmp	Bracelet8.bmp	Bracelet5.bmp	Bracelet2.bmp	Bracelet5.bmp	19	1	2	1	1	PASYCHOLOGIE
FAUST_1[2014-06]	13	3	14	6	2	2	1	2	2	1	3075	1	1	1	1374	4	3121	Hand1.bmp	Tomato18.bmp	Tomato3.bmp	Tomato5.bmp	Hand17.bmp	Tomato2.bmp	Hand17.bmp	19	1	2	1	1	PASYCHOLOGIE
FAUST_1[2014-06]	13	3	17	6	2	1	2	2	1	0	1219	2	2	1	1467	3	1925	Glass4.bmp	Glass19.bmp	Varnish17.bmp	Glass12.bmp	Glass3.bmp	Glass16.bmp	Varnish17.bmp	19	1	2	1	1	PASYCHOLOGIE
FAUST_1[2014-06]	13	3	12	6	2	2	2	2	1	0	1815	1	1	1	1137	2	1156	Fudge8.bmp	Fudge15.bmp	Fudge5.bmp	Fudge20.bmp	Fudge5.bmp	Fudge17.bmp	Chilli14.bmp	19	1	2	1	1	PASYCHOLOGIE
FAUST_1[2014-06]	13	3	2	6	2	1	1	3	2	1	1457	1	1	1	2390	3	3097	Fork8.bmp	Lipstick2.bmp	Lipstick9.bmp	Lipstick2.bmp	Lipstick7.bmp	Lipstick15.bmp	Umbrella6.bmp	19	1	2	1	1	PASYCHOLOGIE
FAUST_1[2014-06]	13	3	7	6	2	2	1	3	2	1	2507	2	2	1	1857	4	2264	Bun12.bmp	Strawberry18.bmp	Onion19.bmp	Onion14.bmp	Onion7.bmp	Onion13.bmp	Strawberry18.bmp	19	1	2	1	1	PASYCHOLOGIE
FAUST_1[2014-06]	13	3	5	6	2	1	1	3	2	1	1136	1	1	1	1884	4	1214	Brocolli14.bmp	Plug6.bmp	Ginger15.bmp	Ginger17.bmp	Ginger10.bmp	Ginger5.bmp	Ginger17.bmp	19	1	2	1	1	PASYCHOLOGIE
FAUST_1[2014-06]	13	3	10	6	2	2	1	3	2	1	1103	1	1	1	1557	4	2520	Key9.bmp	Daff3.bmp	Bag21.bmp	Bag3.bmp	Bag4.bmp	Bag25.bmp	Daff3.bmp	19	1	2	1	1	PASYCHOLOGIE
FAUST_1[2014-06]	13	3	21	6	2	1	1	3	2	1	1856	1	1	1	2924	3	1346	Coins14.bmp	Nut18.bmp	Nut19.bmp	Nut2.bmp	Nut21.bmp	Nut2.bmp	Screw16.bmp	19	1	2	1	1	PASYCHOLOGIE
FAUST_1[2014-06]	13	3	9	6	2	2	1	3	2	1	1591	2	2	1	2024	3	2075	Sweet25.bmp	Pen20.bmp	Pen5.bmp	Pen10.bmp	Man10.bmp	Pen17.bmp	Man10.bmp	19	1	2	1	1	PASYCHOLOGIE
FAUST_1[2014-06]	13	2	23	6	3	1	1	1	1	1	1102	1	1	1	2010	3	1800	leatherman_2.bmp	saltpeppershake_12.bmp	saltpeppershake_17.bmp	saltpeppershake_9.bmp	leatherman_2.bmp	saltpeppershake_2.bmp	saltpeppershake_12.bmp	19	1	2	1	1	PASYCHOLOGIE
FAUST_1[2014-06]	13	2	22	6	3	2	1	1	1	1	933	1	1	1	1769	3	2008	horseshoe_12.bmp	trumpet_6.bmp	horseshoe_12.bmp	trumpet_3.bmp	horseshoe_12.bmp	trumpet_17.bmp	trumpet_1.bmp	19	1	2	1	1	PASYCHOLOGIE
FAUST_1[2014-06]	13	2	3	6	3	1	2	1	1	1	1101	1	1	1	1710	3	1717	hammer_6.bmp	router_7.bmp	hammer_17.bmp	hammer_11.bmp	hammer_6.bmp	hammer_15.bmp	router_7.bmp	19	1	2	1	1	PASYCHOLOGIE
FAUST_1[2014-06]	13	2	19	6	3	2	2	1	1	1	958	2	2	1	2493	4	1019	vase_15.bmp	vase_6.bmp	vase_15.bmp	flashlight_12.bmp	vase_13.bmp	vase_15.bmp	vase_5.bmp	19	1	2	1	1	PASYCHOLOGIE
FAUST_1[2014-06]	13	2	14	6	3	1	1	1	1	1	1750	2	2	1	1088	3	2047	remote_2.bmp	remote_2.bmp	guitar_10.bmp	guitar_14.bmp	guitar_8.bmp	guitar_14.bmp	guitar_5.bmp	19	1	2	1	1	PASYCHOLOGIE
FAUST_1[2014-06]	13	2	32	6	3	2	1	1	1	1	950	1	1	1	1029	3	1435	circuitboard_13.bmp	circuitboard_13.bmp	fan_10.bmp	fan_1.bmp	fan_11.bmp	fan_17.bmp	circuitboard_13.bmp	19	1	2	1	1	PASYCHOLOGIE
FAUST_1[2014-06]	13	2	1	6	3	1	2	1	1	1	1257	1	1	1	1044	4	1615	videogamecontroller_2.bmp	videogamecontroller_13.bmp	videogamecontroller_3.bmp	videogamecontroller_2.bmp	rollerskates_8.bmp	videogamecontroller_5.bmp	rollerskates_8.bmp	19	1	2	1	1	PASYCHOLOGIE
FAUST_1[2014-06]	13	2	11	6	3	2	2	1	1	1	1876	1	1	1	1458	3	1652	plant_2.bmp	plant_14.bmp	plant_2.bmp	plant_5.bmp	scooter_4.bmp	plant_2.bmp	plant_13.bmp	19	1	2	1	1	PASYCHOLOGIE
FAUST_1[2014-06]	13	2	9	6	3	1	1	1	1	1	1033	1	1	1	1886	3	1402	trunk_3.bmp	shoe_13.bmp	shoe_17.bmp	shoe_15.bmp	trunk_3.bmp	shoe_9.bmp	shoe_15.bmp	19	1	2	1	1	PASYCHOLOGIE
FAUST_1[2014-06]	13	2	7	6	3	2	1	1	1	1	1116	1	1	1	1383	4	2045	abacus_4.bmp	abacus_4.bmp	pasta_13.bmp	pasta_9.bmp	pasta_15.bmp	abacus_4.bmp	pasta_10.bmp	19	1	2	1	1	PASYCHOLOGIE
FAUST_1[2014-06]	13	2	10	6	3	1	2	1	1	1	1076	1	1	1	1469	4	1312	cake_4.bmp	cake_3.bmp	cake_4.bmp	cake_1.bmp	babycrib_7.bmp	cake_5.bmp	babycrib_7.bmp	19	1	2	1	1	PASYCHOLOGIE
FAUST_1[2014-06]	13	2	18	6	3	2	2	1	1	1	1220	1	1	1	1609	4	1206	birdhouse_7.bmp	birdhouse_7.bmp	birdhouse_6.bmp	birdhouse_14.bmp	birdhouse_9.bmp	birdhouse_7.bmp	ring_11.bmp	19	1	2	1	1	PASYCHOLOGIE
FAUST_1[2014-06]	13	2	8	6	3	1	1	2	2	1	1145	1	1	1	823	3	1893	easteregg_9.bmp	windchime_6.bmp	easteregg_5.bmp	windchime_3.bmp	windchime_10.bmp	windchime_3.bmp	windchime_16.bmp	19	1	2	1	1	PASYCHOLOGIE
FAUST_1[2014-06]	13	2	28	6	3	2	1	2	2	1	1039	2	2	1	1512	4	1971	wig_12.bmp	wig_6.bmp	doorknocker_2.bmp	doorknocker_4.bmp	doorknocker_14.bmp	wig_6.bmp	doorknocker_5.bmp	19	1	2	1	1	PASYCHOLOGIE
FAUST_1[2014-06]	13	2	13	6	3	1	2	2	1	0	1238	1	2	0	1487	2	1379	hairdryer_14.bmp	bagel_10.bmp	hairdryer_2.bmp	hairdryer_13.bmp	hairdryer_12.bmp	bagel_10.bmp	hairdryer_7.bmp	19	1	2	1	1	PASYCHOLOGIE
FAUST_1[2014-06]	13	2	2	6	3	2	2	2	1	0	3483	1	1	1	1010	1	1642	beanbagchair_14.bmp	beanbagchair_15.bmp	beanbagchair_12.bmp	iceskates_16.bmp	beanbagchair_3.bmp	beanbagchair_17.bmp	beanbagchair_3.bmp	19	1	2	1	1	PASYCHOLOGIE
FAUST_1[2014-06]	13	2	5	6	3	1	1	2	2	1	1280	1	1	1	2319	2	1112	watergun_9.bmp	shredder_5.bmp	shredder_7.bmp	shredder_1.bmp	watergun_3.bmp	shredder_6.bmp	shredder_5.bmp	19	1	2	1	1	PASYCHOLOGIE
FAUST_1[2014-06]	13	2	26	6	3	2	1	2	2	1	928	1	1	1	2147	3	1609	glasses_9.bmp	jacket_7.bmp	jacket_10.bmp	jacket_13.bmp	glasses_8.bmp	jacket_6.bmp	glasses_8.bmp	19	1	2	1	1	PASYCHOLOGIE
FAUST_1[2014-06]	13	2	6	6	3	1	2	2	2	1	1618	1	2	0	1549	2	1667	orifan_1.bmp	orifan_17.bmp	coffee_2.bmp	orifan_7.bmp	orifan_14.bmp	orifan_6.bmp	coffee_2.bmp	19	1	2	1	1	PASYCHOLOGIE
FAUST_1[2014-06]	13	2	30	6	3	2	2	2	2	1	990	1	1	1	1127	3	1387	chair_11.bmp	chair_3.bmp	chair_2.bmp	sink_10.bmp	chair_5.bmp	chair_16.bmp	chair_5.bmp	19	1	2	1	1	PASYCHOLOGIE
FAUST_1[2014-06]	13	2	21	6	3	1	1	2	1	0	1170	1	2	0	981	3	1327	saddle_8.bmp	lawnmower_3.bmp	lawnmower_8.bmp	saddle_4.bmp	lawnmower_13.bmp	lawnmower_15.bmp	lawnmower_13.bmp	19	1	2	1	1	PASYCHOLOGIE
FAUST_1[2014-06]	13	2	16	6	3	2	1	2	2	1	1585	1	1	1	1036	3	1941	cherubstatue_10.bmp	cherubstatue_12.bmp	socks_15.bmp	socks_13.bmp	cherubstatue_12.bmp	socks_10.bmp	socks_12.bmp	19	1	2	1	1	PASYCHOLOGIE
FAUST_1[2014-06]	13	2	4	6	3	1	2	2	1	0	1599	1	1	1	1093	2	2257	tricycle_15.bmp	tricycle_2.bmp	tricycle_8.bmp	tricycle_5.bmp	sofa_12.bmp	tricycle_10.bmp	sofa_12.bmp	19	1	2	1	1	PASYCHOLOGIE
FAUST_1[2014-06]	13	2	15	6	3	2	2	2	2	1	3163	1	1	1	1771	2	1119	powerstrip_7.bmp	powerstrip_8.bmp	powerstrip_13.bmp	speaker_6.bmp	powerstrip_13.bmp	powerstrip_14.bmp	powerstrip_10.bmp	19	1	2	1	1	PASYCHOLOGIE
FAUST_1[2014-06]	13	2	17	6	3	1	1	3	2	1	1021	1	1	1	1330	4	3327	cat_10.bmp	carriage_3.bmp	carriage_2.bmp	glove_10.bmp	carriage_12.bmp	carriage_3.bmp	carriage_14.bmp	19	1	2	1	1	PASYCHOLOGIE
FAUST_1[2014-06]	13	2	31	6	3	2	1	3	2	1	818	1	1	1	860	3	2574	hairbrush_17.bmp	laptop_10.bmp	parfait_11.bmp	parfait_1.bmp	laptop_10.bmp	parfait_15.bmp	parfait_4.bmp	19	1	2	1	1	PASYCHOLOGIE
FAUST_1[2014-06]	13	2	20	6	3	1	1	3	2	1	1882	2	2	1	2329	3	1525	carabiner_5.bmp	camera_4.bmp	camera_3.bmp	goggle_9.bmp	camera_7.bmp	camera_3.bmp	camera_9.bmp	19	1	2	1	1	PASYCHOLOGIE
FAUST_1[2014-06]	13	2	25	6	3	2	1	3	2	1	930	1	1	1	1036	3	1824	watch_14.bmp	skateboard_16.bmp	skateboard_15.bmp	skateboard_3.bmp	garbagecan_2.bmp	skateboard_14.bmp	garbagecan_2.bmp	19	1	2	1	1	PASYCHOLOGIE
FAUST_1[2014-06]	13	2	24	6	3	1	1	3	2	1	1187	1	1	1	1022	2	1136	tv_5.bmp	mic_3.bmp	mic_5.bmp	bowlingpin_11.bmp	mic_5.bmp	mic_12.bmp	mic_10.bmp	19	1	2	1	1	PASYCHOLOGIE
FAUST_1[2014-06]	13	2	27	6	3	2	1	3	2	1	2300	1	1	1	909	4	2322	turtle_11.bmp	backpack_13.bmp	backpack_10.bmp	rusdoll_1.bmp	backpack_6.bmp	backpack_12.bmp	rusdoll_1.bmp	19	1	2	1	1	PASYCHOLOGIE
FAUST_1[2014-06]	13	2	12	6	3	1	1	3	2	1	915	1	1	1	1658	3	1796	cheesegrater_8.bmp	cellphone_8.bmp	cellphone_4.bmp	cellphone_12.bmp	doorknob_17.bmp	cellphone_11.bmp	cellphone_12.bmp	19	1	2	1	1	PASYCHOLOGIE
FAUST_1[2014-06]	13	2	29	6	3	2	1	3	2	1	1008	1	1	1	1255	3	1765	printer_16.bmp	trophy_4.bmp	highchair_6.bmp	trophy_14.bmp	trophy_15.bmp	trophy_16.bmp	highchair_6.bmp	19	1	2	1	1	PASYCHOLOGIE
FAUST_1[2014-06]	13	3	13	6	1	1	1	1	1	1	838	1	1	1	1991	2	1484	KREIS	seide	flanell	kreis	leinen	wolle	flanell	19	1	2	1	1	PASYCHOLOGIE
FAUST_1[2014-06]	13	3	7	6	1	2	1	1	1	1	1050	1	1	1	882	2	1328	GOLF	lunge	herz	niere	golf	leber	golf	19	1	2	1	1	PASYCHOLOGIE
FAUST_1[2014-06]	13	3	27	6	1	1	2	1	2	0	1285	1	1	1	1631	2	1742	STRAßENBAHN	erdkunde	straßenbahn	zug	fahrrad	taxi	erdkunde	19	1	2	1	1	PASYCHOLOGIE
FAUST_1[2014-06]	13	3	26	6	1	2	2	1	1	1	753	1	1	1	996	3	1780	HORRORFILM	actionfilm	western	horrorfilm	sekunde	horrorfilm	komödie	19	1	2	1	1	PASYCHOLOGIE
FAUST_1[2014-06]	13	3	28	6	1	1	1	1	1	1	1216	2	2	1	1204	2	1308	MERKUR	merkur	bohnen	blumenkohl	karotten	spinat	bohnen	19	1	2	1	1	PASYCHOLOGIE
FAUST_1[2014-06]	13	3	19	6	1	2	1	1	1	1	790	2	2	1	1682	4	2966	AFRIKA	sauerstoff	wasserstoff	afrika	kohlenstoff	stickstoff	afrika	19	1	2	1	1	PASYCHOLOGIE
FAUST_1[2014-06]	13	3	11	6	1	1	2	1	1	1	2341	2	2	1	1361	2	1491	KARAMELL	gummibärchen	diesel	bonbons	diesel	karamell	marzipan	19	1	2	1	1	PASYCHOLOGIE
FAUST_1[2014-06]	13	3	12	6	1	2	2	1	1	1	1195	1	1	1	2450	2	1870	ZEITUNG	internet	zeitung	sonnenschein	zeitung	buch	fernsehen	19	1	2	1	1	PASYCHOLOGIE
FAUST_1[2014-06]	13	3	10	6	1	1	1	1	1	1	848	1	2	0	2083	3	1456	DOLLAR	meter	millimeter	zentimeter	meile	dollar	millimeter	19	1	2	1	1	PASYCHOLOGIE
FAUST_1[2014-06]	13	3	24	6	1	2	1	1	1	1	733	2	2	1	1926	4	2069	KAISER	sicherheitsnadel	nähnadel	stricknadel	kaiser	häkelnadel	kaiser	19	1	2	1	1	PASYCHOLOGIE
FAUST_1[2014-06]	13	3	31	6	1	1	2	1	1	1	1333	2	2	1	2297	3	1631	KIRCHE	birke	moschee	birke	kirche	tempel	synagoge	19	1	2	1	1	PASYCHOLOGIE
FAUST_1[2014-06]	13	3	32	6	1	2	2	1	1	1	1065	1	1	1	1205	4	2610	YACHT	fähre	zeichnen	yacht	kanu	boot	yacht	19	1	2	1	1	PASYCHOLOGIE
FAUST_1[2014-06]	13	3	30	6	1	1	1	2	1	0	1147	2	2	1	1363	2	1419	BERUFSSCHULE	münchen	hannover	stuttgart	hannover	realschule	berlin	19	1	2	1	1	PASYCHOLOGIE
FAUST_1[2014-06]	13	3	14	6	1	2	1	2	2	1	1358	1	2	0	1726	1	1157	POSAUNE	zombie	trompete	werwolf	dämon	trompete	hexe	19	1	2	1	1	PASYCHOLOGIE
FAUST_1[2014-06]	13	3	22	6	1	1	2	2	2	1	1955	2	2	1	1236	3	1409	SÄGE	weizen	meißel	weizen	hammer	bohrer	zange	19	1	2	1	1	PASYCHOLOGIE
FAUST_1[2014-06]	13	3	5	6	1	2	2	2	2	1	923	1	1	1	1061	2	1482	BRATWURST	hamburger	pommes	pizza	hose	pizza	döner	19	1	2	1	1	PASYCHOLOGIE
FAUST_1[2014-06]	13	3	25	6	1	1	1	2	2	1	1823	2	2	1	1054	1	1227	KARAFFE	hering	kanne	forelle	hering	thunfisch	makrele	19	1	2	1	1	PASYCHOLOGIE
FAUST_1[2014-06]	13	3	17	6	1	2	1	2	2	1	1133	1	1	1	1218	2	2086	NUDELHOLZ	backblech	hand	backblech	kopf	fuß	bein	19	1	2	1	1	PASYCHOLOGIE
FAUST_1[2014-06]	13	3	6	6	1	1	2	2	2	1	1338	1	1	1	1296	2	4512	ROT	gepard	grün	lila	blau	gepard	gelb	19	1	2	1	1	PASYCHOLOGIE
FAUST_1[2014-06]	13	3	23	6	1	2	2	2	1	0	2760	2	2	1	1409	3	2728	GOLD	bronze	silber	bronze	löffel	eisen	messing	19	1	2	1	1	PASYCHOLOGIE
FAUST_1[2014-06]	13	3	15	6	1	1	1	2	2	1	1587	2	2	1	2354	3	1632	SCHMECKEN	wodka	whiskey	rum	sehen	wodka	tequila	19	1	2	1	1	PASYCHOLOGIE
FAUST_1[2014-06]	13	3	16	6	1	2	1	2	2	1	1444	2	2	1	2420	2	1792	HUMMEL	pistole	ameise	dolch	ameise	schwert	gewehr	19	1	2	1	1	PASYCHOLOGIE
FAUST_1[2014-06]	13	3	9	6	1	1	2	2	1	0	2499	2	2	1	1039	1	1066	SEE	fluss	meer	polizist	teich	ozean	polizist	19	1	2	1	1	PASYCHOLOGIE
FAUST_1[2014-06]	13	3	20	6	1	2	2	2	1	0	1783	1	1	1	1237	2	1212	OREGANO	koriander	rosmarin	thymian	majoran	rosmarin	jungfrau	19	1	2	1	1	PASYCHOLOGIE
FAUST_1[2014-06]	13	3	1	6	1	1	1	3	2	1	947	1	1	1	1485	4	1731	LAPTOP	kokain	opium	heroin	cannabis	erdbeere	opium	19	1	2	1	1	PASYCHOLOGIE
FAUST_1[2014-06]	13	3	8	6	1	2	1	3	2	1	1042	2	2	1	2216	2	1690	FÜLLER	elbe	rouge	elbe	lidschatten	wimperntusche	lippenstift	19	1	2	1	1	PASYCHOLOGIE
FAUST_1[2014-06]	13	3	2	6	1	1	1	3	2	1	1146	2	2	1	1549	3	1884	MERCEDES	schach	freude	trauer	scham	angst	scham	19	1	2	1	1	PASYCHOLOGIE
FAUST_1[2014-06]	13	3	18	6	1	2	1	3	2	1	1188	1	1	1	1106	3	1349	KONZERTSAAL	chachacha	rumba	tango	stuhl	walzer	stuhl	19	1	2	1	1	PASYCHOLOGIE
FAUST_1[2014-06]	13	3	3	6	1	1	1	3	2	1	1144	2	2	1	1630	3	2419	PRÄPOSITION	lineal	locher	brieföffner	klebeband	lineal	dackel	19	1	2	1	1	PASYCHOLOGIE
FAUST_1[2014-06]	13	3	4	6	1	2	1	3	2	1	1650	2	2	1	2521	2	1155	KUPPLUNG	sohn	österreich	tochter	österreich	vater	onkel	19	1	2	1	1	PASYCHOLOGIE
FAUST_1[2014-06]	13	3	21	6	1	1	1	3	1	0	1153	2	2	1	1388	2	1305	NELKE	saarland	meise	hessen	saarland	sachsen	brandenburg	19	1	2	1	1	PASYCHOLOGIE
FAUST_1[2014-06]	13	3	29	6	1	2	1	3	2	1	2669	2	2	1	1094	3	1620	HÜTTE	chopin	röteln	masern	chopin	windpocken	mumps	19	1	2	1	1	PASYCHOLOGIE
FAUST_1[2014-06]	13	4	4	6	2	1	1	1	1	1	1227	2	2	1	1236	3	1168	Candle17.bmp	Pear18.bmp	Pear15.bmp	Pear16.bmp	Candle17.bmp	Pear16.bmp	Pear7.bmp	19	1	2	1	1	PASYCHOLOGIE
FAUST_1[2014-06]	13	4	1	6	2	2	1	1	1	1	1789	1	1	1	1306	4	2003	Plug18.bmp	Plug18.bmp	Umbrella7.bmp	Umbrella6.bmp	Umbrella17.bmp	Plug18.bmp	Umbrella21.bmp	19	1	2	1	1	PASYCHOLOGIE
FAUST_1[2014-06]	13	4	3	6	2	1	2	1	1	1	1303	2	2	1	2029	3	3709	Varnish5.bmp	Varnish17.bmp	Hanger7.bmp	Varnish14.bmp	Hanger7.bmp	Varnish11.bmp	Varnish5.bmp	19	1	2	1	1	PASYCHOLOGIE
FAUST_1[2014-06]	13	4	18	6	2	2	2	1	1	1	2060	2	1	0	1928	3	2651	Onion13.bmp	Onion13.bmp	Onion14.bmp	Onion7.bmp	Onion13.bmp	Onion18.bmp	Present9.bmp	19	1	2	1	1	PASYCHOLOGIE
FAUST_1[2014-06]	13	4	13	6	2	1	1	1	1	1	1046	2	2	1	1278	2	2136	Biscuit17.bmp	Keys8.bmp	Biscuit17.bmp	Keys6.bmp	Keys5.bmp	Keys7.bmp	Keys5.bmp	19	1	2	1	1	PASYCHOLOGIE
FAUST_1[2014-06]	13	4	19	6	2	2	1	1	1	1	2321	2	2	1	1155	2	1688	Pen20.bmp	Pen20.bmp	Tomato3.bmp	Tomato5.bmp	Pen20.bmp	Tomato2.bmp	Tomato12.bmp	19	1	2	1	1	PASYCHOLOGIE
FAUST_1[2014-06]	13	4	8	6	2	1	2	1	1	1	1038	2	2	1	1702	3	1541	Screw10.bmp	Screw9.bmp	Screw13.bmp	Scissors14.bmp	Screw10.bmp	Screw16.bmp	Scissors14.bmp	19	1	2	1	1	PASYCHOLOGIE
FAUST_1[2014-06]	13	4	12	6	2	2	2	1	1	1	897	1	1	1	1211	3	1497	Feather12.bmp	Feather14.bmp	Feather12.bmp	Feather11.bmp	Key5.bmp	Feather12.bmp	Feather18.bmp	19	1	2	1	1	PASYCHOLOGIE
FAUST_1[2014-06]	13	4	6	6	2	1	1	2	1	0	932	1	1	1	1864	2	2115	Car21.bmp	Fudge17.bmp	Fudge15.bmp	Fudge20.bmp	Fudge5.bmp	Fudge20.bmp	Car14.bmp	19	1	2	1	1	PASYCHOLOGIE
FAUST_1[2014-06]	13	4	5	6	2	2	1	2	1	0	982	2	2	1	1890	2	1237	Cake24.bmp	Cake16.bmp	Hand8.bmp	Hand1.bmp	Hand13.bmp	Cake16.bmp	Hand10.bmp	19	1	2	1	1	PASYCHOLOGIE
FAUST_1[2014-06]	13	4	15	6	2	1	2	2	2	1	1250	2	2	1	1074	4	1250	Jigsaw10.bmp	Jigsaw18.bmp	Jigsaw11.bmp	Man10.bmp	Jigsaw14.bmp	Jigsaw17.bmp	Man10.bmp	19	1	2	1	1	PASYCHOLOGIE
FAUST_1[2014-06]	13	4	16	6	2	2	2	2	2	1	1122	2	2	1	1733	3	1489	Chocolate17.bmp	Chocolate5.bmp	String12.bmp	Chocolate24.bmp	Chocolate9.bmp	Chocolate6.bmp	Chocolate5.bmp	19	1	2	1	1	PASYCHOLOGIE
FAUST_1[2014-06]	13	4	21	6	2	1	1	2	2	1	842	1	1	1	919	3	1316	Holly3.bmp	Nut2.bmp	Holly17.bmp	Nut21.bmp	Nut2.bmp	Nut18.bmp	Nut19.bmp	19	1	2	1	1	PASYCHOLOGIE
FAUST_1[2014-06]	13	4	11	6	2	2	1	2	1	0	1193	2	2	1	1325	2	1422	Shell9.bmp	Coins3.bmp	Shell5.bmp	Coins14.bmp	Coins12.bmp	Shell5.bmp	Coins8.bmp	19	1	2	1	1	PASYCHOLOGIE
FAUST_1[2014-06]	13	4	22	6	2	1	2	2	1	0	1864	2	1	0	1400	2	1455	Chilli14.bmp	Chilli12.bmp	Brocolli19.bmp	Chilli11.bmp	Chilli22.bmp	Chilli19.bmp	Brocolli19.bmp	19	1	2	1	1	PASYCHOLOGIE
FAUST_1[2014-06]	13	4	10	6	2	2	2	2	1	0	939	2	2	1	1435	3	2065	Daff22.bmp	Daff1.bmp	Fork14.bmp	Daff3.bmp	Daff9.bmp	Daff21.bmp	Daff1.bmp	19	1	2	1	1	PASYCHOLOGIE
FAUST_1[2014-06]	13	4	17	6	2	1	1	3	2	1	969	1	1	1	939	4	1411	Mushroom25.bmp	Flower3.bmp	Flower14.bmp	Flower3.bmp	Flower13.bmp	Flower17.bmp	Sweet1.bmp	19	1	2	1	1	PASYCHOLOGIE
FAUST_1[2014-06]	13	4	14	6	2	2	1	3	2	1	1016	2	2	1	1633	4	1555	Button3.bmp	Paperclip4.bmp	Stapler8.bmp	Paperclip13.bmp	Stapler8.bmp	Paperclip14.bmp	Paperclip9.bmp	19	1	2	1	1	PASYCHOLOGIE
FAUST_1[2014-06]	13	4	20	6	2	1	1	3	2	1	1103	2	2	1	1063	4	1268	Star1.bmp	Ginger3.bmp	Ginger17.bmp	Leaf22.bmp	Ginger5.bmp	Ginger10.bmp	Ginger5.bmp	19	1	2	1	1	PASYCHOLOGIE
FAUST_1[2014-06]	13	4	2	6	2	2	1	3	2	1	1271	2	2	1	1462	3	2250	Strawberry14.bmp	Bag4.bmp	Glass12.bmp	Glass19.bmp	Glass3.bmp	Glass16.bmp	Bag4.bmp	19	1	2	1	1	PASYCHOLOGIE
FAUST_1[2014-06]	13	4	9	6	2	1	1	3	2	1	952	1	1	1	1353	3	1922	Toothbrush12.bmp	Lipstick15.bmp	Lipstick9.bmp	Lipstick15.bmp	Bun22.bmp	Lipstick3.bmp	Lipstick2.bmp	19	1	2	1	1	PASYCHOLOGIE
FAUST_1[2014-06]	13	4	7	6	2	2	1	3	2	1	1047	2	2	1	1606	4	4040	Swirl5.bmp	Apple21.bmp	Bracelet2.bmp	Bracelet5.bmp	Bracelet8.bmp	Apple21.bmp	Bracelet18.bmp	19	1	2	1	1	PASYCHOLOGIE
