experiment	subject	trial	order	material	repeated	related	probetype	response	correct	rt	confidence	confidence_rt	probe	category	ndisplayed	nrelated	nrelated_unique	trial1	trial2	trial3	trial4	mean_trial	last_trial	age	sex	handedness	color_vision	mother_tongue	occupation
FAUST_1[2014-06]	15	-1	4	migo	1	1	lure	2	1	1774	4	2272	Jigsaw10.bmp	24	0	3	1	0	0	0	0	0,000000	0	25	1	1	1	1	PSYCHOLOGIE
FAUST_1[2014-06]	15	-1	4	migo	3	3	target	1	1	1460	3	1523	Holly20.bmp	23	3	6	4	15	15	31	0	20,000000	31	25	1	1	1	1	PSYCHOLOGIE
FAUST_1[2014-06]	15	-1	4	migo	1	2	lure	1	0	10193	2	1280	Present14.bmp	37	0	2	2	0	0	0	0	0,000000	0	25	1	1	1	1	PSYCHOLOGIE
FAUST_1[2014-06]	15	-1	4	migo	2	1	lure	1	0	1447	3	1740	Fudge20.bmp	18	0	4	2	0	0	0	0	0,000000	0	25	1	1	1	1	PSYCHOLOGIE
FAUST_1[2014-06]	15	-1	4	migo	2	2	target	1	1	1261	3	1218	Ginger3.bmp	19	3	8	4	5	29	29	0	21,000000	29	25	1	1	1	1	PSYCHOLOGIE
FAUST_1[2014-06]	15	-1	4	migo	1	1	target	2	0	1046	2	1130	Keys5.bmp	26	1	1	1	5	0	0	0	5,000000	5	25	1	1	1	1	PSYCHOLOGIE
FAUST_1[2014-06]	15	-1	4	migo	2	2	target	1	1	1068	4	2061	Bun12.bmp	6	3	9	4	21	38	38	0	32,000000	38	25	1	1	1	1	PSYCHOLOGIE
FAUST_1[2014-06]	15	-1	4	migo	2	1	target	2	0	865	2	1029	Shell5.bmp	40	3	3	3	3	3	34	0	13,000000	34	25	1	1	1	1	PSYCHOLOGIE
FAUST_1[2014-06]	15	-1	4	migo	2	2	lure	2	1	1584	3	1400	Candle10.bmp	9	0	7	4	0	0	0	0	0,000000	0	25	1	1	1	1	PSYCHOLOGIE
FAUST_1[2014-06]	15	-1	4	migo	3	3	lure	2	1	1298	2	981	Bag25.bmp	2	0	3	2	0	0	0	0	0,000000	0	25	1	1	1	1	PSYCHOLOGIE
FAUST_1[2014-06]	15	-1	4	migo	2	2	lure	1	0	1374	2	1457	Strawberry14.bmp	43	0	8	4	0	0	0	0	0,000000	0	25	1	1	1	1	PSYCHOLOGIE
FAUST_1[2014-06]	15	-1	4	migo	1	2	target	1	1	1470	3	1145	Feather18.bmp	15	1	9	4	10	0	0	0	10,000000	10	25	1	1	1	1	PSYCHOLOGIE
FAUST_1[2014-06]	15	-1	4	migo	1	1	lure	2	1	1085	3	1931	Car12.bmp	10	0	2	1	0	0	0	0	0,000000	0	25	1	1	1	1	PSYCHOLOGIE
FAUST_1[2014-06]	15	-1	4	migo	1	2	target	2	0	1160	3	991	Chocolate24.bmp	12	1	10	4	12	0	0	0	12,000000	12	25	1	1	1	1	PSYCHOLOGIE
FAUST_1[2014-06]	15	-1	4	migo	2	1	target	2	0	1556	2	1660	Coins10.bmp	13	2	1	1	35	35	0	0	35,000000	35	25	1	1	1	1	PSYCHOLOGIE
FAUST_1[2014-06]	15	-1	4	migo	1	2	lure	1	0	1071	3	1561	Tomato12.bmp	47	0	4	3	0	0	0	0	0,000000	0	25	1	1	1	1	PSYCHOLOGIE
FAUST_1[2014-06]	15	-1	4	migo	2	1	lure	2	1	706	3	920	Button10.bmp	7	0	6	2	0	0	0	0	0,000000	0	25	1	1	1	1	PSYCHOLOGIE
FAUST_1[2014-06]	15	-1	4	migo	1	1	target	1	1	1268	2	1844	Biscuit20.bmp	3	1	1	1	33	0	0	0	33,000000	33	25	1	1	1	1	PSYCHOLOGIE
FAUST_1[2014-06]	15	-1	4	migo	3	3	lure	1	0	1642	3	1206	Screw9.bmp	39	0	3	2	0	0	0	0	0,000000	0	25	1	1	1	1	PSYCHOLOGIE
FAUST_1[2014-06]	15	-1	4	migo	3	3	target	1	1	1222	3	793	Daff1.bmp	14	2	7	3	13	27	0	0	20,000000	27	25	1	1	1	1	PSYCHOLOGIE
FAUST_1[2014-06]	15	-1	4	words	1	1	lure	2	1	944	4	1982	ameise	13	0	3	1	0	0	0	0	0,000000	0	25	1	1	1	1	PSYCHOLOGIE
FAUST_1[2014-06]	15	-1	4	words	3	3	target	2	0	898	4	708	arzt	11	1	5	3	42	0	0	0	42,000000	42	25	1	1	1	1	PSYCHOLOGIE
FAUST_1[2014-06]	15	-1	4	words	2	2	target	2	0	1048	3	789	klarinette	14	3	9	4	13	13	37	0	21,000000	37	25	1	1	1	1	PSYCHOLOGIE
FAUST_1[2014-06]	15	-1	4	words	2	1	lure	2	1	811	3	1067	hose	5	0	4	2	0	0	0	0	0,000000	0	25	1	1	1	1	PSYCHOLOGIE
FAUST_1[2014-06]	15	-1	4	words	3	3	target	2	0	1491	3	748	terrier	46	2	5	3	28	28	0	0	28,000000	28	25	1	1	1	1	PSYCHOLOGIE
FAUST_1[2014-06]	15	-1	4	words	1	1	target	1	1	2763	1	1900	mathematik	19	1	1	1	58	0	0	0	58,000000	58	25	1	1	1	1	PSYCHOLOGIE
FAUST_1[2014-06]	15	-1	4	words	1	2	lure	2	1	1090	3	2036	rot	49	0	2	2	0	0	0	0	0,000000	0	25	1	1	1	1	PSYCHOLOGIE
FAUST_1[2014-06]	15	-1	4	words	1	2	lure	2	1	1377	4	1468	küchenwaage	68	0	4	3	0	0	0	0	0,000000	0	25	1	1	1	1	PSYCHOLOGIE
FAUST_1[2014-06]	15	-1	4	words	2	1	target	2	0	1331	3	1308	blockhaus	23	4	1	1	29	29	63	63	46,000000	63	25	1	1	1	1	PSYCHOLOGIE
FAUST_1[2014-06]	15	-1	4	words	2	1	target	1	1	1522	3	883	gepard	40	4	3	3	30	30	56	56	43,000000	56	25	1	1	1	1	PSYCHOLOGIE
FAUST_1[2014-06]	15	-1	4	words	3	3	lure	1	0	2939	3	2035	büroklammer	32	0	3	2	0	0	0	0	0,000000	0	25	1	1	1	1	PSYCHOLOGIE
FAUST_1[2014-06]	15	-1	4	words	2	2	target	2	0	1292	3	875	majoran	25	4	6	4	26	26	39	39	32,000000	39	25	1	1	1	1	PSYCHOLOGIE
FAUST_1[2014-06]	15	-1	4	words	1	1	lure	1	0	1001	1	1238	windpocken	22	0	3	1	0	0	0	0	0,000000	0	25	1	1	1	1	PSYCHOLOGIE
FAUST_1[2014-06]	15	-1	4	words	2	2	lure	2	1	1198	3	1033	tag	71	0	9	4	0	0	0	0	0,000000	0	25	1	1	1	1	PSYCHOLOGIE
FAUST_1[2014-06]	15	-1	4	words	1	2	target	2	0	1075	3	930	ärger	44	1	9	4	34	0	0	0	34,000000	34	25	1	1	1	1	PSYCHOLOGIE
FAUST_1[2014-06]	15	-1	4	words	2	2	lure	2	1	1002	4	786	säge	4	0	8	4	0	0	0	0	0,000000	0	25	1	1	1	1	PSYCHOLOGIE
FAUST_1[2014-06]	15	-1	4	words	2	1	target	2	0	834	4	1165	jupiter	60	4	3	3	19	19	61	61	40,000000	61	25	1	1	1	1	PSYCHOLOGIE
FAUST_1[2014-06]	15	-1	4	words	3	3	lure	1	0	984	2	1942	meise	9	0	3	2	0	0	0	0	0,000000	0	25	1	1	1	1	PSYCHOLOGIE
FAUST_1[2014-06]	15	-1	4	words	2	1	lure	2	1	1027	4	1516	rose	7	0	5	1	0	0	0	0	0,000000	0	25	1	1	1	1	PSYCHOLOGIE
FAUST_1[2014-06]	15	-1	4	words	1	2	target	2	0	1480	4	830	boot	35	1	9	4	54	0	0	0	54,000000	54	25	1	1	1	1	PSYCHOLOGIE
FAUST_1[2014-06]	15	-1	4	words	1	1	target	2	0	817	4	1038	wassermann	39	1	1	1	53	0	0	0	53,000000	53	25	1	1	1	1	PSYCHOLOGIE
FAUST_1[2014-06]	15	-1	4	words	1	2	target	2	0	661	2	2633	see	67	1	11	4	53	0	0	0	53,000000	53	25	1	1	1	1	PSYCHOLOGIE
FAUST_1[2014-06]	15	-1	4	words	2	2	target	2	0	2013	2	898	hering	12	3	7	4	14	58	58	0	43,000000	58	25	1	1	1	1	PSYCHOLOGIE
FAUST_1[2014-06]	15	-1	4	words	2	2	lure	1	0	2899	3	686	schach	57	0	10	4	0	0	0	0	0,000000	0	25	1	1	1	1	PSYCHOLOGIE
FAUST_1[2014-06]	15	-1	4	words	3	3	target	2	0	745	3	1238	sehen	65	2	6	4	19	45	0	0	32,000000	45	25	1	1	1	1	PSYCHOLOGIE
FAUST_1[2014-06]	15	-1	4	words	1	1	lure	2	1	677	3	865	bus	34	0	2	2	0	0	0	0	0,000000	0	25	1	1	1	1	PSYCHOLOGIE
FAUST_1[2014-06]	15	-1	4	words	3	3	lure	2	1	699	3	844	seide	24	0	4	2	0	0	0	0	0,000000	0	25	1	1	1	1	PSYCHOLOGIE
FAUST_1[2014-06]	15	-1	4	words	2	1	lure	2	1	1242	3	1117	tochter	45	0	5	1	0	0	0	0	0,000000	0	25	1	1	1	1	PSYCHOLOGIE
FAUST_1[2014-06]	15	-1	4	words	1	2	lure	2	1	1130	3	942	messer	21	0	4	3	0	0	0	0	0,000000	0	25	1	1	1	1	PSYCHOLOGIE
FAUST_1[2014-06]	15	-1	4	words	1	1	target	2	0	816	4	647	brandenburg	41	1	1	1	37	0	0	0	37,000000	37	25	1	1	1	1	PSYCHOLOGIE
FAUST_1[2014-06]	15	-1	4	brady	1	2	lure	2	1	2303	4	1560	beanbagchair_12.bmp	5	0	4	3	0	0	0	0	0,000000	0	25	1	1	1	1	PSYCHOLOGIE
FAUST_1[2014-06]	15	-1	4	brady	1	1	target	1	1	1565	3	1211	doorknob_7.bmp	19	1	1	1	54	0	0	0	54,000000	54	25	1	1	1	1	PSYCHOLOGIE
FAUST_1[2014-06]	15	-1	4	brady	3	3	target	1	1	1816	3	862	trophy_15.bmp	62	1	5	3	20	0	0	0	20,000000	20	25	1	1	1	1	PSYCHOLOGIE
FAUST_1[2014-06]	15	-1	4	brady	2	2	target	1	1	1015	4	609	babycrib_5.bmp	2	3	8	4	29	54	54	0	45,000000	54	25	1	1	1	1	PSYCHOLOGIE
FAUST_1[2014-06]	15	-1	4	brady	2	2	lure	1	0	1897	2	982	cherubstatue_6.bmp	16	0	9	4	0	0	0	0	0,000000	0	25	1	1	1	1	PSYCHOLOGIE
FAUST_1[2014-06]	15	-1	4	brady	1	1	lure	1	0	2269	3	1003	glasses_13.bmp	25	0	2	1	0	0	0	0	0,000000	0	25	1	1	1	1	PSYCHOLOGIE
FAUST_1[2014-06]	15	-1	4	brady	3	3	target	1	1	1067	3	935	shredder_1.bmp	55	2	5	3	32	32	0	0	32,000000	32	25	1	1	1	1	PSYCHOLOGIE
FAUST_1[2014-06]	15	-1	4	brady	1	1	lure	2	1	1820	3	865	tricycle_10.bmp	61	0	2	1	0	0	0	0	0,000000	0	25	1	1	1	1	PSYCHOLOGIE
FAUST_1[2014-06]	15	-1	4	brady	1	2	target	1	1	1960	3	840	abacus_15.bmp	1	1	10	4	13	0	0	0	13,000000	13	25	1	1	1	1	PSYCHOLOGIE
FAUST_1[2014-06]	15	-1	4	brady	3	3	lure	2	1	1260	3	891	cake_5.bmp	8	0	3	2	0	0	0	0	0,000000	0	25	1	1	1	1	PSYCHOLOGIE
FAUST_1[2014-06]	15	-1	4	brady	1	1	lure	2	1	2270	2	1267	powerstrip_13.bmp	44	0	3	1	0	0	0	0	0,000000	0	25	1	1	1	1	PSYCHOLOGIE
FAUST_1[2014-06]	15	-1	4	brady	2	1	lure	2	1	2556	3	956	doorknocker_11.bmp	20	0	4	2	0	0	0	0	0,000000	0	25	1	1	1	1	PSYCHOLOGIE
FAUST_1[2014-06]	15	-1	4	brady	2	1	lure	2	1	1454	3	890	bowlingpin_11.bmp	7	0	4	2	0	0	0	0	0,000000	0	25	1	1	1	1	PSYCHOLOGIE
FAUST_1[2014-06]	15	-1	4	brady	2	2	target	2	0	1750	2	1026	cheesegrater_8.bmp	15	3	7	4	9	43	43	0	31,000000	43	25	1	1	1	1	PSYCHOLOGIE
FAUST_1[2014-06]	15	-1	4	brady	3	3	target	1	1	1210	2	2686	laptop_7.bmp	36	3	5	4	20	20	48	0	29,000000	48	25	1	1	1	1	PSYCHOLOGIE
FAUST_1[2014-06]	15	-1	4	brady	2	1	target	1	1	1356	3	821	cellphone_11.bmp	13	3	3	3	30	59	59	0	49,000000	59	25	1	1	1	1	PSYCHOLOGIE
FAUST_1[2014-06]	15	-1	4	brady	2	1	lure	2	1	1088	3	1033	vase_15.bmp	67	0	5	2	0	0	0	0	0,000000	0	25	1	1	1	1	PSYCHOLOGIE
FAUST_1[2014-06]	15	-1	4	brady	1	2	lure	1	0	2072	3	823	easteregg_17.bmp	21	0	3	3	0	0	0	0	0,000000	0	25	1	1	1	1	PSYCHOLOGIE
FAUST_1[2014-06]	15	-1	4	brady	2	2	target	1	1	1857	3	1101	windchime_10.bmp	72	3	8	4	16	16	53	0	28,000000	53	25	1	1	1	1	PSYCHOLOGIE
FAUST_1[2014-06]	15	-1	4	brady	2	1	target	1	1	1267	3	1485	coffee_15.bmp	18	3	0	0	24	24	42	0	30,000000	42	25	1	1	1	1	PSYCHOLOGIE
FAUST_1[2014-06]	15	-1	4	brady	1	2	target	1	1	2283	3	1078	horseshoe_5.bmp	33	1	9	4	35	0	0	0	35,000000	35	25	1	1	1	1	PSYCHOLOGIE
FAUST_1[2014-06]	15	-1	4	brady	2	2	lure	2	1	2648	2	967	scooter_5.bmp	53	0	9	4	0	0	0	0	0,000000	0	25	1	1	1	1	PSYCHOLOGIE
FAUST_1[2014-06]	15	-1	4	brady	3	3	lure	2	1	872	3	776	watch_8.bmp	69	0	4	2	0	0	0	0	0,000000	0	25	1	1	1	1	PSYCHOLOGIE
FAUST_1[2014-06]	15	-1	4	brady	2	2	lure	2	1	1240	3	1065	rollerskates_2.bmp	48	0	10	4	0	0	0	0	0,000000	0	25	1	1	1	1	PSYCHOLOGIE
FAUST_1[2014-06]	15	-1	4	brady	1	1	target	2	0	1124	3	828	highchair_10.bmp	32	1	1	1	19	0	0	0	19,000000	19	25	1	1	1	1	PSYCHOLOGIE
FAUST_1[2014-06]	15	-1	4	brady	3	3	lure	2	1	2071	3	874	parfait_4.bmp	41	0	3	2	0	0	0	0	0,000000	0	25	1	1	1	1	PSYCHOLOGIE
FAUST_1[2014-06]	15	-1	4	brady	1	2	lure	2	1	2142	3	1193	birdhouse_11.bmp	6	0	4	3	0	0	0	0	0,000000	0	25	1	1	1	1	PSYCHOLOGIE
FAUST_1[2014-06]	15	-1	4	brady	1	2	target	1	1	2695	3	1135	mic_3.bmp	39	1	9	4	36	0	0	0	36,000000	36	25	1	1	1	1	PSYCHOLOGIE
FAUST_1[2014-06]	15	-1	4	brady	1	1	target	2	0	1125	3	595	chair_2.bmp	14	1	1	1	4	0	0	0	4,000000	4	25	1	1	1	1	PSYCHOLOGIE
FAUST_1[2014-06]	15	-1	4	brady	2	1	target	1	1	1591	3	610	trunk_5.bmp	64	4	2	2	22	22	63	63	42,000000	63	25	1	1	1	1	PSYCHOLOGIE
