experiment	subject	block	trial	order	material	repeated	related	probetype	response	correct	rt	math_response	math_correctresponse	math_correct	math_rt	confidence	confidence_rt	probe	item1	item2	item3	item4	item5	item6	age	sex	handedness	color_vision	mother_tongue	occupation
FAUST_1[2014-06]	15	1	14	4	2	1	1	1	2	0	4346	2	2	1	3226	2	2713	Onion14.bmp	Man24.bmp	Man2.bmp	Man15.bmp	Man24.bmp	Onion14.bmp	Man4.bmp	25	1	1	1	1	PSYCHOLOGIE
FAUST_1[2014-06]	15	1	16	4	2	2	1	1	1	1	2142	2	2	1	3239	3	1829	Scissors11.bmp	Scissors11.bmp	Glass4.bmp	Glass19.bmp	Glass12.bmp	Scissors11.bmp	Glass16.bmp	25	1	1	1	1	PSYCHOLOGIE
FAUST_1[2014-06]	15	1	6	4	2	1	2	1	1	1	2693	2	2	1	3108	3	2016	Star19.bmp	Star19.bmp	Star7.bmp	Toothbrush9.bmp	Star17.bmp	Star2.bmp	Toothbrush9.bmp	25	1	1	1	1	PSYCHOLOGIE
FAUST_1[2014-06]	15	1	21	4	2	2	2	1	1	1	1143	1	1	1	2354	3	2840	Bun19.bmp	Bun12.bmp	Bun19.bmp	Bun17.bmp	Bun19.bmp	Bag21.bmp	Bun22.bmp	25	1	1	1	1	PSYCHOLOGIE
FAUST_1[2014-06]	15	1	17	4	2	1	1	1	1	1	3555	2	1	0	2878	3	2907	Lipstick15.bmp	Key11.bmp	Key13.bmp	Lipstick15.bmp	Key5.bmp	Key11.bmp	Key20.bmp	25	1	1	1	1	PSYCHOLOGIE
FAUST_1[2014-06]	15	1	2	4	2	2	1	1	1	1	2781	1	1	1	2463	3	3565	Swirl1.bmp	Swirl1.bmp	Stapler9.bmp	Stapler6.bmp	Swirl1.bmp	Stapler7.bmp	Stapler10.bmp	25	1	1	1	1	PSYCHOLOGIE
FAUST_1[2014-06]	15	1	8	4	2	1	2	1	1	1	2040	1	1	1	2294	3	2292	Cake24.bmp	Screw16.bmp	Cake16.bmp	Cake24.bmp	Cake7.bmp	Screw16.bmp	Cake18.bmp	25	1	1	1	1	PSYCHOLOGIE
FAUST_1[2014-06]	15	1	5	4	2	2	2	1	2	0	2688	1	1	1	2310	1	7185	Ginger17.bmp	Ginger15.bmp	Ginger17.bmp	Ginger3.bmp	Keys5.bmp	Ginger5.bmp	Ginger17.bmp	25	1	1	1	1	PSYCHOLOGIE
FAUST_1[2014-06]	15	1	15	4	2	1	1	2	2	1	4849	1	1	1	2814	3	2079	Tomato18.bmp	Holly20.bmp	Holly14.bmp	Holly20.bmp	Holly11.bmp	Holly3.bmp	Tomato2.bmp	25	1	1	1	1	PSYCHOLOGIE
FAUST_1[2014-06]	15	1	19	4	2	2	1	2	2	1	1498	1	1	1	1804	3	1382	Plug8.bmp	Bracelet5.bmp	Plug6.bmp	Bracelet1.bmp	Bracelet8.bmp	Bracelet18.bmp	Plug6.bmp	25	1	1	1	1	PSYCHOLOGIE
FAUST_1[2014-06]	15	1	10	4	2	1	2	2	1	0	1731	2	2	1	2818	2	2307	Feather2.bmp	Leaf15.bmp	Feather12.bmp	Feather11.bmp	Feather18.bmp	Leaf15.bmp	Feather14.bmp	25	1	1	1	1	PSYCHOLOGIE
FAUST_1[2014-06]	15	1	12	4	2	2	2	2	2	1	3103	1	1	1	2622	2	1724	Chocolate17.bmp	Chocolate6.bmp	Chocolate5.bmp	Chocolate6.bmp	Chocolate9.bmp	Chocolate24.bmp	Flower17.bmp	25	1	1	1	1	PSYCHOLOGIE
FAUST_1[2014-06]	15	1	22	4	2	1	1	2	2	1	1275	2	2	1	2570	2	1620	Fork9.bmp	Candle1.bmp	Candle17.bmp	Candle20.bmp	Fork14.bmp	Candle13.bmp	Candle20.bmp	25	1	1	1	1	PSYCHOLOGIE
FAUST_1[2014-06]	15	1	18	4	2	2	1	2	2	1	216	-1	2	0	0	2	3462	Button3.bmp	Strawberry3.bmp	Strawberry21.bmp	Strawberry4.bmp	Button14.bmp	Strawberry18.bmp	Button14.bmp	25	1	1	1	1	PSYCHOLOGIE
FAUST_1[2014-06]	15	1	1	4	2	1	2	2	1	0	5506	-1	2	0	0	3	5867	Nut21.bmp	Varnish5.bmp	Nut11.bmp	Nut19.bmp	Nut18.bmp	Nut2.bmp	Varnish5.bmp	25	1	1	1	1	PSYCHOLOGIE
FAUST_1[2014-06]	15	1	9	4	2	2	2	2	1	0	1728	1	1	1	2293	3	1421	Brocolli4.bmp	Brocolli10.bmp	Brocolli9.bmp	String12.bmp	Brocolli19.bmp	Brocolli14.bmp	Brocolli10.bmp	25	1	1	1	1	PSYCHOLOGIE
FAUST_1[2014-06]	15	1	11	4	2	1	1	3	2	1	1890	1	1	1	2828	4	2214	Coins3.bmp	Hand8.bmp	Mushroom14.bmp	Mushroom7.bmp	Mushroom18.bmp	Mushroom6.bmp	Mushroom7.bmp	25	1	1	1	1	PSYCHOLOGIE
FAUST_1[2014-06]	15	1	20	4	2	2	1	3	2	1	3479	-1	2	0	0	3	1245	Biscuit17.bmp	Pear16.bmp	Umbrella19.bmp	Pear18.bmp	Pear4.bmp	Pear7.bmp	Umbrella19.bmp	25	1	1	1	1	PSYCHOLOGIE
FAUST_1[2014-06]	15	1	3	4	2	1	1	3	2	1	3310	2	2	1	3057	3	3295	Fudge17.bmp	Shell5.bmp	Shell18.bmp	Apple18.bmp	Shell17.bmp	Shell5.bmp	Shell9.bmp	25	1	1	1	1	PSYCHOLOGIE
FAUST_1[2014-06]	15	1	13	4	2	2	1	3	2	1	2017	1	1	1	2346	3	1392	Jigsaw11.bmp	Daff21.bmp	Daff9.bmp	Sweet22.bmp	Daff3.bmp	Daff1.bmp	Sweet22.bmp	25	1	1	1	1	PSYCHOLOGIE
FAUST_1[2014-06]	15	1	7	4	2	1	1	3	2	1	2440	1	1	1	2388	3	2963	Present2.bmp	Hanger12.bmp	Hanger7.bmp	Hanger14.bmp	Hanger7.bmp	Paperclip14.bmp	Hanger15.bmp	25	1	1	1	1	PSYCHOLOGIE
FAUST_1[2014-06]	15	1	4	4	2	2	1	3	2	1	1647	1	1	1	2630	3	2079	Car7.bmp	Chilli12.bmp	Pen20.bmp	Chilli11.bmp	Pen20.bmp	Chilli14.bmp	Chilli19.bmp	25	1	1	1	1	PSYCHOLOGIE
FAUST_1[2014-06]	15	2	7	4	1	1	1	1	2	0	2308	2	2	1	2519	2	1227	KARAFFE	karaffe	lakritz	karamell	bonbons	gummibärchen	bonbons	25	1	1	1	1	PSYCHOLOGIE
FAUST_1[2014-06]	15	2	10	4	1	2	1	1	1	1	1337	2	2	1	1967	4	2539	FLANELL	flanell	tomaten	flanell	blumenkohl	bohnen	karotten	25	1	1	1	1	PSYCHOLOGIE
FAUST_1[2014-06]	15	2	29	4	1	1	2	1	2	0	2186	2	2	1	2065	2	1601	SCHWERT	blockhaus	pistole	dolch	gewehr	schwert	blockhaus	25	1	1	1	1	PSYCHOLOGIE
FAUST_1[2014-06]	15	2	9	4	1	2	2	1	2	0	940	2	2	1	2246	4	1824	TEICH	ozean	teich	kaiser	teich	fluss	meer	25	1	1	1	1	PSYCHOLOGIE
FAUST_1[2014-06]	15	2	26	4	1	1	1	1	2	0	950	2	2	1	2240	4	1297	NÄHNADEL	majoran	thymian	oregano	koriander	majoran	nähnadel	25	1	1	1	1	PSYCHOLOGIE
FAUST_1[2014-06]	15	2	14	4	1	2	1	1	1	1	1785	2	2	1	1709	3	2257	ROCK	thunfisch	makrele	lachs	rock	hering	rock	25	1	1	1	1	PSYCHOLOGIE
FAUST_1[2014-06]	15	2	30	4	1	1	2	1	2	0	2042	1	1	1	3352	4	1151	MINUTE	gepard	jahr	sekunde	gepard	minute	stunde	25	1	1	1	1	PSYCHOLOGIE
FAUST_1[2014-06]	15	2	24	4	1	2	2	1	1	1	1400	2	2	1	1548	3	1424	ANGST	angst	trauer	freude	angst	amsel	scham	25	1	1	1	1	PSYCHOLOGIE
FAUST_1[2014-06]	15	2	8	4	1	1	1	1	2	0	1130	2	2	1	2442	4	1252	EISEN	monopoly	halma	eisen	scrabble	backgammon	monopoly	25	1	1	1	1	PSYCHOLOGIE
FAUST_1[2014-06]	15	2	23	4	1	2	1	1	1	1	1242	1	1	1	1999	4	1644	MUTTER	cent	dollar	mutter	mark	pfennig	mutter	25	1	1	1	1	PSYCHOLOGIE
FAUST_1[2014-06]	15	2	12	4	1	1	2	1	1	1	1202	2	2	1	1620	4	1752	LIDSCHATTEN	kajal	lidschatten	benzin	wimperntusche	benzin	lippenstift	25	1	1	1	1	PSYCHOLOGIE
FAUST_1[2014-06]	15	2	20	4	1	2	2	1	1	1	1121	1	1	1	2415	4	1646	HASCHISCH	opium	haschisch	kokain	haschisch	sachsen	heroin	25	1	1	1	1	PSYCHOLOGIE
FAUST_1[2014-06]	15	2	16	4	1	1	1	2	2	1	1005	2	2	1	1625	4	1933	BUNTSTIFT	hexe	werwolf	zombie	hexe	füller	vampir	25	1	1	1	1	PSYCHOLOGIE
FAUST_1[2014-06]	15	2	6	4	1	2	1	2	2	1	858	2	2	1	2262	4	898	SCHREIBEN	hamburger	malen	döner	pommes	bratwurst	malen	25	1	1	1	1	PSYCHOLOGIE
FAUST_1[2014-06]	15	2	15	4	1	1	2	2	2	1	2215	2	1	0	2641	4	2391	REGEN	hagel	sonnenschein	nebel	nelke	schnee	nelke	25	1	1	1	1	PSYCHOLOGIE
FAUST_1[2014-06]	15	2	3	4	1	2	2	2	2	1	4236	2	2	1	2627	4	1049	SYNAGOGE	kirche	kapelle	moschee	masern	moschee	tempel	25	1	1	1	1	PSYCHOLOGIE
FAUST_1[2014-06]	15	2	11	4	1	1	1	2	2	1	1043	2	2	1	3416	3	1499	LEHRER	dinkel	richter	hafer	roggen	dinkel	weizen	25	1	1	1	1	PSYCHOLOGIE
FAUST_1[2014-06]	15	2	5	4	1	2	1	2	2	1	2283	2	1	0	2514	3	2283	BRAHMS	chachacha	beethoven	foxtrott	tango	beethoven	rumba	25	1	1	1	1	PSYCHOLOGIE
FAUST_1[2014-06]	15	2	22	4	1	1	2	2	2	1	2595	-1	1	0	0	2	1561	PORSCHE	audi	peugeot	mercedes	brotmesser	volvo	brotmesser	25	1	1	1	1	PSYCHOLOGIE
FAUST_1[2014-06]	15	2	4	4	1	2	2	2	2	1	1486	2	2	1	2127	4	1424	RÜCKSPIEGEL	lenkrad	kupplung	handbremse	zwilling	kupplung	gaspedal	25	1	1	1	1	PSYCHOLOGIE
FAUST_1[2014-06]	15	2	2	4	1	1	1	2	2	1	1011	2	2	1	1686	4	1679	LAPTOP	donau	main	rhein	weser	drucker	weser	25	1	1	1	1	PSYCHOLOGIE
FAUST_1[2014-06]	15	2	27	4	1	2	1	2	2	1	1198	1	1	1	3331	4	1593	KILOMETER	dreieck	viereck	kreis	millimeter	quadrat	millimeter	25	1	1	1	1	PSYCHOLOGIE
FAUST_1[2014-06]	15	2	1	4	1	1	2	2	2	1	1473	1	1	1	2145	3	2228	APFEL	nudelholz	birne	pflaume	erdbeere	banane	nudelholz	25	1	1	1	1	PSYCHOLOGIE
FAUST_1[2014-06]	15	2	13	4	1	2	2	2	2	1	1311	2	2	1	2366	4	1910	OBOE	klarinette	trompete	flöte	konzertsaal	klarinette	posaune	25	1	1	1	1	PSYCHOLOGIE
FAUST_1[2014-06]	15	2	28	4	1	1	1	3	2	1	1846	2	1	0	2387	4	1558	SAUERSTOFF	terrier	dogge	terrier	lineal	mops	schäferhund	25	1	1	1	1	PSYCHOLOGIE
FAUST_1[2014-06]	15	2	25	4	1	2	1	3	2	1	2884	1	1	1	2896	3	1484	GRÜN	schwimmen	hammer	fußball	hammer	skifahren	golf	25	1	1	1	1	PSYCHOLOGIE
FAUST_1[2014-06]	15	2	32	4	1	1	1	3	2	1	945	1	1	1	3230	4	1464	ÖSTERREICH	niere	leber	lunge	nordamerika	magen	niere	25	1	1	1	1	PSYCHOLOGIE
FAUST_1[2014-06]	15	2	18	4	1	2	1	3	2	1	1698	-1	1	0	0	4	1526	BERUFSSCHULE	stuhl	arm	hand	stuhl	kopf	fuß	25	1	1	1	1	PSYCHOLOGIE
FAUST_1[2014-06]	15	2	31	4	1	1	1	3	2	1	1397	1	1	1	2464	4	1213	ADJEKTIV	radio	fernsehen	zeitung	fernsehen	birke	internet	25	1	1	1	1	PSYCHOLOGIE
FAUST_1[2014-06]	15	2	21	4	1	2	1	3	2	1	2225	2	2	1	2040	4	1760	HORRORFILM	tequila	berlin	whiskey	berlin	rum	wodka	25	1	1	1	1	PSYCHOLOGIE
FAUST_1[2014-06]	15	2	17	4	1	1	1	3	2	1	4923	-1	1	0	0	2	1292	FAHRRAD	yacht	kanu	fähre	schiff	yacht	mücke	25	1	1	1	1	PSYCHOLOGIE
FAUST_1[2014-06]	15	2	19	4	1	2	1	3	2	1	2256	2	1	0	3444	3	1544	BIOLOGIE	jupiter	hören	sehen	jupiter	riechen	fühlen	25	1	1	1	1	PSYCHOLOGIE
FAUST_1[2014-06]	15	3	14	4	3	1	1	1	1	1	2086	-1	2	0	0	4	1056	vase_5.bmp	lawnmower_8.bmp	lawnmower_13.bmp	lawnmower_17.bmp	lawnmower_3.bmp	vase_5.bmp	lawnmower_13.bmp	25	1	1	1	1	PSYCHOLOGIE
FAUST_1[2014-06]	15	3	21	4	3	2	1	1	1	1	2312	-1	2	0	0	2	1815	guitar_10.bmp	orifan_6.bmp	guitar_10.bmp	orifan_17.bmp	orifan_1.bmp	orifan_14.bmp	guitar_10.bmp	25	1	1	1	1	PSYCHOLOGIE
FAUST_1[2014-06]	15	3	11	4	3	1	2	1	1	1	1176	1	1	1	2302	4	1386	socks_15.bmp	cake_3.bmp	socks_15.bmp	socks_10.bmp	cake_3.bmp	socks_13.bmp	socks_12.bmp	25	1	1	1	1	PSYCHOLOGIE
FAUST_1[2014-06]	15	3	13	4	3	2	2	1	1	1	1939	2	2	1	2929	4	1436	abacus_7.bmp	abacus_15.bmp	abacus_7.bmp	easteregg_14.bmp	abacus_4.bmp	abacus_7.bmp	abacus_2.bmp	25	1	1	1	1	PSYCHOLOGIE
FAUST_1[2014-06]	15	3	32	4	3	1	1	1	2	0	2570	-1	2	0	0	3	1642	tv_8.bmp	shredder_7.bmp	shredder_1.bmp	tv_8.bmp	shredder_15.bmp	shredder_1.bmp	shredder_6.bmp	25	1	1	1	1	PSYCHOLOGIE
FAUST_1[2014-06]	15	3	8	4	3	2	1	1	1	1	1391	2	2	1	2916	4	1193	hairdryer_14.bmp	saddle_5.bmp	hairdryer_14.bmp	saddle_8.bmp	hairdryer_14.bmp	saddle_4.bmp	saddle_3.bmp	25	1	1	1	1	PSYCHOLOGIE
FAUST_1[2014-06]	15	3	17	4	3	1	2	1	2	0	26	-1	2	0	0	3	2942	printer_14.bmp	printer_5.bmp	printer_3.bmp	goggle_3.bmp	printer_16.bmp	printer_14.bmp	goggle_3.bmp	25	1	1	1	1	PSYCHOLOGIE
FAUST_1[2014-06]	15	3	6	4	3	2	2	1	1	1	1134	2	2	1	1593	3	2113	garbagecan_2.bmp	garbagecan_2.bmp	garbagecan_10.bmp	garbagecan_8.bmp	garbagecan_13.bmp	powerstrip_10.bmp	garbagecan_2.bmp	25	1	1	1	1	PSYCHOLOGIE
FAUST_1[2014-06]	15	3	27	4	3	1	1	1	2	0	1255	2	2	1	1554	3	1312	plant_13.bmp	circuitboard_2.bmp	circuitboard_8.bmp	circuitboard_4.bmp	circuitboard_16.bmp	circuitboard_2.bmp	plant_13.bmp	25	1	1	1	1	PSYCHOLOGIE
FAUST_1[2014-06]	15	3	26	4	3	2	1	1	1	1	2088	1	1	1	2328	3	2671	bowlingpin_3.bmp	mic_12.bmp	mic_5.bmp	bowlingpin_3.bmp	mic_10.bmp	mic_2.bmp	bowlingpin_3.bmp	25	1	1	1	1	PSYCHOLOGIE
FAUST_1[2014-06]	15	3	24	4	3	1	2	1	1	1	1269	1	1	1	2128	3	1464	carabiner_9.bmp	carabiner_9.bmp	carabiner_5.bmp	coffee_15.bmp	carabiner_7.bmp	carabiner_6.bmp	coffee_15.bmp	25	1	1	1	1	PSYCHOLOGIE
FAUST_1[2014-06]	15	3	1	4	3	2	2	1	1	1	2899	-1	1	0	0	2	2035	turtle_7.bmp	turtle_11.bmp	turtle_6.bmp	turtle_7.bmp	turtle_2.bmp	tricycle_8.bmp	turtle_7.bmp	25	1	1	1	1	PSYCHOLOGIE
FAUST_1[2014-06]	15	3	2	4	3	1	1	2	1	0	1573	2	2	1	1816	4	3816	fan_15.bmp	skateboard_11.bmp	skateboard_14.bmp	fan_11.bmp	skateboard_11.bmp	skateboard_16.bmp	skateboard_15.bmp	25	1	1	1	1	PSYCHOLOGIE
FAUST_1[2014-06]	15	3	22	4	3	2	1	2	2	1	961	2	2	1	2145	4	1399	trunk_7.bmp	rollerskates_8.bmp	rollerskates_17.bmp	trunk_5.bmp	rollerskates_5.bmp	rollerskates_7.bmp	trunk_5.bmp	25	1	1	1	1	PSYCHOLOGIE
FAUST_1[2014-06]	15	3	3	4	3	1	2	2	1	0	1275	1	1	1	1425	3	2236	remote_11.bmp	remote_3.bmp	remote_2.bmp	birdhouse_6.bmp	remote_13.bmp	remote_14.bmp	birdhouse_6.bmp	25	1	1	1	1	PSYCHOLOGIE
FAUST_1[2014-06]	15	3	23	4	3	2	2	2	1	0	1275	2	2	1	1942	3	1743	flashlight_13.bmp	videogamecontroller_5.bmp	flashlight_1.bmp	flashlight_2.bmp	flashlight_1.bmp	flashlight_17.bmp	flashlight_12.bmp	25	1	1	1	1	PSYCHOLOGIE
FAUST_1[2014-06]	15	3	31	4	3	1	1	2	2	1	980	2	2	1	1397	4	2175	beanbagchair_17.bmp	saltpeppershake_9.bmp	saltpeppershake_17.bmp	saltpeppershake_8.bmp	beanbagchair_15.bmp	saltpeppershake_12.bmp	saltpeppershake_17.bmp	25	1	1	1	1	PSYCHOLOGIE
FAUST_1[2014-06]	15	3	20	4	3	2	1	2	2	1	1812	2	2	1	2717	3	951	laptop_16.bmp	laptop_7.bmp	trophy_6.bmp	trophy_4.bmp	laptop_7.bmp	trophy_15.bmp	trophy_16.bmp	25	1	1	1	1	PSYCHOLOGIE
FAUST_1[2014-06]	15	3	9	4	3	1	2	2	2	1	2895	1	1	1	2696	3	1897	cheesegrater_11.bmp	cheesegrater_8.bmp	cheesegrater_5.bmp	watch_6.bmp	cheesegrater_14.bmp	watch_6.bmp	cheesegrater_15.bmp	25	1	1	1	1	PSYCHOLOGIE
FAUST_1[2014-06]	15	3	7	4	3	2	2	2	1	0	3373	1	1	1	2751	2	1230	camera_7.bmp	camera_6.bmp	camera_9.bmp	camera_3.bmp	camera_4.bmp	camera_9.bmp	doorknocker_5.bmp	25	1	1	1	1	PSYCHOLOGIE
FAUST_1[2014-06]	15	3	16	4	3	1	1	2	2	1	1468	1	1	1	2001	4	1673	cat_1.bmp	windchime_16.bmp	windchime_3.bmp	cat_9.bmp	windchime_10.bmp	windchime_15.bmp	windchime_10.bmp	25	1	1	1	1	PSYCHOLOGIE
FAUST_1[2014-06]	15	3	25	4	3	2	1	2	1	0	1573	1	1	1	2467	4	1240	rusdoll_5.bmp	rusdoll_8.bmp	router_6.bmp	rusdoll_8.bmp	router_12.bmp	router_16.bmp	router_5.bmp	25	1	1	1	1	PSYCHOLOGIE
FAUST_1[2014-06]	15	3	28	4	3	1	2	2	2	1	1799	1	1	1	1569	4	1100	jacket_7.bmp	jacket_13.bmp	hammer_17.bmp	jacket_11.bmp	jacket_6.bmp	hammer_17.bmp	jacket_10.bmp	25	1	1	1	1	PSYCHOLOGIE
FAUST_1[2014-06]	15	3	15	4	3	2	2	2	1	0	1902	1	1	1	2625	3	923	wig_6.bmp	backpack_12.bmp	wig_7.bmp	wig_9.bmp	wig_1.bmp	wig_7.bmp	wig_12.bmp	25	1	1	1	1	PSYCHOLOGIE
FAUST_1[2014-06]	15	3	4	4	3	1	1	3	2	1	985	2	2	1	2436	4	1353	sink_10.bmp	bagel_4.bmp	bagel_10.bmp	bagel_12.bmp	chair_2.bmp	bagel_14.bmp	bagel_4.bmp	25	1	1	1	1	PSYCHOLOGIE
FAUST_1[2014-06]	15	3	12	4	3	2	1	3	2	1	1249	1	1	1	1573	4	1715	glasses_9.bmp	scooter_4.bmp	ring_7.bmp	scooter_8.bmp	scooter_10.bmp	ring_7.bmp	scooter_11.bmp	25	1	1	1	1	PSYCHOLOGIE
FAUST_1[2014-06]	15	3	29	4	3	1	1	3	2	1	1335	2	2	1	1660	4	1115	parfait_11.bmp	babycrib_5.bmp	babycrib_2.bmp	babycrib_6.bmp	iceskates_7.bmp	babycrib_7.bmp	babycrib_2.bmp	25	1	1	1	1	PSYCHOLOGIE
FAUST_1[2014-06]	15	3	10	4	3	2	1	3	2	1	1081	1	1	1	2820	4	965	sofa_3.bmp	pasta_10.bmp	pasta_15.bmp	pasta_13.bmp	trumpet_6.bmp	pasta_11.bmp	trumpet_6.bmp	25	1	1	1	1	PSYCHOLOGIE
FAUST_1[2014-06]	15	3	19	4	3	1	1	3	2	1	871	2	2	1	1979	4	1169	doorknob_17.bmp	speaker_4.bmp	speaker_6.bmp	speaker_10.bmp	speaker_15.bmp	speaker_4.bmp	highchair_10.bmp	25	1	1	1	1	PSYCHOLOGIE
FAUST_1[2014-06]	15	3	5	4	3	2	1	3	2	1	1224	1	1	1	1808	4	1643	carriage_12.bmp	leatherman_14.bmp	cherubstatue_11.bmp	cherubstatue_12.bmp	leatherman_14.bmp	cherubstatue_5.bmp	cherubstatue_10.bmp	25	1	1	1	1	PSYCHOLOGIE
FAUST_1[2014-06]	15	3	18	4	3	1	1	3	2	1	1042	-1	2	0	0	4	1247	shoe_9.bmp	horseshoe_3.bmp	horseshoe_6.bmp	hairbrush_15.bmp	horseshoe_12.bmp	horseshoe_4.bmp	horseshoe_12.bmp	25	1	1	1	1	PSYCHOLOGIE
FAUST_1[2014-06]	15	3	30	4	3	2	1	3	2	1	947	2	2	1	1510	4	1400	watergun_3.bmp	cellphone_3.bmp	cellphone_4.bmp	glove_12.bmp	cellphone_12.bmp	glove_12.bmp	cellphone_11.bmp	25	1	1	1	1	PSYCHOLOGIE
FAUST_1[2014-06]	15	2	22	4	2	1	1	1	1	1	2999	1	1	1	3132	2	2022	Bag3.bmp	Feather11.bmp	Feather2.bmp	Bag3.bmp	Feather14.bmp	Feather12.bmp	Feather14.bmp	25	1	1	1	1	PSYCHOLOGIE
FAUST_1[2014-06]	15	2	17	4	2	2	1	1	1	1	1214	2	2	1	1791	4	1789	Button14.bmp	Onion18.bmp	Button14.bmp	Onion14.bmp	Onion19.bmp	Onion13.bmp	Button14.bmp	25	1	1	1	1	PSYCHOLOGIE
FAUST_1[2014-06]	15	2	14	4	2	1	2	1	1	1	1867	2	2	1	2540	4	1798	Chocolate6.bmp	Jigsaw11.bmp	Chocolate17.bmp	Chocolate9.bmp	Jigsaw11.bmp	Chocolate5.bmp	Chocolate6.bmp	25	1	1	1	1	PSYCHOLOGIE
FAUST_1[2014-06]	15	2	12	4	2	2	2	1	1	1	2120	1	1	1	2652	3	1482	Paperclip6.bmp	Paperclip4.bmp	Shell5.bmp	Paperclip9.bmp	Paperclip6.bmp	Paperclip14.bmp	Paperclip6.bmp	25	1	1	1	1	PSYCHOLOGIE
FAUST_1[2014-06]	15	2	7	4	2	1	1	1	1	1	1488	1	1	1	1906	4	1151	String6.bmp	String6.bmp	Ginger5.bmp	Ginger10.bmp	Ginger3.bmp	Ginger15.bmp	Ginger3.bmp	25	1	1	1	1	PSYCHOLOGIE
FAUST_1[2014-06]	15	2	20	4	2	2	1	1	1	1	2911	2	1	0	2998	3	1237	Fudge15.bmp	Fudge15.bmp	Strawberry18.bmp	Strawberry4.bmp	Strawberry21.bmp	Strawberry3.bmp	Fudge15.bmp	25	1	1	1	1	PSYCHOLOGIE
FAUST_1[2014-06]	15	2	4	4	2	1	2	1	2	0	1465	2	2	1	2789	3	2109	Man10.bmp	Flower3.bmp	Man10.bmp	Man4.bmp	Man24.bmp	Flower3.bmp	Man15.bmp	25	1	1	1	1	PSYCHOLOGIE
FAUST_1[2014-06]	15	2	8	4	2	2	2	1	1	1	1055	1	1	1	1851	4	2044	Pear4.bmp	Pear18.bmp	Pear4.bmp	Nut21.bmp	Pear15.bmp	Pear4.bmp	Pear7.bmp	25	1	1	1	1	PSYCHOLOGIE
FAUST_1[2014-06]	15	2	18	4	2	1	1	2	2	1	3397	2	1	0	3100	4	1305	Candle17.bmp	Pen5.bmp	Pen10.bmp	Candle13.bmp	Pen5.bmp	Pen1.bmp	Pen17.bmp	25	1	1	1	1	PSYCHOLOGIE
FAUST_1[2014-06]	15	2	10	4	2	2	1	2	2	1	1029	1	1	1	1522	4	1033	Sweet1.bmp	Cake7.bmp	Cake16.bmp	Sweet25.bmp	Cake25.bmp	Cake18.bmp	Sweet25.bmp	25	1	1	1	1	PSYCHOLOGIE
FAUST_1[2014-06]	15	2	2	4	2	1	2	2	2	1	1380	2	2	1	3303	3	1462	Fork8.bmp	Mushroom25.bmp	Fork7.bmp	Fork14.bmp	Fork9.bmp	Fork17.bmp	Mushroom25.bmp	25	1	1	1	1	PSYCHOLOGIE
FAUST_1[2014-06]	15	2	16	4	2	2	2	2	1	0	1648	2	2	1	2340	4	1319	Bun17.bmp	Bun22.bmp	Bun12.bmp	Bracelet8.bmp	Bun5.bmp	Bun19.bmp	Bun12.bmp	25	1	1	1	1	PSYCHOLOGIE
FAUST_1[2014-06]	15	2	6	4	2	1	1	2	1	0	3316	1	1	1	3293	2	1393	Tomato18.bmp	Plug4.bmp	Tomato5.bmp	Plug8.bmp	Plug4.bmp	Plug18.bmp	Plug9.bmp	25	1	1	1	1	PSYCHOLOGIE
FAUST_1[2014-06]	15	2	1	4	2	2	1	2	2	1	2286	2	1	0	3169	2	1167	Key13.bmp	Lipstick7.bmp	Lipstick2.bmp	Key9.bmp	Lipstick3.bmp	Lipstick9.bmp	Key9.bmp	25	1	1	1	1	PSYCHOLOGIE
FAUST_1[2014-06]	15	2	13	4	2	1	2	2	2	1	2304	1	1	1	2660	2	1164	Leaf15.bmp	Coins10.bmp	Leaf21.bmp	Leaf22.bmp	Leaf10.bmp	Leaf13.bmp	Coins10.bmp	25	1	1	1	1	PSYCHOLOGIE
FAUST_1[2014-06]	15	2	3	4	2	2	2	2	1	0	4584	2	2	1	3450	2	1232	Swirl13.bmp	Swirl23.bmp	Swirl1.bmp	Swirl5.bmp	Swirl1.bmp	Swirl10.bmp	Screw10.bmp	25	1	1	1	1	PSYCHOLOGIE
FAUST_1[2014-06]	15	2	11	4	2	1	1	3	2	1	935	2	2	1	2584	4	2247	Keys9.bmp	Star19.bmp	Biscuit20.bmp	Star17.bmp	Star7.bmp	Star1.bmp	Star7.bmp	25	1	1	1	1	PSYCHOLOGIE
FAUST_1[2014-06]	15	2	9	4	2	2	1	3	2	1	1110	1	1	1	2378	4	1534	Car7.bmp	Brocolli19.bmp	Holly20.bmp	Holly11.bmp	Brocolli19.bmp	Holly17.bmp	Holly14.bmp	25	1	1	1	1	PSYCHOLOGIE
FAUST_1[2014-06]	15	2	5	4	2	1	1	3	2	1	2262	1	2	0	1651	3	1228	Present17.bmp	Daff3.bmp	Scissors23.bmp	Daff9.bmp	Daff21.bmp	Daff3.bmp	Daff1.bmp	25	1	1	1	1	PSYCHOLOGIE
FAUST_1[2014-06]	15	2	15	4	2	2	1	3	2	1	856	1	1	1	1458	4	1009	Umbrella17.bmp	Glass3.bmp	Hanger15.bmp	Glass16.bmp	Glass12.bmp	Glass19.bmp	Hanger15.bmp	25	1	1	1	1	PSYCHOLOGIE
FAUST_1[2014-06]	15	2	21	4	2	1	1	3	2	1	4220	1	2	0	1679	2	1371	Chilli19.bmp	Apple5.bmp	Apple24.bmp	Apple18.bmp	Apple5.bmp	Apple21.bmp	Varnish17.bmp	25	1	1	1	1	PSYCHOLOGIE
FAUST_1[2014-06]	15	2	19	4	2	2	1	3	2	1	995	1	1	1	3398	3	1195	Toothbrush9.bmp	Stapler8.bmp	Hand17.bmp	Stapler6.bmp	Stapler10.bmp	Hand17.bmp	Stapler9.bmp	25	1	1	1	1	PSYCHOLOGIE
FAUST_1[2014-06]	15	3	6	4	1	1	1	1	2	0	2279	2	2	1	2658	3	1339	MÜCKE	australien	asien	mücke	australien	afrika	südamerika	25	1	1	1	1	PSYCHOLOGIE
FAUST_1[2014-06]	15	3	4	4	1	2	1	1	1	1	2671	1	1	1	3073	2	1475	NELKE	nelke	magen	nelke	lunge	leber	herz	25	1	1	1	1	PSYCHOLOGIE
FAUST_1[2014-06]	15	3	17	4	1	1	2	1	2	0	2411	2	2	1	1560	3	1749	ACTIONFILM	stecknadel	thriller	stecknadel	horrorfilm	komödie	actionfilm	25	1	1	1	1	PSYCHOLOGIE
FAUST_1[2014-06]	15	3	21	4	1	2	2	1	1	1	957	2	2	1	2345	4	1431	TEICH	teich	fluss	teich	wassermann	see	meer	25	1	1	1	1	PSYCHOLOGIE
FAUST_1[2014-06]	15	3	27	4	1	1	1	1	2	0	889	-1	2	0	0	4	1153	BRIEFÖFFNER	brieföffner	herzog	fürst	graf	könig	herzog	25	1	1	1	1	PSYCHOLOGIE
FAUST_1[2014-06]	15	3	32	4	1	2	1	1	1	1	1131	2	2	1	1523	4	1398	FOXTROTT	kanne	becher	foxtrott	flasche	karaffe	foxtrott	25	1	1	1	1	PSYCHOLOGIE
FAUST_1[2014-06]	15	3	12	4	1	1	2	1	2	0	1074	2	1	0	2225	4	2336	PETROLEUM	dogge	bleifrei	dogge	petroleum	diesel	kerosin	25	1	1	1	1	PSYCHOLOGIE
FAUST_1[2014-06]	15	3	18	4	1	2	2	1	1	1	1185	1	1	1	1446	4	1101	WHISKEY	whiskey	gin	tequila	wodka	whiskey	hexe	25	1	1	1	1	PSYCHOLOGIE
FAUST_1[2014-06]	15	3	20	4	1	1	1	1	2	0	1581	2	2	1	1839	4	813	TOMATEN	tomaten	stuttgart	hannover	stuttgart	hamburg	berlin	25	1	1	1	1	PSYCHOLOGIE
FAUST_1[2014-06]	15	3	28	4	1	2	1	1	2	0	1373	2	2	1	2319	2	1021	QUADRAT	quadrat	birke	quadrat	weide	tanne	eiche	25	1	1	1	1	PSYCHOLOGIE
FAUST_1[2014-06]	15	3	30	4	1	1	2	1	1	1	2056	2	2	1	2370	3	1878	BEETHOVEN	taube	beethoven	taube	brahms	mozart	vivaldi	25	1	1	1	1	PSYCHOLOGIE
FAUST_1[2014-06]	15	3	9	4	1	2	2	1	1	1	1741	1	2	0	2998	3	1435	BOHRER	cent	bohrer	hammer	bohrer	zange	meißel	25	1	1	1	1	PSYCHOLOGIE
FAUST_1[2014-06]	15	3	29	4	1	1	1	2	2	1	1243	2	2	1	2958	4	1475	NEBEL	saturn	jupiter	regen	venus	merkur	jupiter	25	1	1	1	1	PSYCHOLOGIE
FAUST_1[2014-06]	15	3	31	4	1	2	1	2	2	1	1376	1	1	1	1306	4	1037	SCHEUNE	sekunde	blockhaus	jahr	blockhaus	minute	stunde	25	1	1	1	1	PSYCHOLOGIE
FAUST_1[2014-06]	15	3	22	4	1	1	2	2	2	1	2123	2	2	1	3021	3	1076	YACHT	kanu	boot	masern	schiff	fähre	masern	25	1	1	1	1	PSYCHOLOGIE
FAUST_1[2014-06]	15	3	23	4	1	2	2	2	2	1	3225	1	1	1	2281	2	2521	KOKAIN	cannabis	verb	heroin	cannabis	haschisch	opium	25	1	1	1	1	PSYCHOLOGIE
FAUST_1[2014-06]	15	3	8	4	1	1	1	2	2	1	866	1	1	1	2536	4	1112	BACKBLECH	drucker	kamera	drucker	computer	mobiltelefon	backform	25	1	1	1	1	PSYCHOLOGIE
FAUST_1[2014-06]	15	3	2	4	1	2	1	2	2	1	2594	2	1	0	2306	4	1551	TEMPEL	trauer	moschee	angst	freude	moschee	ärger	25	1	1	1	1	PSYCHOLOGIE
FAUST_1[2014-06]	15	3	19	4	1	1	2	2	2	1	1413	-1	1	0	0	4	1015	MEILE	theater	millimeter	meter	kilometer	theater	zentimeter	25	1	1	1	1	PSYCHOLOGIE
FAUST_1[2014-06]	15	3	26	4	1	2	2	2	2	1	1398	2	2	1	3069	4	1462	THUNFISCH	hering	makrele	lachs	mathematik	forelle	hering	25	1	1	1	1	PSYCHOLOGIE
FAUST_1[2014-06]	15	3	11	4	1	1	1	2	2	1	1207	1	1	1	3010	4	1217	GABEL	löffel	berufsschule	hauptschule	realschule	hauptschule	gymnasium	25	1	1	1	1	PSYCHOLOGIE
FAUST_1[2014-06]	15	3	10	4	1	2	1	2	2	1	1852	1	1	1	1779	3	1369	WEIZEN	richter	arzt	lehrer	roggen	polizist	roggen	25	1	1	1	1	PSYCHOLOGIE
FAUST_1[2014-06]	15	3	3	4	1	1	2	2	2	1	1935	2	1	0	2981	4	1576	WASSERSTOFF	helium	stickstoff	sofa	sauerstoff	kohlenstoff	sofa	25	1	1	1	1	PSYCHOLOGIE
FAUST_1[2014-06]	15	3	5	4	1	2	2	2	2	1	1065	1	1	1	1806	4	1509	OBOE	klarinette	brandenburg	posaune	trompete	flöte	trompete	25	1	1	1	1	PSYCHOLOGIE
FAUST_1[2014-06]	15	3	1	4	1	1	1	3	2	1	944	1	1	1	1659	4	1093	PORSCHE	banane	backgammon	scrabble	backgammon	monopoly	halma	25	1	1	1	1	PSYCHOLOGIE
FAUST_1[2014-06]	15	3	14	4	1	2	1	3	2	1	853	1	1	1	3177	4	1535	TENNIS	marzipan	england	italien	marzipan	österreich	schweiz	25	1	1	1	1	PSYCHOLOGIE
FAUST_1[2014-06]	15	3	24	4	1	1	1	3	2	1	1069	1	1	1	3167	4	1159	STRAßENBAHN	tiger	gewehr	gepard	leopard	gepard	panther	25	1	1	1	1	PSYCHOLOGIE
FAUST_1[2014-06]	15	3	15	4	1	2	1	3	2	1	1295	-1	2	0	0	4	1398	LEINEN	lesen	malen	schreiben	lippenstift	basteln	lippenstift	25	1	1	1	1	PSYCHOLOGIE
FAUST_1[2014-06]	15	3	7	4	1	1	1	3	2	1	1000	1	1	1	1784	4	1465	SILBER	thymian	blau	majoran	rosmarin	majoran	oregano	25	1	1	1	1	PSYCHOLOGIE
FAUST_1[2014-06]	15	3	13	4	1	2	1	3	2	1	1611	-1	2	0	0	4	1275	HEMD	internet	schmecken	internet	sehen	riechen	fühlen	25	1	1	1	1	PSYCHOLOGIE
FAUST_1[2014-06]	15	3	16	4	1	1	1	3	2	1	882	1	2	0	2641	4	1268	ELBE	kopf	pommes	bein	hand	arm	kopf	25	1	1	1	1	PSYCHOLOGIE
FAUST_1[2014-06]	15	3	25	4	1	2	1	3	2	1	1084	1	1	1	1123	4	1850	BUNTSTIFT	kupplung	mutter	lenkrad	gaspedal	handbremse	mutter	25	1	1	1	1	PSYCHOLOGIE
FAUST_1[2014-06]	15	4	8	4	3	1	1	1	2	0	2444	2	1	0	1738	2	1711	powerstrip_10.bmp	sink_10.bmp	sink_11.bmp	sink_15.bmp	powerstrip_10.bmp	sink_11.bmp	sink_6.bmp	25	1	1	1	1	PSYCHOLOGIE
FAUST_1[2014-06]	15	4	19	4	3	2	1	1	2	0	1184	-1	2	0	0	2	1029	vase_13.bmp	vase_13.bmp	guitar_5.bmp	vase_13.bmp	guitar_10.bmp	guitar_7.bmp	guitar_8.bmp	25	1	1	1	1	PSYCHOLOGIE
FAUST_1[2014-06]	15	4	7	4	3	1	2	1	2	0	1468	-1	1	0	0	2	1628	backpack_12.bmp	backpack_13.bmp	watch_7.bmp	backpack_10.bmp	backpack_16.bmp	backpack_12.bmp	watch_7.bmp	25	1	1	1	1	PSYCHOLOGIE
FAUST_1[2014-06]	15	4	26	4	3	2	2	1	1	1	1014	1	1	1	2214	4	1371	rollerskates_17.bmp	rollerskates_17.bmp	rollerskates_7.bmp	rollerskates_8.bmp	lawnmower_13.bmp	rollerskates_5.bmp	rollerskates_17.bmp	25	1	1	1	1	PSYCHOLOGIE
FAUST_1[2014-06]	15	4	11	4	3	1	1	1	1	1	1754	2	1	0	2553	4	1339	goggle_13.bmp	cheesegrater_5.bmp	cheesegrater_8.bmp	cheesegrater_14.bmp	goggle_13.bmp	cheesegrater_8.bmp	cheesegrater_11.bmp	25	1	1	1	1	PSYCHOLOGIE
FAUST_1[2014-06]	15	4	14	4	3	2	1	1	1	1	1832	1	1	1	1593	3	1988	orifan_7.bmp	shoe_7.bmp	orifan_7.bmp	shoe_17.bmp	orifan_7.bmp	shoe_13.bmp	shoe_9.bmp	25	1	1	1	1	PSYCHOLOGIE
FAUST_1[2014-06]	15	4	25	4	3	1	2	1	1	1	1271	2	2	1	3341	4	2118	abacus_7.bmp	abacus_7.bmp	carabiner_7.bmp	abacus_2.bmp	abacus_6.bmp	abacus_4.bmp	carabiner_7.bmp	25	1	1	1	1	PSYCHOLOGIE
FAUST_1[2014-06]	15	4	28	4	3	2	2	1	1	1	1355	1	1	1	1640	4	1260	sofa_6.bmp	sofa_9.bmp	sofa_6.bmp	highchair_6.bmp	sofa_3.bmp	sofa_6.bmp	sofa_13.bmp	25	1	1	1	1	PSYCHOLOGIE
FAUST_1[2014-06]	15	4	3	4	3	1	1	1	2	0	873	1	1	1	2282	4	1055	iceskates_14.bmp	horseshoe_6.bmp	iceskates_14.bmp	horseshoe_5.bmp	horseshoe_4.bmp	horseshoe_6.bmp	horseshoe_3.bmp	25	1	1	1	1	PSYCHOLOGIE
FAUST_1[2014-06]	15	4	20	4	3	2	1	1	1	1	1286	1	1	1	2275	4	1219	doorknocker_2.bmp	router_7.bmp	doorknocker_2.bmp	router_16.bmp	router_12.bmp	router_6.bmp	doorknocker_2.bmp	25	1	1	1	1	PSYCHOLOGIE
FAUST_1[2014-06]	15	4	5	4	3	1	2	1	1	1	1214	1	1	1	1687	4	1417	plant_2.bmp	rusdoll_6.bmp	plant_8.bmp	rusdoll_6.bmp	plant_2.bmp	plant_13.bmp	plant_5.bmp	25	1	1	1	1	PSYCHOLOGIE
FAUST_1[2014-06]	15	4	21	4	3	2	2	1	1	1	1349	1	1	1	1887	4	1295	windchime_3.bmp	windchime_6.bmp	bowlingpin_13.bmp	windchime_3.bmp	windchime_16.bmp	windchime_3.bmp	windchime_10.bmp	25	1	1	1	1	PSYCHOLOGIE
FAUST_1[2014-06]	15	4	15	4	3	1	1	2	2	1	880	1	1	1	2114	4	1131	birdhouse_9.bmp	ring_11.bmp	ring_15.bmp	birdhouse_14.bmp	ring_11.bmp	ring_8.bmp	ring_7.bmp	25	1	1	1	1	PSYCHOLOGIE
FAUST_1[2014-06]	15	4	12	4	3	2	1	2	2	1	1121	2	2	1	1806	3	1430	wig_7.bmp	wig_12.bmp	remote_2.bmp	remote_3.bmp	remote_13.bmp	remote_11.bmp	wig_12.bmp	25	1	1	1	1	PSYCHOLOGIE
FAUST_1[2014-06]	15	4	9	4	3	1	2	2	2	1	1318	1	1	1	2442	3	958	tv_8.bmp	watergun_3.bmp	tv_4.bmp	tv_16.bmp	tv_7.bmp	watergun_3.bmp	tv_5.bmp	25	1	1	1	1	PSYCHOLOGIE
FAUST_1[2014-06]	15	4	29	4	3	2	2	2	2	1	3300	2	2	1	1563	2	1157	hairbrush_16.bmp	hairbrush_12.bmp	hairbrush_17.bmp	hairbrush_15.bmp	hairbrush_7.bmp	hairbrush_15.bmp	speaker_6.bmp	25	1	1	1	1	PSYCHOLOGIE
FAUST_1[2014-06]	15	4	16	4	3	1	1	2	2	1	1225	2	2	1	1640	3	1067	trophy_16.bmp	laptop_7.bmp	trophy_4.bmp	laptop_15.bmp	laptop_10.bmp	laptop_15.bmp	laptop_14.bmp	25	1	1	1	1	PSYCHOLOGIE
FAUST_1[2014-06]	15	4	1	4	3	2	1	2	1	0	1776	2	2	1	3037	3	1469	pasta_9.bmp	socks_13.bmp	pasta_15.bmp	socks_12.bmp	socks_4.bmp	socks_10.bmp	pasta_15.bmp	25	1	1	1	1	PSYCHOLOGIE
FAUST_1[2014-06]	15	4	13	4	3	1	2	2	2	1	1724	2	2	1	1345	3	1235	trumpet_3.bmp	saddle_8.bmp	trumpet_6.bmp	trumpet_5.bmp	trumpet_17.bmp	trumpet_1.bmp	saddle_8.bmp	25	1	1	1	1	PSYCHOLOGIE
FAUST_1[2014-06]	15	4	22	4	3	2	2	2	1	0	1703	1	1	1	1743	3	1232	babycrib_2.bmp	babycrib_6.bmp	babycrib_5.bmp	babycrib_9.bmp	babycrib_5.bmp	babycrib_7.bmp	doorknob_7.bmp	25	1	1	1	1	PSYCHOLOGIE
FAUST_1[2014-06]	15	4	18	4	3	1	1	2	2	1	1477	1	1	1	1893	3	1091	easteregg_9.bmp	leatherman_7.bmp	easteregg_16.bmp	leatherman_2.bmp	leatherman_7.bmp	leatherman_14.bmp	leatherman_5.bmp	25	1	1	1	1	PSYCHOLOGIE
FAUST_1[2014-06]	15	4	31	4	3	2	1	2	2	1	2261	2	2	1	1572	2	1050	trunk_2.bmp	trunk_5.bmp	hairdryer_7.bmp	hairdryer_12.bmp	hairdryer_14.bmp	trunk_5.bmp	hairdryer_13.bmp	25	1	1	1	1	PSYCHOLOGIE
FAUST_1[2014-06]	15	4	17	4	3	1	2	2	1	0	3767	2	2	1	2032	2	1316	saltpeppershake_9.bmp	saltpeppershake_12.bmp	saltpeppershake_17.bmp	parfait_1.bmp	saltpeppershake_8.bmp	saltpeppershake_2.bmp	parfait_1.bmp	25	1	1	1	1	PSYCHOLOGIE
FAUST_1[2014-06]	15	4	4	4	3	2	2	2	2	1	1299	1	1	1	2357	2	1915	mic_2.bmp	mic_3.bmp	mic_5.bmp	mic_10.bmp	bagel_12.bmp	mic_12.bmp	mic_10.bmp	25	1	1	1	1	PSYCHOLOGIE
FAUST_1[2014-06]	15	4	30	4	3	1	1	3	2	1	850	1	1	1	2514	3	889	printer_1.bmp	turtle_11.bmp	cherubstatue_10.bmp	cherubstatue_11.bmp	cherubstatue_5.bmp	cherubstatue_12.bmp	cherubstatue_5.bmp	25	1	1	1	1	PSYCHOLOGIE
FAUST_1[2014-06]	15	4	27	4	3	2	1	3	2	1	817	1	1	1	2582	4	2308	garbagecan_8.bmp	flashlight_17.bmp	flashlight_12.bmp	cellphone_11.bmp	flashlight_1.bmp	flashlight_2.bmp	cellphone_11.bmp	25	1	1	1	1	PSYCHOLOGIE
FAUST_1[2014-06]	15	4	10	4	3	1	1	3	2	1	894	2	2	1	1434	4	1162	cake_14.bmp	coffee_15.bmp	scooter_11.bmp	scooter_10.bmp	scooter_4.bmp	scooter_10.bmp	scooter_8.bmp	25	1	1	1	1	PSYCHOLOGIE
FAUST_1[2014-06]	15	4	6	4	3	2	1	3	2	1	913	1	1	1	2851	4	932	chair_3.bmp	camera_6.bmp	camera_3.bmp	camera_4.bmp	shredder_15.bmp	camera_7.bmp	shredder_15.bmp	25	1	1	1	1	PSYCHOLOGIE
FAUST_1[2014-06]	15	4	24	4	3	1	1	3	2	1	3149	2	1	0	2174	2	855	circuitboard_8.bmp	cat_10.bmp	hammer_6.bmp	cat_9.bmp	cat_4.bmp	cat_5.bmp	cat_9.bmp	25	1	1	1	1	PSYCHOLOGIE
FAUST_1[2014-06]	15	4	23	4	3	2	1	3	2	1	1252	1	1	1	2822	3	1976	jacket_7.bmp	carriage_14.bmp	carriage_3.bmp	carriage_12.bmp	skateboard_3.bmp	carriage_9.bmp	skateboard_3.bmp	25	1	1	1	1	PSYCHOLOGIE
FAUST_1[2014-06]	15	4	32	4	3	1	1	3	2	1	1262	2	2	1	1932	3	1320	glasses_9.bmp	tricycle_8.bmp	glove_12.bmp	glove_15.bmp	glove_10.bmp	glove_5.bmp	glove_10.bmp	25	1	1	1	1	PSYCHOLOGIE
FAUST_1[2014-06]	15	4	2	4	3	2	1	3	2	1	1252	2	2	1	1978	4	1226	videogamecontroller_3.bmp	fan_11.bmp	beanbagchair_14.bmp	fan_15.bmp	fan_17.bmp	beanbagchair_14.bmp	fan_10.bmp	25	1	1	1	1	PSYCHOLOGIE
