experiment	subject	block	trial	order	material	repeated	related	probetype	response	correct	rt	math_response	math_correctresponse	math_correct	math_rt	confidence	confidence_rt	probe	item1	item2	item3	item4	item5	item6	age	sex	handedness	color_vision	mother_tongue	occupation
FAUST_1[2014-06]	20	1	3	3	2	1	1	1	1	1	2242	1	1	1	3005	3	2133	Screw10.bmp	Leaf22.bmp	Screw10.bmp	Leaf10.bmp	Leaf15.bmp	Leaf21.bmp	Leaf10.bmp	36	1	1	1	1	PSYCHOLOGIE
FAUST_1[2014-06]	20	1	22	3	2	2	1	1	1	1	2421	1	1	1	2057	4	1543	Umbrella19.bmp	Ginger5.bmp	Umbrella19.bmp	Ginger3.bmp	Ginger15.bmp	Ginger17.bmp	Umbrella19.bmp	36	1	1	1	1	PSYCHOLOGIE
FAUST_1[2014-06]	20	1	14	3	2	1	2	1	1	1	2886	2	1	0	2190	3	1814	Biscuit20.bmp	Varnish17.bmp	Biscuit9.bmp	Biscuit20.bmp	Biscuit17.bmp	Varnish17.bmp	Biscuit4.bmp	36	1	1	1	1	PSYCHOLOGIE
FAUST_1[2014-06]	20	1	15	3	2	2	2	1	1	1	3649	2	1	0	2256	3	1270	Holly20.bmp	Mushroom7.bmp	Holly20.bmp	Holly14.bmp	Holly17.bmp	Holly20.bmp	Holly11.bmp	36	1	1	1	1	PSYCHOLOGIE
FAUST_1[2014-06]	20	1	19	3	2	1	1	1	1	1	3438	1	1	1	2150	4	2409	Fork17.bmp	Coins8.bmp	Fork17.bmp	Coins3.bmp	Coins10.bmp	Coins14.bmp	Coins3.bmp	36	1	1	1	1	PSYCHOLOGIE
FAUST_1[2014-06]	20	1	4	3	2	2	1	1	1	1	1788	2	2	1	2056	3	4084	Pear16.bmp	Pear16.bmp	Cake24.bmp	Cake25.bmp	Cake16.bmp	Pear16.bmp	Cake18.bmp	36	1	1	1	1	PSYCHOLOGIE
FAUST_1[2014-06]	20	1	20	3	2	1	2	1	1	1	2582	2	1	0	2486	4	1965	Plug4.bmp	Glass16.bmp	Plug8.bmp	Plug4.bmp	Plug9.bmp	Glass16.bmp	Plug18.bmp	36	1	1	1	1	PSYCHOLOGIE
FAUST_1[2014-06]	20	1	17	3	2	2	2	1	1	1	2066	2	2	1	2451	3	2625	Scissors23.bmp	Scissors1.bmp	Scissors14.bmp	Scissors23.bmp	Scissors11.bmp	Scissors23.bmp	Candle1.bmp	36	1	1	1	1	PSYCHOLOGIE
FAUST_1[2014-06]	20	1	9	3	2	1	1	2	2	1	2094	1	1	1	2218	3	1552	Fudge20.bmp	Tomato2.bmp	Tomato3.bmp	Tomato12.bmp	Tomato5.bmp	Fudge5.bmp	Tomato12.bmp	36	1	1	1	1	PSYCHOLOGIE
FAUST_1[2014-06]	20	1	21	3	2	2	1	2	2	1	2669	2	2	1	2318	4	1924	Apple10.bmp	Flower14.bmp	Flower13.bmp	Flower3.bmp	Apple24.bmp	Flower18.bmp	Apple24.bmp	36	1	1	1	1	PSYCHOLOGIE
FAUST_1[2014-06]	20	1	5	3	2	1	2	2	1	0	3567	2	2	1	2653	4	2976	Brocolli9.bmp	Keys8.bmp	Brocolli19.bmp	Brocolli4.bmp	Brocolli14.bmp	Brocolli10.bmp	Keys8.bmp	36	1	1	1	1	PSYCHOLOGIE
FAUST_1[2014-06]	20	1	18	3	2	2	2	2	2	1	1816	2	2	1	1892	3	1341	Lipstick3.bmp	Lipstick9.bmp	Jigsaw11.bmp	Lipstick7.bmp	Lipstick15.bmp	Lipstick7.bmp	Lipstick2.bmp	36	1	1	1	1	PSYCHOLOGIE
FAUST_1[2014-06]	20	1	13	3	2	1	1	2	2	1	1377	1	1	1	2273	3	2823	Sweet10.bmp	Bun5.bmp	Sweet25.bmp	Bun17.bmp	Bun19.bmp	Bun12.bmp	Bun5.bmp	36	1	1	1	1	PSYCHOLOGIE
FAUST_1[2014-06]	20	1	10	3	2	2	1	2	2	1	2237	2	2	1	2170	2	2731	Chilli12.bmp	Toothbrush6.bmp	Toothbrush1.bmp	Toothbrush12.bmp	Chilli14.bmp	Toothbrush10.bmp	Chilli14.bmp	36	1	1	1	1	PSYCHOLOGIE
FAUST_1[2014-06]	20	1	1	3	2	1	2	2	1	0	2103	2	2	1	1711	4	4390	Feather12.bmp	Feather14.bmp	Feather18.bmp	Bracelet18.bmp	Feather2.bmp	Bracelet18.bmp	Feather11.bmp	36	1	1	1	1	PSYCHOLOGIE
FAUST_1[2014-06]	20	1	12	3	2	2	2	2	2	1	3933	1	1	1	2241	3	2401	Nut19.bmp	Nut18.bmp	Nut21.bmp	Pen10.bmp	Nut11.bmp	Nut2.bmp	Nut21.bmp	36	1	1	1	1	PSYCHOLOGIE
FAUST_1[2014-06]	20	1	7	3	2	1	1	3	2	1	3735	1	1	1	2538	3	1857	Daff22.bmp	Swirl5.bmp	Swirl10.bmp	Swirl23.bmp	Shell18.bmp	Swirl10.bmp	Swirl13.bmp	36	1	1	1	1	PSYCHOLOGIE
FAUST_1[2014-06]	20	1	2	3	2	2	1	3	2	1	2102	1	1	1	2552	4	7308	Bag5.bmp	Paperclip13.bmp	Stapler7.bmp	Paperclip14.bmp	Paperclip6.bmp	Stapler7.bmp	Paperclip4.bmp	36	1	1	1	1	PSYCHOLOGIE
FAUST_1[2014-06]	20	1	11	3	2	1	1	3	2	1	1253	2	2	1	2316	3	1745	String6.bmp	Star2.bmp	Star19.bmp	Star17.bmp	Star7.bmp	Hanger7.bmp	Star7.bmp	36	1	1	1	1	PSYCHOLOGIE
FAUST_1[2014-06]	20	1	16	3	2	2	1	3	2	1	1387	2	2	1	2576	3	2248	Present3.bmp	Onion13.bmp	Onion14.bmp	Onion19.bmp	Button3.bmp	Onion18.bmp	Button3.bmp	36	1	1	1	1	PSYCHOLOGIE
FAUST_1[2014-06]	20	1	6	3	2	1	1	3	2	1	4008	2	1	0	1819	3	4369	Hand1.bmp	Key5.bmp	Key20.bmp	Key9.bmp	Strawberry18.bmp	Key11.bmp	Key9.bmp	36	1	1	1	1	PSYCHOLOGIE
FAUST_1[2014-06]	20	1	8	3	2	2	1	3	2	1	2426	2	2	1	2691	3	1754	Man2.bmp	Chocolate24.bmp	Car12.bmp	Chocolate24.bmp	Car7.bmp	Car21.bmp	Car13.bmp	36	1	1	1	1	PSYCHOLOGIE
FAUST_1[2014-06]	20	2	28	3	3	1	1	1	1	1	1532	2	2	1	2141	3	1258	cherubstatue_6.bmp	goggle_9.bmp	goggle_4.bmp	goggle_3.bmp	goggle_13.bmp	cherubstatue_6.bmp	goggle_9.bmp	36	1	1	1	1	PSYCHOLOGIE
FAUST_1[2014-06]	20	2	19	3	3	2	1	1	1	1	2140	1	1	1	1739	4	3434	abacus_15.bmp	abacus_15.bmp	powerstrip_8.bmp	abacus_15.bmp	powerstrip_14.bmp	powerstrip_13.bmp	powerstrip_10.bmp	36	1	1	1	1	PSYCHOLOGIE
FAUST_1[2014-06]	20	2	15	3	3	1	2	1	1	1	2267	2	1	0	2343	4	1480	watergun_9.bmp	watergun_15.bmp	rusdoll_6.bmp	watergun_7.bmp	rusdoll_6.bmp	watergun_9.bmp	watergun_3.bmp	36	1	1	1	1	PSYCHOLOGIE
FAUST_1[2014-06]	20	2	18	3	3	2	2	1	2	0	5041	2	1	0	2724	2	5864	garbagecan_8.bmp	garbagecan_8.bmp	garbagecan_13.bmp	garbagecan_8.bmp	garbagecan_2.bmp	vase_6.bmp	garbagecan_17.bmp	36	1	1	1	1	PSYCHOLOGIE
FAUST_1[2014-06]	20	2	30	3	3	1	1	1	1	1	2103	1	2	0	2040	3	1656	tv_8.bmp	ring_7.bmp	ring_11.bmp	tv_8.bmp	ring_7.bmp	ring_15.bmp	ring_8.bmp	36	1	1	1	1	PSYCHOLOGIE
FAUST_1[2014-06]	20	2	16	3	3	2	1	1	1	1	3118	1	1	1	2291	2	2887	router_7.bmp	router_7.bmp	horseshoe_5.bmp	router_7.bmp	horseshoe_6.bmp	horseshoe_4.bmp	horseshoe_12.bmp	36	1	1	1	1	PSYCHOLOGIE
FAUST_1[2014-06]	20	2	17	3	3	1	2	1	1	1	4044	2	2	1	2356	2	2342	guitar_14.bmp	guitar_5.bmp	guitar_7.bmp	guitar_10.bmp	socks_13.bmp	guitar_14.bmp	socks_13.bmp	36	1	1	1	1	PSYCHOLOGIE
FAUST_1[2014-06]	20	2	13	3	3	2	2	1	1	1	1674	2	2	1	2356	4	1617	wig_7.bmp	wig_7.bmp	wig_6.bmp	wig_9.bmp	wig_7.bmp	wig_1.bmp	bowlingpin_4.bmp	36	1	1	1	1	PSYCHOLOGIE
FAUST_1[2014-06]	20	2	12	3	3	1	1	1	1	1	2780	1	1	1	2026	3	2317	carabiner_5.bmp	videogamecontroller_3.bmp	carabiner_5.bmp	videogamecontroller_5.bmp	videogamecontroller_3.bmp	videogamecontroller_13.bmp	videogamecontroller_11.bmp	36	1	1	1	1	PSYCHOLOGIE
FAUST_1[2014-06]	20	2	26	3	3	2	1	1	1	1	2866	1	2	0	2545	3	1894	doorknob_14.bmp	jacket_6.bmp	doorknob_14.bmp	jacket_7.bmp	jacket_11.bmp	doorknob_14.bmp	jacket_13.bmp	36	1	1	1	1	PSYCHOLOGIE
FAUST_1[2014-06]	20	2	25	3	3	1	2	1	1	1	1910	2	2	1	2140	3	1671	coffee_14.bmp	hairdryer_14.bmp	coffee_15.bmp	coffee_1.bmp	hairdryer_14.bmp	coffee_7.bmp	coffee_14.bmp	36	1	1	1	1	PSYCHOLOGIE
FAUST_1[2014-06]	20	2	20	3	3	2	2	1	2	0	2969	2	1	0	2297	3	3413	watch_7.bmp	watch_7.bmp	trumpet_17.bmp	watch_7.bmp	watch_6.bmp	watch_14.bmp	watch_8.bmp	36	1	1	1	1	PSYCHOLOGIE
FAUST_1[2014-06]	20	2	14	3	3	1	1	2	2	1	996	2	2	1	2232	4	1984	glove_10.bmp	babycrib_2.bmp	babycrib_6.bmp	babycrib_5.bmp	glove_8.bmp	babycrib_9.bmp	babycrib_2.bmp	36	1	1	1	1	PSYCHOLOGIE
FAUST_1[2014-06]	20	2	31	3	3	2	1	2	2	1	5816	2	2	1	2445	2	2059	remote_13.bmp	remote_14.bmp	birdhouse_9.bmp	birdhouse_6.bmp	birdhouse_7.bmp	birdhouse_14.bmp	remote_14.bmp	36	1	1	1	1	PSYCHOLOGIE
FAUST_1[2014-06]	20	2	21	3	3	1	2	2	2	1	2209	2	2	1	2355	3	4415	sink_6.bmp	fan_17.bmp	sink_1.bmp	fan_17.bmp	sink_11.bmp	sink_10.bmp	sink_15.bmp	36	1	1	1	1	PSYCHOLOGIE
FAUST_1[2014-06]	20	2	10	3	3	2	2	2	1	0	1838	1	1	1	1665	3	2502	iceskates_9.bmp	iceskates_14.bmp	scooter_4.bmp	iceskates_16.bmp	iceskates_5.bmp	iceskates_7.bmp	iceskates_16.bmp	36	1	1	1	1	PSYCHOLOGIE
FAUST_1[2014-06]	20	2	4	3	3	1	1	2	2	1	3895	1	1	1	1609	2	3612	shredder_15.bmp	sofa_9.bmp	sofa_6.bmp	sofa_3.bmp	sofa_9.bmp	sofa_13.bmp	shredder_7.bmp	36	1	1	1	1	PSYCHOLOGIE
FAUST_1[2014-06]	20	2	5	3	3	2	1	2	2	1	3640	1	1	1	1564	2	2101	lawnmower_8.bmp	leatherman_5.bmp	lawnmower_3.bmp	leatherman_2.bmp	leatherman_7.bmp	lawnmower_3.bmp	leatherman_14.bmp	36	1	1	1	1	PSYCHOLOGIE
FAUST_1[2014-06]	20	2	22	3	3	1	2	2	2	1	1329	2	2	1	2394	3	3348	laptop_14.bmp	laptop_7.bmp	laptop_15.bmp	cake_3.bmp	laptop_16.bmp	laptop_10.bmp	cake_3.bmp	36	1	1	1	1	PSYCHOLOGIE
FAUST_1[2014-06]	20	2	23	3	3	2	2	2	2	1	3565	1	1	1	2300	2	2655	flashlight_2.bmp	rollerskates_17.bmp	flashlight_17.bmp	flashlight_12.bmp	flashlight_13.bmp	flashlight_12.bmp	flashlight_1.bmp	36	1	1	1	1	PSYCHOLOGIE
FAUST_1[2014-06]	20	2	2	3	3	1	1	2	2	1	953	1	1	1	2337	4	1492	highchair_3.bmp	cellphone_12.bmp	cellphone_4.bmp	cellphone_8.bmp	cellphone_12.bmp	highchair_4.bmp	cellphone_3.bmp	36	1	1	1	1	PSYCHOLOGIE
FAUST_1[2014-06]	20	2	29	3	3	2	1	2	2	1	2915	2	1	0	3025	3	3908	hammer_6.bmp	doorknocker_14.bmp	hammer_15.bmp	doorknocker_11.bmp	hammer_15.bmp	doorknocker_2.bmp	doorknocker_4.bmp	36	1	1	1	1	PSYCHOLOGIE
FAUST_1[2014-06]	20	2	1	3	3	1	2	2	2	1	1387	2	2	1	2541	4	1760	mic_2.bmp	turtle_7.bmp	mic_10.bmp	mic_5.bmp	mic_3.bmp	turtle_7.bmp	mic_12.bmp	36	1	1	1	1	PSYCHOLOGIE
FAUST_1[2014-06]	20	2	11	3	3	2	2	2	2	1	4651	2	2	1	2835	2	2923	speaker_15.bmp	speaker_10.bmp	speaker_17.bmp	skateboard_16.bmp	speaker_10.bmp	speaker_6.bmp	speaker_4.bmp	36	1	1	1	1	PSYCHOLOGIE
FAUST_1[2014-06]	20	2	32	3	3	1	1	3	2	1	1392	2	2	1	1966	4	1897	pasta_13.bmp	parfait_4.bmp	parfait_1.bmp	parfait_13.bmp	parfait_4.bmp	parfait_15.bmp	trophy_6.bmp	36	1	1	1	1	PSYCHOLOGIE
FAUST_1[2014-06]	20	2	8	3	3	2	1	3	2	1	3264	2	2	1	2117	4	2056	chair_5.bmp	backpack_6.bmp	carriage_3.bmp	carriage_9.bmp	backpack_6.bmp	carriage_12.bmp	carriage_14.bmp	36	1	1	1	1	PSYCHOLOGIE
FAUST_1[2014-06]	20	2	9	3	3	1	1	3	2	1	2803	1	1	1	1985	3	1702	printer_14.bmp	trunk_3.bmp	camera_6.bmp	camera_4.bmp	camera_6.bmp	camera_9.bmp	camera_3.bmp	36	1	1	1	1	PSYCHOLOGIE
FAUST_1[2014-06]	20	2	7	3	3	2	1	3	2	1	1168	2	2	1	2624	4	2744	plant_8.bmp	cat_10.bmp	glasses_8.bmp	glasses_9.bmp	glasses_6.bmp	glasses_13.bmp	cat_10.bmp	36	1	1	1	1	PSYCHOLOGIE
FAUST_1[2014-06]	20	2	24	3	3	1	1	3	2	1	1294	1	1	1	2696	3	3062	easteregg_17.bmp	orifan_14.bmp	orifan_17.bmp	cheesegrater_11.bmp	orifan_1.bmp	orifan_6.bmp	orifan_17.bmp	36	1	1	1	1	PSYCHOLOGIE
FAUST_1[2014-06]	20	2	3	3	3	2	1	3	2	1	1306	2	1	0	2870	4	1856	bagel_14.bmp	saltpeppershake_9.bmp	saddle_3.bmp	saltpeppershake_9.bmp	saddle_4.bmp	saddle_5.bmp	saddle_8.bmp	36	1	1	1	1	PSYCHOLOGIE
FAUST_1[2014-06]	20	2	27	3	3	1	1	3	2	1	1359	1	1	1	1928	4	2124	circuitboard_2.bmp	shoe_9.bmp	shoe_13.bmp	beanbagchair_15.bmp	shoe_15.bmp	shoe_9.bmp	shoe_17.bmp	36	1	1	1	1	PSYCHOLOGIE
FAUST_1[2014-06]	20	2	6	3	3	2	1	3	2	1	1321	2	2	1	2607	4	1453	windchime_15.bmp	hairbrush_12.bmp	hairbrush_17.bmp	tricycle_5.bmp	hairbrush_16.bmp	tricycle_5.bmp	hairbrush_7.bmp	36	1	1	1	1	PSYCHOLOGIE
FAUST_1[2014-06]	20	3	2	3	1	1	1	1	2	0	1369	2	2	1	2107	3	3134	TULPE	pfannenwender	nudelholz	backform	tulpe	backform	küchenwaage	36	1	1	1	1	PSYCHOLOGIE
FAUST_1[2014-06]	20	3	25	3	1	2	1	1	2	0	2408	1	1	1	1915	3	1745	EURO	kanu	euro	schiff	yacht	euro	fähre	36	1	1	1	1	PSYCHOLOGIE
FAUST_1[2014-06]	20	3	17	3	1	1	2	1	2	0	3738	1	1	1	2524	2	1527	MINUTE	minute	stunde	dinkel	sekunde	dinkel	tag	36	1	1	1	1	PSYCHOLOGIE
FAUST_1[2014-06]	20	3	4	3	1	2	2	1	2	0	7218	1	1	1	1723	2	1851	BOHNEN	bohnen	blumenkohl	nebel	bohnen	tomaten	spinat	36	1	1	1	1	PSYCHOLOGIE
FAUST_1[2014-06]	20	3	1	3	1	1	1	1	2	0	3956	2	1	0	2714	3	3022	KORIANDER	meile	meter	koriander	millimeter	meile	zentimeter	36	1	1	1	1	PSYCHOLOGIE
FAUST_1[2014-06]	20	3	12	3	1	2	1	1	2	0	1088	1	1	1	2761	3	1217	ASIEN	hütte	asien	scheune	schuppen	asien	baracke	36	1	1	1	1	PSYCHOLOGIE
FAUST_1[2014-06]	20	3	24	3	1	1	2	1	2	0	4769	2	2	1	2489	2	1598	KUGELSCHREIBER	filzstift	buntstift	kaiser	füller	kugelschreiber	kaiser	36	1	1	1	1	PSYCHOLOGIE
FAUST_1[2014-06]	20	3	11	3	1	2	2	1	2	0	1897	2	1	0	2518	3	1752	MESSING	eisen	messing	bronze	silber	messing	lineal	36	1	1	1	1	PSYCHOLOGIE
FAUST_1[2014-06]	20	3	23	3	1	1	1	1	2	0	6188	2	2	1	2667	3	3470	FERNSEHEN	säge	meißel	fernsehen	säge	bohrer	hammer	36	1	1	1	1	PSYCHOLOGIE
FAUST_1[2014-06]	20	3	8	3	1	2	1	1	2	0	1099	1	1	1	1746	3	2178	ENGLAND	sofa	tisch	stuhl	england	schrank	england	36	1	1	1	1	PSYCHOLOGIE
FAUST_1[2014-06]	20	3	31	3	1	1	2	1	2	0	1457	2	2	1	2078	3	1871	TOCHTER	chopin	tochter	chopin	onkel	mutter	vater	36	1	1	1	1	PSYCHOLOGIE
FAUST_1[2014-06]	20	3	5	3	1	2	2	1	2	0	1125	1	1	1	2048	3	2255	NIERE	niere	herz	erdkunde	leber	magen	niere	36	1	1	1	1	PSYCHOLOGIE
FAUST_1[2014-06]	20	3	13	3	1	1	1	2	2	1	1141	1	2	0	2400	3	1327	VERB	bonbons	lakritz	nomen	karamell	bonbons	marzipan	36	1	1	1	1	PSYCHOLOGIE
FAUST_1[2014-06]	20	3	27	3	1	2	1	2	2	1	1284	2	2	1	2590	3	1085	LEOPARD	rhein	gepard	main	donau	gepard	elbe	36	1	1	1	1	PSYCHOLOGIE
FAUST_1[2014-06]	20	3	6	3	1	1	2	2	2	1	1293	1	2	0	2424	3	1051	FLÖTE	klarinette	becher	posaune	trompete	becher	oboe	36	1	1	1	1	PSYCHOLOGIE
FAUST_1[2014-06]	20	3	9	3	1	2	2	2	2	1	2269	2	1	0	2228	3	1753	HESSEN	saarland	thüringen	brandenburg	sachsen	dreieck	brandenburg	36	1	1	1	1	PSYCHOLOGIE
FAUST_1[2014-06]	20	3	26	3	1	1	1	2	2	1	1910	2	1	0	2679	3	1366	BEIN	petroleum	kerosin	diesel	arm	kerosin	benzin	36	1	1	1	1	PSYCHOLOGIE
FAUST_1[2014-06]	20	3	30	3	1	2	1	2	2	1	2265	2	2	1	2450	3	1760	MOSCHEE	synagoge	basteln	zeichnen	synagoge	malen	lesen	36	1	1	1	1	PSYCHOLOGIE
FAUST_1[2014-06]	20	3	7	3	1	1	2	2	2	1	1246	2	2	1	2354	3	1608	FUßBALL	schwimmen	grippe	skifahren	tennis	grippe	golf	36	1	1	1	1	PSYCHOLOGIE
FAUST_1[2014-06]	20	3	28	3	1	2	2	2	2	1	1096	2	2	1	2057	3	1549	RÜCKSPIEGEL	handbremse	kupplung	kajal	kupplung	lenkrad	gaspedal	36	1	1	1	1	PSYCHOLOGIE
FAUST_1[2014-06]	20	3	32	3	1	1	1	2	2	1	1531	1	1	1	2426	2	2698	HOSE	oper	kino	theater	rock	konzertsaal	kino	36	1	1	1	1	PSYCHOLOGIE
FAUST_1[2014-06]	20	3	16	3	1	2	1	2	2	1	1091	1	1	1	2364	3	2155	STRAßENBAHN	bombe	schwert	pistole	zug	gewehr	zug	36	1	1	1	1	PSYCHOLOGIE
FAUST_1[2014-06]	20	3	20	3	1	1	2	2	2	1	4613	2	1	0	2889	3	2638	WASSERSTOFF	kohlenstoff	sauerstoff	stickstoff	gabel	helium	gabel	36	1	1	1	1	PSYCHOLOGIE
FAUST_1[2014-06]	20	3	18	3	1	2	2	2	2	1	1779	1	1	1	2327	3	4556	BIRNE	pflaume	erdbeere	banane	apfel	polizist	erdbeere	36	1	1	1	1	PSYCHOLOGIE
FAUST_1[2014-06]	20	3	14	3	1	1	1	3	2	1	1010	2	2	1	2395	3	1138	WASSERMANN	kamera	ameise	drucker	mobiltelefon	laptop	drucker	36	1	1	1	1	PSYCHOLOGIE
FAUST_1[2014-06]	20	3	3	3	1	2	1	3	2	1	1834	1	1	1	1915	2	2451	OPIUM	jupiter	chachacha	venus	chachacha	saturn	pluto	36	1	1	1	1	PSYCHOLOGIE
FAUST_1[2014-06]	20	3	10	3	1	1	1	3	2	1	1236	2	2	1	1765	3	1716	STUTTGART	hören	tanne	sehen	hören	fühlen	riechen	36	1	1	1	1	PSYCHOLOGIE
FAUST_1[2014-06]	20	3	15	3	1	2	1	3	2	1	1074	2	2	1	2221	3	1105	SCHÄFERHUND	seide	thunfisch	makrele	hering	lachs	seide	36	1	1	1	1	PSYCHOLOGIE
FAUST_1[2014-06]	20	3	22	3	1	1	1	3	2	1	4062	2	2	1	2963	2	2026	WODKA	komödie	horrorfilm	thriller	western	komödie	taube	36	1	1	1	1	PSYCHOLOGIE
FAUST_1[2014-06]	20	3	29	3	1	2	1	3	2	1	1848	1	1	1	1983	3	2102	DÄMON	freude	hauptschule	gesamtschule	realschule	freude	gymnasium	36	1	1	1	1	PSYCHOLOGIE
FAUST_1[2014-06]	20	3	19	3	1	1	1	3	2	1	1365	1	1	1	1858	3	1595	HÄKELNADEL	teich	see	fluss	see	meer	hamburger	36	1	1	1	1	PSYCHOLOGIE
FAUST_1[2014-06]	20	3	21	3	1	2	1	3	2	1	2455	2	1	0	2485	3	1391	BACKGAMMON	blau	grün	porsche	gelb	lila	porsche	36	1	1	1	1	PSYCHOLOGIE
FAUST_1[2014-06]	20	2	8	3	2	1	1	1	1	1	3395	2	2	1	2302	2	1647	Keys9.bmp	Keys9.bmp	Umbrella19.bmp	Umbrella17.bmp	Umbrella6.bmp	Umbrella21.bmp	Umbrella6.bmp	36	1	1	1	1	PSYCHOLOGIE
FAUST_1[2014-06]	20	2	22	3	2	2	1	1	1	1	1305	1	1	1	2011	3	1605	String2.bmp	Pear16.bmp	Pear4.bmp	String2.bmp	Pear15.bmp	String2.bmp	Pear7.bmp	36	1	1	1	1	PSYCHOLOGIE
FAUST_1[2014-06]	20	2	18	3	2	1	2	1	1	1	1491	2	2	1	2375	3	1264	Strawberry14.bmp	Strawberry14.bmp	Strawberry4.bmp	Mushroom6.bmp	Strawberry3.bmp	Mushroom6.bmp	Strawberry21.bmp	36	1	1	1	1	PSYCHOLOGIE
FAUST_1[2014-06]	20	2	13	3	2	2	2	1	1	1	4000	2	2	1	2388	2	4873	Tomato18.bmp	Feather18.bmp	Tomato5.bmp	Tomato3.bmp	Tomato18.bmp	Tomato2.bmp	Tomato18.bmp	36	1	1	1	1	PSYCHOLOGIE
FAUST_1[2014-06]	20	2	20	3	2	1	1	1	1	1	1462	2	2	1	1678	3	1423	Key13.bmp	Button20.bmp	Button3.bmp	Button14.bmp	Key13.bmp	Button18.bmp	Button14.bmp	36	1	1	1	1	PSYCHOLOGIE
FAUST_1[2014-06]	20	2	10	3	2	2	1	1	1	1	1430	1	1	1	1718	4	2054	Apple5.bmp	Car14.bmp	Apple5.bmp	Car13.bmp	Car12.bmp	Car7.bmp	Apple5.bmp	36	1	1	1	1	PSYCHOLOGIE
FAUST_1[2014-06]	20	2	4	3	2	1	2	1	1	1	2368	2	2	1	2665	3	1565	Ginger17.bmp	Ginger10.bmp	Stapler7.bmp	Ginger17.bmp	Ginger3.bmp	Stapler7.bmp	Ginger5.bmp	36	1	1	1	1	PSYCHOLOGIE
FAUST_1[2014-06]	20	2	11	3	2	2	2	1	2	0	3612	1	1	1	1641	2	1809	Lipstick7.bmp	Lipstick9.bmp	Paperclip4.bmp	Lipstick7.bmp	Lipstick3.bmp	Lipstick2.bmp	Lipstick7.bmp	36	1	1	1	1	PSYCHOLOGIE
FAUST_1[2014-06]	20	2	6	3	2	1	1	2	1	0	1762	2	2	1	2719	3	1473	Coins12.bmp	Pen10.bmp	Pen20.bmp	Coins14.bmp	Pen1.bmp	Pen5.bmp	Pen1.bmp	36	1	1	1	1	PSYCHOLOGIE
FAUST_1[2014-06]	20	2	12	3	2	2	1	2	1	0	3142	2	2	1	2617	2	1260	Varnish17.bmp	Varnish5.bmp	Nut11.bmp	Nut18.bmp	Nut19.bmp	Nut2.bmp	Varnish5.bmp	36	1	1	1	1	PSYCHOLOGIE
FAUST_1[2014-06]	20	2	14	3	2	1	2	2	1	0	2150	2	1	0	2505	3	1339	Jigsaw18.bmp	Jigsaw14.bmp	Bracelet1.bmp	Jigsaw17.bmp	Jigsaw10.bmp	Jigsaw11.bmp	Bracelet1.bmp	36	1	1	1	1	PSYCHOLOGIE
FAUST_1[2014-06]	20	2	19	3	2	2	2	2	1	0	1317	2	1	0	2283	3	901	Screw10.bmp	Screw16.bmp	Screw9.bmp	Screw18.bmp	Screw16.bmp	Screw13.bmp	Candle17.bmp	36	1	1	1	1	PSYCHOLOGIE
FAUST_1[2014-06]	20	2	15	3	2	1	1	2	2	1	1361	1	1	1	2392	3	1107	Sweet10.bmp	Chocolate17.bmp	Chocolate9.bmp	Chocolate24.bmp	Sweet18.bmp	Chocolate5.bmp	Chocolate17.bmp	36	1	1	1	1	PSYCHOLOGIE
FAUST_1[2014-06]	20	2	1	3	2	2	1	2	1	0	1679	1	1	1	2259	3	2470	Toothbrush6.bmp	Biscuit9.bmp	Biscuit4.bmp	Toothbrush10.bmp	Biscuit25.bmp	Biscuit20.bmp	Toothbrush10.bmp	36	1	1	1	1	PSYCHOLOGIE
FAUST_1[2014-06]	20	2	7	3	2	1	2	2	1	0	1786	2	1	0	3065	3	1295	Present17.bmp	Present2.bmp	Plug4.bmp	Present3.bmp	Plug4.bmp	Present14.bmp	Present9.bmp	36	1	1	1	1	PSYCHOLOGIE
FAUST_1[2014-06]	20	2	16	3	2	2	2	2	1	0	3681	2	1	0	2508	3	1187	Cake18.bmp	Cake25.bmp	Cake7.bmp	Cake25.bmp	Cake16.bmp	Cake24.bmp	Man2.bmp	36	1	1	1	1	PSYCHOLOGIE
FAUST_1[2014-06]	20	2	5	3	2	1	1	3	2	1	1263	2	2	1	1642	3	1700	Leaf22.bmp	Hand1.bmp	Chilli11.bmp	Chilli19.bmp	Chilli12.bmp	Chilli14.bmp	Chilli19.bmp	36	1	1	1	1	PSYCHOLOGIE
FAUST_1[2014-06]	20	2	9	3	2	2	1	3	2	1	1195	2	1	0	2203	3	1229	Holly17.bmp	Brocolli19.bmp	Shell1.bmp	Brocolli10.bmp	Shell1.bmp	Brocolli9.bmp	Brocolli4.bmp	36	1	1	1	1	PSYCHOLOGIE
FAUST_1[2014-06]	20	2	17	3	2	1	1	3	2	1	1124	2	2	1	1621	3	1360	Fudge5.bmp	Swirl13.bmp	Onion13.bmp	Onion14.bmp	Onion13.bmp	Onion18.bmp	Onion7.bmp	36	1	1	1	1	PSYCHOLOGIE
FAUST_1[2014-06]	20	2	3	3	2	2	1	3	2	1	1652	2	1	0	2716	3	5545	Flower3.bmp	Daff1.bmp	Hanger14.bmp	Hanger12.bmp	Daff1.bmp	Hanger15.bmp	Hanger7.bmp	36	1	1	1	1	PSYCHOLOGIE
FAUST_1[2014-06]	20	2	2	3	2	1	1	3	2	1	4103	1	1	1	2189	3	4297	Star1.bmp	Bag21.bmp	Bag3.bmp	Bag5.bmp	Bag25.bmp	Fork9.bmp	Bag21.bmp	36	1	1	1	1	PSYCHOLOGIE
FAUST_1[2014-06]	20	2	21	3	2	2	1	3	2	1	1371	2	2	1	1892	3	1609	Scissors23.bmp	Bun19.bmp	Glass3.bmp	Bun12.bmp	Glass3.bmp	Bun17.bmp	Bun5.bmp	36	1	1	1	1	PSYCHOLOGIE
FAUST_1[2014-06]	20	3	25	3	3	1	1	1	1	1	2293	2	2	1	2569	4	1881	skateboard_15.bmp	remote_3.bmp	remote_13.bmp	remote_3.bmp	remote_2.bmp	remote_11.bmp	skateboard_15.bmp	36	1	1	1	1	PSYCHOLOGIE
FAUST_1[2014-06]	20	3	26	3	3	2	1	1	1	1	1299	2	2	1	2529	4	1032	abacus_15.bmp	abacus_15.bmp	mic_12.bmp	mic_5.bmp	abacus_15.bmp	mic_2.bmp	mic_10.bmp	36	1	1	1	1	PSYCHOLOGIE
FAUST_1[2014-06]	20	3	24	3	3	1	2	1	1	1	2714	2	2	1	1502	2	1548	doorknob_7.bmp	doorknob_17.bmp	doorknob_7.bmp	wig_7.bmp	doorknob_2.bmp	doorknob_10.bmp	wig_7.bmp	36	1	1	1	1	PSYCHOLOGIE
FAUST_1[2014-06]	20	3	31	3	3	2	2	1	1	1	1363	2	2	1	1920	3	1189	easteregg_9.bmp	easteregg_9.bmp	easteregg_17.bmp	easteregg_9.bmp	hairbrush_15.bmp	easteregg_14.bmp	easteregg_5.bmp	36	1	1	1	1	PSYCHOLOGIE
FAUST_1[2014-06]	20	3	22	3	3	1	1	1	1	1	1365	2	2	1	2047	4	1240	bagel_14.bmp	glasses_8.bmp	glasses_6.bmp	glasses_8.bmp	bagel_14.bmp	glasses_9.bmp	glasses_15.bmp	36	1	1	1	1	PSYCHOLOGIE
FAUST_1[2014-06]	20	3	23	3	3	2	1	1	1	1	1148	2	2	1	2012	4	1368	cheesegrater_11.bmp	printer_16.bmp	printer_3.bmp	cheesegrater_11.bmp	printer_5.bmp	cheesegrater_11.bmp	printer_14.bmp	36	1	1	1	1	PSYCHOLOGIE
FAUST_1[2014-06]	20	3	15	3	3	1	2	1	1	1	1760	2	2	1	2942	3	2314	watch_7.bmp	watch_14.bmp	rusdoll_6.bmp	watch_7.bmp	rusdoll_6.bmp	watch_8.bmp	watch_3.bmp	36	1	1	1	1	PSYCHOLOGIE
FAUST_1[2014-06]	20	3	4	3	3	2	2	1	1	1	1729	2	2	1	2537	3	1396	garbagecan_2.bmp	garbagecan_2.bmp	garbagecan_13.bmp	garbagecan_10.bmp	garbagecan_8.bmp	garbagecan_2.bmp	parfait_4.bmp	36	1	1	1	1	PSYCHOLOGIE
FAUST_1[2014-06]	20	3	12	3	3	1	1	1	2	0	1840	1	1	1	2004	2	1645	hairdryer_12.bmp	lawnmower_17.bmp	lawnmower_3.bmp	hairdryer_12.bmp	lawnmower_8.bmp	lawnmower_15.bmp	lawnmower_8.bmp	36	1	1	1	1	PSYCHOLOGIE
FAUST_1[2014-06]	20	3	30	3	3	2	1	1	1	1	1333	1	1	1	2372	3	1137	scooter_5.bmp	doorknocker_11.bmp	doorknocker_5.bmp	scooter_5.bmp	doorknocker_14.bmp	doorknocker_4.bmp	scooter_5.bmp	36	1	1	1	1	PSYCHOLOGIE
FAUST_1[2014-06]	20	3	29	3	3	1	2	1	1	1	1865	1	1	1	2450	3	1137	plant_5.bmp	windchime_3.bmp	plant_2.bmp	plant_8.bmp	plant_13.bmp	plant_5.bmp	windchime_3.bmp	36	1	1	1	1	PSYCHOLOGIE
FAUST_1[2014-06]	20	3	17	3	3	2	2	1	1	1	1379	1	1	1	2074	4	1528	glove_10.bmp	glove_5.bmp	glove_15.bmp	glove_12.bmp	glove_10.bmp	guitar_7.bmp	glove_10.bmp	36	1	1	1	1	PSYCHOLOGIE
FAUST_1[2014-06]	20	3	27	3	3	1	1	2	2	1	1015	1	1	1	2688	4	1167	jacket_7.bmp	router_7.bmp	jacket_6.bmp	router_6.bmp	router_16.bmp	router_5.bmp	router_7.bmp	36	1	1	1	1	PSYCHOLOGIE
FAUST_1[2014-06]	20	3	18	3	3	2	1	2	2	1	990	2	2	1	2239	4	1452	carriage_2.bmp	coffee_7.bmp	carriage_3.bmp	coffee_15.bmp	carriage_3.bmp	coffee_1.bmp	coffee_14.bmp	36	1	1	1	1	PSYCHOLOGIE
FAUST_1[2014-06]	20	3	8	3	3	1	2	2	2	1	2841	2	2	1	2364	3	1651	carabiner_6.bmp	babycrib_2.bmp	carabiner_9.bmp	carabiner_5.bmp	carabiner_7.bmp	babycrib_2.bmp	carabiner_2.bmp	36	1	1	1	1	PSYCHOLOGIE
FAUST_1[2014-06]	20	3	14	3	3	2	2	2	2	1	1291	1	1	1	2172	4	1149	backpack_12.bmp	backpack_13.bmp	backpack_10.bmp	backpack_16.bmp	backpack_6.bmp	flashlight_12.bmp	backpack_13.bmp	36	1	1	1	1	PSYCHOLOGIE
FAUST_1[2014-06]	20	3	20	3	3	1	1	2	2	1	1145	2	2	1	1942	4	2138	tv_16.bmp	trophy_14.bmp	trophy_16.bmp	trophy_15.bmp	tv_8.bmp	trophy_6.bmp	trophy_15.bmp	36	1	1	1	1	PSYCHOLOGIE
FAUST_1[2014-06]	20	3	1	3	3	2	1	2	1	0	1689	1	1	1	1737	2	4193	hammer_8.bmp	hammer_15.bmp	iceskates_14.bmp	iceskates_9.bmp	iceskates_5.bmp	iceskates_7.bmp	hammer_15.bmp	36	1	1	1	1	PSYCHOLOGIE
FAUST_1[2014-06]	20	3	21	3	3	1	2	2	2	1	1188	2	2	1	2110	4	1546	vase_13.bmp	vase_1.bmp	vase_6.bmp	vase_5.bmp	cake_4.bmp	vase_15.bmp	cake_4.bmp	36	1	1	1	1	PSYCHOLOGIE
FAUST_1[2014-06]	20	3	7	3	3	2	2	2	2	1	3294	2	2	1	2219	2	1460	sink_11.bmp	sink_15.bmp	sink_6.bmp	sink_10.bmp	chair_2.bmp	sink_1.bmp	sink_6.bmp	36	1	1	1	1	PSYCHOLOGIE
FAUST_1[2014-06]	20	3	6	3	3	1	1	2	2	1	1125	2	1	0	2561	3	1469	cherubstatue_11.bmp	leatherman_14.bmp	leatherman_2.bmp	leatherman_7.bmp	cherubstatue_5.bmp	leatherman_5.bmp	leatherman_7.bmp	36	1	1	1	1	PSYCHOLOGIE
FAUST_1[2014-06]	20	3	5	3	3	2	1	2	2	1	945	2	1	0	2418	3	1215	ring_12.bmp	shredder_6.bmp	ring_8.bmp	shredder_15.bmp	ring_8.bmp	shredder_7.bmp	shredder_5.bmp	36	1	1	1	1	PSYCHOLOGIE
FAUST_1[2014-06]	20	3	9	3	3	1	2	2	2	1	5626	2	1	0	2433	2	1737	videogamecontroller_11.bmp	videogamecontroller_13.bmp	videogamecontroller_3.bmp	videogamecontroller_2.bmp	shoe_9.bmp	videogamecontroller_5.bmp	shoe_9.bmp	36	1	1	1	1	PSYCHOLOGIE
FAUST_1[2014-06]	20	3	16	3	3	2	2	2	2	1	920	1	1	1	2456	4	1483	tricycle_15.bmp	tricycle_8.bmp	tricycle_2.bmp	tricycle_5.bmp	tricycle_8.bmp	tricycle_10.bmp	cat_4.bmp	36	1	1	1	1	PSYCHOLOGIE
FAUST_1[2014-06]	20	3	28	3	3	1	1	3	2	1	1087	2	2	1	2051	4	1367	trumpet_17.bmp	speaker_4.bmp	speaker_6.bmp	speaker_15.bmp	speaker_10.bmp	camera_3.bmp	speaker_6.bmp	36	1	1	1	1	PSYCHOLOGIE
FAUST_1[2014-06]	20	3	11	3	3	2	1	3	2	1	1107	2	2	1	2504	4	1323	horseshoe_12.bmp	watergun_15.bmp	watergun_3.bmp	rollerskates_17.bmp	watergun_9.bmp	rollerskates_17.bmp	watergun_8.bmp	36	1	1	1	1	PSYCHOLOGIE
FAUST_1[2014-06]	20	3	2	3	3	1	1	3	2	1	1014	1	1	1	1930	4	1687	goggle_9.bmp	sofa_3.bmp	sofa_12.bmp	sofa_3.bmp	sofa_9.bmp	laptop_16.bmp	sofa_13.bmp	36	1	1	1	1	PSYCHOLOGIE
FAUST_1[2014-06]	20	3	10	3	3	2	1	3	2	1	959	2	2	1	2102	4	1758	cellphone_11.bmp	saddle_5.bmp	saltpeppershake_9.bmp	saltpeppershake_8.bmp	saltpeppershake_2.bmp	saltpeppershake_17.bmp	saddle_5.bmp	36	1	1	1	1	PSYCHOLOGIE
FAUST_1[2014-06]	20	3	32	3	3	1	1	3	2	1	1268	1	1	1	1545	4	1686	turtle_6.bmp	birdhouse_11.bmp	birdhouse_14.bmp	birdhouse_9.bmp	birdhouse_7.bmp	beanbagchair_17.bmp	birdhouse_7.bmp	36	1	1	1	1	PSYCHOLOGIE
FAUST_1[2014-06]	20	3	19	3	3	2	1	3	2	1	854	1	1	1	2592	4	1275	powerstrip_7.bmp	bowlingpin_3.bmp	socks_13.bmp	bowlingpin_4.bmp	socks_13.bmp	bowlingpin_1.bmp	bowlingpin_11.bmp	36	1	1	1	1	PSYCHOLOGIE
FAUST_1[2014-06]	20	3	3	3	3	1	1	3	2	1	954	2	2	1	2405	4	1316	pasta_11.bmp	highchair_15.bmp	highchair_6.bmp	highchair_10.bmp	circuitboard_16.bmp	highchair_15.bmp	highchair_3.bmp	36	1	1	1	1	PSYCHOLOGIE
FAUST_1[2014-06]	20	3	13	3	3	2	1	3	2	1	1115	2	2	1	2833	3	1252	orifan_17.bmp	fan_17.bmp	fan_10.bmp	trunk_2.bmp	fan_11.bmp	fan_15.bmp	trunk_2.bmp	36	1	1	1	1	PSYCHOLOGIE
FAUST_1[2014-06]	20	4	26	3	1	1	1	1	2	0	1543	2	2	1	2304	3	1321	WALZER	marzipan	karamell	walzer	gummibärchen	bonbons	marzipan	36	1	1	1	1	PSYCHOLOGIE
FAUST_1[2014-06]	20	4	21	3	1	2	1	1	1	1	1360	1	2	0	2394	3	1316	KORIANDER	dinkel	koriander	gerste	roggen	weizen	koriander	36	1	1	1	1	PSYCHOLOGIE
FAUST_1[2014-06]	20	4	28	3	1	1	2	1	2	0	2338	2	2	1	1764	2	1151	NELKE	nelke	veilchen	makrele	lilie	rose	makrele	36	1	1	1	1	PSYCHOLOGIE
FAUST_1[2014-06]	20	4	23	3	1	2	2	1	1	1	1479	2	2	1	2657	3	1308	BLUSE	hemd	bluse	spinat	rock	bluse	jacke	36	1	1	1	1	PSYCHOLOGIE
FAUST_1[2014-06]	20	4	17	3	1	1	1	1	1	1	1613	1	1	1	2486	2	1516	GYMNASIUM	radio	fernsehen	gymnasium	internet	fernsehen	buch	36	1	1	1	1	PSYCHOLOGIE
FAUST_1[2014-06]	20	4	8	3	1	2	1	1	1	1	1977	2	2	1	2425	2	1521	WASSERMANN	kamera	wassermann	drucker	mobiltelefon	wassermann	laptop	36	1	1	1	1	PSYCHOLOGIE
FAUST_1[2014-06]	20	4	4	3	1	1	2	1	2	0	5411	2	2	1	2824	2	1301	TEMPEL	kirche	see	moschee	kapelle	tempel	see	36	1	1	1	1	PSYCHOLOGIE
FAUST_1[2014-06]	20	4	22	3	1	2	2	1	1	1	1226	1	1	1	2068	3	1278	ZANGE	bohrer	zange	säge	oper	zange	meißel	36	1	1	1	1	PSYCHOLOGIE
FAUST_1[2014-06]	20	4	25	3	1	1	1	1	2	0	2679	1	1	1	1895	3	1730	BECHER	donau	weser	main	becher	main	elbe	36	1	1	1	1	PSYCHOLOGIE
FAUST_1[2014-06]	20	4	12	3	1	2	1	1	2	0	4653	2	1	0	2463	3	1573	GABEL	gabel	posaune	klarinette	gabel	trompete	flöte	36	1	1	1	1	PSYCHOLOGIE
FAUST_1[2014-06]	20	4	31	3	1	1	2	1	1	1	1318	2	2	1	2438	3	1487	BRONZE	chopin	bronze	chopin	silber	eisen	messing	36	1	1	1	1	PSYCHOLOGIE
FAUST_1[2014-06]	20	4	24	3	1	2	2	1	2	0	4833	-1	1	0	0	3	1892	METER	meile	meter	millimeter	polizist	zentimeter	meter	36	1	1	1	1	PSYCHOLOGIE
FAUST_1[2014-06]	20	4	16	3	1	1	1	2	2	1	969	2	1	0	3050	3	873	BUCHE	schnee	hagel	nebel	sonnenschein	weide	sonnenschein	36	1	1	1	1	PSYCHOLOGIE
FAUST_1[2014-06]	20	4	20	3	1	2	1	2	2	1	3169	1	1	1	2534	3	1234	MEISE	wodka	amsel	gin	whiskey	amsel	tequila	36	1	1	1	1	PSYCHOLOGIE
FAUST_1[2014-06]	20	4	2	3	1	1	2	2	2	1	5061	2	2	1	2291	2	1462	MALEN	schreiben	zeichnen	lesen	schiff	basteln	schiff	36	1	1	1	1	PSYCHOLOGIE
FAUST_1[2014-06]	20	4	30	3	1	2	2	2	2	1	1545	2	2	1	3261	3	1345	GASPEDAL	rückspiegel	kupplung	lenkrad	handbremse	lenkrad	italien	36	1	1	1	1	PSYCHOLOGIE
FAUST_1[2014-06]	20	4	11	3	1	1	1	2	2	1	2156	1	1	1	2629	3	1160	PLUTO	terrier	dogge	dackel	mops	venus	terrier	36	1	1	1	1	PSYCHOLOGIE
FAUST_1[2014-06]	20	4	29	3	1	2	1	2	2	1	1159	2	2	1	2733	2	1206	STUNDE	blockhaus	sekunde	scheune	baracke	sekunde	schuppen	36	1	1	1	1	PSYCHOLOGIE
FAUST_1[2014-06]	20	4	15	3	1	1	2	2	2	1	5522	2	1	0	2174	3	1210	BENZIN	monopoly	petroleum	kerosin	bleifrei	monopoly	diesel	36	1	1	1	1	PSYCHOLOGIE
FAUST_1[2014-06]	20	4	19	3	1	2	2	2	2	1	7581	1	1	1	1855	1	1346	TISCH	schrank	sofa	regal	sofa	stuhl	straßenbahn	36	1	1	1	1	PSYCHOLOGIE
FAUST_1[2014-06]	20	4	6	3	1	1	1	2	2	1	2151	2	2	1	2636	2	1374	TRAUER	dolch	pistole	gewehr	ärger	bombe	pistole	36	1	1	1	1	PSYCHOLOGIE
FAUST_1[2014-06]	20	4	32	3	1	2	1	2	2	1	925	2	2	1	2608	3	1337	PANTHER	birne	apfel	gepard	erdbeere	gepard	banane	36	1	1	1	1	PSYCHOLOGIE
FAUST_1[2014-06]	20	4	27	3	1	1	2	2	2	1	2747	2	2	1	2127	3	1949	VATER	döner	mutter	döner	tochter	sohn	onkel	36	1	1	1	1	PSYCHOLOGIE
FAUST_1[2014-06]	20	4	7	3	1	2	2	2	2	1	5603	1	2	0	2035	3	1570	MATHEMATIK	adjektiv	physik	biologie	chemie	physik	erdkunde	36	1	1	1	1	PSYCHOLOGIE
FAUST_1[2014-06]	20	4	5	3	1	1	1	3	2	1	1969	2	2	1	2846	2	1824	GRIPPE	kopf	wespe	hand	fuß	bein	kopf	36	1	1	1	1	PSYCHOLOGIE
FAUST_1[2014-06]	20	4	1	3	1	2	1	3	2	1	1614	1	1	1	2589	3	2491	KÖNIG	saarland	afrika	thüringen	sachsen	brandenburg	afrika	36	1	1	1	1	PSYCHOLOGIE
FAUST_1[2014-06]	20	4	9	3	1	1	1	3	2	1	2314	2	2	1	2459	3	2292	HÄKELNADEL	blau	grün	gelb	leber	gelb	lila	36	1	1	1	1	PSYCHOLOGIE
FAUST_1[2014-06]	20	4	14	3	1	2	1	3	2	1	1287	2	1	0	3106	3	990	BRIEFÖFFNER	hamburg	hannover	münchen	kajal	stuttgart	kajal	36	1	1	1	1	PSYCHOLOGIE
FAUST_1[2014-06]	20	4	10	3	1	1	1	3	2	1	3399	2	2	1	1640	3	1515	DOLLAR	filzstift	bleistift	hexe	kugelschreiber	buntstift	bleistift	36	1	1	1	1	PSYCHOLOGIE
FAUST_1[2014-06]	20	4	13	3	1	2	1	3	2	1	1284	2	1	0	2788	3	1370	SEIDE	backform	nudelholz	rechteck	pfannenwender	rechteck	backblech	36	1	1	1	1	PSYCHOLOGIE
FAUST_1[2014-06]	20	4	3	3	1	1	1	3	2	1	1730	2	2	1	2515	3	1727	RIECHEN	stickstoff	helium	kohlenstoff	sauerstoff	helium	kokain	36	1	1	1	1	PSYCHOLOGIE
FAUST_1[2014-06]	20	4	18	3	1	2	1	3	2	1	7170	1	2	0	2646	1	2573	FUßBALL	thriller	volvo	porsche	thriller	mercedes	peugeot	36	1	1	1	1	PSYCHOLOGIE
