experiment	subject	block	trial	order	material	repeated	related	probetype	response	correct	rt	math_response	math_correctresponse	math_correct	math_rt	confidence	confidence_rt	probe	item1	item2	item3	item4	item5	item6	age	sex	handedness	color_vision	mother_tongue	occupation
FAUST_1[2014-06]	21	1	6	4	2	1	1	1	1	1	4623	1	1	1	1406	3	6478	Ginger10.bmp	Sweet22.bmp	Sweet1.bmp	Sweet10.bmp	Ginger10.bmp	Sweet10.bmp	Sweet18.bmp	20	1	1	1	1	MEDIZIN
FAUST_1[2014-06]	21	1	4	4	2	2	1	1	1	1	2039	2	2	1	2228	4	1692	Hand10.bmp	Candle13.bmp	Candle17.bmp	Hand10.bmp	Candle10.bmp	Hand10.bmp	Candle1.bmp	20	1	1	1	1	MEDIZIN
FAUST_1[2014-06]	21	1	3	4	2	1	2	1	2	0	1342	1	1	1	1672	1	8904	Daff9.bmp	Daff21.bmp	Daff1.bmp	Daff9.bmp	Star19.bmp	Daff3.bmp	Star19.bmp	20	1	1	1	1	MEDIZIN
FAUST_1[2014-06]	21	1	19	4	2	2	2	1	1	1	1425	1	1	1	1849	4	1543	Cake25.bmp	Cake18.bmp	Cake16.bmp	Cake25.bmp	Present14.bmp	Cake25.bmp	Cake24.bmp	20	1	1	1	1	MEDIZIN
FAUST_1[2014-06]	21	1	20	4	2	1	1	1	2	0	2334	2	1	0	2068	3	2275	Screw18.bmp	Feather12.bmp	Feather11.bmp	Feather2.bmp	Feather18.bmp	Feather11.bmp	Screw18.bmp	20	1	1	1	1	MEDIZIN
FAUST_1[2014-06]	21	1	17	4	2	2	1	1	1	1	1020	1	1	1	2143	4	1156	Button20.bmp	Leaf10.bmp	Leaf22.bmp	Leaf13.bmp	Button20.bmp	Leaf15.bmp	Button20.bmp	20	1	1	1	1	MEDIZIN
FAUST_1[2014-06]	21	1	10	4	2	1	2	1	1	1	2327	2	2	1	2361	3	1769	Holly11.bmp	Paperclip9.bmp	Holly11.bmp	Holly20.bmp	Holly14.bmp	Paperclip9.bmp	Holly17.bmp	20	1	1	1	1	MEDIZIN
FAUST_1[2014-06]	21	1	15	4	2	2	2	1	1	1	1134	2	2	1	1088	3	1723	Shell17.bmp	Jigsaw11.bmp	Shell9.bmp	Shell17.bmp	Shell18.bmp	Shell1.bmp	Shell17.bmp	20	1	1	1	1	MEDIZIN
FAUST_1[2014-06]	21	1	13	4	2	1	1	2	1	0	1146	2	2	1	1679	3	1709	Hanger2.bmp	Hanger15.bmp	Flower17.bmp	Flower18.bmp	Flower13.bmp	Flower14.bmp	Flower18.bmp	20	1	1	1	1	MEDIZIN
FAUST_1[2014-06]	21	1	2	4	2	2	1	2	1	0	3193	1	1	1	1943	3	1703	Chilli11.bmp	Glass4.bmp	Glass16.bmp	Chilli12.bmp	Glass19.bmp	Chilli12.bmp	Glass3.bmp	20	1	1	1	1	MEDIZIN
FAUST_1[2014-06]	21	1	22	4	2	1	2	2	2	1	1875	2	2	1	985	3	1756	Car14.bmp	Bag4.bmp	Car21.bmp	Bag4.bmp	Car12.bmp	Car13.bmp	Car7.bmp	20	1	1	1	1	MEDIZIN
FAUST_1[2014-06]	21	1	18	4	2	2	2	2	2	1	1828	2	2	1	1257	3	2545	Stapler6.bmp	Stapler7.bmp	Stapler8.bmp	Stapler10.bmp	Nut2.bmp	Stapler9.bmp	Stapler7.bmp	20	1	1	1	1	MEDIZIN
FAUST_1[2014-06]	21	1	8	4	2	1	1	2	2	1	3052	2	2	1	1210	2	2016	Brocolli4.bmp	Brocolli19.bmp	Tomato2.bmp	Tomato3.bmp	Tomato2.bmp	Tomato12.bmp	Tomato18.bmp	20	1	1	1	1	MEDIZIN
FAUST_1[2014-06]	21	1	16	4	2	2	1	2	1	0	1443	1	1	1	1452	2	2266	Chocolate17.bmp	Pen1.bmp	Pen20.bmp	Pen17.bmp	Chocolate9.bmp	Pen5.bmp	Chocolate9.bmp	20	1	1	1	1	MEDIZIN
FAUST_1[2014-06]	21	1	14	4	2	1	2	2	1	0	1263	2	2	1	1563	3	2582	Varnish5.bmp	Umbrella17.bmp	Varnish14.bmp	Varnish11.bmp	Varnish17.bmp	Varnish3.bmp	Umbrella17.bmp	20	1	1	1	1	MEDIZIN
FAUST_1[2014-06]	21	1	11	4	2	2	2	2	1	0	2439	2	2	1	2701	3	1594	Swirl10.bmp	Swirl1.bmp	Swirl5.bmp	Lipstick15.bmp	Swirl13.bmp	Swirl5.bmp	Swirl23.bmp	20	1	1	1	1	MEDIZIN
FAUST_1[2014-06]	21	1	12	4	2	1	1	3	2	1	1113	2	2	1	1532	4	1745	Apple10.bmp	Fork14.bmp	Key5.bmp	Key9.bmp	Key11.bmp	Key9.bmp	Key20.bmp	20	1	1	1	1	MEDIZIN
FAUST_1[2014-06]	21	1	7	4	2	2	1	3	2	1	2889	2	2	1	1356	4	2459	Biscuit25.bmp	Keys5.bmp	Mushroom25.bmp	Mushroom6.bmp	Mushroom14.bmp	Keys5.bmp	Mushroom7.bmp	20	1	1	1	1	MEDIZIN
FAUST_1[2014-06]	21	1	21	4	2	1	1	3	2	1	1011	2	2	1	1235	4	1070	Scissors23.bmp	Plug9.bmp	Plug8.bmp	Onion7.bmp	Plug6.bmp	Plug9.bmp	Plug4.bmp	20	1	1	1	1	MEDIZIN
FAUST_1[2014-06]	21	1	1	4	2	2	1	3	2	1	1566	2	2	1	2634	4	3337	Bun12.bmp	Pear7.bmp	Fudge20.bmp	Fudge8.bmp	Fudge15.bmp	Fudge17.bmp	Pear7.bmp	20	1	1	1	1	MEDIZIN
FAUST_1[2014-06]	21	1	9	4	2	1	1	3	2	1	1636	1	1	1	1620	4	1950	Bracelet5.bmp	Toothbrush6.bmp	Strawberry18.bmp	Toothbrush1.bmp	Toothbrush12.bmp	Toothbrush10.bmp	Toothbrush6.bmp	20	1	1	1	1	MEDIZIN
FAUST_1[2014-06]	21	1	5	4	2	2	1	3	2	1	1353	2	1	0	3095	4	1929	Man24.bmp	Coins3.bmp	String2.bmp	Coins10.bmp	String2.bmp	Coins14.bmp	Coins12.bmp	20	1	1	1	1	MEDIZIN
FAUST_1[2014-06]	21	2	21	4	1	1	1	1	1	1	904	1	1	1	1852	4	1036	ROCK	buche	rock	birke	buche	weide	tanne	20	1	1	1	1	MEDIZIN
FAUST_1[2014-06]	21	2	10	4	1	2	1	1	1	1	1167	2	2	1	1168	3	1072	TAXI	stecknadel	nähnadel	taxi	stricknadel	taxi	häkelnadel	20	1	1	1	1	MEDIZIN
FAUST_1[2014-06]	21	2	26	4	1	1	2	1	1	1	2590	2	2	1	1298	2	960	FREUDE	teich	scham	teich	ärger	trauer	freude	20	1	1	1	1	MEDIZIN
FAUST_1[2014-06]	21	2	30	4	1	2	2	1	1	1	927	2	2	1	1052	4	789	MILLIMETER	millimeter	veilchen	meter	kilometer	millimeter	meile	20	1	1	1	1	MEDIZIN
FAUST_1[2014-06]	21	2	15	4	1	1	1	1	2	0	1697	2	2	1	2045	2	1234	CHEMIE	präposition	adverb	adjektiv	nomen	präposition	chemie	20	1	1	1	1	MEDIZIN
FAUST_1[2014-06]	21	2	31	4	1	2	1	1	1	1	1374	1	1	1	748	4	1154	ENGLAND	computer	england	laptop	england	drucker	mobiltelefon	20	1	1	1	1	MEDIZIN
FAUST_1[2014-06]	21	2	23	4	1	1	2	1	1	1	831	2	2	1	1311	4	1206	AMSEL	meise	fink	schwalbe	kopf	amsel	kopf	20	1	1	1	1	MEDIZIN
FAUST_1[2014-06]	21	2	7	4	1	2	2	1	1	1	975	2	2	1	1175	4	1187	BLUMENKOHL	spinat	bohnen	petroleum	blumenkohl	karotten	blumenkohl	20	1	1	1	1	MEDIZIN
FAUST_1[2014-06]	21	2	17	4	1	1	1	1	1	1	1032	2	2	1	2516	4	1155	ZWILLING	sekunde	zwilling	minute	jahr	minute	tag	20	1	1	1	1	MEDIZIN
FAUST_1[2014-06]	21	2	19	4	1	2	1	1	1	1	1049	2	1	0	1793	4	897	FORELLE	klebeband	brieföffner	forelle	büroklammer	lineal	forelle	20	1	1	1	1	MEDIZIN
FAUST_1[2014-06]	21	2	29	4	1	1	2	1	1	1	727	2	2	1	1482	4	1494	SOHN	whiskey	sohn	tochter	mutter	onkel	whiskey	20	1	1	1	1	MEDIZIN
FAUST_1[2014-06]	21	2	6	4	1	2	2	1	1	1	1220	2	2	1	852	4	1689	SKIFAHREN	viereck	skifahren	tennis	fußball	schwimmen	skifahren	20	1	1	1	1	MEDIZIN
FAUST_1[2014-06]	21	2	13	4	1	1	1	2	2	1	1733	2	2	1	1785	3	2348	WESTERN	dämon	horrorfilm	vampir	werwolf	zombie	werwolf	20	1	1	1	1	MEDIZIN
FAUST_1[2014-06]	21	2	9	4	1	2	1	2	2	1	1025	2	1	0	856	4	2210	LIDSCHATTEN	backgammon	monopoly	halma	wimperntusche	scrabble	wimperntusche	20	1	1	1	1	MEDIZIN
FAUST_1[2014-06]	21	2	22	4	1	1	2	2	1	0	967	1	1	1	1572	3	2146	RHEIN	pfannenwender	donau	weser	elbe	pfannenwender	main	20	1	1	1	1	MEDIZIN
FAUST_1[2014-06]	21	2	18	4	1	2	2	2	1	0	1450	1	1	1	1343	2	1171	BIRNE	banane	pflaume	banane	erdbeere	apfel	masern	20	1	1	1	1	MEDIZIN
FAUST_1[2014-06]	21	2	5	4	1	1	1	2	2	1	1347	1	1	1	3408	4	2137	HAGEL	bombe	schnee	pistole	bombe	gewehr	schwert	20	1	1	1	1	MEDIZIN
FAUST_1[2014-06]	21	2	4	4	1	2	1	2	2	1	832	2	1	0	1179	4	1451	AMEISE	moschee	mücke	synagoge	mücke	kirche	tempel	20	1	1	1	1	MEDIZIN
FAUST_1[2014-06]	21	2	1	4	1	1	2	2	2	1	920	1	1	1	1524	4	2903	FÄHRE	boot	seide	kanu	schiff	yacht	seide	20	1	1	1	1	MEDIZIN
FAUST_1[2014-06]	21	2	20	4	1	2	2	2	2	1	845	1	1	1	2531	4	994	REGAL	sofa	stuhl	schrank	sauerstoff	tisch	schrank	20	1	1	1	1	MEDIZIN
FAUST_1[2014-06]	21	2	25	4	1	1	1	2	2	1	1440	2	2	1	1169	3	2174	GERSTE	münchen	stuttgart	münchen	hannover	roggen	berlin	20	1	1	1	1	MEDIZIN
FAUST_1[2014-06]	21	2	12	4	1	2	1	2	1	0	1279	2	2	1	1963	4	701	NIERE	puma	lunge	gepard	panther	lunge	tiger	20	1	1	1	1	MEDIZIN
FAUST_1[2014-06]	21	2	24	4	1	1	2	2	1	0	1191	1	1	1	1215	2	886	RIECHEN	fühlen	fürst	sehen	hören	schmecken	fürst	20	1	1	1	1	MEDIZIN
FAUST_1[2014-06]	21	2	28	4	1	2	2	2	2	1	703	1	1	1	1031	4	1422	MERCEDES	peugeot	porsche	audi	bohrer	volvo	audi	20	1	1	1	1	MEDIZIN
FAUST_1[2014-06]	21	2	8	4	1	1	1	3	2	1	934	2	2	1	2263	4	1089	ZEITUNG	dackel	kupplung	terrier	dackel	mops	dogge	20	1	1	1	1	MEDIZIN
FAUST_1[2014-06]	21	2	16	4	1	2	1	3	2	1	791	2	2	1	1052	4	998	GYMNASIUM	lila	grün	oper	rot	gelb	oper	20	1	1	1	1	MEDIZIN
FAUST_1[2014-06]	21	2	3	4	1	1	1	3	2	1	809	1	1	1	2360	4	1185	LESEN	döner	pizza	löffel	pizza	bratwurst	hamburger	20	1	1	1	1	MEDIZIN
FAUST_1[2014-06]	21	2	14	4	1	2	1	3	2	1	881	1	1	1	1786	4	1185	KANNE	heroin	mozart	cannabis	mozart	opium	haschisch	20	1	1	1	1	MEDIZIN
FAUST_1[2014-06]	21	2	27	4	1	1	1	3	2	1	832	2	2	1	1097	4	1358	RUMBA	bleistift	filzstift	cent	kugelschreiber	buntstift	bleistift	20	1	1	1	1	MEDIZIN
FAUST_1[2014-06]	21	2	11	4	1	2	1	3	2	1	857	1	1	1	1403	3	968	POLIZIST	merkur	jupiter	lakritz	venus	lakritz	saturn	20	1	1	1	1	MEDIZIN
FAUST_1[2014-06]	21	2	2	4	1	1	1	3	2	1	834	1	1	1	756	4	1277	GOLD	brandenburg	südamerika	sachsen	saarland	sachsen	hessen	20	1	1	1	1	MEDIZIN
FAUST_1[2014-06]	21	2	32	4	1	2	1	3	2	1	1073	2	2	1	2235	4	1486	FLÖTE	oregano	schuppen	rosmarin	koriander	majoran	schuppen	20	1	1	1	1	MEDIZIN
FAUST_1[2014-06]	21	3	28	4	3	1	1	1	2	0	932	1	1	1	1600	4	1307	printer_14.bmp	saltpeppershake_12.bmp	saltpeppershake_17.bmp	saltpeppershake_8.bmp	printer_14.bmp	saltpeppershake_2.bmp	saltpeppershake_12.bmp	20	1	1	1	1	MEDIZIN
FAUST_1[2014-06]	21	3	4	4	3	2	1	1	1	1	880	2	2	1	1185	4	1017	tv_8.bmp	cat_5.bmp	tv_8.bmp	cat_10.bmp	cat_1.bmp	tv_8.bmp	cat_4.bmp	20	1	1	1	1	MEDIZIN
FAUST_1[2014-06]	21	3	12	4	3	1	2	1	1	1	1239	1	1	1	976	3	1471	carriage_12.bmp	plant_13.bmp	carriage_12.bmp	plant_13.bmp	carriage_3.bmp	carriage_9.bmp	carriage_14.bmp	20	1	1	1	1	MEDIZIN
FAUST_1[2014-06]	21	3	25	4	3	2	2	1	1	1	1288	2	2	1	1055	3	1223	saddle_4.bmp	saddle_3.bmp	saddle_8.bmp	saddle_4.bmp	saddle_5.bmp	bowlingpin_4.bmp	saddle_4.bmp	20	1	1	1	1	MEDIZIN
FAUST_1[2014-06]	21	3	27	4	3	1	1	1	1	1	945	2	2	1	1662	4	1275	watergun_9.bmp	mic_3.bmp	mic_10.bmp	mic_2.bmp	watergun_9.bmp	mic_12.bmp	mic_2.bmp	20	1	1	1	1	MEDIZIN
FAUST_1[2014-06]	21	3	1	4	3	2	1	1	1	1	1017	1	1	1	857	4	1133	wig_9.bmp	birdhouse_14.bmp	wig_9.bmp	birdhouse_11.bmp	wig_9.bmp	birdhouse_7.bmp	birdhouse_9.bmp	20	1	1	1	1	MEDIZIN
FAUST_1[2014-06]	21	3	2	4	3	1	2	1	2	0	1472	1	1	1	1542	2	851	vase_15.bmp	vase_1.bmp	vase_6.bmp	vase_15.bmp	socks_13.bmp	vase_13.bmp	socks_13.bmp	20	1	1	1	1	MEDIZIN
FAUST_1[2014-06]	21	3	3	4	3	2	2	1	1	1	1008	2	2	1	893	4	1048	cherubstatue_12.bmp	cherubstatue_12.bmp	cherubstatue_10.bmp	cherubstatue_6.bmp	cherubstatue_11.bmp	babycrib_6.bmp	cherubstatue_12.bmp	20	1	1	1	1	MEDIZIN
FAUST_1[2014-06]	21	3	17	4	3	1	1	1	1	1	1504	1	2	0	1732	3	3843	trunk_7.bmp	skateboard_11.bmp	skateboard_16.bmp	skateboard_14.bmp	skateboard_3.bmp	skateboard_14.bmp	trunk_7.bmp	20	1	1	1	1	MEDIZIN
FAUST_1[2014-06]	21	3	11	4	3	2	1	1	1	1	905	2	2	1	1072	4	1459	hammer_11.bmp	hammer_11.bmp	cheesegrater_15.bmp	cheesegrater_14.bmp	cheesegrater_8.bmp	hammer_11.bmp	cheesegrater_11.bmp	20	1	1	1	1	MEDIZIN
FAUST_1[2014-06]	21	3	8	4	3	1	2	1	1	1	1871	2	1	0	881	3	1169	iceskates_14.bmp	parfait_4.bmp	iceskates_16.bmp	iceskates_14.bmp	parfait_4.bmp	iceskates_9.bmp	iceskates_5.bmp	20	1	1	1	1	MEDIZIN
FAUST_1[2014-06]	21	3	32	4	3	2	2	1	1	1	1487	2	1	0	1887	4	1527	chair_5.bmp	chair_5.bmp	beanbagchair_15.bmp	chair_2.bmp	chair_16.bmp	chair_11.bmp	chair_5.bmp	20	1	1	1	1	MEDIZIN
FAUST_1[2014-06]	21	3	14	4	3	1	1	2	2	1	2385	2	2	1	1049	4	1163	windchime_10.bmp	abacus_2.bmp	abacus_15.bmp	abacus_7.bmp	windchime_6.bmp	abacus_15.bmp	abacus_4.bmp	20	1	1	1	1	MEDIZIN
FAUST_1[2014-06]	21	3	31	4	3	2	1	2	2	1	997	2	2	1	1555	4	1389	orifan_17.bmp	orifan_1.bmp	horseshoe_6.bmp	horseshoe_4.bmp	horseshoe_5.bmp	horseshoe_12.bmp	orifan_1.bmp	20	1	1	1	1	MEDIZIN
FAUST_1[2014-06]	21	3	29	4	3	1	2	2	1	0	1567	1	1	1	994	3	1432	remote_2.bmp	remote_11.bmp	remote_14.bmp	carabiner_7.bmp	remote_13.bmp	remote_3.bmp	carabiner_7.bmp	20	1	1	1	1	MEDIZIN
FAUST_1[2014-06]	21	3	23	4	3	2	2	2	2	1	1418	1	2	0	1266	2	5323	coffee_14.bmp	coffee_1.bmp	coffee_7.bmp	turtle_11.bmp	coffee_1.bmp	coffee_15.bmp	coffee_2.bmp	20	1	1	1	1	MEDIZIN
FAUST_1[2014-06]	21	3	24	4	3	1	1	2	2	1	1264	2	1	0	2086	4	1757	bagel_16.bmp	garbagecan_17.bmp	garbagecan_2.bmp	garbagecan_13.bmp	garbagecan_8.bmp	bagel_4.bmp	garbagecan_17.bmp	20	1	1	1	1	MEDIZIN
FAUST_1[2014-06]	21	3	22	4	3	2	1	2	2	1	1124	2	2	1	1459	4	1508	leatherman_5.bmp	watch_7.bmp	watch_6.bmp	leatherman_14.bmp	watch_8.bmp	watch_14.bmp	leatherman_14.bmp	20	1	1	1	1	MEDIZIN
FAUST_1[2014-06]	21	3	18	4	3	1	2	2	2	1	1055	1	1	1	1636	4	1329	speaker_4.bmp	speaker_10.bmp	speaker_17.bmp	speaker_6.bmp	trumpet_17.bmp	speaker_15.bmp	trumpet_17.bmp	20	1	1	1	1	MEDIZIN
FAUST_1[2014-06]	21	3	20	4	3	2	2	2	2	1	936	1	1	1	984	4	1348	glasses_8.bmp	glasses_9.bmp	glasses_15.bmp	glasses_6.bmp	goggle_13.bmp	glasses_13.bmp	glasses_9.bmp	20	1	1	1	1	MEDIZIN
FAUST_1[2014-06]	21	3	5	4	3	1	1	2	2	1	3006	1	1	1	1263	1	918	fan_11.bmp	router_5.bmp	router_7.bmp	fan_17.bmp	router_12.bmp	router_7.bmp	router_6.bmp	20	1	1	1	1	MEDIZIN
FAUST_1[2014-06]	21	3	6	4	3	2	1	2	2	1	1380	1	1	1	1047	3	1776	jacket_7.bmp	ring_8.bmp	jacket_11.bmp	ring_7.bmp	jacket_11.bmp	ring_12.bmp	ring_15.bmp	20	1	1	1	1	MEDIZIN
FAUST_1[2014-06]	21	3	26	4	3	1	2	2	1	0	1300	2	2	1	1122	2	1777	camera_7.bmp	camera_6.bmp	camera_9.bmp	tricycle_2.bmp	camera_4.bmp	camera_3.bmp	tricycle_2.bmp	20	1	1	1	1	MEDIZIN
FAUST_1[2014-06]	21	3	13	4	3	2	2	2	2	1	941	2	2	1	1746	4	1167	cellphone_4.bmp	cellphone_12.bmp	cellphone_11.bmp	cellphone_3.bmp	scooter_4.bmp	cellphone_12.bmp	cellphone_8.bmp	20	1	1	1	1	MEDIZIN
FAUST_1[2014-06]	21	3	21	4	3	1	1	3	2	1	840	1	1	1	704	4	1051	laptop_14.bmp	highchair_4.bmp	highchair_3.bmp	highchair_15.bmp	highchair_3.bmp	highchair_6.bmp	rusdoll_3.bmp	20	1	1	1	1	MEDIZIN
FAUST_1[2014-06]	21	3	30	4	3	2	1	3	2	1	959	1	1	1	794	4	1127	glove_5.bmp	powerstrip_14.bmp	sink_10.bmp	sink_11.bmp	sink_15.bmp	powerstrip_14.bmp	sink_6.bmp	20	1	1	1	1	MEDIZIN
FAUST_1[2014-06]	21	3	9	4	3	1	1	3	2	1	945	2	2	1	1255	4	1148	trophy_4.bmp	videogamecontroller_13.bmp	sofa_12.bmp	videogamecontroller_2.bmp	videogamecontroller_11.bmp	videogamecontroller_13.bmp	videogamecontroller_3.bmp	20	1	1	1	1	MEDIZIN
FAUST_1[2014-06]	21	3	7	4	3	2	1	3	2	1	912	1	1	1	1036	4	1240	flashlight_1.bmp	rollerskates_8.bmp	circuitboard_16.bmp	circuitboard_13.bmp	circuitboard_8.bmp	circuitboard_4.bmp	rollerskates_8.bmp	20	1	1	1	1	MEDIZIN
FAUST_1[2014-06]	21	3	15	4	3	1	1	3	2	1	848	1	1	1	917	4	701	lawnmower_3.bmp	guitar_14.bmp	backpack_16.bmp	backpack_10.bmp	backpack_13.bmp	backpack_6.bmp	backpack_13.bmp	20	1	1	1	1	MEDIZIN
FAUST_1[2014-06]	21	3	16	4	3	2	1	3	2	1	847	1	1	1	1383	4	787	doorknob_14.bmp	pasta_9.bmp	shredder_5.bmp	shredder_6.bmp	shredder_1.bmp	pasta_9.bmp	shredder_15.bmp	20	1	1	1	1	MEDIZIN
FAUST_1[2014-06]	21	3	19	4	3	1	1	3	2	1	839	1	1	1	1777	4	969	easteregg_5.bmp	shoe_15.bmp	hairbrush_7.bmp	shoe_9.bmp	shoe_13.bmp	shoe_7.bmp	shoe_9.bmp	20	1	1	1	1	MEDIZIN
FAUST_1[2014-06]	21	3	10	4	3	2	1	3	2	1	783	2	2	1	2899	4	900	cake_14.bmp	hairdryer_7.bmp	hairdryer_14.bmp	hairdryer_13.bmp	doorknocker_14.bmp	hairdryer_12.bmp	doorknocker_14.bmp	20	1	1	1	1	MEDIZIN
FAUST_1[2014-06]	21	2	22	4	2	1	1	1	1	1	989	2	2	1	988	4	895	Tomato5.bmp	Chocolate24.bmp	Chocolate17.bmp	Chocolate5.bmp	Tomato5.bmp	Chocolate17.bmp	Chocolate6.bmp	20	1	1	1	1	MEDIZIN
FAUST_1[2014-06]	21	2	4	4	2	2	1	1	1	1	980	2	1	0	858	4	918	Keys6.bmp	Keys6.bmp	Hanger7.bmp	Hanger12.bmp	Hanger2.bmp	Hanger14.bmp	Keys6.bmp	20	1	1	1	1	MEDIZIN
FAUST_1[2014-06]	21	2	18	4	2	1	2	1	1	1	767	2	2	1	1626	4	1477	Scissors1.bmp	Scissors1.bmp	Scissors23.bmp	Scissors3.bmp	Pear16.bmp	Scissors11.bmp	Pear16.bmp	20	1	1	1	1	MEDIZIN
FAUST_1[2014-06]	21	2	2	4	2	2	2	1	1	1	980	2	2	1	1128	4	1121	Plug18.bmp	Plug8.bmp	Bun19.bmp	Plug6.bmp	Plug18.bmp	Plug9.bmp	Plug18.bmp	20	1	1	1	1	MEDIZIN
FAUST_1[2014-06]	21	2	8	4	2	1	1	1	1	1	816	2	2	1	1257	4	1051	Sweet10.bmp	Candle20.bmp	Sweet10.bmp	Candle10.bmp	Candle20.bmp	Candle1.bmp	Candle13.bmp	20	1	1	1	1	MEDIZIN
FAUST_1[2014-06]	21	2	5	4	2	2	1	1	1	1	826	2	2	1	2134	4	899	Star19.bmp	Star19.bmp	Daff9.bmp	Daff21.bmp	Daff22.bmp	Daff1.bmp	Star19.bmp	20	1	1	1	1	MEDIZIN
FAUST_1[2014-06]	21	2	19	4	2	1	2	1	1	1	810	2	2	1	830	4	1070	Feather11.bmp	Feather11.bmp	Feather14.bmp	Mushroom6.bmp	Feather18.bmp	Mushroom6.bmp	Feather12.bmp	20	1	1	1	1	MEDIZIN
FAUST_1[2014-06]	21	2	9	4	2	2	2	1	1	1	807	2	2	1	773	4	987	Flower17.bmp	Flower18.bmp	Flower17.bmp	Onion18.bmp	Flower14.bmp	Flower17.bmp	Flower3.bmp	20	1	1	1	1	MEDIZIN
FAUST_1[2014-06]	21	2	16	4	2	1	1	2	2	1	1161	2	2	1	1447	4	1426	Glass3.bmp	Brocolli9.bmp	Brocolli19.bmp	Glass19.bmp	Brocolli10.bmp	Brocolli4.bmp	Brocolli10.bmp	20	1	1	1	1	MEDIZIN
FAUST_1[2014-06]	21	2	15	4	2	2	1	2	1	0	1618	1	1	1	1503	2	1136	Holly20.bmp	Stapler7.bmp	Holly14.bmp	Stapler10.bmp	Stapler8.bmp	Holly14.bmp	Stapler9.bmp	20	1	1	1	1	MEDIZIN
FAUST_1[2014-06]	21	2	14	4	2	1	2	2	2	1	1247	1	1	1	868	3	907	Man4.bmp	Man2.bmp	Man15.bmp	Button20.bmp	Man10.bmp	Button20.bmp	Man24.bmp	20	1	1	1	1	MEDIZIN
FAUST_1[2014-06]	21	2	17	4	2	2	2	2	1	0	1020	2	1	0	1538	4	1042	String6.bmp	String2.bmp	String8.bmp	Shell5.bmp	String2.bmp	String9.bmp	String12.bmp	20	1	1	1	1	MEDIZIN
FAUST_1[2014-06]	21	2	1	4	2	1	1	2	2	1	1357	2	2	1	1705	3	1031	Fork17.bmp	Car21.bmp	Car7.bmp	Car12.bmp	Car13.bmp	Fork14.bmp	Car21.bmp	20	1	1	1	1	MEDIZIN
FAUST_1[2014-06]	21	2	10	4	2	2	1	2	2	1	1366	2	2	1	1563	3	886	Bracelet5.bmp	Bracelet1.bmp	Varnish17.bmp	Varnish5.bmp	Bracelet1.bmp	Varnish11.bmp	Varnish3.bmp	20	1	1	1	1	MEDIZIN
FAUST_1[2014-06]	21	2	21	4	2	1	2	2	1	0	5955	2	2	1	1024	1	1310	Chilli22.bmp	Chilli14.bmp	Chilli11.bmp	Bag21.bmp	Chilli19.bmp	Chilli12.bmp	Bag21.bmp	20	1	1	1	1	MEDIZIN
FAUST_1[2014-06]	21	2	7	4	2	2	2	2	1	0	967	2	2	1	1487	4	981	Present3.bmp	Present9.bmp	Present14.bmp	Present17.bmp	Present2.bmp	Nut18.bmp	Present2.bmp	20	1	1	1	1	MEDIZIN
FAUST_1[2014-06]	21	2	12	4	2	1	1	3	2	1	848	2	2	1	1115	4	1385	Strawberry14.bmp	Leaf15.bmp	Jigsaw18.bmp	Jigsaw10.bmp	Jigsaw17.bmp	Jigsaw10.bmp	Jigsaw11.bmp	20	1	1	1	1	MEDIZIN
FAUST_1[2014-06]	21	2	20	4	2	2	1	3	2	1	829	2	2	1	630	4	1249	Coins10.bmp	Umbrella19.bmp	Paperclip14.bmp	Umbrella17.bmp	Umbrella6.bmp	Paperclip14.bmp	Umbrella7.bmp	20	1	1	1	1	MEDIZIN
FAUST_1[2014-06]	21	2	6	4	2	1	1	3	2	1	966	2	2	1	1900	4	1125	Key5.bmp	Apple10.bmp	Apple5.bmp	Apple21.bmp	Fudge15.bmp	Apple10.bmp	Apple18.bmp	20	1	1	1	1	MEDIZIN
FAUST_1[2014-06]	21	2	13	4	2	2	1	3	2	1	699	2	2	1	750	4	1202	Biscuit20.bmp	Screw9.bmp	Screw16.bmp	Swirl23.bmp	Screw13.bmp	Swirl23.bmp	Screw10.bmp	20	1	1	1	1	MEDIZIN
FAUST_1[2014-06]	21	2	11	4	2	1	1	3	2	1	794	1	1	1	1275	4	934	Ginger10.bmp	Cake24.bmp	Cake7.bmp	Cake16.bmp	Cake18.bmp	Cake7.bmp	Toothbrush9.bmp	20	1	1	1	1	MEDIZIN
FAUST_1[2014-06]	21	2	3	4	2	2	1	3	2	1	857	2	2	1	1899	4	973	Lipstick7.bmp	Pen20.bmp	Hand1.bmp	Pen5.bmp	Hand1.bmp	Pen10.bmp	Pen17.bmp	20	1	1	1	1	MEDIZIN
FAUST_1[2014-06]	21	3	10	4	1	1	1	1	2	0	2976	2	1	0	1392	2	751	COMPUTER	computer	kirche	tempel	moschee	synagoge	tempel	20	1	1	1	1	MEDIZIN
FAUST_1[2014-06]	21	3	32	4	1	2	1	1	1	1	584	2	2	1	964	4	879	ZWILLING	zwilling	mücke	hummel	zwilling	ameise	wespe	20	1	1	1	1	MEDIZIN
FAUST_1[2014-06]	21	3	30	4	1	1	2	1	1	1	822	1	1	1	777	4	1077	BIOLOGIE	berufsschule	chemie	biologie	erdkunde	mathematik	berufsschule	20	1	1	1	1	MEDIZIN
FAUST_1[2014-06]	21	3	9	4	1	2	2	1	1	1	823	1	1	1	533	4	1066	KARAFFE	glas	karaffe	flasche	lidschatten	becher	karaffe	20	1	1	1	1	MEDIZIN
FAUST_1[2014-06]	21	3	7	4	1	1	1	1	1	1	910	1	1	1	1841	4	1934	OPER	marzipan	oper	bonbons	gummibärchen	karamell	marzipan	20	1	1	1	1	MEDIZIN
FAUST_1[2014-06]	21	3	5	4	1	2	1	1	1	1	737	2	2	1	1834	4	1235	TEELÖFFEL	gelb	teelöffel	lila	grün	rot	teelöffel	20	1	1	1	1	MEDIZIN
FAUST_1[2014-06]	21	3	19	4	1	1	2	1	1	1	550	1	1	1	800	4	1313	OBOE	oboe	flöte	schach	klarinette	schach	posaune	20	1	1	1	1	MEDIZIN
FAUST_1[2014-06]	21	3	31	4	1	2	2	1	1	1	1814	1	1	1	1375	4	941	SCHNEE	schnee	nebel	schnee	regen	hagel	fahrrad	20	1	1	1	1	MEDIZIN
FAUST_1[2014-06]	21	3	4	4	1	1	1	1	1	1	1139	2	2	1	730	2	851	MESSING	rock	hemd	messing	hose	rock	jacke	20	1	1	1	1	MEDIZIN
FAUST_1[2014-06]	21	3	23	4	1	2	1	1	1	1	546	1	1	1	1785	4	1369	MAGEN	kohlenstoff	helium	magen	stickstoff	magen	wasserstoff	20	1	1	1	1	MEDIZIN
FAUST_1[2014-06]	21	3	11	4	1	1	2	1	1	1	870	2	1	0	909	4	993	VOLVO	porsche	peugeot	zeitung	volvo	mercedes	zeitung	20	1	1	1	1	MEDIZIN
FAUST_1[2014-06]	21	3	13	4	1	2	2	1	1	1	931	2	2	1	1239	4	757	PISTOLE	bombe	pistole	nähnadel	schwert	gewehr	pistole	20	1	1	1	1	MEDIZIN
FAUST_1[2014-06]	21	3	2	4	1	1	1	2	2	1	2421	1	1	1	1367	2	805	THRILLER	dogge	mops	schäferhund	horrorfilm	terrier	dogge	20	1	1	1	1	MEDIZIN
FAUST_1[2014-06]	21	3	29	4	1	2	1	2	2	1	752	2	1	0	1189	4	980	WEIDE	birke	angst	trauer	scham	birke	freude	20	1	1	1	1	MEDIZIN
FAUST_1[2014-06]	21	3	6	4	1	1	2	2	2	1	1142	1	2	0	1971	3	1261	TENNIS	schwimmen	fußball	herzog	golf	herzog	skifahren	20	1	1	1	1	MEDIZIN
FAUST_1[2014-06]	21	3	8	4	1	2	2	2	2	1	2085	2	2	1	1936	2	623	BOHNEN	tomaten	blumenkohl	karotten	tomaten	spinat	rum	20	1	1	1	1	MEDIZIN
FAUST_1[2014-06]	21	3	14	4	1	1	1	2	2	1	782	1	1	1	1490	4	839	BLEISTIFT	filzstift	puma	tiger	leopard	puma	panther	20	1	1	1	1	MEDIZIN
FAUST_1[2014-06]	21	3	22	4	1	2	1	2	2	1	669	2	2	1	1643	4	831	LENKRAD	handbremse	weser	handbremse	main	elbe	rhein	20	1	1	1	1	MEDIZIN
FAUST_1[2014-06]	21	3	27	4	1	1	2	2	2	1	947	2	1	0	1679	4	1085	SÄGE	hammer	koriander	zange	bohrer	koriander	meißel	20	1	1	1	1	MEDIZIN
FAUST_1[2014-06]	21	3	24	4	1	2	2	2	2	1	633	2	2	1	862	4	738	BRIEFÖFFNER	klebeband	büroklammer	fluss	locher	lineal	klebeband	20	1	1	1	1	MEDIZIN
FAUST_1[2014-06]	21	3	21	4	1	1	1	2	2	1	753	2	2	1	712	4	1360	PETROLEUM	bleifrei	schiff	kanu	yacht	kanu	boot	20	1	1	1	1	MEDIZIN
FAUST_1[2014-06]	21	3	12	4	1	2	1	2	2	1	778	2	2	1	1806	3	1453	BIRNE	apfel	meise	apfel	amsel	schwalbe	fink	20	1	1	1	1	MEDIZIN
FAUST_1[2014-06]	21	3	3	4	1	1	2	2	2	1	844	2	2	1	744	4	1071	THUNFISCH	lachs	hering	beethoven	makrele	beethoven	forelle	20	1	1	1	1	MEDIZIN
FAUST_1[2014-06]	21	3	1	4	1	2	2	2	2	1	883	1	1	1	578	4	1687	ENGLAND	italien	dänemark	quadrat	österreich	dänemark	schweiz	20	1	1	1	1	MEDIZIN
FAUST_1[2014-06]	21	3	15	4	1	1	1	3	2	1	655	2	2	1	946	4	1104	GERSTE	meile	millimeter	meter	kilometer	fühlen	meter	20	1	1	1	1	MEDIZIN
FAUST_1[2014-06]	21	3	28	4	1	2	1	3	2	1	644	1	1	1	1135	4	1128	LEINEN	pommes	pfannenwender	döner	bratwurst	pfannenwender	hamburger	20	1	1	1	1	MEDIZIN
FAUST_1[2014-06]	21	3	18	4	1	1	1	3	2	1	673	1	1	1	1568	4	1671	STUHL	jupiter	lesen	jupiter	pluto	venus	saturn	20	1	1	1	1	MEDIZIN
FAUST_1[2014-06]	21	3	25	4	1	2	1	3	2	1	581	1	1	1	1586	4	811	AUSTRALIEN	stunde	sekunde	foxtrott	tag	minute	foxtrott	20	1	1	1	1	MEDIZIN
FAUST_1[2014-06]	21	3	26	4	1	1	1	3	2	1	601	2	2	1	812	4	1145	MARK	opium	nelke	lilie	veilchen	rose	nelke	20	1	1	1	1	MEDIZIN
FAUST_1[2014-06]	21	3	16	4	1	2	1	3	2	1	823	1	1	1	1058	4	962	WERWOLF	blockhaus	mutter	tochter	blockhaus	onkel	vater	20	1	1	1	1	MEDIZIN
FAUST_1[2014-06]	21	3	20	4	1	1	1	3	2	1	772	2	2	1	637	4	862	RICHTER	röteln	windpocken	grippe	brandenburg	röteln	masern	20	1	1	1	1	MEDIZIN
FAUST_1[2014-06]	21	3	17	4	1	2	1	3	2	1	600	2	2	1	1107	4	981	STUTTGART	kopf	nomen	verb	kopf	adverb	adjektiv	20	1	1	1	1	MEDIZIN
FAUST_1[2014-06]	21	4	32	4	3	1	1	1	2	0	1164	2	2	1	1461	3	1135	camera_9.bmp	chair_2.bmp	camera_9.bmp	chair_2.bmp	chair_11.bmp	chair_16.bmp	chair_3.bmp	20	1	1	1	1	MEDIZIN
FAUST_1[2014-06]	21	4	16	4	3	2	1	1	1	1	697	2	2	1	1606	4	1228	easteregg_17.bmp	backpack_10.bmp	easteregg_17.bmp	backpack_12.bmp	backpack_16.bmp	backpack_6.bmp	easteregg_17.bmp	20	1	1	1	1	MEDIZIN
FAUST_1[2014-06]	21	4	14	4	3	1	2	1	1	1	1960	2	2	1	774	3	1143	ring_11.bmp	ring_11.bmp	ring_15.bmp	remote_13.bmp	ring_7.bmp	remote_13.bmp	ring_12.bmp	20	1	1	1	1	MEDIZIN
FAUST_1[2014-06]	21	4	27	4	3	2	2	1	1	1	1054	2	2	1	1433	4	1160	pasta_15.bmp	pasta_11.bmp	pasta_10.bmp	pasta_15.bmp	pasta_9.bmp	beanbagchair_12.bmp	pasta_15.bmp	20	1	1	1	1	MEDIZIN
FAUST_1[2014-06]	21	4	19	4	3	1	1	1	1	1	1221	2	2	1	1254	3	830	speaker_10.bmp	speaker_10.bmp	coffee_15.bmp	coffee_14.bmp	coffee_2.bmp	coffee_7.bmp	coffee_14.bmp	20	1	1	1	1	MEDIZIN
FAUST_1[2014-06]	21	4	29	4	3	2	1	1	1	1	875	2	2	1	1450	4	1024	hammer_6.bmp	tricycle_8.bmp	tricycle_5.bmp	hammer_6.bmp	tricycle_10.bmp	hammer_6.bmp	tricycle_15.bmp	20	1	1	1	1	MEDIZIN
FAUST_1[2014-06]	21	4	21	4	3	1	2	1	1	1	1211	2	2	1	1461	3	1351	lawnmower_15.bmp	lawnmower_15.bmp	iceskates_16.bmp	lawnmower_17.bmp	lawnmower_3.bmp	iceskates_16.bmp	lawnmower_8.bmp	20	1	1	1	1	MEDIZIN
FAUST_1[2014-06]	21	4	11	4	3	2	2	1	1	1	2558	2	2	1	1025	4	1108	jacket_13.bmp	jacket_7.bmp	jacket_13.bmp	jacket_10.bmp	guitar_7.bmp	jacket_11.bmp	jacket_13.bmp	20	1	1	1	1	MEDIZIN
FAUST_1[2014-06]	21	4	17	4	3	1	1	1	2	0	1315	1	1	1	659	2	1025	scooter_11.bmp	powerstrip_14.bmp	powerstrip_10.bmp	scooter_11.bmp	powerstrip_8.bmp	powerstrip_13.bmp	powerstrip_8.bmp	20	1	1	1	1	MEDIZIN
FAUST_1[2014-06]	21	4	28	4	3	2	1	1	1	1	953	2	2	1	1265	4	938	parfait_4.bmp	parfait_4.bmp	cherubstatue_11.bmp	cherubstatue_10.bmp	cherubstatue_12.bmp	parfait_4.bmp	cherubstatue_5.bmp	20	1	1	1	1	MEDIZIN
FAUST_1[2014-06]	21	4	30	4	3	1	2	1	1	1	3192	2	2	1	1678	1	1032	videogamecontroller_5.bmp	videogamecontroller_2.bmp	videogamecontroller_3.bmp	router_5.bmp	videogamecontroller_11.bmp	videogamecontroller_5.bmp	router_5.bmp	20	1	1	1	1	MEDIZIN
FAUST_1[2014-06]	21	4	23	4	3	2	2	1	1	1	1193	2	2	1	1314	4	1156	turtle_11.bmp	turtle_6.bmp	turtle_11.bmp	turtle_2.bmp	turtle_12.bmp	cake_1.bmp	turtle_11.bmp	20	1	1	1	1	MEDIZIN
FAUST_1[2014-06]	21	4	3	4	3	1	1	2	2	1	1061	2	2	1	2435	4	901	doorknob_14.bmp	saddle_4.bmp	saddle_15.bmp	saddle_4.bmp	doorknob_17.bmp	saddle_8.bmp	saddle_5.bmp	20	1	1	1	1	MEDIZIN
FAUST_1[2014-06]	21	4	24	4	3	2	1	2	2	1	869	1	1	1	583	4	1191	plant_5.bmp	watch_6.bmp	plant_8.bmp	watch_8.bmp	watch_3.bmp	watch_14.bmp	plant_8.bmp	20	1	1	1	1	MEDIZIN
FAUST_1[2014-06]	21	4	18	4	3	1	2	2	2	1	1689	2	2	1	2028	3	1330	skateboard_3.bmp	printer_3.bmp	skateboard_15.bmp	skateboard_11.bmp	skateboard_14.bmp	printer_3.bmp	skateboard_16.bmp	20	1	1	1	1	MEDIZIN
FAUST_1[2014-06]	21	4	22	4	3	2	2	2	1	0	3307	2	2	1	832	2	821	rusdoll_8.bmp	rusdoll_5.bmp	bowlingpin_13.bmp	rusdoll_1.bmp	rusdoll_3.bmp	rusdoll_1.bmp	rusdoll_6.bmp	20	1	1	1	1	MEDIZIN
FAUST_1[2014-06]	21	4	8	4	3	1	1	2	2	1	1987	2	1	0	615	4	1338	hairbrush_7.bmp	hairbrush_17.bmp	mic_2.bmp	mic_5.bmp	mic_10.bmp	mic_12.bmp	mic_10.bmp	20	1	1	1	1	MEDIZIN
FAUST_1[2014-06]	21	4	25	4	3	2	1	2	2	1	822	1	1	1	863	4	949	trumpet_6.bmp	circuitboard_8.bmp	trumpet_1.bmp	circuitboard_16.bmp	circuitboard_2.bmp	circuitboard_13.bmp	trumpet_1.bmp	20	1	1	1	1	MEDIZIN
FAUST_1[2014-06]	21	4	13	4	3	1	2	2	2	1	1223	1	1	1	600	3	1745	babycrib_9.bmp	orifan_7.bmp	babycrib_5.bmp	babycrib_7.bmp	babycrib_6.bmp	babycrib_2.bmp	orifan_7.bmp	20	1	1	1	1	MEDIZIN
FAUST_1[2014-06]	21	4	9	4	3	2	2	2	1	0	1884	2	2	1	970	2	976	glove_15.bmp	glove_8.bmp	glove_12.bmp	watergun_9.bmp	glove_10.bmp	glove_12.bmp	glove_5.bmp	20	1	1	1	1	MEDIZIN
FAUST_1[2014-06]	21	4	4	4	3	1	1	2	2	1	757	1	1	1	1256	4	1390	flashlight_2.bmp	flashlight_1.bmp	garbagecan_8.bmp	garbagecan_13.bmp	garbagecan_10.bmp	garbagecan_17.bmp	garbagecan_8.bmp	20	1	1	1	1	MEDIZIN
FAUST_1[2014-06]	21	4	7	4	3	2	1	2	2	1	688	2	2	1	962	4	1560	fan_10.bmp	bagel_10.bmp	bagel_12.bmp	fan_15.bmp	bagel_14.bmp	bagel_4.bmp	fan_15.bmp	20	1	1	1	1	MEDIZIN
FAUST_1[2014-06]	21	4	1	4	3	1	2	2	2	1	3434	1	1	1	1314	3	1211	doorknocker_14.bmp	doorknocker_5.bmp	doorknocker_2.bmp	doorknocker_4.bmp	shredder_6.bmp	doorknocker_11.bmp	shredder_6.bmp	20	1	1	1	1	MEDIZIN
FAUST_1[2014-06]	21	4	15	4	3	2	2	2	2	1	800	1	1	1	1499	4	1060	rollerskates_5.bmp	glasses_8.bmp	rollerskates_8.bmp	rollerskates_17.bmp	rollerskates_7.bmp	rollerskates_2.bmp	rollerskates_17.bmp	20	1	1	1	1	MEDIZIN
FAUST_1[2014-06]	21	4	26	4	3	1	1	3	2	1	810	1	1	1	637	4	1328	birdhouse_14.bmp	highchair_6.bmp	highchair_4.bmp	highchair_6.bmp	highchair_3.bmp	highchair_10.bmp	goggle_3.bmp	20	1	1	1	1	MEDIZIN
FAUST_1[2014-06]	21	4	6	4	3	2	1	3	2	1	641	2	2	1	761	4	1172	sofa_3.bmp	horseshoe_12.bmp	shoe_17.bmp	shoe_13.bmp	shoe_7.bmp	shoe_15.bmp	horseshoe_12.bmp	20	1	1	1	1	MEDIZIN
FAUST_1[2014-06]	21	4	20	4	3	1	1	3	2	1	656	2	2	1	682	4	1405	vase_13.bmp	carriage_3.bmp	carriage_2.bmp	cat_5.bmp	carriage_9.bmp	carriage_14.bmp	carriage_9.bmp	20	1	1	1	1	MEDIZIN
FAUST_1[2014-06]	21	4	2	4	3	2	1	3	2	1	1180	2	2	1	810	4	1056	abacus_2.bmp	leatherman_7.bmp	wig_7.bmp	wig_12.bmp	leatherman_7.bmp	wig_1.bmp	wig_6.bmp	20	1	1	1	1	MEDIZIN
FAUST_1[2014-06]	21	4	31	4	3	1	1	3	2	1	828	1	1	1	659	4	889	sink_10.bmp	carabiner_9.bmp	carabiner_6.bmp	carabiner_5.bmp	carabiner_2.bmp	carabiner_6.bmp	trophy_6.bmp	20	1	1	1	1	MEDIZIN
FAUST_1[2014-06]	21	4	12	4	3	2	1	3	2	1	800	2	2	1	1180	4	995	cellphone_3.bmp	laptop_16.bmp	cheesegrater_8.bmp	laptop_10.bmp	laptop_15.bmp	cheesegrater_8.bmp	laptop_7.bmp	20	1	1	1	1	MEDIZIN
FAUST_1[2014-06]	21	4	10	4	3	1	1	3	2	1	937	1	1	1	800	4	1352	saltpeppershake_17.bmp	windchime_16.bmp	windchime_15.bmp	windchime_10.bmp	windchime_16.bmp	windchime_6.bmp	trunk_5.bmp	20	1	1	1	1	MEDIZIN
FAUST_1[2014-06]	21	4	5	4	3	2	1	3	2	1	659	1	1	1	1308	4	1321	tv_7.bmp	socks_4.bmp	hairdryer_13.bmp	socks_4.bmp	hairdryer_14.bmp	hairdryer_7.bmp	hairdryer_2.bmp	20	1	1	1	1	MEDIZIN
