experiment	subject	block	trial	order	material	repeated	related	probetype	response	correct	rt	math_response	math_correctresponse	math_correct	math_rt	confidence	confidence_rt	probe	item1	item2	item3	item4	item5	item6	age	sex	handedness	color_vision	mother_tongue	occupation
FAUST_1[2014-06]	23	1	30	6	3	1	1	1	1	1	1469	1	1	1	1584	4	2284	shredder_1.bmp	shredder_1.bmp	watch_3.bmp	watch_6.bmp	watch_7.bmp	watch_8.bmp	watch_6.bmp	27	1	1	1	1	PSYCHOLOGIE
FAUST_1[2014-06]	23	1	28	6	3	2	1	1	1	1	3103	1	1	1	2126	4	2000	highchair_3.bmp	trunk_2.bmp	highchair_3.bmp	trunk_7.bmp	trunk_1.bmp	highchair_3.bmp	trunk_5.bmp	27	1	1	1	1	PSYCHOLOGIE
FAUST_1[2014-06]	23	1	5	6	3	1	2	1	1	1	2164	2	1	0	3244	4	3277	camera_6.bmp	camera_7.bmp	pasta_9.bmp	camera_6.bmp	camera_4.bmp	camera_9.bmp	pasta_9.bmp	27	1	1	1	1	PSYCHOLOGIE
FAUST_1[2014-06]	23	1	21	6	3	2	2	1	1	1	1735	-1	1	0	0	4	2553	vase_5.bmp	rusdoll_5.bmp	vase_5.bmp	vase_13.bmp	vase_15.bmp	vase_5.bmp	vase_1.bmp	27	1	1	1	1	PSYCHOLOGIE
FAUST_1[2014-06]	23	1	18	6	3	1	1	1	2	0	3233	2	1	0	2743	2	2044	printer_1.bmp	printer_1.bmp	cheesegrater_5.bmp	cheesegrater_11.bmp	cheesegrater_15.bmp	cheesegrater_8.bmp	cheesegrater_11.bmp	27	1	1	1	1	PSYCHOLOGIE
FAUST_1[2014-06]	23	1	3	6	3	2	1	1	2	0	4337	-1	2	0	0	3	2270	abacus_7.bmp	abacus_7.bmp	backpack_12.bmp	backpack_10.bmp	backpack_13.bmp	abacus_7.bmp	backpack_16.bmp	27	1	1	1	1	PSYCHOLOGIE
FAUST_1[2014-06]	23	1	31	6	3	1	2	1	1	1	1247	2	2	1	1739	3	2126	bagel_12.bmp	beanbagchair_17.bmp	bagel_12.bmp	bagel_14.bmp	bagel_10.bmp	beanbagchair_17.bmp	bagel_4.bmp	27	1	1	1	1	PSYCHOLOGIE
FAUST_1[2014-06]	23	1	10	6	3	2	2	1	1	1	2680	1	2	0	3486	4	1731	sink_10.bmp	sink_10.bmp	sink_6.bmp	sink_1.bmp	birdhouse_6.bmp	sink_10.bmp	sink_11.bmp	27	1	1	1	1	PSYCHOLOGIE
FAUST_1[2014-06]	23	1	27	6	3	1	1	1	1	1	1678	2	2	1	2251	4	1908	carriage_3.bmp	videogamecontroller_3.bmp	carriage_3.bmp	videogamecontroller_11.bmp	videogamecontroller_5.bmp	videogamecontroller_13.bmp	videogamecontroller_3.bmp	27	1	1	1	1	PSYCHOLOGIE
FAUST_1[2014-06]	23	1	16	6	3	2	1	1	1	1	1201	2	2	1	2241	4	1612	easteregg_5.bmp	sofa_3.bmp	easteregg_5.bmp	sofa_12.bmp	sofa_6.bmp	easteregg_5.bmp	sofa_13.bmp	27	1	1	1	1	PSYCHOLOGIE
FAUST_1[2014-06]	23	1	29	6	3	1	2	1	1	1	1813	1	1	1	1646	4	1717	wig_9.bmp	cake_3.bmp	wig_1.bmp	wig_12.bmp	wig_9.bmp	wig_6.bmp	cake_3.bmp	27	1	1	1	1	PSYCHOLOGIE
FAUST_1[2014-06]	23	1	24	6	3	2	2	1	1	1	2087	2	2	1	2685	3	1740	speaker_4.bmp	speaker_6.bmp	speaker_4.bmp	goggle_13.bmp	speaker_4.bmp	speaker_15.bmp	speaker_17.bmp	27	1	1	1	1	PSYCHOLOGIE
FAUST_1[2014-06]	23	1	19	6	3	1	1	2	1	0	1944	1	1	1	3027	2	1409	glasses_13.bmp	ring_8.bmp	ring_11.bmp	glasses_15.bmp	ring_15.bmp	ring_7.bmp	ring_8.bmp	27	1	1	1	1	PSYCHOLOGIE
FAUST_1[2014-06]	23	1	25	6	3	2	1	2	1	0	2610	-1	1	0	0	2	1769	doorknocker_4.bmp	watergun_3.bmp	watergun_9.bmp	watergun_7.bmp	doorknocker_5.bmp	watergun_15.bmp	doorknocker_5.bmp	27	1	1	1	1	PSYCHOLOGIE
FAUST_1[2014-06]	23	1	14	6	3	1	2	2	1	0	4306	2	1	0	2582	3	2556	hairbrush_16.bmp	hairbrush_12.bmp	hairbrush_7.bmp	scooter_4.bmp	hairbrush_15.bmp	scooter_4.bmp	hairbrush_17.bmp	27	1	1	1	1	PSYCHOLOGIE
FAUST_1[2014-06]	23	1	2	6	3	2	2	2	2	1	3426	2	1	0	3310	3	2200	powerstrip_8.bmp	powerstrip_7.bmp	rollerskates_7.bmp	powerstrip_13.bmp	powerstrip_14.bmp	powerstrip_10.bmp	powerstrip_14.bmp	27	1	1	1	1	PSYCHOLOGIE
FAUST_1[2014-06]	23	1	4	6	3	1	1	2	2	1	5648	-1	2	0	0	3	2248	carabiner_7.bmp	cat_9.bmp	cat_1.bmp	cat_10.bmp	carabiner_9.bmp	cat_5.bmp	cat_1.bmp	27	1	1	1	1	PSYCHOLOGIE
FAUST_1[2014-06]	23	1	26	6	3	2	1	2	2	1	3089	2	1	0	2675	2	1901	tricycle_8.bmp	mic_2.bmp	mic_3.bmp	tricycle_2.bmp	mic_10.bmp	mic_5.bmp	tricycle_2.bmp	27	1	1	1	1	PSYCHOLOGIE
FAUST_1[2014-06]	23	1	17	6	3	1	2	2	1	0	5393	2	2	1	1518	3	1586	saltpeppershake_12.bmp	saltpeppershake_2.bmp	saltpeppershake_9.bmp	tv_5.bmp	saltpeppershake_8.bmp	saltpeppershake_17.bmp	tv_5.bmp	27	1	1	1	1	PSYCHOLOGIE
FAUST_1[2014-06]	23	1	9	6	3	2	2	2	1	0	1517	1	1	1	2158	4	2555	circuitboard_13.bmp	circuitboard_16.bmp	circuitboard_2.bmp	circuitboard_4.bmp	circuitboard_8.bmp	babycrib_2.bmp	circuitboard_8.bmp	27	1	1	1	1	PSYCHOLOGIE
FAUST_1[2014-06]	23	1	7	6	3	1	1	2	2	1	3955	-1	2	0	0	3	2089	cellphone_12.bmp	cellphone_3.bmp	skateboard_16.bmp	skateboard_3.bmp	skateboard_11.bmp	skateboard_15.bmp	skateboard_16.bmp	27	1	1	1	1	PSYCHOLOGIE
FAUST_1[2014-06]	23	1	22	6	3	2	1	2	1	0	1461	2	2	1	3400	3	2221	shoe_9.bmp	doorknob_10.bmp	doorknob_2.bmp	shoe_17.bmp	doorknob_17.bmp	shoe_17.bmp	doorknob_14.bmp	27	1	1	1	1	PSYCHOLOGIE
FAUST_1[2014-06]	23	1	32	6	3	1	2	2	1	0	1640	1	1	1	3371	3	1884	orifan_14.bmp	orifan_17.bmp	orifan_7.bmp	leatherman_5.bmp	orifan_1.bmp	orifan_6.bmp	leatherman_5.bmp	27	1	1	1	1	PSYCHOLOGIE
FAUST_1[2014-06]	23	1	11	6	3	2	2	2	2	1	2157	1	1	1	1735	2	2527	cherubstatue_11.bmp	cherubstatue_6.bmp	cherubstatue_12.bmp	cherubstatue_5.bmp	cherubstatue_10.bmp	socks_4.bmp	cherubstatue_5.bmp	27	1	1	1	1	PSYCHOLOGIE
FAUST_1[2014-06]	23	1	20	6	3	1	1	3	2	1	1507	2	2	1	2824	3	1614	laptop_10.bmp	parfait_1.bmp	parfait_4.bmp	parfait_11.bmp	parfait_13.bmp	coffee_15.bmp	parfait_11.bmp	27	1	1	1	1	PSYCHOLOGIE
FAUST_1[2014-06]	23	1	1	6	3	2	1	3	2	1	2935	1	1	1	2682	3	4559	guitar_5.bmp	hammer_17.bmp	glove_5.bmp	hammer_8.bmp	hammer_6.bmp	hammer_11.bmp	glove_5.bmp	27	1	1	1	1	PSYCHOLOGIE
FAUST_1[2014-06]	23	1	6	6	3	1	1	3	2	1	1948	2	2	1	2898	4	3769	garbagecan_2.bmp	chair_16.bmp	plant_5.bmp	plant_14.bmp	plant_8.bmp	plant_2.bmp	plant_14.bmp	27	1	1	1	1	PSYCHOLOGIE
FAUST_1[2014-06]	23	1	8	6	3	2	1	3	2	1	1923	1	1	1	2168	4	1707	turtle_12.bmp	windchime_6.bmp	windchime_16.bmp	flashlight_13.bmp	windchime_10.bmp	windchime_3.bmp	flashlight_13.bmp	27	1	1	1	1	PSYCHOLOGIE
FAUST_1[2014-06]	23	1	12	6	3	1	1	3	2	1	3280	1	1	1	2176	2	2162	remote_11.bmp	jacket_10.bmp	jacket_7.bmp	jacket_11.bmp	iceskates_5.bmp	jacket_7.bmp	jacket_13.bmp	27	1	1	1	1	PSYCHOLOGIE
FAUST_1[2014-06]	23	1	13	6	3	2	1	3	2	1	1923	2	2	1	2194	3	2775	horseshoe_6.bmp	trumpet_17.bmp	saddle_4.bmp	trumpet_17.bmp	saddle_8.bmp	saddle_3.bmp	saddle_15.bmp	27	1	1	1	1	PSYCHOLOGIE
FAUST_1[2014-06]	23	1	23	6	3	1	1	3	2	1	2157	2	2	1	2099	3	1935	lawnmower_15.bmp	trophy_15.bmp	trophy_16.bmp	trophy_15.bmp	trophy_6.bmp	trophy_4.bmp	fan_11.bmp	27	1	1	1	1	PSYCHOLOGIE
FAUST_1[2014-06]	23	1	15	6	3	2	1	3	1	0	2170	2	2	1	2986	2	2427	hairdryer_2.bmp	router_12.bmp	router_6.bmp	bowlingpin_3.bmp	router_16.bmp	bowlingpin_3.bmp	router_5.bmp	27	1	1	1	1	PSYCHOLOGIE
FAUST_1[2014-06]	23	2	17	6	1	1	1	1	1	1	1165	2	2	1	2021	3	1735	WESTERN	pistole	gewehr	western	schwert	pistole	bombe	27	1	1	1	1	PSYCHOLOGIE
FAUST_1[2014-06]	23	2	28	6	1	2	1	1	1	1	1185	2	2	1	2128	4	1473	RUMBA	rumba	zirkus	rumba	kino	konzertsaal	theater	27	1	1	1	1	PSYCHOLOGIE
FAUST_1[2014-06]	23	2	20	6	1	1	2	1	1	1	5531	-1	1	0	0	1	1494	AFRIKA	hafer	nordamerika	afrika	australien	hafer	asien	27	1	1	1	1	PSYCHOLOGIE
FAUST_1[2014-06]	23	2	32	6	1	2	2	1	1	1	3262	2	1	0	2728	4	1266	KUPPLUNG	kupplung	lenkrad	rückspiegel	gaspedal	lakritz	kupplung	27	1	1	1	1	PSYCHOLOGIE
FAUST_1[2014-06]	23	2	10	6	1	1	1	1	2	0	56	1	2	0	3080	1	12912	BERUFSSCHULE	könig	graf	kaiser	herzog	berufsschule	kaiser	27	1	1	1	1	PSYCHOLOGIE
FAUST_1[2014-06]	23	2	8	6	1	2	1	1	1	1	1253	1	1	1	1942	4	1372	MASERN	schuppen	masern	blockhaus	scheune	hütte	masern	27	1	1	1	1	PSYCHOLOGIE
FAUST_1[2014-06]	23	2	16	6	1	1	2	1	1	1	1563	1	1	1	1765	4	1828	ROSMARIN	rosmarin	koriander	bluse	oregano	bluse	thymian	27	1	1	1	1	PSYCHOLOGIE
FAUST_1[2014-06]	23	2	27	6	1	2	2	1	1	1	1381	2	2	1	1872	4	1784	BENZIN	bleifrei	benzin	diesel	kerosin	benzin	pfennig	27	1	1	1	1	PSYCHOLOGIE
FAUST_1[2014-06]	23	2	15	6	1	1	1	1	1	1	1967	-1	2	0	0	3	1832	REGEN	golf	tennis	schwimmen	skifahren	regen	golf	27	1	1	1	1	PSYCHOLOGIE
FAUST_1[2014-06]	23	2	18	6	1	2	1	1	1	1	1640	1	1	1	1237	3	2060	KAJAL	kajal	backblech	kajal	küchenwaage	pfannenwender	backform	27	1	1	1	1	PSYCHOLOGIE
FAUST_1[2014-06]	23	2	12	6	1	1	2	1	1	1	1780	1	1	1	2964	4	1619	VOLVO	volvo	peugeot	mercedes	halma	audi	halma	27	1	1	1	1	PSYCHOLOGIE
FAUST_1[2014-06]	23	2	31	6	1	2	2	1	1	1	1336	1	1	1	2269	4	1502	DÄNEMARK	jungfrau	italien	dänemark	england	schweiz	dänemark	27	1	1	1	1	PSYCHOLOGIE
FAUST_1[2014-06]	23	2	26	6	1	1	1	2	2	1	6613	1	2	0	1843	2	1429	MESSER	werwolf	hexe	löffel	vampir	hexe	zombie	27	1	1	1	1	PSYCHOLOGIE
FAUST_1[2014-06]	23	2	4	6	1	2	1	2	2	1	2229	2	1	0	2966	4	2247	KANU	fähre	mathematik	biologie	chemie	physik	fähre	27	1	1	1	1	PSYCHOLOGIE
FAUST_1[2014-06]	23	2	22	6	1	1	2	2	2	1	4674	2	2	1	1815	1	2363	DREIECK	glas	rechteck	kreis	quadrat	glas	viereck	27	1	1	1	1	PSYCHOLOGIE
FAUST_1[2014-06]	23	2	19	6	1	2	2	2	2	1	6464	-1	1	0	0	1	2338	SYNAGOGE	kirche	moschee	kapelle	tempel	moschee	saturn	27	1	1	1	1	PSYCHOLOGIE
FAUST_1[2014-06]	23	2	5	6	1	1	1	2	2	1	1217	2	2	1	3399	3	1521	MAGEN	hand	arm	herz	bein	arm	fuß	27	1	1	1	1	PSYCHOLOGIE
FAUST_1[2014-06]	23	2	9	6	1	2	1	2	1	0	1258	1	1	1	1634	2	1401	SEE	ozean	terrier	mops	schäferhund	dogge	ozean	27	1	1	1	1	PSYCHOLOGIE
FAUST_1[2014-06]	23	2	29	6	1	1	2	2	2	1	4253	2	1	0	2741	2	1837	PFLAUME	chopin	erdbeere	apfel	chopin	banane	birne	27	1	1	1	1	PSYCHOLOGIE
FAUST_1[2014-06]	23	2	23	6	1	2	2	2	2	1	2864	2	2	1	2004	2	2035	TAXI	flöte	bus	straßenbahn	zug	straßenbahn	fahrrad	27	1	1	1	1	PSYCHOLOGIE
FAUST_1[2014-06]	23	2	1	6	1	1	1	2	2	1	1353	1	1	1	2254	4	3077	MÜCKE	münchen	stuttgart	hannover	berlin	ameise	münchen	27	1	1	1	1	PSYCHOLOGIE
FAUST_1[2014-06]	23	2	13	6	1	2	1	2	1	0	1764	1	1	1	1962	3	1795	BRANDENBURG	saarland	buche	weide	birke	tanne	saarland	27	1	1	1	1	PSYCHOLOGIE
FAUST_1[2014-06]	23	2	14	6	1	1	2	2	2	1	2250	1	1	1	1591	3	2122	ARZT	lehrer	hören	pfarrer	polizist	hören	richter	27	1	1	1	1	PSYCHOLOGIE
FAUST_1[2014-06]	23	2	21	6	1	2	2	2	2	1	3271	-1	2	0	0	3	1838	STUNDE	jahr	tag	minute	stickstoff	sekunde	jahr	27	1	1	1	1	PSYCHOLOGIE
FAUST_1[2014-06]	23	2	6	6	1	1	1	3	2	1	1157	1	1	1	1661	4	1573	VEILCHEN	main	nomen	elbe	main	weser	donau	27	1	1	1	1	PSYCHOLOGIE
FAUST_1[2014-06]	23	2	24	6	1	2	1	3	2	1	1481	2	2	1	2756	3	2841	LACHS	spinat	mutter	onkel	tochter	vater	spinat	27	1	1	1	1	PSYCHOLOGIE
FAUST_1[2014-06]	23	2	3	6	1	1	1	3	2	1	2010	1	1	1	2871	3	1926	MOBILTELEFON	messing	silber	eisen	tequila	silber	gold	27	1	1	1	1	PSYCHOLOGIE
FAUST_1[2014-06]	23	2	30	6	1	2	1	3	2	1	1661	2	2	1	1893	3	2134	REGAL	buch	meise	fernsehen	zeitung	radio	meise	27	1	1	1	1	PSYCHOLOGIE
FAUST_1[2014-06]	23	2	25	6	1	1	1	3	2	1	1315	2	2	1	1773	4	1389	BLEISTIFT	trauer	schreiben	trauer	angst	freude	scham	27	1	1	1	1	PSYCHOLOGIE
FAUST_1[2014-06]	23	2	7	6	1	2	1	3	2	1	1625	1	1	1	1979	3	1790	ROT	meile	zentimeter	meißel	meter	kilometer	meißel	27	1	1	1	1	PSYCHOLOGIE
FAUST_1[2014-06]	23	2	2	6	1	1	1	3	2	1	3350	2	1	0	1919	4	2916	HÄKELNADEL	baumwolle	seide	pizza	baumwolle	leinen	wolle	27	1	1	1	1	PSYCHOLOGIE
FAUST_1[2014-06]	23	2	11	6	1	2	1	3	1	0	3717	1	1	1	1659	1	2249	GEPARD	heroin	lineal	haschisch	lineal	kokain	opium	27	1	1	1	1	PSYCHOLOGIE
FAUST_1[2014-06]	23	3	17	6	2	1	1	1	1	1	1051	2	2	1	2407	4	1242	Hand17.bmp	Scissors11.bmp	Scissors23.bmp	Scissors11.bmp	Scissors14.bmp	Scissors1.bmp	Hand17.bmp	27	1	1	1	1	PSYCHOLOGIE
FAUST_1[2014-06]	23	3	16	6	2	2	1	1	1	1	2068	2	2	1	2786	4	1366	Hanger7.bmp	Stapler9.bmp	Stapler7.bmp	Stapler6.bmp	Hanger7.bmp	Stapler10.bmp	Hanger7.bmp	27	1	1	1	1	PSYCHOLOGIE
FAUST_1[2014-06]	23	3	2	6	2	1	2	1	1	1	1308	1	1	1	1551	3	1749	Chilli14.bmp	Chilli11.bmp	Chilli22.bmp	Chocolate9.bmp	Chilli12.bmp	Chilli14.bmp	Chocolate9.bmp	27	1	1	1	1	PSYCHOLOGIE
FAUST_1[2014-06]	23	3	7	6	2	2	2	1	1	1	1491	2	2	1	1572	4	1185	Strawberry3.bmp	Strawberry4.bmp	Strawberry3.bmp	Present9.bmp	Strawberry21.bmp	Strawberry3.bmp	Strawberry18.bmp	27	1	1	1	1	PSYCHOLOGIE
FAUST_1[2014-06]	23	3	4	6	2	1	1	1	1	1	1960	1	1	1	2105	4	1231	Umbrella6.bmp	Apple10.bmp	Apple5.bmp	Apple24.bmp	Umbrella6.bmp	Apple21.bmp	Apple24.bmp	27	1	1	1	1	PSYCHOLOGIE
FAUST_1[2014-06]	23	3	18	6	2	2	1	1	1	1	1268	2	2	1	1304	4	936	Glass4.bmp	Leaf13.bmp	Glass4.bmp	Leaf22.bmp	Leaf15.bmp	Glass4.bmp	Leaf21.bmp	27	1	1	1	1	PSYCHOLOGIE
FAUST_1[2014-06]	23	3	3	6	2	1	2	1	1	1	1212	1	1	1	1858	4	1603	Coins12.bmp	Fudge5.bmp	Coins12.bmp	Fudge5.bmp	Coins10.bmp	Coins3.bmp	Coins14.bmp	27	1	1	1	1	PSYCHOLOGIE
FAUST_1[2014-06]	23	3	20	6	2	2	2	1	1	1	1675	2	1	0	2116	4	970	Star19.bmp	Star19.bmp	Star2.bmp	Star19.bmp	Star17.bmp	Star1.bmp	Screw16.bmp	27	1	1	1	1	PSYCHOLOGIE
FAUST_1[2014-06]	23	3	5	6	2	1	1	2	1	0	1129	1	1	1	2087	4	2389	Holly3.bmp	Holly17.bmp	Mushroom7.bmp	Mushroom25.bmp	Mushroom7.bmp	Mushroom18.bmp	Mushroom14.bmp	27	1	1	1	1	PSYCHOLOGIE
FAUST_1[2014-06]	23	3	1	6	2	2	1	2	2	1	2162	2	2	1	2170	4	1371	Swirl1.bmp	Candle1.bmp	Candle17.bmp	Candle20.bmp	Swirl13.bmp	Candle13.bmp	Swirl13.bmp	27	1	1	1	1	PSYCHOLOGIE
FAUST_1[2014-06]	23	3	6	6	2	1	2	2	1	0	950	2	2	1	1641	4	1018	Ginger5.bmp	Ginger3.bmp	Bun17.bmp	Ginger10.bmp	Ginger17.bmp	Bun17.bmp	Ginger15.bmp	27	1	1	1	1	PSYCHOLOGIE
FAUST_1[2014-06]	23	3	15	6	2	2	2	2	1	0	3385	-1	1	0	0	1	1807	Pen10.bmp	Pen17.bmp	Biscuit9.bmp	Pen5.bmp	Pen20.bmp	Pen1.bmp	Pen5.bmp	27	1	1	1	1	PSYCHOLOGIE
FAUST_1[2014-06]	23	3	9	6	2	1	1	2	1	0	3016	-1	2	0	0	1	2304	Toothbrush1.bmp	Paperclip9.bmp	Toothbrush10.bmp	Paperclip9.bmp	Paperclip6.bmp	Paperclip4.bmp	Paperclip13.bmp	27	1	1	1	1	PSYCHOLOGIE
FAUST_1[2014-06]	23	3	22	6	2	2	1	2	2	1	2265	2	1	0	2705	2	1867	Brocolli19.bmp	Flower3.bmp	Brocolli4.bmp	Flower13.bmp	Flower18.bmp	Brocolli4.bmp	Flower14.bmp	27	1	1	1	1	PSYCHOLOGIE
FAUST_1[2014-06]	23	3	14	6	2	1	2	2	1	0	1404	2	2	1	2697	3	2348	Man10.bmp	Man15.bmp	Man2.bmp	Man24.bmp	Bag3.bmp	Man4.bmp	Bag3.bmp	27	1	1	1	1	PSYCHOLOGIE
FAUST_1[2014-06]	23	3	10	6	2	2	2	2	1	0	4176	-1	1	0	0	1	1395	Bracelet8.bmp	Keys8.bmp	Bracelet5.bmp	Bracelet18.bmp	Bracelet2.bmp	Bracelet1.bmp	Bracelet5.bmp	27	1	1	1	1	PSYCHOLOGIE
FAUST_1[2014-06]	23	3	12	6	2	1	1	3	2	1	2059	2	2	1	2895	4	1793	Tomato18.bmp	Lipstick7.bmp	Onion7.bmp	Onion13.bmp	Onion18.bmp	Onion14.bmp	Onion7.bmp	27	1	1	1	1	PSYCHOLOGIE
FAUST_1[2014-06]	23	3	19	6	2	2	1	3	2	1	2045	1	1	1	2591	4	1707	Nut21.bmp	Plug6.bmp	Button14.bmp	Button3.bmp	Plug6.bmp	Button10.bmp	Button20.bmp	27	1	1	1	1	PSYCHOLOGIE
FAUST_1[2014-06]	23	3	8	6	2	1	1	3	2	1	2489	1	2	0	1852	4	1336	Fork7.bmp	String12.bmp	String8.bmp	String9.bmp	String2.bmp	Varnish5.bmp	String12.bmp	27	1	1	1	1	PSYCHOLOGIE
FAUST_1[2014-06]	23	3	11	6	2	2	1	3	2	1	2005	-1	1	0	0	3	2326	Car13.bmp	Jigsaw11.bmp	Jigsaw14.bmp	Sweet1.bmp	Jigsaw18.bmp	Sweet1.bmp	Jigsaw17.bmp	27	1	1	1	1	PSYCHOLOGIE
FAUST_1[2014-06]	23	3	21	6	2	1	1	3	2	1	1118	2	2	1	2205	4	1146	Cake24.bmp	Feather11.bmp	Feather18.bmp	Feather14.bmp	Feather11.bmp	Feather2.bmp	Daff1.bmp	27	1	1	1	1	PSYCHOLOGIE
FAUST_1[2014-06]	23	3	13	6	2	2	1	3	2	1	1825	2	2	1	2856	1	2294	Pear4.bmp	Shell5.bmp	Key9.bmp	Shell18.bmp	Key9.bmp	Shell1.bmp	Shell17.bmp	27	1	1	1	1	PSYCHOLOGIE
FAUST_1[2014-06]	23	2	18	6	3	1	1	1	2	0	3758	2	2	1	2213	4	1497	skateboard_15.bmp	bagel_4.bmp	bagel_12.bmp	bagel_16.bmp	bagel_12.bmp	skateboard_15.bmp	bagel_10.bmp	27	1	1	1	1	PSYCHOLOGIE
FAUST_1[2014-06]	23	2	9	6	3	2	1	1	1	1	2250	1	1	1	2939	2	1479	parfait_1.bmp	horseshoe_3.bmp	horseshoe_12.bmp	parfait_1.bmp	horseshoe_5.bmp	horseshoe_6.bmp	parfait_1.bmp	27	1	1	1	1	PSYCHOLOGIE
FAUST_1[2014-06]	23	2	12	6	3	1	2	1	1	1	1478	2	2	1	2742	3	1259	hammer_6.bmp	windchime_15.bmp	hammer_15.bmp	hammer_6.bmp	hammer_17.bmp	windchime_15.bmp	hammer_8.bmp	27	1	1	1	1	PSYCHOLOGIE
FAUST_1[2014-06]	23	2	2	6	3	2	2	1	1	1	1480	1	1	1	1978	4	1308	watch_3.bmp	carriage_14.bmp	watch_3.bmp	watch_7.bmp	watch_6.bmp	watch_3.bmp	watch_8.bmp	27	1	1	1	1	PSYCHOLOGIE
FAUST_1[2014-06]	23	2	7	6	3	1	1	1	1	1	998	2	2	1	2541	4	1119	saltpeppershake_8.bmp	garbagecan_10.bmp	garbagecan_13.bmp	garbagecan_8.bmp	garbagecan_17.bmp	saltpeppershake_8.bmp	garbagecan_17.bmp	27	1	1	1	1	PSYCHOLOGIE
FAUST_1[2014-06]	23	2	21	6	3	2	1	1	1	1	1804	-1	1	0	0	3	1139	glove_15.bmp	glove_15.bmp	rusdoll_1.bmp	glove_15.bmp	rusdoll_5.bmp	rusdoll_3.bmp	rusdoll_8.bmp	27	1	1	1	1	PSYCHOLOGIE
FAUST_1[2014-06]	23	2	1	6	3	1	2	1	2	0	4304	2	1	0	1494	2	1874	vase_6.bmp	vase_5.bmp	videogamecontroller_3.bmp	vase_1.bmp	vase_6.bmp	vase_13.bmp	videogamecontroller_3.bmp	27	1	1	1	1	PSYCHOLOGIE
FAUST_1[2014-06]	23	2	30	6	3	2	2	1	1	1	4004	1	1	1	2272	4	1989	circuitboard_4.bmp	circuitboard_8.bmp	circuitboard_4.bmp	wig_9.bmp	circuitboard_16.bmp	circuitboard_4.bmp	circuitboard_13.bmp	27	1	1	1	1	PSYCHOLOGIE
FAUST_1[2014-06]	23	2	22	6	3	1	1	1	1	1	1233	2	2	1	3143	3	1597	mic_10.bmp	lawnmower_13.bmp	lawnmower_8.bmp	lawnmower_17.bmp	mic_10.bmp	lawnmower_8.bmp	lawnmower_15.bmp	27	1	1	1	1	PSYCHOLOGIE
FAUST_1[2014-06]	23	2	8	6	3	2	1	1	1	1	2708	2	1	0	2159	4	900	flashlight_17.bmp	tricycle_15.bmp	tricycle_5.bmp	flashlight_17.bmp	tricycle_2.bmp	tricycle_10.bmp	flashlight_17.bmp	27	1	1	1	1	PSYCHOLOGIE
FAUST_1[2014-06]	23	2	17	6	3	1	2	1	1	1	2807	1	2	0	2895	3	1190	socks_12.bmp	socks_13.bmp	socks_4.bmp	cherubstatue_12.bmp	socks_12.bmp	cherubstatue_12.bmp	socks_15.bmp	27	1	1	1	1	PSYCHOLOGIE
FAUST_1[2014-06]	23	2	6	6	3	2	2	1	1	1	1604	1	1	1	3327	4	1391	saddle_3.bmp	saddle_8.bmp	saddle_3.bmp	saddle_4.bmp	cheesegrater_11.bmp	saddle_3.bmp	saddle_15.bmp	27	1	1	1	1	PSYCHOLOGIE
FAUST_1[2014-06]	23	2	23	6	3	1	1	2	1	0	1223	1	1	1	2190	4	1795	orifan_14.bmp	turtle_12.bmp	turtle_7.bmp	turtle_6.bmp	turtle_12.bmp	orifan_1.bmp	turtle_11.bmp	27	1	1	1	1	PSYCHOLOGIE
FAUST_1[2014-06]	23	2	11	6	3	2	1	2	2	1	3062	-1	1	0	0	1	1784	hairdryer_13.bmp	goggle_1.bmp	goggle_4.bmp	hairdryer_7.bmp	goggle_9.bmp	hairdryer_7.bmp	goggle_3.bmp	27	1	1	1	1	PSYCHOLOGIE
FAUST_1[2014-06]	23	2	26	6	3	1	2	2	1	0	2311	1	1	1	2968	4	1219	iceskates_9.bmp	beanbagchair_12.bmp	iceskates_5.bmp	iceskates_7.bmp	iceskates_14.bmp	iceskates_16.bmp	beanbagchair_12.bmp	27	1	1	1	1	PSYCHOLOGIE
FAUST_1[2014-06]	23	2	29	6	3	2	2	2	1	0	1756	2	2	1	1986	3	2320	remote_13.bmp	remote_3.bmp	remote_11.bmp	remote_3.bmp	remote_2.bmp	remote_14.bmp	watergun_3.bmp	27	1	1	1	1	PSYCHOLOGIE
FAUST_1[2014-06]	23	2	25	6	3	1	1	2	2	1	2856	2	1	0	2823	1	1325	fan_11.bmp	coffee_14.bmp	coffee_7.bmp	fan_17.bmp	coffee_2.bmp	coffee_15.bmp	coffee_2.bmp	27	1	1	1	1	PSYCHOLOGIE
FAUST_1[2014-06]	23	2	20	6	3	2	1	2	1	0	1423	2	2	1	2391	3	2082	scooter_8.bmp	laptop_14.bmp	laptop_10.bmp	scooter_4.bmp	laptop_15.bmp	laptop_16.bmp	scooter_4.bmp	27	1	1	1	1	PSYCHOLOGIE
FAUST_1[2014-06]	23	2	5	6	3	1	2	2	1	0	2133	1	1	1	2480	4	2226	bowlingpin_1.bmp	bowlingpin_13.bmp	bowlingpin_3.bmp	babycrib_5.bmp	bowlingpin_11.bmp	babycrib_5.bmp	bowlingpin_4.bmp	27	1	1	1	1	PSYCHOLOGIE
FAUST_1[2014-06]	23	2	19	6	3	2	2	2	2	1	2094	2	1	0	2922	3	1281	rollerskates_8.bmp	rollerskates_7.bmp	rollerskates_2.bmp	rollerskates_17.bmp	ring_7.bmp	rollerskates_5.bmp	rollerskates_7.bmp	27	1	1	1	1	PSYCHOLOGIE
FAUST_1[2014-06]	23	2	14	6	3	1	1	2	2	1	3465	-1	2	0	0	4	1511	trophy_16.bmp	cat_9.bmp	cat_5.bmp	cat_4.bmp	trophy_6.bmp	cat_5.bmp	cat_1.bmp	27	1	1	1	1	PSYCHOLOGIE
FAUST_1[2014-06]	23	2	15	6	3	2	1	2	2	1	1535	1	1	1	1776	4	1274	abacus_4.bmp	abacus_7.bmp	doorknob_14.bmp	doorknob_7.bmp	abacus_7.bmp	doorknob_2.bmp	doorknob_17.bmp	27	1	1	1	1	PSYCHOLOGIE
FAUST_1[2014-06]	23	2	31	6	3	1	2	2	1	0	1009	2	2	1	2058	4	1473	hairbrush_7.bmp	cake_14.bmp	hairbrush_12.bmp	hairbrush_15.bmp	cake_14.bmp	hairbrush_16.bmp	hairbrush_17.bmp	27	1	1	1	1	PSYCHOLOGIE
FAUST_1[2014-06]	23	2	3	6	3	2	2	2	1	0	2664	1	1	1	3287	4	1796	printer_3.bmp	printer_14.bmp	sofa_3.bmp	printer_16.bmp	printer_5.bmp	printer_1.bmp	printer_16.bmp	27	1	1	1	1	PSYCHOLOGIE
FAUST_1[2014-06]	23	2	24	6	3	1	1	3	2	1	1238	1	1	1	2547	2	1542	guitar_14.bmp	birdhouse_14.bmp	birdhouse_6.bmp	birdhouse_9.bmp	birdhouse_11.bmp	highchair_10.bmp	birdhouse_6.bmp	27	1	1	1	1	PSYCHOLOGIE
FAUST_1[2014-06]	23	2	10	6	3	2	1	3	2	1	1931	1	1	1	2897	1	1821	shoe_9.bmp	router_5.bmp	router_16.bmp	router_12.bmp	plant_2.bmp	router_7.bmp	plant_2.bmp	27	1	1	1	1	PSYCHOLOGIE
FAUST_1[2014-06]	23	2	28	6	3	1	1	3	2	1	3583	1	1	1	2673	3	2979	sink_1.bmp	camera_7.bmp	leatherman_10.bmp	camera_3.bmp	camera_6.bmp	camera_4.bmp	camera_7.bmp	27	1	1	1	1	PSYCHOLOGIE
FAUST_1[2014-06]	23	2	27	6	3	2	1	3	2	1	5428	1	1	1	2555	1	1190	doorknocker_14.bmp	shredder_7.bmp	chair_16.bmp	chair_11.bmp	chair_5.bmp	shredder_7.bmp	chair_2.bmp	27	1	1	1	1	PSYCHOLOGIE
FAUST_1[2014-06]	23	2	13	6	3	1	1	3	2	1	1730	2	2	1	2103	4	1592	jacket_7.bmp	speaker_6.bmp	speaker_15.bmp	speaker_10.bmp	speaker_17.bmp	speaker_15.bmp	tv_7.bmp	27	1	1	1	1	PSYCHOLOGIE
FAUST_1[2014-06]	23	2	32	6	3	2	1	3	2	1	1257	2	2	1	2900	3	2020	backpack_6.bmp	glasses_9.bmp	glasses_8.bmp	trumpet_6.bmp	glasses_13.bmp	glasses_15.bmp	trumpet_6.bmp	27	1	1	1	1	PSYCHOLOGIE
FAUST_1[2014-06]	23	2	4	6	3	1	1	3	1	0	1595	2	2	1	2550	3	1750	powerstrip_8.bmp	cellphone_11.bmp	pasta_15.bmp	pasta_9.bmp	pasta_11.bmp	pasta_13.bmp	pasta_15.bmp	27	1	1	1	1	PSYCHOLOGIE
FAUST_1[2014-06]	23	2	16	6	3	2	1	3	2	1	1421	2	2	1	2900	4	1039	trunk_1.bmp	carabiner_2.bmp	carabiner_5.bmp	carabiner_9.bmp	easteregg_16.bmp	carabiner_7.bmp	easteregg_16.bmp	27	1	1	1	1	PSYCHOLOGIE
FAUST_1[2014-06]	23	3	27	6	1	1	1	1	1	1	1041	1	1	1	1672	4	1150	SCHWERT	nelke	rose	veilchen	schwert	veilchen	tulpe	27	1	1	1	1	PSYCHOLOGIE
FAUST_1[2014-06]	23	3	13	6	1	2	1	1	1	1	1365	1	1	1	2079	4	1027	MERKUR	fernsehen	merkur	zeitung	radio	internet	merkur	27	1	1	1	1	PSYCHOLOGIE
FAUST_1[2014-06]	23	3	14	6	1	1	2	1	1	1	1129	2	2	1	2513	3	1420	CHOPIN	mozart	rum	chopin	beethoven	rum	brahms	27	1	1	1	1	PSYCHOLOGIE
FAUST_1[2014-06]	23	3	1	6	1	2	2	1	1	1	1562	2	2	1	2975	3	1406	FÄHRE	boot	yacht	spinat	fähre	kanu	fähre	27	1	1	1	1	PSYCHOLOGIE
FAUST_1[2014-06]	23	3	4	6	1	1	1	1	1	1	1281	1	1	1	1811	4	948	ITALIEN	meile	italien	meile	zentimeter	millimeter	kilometer	27	1	1	1	1	PSYCHOLOGIE
FAUST_1[2014-06]	23	3	31	6	1	2	1	1	1	1	1226	2	1	0	1616	3	1341	KINO	kino	donau	main	kino	elbe	weser	27	1	1	1	1	PSYCHOLOGIE
FAUST_1[2014-06]	23	3	19	6	1	1	2	1	2	0	3423	-1	1	0	0	1	1344	BUS	diesel	fahrrad	taxi	straßenbahn	bus	diesel	27	1	1	1	1	PSYCHOLOGIE
FAUST_1[2014-06]	23	3	3	6	1	2	2	1	1	1	1393	1	1	1	2227	4	1403	VOLVO	zombie	peugeot	volvo	mercedes	volvo	porsche	27	1	1	1	1	PSYCHOLOGIE
FAUST_1[2014-06]	23	3	20	6	1	1	1	1	1	1	1410	2	2	1	2194	1	1218	FLÖTE	flasche	flöte	glas	becher	glas	kanne	27	1	1	1	1	PSYCHOLOGIE
FAUST_1[2014-06]	23	3	24	6	1	2	1	1	1	1	1390	1	1	1	2009	4	1830	TEELÖFFEL	häkelnadel	stricknadel	teelöffel	stecknadel	teelöffel	sicherheitsnadel	27	1	1	1	1	PSYCHOLOGIE
FAUST_1[2014-06]	23	3	8	6	1	1	2	1	2	0	2477	1	2	0	2083	1	3021	GASPEDAL	fürst	kupplung	gaspedal	rückspiegel	fürst	lenkrad	27	1	1	1	1	PSYCHOLOGIE
FAUST_1[2014-06]	23	3	17	6	1	2	2	1	1	1	1240	1	1	1	1866	4	1143	SEIDE	baumwolle	flanell	foxtrott	seide	wolle	seide	27	1	1	1	1	PSYCHOLOGIE
FAUST_1[2014-06]	23	3	10	6	1	1	1	2	2	1	2131	2	2	1	1800	4	1276	ADVERB	minute	sekunde	stunde	adjektiv	tag	minute	27	1	1	1	1	PSYCHOLOGIE
FAUST_1[2014-06]	23	3	12	6	1	2	1	2	1	0	2155	2	2	1	1696	1	1365	HAMMER	rot	bohrer	lila	bohrer	gelb	blau	27	1	1	1	1	PSYCHOLOGIE
FAUST_1[2014-06]	23	3	9	6	1	1	2	2	2	1	2252	2	2	1	3435	2	2410	TISCH	stuhl	chemie	regal	sofa	schrank	chemie	27	1	1	1	1	PSYCHOLOGIE
FAUST_1[2014-06]	23	3	30	6	1	2	2	2	1	0	1093	2	2	1	2343	2	1680	WEIZEN	hafer	teich	roggen	gerste	dinkel	roggen	27	1	1	1	1	PSYCHOLOGIE
FAUST_1[2014-06]	23	3	21	6	1	1	1	2	2	1	1455	1	2	0	2368	4	2700	QUADRAT	berufsschule	kreis	hauptschule	gymnasium	realschule	hauptschule	27	1	1	1	1	PSYCHOLOGIE
FAUST_1[2014-06]	23	3	29	6	1	2	1	2	2	1	1383	1	2	0	2830	1	1493	JUNGFRAU	messing	steinbock	silber	eisen	bronze	steinbock	27	1	1	1	1	PSYCHOLOGIE
FAUST_1[2014-06]	23	3	23	6	1	1	2	2	2	1	1109	1	1	1	2317	4	1711	BARACKE	skifahren	blockhaus	skifahren	schuppen	hütte	scheune	27	1	1	1	1	PSYCHOLOGIE
FAUST_1[2014-06]	23	3	18	6	1	2	2	2	2	1	2166	2	2	1	2798	3	1869	RIECHEN	sehen	schmecken	sehen	hören	kirche	fühlen	27	1	1	1	1	PSYCHOLOGIE
FAUST_1[2014-06]	23	3	22	6	1	1	1	2	2	1	1024	1	1	1	1596	4	1298	PFLAUME	wespe	ameise	birne	mücke	hummel	mücke	27	1	1	1	1	PSYCHOLOGIE
FAUST_1[2014-06]	23	3	15	6	1	2	1	2	2	1	2363	-1	1	0	0	2	1820	FÜLLER	kugelschreiber	nudelholz	küchenwaage	backform	kugelschreiber	pfannenwender	27	1	1	1	1	PSYCHOLOGIE
FAUST_1[2014-06]	23	3	6	6	1	1	2	2	1	0	2787	2	2	1	2955	1	3188	TAUBE	ärger	schwalbe	fink	amsel	meise	ärger	27	1	1	1	1	PSYCHOLOGIE
FAUST_1[2014-06]	23	3	11	6	1	2	2	2	1	0	2247	2	2	1	2517	3	1410	THYMIAN	koriander	rosmarin	oregano	dollar	majoran	rosmarin	27	1	1	1	1	PSYCHOLOGIE
FAUST_1[2014-06]	23	3	26	6	1	1	1	3	2	1	1526	1	2	0	2525	4	1054	MARZIPAN	arm	bein	cannabis	kopf	fuß	arm	27	1	1	1	1	PSYCHOLOGIE
FAUST_1[2014-06]	23	3	25	6	1	2	1	3	2	1	1266	1	1	1	2499	1	1244	HEMD	mumps	weide	grippe	windpocken	weide	röteln	27	1	1	1	1	PSYCHOLOGIE
FAUST_1[2014-06]	23	3	16	6	1	1	1	3	2	1	1294	1	1	1	2046	4	1173	MOBILTELEFON	halma	monopoly	backgammon	brieföffner	schach	backgammon	27	1	1	1	1	PSYCHOLOGIE
FAUST_1[2014-06]	23	3	2	6	1	2	1	3	2	1	2349	1	1	1	2071	4	1766	LIPPENSTIFT	hannover	puma	gepard	panther	hannover	leopard	27	1	1	1	1	PSYCHOLOGIE
FAUST_1[2014-06]	23	3	5	6	1	1	1	3	2	1	2235	2	1	0	1622	4	1359	KOMÖDIE	afrika	asien	nordamerika	mops	australien	asien	27	1	1	1	1	PSYCHOLOGIE
FAUST_1[2014-06]	23	3	28	6	1	2	1	3	2	1	1556	2	1	0	2722	4	1257	HELIUM	onkel	vater	lunge	tochter	sohn	lunge	27	1	1	1	1	PSYCHOLOGIE
FAUST_1[2014-06]	23	3	32	6	1	1	1	3	2	1	1804	2	2	1	2329	3	1635	MALEN	sonnenschein	nebel	regen	brandenburg	hagel	sonnenschein	27	1	1	1	1	PSYCHOLOGIE
FAUST_1[2014-06]	23	3	7	6	1	2	1	3	2	1	1710	-1	1	0	0	4	1296	THUNFISCH	richter	pizza	arzt	pfarrer	polizist	pizza	27	1	1	1	1	PSYCHOLOGIE
FAUST_1[2014-06]	23	4	22	6	2	1	1	1	2	0	1769	2	2	1	1630	3	1020	Glass4.bmp	Bag3.bmp	Glass4.bmp	Bag3.bmp	Bag21.bmp	Bag5.bmp	Bag4.bmp	27	1	1	1	1	PSYCHOLOGIE
FAUST_1[2014-06]	23	4	18	6	2	2	1	1	1	1	943	2	1	0	1366	3	1258	Lipstick7.bmp	String6.bmp	String8.bmp	Lipstick7.bmp	String2.bmp	String12.bmp	Lipstick7.bmp	27	1	1	1	1	PSYCHOLOGIE
FAUST_1[2014-06]	23	4	21	6	2	1	2	1	1	1	1436	2	2	1	1503	3	1439	Screw13.bmp	Screw13.bmp	Screw9.bmp	Chocolate6.bmp	Screw18.bmp	Chocolate6.bmp	Screw16.bmp	27	1	1	1	1	PSYCHOLOGIE
FAUST_1[2014-06]	23	4	17	6	2	2	2	1	1	1	2109	2	1	0	1437	4	1380	Flower17.bmp	Flower17.bmp	Flower14.bmp	Flower3.bmp	Flower17.bmp	Shell9.bmp	Flower18.bmp	27	1	1	1	1	PSYCHOLOGIE
FAUST_1[2014-06]	23	4	13	6	2	1	1	1	1	1	1425	2	2	1	2388	3	1468	Toothbrush1.bmp	Umbrella17.bmp	Umbrella6.bmp	Toothbrush1.bmp	Umbrella7.bmp	Umbrella6.bmp	Umbrella19.bmp	27	1	1	1	1	PSYCHOLOGIE
FAUST_1[2014-06]	23	4	9	6	2	2	1	1	1	1	1921	2	2	1	2952	2	1758	Keys8.bmp	Keys8.bmp	Biscuit17.bmp	Biscuit20.bmp	Biscuit9.bmp	Keys8.bmp	Biscuit25.bmp	27	1	1	1	1	PSYCHOLOGIE
FAUST_1[2014-06]	23	4	20	6	2	1	2	1	1	1	1092	2	1	0	2481	4	1200	Hand10.bmp	Hand1.bmp	Hand10.bmp	Pear4.bmp	Hand17.bmp	Hand13.bmp	Pear4.bmp	27	1	1	1	1	PSYCHOLOGIE
FAUST_1[2014-06]	23	4	15	6	2	2	2	1	1	1	1832	2	1	0	1796	2	1529	Scissors11.bmp	Scissors11.bmp	Scissors14.bmp	Scissors3.bmp	Scissors11.bmp	Scissors1.bmp	Holly17.bmp	27	1	1	1	1	PSYCHOLOGIE
FAUST_1[2014-06]	23	4	6	6	2	1	1	2	2	1	1367	1	1	1	2636	3	1492	Car14.bmp	Plug4.bmp	Plug9.bmp	Plug6.bmp	Car21.bmp	Plug9.bmp	Plug8.bmp	27	1	1	1	1	PSYCHOLOGIE
FAUST_1[2014-06]	23	4	5	6	2	2	1	2	1	0	2032	2	2	1	2371	4	1042	Onion14.bmp	Onion18.bmp	Fork7.bmp	Fork14.bmp	Fork17.bmp	Onion18.bmp	Fork9.bmp	27	1	1	1	1	PSYCHOLOGIE
FAUST_1[2014-06]	23	4	8	6	2	1	2	2	1	0	2115	2	2	1	2022	4	1140	Cake16.bmp	Cake7.bmp	Cake24.bmp	Fudge17.bmp	Cake18.bmp	Fudge17.bmp	Cake25.bmp	27	1	1	1	1	PSYCHOLOGIE
FAUST_1[2014-06]	23	4	11	6	2	2	2	2	1	0	1471	2	2	1	2612	4	1126	Candle1.bmp	Candle13.bmp	Candle10.bmp	Candle17.bmp	Man15.bmp	Candle17.bmp	Candle20.bmp	27	1	1	1	1	PSYCHOLOGIE
FAUST_1[2014-06]	23	4	3	6	2	1	1	2	2	1	1088	1	1	1	1828	4	1774	Tomato3.bmp	Bracelet8.bmp	Tomato18.bmp	Bracelet2.bmp	Bracelet1.bmp	Bracelet8.bmp	Bracelet5.bmp	27	1	1	1	1	PSYCHOLOGIE
FAUST_1[2014-06]	23	4	7	6	2	2	1	2	2	1	3853	1	1	1	2030	1	1221	Stapler8.bmp	Apple24.bmp	Stapler10.bmp	Apple21.bmp	Apple10.bmp	Apple18.bmp	Stapler10.bmp	27	1	1	1	1	PSYCHOLOGIE
FAUST_1[2014-06]	23	4	16	6	2	1	2	2	2	1	3693	2	2	1	1622	2	2557	Ginger3.bmp	Hanger12.bmp	Ginger10.bmp	Ginger15.bmp	Hanger12.bmp	Ginger5.bmp	Ginger17.bmp	27	1	1	1	1	PSYCHOLOGIE
FAUST_1[2014-06]	23	4	19	6	2	2	2	2	1	0	2072	2	1	0	1796	4	1286	Brocolli4.bmp	Brocolli9.bmp	Brocolli19.bmp	Chilli22.bmp	Brocolli19.bmp	Brocolli14.bmp	Brocolli10.bmp	27	1	1	1	1	PSYCHOLOGIE
FAUST_1[2014-06]	23	4	14	6	2	1	1	3	2	1	1079	2	2	1	1840	4	1906	Sweet22.bmp	Paperclip4.bmp	Paperclip9.bmp	Paperclip6.bmp	Paperclip14.bmp	Feather14.bmp	Paperclip4.bmp	27	1	1	1	1	PSYCHOLOGIE
FAUST_1[2014-06]	23	4	1	6	2	2	1	3	2	1	3494	2	2	1	2106	1	1801	Mushroom6.bmp	Key13.bmp	Swirl23.bmp	Swirl5.bmp	Swirl13.bmp	Key13.bmp	Swirl10.bmp	27	1	1	1	1	PSYCHOLOGIE
FAUST_1[2014-06]	23	4	2	6	2	1	1	3	2	1	2522	2	1	0	1862	2	2452	Jigsaw18.bmp	Star17.bmp	Pen20.bmp	Pen10.bmp	Pen5.bmp	Pen1.bmp	Pen20.bmp	27	1	1	1	1	PSYCHOLOGIE
FAUST_1[2014-06]	23	4	4	6	2	2	1	3	2	1	1832	2	2	1	1512	4	1704	Leaf21.bmp	Strawberry14.bmp	Button18.bmp	Strawberry14.bmp	Button14.bmp	Button20.bmp	Button3.bmp	27	1	1	1	1	PSYCHOLOGIE
FAUST_1[2014-06]	23	4	10	6	2	1	1	3	2	1	3273	-1	1	0	0	3	1767	Bun17.bmp	Varnish14.bmp	Varnish17.bmp	Varnish14.bmp	Varnish5.bmp	Varnish11.bmp	Present14.bmp	27	1	1	1	1	PSYCHOLOGIE
FAUST_1[2014-06]	23	4	12	6	2	2	1	3	2	1	1237	2	2	1	2400	4	2037	Daff21.bmp	Nut21.bmp	Coins12.bmp	Nut18.bmp	Coins12.bmp	Nut2.bmp	Nut19.bmp	27	1	1	1	1	PSYCHOLOGIE
