experiment	subject	block	trial	order	material	repeated	related	probetype	response	correct	rt	math_response	math_correctresponse	math_correct	math_rt	confidence	confidence_rt	probe	item1	item2	item3	item4	item5	item6	age	sex	handedness	color_vision	mother_tongue	occupation
FAUST_1[2014-06]	24	1	22	2	1	1	1	1	1	1	1413	1	1	1	2101	2	2894	MEIßEL	kreis	meißel	viereck	dreieck	kreis	rechteck	25	1	1	1	1	PSSYCHOLOGIE
FAUST_1[2014-06]	24	1	21	2	1	2	1	1	2	0	1340	2	2	1	3454	4	1476	STUNDE	puma	tiger	stunde	leopard	stunde	gepard	25	1	1	1	1	PSSYCHOLOGIE
FAUST_1[2014-06]	24	1	28	2	1	1	2	1	2	0	2918	2	2	1	2528	3	1376	MASERN	mumps	thunfisch	masern	thunfisch	windpocken	grippe	25	1	1	1	1	PSSYCHOLOGIE
FAUST_1[2014-06]	24	1	27	2	1	2	2	1	2	0	7601	2	2	1	2246	2	1190	KANU	kanu	oboe	fähre	boot	schiff	kanu	25	1	1	1	1	PSSYCHOLOGIE
FAUST_1[2014-06]	24	1	11	2	1	1	1	1	2	0	4478	2	2	1	2056	2	1331	TAUBE	dackel	schäferhund	dackel	taube	terrier	mops	25	1	1	1	1	PSSYCHOLOGIE
FAUST_1[2014-06]	24	1	5	2	1	2	1	1	1	1	2074	1	1	1	2872	4	1517	GESAMTSCHULE	meer	gesamtschule	teich	ozean	gesamtschule	see	25	1	1	1	1	PSSYCHOLOGIE
FAUST_1[2014-06]	24	1	19	2	1	1	2	1	1	1	1110	2	2	1	2824	4	1511	DÖNER	pizza	kamera	hamburger	kamera	bratwurst	döner	25	1	1	1	1	PSSYCHOLOGIE
FAUST_1[2014-06]	24	1	16	2	1	2	2	1	1	1	3184	1	1	1	2684	3	4356	BASTELN	basteln	schreiben	jacke	lesen	zeichnen	basteln	25	1	1	1	1	PSSYCHOLOGIE
FAUST_1[2014-06]	24	1	2	2	1	1	1	1	1	1	4754	2	1	0	2636	4	1993	HÖREN	volvo	porsche	hören	audi	mercedes	volvo	25	1	1	1	1	PSSYCHOLOGIE
FAUST_1[2014-06]	24	1	3	2	1	2	1	1	1	1	2364	2	2	1	2662	4	1584	TISCH	tisch	nudelholz	tisch	backblech	backform	pfannenwender	25	1	1	1	1	PSSYCHOLOGIE
FAUST_1[2014-06]	24	1	10	2	1	1	2	1	1	1	1342	2	2	1	2721	4	1872	STUTTGART	berlin	stuttgart	grün	hamburg	münchen	grün	25	1	1	1	1	PSSYCHOLOGIE
FAUST_1[2014-06]	24	1	29	2	1	2	2	1	1	1	1694	1	1	1	3183	4	1378	ROSMARIN	thymian	rosmarin	koriander	rosmarin	majoran	kerosin	25	1	1	1	1	PSSYCHOLOGIE
FAUST_1[2014-06]	24	1	25	2	1	1	1	2	2	1	2867	1	2	0	3493	2	1546	DINKEL	rückspiegel	weizen	rückspiegel	gaspedal	kupplung	lenkrad	25	1	1	1	1	PSSYCHOLOGIE
FAUST_1[2014-06]	24	1	20	2	1	2	1	2	2	1	4570	-1	2	0	0	3	1451	KOHLENSTOFF	sauerstoff	heroin	haschisch	sauerstoff	cannabis	opium	25	1	1	1	1	PSSYCHOLOGIE
FAUST_1[2014-06]	24	1	23	2	1	1	2	2	2	1	3647	1	1	1	3032	3	3002	GABEL	scham	messer	teelöffel	scham	löffel	brotmesser	25	1	1	1	1	PSSYCHOLOGIE
FAUST_1[2014-06]	24	1	32	2	1	2	2	2	2	1	3025	1	1	1	1547	4	1123	SPINAT	bohnen	blumenkohl	bohnen	tomaten	straßenbahn	karotten	25	1	1	1	1	PSSYCHOLOGIE
FAUST_1[2014-06]	24	1	13	2	1	1	1	2	2	1	1641	1	1	1	3013	4	1583	HÜTTE	australien	baracke	nordamerika	australien	afrika	südamerika	25	1	1	1	1	PSSYCHOLOGIE
FAUST_1[2014-06]	24	1	30	2	1	2	1	2	2	1	2332	2	2	1	2592	3	1021	ROSE	western	tulpe	actionfilm	horrorfilm	tulpe	komödie	25	1	1	1	1	PSSYCHOLOGIE
FAUST_1[2014-06]	24	1	1	2	1	1	2	2	1	0	2894	1	2	0	3245	3	2059	TENNIS	erdkunde	golf	schwimmen	erdkunde	skifahren	fußball	25	1	1	1	1	PSSYCHOLOGIE
FAUST_1[2014-06]	24	1	9	2	1	2	2	2	1	0	3512	2	2	1	3006	3	2061	LEINEN	wolle	baumwolle	seide	flanell	baumwolle	lidschatten	25	1	1	1	1	PSSYCHOLOGIE
FAUST_1[2014-06]	24	1	14	2	1	1	1	2	2	1	3392	1	2	0	2393	4	1632	WHISKEY	rhein	main	donau	weser	rum	rhein	25	1	1	1	1	PSSYCHOLOGIE
FAUST_1[2014-06]	24	1	4	2	1	2	1	2	2	1	3867	2	2	1	2616	3	3188	JUPITER	arzt	pluto	pfarrer	pluto	polizist	lehrer	25	1	1	1	1	PSSYCHOLOGIE
FAUST_1[2014-06]	24	1	17	2	1	1	2	2	2	1	1571	2	2	1	3073	4	2301	BÜROKLAMMER	lineal	eiche	locher	eiche	klebeband	brieföffner	25	1	1	1	1	PSSYCHOLOGIE
FAUST_1[2014-06]	24	1	7	2	1	2	2	2	2	1	1285	2	2	1	3125	4	1539	KINO	dänemark	konzertsaal	theater	oper	zirkus	konzertsaal	25	1	1	1	1	PSSYCHOLOGIE
FAUST_1[2014-06]	24	1	12	2	1	1	1	3	2	1	1879	1	1	1	1773	4	1323	SCHÜTZE	pflaume	apfel	birne	pfennig	erdbeere	birne	25	1	1	1	1	PSSYCHOLOGIE
FAUST_1[2014-06]	24	1	31	2	1	2	1	3	1	0	2273	-1	2	0	0	1	1830	REGEN	ameise	wespe	meile	hummel	mücke	meile	25	1	1	1	1	PSSYCHOLOGIE
FAUST_1[2014-06]	24	1	24	2	1	1	1	3	2	1	1184	2	2	1	3233	4	1018	SOHN	kopf	hand	bonbons	bein	fuß	hand	25	1	1	1	1	PSSYCHOLOGIE
FAUST_1[2014-06]	24	1	15	2	1	2	1	3	2	1	1559	1	2	0	2857	4	1299	FÜRST	kapelle	bombe	moschee	synagoge	kirche	bombe	25	1	1	1	1	PSSYCHOLOGIE
FAUST_1[2014-06]	24	1	18	2	1	1	1	3	2	1	2531	2	2	1	3123	4	1748	FÜLLER	beethoven	mozart	brahms	backgammon	vivaldi	brahms	25	1	1	1	1	PSSYCHOLOGIE
FAUST_1[2014-06]	24	1	6	2	1	2	1	3	2	1	1803	2	1	0	2694	3	1223	SILBER	becher	thüringen	kanne	karaffe	thüringen	flasche	25	1	1	1	1	PSSYCHOLOGIE
FAUST_1[2014-06]	24	1	26	2	1	1	1	3	2	1	951	1	1	1	2526	4	1381	BUCH	niere	adverb	adjektiv	nomen	präposition	adjektiv	25	1	1	1	1	PSSYCHOLOGIE
FAUST_1[2014-06]	24	1	8	2	1	2	1	3	2	1	1175	1	1	1	3171	4	1368	ZOMBIE	nähnadel	tango	foxtrott	rumba	nähnadel	walzer	25	1	1	1	1	PSSYCHOLOGIE
FAUST_1[2014-06]	24	2	14	2	3	1	1	1	1	1	2659	2	1	0	2119	4	1472	hairdryer_2.bmp	tricycle_5.bmp	tricycle_8.bmp	tricycle_5.bmp	hairdryer_2.bmp	tricycle_2.bmp	tricycle_15.bmp	25	1	1	1	1	PSSYCHOLOGIE
FAUST_1[2014-06]	24	2	24	2	3	2	1	1	1	1	1265	1	1	1	2665	4	1412	plant_5.bmp	plant_5.bmp	mic_2.bmp	mic_5.bmp	plant_5.bmp	mic_12.bmp	mic_10.bmp	25	1	1	1	1	PSSYCHOLOGIE
FAUST_1[2014-06]	24	2	20	2	3	1	2	1	1	1	1793	1	1	1	2120	3	3044	hairbrush_12.bmp	shredder_1.bmp	hairbrush_17.bmp	hairbrush_16.bmp	hairbrush_15.bmp	hairbrush_12.bmp	shredder_1.bmp	25	1	1	1	1	PSSYCHOLOGIE
FAUST_1[2014-06]	24	2	4	2	3	2	2	1	2	0	3226	2	1	0	2593	2	1528	vase_13.bmp	vase_13.bmp	vase_15.bmp	vase_5.bmp	vase_6.bmp	trophy_4.bmp	vase_13.bmp	25	1	1	1	1	PSSYCHOLOGIE
FAUST_1[2014-06]	24	2	12	2	3	1	1	1	1	1	2253	1	1	1	2433	4	1185	sofa_6.bmp	glove_8.bmp	glove_12.bmp	glove_5.bmp	sofa_6.bmp	glove_10.bmp	glove_12.bmp	25	1	1	1	1	PSSYCHOLOGIE
FAUST_1[2014-06]	24	2	7	2	3	2	1	1	1	1	1519	1	1	1	2729	4	1947	guitar_8.bmp	windchime_6.bmp	windchime_15.bmp	guitar_8.bmp	windchime_3.bmp	guitar_8.bmp	windchime_10.bmp	25	1	1	1	1	PSSYCHOLOGIE
FAUST_1[2014-06]	24	2	13	2	3	1	2	1	1	1	1691	2	2	1	2120	1	1430	scooter_10.bmp	camera_7.bmp	scooter_8.bmp	scooter_5.bmp	camera_7.bmp	scooter_10.bmp	scooter_4.bmp	25	1	1	1	1	PSSYCHOLOGIE
FAUST_1[2014-06]	24	2	18	2	3	2	2	1	1	1	2193	1	2	0	2610	4	1249	carriage_12.bmp	carriage_12.bmp	bagel_4.bmp	carriage_2.bmp	carriage_3.bmp	carriage_12.bmp	carriage_14.bmp	25	1	1	1	1	PSSYCHOLOGIE
FAUST_1[2014-06]	24	2	31	2	3	1	1	1	1	1	1955	1	1	1	3440	4	1349	orifan_6.bmp	jacket_6.bmp	jacket_11.bmp	jacket_7.bmp	orifan_6.bmp	jacket_11.bmp	jacket_10.bmp	25	1	1	1	1	PSSYCHOLOGIE
FAUST_1[2014-06]	24	2	3	2	3	2	1	1	1	1	1919	2	2	1	2225	4	2014	socks_4.bmp	cellphone_3.bmp	cellphone_8.bmp	cellphone_11.bmp	socks_4.bmp	cellphone_4.bmp	socks_4.bmp	25	1	1	1	1	PSSYCHOLOGIE
FAUST_1[2014-06]	24	2	9	2	3	1	2	1	1	1	1770	2	2	1	2801	3	1607	highchair_15.bmp	highchair_6.bmp	highchair_3.bmp	leatherman_14.bmp	highchair_15.bmp	leatherman_14.bmp	highchair_10.bmp	25	1	1	1	1	PSSYCHOLOGIE
FAUST_1[2014-06]	24	2	5	2	3	2	2	1	1	1	1838	1	1	1	1658	4	1484	turtle_11.bmp	turtle_6.bmp	turtle_2.bmp	turtle_11.bmp	turtle_12.bmp	turtle_11.bmp	carabiner_6.bmp	25	1	1	1	1	PSSYCHOLOGIE
FAUST_1[2014-06]	24	2	22	2	3	1	1	2	2	1	1216	1	1	1	2446	4	1489	chair_2.bmp	printer_14.bmp	printer_5.bmp	chair_3.bmp	printer_1.bmp	printer_14.bmp	printer_16.bmp	25	1	1	1	1	PSSYCHOLOGIE
FAUST_1[2014-06]	24	2	2	2	3	2	1	2	1	0	1519	1	2	0	2078	4	2063	rusdoll_3.bmp	speaker_15.bmp	rusdoll_6.bmp	speaker_10.bmp	speaker_4.bmp	rusdoll_6.bmp	speaker_6.bmp	25	1	1	1	1	PSSYCHOLOGIE
FAUST_1[2014-06]	24	2	1	2	3	1	2	2	2	1	4230	1	2	0	3373	1	2277	saltpeppershake_8.bmp	saltpeppershake_2.bmp	saltpeppershake_17.bmp	cat_5.bmp	saltpeppershake_9.bmp	saltpeppershake_12.bmp	cat_5.bmp	25	1	1	1	1	PSSYCHOLOGIE
FAUST_1[2014-06]	24	2	32	2	3	2	2	2	2	1	2883	2	2	1	2498	3	2077	doorknocker_5.bmp	doorknocker_4.bmp	doorknocker_2.bmp	laptop_16.bmp	doorknocker_11.bmp	doorknocker_14.bmp	doorknocker_11.bmp	25	1	1	1	1	PSSYCHOLOGIE
FAUST_1[2014-06]	24	2	21	2	3	1	1	2	1	0	2614	1	1	1	1645	4	1060	horseshoe_4.bmp	cake_5.bmp	cake_1.bmp	cake_5.bmp	horseshoe_5.bmp	cake_4.bmp	cake_3.bmp	25	1	1	1	1	PSSYCHOLOGIE
FAUST_1[2014-06]	24	2	26	2	3	2	1	2	1	0	5189	2	2	1	2615	2	1152	cheesegrater_8.bmp	goggle_1.bmp	goggle_3.bmp	cheesegrater_5.bmp	goggle_9.bmp	goggle_4.bmp	cheesegrater_5.bmp	25	1	1	1	1	PSSYCHOLOGIE
FAUST_1[2014-06]	24	2	8	2	3	1	2	2	2	1	2379	2	2	1	1814	3	1314	watch_14.bmp	watch_7.bmp	birdhouse_11.bmp	watch_8.bmp	birdhouse_11.bmp	watch_3.bmp	watch_6.bmp	25	1	1	1	1	PSSYCHOLOGIE
FAUST_1[2014-06]	24	2	29	2	3	2	2	2	1	0	4364	2	2	1	1769	1	863	powerstrip_8.bmp	powerstrip_13.bmp	powerstrip_10.bmp	powerstrip_7.bmp	powerstrip_10.bmp	powerstrip_14.bmp	trunk_1.bmp	25	1	1	1	1	PSSYCHOLOGIE
FAUST_1[2014-06]	24	2	19	2	3	1	1	2	2	1	1208	2	2	1	2162	4	1358	watergun_9.bmp	sink_15.bmp	sink_11.bmp	watergun_8.bmp	sink_6.bmp	sink_15.bmp	sink_1.bmp	25	1	1	1	1	PSSYCHOLOGIE
FAUST_1[2014-06]	24	2	6	2	3	2	1	2	2	1	3185	2	2	1	2218	3	1208	hammer_15.bmp	hammer_11.bmp	saddle_3.bmp	saddle_8.bmp	saddle_5.bmp	saddle_15.bmp	hammer_11.bmp	25	1	1	1	1	PSSYCHOLOGIE
FAUST_1[2014-06]	24	2	16	2	3	1	2	2	2	1	3434	-1	2	0	0	1	1005	parfait_1.bmp	coffee_1.bmp	parfait_13.bmp	parfait_4.bmp	parfait_11.bmp	coffee_1.bmp	parfait_15.bmp	25	1	1	1	1	PSSYCHOLOGIE
FAUST_1[2014-06]	24	2	30	2	3	2	2	2	2	1	3104	2	2	1	2124	3	1309	pasta_13.bmp	pasta_9.bmp	videogamecontroller_2.bmp	pasta_10.bmp	pasta_15.bmp	pasta_11.bmp	pasta_15.bmp	25	1	1	1	1	PSSYCHOLOGIE
FAUST_1[2014-06]	24	2	10	2	3	1	1	3	2	1	2643	2	2	1	2963	3	1373	trumpet_1.bmp	backpack_16.bmp	backpack_12.bmp	tv_7.bmp	backpack_13.bmp	backpack_12.bmp	backpack_6.bmp	25	1	1	1	1	PSSYCHOLOGIE
FAUST_1[2014-06]	24	2	23	2	3	2	1	3	2	1	1022	1	1	1	2169	4	1330	circuitboard_4.bmp	doorknob_14.bmp	doorknob_2.bmp	rollerskates_17.bmp	doorknob_10.bmp	doorknob_17.bmp	rollerskates_17.bmp	25	1	1	1	1	PSSYCHOLOGIE
FAUST_1[2014-06]	24	2	11	2	3	1	1	3	2	1	1402	1	1	1	1546	4	1085	wig_6.bmp	beanbagchair_14.bmp	flashlight_1.bmp	flashlight_2.bmp	flashlight_17.bmp	flashlight_13.bmp	flashlight_1.bmp	25	1	1	1	1	PSSYCHOLOGIE
FAUST_1[2014-06]	24	2	27	2	3	2	1	3	2	1	2938	2	1	0	2319	4	1683	lawnmower_17.bmp	fan_1.bmp	skateboard_11.bmp	fan_15.bmp	fan_11.bmp	skateboard_11.bmp	fan_10.bmp	25	1	1	1	1	PSSYCHOLOGIE
FAUST_1[2014-06]	24	2	17	2	3	1	1	3	2	1	2163	1	1	1	1982	4	2108	remote_2.bmp	cherubstatue_12.bmp	glasses_15.bmp	glasses_9.bmp	glasses_13.bmp	glasses_6.bmp	glasses_15.bmp	25	1	1	1	1	PSSYCHOLOGIE
FAUST_1[2014-06]	24	2	25	2	3	2	1	3	2	1	1427	1	1	1	1218	4	1406	garbagecan_8.bmp	iceskates_16.bmp	iceskates_9.bmp	iceskates_5.bmp	abacus_15.bmp	iceskates_14.bmp	abacus_15.bmp	25	1	1	1	1	PSSYCHOLOGIE
FAUST_1[2014-06]	24	2	15	2	3	1	1	3	2	1	2256	1	1	1	2567	4	1706	router_12.bmp	ring_7.bmp	ring_15.bmp	ring_11.bmp	babycrib_7.bmp	ring_11.bmp	ring_8.bmp	25	1	1	1	1	PSSYCHOLOGIE
FAUST_1[2014-06]	24	2	28	2	3	2	1	3	2	1	2427	2	2	1	2484	3	1750	shoe_9.bmp	bowlingpin_11.bmp	easteregg_9.bmp	bowlingpin_13.bmp	easteregg_9.bmp	bowlingpin_3.bmp	bowlingpin_1.bmp	25	1	1	1	1	PSSYCHOLOGIE
FAUST_1[2014-06]	24	3	15	2	2	1	1	1	1	1	3926	2	1	0	1811	3	1341	Feather12.bmp	Feather12.bmp	Holly3.bmp	Holly11.bmp	Holly14.bmp	Holly17.bmp	Holly3.bmp	25	1	1	1	1	PSSYCHOLOGIE
FAUST_1[2014-06]	24	3	16	2	2	2	1	1	1	1	1416	1	1	1	2833	4	1160	Screw9.bmp	Cake18.bmp	Cake16.bmp	Cake25.bmp	Screw9.bmp	Cake7.bmp	Screw9.bmp	25	1	1	1	1	PSSYCHOLOGIE
FAUST_1[2014-06]	24	3	1	2	2	1	2	1	1	1	1371	1	1	1	2372	4	1481	Candle10.bmp	Candle20.bmp	Onion19.bmp	Candle10.bmp	Candle1.bmp	Onion19.bmp	Candle13.bmp	25	1	1	1	1	PSSYCHOLOGIE
FAUST_1[2014-06]	24	3	3	2	2	2	2	1	1	1	1580	1	2	0	1744	4	1606	Daff22.bmp	Daff22.bmp	Daff21.bmp	Daff22.bmp	Daff9.bmp	Varnish17.bmp	Daff3.bmp	25	1	1	1	1	PSSYCHOLOGIE
FAUST_1[2014-06]	24	3	4	2	2	1	1	1	2	0	4667	2	1	0	2526	4	1919	Car7.bmp	Car7.bmp	Star2.bmp	Star17.bmp	Star7.bmp	Star17.bmp	Star1.bmp	25	1	1	1	1	PSSYCHOLOGIE
FAUST_1[2014-06]	24	3	20	2	2	2	1	1	1	1	1603	2	2	1	2019	3	1698	Leaf15.bmp	Nut11.bmp	Leaf15.bmp	Nut18.bmp	Nut21.bmp	Leaf15.bmp	Nut2.bmp	25	1	1	1	1	PSSYCHOLOGIE
FAUST_1[2014-06]	24	3	13	2	2	1	2	1	1	1	4569	1	1	1	2161	2	1384	Fork17.bmp	Paperclip14.bmp	Fork14.bmp	Fork8.bmp	Fork17.bmp	Paperclip14.bmp	Fork9.bmp	25	1	1	1	1	PSSYCHOLOGIE
FAUST_1[2014-06]	24	3	10	2	2	2	2	1	1	1	2015	2	2	1	3292	3	1761	Pear15.bmp	Pear15.bmp	Pear16.bmp	Shell9.bmp	Pear15.bmp	Pear7.bmp	Pear18.bmp	25	1	1	1	1	PSSYCHOLOGIE
FAUST_1[2014-06]	24	3	21	2	2	1	1	2	1	0	1398	2	2	1	2255	4	1280	Present17.bmp	Stapler10.bmp	Stapler8.bmp	Present3.bmp	Stapler7.bmp	Stapler8.bmp	Stapler6.bmp	25	1	1	1	1	PSSYCHOLOGIE
FAUST_1[2014-06]	24	3	2	2	2	2	1	2	2	1	2609	1	1	1	2165	4	1339	Brocolli14.bmp	Swirl1.bmp	Swirl23.bmp	Brocolli4.bmp	Swirl10.bmp	Brocolli4.bmp	Swirl5.bmp	25	1	1	1	1	PSSYCHOLOGIE
FAUST_1[2014-06]	24	3	9	2	2	1	2	2	1	0	1847	1	1	1	2656	3	1719	Glass16.bmp	Ginger10.bmp	Glass12.bmp	Glass19.bmp	Ginger10.bmp	Glass3.bmp	Glass4.bmp	25	1	1	1	1	PSSYCHOLOGIE
FAUST_1[2014-06]	24	3	12	2	2	2	2	2	1	0	4068	2	1	0	2513	3	2215	Fudge20.bmp	Fudge15.bmp	Fudge17.bmp	Fudge8.bmp	Fudge15.bmp	Fudge5.bmp	Keys7.bmp	25	1	1	1	1	PSSYCHOLOGIE
FAUST_1[2014-06]	24	3	19	2	2	1	1	2	1	0	2510	1	1	1	2728	3	1380	Button14.bmp	Chilli11.bmp	Chilli12.bmp	Chilli19.bmp	Chilli12.bmp	Button20.bmp	Chilli14.bmp	25	1	1	1	1	PSSYCHOLOGIE
FAUST_1[2014-06]	24	3	8	2	2	2	1	2	2	1	1618	1	2	0	2653	4	1081	Man15.bmp	Man10.bmp	String12.bmp	String9.bmp	Man10.bmp	String6.bmp	String8.bmp	25	1	1	1	1	PSSYCHOLOGIE
FAUST_1[2014-06]	24	3	18	2	2	1	2	2	2	1	2622	1	1	1	2268	2	971	Toothbrush9.bmp	Toothbrush10.bmp	Toothbrush12.bmp	Pen20.bmp	Toothbrush6.bmp	Pen20.bmp	Toothbrush1.bmp	25	1	1	1	1	PSSYCHOLOGIE
FAUST_1[2014-06]	24	3	11	2	2	2	2	2	2	1	1769	2	2	1	2717	4	2523	Hanger7.bmp	Hanger15.bmp	Key5.bmp	Hanger12.bmp	Hanger2.bmp	Hanger15.bmp	Hanger14.bmp	25	1	1	1	1	PSSYCHOLOGIE
FAUST_1[2014-06]	24	3	7	2	2	1	1	3	2	1	1217	1	1	1	2404	4	1229	Bun12.bmp	Sweet22.bmp	Sweet18.bmp	Jigsaw11.bmp	Sweet1.bmp	Sweet10.bmp	Sweet1.bmp	25	1	1	1	1	PSSYCHOLOGIE
FAUST_1[2014-06]	24	3	5	2	2	2	1	3	2	1	1215	1	1	1	2364	4	1462	Flower14.bmp	Tomato18.bmp	Lipstick9.bmp	Tomato3.bmp	Tomato5.bmp	Tomato2.bmp	Lipstick9.bmp	25	1	1	1	1	PSSYCHOLOGIE
FAUST_1[2014-06]	24	3	6	2	2	1	1	3	2	1	1132	2	2	1	2612	4	1602	Apple5.bmp	Coins3.bmp	Coins8.bmp	Mushroom25.bmp	Coins10.bmp	Coins12.bmp	Coins10.bmp	25	1	1	1	1	PSSYCHOLOGIE
FAUST_1[2014-06]	24	3	17	2	2	2	1	3	2	1	1462	2	2	1	1684	4	1526	Chocolate5.bmp	Umbrella21.bmp	Umbrella7.bmp	Umbrella19.bmp	Biscuit9.bmp	Umbrella6.bmp	Biscuit9.bmp	25	1	1	1	1	PSSYCHOLOGIE
FAUST_1[2014-06]	24	3	22	2	2	1	1	3	2	1	1564	2	2	1	2614	4	1379	Bag25.bmp	Strawberry21.bmp	Strawberry4.bmp	Hand1.bmp	Strawberry14.bmp	Strawberry3.bmp	Strawberry4.bmp	25	1	1	1	1	PSSYCHOLOGIE
FAUST_1[2014-06]	24	3	14	2	2	2	1	3	2	1	1192	2	2	1	1628	4	1348	Plug18.bmp	Scissors14.bmp	Bracelet2.bmp	Scissors3.bmp	Bracelet2.bmp	Scissors23.bmp	Scissors11.bmp	25	1	1	1	1	PSSYCHOLOGIE
FAUST_1[2014-06]	24	2	15	2	1	1	1	1	1	1	1470	1	1	1	1485	4	1148	GASPEDAL	dolch	schwert	bombe	dolch	gaspedal	gewehr	25	1	1	1	1	PSSYCHOLOGIE
FAUST_1[2014-06]	24	2	20	2	1	2	1	1	1	1	1170	1	1	1	2046	4	1170	BARACKE	baracke	trauer	freude	scham	baracke	ärger	25	1	1	1	1	PSSYCHOLOGIE
FAUST_1[2014-06]	24	2	6	2	1	1	2	1	1	1	1456	1	1	1	1726	4	1000	STUTTGART	stuttgart	makrele	berlin	hamburg	makrele	hannover	25	1	1	1	1	PSSYCHOLOGIE
FAUST_1[2014-06]	24	2	2	2	1	2	2	1	1	1	1522	2	2	1	1551	2	1237	QUADRAT	rechteck	dreieck	oper	quadrat	kreis	quadrat	25	1	1	1	1	PSSYCHOLOGIE
FAUST_1[2014-06]	24	2	16	2	1	1	1	1	1	1	1846	2	1	0	1989	4	1088	KAPELLE	kapelle	rouge	lippenstift	rouge	wimperntusche	lidschatten	25	1	1	1	1	PSSYCHOLOGIE
FAUST_1[2014-06]	24	2	25	2	1	2	1	1	1	1	1182	1	2	0	1957	4	982	TEQUILA	flasche	tequila	becher	kanne	glas	tequila	25	1	1	1	1	PSSYCHOLOGIE
FAUST_1[2014-06]	24	2	26	2	1	1	2	1	2	0	2284	2	2	1	2993	2	1044	EICHE	mücke	weide	eiche	tanne	birke	mücke	25	1	1	1	1	PSSYCHOLOGIE
FAUST_1[2014-06]	24	2	23	2	1	2	2	1	1	1	3486	2	2	1	3042	2	797	ADJEKTIV	verb	adjektiv	steinbock	adverb	adjektiv	nomen	25	1	1	1	1	PSSYCHOLOGIE
FAUST_1[2014-06]	24	2	3	2	1	1	1	1	2	0	1211	2	2	1	2730	4	1141	SÜDAMERIKA	schwimmen	skifahren	tennis	fußball	schwimmen	südamerika	25	1	1	1	1	PSSYCHOLOGIE
FAUST_1[2014-06]	24	2	28	2	1	2	1	1	1	1	1591	1	2	0	3173	4	1191	SAARLAND	bronze	eisen	saarland	gold	saarland	messing	25	1	1	1	1	PSSYCHOLOGIE
FAUST_1[2014-06]	24	2	4	2	1	1	2	1	1	1	1348	1	1	1	1537	3	1907	KOHLENSTOFF	sauerstoff	kohlenstoff	bonbons	wasserstoff	helium	bonbons	25	1	1	1	1	PSSYCHOLOGIE
FAUST_1[2014-06]	24	2	18	2	1	2	2	1	1	1	1390	1	2	0	2277	4	1353	TANGO	tango	meise	tango	foxtrott	rumba	chachacha	25	1	1	1	1	PSSYCHOLOGIE
FAUST_1[2014-06]	24	2	14	2	1	1	1	2	2	1	1019	1	1	1	2233	3	1331	VOLVO	banane	apfel	birne	mercedes	erdbeere	banane	25	1	1	1	1	PSSYCHOLOGIE
FAUST_1[2014-06]	24	2	22	2	1	2	1	2	2	1	1507	1	2	0	3312	4	855	SÄGE	leopard	meißel	puma	tiger	gepard	meißel	25	1	1	1	1	PSSYCHOLOGIE
FAUST_1[2014-06]	24	2	1	2	1	1	2	2	2	1	1324	1	1	1	1673	4	2052	INTERNET	küchenwaage	fernsehen	buch	küchenwaage	radio	zeitung	25	1	1	1	1	PSSYCHOLOGIE
FAUST_1[2014-06]	24	2	30	2	1	2	2	2	2	1	1124	2	2	1	1927	4	1365	DINKEL	weizen	roggen	gerste	hafer	gerste	gelb	25	1	1	1	1	PSSYCHOLOGIE
FAUST_1[2014-06]	24	2	11	2	1	1	1	2	2	1	1086	1	1	1	2036	4	850	BOOT	pommes	hamburger	pommes	pizza	bratwurst	fähre	25	1	1	1	1	PSSYCHOLOGIE
FAUST_1[2014-06]	24	2	9	2	1	2	1	2	2	1	1258	1	1	1	1430	4	923	MASERN	stuhl	sofa	grippe	schrank	grippe	tisch	25	1	1	1	1	PSSYCHOLOGIE
FAUST_1[2014-06]	24	2	8	2	1	1	2	2	2	1	1985	1	1	1	2210	3	957	SONNENSCHEIN	löffel	nebel	löffel	hagel	regen	schnee	25	1	1	1	1	PSSYCHOLOGIE
FAUST_1[2014-06]	24	2	7	2	1	2	2	2	2	1	3957	2	1	0	2358	1	1413	ONKEL	tochter	sohn	mutter	vater	tochter	fahrrad	25	1	1	1	1	PSSYCHOLOGIE
FAUST_1[2014-06]	24	2	19	2	1	1	1	2	2	1	860	1	1	1	1806	4	804	STUNDE	ozean	teich	see	ozean	fluss	tag	25	1	1	1	1	PSSYCHOLOGIE
FAUST_1[2014-06]	24	2	12	2	1	2	1	2	2	1	1307	2	2	1	2386	4	1617	BLUMENKOHL	tulpe	tomaten	lilie	tomaten	nelke	rose	25	1	1	1	1	PSSYCHOLOGIE
FAUST_1[2014-06]	24	2	29	2	1	1	2	2	2	1	5385	2	2	1	2230	3	1556	RIECHEN	flöte	fühlen	flöte	hören	schmecken	sehen	25	1	1	1	1	PSSYCHOLOGIE
FAUST_1[2014-06]	24	2	31	2	1	2	2	2	2	1	2599	2	2	1	1781	2	1156	WOLLE	leinen	flanell	baumwolle	kerosin	seide	leinen	25	1	1	1	1	PSSYCHOLOGIE
FAUST_1[2014-06]	24	2	24	2	1	1	1	3	2	1	1655	2	1	0	2354	4	1026	KOKAIN	monopoly	beethoven	monopoly	backgammon	halma	schach	25	1	1	1	1	PSSYCHOLOGIE
FAUST_1[2014-06]	24	2	5	2	1	2	1	3	2	1	1419	1	1	1	1455	4	932	BEIN	kamera	dackel	terrier	kamera	dogge	schäferhund	25	1	1	1	1	PSSYCHOLOGIE
FAUST_1[2014-06]	24	2	13	2	1	1	1	3	2	1	1125	1	1	1	2395	4	2074	JACKE	bleistift	buntstift	bleistift	lineal	filzstift	füller	25	1	1	1	1	PSSYCHOLOGIE
FAUST_1[2014-06]	24	2	32	2	1	2	1	3	2	1	1012	1	1	1	3390	4	940	ÖSTERREICH	dämon	erdkunde	mathematik	physik	dämon	biologie	25	1	1	1	1	PSSYCHOLOGIE
FAUST_1[2014-06]	24	2	10	2	1	1	1	3	2	1	1011	1	1	1	2061	4	1099	GRAF	komödie	thriller	western	komödie	merkur	horrorfilm	25	1	1	1	1	PSSYCHOLOGIE
FAUST_1[2014-06]	24	2	17	2	1	2	1	3	2	1	1008	1	1	1	1491	4	943	KORIANDER	cent	dollar	zeichnen	pfennig	euro	zeichnen	25	1	1	1	1	PSSYCHOLOGIE
FAUST_1[2014-06]	24	2	27	2	1	1	1	3	2	1	2548	2	1	0	2718	4	787	POLIZIST	realschule	weser	realschule	berufsschule	gymnasium	hauptschule	25	1	1	1	1	PSSYCHOLOGIE
FAUST_1[2014-06]	24	2	21	2	1	2	1	3	2	1	1402	2	2	1	1573	4	1071	LUNGE	zentimeter	nähnadel	kilometer	meter	millimeter	nähnadel	25	1	1	1	1	PSSYCHOLOGIE
FAUST_1[2014-06]	24	3	24	2	3	1	1	1	1	1	1476	1	1	1	1567	4	1400	rusdoll_6.bmp	guitar_5.bmp	guitar_10.bmp	guitar_8.bmp	guitar_14.bmp	guitar_10.bmp	rusdoll_6.bmp	25	1	1	1	1	PSSYCHOLOGIE
FAUST_1[2014-06]	24	3	4	2	3	2	1	1	1	1	1777	-1	1	0	0	4	1863	laptop_15.bmp	windchime_16.bmp	laptop_15.bmp	windchime_10.bmp	laptop_15.bmp	windchime_3.bmp	windchime_6.bmp	25	1	1	1	1	PSSYCHOLOGIE
FAUST_1[2014-06]	24	3	8	2	3	1	2	1	2	0	2469	2	2	1	2493	1	1199	sofa_12.bmp	mic_12.bmp	sofa_3.bmp	sofa_12.bmp	sofa_9.bmp	sofa_6.bmp	mic_12.bmp	25	1	1	1	1	PSSYCHOLOGIE
FAUST_1[2014-06]	24	3	25	2	3	2	2	1	1	1	1219	2	2	1	2501	4	1186	doorknocker_5.bmp	doorknocker_5.bmp	doorknocker_14.bmp	doorknocker_2.bmp	glove_12.bmp	doorknocker_5.bmp	doorknocker_4.bmp	25	1	1	1	1	PSSYCHOLOGIE
FAUST_1[2014-06]	24	3	1	2	3	1	1	1	1	1	1729	1	1	1	2997	2	1382	pasta_10.bmp	pasta_10.bmp	trumpet_17.bmp	trumpet_1.bmp	trumpet_3.bmp	trumpet_6.bmp	trumpet_17.bmp	25	1	1	1	1	PSSYCHOLOGIE
FAUST_1[2014-06]	24	3	3	2	3	2	1	1	1	1	1201	1	1	1	2311	4	1441	wig_6.bmp	cherubstatue_5.bmp	cherubstatue_12.bmp	cherubstatue_11.bmp	wig_6.bmp	cherubstatue_10.bmp	wig_6.bmp	25	1	1	1	1	PSSYCHOLOGIE
FAUST_1[2014-06]	24	3	13	2	3	1	2	1	1	1	1704	1	2	0	2802	3	1400	shredder_1.bmp	shredder_7.bmp	shredder_1.bmp	turtle_2.bmp	shredder_5.bmp	shredder_15.bmp	turtle_2.bmp	25	1	1	1	1	PSSYCHOLOGIE
FAUST_1[2014-06]	24	3	16	2	3	2	2	1	1	1	1764	1	1	1	1227	3	1203	saddle_8.bmp	saddle_4.bmp	printer_5.bmp	saddle_5.bmp	saddle_8.bmp	saddle_3.bmp	saddle_8.bmp	25	1	1	1	1	PSSYCHOLOGIE
FAUST_1[2014-06]	24	3	2	2	3	1	1	1	1	1	1298	1	1	1	2710	3	1342	shoe_7.bmp	shoe_7.bmp	garbagecan_10.bmp	garbagecan_8.bmp	garbagecan_10.bmp	garbagecan_2.bmp	garbagecan_13.bmp	25	1	1	1	1	PSSYCHOLOGIE
FAUST_1[2014-06]	24	3	14	2	3	2	1	1	1	1	1218	1	2	0	2890	4	1121	easteregg_16.bmp	easteregg_16.bmp	carriage_3.bmp	carriage_2.bmp	carriage_14.bmp	easteregg_16.bmp	carriage_12.bmp	25	1	1	1	1	PSSYCHOLOGIE
FAUST_1[2014-06]	24	3	6	2	3	1	2	1	1	1	1700	1	1	1	1969	4	1580	trunk_1.bmp	bowlingpin_3.bmp	trunk_1.bmp	trunk_3.bmp	trunk_7.bmp	trunk_2.bmp	bowlingpin_3.bmp	25	1	1	1	1	PSSYCHOLOGIE
FAUST_1[2014-06]	24	3	7	2	3	2	2	1	1	1	1641	1	1	1	2806	3	945	cheesegrater_14.bmp	cheesegrater_15.bmp	sink_6.bmp	cheesegrater_11.bmp	cheesegrater_14.bmp	cheesegrater_8.bmp	cheesegrater_14.bmp	25	1	1	1	1	PSSYCHOLOGIE
FAUST_1[2014-06]	24	3	5	2	3	1	1	2	1	0	2634	2	2	1	2595	3	2810	router_5.bmp	router_6.bmp	horseshoe_3.bmp	horseshoe_5.bmp	horseshoe_12.bmp	horseshoe_3.bmp	horseshoe_4.bmp	25	1	1	1	1	PSSYCHOLOGIE
FAUST_1[2014-06]	24	3	26	2	3	2	1	2	2	1	1229	2	2	1	1785	4	1280	hairbrush_7.bmp	hairbrush_17.bmp	lawnmower_15.bmp	lawnmower_3.bmp	hairbrush_17.bmp	lawnmower_8.bmp	lawnmower_13.bmp	25	1	1	1	1	PSSYCHOLOGIE
FAUST_1[2014-06]	24	3	15	2	3	1	2	2	2	1	1342	1	1	1	2053	3	1202	tricycle_5.bmp	tricycle_8.bmp	speaker_6.bmp	tricycle_15.bmp	speaker_6.bmp	tricycle_2.bmp	tricycle_10.bmp	25	1	1	1	1	PSSYCHOLOGIE
FAUST_1[2014-06]	24	3	20	2	3	2	2	2	1	0	2560	2	2	1	1555	3	1944	abacus_4.bmp	abacus_2.bmp	highchair_15.bmp	abacus_6.bmp	abacus_7.bmp	abacus_15.bmp	abacus_6.bmp	25	1	1	1	1	PSSYCHOLOGIE
FAUST_1[2014-06]	24	3	22	2	3	1	1	2	2	1	2105	1	1	1	2302	4	1438	parfait_1.bmp	plant_8.bmp	plant_14.bmp	plant_5.bmp	plant_2.bmp	plant_14.bmp	parfait_4.bmp	25	1	1	1	1	PSSYCHOLOGIE
FAUST_1[2014-06]	24	3	19	2	3	2	1	2	1	0	2672	2	1	0	2639	4	941	hammer_6.bmp	cake_14.bmp	cake_1.bmp	hammer_15.bmp	cake_5.bmp	hammer_15.bmp	cake_3.bmp	25	1	1	1	1	PSSYCHOLOGIE
FAUST_1[2014-06]	24	3	10	2	3	1	2	2	2	1	2757	1	1	1	2191	3	1498	rollerskates_2.bmp	rollerskates_7.bmp	powerstrip_14.bmp	rollerskates_17.bmp	powerstrip_14.bmp	rollerskates_5.bmp	rollerskates_8.bmp	25	1	1	1	1	PSSYCHOLOGIE
FAUST_1[2014-06]	24	3	21	2	3	2	2	2	2	1	2494	2	2	1	1163	2	1340	scooter_11.bmp	scooter_8.bmp	scooter_4.bmp	camera_4.bmp	scooter_10.bmp	scooter_4.bmp	scooter_5.bmp	25	1	1	1	1	PSSYCHOLOGIE
FAUST_1[2014-06]	24	3	30	2	3	1	1	2	2	1	5587	1	1	1	3127	1	1142	watch_3.bmp	socks_4.bmp	watch_7.bmp	socks_13.bmp	socks_4.bmp	socks_12.bmp	socks_10.bmp	25	1	1	1	1	PSSYCHOLOGIE
FAUST_1[2014-06]	24	3	23	2	3	2	1	2	1	0	1407	2	2	1	1233	4	1665	skateboard_3.bmp	glasses_9.bmp	skateboard_16.bmp	glasses_8.bmp	skateboard_16.bmp	glasses_15.bmp	glasses_6.bmp	25	1	1	1	1	PSSYCHOLOGIE
FAUST_1[2014-06]	24	3	28	2	3	1	2	2	2	1	3234	2	2	1	1681	2	1203	jacket_7.bmp	jacket_10.bmp	remote_3.bmp	jacket_6.bmp	jacket_11.bmp	jacket_13.bmp	remote_3.bmp	25	1	1	1	1	PSSYCHOLOGIE
FAUST_1[2014-06]	24	3	17	2	3	2	2	2	2	1	2402	2	2	1	2044	3	1015	orifan_7.bmp	orifan_1.bmp	orifan_14.bmp	orifan_17.bmp	orifan_6.bmp	orifan_1.bmp	chair_5.bmp	25	1	1	1	1	PSSYCHOLOGIE
FAUST_1[2014-06]	24	3	11	2	3	1	1	3	2	1	1115	1	1	1	1955	4	1906	birdhouse_9.bmp	backpack_13.bmp	backpack_12.bmp	backpack_13.bmp	tv_16.bmp	backpack_16.bmp	backpack_6.bmp	25	1	1	1	1	PSSYCHOLOGIE
FAUST_1[2014-06]	24	3	18	2	3	2	1	3	2	1	1366	2	1	0	3126	4	1270	coffee_14.bmp	watergun_7.bmp	trophy_6.bmp	trophy_15.bmp	watergun_7.bmp	trophy_4.bmp	trophy_14.bmp	25	1	1	1	1	PSSYCHOLOGIE
FAUST_1[2014-06]	24	3	31	2	3	1	1	3	2	1	1016	1	1	1	1305	4	1812	bagel_4.bmp	carabiner_5.bmp	carabiner_6.bmp	carabiner_9.bmp	beanbagchair_12.bmp	carabiner_7.bmp	carabiner_6.bmp	25	1	1	1	1	PSSYCHOLOGIE
FAUST_1[2014-06]	24	3	29	2	3	2	1	3	2	1	1285	1	1	1	2586	4	729	flashlight_1.bmp	hairdryer_12.bmp	hairdryer_2.bmp	cellphone_3.bmp	hairdryer_13.bmp	hairdryer_14.bmp	cellphone_3.bmp	25	1	1	1	1	PSSYCHOLOGIE
FAUST_1[2014-06]	24	3	27	2	3	1	1	3	2	1	1033	2	2	1	1549	4	1256	babycrib_9.bmp	ring_12.bmp	iceskates_9.bmp	iceskates_14.bmp	iceskates_5.bmp	iceskates_7.bmp	iceskates_14.bmp	25	1	1	1	1	PSSYCHOLOGIE
FAUST_1[2014-06]	24	3	9	2	3	2	1	3	2	1	1513	1	1	1	2783	4	1127	fan_17.bmp	leatherman_14.bmp	videogamecontroller_2.bmp	videogamecontroller_3.bmp	videogamecontroller_13.bmp	leatherman_14.bmp	videogamecontroller_11.bmp	25	1	1	1	1	PSSYCHOLOGIE
FAUST_1[2014-06]	24	3	32	2	3	1	1	3	2	1	1161	1	1	1	2013	4	1343	saltpeppershake_9.bmp	doorknob_17.bmp	doorknob_10.bmp	doorknob_14.bmp	vase_13.bmp	doorknob_17.bmp	doorknob_7.bmp	25	1	1	1	1	PSSYCHOLOGIE
FAUST_1[2014-06]	24	3	12	2	3	2	1	3	2	1	1098	1	1	1	1875	4	1170	circuitboard_8.bmp	cat_1.bmp	goggle_4.bmp	goggle_9.bmp	goggle_3.bmp	cat_1.bmp	goggle_13.bmp	25	1	1	1	1	PSSYCHOLOGIE
FAUST_1[2014-06]	24	4	2	2	2	1	1	1	2	0	1094	1	2	0	3401	1	2398	Candle17.bmp	Fork17.bmp	Candle17.bmp	Fork9.bmp	Fork7.bmp	Fork8.bmp	Fork9.bmp	25	1	1	1	1	PSSYCHOLOGIE
FAUST_1[2014-06]	24	4	12	2	2	2	1	1	1	1	1533	2	2	1	1853	1	1505	Fudge5.bmp	Fudge5.bmp	Lipstick2.bmp	Lipstick3.bmp	Lipstick7.bmp	Fudge5.bmp	Lipstick9.bmp	25	1	1	1	1	PSSYCHOLOGIE
FAUST_1[2014-06]	24	4	17	2	2	1	2	1	1	1	1306	2	2	1	2013	4	989	Car13.bmp	Car21.bmp	Brocolli4.bmp	Car14.bmp	Brocolli4.bmp	Car7.bmp	Car13.bmp	25	1	1	1	1	PSSYCHOLOGIE
FAUST_1[2014-06]	24	4	20	2	2	2	2	1	1	1	1892	1	1	1	2353	4	1140	Screw10.bmp	Screw10.bmp	Screw18.bmp	Varnish5.bmp	Screw16.bmp	Screw10.bmp	Screw13.bmp	25	1	1	1	1	PSSYCHOLOGIE
FAUST_1[2014-06]	24	4	6	2	2	1	1	1	1	1	3809	1	2	0	2327	4	1020	Bun5.bmp	Onion19.bmp	Onion18.bmp	Bun5.bmp	Onion7.bmp	Onion13.bmp	Onion7.bmp	25	1	1	1	1	PSSYCHOLOGIE
FAUST_1[2014-06]	24	4	14	2	2	2	1	1	1	1	1198	1	1	1	1868	4	966	Man2.bmp	Apple24.bmp	Apple10.bmp	Man2.bmp	Apple18.bmp	Man2.bmp	Apple21.bmp	25	1	1	1	1	PSSYCHOLOGIE
FAUST_1[2014-06]	24	4	21	2	2	1	2	1	1	1	1102	1	1	1	1949	4	1247	Scissors11.bmp	Scissors1.bmp	Tomato18.bmp	Scissors14.bmp	Tomato18.bmp	Scissors3.bmp	Scissors11.bmp	25	1	1	1	1	PSSYCHOLOGIE
FAUST_1[2014-06]	24	4	22	2	2	2	2	1	1	1	4179	1	1	1	1754	3	1719	Leaf13.bmp	Leaf13.bmp	Leaf21.bmp	Leaf13.bmp	Leaf22.bmp	Leaf10.bmp	Biscuit4.bmp	25	1	1	1	1	PSSYCHOLOGIE
FAUST_1[2014-06]	24	4	8	2	2	1	1	2	2	1	2589	2	2	1	1547	1	1375	Stapler9.bmp	Feather14.bmp	Feather11.bmp	Stapler7.bmp	Feather18.bmp	Feather2.bmp	Feather18.bmp	25	1	1	1	1	PSSYCHOLOGIE
FAUST_1[2014-06]	24	4	11	2	2	2	1	2	1	0	1426	1	2	0	3364	4	1287	Shell18.bmp	Key9.bmp	Key11.bmp	Shell17.bmp	Key13.bmp	Key5.bmp	Shell17.bmp	25	1	1	1	1	PSSYCHOLOGIE
FAUST_1[2014-06]	24	4	19	2	2	1	2	2	1	0	1209	2	2	1	2275	4	946	Button20.bmp	Button14.bmp	Button10.bmp	Jigsaw17.bmp	Button3.bmp	Jigsaw17.bmp	Button18.bmp	25	1	1	1	1	PSSYCHOLOGIE
FAUST_1[2014-06]	24	4	13	2	2	2	2	2	1	0	1380	2	2	1	1067	3	1574	Star17.bmp	Star19.bmp	Star1.bmp	Plug18.bmp	Star2.bmp	Star7.bmp	Star2.bmp	25	1	1	1	1	PSSYCHOLOGIE
FAUST_1[2014-06]	24	4	5	2	2	1	1	2	2	1	2319	2	2	1	2293	4	909	Strawberry21.bmp	Nut19.bmp	Nut2.bmp	Strawberry3.bmp	Nut11.bmp	Nut18.bmp	Nut19.bmp	25	1	1	1	1	PSSYCHOLOGIE
FAUST_1[2014-06]	24	4	3	2	2	2	1	2	1	0	1253	2	2	1	1615	4	1310	Flower13.bmp	Flower17.bmp	Keys8.bmp	Keys6.bmp	Flower17.bmp	Keys7.bmp	Keys9.bmp	25	1	1	1	1	PSSYCHOLOGIE
FAUST_1[2014-06]	24	4	15	2	2	1	2	2	2	1	3056	2	2	1	2295	3	1498	Pen20.bmp	Pen5.bmp	Ginger17.bmp	Pen1.bmp	Pen10.bmp	Ginger17.bmp	Pen17.bmp	25	1	1	1	1	PSSYCHOLOGIE
FAUST_1[2014-06]	24	4	16	2	2	2	2	2	1	0	3280	1	1	1	2834	2	1408	Mushroom7.bmp	Mushroom18.bmp	Mushroom25.bmp	Mushroom14.bmp	Bag5.bmp	Mushroom25.bmp	Mushroom6.bmp	25	1	1	1	1	PSSYCHOLOGIE
FAUST_1[2014-06]	24	4	7	2	2	1	1	3	2	1	1125	1	1	1	2152	4	1228	Hanger15.bmp	Daff1.bmp	Daff21.bmp	Daff3.bmp	Glass16.bmp	Daff9.bmp	Daff21.bmp	25	1	1	1	1	PSSYCHOLOGIE
FAUST_1[2014-06]	24	4	9	2	2	2	1	3	2	1	1654	2	2	1	2769	4	1662	Cake7.bmp	Coins14.bmp	Pear18.bmp	Pear15.bmp	Coins14.bmp	Pear4.bmp	Pear16.bmp	25	1	1	1	1	PSSYCHOLOGIE
FAUST_1[2014-06]	24	4	4	2	2	1	1	3	2	1	1408	1	1	1	1206	4	1157	Chocolate9.bmp	Bracelet18.bmp	Present14.bmp	Bracelet5.bmp	Bracelet2.bmp	Bracelet5.bmp	Bracelet1.bmp	25	1	1	1	1	PSSYCHOLOGIE
FAUST_1[2014-06]	24	4	18	2	2	2	1	3	2	1	932	2	2	1	2429	4	885	String6.bmp	Holly17.bmp	Toothbrush1.bmp	Holly20.bmp	Toothbrush1.bmp	Holly3.bmp	Holly14.bmp	25	1	1	1	1	PSSYCHOLOGIE
FAUST_1[2014-06]	24	4	10	2	2	1	1	3	2	1	951	2	2	1	2253	4	1028	Umbrella19.bmp	Sweet1.bmp	Sweet18.bmp	Sweet22.bmp	Chilli11.bmp	Sweet10.bmp	Sweet1.bmp	25	1	1	1	1	PSSYCHOLOGIE
FAUST_1[2014-06]	24	4	1	2	2	2	1	3	2	1	1029	2	2	1	2486	4	1137	Paperclip14.bmp	Hand1.bmp	Swirl13.bmp	Swirl23.bmp	Hand1.bmp	Swirl1.bmp	Swirl5.bmp	25	1	1	1	1	PSSYCHOLOGIE
