experiment	subject	block	trial	order	material	repeated	related	probetype	response	correct	rt	math_response	math_correctresponse	math_correct	math_rt	confidence	confidence_rt	probe	item1	item2	item3	item4	item5	item6	age	sex	handedness	color_vision	mother_tongue	occupation
FAUST_1[2014-06]	25	1	22	3	2	1	1	1	1	1	1747	1	1	1	1753	4	1530	Candle20.bmp	Sweet22.bmp	Sweet10.bmp	Candle20.bmp	Sweet10.bmp	Sweet18.bmp	Sweet1.bmp	18	2	1	1	1	DEUTSCHEUNDMEDIENKULTURWISSENSCHAFTE
FAUST_1[2014-06]	25	1	8	3	2	2	1	1	1	1	1204	2	2	1	1594	4	1730	Bun22.bmp	Shell9.bmp	Bun22.bmp	Shell5.bmp	Shell17.bmp	Shell18.bmp	Bun22.bmp	18	2	1	1	1	DEUTSCHEUNDMEDIENKULTURWISSENSCHAFTE
FAUST_1[2014-06]	25	1	21	3	2	1	2	1	1	1	1278	1	1	1	2488	4	1511	Tomato12.bmp	Biscuit4.bmp	Tomato2.bmp	Tomato5.bmp	Tomato12.bmp	Tomato18.bmp	Biscuit4.bmp	18	2	1	1	1	DEUTSCHEUNDMEDIENKULTURWISSENSCHAFTE
FAUST_1[2014-06]	25	1	19	3	2	2	2	1	1	1	1859	2	2	1	1762	4	1405	Bag5.bmp	Bag5.bmp	Bag4.bmp	Bag5.bmp	Bag21.bmp	Fork14.bmp	Bag3.bmp	18	2	1	1	1	DEUTSCHEUNDMEDIENKULTURWISSENSCHAFTE
FAUST_1[2014-06]	25	1	10	3	2	1	1	1	2	0	1774	2	2	1	3020	4	1000	Feather14.bmp	Hand17.bmp	Hand1.bmp	Feather14.bmp	Hand13.bmp	Hand10.bmp	Hand17.bmp	18	2	1	1	1	DEUTSCHEUNDMEDIENKULTURWISSENSCHAFTE
FAUST_1[2014-06]	25	1	18	3	2	2	1	1	1	1	1500	2	2	1	2965	4	1693	Button20.bmp	Button20.bmp	Glass12.bmp	Glass16.bmp	Button20.bmp	Glass4.bmp	Glass3.bmp	18	2	1	1	1	DEUTSCHEUNDMEDIENKULTURWISSENSCHAFTE
FAUST_1[2014-06]	25	1	12	3	2	1	2	1	1	1	1808	2	1	0	3011	4	2555	Man2.bmp	Keys5.bmp	Man10.bmp	Man2.bmp	Man4.bmp	Keys5.bmp	Man24.bmp	18	2	1	1	1	DEUTSCHEUNDMEDIENKULTURWISSENSCHAFTE
FAUST_1[2014-06]	25	1	9	3	2	2	2	1	1	1	2248	2	2	1	1745	4	1397	Fudge20.bmp	Fudge20.bmp	Fudge17.bmp	Fudge8.bmp	Fudge5.bmp	Fudge20.bmp	Key5.bmp	18	2	1	1	1	DEUTSCHEUNDMEDIENKULTURWISSENSCHAFTE
FAUST_1[2014-06]	25	1	11	3	2	1	1	2	1	0	1494	1	1	1	1819	4	1659	Nut18.bmp	Nut21.bmp	Brocolli4.bmp	Brocolli9.bmp	Brocolli14.bmp	Brocolli10.bmp	Brocolli14.bmp	18	2	1	1	1	DEUTSCHEUNDMEDIENKULTURWISSENSCHAFTE
FAUST_1[2014-06]	25	1	14	3	2	2	1	2	1	0	1546	1	1	1	1778	4	1507	Hanger2.bmp	Mushroom25.bmp	Hanger12.bmp	Mushroom18.bmp	Mushroom7.bmp	Hanger12.bmp	Mushroom6.bmp	18	2	1	1	1	DEUTSCHEUNDMEDIENKULTURWISSENSCHAFTE
FAUST_1[2014-06]	25	1	17	3	2	1	2	2	1	0	1711	2	2	1	1688	4	1496	Coins12.bmp	Coins3.bmp	Coins10.bmp	Coins14.bmp	Cake25.bmp	Coins8.bmp	Cake25.bmp	18	2	1	1	1	DEUTSCHEUNDMEDIENKULTURWISSENSCHAFTE
FAUST_1[2014-06]	25	1	6	3	2	2	2	2	1	0	2161	1	1	1	2848	4	1902	Ginger5.bmp	Ginger10.bmp	Ginger3.bmp	Ginger15.bmp	Ginger10.bmp	Bracelet5.bmp	Ginger17.bmp	18	2	1	1	1	DEUTSCHEUNDMEDIENKULTURWISSENSCHAFTE
FAUST_1[2014-06]	25	1	13	3	2	1	1	2	2	1	4164	1	1	1	1802	3	1425	Car7.bmp	Pear16.bmp	Pear7.bmp	Pear15.bmp	Pear16.bmp	Pear4.bmp	Car12.bmp	18	2	1	1	1	DEUTSCHEUNDMEDIENKULTURWISSENSCHAFTE
FAUST_1[2014-06]	25	1	4	3	2	2	1	2	1	0	1380	2	2	1	1807	2	2793	Leaf22.bmp	Leaf13.bmp	Star19.bmp	Leaf13.bmp	Star2.bmp	Star17.bmp	Star1.bmp	18	2	1	1	1	DEUTSCHEUNDMEDIENKULTURWISSENSCHAFTE
FAUST_1[2014-06]	25	1	2	3	2	1	2	2	1	0	1803	2	2	1	2661	3	2249	Daff1.bmp	Apple10.bmp	Daff9.bmp	Daff21.bmp	Daff3.bmp	Daff22.bmp	Apple10.bmp	18	2	1	1	1	DEUTSCHEUNDMEDIENKULTURWISSENSCHAFTE
FAUST_1[2014-06]	25	1	16	3	2	2	2	2	1	0	2672	2	2	1	3272	4	1446	Screw18.bmp	Jigsaw10.bmp	Screw13.bmp	Screw16.bmp	Screw10.bmp	Screw9.bmp	Screw16.bmp	18	2	1	1	1	DEUTSCHEUNDMEDIENKULTURWISSENSCHAFTE
FAUST_1[2014-06]	25	1	7	3	2	1	1	3	2	1	2177	2	2	1	2158	4	1935	Onion19.bmp	Plug4.bmp	Flower17.bmp	Flower3.bmp	Flower13.bmp	Flower3.bmp	Flower18.bmp	18	2	1	1	1	DEUTSCHEUNDMEDIENKULTURWISSENSCHAFTE
FAUST_1[2014-06]	25	1	1	3	2	2	1	3	2	1	1490	1	1	1	1370	4	1926	String2.bmp	Paperclip6.bmp	Holly20.bmp	Holly17.bmp	Holly3.bmp	Holly14.bmp	Paperclip6.bmp	18	2	1	1	1	DEUTSCHEUNDMEDIENKULTURWISSENSCHAFTE
FAUST_1[2014-06]	25	1	20	3	2	1	1	3	2	1	1339	1	1	1	2253	4	4390	Stapler9.bmp	Toothbrush10.bmp	Toothbrush9.bmp	Toothbrush6.bmp	Swirl13.bmp	Toothbrush9.bmp	Toothbrush12.bmp	18	2	1	1	1	DEUTSCHEUNDMEDIENKULTURWISSENSCHAFTE
FAUST_1[2014-06]	25	1	15	3	2	2	1	3	2	1	1940	1	1	1	2343	4	1594	Chocolate24.bmp	Pen5.bmp	Lipstick9.bmp	Lipstick15.bmp	Lipstick7.bmp	Lipstick2.bmp	Pen5.bmp	18	2	1	1	1	DEUTSCHEUNDMEDIENKULTURWISSENSCHAFTE
FAUST_1[2014-06]	25	1	3	3	2	1	1	3	2	1	2649	2	2	1	1775	4	2892	Strawberry21.bmp	Scissors11.bmp	Varnish11.bmp	Varnish5.bmp	Varnish17.bmp	Varnish14.bmp	Varnish17.bmp	18	2	1	1	1	DEUTSCHEUNDMEDIENKULTURWISSENSCHAFTE
FAUST_1[2014-06]	25	1	5	3	2	2	1	3	2	1	1116	1	1	1	1589	4	1275	Present17.bmp	Chilli14.bmp	Umbrella17.bmp	Umbrella6.bmp	Umbrella7.bmp	Umbrella19.bmp	Chilli14.bmp	18	2	1	1	1	DEUTSCHEUNDMEDIENKULTURWISSENSCHAFTE
FAUST_1[2014-06]	25	2	31	3	3	1	1	1	1	1	1696	1	1	1	1547	4	877	tv_8.bmp	tv_8.bmp	camera_4.bmp	camera_9.bmp	camera_3.bmp	camera_9.bmp	camera_7.bmp	18	2	1	1	1	DEUTSCHEUNDMEDIENKULTURWISSENSCHAFTE
FAUST_1[2014-06]	25	2	12	3	3	2	1	1	1	1	1059	1	1	1	2075	4	848	ring_12.bmp	goggle_13.bmp	ring_12.bmp	goggle_1.bmp	goggle_4.bmp	goggle_9.bmp	ring_12.bmp	18	2	1	1	1	DEUTSCHEUNDMEDIENKULTURWISSENSCHAFTE
FAUST_1[2014-06]	25	2	15	3	3	1	2	1	1	1	1087	1	1	1	2232	4	1020	saltpeppershake_2.bmp	saltpeppershake_2.bmp	saltpeppershake_12.bmp	cat_9.bmp	saltpeppershake_17.bmp	saltpeppershake_9.bmp	cat_9.bmp	18	2	1	1	1	DEUTSCHEUNDMEDIENKULTURWISSENSCHAFTE
FAUST_1[2014-06]	25	2	22	3	3	2	2	1	1	1	1202	1	1	1	2953	4	3702	jacket_13.bmp	watch_8.bmp	jacket_13.bmp	jacket_10.bmp	jacket_6.bmp	jacket_11.bmp	jacket_13.bmp	18	2	1	1	1	DEUTSCHEUNDMEDIENKULTURWISSENSCHAFTE
FAUST_1[2014-06]	25	2	18	3	3	1	1	1	1	1	1175	1	1	1	1801	4	1334	bowlingpin_11.bmp	cheesegrater_14.bmp	cheesegrater_5.bmp	cheesegrater_15.bmp	cheesegrater_11.bmp	bowlingpin_11.bmp	cheesegrater_14.bmp	18	2	1	1	1	DEUTSCHEUNDMEDIENKULTURWISSENSCHAFTE
FAUST_1[2014-06]	25	2	20	3	3	2	1	1	1	1	3898	1	1	1	2001	4	1444	carriage_2.bmp	rollerskates_5.bmp	carriage_2.bmp	rollerskates_7.bmp	rollerskates_17.bmp	rollerskates_8.bmp	carriage_2.bmp	18	2	1	1	1	DEUTSCHEUNDMEDIENKULTURWISSENSCHAFTE
FAUST_1[2014-06]	25	2	26	3	3	1	2	1	1	1	4202	1	2	0	2970	4	1248	saddle_15.bmp	saddle_8.bmp	saddle_3.bmp	remote_14.bmp	saddle_15.bmp	remote_14.bmp	saddle_5.bmp	18	2	1	1	1	DEUTSCHEUNDMEDIENKULTURWISSENSCHAFTE
FAUST_1[2014-06]	25	2	10	3	3	2	2	1	1	1	1128	1	1	1	1503	4	1353	videogamecontroller_2.bmp	videogamecontroller_2.bmp	easteregg_16.bmp	videogamecontroller_3.bmp	videogamecontroller_5.bmp	videogamecontroller_13.bmp	videogamecontroller_2.bmp	18	2	1	1	1	DEUTSCHEUNDMEDIENKULTURWISSENSCHAFTE
FAUST_1[2014-06]	25	2	16	3	3	1	1	1	1	1	1385	1	1	1	2533	4	914	sofa_6.bmp	flashlight_2.bmp	sofa_6.bmp	flashlight_12.bmp	flashlight_13.bmp	flashlight_12.bmp	flashlight_17.bmp	18	2	1	1	1	DEUTSCHEUNDMEDIENKULTURWISSENSCHAFTE
FAUST_1[2014-06]	25	2	8	3	3	2	1	1	1	1	1344	1	1	1	1710	4	1322	plant_14.bmp	guitar_10.bmp	guitar_7.bmp	plant_14.bmp	guitar_14.bmp	guitar_5.bmp	plant_14.bmp	18	2	1	1	1	DEUTSCHEUNDMEDIENKULTURWISSENSCHAFTE
FAUST_1[2014-06]	25	2	28	3	3	1	2	1	1	1	1072	2	2	1	1861	4	922	backpack_13.bmp	backpack_6.bmp	socks_4.bmp	backpack_13.bmp	socks_4.bmp	backpack_16.bmp	backpack_12.bmp	18	2	1	1	1	DEUTSCHEUNDMEDIENKULTURWISSENSCHAFTE
FAUST_1[2014-06]	25	2	2	3	3	2	2	1	1	1	1452	1	1	1	1271	4	1514	scooter_10.bmp	scooter_11.bmp	babycrib_5.bmp	scooter_10.bmp	scooter_4.bmp	scooter_8.bmp	scooter_10.bmp	18	2	1	1	1	DEUTSCHEUNDMEDIENKULTURWISSENSCHAFTE
FAUST_1[2014-06]	25	2	13	3	3	1	1	2	1	0	1938	2	2	1	2579	4	1620	shredder_5.bmp	windchime_3.bmp	windchime_10.bmp	windchime_6.bmp	windchime_15.bmp	windchime_10.bmp	shredder_7.bmp	18	2	1	1	1	DEUTSCHEUNDMEDIENKULTURWISSENSCHAFTE
FAUST_1[2014-06]	25	2	30	3	3	2	1	2	2	1	1302	1	1	1	1678	4	1063	trophy_4.bmp	bagel_4.bmp	bagel_12.bmp	trophy_16.bmp	bagel_10.bmp	bagel_14.bmp	trophy_16.bmp	18	2	1	1	1	DEUTSCHEUNDMEDIENKULTURWISSENSCHAFTE
FAUST_1[2014-06]	25	2	6	3	3	1	2	2	1	0	2940	2	2	1	1751	4	1287	hammer_15.bmp	glasses_9.bmp	hammer_8.bmp	glasses_9.bmp	hammer_6.bmp	hammer_17.bmp	hammer_11.bmp	18	2	1	1	1	DEUTSCHEUNDMEDIENKULTURWISSENSCHAFTE
FAUST_1[2014-06]	25	2	21	3	3	2	2	2	1	0	3045	1	2	0	1754	4	2019	lawnmower_15.bmp	lawnmower_3.bmp	lawnmower_8.bmp	lawnmower_13.bmp	lawnmower_3.bmp	lawnmower_17.bmp	router_7.bmp	18	2	1	1	1	DEUTSCHEUNDMEDIENKULTURWISSENSCHAFTE
FAUST_1[2014-06]	25	2	7	3	3	1	1	2	2	1	6393	2	1	0	2675	3	2213	highchair_15.bmp	trumpet_17.bmp	trumpet_3.bmp	trumpet_6.bmp	trumpet_5.bmp	highchair_10.bmp	trumpet_17.bmp	18	2	1	1	1	DEUTSCHEUNDMEDIENKULTURWISSENSCHAFTE
FAUST_1[2014-06]	25	2	32	3	3	2	1	2	2	1	1769	2	2	1	2554	4	846	abacus_6.bmp	fan_10.bmp	fan_15.bmp	abacus_7.bmp	fan_1.bmp	abacus_7.bmp	fan_11.bmp	18	2	1	1	1	DEUTSCHEUNDMEDIENKULTURWISSENSCHAFTE
FAUST_1[2014-06]	25	2	29	3	3	1	2	2	2	1	1360	2	2	1	1162	4	1505	cake_3.bmp	cake_4.bmp	cake_14.bmp	cake_1.bmp	vase_6.bmp	cake_5.bmp	vase_6.bmp	18	2	1	1	1	DEUTSCHEUNDMEDIENKULTURWISSENSCHAFTE
FAUST_1[2014-06]	25	2	17	3	3	2	2	2	2	1	1879	1	1	1	1505	4	1218	powerstrip_7.bmp	powerstrip_8.bmp	powerstrip_10.bmp	hairdryer_2.bmp	powerstrip_14.bmp	powerstrip_13.bmp	powerstrip_8.bmp	18	2	1	1	1	DEUTSCHEUNDMEDIENKULTURWISSENSCHAFTE
FAUST_1[2014-06]	25	2	11	3	3	1	1	2	2	1	5145	2	2	1	2310	4	1684	shoe_9.bmp	shoe_13.bmp	parfait_15.bmp	parfait_1.bmp	parfait_13.bmp	parfait_1.bmp	parfait_11.bmp	18	2	1	1	1	DEUTSCHEUNDMEDIENKULTURWISSENSCHAFTE
FAUST_1[2014-06]	25	2	23	3	3	2	1	2	2	1	3446	1	1	1	2095	4	1716	coffee_14.bmp	horseshoe_5.bmp	coffee_1.bmp	horseshoe_4.bmp	horseshoe_12.bmp	horseshoe_6.bmp	coffee_1.bmp	18	2	1	1	1	DEUTSCHEUNDMEDIENKULTURWISSENSCHAFTE
FAUST_1[2014-06]	25	2	4	3	3	1	2	2	2	1	2707	2	2	1	1875	4	1186	pasta_10.bmp	pasta_11.bmp	pasta_15.bmp	mic_2.bmp	pasta_9.bmp	pasta_13.bmp	mic_2.bmp	18	2	1	1	1	DEUTSCHEUNDMEDIENKULTURWISSENSCHAFTE
FAUST_1[2014-06]	25	2	14	3	3	2	2	2	2	1	2120	1	1	1	1331	4	1621	doorknob_7.bmp	doorknob_2.bmp	doorknob_17.bmp	doorknob_10.bmp	garbagecan_10.bmp	doorknob_17.bmp	doorknob_14.bmp	18	2	1	1	1	DEUTSCHEUNDMEDIENKULTURWISSENSCHAFTE
FAUST_1[2014-06]	25	2	27	3	3	1	1	3	2	1	977	2	2	1	1328	4	1146	cellphone_8.bmp	watergun_3.bmp	watergun_7.bmp	watergun_15.bmp	laptop_16.bmp	watergun_15.bmp	watergun_9.bmp	18	2	1	1	1	DEUTSCHEUNDMEDIENKULTURWISSENSCHAFTE
FAUST_1[2014-06]	25	2	19	3	3	2	1	3	2	1	1422	2	2	1	2548	4	1182	tricycle_10.bmp	iceskates_16.bmp	sink_1.bmp	iceskates_7.bmp	iceskates_5.bmp	sink_1.bmp	iceskates_9.bmp	18	2	1	1	1	DEUTSCHEUNDMEDIENKULTURWISSENSCHAFTE
FAUST_1[2014-06]	25	2	3	3	3	1	1	3	2	1	2101	1	1	1	1180	4	2068	rusdoll_5.bmp	circuitboard_4.bmp	circuitboard_16.bmp	turtle_2.bmp	circuitboard_13.bmp	circuitboard_8.bmp	circuitboard_4.bmp	18	2	1	1	1	DEUTSCHEUNDMEDIENKULTURWISSENSCHAFTE
FAUST_1[2014-06]	25	2	9	3	3	2	1	3	2	1	1220	1	2	0	2855	4	1378	printer_5.bmp	carabiner_7.bmp	trunk_3.bmp	carabiner_7.bmp	trunk_5.bmp	trunk_1.bmp	trunk_2.bmp	18	2	1	1	1	DEUTSCHEUNDMEDIENKULTURWISSENSCHAFTE
FAUST_1[2014-06]	25	2	25	3	3	1	1	3	2	1	939	1	1	1	1190	4	929	leatherman_7.bmp	beanbagchair_14.bmp	beanbagchair_12.bmp	skateboard_15.bmp	beanbagchair_3.bmp	beanbagchair_17.bmp	beanbagchair_12.bmp	18	2	1	1	1	DEUTSCHEUNDMEDIENKULTURWISSENSCHAFTE
FAUST_1[2014-06]	25	2	1	3	3	2	1	3	2	1	1529	2	2	1	2060	4	1256	birdhouse_7.bmp	wig_12.bmp	doorknocker_14.bmp	doorknocker_5.bmp	wig_12.bmp	doorknocker_4.bmp	doorknocker_2.bmp	18	2	1	1	1	DEUTSCHEUNDMEDIENKULTURWISSENSCHAFTE
FAUST_1[2014-06]	25	2	24	3	3	1	1	3	2	1	1189	2	2	1	1598	4	1107	speaker_17.bmp	orifan_17.bmp	orifan_1.bmp	orifan_7.bmp	orifan_6.bmp	orifan_1.bmp	hairbrush_17.bmp	18	2	1	1	1	DEUTSCHEUNDMEDIENKULTURWISSENSCHAFTE
FAUST_1[2014-06]	25	2	5	3	3	2	1	3	2	1	1450	2	1	0	2914	4	1220	cherubstatue_5.bmp	chair_5.bmp	chair_2.bmp	glove_8.bmp	chair_3.bmp	chair_16.bmp	glove_8.bmp	18	2	1	1	1	DEUTSCHEUNDMEDIENKULTURWISSENSCHAFTE
FAUST_1[2014-06]	25	3	19	3	1	1	1	1	1	1	865	1	1	1	1751	4	883	PIZZA	handbremse	lenkrad	pizza	handbremse	kupplung	rückspiegel	18	2	1	1	1	DEUTSCHEUNDMEDIENKULTURWISSENSCHAFTE
FAUST_1[2014-06]	25	3	27	3	1	2	1	1	1	1	1122	2	2	1	2052	4	2298	GABEL	mozart	chopin	gabel	vivaldi	gabel	brahms	18	2	1	1	1	DEUTSCHEUNDMEDIENKULTURWISSENSCHAFTE
FAUST_1[2014-06]	25	3	12	3	1	1	2	1	1	1	1294	1	1	1	1903	4	1183	ZIRKUS	theater	kino	dackel	oper	dackel	zirkus	18	2	1	1	1	DEUTSCHEUNDMEDIENKULTURWISSENSCHAFTE
FAUST_1[2014-06]	25	3	31	3	1	2	2	1	1	1	1370	2	2	1	2276	4	1896	STUNDE	stunde	minute	stunde	jahr	sekunde	schuppen	18	2	1	1	1	DEUTSCHEUNDMEDIENKULTURWISSENSCHAFTE
FAUST_1[2014-06]	25	3	23	3	1	1	1	1	1	1	2467	2	2	1	2845	1	872	KLARINETTE	dollar	mark	klarinette	mark	euro	pfennig	18	2	1	1	1	DEUTSCHEUNDMEDIENKULTURWISSENSCHAFTE
FAUST_1[2014-06]	25	3	10	3	1	2	1	1	1	1	1214	1	1	1	1881	4	1364	DONAU	donau	veilchen	tulpe	donau	nelke	rose	18	2	1	1	1	DEUTSCHEUNDMEDIENKULTURWISSENSCHAFTE
FAUST_1[2014-06]	25	3	14	3	1	1	2	1	1	1	1114	2	2	1	1799	4	1982	LIDSCHATTEN	rouge	viereck	lippenstift	kajal	viereck	lidschatten	18	2	1	1	1	DEUTSCHEUNDMEDIENKULTURWISSENSCHAFTE
FAUST_1[2014-06]	25	3	32	3	1	2	2	1	1	1	1110	2	1	0	1879	4	914	FÜLLER	kugelschreiber	bleistift	füller	dinkel	füller	buntstift	18	2	1	1	1	DEUTSCHEUNDMEDIENKULTURWISSENSCHAFTE
FAUST_1[2014-06]	25	3	5	3	1	1	1	1	1	1	3881	1	1	1	1585	3	2196	MAGEN	dämon	magen	werwolf	dämon	zombie	hexe	18	2	1	1	1	DEUTSCHEUNDMEDIENKULTURWISSENSCHAFTE
FAUST_1[2014-06]	25	3	7	3	1	2	1	1	1	1	1419	1	1	1	1630	4	1184	GESAMTSCHULE	gesamtschule	haschisch	cannabis	heroin	gesamtschule	opium	18	2	1	1	1	DEUTSCHEUNDMEDIENKULTURWISSENSCHAFTE
FAUST_1[2014-06]	25	3	9	3	1	1	2	1	2	0	1281	2	2	1	2134	4	1003	ERDKUNDE	physik	mathematik	biologie	bombe	erdkunde	bombe	18	2	1	1	1	DEUTSCHEUNDMEDIENKULTURWISSENSCHAFTE
FAUST_1[2014-06]	25	3	17	3	1	2	2	1	1	1	1164	1	1	1	1624	4	1034	RADIO	buch	zeitung	radio	fernsehen	banane	radio	18	2	1	1	1	DEUTSCHEUNDMEDIENKULTURWISSENSCHAFTE
FAUST_1[2014-06]	25	3	11	3	1	1	1	2	2	1	999	2	2	1	1421	4	1406	AUSTRALIEN	südamerika	bronze	eisen	gold	bronze	messing	18	2	1	1	1	DEUTSCHEUNDMEDIENKULTURWISSENSCHAFTE
FAUST_1[2014-06]	25	3	2	3	1	2	1	2	2	1	994	1	1	1	2100	4	1286	SCHWEIZ	stuhl	italien	tisch	regal	sofa	italien	18	2	1	1	1	DEUTSCHEUNDMEDIENKULTURWISSENSCHAFTE
FAUST_1[2014-06]	25	3	26	3	1	1	2	2	2	1	1112	2	1	0	2003	4	874	NUDELHOLZ	zug	pfannenwender	küchenwaage	backform	backblech	zug	18	2	1	1	1	DEUTSCHEUNDMEDIENKULTURWISSENSCHAFTE
FAUST_1[2014-06]	25	3	1	3	1	2	2	2	2	1	1277	2	2	1	2138	4	1632	HELIUM	kohlenstoff	sauerstoff	kohlenstoff	wasserstoff	stickstoff	gin	18	2	1	1	1	DEUTSCHEUNDMEDIENKULTURWISSENSCHAFTE
FAUST_1[2014-06]	25	3	29	3	1	1	1	2	2	1	992	1	1	1	1227	4	1710	FLASCHE	hammer	becher	bohrer	hammer	meißel	säge	18	2	1	1	1	DEUTSCHEUNDMEDIENKULTURWISSENSCHAFTE
FAUST_1[2014-06]	25	3	24	3	1	2	1	2	2	1	1121	1	1	1	2602	4	779	HANNOVER	berlin	fuß	hand	berlin	arm	kopf	18	2	1	1	1	DEUTSCHEUNDMEDIENKULTURWISSENSCHAFTE
FAUST_1[2014-06]	25	3	21	3	1	1	2	2	2	1	1064	1	1	1	1141	4	1154	WESPE	tempel	mücke	biene	tempel	ameise	hummel	18	2	1	1	1	DEUTSCHEUNDMEDIENKULTURWISSENSCHAFTE
FAUST_1[2014-06]	25	3	6	3	1	2	2	2	2	1	1135	2	2	1	2201	4	1702	SKIFAHREN	golf	tennis	schwimmen	hören	fußball	tennis	18	2	1	1	1	DEUTSCHEUNDMEDIENKULTURWISSENSCHAFTE
FAUST_1[2014-06]	25	3	28	3	1	1	1	2	2	1	1065	1	1	1	1949	4	1095	GEPARD	leopard	amsel	schwalbe	taube	fink	taube	18	2	1	1	1	DEUTSCHEUNDMEDIENKULTURWISSENSCHAFTE
FAUST_1[2014-06]	25	3	30	3	1	2	1	2	2	1	914	1	1	1	1536	4	1324	BUCHE	eiche	jacke	hemd	eiche	hose	rock	18	2	1	1	1	DEUTSCHEUNDMEDIENKULTURWISSENSCHAFTE
FAUST_1[2014-06]	25	3	25	3	1	1	2	2	2	1	1236	2	2	1	2311	4	1147	OZEAN	teich	grippe	see	meer	grippe	fluss	18	2	1	1	1	DEUTSCHEUNDMEDIENKULTURWISSENSCHAFTE
FAUST_1[2014-06]	25	3	3	3	1	2	2	2	2	1	1402	2	2	1	1986	4	1506	FOXTROTT	tango	adjektiv	walzer	rumba	tango	chachacha	18	2	1	1	1	DEUTSCHEUNDMEDIENKULTURWISSENSCHAFTE
FAUST_1[2014-06]	25	3	18	3	1	1	1	3	2	1	1567	2	2	1	1813	4	1216	ANGST	horrorfilm	thriller	audi	actionfilm	thriller	komödie	18	2	1	1	1	DEUTSCHEUNDMEDIENKULTURWISSENSCHAFTE
FAUST_1[2014-06]	25	3	15	3	1	2	1	3	2	1	968	2	2	1	1540	4	835	KLEBEBAND	richter	polizist	könig	arzt	lehrer	könig	18	2	1	1	1	DEUTSCHEUNDMEDIENKULTURWISSENSCHAFTE
FAUST_1[2014-06]	25	3	8	3	1	1	1	3	2	1	1670	1	1	1	1781	3	1223	FORELLE	kilometer	meter	meile	nähnadel	meter	zentimeter	18	2	1	1	1	DEUTSCHEUNDMEDIENKULTURWISSENSCHAFTE
FAUST_1[2014-06]	25	3	22	3	1	2	1	3	2	1	2729	-1	1	0	0	4	2232	ONKEL	rot	gelb	blau	seide	lila	seide	18	2	1	1	1	DEUTSCHEUNDMEDIENKULTURWISSENSCHAFTE
FAUST_1[2014-06]	25	3	20	3	1	1	1	3	2	1	942	1	1	1	2290	4	949	ZWILLING	pluto	jupiter	venus	merkur	jupiter	rosmarin	18	2	1	1	1	DEUTSCHEUNDMEDIENKULTURWISSENSCHAFTE
FAUST_1[2014-06]	25	3	4	3	1	2	1	3	2	1	1204	2	2	1	2009	4	1395	MALEN	schnee	diesel	hagel	diesel	nebel	regen	18	2	1	1	1	DEUTSCHEUNDMEDIENKULTURWISSENSCHAFTE
FAUST_1[2014-06]	25	3	13	3	1	1	1	3	2	1	1979	1	1	1	1353	4	1387	LAKRITZ	scrabble	monopoly	backgammon	computer	halma	scrabble	18	2	1	1	1	DEUTSCHEUNDMEDIENKULTURWISSENSCHAFTE
FAUST_1[2014-06]	25	3	16	3	1	2	1	3	2	1	839	1	1	1	2377	4	795	SPINAT	schiff	sachsen	brandenburg	saarland	schiff	thüringen	18	2	1	1	1	DEUTSCHEUNDMEDIENKULTURWISSENSCHAFTE
FAUST_1[2014-06]	25	2	19	3	2	1	1	1	1	1	735	1	1	1	1288	4	1372	Candle1.bmp	Keys9.bmp	Keys7.bmp	Keys6.bmp	Keys8.bmp	Candle1.bmp	Keys8.bmp	18	2	1	1	1	DEUTSCHEUNDMEDIENKULTURWISSENSCHAFTE
FAUST_1[2014-06]	25	2	3	3	2	2	1	1	1	1	1306	2	2	1	2087	4	1218	Paperclip14.bmp	Paperclip14.bmp	Bracelet1.bmp	Paperclip14.bmp	Bracelet8.bmp	Bracelet5.bmp	Bracelet18.bmp	18	2	1	1	1	DEUTSCHEUNDMEDIENKULTURWISSENSCHAFTE
FAUST_1[2014-06]	25	2	18	3	2	1	2	1	1	1	1379	1	1	1	2369	4	1628	Hanger2.bmp	Car14.bmp	Hanger12.bmp	Hanger2.bmp	Car14.bmp	Hanger7.bmp	Hanger15.bmp	18	2	1	1	1	DEUTSCHEUNDMEDIENKULTURWISSENSCHAFTE
FAUST_1[2014-06]	25	2	22	3	2	2	2	1	1	1	997	2	2	1	2245	4	1801	Tomato3.bmp	Tomato3.bmp	Tomato18.bmp	Strawberry14.bmp	Tomato2.bmp	Tomato3.bmp	Tomato5.bmp	18	2	1	1	1	DEUTSCHEUNDMEDIENKULTURWISSENSCHAFTE
FAUST_1[2014-06]	25	2	17	3	2	1	1	1	1	1	1025	2	2	1	2785	4	3301	Varnish14.bmp	Plug8.bmp	Plug4.bmp	Plug6.bmp	Varnish14.bmp	Plug18.bmp	Plug4.bmp	18	2	1	1	1	DEUTSCHEUNDMEDIENKULTURWISSENSCHAFTE
FAUST_1[2014-06]	25	2	9	3	2	2	1	1	1	1	928	1	1	1	1846	4	948	Key13.bmp	Key13.bmp	Umbrella6.bmp	Umbrella21.bmp	Umbrella19.bmp	Key13.bmp	Umbrella7.bmp	18	2	1	1	1	DEUTSCHEUNDMEDIENKULTURWISSENSCHAFTE
FAUST_1[2014-06]	25	2	8	3	2	1	2	1	1	1	961	2	2	1	2313	4	773	Daff9.bmp	Daff9.bmp	Daff21.bmp	Feather14.bmp	Daff1.bmp	Daff3.bmp	Feather14.bmp	18	2	1	1	1	DEUTSCHEUNDMEDIENKULTURWISSENSCHAFTE
FAUST_1[2014-06]	25	2	11	3	2	2	2	1	1	1	1621	1	1	1	1822	4	1141	Brocolli4.bmp	Brocolli4.bmp	Screw18.bmp	Brocolli4.bmp	Brocolli10.bmp	Brocolli19.bmp	Brocolli9.bmp	18	2	1	1	1	DEUTSCHEUNDMEDIENKULTURWISSENSCHAFTE
FAUST_1[2014-06]	25	2	13	3	2	1	1	2	2	1	1695	1	1	1	2275	4	1029	Scissors23.bmp	Mushroom14.bmp	Scissors11.bmp	Mushroom7.bmp	Mushroom6.bmp	Mushroom25.bmp	Mushroom7.bmp	18	2	1	1	1	DEUTSCHEUNDMEDIENKULTURWISSENSCHAFTE
FAUST_1[2014-06]	25	2	14	3	2	2	1	2	1	0	1151	2	2	1	2333	4	2247	Present9.bmp	Toothbrush9.bmp	Toothbrush12.bmp	Present14.bmp	Toothbrush10.bmp	Present14.bmp	Toothbrush1.bmp	18	2	1	1	1	DEUTSCHEUNDMEDIENKULTURWISSENSCHAFTE
FAUST_1[2014-06]	25	2	1	3	2	1	2	2	1	0	1548	2	2	1	2475	3	1865	Man24.bmp	Man4.bmp	Jigsaw14.bmp	Man15.bmp	Man10.bmp	Man2.bmp	Jigsaw14.bmp	18	2	1	1	1	DEUTSCHEUNDMEDIENKULTURWISSENSCHAFTE
FAUST_1[2014-06]	25	2	4	3	2	2	2	2	1	0	1303	1	1	1	1432	4	1295	Biscuit4.bmp	Biscuit17.bmp	Biscuit9.bmp	Biscuit17.bmp	Lipstick2.bmp	Biscuit20.bmp	Biscuit25.bmp	18	2	1	1	1	DEUTSCHEUNDMEDIENKULTURWISSENSCHAFTE
FAUST_1[2014-06]	25	2	7	3	2	1	1	2	2	1	1654	1	1	1	1597	4	1334	Onion19.bmp	Chilli19.bmp	Chilli14.bmp	Chilli12.bmp	Chilli11.bmp	Onion7.bmp	Chilli12.bmp	18	2	1	1	1	DEUTSCHEUNDMEDIENKULTURWISSENSCHAFTE
FAUST_1[2014-06]	25	2	12	3	2	2	1	2	1	0	1606	2	2	1	2105	4	1353	Bun17.bmp	Fudge15.bmp	Bun12.bmp	Fudge8.bmp	Fudge20.bmp	Bun12.bmp	Fudge5.bmp	18	2	1	1	1	DEUTSCHEUNDMEDIENKULTURWISSENSCHAFTE
FAUST_1[2014-06]	25	2	5	3	2	1	2	2	2	1	2567	2	2	1	1705	4	1052	Flower13.bmp	Flower18.bmp	Swirl10.bmp	Flower17.bmp	Flower14.bmp	Swirl10.bmp	Flower3.bmp	18	2	1	1	1	DEUTSCHEUNDMEDIENKULTURWISSENSCHAFTE
FAUST_1[2014-06]	25	2	21	3	2	2	2	2	1	0	1762	1	1	1	1153	4	1968	Pear18.bmp	Pear4.bmp	Sweet25.bmp	Pear16.bmp	Pear15.bmp	Pear7.bmp	Pear15.bmp	18	2	1	1	1	DEUTSCHEUNDMEDIENKULTURWISSENSCHAFTE
FAUST_1[2014-06]	25	2	16	3	2	1	1	3	2	1	1347	2	1	0	1206	4	753	Bag5.bmp	Pen20.bmp	Glass4.bmp	Pen17.bmp	Pen10.bmp	Pen1.bmp	Pen17.bmp	18	2	1	1	1	DEUTSCHEUNDMEDIENKULTURWISSENSCHAFTE
FAUST_1[2014-06]	25	2	6	3	2	2	1	3	2	1	1280	1	1	1	2312	4	808	Shell17.bmp	Star7.bmp	Stapler8.bmp	Stapler9.bmp	Star7.bmp	Stapler10.bmp	Stapler6.bmp	18	2	1	1	1	DEUTSCHEUNDMEDIENKULTURWISSENSCHAFTE
FAUST_1[2014-06]	25	2	10	3	2	1	1	3	2	1	1107	1	1	1	1373	4	1874	Coins3.bmp	Hand1.bmp	Holly11.bmp	Holly20.bmp	Holly17.bmp	Holly3.bmp	Holly11.bmp	18	2	1	1	1	DEUTSCHEUNDMEDIENKULTURWISSENSCHAFTE
FAUST_1[2014-06]	25	2	15	3	2	2	1	3	2	1	998	1	1	1	1381	4	795	Ginger10.bmp	Nut2.bmp	Cake16.bmp	Nut2.bmp	Cake25.bmp	Cake24.bmp	Cake18.bmp	18	2	1	1	1	DEUTSCHEUNDMEDIENKULTURWISSENSCHAFTE
FAUST_1[2014-06]	25	2	20	3	2	1	1	3	2	1	1528	2	2	1	1891	4	1298	Leaf10.bmp	Button3.bmp	String9.bmp	Button3.bmp	Button14.bmp	Button10.bmp	Button18.bmp	18	2	1	1	1	DEUTSCHEUNDMEDIENKULTURWISSENSCHAFTE
FAUST_1[2014-06]	25	2	2	3	2	2	1	3	2	1	1065	2	2	1	2371	4	857	Chocolate5.bmp	Fork9.bmp	Fork17.bmp	Apple24.bmp	Fork7.bmp	Fork14.bmp	Apple24.bmp	18	2	1	1	1	DEUTSCHEUNDMEDIENKULTURWISSENSCHAFTE
FAUST_1[2014-06]	25	3	3	3	3	1	1	1	1	1	2034	2	1	0	1654	4	1369	cake_1.bmp	sink_11.bmp	sink_15.bmp	sink_1.bmp	sink_11.bmp	cake_1.bmp	sink_10.bmp	18	2	1	1	1	DEUTSCHEUNDMEDIENKULTURWISSENSCHAFTE
FAUST_1[2014-06]	25	3	6	3	3	2	1	1	1	1	1651	2	2	1	2175	4	2778	vase_15.bmp	vase_15.bmp	wig_12.bmp	wig_9.bmp	wig_1.bmp	vase_15.bmp	wig_7.bmp	18	2	1	1	1	DEUTSCHEUNDMEDIENKULTURWISSENSCHAFTE
FAUST_1[2014-06]	25	3	4	3	3	1	2	1	2	0	4173	1	1	1	1159	3	1305	saltpeppershake_17.bmp	saltpeppershake_8.bmp	doorknob_10.bmp	saltpeppershake_17.bmp	saltpeppershake_12.bmp	doorknob_10.bmp	saltpeppershake_9.bmp	18	2	1	1	1	DEUTSCHEUNDMEDIENKULTURWISSENSCHAFTE
FAUST_1[2014-06]	25	3	27	3	3	2	2	1	1	1	1009	1	1	1	972	4	1307	tricycle_5.bmp	tricycle_5.bmp	tricycle_10.bmp	tricycle_5.bmp	goggle_4.bmp	tricycle_2.bmp	tricycle_8.bmp	18	2	1	1	1	DEUTSCHEUNDMEDIENKULTURWISSENSCHAFTE
FAUST_1[2014-06]	25	3	15	3	3	1	1	1	1	1	4596	1	1	1	1368	2	2275	fan_1.bmp	hammer_6.bmp	hammer_8.bmp	hammer_11.bmp	hammer_6.bmp	hammer_15.bmp	fan_1.bmp	18	2	1	1	1	DEUTSCHEUNDMEDIENKULTURWISSENSCHAFTE
FAUST_1[2014-06]	25	3	26	3	3	2	1	1	1	1	1805	2	2	1	1440	3	1022	bowlingpin_1.bmp	trophy_14.bmp	trophy_4.bmp	bowlingpin_1.bmp	trophy_15.bmp	bowlingpin_1.bmp	trophy_16.bmp	18	2	1	1	1	DEUTSCHEUNDMEDIENKULTURWISSENSCHAFTE
FAUST_1[2014-06]	25	3	7	3	3	1	2	1	1	1	1313	1	1	1	2092	3	1487	cheesegrater_8.bmp	cheesegrater_15.bmp	cheesegrater_8.bmp	jacket_10.bmp	cheesegrater_14.bmp	jacket_10.bmp	cheesegrater_5.bmp	18	2	1	1	1	DEUTSCHEUNDMEDIENKULTURWISSENSCHAFTE
FAUST_1[2014-06]	25	3	24	3	3	2	2	1	1	1	961	2	2	1	1384	3	898	horseshoe_3.bmp	ring_8.bmp	horseshoe_3.bmp	horseshoe_12.bmp	horseshoe_3.bmp	horseshoe_6.bmp	horseshoe_4.bmp	18	2	1	1	1	DEUTSCHEUNDMEDIENKULTURWISSENSCHAFTE
FAUST_1[2014-06]	25	3	30	3	3	1	1	1	1	1	1410	2	1	0	2092	3	981	highchair_6.bmp	hairbrush_16.bmp	hairbrush_15.bmp	hairbrush_7.bmp	hairbrush_12.bmp	hairbrush_7.bmp	highchair_6.bmp	18	2	1	1	1	DEUTSCHEUNDMEDIENKULTURWISSENSCHAFTE
FAUST_1[2014-06]	25	3	21	3	3	2	1	1	1	1	1034	1	1	1	920	4	1470	router_16.bmp	printer_16.bmp	router_16.bmp	printer_5.bmp	printer_14.bmp	printer_1.bmp	router_16.bmp	18	2	1	1	1	DEUTSCHEUNDMEDIENKULTURWISSENSCHAFTE
FAUST_1[2014-06]	25	3	2	3	3	1	2	1	1	1	1275	1	1	1	1095	4	1024	bagel_14.bmp	shredder_15.bmp	bagel_14.bmp	bagel_4.bmp	bagel_16.bmp	bagel_10.bmp	shredder_15.bmp	18	2	1	1	1	DEUTSCHEUNDMEDIENKULTURWISSENSCHAFTE
FAUST_1[2014-06]	25	3	17	3	3	2	2	1	1	1	1291	1	1	1	1812	3	924	circuitboard_16.bmp	circuitboard_8.bmp	circuitboard_13.bmp	circuitboard_16.bmp	circuitboard_2.bmp	pasta_11.bmp	circuitboard_16.bmp	18	2	1	1	1	DEUTSCHEUNDMEDIENKULTURWISSENSCHAFTE
FAUST_1[2014-06]	25	3	29	3	3	1	1	2	2	1	707	2	2	1	1890	4	1274	orifan_7.bmp	orifan_1.bmp	doorknocker_14.bmp	doorknocker_5.bmp	doorknocker_14.bmp	doorknocker_11.bmp	doorknocker_4.bmp	18	2	1	1	1	DEUTSCHEUNDMEDIENKULTURWISSENSCHAFTE
FAUST_1[2014-06]	25	3	22	3	3	2	1	2	2	1	757	1	1	1	1176	4	1176	trunk_2.bmp	leatherman_10.bmp	trunk_3.bmp	leatherman_5.bmp	leatherman_7.bmp	leatherman_14.bmp	trunk_3.bmp	18	2	1	1	1	DEUTSCHEUNDMEDIENKULTURWISSENSCHAFTE
FAUST_1[2014-06]	25	3	10	3	3	1	2	2	1	0	2264	1	1	1	1775	3	1714	watergun_7.bmp	watergun_15.bmp	watergun_8.bmp	glove_12.bmp	watergun_9.bmp	watergun_3.bmp	glove_12.bmp	18	2	1	1	1	DEUTSCHEUNDMEDIENKULTURWISSENSCHAFTE
FAUST_1[2014-06]	25	3	16	3	3	2	2	2	2	1	6866	2	2	1	1612	2	953	babycrib_6.bmp	babycrib_5.bmp	babycrib_7.bmp	turtle_6.bmp	babycrib_5.bmp	babycrib_2.bmp	babycrib_9.bmp	18	2	1	1	1	DEUTSCHEUNDMEDIENKULTURWISSENSCHAFTE
FAUST_1[2014-06]	25	3	12	3	3	1	1	2	1	0	883	1	1	1	1077	4	1238	rusdoll_5.bmp	flashlight_17.bmp	flashlight_1.bmp	flashlight_2.bmp	rusdoll_6.bmp	flashlight_1.bmp	flashlight_13.bmp	18	2	1	1	1	DEUTSCHEUNDMEDIENKULTURWISSENSCHAFTE
FAUST_1[2014-06]	25	3	25	3	3	2	1	2	2	1	2054	1	1	1	1261	4	1050	tv_16.bmp	powerstrip_8.bmp	powerstrip_14.bmp	powerstrip_10.bmp	tv_7.bmp	powerstrip_7.bmp	tv_7.bmp	18	2	1	1	1	DEUTSCHEUNDMEDIENKULTURWISSENSCHAFTE
FAUST_1[2014-06]	25	3	14	3	3	1	2	2	2	1	1490	1	1	1	1988	4	2594	speaker_15.bmp	speaker_17.bmp	speaker_6.bmp	parfait_4.bmp	speaker_10.bmp	speaker_4.bmp	parfait_4.bmp	18	2	1	1	1	DEUTSCHEUNDMEDIENKULTURWISSENSCHAFTE
FAUST_1[2014-06]	25	3	32	3	3	2	2	2	2	1	2163	2	2	1	1598	4	884	mic_3.bmp	sofa_6.bmp	mic_12.bmp	mic_5.bmp	mic_12.bmp	mic_10.bmp	mic_2.bmp	18	2	1	1	1	DEUTSCHEUNDMEDIENKULTURWISSENSCHAFTE
FAUST_1[2014-06]	25	3	1	3	3	1	1	2	2	1	1233	1	1	1	1490	4	1146	abacus_7.bmp	iceskates_5.bmp	iceskates_16.bmp	abacus_2.bmp	iceskates_16.bmp	iceskates_14.bmp	iceskates_9.bmp	18	2	1	1	1	DEUTSCHEUNDMEDIENKULTURWISSENSCHAFTE
FAUST_1[2014-06]	25	3	28	3	3	2	1	2	2	1	975	1	1	1	1530	4	1383	socks_13.bmp	socks_10.bmp	shoe_13.bmp	shoe_7.bmp	shoe_15.bmp	socks_10.bmp	shoe_9.bmp	18	2	1	1	1	DEUTSCHEUNDMEDIENKULTURWISSENSCHAFTE
FAUST_1[2014-06]	25	3	13	3	3	1	2	2	1	0	1758	2	1	0	1594	3	1617	chair_5.bmp	backpack_6.bmp	chair_11.bmp	backpack_6.bmp	chair_2.bmp	chair_3.bmp	chair_16.bmp	18	2	1	1	1	DEUTSCHEUNDMEDIENKULTURWISSENSCHAFTE
FAUST_1[2014-06]	25	3	23	3	3	2	2	2	2	1	5242	2	2	1	1309	1	1670	lawnmower_13.bmp	lawnmower_15.bmp	lawnmower_8.bmp	lawnmower_17.bmp	lawnmower_3.bmp	garbagecan_2.bmp	lawnmower_15.bmp	18	2	1	1	1	DEUTSCHEUNDMEDIENKULTURWISSENSCHAFTE
FAUST_1[2014-06]	25	3	31	3	3	1	1	3	2	1	1509	2	2	1	1674	4	1172	rollerskates_17.bmp	camera_3.bmp	skateboard_16.bmp	skateboard_3.bmp	skateboard_14.bmp	skateboard_16.bmp	skateboard_15.bmp	18	2	1	1	1	DEUTSCHEUNDMEDIENKULTURWISSENSCHAFTE
FAUST_1[2014-06]	25	3	19	3	3	2	1	3	2	1	772	2	2	1	1971	4	1017	guitar_10.bmp	watch_14.bmp	watch_3.bmp	watch_7.bmp	birdhouse_9.bmp	watch_6.bmp	birdhouse_9.bmp	18	2	1	1	1	DEUTSCHEUNDMEDIENKULTURWISSENSCHAFTE
FAUST_1[2014-06]	25	3	18	3	3	1	1	3	2	1	870	1	1	1	1464	4	1050	hairdryer_7.bmp	scooter_8.bmp	scooter_10.bmp	scooter_5.bmp	scooter_4.bmp	glasses_15.bmp	scooter_5.bmp	18	2	1	1	1	DEUTSCHEUNDMEDIENKULTURWISSENSCHAFTE
FAUST_1[2014-06]	25	3	9	3	3	2	1	3	2	1	1572	2	2	1	2067	4	1998	trumpet_17.bmp	windchime_16.bmp	carriage_14.bmp	windchime_15.bmp	windchime_3.bmp	carriage_14.bmp	windchime_6.bmp	18	2	1	1	1	DEUTSCHEUNDMEDIENKULTURWISSENSCHAFTE
FAUST_1[2014-06]	25	3	8	3	3	1	1	3	2	1	890	2	2	1	1809	4	808	remote_11.bmp	carabiner_6.bmp	carabiner_2.bmp	beanbagchair_12.bmp	carabiner_2.bmp	carabiner_5.bmp	carabiner_9.bmp	18	2	1	1	1	DEUTSCHEUNDMEDIENKULTURWISSENSCHAFTE
FAUST_1[2014-06]	25	3	5	3	3	2	1	3	2	1	999	1	1	1	1293	4	1467	videogamecontroller_5.bmp	plant_5.bmp	plant_14.bmp	cellphone_12.bmp	plant_2.bmp	plant_8.bmp	cellphone_12.bmp	18	2	1	1	1	DEUTSCHEUNDMEDIENKULTURWISSENSCHAFTE
FAUST_1[2014-06]	25	3	11	3	3	1	1	3	2	1	1088	2	2	1	2165	4	1053	coffee_14.bmp	cat_10.bmp	cat_1.bmp	cat_10.bmp	saddle_8.bmp	cat_5.bmp	cat_9.bmp	18	2	1	1	1	DEUTSCHEUNDMEDIENKULTURWISSENSCHAFTE
FAUST_1[2014-06]	25	3	20	3	3	2	1	3	2	1	748	2	2	1	1555	4	1484	easteregg_9.bmp	laptop_10.bmp	laptop_7.bmp	cherubstatue_6.bmp	laptop_14.bmp	laptop_15.bmp	cherubstatue_6.bmp	18	2	1	1	1	DEUTSCHEUNDMEDIENKULTURWISSENSCHAFTE
FAUST_1[2014-06]	25	4	27	3	1	1	1	1	1	1	790	1	1	1	2033	4	1055	SCHRANK	vivaldi	mozart	schrank	brahms	beethoven	vivaldi	18	2	1	1	1	DEUTSCHEUNDMEDIENKULTURWISSENSCHAFTE
FAUST_1[2014-06]	25	4	24	3	1	2	1	1	1	1	1042	1	1	1	2071	4	2016	WASSERMANN	thymian	wassermann	oregano	wassermann	koriander	majoran	18	2	1	1	1	DEUTSCHEUNDMEDIENKULTURWISSENSCHAFTE
FAUST_1[2014-06]	25	4	31	3	1	1	2	1	2	0	1791	2	1	0	1370	4	1817	RHEIN	elbe	amsel	weser	donau	amsel	rhein	18	2	1	1	1	DEUTSCHEUNDMEDIENKULTURWISSENSCHAFTE
FAUST_1[2014-06]	25	4	13	3	1	2	2	1	1	1	1001	1	1	1	2484	4	1029	MALEN	schreiben	basteln	malen	lesen	gelb	malen	18	2	1	1	1	DEUTSCHEUNDMEDIENKULTURWISSENSCHAFTE
FAUST_1[2014-06]	25	4	2	3	1	1	1	1	2	0	862	1	1	1	2192	4	1001	TOMATEN	blockhaus	scheune	hütte	blockhaus	tomaten	baracke	18	2	1	1	1	DEUTSCHEUNDMEDIENKULTURWISSENSCHAFTE
FAUST_1[2014-06]	25	4	3	3	1	2	1	1	1	1	1406	2	2	1	1030	4	1014	LAPTOP	laptop	weide	birke	tanne	eiche	laptop	18	2	1	1	1	DEUTSCHEUNDMEDIENKULTURWISSENSCHAFTE
FAUST_1[2014-06]	25	4	10	3	1	1	2	1	1	1	817	2	2	1	1529	4	1250	BRATWURST	döner	pizza	hamburger	moschee	bratwurst	moschee	18	2	1	1	1	DEUTSCHEUNDMEDIENKULTURWISSENSCHAFTE
FAUST_1[2014-06]	25	4	19	3	1	2	2	1	1	1	2769	2	2	1	2198	3	1973	BERLIN	hamburg	berlin	hannover	berlin	stuttgart	erdbeere	18	2	1	1	1	DEUTSCHEUNDMEDIENKULTURWISSENSCHAFTE
FAUST_1[2014-06]	25	4	22	3	1	1	1	1	1	1	772	1	1	1	2007	4	2010	PRÄPOSITION	küchenwaage	pfannenwender	backblech	präposition	pfannenwender	nudelholz	18	2	1	1	1	DEUTSCHEUNDMEDIENKULTURWISSENSCHAFTE
FAUST_1[2014-06]	25	4	21	3	1	2	1	1	1	1	917	1	1	1	1348	4	962	TANGO	straßenbahn	tango	bus	taxi	tango	zug	18	2	1	1	1	DEUTSCHEUNDMEDIENKULTURWISSENSCHAFTE
FAUST_1[2014-06]	25	4	32	3	1	1	2	1	1	1	1189	1	1	1	1021	4	1996	SCHAM	stecknadel	angst	trauer	stecknadel	scham	freude	18	2	1	1	1	DEUTSCHEUNDMEDIENKULTURWISSENSCHAFTE
FAUST_1[2014-06]	25	4	7	3	1	2	2	1	1	1	905	1	1	1	637	4	852	NELKE	veilchen	nelke	rose	flanell	tulpe	nelke	18	2	1	1	1	DEUTSCHEUNDMEDIENKULTURWISSENSCHAFTE
FAUST_1[2014-06]	25	4	29	3	1	1	1	2	2	1	959	2	2	1	1251	4	3155	KUPPLUNG	vater	sohn	tochter	onkel	sohn	handbremse	18	2	1	1	1	DEUTSCHEUNDMEDIENKULTURWISSENSCHAFTE
FAUST_1[2014-06]	25	4	28	3	1	2	1	2	2	1	759	1	1	1	1554	4	872	ZEITUNG	schäferhund	radio	mops	terrier	radio	dackel	18	2	1	1	1	DEUTSCHEUNDMEDIENKULTURWISSENSCHAFTE
FAUST_1[2014-06]	25	4	6	3	1	1	2	2	2	1	2196	1	1	1	1028	3	1077	METER	meile	kilometer	konzertsaal	millimeter	konzertsaal	zentimeter	18	2	1	1	1	DEUTSCHEUNDMEDIENKULTURWISSENSCHAFTE
FAUST_1[2014-06]	25	4	25	3	1	2	2	2	2	1	1566	2	2	1	2095	2	803	ZANGE	meißel	fuß	bohrer	säge	meißel	hammer	18	2	1	1	1	DEUTSCHEUNDMEDIENKULTURWISSENSCHAFTE
FAUST_1[2014-06]	25	4	17	3	1	1	1	2	2	1	1059	2	1	0	1570	4	1047	WHISKEY	komödie	actionfilm	rum	western	horrorfilm	actionfilm	18	2	1	1	1	DEUTSCHEUNDMEDIENKULTURWISSENSCHAFTE
FAUST_1[2014-06]	25	4	12	3	1	2	1	2	2	1	1357	2	2	1	2528	4	874	GLAS	röteln	kanne	grippe	kanne	mumps	windpocken	18	2	1	1	1	DEUTSCHEUNDMEDIENKULTURWISSENSCHAFTE
FAUST_1[2014-06]	25	4	14	3	1	1	2	2	2	1	818	1	1	1	1325	4	1987	LACHS	rock	makrele	thunfisch	forelle	hering	rock	18	2	1	1	1	DEUTSCHEUNDMEDIENKULTURWISSENSCHAFTE
FAUST_1[2014-06]	25	4	5	3	1	2	2	2	2	1	1069	1	1	1	1034	4	906	DOLCH	schwert	pistole	schnee	gewehr	bombe	schwert	18	2	1	1	1	DEUTSCHEUNDMEDIENKULTURWISSENSCHAFTE
FAUST_1[2014-06]	25	4	18	3	1	1	1	2	2	1	1555	1	1	1	2104	4	1040	JAHR	dinkel	hafer	roggen	gerste	stunde	dinkel	18	2	1	1	1	DEUTSCHEUNDMEDIENKULTURWISSENSCHAFTE
FAUST_1[2014-06]	25	4	16	3	1	2	1	2	2	1	1187	2	2	1	1353	4	927	BRANDENBURG	thüringen	leber	thüringen	lunge	niere	herz	18	2	1	1	1	DEUTSCHEUNDMEDIENKULTURWISSENSCHAFTE
FAUST_1[2014-06]	25	4	30	3	1	1	2	2	2	1	1005	2	2	1	1907	4	881	RIECHEN	fühlen	hören	mücke	sehen	schmecken	mücke	18	2	1	1	1	DEUTSCHEUNDMEDIENKULTURWISSENSCHAFTE
FAUST_1[2014-06]	25	4	11	3	1	2	2	2	2	1	2454	2	1	0	2385	4	1701	TENNIS	skifahren	schwimmen	golf	gymnasium	fußball	skifahren	18	2	1	1	1	DEUTSCHEUNDMEDIENKULTURWISSENSCHAFTE
FAUST_1[2014-06]	25	4	20	3	1	1	1	3	2	1	1118	2	2	1	2063	4	994	LEHRER	gummibärchen	lakritz	bonbons	marzipan	bonbons	herzog	18	2	1	1	1	DEUTSCHEUNDMEDIENKULTURWISSENSCHAFTE
FAUST_1[2014-06]	25	4	8	3	1	2	1	3	2	1	845	1	1	1	2752	4	1504	PANTHER	rechteck	kohlenstoff	viereck	quadrat	dreieck	kohlenstoff	18	2	1	1	1	DEUTSCHEUNDMEDIENKULTURWISSENSCHAFTE
FAUST_1[2014-06]	25	4	15	3	1	1	1	3	2	1	1065	2	2	1	1815	4	1332	ASIEN	brotmesser	messer	kerosin	löffel	brotmesser	gabel	18	2	1	1	1	DEUTSCHEUNDMEDIENKULTURWISSENSCHAFTE
FAUST_1[2014-06]	25	4	23	3	1	2	1	3	2	1	942	1	1	1	1823	4	1352	GOLD	buntstift	füller	locher	bleistift	filzstift	locher	18	2	1	1	1	DEUTSCHEUNDMEDIENKULTURWISSENSCHAFTE
FAUST_1[2014-06]	25	4	26	3	1	1	1	3	2	1	828	1	1	1	1228	4	771	SATURN	lidschatten	kajal	lippenstift	dämon	rouge	lidschatten	18	2	1	1	1	DEUTSCHEUNDMEDIENKULTURWISSENSCHAFTE
FAUST_1[2014-06]	25	4	1	3	1	2	1	3	2	1	1193	1	1	1	1000	4	1040	FÄHRE	opium	cannabis	kokain	oboe	haschisch	oboe	18	2	1	1	1	DEUTSCHEUNDMEDIENKULTURWISSENSCHAFTE
FAUST_1[2014-06]	25	4	4	3	1	1	1	3	2	1	865	2	2	1	1385	4	1535	ITALIEN	monopoly	backgammon	halma	backgammon	erdkunde	schach	18	2	1	1	1	DEUTSCHEUNDMEDIENKULTURWISSENSCHAFTE
FAUST_1[2014-06]	25	4	9	3	1	2	1	3	2	1	1040	2	2	1	2112	4	792	CENT	teich	peugeot	teich	porsche	audi	volvo	18	2	1	1	1	DEUTSCHEUNDMEDIENKULTURWISSENSCHAFTE
