experiment	subject	block	trial	order	material	repeated	related	probetype	response	correct	rt	math_response	math_correctresponse	math_correct	math_rt	confidence	confidence_rt	probe	item1	item2	item3	item4	item5	item6	age	sex	handedness	color_vision	mother_tongue	occupation
FAUST_1[2014-06]	28	1	1	5	3	1	1	1	1	1	2697	-1	2	0	0	4	5685	bowlingpin_3.bmp	carriage_2.bmp	carriage_12.bmp	carriage_3.bmp	carriage_9.bmp	carriage_2.bmp	bowlingpin_3.bmp	23	1	1	1	1	PSYCHOLOGIE
FAUST_1[2014-06]	28	1	17	5	3	2	1	1	1	1	2084	1	1	1	2678	4	1925	leatherman_10.bmp	doorknocker_5.bmp	leatherman_10.bmp	doorknocker_11.bmp	doorknocker_2.bmp	doorknocker_14.bmp	leatherman_10.bmp	23	1	1	1	1	PSYCHOLOGIE
FAUST_1[2014-06]	28	1	10	5	3	1	2	1	1	1	1815	2	2	1	2359	2	1816	powerstrip_7.bmp	powerstrip_7.bmp	powerstrip_14.bmp	ring_15.bmp	powerstrip_8.bmp	ring_15.bmp	powerstrip_10.bmp	23	1	1	1	1	PSYCHOLOGIE
FAUST_1[2014-06]	28	1	11	5	3	2	2	1	1	1	5016	1	1	1	2131	3	1475	router_5.bmp	router_5.bmp	router_12.bmp	router_5.bmp	router_7.bmp	router_16.bmp	socks_13.bmp	23	1	1	1	1	PSYCHOLOGIE
FAUST_1[2014-06]	28	1	26	5	3	1	1	1	1	1	2903	1	1	1	2661	3	1414	chair_3.bmp	turtle_12.bmp	turtle_7.bmp	turtle_6.bmp	chair_3.bmp	turtle_6.bmp	turtle_2.bmp	23	1	1	1	1	PSYCHOLOGIE
FAUST_1[2014-06]	28	1	3	5	3	2	1	1	1	1	2578	2	2	1	3335	3	1724	windchime_16.bmp	windchime_16.bmp	cellphone_12.bmp	cellphone_4.bmp	windchime_16.bmp	cellphone_8.bmp	cellphone_11.bmp	23	1	1	1	1	PSYCHOLOGIE
FAUST_1[2014-06]	28	1	7	5	3	1	2	1	1	1	1324	2	2	1	2419	4	3023	videogamecontroller_5.bmp	videogamecontroller_5.bmp	trumpet_17.bmp	videogamecontroller_2.bmp	videogamecontroller_3.bmp	trumpet_17.bmp	videogamecontroller_13.bmp	23	1	1	1	1	PSYCHOLOGIE
FAUST_1[2014-06]	28	1	25	5	3	2	2	1	1	1	2009	2	1	0	3273	4	1440	shredder_1.bmp	shredder_1.bmp	shredder_5.bmp	shredder_7.bmp	sofa_13.bmp	shredder_1.bmp	shredder_6.bmp	23	1	1	1	1	PSYCHOLOGIE
FAUST_1[2014-06]	28	1	16	5	3	1	1	1	1	1	7956	2	1	0	2035	3	1721	lawnmower_13.bmp	coffee_1.bmp	lawnmower_13.bmp	coffee_1.bmp	coffee_15.bmp	coffee_14.bmp	coffee_7.bmp	23	1	1	1	1	PSYCHOLOGIE
FAUST_1[2014-06]	28	1	19	5	3	2	1	1	1	1	3708	2	1	0	2988	3	7367	camera_6.bmp	skateboard_14.bmp	camera_6.bmp	skateboard_3.bmp	skateboard_15.bmp	skateboard_16.bmp	camera_6.bmp	23	1	1	1	1	PSYCHOLOGIE
FAUST_1[2014-06]	28	1	27	5	3	1	2	1	1	1	1240	1	1	1	1828	4	1120	horseshoe_4.bmp	tricycle_5.bmp	horseshoe_5.bmp	horseshoe_6.bmp	horseshoe_4.bmp	tricycle_5.bmp	horseshoe_12.bmp	23	1	1	1	1	PSYCHOLOGIE
FAUST_1[2014-06]	28	1	9	5	3	2	2	1	1	1	2934	2	1	0	2511	3	1669	hammer_17.bmp	hammer_17.bmp	hammer_11.bmp	hammer_17.bmp	hammer_6.bmp	hammer_15.bmp	saddle_3.bmp	23	1	1	1	1	PSYCHOLOGIE
FAUST_1[2014-06]	28	1	8	5	3	1	1	2	2	1	2271	1	1	1	2631	4	2168	carabiner_7.bmp	guitar_5.bmp	guitar_7.bmp	carabiner_2.bmp	guitar_14.bmp	guitar_5.bmp	guitar_10.bmp	23	1	1	1	1	PSYCHOLOGIE
FAUST_1[2014-06]	28	1	21	5	3	2	1	2	2	1	1853	1	1	1	2200	3	2005	doorknob_17.bmp	watch_7.bmp	watch_14.bmp	watch_3.bmp	doorknob_7.bmp	watch_8.bmp	doorknob_7.bmp	23	1	1	1	1	PSYCHOLOGIE
FAUST_1[2014-06]	28	1	6	5	3	1	2	2	1	0	4567	2	2	1	2609	2	2036	cherubstatue_12.bmp	cherubstatue_11.bmp	hairbrush_7.bmp	cherubstatue_10.bmp	hairbrush_7.bmp	cherubstatue_6.bmp	cherubstatue_5.bmp	23	1	1	1	1	PSYCHOLOGIE
FAUST_1[2014-06]	28	1	32	5	3	2	2	2	1	0	1703	2	2	1	2199	3	1370	beanbagchair_15.bmp	beanbagchair_14.bmp	beanbagchair_3.bmp	beanbagchair_17.bmp	beanbagchair_12.bmp	rollerskates_17.bmp	beanbagchair_3.bmp	23	1	1	1	1	PSYCHOLOGIE
FAUST_1[2014-06]	28	1	15	5	3	1	1	2	2	1	3831	2	2	1	2532	2	1665	birdhouse_11.bmp	printer_16.bmp	printer_1.bmp	printer_14.bmp	printer_3.bmp	birdhouse_9.bmp	printer_3.bmp	23	1	1	1	1	PSYCHOLOGIE
FAUST_1[2014-06]	28	1	28	5	3	2	1	2	1	0	1309	2	2	1	2848	4	1207	circuitboard_13.bmp	bagel_4.bmp	circuitboard_16.bmp	bagel_12.bmp	bagel_16.bmp	bagel_14.bmp	circuitboard_16.bmp	23	1	1	1	1	PSYCHOLOGIE
FAUST_1[2014-06]	28	1	31	5	3	1	2	2	1	0	1224	2	1	0	3294	3	1302	scooter_8.bmp	scooter_5.bmp	scooter_4.bmp	hairdryer_2.bmp	scooter_11.bmp	hairdryer_2.bmp	scooter_10.bmp	23	1	1	1	1	PSYCHOLOGIE
FAUST_1[2014-06]	28	1	30	5	3	2	2	2	1	0	3064	1	1	1	3334	3	1396	laptop_15.bmp	laptop_16.bmp	pasta_13.bmp	laptop_10.bmp	laptop_7.bmp	laptop_16.bmp	laptop_14.bmp	23	1	1	1	1	PSYCHOLOGIE
FAUST_1[2014-06]	28	1	13	5	3	1	1	2	2	1	3083	1	1	1	1591	3	1735	plant_13.bmp	remote_11.bmp	remote_13.bmp	remote_14.bmp	remote_3.bmp	plant_8.bmp	remote_3.bmp	23	1	1	1	1	PSYCHOLOGIE
FAUST_1[2014-06]	28	1	14	5	3	2	1	2	2	1	3256	1	2	0	2943	3	1470	jacket_13.bmp	jacket_6.bmp	trophy_14.bmp	trophy_6.bmp	trophy_4.bmp	trophy_16.bmp	jacket_6.bmp	23	1	1	1	1	PSYCHOLOGIE
FAUST_1[2014-06]	28	1	12	5	3	1	2	2	2	1	3797	2	2	1	2062	3	1334	cat_5.bmp	cat_4.bmp	cat_1.bmp	speaker_4.bmp	cat_9.bmp	speaker_4.bmp	cat_10.bmp	23	1	1	1	1	PSYCHOLOGIE
FAUST_1[2014-06]	28	1	4	5	3	2	2	2	2	1	5236	1	1	1	2374	2	3151	parfait_11.bmp	parfait_4.bmp	parfait_1.bmp	parfait_13.bmp	parfait_15.bmp	parfait_4.bmp	abacus_2.bmp	23	1	1	1	1	PSYCHOLOGIE
FAUST_1[2014-06]	28	1	18	5	3	1	1	3	2	1	1794	2	1	0	2940	4	1716	garbagecan_2.bmp	highchair_6.bmp	highchair_4.bmp	highchair_15.bmp	highchair_10.bmp	vase_13.bmp	highchair_4.bmp	23	1	1	1	1	PSYCHOLOGIE
FAUST_1[2014-06]	28	1	22	5	3	2	1	3	2	1	1419	2	2	1	3380	4	1537	glasses_13.bmp	babycrib_6.bmp	goggle_4.bmp	babycrib_2.bmp	babycrib_9.bmp	goggle_4.bmp	babycrib_7.bmp	23	1	1	1	1	PSYCHOLOGIE
FAUST_1[2014-06]	28	1	20	5	3	1	1	3	2	1	2844	1	2	0	3099	3	2411	shoe_7.bmp	watergun_8.bmp	watergun_15.bmp	watergun_7.bmp	watergun_15.bmp	wig_6.bmp	watergun_9.bmp	23	1	1	1	1	PSYCHOLOGIE
FAUST_1[2014-06]	28	1	23	5	3	2	1	3	2	1	1373	1	1	1	2916	4	1112	backpack_6.bmp	fan_10.bmp	mic_10.bmp	fan_17.bmp	mic_10.bmp	fan_15.bmp	fan_1.bmp	23	1	1	1	1	PSYCHOLOGIE
FAUST_1[2014-06]	28	1	5	5	3	1	1	3	2	1	4215	1	1	1	1475	3	2258	cake_1.bmp	trunk_2.bmp	trunk_5.bmp	flashlight_2.bmp	trunk_7.bmp	trunk_2.bmp	trunk_1.bmp	23	1	1	1	1	PSYCHOLOGIE
FAUST_1[2014-06]	28	1	2	5	3	2	1	3	2	1	2970	-1	1	0	0	3	2925	sink_15.bmp	glove_5.bmp	easteregg_9.bmp	glove_8.bmp	easteregg_9.bmp	glove_10.bmp	glove_15.bmp	23	1	1	1	1	PSYCHOLOGIE
FAUST_1[2014-06]	28	1	24	5	3	1	1	3	2	1	1166	1	1	1	3035	4	1085	tv_4.bmp	orifan_6.bmp	orifan_1.bmp	orifan_14.bmp	orifan_7.bmp	orifan_14.bmp	cheesegrater_15.bmp	23	1	1	1	1	PSYCHOLOGIE
FAUST_1[2014-06]	28	1	29	5	3	2	1	3	2	1	2055	2	2	1	2798	4	1974	rusdoll_3.bmp	saltpeppershake_9.bmp	iceskates_5.bmp	saltpeppershake_8.bmp	iceskates_5.bmp	saltpeppershake_12.bmp	saltpeppershake_2.bmp	23	1	1	1	1	PSYCHOLOGIE
FAUST_1[2014-06]	28	2	9	5	2	1	1	1	1	1	5011	2	2	1	1598	2	1454	Leaf13.bmp	Lipstick3.bmp	Lipstick15.bmp	Lipstick3.bmp	Leaf13.bmp	Lipstick9.bmp	Lipstick2.bmp	23	1	1	1	1	PSYCHOLOGIE
FAUST_1[2014-06]	28	2	2	5	2	2	1	1	1	1	1296	1	1	1	2245	4	1091	String6.bmp	String6.bmp	Onion19.bmp	Onion7.bmp	Onion14.bmp	Onion13.bmp	String6.bmp	23	1	1	1	1	PSYCHOLOGIE
FAUST_1[2014-06]	28	2	8	5	2	1	2	1	1	1	1338	2	1	0	1829	4	1263	Paperclip14.bmp	Paperclip6.bmp	Bun12.bmp	Paperclip13.bmp	Paperclip14.bmp	Paperclip4.bmp	Bun12.bmp	23	1	1	1	1	PSYCHOLOGIE
FAUST_1[2014-06]	28	2	14	5	2	2	2	1	1	1	1430	1	1	1	1503	4	1298	Umbrella6.bmp	Umbrella17.bmp	Umbrella19.bmp	Umbrella21.bmp	Umbrella6.bmp	Candle20.bmp	Umbrella6.bmp	23	1	1	1	1	PSYCHOLOGIE
FAUST_1[2014-06]	28	2	21	5	2	1	1	1	2	0	1448	1	1	1	1105	4	1563	Shell9.bmp	Holly20.bmp	Shell9.bmp	Holly20.bmp	Holly14.bmp	Holly11.bmp	Holly3.bmp	23	1	1	1	1	PSYCHOLOGIE
FAUST_1[2014-06]	28	2	12	5	2	2	1	1	1	1	1992	2	1	0	1777	4	1409	Button18.bmp	Daff3.bmp	Daff21.bmp	Daff9.bmp	Button18.bmp	Daff1.bmp	Button18.bmp	23	1	1	1	1	PSYCHOLOGIE
FAUST_1[2014-06]	28	2	20	5	2	1	2	1	1	1	1312	2	2	1	2318	4	1978	Bag3.bmp	Brocolli10.bmp	Bag3.bmp	Brocolli10.bmp	Bag21.bmp	Bag25.bmp	Bag4.bmp	23	1	1	1	1	PSYCHOLOGIE
FAUST_1[2014-06]	28	2	22	5	2	2	2	1	1	1	1245	2	2	1	2586	4	1300	Pear18.bmp	Stapler6.bmp	Pear16.bmp	Pear4.bmp	Pear18.bmp	Pear7.bmp	Pear18.bmp	23	1	1	1	1	PSYCHOLOGIE
FAUST_1[2014-06]	28	2	6	5	2	1	1	2	1	0	4503	2	2	1	1649	2	1745	Biscuit17.bmp	Car7.bmp	Car21.bmp	Car14.bmp	Car12.bmp	Car21.bmp	Biscuit25.bmp	23	1	1	1	1	PSYCHOLOGIE
FAUST_1[2014-06]	28	2	4	5	2	2	1	2	2	1	4210	2	2	1	2492	2	1716	Key5.bmp	Fork9.bmp	Fork14.bmp	Key20.bmp	Fork17.bmp	Key20.bmp	Fork8.bmp	23	1	1	1	1	PSYCHOLOGIE
FAUST_1[2014-06]	28	2	16	5	2	1	2	2	1	0	1304	2	2	1	2837	3	1267	Chocolate17.bmp	Bracelet18.bmp	Chocolate9.bmp	Chocolate24.bmp	Chocolate6.bmp	Bracelet18.bmp	Chocolate5.bmp	23	1	1	1	1	PSYCHOLOGIE
FAUST_1[2014-06]	28	2	7	5	2	2	2	2	1	0	1304	2	2	1	1374	3	1469	Nut21.bmp	Nut11.bmp	Tomato18.bmp	Nut2.bmp	Nut19.bmp	Nut2.bmp	Nut18.bmp	23	1	1	1	1	PSYCHOLOGIE
FAUST_1[2014-06]	28	2	19	5	2	1	1	2	2	1	1334	1	1	1	3060	3	2210	Screw16.bmp	Screw10.bmp	Keys7.bmp	Keys9.bmp	Keys5.bmp	Keys7.bmp	Keys8.bmp	23	1	1	1	1	PSYCHOLOGIE
FAUST_1[2014-06]	28	2	15	5	2	2	1	2	2	1	3678	2	2	1	2196	3	2067	Chilli12.bmp	Chilli19.bmp	Mushroom18.bmp	Mushroom25.bmp	Mushroom6.bmp	Mushroom14.bmp	Chilli19.bmp	23	1	1	1	1	PSYCHOLOGIE
FAUST_1[2014-06]	28	2	5	5	2	1	2	2	1	0	1523	2	1	0	3273	3	1209	Scissors23.bmp	Scissors14.bmp	Feather11.bmp	Scissors11.bmp	Scissors3.bmp	Feather11.bmp	Scissors1.bmp	23	1	1	1	1	PSYCHOLOGIE
FAUST_1[2014-06]	28	2	18	5	2	2	2	2	2	1	8693	1	1	1	2801	2	2858	Strawberry18.bmp	Man15.bmp	Strawberry3.bmp	Strawberry21.bmp	Strawberry3.bmp	Strawberry14.bmp	Strawberry4.bmp	23	1	1	1	1	PSYCHOLOGIE
FAUST_1[2014-06]	28	2	13	5	2	1	1	3	2	1	1313	2	2	1	2529	4	1016	Star17.bmp	Hanger7.bmp	Hanger15.bmp	Ginger5.bmp	Hanger14.bmp	Hanger12.bmp	Hanger7.bmp	23	1	1	1	1	PSYCHOLOGIE
FAUST_1[2014-06]	28	2	11	5	2	2	1	3	2	1	1757	2	2	1	2291	4	929	Sweet18.bmp	Swirl23.bmp	Coins3.bmp	Swirl1.bmp	Coins3.bmp	Swirl10.bmp	Swirl5.bmp	23	1	1	1	1	PSYCHOLOGIE
FAUST_1[2014-06]	28	2	1	5	2	1	1	3	2	1	2670	2	2	1	2686	3	1768	Cake16.bmp	Plug8.bmp	Plug9.bmp	Plug18.bmp	Plug6.bmp	Fudge15.bmp	Plug6.bmp	23	1	1	1	1	PSYCHOLOGIE
FAUST_1[2014-06]	28	2	3	5	2	2	1	3	2	1	1484	1	1	1	2010	4	1412	Jigsaw17.bmp	Present3.bmp	Varnish11.bmp	Present17.bmp	Present2.bmp	Varnish11.bmp	Present14.bmp	23	1	1	1	1	PSYCHOLOGIE
FAUST_1[2014-06]	28	2	10	5	2	1	1	3	2	1	1111	1	1	1	2346	4	1059	Glass4.bmp	Apple18.bmp	Apple21.bmp	Apple24.bmp	Apple10.bmp	Toothbrush10.bmp	Apple18.bmp	23	1	1	1	1	PSYCHOLOGIE
FAUST_1[2014-06]	28	2	17	5	2	2	1	3	2	1	1294	1	1	1	2221	4	1591	Flower3.bmp	Hand1.bmp	Pen20.bmp	Pen1.bmp	Hand1.bmp	Pen5.bmp	Pen10.bmp	23	1	1	1	1	PSYCHOLOGIE
FAUST_1[2014-06]	28	3	25	5	1	1	1	1	1	1	1511	2	1	0	1435	3	1959	ZEICHNEN	minute	sekunde	stunde	zeichnen	jahr	sekunde	23	1	1	1	1	PSYCHOLOGIE
FAUST_1[2014-06]	28	3	19	5	1	2	1	1	1	1	1315	2	2	1	1391	4	1133	PANTHER	bratwurst	pizza	hamburger	panther	döner	panther	23	1	1	1	1	PSYCHOLOGIE
FAUST_1[2014-06]	28	3	3	5	1	1	2	1	1	1	4847	2	1	0	2918	1	1679	SCHIFF	millimeter	schiff	boot	fähre	yacht	millimeter	23	1	1	1	1	PSYCHOLOGIE
FAUST_1[2014-06]	28	3	10	5	1	2	2	1	1	1	1163	1	1	1	2160	4	1453	THUNFISCH	makrele	forelle	thunfisch	lachs	thunfisch	lunge	23	1	1	1	1	PSYCHOLOGIE
FAUST_1[2014-06]	28	3	26	5	1	1	1	1	1	1	1194	1	1	1	1814	4	1277	DINKEL	zange	dinkel	meißel	säge	meißel	bohrer	23	1	1	1	1	PSYCHOLOGIE
FAUST_1[2014-06]	28	3	9	5	1	2	1	1	1	1	2139	1	1	1	2079	3	1383	RICHTER	richter	chopin	vivaldi	mozart	brahms	richter	23	1	1	1	1	PSYCHOLOGIE
FAUST_1[2014-06]	28	3	12	5	1	1	2	1	1	1	1134	2	2	1	3081	4	1137	RUMBA	foxtrott	tango	rumba	gelb	chachacha	gelb	23	1	1	1	1	PSYCHOLOGIE
FAUST_1[2014-06]	28	3	17	5	1	2	2	1	1	1	1628	-1	2	0	0	4	1373	SATURN	saturn	veilchen	jupiter	saturn	merkur	pluto	23	1	1	1	1	PSYCHOLOGIE
FAUST_1[2014-06]	28	3	20	5	1	1	1	1	1	1	1930	2	2	1	2407	4	1913	TAXI	taxi	rouge	kajal	rouge	lippenstift	lidschatten	23	1	1	1	1	PSYCHOLOGIE
FAUST_1[2014-06]	28	3	8	5	1	2	1	1	1	1	1243	1	1	1	2224	4	1380	SCHWALBE	schrank	schwalbe	sofa	regal	schwalbe	stuhl	23	1	1	1	1	PSYCHOLOGIE
FAUST_1[2014-06]	28	3	27	5	1	1	2	1	1	1	1236	1	1	1	2971	4	1574	HALMA	windpocken	schach	halma	monopoly	windpocken	scrabble	23	1	1	1	1	PSYCHOLOGIE
FAUST_1[2014-06]	28	3	1	5	1	2	2	1	1	1	1889	1	1	1	3058	4	1399	OPER	zirkus	theater	kino	oper	zombie	oper	23	1	1	1	1	PSYCHOLOGIE
FAUST_1[2014-06]	28	3	13	5	1	1	1	2	2	1	1285	1	1	1	2154	4	878	SCHÜTZE	zwilling	haschisch	opium	haschisch	kokain	heroin	23	1	1	1	1	PSYCHOLOGIE
FAUST_1[2014-06]	28	3	31	5	1	2	1	2	2	1	1121	1	1	1	2474	3	1200	DOLCH	schwert	karamell	schwert	lakritz	bonbons	gummibärchen	23	1	1	1	1	PSYCHOLOGIE
FAUST_1[2014-06]	28	3	18	5	1	1	2	2	2	1	2968	1	2	0	2978	3	1433	DOGGE	klebeband	schäferhund	klebeband	dackel	mops	terrier	23	1	1	1	1	PSYCHOLOGIE
FAUST_1[2014-06]	28	3	15	5	1	2	2	2	2	1	3118	2	2	1	2178	3	1095	HUMMEL	biene	mücke	ameise	wespe	mücke	sauerstoff	23	1	1	1	1	PSYCHOLOGIE
FAUST_1[2014-06]	28	3	5	5	1	1	1	2	2	1	1636	2	2	1	3078	3	1057	MUTTER	buntstift	filzstift	kugelschreiber	tochter	füller	buntstift	23	1	1	1	1	PSYCHOLOGIE
FAUST_1[2014-06]	28	3	32	5	1	2	1	2	1	0	1589	1	1	1	1760	3	1371	HERZOG	thüringen	kaiser	brandenburg	saarland	kaiser	hessen	23	1	1	1	1	PSYCHOLOGIE
FAUST_1[2014-06]	28	3	29	5	1	1	2	2	2	1	1490	2	2	1	2077	3	1161	RECHTECK	dreieck	rückspiegel	quadrat	kreis	rückspiegel	viereck	23	1	1	1	1	PSYCHOLOGIE
FAUST_1[2014-06]	28	3	11	5	1	2	2	2	2	1	6010	-1	1	0	0	3	2203	GLAS	kanne	becher	karaffe	birke	becher	flasche	23	1	1	1	1	PSYCHOLOGIE
FAUST_1[2014-06]	28	3	22	5	1	1	1	2	2	1	1061	2	2	1	1827	4	938	FREUDE	fühlen	angst	riechen	hören	fühlen	schmecken	23	1	1	1	1	PSYCHOLOGIE
FAUST_1[2014-06]	28	3	16	5	1	2	1	2	2	1	1001	2	2	1	3319	4	1498	LAPTOP	mobiltelefon	main	mobiltelefon	elbe	donau	weser	23	1	1	1	1	PSYCHOLOGIE
FAUST_1[2014-06]	28	3	2	5	1	1	2	2	2	1	1863	2	2	1	2994	4	1291	TEELÖFFEL	südamerika	löffel	messer	südamerika	gabel	brotmesser	23	1	1	1	1	PSYCHOLOGIE
FAUST_1[2014-06]	28	3	4	5	1	2	2	2	2	1	1340	1	1	1	2580	4	1514	HÄKELNADEL	horrorfilm	nähnadel	sicherheitsnadel	stecknadel	stricknadel	stecknadel	23	1	1	1	1	PSYCHOLOGIE
FAUST_1[2014-06]	28	3	21	5	1	1	1	3	2	1	1110	1	1	1	2220	4	1119	TENNIS	backblech	backform	pfannenwender	backform	küchenwaage	oboe	23	1	1	1	1	PSYCHOLOGIE
FAUST_1[2014-06]	28	3	14	5	1	2	1	3	2	1	1167	1	1	1	1902	4	1323	HOSE	volvo	buch	mercedes	audi	buch	porsche	23	1	1	1	1	PSYCHOLOGIE
FAUST_1[2014-06]	28	3	30	5	1	1	1	3	2	1	986	2	2	1	2127	4	984	PETROLEUM	baracke	fluss	meer	ozean	fluss	teich	23	1	1	1	1	PSYCHOLOGIE
FAUST_1[2014-06]	28	3	23	5	1	2	1	3	2	1	941	2	2	1	2317	3	1423	TEMPEL	bein	spinat	karotten	bohnen	blumenkohl	bein	23	1	1	1	1	PSYCHOLOGIE
FAUST_1[2014-06]	28	3	24	5	1	1	1	3	2	1	1078	-1	1	0	0	4	1494	MATHEMATIK	hamburg	hannover	berlin	stuttgart	nebel	hannover	23	1	1	1	1	PSYCHOLOGIE
FAUST_1[2014-06]	28	3	6	5	1	2	1	3	2	1	1144	2	2	1	1375	4	1321	GOLD	wolle	leinen	euro	baumwolle	euro	seide	23	1	1	1	1	PSYCHOLOGIE
FAUST_1[2014-06]	28	3	7	5	1	1	1	3	2	1	1156	2	2	1	2162	4	1056	VERB	erdbeere	gin	birne	erdbeere	banane	apfel	23	1	1	1	1	PSYCHOLOGIE
FAUST_1[2014-06]	28	3	28	5	1	2	1	3	2	1	1115	2	2	1	2019	4	1133	KORIANDER	hauptschule	realschule	österreich	berufsschule	gesamtschule	österreich	23	1	1	1	1	PSYCHOLOGIE
FAUST_1[2014-06]	28	2	12	5	3	1	1	1	1	1	3261	2	1	0	1337	4	2530	scooter_5.bmp	carabiner_5.bmp	carabiner_9.bmp	carabiner_2.bmp	carabiner_5.bmp	carabiner_6.bmp	scooter_5.bmp	23	1	1	1	1	PSYCHOLOGIE
FAUST_1[2014-06]	28	2	25	5	3	2	1	1	1	1	1150	1	1	1	1868	4	1397	saltpeppershake_12.bmp	printer_1.bmp	saltpeppershake_12.bmp	printer_14.bmp	printer_3.bmp	saltpeppershake_12.bmp	printer_16.bmp	23	1	1	1	1	PSYCHOLOGIE
FAUST_1[2014-06]	28	2	19	5	3	1	2	1	1	1	1237	2	2	1	2460	3	1083	vase_15.bmp	vase_15.bmp	vase_1.bmp	vase_13.bmp	cat_1.bmp	vase_5.bmp	cat_1.bmp	23	1	1	1	1	PSYCHOLOGIE
FAUST_1[2014-06]	28	2	26	5	3	2	2	1	1	1	1069	2	2	1	2716	3	1218	horseshoe_4.bmp	chair_11.bmp	horseshoe_4.bmp	horseshoe_6.bmp	horseshoe_4.bmp	horseshoe_5.bmp	horseshoe_12.bmp	23	1	1	1	1	PSYCHOLOGIE
FAUST_1[2014-06]	28	2	4	5	3	1	1	1	1	1	1081	1	1	1	1777	4	1067	glove_8.bmp	skateboard_14.bmp	glove_8.bmp	skateboard_11.bmp	skateboard_16.bmp	skateboard_3.bmp	skateboard_16.bmp	23	1	1	1	1	PSYCHOLOGIE
FAUST_1[2014-06]	28	2	31	5	3	2	1	1	1	1	1711	2	2	1	1185	4	3965	socks_13.bmp	socks_13.bmp	leatherman_14.bmp	leatherman_5.bmp	socks_13.bmp	leatherman_10.bmp	leatherman_2.bmp	23	1	1	1	1	PSYCHOLOGIE
FAUST_1[2014-06]	28	2	5	5	3	1	2	1	2	0	2888	2	2	1	2435	2	1434	mic_5.bmp	mic_2.bmp	backpack_16.bmp	mic_12.bmp	mic_5.bmp	mic_10.bmp	backpack_16.bmp	23	1	1	1	1	PSYCHOLOGIE
FAUST_1[2014-06]	28	2	7	5	3	2	2	1	1	1	989	2	2	1	1562	4	2693	doorknocker_2.bmp	doorknocker_2.bmp	doorknocker_11.bmp	lawnmower_13.bmp	doorknocker_14.bmp	doorknocker_2.bmp	doorknocker_4.bmp	23	1	1	1	1	PSYCHOLOGIE
FAUST_1[2014-06]	28	2	30	5	3	1	1	1	1	1	2539	1	1	1	2842	3	1161	orifan_1.bmp	birdhouse_6.bmp	birdhouse_14.bmp	birdhouse_11.bmp	birdhouse_7.bmp	birdhouse_11.bmp	orifan_1.bmp	23	1	1	1	1	PSYCHOLOGIE
FAUST_1[2014-06]	28	2	23	5	3	2	1	1	1	1	1834	2	1	0	2823	3	1411	windchime_3.bmp	wig_9.bmp	wig_6.bmp	wig_12.bmp	windchime_3.bmp	wig_1.bmp	windchime_3.bmp	23	1	1	1	1	PSYCHOLOGIE
FAUST_1[2014-06]	28	2	32	5	3	1	2	1	1	1	2309	2	1	0	2908	3	1337	sofa_13.bmp	sofa_3.bmp	sofa_12.bmp	turtle_2.bmp	sofa_9.bmp	turtle_2.bmp	sofa_13.bmp	23	1	1	1	1	PSYCHOLOGIE
FAUST_1[2014-06]	28	2	27	5	3	2	2	1	1	1	1866	1	1	1	2306	3	1075	trunk_3.bmp	trunk_7.bmp	trunk_3.bmp	trunk_5.bmp	glasses_15.bmp	trunk_3.bmp	trunk_2.bmp	23	1	1	1	1	PSYCHOLOGIE
FAUST_1[2014-06]	28	2	15	5	3	1	1	2	2	1	1898	2	2	1	2325	3	3806	videogamecontroller_3.bmp	hammer_17.bmp	videogamecontroller_11.bmp	hammer_11.bmp	hammer_15.bmp	hammer_11.bmp	hammer_8.bmp	23	1	1	1	1	PSYCHOLOGIE
FAUST_1[2014-06]	28	2	8	5	3	2	1	2	1	0	1524	2	2	1	2838	2	1077	flashlight_12.bmp	flashlight_17.bmp	rollerskates_5.bmp	rollerskates_8.bmp	rollerskates_2.bmp	flashlight_17.bmp	rollerskates_7.bmp	23	1	1	1	1	PSYCHOLOGIE
FAUST_1[2014-06]	28	2	17	5	3	1	2	2	1	0	1703	2	2	1	1549	3	1667	watch_6.bmp	watch_3.bmp	watch_7.bmp	watch_8.bmp	powerstrip_14.bmp	watch_14.bmp	powerstrip_14.bmp	23	1	1	1	1	PSYCHOLOGIE
FAUST_1[2014-06]	28	2	24	5	3	2	2	2	1	0	3724	1	1	1	2529	2	1511	beanbagchair_3.bmp	beanbagchair_15.bmp	beanbagchair_17.bmp	tricycle_2.bmp	beanbagchair_17.bmp	beanbagchair_14.bmp	beanbagchair_12.bmp	23	1	1	1	1	PSYCHOLOGIE
FAUST_1[2014-06]	28	2	2	5	3	1	1	2	1	0	1409	2	2	1	1509	3	1088	garbagecan_2.bmp	coffee_7.bmp	garbagecan_17.bmp	coffee_1.bmp	coffee_2.bmp	coffee_15.bmp	coffee_7.bmp	23	1	1	1	1	PSYCHOLOGIE
FAUST_1[2014-06]	28	2	9	5	3	2	1	2	2	1	1610	2	2	1	2034	3	2571	circuitboard_4.bmp	pasta_11.bmp	circuitboard_8.bmp	pasta_10.bmp	pasta_9.bmp	pasta_15.bmp	circuitboard_8.bmp	23	1	1	1	1	PSYCHOLOGIE
FAUST_1[2014-06]	28	2	1	5	3	1	2	2	1	0	1244	1	1	1	2160	4	2366	babycrib_7.bmp	babycrib_5.bmp	babycrib_9.bmp	plant_5.bmp	babycrib_2.bmp	plant_5.bmp	babycrib_6.bmp	23	1	1	1	1	PSYCHOLOGIE
FAUST_1[2014-06]	28	2	20	5	3	2	2	2	1	0	2162	2	2	1	2580	2	909	speaker_4.bmp	speaker_6.bmp	speaker_15.bmp	speaker_10.bmp	speaker_6.bmp	speaker_17.bmp	easteregg_16.bmp	23	1	1	1	1	PSYCHOLOGIE
FAUST_1[2014-06]	28	2	14	5	3	1	1	2	2	1	1697	2	2	1	2664	3	854	cellphone_11.bmp	cherubstatue_6.bmp	cherubstatue_5.bmp	cherubstatue_6.bmp	cherubstatue_11.bmp	cherubstatue_12.bmp	cellphone_8.bmp	23	1	1	1	1	PSYCHOLOGIE
FAUST_1[2014-06]	28	2	3	5	3	2	1	2	2	1	1451	1	1	1	3052	3	1318	hairbrush_15.bmp	iceskates_16.bmp	hairbrush_17.bmp	iceskates_9.bmp	hairbrush_17.bmp	iceskates_5.bmp	iceskates_14.bmp	23	1	1	1	1	PSYCHOLOGIE
FAUST_1[2014-06]	28	2	10	5	3	1	2	2	2	1	1356	1	1	1	1709	4	1076	ring_12.bmp	carriage_12.bmp	ring_15.bmp	ring_8.bmp	carriage_12.bmp	ring_11.bmp	ring_7.bmp	23	1	1	1	1	PSYCHOLOGIE
FAUST_1[2014-06]	28	2	6	5	3	2	2	2	1	0	1060	1	1	1	2516	3	1223	router_12.bmp	router_5.bmp	router_6.bmp	router_7.bmp	goggle_1.bmp	router_6.bmp	router_16.bmp	23	1	1	1	1	PSYCHOLOGIE
FAUST_1[2014-06]	28	2	21	5	3	1	1	3	2	1	1193	-1	1	0	0	4	1494	highchair_4.bmp	trumpet_17.bmp	trumpet_5.bmp	guitar_7.bmp	trumpet_6.bmp	trumpet_5.bmp	trumpet_3.bmp	23	1	1	1	1	PSYCHOLOGIE
FAUST_1[2014-06]	28	2	22	5	3	2	1	3	2	1	1106	2	2	1	2411	3	913	cake_1.bmp	jacket_13.bmp	jacket_7.bmp	bowlingpin_1.bmp	jacket_11.bmp	jacket_6.bmp	bowlingpin_1.bmp	23	1	1	1	1	PSYCHOLOGIE
FAUST_1[2014-06]	28	2	13	5	3	1	1	3	2	1	1180	2	1	0	2809	4	1157	remote_2.bmp	abacus_2.bmp	saddle_5.bmp	saddle_15.bmp	saddle_3.bmp	saddle_4.bmp	saddle_5.bmp	23	1	1	1	1	PSYCHOLOGIE
FAUST_1[2014-06]	28	2	16	5	3	2	1	3	2	1	1008	1	1	1	2501	4	1077	camera_7.bmp	rusdoll_5.bmp	bagel_14.bmp	bagel_16.bmp	bagel_4.bmp	bagel_12.bmp	rusdoll_5.bmp	23	1	1	1	1	PSYCHOLOGIE
FAUST_1[2014-06]	28	2	11	5	3	1	1	3	2	1	1033	2	2	1	1383	4	1174	shredder_6.bmp	hairdryer_13.bmp	doorknob_14.bmp	doorknob_17.bmp	doorknob_7.bmp	doorknob_17.bmp	doorknob_10.bmp	23	1	1	1	1	PSYCHOLOGIE
FAUST_1[2014-06]	28	2	18	5	3	2	1	3	2	1	1173	1	1	1	2313	4	997	tv_4.bmp	shoe_7.bmp	fan_17.bmp	shoe_9.bmp	fan_17.bmp	shoe_17.bmp	shoe_15.bmp	23	1	1	1	1	PSYCHOLOGIE
FAUST_1[2014-06]	28	2	29	5	3	1	1	3	2	1	1130	1	1	1	2283	4	1004	watergun_3.bmp	parfait_4.bmp	cheesegrater_8.bmp	cheesegrater_11.bmp	cheesegrater_15.bmp	cheesegrater_5.bmp	cheesegrater_15.bmp	23	1	1	1	1	PSYCHOLOGIE
FAUST_1[2014-06]	28	2	28	5	3	2	1	3	2	1	2086	1	2	0	2957	4	1302	sink_10.bmp	laptop_14.bmp	laptop_10.bmp	trophy_6.bmp	laptop_16.bmp	trophy_6.bmp	laptop_7.bmp	23	1	1	1	1	PSYCHOLOGIE
FAUST_1[2014-06]	28	3	13	5	2	1	1	1	1	1	1081	2	2	1	2888	3	1251	Button20.bmp	Umbrella6.bmp	Umbrella7.bmp	Umbrella6.bmp	Button20.bmp	Umbrella19.bmp	Umbrella17.bmp	23	1	1	1	1	PSYCHOLOGIE
FAUST_1[2014-06]	28	3	21	5	2	2	1	1	1	1	949	2	2	1	2275	4	2086	Biscuit17.bmp	Biscuit17.bmp	Car7.bmp	Car12.bmp	Biscuit17.bmp	Car13.bmp	Car21.bmp	23	1	1	1	1	PSYCHOLOGIE
FAUST_1[2014-06]	28	3	19	5	2	1	2	1	2	0	2116	1	2	0	2896	2	2089	Apple21.bmp	Apple24.bmp	Apple21.bmp	Apple5.bmp	Varnish17.bmp	Apple18.bmp	Varnish17.bmp	23	1	1	1	1	PSYCHOLOGIE
FAUST_1[2014-06]	28	3	18	5	2	2	2	1	1	1	978	1	1	1	1641	4	2328	Cake16.bmp	Cake16.bmp	Cake18.bmp	Cake16.bmp	Toothbrush10.bmp	Cake25.bmp	Cake24.bmp	23	1	1	1	1	PSYCHOLOGIE
FAUST_1[2014-06]	28	3	14	5	2	1	1	1	1	1	2470	1	1	1	3037	3	796	Pen20.bmp	Fork7.bmp	Pen20.bmp	Fork7.bmp	Fork8.bmp	Fork9.bmp	Fork17.bmp	23	1	1	1	1	PSYCHOLOGIE
FAUST_1[2014-06]	28	3	6	5	2	2	1	1	1	1	1036	2	2	1	1872	3	2065	Onion14.bmp	Onion14.bmp	Sweet10.bmp	Onion14.bmp	Sweet22.bmp	Sweet18.bmp	Sweet1.bmp	23	1	1	1	1	PSYCHOLOGIE
FAUST_1[2014-06]	28	3	3	5	2	1	2	1	1	1	977	1	1	1	1481	2	1211	Scissors3.bmp	Scissors11.bmp	Strawberry18.bmp	Scissors3.bmp	Scissors14.bmp	Strawberry18.bmp	Scissors1.bmp	23	1	1	1	1	PSYCHOLOGIE
FAUST_1[2014-06]	28	3	20	5	2	2	2	1	1	1	1077	2	2	1	1895	4	924	Present17.bmp	Daff1.bmp	Present17.bmp	Present3.bmp	Present17.bmp	Present9.bmp	Present2.bmp	23	1	1	1	1	PSYCHOLOGIE
FAUST_1[2014-06]	28	3	16	5	2	1	1	2	1	0	960	2	2	1	1964	3	1049	Star19.bmp	Ginger15.bmp	Star7.bmp	Ginger5.bmp	Ginger10.bmp	Ginger15.bmp	Ginger17.bmp	23	1	1	1	1	PSYCHOLOGIE
FAUST_1[2014-06]	28	3	4	5	2	2	1	2	2	1	1283	2	2	1	2560	4	1089	Tomato5.bmp	Flower13.bmp	Flower17.bmp	Flower18.bmp	Tomato18.bmp	Flower14.bmp	Tomato18.bmp	23	1	1	1	1	PSYCHOLOGIE
FAUST_1[2014-06]	28	3	15	5	2	1	2	2	1	0	796	1	1	1	1657	4	1020	Bag25.bmp	Hanger2.bmp	Bag21.bmp	Bag3.bmp	Bag4.bmp	Bag5.bmp	Hanger2.bmp	23	1	1	1	1	PSYCHOLOGIE
FAUST_1[2014-06]	28	3	9	5	2	2	2	2	1	0	1137	1	1	1	3023	4	1553	Feather12.bmp	Feather2.bmp	Feather14.bmp	Feather18.bmp	Nut18.bmp	Feather11.bmp	Feather2.bmp	23	1	1	1	1	PSYCHOLOGIE
FAUST_1[2014-06]	28	3	11	5	2	1	1	2	1	0	1098	1	1	1	2721	4	973	Plug18.bmp	Paperclip14.bmp	Paperclip9.bmp	Paperclip4.bmp	Plug4.bmp	Paperclip14.bmp	Paperclip6.bmp	23	1	1	1	1	PSYCHOLOGIE
FAUST_1[2014-06]	28	3	5	5	2	2	1	2	2	1	1080	1	1	1	1842	3	953	Keys6.bmp	Chilli11.bmp	Keys5.bmp	Chilli14.bmp	Keys5.bmp	Chilli22.bmp	Chilli19.bmp	23	1	1	1	1	PSYCHOLOGIE
FAUST_1[2014-06]	28	3	2	5	2	1	2	2	1	0	1190	1	1	1	3383	4	2781	Lipstick2.bmp	Lipstick9.bmp	Lipstick7.bmp	Lipstick15.bmp	Key11.bmp	Lipstick3.bmp	Key11.bmp	23	1	1	1	1	PSYCHOLOGIE
FAUST_1[2014-06]	28	3	22	5	2	2	2	2	2	1	2489	1	1	1	2670	2	1658	Glass12.bmp	Glass4.bmp	Glass19.bmp	Glass3.bmp	Glass16.bmp	Glass19.bmp	Jigsaw14.bmp	23	1	1	1	1	PSYCHOLOGIE
FAUST_1[2014-06]	28	3	12	5	2	1	1	3	2	1	1188	2	2	1	2828	4	1179	Brocolli10.bmp	Candle13.bmp	Candle1.bmp	Candle13.bmp	String8.bmp	Candle10.bmp	Candle17.bmp	23	1	1	1	1	PSYCHOLOGIE
FAUST_1[2014-06]	28	3	8	5	2	2	1	3	2	1	1445	2	2	1	2524	4	926	Hand13.bmp	Pear16.bmp	Pear15.bmp	Leaf21.bmp	Pear4.bmp	Leaf21.bmp	Pear7.bmp	23	1	1	1	1	PSYCHOLOGIE
FAUST_1[2014-06]	28	3	1	5	2	1	1	3	2	1	1004	1	1	1	2653	4	1473	Screw9.bmp	Shell17.bmp	Shell9.bmp	Shell18.bmp	Shell1.bmp	Bun17.bmp	Shell1.bmp	23	1	1	1	1	PSYCHOLOGIE
FAUST_1[2014-06]	28	3	7	5	2	2	1	3	2	1	948	2	2	1	2169	4	718	Mushroom7.bmp	Bracelet8.bmp	Stapler6.bmp	Stapler10.bmp	Stapler9.bmp	Bracelet8.bmp	Stapler7.bmp	23	1	1	1	1	PSYCHOLOGIE
FAUST_1[2014-06]	28	3	17	5	2	1	1	3	2	1	947	1	1	1	2669	4	1333	Swirl1.bmp	Coins8.bmp	Coins10.bmp	Coins3.bmp	Holly17.bmp	Coins12.bmp	Coins3.bmp	23	1	1	1	1	PSYCHOLOGIE
FAUST_1[2014-06]	28	3	10	5	2	2	1	3	2	1	1183	1	1	1	2322	3	1103	Fudge15.bmp	Chocolate6.bmp	Man2.bmp	Chocolate9.bmp	Chocolate17.bmp	Chocolate24.bmp	Man2.bmp	23	1	1	1	1	PSYCHOLOGIE
FAUST_1[2014-06]	28	4	27	5	1	1	1	1	1	1	813	2	1	0	2257	4	933	ZOMBIE	weizen	gerste	hafer	zombie	roggen	weizen	23	1	1	1	1	PSYCHOLOGIE
FAUST_1[2014-06]	28	4	23	5	1	2	1	1	2	0	889	1	1	1	2199	4	761	HÄKELNADEL	ozean	fluss	see	häkelnadel	teich	häkelnadel	23	1	1	1	1	PSYCHOLOGIE
FAUST_1[2014-06]	28	4	28	5	1	1	2	1	2	0	1088	1	1	1	1288	4	769	BLOCKHAUS	füller	scheune	füller	blockhaus	schuppen	hütte	23	1	1	1	1	PSYCHOLOGIE
FAUST_1[2014-06]	28	4	22	5	1	2	2	1	1	1	2998	2	2	1	2473	3	1212	BEETHOVEN	vivaldi	chopin	beethoven	mozart	beethoven	becher	23	1	1	1	1	PSYCHOLOGIE
FAUST_1[2014-06]	28	4	1	5	1	1	1	1	1	1	1982	2	1	0	2635	4	1701	ROUGE	rouge	basteln	zeichnen	schreiben	lesen	zeichnen	23	1	1	1	1	PSYCHOLOGIE
FAUST_1[2014-06]	28	4	25	5	1	2	1	1	1	1	862	2	2	1	2571	4	958	HERZOG	arzt	herzog	richter	polizist	herzog	lehrer	23	1	1	1	1	PSYCHOLOGIE
FAUST_1[2014-06]	28	4	10	5	1	1	2	1	2	0	4568	2	1	0	2546	1	1556	COMPUTER	laptop	computer	meißel	drucker	mobiltelefon	meißel	23	1	1	1	1	PSYCHOLOGIE
FAUST_1[2014-06]	28	4	13	5	1	2	2	1	1	1	1281	2	1	0	2493	3	1138	KOPF	hand	oper	arm	kopf	bein	kopf	23	1	1	1	1	PSYCHOLOGIE
FAUST_1[2014-06]	28	4	6	5	1	1	1	1	2	0	4875	2	2	1	2556	4	2166	MARK	mark	thüringen	sachsen	brandenburg	thüringen	saarland	23	1	1	1	1	PSYCHOLOGIE
FAUST_1[2014-06]	28	4	19	5	1	2	1	1	1	1	920	1	1	1	2860	3	1013	ROSE	regen	sonnenschein	rose	nebel	rose	hagel	23	1	1	1	1	PSYCHOLOGIE
FAUST_1[2014-06]	28	4	11	5	1	1	2	1	2	0	1060	1	1	1	1826	3	2058	LOCHER	büroklammer	locher	mops	lineal	klebeband	mops	23	1	1	1	1	PSYCHOLOGIE
FAUST_1[2014-06]	28	4	26	5	1	2	2	1	1	1	904	1	2	0	3263	4	800	SPINAT	spinat	karotten	bohnen	hemd	spinat	blumenkohl	23	1	1	1	1	PSYCHOLOGIE
FAUST_1[2014-06]	28	4	24	5	1	1	1	2	1	0	1924	2	2	1	2573	1	924	LUNGE	herz	gewehr	schwert	dolch	bombe	schwert	23	1	1	1	1	PSYCHOLOGIE
FAUST_1[2014-06]	28	4	2	5	1	2	1	2	2	1	984	1	1	1	2410	4	783	HUMMEL	wespe	bonbons	wespe	marzipan	gummibärchen	karamell	23	1	1	1	1	PSYCHOLOGIE
FAUST_1[2014-06]	28	4	4	5	1	1	2	2	2	1	791	1	1	1	1903	4	1101	LENKRAD	handbremse	rosmarin	kupplung	gaspedal	rosmarin	rückspiegel	23	1	1	1	1	PSYCHOLOGIE
FAUST_1[2014-06]	28	4	21	5	1	2	2	2	2	1	947	2	2	1	2191	3	1145	ASIEN	australien	afrika	nordamerika	afrika	silber	südamerika	23	1	1	1	1	PSYCHOLOGIE
FAUST_1[2014-06]	28	4	31	5	1	1	1	2	2	1	1756	1	2	0	2458	3	739	KEROSIN	adverb	nomen	verb	benzin	nomen	adjektiv	23	1	1	1	1	PSYCHOLOGIE
FAUST_1[2014-06]	28	4	29	5	1	2	1	2	2	1	1183	1	1	1	1659	4	820	LEINEN	rot	grün	baumwolle	gelb	baumwolle	lila	23	1	1	1	1	PSYCHOLOGIE
FAUST_1[2014-06]	28	4	32	5	1	1	2	2	1	0	1090	2	2	1	2778	3	878	TENNIS	fußball	stickstoff	schwimmen	stickstoff	skifahren	golf	23	1	1	1	1	PSYCHOLOGIE
FAUST_1[2014-06]	28	4	5	5	1	2	2	2	2	1	2915	2	2	1	1455	2	1242	TEQUILA	röteln	gin	whiskey	wodka	gin	rum	23	1	1	1	1	PSYCHOLOGIE
FAUST_1[2014-06]	28	4	17	5	1	1	1	2	2	1	1003	1	1	1	1273	2	1723	SEHEN	moschee	tempel	kapelle	kirche	schmecken	moschee	23	1	1	1	1	PSYCHOLOGIE
FAUST_1[2014-06]	28	4	16	5	1	2	1	2	2	1	792	2	2	1	2344	4	941	STRAßENBAHN	fahrrad	tanne	weide	fahrrad	birke	buche	23	1	1	1	1	PSYCHOLOGIE
FAUST_1[2014-06]	28	4	20	5	1	1	2	2	2	1	1031	1	1	1	2013	4	872	SCRABBLE	meter	schach	halma	monopoly	meter	backgammon	23	1	1	1	1	PSYCHOLOGIE
FAUST_1[2014-06]	28	4	9	5	1	2	2	2	2	1	1416	1	1	1	2446	2	1436	BACKBLECH	nudelholz	klarinette	pfannenwender	küchenwaage	backform	nudelholz	23	1	1	1	1	PSYCHOLOGIE
FAUST_1[2014-06]	28	4	3	5	1	1	1	3	2	1	987	1	2	0	3013	4	1490	POMMES	schütze	hamburg	steinbock	wassermann	steinbock	jungfrau	23	1	1	1	1	PSYCHOLOGIE
FAUST_1[2014-06]	28	4	18	5	1	2	1	3	2	1	984	1	1	1	1333	3	879	TEELÖFFEL	tisch	jahr	tisch	minute	tag	sekunde	23	1	1	1	1	PSYCHOLOGIE
FAUST_1[2014-06]	28	4	8	5	1	1	1	3	2	1	995	2	2	1	1456	2	872	LEOPARD	dreieck	internet	zeitung	buch	radio	internet	23	1	1	1	1	PSYCHOLOGIE
FAUST_1[2014-06]	28	4	30	5	1	2	1	3	2	1	1005	2	2	1	1813	4	717	ENGLAND	sohn	schiff	yacht	boot	sohn	fähre	23	1	1	1	1	PSYCHOLOGIE
FAUST_1[2014-06]	28	4	14	5	1	1	1	3	2	1	2040	1	1	1	1859	3	1562	HASCHISCH	angst	birne	pflaume	erdbeere	birne	banane	23	1	1	1	1	PSYCHOLOGIE
FAUST_1[2014-06]	28	4	7	5	1	2	1	3	2	1	1115	1	1	1	2920	4	1165	RHEIN	erdkunde	saturn	venus	erdkunde	pluto	merkur	23	1	1	1	1	PSYCHOLOGIE
FAUST_1[2014-06]	28	4	15	5	1	1	1	3	2	1	1498	2	2	1	1257	4	1049	PORSCHE	amsel	fink	taube	forelle	fink	schwalbe	23	1	1	1	1	PSYCHOLOGIE
FAUST_1[2014-06]	28	4	12	5	1	2	1	3	2	1	1916	1	2	0	1578	2	1279	WESTERN	tango	hauptschule	tango	gymnasium	realschule	berufsschule	23	1	1	1	1	PSYCHOLOGIE
