experiment	subject	block	trial	order	material	repeated	related	probetype	response	correct	rt	math_response	math_correctresponse	math_correct	math_rt	confidence	confidence_rt	probe	item1	item2	item3	item4	item5	item6	age	sex	handedness	color_vision	mother_tongue	occupation
FAUST_1[2014-06]	29	1	25	1	1	1	1	1	1	1	1598	2	2	1	1419	4	1295	MERCEDES	quadrat	mercedes	kreis	viereck	rechteck	viereck	22	1	1	1	1	MEIDIENWISSENSCHAFTEN
FAUST_1[2014-06]	29	1	13	1	1	2	1	1	1	1	1394	1	2	0	2625	3	1107	KAJAL	kerosin	kajal	petroleum	kajal	benzin	bleifrei	22	1	1	1	1	MEIDIENWISSENSCHAFTEN
FAUST_1[2014-06]	29	1	5	1	1	1	2	1	1	1	3841	2	1	0	1509	4	1789	HAMMER	hammer	mumps	zange	säge	mumps	bohrer	22	1	1	1	1	MEIDIENWISSENSCHAFTEN
FAUST_1[2014-06]	29	1	6	1	1	2	2	1	1	1	2062	2	2	1	2061	4	1347	KANU	kanu	yacht	buch	kanu	schiff	boot	22	1	1	1	1	MEIDIENWISSENSCHAFTEN
FAUST_1[2014-06]	29	1	20	1	1	1	1	1	1	1	1673	1	2	0	2276	4	1914	HÄKELNADEL	halma	backgammon	monopoly	scrabble	häkelnadel	scrabble	22	1	1	1	1	MEIDIENWISSENSCHAFTEN
FAUST_1[2014-06]	29	1	22	1	1	2	1	1	1	1	1537	1	1	1	2275	4	1121	MAKRELE	majoran	makrele	oregano	rosmarin	makrele	thymian	22	1	1	1	1	MEIDIENWISSENSCHAFTEN
FAUST_1[2014-06]	29	1	16	1	1	1	2	1	1	1	1374	1	1	1	2022	3	1618	FREUDE	freude	angst	ärger	bratwurst	trauer	bratwurst	22	1	1	1	1	MEIDIENWISSENSCHAFTEN
FAUST_1[2014-06]	29	1	2	1	1	2	2	1	2	0	4359	1	2	0	2145	3	2608	HERZ	herz	leber	riechen	niere	magen	herz	22	1	1	1	1	MEIDIENWISSENSCHAFTEN
FAUST_1[2014-06]	29	1	4	1	1	1	1	1	1	1	2573	2	1	0	1034	4	1810	LAKRITZ	meile	zentimeter	meile	lakritz	meter	millimeter	22	1	1	1	1	MEIDIENWISSENSCHAFTEN
FAUST_1[2014-06]	29	1	9	1	1	2	1	1	1	1	3608	2	2	1	2109	3	1228	LINEAL	trompete	posaune	lineal	oboe	flöte	lineal	22	1	1	1	1	MEIDIENWISSENSCHAFTEN
FAUST_1[2014-06]	29	1	14	1	1	1	2	1	1	1	1242	2	2	1	2113	4	1149	WASSERSTOFF	wasserstoff	pfannenwender	kohlenstoff	sauerstoff	pfannenwender	helium	22	1	1	1	1	MEIDIENWISSENSCHAFTEN
FAUST_1[2014-06]	29	1	7	1	1	2	2	1	1	1	1235	2	1	0	2051	4	2127	TEMPEL	tempel	stunde	kirche	tempel	synagoge	kapelle	22	1	1	1	1	MEIDIENWISSENSCHAFTEN
FAUST_1[2014-06]	29	1	26	1	1	1	1	2	2	1	1117	1	2	0	2061	4	1916	PISTOLE	rumba	chachacha	walzer	foxtrott	bombe	foxtrott	22	1	1	1	1	MEIDIENWISSENSCHAFTEN
FAUST_1[2014-06]	29	1	31	1	1	2	1	2	2	1	1182	1	1	1	1966	4	1093	TOMATEN	biene	mücke	spinat	hummel	spinat	ameise	22	1	1	1	1	MEIDIENWISSENSCHAFTEN
FAUST_1[2014-06]	29	1	1	1	1	1	2	2	2	1	2217	1	1	1	2563	4	2241	BERUFSSCHULE	realschule	schwimmen	hauptschule	schwimmen	gymnasium	gesamtschule	22	1	1	1	1	MEIDIENWISSENSCHAFTEN
FAUST_1[2014-06]	29	1	11	1	1	2	2	2	2	1	1891	1	2	0	2037	3	1524	SCHWEIZ	österreich	hand	österreich	dänemark	italien	england	22	1	1	1	1	MEIDIENWISSENSCHAFTEN
FAUST_1[2014-06]	29	1	15	1	1	1	1	2	2	1	1253	1	1	1	2628	4	1466	PLUTO	elbe	donau	main	jupiter	weser	elbe	22	1	1	1	1	MEIDIENWISSENSCHAFTEN
FAUST_1[2014-06]	29	1	32	1	1	2	1	2	1	0	2094	1	1	1	2591	2	1407	MOPS	wodka	dackel	whiskey	rum	gin	dackel	22	1	1	1	1	MEIDIENWISSENSCHAFTEN
FAUST_1[2014-06]	29	1	30	1	1	1	2	2	2	1	1587	1	1	1	2313	4	1989	CHOPIN	becher	brahms	vivaldi	beethoven	mozart	becher	22	1	1	1	1	MEIDIENWISSENSCHAFTEN
FAUST_1[2014-06]	29	1	29	1	1	2	2	2	2	1	927	1	1	1	2200	4	1867	FLUSS	meer	hamburg	see	meer	ozean	teich	22	1	1	1	1	MEIDIENWISSENSCHAFTEN
FAUST_1[2014-06]	29	1	8	1	1	1	1	2	2	1	1782	1	2	0	2419	4	1217	SAARLAND	wolle	flanell	leinen	baumwolle	hessen	baumwolle	22	1	1	1	1	MEIDIENWISSENSCHAFTEN
FAUST_1[2014-06]	29	1	17	1	1	2	1	2	2	1	2783	1	2	0	1689	2	1419	HEROIN	gabel	messer	haschisch	löffel	haschisch	teelöffel	22	1	1	1	1	MEIDIENWISSENSCHAFTEN
FAUST_1[2014-06]	29	1	18	1	1	1	2	2	1	0	2121	1	2	0	2509	1	2641	PFLAUME	schreiben	banane	apfel	birne	erdbeere	schreiben	22	1	1	1	1	MEIDIENWISSENSCHAFTEN
FAUST_1[2014-06]	29	1	3	1	1	2	2	2	1	0	3192	2	2	1	2598	2	3442	SCHWALBE	fink	taube	meise	fink	taxi	amsel	22	1	1	1	1	MEIDIENWISSENSCHAFTEN
FAUST_1[2014-06]	29	1	27	1	1	1	1	3	2	1	2102	2	2	1	2343	4	2813	VATER	schrank	stuhl	sofa	tisch	mathematik	schrank	22	1	1	1	1	MEIDIENWISSENSCHAFTEN
FAUST_1[2014-06]	29	1	28	1	1	2	1	3	2	1	1918	2	1	0	2575	4	1519	PFARRER	füller	nelke	veilchen	tulpe	füller	lilie	22	1	1	1	1	MEIDIENWISSENSCHAFTEN
FAUST_1[2014-06]	29	1	19	1	1	1	1	3	2	1	2111	2	1	0	1312	4	1815	MOBILTELEFON	theater	zirkus	kino	zirkus	sonnenschein	konzertsaal	22	1	1	1	1	MEIDIENWISSENSCHAFTEN
FAUST_1[2014-06]	29	1	23	1	1	2	1	3	2	1	6243	2	1	0	1960	3	2146	HERZOG	actionfilm	leopard	gepard	actionfilm	tiger	panther	22	1	1	1	1	MEIDIENWISSENSCHAFTEN
FAUST_1[2014-06]	29	1	21	1	1	1	1	3	2	1	2985	2	1	0	2445	3	1700	ZOMBIE	pfennig	cent	mark	steinbock	mark	dollar	22	1	1	1	1	MEIDIENWISSENSCHAFTEN
FAUST_1[2014-06]	29	1	24	1	1	2	1	3	2	1	1810	2	2	1	2893	3	1596	GRÜN	rückspiegel	lenkrad	nomen	kupplung	gaspedal	nomen	22	1	1	1	1	MEIDIENWISSENSCHAFTEN
FAUST_1[2014-06]	29	1	10	1	1	1	1	3	2	1	1183	1	1	1	2079	4	1582	HAFER	nordamerika	asien	nordamerika	afrika	australien	hose	22	1	1	1	1	MEIDIENWISSENSCHAFTEN
FAUST_1[2014-06]	29	1	12	1	1	2	1	3	2	1	1306	1	1	1	1704	4	1349	BRONZE	weide	blockhaus	weide	hütte	schuppen	baracke	22	1	1	1	1	MEIDIENWISSENSCHAFTEN
FAUST_1[2014-06]	29	2	5	1	2	1	1	1	1	1	1645	2	1	0	2594	4	1606	Candle10.bmp	Button20.bmp	Button10.bmp	Candle10.bmp	Button14.bmp	Button3.bmp	Button14.bmp	22	1	1	1	1	MEIDIENWISSENSCHAFTEN
FAUST_1[2014-06]	29	2	2	1	2	2	1	1	1	1	1910	2	2	1	2009	4	1037	Man4.bmp	Coins10.bmp	Man4.bmp	Coins3.bmp	Coins8.bmp	Man4.bmp	Coins12.bmp	22	1	1	1	1	MEIDIENWISSENSCHAFTEN
FAUST_1[2014-06]	29	2	7	1	2	1	2	1	1	1	1853	2	2	1	1397	4	1772	Scissors14.bmp	Scissors3.bmp	Paperclip4.bmp	Scissors23.bmp	Scissors1.bmp	Paperclip4.bmp	Scissors14.bmp	22	1	1	1	1	MEIDIENWISSENSCHAFTEN
FAUST_1[2014-06]	29	2	12	1	2	2	2	1	1	1	1454	2	1	0	1882	4	1328	Bracelet8.bmp	Bracelet2.bmp	Bag21.bmp	Bracelet8.bmp	Bracelet5.bmp	Bracelet18.bmp	Bracelet8.bmp	22	1	1	1	1	MEIDIENWISSENSCHAFTEN
FAUST_1[2014-06]	29	2	10	1	2	1	1	1	1	1	1047	1	1	1	2074	4	2217	Lipstick2.bmp	Star19.bmp	Star2.bmp	Star19.bmp	Star7.bmp	Star1.bmp	Lipstick2.bmp	22	1	1	1	1	MEIDIENWISSENSCHAFTEN
FAUST_1[2014-06]	29	2	1	1	2	2	1	1	1	1	2414	1	1	1	1919	4	1591	Chocolate9.bmp	Chocolate9.bmp	Biscuit9.bmp	Biscuit17.bmp	Biscuit4.bmp	Chocolate9.bmp	Biscuit25.bmp	22	1	1	1	1	MEIDIENWISSENSCHAFTEN
FAUST_1[2014-06]	29	2	16	1	2	1	2	1	1	1	1489	2	2	1	2079	4	1027	Mushroom18.bmp	Mushroom6.bmp	Mushroom25.bmp	Mushroom14.bmp	Feather11.bmp	Mushroom18.bmp	Feather11.bmp	22	1	1	1	1	MEIDIENWISSENSCHAFTEN
FAUST_1[2014-06]	29	2	17	1	2	2	2	1	1	1	3387	2	1	0	2607	3	1120	Strawberry21.bmp	Strawberry3.bmp	Strawberry4.bmp	Strawberry21.bmp	Shell1.bmp	Strawberry14.bmp	Strawberry21.bmp	22	1	1	1	1	MEIDIENWISSENSCHAFTEN
FAUST_1[2014-06]	29	2	11	1	2	1	1	2	1	0	3514	1	2	0	2267	2	1254	Tomato12.bmp	Hanger7.bmp	Hanger2.bmp	Hanger7.bmp	Tomato2.bmp	Hanger15.bmp	Hanger12.bmp	22	1	1	1	1	MEIDIENWISSENSCHAFTEN
FAUST_1[2014-06]	29	2	3	1	2	2	1	2	1	0	3622	1	1	1	2443	2	2246	Plug18.bmp	Plug8.bmp	Bun5.bmp	Bun12.bmp	Bun22.bmp	Plug8.bmp	Bun17.bmp	22	1	1	1	1	MEIDIENWISSENSCHAFTEN
FAUST_1[2014-06]	29	2	19	1	2	1	2	2	2	1	1928	1	1	1	2091	3	2155	Sweet1.bmp	Sweet10.bmp	Pen20.bmp	Sweet25.bmp	Pen20.bmp	Sweet18.bmp	Sweet22.bmp	22	1	1	1	1	MEIDIENWISSENSCHAFTEN
FAUST_1[2014-06]	29	2	6	1	2	2	2	2	1	0	4201	2	1	0	1839	2	2503	Car21.bmp	Car14.bmp	Car12.bmp	Car7.bmp	Toothbrush9.bmp	Car14.bmp	Car13.bmp	22	1	1	1	1	MEIDIENWISSENSCHAFTEN
FAUST_1[2014-06]	29	2	18	1	2	1	1	2	2	1	2667	1	2	0	1740	3	1761	Screw9.bmp	Umbrella7.bmp	Umbrella17.bmp	Umbrella19.bmp	Umbrella21.bmp	Screw16.bmp	Umbrella19.bmp	22	1	1	1	1	MEIDIENWISSENSCHAFTEN
FAUST_1[2014-06]	29	2	13	1	2	2	1	2	2	1	2945	1	2	0	2006	4	1305	Flower14.bmp	Flower13.bmp	Keys8.bmp	Keys9.bmp	Flower13.bmp	Keys7.bmp	Keys5.bmp	22	1	1	1	1	MEIDIENWISSENSCHAFTEN
FAUST_1[2014-06]	29	2	8	1	2	1	2	2	2	1	1550	1	1	1	1638	4	1694	Pear18.bmp	Pear15.bmp	Pear16.bmp	Hand8.bmp	Pear4.bmp	Hand8.bmp	Pear7.bmp	22	1	1	1	1	MEIDIENWISSENSCHAFTEN
FAUST_1[2014-06]	29	2	14	1	2	2	2	2	1	0	3971	1	2	0	1962	3	1229	Ginger17.bmp	Ginger10.bmp	Ginger15.bmp	Ginger5.bmp	Stapler7.bmp	Ginger3.bmp	Ginger15.bmp	22	1	1	1	1	MEIDIENWISSENSCHAFTEN
FAUST_1[2014-06]	29	2	4	1	2	1	1	3	2	1	1243	1	2	0	2111	4	1236	String8.bmp	Brocolli4.bmp	Glass16.bmp	Glass4.bmp	Glass19.bmp	Glass3.bmp	Glass19.bmp	22	1	1	1	1	MEIDIENWISSENSCHAFTEN
FAUST_1[2014-06]	29	2	22	1	2	2	1	3	2	1	1112	1	2	0	1756	4	1428	Varnish11.bmp	Cake24.bmp	Leaf22.bmp	Leaf10.bmp	Cake24.bmp	Leaf15.bmp	Leaf21.bmp	22	1	1	1	1	MEIDIENWISSENSCHAFTEN
FAUST_1[2014-06]	29	2	15	1	2	1	1	3	2	1	1586	2	2	1	2311	4	1142	Present2.bmp	Key11.bmp	Jigsaw14.bmp	Key13.bmp	Key20.bmp	Key5.bmp	Key20.bmp	22	1	1	1	1	MEIDIENWISSENSCHAFTEN
FAUST_1[2014-06]	29	2	21	1	2	2	1	3	2	1	1443	1	1	1	1815	4	1284	Fudge15.bmp	Onion19.bmp	Chilli14.bmp	Onion7.bmp	Onion13.bmp	Onion18.bmp	Chilli14.bmp	22	1	1	1	1	MEIDIENWISSENSCHAFTEN
FAUST_1[2014-06]	29	2	20	1	2	1	1	3	2	1	2199	2	2	1	1780	4	1634	Nut2.bmp	Daff22.bmp	Daff1.bmp	Holly17.bmp	Daff22.bmp	Daff3.bmp	Daff9.bmp	22	1	1	1	1	MEIDIENWISSENSCHAFTEN
FAUST_1[2014-06]	29	2	9	1	2	2	1	3	2	1	1467	1	2	0	1495	4	1554	Apple5.bmp	Swirl5.bmp	Fork17.bmp	Swirl10.bmp	Swirl13.bmp	Swirl23.bmp	Fork17.bmp	22	1	1	1	1	MEIDIENWISSENSCHAFTEN
FAUST_1[2014-06]	29	3	10	1	3	1	1	1	1	1	3437	2	2	1	2218	3	1495	plant_2.bmp	glasses_15.bmp	glasses_6.bmp	glasses_8.bmp	glasses_13.bmp	glasses_8.bmp	plant_2.bmp	22	1	1	1	1	MEIDIENWISSENSCHAFTEN
FAUST_1[2014-06]	29	3	6	1	3	2	1	1	1	1	1816	1	2	0	1992	4	1840	beanbagchair_17.bmp	beanbagchair_17.bmp	trumpet_17.bmp	trumpet_1.bmp	beanbagchair_17.bmp	trumpet_5.bmp	trumpet_6.bmp	22	1	1	1	1	MEIDIENWISSENSCHAFTEN
FAUST_1[2014-06]	29	3	16	1	3	1	2	1	1	1	6737	2	1	0	2822	3	1794	rollerskates_7.bmp	rollerskates_7.bmp	pasta_10.bmp	rollerskates_5.bmp	rollerskates_8.bmp	pasta_10.bmp	rollerskates_17.bmp	22	1	1	1	1	MEIDIENWISSENSCHAFTEN
FAUST_1[2014-06]	29	3	15	1	3	2	2	1	1	1	1908	1	2	0	2388	4	1188	hairdryer_12.bmp	hairdryer_12.bmp	birdhouse_7.bmp	hairdryer_13.bmp	hairdryer_7.bmp	hairdryer_12.bmp	hairdryer_14.bmp	22	1	1	1	1	MEIDIENWISSENSCHAFTEN
FAUST_1[2014-06]	29	3	4	1	3	1	1	1	1	1	1263	2	2	1	1450	4	1194	printer_5.bmp	doorknob_14.bmp	doorknob_17.bmp	printer_5.bmp	doorknob_17.bmp	doorknob_7.bmp	doorknob_2.bmp	22	1	1	1	1	MEIDIENWISSENSCHAFTEN
FAUST_1[2014-06]	29	3	2	1	3	2	1	1	1	1	3397	2	2	1	1829	4	1356	easteregg_5.bmp	easteregg_5.bmp	tricycle_2.bmp	easteregg_5.bmp	tricycle_15.bmp	tricycle_5.bmp	tricycle_10.bmp	22	1	1	1	1	MEIDIENWISSENSCHAFTEN
FAUST_1[2014-06]	29	3	32	1	3	1	2	1	1	1	7275	2	2	1	1849	2	1104	lawnmower_15.bmp	lawnmower_3.bmp	shoe_17.bmp	lawnmower_15.bmp	shoe_17.bmp	lawnmower_17.bmp	lawnmower_8.bmp	22	1	1	1	1	MEIDIENWISSENSCHAFTEN
FAUST_1[2014-06]	29	3	11	1	3	2	2	1	1	1	2339	1	1	1	2661	3	1294	scooter_5.bmp	scooter_5.bmp	powerstrip_13.bmp	scooter_10.bmp	scooter_11.bmp	scooter_8.bmp	scooter_5.bmp	22	1	1	1	1	MEIDIENWISSENSCHAFTEN
FAUST_1[2014-06]	29	3	23	1	3	1	1	1	1	1	1318	1	2	0	2228	4	1605	remote_2.bmp	doorknocker_11.bmp	doorknocker_4.bmp	doorknocker_5.bmp	remote_2.bmp	doorknocker_4.bmp	doorknocker_14.bmp	22	1	1	1	1	MEIDIENWISSENSCHAFTEN
FAUST_1[2014-06]	29	3	27	1	3	2	1	1	1	1	1468	1	1	1	2094	4	2232	bowlingpin_11.bmp	flashlight_13.bmp	bowlingpin_11.bmp	flashlight_12.bmp	flashlight_2.bmp	bowlingpin_11.bmp	flashlight_1.bmp	22	1	1	1	1	MEIDIENWISSENSCHAFTEN
FAUST_1[2014-06]	29	3	30	1	3	1	2	1	1	1	2725	2	2	1	2529	3	1052	coffee_15.bmp	mic_10.bmp	coffee_15.bmp	mic_10.bmp	coffee_7.bmp	coffee_2.bmp	coffee_1.bmp	22	1	1	1	1	MEIDIENWISSENSCHAFTEN
FAUST_1[2014-06]	29	3	17	1	3	2	2	1	1	1	1666	1	1	1	1548	4	1470	skateboard_11.bmp	skateboard_11.bmp	skateboard_16.bmp	skateboard_11.bmp	skateboard_3.bmp	sink_6.bmp	skateboard_14.bmp	22	1	1	1	1	MEIDIENWISSENSCHAFTEN
FAUST_1[2014-06]	29	3	5	1	3	1	1	2	2	1	1565	2	1	0	1704	4	2604	bagel_12.bmp	jacket_11.bmp	jacket_7.bmp	bagel_16.bmp	jacket_11.bmp	jacket_6.bmp	jacket_13.bmp	22	1	1	1	1	MEIDIENWISSENSCHAFTEN
FAUST_1[2014-06]	29	3	31	1	3	2	1	2	2	1	2222	2	2	1	1460	4	1650	videogamecontroller_13.bmp	videogamecontroller_2.bmp	leatherman_14.bmp	leatherman_10.bmp	leatherman_7.bmp	videogamecontroller_2.bmp	leatherman_2.bmp	22	1	1	1	1	MEIDIENWISSENSCHAFTEN
FAUST_1[2014-06]	29	3	24	1	3	1	2	2	1	0	2901	2	1	0	2080	4	1508	carabiner_6.bmp	carabiner_2.bmp	carabiner_5.bmp	carabiner_7.bmp	saddle_5.bmp	carabiner_9.bmp	saddle_5.bmp	22	1	1	1	1	MEIDIENWISSENSCHAFTEN
FAUST_1[2014-06]	29	3	25	1	3	2	2	2	2	1	1652	2	2	1	1351	2	1465	sofa_13.bmp	sofa_3.bmp	sofa_12.bmp	sofa_3.bmp	sofa_6.bmp	sofa_9.bmp	circuitboard_2.bmp	22	1	1	1	1	MEIDIENWISSENSCHAFTEN
FAUST_1[2014-06]	29	3	26	1	3	1	1	2	2	1	3309	2	2	1	1823	4	1737	windchime_10.bmp	rusdoll_5.bmp	rusdoll_8.bmp	rusdoll_1.bmp	rusdoll_5.bmp	windchime_15.bmp	rusdoll_6.bmp	22	1	1	1	1	MEIDIENWISSENSCHAFTEN
FAUST_1[2014-06]	29	3	21	1	3	2	1	2	2	1	1450	1	2	0	2741	4	1141	vase_6.bmp	tv_4.bmp	tv_8.bmp	tv_5.bmp	vase_15.bmp	tv_7.bmp	vase_15.bmp	22	1	1	1	1	MEIDIENWISSENSCHAFTEN
FAUST_1[2014-06]	29	3	1	1	3	1	2	2	2	1	1690	1	1	1	1954	4	1960	wig_1.bmp	ring_8.bmp	wig_12.bmp	ring_8.bmp	wig_9.bmp	wig_6.bmp	wig_7.bmp	22	1	1	1	1	MEIDIENWISSENSCHAFTEN
FAUST_1[2014-06]	29	3	9	1	3	2	2	2	2	1	1564	1	2	0	1907	4	1312	watch_14.bmp	watch_6.bmp	watch_3.bmp	watch_7.bmp	camera_4.bmp	watch_7.bmp	watch_8.bmp	22	1	1	1	1	MEIDIENWISSENSCHAFTEN
FAUST_1[2014-06]	29	3	8	1	3	1	1	2	2	1	1559	2	1	0	2195	4	1201	glove_10.bmp	babycrib_7.bmp	babycrib_2.bmp	babycrib_9.bmp	babycrib_6.bmp	babycrib_7.bmp	glove_15.bmp	22	1	1	1	1	MEIDIENWISSENSCHAFTEN
FAUST_1[2014-06]	29	3	12	1	3	2	1	2	2	1	1706	2	1	0	2509	4	1119	speaker_17.bmp	speaker_15.bmp	guitar_7.bmp	guitar_5.bmp	guitar_8.bmp	guitar_14.bmp	speaker_15.bmp	22	1	1	1	1	MEIDIENWISSENSCHAFTEN
FAUST_1[2014-06]	29	3	7	1	3	1	2	2	2	1	1810	2	1	0	1973	4	831	cheesegrater_5.bmp	cheesegrater_15.bmp	cheesegrater_8.bmp	orifan_17.bmp	cheesegrater_11.bmp	cheesegrater_14.bmp	orifan_17.bmp	22	1	1	1	1	MEIDIENWISSENSCHAFTEN
FAUST_1[2014-06]	29	3	28	1	3	2	2	2	2	1	1631	1	1	1	2537	4	1523	turtle_11.bmp	turtle_12.bmp	turtle_6.bmp	trunk_2.bmp	turtle_2.bmp	turtle_7.bmp	turtle_2.bmp	22	1	1	1	1	MEIDIENWISSENSCHAFTEN
FAUST_1[2014-06]	29	3	20	1	3	1	1	3	2	1	1855	1	1	1	2419	4	1474	shredder_1.bmp	abacus_7.bmp	trophy_15.bmp	trophy_4.bmp	trophy_6.bmp	trophy_16.bmp	trophy_15.bmp	22	1	1	1	1	MEIDIENWISSENSCHAFTEN
FAUST_1[2014-06]	29	3	29	1	3	2	1	3	2	1	3348	1	1	1	2398	4	1132	chair_2.bmp	garbagecan_13.bmp	horseshoe_4.bmp	garbagecan_10.bmp	horseshoe_4.bmp	garbagecan_2.bmp	garbagecan_8.bmp	22	1	1	1	1	MEIDIENWISSENSCHAFTEN
FAUST_1[2014-06]	29	3	14	1	3	1	1	3	2	1	1411	1	1	1	1991	4	894	hammer_15.bmp	backpack_16.bmp	router_5.bmp	backpack_6.bmp	backpack_13.bmp	backpack_12.bmp	backpack_13.bmp	22	1	1	1	1	MEIDIENWISSENSCHAFTEN
FAUST_1[2014-06]	29	3	3	1	3	2	1	3	2	1	1331	2	2	1	1717	4	1442	fan_10.bmp	saltpeppershake_17.bmp	saltpeppershake_8.bmp	cellphone_4.bmp	saltpeppershake_9.bmp	cellphone_4.bmp	saltpeppershake_12.bmp	22	1	1	1	1	MEIDIENWISSENSCHAFTEN
FAUST_1[2014-06]	29	3	22	1	3	1	1	3	2	1	1952	2	1	0	1744	4	1263	laptop_15.bmp	socks_4.bmp	socks_10.bmp	cherubstatue_12.bmp	socks_15.bmp	socks_10.bmp	socks_12.bmp	22	1	1	1	1	MEIDIENWISSENSCHAFTEN
FAUST_1[2014-06]	29	3	18	1	3	2	1	3	2	1	1347	2	2	1	2352	4	1938	hairbrush_12.bmp	cat_10.bmp	highchair_10.bmp	cat_9.bmp	cat_4.bmp	cat_1.bmp	highchair_10.bmp	22	1	1	1	1	MEIDIENWISSENSCHAFTEN
FAUST_1[2014-06]	29	3	19	1	3	1	1	3	2	1	963	2	1	0	1675	4	1100	watergun_7.bmp	cake_5.bmp	cake_14.bmp	cake_1.bmp	parfait_13.bmp	cake_5.bmp	cake_3.bmp	22	1	1	1	1	MEIDIENWISSENSCHAFTEN
FAUST_1[2014-06]	29	3	13	1	3	2	1	3	2	1	1597	2	2	1	2769	4	1448	carriage_9.bmp	goggle_3.bmp	goggle_1.bmp	iceskates_9.bmp	goggle_9.bmp	iceskates_9.bmp	goggle_4.bmp	22	1	1	1	1	MEIDIENWISSENSCHAFTEN
FAUST_1[2014-06]	29	2	31	1	1	1	1	1	1	1	1625	2	2	1	1929	4	1508	TEMPEL	tempel	berlin	hannover	stuttgart	münchen	hannover	22	1	1	1	1	MEIDIENWISSENSCHAFTEN
FAUST_1[2014-06]	29	2	20	1	1	2	1	1	1	1	1950	2	2	1	1723	4	1403	BASTELN	rückspiegel	lenkrad	handbremse	basteln	kupplung	basteln	22	1	1	1	1	MEIDIENWISSENSCHAFTEN
FAUST_1[2014-06]	29	2	18	1	1	1	2	1	1	1	1521	1	1	1	3283	4	1248	SCHWIMMEN	fußball	skifahren	gepard	schwimmen	gepard	golf	22	1	1	1	1	MEIDIENWISSENSCHAFTEN
FAUST_1[2014-06]	29	2	21	1	1	2	2	1	1	1	1724	2	2	1	1688	4	1236	WASSERSTOFF	helium	wasserstoff	stickstoff	wasserstoff	kohlenstoff	wespe	22	1	1	1	1	MEIDIENWISSENSCHAFTEN
FAUST_1[2014-06]	29	2	25	1	1	1	1	1	1	1	1581	2	1	0	2094	4	1508	COMPUTER	erdkunde	chemie	physik	biologie	computer	biologie	22	1	1	1	1	MEIDIENWISSENSCHAFTEN
FAUST_1[2014-06]	29	2	22	1	1	2	1	1	1	1	1291	2	2	1	2063	4	1171	FILZSTIFT	straßenbahn	bus	filzstift	fahrrad	taxi	filzstift	22	1	1	1	1	MEIDIENWISSENSCHAFTEN
FAUST_1[2014-06]	29	2	32	1	1	1	2	1	1	1	1470	1	1	1	2114	4	1014	KOPF	karamell	kopf	bein	karamell	fuß	hand	22	1	1	1	1	MEIDIENWISSENSCHAFTEN
FAUST_1[2014-06]	29	2	24	1	1	2	2	1	1	1	1814	1	1	1	3153	4	1206	OBOE	oboe	trompete	oboe	scham	klarinette	posaune	22	1	1	1	1	MEIDIENWISSENSCHAFTEN
FAUST_1[2014-06]	29	2	29	1	1	1	1	1	1	1	2106	2	2	1	2594	4	1171	VENUS	internet	fernsehen	venus	internet	zeitung	buch	22	1	1	1	1	MEIDIENWISSENSCHAFTEN
FAUST_1[2014-06]	29	2	6	1	1	2	1	1	1	1	1165	1	1	1	2632	4	905	LILIE	pizza	bratwurst	pommes	lilie	döner	lilie	22	1	1	1	1	MEIDIENWISSENSCHAFTEN
FAUST_1[2014-06]	29	2	13	1	1	1	2	1	1	1	1399	2	2	1	1947	4	1359	LEHRER	richter	becher	pfarrer	becher	polizist	lehrer	22	1	1	1	1	MEIDIENWISSENSCHAFTEN
FAUST_1[2014-06]	29	2	7	1	1	2	2	1	1	1	1563	1	1	1	2484	4	1274	TEQUILA	tequila	hammer	whiskey	rum	wodka	tequila	22	1	1	1	1	MEIDIENWISSENSCHAFTEN
FAUST_1[2014-06]	29	2	10	1	1	1	1	2	2	1	2719	1	1	1	1964	4	1023	PFANNENWENDER	klebeband	locher	brieföffner	büroklammer	locher	backblech	22	1	1	1	1	MEIDIENWISSENSCHAFTEN
FAUST_1[2014-06]	29	2	30	1	1	2	1	2	2	1	1335	1	1	1	1866	2	5108	MARK	dollar	fink	meise	schwalbe	amsel	dollar	22	1	1	1	1	MEIDIENWISSENSCHAFTEN
FAUST_1[2014-06]	29	2	9	1	1	1	2	2	2	1	1299	1	1	1	2020	4	1500	KONZERTSAAL	zirkus	kino	stricknadel	oper	stricknadel	theater	22	1	1	1	1	MEIDIENWISSENSCHAFTEN
FAUST_1[2014-06]	29	2	19	1	1	2	2	2	2	1	1200	2	1	0	1704	4	993	NORDAMERIKA	afrika	australien	schmecken	südamerika	asien	südamerika	22	1	1	1	1	MEIDIENWISSENSCHAFTEN
FAUST_1[2014-06]	29	2	16	1	1	1	1	2	2	1	874	1	1	1	1533	4	1212	KAROTTEN	lippenstift	lidschatten	bohnen	kajal	rouge	kajal	22	1	1	1	1	MEIDIENWISSENSCHAFTEN
FAUST_1[2014-06]	29	2	15	1	1	2	1	2	2	1	1207	1	1	1	2459	4	1677	SOHN	onkel	tango	onkel	foxtrott	chachacha	rumba	22	1	1	1	1	MEIDIENWISSENSCHAFTEN
FAUST_1[2014-06]	29	2	8	1	1	1	2	2	1	0	3030	1	2	0	2267	3	1098	THÜRINGEN	adjektiv	sachsen	saarland	brandenburg	adjektiv	hessen	22	1	1	1	1	MEIDIENWISSENSCHAFTEN
FAUST_1[2014-06]	29	2	23	1	1	2	2	2	2	1	942	2	1	0	1877	4	986	TERRIER	mops	dackel	dogge	schäferhund	schrank	mops	22	1	1	1	1	MEIDIENWISSENSCHAFTEN
FAUST_1[2014-06]	29	2	5	1	1	1	1	2	2	1	1945	2	1	0	2441	3	1022	LACHS	italien	schweiz	dänemark	italien	hering	österreich	22	1	1	1	1	MEIDIENWISSENSCHAFTEN
FAUST_1[2014-06]	29	2	26	1	1	2	1	2	2	1	1560	1	1	1	2173	4	696	HERZ	fluss	magen	meer	ozean	teich	magen	22	1	1	1	1	MEIDIENWISSENSCHAFTEN
FAUST_1[2014-06]	29	2	4	1	1	1	2	2	2	1	2227	1	1	1	1496	3	1899	SCHUPPEN	blockhaus	scheune	baracke	gerste	hütte	gerste	22	1	1	1	1	MEIDIENWISSENSCHAFTEN
FAUST_1[2014-06]	29	2	14	1	1	2	2	2	2	1	1608	2	2	1	2482	4	1737	BANANE	birne	actionfilm	erdbeere	pflaume	apfel	erdbeere	22	1	1	1	1	MEIDIENWISSENSCHAFTEN
FAUST_1[2014-06]	29	2	11	1	1	1	1	3	2	1	1280	2	1	0	2653	4	1305	VIERECK	hose	zwilling	hose	jacke	bluse	rock	22	1	1	1	1	MEIDIENWISSENSCHAFTEN
FAUST_1[2014-06]	29	2	28	1	1	2	1	3	2	1	1216	2	1	0	1402	4	1247	MONOPOLY	gabel	grippe	gabel	windpocken	röteln	masern	22	1	1	1	1	MEIDIENWISSENSCHAFTEN
FAUST_1[2014-06]	29	2	1	1	1	1	1	3	2	1	1073	2	1	0	1948	4	1508	SONNENSCHEIN	thymian	koriander	majoran	flanell	rosmarin	thymian	22	1	1	1	1	MEIDIENWISSENSCHAFTEN
FAUST_1[2014-06]	29	2	3	1	1	2	1	3	2	1	1206	2	2	1	1682	4	822	DOLCH	main	donau	eisen	weser	eisen	rhein	22	1	1	1	1	MEIDIENWISSENSCHAFTEN
FAUST_1[2014-06]	29	2	12	1	1	1	1	3	2	1	2789	1	2	0	1512	2	1798	BENZIN	dämon	kilometer	millimeter	zentimeter	meter	kilometer	22	1	1	1	1	MEIDIENWISSENSCHAFTEN
FAUST_1[2014-06]	29	2	17	1	1	2	1	3	2	1	944	2	2	1	2315	4	1098	VOLVO	kaiser	kokain	cannabis	heroin	haschisch	kaiser	22	1	1	1	1	MEIDIENWISSENSCHAFTEN
FAUST_1[2014-06]	29	2	27	1	1	1	1	3	2	1	1284	2	2	1	3072	4	1403	TAG	buche	birke	tanne	weide	buche	lila	22	1	1	1	1	MEIDIENWISSENSCHAFTEN
FAUST_1[2014-06]	29	2	2	1	1	2	1	3	2	1	1136	2	2	1	1317	4	1047	REALSCHULE	yacht	chopin	boot	kanu	chopin	schiff	22	1	1	1	1	MEIDIENWISSENSCHAFTEN
FAUST_1[2014-06]	29	3	16	1	2	1	1	1	1	1	1204	1	2	0	2533	4	1393	Pen17.bmp	Varnish11.bmp	Varnish17.bmp	Pen17.bmp	Varnish3.bmp	Varnish5.bmp	Varnish3.bmp	22	1	1	1	1	MEIDIENWISSENSCHAFTEN
FAUST_1[2014-06]	29	3	18	1	2	2	1	1	1	1	1874	2	1	0	1502	3	1162	Paperclip13.bmp	Paperclip13.bmp	Star17.bmp	Star7.bmp	Star19.bmp	Star1.bmp	Paperclip13.bmp	22	1	1	1	1	MEIDIENWISSENSCHAFTEN
FAUST_1[2014-06]	29	3	10	1	2	1	2	1	2	0	1557	1	1	1	1944	2	1181	Pear16.bmp	Pear7.bmp	Pear15.bmp	Cake16.bmp	Pear18.bmp	Pear16.bmp	Cake16.bmp	22	1	1	1	1	MEIDIENWISSENSCHAFTEN
FAUST_1[2014-06]	29	3	14	1	2	2	2	1	1	1	1200	2	1	0	1450	4	1135	Holly17.bmp	Holly17.bmp	Holly3.bmp	Holly14.bmp	Hanger7.bmp	Holly17.bmp	Holly20.bmp	22	1	1	1	1	MEIDIENWISSENSCHAFTEN
FAUST_1[2014-06]	29	3	8	1	2	1	1	1	1	1	2686	2	1	0	2265	4	1270	Coins12.bmp	Keys6.bmp	Keys5.bmp	Keys6.bmp	Keys8.bmp	Keys7.bmp	Coins12.bmp	22	1	1	1	1	MEIDIENWISSENSCHAFTEN
FAUST_1[2014-06]	29	3	5	1	2	2	1	1	1	1	3321	1	2	0	2050	3	939	Leaf22.bmp	Man2.bmp	Leaf22.bmp	Man15.bmp	Man10.bmp	Man4.bmp	Leaf22.bmp	22	1	1	1	1	MEIDIENWISSENSCHAFTEN
FAUST_1[2014-06]	29	3	2	1	2	1	2	1	1	1	3032	2	2	1	3123	4	1615	Apple10.bmp	Car7.bmp	Apple21.bmp	Car7.bmp	Apple5.bmp	Apple18.bmp	Apple10.bmp	22	1	1	1	1	MEIDIENWISSENSCHAFTEN
FAUST_1[2014-06]	29	3	15	1	2	2	2	1	1	1	4149	2	2	1	1993	3	879	Bag4.bmp	Bag5.bmp	Bag4.bmp	Bag21.bmp	Bag4.bmp	Bag3.bmp	Mushroom14.bmp	22	1	1	1	1	MEIDIENWISSENSCHAFTEN
FAUST_1[2014-06]	29	3	3	1	2	1	1	2	2	1	4019	2	1	0	2466	4	1306	Key5.bmp	Swirl10.bmp	Swirl13.bmp	Swirl1.bmp	Key11.bmp	Swirl13.bmp	Swirl23.bmp	22	1	1	1	1	MEIDIENWISSENSCHAFTEN
FAUST_1[2014-06]	29	3	13	1	2	2	1	2	1	0	2486	2	2	1	1931	3	1638	Fork9.bmp	Fork14.bmp	Umbrella17.bmp	Umbrella6.bmp	Umbrella21.bmp	Fork14.bmp	Umbrella19.bmp	22	1	1	1	1	MEIDIENWISSENSCHAFTEN
FAUST_1[2014-06]	29	3	17	1	2	1	2	2	1	0	1295	2	2	1	2220	3	1252	Strawberry4.bmp	Strawberry18.bmp	Hand17.bmp	Strawberry21.bmp	Hand17.bmp	Strawberry3.bmp	Strawberry14.bmp	22	1	1	1	1	MEIDIENWISSENSCHAFTEN
FAUST_1[2014-06]	29	3	7	1	2	2	2	2	1	0	2590	1	1	1	2640	4	2352	Daff22.bmp	Daff1.bmp	Daff3.bmp	Daff21.bmp	Chilli11.bmp	Daff9.bmp	Daff3.bmp	22	1	1	1	1	MEIDIENWISSENSCHAFTEN
FAUST_1[2014-06]	29	3	19	1	2	1	1	2	2	1	1386	1	1	1	2356	4	1352	Candle20.bmp	Onion18.bmp	Candle10.bmp	Onion13.bmp	Onion18.bmp	Onion19.bmp	Onion14.bmp	22	1	1	1	1	MEIDIENWISSENSCHAFTEN
FAUST_1[2014-06]	29	3	12	1	2	2	1	2	1	0	1899	2	2	1	2600	4	1161	Lipstick15.bmp	Glass4.bmp	Glass3.bmp	Lipstick9.bmp	Glass16.bmp	Lipstick9.bmp	Glass19.bmp	22	1	1	1	1	MEIDIENWISSENSCHAFTEN
FAUST_1[2014-06]	29	3	4	1	2	1	2	2	1	0	3564	1	1	1	2901	3	924	Jigsaw17.bmp	Jigsaw18.bmp	Jigsaw14.bmp	Biscuit9.bmp	Jigsaw11.bmp	Jigsaw10.bmp	Biscuit9.bmp	22	1	1	1	1	MEIDIENWISSENSCHAFTEN
FAUST_1[2014-06]	29	3	1	1	2	2	2	2	1	0	1230	2	1	0	1212	4	1068	Scissors1.bmp	Scissors11.bmp	Scissors3.bmp	Scissors14.bmp	Scissors23.bmp	Plug4.bmp	Scissors23.bmp	22	1	1	1	1	MEIDIENWISSENSCHAFTEN
FAUST_1[2014-06]	29	3	21	1	2	1	1	3	2	1	1325	1	1	1	1178	4	1014	String8.bmp	Shell9.bmp	Present14.bmp	Present3.bmp	Present2.bmp	Present3.bmp	Present9.bmp	22	1	1	1	1	MEIDIENWISSENSCHAFTEN
FAUST_1[2014-06]	29	3	11	1	2	2	1	3	2	1	1490	2	2	1	2015	4	1121	Sweet18.bmp	Brocolli10.bmp	Nut18.bmp	Nut19.bmp	Nut11.bmp	Nut2.bmp	Brocolli10.bmp	22	1	1	1	1	MEIDIENWISSENSCHAFTEN
FAUST_1[2014-06]	29	3	22	1	2	1	1	3	2	1	1185	1	1	1	2827	4	1056	Tomato3.bmp	Chocolate9.bmp	Chocolate24.bmp	Chocolate6.bmp	Feather14.bmp	Chocolate24.bmp	Chocolate5.bmp	22	1	1	1	1	MEIDIENWISSENSCHAFTEN
FAUST_1[2014-06]	29	3	9	1	2	2	1	3	2	1	1245	2	2	1	2114	4	1447	Bun12.bmp	Button3.bmp	Flower14.bmp	Button18.bmp	Button10.bmp	Button20.bmp	Flower14.bmp	22	1	1	1	1	MEIDIENWISSENSCHAFTEN
FAUST_1[2014-06]	29	3	6	1	2	1	1	3	2	1	1367	1	2	0	2868	4	1518	Screw10.bmp	Ginger17.bmp	Ginger3.bmp	Ginger15.bmp	Fudge15.bmp	Ginger3.bmp	Ginger5.bmp	22	1	1	1	1	MEIDIENWISSENSCHAFTEN
FAUST_1[2014-06]	29	3	20	1	2	2	1	3	2	1	1091	1	1	1	1770	4	1057	Toothbrush12.bmp	Bracelet8.bmp	Bracelet1.bmp	Stapler10.bmp	Bracelet2.bmp	Bracelet18.bmp	Stapler10.bmp	22	1	1	1	1	MEIDIENWISSENSCHAFTEN
FAUST_1[2014-06]	29	4	26	1	3	1	1	1	1	1	932	2	2	1	1255	3	1774	speaker_4.bmp	watch_7.bmp	speaker_4.bmp	watch_8.bmp	watch_3.bmp	watch_8.bmp	watch_6.bmp	22	1	1	1	1	MEIDIENWISSENSCHAFTEN
FAUST_1[2014-06]	29	4	15	1	3	2	1	1	1	1	2915	1	2	0	1891	4	1216	hairbrush_17.bmp	horseshoe_6.bmp	horseshoe_3.bmp	hairbrush_17.bmp	horseshoe_12.bmp	horseshoe_5.bmp	hairbrush_17.bmp	22	1	1	1	1	MEIDIENWISSENSCHAFTEN
FAUST_1[2014-06]	29	4	27	1	3	1	2	1	1	1	1242	1	1	1	2365	4	1023	highchair_6.bmp	highchair_3.bmp	socks_12.bmp	highchair_15.bmp	socks_12.bmp	highchair_6.bmp	highchair_10.bmp	22	1	1	1	1	MEIDIENWISSENSCHAFTEN
FAUST_1[2014-06]	29	4	28	1	3	2	2	1	1	1	4461	2	2	1	1529	3	2146	bagel_14.bmp	hairdryer_7.bmp	bagel_14.bmp	bagel_16.bmp	bagel_4.bmp	bagel_14.bmp	bagel_12.bmp	22	1	1	1	1	MEIDIENWISSENSCHAFTEN
FAUST_1[2014-06]	29	4	30	1	3	1	1	1	1	1	1939	1	1	1	1824	4	1072	powerstrip_13.bmp	orifan_17.bmp	powerstrip_13.bmp	orifan_6.bmp	orifan_1.bmp	orifan_6.bmp	orifan_7.bmp	22	1	1	1	1	MEIDIENWISSENSCHAFTEN
FAUST_1[2014-06]	29	4	23	1	3	2	1	1	1	1	2778	1	2	0	1493	4	1249	shoe_9.bmp	shoe_9.bmp	camera_9.bmp	camera_4.bmp	camera_3.bmp	shoe_9.bmp	camera_7.bmp	22	1	1	1	1	MEIDIENWISSENSCHAFTEN
FAUST_1[2014-06]	29	4	5	1	3	1	2	1	1	1	1443	1	1	1	2280	4	1229	birdhouse_6.bmp	cake_5.bmp	birdhouse_11.bmp	birdhouse_6.bmp	birdhouse_14.bmp	birdhouse_9.bmp	cake_5.bmp	22	1	1	1	1	MEIDIENWISSENSCHAFTEN
FAUST_1[2014-06]	29	4	4	1	3	2	2	1	1	1	3616	2	2	1	2050	2	1487	circuitboard_2.bmp	circuitboard_13.bmp	circuitboard_2.bmp	circuitboard_16.bmp	tricycle_10.bmp	circuitboard_2.bmp	circuitboard_8.bmp	22	1	1	1	1	MEIDIENWISSENSCHAFTEN
FAUST_1[2014-06]	29	4	29	1	3	1	1	1	2	0	4243	1	1	1	2742	2	1000	iceskates_14.bmp	glasses_13.bmp	glasses_15.bmp	iceskates_14.bmp	glasses_8.bmp	glasses_13.bmp	glasses_6.bmp	22	1	1	1	1	MEIDIENWISSENSCHAFTEN
FAUST_1[2014-06]	29	4	16	1	3	2	1	1	2	0	1541	2	1	0	2418	3	1108	carriage_14.bmp	guitar_5.bmp	carriage_14.bmp	guitar_8.bmp	carriage_14.bmp	guitar_14.bmp	guitar_7.bmp	22	1	1	1	1	MEIDIENWISSENSCHAFTEN
FAUST_1[2014-06]	29	4	12	1	3	1	2	1	2	0	2335	2	2	1	2503	3	1452	backpack_10.bmp	backpack_6.bmp	backpack_10.bmp	videogamecontroller_11.bmp	backpack_12.bmp	videogamecontroller_11.bmp	backpack_16.bmp	22	1	1	1	1	MEIDIENWISSENSCHAFTEN
FAUST_1[2014-06]	29	4	20	1	3	2	2	1	1	1	1198	1	1	1	2367	4	1105	jacket_7.bmp	jacket_7.bmp	jacket_10.bmp	skateboard_14.bmp	jacket_7.bmp	jacket_11.bmp	jacket_13.bmp	22	1	1	1	1	MEIDIENWISSENSCHAFTEN
FAUST_1[2014-06]	29	4	22	1	3	1	1	2	1	0	2932	2	1	0	2505	4	1397	goggle_3.bmp	parfait_1.bmp	parfait_11.bmp	parfait_1.bmp	parfait_4.bmp	goggle_4.bmp	parfait_13.bmp	22	1	1	1	1	MEIDIENWISSENSCHAFTEN
FAUST_1[2014-06]	29	4	3	1	3	2	1	2	2	1	937	1	2	0	2540	4	936	vase_13.bmp	sofa_13.bmp	sofa_9.bmp	sofa_6.bmp	vase_1.bmp	sofa_12.bmp	vase_1.bmp	22	1	1	1	1	MEIDIENWISSENSCHAFTEN
FAUST_1[2014-06]	29	4	6	1	3	1	2	2	1	0	2198	2	2	1	1179	3	1462	hammer_17.bmp	leatherman_2.bmp	hammer_15.bmp	hammer_6.bmp	hammer_11.bmp	leatherman_2.bmp	hammer_8.bmp	22	1	1	1	1	MEIDIENWISSENSCHAFTEN
FAUST_1[2014-06]	29	4	32	1	3	2	2	2	2	1	990	1	2	0	2547	4	1100	watergun_15.bmp	watergun_3.bmp	watergun_8.bmp	watergun_9.bmp	watergun_7.bmp	watergun_8.bmp	bowlingpin_11.bmp	22	1	1	1	1	MEIDIENWISSENSCHAFTEN
FAUST_1[2014-06]	29	4	21	1	3	1	1	2	2	1	3900	1	1	1	2513	2	1589	sink_11.bmp	glove_5.bmp	glove_15.bmp	glove_10.bmp	sink_15.bmp	glove_10.bmp	glove_8.bmp	22	1	1	1	1	MEIDIENWISSENSCHAFTEN
FAUST_1[2014-06]	29	4	8	1	3	2	1	2	1	0	3105	2	1	0	2007	3	1879	rollerskates_7.bmp	beanbagchair_17.bmp	rollerskates_5.bmp	beanbagchair_15.bmp	rollerskates_5.bmp	beanbagchair_12.bmp	beanbagchair_14.bmp	22	1	1	1	1	MEIDIENWISSENSCHAFTEN
FAUST_1[2014-06]	29	4	31	1	3	1	2	2	2	1	1272	2	2	1	2703	4	1241	plant_8.bmp	plant_5.bmp	trumpet_17.bmp	plant_14.bmp	trumpet_17.bmp	plant_13.bmp	plant_2.bmp	22	1	1	1	1	MEIDIENWISSENSCHAFTEN
FAUST_1[2014-06]	29	4	13	1	3	2	2	2	1	0	1594	1	1	1	2361	3	1008	flashlight_13.bmp	flashlight_12.bmp	lawnmower_8.bmp	flashlight_1.bmp	flashlight_17.bmp	flashlight_1.bmp	flashlight_2.bmp	22	1	1	1	1	MEIDIENWISSENSCHAFTEN
FAUST_1[2014-06]	29	4	7	1	3	1	1	2	2	1	2314	1	1	1	1883	4	1244	cheesegrater_11.bmp	doorknocker_2.bmp	doorknocker_5.bmp	cheesegrater_8.bmp	doorknocker_14.bmp	doorknocker_11.bmp	doorknocker_14.bmp	22	1	1	1	1	MEIDIENWISSENSCHAFTEN
FAUST_1[2014-06]	29	4	25	1	3	2	1	2	2	1	1420	2	2	1	2305	4	1211	saddle_5.bmp	router_5.bmp	saddle_4.bmp	router_7.bmp	router_6.bmp	router_12.bmp	saddle_4.bmp	22	1	1	1	1	MEIDIENWISSENSCHAFTEN
FAUST_1[2014-06]	29	4	14	1	3	1	2	2	2	1	1913	1	1	1	2267	4	1337	wig_12.bmp	fan_11.bmp	wig_6.bmp	wig_1.bmp	wig_9.bmp	wig_7.bmp	fan_11.bmp	22	1	1	1	1	MEIDIENWISSENSCHAFTEN
FAUST_1[2014-06]	29	4	2	1	3	2	2	2	2	1	1972	2	2	1	1327	2	1100	scooter_10.bmp	scooter_4.bmp	babycrib_7.bmp	scooter_8.bmp	scooter_11.bmp	scooter_5.bmp	scooter_4.bmp	22	1	1	1	1	MEIDIENWISSENSCHAFTEN
FAUST_1[2014-06]	29	4	18	1	3	1	1	3	2	1	968	1	1	1	2106	4	1028	saltpeppershake_12.bmp	remote_2.bmp	tv_16.bmp	tv_4.bmp	tv_7.bmp	tv_16.bmp	tv_5.bmp	22	1	1	1	1	MEIDIENWISSENSCHAFTEN
FAUST_1[2014-06]	29	4	9	1	3	2	1	3	2	1	2116	1	2	0	2927	4	1216	cat_1.bmp	trophy_15.bmp	cellphone_12.bmp	cellphone_11.bmp	cellphone_8.bmp	cellphone_3.bmp	trophy_15.bmp	22	1	1	1	1	MEIDIENWISSENSCHAFTEN
FAUST_1[2014-06]	29	4	10	1	3	1	1	3	2	1	1046	2	2	1	1633	4	1152	rusdoll_8.bmp	easteregg_16.bmp	trunk_5.bmp	trunk_7.bmp	trunk_3.bmp	trunk_2.bmp	trunk_5.bmp	22	1	1	1	1	MEIDIENWISSENSCHAFTEN
FAUST_1[2014-06]	29	4	24	1	3	2	1	3	2	1	824	1	1	1	2450	4	856	coffee_1.bmp	garbagecan_8.bmp	garbagecan_13.bmp	garbagecan_2.bmp	windchime_15.bmp	garbagecan_17.bmp	windchime_15.bmp	22	1	1	1	1	MEIDIENWISSENSCHAFTEN
FAUST_1[2014-06]	29	4	17	1	3	1	1	3	2	1	1064	1	2	0	2545	4	1887	chair_2.bmp	cherubstatue_6.bmp	pasta_15.bmp	pasta_13.bmp	pasta_9.bmp	pasta_10.bmp	pasta_9.bmp	22	1	1	1	1	MEIDIENWISSENSCHAFTEN
FAUST_1[2014-06]	29	4	11	1	3	2	1	3	2	1	1182	2	2	1	2743	4	1536	carabiner_7.bmp	printer_16.bmp	printer_5.bmp	turtle_6.bmp	printer_1.bmp	printer_14.bmp	turtle_6.bmp	22	1	1	1	1	MEIDIENWISSENSCHAFTEN
FAUST_1[2014-06]	29	4	1	1	3	1	1	3	2	1	1124	1	1	1	1152	4	947	doorknob_7.bmp	shredder_6.bmp	shredder_7.bmp	shredder_15.bmp	shredder_1.bmp	laptop_15.bmp	shredder_6.bmp	22	1	1	1	1	MEIDIENWISSENSCHAFTEN
FAUST_1[2014-06]	29	4	19	1	3	2	1	3	2	1	613	1	1	1	1867	4	1852	ring_11.bmp	mic_2.bmp	abacus_15.bmp	mic_5.bmp	abacus_15.bmp	mic_12.bmp	mic_3.bmp	22	1	1	1	1	MEIDIENWISSENSCHAFTEN
