experiment	subject	block	trial	order	material	repeated	related	probetype	response	correct	rt	math_response	math_correctresponse	math_correct	math_rt	confidence	confidence_rt	probe	item1	item2	item3	item4	item5	item6	age	sex	handedness	color_vision	mother_tongue	occupation
FAUST_1[2014-06]	30	1	18	2	1	1	1	1	2	0	2638	1	1	1	3446	3	4968	FÜRST	rot	fürst	grün	lila	grün	gelb	24	2	1	2	1	SONDERPÄDAGOGIK
FAUST_1[2014-06]	30	1	25	2	1	2	1	1	2	0	4029	2	2	1	1621	3	2182	SCHRANK	realschule	schrank	berufsschule	gymnasium	gesamtschule	schrank	24	2	1	2	1	SONDERPÄDAGOGIK
FAUST_1[2014-06]	30	1	13	2	1	1	2	1	1	1	3269	2	2	1	3212	2	2072	OPER	dackel	oper	konzertsaal	dackel	theater	kino	24	2	1	2	1	SONDERPÄDAGOGIK
FAUST_1[2014-06]	30	1	27	2	1	2	2	1	2	0	4580	1	1	1	2491	3	2822	THRILLER	pfennig	komödie	thriller	actionfilm	thriller	horrorfilm	24	2	1	2	1	SONDERPÄDAGOGIK
FAUST_1[2014-06]	30	1	10	2	1	1	1	1	1	1	3007	-1	1	0	0	2	2322	KARAMELL	masern	mumps	windpocken	mumps	karamell	röteln	24	2	1	2	1	SONDERPÄDAGOGIK
FAUST_1[2014-06]	30	1	30	2	1	2	1	1	2	0	3849	-1	1	0	0	2	3159	ASIEN	asien	rückspiegel	handbremse	gaspedal	kupplung	asien	24	2	1	2	1	SONDERPÄDAGOGIK
FAUST_1[2014-06]	30	1	17	2	1	1	2	1	2	0	8735	2	2	1	2244	3	4920	BANANE	pflaume	monopoly	apfel	banane	birne	monopoly	24	2	1	2	1	SONDERPÄDAGOGIK
FAUST_1[2014-06]	30	1	14	2	1	2	2	1	2	0	5710	1	1	1	2166	3	7579	BRANDENBURG	kirche	thüringen	hessen	brandenburg	sachsen	brandenburg	24	2	1	2	1	SONDERPÄDAGOGIK
FAUST_1[2014-06]	30	1	23	2	1	1	1	1	2	0	8166	1	1	1	3238	3	2011	GEPARD	gepard	messer	löffel	gabel	brotmesser	löffel	24	2	1	2	1	SONDERPÄDAGOGIK
FAUST_1[2014-06]	30	1	28	2	1	2	1	1	2	0	1557	2	2	1	3012	3	2760	OZEAN	flanell	leinen	ozean	baumwolle	seide	ozean	24	2	1	2	1	SONDERPÄDAGOGIK
FAUST_1[2014-06]	30	1	29	2	1	1	2	1	1	1	4920	2	2	1	2038	1	2312	OBOE	kreis	klarinette	posaune	oboe	kreis	flöte	24	2	1	2	1	SONDERPÄDAGOGIK
FAUST_1[2014-06]	30	1	6	2	1	2	2	1	2	0	3600	2	2	1	2622	3	2812	NÄHNADEL	stecknadel	meise	nähnadel	sicherheitsnadel	nähnadel	stricknadel	24	2	1	2	1	SONDERPÄDAGOGIK
FAUST_1[2014-06]	30	1	11	2	1	1	1	2	2	1	5818	2	2	1	3170	2	6980	TOMATEN	bohrer	meißel	blumenkohl	säge	hammer	säge	24	2	1	2	1	SONDERPÄDAGOGIK
FAUST_1[2014-06]	30	1	2	2	1	2	1	2	1	0	1720	1	1	1	3012	2	6362	SCHWERT	fußball	golf	schwimmen	dolch	tennis	dolch	24	2	1	2	1	SONDERPÄDAGOGIK
FAUST_1[2014-06]	30	1	16	2	1	1	2	2	2	1	2939	2	2	1	2630	4	3830	WHISKEY	rum	ärger	tequila	wodka	ärger	gin	24	2	1	2	1	SONDERPÄDAGOGIK
FAUST_1[2014-06]	30	1	32	2	1	2	2	2	2	1	1705	2	2	1	2105	4	5326	HEROIN	lidschatten	opium	haschisch	cannabis	kokain	opium	24	2	1	2	1	SONDERPÄDAGOGIK
FAUST_1[2014-06]	30	1	22	2	1	1	1	2	2	1	5307	2	1	0	2402	1	4103	HAFER	schreiben	zeichnen	schreiben	basteln	malen	weizen	24	2	1	2	1	SONDERPÄDAGOGIK
FAUST_1[2014-06]	30	1	15	2	1	2	1	2	1	0	3303	1	1	1	2397	1	4126	PFARRER	biologie	physik	richter	erdkunde	mathematik	richter	24	2	1	2	1	SONDERPÄDAGOGIK
FAUST_1[2014-06]	30	1	3	2	1	1	2	2	2	1	7128	2	2	1	3057	3	6391	ENGLAND	italien	bleifrei	österreich	dänemark	schweiz	bleifrei	24	2	1	2	1	SONDERPÄDAGOGIK
FAUST_1[2014-06]	30	1	9	2	1	2	2	2	2	1	2524	2	2	1	2470	3	5123	FÄHRE	schiff	boot	kanu	yacht	buntstift	kanu	24	2	1	2	1	SONDERPÄDAGOGIK
FAUST_1[2014-06]	30	1	24	2	1	1	1	2	1	0	2001	1	1	1	2177	3	6496	MAGEN	nomen	herz	nomen	adjektiv	verb	adverb	24	2	1	2	1	SONDERPÄDAGOGIK
FAUST_1[2014-06]	30	1	8	2	1	2	1	2	2	1	3635	1	1	1	2093	4	4775	STUTTGART	münchen	karaffe	flasche	glas	münchen	kanne	24	2	1	2	1	SONDERPÄDAGOGIK
FAUST_1[2014-06]	30	1	1	2	1	1	2	2	2	1	10680	-1	2	0	0	3	4780	KORIANDER	oregano	rosmarin	majoran	nudelholz	thymian	nudelholz	24	2	1	2	1	SONDERPÄDAGOGIK
FAUST_1[2014-06]	30	1	26	2	1	2	2	2	1	0	3998	1	1	1	2975	1	2217	NELKE	tulpe	lilie	rose	lachs	tulpe	veilchen	24	2	1	2	1	SONDERPÄDAGOGIK
FAUST_1[2014-06]	30	1	12	2	1	1	1	3	2	1	2903	2	1	0	2831	3	1932	MÜCKE	lineal	büroklammer	audi	klebeband	brieföffner	lineal	24	2	1	2	1	SONDERPÄDAGOGIK
FAUST_1[2014-06]	30	1	31	2	1	2	1	3	1	0	4178	1	1	1	2573	1	2373	STUNDE	internet	chopin	radio	chopin	buch	fernsehen	24	2	1	2	1	SONDERPÄDAGOGIK
FAUST_1[2014-06]	30	1	5	2	1	1	1	3	2	1	3867	1	1	1	3114	4	7743	MAIN	pluto	jupiter	döner	merkur	venus	jupiter	24	2	1	2	1	SONDERPÄDAGOGIK
FAUST_1[2014-06]	30	1	4	2	1	2	1	3	2	1	3176	-1	1	0	0	2	2664	BIRKE	mobiltelefon	jungfrau	kamera	laptop	drucker	jungfrau	24	2	1	2	1	SONDERPÄDAGOGIK
FAUST_1[2014-06]	30	1	19	2	1	1	1	3	1	0	5554	-1	1	0	0	1	3689	SAUERSTOFF	blockhaus	sohn	mutter	onkel	mutter	tochter	24	2	1	2	1	SONDERPÄDAGOGIK
FAUST_1[2014-06]	30	1	21	2	1	2	1	3	2	1	3399	2	2	1	2036	3	2097	BRONZE	fuß	taxi	fahrrad	zug	fuß	bus	24	2	1	2	1	SONDERPÄDAGOGIK
FAUST_1[2014-06]	30	1	20	2	1	1	1	3	1	0	6820	2	2	1	2176	3	2506	HOSE	walzer	chachacha	foxtrott	rumba	walzer	schmecken	24	2	1	2	1	SONDERPÄDAGOGIK
FAUST_1[2014-06]	30	1	7	2	1	2	1	3	2	1	2388	-1	2	0	0	3	2621	WERWOLF	sonnenschein	millimeter	meter	zentimeter	sonnenschein	kilometer	24	2	1	2	1	SONDERPÄDAGOGIK
FAUST_1[2014-06]	30	2	13	2	3	1	1	1	1	1	1685	2	2	1	2972	3	2039	abacus_2.bmp	scooter_8.bmp	scooter_4.bmp	scooter_5.bmp	scooter_10.bmp	abacus_2.bmp	scooter_10.bmp	24	2	1	2	1	SONDERPÄDAGOGIK
FAUST_1[2014-06]	30	2	18	2	3	2	1	1	1	1	1626	1	1	1	2466	3	3974	guitar_10.bmp	cellphone_3.bmp	cellphone_11.bmp	cellphone_8.bmp	guitar_10.bmp	cellphone_4.bmp	guitar_10.bmp	24	2	1	2	1	SONDERPÄDAGOGIK
FAUST_1[2014-06]	30	2	16	2	3	1	2	1	2	0	3528	2	2	1	2749	1	1409	camera_4.bmp	jacket_10.bmp	camera_3.bmp	camera_4.bmp	jacket_10.bmp	camera_7.bmp	camera_9.bmp	24	2	1	2	1	SONDERPÄDAGOGIK
FAUST_1[2014-06]	30	2	30	2	3	2	2	1	1	1	2629	1	1	1	2944	4	1571	beanbagchair_15.bmp	beanbagchair_12.bmp	beanbagchair_15.bmp	beanbagchair_17.bmp	fan_17.bmp	beanbagchair_14.bmp	beanbagchair_15.bmp	24	2	1	2	1	SONDERPÄDAGOGIK
FAUST_1[2014-06]	30	2	31	2	3	1	1	1	1	1	1956	2	2	1	2133	2	1291	saddle_15.bmp	shoe_7.bmp	shoe_9.bmp	shoe_15.bmp	shoe_13.bmp	shoe_15.bmp	saddle_15.bmp	24	2	1	2	1	SONDERPÄDAGOGIK
FAUST_1[2014-06]	30	2	8	2	3	2	1	1	1	1	2139	2	2	1	2229	4	1790	parfait_13.bmp	parfait_13.bmp	pasta_15.bmp	pasta_9.bmp	parfait_13.bmp	pasta_10.bmp	pasta_11.bmp	24	2	1	2	1	SONDERPÄDAGOGIK
FAUST_1[2014-06]	30	2	3	2	3	1	2	1	1	1	2355	1	1	1	2315	4	3011	turtle_2.bmp	turtle_11.bmp	turtle_6.bmp	turtle_2.bmp	sofa_9.bmp	turtle_7.bmp	sofa_9.bmp	24	2	1	2	1	SONDERPÄDAGOGIK
FAUST_1[2014-06]	30	2	14	2	3	2	2	1	1	1	1876	2	2	1	3054	4	2294	remote_3.bmp	remote_13.bmp	skateboard_14.bmp	remote_14.bmp	remote_3.bmp	remote_11.bmp	remote_3.bmp	24	2	1	2	1	SONDERPÄDAGOGIK
FAUST_1[2014-06]	30	2	5	2	3	1	1	1	2	0	2781	2	2	1	2463	4	3792	highchair_10.bmp	highchair_10.bmp	trophy_4.bmp	trophy_15.bmp	trophy_16.bmp	trophy_6.bmp	trophy_4.bmp	24	2	1	2	1	SONDERPÄDAGOGIK
FAUST_1[2014-06]	30	2	15	2	3	2	1	1	1	1	1315	1	1	1	2727	4	1647	vase_13.bmp	vase_13.bmp	trunk_2.bmp	vase_13.bmp	trunk_7.bmp	trunk_5.bmp	trunk_1.bmp	24	2	1	2	1	SONDERPÄDAGOGIK
FAUST_1[2014-06]	30	2	6	2	3	1	2	1	1	1	1984	1	1	1	2603	4	14115	orifan_14.bmp	doorknocker_14.bmp	orifan_17.bmp	orifan_14.bmp	doorknocker_14.bmp	orifan_6.bmp	orifan_7.bmp	24	2	1	2	1	SONDERPÄDAGOGIK
FAUST_1[2014-06]	30	2	17	2	3	2	2	1	1	1	1676	2	2	1	2672	3	2108	cherubstatue_10.bmp	cherubstatue_10.bmp	cherubstatue_5.bmp	goggle_4.bmp	cherubstatue_11.bmp	cherubstatue_10.bmp	cherubstatue_12.bmp	24	2	1	2	1	SONDERPÄDAGOGIK
FAUST_1[2014-06]	30	2	27	2	3	1	1	2	1	0	2105	1	1	1	2278	2	4075	carriage_2.bmp	bagel_14.bmp	bagel_4.bmp	carriage_3.bmp	bagel_4.bmp	bagel_16.bmp	bagel_12.bmp	24	2	1	2	1	SONDERPÄDAGOGIK
FAUST_1[2014-06]	30	2	12	2	3	2	1	2	1	0	3458	1	1	1	3104	1	2029	rollerskates_7.bmp	router_6.bmp	rollerskates_2.bmp	router_5.bmp	router_16.bmp	router_12.bmp	rollerskates_2.bmp	24	2	1	2	1	SONDERPÄDAGOGIK
FAUST_1[2014-06]	30	2	23	2	3	1	2	2	1	0	1691	2	2	1	2008	3	2275	watch_14.bmp	watch_8.bmp	watch_7.bmp	cheesegrater_14.bmp	watch_3.bmp	watch_6.bmp	cheesegrater_14.bmp	24	2	1	2	1	SONDERPÄDAGOGIK
FAUST_1[2014-06]	30	2	11	2	3	2	2	2	1	0	4101	2	1	0	3397	3	4003	garbagecan_2.bmp	garbagecan_17.bmp	garbagecan_13.bmp	garbagecan_10.bmp	garbagecan_8.bmp	garbagecan_10.bmp	bowlingpin_1.bmp	24	2	1	2	1	SONDERPÄDAGOGIK
FAUST_1[2014-06]	30	2	2	2	3	1	1	2	2	1	2206	1	1	1	1540	4	3006	laptop_14.bmp	glasses_13.bmp	laptop_15.bmp	glasses_13.bmp	glasses_6.bmp	glasses_15.bmp	glasses_9.bmp	24	2	1	2	1	SONDERPÄDAGOGIK
FAUST_1[2014-06]	30	2	32	2	3	2	1	2	1	0	1677	1	1	1	3392	3	1687	leatherman_2.bmp	plant_13.bmp	leatherman_10.bmp	plant_2.bmp	plant_8.bmp	plant_5.bmp	leatherman_10.bmp	24	2	1	2	1	SONDERPÄDAGOGIK
FAUST_1[2014-06]	30	2	1	2	3	1	2	2	1	0	8294	1	2	0	2652	3	3809	hairbrush_16.bmp	speaker_10.bmp	hairbrush_17.bmp	hairbrush_12.bmp	hairbrush_15.bmp	hairbrush_7.bmp	speaker_10.bmp	24	2	1	2	1	SONDERPÄDAGOGIK
FAUST_1[2014-06]	30	2	29	2	3	2	2	2	1	0	1441	1	2	0	3497	3	1733	windchime_3.bmp	windchime_6.bmp	windchime_10.bmp	windchime_16.bmp	windchime_15.bmp	shredder_1.bmp	windchime_6.bmp	24	2	1	2	1	SONDERPÄDAGOGIK
FAUST_1[2014-06]	30	2	26	2	3	1	1	2	2	1	1429	2	2	1	1540	3	2614	watergun_15.bmp	watergun_3.bmp	rusdoll_3.bmp	rusdoll_5.bmp	rusdoll_1.bmp	rusdoll_6.bmp	rusdoll_1.bmp	24	2	1	2	1	SONDERPÄDAGOGIK
FAUST_1[2014-06]	30	2	28	2	3	2	1	2	1	0	5144	1	1	1	3154	2	1689	chair_3.bmp	chair_2.bmp	birdhouse_7.bmp	birdhouse_6.bmp	chair_2.bmp	birdhouse_14.bmp	birdhouse_9.bmp	24	2	1	2	1	SONDERPÄDAGOGIK
FAUST_1[2014-06]	30	2	10	2	3	1	2	2	2	1	3341	1	1	1	1942	2	2001	videogamecontroller_11.bmp	videogamecontroller_5.bmp	carabiner_6.bmp	videogamecontroller_2.bmp	videogamecontroller_13.bmp	carabiner_6.bmp	videogamecontroller_3.bmp	24	2	1	2	1	SONDERPÄDAGOGIK
FAUST_1[2014-06]	30	2	4	2	3	2	2	2	2	1	7339	1	1	1	3488	3	3343	tv_7.bmp	tv_16.bmp	tv_5.bmp	tv_4.bmp	tv_8.bmp	easteregg_9.bmp	tv_4.bmp	24	2	1	2	1	SONDERPÄDAGOGIK
FAUST_1[2014-06]	30	2	20	2	3	1	1	3	2	1	2123	1	2	0	3364	4	2151	printer_5.bmp	trumpet_17.bmp	socks_12.bmp	trumpet_6.bmp	trumpet_3.bmp	trumpet_5.bmp	trumpet_17.bmp	24	2	1	2	1	SONDERPÄDAGOGIK
FAUST_1[2014-06]	30	2	7	2	3	2	1	3	2	1	1589	1	2	0	2789	4	2670	cake_3.bmp	glove_10.bmp	tricycle_15.bmp	glove_15.bmp	glove_12.bmp	glove_8.bmp	tricycle_15.bmp	24	2	1	2	1	SONDERPÄDAGOGIK
FAUST_1[2014-06]	30	2	22	2	3	1	1	3	2	1	1256	2	2	1	3109	3	2136	doorknob_10.bmp	saltpeppershake_12.bmp	saltpeppershake_2.bmp	saltpeppershake_9.bmp	saltpeppershake_2.bmp	flashlight_17.bmp	saltpeppershake_8.bmp	24	2	1	2	1	SONDERPÄDAGOGIK
FAUST_1[2014-06]	30	2	21	2	3	2	1	3	2	1	1597	2	2	1	2510	3	2499	ring_12.bmp	coffee_14.bmp	mic_2.bmp	coffee_7.bmp	coffee_2.bmp	coffee_1.bmp	mic_2.bmp	24	2	1	2	1	SONDERPÄDAGOGIK
FAUST_1[2014-06]	30	2	9	2	3	1	1	3	2	1	1280	1	1	1	3281	4	2283	babycrib_7.bmp	circuitboard_8.bmp	hammer_11.bmp	circuitboard_2.bmp	circuitboard_8.bmp	circuitboard_16.bmp	circuitboard_4.bmp	24	2	1	2	1	SONDERPÄDAGOGIK
FAUST_1[2014-06]	30	2	24	2	3	2	1	3	2	1	1429	2	2	1	1766	4	2932	backpack_13.bmp	hairdryer_13.bmp	cat_1.bmp	cat_10.bmp	cat_4.bmp	cat_5.bmp	hairdryer_13.bmp	24	2	1	2	1	SONDERPÄDAGOGIK
FAUST_1[2014-06]	30	2	19	2	3	1	1	3	2	1	2447	2	1	0	3436	4	1856	iceskates_5.bmp	sink_6.bmp	sink_10.bmp	powerstrip_10.bmp	sink_1.bmp	sink_6.bmp	sink_11.bmp	24	2	1	2	1	SONDERPÄDAGOGIK
FAUST_1[2014-06]	30	2	25	2	3	2	1	3	2	1	1123	2	2	1	1624	4	1465	lawnmower_13.bmp	wig_7.bmp	horseshoe_12.bmp	horseshoe_4.bmp	wig_7.bmp	horseshoe_3.bmp	horseshoe_5.bmp	24	2	1	2	1	SONDERPÄDAGOGIK
FAUST_1[2014-06]	30	3	22	2	2	1	1	1	2	0	1267	1	1	1	1319	4	4375	Cake18.bmp	Man15.bmp	Man4.bmp	Cake18.bmp	Man10.bmp	Man24.bmp	Man15.bmp	24	2	1	2	1	SONDERPÄDAGOGIK
FAUST_1[2014-06]	30	3	12	2	2	2	1	1	1	1	1393	2	2	1	1867	4	1654	Present14.bmp	Present14.bmp	Apple21.bmp	Present14.bmp	Apple5.bmp	Apple18.bmp	Apple24.bmp	24	2	1	2	1	SONDERPÄDAGOGIK
FAUST_1[2014-06]	30	3	5	2	2	1	2	1	1	1	5015	1	1	1	1964	1	1561	Button10.bmp	Pen1.bmp	Button3.bmp	Button18.bmp	Button14.bmp	Pen1.bmp	Button10.bmp	24	2	1	2	1	SONDERPÄDAGOGIK
FAUST_1[2014-06]	30	3	18	2	2	2	2	1	1	1	1275	1	1	1	2049	3	1476	String9.bmp	String9.bmp	String2.bmp	String12.bmp	String6.bmp	String9.bmp	Key11.bmp	24	2	1	2	1	SONDERPÄDAGOGIK
FAUST_1[2014-06]	30	3	19	2	2	1	1	1	2	0	1243	2	2	1	2091	3	1557	Toothbrush9.bmp	Sweet22.bmp	Sweet10.bmp	Toothbrush9.bmp	Sweet22.bmp	Sweet18.bmp	Sweet25.bmp	24	2	1	2	1	SONDERPÄDAGOGIK
FAUST_1[2014-06]	30	3	3	2	2	2	1	1	1	1	2267	2	1	0	2821	3	2295	Brocolli10.bmp	Feather18.bmp	Brocolli10.bmp	Feather14.bmp	Brocolli10.bmp	Feather11.bmp	Feather2.bmp	24	2	1	2	1	SONDERPÄDAGOGIK
FAUST_1[2014-06]	30	3	9	2	2	1	2	1	1	1	3158	2	2	1	2417	3	4965	Leaf10.bmp	Flower13.bmp	Leaf21.bmp	Leaf10.bmp	Leaf15.bmp	Leaf22.bmp	Flower13.bmp	24	2	1	2	1	SONDERPÄDAGOGIK
FAUST_1[2014-06]	30	3	14	2	2	2	2	1	1	1	1475	1	1	1	1433	4	1354	Stapler8.bmp	Stapler8.bmp	Stapler9.bmp	Chocolate9.bmp	Stapler7.bmp	Stapler6.bmp	Stapler8.bmp	24	2	1	2	1	SONDERPÄDAGOGIK
FAUST_1[2014-06]	30	3	13	2	2	1	1	2	2	1	1375	2	2	1	1942	4	1435	Scissors23.bmp	Scissors14.bmp	Fudge8.bmp	Fudge15.bmp	Fudge5.bmp	Fudge8.bmp	Fudge17.bmp	24	2	1	2	1	SONDERPÄDAGOGIK
FAUST_1[2014-06]	30	3	16	2	2	2	1	2	2	1	2491	2	1	0	1864	1	2330	Bracelet1.bmp	Bracelet5.bmp	Car14.bmp	Car21.bmp	Car7.bmp	Bracelet5.bmp	Car13.bmp	24	2	1	2	1	SONDERPÄDAGOGIK
FAUST_1[2014-06]	30	3	1	2	2	1	2	2	1	0	2274	2	1	0	2564	3	2200	Keys8.bmp	Keys7.bmp	Tomato5.bmp	Keys6.bmp	Keys9.bmp	Keys5.bmp	Tomato5.bmp	24	2	1	2	1	SONDERPÄDAGOGIK
FAUST_1[2014-06]	30	3	2	2	2	2	2	2	1	0	1466	2	2	1	3041	4	3769	Pear15.bmp	Pear18.bmp	Bun19.bmp	Pear7.bmp	Pear18.bmp	Pear16.bmp	Pear4.bmp	24	2	1	2	1	SONDERPÄDAGOGIK
FAUST_1[2014-06]	30	3	17	2	2	1	1	2	1	0	2157	2	2	1	1990	2	1350	Strawberry3.bmp	Jigsaw14.bmp	Jigsaw18.bmp	Jigsaw10.bmp	Strawberry18.bmp	Jigsaw17.bmp	Jigsaw18.bmp	24	2	1	2	1	SONDERPÄDAGOGIK
FAUST_1[2014-06]	30	3	6	2	2	2	1	2	2	1	8139	2	2	1	1860	3	4644	Onion7.bmp	Hanger14.bmp	Onion13.bmp	Hanger15.bmp	Hanger2.bmp	Onion13.bmp	Hanger7.bmp	24	2	1	2	1	SONDERPÄDAGOGIK
FAUST_1[2014-06]	30	3	21	2	2	1	2	2	1	0	1654	2	1	0	3006	4	2099	Hand10.bmp	Hand8.bmp	Hand1.bmp	Daff9.bmp	Hand13.bmp	Daff9.bmp	Hand17.bmp	24	2	1	2	1	SONDERPÄDAGOGIK
FAUST_1[2014-06]	30	3	10	2	2	2	2	2	1	0	1568	2	2	1	1623	3	2091	Fork9.bmp	Fork17.bmp	Fork14.bmp	Swirl1.bmp	Fork17.bmp	Fork7.bmp	Fork8.bmp	24	2	1	2	1	SONDERPÄDAGOGIK
FAUST_1[2014-06]	30	3	11	2	2	1	1	3	2	1	1577	1	1	1	2578	4	2055	Shell1.bmp	Varnish5.bmp	Chilli11.bmp	Chilli22.bmp	Chilli14.bmp	Chilli19.bmp	Chilli22.bmp	24	2	1	2	1	SONDERPÄDAGOGIK
FAUST_1[2014-06]	30	3	20	2	2	2	1	3	2	1	1561	2	2	1	1903	4	2705	Coins3.bmp	Holly3.bmp	Plug18.bmp	Plug8.bmp	Holly3.bmp	Plug9.bmp	Plug6.bmp	24	2	1	2	1	SONDERPÄDAGOGIK
FAUST_1[2014-06]	30	3	4	2	2	1	1	3	2	1	1551	1	1	1	2296	4	1853	Lipstick9.bmp	Ginger10.bmp	Ginger5.bmp	Ginger3.bmp	Ginger5.bmp	Candle20.bmp	Ginger17.bmp	24	2	1	2	1	SONDERPÄDAGOGIK
FAUST_1[2014-06]	30	3	7	2	2	2	1	3	2	1	1923	1	1	1	1591	3	2387	Biscuit9.bmp	Glass19.bmp	Mushroom18.bmp	Glass12.bmp	Glass4.bmp	Mushroom18.bmp	Glass16.bmp	24	2	1	2	1	SONDERPÄDAGOGIK
FAUST_1[2014-06]	30	3	8	2	2	1	1	3	2	1	1162	1	2	0	2520	4	1523	Bag25.bmp	Nut21.bmp	Nut11.bmp	Nut19.bmp	Nut2.bmp	Screw9.bmp	Nut11.bmp	24	2	1	2	1	SONDERPÄDAGOGIK
FAUST_1[2014-06]	30	3	15	2	2	2	1	3	2	1	1013	1	1	1	1983	4	1444	Umbrella7.bmp	Paperclip4.bmp	Paperclip6.bmp	Star1.bmp	Paperclip9.bmp	Paperclip14.bmp	Star1.bmp	24	2	1	2	1	SONDERPÄDAGOGIK
FAUST_1[2014-06]	30	2	5	2	1	1	1	1	1	1	3286	2	1	0	2563	2	1180	VATER	tanne	buche	tanne	birke	eiche	vater	24	2	1	2	1	SONDERPÄDAGOGIK
FAUST_1[2014-06]	30	2	27	2	1	2	1	1	1	1	1794	2	2	1	2279	2	1241	TROMPETE	blockhaus	baracke	trompete	scheune	hütte	trompete	24	2	1	2	1	SONDERPÄDAGOGIK
FAUST_1[2014-06]	30	2	30	2	1	1	2	1	1	1	4807	1	1	1	1961	3	1484	BRATWURST	bratwurst	hamburger	pizza	wolle	döner	wolle	24	2	1	2	1	SONDERPÄDAGOGIK
FAUST_1[2014-06]	30	2	7	2	1	2	2	1	2	0	1433	1	1	1	1727	4	1967	WIMPERNTUSCHE	wimperntusche	kajal	england	wimperntusche	rouge	lippenstift	24	2	1	2	1	SONDERPÄDAGOGIK
FAUST_1[2014-06]	30	2	31	2	1	1	1	1	1	1	1511	1	1	1	2749	4	1204	SCHÜTZE	sonnenschein	schütze	sonnenschein	schnee	nebel	regen	24	2	1	2	1	SONDERPÄDAGOGIK
FAUST_1[2014-06]	30	2	13	2	1	2	1	1	2	0	4562	1	1	1	2125	2	1349	KOPF	kopf	bonbons	karamell	kopf	gummibärchen	marzipan	24	2	1	2	1	SONDERPÄDAGOGIK
FAUST_1[2014-06]	30	2	14	2	1	1	2	1	1	1	1272	2	2	1	1929	4	1822	VIVALDI	tomaten	beethoven	vivaldi	tomaten	chopin	brahms	24	2	1	2	1	SONDERPÄDAGOGIK
FAUST_1[2014-06]	30	2	25	2	1	2	2	1	1	1	1341	1	1	1	1664	4	1706	PFENNIG	pfennig	euro	pfennig	dollar	cent	benzin	24	2	1	2	1	SONDERPÄDAGOGIK
FAUST_1[2014-06]	30	2	23	2	1	1	1	1	1	1	1293	2	2	1	2120	2	3081	BUCH	gin	buch	wodka	rum	gin	tequila	24	2	1	2	1	SONDERPÄDAGOGIK
FAUST_1[2014-06]	30	2	10	2	1	2	1	1	1	1	1049	1	1	1	1965	4	1942	RÜCKSPIEGEL	rückspiegel	biologie	rückspiegel	chemie	physik	mathematik	24	2	1	2	1	SONDERPÄDAGOGIK
FAUST_1[2014-06]	30	2	20	2	1	1	2	1	2	0	1264	2	2	1	2193	3	1253	GRÜN	grün	fink	rot	gelb	blau	fink	24	2	1	2	1	SONDERPÄDAGOGIK
FAUST_1[2014-06]	30	2	16	2	1	2	2	1	1	1	3761	2	2	1	1265	2	1051	LACHS	niere	lachs	forelle	makrele	hering	lachs	24	2	1	2	1	SONDERPÄDAGOGIK
FAUST_1[2014-06]	30	2	17	2	1	1	1	2	2	1	1954	1	1	1	2944	2	1968	WEIZEN	gabel	messer	brotmesser	teelöffel	dinkel	brotmesser	24	2	1	2	1	SONDERPÄDAGOGIK
FAUST_1[2014-06]	30	2	4	2	1	2	1	2	2	1	1693	2	1	0	1936	2	1564	ZEICHNEN	kaiser	basteln	fürst	basteln	herzog	graf	24	2	1	2	1	SONDERPÄDAGOGIK
FAUST_1[2014-06]	30	2	18	2	1	1	2	2	1	0	2368	1	1	1	2560	2	1727	COMPUTER	mobiltelefon	grippe	kamera	grippe	laptop	drucker	24	2	1	2	1	SONDERPÄDAGOGIK
FAUST_1[2014-06]	30	2	3	2	1	2	2	2	2	1	3445	2	2	1	2609	2	1178	GEWEHR	dolch	bombe	dolch	schwert	halma	pistole	24	2	1	2	1	SONDERPÄDAGOGIK
FAUST_1[2014-06]	30	2	24	2	1	1	1	2	2	1	1075	2	2	1	2818	3	1972	MEIßEL	hummel	biene	zange	wespe	hummel	mücke	24	2	1	2	1	SONDERPÄDAGOGIK
FAUST_1[2014-06]	30	2	11	2	1	2	1	2	2	1	1517	1	2	0	3444	3	1636	SYNAGOGE	kapelle	western	thriller	horrorfilm	kapelle	komödie	24	2	1	2	1	SONDERPÄDAGOGIK
FAUST_1[2014-06]	30	2	28	2	1	1	2	2	1	0	2096	1	1	1	2304	2	1641	BIRNE	banane	puma	erdbeere	pflaume	apfel	puma	24	2	1	2	1	SONDERPÄDAGOGIK
FAUST_1[2014-06]	30	2	29	2	1	2	2	2	1	0	2081	2	2	1	1887	3	1269	KARAFFE	becher	glas	flasche	kanne	glas	filzstift	24	2	1	2	1	SONDERPÄDAGOGIK
FAUST_1[2014-06]	30	2	1	2	1	1	1	2	2	1	1495	1	1	1	3285	4	3223	NOMEN	nähnadel	präposition	sicherheitsnadel	stecknadel	stricknadel	sicherheitsnadel	24	2	1	2	1	SONDERPÄDAGOGIK
FAUST_1[2014-06]	30	2	12	2	1	2	1	2	2	1	2088	1	1	1	2155	2	1893	SATURN	nelke	rose	jupiter	lilie	tulpe	jupiter	24	2	1	2	1	SONDERPÄDAGOGIK
FAUST_1[2014-06]	30	2	32	2	1	1	2	2	2	1	2533	1	1	1	2587	3	1838	SCHWIMMEN	gymnasium	fußball	skifahren	golf	gymnasium	tennis	24	2	1	2	1	SONDERPÄDAGOGIK
FAUST_1[2014-06]	30	2	9	2	1	2	2	2	2	1	1440	1	1	1	2369	4	1733	SÜDAMERIKA	afrika	nordamerika	afrika	kino	australien	asien	24	2	1	2	1	SONDERPÄDAGOGIK
FAUST_1[2014-06]	30	2	8	2	1	1	1	3	2	1	1521	1	2	0	2858	4	1356	TERRIER	teich	zug	taxi	straßenbahn	taxi	bus	24	2	1	2	1	SONDERPÄDAGOGIK
FAUST_1[2014-06]	30	2	2	2	1	2	1	3	2	1	3012	2	1	0	1633	3	2185	LOCHER	kanu	boot	saarland	schiff	saarland	yacht	24	2	1	2	1	SONDERPÄDAGOGIK
FAUST_1[2014-06]	30	2	19	2	1	1	1	3	1	0	4437	2	2	1	1414	1	2587	ANGST	regal	schrank	stuhl	hannover	tisch	regal	24	2	1	2	1	SONDERPÄDAGOGIK
FAUST_1[2014-06]	30	2	26	2	1	2	1	3	2	1	1368	2	2	1	2343	3	1470	KOHLENSTOFF	hose	donau	rock	hemd	bluse	donau	24	2	1	2	1	SONDERPÄDAGOGIK
FAUST_1[2014-06]	30	2	21	2	1	1	1	3	2	1	1268	1	1	1	2394	3	3116	PEUGEOT	richter	arzt	lehrer	riechen	pfarrer	arzt	24	2	1	2	1	SONDERPÄDAGOGIK
FAUST_1[2014-06]	30	2	6	2	1	2	1	3	2	1	1371	1	1	1	2019	4	1446	HASCHISCH	walzer	dreieck	foxtrott	rumba	dreieck	chachacha	24	2	1	2	1	SONDERPÄDAGOGIK
FAUST_1[2014-06]	30	2	22	2	1	1	1	3	2	1	2634	1	1	1	1797	3	4749	SILBER	zombie	hexe	dämon	millimeter	hexe	werwolf	24	2	1	2	1	SONDERPÄDAGOGIK
FAUST_1[2014-06]	30	2	15	2	1	2	1	3	1	0	2631	-1	2	0	0	2	1405	MINUTE	backblech	thymian	nudelholz	küchenwaage	thymian	pfannenwender	24	2	1	2	1	SONDERPÄDAGOGIK
FAUST_1[2014-06]	30	3	10	2	3	1	1	1	2	0	2496	2	2	1	2888	1	1467	cat_1.bmp	lawnmower_17.bmp	cat_1.bmp	lawnmower_15.bmp	lawnmower_3.bmp	lawnmower_13.bmp	lawnmower_15.bmp	24	2	1	2	1	SONDERPÄDAGOGIK
FAUST_1[2014-06]	30	3	29	2	3	2	1	1	1	1	1242	1	1	1	2265	3	1439	parfait_11.bmp	parfait_11.bmp	scooter_5.bmp	scooter_11.bmp	parfait_11.bmp	scooter_10.bmp	scooter_4.bmp	24	2	1	2	1	SONDERPÄDAGOGIK
FAUST_1[2014-06]	30	3	27	2	3	1	2	1	2	0	6165	2	2	1	1099	3	3411	printer_16.bmp	printer_14.bmp	printer_5.bmp	coffee_15.bmp	printer_3.bmp	coffee_15.bmp	printer_16.bmp	24	2	1	2	1	SONDERPÄDAGOGIK
FAUST_1[2014-06]	30	3	26	2	3	2	2	1	1	1	1754	2	2	1	2697	2	1537	videogamecontroller_13.bmp	videogamecontroller_3.bmp	watch_7.bmp	videogamecontroller_13.bmp	videogamecontroller_11.bmp	videogamecontroller_13.bmp	videogamecontroller_5.bmp	24	2	1	2	1	SONDERPÄDAGOGIK
FAUST_1[2014-06]	30	3	7	2	3	1	1	1	1	1	1138	2	2	1	2235	4	2061	flashlight_17.bmp	socks_4.bmp	socks_15.bmp	flashlight_17.bmp	socks_4.bmp	socks_10.bmp	socks_13.bmp	24	2	1	2	1	SONDERPÄDAGOGIK
FAUST_1[2014-06]	30	3	19	2	3	2	1	1	1	1	1201	1	1	1	2064	3	1807	trunk_2.bmp	trunk_2.bmp	highchair_4.bmp	highchair_3.bmp	highchair_6.bmp	trunk_2.bmp	highchair_15.bmp	24	2	1	2	1	SONDERPÄDAGOGIK
FAUST_1[2014-06]	30	3	12	2	3	1	2	1	1	1	1354	1	1	1	1829	3	1930	carabiner_6.bmp	carabiner_7.bmp	rusdoll_6.bmp	carabiner_6.bmp	carabiner_5.bmp	rusdoll_6.bmp	carabiner_9.bmp	24	2	1	2	1	SONDERPÄDAGOGIK
FAUST_1[2014-06]	30	3	6	2	3	2	2	1	1	1	1686	2	2	1	2706	3	2161	abacus_15.bmp	leatherman_2.bmp	abacus_15.bmp	abacus_2.bmp	abacus_7.bmp	abacus_15.bmp	abacus_6.bmp	24	2	1	2	1	SONDERPÄDAGOGIK
FAUST_1[2014-06]	30	3	4	2	3	1	1	1	1	1	2851	2	2	1	1375	3	4375	laptop_15.bmp	laptop_15.bmp	camera_6.bmp	camera_7.bmp	camera_4.bmp	camera_3.bmp	camera_4.bmp	24	2	1	2	1	SONDERPÄDAGOGIK
FAUST_1[2014-06]	30	3	25	2	3	2	1	1	2	0	1352	1	1	1	1204	1	2174	horseshoe_3.bmp	horseshoe_3.bmp	rollerskates_8.bmp	rollerskates_7.bmp	rollerskates_2.bmp	rollerskates_5.bmp	horseshoe_3.bmp	24	2	1	2	1	SONDERPÄDAGOGIK
FAUST_1[2014-06]	30	3	5	2	3	1	2	1	1	1	1187	1	1	1	2281	4	1964	doorknocker_4.bmp	doorknocker_2.bmp	tricycle_2.bmp	doorknocker_5.bmp	doorknocker_11.bmp	doorknocker_4.bmp	tricycle_2.bmp	24	2	1	2	1	SONDERPÄDAGOGIK
FAUST_1[2014-06]	30	3	2	2	3	2	2	1	1	1	1240	2	2	1	2965	4	2091	glasses_15.bmp	glasses_6.bmp	glasses_15.bmp	carriage_3.bmp	glasses_13.bmp	glasses_15.bmp	glasses_8.bmp	24	2	1	2	1	SONDERPÄDAGOGIK
FAUST_1[2014-06]	30	3	28	2	3	1	1	2	2	1	1522	2	2	1	2839	3	1458	watergun_3.bmp	cherubstatue_10.bmp	cherubstatue_5.bmp	cherubstatue_11.bmp	watergun_15.bmp	cherubstatue_5.bmp	cherubstatue_12.bmp	24	2	1	2	1	SONDERPÄDAGOGIK
FAUST_1[2014-06]	30	3	21	2	3	2	1	2	1	0	2419	2	2	1	3343	4	2213	bagel_10.bmp	jacket_11.bmp	jacket_13.bmp	bagel_12.bmp	jacket_6.bmp	bagel_12.bmp	jacket_10.bmp	24	2	1	2	1	SONDERPÄDAGOGIK
FAUST_1[2014-06]	30	3	31	2	3	1	2	2	1	0	2146	1	1	1	1654	2	1974	cake_5.bmp	cake_14.bmp	cake_4.bmp	iceskates_5.bmp	cake_1.bmp	cake_3.bmp	iceskates_5.bmp	24	2	1	2	1	SONDERPÄDAGOGIK
FAUST_1[2014-06]	30	3	3	2	3	2	2	2	2	1	4222	2	2	1	3071	1	1724	skateboard_15.bmp	skateboard_3.bmp	pasta_11.bmp	skateboard_3.bmp	skateboard_11.bmp	skateboard_16.bmp	skateboard_14.bmp	24	2	1	2	1	SONDERPÄDAGOGIK
FAUST_1[2014-06]	30	3	15	2	3	1	1	2	2	1	1283	1	1	1	1884	3	2923	fan_10.bmp	beanbagchair_15.bmp	fan_1.bmp	beanbagchair_17.bmp	beanbagchair_3.bmp	beanbagchair_14.bmp	beanbagchair_15.bmp	24	2	1	2	1	SONDERPÄDAGOGIK
FAUST_1[2014-06]	30	3	30	2	3	2	1	2	1	0	3125	2	2	1	2362	2	2228	router_5.bmp	hairdryer_13.bmp	router_16.bmp	hairdryer_12.bmp	hairdryer_2.bmp	router_16.bmp	hairdryer_14.bmp	24	2	1	2	1	SONDERPÄDAGOGIK
FAUST_1[2014-06]	30	3	9	2	3	1	2	2	1	0	1240	1	1	1	2708	3	1356	saddle_3.bmp	saddle_8.bmp	saddle_5.bmp	babycrib_2.bmp	saddle_15.bmp	saddle_4.bmp	babycrib_2.bmp	24	2	1	2	1	SONDERPÄDAGOGIK
FAUST_1[2014-06]	30	3	22	2	3	2	2	2	1	0	1278	2	2	1	1323	4	1582	shredder_15.bmp	turtle_7.bmp	shredder_7.bmp	shredder_1.bmp	shredder_5.bmp	shredder_6.bmp	shredder_5.bmp	24	2	1	2	1	SONDERPÄDAGOGIK
FAUST_1[2014-06]	30	3	11	2	3	1	1	2	2	1	2260	2	2	1	2756	2	1465	saltpeppershake_9.bmp	windchime_3.bmp	windchime_10.bmp	saltpeppershake_17.bmp	windchime_16.bmp	windchime_3.bmp	windchime_15.bmp	24	2	1	2	1	SONDERPÄDAGOGIK
FAUST_1[2014-06]	30	3	32	2	3	2	1	2	1	0	1217	1	1	1	2128	2	1527	hairbrush_7.bmp	backpack_13.bmp	backpack_12.bmp	hairbrush_17.bmp	backpack_16.bmp	hairbrush_17.bmp	backpack_6.bmp	24	2	1	2	1	SONDERPÄDAGOGIK
FAUST_1[2014-06]	30	3	13	2	3	1	2	2	1	0	1832	2	2	1	2182	4	1892	speaker_10.bmp	speaker_6.bmp	guitar_5.bmp	speaker_17.bmp	speaker_4.bmp	guitar_5.bmp	speaker_15.bmp	24	2	1	2	1	SONDERPÄDAGOGIK
FAUST_1[2014-06]	30	3	16	2	3	2	2	2	1	0	2494	1	1	1	1824	2	1680	goggle_13.bmp	goggle_3.bmp	goggle_1.bmp	goggle_4.bmp	goggle_1.bmp	goggle_9.bmp	plant_2.bmp	24	2	1	2	1	SONDERPÄDAGOGIK
FAUST_1[2014-06]	30	3	8	2	3	1	1	3	2	1	1493	1	1	1	1880	3	4709	vase_5.bmp	doorknob_7.bmp	doorknob_2.bmp	doorknob_14.bmp	doorknob_17.bmp	doorknob_2.bmp	remote_3.bmp	24	2	1	2	1	SONDERPÄDAGOGIK
FAUST_1[2014-06]	30	3	14	2	3	2	1	3	2	1	1128	2	2	1	2801	3	1404	easteregg_5.bmp	hammer_11.bmp	tv_4.bmp	tv_7.bmp	tv_8.bmp	tv_5.bmp	hammer_11.bmp	24	2	1	2	1	SONDERPÄDAGOGIK
FAUST_1[2014-06]	30	3	1	2	3	1	1	3	1	0	2511	1	2	0	2579	1	1893	mic_10.bmp	trophy_15.bmp	trophy_6.bmp	trophy_14.bmp	trophy_4.bmp	orifan_1.bmp	trophy_15.bmp	24	2	1	2	1	SONDERPÄDAGOGIK
FAUST_1[2014-06]	30	3	24	2	3	2	1	3	2	1	1070	2	2	1	2698	4	1341	sink_11.bmp	cellphone_11.bmp	bowlingpin_1.bmp	cellphone_11.bmp	bowlingpin_4.bmp	bowlingpin_11.bmp	bowlingpin_13.bmp	24	2	1	2	1	SONDERPÄDAGOGIK
FAUST_1[2014-06]	30	3	17	2	3	1	1	3	2	1	2654	-1	2	0	0	2	2880	trumpet_3.bmp	ring_11.bmp	birdhouse_7.bmp	ring_12.bmp	ring_7.bmp	ring_8.bmp	ring_7.bmp	24	2	1	2	1	SONDERPÄDAGOGIK
FAUST_1[2014-06]	30	3	18	2	3	2	1	3	2	1	3065	1	1	1	2075	3	1621	garbagecan_13.bmp	circuitboard_8.bmp	circuitboard_13.bmp	sofa_6.bmp	circuitboard_16.bmp	sofa_6.bmp	circuitboard_4.bmp	24	2	1	2	1	SONDERPÄDAGOGIK
FAUST_1[2014-06]	30	3	20	2	3	1	1	3	2	1	3582	1	1	1	1819	3	3794	chair_5.bmp	wig_1.bmp	cheesegrater_5.bmp	cheesegrater_11.bmp	cheesegrater_15.bmp	cheesegrater_8.bmp	cheesegrater_15.bmp	24	2	1	2	1	SONDERPÄDAGOGIK
FAUST_1[2014-06]	30	3	23	2	3	2	1	3	2	1	3338	2	1	0	1942	1	1595	powerstrip_10.bmp	shoe_9.bmp	glove_10.bmp	glove_12.bmp	glove_15.bmp	glove_8.bmp	shoe_9.bmp	24	2	1	2	1	SONDERPÄDAGOGIK
FAUST_1[2014-06]	30	4	19	2	2	1	1	1	1	1	1057	1	2	0	1743	3	3933	String12.bmp	Hand13.bmp	Hand8.bmp	Hand1.bmp	String12.bmp	Hand17.bmp	Hand8.bmp	24	2	1	2	1	SONDERPÄDAGOGIK
FAUST_1[2014-06]	30	4	16	2	2	2	1	1	1	1	3151	1	1	1	1631	3	2257	Man24.bmp	Car7.bmp	Man24.bmp	Car14.bmp	Man24.bmp	Car12.bmp	Car21.bmp	24	2	1	2	1	SONDERPÄDAGOGIK
FAUST_1[2014-06]	30	4	2	2	2	1	2	1	1	1	1068	1	1	1	2120	4	1484	Bracelet18.bmp	Bracelet5.bmp	Bracelet18.bmp	Keys9.bmp	Bracelet2.bmp	Bracelet8.bmp	Keys9.bmp	24	2	1	2	1	SONDERPÄDAGOGIK
FAUST_1[2014-06]	30	4	18	2	2	2	2	1	1	1	1634	2	2	1	2697	3	1730	Jigsaw18.bmp	Jigsaw18.bmp	Jigsaw14.bmp	Jigsaw11.bmp	Bun17.bmp	Jigsaw18.bmp	Jigsaw10.bmp	24	2	1	2	1	SONDERPÄDAGOGIK
FAUST_1[2014-06]	30	4	17	2	2	1	1	1	1	1	1950	1	1	1	1907	3	2841	Chocolate9.bmp	Umbrella6.bmp	Umbrella17.bmp	Umbrella19.bmp	Umbrella7.bmp	Umbrella17.bmp	Chocolate9.bmp	24	2	1	2	1	SONDERPÄDAGOGIK
FAUST_1[2014-06]	30	4	10	2	2	2	1	1	1	1	1235	1	1	1	2330	4	1974	Candle10.bmp	Pen17.bmp	Candle10.bmp	Pen1.bmp	Candle10.bmp	Pen10.bmp	Pen20.bmp	24	2	1	2	1	SONDERPÄDAGOGIK
FAUST_1[2014-06]	30	4	8	2	2	1	2	1	1	1	3159	2	2	1	2548	3	2892	Strawberry4.bmp	Strawberry18.bmp	Tomato12.bmp	Strawberry4.bmp	Strawberry14.bmp	Strawberry21.bmp	Tomato12.bmp	24	2	1	2	1	SONDERPÄDAGOGIK
FAUST_1[2014-06]	30	4	7	2	2	2	2	1	1	1	1745	1	1	1	2190	4	2182	Present17.bmp	Present17.bmp	Present14.bmp	Present9.bmp	Present3.bmp	Bag4.bmp	Present17.bmp	24	2	1	2	1	SONDERPÄDAGOGIK
FAUST_1[2014-06]	30	4	22	2	2	1	1	2	2	1	3957	2	1	0	2271	1	2118	Chilli11.bmp	Biscuit9.bmp	Chilli19.bmp	Biscuit4.bmp	Biscuit17.bmp	Biscuit25.bmp	Biscuit4.bmp	24	2	1	2	1	SONDERPÄDAGOGIK
FAUST_1[2014-06]	30	4	13	2	2	2	1	2	1	0	9733	2	2	1	1957	3	6005	Coins3.bmp	Coins8.bmp	Brocolli9.bmp	Brocolli4.bmp	Coins8.bmp	Brocolli10.bmp	Brocolli14.bmp	24	2	1	2	1	SONDERPÄDAGOGIK
FAUST_1[2014-06]	30	4	9	2	2	1	2	2	1	0	1036	1	2	0	2804	4	1684	Swirl1.bmp	Swirl13.bmp	Toothbrush1.bmp	Swirl23.bmp	Swirl5.bmp	Swirl10.bmp	Toothbrush1.bmp	24	2	1	2	1	SONDERPÄDAGOGIK
FAUST_1[2014-06]	30	4	1	2	2	2	2	2	1	0	1152	1	1	1	2153	4	1436	Fudge15.bmp	Fudge5.bmp	Fudge20.bmp	Fudge5.bmp	Fudge17.bmp	Fudge8.bmp	Screw16.bmp	24	2	1	2	1	SONDERPÄDAGOGIK
FAUST_1[2014-06]	30	4	11	2	2	1	1	2	2	1	2088	2	2	1	2667	3	2518	Cake7.bmp	Daff21.bmp	Daff9.bmp	Daff1.bmp	Cake25.bmp	Daff3.bmp	Daff1.bmp	24	2	1	2	1	SONDERPÄDAGOGIK
FAUST_1[2014-06]	30	4	15	2	2	2	1	2	1	0	1491	2	2	1	2412	2	1918	Glass12.bmp	Glass4.bmp	Stapler6.bmp	Glass4.bmp	Stapler10.bmp	Stapler8.bmp	Stapler9.bmp	24	2	1	2	1	SONDERPÄDAGOGIK
FAUST_1[2014-06]	30	4	6	2	2	1	2	2	1	0	1272	1	1	1	3055	3	1889	Pear4.bmp	Pear7.bmp	Pear15.bmp	Scissors11.bmp	Pear18.bmp	Scissors11.bmp	Pear16.bmp	24	2	1	2	1	SONDERPÄDAGOGIK
FAUST_1[2014-06]	30	4	5	2	2	2	2	2	1	0	1948	2	2	1	2904	4	5774	Key20.bmp	Key11.bmp	Key13.bmp	Key11.bmp	Key9.bmp	Key5.bmp	Button18.bmp	24	2	1	2	1	SONDERPÄDAGOGIK
FAUST_1[2014-06]	30	4	20	2	2	1	1	3	2	1	1116	2	2	1	2853	3	1714	Fork17.bmp	Shell17.bmp	Mushroom6.bmp	Mushroom14.bmp	Mushroom18.bmp	Mushroom14.bmp	Mushroom25.bmp	24	2	1	2	1	SONDERPÄDAGOGIK
FAUST_1[2014-06]	30	4	4	2	2	2	1	3	2	1	6910	2	2	1	2442	3	4392	Ginger15.bmp	Varnish17.bmp	Holly20.bmp	Holly14.bmp	Holly3.bmp	Varnish17.bmp	Holly11.bmp	24	2	1	2	1	SONDERPÄDAGOGIK
FAUST_1[2014-06]	30	4	21	2	2	1	1	3	2	1	2398	2	2	1	1996	3	2059	Lipstick15.bmp	Apple10.bmp	Apple5.bmp	Plug6.bmp	Apple24.bmp	Apple5.bmp	Apple21.bmp	24	2	1	2	1	SONDERPÄDAGOGIK
FAUST_1[2014-06]	30	4	3	2	2	2	1	3	2	1	2243	1	1	1	1876	3	2490	Paperclip4.bmp	Hanger12.bmp	Flower18.bmp	Hanger12.bmp	Flower14.bmp	Flower3.bmp	Flower17.bmp	24	2	1	2	1	SONDERPÄDAGOGIK
FAUST_1[2014-06]	30	4	14	2	2	1	1	3	2	1	2915	2	1	0	1885	1	1648	Sweet18.bmp	Feather12.bmp	Onion13.bmp	Onion7.bmp	Onion13.bmp	Onion18.bmp	Onion19.bmp	24	2	1	2	1	SONDERPÄDAGOGIK
FAUST_1[2014-06]	30	4	12	2	2	2	1	3	2	1	4046	1	1	1	2816	2	3269	Nut19.bmp	Star1.bmp	Leaf22.bmp	Star19.bmp	Leaf22.bmp	Star17.bmp	Star7.bmp	24	2	1	2	1	SONDERPÄDAGOGIK
