experiment	subject	trial	order	material	repeated	related	probetype	response	correct	rt	confidence	confidence_rt	probe	category	ndisplayed	nrelated	nrelated_unique	trial1	trial2	trial3	trial4	mean_trial	last_trial	age	sex	handedness	color_vision	mother_tongue	occupation
FAUST_1[2014-06]	32	-1	4	migo	2	1	target	1	1	2622	3	3844	Strawberry21.bmp	43	3	3	3	11	11	37	0	19,000000	37	40	2	1	1	1	POLIZIST
FAUST_1[2014-06]	32	-1	4	migo	3	3	lure	2	1	3311	3	2064	Keys5.bmp	26	0	3	2	0	0	0	0	0,000000	0	40	2	1	1	1	POLIZIST
FAUST_1[2014-06]	32	-1	4	migo	1	1	lure	1	0	1487	2	1050	Bun12.bmp	6	0	3	2	0	0	0	0	0,000000	0	40	2	1	1	1	POLIZIST
FAUST_1[2014-06]	32	-1	4	migo	2	1	lure	1	0	1122	3	2413	Candle10.bmp	9	0	4	2	0	0	0	0	0,000000	0	40	2	1	1	1	POLIZIST
FAUST_1[2014-06]	32	-1	4	migo	2	1	lure	1	0	1415	4	897	Ginger10.bmp	19	0	4	2	0	0	0	0	0,000000	0	40	2	1	1	1	POLIZIST
FAUST_1[2014-06]	32	-1	4	migo	1	1	lure	1	0	1179	3	989	Tomato12.bmp	47	0	2	2	0	0	0	0	0,000000	0	40	2	1	1	1	POLIZIST
FAUST_1[2014-06]	32	-1	4	migo	1	1	target	1	1	990	3	897	Man4.bmp	29	1	1	1	3	0	0	0	3,000000	3	40	2	1	1	1	POLIZIST
FAUST_1[2014-06]	32	-1	4	migo	2	2	target	1	1	851	4	933	Nut11.bmp	31	4	6	3	22	22	32	32	27,000000	32	40	2	1	1	1	POLIZIST
FAUST_1[2014-06]	32	-1	4	migo	2	2	target	1	1	1925	4	1034	Button3.bmp	7	3	9	4	21	21	38	0	26,000000	38	40	2	1	1	1	POLIZIST
FAUST_1[2014-06]	32	-1	4	migo	2	2	lure	1	0	1606	3	1977	Bag25.bmp	2	0	8	4	0	0	0	0	0,000000	0	40	2	1	1	1	POLIZIST
FAUST_1[2014-06]	32	-1	4	migo	1	2	lure	2	1	1534	4	1065	Flower14.bmp	16	0	3	2	0	0	0	0	0,000000	0	40	2	1	1	1	POLIZIST
FAUST_1[2014-06]	32	-1	4	migo	2	2	lure	1	0	1306	4	893	Fudge20.bmp	18	0	8	4	0	0	0	0	0,000000	0	40	2	1	1	1	POLIZIST
FAUST_1[2014-06]	32	-1	4	migo	3	3	target	1	1	1046	3	952	Hanger7.bmp	22	1	6	3	24	0	0	0	24,000000	24	40	2	1	1	1	POLIZIST
FAUST_1[2014-06]	32	-1	4	migo	3	3	lure	1	0	1139	3	803	Scissors11.bmp	38	0	3	2	0	0	0	0	0,000000	0	40	2	1	1	1	POLIZIST
FAUST_1[2014-06]	32	-1	4	migo	2	1	target	1	1	1037	3	841	Screw16.bmp	39	3	3	3	17	17	24	0	19,000000	24	40	2	1	1	1	POLIZIST
FAUST_1[2014-06]	32	-1	4	migo	1	2	lure	2	1	1626	4	1149	Car12.bmp	10	0	3	2	0	0	0	0	0,000000	0	40	2	1	1	1	POLIZIST
FAUST_1[2014-06]	32	-1	4	migo	1	1	target	1	1	5468	1	995	Pen10.bmp	35	1	1	1	16	0	0	0	16,000000	16	40	2	1	1	1	POLIZIST
FAUST_1[2014-06]	32	-1	4	migo	1	2	target	1	1	1196	3	1595	Brocolli10.bmp	5	1	9	4	2	0	0	0	2,000000	2	40	2	1	1	1	POLIZIST
FAUST_1[2014-06]	32	-1	4	migo	3	3	target	1	1	1056	3	966	Leaf15.bmp	27	2	5	4	3	3	0	0	3,000000	3	40	2	1	1	1	POLIZIST
FAUST_1[2014-06]	32	-1	4	migo	1	2	target	1	1	901	3	1394	Plug9.bmp	36	1	9	4	8	0	0	0	8,000000	8	40	2	1	1	1	POLIZIST
FAUST_1[2014-06]	32	-1	4	words	3	3	target	1	1	2810	4	1304	diesel	29	3	5	4	3	61	61	0	41,000000	61	40	2	1	1	1	POLIZIST
FAUST_1[2014-06]	32	-1	4	words	1	2	lure	1	0	1831	4	983	mumps	22	0	4	3	0	0	0	0	0,000000	0	40	2	1	1	1	POLIZIST
FAUST_1[2014-06]	32	-1	4	words	2	1	lure	2	1	2485	2	1714	fernsehen	27	0	4	2	0	0	0	0	0,000000	0	40	2	1	1	1	POLIZIST
FAUST_1[2014-06]	32	-1	4	words	3	3	lure	1	0	1667	4	1203	gin	69	0	3	2	0	0	0	0	0,000000	0	40	2	1	1	1	POLIZIST
FAUST_1[2014-06]	32	-1	4	words	2	2	target	2	0	2277	1	1089	schrank	6	3	7	4	14	49	49	0	37,000000	49	40	2	1	1	1	POLIZIST
FAUST_1[2014-06]	32	-1	4	words	1	2	lure	2	1	4066	1	732	hemd	5	0	3	3	0	0	0	0	0,000000	0	40	2	1	1	1	POLIZIST
FAUST_1[2014-06]	32	-1	4	words	3	3	target	1	1	1181	4	1153	nähnadel	70	1	6	3	50	0	0	0	50,000000	50	40	2	1	1	1	POLIZIST
FAUST_1[2014-06]	32	-1	4	words	2	1	target	1	1	1746	2	1165	zeichnen	26	2	1	1	25	25	0	0	25,000000	25	40	2	1	1	1	POLIZIST
FAUST_1[2014-06]	32	-1	4	words	1	1	target	1	1	1224	4	1118	dollar	47	1	1	1	11	0	0	0	11,000000	11	40	2	1	1	1	POLIZIST
FAUST_1[2014-06]	32	-1	4	words	1	2	lure	1	0	1207	4	1327	posaune	14	0	4	3	0	0	0	0	0,000000	0	40	2	1	1	1	POLIZIST
FAUST_1[2014-06]	32	-1	4	words	1	1	lure	1	0	1410	1	1045	bleistift	28	0	3	2	0	0	0	0	0,000000	0	40	2	1	1	1	POLIZIST
FAUST_1[2014-06]	32	-1	4	words	1	2	target	1	1	893	4	872	tennis	8	1	11	4	31	0	0	0	31,000000	31	40	2	1	1	1	POLIZIST
FAUST_1[2014-06]	32	-1	4	words	3	3	lure	1	0	1001	2	1115	boot	35	0	3	2	0	0	0	0	0,000000	0	40	2	1	1	1	POLIZIST
FAUST_1[2014-06]	32	-1	4	words	1	1	lure	2	1	3374	2	1232	berlin	16	0	2	1	0	0	0	0	0,000000	0	40	2	1	1	1	POLIZIST
FAUST_1[2014-06]	32	-1	4	words	3	3	target	2	0	2544	1	847	kirche	52	2	7	4	24	48	0	0	36,000000	48	40	2	1	1	1	POLIZIST
FAUST_1[2014-06]	32	-1	4	words	2	1	lure	2	1	4191	1	967	drucker	33	0	4	2	0	0	0	0	0,000000	0	40	2	1	1	1	POLIZIST
FAUST_1[2014-06]	32	-1	4	words	2	1	target	1	1	1070	3	1095	meile	72	4	3	3	21	21	57	57	39,000000	57	40	2	1	1	1	POLIZIST
FAUST_1[2014-06]	32	-1	4	words	2	2	lure	1	0	1419	4	1067	brieföffner	32	0	8	4	0	0	0	0	0,000000	0	40	2	1	1	1	POLIZIST
FAUST_1[2014-06]	32	-1	4	words	2	2	lure	1	0	1074	3	1254	spinat	2	0	7	4	0	0	0	0	0,000000	0	40	2	1	1	1	POLIZIST
FAUST_1[2014-06]	32	-1	4	words	2	2	lure	1	0	895	3	832	weizen	64	0	8	4	0	0	0	0	0,000000	0	40	2	1	1	1	POLIZIST
FAUST_1[2014-06]	32	-1	4	words	1	1	lure	2	1	1914	3	844	rechteck	56	0	2	2	0	0	0	0	0,000000	0	40	2	1	1	1	POLIZIST
FAUST_1[2014-06]	32	-1	4	words	2	1	target	1	1	1802	3	814	meißel	4	4	1	1	30	30	51	51	40,000000	51	40	2	1	1	1	POLIZIST
FAUST_1[2014-06]	32	-1	4	words	2	2	target	1	1	1261	4	890	schmecken	65	3	7	4	1	1	43	0	15,000000	43	40	2	1	1	1	POLIZIST
FAUST_1[2014-06]	32	-1	4	words	1	2	target	1	1	1468	1	1099	kopf	1	1	8	4	2	0	0	0	2,000000	2	40	2	1	1	1	POLIZIST
FAUST_1[2014-06]	32	-1	4	words	2	2	target	1	1	1049	4	1021	jupiter	60	3	8	4	6	6	34	0	15,000000	34	40	2	1	1	1	POLIZIST
FAUST_1[2014-06]	32	-1	4	words	2	1	lure	2	1	3487	1	824	thüringen	41	0	6	2	0	0	0	0	0,000000	0	40	2	1	1	1	POLIZIST
FAUST_1[2014-06]	32	-1	4	words	1	1	target	1	1	1251	3	890	italien	18	1	1	1	3	0	0	0	3,000000	3	40	2	1	1	1	POLIZIST
FAUST_1[2014-06]	32	-1	4	words	1	1	target	1	1	1182	3	1040	australien	38	1	1	1	37	0	0	0	37,000000	37	40	2	1	1	1	POLIZIST
FAUST_1[2014-06]	32	-1	4	words	1	2	target	1	1	896	4	917	gepard	40	1	9	4	51	0	0	0	51,000000	51	40	2	1	1	1	POLIZIST
FAUST_1[2014-06]	32	-1	4	words	3	3	lure	1	0	939	3	1043	bratwurst	43	0	4	2	0	0	0	0	0,000000	0	40	2	1	1	1	POLIZIST
FAUST_1[2014-06]	32	-1	4	brady	3	3	target	1	1	1036	3	1167	sink_15.bmp	56	2	6	4	29	50	0	0	39,000000	50	40	2	1	1	1	POLIZIST
FAUST_1[2014-06]	32	-1	4	brady	1	2	target	1	1	893	4	1031	pasta_10.bmp	42	1	10	4	44	0	0	0	44,000000	44	40	2	1	1	1	POLIZIST
FAUST_1[2014-06]	32	-1	4	brady	2	2	lure	1	0	784	4	1209	hairdryer_13.bmp	30	0	10	4	0	0	0	0	0,000000	0	40	2	1	1	1	POLIZIST
FAUST_1[2014-06]	32	-1	4	brady	1	2	lure	1	0	1652	2	891	parfait_13.bmp	41	0	3	3	0	0	0	0	0,000000	0	40	2	1	1	1	POLIZIST
FAUST_1[2014-06]	32	-1	4	brady	2	2	target	1	1	1062	4	1066	glasses_6.bmp	25	3	7	4	19	64	64	0	49,000000	64	40	2	1	1	1	POLIZIST
FAUST_1[2014-06]	32	-1	4	brady	2	2	lure	1	0	733	3	1195	shoe_7.bmp	54	0	10	4	0	0	0	0	0,000000	0	40	2	1	1	1	POLIZIST
FAUST_1[2014-06]	32	-1	4	brady	1	1	lure	1	0	739	1	1419	iceskates_14.bmp	34	0	4	1	0	0	0	0	0,000000	0	40	2	1	1	1	POLIZIST
FAUST_1[2014-06]	32	-1	4	brady	1	1	target	1	1	749	4	794	mic_2.bmp	39	1	2	1	54	0	0	0	54,000000	54	40	2	1	1	1	POLIZIST
FAUST_1[2014-06]	32	-1	4	brady	1	2	lure	1	0	684	4	1130	cherubstatue_10.bmp	16	0	3	2	0	0	0	0	0,000000	0	40	2	1	1	1	POLIZIST
FAUST_1[2014-06]	32	-1	4	brady	2	1	lure	2	1	4324	4	1621	windchime_10.bmp	72	0	6	2	0	0	0	0	0,000000	0	40	2	1	1	1	POLIZIST
FAUST_1[2014-06]	32	-1	4	brady	2	1	lure	1	0	807	4	790	bagel_10.bmp	4	0	5	1	0	0	0	0	0,000000	0	40	2	1	1	1	POLIZIST
FAUST_1[2014-06]	32	-1	4	brady	2	1	target	1	1	985	4	1046	router_16.bmp	49	3	3	3	9	9	37	0	18,000000	37	40	2	1	1	1	POLIZIST
FAUST_1[2014-06]	32	-1	4	brady	1	2	target	1	1	906	4	1309	socks_15.bmp	58	1	10	4	40	0	0	0	40,000000	40	40	2	1	1	1	POLIZIST
FAUST_1[2014-06]	32	-1	4	brady	3	3	lure	1	0	798	4	1443	cellphone_11.bmp	13	0	4	2	0	0	0	0	0,000000	0	40	2	1	1	1	POLIZIST
FAUST_1[2014-06]	32	-1	4	brady	1	1	target	1	1	899	3	972	hairbrush_12.bmp	29	1	2	1	64	0	0	0	64,000000	64	40	2	1	1	1	POLIZIST
FAUST_1[2014-06]	32	-1	4	brady	3	3	lure	1	0	910	2	1107	powerstrip_8.bmp	44	0	3	2	0	0	0	0	0,000000	0	40	2	1	1	1	POLIZIST
FAUST_1[2014-06]	32	-1	4	brady	1	2	lure	1	0	1022	4	824	coffee_1.bmp	18	0	4	3	0	0	0	0	0,000000	0	40	2	1	1	1	POLIZIST
FAUST_1[2014-06]	32	-1	4	brady	2	1	lure	2	1	2417	4	1032	beanbagchair_14.bmp	5	0	5	2	0	0	0	0	0,000000	0	40	2	1	1	1	POLIZIST
FAUST_1[2014-06]	32	-1	4	brady	2	2	target	1	1	984	4	1017	highchair_3.bmp	32	3	8	4	31	31	56	0	39,000000	56	40	2	1	1	1	POLIZIST
FAUST_1[2014-06]	32	-1	4	brady	3	3	target	1	1	642	3	999	saddle_8.bmp	51	2	5	4	41	41	0	0	41,000000	41	40	2	1	1	1	POLIZIST
FAUST_1[2014-06]	32	-1	4	brady	2	1	target	1	1	1063	4	895	tricycle_8.bmp	61	4	3	3	6	6	59	59	32,000000	59	40	2	1	1	1	POLIZIST
FAUST_1[2014-06]	32	-1	4	brady	1	2	target	1	1	833	4	903	leatherman_14.bmp	38	1	10	4	35	0	0	0	35,000000	35	40	2	1	1	1	POLIZIST
FAUST_1[2014-06]	32	-1	4	brady	2	2	lure	2	1	1540	4	876	plant_13.bmp	43	0	10	4	0	0	0	0	0,000000	0	40	2	1	1	1	POLIZIST
FAUST_1[2014-06]	32	-1	4	brady	1	1	lure	1	0	1637	1	785	cheesegrater_11.bmp	15	0	2	2	0	0	0	0	0,000000	0	40	2	1	1	1	POLIZIST
FAUST_1[2014-06]	32	-1	4	brady	3	3	target	1	1	1012	2	916	carriage_2.bmp	11	2	5	4	25	25	0	0	25,000000	25	40	2	1	1	1	POLIZIST
FAUST_1[2014-06]	32	-1	4	brady	3	3	lure	2	1	1618	3	1021	orifan_7.bmp	40	0	3	2	0	0	0	0	0,000000	0	40	2	1	1	1	POLIZIST
FAUST_1[2014-06]	32	-1	4	brady	1	1	lure	1	0	918	4	1049	horseshoe_12.bmp	33	0	2	2	0	0	0	0	0,000000	0	40	2	1	1	1	POLIZIST
FAUST_1[2014-06]	32	-1	4	brady	2	2	target	1	1	989	4	698	birdhouse_6.bmp	6	3	7	4	1	1	39	0	13,000000	39	40	2	1	1	1	POLIZIST
FAUST_1[2014-06]	32	-1	4	brady	2	1	target	1	1	714	4	1038	cat_9.bmp	12	2	1	1	23	23	0	0	23,000000	23	40	2	1	1	1	POLIZIST
FAUST_1[2014-06]	32	-1	4	brady	1	1	target	1	1	747	4	1045	circuitboard_13.bmp	17	1	1	1	2	0	0	0	2,000000	2	40	2	1	1	1	POLIZIST
