experiment	subject	block	trial	order	material	repeated	related	probetype	response	correct	rt	math_response	math_correctresponse	math_correct	math_rt	confidence	confidence_rt	probe	item1	item2	item3	item4	item5	item6	age	sex	handedness	color_vision	mother_tongue	occupation
FAUST_1[2014-06]	36	1	12	1	1	1	1	1	2	0	1784	2	1	0	2253	3	1899	STUHL	büroklammer	klebeband	locher	stuhl	brieföffner	büroklammer	19	1	1	1	2	MEDIENKULTURWISSENSCHAFT
FAUST_1[2014-06]	36	1	29	1	1	2	1	1	1	1	1508	2	1	0	1306	3	2590	WODKA	bleifrei	diesel	wodka	benzin	wodka	kerosin	19	1	1	1	2	MEDIENKULTURWISSENSCHAFT
FAUST_1[2014-06]	36	1	28	1	1	1	2	1	2	0	3135	1	1	1	579	1	1174	LEHRER	richter	küchenwaage	polizist	küchenwaage	pfarrer	lehrer	19	1	1	1	2	MEDIENKULTURWISSENSCHAFT
FAUST_1[2014-06]	36	1	31	1	1	2	2	1	1	1	1623	1	2	0	1323	3	2178	BASTELN	zeichnen	basteln	monopoly	schreiben	basteln	malen	19	1	1	1	2	MEDIENKULTURWISSENSCHAFT
FAUST_1[2014-06]	36	1	13	1	1	1	1	1	2	0	1556	1	2	0	2101	2	1676	HERING	masern	grippe	röteln	hering	masern	windpocken	19	1	1	1	2	MEDIENKULTURWISSENSCHAFT
FAUST_1[2014-06]	36	1	6	1	1	2	1	1	1	1	1797	1	2	0	1742	3	1655	HAGEL	hagel	filzstift	kugelschreiber	füller	bleistift	hagel	19	1	1	1	2	MEDIENKULTURWISSENSCHAFT
FAUST_1[2014-06]	36	1	7	1	1	1	2	1	1	1	4724	1	1	1	1905	2	1432	LILIE	rose	karotten	tulpe	lilie	karotten	nelke	19	1	1	1	2	MEDIENKULTURWISSENSCHAFT
FAUST_1[2014-06]	36	1	15	1	1	2	2	1	1	1	1866	1	2	0	1224	4	1402	ÄRGER	saturn	ärger	scham	freude	trauer	ärger	19	1	1	1	2	MEDIENKULTURWISSENSCHAFT
FAUST_1[2014-06]	36	1	21	1	1	1	1	1	2	0	2664	1	1	1	1911	2	1662	LIDSCHATTEN	stuttgart	berlin	lidschatten	münchen	berlin	hamburg	19	1	1	1	2	MEDIENKULTURWISSENSCHAFT
FAUST_1[2014-06]	36	1	3	1	1	2	1	1	1	1	1618	1	2	0	2236	3	1757	ERDKUNDE	golf	erdkunde	skifahren	tennis	schwimmen	erdkunde	19	1	1	1	2	MEDIENKULTURWISSENSCHAFT
FAUST_1[2014-06]	36	1	18	1	1	1	2	1	1	1	2735	1	2	0	1014	2	1187	PISTOLE	tag	dolch	pistole	schwert	tag	gewehr	19	1	1	1	2	MEDIENKULTURWISSENSCHAFT
FAUST_1[2014-06]	36	1	2	1	1	2	2	1	1	1	1527	1	1	1	761	3	2151	TIGER	panther	tiger	leopard	konzertsaal	tiger	puma	19	1	1	1	2	MEDIENKULTURWISSENSCHAFT
FAUST_1[2014-06]	36	1	8	1	1	1	1	2	1	0	3175	2	2	1	1927	1	1789	PEUGEOT	herzog	fürst	mercedes	kaiser	graf	kaiser	19	1	1	1	2	MEDIENKULTURWISSENSCHAFT
FAUST_1[2014-06]	36	1	11	1	1	2	1	2	1	0	2085	2	2	1	1916	2	3176	VATER	nordamerika	australien	tochter	südamerika	afrika	tochter	19	1	1	1	2	MEDIENKULTURWISSENSCHAFT
FAUST_1[2014-06]	36	1	26	1	1	1	2	2	2	1	1416	2	2	1	2168	2	1830	FUß	hand	eisen	bein	eisen	kopf	arm	19	1	1	1	2	MEDIENKULTURWISSENSCHAFT
FAUST_1[2014-06]	36	1	25	1	1	2	2	2	2	1	2097	1	1	1	2045	2	2576	BIRKE	buche	eiche	tanne	weide	pfennig	tanne	19	1	1	1	2	MEDIENKULTURWISSENSCHAFT
FAUST_1[2014-06]	36	1	14	1	1	1	1	2	2	1	1470	1	1	1	1622	3	2479	BAUMWOLLE	oregano	leinen	oregano	rosmarin	majoran	koriander	19	1	1	1	2	MEDIENKULTURWISSENSCHAFT
FAUST_1[2014-06]	36	1	17	1	1	2	1	2	2	1	1545	2	2	1	1062	3	2413	ENGLAND	schweiz	kokain	heroin	schweiz	opium	haschisch	19	1	1	1	2	MEDIENKULTURWISSENSCHAFT
FAUST_1[2014-06]	36	1	32	1	1	1	2	2	2	1	1929	2	1	0	1722	2	1571	WERWOLF	hexe	dämon	zombie	verb	vampir	verb	19	1	1	1	2	MEDIENKULTURWISSENSCHAFT
FAUST_1[2014-06]	36	1	10	1	1	2	2	2	1	0	4124	1	1	1	1943	1	2244	SEE	ozean	fluss	gesamtschule	teich	fluss	meer	19	1	1	1	2	MEDIENKULTURWISSENSCHAFT
FAUST_1[2014-06]	36	1	20	1	1	1	1	2	2	1	1668	2	2	1	1218	3	2598	MÜCKE	rhein	weser	wespe	rhein	donau	main	19	1	1	1	2	MEDIENKULTURWISSENSCHAFT
FAUST_1[2014-06]	36	1	4	1	1	2	1	2	1	0	1402	2	1	0	2389	3	2370	METER	meile	hören	schmecken	riechen	fühlen	meile	19	1	1	1	2	MEDIENKULTURWISSENSCHAFT
FAUST_1[2014-06]	36	1	19	1	1	1	2	2	1	0	5516	1	1	1	2219	1	1287	KOHLENSTOFF	stickstoff	wasserstoff	bohrer	sauerstoff	helium	bohrer	19	1	1	1	2	MEDIENKULTURWISSENSCHAFT
FAUST_1[2014-06]	36	1	16	1	1	2	2	2	2	1	1378	2	1	0	1322	3	1733	BONBONS	lakritz	marzipan	rechteck	gummibärchen	karamell	marzipan	19	1	1	1	2	MEDIENKULTURWISSENSCHAFT
FAUST_1[2014-06]	36	1	24	1	1	1	1	3	1	0	1651	1	1	1	1597	1	1724	HAMBURGER	schwalbe	taube	fink	amsel	herz	schwalbe	19	1	1	1	2	MEDIENKULTURWISSENSCHAFT
FAUST_1[2014-06]	36	1	1	1	1	2	1	3	2	1	1908	2	2	1	1647	3	2664	ZEITUNG	bluse	kirche	synagoge	tempel	bluse	moschee	19	1	1	1	2	MEDIENKULTURWISSENSCHAFT
FAUST_1[2014-06]	36	1	23	1	1	1	1	3	2	1	1661	2	2	1	1568	4	1743	FOXTROTT	laptop	drucker	kamera	mobiltelefon	posaune	drucker	19	1	1	1	2	MEDIENKULTURWISSENSCHAFT
FAUST_1[2014-06]	36	1	27	1	1	2	1	3	2	1	1509	2	1	0	1426	2	1228	WASSERMANN	kanu	gelb	fähre	schiff	gelb	boot	19	1	1	1	2	MEDIENKULTURWISSENSCHAFT
FAUST_1[2014-06]	36	1	9	1	1	1	1	3	2	1	1975	2	2	1	1541	4	2648	THÜRINGEN	chopin	vivaldi	stecknadel	mozart	beethoven	chopin	19	1	1	1	2	MEDIENKULTURWISSENSCHAFT
FAUST_1[2014-06]	36	1	30	1	1	2	1	3	2	1	1551	1	2	0	1817	2	1165	PFLAUME	karaffe	becher	brotmesser	flasche	brotmesser	glas	19	1	1	1	2	MEDIENKULTURWISSENSCHAFT
FAUST_1[2014-06]	36	1	5	1	1	1	1	3	2	1	1768	1	1	1	904	3	3834	HORRORFILM	straßenbahn	fahrrad	taxi	scheune	zug	taxi	19	1	1	1	2	MEDIENKULTURWISSENSCHAFT
FAUST_1[2014-06]	36	1	22	1	1	2	1	3	2	1	2266	1	2	0	1674	3	1788	WEIZEN	schäferhund	gaspedal	handbremse	kupplung	rückspiegel	schäferhund	19	1	1	1	2	MEDIENKULTURWISSENSCHAFT
FAUST_1[2014-06]	36	2	20	1	2	1	1	1	1	1	1128	2	2	1	2225	3	1056	Plug6.bmp	Plug6.bmp	Swirl5.bmp	Swirl10.bmp	Swirl13.bmp	Swirl23.bmp	Swirl13.bmp	19	1	1	1	2	MEDIENKULTURWISSENSCHAFT
FAUST_1[2014-06]	36	2	17	1	2	2	1	1	1	1	1177	2	1	0	505	3	1304	Pen5.bmp	Brocolli9.bmp	Brocolli10.bmp	Pen5.bmp	Brocolli4.bmp	Brocolli14.bmp	Pen5.bmp	19	1	1	1	2	MEDIENKULTURWISSENSCHAFT
FAUST_1[2014-06]	36	2	13	1	2	1	2	1	1	1	1405	1	2	0	712	3	1406	Sweet10.bmp	Sweet10.bmp	Sweet1.bmp	Ginger3.bmp	Sweet22.bmp	Ginger3.bmp	Sweet18.bmp	19	1	1	1	2	MEDIENKULTURWISSENSCHAFT
FAUST_1[2014-06]	36	2	19	1	2	2	2	1	1	1	2142	1	2	0	1363	3	2006	Holly3.bmp	Holly3.bmp	Holly11.bmp	Candle1.bmp	Holly17.bmp	Holly20.bmp	Holly3.bmp	19	1	1	1	2	MEDIENKULTURWISSENSCHAFT
FAUST_1[2014-06]	36	2	15	1	2	1	1	1	1	1	1451	2	2	1	2284	3	1688	Chocolate17.bmp	Bag5.bmp	Bag21.bmp	Chocolate17.bmp	Bag5.bmp	Bag4.bmp	Bag25.bmp	19	1	1	1	2	MEDIENKULTURWISSENSCHAFT
FAUST_1[2014-06]	36	2	7	1	2	2	1	1	1	1	2024	2	1	0	854	2	2083	Tomato18.bmp	Shell1.bmp	Shell9.bmp	Tomato18.bmp	Shell18.bmp	Tomato18.bmp	Shell5.bmp	19	1	1	1	2	MEDIENKULTURWISSENSCHAFT
FAUST_1[2014-06]	36	2	2	1	2	1	2	1	1	1	1642	2	2	1	1258	3	1550	Daff22.bmp	Daff22.bmp	Onion7.bmp	Daff21.bmp	Daff1.bmp	Daff9.bmp	Onion7.bmp	19	1	1	1	2	MEDIENKULTURWISSENSCHAFT
FAUST_1[2014-06]	36	2	21	1	2	2	2	1	1	1	1092	1	1	1	737	3	1296	Coins12.bmp	Leaf21.bmp	Coins8.bmp	Coins10.bmp	Coins12.bmp	Coins3.bmp	Coins12.bmp	19	1	1	1	2	MEDIENKULTURWISSENSCHAFT
FAUST_1[2014-06]	36	2	9	1	2	1	1	2	1	0	12436	2	1	0	1239	1	2672	Cake7.bmp	Fork9.bmp	Fork17.bmp	Cake18.bmp	Fork7.bmp	Fork9.bmp	Fork14.bmp	19	1	1	1	2	MEDIENKULTURWISSENSCHAFT
FAUST_1[2014-06]	36	2	5	1	2	2	1	2	2	1	1691	2	2	1	1335	3	2485	Screw18.bmp	Man10.bmp	Screw13.bmp	Man2.bmp	Man4.bmp	Man15.bmp	Screw13.bmp	19	1	1	1	2	MEDIENKULTURWISSENSCHAFT
FAUST_1[2014-06]	36	2	18	1	2	1	2	2	1	0	1184	1	1	1	1476	3	1892	String8.bmp	Hand8.bmp	String9.bmp	String6.bmp	String2.bmp	Hand8.bmp	String12.bmp	19	1	1	1	2	MEDIENKULTURWISSENSCHAFT
FAUST_1[2014-06]	36	2	8	1	2	2	2	2	1	0	1249	2	1	0	1115	4	1738	Bun22.bmp	Bun5.bmp	Bun12.bmp	Bun19.bmp	Bun12.bmp	Bun17.bmp	Chilli19.bmp	19	1	1	1	2	MEDIENKULTURWISSENSCHAFT
FAUST_1[2014-06]	36	2	4	1	2	1	1	2	2	1	1349	1	1	1	885	3	1414	Apple18.bmp	Lipstick9.bmp	Lipstick7.bmp	Lipstick2.bmp	Apple21.bmp	Lipstick2.bmp	Lipstick3.bmp	19	1	1	1	2	MEDIENKULTURWISSENSCHAFT
FAUST_1[2014-06]	36	2	22	1	2	2	1	2	2	1	2689	1	2	0	566	1	1487	Hanger2.bmp	Hanger15.bmp	Key5.bmp	Key20.bmp	Key13.bmp	Hanger15.bmp	Key9.bmp	19	1	1	1	2	MEDIENKULTURWISSENSCHAFT
FAUST_1[2014-06]	36	2	11	1	2	1	2	2	1	0	1605	2	2	1	682	4	1735	Strawberry14.bmp	Strawberry3.bmp	Present9.bmp	Strawberry4.bmp	Strawberry18.bmp	Strawberry21.bmp	Present9.bmp	19	1	1	1	2	MEDIENKULTURWISSENSCHAFT
FAUST_1[2014-06]	36	2	14	1	2	2	2	2	2	1	1336	1	1	1	2409	3	1520	Flower13.bmp	Nut19.bmp	Flower18.bmp	Flower3.bmp	Flower14.bmp	Flower17.bmp	Flower14.bmp	19	1	1	1	2	MEDIENKULTURWISSENSCHAFT
FAUST_1[2014-06]	36	2	6	1	2	1	1	3	2	1	1361	1	1	1	687	3	1581	Feather12.bmp	Mushroom25.bmp	Mushroom7.bmp	Mushroom18.bmp	Mushroom7.bmp	Keys5.bmp	Mushroom14.bmp	19	1	1	1	2	MEDIENKULTURWISSENSCHAFT
FAUST_1[2014-06]	36	2	16	1	2	2	1	3	2	1	1394	2	2	1	1637	3	1452	Umbrella7.bmp	Button14.bmp	Glass12.bmp	Button20.bmp	Button3.bmp	Glass12.bmp	Button18.bmp	19	1	1	1	2	MEDIENKULTURWISSENSCHAFT
FAUST_1[2014-06]	36	2	12	1	2	1	1	3	2	1	1380	2	1	0	398	3	1611	Paperclip6.bmp	Biscuit17.bmp	Pear18.bmp	Biscuit9.bmp	Biscuit4.bmp	Biscuit9.bmp	Biscuit25.bmp	19	1	1	1	2	MEDIENKULTURWISSENSCHAFT
FAUST_1[2014-06]	36	2	1	1	2	2	1	3	2	1	1278	1	1	1	1403	4	1473	Scissors14.bmp	Fudge20.bmp	Varnish11.bmp	Varnish14.bmp	Varnish5.bmp	Fudge20.bmp	Varnish17.bmp	19	1	1	1	2	MEDIENKULTURWISSENSCHAFT
FAUST_1[2014-06]	36	2	3	1	2	1	1	3	2	1	1473	1	2	0	939	3	1739	Toothbrush10.bmp	Bracelet18.bmp	Bracelet2.bmp	Star17.bmp	Bracelet8.bmp	Bracelet1.bmp	Bracelet18.bmp	19	1	1	1	2	MEDIENKULTURWISSENSCHAFT
FAUST_1[2014-06]	36	2	10	1	2	2	1	3	1	0	1642	1	2	0	542	1	2100	Stapler7.bmp	Jigsaw18.bmp	Car13.bmp	Jigsaw18.bmp	Car14.bmp	Car7.bmp	Car12.bmp	19	1	1	1	2	MEDIENKULTURWISSENSCHAFT
FAUST_1[2014-06]	36	3	31	1	3	1	1	1	2	0	1457	2	1	0	562	3	1309	camera_7.bmp	remote_13.bmp	remote_14.bmp	camera_7.bmp	remote_11.bmp	remote_2.bmp	remote_11.bmp	19	1	1	1	2	MEDIENKULTURWISSENSCHAFT
FAUST_1[2014-06]	36	3	21	1	3	2	1	1	1	1	1161	2	1	0	1044	4	937	chair_16.bmp	watergun_7.bmp	watergun_8.bmp	chair_16.bmp	watergun_3.bmp	watergun_15.bmp	chair_16.bmp	19	1	1	1	2	MEDIENKULTURWISSENSCHAFT
FAUST_1[2014-06]	36	3	11	1	3	1	2	1	1	1	1647	1	1	1	1571	4	1346	beanbagchair_15.bmp	bowlingpin_13.bmp	beanbagchair_3.bmp	beanbagchair_12.bmp	beanbagchair_15.bmp	beanbagchair_17.bmp	bowlingpin_13.bmp	19	1	1	1	2	MEDIENKULTURWISSENSCHAFT
FAUST_1[2014-06]	36	3	14	1	3	2	2	1	1	1	1266	2	1	0	1666	4	978	vase_1.bmp	vase_13.bmp	vase_15.bmp	vase_1.bmp	vase_5.bmp	vase_1.bmp	fan_11.bmp	19	1	1	1	2	MEDIENKULTURWISSENSCHAFT
FAUST_1[2014-06]	36	3	16	1	3	1	1	1	1	1	1109	2	2	1	531	3	1851	mic_12.bmp	mic_12.bmp	flashlight_12.bmp	flashlight_2.bmp	flashlight_12.bmp	flashlight_1.bmp	flashlight_13.bmp	19	1	1	1	2	MEDIENKULTURWISSENSCHAFT
FAUST_1[2014-06]	36	3	18	1	3	2	1	1	1	1	1422	2	1	0	2118	4	1046	horseshoe_6.bmp	hammer_17.bmp	hammer_6.bmp	horseshoe_6.bmp	hammer_11.bmp	horseshoe_6.bmp	hammer_15.bmp	19	1	1	1	2	MEDIENKULTURWISSENSCHAFT
FAUST_1[2014-06]	36	3	15	1	3	1	2	1	1	1	2640	2	2	1	1411	1	2576	hairdryer_7.bmp	hairdryer_2.bmp	hairdryer_7.bmp	trophy_6.bmp	hairdryer_13.bmp	trophy_6.bmp	hairdryer_12.bmp	19	1	1	1	2	MEDIENKULTURWISSENSCHAFT
FAUST_1[2014-06]	36	3	27	1	3	2	2	1	1	1	1260	2	1	0	1467	4	1545	router_5.bmp	router_5.bmp	router_16.bmp	orifan_7.bmp	router_5.bmp	router_12.bmp	router_6.bmp	19	1	1	1	2	MEDIENKULTURWISSENSCHAFT
FAUST_1[2014-06]	36	3	1	1	3	1	1	1	1	1	1187	2	1	0	1816	4	1216	turtle_11.bmp	trumpet_5.bmp	trumpet_3.bmp	trumpet_1.bmp	trumpet_6.bmp	turtle_11.bmp	trumpet_5.bmp	19	1	1	1	2	MEDIENKULTURWISSENSCHAFT
FAUST_1[2014-06]	36	3	25	1	3	2	1	1	1	1	1457	1	1	1	1216	2	1195	windchime_16.bmp	windchime_16.bmp	shoe_13.bmp	windchime_16.bmp	shoe_9.bmp	shoe_7.bmp	shoe_17.bmp	19	1	1	1	2	MEDIENKULTURWISSENSCHAFT
FAUST_1[2014-06]	36	3	23	1	3	1	2	1	2	0	2464	1	2	0	408	1	1609	ring_15.bmp	ring_8.bmp	ring_15.bmp	sink_11.bmp	ring_12.bmp	sink_11.bmp	ring_11.bmp	19	1	1	1	2	MEDIENKULTURWISSENSCHAFT
FAUST_1[2014-06]	36	3	3	1	3	2	2	1	1	1	1141	2	2	1	1512	4	1335	cake_1.bmp	guitar_10.bmp	cake_4.bmp	cake_1.bmp	cake_14.bmp	cake_1.bmp	cake_5.bmp	19	1	1	1	2	MEDIENKULTURWISSENSCHAFT
FAUST_1[2014-06]	36	3	10	1	3	1	1	2	2	1	1697	1	2	0	497	2	1290	rollerskates_7.bmp	glasses_13.bmp	glasses_6.bmp	glasses_8.bmp	glasses_15.bmp	rollerskates_2.bmp	glasses_8.bmp	19	1	1	1	2	MEDIENKULTURWISSENSCHAFT
FAUST_1[2014-06]	36	3	24	1	3	2	1	2	1	0	2281	2	1	0	2501	3	1297	bagel_10.bmp	abacus_6.bmp	bagel_14.bmp	abacus_2.bmp	abacus_15.bmp	abacus_7.bmp	bagel_14.bmp	19	1	1	1	2	MEDIENKULTURWISSENSCHAFT
FAUST_1[2014-06]	36	3	8	1	3	1	2	2	2	1	2015	1	1	1	2137	2	1672	tricycle_2.bmp	tricycle_15.bmp	cheesegrater_14.bmp	tricycle_8.bmp	tricycle_5.bmp	cheesegrater_14.bmp	tricycle_10.bmp	19	1	1	1	2	MEDIENKULTURWISSENSCHAFT
FAUST_1[2014-06]	36	3	20	1	3	2	2	2	1	0	1026	1	1	1	1522	4	952	carriage_3.bmp	carriage_14.bmp	carriage_2.bmp	carriage_12.bmp	carriage_9.bmp	rusdoll_3.bmp	carriage_2.bmp	19	1	1	1	2	MEDIENKULTURWISSENSCHAFT
FAUST_1[2014-06]	36	3	32	1	3	1	1	2	2	1	1395	1	1	1	2294	4	1531	tv_4.bmp	circuitboard_16.bmp	circuitboard_4.bmp	circuitboard_2.bmp	tv_8.bmp	circuitboard_13.bmp	circuitboard_16.bmp	19	1	1	1	2	MEDIENKULTURWISSENSCHAFT
FAUST_1[2014-06]	36	3	2	1	3	2	1	2	2	1	1883	2	2	1	859	2	2230	leatherman_7.bmp	cellphone_12.bmp	cellphone_11.bmp	leatherman_5.bmp	cellphone_4.bmp	leatherman_5.bmp	cellphone_8.bmp	19	1	1	1	2	MEDIENKULTURWISSENSCHAFT
FAUST_1[2014-06]	36	3	22	1	3	1	2	2	1	0	1866	1	1	1	1474	1	1524	powerstrip_7.bmp	carabiner_9.bmp	powerstrip_8.bmp	carabiner_9.bmp	powerstrip_14.bmp	powerstrip_13.bmp	powerstrip_10.bmp	19	1	1	1	2	MEDIENKULTURWISSENSCHAFT
FAUST_1[2014-06]	36	3	13	1	3	2	2	2	1	0	1267	2	1	0	632	3	1355	lawnmower_3.bmp	lawnmower_17.bmp	lawnmower_13.bmp	lawnmower_15.bmp	lawnmower_8.bmp	lawnmower_17.bmp	parfait_4.bmp	19	1	1	1	2	MEDIENKULTURWISSENSCHAFT
FAUST_1[2014-06]	36	3	17	1	3	1	1	2	1	0	1374	2	2	1	456	1	2650	shredder_1.bmp	garbagecan_13.bmp	garbagecan_8.bmp	garbagecan_2.bmp	shredder_7.bmp	garbagecan_17.bmp	garbagecan_13.bmp	19	1	1	1	2	MEDIENKULTURWISSENSCHAFT
FAUST_1[2014-06]	36	3	26	1	3	2	1	2	1	0	1557	2	2	1	2480	3	1175	plant_2.bmp	cherubstatue_12.bmp	cherubstatue_10.bmp	plant_13.bmp	cherubstatue_6.bmp	cherubstatue_11.bmp	plant_13.bmp	19	1	1	1	2	MEDIENKULTURWISSENSCHAFT
FAUST_1[2014-06]	36	3	19	1	3	1	2	2	1	0	2194	1	2	0	2528	1	1179	hairbrush_15.bmp	goggle_9.bmp	hairbrush_17.bmp	hairbrush_12.bmp	hairbrush_16.bmp	hairbrush_7.bmp	goggle_9.bmp	19	1	1	1	2	MEDIENKULTURWISSENSCHAFT
FAUST_1[2014-06]	36	3	12	1	3	2	2	2	1	0	1861	1	1	1	2092	3	2475	socks_13.bmp	backpack_6.bmp	socks_15.bmp	socks_10.bmp	socks_15.bmp	socks_4.bmp	socks_12.bmp	19	1	1	1	2	MEDIENKULTURWISSENSCHAFT
FAUST_1[2014-06]	36	3	9	1	3	1	1	3	2	1	1994	1	2	0	1291	2	1513	glove_5.bmp	laptop_10.bmp	printer_16.bmp	laptop_7.bmp	laptop_14.bmp	laptop_16.bmp	laptop_7.bmp	19	1	1	1	2	MEDIENKULTURWISSENSCHAFT
FAUST_1[2014-06]	36	3	30	1	3	2	1	3	2	1	1594	1	2	0	528	3	994	cat_4.bmp	saddle_15.bmp	doorknob_10.bmp	saddle_15.bmp	doorknob_2.bmp	doorknob_17.bmp	doorknob_7.bmp	19	1	1	1	2	MEDIENKULTURWISSENSCHAFT
FAUST_1[2014-06]	36	3	7	1	3	1	1	3	2	1	1674	1	1	1	638	2	1536	wig_6.bmp	highchair_10.bmp	highchair_6.bmp	highchair_15.bmp	trunk_3.bmp	highchair_15.bmp	highchair_3.bmp	19	1	1	1	2	MEDIENKULTURWISSENSCHAFT
FAUST_1[2014-06]	36	3	5	1	3	2	1	3	2	1	1154	1	2	0	547	3	1245	skateboard_14.bmp	pasta_10.bmp	jacket_10.bmp	pasta_11.bmp	pasta_13.bmp	jacket_10.bmp	pasta_9.bmp	19	1	1	1	2	MEDIENKULTURWISSENSCHAFT
FAUST_1[2014-06]	36	3	6	1	3	1	1	3	2	1	2136	2	1	0	1513	2	2259	videogamecontroller_11.bmp	saltpeppershake_17.bmp	birdhouse_9.bmp	birdhouse_6.bmp	birdhouse_14.bmp	birdhouse_7.bmp	birdhouse_9.bmp	19	1	1	1	2	MEDIENKULTURWISSENSCHAFT
FAUST_1[2014-06]	36	3	29	1	3	2	1	3	2	1	1119	1	1	1	838	4	1393	sofa_13.bmp	coffee_7.bmp	babycrib_2.bmp	babycrib_9.bmp	babycrib_7.bmp	babycrib_6.bmp	coffee_7.bmp	19	1	1	1	2	MEDIENKULTURWISSENSCHAFT
FAUST_1[2014-06]	36	3	4	1	3	1	1	3	2	1	3081	1	1	1	2533	4	1900	doorknocker_4.bmp	speaker_4.bmp	speaker_17.bmp	speaker_6.bmp	easteregg_16.bmp	speaker_4.bmp	speaker_15.bmp	19	1	1	1	2	MEDIENKULTURWISSENSCHAFT
FAUST_1[2014-06]	36	3	28	1	3	2	1	3	2	1	1169	1	2	0	347	4	1295	iceskates_14.bmp	watch_8.bmp	scooter_10.bmp	watch_7.bmp	watch_3.bmp	scooter_10.bmp	watch_6.bmp	19	1	1	1	2	MEDIENKULTURWISSENSCHAFT
FAUST_1[2014-06]	36	2	21	1	1	1	1	1	2	0	1424	1	1	1	1738	3	1168	SEHEN	foxtrott	tango	walzer	foxtrott	sehen	chachacha	19	1	1	1	2	MEDIENKULTURWISSENSCHAFT
FAUST_1[2014-06]	36	2	2	1	1	2	1	1	1	1	1887	1	1	1	2210	3	1323	WINDPOCKEN	england	windpocken	dänemark	italien	windpocken	schweiz	19	1	1	1	2	MEDIENKULTURWISSENSCHAFT
FAUST_1[2014-06]	36	2	14	1	1	1	2	1	1	1	1948	1	1	1	1345	1	1236	MESSING	eisen	ozean	bronze	messing	silber	ozean	19	1	1	1	2	MEDIENKULTURWISSENSCHAFT
FAUST_1[2014-06]	36	2	27	1	1	2	2	1	1	1	1785	1	1	1	1560	1	853	STUTTGART	münchen	stuttgart	hamburg	hannover	stuttgart	brahms	19	1	1	1	2	MEDIENKULTURWISSENSCHAFT
FAUST_1[2014-06]	36	2	7	1	1	1	1	1	1	1	1624	1	1	1	452	1	2424	SEKUNDE	tempel	moschee	sekunde	kirche	synagoge	kirche	19	1	1	1	2	MEDIENKULTURWISSENSCHAFT
FAUST_1[2014-06]	36	2	24	1	1	2	1	1	2	0	1672	2	2	1	2248	2	1074	BOOT	filzstift	kugelschreiber	boot	füller	boot	buntstift	19	1	1	1	2	MEDIENKULTURWISSENSCHAFT
FAUST_1[2014-06]	36	2	1	1	1	1	2	1	1	1	1345	1	2	0	2196	3	1990	KREIS	wodka	quadrat	kreis	dreieck	rechteck	wodka	19	1	1	1	2	MEDIENKULTURWISSENSCHAFT
FAUST_1[2014-06]	36	2	25	1	1	2	2	1	1	1	1300	2	1	0	1838	4	801	SATURN	merkur	saturn	venus	pluto	pflaume	saturn	19	1	1	1	2	MEDIENKULTURWISSENSCHAFT
FAUST_1[2014-06]	36	2	8	1	1	1	1	1	2	0	1614	2	2	1	2319	3	1712	TEELÖFFEL	zeichnen	basteln	teelöffel	malen	zeichnen	lesen	19	1	1	1	2	MEDIENKULTURWISSENSCHAFT
FAUST_1[2014-06]	36	2	26	1	1	2	1	1	1	1	2807	2	2	1	1456	2	1142	TIGER	tanne	birke	eiche	tiger	weide	tiger	19	1	1	1	2	MEDIENKULTURWISSENSCHAFT
FAUST_1[2014-06]	36	2	6	1	1	1	2	1	2	0	2113	1	1	1	1449	2	1839	CANNABIS	cannabis	hauptschule	kokain	opium	heroin	hauptschule	19	1	1	1	2	MEDIENKULTURWISSENSCHAFT
FAUST_1[2014-06]	36	2	18	1	1	2	2	1	1	1	1469	2	1	0	2490	4	903	KOHLENSTOFF	kohlenstoff	wasserstoff	helium	stickstoff	kohlenstoff	grün	19	1	1	1	2	MEDIENKULTURWISSENSCHAFT
FAUST_1[2014-06]	36	2	31	1	1	1	1	2	2	1	1888	2	2	1	1642	3	1438	BAUMWOLLE	präposition	verb	adjektiv	nomen	adjektiv	seide	19	1	1	1	2	MEDIENKULTURWISSENSCHAFT
FAUST_1[2014-06]	36	2	13	1	1	2	1	2	2	1	1427	2	2	1	1962	2	1814	POMMES	actionfilm	hamburger	western	komödie	hamburger	thriller	19	1	1	1	2	MEDIENKULTURWISSENSCHAFT
FAUST_1[2014-06]	36	2	28	1	1	1	2	2	2	1	1216	1	1	1	544	3	1397	ANGST	freude	flasche	trauer	ärger	flasche	scham	19	1	1	1	2	MEDIENKULTURWISSENSCHAFT
FAUST_1[2014-06]	36	2	19	1	1	2	2	2	2	1	1387	2	2	1	1781	3	1035	KÜCHENWAAGE	pfannenwender	backblech	terrier	backform	nudelholz	pfannenwender	19	1	1	1	2	MEDIENKULTURWISSENSCHAFT
FAUST_1[2014-06]	36	2	10	1	1	1	1	2	2	1	1334	2	2	1	2040	3	1105	SOHN	onkel	schach	backgammon	monopoly	schach	halma	19	1	1	1	2	MEDIENKULTURWISSENSCHAFT
FAUST_1[2014-06]	36	2	17	1	1	2	1	2	2	1	1353	2	2	1	1374	2	1711	MEIßEL	spinat	blumenkohl	säge	bohnen	tomaten	säge	19	1	1	1	2	MEDIENKULTURWISSENSCHAFT
FAUST_1[2014-06]	36	2	29	1	1	1	2	2	2	1	2158	1	2	0	292	2	935	DÄMON	werwolf	hafer	zombie	hafer	hexe	vampir	19	1	1	1	2	MEDIENKULTURWISSENSCHAFT
FAUST_1[2014-06]	36	2	16	1	1	2	2	2	2	1	1751	2	2	1	519	2	1006	WESER	elbe	nähnadel	donau	main	rhein	elbe	19	1	1	1	2	MEDIENKULTURWISSENSCHAFT
FAUST_1[2014-06]	36	2	20	1	1	1	1	2	2	1	1156	2	2	1	1407	3	1178	BEIN	tisch	sofa	schrank	arm	stuhl	tisch	19	1	1	1	2	MEDIENKULTURWISSENSCHAFT
FAUST_1[2014-06]	36	2	4	1	1	2	1	2	2	1	2317	1	2	0	2364	2	1176	PORSCHE	kaiser	peugeot	könig	fürst	herzog	peugeot	19	1	1	1	2	MEDIENKULTURWISSENSCHAFT
FAUST_1[2014-06]	36	2	23	1	1	1	2	2	2	1	3416	2	1	0	1711	2	960	ERDKUNDE	fink	mathematik	physik	chemie	fink	biologie	19	1	1	1	2	MEDIENKULTURWISSENSCHAFT
FAUST_1[2014-06]	36	2	3	1	1	2	2	2	2	1	1470	2	2	1	1960	3	1303	PISTOLE	schwert	bombe	dolch	mobiltelefon	schwert	gewehr	19	1	1	1	2	MEDIENKULTURWISSENSCHAFT
FAUST_1[2014-06]	36	2	12	1	1	1	1	3	2	1	1469	2	2	1	2204	1	1486	HERING	marzipan	karamell	lakritz	marzipan	tulpe	bonbons	19	1	1	1	2	MEDIENKULTURWISSENSCHAFT
FAUST_1[2014-06]	36	2	9	1	1	2	1	3	2	1	2662	2	2	1	2119	3	1676	LEBER	klebeband	brieföffner	zentimeter	lineal	zentimeter	locher	19	1	1	1	2	MEDIENKULTURWISSENSCHAFT
FAUST_1[2014-06]	36	2	15	1	1	1	1	3	2	1	1448	2	2	1	1675	3	994	PFARRER	thymian	lippenstift	kajal	lidschatten	rouge	kajal	19	1	1	1	2	MEDIENKULTURWISSENSCHAFT
FAUST_1[2014-06]	36	2	5	1	1	2	1	3	2	1	1761	1	1	1	2509	3	1404	KONZERTSAAL	internet	buch	blockhaus	fernsehen	blockhaus	radio	19	1	1	1	2	MEDIENKULTURWISSENSCHAFT
FAUST_1[2014-06]	36	2	11	1	1	1	1	3	2	1	2365	2	2	1	581	3	1173	REGEN	jacke	hemd	trompete	jacke	rock	hose	19	1	1	1	2	MEDIENKULTURWISSENSCHAFT
FAUST_1[2014-06]	36	2	22	1	1	2	1	3	2	1	1520	1	1	1	2457	3	1149	RÜCKSPIEGEL	pfennig	cent	steinbock	euro	steinbock	dollar	19	1	1	1	2	MEDIENKULTURWISSENSCHAFT
FAUST_1[2014-06]	36	2	32	1	1	1	1	3	2	1	1518	2	1	0	1943	2	1176	TENNIS	thüringen	sachsen	hessen	saarland	hessen	biene	19	1	1	1	2	MEDIENKULTURWISSENSCHAFT
FAUST_1[2014-06]	36	2	30	1	1	2	1	3	2	1	1179	1	2	0	406	2	1226	STRAßENBAHN	asien	australien	diesel	südamerika	nordamerika	diesel	19	1	1	1	2	MEDIENKULTURWISSENSCHAFT
FAUST_1[2014-06]	36	3	14	1	2	1	1	1	2	0	1810	1	2	0	2042	1	1365	Feather2.bmp	Fudge5.bmp	Feather2.bmp	Fudge20.bmp	Fudge8.bmp	Fudge5.bmp	Fudge15.bmp	19	1	1	1	2	MEDIENKULTURWISSENSCHAFT
FAUST_1[2014-06]	36	3	20	1	2	2	1	1	1	1	2147	2	1	0	1020	2	1613	Jigsaw11.bmp	Fork9.bmp	Fork17.bmp	Jigsaw11.bmp	Fork7.bmp	Jigsaw11.bmp	Fork8.bmp	19	1	1	1	2	MEDIENKULTURWISSENSCHAFT
FAUST_1[2014-06]	36	3	7	1	2	1	2	1	2	0	1471	1	2	0	1311	1	1832	Cake25.bmp	Sweet18.bmp	Cake7.bmp	Cake16.bmp	Sweet18.bmp	Cake18.bmp	Cake25.bmp	19	1	1	1	2	MEDIENKULTURWISSENSCHAFT
FAUST_1[2014-06]	36	3	13	1	2	2	2	1	1	1	1052	2	1	0	2075	4	859	Tomato12.bmp	Tomato12.bmp	Hand10.bmp	Tomato3.bmp	Tomato18.bmp	Tomato2.bmp	Tomato12.bmp	19	1	1	1	2	MEDIENKULTURWISSENSCHAFT
FAUST_1[2014-06]	36	3	22	1	2	1	1	1	1	1	1299	2	2	1	1917	4	974	Screw13.bmp	Flower14.bmp	Screw13.bmp	Flower18.bmp	Flower17.bmp	Flower13.bmp	Flower18.bmp	19	1	1	1	2	MEDIENKULTURWISSENSCHAFT
FAUST_1[2014-06]	36	3	1	1	2	2	1	1	1	1	1106	2	2	1	1402	3	1499	Stapler8.bmp	Stapler8.bmp	Scissors23.bmp	Scissors1.bmp	Scissors3.bmp	Stapler8.bmp	Scissors14.bmp	19	1	1	1	2	MEDIENKULTURWISSENSCHAFT
FAUST_1[2014-06]	36	3	21	1	2	1	2	1	2	0	1648	1	1	1	412	1	1870	Varnish11.bmp	Shell18.bmp	Varnish5.bmp	Varnish3.bmp	Shell18.bmp	Varnish11.bmp	Varnish14.bmp	19	1	1	1	2	MEDIENKULTURWISSENSCHAFT
FAUST_1[2014-06]	36	3	5	1	2	2	2	1	1	1	818	1	1	1	1861	4	1187	Onion13.bmp	Onion18.bmp	Toothbrush6.bmp	Onion13.bmp	Onion7.bmp	Onion14.bmp	Onion13.bmp	19	1	1	1	2	MEDIENKULTURWISSENSCHAFT
FAUST_1[2014-06]	36	3	6	1	2	1	1	2	2	1	1097	1	2	0	763	3	1085	Button10.bmp	Umbrella19.bmp	Umbrella17.bmp	Button14.bmp	Umbrella17.bmp	Umbrella6.bmp	Umbrella7.bmp	19	1	1	1	2	MEDIENKULTURWISSENSCHAFT
FAUST_1[2014-06]	36	3	11	1	2	2	1	2	2	1	1624	1	1	1	464	1	1762	Candle10.bmp	Holly11.bmp	Candle13.bmp	Holly14.bmp	Holly20.bmp	Candle13.bmp	Holly17.bmp	19	1	1	1	2	MEDIENKULTURWISSENSCHAFT
FAUST_1[2014-06]	36	3	2	1	2	1	2	2	1	0	1055	1	1	1	1675	3	1589	Star17.bmp	Man4.bmp	Star7.bmp	Man4.bmp	Star19.bmp	Star2.bmp	Star1.bmp	19	1	1	1	2	MEDIENKULTURWISSENSCHAFT
FAUST_1[2014-06]	36	3	4	1	2	2	2	2	1	0	1961	1	2	0	472	3	1954	Lipstick15.bmp	Lipstick9.bmp	Lipstick7.bmp	Lipstick3.bmp	Lipstick9.bmp	Swirl23.bmp	Lipstick2.bmp	19	1	1	1	2	MEDIENKULTURWISSENSCHAFT
FAUST_1[2014-06]	36	3	18	1	2	1	1	2	2	1	2831	2	2	1	1533	1	1296	Glass16.bmp	Brocolli19.bmp	Glass3.bmp	Brocolli9.bmp	Brocolli14.bmp	Brocolli10.bmp	Brocolli9.bmp	19	1	1	1	2	MEDIENKULTURWISSENSCHAFT
FAUST_1[2014-06]	36	3	16	1	2	2	1	2	1	0	1214	1	1	1	1793	3	1338	Bracelet5.bmp	Key5.bmp	Bracelet18.bmp	Key13.bmp	Bracelet18.bmp	Key9.bmp	Key11.bmp	19	1	1	1	2	MEDIENKULTURWISSENSCHAFT
FAUST_1[2014-06]	36	3	12	1	2	1	2	2	1	0	1026	1	1	1	676	3	996	Mushroom7.bmp	Mushroom14.bmp	Nut19.bmp	Mushroom6.bmp	Mushroom25.bmp	Mushroom18.bmp	Nut19.bmp	19	1	1	1	2	MEDIENKULTURWISSENSCHAFT
FAUST_1[2014-06]	36	3	17	1	2	2	2	2	1	0	2082	2	2	1	1583	2	989	Chocolate5.bmp	Apple18.bmp	Chocolate17.bmp	Chocolate24.bmp	Chocolate9.bmp	Chocolate17.bmp	Chocolate6.bmp	19	1	1	1	2	MEDIENKULTURWISSENSCHAFT
FAUST_1[2014-06]	36	3	19	1	2	1	1	3	2	1	1097	2	2	1	1707	1	903	Coins10.bmp	Leaf21.bmp	Leaf13.bmp	Bag5.bmp	Leaf22.bmp	Leaf15.bmp	Leaf21.bmp	19	1	1	1	2	MEDIENKULTURWISSENSCHAFT
FAUST_1[2014-06]	36	3	9	1	2	2	1	3	2	1	1153	1	1	1	580	3	1121	Pear4.bmp	Ginger5.bmp	Pen5.bmp	Ginger15.bmp	Ginger3.bmp	Ginger17.bmp	Pen5.bmp	19	1	1	1	2	MEDIENKULTURWISSENSCHAFT
FAUST_1[2014-06]	36	3	3	1	2	1	1	3	2	1	905	1	1	1	545	3	1279	Car7.bmp	Present3.bmp	Plug9.bmp	Present17.bmp	Present9.bmp	Present3.bmp	Present14.bmp	19	1	1	1	2	MEDIENKULTURWISSENSCHAFT
FAUST_1[2014-06]	36	3	15	1	2	2	1	3	2	1	1527	1	2	0	2318	3	1762	Biscuit4.bmp	Strawberry14.bmp	Strawberry3.bmp	Strawberry4.bmp	Hanger14.bmp	Strawberry18.bmp	Hanger14.bmp	19	1	1	1	2	MEDIENKULTURWISSENSCHAFT
FAUST_1[2014-06]	36	3	10	1	2	1	1	3	1	0	2515	1	2	0	953	2	2242	Paperclip6.bmp	Chilli14.bmp	Chilli22.bmp	Chilli19.bmp	Chilli11.bmp	Bun19.bmp	Chilli22.bmp	19	1	1	1	2	MEDIENKULTURWISSENSCHAFT
FAUST_1[2014-06]	36	3	8	1	2	2	1	3	2	1	3828	2	1	0	2102	1	1437	Daff9.bmp	String2.bmp	String6.bmp	Keys7.bmp	String12.bmp	Keys7.bmp	String8.bmp	19	1	1	1	2	MEDIENKULTURWISSENSCHAFT
FAUST_1[2014-06]	36	4	25	1	3	1	1	1	1	1	1682	1	1	1	451	4	1374	saddle_4.bmp	saddle_4.bmp	flashlight_12.bmp	flashlight_2.bmp	flashlight_1.bmp	flashlight_12.bmp	flashlight_13.bmp	19	1	1	1	2	MEDIENKULTURWISSENSCHAFT
FAUST_1[2014-06]	36	4	11	1	3	2	1	1	1	1	1740	1	1	1	1269	4	2319	cherubstatue_6.bmp	tricycle_15.bmp	tricycle_2.bmp	tricycle_5.bmp	cherubstatue_6.bmp	tricycle_10.bmp	cherubstatue_6.bmp	19	1	1	1	2	MEDIENKULTURWISSENSCHAFT
FAUST_1[2014-06]	36	4	7	1	3	1	2	1	1	1	1059	1	1	1	2366	4	1357	camera_7.bmp	camera_9.bmp	watch_3.bmp	camera_4.bmp	camera_7.bmp	watch_3.bmp	camera_3.bmp	19	1	1	1	2	MEDIENKULTURWISSENSCHAFT
FAUST_1[2014-06]	36	4	2	1	3	2	2	1	1	1	1094	1	1	1	690	3	1647	glasses_9.bmp	glasses_8.bmp	glasses_13.bmp	glasses_9.bmp	glasses_6.bmp	rollerskates_5.bmp	glasses_9.bmp	19	1	1	1	2	MEDIENKULTURWISSENSCHAFT
FAUST_1[2014-06]	36	4	28	1	3	1	1	1	1	1	1168	1	2	0	494	3	840	abacus_7.bmp	hammer_15.bmp	hammer_17.bmp	hammer_8.bmp	hammer_17.bmp	hammer_11.bmp	abacus_7.bmp	19	1	1	1	2	MEDIENKULTURWISSENSCHAFT
FAUST_1[2014-06]	36	4	17	1	3	2	1	1	1	1	1348	1	2	0	1293	4	1407	easteregg_9.bmp	beanbagchair_17.bmp	beanbagchair_12.bmp	beanbagchair_14.bmp	easteregg_9.bmp	beanbagchair_15.bmp	easteregg_9.bmp	19	1	1	1	2	MEDIENKULTURWISSENSCHAFT
FAUST_1[2014-06]	36	4	8	1	3	1	2	1	1	1	1994	2	1	0	1907	3	1388	cellphone_4.bmp	plant_5.bmp	cellphone_12.bmp	cellphone_4.bmp	cellphone_3.bmp	plant_5.bmp	cellphone_8.bmp	19	1	1	1	2	MEDIENKULTURWISSENSCHAFT
FAUST_1[2014-06]	36	4	12	1	3	2	2	1	1	1	989	1	1	1	921	3	1035	cake_4.bmp	cake_4.bmp	cake_5.bmp	cake_1.bmp	cake_4.bmp	orifan_1.bmp	cake_3.bmp	19	1	1	1	2	MEDIENKULTURWISSENSCHAFT
FAUST_1[2014-06]	36	4	9	1	3	1	1	1	1	1	1629	1	1	1	312	1	1485	birdhouse_6.bmp	carabiner_6.bmp	carabiner_5.bmp	carabiner_7.bmp	carabiner_2.bmp	carabiner_7.bmp	birdhouse_6.bmp	19	1	1	1	2	MEDIENKULTURWISSENSCHAFT
FAUST_1[2014-06]	36	4	27	1	3	2	1	1	1	1	1467	2	1	0	619	4	789	coffee_14.bmp	powerstrip_13.bmp	powerstrip_8.bmp	powerstrip_14.bmp	coffee_14.bmp	powerstrip_7.bmp	coffee_14.bmp	19	1	1	1	2	MEDIENKULTURWISSENSCHAFT
FAUST_1[2014-06]	36	4	31	1	3	1	2	1	1	1	1765	1	1	1	583	3	1365	videogamecontroller_3.bmp	videogamecontroller_2.bmp	vase_1.bmp	videogamecontroller_5.bmp	videogamecontroller_13.bmp	vase_1.bmp	videogamecontroller_3.bmp	19	1	1	1	2	MEDIENKULTURWISSENSCHAFT
FAUST_1[2014-06]	36	4	1	1	3	2	2	1	1	1	1088	1	1	1	679	4	1591	horseshoe_6.bmp	horseshoe_6.bmp	horseshoe_4.bmp	trophy_16.bmp	horseshoe_3.bmp	horseshoe_12.bmp	horseshoe_6.bmp	19	1	1	1	2	MEDIENKULTURWISSENSCHAFT
FAUST_1[2014-06]	36	4	24	1	3	1	1	2	2	1	1572	1	1	1	461	3	1427	bagel_16.bmp	bagel_10.bmp	doorknob_10.bmp	doorknob_2.bmp	doorknob_14.bmp	doorknob_7.bmp	doorknob_2.bmp	19	1	1	1	2	MEDIENKULTURWISSENSCHAFT
FAUST_1[2014-06]	36	4	6	1	3	2	1	2	2	1	1343	1	1	1	525	2	1169	trumpet_1.bmp	shredder_5.bmp	shredder_15.bmp	shredder_1.bmp	trumpet_3.bmp	shredder_6.bmp	trumpet_3.bmp	19	1	1	1	2	MEDIENKULTURWISSENSCHAFT
FAUST_1[2014-06]	36	4	22	1	3	1	2	2	2	1	2274	1	1	1	1297	2	1693	shoe_7.bmp	shoe_13.bmp	laptop_15.bmp	shoe_9.bmp	shoe_17.bmp	laptop_15.bmp	shoe_15.bmp	19	1	1	1	2	MEDIENKULTURWISSENSCHAFT
FAUST_1[2014-06]	36	4	13	1	3	2	2	2	1	0	1036	1	2	0	1499	3	1021	goggle_13.bmp	goggle_4.bmp	goggle_3.bmp	goggle_1.bmp	goggle_9.bmp	goggle_4.bmp	guitar_14.bmp	19	1	1	1	2	MEDIENKULTURWISSENSCHAFT
FAUST_1[2014-06]	36	4	20	1	3	1	1	2	2	1	1234	1	2	0	272	3	1318	bowlingpin_3.bmp	sofa_12.bmp	sofa_9.bmp	bowlingpin_13.bmp	sofa_13.bmp	sofa_3.bmp	sofa_9.bmp	19	1	1	1	2	MEDIENKULTURWISSENSCHAFT
FAUST_1[2014-06]	36	4	3	1	3	2	1	2	2	1	1107	2	2	1	1755	2	1221	doorknocker_2.bmp	pasta_9.bmp	doorknocker_5.bmp	pasta_13.bmp	pasta_10.bmp	doorknocker_5.bmp	pasta_15.bmp	19	1	1	1	2	MEDIENKULTURWISSENSCHAFT
FAUST_1[2014-06]	36	4	4	1	3	1	2	2	1	0	1522	1	1	1	2255	3	1435	highchair_15.bmp	fan_10.bmp	highchair_3.bmp	fan_10.bmp	highchair_6.bmp	highchair_10.bmp	highchair_4.bmp	19	1	1	1	2	MEDIENKULTURWISSENSCHAFT
FAUST_1[2014-06]	36	4	23	1	3	2	2	2	1	0	1524	1	2	0	945	4	844	remote_14.bmp	remote_11.bmp	remote_13.bmp	remote_2.bmp	remote_3.bmp	remote_2.bmp	backpack_12.bmp	19	1	1	1	2	MEDIENKULTURWISSENSCHAFT
FAUST_1[2014-06]	36	4	14	1	3	1	1	2	1	0	3113	1	1	1	767	2	1871	watergun_8.bmp	lawnmower_17.bmp	lawnmower_8.bmp	lawnmower_13.bmp	lawnmower_3.bmp	lawnmower_17.bmp	watergun_3.bmp	19	1	1	1	2	MEDIENKULTURWISSENSCHAFT
FAUST_1[2014-06]	36	4	32	1	3	2	1	2	1	0	1080	1	1	1	456	1	4414	cat_1.bmp	cat_9.bmp	cheesegrater_5.bmp	cat_9.bmp	cheesegrater_11.bmp	cheesegrater_15.bmp	cheesegrater_8.bmp	19	1	1	1	2	MEDIENKULTURWISSENSCHAFT
FAUST_1[2014-06]	36	4	16	1	3	1	2	2	1	0	1204	1	2	0	444	3	1578	parfait_13.bmp	parfait_11.bmp	parfait_1.bmp	router_16.bmp	parfait_4.bmp	router_16.bmp	parfait_15.bmp	19	1	1	1	2	MEDIENKULTURWISSENSCHAFT
FAUST_1[2014-06]	36	4	5	1	3	2	2	2	2	1	1239	2	2	1	1600	2	1150	mic_2.bmp	mic_5.bmp	mic_3.bmp	mic_5.bmp	mic_10.bmp	mic_12.bmp	wig_9.bmp	19	1	1	1	2	MEDIENKULTURWISSENSCHAFT
FAUST_1[2014-06]	36	4	29	1	3	1	1	3	2	1	989	2	2	1	1129	4	1668	tv_4.bmp	windchime_3.bmp	windchime_6.bmp	windchime_10.bmp	turtle_6.bmp	windchime_15.bmp	windchime_10.bmp	19	1	1	1	2	MEDIENKULTURWISSENSCHAFT
FAUST_1[2014-06]	36	4	18	1	3	2	1	3	2	1	1825	1	2	0	1020	3	2054	speaker_10.bmp	garbagecan_2.bmp	trunk_7.bmp	trunk_2.bmp	garbagecan_2.bmp	trunk_1.bmp	trunk_5.bmp	19	1	1	1	2	MEDIENKULTURWISSENSCHAFT
FAUST_1[2014-06]	36	4	15	1	3	1	1	3	2	1	1018	1	1	1	378	4	2436	saltpeppershake_2.bmp	printer_16.bmp	hairdryer_12.bmp	hairdryer_14.bmp	hairdryer_7.bmp	hairdryer_2.bmp	hairdryer_14.bmp	19	1	1	1	2	MEDIENKULTURWISSENSCHAFT
FAUST_1[2014-06]	36	4	21	1	3	2	1	3	2	1	1331	1	2	0	796	4	1242	skateboard_16.bmp	iceskates_7.bmp	rusdoll_6.bmp	rusdoll_8.bmp	iceskates_7.bmp	rusdoll_1.bmp	rusdoll_5.bmp	19	1	1	1	2	MEDIENKULTURWISSENSCHAFT
FAUST_1[2014-06]	36	4	10	1	3	1	1	3	2	1	1603	1	2	0	476	3	1236	socks_12.bmp	scooter_4.bmp	scooter_10.bmp	scooter_11.bmp	hairbrush_17.bmp	scooter_4.bmp	scooter_5.bmp	19	1	1	1	2	MEDIENKULTURWISSENSCHAFT
FAUST_1[2014-06]	36	4	19	1	3	2	1	3	2	1	1998	1	1	1	847	4	1769	carriage_14.bmp	ring_8.bmp	ring_11.bmp	circuitboard_2.bmp	ring_7.bmp	ring_15.bmp	circuitboard_2.bmp	19	1	1	1	2	MEDIENKULTURWISSENSCHAFT
FAUST_1[2014-06]	36	4	26	1	3	1	1	3	2	1	1471	1	2	0	603	2	2173	babycrib_9.bmp	jacket_11.bmp	jacket_6.bmp	jacket_10.bmp	glove_15.bmp	jacket_13.bmp	jacket_6.bmp	19	1	1	1	2	MEDIENKULTURWISSENSCHAFT
FAUST_1[2014-06]	36	4	30	1	3	2	1	3	2	1	2249	2	2	1	575	3	2328	leatherman_5.bmp	chair_3.bmp	sink_6.bmp	chair_3.bmp	sink_11.bmp	sink_1.bmp	sink_10.bmp	19	1	1	1	2	MEDIENKULTURWISSENSCHAFT
