experiment	subject	block	trial	order	material	repeated	related	probetype	response	correct	rt	math_response	math_correctresponse	math_correct	math_rt	confidence	confidence_rt	probe	item1	item2	item3	item4	item5	item6	age	sex	handedness	color_vision	mother_tongue	occupation
FAUST_1[2014-06]	37	1	26	2	1	1	1	1	1	1	1761	2	2	1	2634	3	2245	LESEN	mumps	masern	mumps	grippe	lesen	windpocken	24	1	1	1	1	LEHRAMMTTGESCHICHTEDEUTSCH
FAUST_1[2014-06]	37	1	1	2	1	2	1	1	1	1	4496	1	2	0	2741	3	4443	LUNGE	klebeband	lineal	brieföffner	lunge	locher	lunge	24	1	1	1	1	LEHRAMMTTGESCHICHTEDEUTSCH
FAUST_1[2014-06]	37	1	29	2	1	1	2	1	1	1	1410	2	2	1	1760	4	1258	ERDKUNDE	physik	biologie	quadrat	mathematik	quadrat	erdkunde	24	1	1	1	1	LEHRAMMTTGESCHICHTEDEUTSCH
FAUST_1[2014-06]	37	1	27	2	1	2	2	1	1	1	1196	1	1	1	1201	4	1043	SCHWALBE	schwalbe	amsel	schwalbe	meise	regal	fink	24	1	1	1	1	LEHRAMMTTGESCHICHTEDEUTSCH
FAUST_1[2014-06]	37	1	23	2	1	1	1	1	1	1	2361	1	1	1	1997	4	1314	MONOPOLY	hütte	baracke	schuppen	blockhaus	monopoly	schuppen	24	1	1	1	1	LEHRAMMTTGESCHICHTEDEUTSCH
FAUST_1[2014-06]	37	1	24	2	1	2	1	1	1	1	1151	1	1	1	2481	4	1457	WALZER	internet	zeitung	walzer	buch	fernsehen	walzer	24	1	1	1	1	LEHRAMMTTGESCHICHTEDEUTSCH
FAUST_1[2014-06]	37	1	2	2	1	1	2	1	2	0	2431	2	1	0	1295	3	4323	WOLLE	sonnenschein	leinen	sonnenschein	flanell	baumwolle	wolle	24	1	1	1	1	LEHRAMMTTGESCHICHTEDEUTSCH
FAUST_1[2014-06]	37	1	18	2	1	2	2	1	1	1	2557	2	2	1	2524	4	1669	DINKEL	gerste	dinkel	hafer	weizen	dinkel	boot	24	1	1	1	1	LEHRAMMTTGESCHICHTEDEUTSCH
FAUST_1[2014-06]	37	1	11	2	1	1	1	1	2	0	11816	1	1	1	2158	3	2074	PIZZA	pizza	western	horrorfilm	western	komödie	actionfilm	24	1	1	1	1	LEHRAMMTTGESCHICHTEDEUTSCH
FAUST_1[2014-06]	37	1	10	2	1	2	1	1	1	1	3840	1	2	0	1696	3	1479	SOHN	verb	nomen	präposition	sohn	adverb	sohn	24	1	1	1	1	LEHRAMMTTGESCHICHTEDEUTSCH
FAUST_1[2014-06]	37	1	5	2	1	1	2	1	1	1	5027	2	1	0	2170	3	6833	JACKE	bluse	apfel	hemd	jacke	rock	apfel	24	1	1	1	1	LEHRAMMTTGESCHICHTEDEUTSCH
FAUST_1[2014-06]	37	1	32	2	1	2	2	1	1	1	1284	1	1	1	2142	4	1433	GUMMIBÄRCHEN	gummibärchen	lakritz	gummibärchen	bonbons	gold	marzipan	24	1	1	1	1	LEHRAMMTTGESCHICHTEDEUTSCH
FAUST_1[2014-06]	37	1	31	2	1	1	1	2	2	1	2729	2	2	1	1623	3	1877	GLAS	birke	buche	tanne	becher	birke	eiche	24	1	1	1	1	LEHRAMMTTGESCHICHTEDEUTSCH
FAUST_1[2014-06]	37	1	16	2	1	2	1	2	2	1	1006	1	1	1	2079	3	4195	STRAßENBAHN	zug	löffel	brotmesser	teelöffel	zug	gabel	24	1	1	1	1	LEHRAMMTTGESCHICHTEDEUTSCH
FAUST_1[2014-06]	37	1	12	2	1	1	2	2	2	1	4926	2	1	0	1849	2	10330	KINO	zentimeter	oper	konzertsaal	theater	zentimeter	zirkus	24	1	1	1	1	LEHRAMMTTGESCHICHTEDEUTSCH
FAUST_1[2014-06]	37	1	6	2	1	2	2	2	2	1	2120	1	2	0	1457	4	1330	LAPTOP	pfannenwender	drucker	computer	mobiltelefon	computer	kamera	24	1	1	1	1	LEHRAMMTTGESCHICHTEDEUTSCH
FAUST_1[2014-06]	37	1	28	2	1	1	1	2	2	1	1523	1	1	1	2186	4	1140	KEROSIN	petroleum	thymian	majoran	rosmarin	oregano	rosmarin	24	1	1	1	1	LEHRAMMTTGESCHICHTEDEUTSCH
FAUST_1[2014-06]	37	1	15	2	1	2	1	2	2	1	1837	2	2	1	2537	3	1543	HÖREN	angst	fühlen	freude	scham	fühlen	ärger	24	1	1	1	1	LEHRAMMTTGESCHICHTEDEUTSCH
FAUST_1[2014-06]	37	1	14	2	1	1	2	2	2	1	10524	2	1	0	2841	3	1527	FÜRST	graf	herzog	könig	werwolf	kaiser	werwolf	24	1	1	1	1	LEHRAMMTTGESCHICHTEDEUTSCH
FAUST_1[2014-06]	37	1	3	2	1	2	2	2	1	0	5134	2	1	0	1333	4	2459	STICKSTOFF	helium	wasserstoff	weser	wasserstoff	sauerstoff	kohlenstoff	24	1	1	1	1	LEHRAMMTTGESCHICHTEDEUTSCH
FAUST_1[2014-06]	37	1	9	2	1	1	1	2	2	1	2701	2	1	0	2813	4	4285	MEER	leopard	puma	tiger	ozean	puma	panther	24	1	1	1	1	LEHRAMMTTGESCHICHTEDEUTSCH
FAUST_1[2014-06]	37	1	13	2	1	2	1	2	2	1	2077	1	2	0	3028	3	1916	HESSEN	brandenburg	thunfisch	makrele	lachs	brandenburg	hering	24	1	1	1	1	LEHRAMMTTGESCHICHTEDEUTSCH
FAUST_1[2014-06]	37	1	30	2	1	1	2	2	2	1	1793	1	1	1	2396	4	3288	FLÖTE	rückspiegel	oboe	trompete	rückspiegel	klarinette	posaune	24	1	1	1	1	LEHRAMMTTGESCHICHTEDEUTSCH
FAUST_1[2014-06]	37	1	19	2	1	2	2	2	2	1	1610	2	2	1	2746	4	2929	SCHÜTZE	wassermann	jungfrau	zwilling	steinbock	jungfrau	arzt	24	1	1	1	1	LEHRAMMTTGESCHICHTEDEUTSCH
FAUST_1[2014-06]	37	1	4	2	1	1	1	3	2	1	2909	1	2	0	2157	4	1695	HAUPTSCHULE	opium	münchen	hamburg	stuttgart	hannover	stuttgart	24	1	1	1	1	LEHRAMMTTGESCHICHTEDEUTSCH
FAUST_1[2014-06]	37	1	17	2	1	2	1	3	2	1	1033	1	1	1	1668	4	1039	HUMMEL	bohrer	österreich	meißel	zange	österreich	säge	24	1	1	1	1	LEHRAMMTTGESCHICHTEDEUTSCH
FAUST_1[2014-06]	37	1	8	2	1	1	1	3	2	1	2615	1	2	0	1620	4	2398	KUGELSCHREIBER	mops	dogge	mark	mops	schäferhund	dackel	24	1	1	1	1	LEHRAMMTTGESCHICHTEDEUTSCH
FAUST_1[2014-06]	37	1	7	2	1	2	1	3	2	1	2367	1	2	0	1858	4	3289	SEKUNDE	golf	tennis	karotten	fußball	karotten	skifahren	24	1	1	1	1	LEHRAMMTTGESCHICHTEDEUTSCH
FAUST_1[2014-06]	37	1	20	2	1	1	1	3	2	1	1150	1	1	1	1998	4	2072	SCHWERT	tempel	synagoge	nelke	kapelle	kirche	synagoge	24	1	1	1	1	LEHRAMMTTGESCHICHTEDEUTSCH
FAUST_1[2014-06]	37	1	22	2	1	2	1	3	2	1	1185	2	2	1	2389	4	1517	ROT	gin	rum	audi	whiskey	tequila	audi	24	1	1	1	1	LEHRAMMTTGESCHICHTEDEUTSCH
FAUST_1[2014-06]	37	1	25	2	1	1	1	3	2	1	2133	2	1	0	2470	4	1401	MERKUR	beethoven	lidschatten	kajal	rouge	lidschatten	wimperntusche	24	1	1	1	1	LEHRAMMTTGESCHICHTEDEUTSCH
FAUST_1[2014-06]	37	1	21	2	1	2	1	3	2	1	1293	2	1	0	1786	4	2779	FUß	stecknadel	australien	häkelnadel	stricknadel	sicherheitsnadel	australien	24	1	1	1	1	LEHRAMMTTGESCHICHTEDEUTSCH
FAUST_1[2014-06]	37	2	20	2	3	1	1	1	2	0	4126	2	1	0	2104	2	2357	highchair_15.bmp	carabiner_5.bmp	highchair_15.bmp	carabiner_9.bmp	carabiner_6.bmp	carabiner_9.bmp	carabiner_2.bmp	24	1	1	1	1	LEHRAMMTTGESCHICHTEDEUTSCH
FAUST_1[2014-06]	37	2	31	2	3	2	1	1	1	1	1138	1	1	1	1779	4	1719	ring_8.bmp	speaker_10.bmp	speaker_15.bmp	ring_8.bmp	speaker_17.bmp	ring_8.bmp	speaker_6.bmp	24	1	1	1	1	LEHRAMMTTGESCHICHTEDEUTSCH
FAUST_1[2014-06]	37	2	9	2	3	1	2	1	1	1	3310	2	2	1	1802	1	2603	powerstrip_8.bmp	bagel_12.bmp	powerstrip_7.bmp	powerstrip_8.bmp	bagel_12.bmp	powerstrip_14.bmp	powerstrip_13.bmp	24	1	1	1	1	LEHRAMMTTGESCHICHTEDEUTSCH
FAUST_1[2014-06]	37	2	15	2	3	2	2	1	1	1	2681	2	2	1	1195	4	1381	iceskates_14.bmp	parfait_13.bmp	iceskates_16.bmp	iceskates_14.bmp	iceskates_5.bmp	iceskates_9.bmp	iceskates_14.bmp	24	1	1	1	1	LEHRAMMTTGESCHICHTEDEUTSCH
FAUST_1[2014-06]	37	2	18	2	3	1	1	1	2	0	2822	1	1	1	2345	2	4143	tv_4.bmp	cake_14.bmp	cake_4.bmp	cake_3.bmp	cake_1.bmp	cake_3.bmp	tv_4.bmp	24	1	1	1	1	LEHRAMMTTGESCHICHTEDEUTSCH
FAUST_1[2014-06]	37	2	4	2	3	2	1	1	1	1	1940	2	2	1	2416	4	1471	cheesegrater_14.bmp	shredder_5.bmp	cheesegrater_14.bmp	shredder_6.bmp	shredder_1.bmp	cheesegrater_14.bmp	shredder_15.bmp	24	1	1	1	1	LEHRAMMTTGESCHICHTEDEUTSCH
FAUST_1[2014-06]	37	2	22	2	3	1	2	1	1	1	1250	2	1	0	1785	4	1361	pasta_15.bmp	guitar_14.bmp	pasta_11.bmp	pasta_15.bmp	pasta_9.bmp	pasta_13.bmp	guitar_14.bmp	24	1	1	1	1	LEHRAMMTTGESCHICHTEDEUTSCH
FAUST_1[2014-06]	37	2	28	2	3	2	2	1	1	1	2124	1	1	1	1520	3	1961	remote_11.bmp	remote_14.bmp	remote_11.bmp	remote_3.bmp	doorknob_7.bmp	remote_11.bmp	remote_2.bmp	24	1	1	1	1	LEHRAMMTTGESCHICHTEDEUTSCH
FAUST_1[2014-06]	37	2	10	2	3	1	1	1	1	1	2466	2	2	1	2537	4	2455	cherubstatue_12.bmp	lawnmower_8.bmp	lawnmower_13.bmp	lawnmower_8.bmp	lawnmower_3.bmp	lawnmower_15.bmp	cherubstatue_12.bmp	24	1	1	1	1	LEHRAMMTTGESCHICHTEDEUTSCH
FAUST_1[2014-06]	37	2	14	2	3	2	1	1	1	1	3114	1	1	1	1480	4	1705	easteregg_16.bmp	hammer_11.bmp	easteregg_16.bmp	hammer_17.bmp	hammer_6.bmp	easteregg_16.bmp	hammer_8.bmp	24	1	1	1	1	LEHRAMMTTGESCHICHTEDEUTSCH
FAUST_1[2014-06]	37	2	21	2	3	1	2	1	1	1	1608	2	2	1	1617	4	2016	fan_11.bmp	videogamecontroller_3.bmp	fan_17.bmp	fan_11.bmp	fan_1.bmp	fan_10.bmp	videogamecontroller_3.bmp	24	1	1	1	1	LEHRAMMTTGESCHICHTEDEUTSCH
FAUST_1[2014-06]	37	2	29	2	3	2	2	1	1	1	1119	1	1	1	1922	4	1676	birdhouse_11.bmp	birdhouse_11.bmp	birdhouse_14.bmp	birdhouse_11.bmp	birdhouse_9.bmp	birdhouse_7.bmp	laptop_10.bmp	24	1	1	1	1	LEHRAMMTTGESCHICHTEDEUTSCH
FAUST_1[2014-06]	37	2	19	2	3	1	1	2	2	1	2491	2	2	1	2445	3	4769	hairbrush_17.bmp	abacus_6.bmp	abacus_15.bmp	hairbrush_16.bmp	abacus_7.bmp	abacus_6.bmp	abacus_2.bmp	24	1	1	1	1	LEHRAMMTTGESCHICHTEDEUTSCH
FAUST_1[2014-06]	37	2	11	2	3	2	1	2	2	1	3087	1	1	1	2128	2	2972	carriage_3.bmp	carriage_12.bmp	vase_6.bmp	carriage_12.bmp	vase_5.bmp	vase_13.bmp	vase_1.bmp	24	1	1	1	1	LEHRAMMTTGESCHICHTEDEUTSCH
FAUST_1[2014-06]	37	2	32	2	3	1	2	2	2	1	3066	1	1	1	2389	2	5783	horseshoe_12.bmp	horseshoe_6.bmp	goggle_9.bmp	horseshoe_3.bmp	goggle_9.bmp	horseshoe_5.bmp	horseshoe_4.bmp	24	1	1	1	1	LEHRAMMTTGESCHICHTEDEUTSCH
FAUST_1[2014-06]	37	2	7	2	3	2	2	2	1	0	2688	1	1	1	1294	2	8073	windchime_10.bmp	watch_8.bmp	windchime_15.bmp	windchime_3.bmp	windchime_16.bmp	windchime_6.bmp	windchime_15.bmp	24	1	1	1	1	LEHRAMMTTGESCHICHTEDEUTSCH
FAUST_1[2014-06]	37	2	6	2	3	1	1	2	2	1	3217	1	1	1	1243	3	1873	tricycle_2.bmp	beanbagchair_12.bmp	beanbagchair_17.bmp	beanbagchair_15.bmp	tricycle_5.bmp	beanbagchair_12.bmp	beanbagchair_3.bmp	24	1	1	1	1	LEHRAMMTTGESCHICHTEDEUTSCH
FAUST_1[2014-06]	37	2	12	2	3	2	1	2	2	1	4012	1	1	1	1766	1	1853	trumpet_5.bmp	trumpet_1.bmp	trophy_6.bmp	trophy_14.bmp	trumpet_1.bmp	trophy_16.bmp	trophy_4.bmp	24	1	1	1	1	LEHRAMMTTGESCHICHTEDEUTSCH
FAUST_1[2014-06]	37	2	23	2	3	1	2	2	2	1	2960	2	2	1	1127	3	1548	bowlingpin_1.bmp	bowlingpin_13.bmp	bowlingpin_4.bmp	bowlingpin_11.bmp	wig_12.bmp	bowlingpin_3.bmp	wig_12.bmp	24	1	1	1	1	LEHRAMMTTGESCHICHTEDEUTSCH
FAUST_1[2014-06]	37	2	17	2	3	2	2	2	1	0	3218	2	1	0	1085	3	2580	hairdryer_14.bmp	hairdryer_12.bmp	hairdryer_2.bmp	mic_12.bmp	hairdryer_7.bmp	hairdryer_12.bmp	hairdryer_13.bmp	24	1	1	1	1	LEHRAMMTTGESCHICHTEDEUTSCH
FAUST_1[2014-06]	37	2	26	2	3	1	1	2	1	0	3360	2	2	1	1675	1	2014	cat_5.bmp	saltpeppershake_17.bmp	saltpeppershake_12.bmp	saltpeppershake_9.bmp	saltpeppershake_12.bmp	saltpeppershake_2.bmp	cat_1.bmp	24	1	1	1	1	LEHRAMMTTGESCHICHTEDEUTSCH
FAUST_1[2014-06]	37	2	1	2	3	2	1	2	1	0	2569	1	1	1	2249	4	2478	circuitboard_13.bmp	socks_15.bmp	circuitboard_8.bmp	socks_13.bmp	socks_4.bmp	circuitboard_8.bmp	socks_12.bmp	24	1	1	1	1	LEHRAMMTTGESCHICHTEDEUTSCH
FAUST_1[2014-06]	37	2	3	2	3	1	2	2	1	0	3022	2	2	1	1870	3	2021	printer_16.bmp	sofa_9.bmp	printer_5.bmp	printer_1.bmp	printer_3.bmp	printer_14.bmp	sofa_9.bmp	24	1	1	1	1	LEHRAMMTTGESCHICHTEDEUTSCH
FAUST_1[2014-06]	37	2	24	2	3	2	2	2	2	1	2579	2	1	0	2063	3	3188	skateboard_3.bmp	skateboard_14.bmp	skateboard_15.bmp	coffee_14.bmp	skateboard_14.bmp	skateboard_16.bmp	skateboard_11.bmp	24	1	1	1	1	LEHRAMMTTGESCHICHTEDEUTSCH
FAUST_1[2014-06]	37	2	13	2	3	1	1	3	2	1	2554	1	1	1	1100	4	3077	plant_8.bmp	saddle_8.bmp	saddle_5.bmp	saddle_3.bmp	saddle_15.bmp	saddle_5.bmp	chair_3.bmp	24	1	1	1	1	LEHRAMMTTGESCHICHTEDEUTSCH
FAUST_1[2014-06]	37	2	5	2	3	2	1	3	2	1	1116	1	1	1	1676	4	1123	babycrib_9.bmp	turtle_2.bmp	garbagecan_2.bmp	garbagecan_17.bmp	garbagecan_8.bmp	garbagecan_13.bmp	turtle_2.bmp	24	1	1	1	1	LEHRAMMTTGESCHICHTEDEUTSCH
FAUST_1[2014-06]	37	2	30	2	3	1	1	3	2	1	1230	2	1	0	1428	4	2226	leatherman_2.bmp	rusdoll_1.bmp	rusdoll_3.bmp	rusdoll_6.bmp	rusdoll_8.bmp	sink_6.bmp	rusdoll_8.bmp	24	1	1	1	1	LEHRAMMTTGESCHICHTEDEUTSCH
FAUST_1[2014-06]	37	2	16	2	3	2	1	3	2	1	1757	2	2	1	2620	4	1060	glasses_8.bmp	camera_3.bmp	jacket_13.bmp	jacket_7.bmp	camera_3.bmp	jacket_11.bmp	jacket_6.bmp	24	1	1	1	1	LEHRAMMTTGESCHICHTEDEUTSCH
FAUST_1[2014-06]	37	2	8	2	3	1	1	3	2	1	2359	1	1	1	2131	4	1413	orifan_14.bmp	doorknocker_14.bmp	backpack_13.bmp	backpack_16.bmp	backpack_6.bmp	backpack_16.bmp	backpack_10.bmp	24	1	1	1	1	LEHRAMMTTGESCHICHTEDEUTSCH
FAUST_1[2014-06]	37	2	2	2	3	2	1	3	2	1	1155	1	1	1	1792	4	1954	watergun_3.bmp	rollerskates_7.bmp	flashlight_13.bmp	rollerskates_7.bmp	flashlight_12.bmp	flashlight_2.bmp	flashlight_17.bmp	24	1	1	1	1	LEHRAMMTTGESCHICHTEDEUTSCH
FAUST_1[2014-06]	37	2	27	2	3	1	1	3	2	1	1595	1	1	1	2272	4	1397	glove_15.bmp	scooter_5.bmp	scooter_4.bmp	scooter_10.bmp	router_7.bmp	scooter_11.bmp	scooter_10.bmp	24	1	1	1	1	LEHRAMMTTGESCHICHTEDEUTSCH
FAUST_1[2014-06]	37	2	25	2	3	2	1	3	2	1	1083	1	1	1	2531	4	1252	shoe_15.bmp	trunk_5.bmp	cellphone_4.bmp	trunk_2.bmp	trunk_7.bmp	cellphone_4.bmp	trunk_3.bmp	24	1	1	1	1	LEHRAMMTTGESCHICHTEDEUTSCH
FAUST_1[2014-06]	37	3	10	2	2	1	1	1	1	1	2940	2	2	1	1140	3	2614	Daff21.bmp	Apple5.bmp	Apple21.bmp	Apple24.bmp	Apple21.bmp	Daff21.bmp	Apple10.bmp	24	1	1	1	1	LEHRAMMTTGESCHICHTEDEUTSCH
FAUST_1[2014-06]	37	3	13	2	2	2	1	1	1	1	1109	2	2	1	1398	4	1576	Cake24.bmp	Cake24.bmp	Coins8.bmp	Coins3.bmp	Coins12.bmp	Cake24.bmp	Coins14.bmp	24	1	1	1	1	LEHRAMMTTGESCHICHTEDEUTSCH
FAUST_1[2014-06]	37	3	4	2	2	1	2	1	1	1	2752	1	1	1	1894	4	2186	Present3.bmp	Present17.bmp	Present3.bmp	Plug6.bmp	Present9.bmp	Plug6.bmp	Present2.bmp	24	1	1	1	1	LEHRAMMTTGESCHICHTEDEUTSCH
FAUST_1[2014-06]	37	3	19	2	2	2	2	1	1	1	2727	2	1	0	1047	4	1459	Bag5.bmp	Bag5.bmp	Bag3.bmp	Bag21.bmp	Bag5.bmp	Bag4.bmp	Fudge20.bmp	24	1	1	1	1	LEHRAMMTTGESCHICHTEDEUTSCH
FAUST_1[2014-06]	37	3	17	2	2	1	1	1	2	0	5452	1	1	1	2901	3	2854	Hanger12.bmp	Sweet18.bmp	Sweet22.bmp	Sweet1.bmp	Hanger12.bmp	Sweet18.bmp	Sweet10.bmp	24	1	1	1	1	LEHRAMMTTGESCHICHTEDEUTSCH
FAUST_1[2014-06]	37	3	22	2	2	2	1	1	1	1	3314	2	2	1	1167	1	1698	Flower18.bmp	Flower18.bmp	Swirl5.bmp	Swirl1.bmp	Flower18.bmp	Swirl10.bmp	Swirl13.bmp	24	1	1	1	1	LEHRAMMTTGESCHICHTEDEUTSCH
FAUST_1[2014-06]	37	3	7	2	2	1	2	1	1	1	1241	1	1	1	907	4	1635	Pear4.bmp	Leaf15.bmp	Pear16.bmp	Leaf15.bmp	Pear18.bmp	Pear15.bmp	Pear4.bmp	24	1	1	1	1	LEHRAMMTTGESCHICHTEDEUTSCH
FAUST_1[2014-06]	37	3	15	2	2	2	2	1	1	1	1172	1	1	1	1481	3	2822	Shell9.bmp	Shell1.bmp	Shell9.bmp	Shell17.bmp	Screw18.bmp	Shell9.bmp	Shell5.bmp	24	1	1	1	1	LEHRAMMTTGESCHICHTEDEUTSCH
FAUST_1[2014-06]	37	3	2	2	2	1	1	2	2	1	3982	2	2	1	1933	4	1686	Bracelet18.bmp	Key5.bmp	Key13.bmp	Key20.bmp	Key13.bmp	Bracelet5.bmp	Key11.bmp	24	1	1	1	1	LEHRAMMTTGESCHICHTEDEUTSCH
FAUST_1[2014-06]	37	3	12	2	2	2	1	2	2	1	2407	1	1	1	1019	4	3831	Mushroom7.bmp	Mushroom14.bmp	Ginger5.bmp	Ginger3.bmp	Ginger15.bmp	Mushroom14.bmp	Ginger10.bmp	24	1	1	1	1	LEHRAMMTTGESCHICHTEDEUTSCH
FAUST_1[2014-06]	37	3	20	2	2	1	2	2	1	0	1822	2	2	1	1834	3	2109	Tomato12.bmp	Tomato3.bmp	Tomato5.bmp	Tomato2.bmp	Onion14.bmp	Tomato18.bmp	Onion14.bmp	24	1	1	1	1	LEHRAMMTTGESCHICHTEDEUTSCH
FAUST_1[2014-06]	37	3	11	2	2	2	2	2	1	0	3435	2	1	0	1420	1	1963	Chilli11.bmp	Chilli22.bmp	Chilli14.bmp	Chilli19.bmp	Chilli22.bmp	Strawberry3.bmp	Chilli12.bmp	24	1	1	1	1	LEHRAMMTTGESCHICHTEDEUTSCH
FAUST_1[2014-06]	37	3	18	2	2	1	1	2	2	1	3311	2	2	1	1278	4	1783	Varnish17.bmp	Jigsaw11.bmp	Jigsaw14.bmp	Jigsaw10.bmp	Varnish14.bmp	Jigsaw14.bmp	Jigsaw17.bmp	24	1	1	1	1	LEHRAMMTTGESCHICHTEDEUTSCH
FAUST_1[2014-06]	37	3	8	2	2	2	1	2	1	0	3294	2	2	1	2262	3	3710	Brocolli10.bmp	Candle20.bmp	Candle17.bmp	Brocolli9.bmp	Candle13.bmp	Candle10.bmp	Brocolli9.bmp	24	1	1	1	1	LEHRAMMTTGESCHICHTEDEUTSCH
FAUST_1[2014-06]	37	3	5	2	2	1	2	2	1	0	1145	2	2	1	1468	4	1760	Glass12.bmp	Hand17.bmp	Glass4.bmp	Glass3.bmp	Hand17.bmp	Glass16.bmp	Glass19.bmp	24	1	1	1	1	LEHRAMMTTGESCHICHTEDEUTSCH
FAUST_1[2014-06]	37	3	16	2	2	2	2	2	1	0	2751	1	2	0	2070	2	3164	Star1.bmp	Star7.bmp	Star17.bmp	Pen10.bmp	Star2.bmp	Star17.bmp	Star19.bmp	24	1	1	1	1	LEHRAMMTTGESCHICHTEDEUTSCH
FAUST_1[2014-06]	37	3	1	2	2	1	1	3	2	1	3045	2	2	1	2979	4	1861	Toothbrush12.bmp	Fork14.bmp	Fork8.bmp	Fork7.bmp	Fork8.bmp	Scissors14.bmp	Fork9.bmp	24	1	1	1	1	LEHRAMMTTGESCHICHTEDEUTSCH
FAUST_1[2014-06]	37	3	6	2	2	2	1	3	2	1	1351	2	2	1	1861	4	1702	String6.bmp	Umbrella7.bmp	Bun12.bmp	Bun17.bmp	Bun19.bmp	Umbrella7.bmp	Bun22.bmp	24	1	1	1	1	LEHRAMMTTGESCHICHTEDEUTSCH
FAUST_1[2014-06]	37	3	3	2	2	1	1	3	2	1	1962	1	1	1	2267	4	1741	Lipstick9.bmp	Car12.bmp	Stapler7.bmp	Stapler9.bmp	Stapler6.bmp	Stapler8.bmp	Stapler7.bmp	24	1	1	1	1	LEHRAMMTTGESCHICHTEDEUTSCH
FAUST_1[2014-06]	37	3	21	2	2	2	1	3	2	1	1363	1	1	1	3061	4	1647	Keys5.bmp	Man10.bmp	Man4.bmp	Biscuit4.bmp	Man24.bmp	Biscuit4.bmp	Man15.bmp	24	1	1	1	1	LEHRAMMTTGESCHICHTEDEUTSCH
FAUST_1[2014-06]	37	3	14	2	2	1	1	3	2	1	1097	2	2	1	1561	4	1425	Feather18.bmp	Nut21.bmp	Nut19.bmp	Nut18.bmp	Nut11.bmp	Nut21.bmp	Button3.bmp	24	1	1	1	1	LEHRAMMTTGESCHICHTEDEUTSCH
FAUST_1[2014-06]	37	3	9	2	2	2	1	3	2	1	1111	2	2	1	1427	4	2121	Holly17.bmp	Paperclip13.bmp	Chocolate9.bmp	Chocolate17.bmp	Chocolate6.bmp	Paperclip13.bmp	Chocolate5.bmp	24	1	1	1	1	LEHRAMMTTGESCHICHTEDEUTSCH
FAUST_1[2014-06]	37	2	22	2	1	1	1	1	2	0	4223	2	2	1	1840	2	1563	HAND	biologie	physik	biologie	hand	chemie	mathematik	24	1	1	1	1	LEHRAMMTTGESCHICHTEDEUTSCH
FAUST_1[2014-06]	37	2	25	2	1	2	1	1	1	1	2958	2	2	1	819	3	3111	SCHNEE	elbe	rhein	schnee	main	schnee	donau	24	1	1	1	1	LEHRAMMTTGESCHICHTEDEUTSCH
FAUST_1[2014-06]	37	2	19	2	1	1	2	1	2	0	3491	2	1	0	1647	3	1434	PIZZA	hamburger	helium	bratwurst	pommes	pizza	helium	24	1	1	1	1	LEHRAMMTTGESCHICHTEDEUTSCH
FAUST_1[2014-06]	37	2	7	2	1	2	2	1	1	1	1364	2	2	1	751	4	1462	STUHL	stuhl	vater	tisch	schrank	stuhl	regal	24	1	1	1	1	LEHRAMMTTGESCHICHTEDEUTSCH
FAUST_1[2014-06]	37	2	12	2	1	1	1	1	2	0	1063	1	1	1	1054	4	2230	ÄRGER	lineal	ärger	brieföffner	klebeband	lineal	büroklammer	24	1	1	1	1	LEHRAMMTTGESCHICHTEDEUTSCH
FAUST_1[2014-06]	37	2	1	2	1	2	1	1	1	1	1109	1	1	1	760	4	1728	SCHEUNE	scheune	meißel	zange	bohrer	scheune	hammer	24	1	1	1	1	LEHRAMMTTGESCHICHTEDEUTSCH
FAUST_1[2014-06]	37	2	2	2	1	1	2	1	1	1	4592	1	1	1	1733	1	1645	REALSCHULE	realschule	backgammon	berufsschule	backgammon	hauptschule	gymnasium	24	1	1	1	1	LEHRAMMTTGESCHICHTEDEUTSCH
FAUST_1[2014-06]	37	2	23	2	1	2	2	1	1	1	1167	1	1	1	795	4	1228	AUDI	mercedes	volvo	audi	backform	audi	porsche	24	1	1	1	1	LEHRAMMTTGESCHICHTEDEUTSCH
FAUST_1[2014-06]	37	2	6	2	1	1	1	1	1	1	1248	2	2	1	1320	4	3406	LIPPENSTIFT	dänemark	england	schweiz	österreich	dänemark	lippenstift	24	1	1	1	1	LEHRAMMTTGESCHICHTEDEUTSCH
FAUST_1[2014-06]	37	2	20	2	1	2	1	1	1	1	978	2	2	1	947	4	1782	CENT	tennis	golf	schwimmen	cent	skifahren	cent	24	1	1	1	1	LEHRAMMTTGESCHICHTEDEUTSCH
FAUST_1[2014-06]	37	2	10	2	1	1	2	1	1	1	1148	1	2	0	1220	4	1474	KARAMELL	gummibärchen	merkur	karamell	merkur	lakritz	marzipan	24	1	1	1	1	LEHRAMMTTGESCHICHTEDEUTSCH
FAUST_1[2014-06]	37	2	28	2	1	2	2	1	1	1	1507	1	1	1	732	4	1367	HAMBURG	hamburg	leopard	hamburg	hannover	berlin	stuttgart	24	1	1	1	1	LEHRAMMTTGESCHICHTEDEUTSCH
FAUST_1[2014-06]	37	2	24	2	1	1	1	2	2	1	888	2	2	1	1396	4	1384	TEMPEL	foxtrott	kapelle	chachacha	rumba	walzer	foxtrott	24	1	1	1	1	LEHRAMMTTGESCHICHTEDEUTSCH
FAUST_1[2014-06]	37	2	13	2	1	2	1	2	2	1	1032	2	2	1	1640	4	1404	SEIDE	sicherheitsnadel	stecknadel	leinen	häkelnadel	leinen	stricknadel	24	1	1	1	1	LEHRAMMTTGESCHICHTEDEUTSCH
FAUST_1[2014-06]	37	2	21	2	1	1	2	2	2	1	940	2	2	1	2129	3	3418	MAJORAN	rosmarin	teich	thymian	koriander	teich	oregano	24	1	1	1	1	LEHRAMMTTGESCHICHTEDEUTSCH
FAUST_1[2014-06]	37	2	9	2	1	2	2	2	2	1	2405	2	2	1	2747	3	1801	BLEISTIFT	kugelschreiber	filzstift	buntstift	filzstift	füller	tomaten	24	1	1	1	1	LEHRAMMTTGESCHICHTEDEUTSCH
FAUST_1[2014-06]	37	2	5	2	1	1	1	2	2	1	1077	2	2	1	1197	4	2008	WESTERN	ameise	biene	hummel	mücke	ameise	actionfilm	24	1	1	1	1	LEHRAMMTTGESCHICHTEDEUTSCH
FAUST_1[2014-06]	37	2	16	2	1	2	1	2	2	1	1013	1	1	1	1870	4	2302	GEWEHR	australien	pistole	südamerika	afrika	pistole	asien	24	1	1	1	1	LEHRAMMTTGESCHICHTEDEUTSCH
FAUST_1[2014-06]	37	2	4	2	1	1	2	2	2	1	1314	1	1	1	907	3	5255	RECHTECK	fernsehen	dreieck	fernsehen	quadrat	viereck	kreis	24	1	1	1	1	LEHRAMMTTGESCHICHTEDEUTSCH
FAUST_1[2014-06]	37	2	32	2	1	2	2	2	2	1	2723	2	1	0	1638	4	1915	ROSE	lilie	bluse	tulpe	veilchen	nelke	veilchen	24	1	1	1	1	LEHRAMMTTGESCHICHTEDEUTSCH
FAUST_1[2014-06]	37	2	18	2	1	1	1	2	2	1	785	1	1	1	1630	4	1179	ZIRKUS	kanu	kino	fähre	yacht	fähre	boot	24	1	1	1	1	LEHRAMMTTGESCHICHTEDEUTSCH
FAUST_1[2014-06]	37	2	26	2	1	2	1	2	2	1	2753	1	2	0	1478	4	1436	TROMPETE	masern	posaune	windpocken	röteln	posaune	grippe	24	1	1	1	1	LEHRAMMTTGESCHICHTEDEUTSCH
FAUST_1[2014-06]	37	2	3	2	1	1	2	2	2	1	1106	2	2	1	1211	4	3912	TEELÖFFEL	löffel	schütze	messer	brotmesser	gabel	schütze	24	1	1	1	1	LEHRAMMTTGESCHICHTEDEUTSCH
FAUST_1[2014-06]	37	2	30	2	1	2	2	2	2	1	3843	2	1	0	783	1	1883	KILOMETER	kokain	zentimeter	millimeter	meile	meter	millimeter	24	1	1	1	1	LEHRAMMTTGESCHICHTEDEUTSCH
FAUST_1[2014-06]	37	2	29	2	1	1	1	3	2	1	739	2	2	1	859	4	999	BENZIN	adverb	lehrer	präposition	nomen	verb	präposition	24	1	1	1	1	LEHRAMMTTGESCHICHTEDEUTSCH
FAUST_1[2014-06]	37	2	11	2	1	2	1	3	2	1	989	2	2	1	930	4	1252	BRANDENBURG	dinkel	lenkrad	gerste	lenkrad	hafer	weizen	24	1	1	1	1	LEHRAMMTTGESCHICHTEDEUTSCH
FAUST_1[2014-06]	37	2	15	2	1	1	1	3	2	1	1052	1	1	1	806	4	1399	MAGEN	vivaldi	mozart	chopin	lachs	chopin	brahms	24	1	1	1	1	LEHRAMMTTGESCHICHTEDEUTSCH
FAUST_1[2014-06]	37	2	14	2	1	2	1	3	2	1	903	1	1	1	1818	4	1332	VAMPIR	grün	taxi	lila	gelb	taxi	rot	24	1	1	1	1	LEHRAMMTTGESCHICHTEDEUTSCH
FAUST_1[2014-06]	37	2	31	2	1	1	1	3	2	1	836	2	2	1	981	4	1428	SCHMECKEN	glas	karaffe	kanne	fürst	becher	glas	24	1	1	1	1	LEHRAMMTTGESCHICHTEDEUTSCH
FAUST_1[2014-06]	37	2	8	2	1	2	1	3	2	1	892	1	1	1	2094	4	2365	BUCHE	dogge	mobiltelefon	terrier	mops	mobiltelefon	dackel	24	1	1	1	1	LEHRAMMTTGESCHICHTEDEUTSCH
FAUST_1[2014-06]	37	2	27	2	1	1	1	3	2	1	820	2	2	1	1029	4	2062	ZEICHNEN	amsel	fink	sekunde	schwalbe	amsel	taube	24	1	1	1	1	LEHRAMMTTGESCHICHTEDEUTSCH
FAUST_1[2014-06]	37	2	17	2	1	2	1	3	2	1	838	1	1	1	911	4	1310	BIRNE	gold	messing	bronze	wodka	eisen	wodka	24	1	1	1	1	LEHRAMMTTGESCHICHTEDEUTSCH
FAUST_1[2014-06]	37	3	3	2	3	1	1	1	1	1	2023	2	1	0	2123	4	3006	router_7.bmp	pasta_15.bmp	router_7.bmp	pasta_11.bmp	pasta_9.bmp	pasta_13.bmp	pasta_9.bmp	24	1	1	1	1	LEHRAMMTTGESCHICHTEDEUTSCH
FAUST_1[2014-06]	37	3	29	2	3	2	1	1	1	1	2691	1	2	0	1778	2	1688	camera_4.bmp	rusdoll_5.bmp	rusdoll_3.bmp	camera_4.bmp	rusdoll_8.bmp	camera_4.bmp	rusdoll_6.bmp	24	1	1	1	1	LEHRAMMTTGESCHICHTEDEUTSCH
FAUST_1[2014-06]	37	3	15	2	3	1	2	1	1	1	2675	2	2	1	1078	3	1697	rollerskates_17.bmp	bowlingpin_13.bmp	rollerskates_2.bmp	rollerskates_5.bmp	rollerskates_17.bmp	rollerskates_8.bmp	bowlingpin_13.bmp	24	1	1	1	1	LEHRAMMTTGESCHICHTEDEUTSCH
FAUST_1[2014-06]	37	3	30	2	3	2	2	1	1	1	1386	2	2	1	1250	4	1776	cat_4.bmp	scooter_10.bmp	cat_9.bmp	cat_10.bmp	cat_4.bmp	cat_1.bmp	cat_4.bmp	24	1	1	1	1	LEHRAMMTTGESCHICHTEDEUTSCH
FAUST_1[2014-06]	37	3	13	2	3	1	1	1	1	1	3582	1	1	1	820	1	2267	hammer_15.bmp	hammer_15.bmp	skateboard_15.bmp	skateboard_16.bmp	skateboard_14.bmp	skateboard_3.bmp	skateboard_15.bmp	24	1	1	1	1	LEHRAMMTTGESCHICHTEDEUTSCH
FAUST_1[2014-06]	37	3	27	2	3	2	1	1	1	1	1413	2	2	1	1817	4	1538	laptop_10.bmp	laptop_10.bmp	windchime_10.bmp	windchime_16.bmp	windchime_3.bmp	windchime_6.bmp	laptop_10.bmp	24	1	1	1	1	LEHRAMMTTGESCHICHTEDEUTSCH
FAUST_1[2014-06]	37	3	8	2	3	1	2	1	1	1	1806	1	1	1	1038	4	3110	videogamecontroller_2.bmp	videogamecontroller_5.bmp	wig_9.bmp	videogamecontroller_13.bmp	videogamecontroller_11.bmp	videogamecontroller_2.bmp	wig_9.bmp	24	1	1	1	1	LEHRAMMTTGESCHICHTEDEUTSCH
FAUST_1[2014-06]	37	3	21	2	3	2	2	1	1	1	1419	1	1	1	1134	4	1263	parfait_11.bmp	parfait_11.bmp	parfait_13.bmp	horseshoe_5.bmp	parfait_15.bmp	parfait_11.bmp	parfait_4.bmp	24	1	1	1	1	LEHRAMMTTGESCHICHTEDEUTSCH
FAUST_1[2014-06]	37	3	14	2	3	1	1	1	1	1	1229	2	2	1	1922	4	1450	backpack_12.bmp	carabiner_9.bmp	carabiner_5.bmp	carabiner_6.bmp	carabiner_9.bmp	carabiner_2.bmp	backpack_12.bmp	24	1	1	1	1	LEHRAMMTTGESCHICHTEDEUTSCH
FAUST_1[2014-06]	37	3	2	2	3	2	1	1	1	1	1053	2	2	1	1341	4	1946	babycrib_5.bmp	babycrib_5.bmp	saltpeppershake_12.bmp	saltpeppershake_9.bmp	saltpeppershake_8.bmp	saltpeppershake_2.bmp	babycrib_5.bmp	24	1	1	1	1	LEHRAMMTTGESCHICHTEDEUTSCH
FAUST_1[2014-06]	37	3	9	2	3	1	2	1	1	1	1475	1	2	0	1432	4	1331	shoe_17.bmp	shoe_7.bmp	shoe_15.bmp	leatherman_10.bmp	shoe_17.bmp	leatherman_10.bmp	shoe_13.bmp	24	1	1	1	1	LEHRAMMTTGESCHICHTEDEUTSCH
FAUST_1[2014-06]	37	3	18	2	3	2	2	1	1	1	3998	1	2	0	1257	2	1989	hairdryer_12.bmp	hairdryer_12.bmp	hairdryer_2.bmp	socks_13.bmp	hairdryer_12.bmp	hairdryer_14.bmp	hairdryer_7.bmp	24	1	1	1	1	LEHRAMMTTGESCHICHTEDEUTSCH
FAUST_1[2014-06]	37	3	26	2	3	1	1	2	2	1	1953	2	2	1	1930	3	1986	shredder_7.bmp	flashlight_13.bmp	flashlight_17.bmp	flashlight_2.bmp	flashlight_12.bmp	flashlight_13.bmp	shredder_15.bmp	24	1	1	1	1	LEHRAMMTTGESCHICHTEDEUTSCH
FAUST_1[2014-06]	37	3	31	2	3	2	1	2	2	1	2411	2	2	1	1668	1	1703	remote_13.bmp	powerstrip_8.bmp	remote_11.bmp	powerstrip_14.bmp	remote_11.bmp	powerstrip_10.bmp	powerstrip_7.bmp	24	1	1	1	1	LEHRAMMTTGESCHICHTEDEUTSCH
FAUST_1[2014-06]	37	3	20	2	3	1	2	2	2	1	1137	2	2	1	2145	4	1304	chair_3.bmp	chair_11.bmp	printer_14.bmp	chair_5.bmp	chair_2.bmp	chair_16.bmp	printer_14.bmp	24	1	1	1	1	LEHRAMMTTGESCHICHTEDEUTSCH
FAUST_1[2014-06]	37	3	12	2	3	2	2	2	1	0	3173	1	1	1	1285	1	1548	glove_15.bmp	glove_8.bmp	ring_8.bmp	glove_8.bmp	glove_12.bmp	glove_10.bmp	glove_5.bmp	24	1	1	1	1	LEHRAMMTTGESCHICHTEDEUTSCH
FAUST_1[2014-06]	37	3	17	2	3	1	1	2	2	1	1181	2	2	1	1021	4	2505	jacket_7.bmp	glasses_9.bmp	glasses_6.bmp	glasses_8.bmp	jacket_13.bmp	glasses_6.bmp	glasses_13.bmp	24	1	1	1	1	LEHRAMMTTGESCHICHTEDEUTSCH
FAUST_1[2014-06]	37	3	32	2	3	2	1	2	2	1	1290	2	2	1	1021	4	1383	plant_8.bmp	trumpet_3.bmp	plant_14.bmp	trumpet_6.bmp	plant_14.bmp	trumpet_1.bmp	trumpet_5.bmp	24	1	1	1	1	LEHRAMMTTGESCHICHTEDEUTSCH
FAUST_1[2014-06]	37	3	4	2	3	1	2	2	1	0	3145	2	2	1	1778	3	1766	doorknocker_14.bmp	doorknocker_2.bmp	doorknocker_11.bmp	sofa_12.bmp	doorknocker_4.bmp	doorknocker_5.bmp	sofa_12.bmp	24	1	1	1	1	LEHRAMMTTGESCHICHTEDEUTSCH
FAUST_1[2014-06]	37	3	19	2	3	2	2	2	2	1	3429	1	2	0	986	1	1231	mic_2.bmp	mic_5.bmp	mic_12.bmp	mic_10.bmp	mic_3.bmp	mic_5.bmp	highchair_10.bmp	24	1	1	1	1	LEHRAMMTTGESCHICHTEDEUTSCH
FAUST_1[2014-06]	37	3	28	2	3	1	1	2	2	1	2806	2	2	1	913	3	2159	cellphone_4.bmp	speaker_10.bmp	speaker_15.bmp	speaker_17.bmp	speaker_6.bmp	speaker_15.bmp	cellphone_8.bmp	24	1	1	1	1	LEHRAMMTTGESCHICHTEDEUTSCH
FAUST_1[2014-06]	37	3	22	2	3	2	1	2	2	1	3985	2	2	1	2123	1	1839	guitar_7.bmp	guitar_10.bmp	watergun_9.bmp	guitar_10.bmp	watergun_3.bmp	watergun_15.bmp	watergun_8.bmp	24	1	1	1	1	LEHRAMMTTGESCHICHTEDEUTSCH
FAUST_1[2014-06]	37	3	25	2	3	1	2	2	1	0	2138	2	2	1	1308	3	2288	saddle_3.bmp	saddle_4.bmp	saddle_8.bmp	saddle_5.bmp	coffee_1.bmp	saddle_15.bmp	coffee_1.bmp	24	1	1	1	1	LEHRAMMTTGESCHICHTEDEUTSCH
FAUST_1[2014-06]	37	3	23	2	3	2	2	2	2	1	1178	1	1	1	1061	3	3682	cake_5.bmp	fan_11.bmp	cake_4.bmp	cake_3.bmp	cake_14.bmp	cake_1.bmp	cake_3.bmp	24	1	1	1	1	LEHRAMMTTGESCHICHTEDEUTSCH
FAUST_1[2014-06]	37	3	1	2	3	1	1	3	2	1	1685	2	2	1	1783	4	2795	vase_15.bmp	circuitboard_13.bmp	circuitboard_2.bmp	goggle_9.bmp	circuitboard_8.bmp	circuitboard_13.bmp	circuitboard_4.bmp	24	1	1	1	1	LEHRAMMTTGESCHICHTEDEUTSCH
FAUST_1[2014-06]	37	3	10	2	3	2	1	3	2	1	990	1	1	1	796	4	1360	tv_4.bmp	carriage_14.bmp	tricycle_15.bmp	carriage_14.bmp	tricycle_10.bmp	tricycle_5.bmp	tricycle_8.bmp	24	1	1	1	1	LEHRAMMTTGESCHICHTEDEUTSCH
FAUST_1[2014-06]	37	3	24	2	3	1	1	3	2	1	848	2	2	1	2673	4	1787	turtle_7.bmp	cheesegrater_11.bmp	cheesegrater_8.bmp	easteregg_9.bmp	cheesegrater_5.bmp	cheesegrater_14.bmp	cheesegrater_8.bmp	24	1	1	1	1	LEHRAMMTTGESCHICHTEDEUTSCH
FAUST_1[2014-06]	37	3	7	2	3	2	1	3	2	1	3236	2	1	0	2230	3	3906	abacus_15.bmp	birdhouse_14.bmp	birdhouse_7.bmp	birdhouse_11.bmp	trunk_3.bmp	birdhouse_6.bmp	trunk_3.bmp	24	1	1	1	1	LEHRAMMTTGESCHICHTEDEUTSCH
FAUST_1[2014-06]	37	3	11	2	3	1	1	3	2	1	1118	2	2	1	2617	4	1818	doorknob_2.bmp	bagel_4.bmp	hairbrush_17.bmp	bagel_10.bmp	bagel_16.bmp	bagel_14.bmp	bagel_16.bmp	24	1	1	1	1	LEHRAMMTTGESCHICHTEDEUTSCH
FAUST_1[2014-06]	37	3	5	2	3	2	1	3	2	1	1090	2	2	1	850	4	1168	orifan_1.bmp	sink_6.bmp	sink_1.bmp	cherubstatue_6.bmp	sink_11.bmp	cherubstatue_6.bmp	sink_15.bmp	24	1	1	1	1	LEHRAMMTTGESCHICHTEDEUTSCH
FAUST_1[2014-06]	37	3	6	2	3	1	1	3	2	1	1144	1	1	1	701	4	1022	watch_14.bmp	trophy_15.bmp	trophy_4.bmp	trophy_6.bmp	iceskates_7.bmp	trophy_14.bmp	trophy_6.bmp	24	1	1	1	1	LEHRAMMTTGESCHICHTEDEUTSCH
FAUST_1[2014-06]	37	3	16	2	3	2	1	3	2	1	856	2	2	1	905	4	2233	lawnmower_13.bmp	beanbagchair_12.bmp	beanbagchair_17.bmp	garbagecan_8.bmp	beanbagchair_3.bmp	garbagecan_8.bmp	beanbagchair_14.bmp	24	1	1	1	1	LEHRAMMTTGESCHICHTEDEUTSCH
FAUST_1[2014-06]	37	4	18	2	2	1	1	1	1	1	1393	2	2	1	915	4	1825	Stapler6.bmp	Pear4.bmp	Pear15.bmp	Pear18.bmp	Pear16.bmp	Pear18.bmp	Stapler6.bmp	24	1	1	1	1	LEHRAMMTTGESCHICHTEDEUTSCH
FAUST_1[2014-06]	37	4	15	2	2	2	1	1	1	1	1403	1	1	1	2148	4	3067	Keys7.bmp	Brocolli9.bmp	Keys7.bmp	Brocolli19.bmp	Keys7.bmp	Brocolli4.bmp	Brocolli10.bmp	24	1	1	1	1	LEHRAMMTTGESCHICHTEDEUTSCH
FAUST_1[2014-06]	37	4	9	2	2	1	2	1	1	1	1669	2	1	0	2187	4	1120	Cake24.bmp	Tomato12.bmp	Cake7.bmp	Tomato12.bmp	Cake24.bmp	Cake18.bmp	Cake16.bmp	24	1	1	1	1	LEHRAMMTTGESCHICHTEDEUTSCH
FAUST_1[2014-06]	37	4	10	2	2	2	2	1	1	1	3994	1	1	1	2650	1	1731	Mushroom18.bmp	Mushroom14.bmp	Mushroom25.bmp	Mushroom18.bmp	Mushroom6.bmp	Screw9.bmp	Mushroom18.bmp	24	1	1	1	1	LEHRAMMTTGESCHICHTEDEUTSCH
FAUST_1[2014-06]	37	4	3	2	2	1	1	1	1	1	1043	2	2	1	1811	4	1049	Onion19.bmp	Shell1.bmp	Shell18.bmp	Onion19.bmp	Shell17.bmp	Shell9.bmp	Shell17.bmp	24	1	1	1	1	LEHRAMMTTGESCHICHTEDEUTSCH
FAUST_1[2014-06]	37	4	2	2	2	2	1	1	1	1	1553	1	2	0	2092	4	1415	Pen10.bmp	Glass4.bmp	Glass3.bmp	Pen10.bmp	Glass12.bmp	Pen10.bmp	Glass16.bmp	24	1	1	1	1	LEHRAMMTTGESCHICHTEDEUTSCH
FAUST_1[2014-06]	37	4	21	2	2	1	2	1	2	0	1912	1	1	1	804	3	1348	Sweet25.bmp	Coins10.bmp	Sweet10.bmp	Sweet1.bmp	Coins10.bmp	Sweet25.bmp	Sweet22.bmp	24	1	1	1	1	LEHRAMMTTGESCHICHTEDEUTSCH
FAUST_1[2014-06]	37	4	8	2	2	2	2	1	1	1	1164	2	2	1	863	4	1198	Ginger17.bmp	Ginger17.bmp	Bag25.bmp	Ginger10.bmp	Ginger15.bmp	Ginger3.bmp	Ginger17.bmp	24	1	1	1	1	LEHRAMMTTGESCHICHTEDEUTSCH
FAUST_1[2014-06]	37	4	12	2	2	1	1	2	2	1	1694	2	2	1	2216	3	2697	Key20.bmp	Chilli12.bmp	Chilli11.bmp	Chilli22.bmp	Key11.bmp	Chilli19.bmp	Chilli11.bmp	24	1	1	1	1	LEHRAMMTTGESCHICHTEDEUTSCH
FAUST_1[2014-06]	37	4	22	2	2	2	1	2	1	0	1246	1	1	1	863	4	1528	Present14.bmp	Present17.bmp	Umbrella19.bmp	Umbrella6.bmp	Umbrella7.bmp	Present17.bmp	Umbrella21.bmp	24	1	1	1	1	LEHRAMMTTGESCHICHTEDEUTSCH
FAUST_1[2014-06]	37	4	13	2	2	1	2	2	2	1	1464	2	2	1	2687	4	2417	Holly11.bmp	Holly17.bmp	Bracelet8.bmp	Holly14.bmp	Holly20.bmp	Bracelet8.bmp	Holly3.bmp	24	1	1	1	1	LEHRAMMTTGESCHICHTEDEUTSCH
FAUST_1[2014-06]	37	4	7	2	2	2	2	2	1	0	1227	2	2	1	1434	4	1200	Button18.bmp	Button10.bmp	Button14.bmp	Varnish5.bmp	Button3.bmp	Button20.bmp	Button10.bmp	24	1	1	1	1	LEHRAMMTTGESCHICHTEDEUTSCH
FAUST_1[2014-06]	37	4	5	2	2	1	1	2	1	0	3300	1	1	1	1928	3	3453	Biscuit25.bmp	Strawberry4.bmp	Strawberry3.bmp	Strawberry21.bmp	Strawberry18.bmp	Biscuit4.bmp	Strawberry21.bmp	24	1	1	1	1	LEHRAMMTTGESCHICHTEDEUTSCH
FAUST_1[2014-06]	37	4	17	2	2	2	1	2	2	1	2008	1	1	1	1249	3	2045	Man10.bmp	Man15.bmp	Bun19.bmp	Bun12.bmp	Man15.bmp	Bun5.bmp	Bun22.bmp	24	1	1	1	1	LEHRAMMTTGESCHICHTEDEUTSCH
FAUST_1[2014-06]	37	4	4	2	2	1	2	2	1	0	1331	1	1	1	1644	4	1283	Candle17.bmp	Candle10.bmp	Candle13.bmp	Candle20.bmp	Apple18.bmp	Candle1.bmp	Apple18.bmp	24	1	1	1	1	LEHRAMMTTGESCHICHTEDEUTSCH
FAUST_1[2014-06]	37	4	6	2	2	2	2	2	1	0	2559	1	1	1	2636	4	1356	Paperclip4.bmp	Paperclip9.bmp	Daff21.bmp	Paperclip6.bmp	Paperclip14.bmp	Paperclip9.bmp	Paperclip13.bmp	24	1	1	1	1	LEHRAMMTTGESCHICHTEDEUTSCH
FAUST_1[2014-06]	37	4	20	2	2	1	1	3	2	1	860	2	2	1	1053	4	1596	Lipstick9.bmp	Chocolate5.bmp	Chocolate24.bmp	Chocolate6.bmp	Chocolate5.bmp	Chocolate17.bmp	Toothbrush6.bmp	24	1	1	1	1	LEHRAMMTTGESCHICHTEDEUTSCH
FAUST_1[2014-06]	37	4	14	2	2	2	1	3	2	1	758	1	1	1	2201	4	1668	Jigsaw11.bmp	Flower18.bmp	String8.bmp	String2.bmp	String9.bmp	Flower18.bmp	String12.bmp	24	1	1	1	1	LEHRAMMTTGESCHICHTEDEUTSCH
FAUST_1[2014-06]	37	4	1	2	2	1	1	3	2	1	796	1	1	1	2330	4	1728	Feather11.bmp	Nut18.bmp	Nut19.bmp	Nut2.bmp	Nut11.bmp	Fudge17.bmp	Nut19.bmp	24	1	1	1	1	LEHRAMMTTGESCHICHTEDEUTSCH
FAUST_1[2014-06]	37	4	16	2	2	2	1	3	2	1	1007	2	2	1	1769	4	1934	Star2.bmp	Hand1.bmp	Plug8.bmp	Hand10.bmp	Hand17.bmp	Plug8.bmp	Hand8.bmp	24	1	1	1	1	LEHRAMMTTGESCHICHTEDEUTSCH
FAUST_1[2014-06]	37	4	19	2	2	1	1	3	2	1	880	2	2	1	1485	4	1832	Fork17.bmp	Swirl1.bmp	Swirl13.bmp	Swirl5.bmp	Leaf22.bmp	Swirl13.bmp	Swirl10.bmp	24	1	1	1	1	LEHRAMMTTGESCHICHTEDEUTSCH
FAUST_1[2014-06]	37	4	11	2	2	2	1	3	2	1	759	2	2	1	1933	4	1641	Hanger2.bmp	Car13.bmp	Car7.bmp	Car14.bmp	Scissors23.bmp	Car12.bmp	Scissors23.bmp	24	1	1	1	1	LEHRAMMTTGESCHICHTEDEUTSCH
