experiment	subject	block	trial	order	material	repeated	related	probetype	response	correct	rt	math_response	math_correctresponse	math_correct	math_rt	confidence	confidence_rt	probe	item1	item2	item3	item4	item5	item6	age	sex	handedness	color_vision	mother_tongue	occupation
FAUST_1[2014-06]	39	1	20	5	3	1	1	1	1	1	1601	2	2	1	1576	4	2920	camera_6.bmp	plant_8.bmp	camera_6.bmp	plant_5.bmp	plant_14.bmp	plant_2.bmp	plant_5.bmp	29	2	1	1	1	ECONOMICS
FAUST_1[2014-06]	39	1	21	5	3	2	1	1	1	1	800	2	2	1	997	4	1253	jacket_11.bmp	turtle_7.bmp	turtle_6.bmp	jacket_11.bmp	turtle_2.bmp	turtle_11.bmp	jacket_11.bmp	29	2	1	1	1	ECONOMICS
FAUST_1[2014-06]	39	1	18	5	3	1	2	1	1	1	1637	2	2	1	2038	4	2173	vase_13.bmp	vase_6.bmp	shoe_13.bmp	vase_1.bmp	shoe_13.bmp	vase_13.bmp	vase_5.bmp	29	2	1	1	1	ECONOMICS
FAUST_1[2014-06]	39	1	31	5	3	2	2	1	1	1	1271	1	2	0	2210	4	1373	shredder_6.bmp	shredder_1.bmp	shredder_6.bmp	abacus_6.bmp	shredder_5.bmp	shredder_15.bmp	shredder_6.bmp	29	2	1	1	1	ECONOMICS
FAUST_1[2014-06]	39	1	25	5	3	1	1	1	1	1	1060	2	2	1	1463	4	1661	leatherman_10.bmp	leatherman_10.bmp	ring_8.bmp	ring_15.bmp	ring_12.bmp	ring_8.bmp	ring_7.bmp	29	2	1	1	1	ECONOMICS
FAUST_1[2014-06]	39	1	19	5	3	2	1	1	1	1	1143	1	1	1	1357	4	2255	watergun_8.bmp	watergun_8.bmp	rollerskates_8.bmp	watergun_8.bmp	rollerskates_17.bmp	rollerskates_2.bmp	rollerskates_5.bmp	29	2	1	1	1	ECONOMICS
FAUST_1[2014-06]	39	1	28	5	3	1	2	1	1	1	1634	2	2	1	1601	4	1973	guitar_8.bmp	guitar_10.bmp	guitar_7.bmp	watch_3.bmp	guitar_8.bmp	watch_3.bmp	guitar_14.bmp	29	2	1	1	1	ECONOMICS
FAUST_1[2014-06]	39	1	6	5	3	2	2	1	1	1	1410	2	2	1	1764	4	1207	saddle_4.bmp	laptop_15.bmp	saddle_15.bmp	saddle_3.bmp	saddle_4.bmp	saddle_8.bmp	saddle_4.bmp	29	2	1	1	1	ECONOMICS
FAUST_1[2014-06]	39	1	29	5	3	1	1	1	1	1	862	1	1	1	1425	4	1193	easteregg_16.bmp	cheesegrater_15.bmp	cheesegrater_11.bmp	cheesegrater_15.bmp	cheesegrater_5.bmp	easteregg_16.bmp	cheesegrater_8.bmp	29	2	1	1	1	ECONOMICS
FAUST_1[2014-06]	39	1	2	5	3	2	1	1	1	1	3920	1	1	1	2151	4	8004	backpack_12.bmp	parfait_11.bmp	parfait_1.bmp	backpack_12.bmp	parfait_15.bmp	backpack_12.bmp	parfait_4.bmp	29	2	1	1	1	ECONOMICS
FAUST_1[2014-06]	39	1	8	5	3	1	2	1	1	1	1735	1	1	1	1440	4	1336	lawnmower_8.bmp	coffee_14.bmp	lawnmower_13.bmp	coffee_14.bmp	lawnmower_3.bmp	lawnmower_17.bmp	lawnmower_8.bmp	29	2	1	1	1	ECONOMICS
FAUST_1[2014-06]	39	1	11	5	3	2	2	1	1	1	2618	2	2	1	2996	4	1207	speaker_4.bmp	scooter_5.bmp	speaker_4.bmp	speaker_6.bmp	speaker_4.bmp	speaker_17.bmp	speaker_10.bmp	29	2	1	1	1	ECONOMICS
FAUST_1[2014-06]	39	1	3	5	3	1	1	2	1	0	2310	2	1	0	2387	4	2134	remote_13.bmp	sofa_6.bmp	sofa_12.bmp	sofa_9.bmp	sofa_13.bmp	sofa_9.bmp	remote_3.bmp	29	2	1	1	1	ECONOMICS
FAUST_1[2014-06]	39	1	12	5	3	2	1	2	2	1	2002	2	2	1	1488	4	2197	tricycle_2.bmp	cherubstatue_11.bmp	cherubstatue_6.bmp	tricycle_15.bmp	cherubstatue_5.bmp	tricycle_15.bmp	cherubstatue_10.bmp	29	2	1	1	1	ECONOMICS
FAUST_1[2014-06]	39	1	15	5	3	1	2	2	1	0	1039	2	2	1	1909	4	1139	skateboard_16.bmp	skateboard_15.bmp	trunk_2.bmp	skateboard_3.bmp	trunk_2.bmp	skateboard_14.bmp	skateboard_11.bmp	29	2	1	1	1	ECONOMICS
FAUST_1[2014-06]	39	1	9	5	3	2	2	2	1	0	1056	2	2	1	1845	4	1633	bagel_14.bmp	bagel_4.bmp	bagel_10.bmp	bagel_12.bmp	bagel_4.bmp	beanbagchair_14.bmp	bagel_16.bmp	29	2	1	1	1	ECONOMICS
FAUST_1[2014-06]	39	1	16	5	3	1	1	2	2	1	951	2	2	1	1330	4	1056	garbagecan_17.bmp	garbagecan_10.bmp	doorknocker_4.bmp	doorknocker_5.bmp	doorknocker_11.bmp	doorknocker_2.bmp	doorknocker_4.bmp	29	2	1	1	1	ECONOMICS
FAUST_1[2014-06]	39	1	13	5	3	2	1	2	2	1	1369	2	2	1	2315	4	1716	powerstrip_10.bmp	powerstrip_14.bmp	doorknob_14.bmp	doorknob_17.bmp	powerstrip_14.bmp	doorknob_10.bmp	doorknob_2.bmp	29	2	1	1	1	ECONOMICS
FAUST_1[2014-06]	39	1	7	5	3	1	2	2	1	0	2223	2	2	1	1429	3	1644	bowlingpin_4.bmp	tv_16.bmp	bowlingpin_1.bmp	bowlingpin_13.bmp	bowlingpin_11.bmp	bowlingpin_3.bmp	tv_16.bmp	29	2	1	1	1	ECONOMICS
FAUST_1[2014-06]	39	1	10	5	3	2	2	2	1	0	1648	2	2	1	1461	4	1036	hammer_8.bmp	hammer_15.bmp	hammer_17.bmp	hammer_11.bmp	hammer_6.bmp	birdhouse_9.bmp	hammer_6.bmp	29	2	1	1	1	ECONOMICS
FAUST_1[2014-06]	39	1	14	5	3	1	1	2	1	0	1675	1	1	1	1526	3	2429	saltpeppershake_17.bmp	carabiner_7.bmp	carabiner_5.bmp	saltpeppershake_12.bmp	carabiner_6.bmp	carabiner_9.bmp	carabiner_6.bmp	29	2	1	1	1	ECONOMICS
FAUST_1[2014-06]	39	1	24	5	3	2	1	2	2	1	1232	1	1	1	1319	4	1621	pasta_15.bmp	mic_2.bmp	mic_10.bmp	pasta_9.bmp	mic_3.bmp	mic_5.bmp	pasta_9.bmp	29	2	1	1	1	ECONOMICS
FAUST_1[2014-06]	39	1	22	5	3	1	2	2	1	0	1430	2	2	1	1318	3	3318	circuitboard_16.bmp	circuitboard_13.bmp	router_12.bmp	circuitboard_4.bmp	circuitboard_2.bmp	router_12.bmp	circuitboard_8.bmp	29	2	1	1	1	ECONOMICS
FAUST_1[2014-06]	39	1	23	5	3	2	2	2	1	0	1570	2	2	1	891	4	1107	babycrib_6.bmp	babycrib_7.bmp	babycrib_2.bmp	babycrib_7.bmp	babycrib_9.bmp	babycrib_5.bmp	highchair_6.bmp	29	2	1	1	1	ECONOMICS
FAUST_1[2014-06]	39	1	17	5	3	1	1	3	2	1	1148	1	1	1	1916	4	726	cellphone_3.bmp	videogamecontroller_13.bmp	trophy_16.bmp	trophy_4.bmp	trophy_6.bmp	trophy_14.bmp	trophy_6.bmp	29	2	1	1	1	ECONOMICS
FAUST_1[2014-06]	39	1	5	5	3	2	1	3	2	1	6702	2	2	1	1993	4	4996	flashlight_13.bmp	carriage_14.bmp	trumpet_1.bmp	carriage_14.bmp	trumpet_17.bmp	trumpet_5.bmp	trumpet_6.bmp	29	2	1	1	1	ECONOMICS
FAUST_1[2014-06]	39	1	1	5	3	1	1	3	2	1	1701	2	2	1	1005	4	5597	iceskates_16.bmp	glasses_15.bmp	glasses_9.bmp	fan_15.bmp	glasses_9.bmp	glasses_8.bmp	glasses_6.bmp	29	2	1	1	1	ECONOMICS
FAUST_1[2014-06]	39	1	27	5	3	2	1	3	2	1	1049	1	1	1	1781	4	977	hairbrush_15.bmp	windchime_16.bmp	glove_10.bmp	windchime_6.bmp	windchime_3.bmp	glove_10.bmp	windchime_15.bmp	29	2	1	1	1	ECONOMICS
FAUST_1[2014-06]	39	1	30	5	3	1	1	3	2	1	1029	1	1	1	879	4	1305	cake_14.bmp	socks_4.bmp	horseshoe_6.bmp	horseshoe_12.bmp	horseshoe_3.bmp	horseshoe_4.bmp	horseshoe_12.bmp	29	2	1	1	1	ECONOMICS
FAUST_1[2014-06]	39	1	4	5	3	2	1	3	2	1	1367	2	2	1	2373	4	1239	wig_12.bmp	cat_5.bmp	cat_10.bmp	cat_1.bmp	rusdoll_8.bmp	cat_9.bmp	rusdoll_8.bmp	29	2	1	1	1	ECONOMICS
FAUST_1[2014-06]	39	1	26	5	3	1	1	3	2	1	1360	2	2	1	1155	4	1370	chair_11.bmp	printer_1.bmp	sink_15.bmp	sink_10.bmp	sink_6.bmp	sink_11.bmp	sink_15.bmp	29	2	1	1	1	ECONOMICS
FAUST_1[2014-06]	39	1	32	5	3	2	1	3	2	1	1020	1	1	1	2408	4	911	hairdryer_13.bmp	goggle_1.bmp	orifan_1.bmp	orifan_14.bmp	orifan_6.bmp	orifan_7.bmp	goggle_1.bmp	29	2	1	1	1	ECONOMICS
FAUST_1[2014-06]	39	2	5	5	2	1	1	1	1	1	1186	2	2	1	2697	4	1031	Bag4.bmp	Man10.bmp	Man2.bmp	Bag4.bmp	Man15.bmp	Man24.bmp	Man2.bmp	29	2	1	1	1	ECONOMICS
FAUST_1[2014-06]	39	2	19	5	2	2	1	1	1	1	998	2	2	1	1450	4	830	Leaf22.bmp	Pear4.bmp	Leaf22.bmp	Pear18.bmp	Pear7.bmp	Pear15.bmp	Leaf22.bmp	29	2	1	1	1	ECONOMICS
FAUST_1[2014-06]	39	2	12	5	2	1	2	1	1	1	1021	2	2	1	1401	4	846	Brocolli10.bmp	Paperclip4.bmp	Brocolli14.bmp	Brocolli10.bmp	Paperclip4.bmp	Brocolli9.bmp	Brocolli4.bmp	29	2	1	1	1	ECONOMICS
FAUST_1[2014-06]	39	2	6	5	2	2	2	1	1	1	1341	1	1	1	1657	4	1037	Daff9.bmp	Car14.bmp	Daff1.bmp	Daff9.bmp	Daff21.bmp	Daff22.bmp	Daff9.bmp	29	2	1	1	1	ECONOMICS
FAUST_1[2014-06]	39	2	10	5	2	1	1	1	1	1	1013	2	2	1	1595	4	1167	Tomato18.bmp	Button10.bmp	Button18.bmp	Button3.bmp	Button14.bmp	Tomato18.bmp	Button10.bmp	29	2	1	1	1	ECONOMICS
FAUST_1[2014-06]	39	2	7	5	2	2	1	1	1	1	941	1	1	1	1122	4	911	Coins10.bmp	String8.bmp	String2.bmp	Coins10.bmp	String12.bmp	String6.bmp	Coins10.bmp	29	2	1	1	1	ECONOMICS
FAUST_1[2014-06]	39	2	14	5	2	1	2	1	1	1	1010	1	1	1	1141	4	993	Present9.bmp	Present14.bmp	Present17.bmp	Present9.bmp	Candle17.bmp	Present3.bmp	Candle17.bmp	29	2	1	1	1	ECONOMICS
FAUST_1[2014-06]	39	2	13	5	2	2	2	1	1	1	1587	1	2	0	1454	4	1025	Star1.bmp	Star19.bmp	Star7.bmp	Star1.bmp	Star2.bmp	Chocolate6.bmp	Star1.bmp	29	2	1	1	1	ECONOMICS
FAUST_1[2014-06]	39	2	21	5	2	1	1	2	1	0	1826	1	1	1	1952	1	1903	Lipstick9.bmp	Scissors1.bmp	Lipstick2.bmp	Scissors11.bmp	Scissors1.bmp	Scissors14.bmp	Scissors3.bmp	29	2	1	1	1	ECONOMICS
FAUST_1[2014-06]	39	2	11	5	2	2	1	2	1	0	1224	1	1	1	1462	4	814	Pen17.bmp	Pen1.bmp	Mushroom18.bmp	Pen1.bmp	Mushroom14.bmp	Mushroom25.bmp	Mushroom7.bmp	29	2	1	1	1	ECONOMICS
FAUST_1[2014-06]	39	2	4	5	2	1	2	2	2	1	1401	2	2	1	2410	1	2411	Feather11.bmp	Bracelet18.bmp	Feather14.bmp	Feather18.bmp	Feather12.bmp	Bracelet18.bmp	Feather2.bmp	29	2	1	1	1	ECONOMICS
FAUST_1[2014-06]	39	2	20	5	2	2	2	2	1	0	1163	1	1	1	2248	4	1060	Shell5.bmp	Shell18.bmp	Toothbrush12.bmp	Shell17.bmp	Shell1.bmp	Shell9.bmp	Shell17.bmp	29	2	1	1	1	ECONOMICS
FAUST_1[2014-06]	39	2	18	5	2	1	1	2	2	1	1097	1	1	1	1444	4	1414	Stapler7.bmp	Plug18.bmp	Plug4.bmp	Plug6.bmp	Plug4.bmp	Stapler8.bmp	Plug9.bmp	29	2	1	1	1	ECONOMICS
FAUST_1[2014-06]	39	2	8	5	2	2	1	2	2	1	2196	1	1	1	1669	3	1723	Apple24.bmp	Apple21.bmp	Fudge15.bmp	Fudge20.bmp	Apple21.bmp	Fudge8.bmp	Fudge17.bmp	29	2	1	1	1	ECONOMICS
FAUST_1[2014-06]	39	2	17	5	2	1	2	2	1	0	1508	1	2	0	2144	4	1072	Umbrella6.bmp	Umbrella17.bmp	Umbrella19.bmp	Umbrella21.bmp	Nut11.bmp	Umbrella7.bmp	Nut11.bmp	29	2	1	1	1	ECONOMICS
FAUST_1[2014-06]	39	2	15	5	2	2	2	2	1	0	1200	1	1	1	3165	3	977	Sweet22.bmp	Sweet25.bmp	Sweet10.bmp	Sweet1.bmp	Key5.bmp	Sweet18.bmp	Sweet25.bmp	29	2	1	1	1	ECONOMICS
FAUST_1[2014-06]	39	2	1	5	2	1	1	3	2	1	857	2	2	1	1387	4	1429	Swirl13.bmp	Ginger5.bmp	Ginger10.bmp	Ginger17.bmp	Hanger2.bmp	Ginger5.bmp	Ginger15.bmp	29	2	1	1	1	ECONOMICS
FAUST_1[2014-06]	39	2	22	5	2	2	1	3	2	1	2188	2	2	1	2284	3	1375	Holly14.bmp	Onion14.bmp	Glass19.bmp	Glass4.bmp	Glass12.bmp	Onion14.bmp	Glass3.bmp	29	2	1	1	1	ECONOMICS
FAUST_1[2014-06]	39	2	16	5	2	1	1	3	2	1	1355	2	2	1	2043	4	1978	Hand8.bmp	Jigsaw11.bmp	Jigsaw10.bmp	Chilli12.bmp	Jigsaw17.bmp	Jigsaw14.bmp	Jigsaw17.bmp	29	2	1	1	1	ECONOMICS
FAUST_1[2014-06]	39	2	2	5	2	2	1	3	2	1	920	2	2	1	874	4	1161	Cake18.bmp	Bun5.bmp	Bun12.bmp	Flower17.bmp	Bun17.bmp	Flower17.bmp	Bun22.bmp	29	2	1	1	1	ECONOMICS
FAUST_1[2014-06]	39	2	3	5	2	1	1	3	2	1	1259	2	2	1	2795	4	1206	Screw16.bmp	Fork7.bmp	Fork14.bmp	Fork17.bmp	Fork14.bmp	Fork8.bmp	Strawberry14.bmp	29	2	1	1	1	ECONOMICS
FAUST_1[2014-06]	39	2	9	5	2	2	1	3	2	1	1184	1	1	1	2114	4	938	Keys5.bmp	Biscuit25.bmp	Varnish3.bmp	Varnish11.bmp	Biscuit25.bmp	Varnish5.bmp	Varnish14.bmp	29	2	1	1	1	ECONOMICS
FAUST_1[2014-06]	39	3	7	5	1	1	1	1	1	1	990	1	1	1	2107	4	874	WHISKEY	pizza	pommes	whiskey	hamburger	döner	hamburger	29	2	1	1	1	ECONOMICS
FAUST_1[2014-06]	39	3	22	5	1	2	1	1	1	1	1078	1	1	1	2102	4	631	KONZERTSAAL	schäferhund	konzertsaal	terrier	dackel	konzertsaal	dogge	29	2	1	1	1	ECONOMICS
FAUST_1[2014-06]	39	3	15	5	1	1	2	1	1	1	1421	2	2	1	1791	4	1178	HAUPTSCHULE	gesamtschule	realschule	hauptschule	golf	gymnasium	golf	29	2	1	1	1	ECONOMICS
FAUST_1[2014-06]	39	3	5	5	1	2	2	1	1	1	973	1	1	1	1911	4	1084	MOSCHEE	tempel	synagoge	moschee	scheune	kapelle	moschee	29	2	1	1	1	ECONOMICS
FAUST_1[2014-06]	39	3	11	5	1	1	1	1	2	0	1991	2	2	1	1259	4	1001	JAHR	berlin	stuttgart	münchen	berlin	jahr	hannover	29	2	1	1	1	ECONOMICS
FAUST_1[2014-06]	39	3	18	5	1	2	1	1	1	1	1123	2	2	1	1951	4	913	ZENTIMETER	eiche	zentimeter	birke	zentimeter	buche	tanne	29	2	1	1	1	ECONOMICS
FAUST_1[2014-06]	39	3	6	5	1	1	2	1	2	0	2066	2	2	1	1441	3	933	DOLLAR	cent	forelle	mark	dollar	pfennig	forelle	29	2	1	1	1	ECONOMICS
FAUST_1[2014-06]	39	3	20	5	1	2	2	1	1	1	1051	1	1	1	1049	4	672	SPINAT	blumenkohl	bonbons	karotten	spinat	bohnen	spinat	29	2	1	1	1	ECONOMICS
FAUST_1[2014-06]	39	3	21	5	1	1	1	1	2	0	1580	1	1	1	1032	4	871	ELBE	gaspedal	handbremse	kupplung	rückspiegel	elbe	gaspedal	29	2	1	1	1	ECONOMICS
FAUST_1[2014-06]	39	3	23	5	1	2	1	1	1	1	967	1	1	1	1124	4	634	OZEAN	straßenbahn	zug	taxi	ozean	fahrrad	ozean	29	2	1	1	1	ECONOMICS
FAUST_1[2014-06]	39	3	3	5	1	1	2	1	2	0	1744	1	1	1	1605	3	1137	MERKUR	wasserstoff	saturn	pluto	wasserstoff	merkur	venus	29	2	1	1	1	ECONOMICS
FAUST_1[2014-06]	39	3	12	5	1	2	2	1	1	1	991	1	1	1	1028	4	1146	WERWOLF	werwolf	leber	vampir	zombie	werwolf	dämon	29	2	1	1	1	ECONOMICS
FAUST_1[2014-06]	39	3	29	5	1	1	1	2	2	1	821	2	2	1	1538	4	684	BUNTSTIFT	thymian	oregano	rosmarin	füller	majoran	thymian	29	2	1	1	1	ECONOMICS
FAUST_1[2014-06]	39	3	10	5	1	2	1	2	2	1	1825	2	1	0	1935	4	720	APFEL	erdbeere	cannabis	haschisch	kokain	heroin	erdbeere	29	2	1	1	1	ECONOMICS
FAUST_1[2014-06]	39	3	19	5	1	1	2	2	1	0	1129	1	1	1	1273	4	848	FLASCHE	karaffe	kanne	hemd	becher	glas	hemd	29	2	1	1	1	ECONOMICS
FAUST_1[2014-06]	39	3	2	5	1	2	2	2	2	1	1244	2	2	1	1285	4	1223	MESSING	eisen	bronze	gold	silber	onkel	bronze	29	2	1	1	1	ECONOMICS
FAUST_1[2014-06]	39	3	27	5	1	1	1	2	2	1	869	2	2	1	1696	4	910	TAUBE	leinen	baumwolle	wolle	leinen	schwalbe	flanell	29	2	1	1	1	ECONOMICS
FAUST_1[2014-06]	39	3	4	5	1	2	1	2	2	1	1511	2	2	1	1271	4	884	HAGEL	sonnenschein	schiff	yacht	kanu	fähre	sonnenschein	29	2	1	1	1	ECONOMICS
FAUST_1[2014-06]	39	3	17	5	1	1	2	2	2	1	1756	1	1	1	1486	4	1044	BRAHMS	mozart	beethoven	foxtrott	vivaldi	foxtrott	chopin	29	2	1	1	1	ECONOMICS
FAUST_1[2014-06]	39	3	31	5	1	2	2	2	2	1	808	1	1	1	944	4	1350	FLÖTE	polizist	klarinette	posaune	klarinette	trompete	oboe	29	2	1	1	1	ECONOMICS
FAUST_1[2014-06]	39	3	14	5	1	1	1	2	2	1	1094	2	2	1	2510	4	826	DOLCH	klebeband	schwert	locher	lineal	locher	büroklammer	29	2	1	1	1	ECONOMICS
FAUST_1[2014-06]	39	3	25	5	1	2	1	2	2	1	973	1	1	1	919	4	890	BEIN	arm	brotmesser	gabel	arm	löffel	messer	29	2	1	1	1	ECONOMICS
FAUST_1[2014-06]	39	3	8	5	1	1	2	2	2	1	1590	2	2	1	2124	4	908	ÖSTERREICH	england	schweiz	dänemark	hammer	italien	hammer	29	2	1	1	1	ECONOMICS
FAUST_1[2014-06]	39	3	28	5	1	2	2	2	2	1	838	2	2	1	1665	4	1344	ROSE	lidschatten	nelke	tulpe	veilchen	lilie	tulpe	29	2	1	1	1	ECONOMICS
FAUST_1[2014-06]	39	3	16	5	1	1	1	3	2	1	1632	2	2	1	1596	4	1288	BIOLOGIE	herzog	leopard	gepard	panther	gepard	puma	29	2	1	1	1	ECONOMICS
FAUST_1[2014-06]	39	3	26	5	1	2	1	3	2	1	805	1	1	1	1458	4	1066	WESPE	lesen	malen	basteln	viereck	schreiben	viereck	29	2	1	1	1	ECONOMICS
FAUST_1[2014-06]	39	3	30	5	1	1	1	3	2	1	677	1	1	1	1364	4	1130	RADIO	roggen	weizen	dinkel	backgammon	dinkel	gerste	29	2	1	1	1	ECONOMICS
FAUST_1[2014-06]	39	3	32	5	1	2	1	3	2	1	1342	1	1	1	1606	4	1177	STRICKNADEL	kerosin	adjektiv	nomen	adverb	präposition	kerosin	29	2	1	1	1	ECONOMICS
FAUST_1[2014-06]	39	3	9	5	1	1	1	3	2	1	1306	1	1	1	1797	4	1033	SCHMECKEN	mobiltelefon	computer	kamera	laptop	computer	grippe	29	2	1	1	1	ECONOMICS
FAUST_1[2014-06]	39	3	1	5	1	2	1	3	1	0	939	1	1	1	2107	1	1669	WESTERN	peugeot	schütze	zwilling	peugeot	jungfrau	steinbock	29	2	1	1	1	ECONOMICS
FAUST_1[2014-06]	39	3	24	5	1	1	1	3	2	1	963	2	2	1	931	4	874	AFRIKA	angst	trauer	scham	ärger	angst	schrank	29	2	1	1	1	ECONOMICS
FAUST_1[2014-06]	39	3	13	5	1	2	1	3	2	1	962	1	1	1	908	4	844	SACHSEN	backform	rot	küchenwaage	rot	backblech	pfannenwender	29	2	1	1	1	ECONOMICS
FAUST_1[2014-06]	39	2	4	5	3	1	1	1	1	1	1243	2	1	0	1395	4	1055	laptop_16.bmp	saddle_15.bmp	laptop_16.bmp	saddle_15.bmp	saddle_4.bmp	saddle_3.bmp	saddle_8.bmp	29	2	1	1	1	ECONOMICS
FAUST_1[2014-06]	39	2	5	5	3	2	1	1	1	1	967	2	2	1	2096	4	951	watergun_3.bmp	watergun_3.bmp	remote_3.bmp	remote_2.bmp	watergun_3.bmp	remote_11.bmp	remote_13.bmp	29	2	1	1	1	ECONOMICS
FAUST_1[2014-06]	39	2	7	5	3	1	2	1	1	1	1672	1	1	1	1971	4	1374	cherubstatue_11.bmp	garbagecan_17.bmp	cherubstatue_10.bmp	cherubstatue_12.bmp	cherubstatue_11.bmp	garbagecan_17.bmp	cherubstatue_5.bmp	29	2	1	1	1	ECONOMICS
FAUST_1[2014-06]	39	2	17	5	3	2	2	1	1	1	921	1	1	1	1201	4	909	glove_5.bmp	glove_12.bmp	glove_8.bmp	glove_5.bmp	hammer_11.bmp	glove_15.bmp	glove_5.bmp	29	2	1	1	1	ECONOMICS
FAUST_1[2014-06]	39	2	22	5	3	1	1	1	1	1	1083	2	2	1	1180	4	1147	rusdoll_8.bmp	rusdoll_8.bmp	bagel_12.bmp	bagel_16.bmp	bagel_4.bmp	bagel_12.bmp	bagel_14.bmp	29	2	1	1	1	ECONOMICS
FAUST_1[2014-06]	39	2	2	5	3	2	1	1	1	1	1078	1	1	1	2123	4	909	cellphone_8.bmp	cellphone_8.bmp	backpack_10.bmp	backpack_16.bmp	cellphone_8.bmp	backpack_12.bmp	backpack_6.bmp	29	2	1	1	1	ECONOMICS
FAUST_1[2014-06]	39	2	14	5	3	1	2	1	1	1	1078	1	1	1	1001	4	1145	printer_14.bmp	sink_1.bmp	printer_14.bmp	sink_1.bmp	printer_1.bmp	printer_3.bmp	printer_16.bmp	29	2	1	1	1	ECONOMICS
FAUST_1[2014-06]	39	2	3	5	3	2	2	1	1	1	876	2	2	1	1467	4	996	shredder_15.bmp	shredder_15.bmp	shredder_1.bmp	hairdryer_14.bmp	shredder_6.bmp	shredder_7.bmp	shredder_15.bmp	29	2	1	1	1	ECONOMICS
FAUST_1[2014-06]	39	2	26	5	3	1	1	1	1	1	1003	1	1	1	1180	4	1184	abacus_6.bmp	shoe_13.bmp	shoe_15.bmp	shoe_7.bmp	shoe_9.bmp	abacus_6.bmp	shoe_13.bmp	29	2	1	1	1	ECONOMICS
FAUST_1[2014-06]	39	2	9	5	3	2	1	1	1	1	923	1	1	1	1740	4	966	beanbagchair_15.bmp	glasses_13.bmp	beanbagchair_15.bmp	glasses_6.bmp	glasses_8.bmp	glasses_15.bmp	beanbagchair_15.bmp	29	2	1	1	1	ECONOMICS
FAUST_1[2014-06]	39	2	21	5	3	1	2	1	1	1	1522	1	2	0	1626	4	999	cake_3.bmp	videogamecontroller_13.bmp	cake_4.bmp	cake_5.bmp	videogamecontroller_13.bmp	cake_1.bmp	cake_3.bmp	29	2	1	1	1	ECONOMICS
FAUST_1[2014-06]	39	2	8	5	3	2	2	1	1	1	749	2	2	1	1323	4	784	birdhouse_9.bmp	windchime_3.bmp	birdhouse_6.bmp	birdhouse_9.bmp	birdhouse_7.bmp	birdhouse_9.bmp	birdhouse_14.bmp	29	2	1	1	1	ECONOMICS
FAUST_1[2014-06]	39	2	16	5	3	1	1	2	2	1	950	1	1	1	1156	4	962	jacket_13.bmp	watch_7.bmp	watch_8.bmp	watch_6.bmp	jacket_11.bmp	watch_14.bmp	watch_7.bmp	29	2	1	1	1	ECONOMICS
FAUST_1[2014-06]	39	2	10	5	3	2	1	2	2	1	868	1	1	1	1099	4	1077	vase_13.bmp	tricycle_15.bmp	vase_15.bmp	tricycle_10.bmp	tricycle_2.bmp	tricycle_5.bmp	vase_15.bmp	29	2	1	1	1	ECONOMICS
FAUST_1[2014-06]	39	2	1	5	3	1	2	2	1	0	1067	1	1	1	1412	4	1110	mic_12.bmp	mic_10.bmp	powerstrip_13.bmp	mic_2.bmp	mic_3.bmp	powerstrip_13.bmp	mic_5.bmp	29	2	1	1	1	ECONOMICS
FAUST_1[2014-06]	39	2	29	5	3	2	2	2	2	1	991	1	2	0	2207	4	801	cat_1.bmp	cat_10.bmp	cat_4.bmp	cat_5.bmp	cat_9.bmp	cat_4.bmp	wig_7.bmp	29	2	1	1	1	ECONOMICS
FAUST_1[2014-06]	39	2	23	5	3	1	1	2	2	1	2155	2	2	1	915	3	1198	doorknocker_14.bmp	doorknocker_5.bmp	parfait_4.bmp	parfait_13.bmp	parfait_11.bmp	parfait_13.bmp	parfait_1.bmp	29	2	1	1	1	ECONOMICS
FAUST_1[2014-06]	39	2	28	5	3	2	1	2	2	1	1094	2	2	1	1439	4	939	saltpeppershake_9.bmp	horseshoe_5.bmp	saltpeppershake_2.bmp	horseshoe_12.bmp	horseshoe_3.bmp	horseshoe_4.bmp	saltpeppershake_2.bmp	29	2	1	1	1	ECONOMICS
FAUST_1[2014-06]	39	2	11	5	3	1	2	2	2	1	3380	2	2	1	2241	3	1110	skateboard_3.bmp	skateboard_16.bmp	sofa_6.bmp	skateboard_11.bmp	skateboard_14.bmp	skateboard_15.bmp	sofa_6.bmp	29	2	1	1	1	ECONOMICS
FAUST_1[2014-06]	39	2	30	5	3	2	2	2	2	1	2308	2	2	1	1644	3	990	carriage_2.bmp	carriage_3.bmp	carriage_14.bmp	carriage_3.bmp	carriage_12.bmp	carriage_9.bmp	guitar_14.bmp	29	2	1	1	1	ECONOMICS
FAUST_1[2014-06]	39	2	24	5	3	1	1	2	2	1	1098	2	2	1	1074	4	1002	carabiner_6.bmp	pasta_11.bmp	pasta_13.bmp	pasta_10.bmp	pasta_15.bmp	pasta_10.bmp	carabiner_2.bmp	29	2	1	1	1	ECONOMICS
FAUST_1[2014-06]	39	2	27	5	3	2	1	2	2	1	1372	1	1	1	1448	4	1050	fan_15.bmp	router_5.bmp	router_7.bmp	fan_1.bmp	router_6.bmp	fan_1.bmp	router_16.bmp	29	2	1	1	1	ECONOMICS
FAUST_1[2014-06]	39	2	13	5	3	1	2	2	1	0	1148	2	2	1	1359	4	1230	orifan_6.bmp	doorknob_2.bmp	orifan_7.bmp	doorknob_2.bmp	orifan_14.bmp	orifan_17.bmp	orifan_1.bmp	29	2	1	1	1	ECONOMICS
FAUST_1[2014-06]	39	2	32	5	3	2	2	2	2	1	1713	1	1	1	1392	4	1080	socks_10.bmp	socks_13.bmp	socks_4.bmp	socks_12.bmp	socks_13.bmp	socks_15.bmp	babycrib_9.bmp	29	2	1	1	1	ECONOMICS
FAUST_1[2014-06]	39	2	25	5	3	1	1	3	2	1	662	2	2	1	1435	4	905	goggle_9.bmp	speaker_6.bmp	speaker_4.bmp	speaker_15.bmp	speaker_6.bmp	speaker_17.bmp	highchair_3.bmp	29	2	1	1	1	ECONOMICS
FAUST_1[2014-06]	39	2	18	5	3	2	1	3	2	1	769	2	2	1	2082	4	858	flashlight_12.bmp	lawnmower_3.bmp	circuitboard_8.bmp	circuitboard_13.bmp	circuitboard_4.bmp	lawnmower_3.bmp	circuitboard_16.bmp	29	2	1	1	1	ECONOMICS
FAUST_1[2014-06]	39	2	15	5	3	1	1	3	2	1	650	2	2	1	1108	4	1511	plant_13.bmp	camera_6.bmp	camera_9.bmp	rollerskates_5.bmp	camera_6.bmp	camera_3.bmp	camera_4.bmp	29	2	1	1	1	ECONOMICS
FAUST_1[2014-06]	39	2	31	5	3	2	1	3	2	1	723	2	2	1	995	4	723	chair_11.bmp	turtle_2.bmp	ring_11.bmp	turtle_7.bmp	turtle_12.bmp	ring_11.bmp	turtle_6.bmp	29	2	1	1	1	ECONOMICS
FAUST_1[2014-06]	39	2	12	5	3	1	1	3	2	1	772	2	2	1	1260	4	980	easteregg_5.bmp	bowlingpin_1.bmp	hairbrush_16.bmp	bowlingpin_13.bmp	bowlingpin_4.bmp	bowlingpin_11.bmp	bowlingpin_1.bmp	29	2	1	1	1	ECONOMICS
FAUST_1[2014-06]	39	2	6	5	3	2	1	3	2	1	926	1	1	1	1278	4	810	trumpet_3.bmp	trunk_1.bmp	trunk_2.bmp	trunk_7.bmp	leatherman_2.bmp	trunk_3.bmp	leatherman_2.bmp	29	2	1	1	1	ECONOMICS
FAUST_1[2014-06]	39	2	19	5	3	1	1	3	2	1	852	2	2	1	1404	4	985	trophy_16.bmp	scooter_8.bmp	scooter_5.bmp	scooter_11.bmp	tv_4.bmp	scooter_4.bmp	scooter_11.bmp	29	2	1	1	1	ECONOMICS
FAUST_1[2014-06]	39	2	20	5	3	2	1	3	2	1	818	1	1	1	1503	4	874	coffee_7.bmp	cheesegrater_11.bmp	iceskates_5.bmp	cheesegrater_14.bmp	cheesegrater_15.bmp	iceskates_5.bmp	cheesegrater_5.bmp	29	2	1	1	1	ECONOMICS
FAUST_1[2014-06]	39	3	12	5	2	1	1	1	1	1	1052	1	1	1	810	4	1228	Varnish3.bmp	Tomato12.bmp	Tomato18.bmp	Tomato5.bmp	Tomato2.bmp	Varnish3.bmp	Tomato2.bmp	29	2	1	1	1	ECONOMICS
FAUST_1[2014-06]	39	3	11	5	2	2	1	1	1	1	1128	2	2	1	872	4	946	Pear15.bmp	Pear15.bmp	Hanger14.bmp	Hanger15.bmp	Hanger12.bmp	Hanger7.bmp	Pear15.bmp	29	2	1	1	1	ECONOMICS
FAUST_1[2014-06]	39	3	3	5	2	1	2	1	1	1	931	2	2	1	1013	4	1091	Car7.bmp	Onion13.bmp	Car21.bmp	Car7.bmp	Car12.bmp	Car13.bmp	Onion13.bmp	29	2	1	1	1	ECONOMICS
FAUST_1[2014-06]	39	3	19	5	2	2	2	1	1	1	856	2	2	1	794	4	947	Leaf10.bmp	Leaf10.bmp	Leaf22.bmp	Leaf13.bmp	Leaf10.bmp	Leaf15.bmp	Flower14.bmp	29	2	1	1	1	ECONOMICS
FAUST_1[2014-06]	39	3	22	5	2	1	1	1	1	1	1158	1	2	0	891	3	1129	Fudge17.bmp	Mushroom18.bmp	Fudge17.bmp	Mushroom6.bmp	Mushroom25.bmp	Mushroom6.bmp	Mushroom7.bmp	29	2	1	1	1	ECONOMICS
FAUST_1[2014-06]	39	3	18	5	2	2	1	1	1	1	1009	1	1	1	1158	4	1443	Bracelet18.bmp	Swirl5.bmp	Swirl1.bmp	Swirl13.bmp	Bracelet18.bmp	Swirl10.bmp	Bracelet18.bmp	29	2	1	1	1	ECONOMICS
FAUST_1[2014-06]	39	3	14	5	2	1	2	1	2	0	1250	1	1	1	725	4	1111	Jigsaw10.bmp	Daff9.bmp	Jigsaw11.bmp	Jigsaw14.bmp	Jigsaw10.bmp	Daff9.bmp	Jigsaw17.bmp	29	2	1	1	1	ECONOMICS
FAUST_1[2014-06]	39	3	8	5	2	2	2	1	1	1	1254	2	2	1	1993	4	913	Stapler10.bmp	Stapler6.bmp	Stapler7.bmp	Stapler10.bmp	Key11.bmp	Stapler8.bmp	Stapler10.bmp	29	2	1	1	1	ECONOMICS
FAUST_1[2014-06]	39	3	10	5	2	1	1	2	2	1	2395	1	1	1	928	4	877	Ginger15.bmp	Lipstick7.bmp	Lipstick2.bmp	Lipstick7.bmp	Ginger17.bmp	Lipstick9.bmp	Lipstick3.bmp	29	2	1	1	1	ECONOMICS
FAUST_1[2014-06]	39	3	13	5	2	2	1	2	1	0	1456	2	2	1	1078	4	844	Feather18.bmp	Chocolate24.bmp	Chocolate5.bmp	Feather14.bmp	Chocolate6.bmp	Feather14.bmp	Chocolate9.bmp	29	2	1	1	1	ECONOMICS
FAUST_1[2014-06]	39	3	21	5	2	1	2	2	1	0	1027	1	1	1	1752	4	940	Button14.bmp	Button10.bmp	Sweet10.bmp	Button3.bmp	Sweet10.bmp	Button18.bmp	Button20.bmp	29	2	1	1	1	ECONOMICS
FAUST_1[2014-06]	39	3	1	5	2	2	2	2	2	1	1998	2	2	1	1436	3	1417	Pen17.bmp	Pen5.bmp	Strawberry14.bmp	Pen1.bmp	Pen20.bmp	Pen10.bmp	Pen5.bmp	29	2	1	1	1	ECONOMICS
FAUST_1[2014-06]	39	3	5	5	2	1	1	2	2	1	1379	1	1	1	1607	4	1597	Nut19.bmp	Coins10.bmp	Coins8.bmp	Coins3.bmp	Coins14.bmp	Nut21.bmp	Coins3.bmp	29	2	1	1	1	ECONOMICS
FAUST_1[2014-06]	39	3	16	5	2	2	1	2	2	1	2062	1	1	1	1925	4	1509	Bag3.bmp	Bag5.bmp	Biscuit17.bmp	Bag5.bmp	Biscuit4.bmp	Biscuit20.bmp	Biscuit9.bmp	29	2	1	1	1	ECONOMICS
FAUST_1[2014-06]	39	3	7	5	2	1	2	2	2	1	2871	2	2	1	785	3	1262	Hand17.bmp	Hand10.bmp	Hand1.bmp	Hand8.bmp	Plug4.bmp	Hand13.bmp	Plug4.bmp	29	2	1	1	1	ECONOMICS
FAUST_1[2014-06]	39	3	17	5	2	2	2	2	1	0	1103	2	1	0	1310	4	951	Present2.bmp	Present3.bmp	Present17.bmp	Present9.bmp	Umbrella6.bmp	Present9.bmp	Present14.bmp	29	2	1	1	1	ECONOMICS
FAUST_1[2014-06]	39	3	2	5	2	1	1	3	2	1	847	2	2	1	1252	4	1026	Keys5.bmp	Shell17.bmp	Screw16.bmp	Screw9.bmp	Screw10.bmp	Screw18.bmp	Screw9.bmp	29	2	1	1	1	ECONOMICS
FAUST_1[2014-06]	39	3	4	5	2	2	1	3	2	1	699	1	1	1	960	4	973	Fork7.bmp	Toothbrush6.bmp	Apple5.bmp	Toothbrush6.bmp	Apple10.bmp	Apple24.bmp	Apple21.bmp	29	2	1	1	1	ECONOMICS
FAUST_1[2014-06]	39	3	20	5	2	1	1	3	2	1	826	1	1	1	756	4	1104	Holly3.bmp	Bun22.bmp	Bun5.bmp	Bun17.bmp	Bun12.bmp	Scissors23.bmp	Bun22.bmp	29	2	1	1	1	ECONOMICS
FAUST_1[2014-06]	39	3	9	5	2	2	1	3	2	1	761	1	1	1	883	4	905	Glass3.bmp	Star7.bmp	Man4.bmp	Star19.bmp	Man4.bmp	Star1.bmp	Star17.bmp	29	2	1	1	1	ECONOMICS
FAUST_1[2014-06]	39	3	6	5	2	1	1	3	2	1	814	2	2	1	935	4	1029	Cake25.bmp	Candle17.bmp	Candle10.bmp	Candle1.bmp	Candle20.bmp	Chilli11.bmp	Candle17.bmp	29	2	1	1	1	ECONOMICS
FAUST_1[2014-06]	39	3	15	5	2	2	1	3	2	1	793	2	2	1	2365	4	1023	String6.bmp	Paperclip14.bmp	Paperclip13.bmp	Paperclip4.bmp	Brocolli19.bmp	Paperclip9.bmp	Brocolli19.bmp	29	2	1	1	1	ECONOMICS
FAUST_1[2014-06]	39	4	2	5	1	1	1	1	1	1	999	2	2	1	2694	4	841	KINO	lesen	schreiben	zeichnen	kino	basteln	zeichnen	29	2	1	1	1	ECONOMICS
FAUST_1[2014-06]	39	4	4	5	1	2	1	1	1	1	919	2	2	1	1435	4	801	REGAL	regal	lehrer	arzt	regal	polizist	pfarrer	29	2	1	1	1	ECONOMICS
FAUST_1[2014-06]	39	4	26	5	1	1	2	1	1	1	912	1	1	1	755	4	987	BACKGAMMON	schach	hexe	backgammon	scrabble	hexe	monopoly	29	2	1	1	1	ECONOMICS
FAUST_1[2014-06]	39	4	3	5	1	2	2	1	1	1	899	1	1	1	910	4	1161	HAUPTSCHULE	hauptschule	gesamtschule	petroleum	gymnasium	hauptschule	berufsschule	29	2	1	1	1	ECONOMICS
FAUST_1[2014-06]	39	4	23	5	1	1	1	1	1	1	1003	1	1	1	944	4	1217	ZENTIMETER	karotten	zentimeter	spinat	bohnen	blumenkohl	karotten	29	2	1	1	1	ECONOMICS
FAUST_1[2014-06]	39	4	7	5	1	2	1	1	1	1	992	1	1	1	950	4	953	LIPPENSTIFT	kreis	quadrat	rechteck	lippenstift	dreieck	lippenstift	29	2	1	1	1	ECONOMICS
FAUST_1[2014-06]	39	4	21	5	1	1	2	1	1	1	1303	1	1	1	1285	3	1162	SCHWERT	dolch	hören	schwert	hören	bombe	pistole	29	2	1	1	1	ECONOMICS
FAUST_1[2014-06]	39	4	22	5	1	2	2	1	1	1	854	2	2	1	1629	4	1071	VIVALDI	vivaldi	becher	vivaldi	mozart	chopin	beethoven	29	2	1	1	1	ECONOMICS
FAUST_1[2014-06]	39	4	9	5	1	1	1	1	2	0	816	1	1	1	806	4	1132	SEIDE	nomen	seide	adverb	adjektiv	präposition	nomen	29	2	1	1	1	ECONOMICS
FAUST_1[2014-06]	39	4	14	5	1	2	1	1	2	0	898	2	1	0	1647	4	799	SEE	stricknadel	stecknadel	häkelnadel	see	sicherheitsnadel	see	29	2	1	1	1	ECONOMICS
FAUST_1[2014-06]	39	4	27	5	1	1	2	1	1	1	820	2	2	1	1093	4	915	ROCK	rock	bluse	buntstift	jacke	buntstift	hemd	29	2	1	1	1	ECONOMICS
FAUST_1[2014-06]	39	4	10	5	1	2	2	1	1	1	1012	2	2	1	1878	4	835	RUMBA	rumba	tango	meißel	chachacha	rumba	foxtrott	29	2	1	1	1	ECONOMICS
FAUST_1[2014-06]	39	4	31	5	1	1	1	2	2	1	1843	2	2	1	859	3	988	ROSE	leopard	tulpe	leopard	tiger	puma	gepard	29	2	1	1	1	ECONOMICS
FAUST_1[2014-06]	39	4	32	5	1	2	1	2	1	0	1175	2	2	1	870	1	1596	SCHÜTZE	pommes	pizza	steinbock	bratwurst	döner	steinbock	29	2	1	1	1	ECONOMICS
FAUST_1[2014-06]	39	4	30	5	1	1	2	2	2	1	759	2	2	1	900	4	606	VATER	gin	tochter	onkel	mutter	sohn	gin	29	2	1	1	1	ECONOMICS
FAUST_1[2014-06]	39	4	20	5	1	2	2	2	2	1	1780	1	1	1	1293	3	1243	EISEN	messing	bronze	silber	klarinette	gold	silber	29	2	1	1	1	ECONOMICS
FAUST_1[2014-06]	39	4	18	5	1	1	1	2	2	1	803	2	2	1	1058	4	806	GERSTE	leber	lunge	magen	leber	hafer	herz	29	2	1	1	1	ECONOMICS
FAUST_1[2014-06]	39	4	16	5	1	2	1	2	2	1	713	1	1	1	1146	4	884	TAXI	saarland	brandenburg	straßenbahn	sachsen	straßenbahn	hessen	29	2	1	1	1	ECONOMICS
FAUST_1[2014-06]	39	4	25	5	1	1	2	2	2	1	857	2	2	1	1689	4	862	ROT	grün	blau	gelb	volvo	lila	volvo	29	2	1	1	1	ECONOMICS
FAUST_1[2014-06]	39	4	12	5	1	2	2	2	2	1	1039	1	1	1	786	4	1106	LINEAL	brieföffner	klebeband	büroklammer	locher	büroklammer	schwimmen	29	2	1	1	1	ECONOMICS
FAUST_1[2014-06]	39	4	19	5	1	1	1	2	2	1	1204	2	2	1	709	4	1182	FORELLE	zeitung	fernsehen	internet	lachs	zeitung	radio	29	2	1	1	1	ECONOMICS
FAUST_1[2014-06]	39	4	15	5	1	2	1	2	2	1	869	1	1	1	1289	4	1028	HELIUM	kohlenstoff	apfel	pflaume	banane	birne	kohlenstoff	29	2	1	1	1	ECONOMICS
FAUST_1[2014-06]	39	4	28	5	1	1	2	2	2	1	1115	2	2	1	686	4	902	SYNAGOGE	komödie	kirche	tempel	komödie	moschee	kapelle	29	2	1	1	1	ECONOMICS
FAUST_1[2014-06]	39	4	13	5	1	2	2	2	2	1	1518	2	2	1	2024	3	1024	MARK	cent	euro	dollar	cent	lakritz	pfennig	29	2	1	1	1	ECONOMICS
FAUST_1[2014-06]	39	4	24	5	1	1	1	3	2	1	802	1	1	1	732	4	1236	DÄNEMARK	hannover	hamburg	hannover	stuttgart	mops	münchen	29	2	1	1	1	ECONOMICS
FAUST_1[2014-06]	39	4	11	5	1	2	1	3	2	1	902	2	2	1	1244	4	1432	KAISER	nebel	nordamerika	nebel	asien	australien	südamerika	29	2	1	1	1	ECONOMICS
FAUST_1[2014-06]	39	4	6	5	1	1	1	3	2	1	730	2	2	1	888	4	862	KANU	handbremse	gaspedal	kupplung	gaspedal	blockhaus	rückspiegel	29	2	1	1	1	ECONOMICS
FAUST_1[2014-06]	39	4	17	5	1	2	1	3	2	1	807	2	2	1	1512	4	1391	MAJORAN	masern	opium	kokain	haschisch	masern	cannabis	29	2	1	1	1	ECONOMICS
FAUST_1[2014-06]	39	4	1	5	1	1	1	3	2	1	1260	2	2	1	2201	4	751	AMEISE	physik	ärger	biologie	physik	erdkunde	chemie	29	2	1	1	1	ECONOMICS
FAUST_1[2014-06]	39	4	5	5	1	2	1	3	2	1	1220	1	1	1	1790	4	812	JUPITER	brotmesser	löffel	arm	teelöffel	gabel	arm	29	2	1	1	1	ECONOMICS
FAUST_1[2014-06]	39	4	8	5	1	1	1	3	2	1	727	1	1	1	1287	4	1158	KÜCHENWAAGE	elbe	amsel	taube	meise	fink	meise	29	2	1	1	1	ECONOMICS
FAUST_1[2014-06]	39	4	29	5	1	2	1	3	2	1	807	1	1	1	907	4	980	TAG	eiche	computer	eiche	kamera	mobiltelefon	laptop	29	2	1	1	1	ECONOMICS
