experiment	subject	block	trial	order	material	repeated	related	probetype	response	correct	rt	math_response	math_correctresponse	math_correct	math_rt	confidence	confidence_rt	probe	item1	item2	item3	item4	item5	item6	age	sex	handedness	color_vision	mother_tongue	occupation
FAUST_1[2014-06]	3	1	27	1	1	1	1	1	1	1	1251	2	2	1	2417	2	2445	KINO	kino	volvo	porsche	peugeot	volvo	audi	21	2	1	1	1	SOWI
FAUST_1[2014-06]	3	1	23	1	1	2	1	1	1	1	1366	2	2	1	2765	4	1443	CHEMIE	chemie	niere	magen	chemie	lunge	herz	21	2	1	1	1	SOWI
FAUST_1[2014-06]	3	1	29	1	1	1	2	1	2	0	1089	1	1	1	2194	2	1058	STUHL	regal	sofa	schrank	teich	stuhl	teich	21	2	1	1	1	SOWI
FAUST_1[2014-06]	3	1	26	1	1	2	2	1	1	1	1928	2	2	1	2728	4	1412	TENNIS	tennis	straßenbahn	golf	tennis	schwimmen	fußball	21	2	1	1	1	SOWI
FAUST_1[2014-06]	3	1	5	1	1	1	1	1	1	1	1992	2	2	1	2859	4	1290	HEXE	karotten	bohnen	tomaten	hexe	blumenkohl	bohnen	21	2	1	1	1	SOWI
FAUST_1[2014-06]	3	1	32	1	1	2	1	1	1	1	1356	2	2	1	2066	4	1265	MESSING	mark	euro	messing	dollar	cent	messing	21	2	1	1	1	SOWI
FAUST_1[2014-06]	3	1	12	1	1	1	2	1	1	1	1635	1	1	1	1360	4	1175	STICKSTOFF	wasserstoff	zeichnen	stickstoff	helium	sauerstoff	zeichnen	21	2	1	1	1	SOWI
FAUST_1[2014-06]	3	1	13	1	1	2	2	1	1	1	1757	2	2	1	2046	4	1319	LIPPENSTIFT	wimperntusche	lippenstift	verb	kajal	lidschatten	lippenstift	21	2	1	1	1	SOWI
FAUST_1[2014-06]	3	1	9	1	1	1	1	1	1	1	1620	2	2	1	2365	3	1811	OPIUM	asien	australien	südamerika	nordamerika	asien	opium	21	2	1	1	1	SOWI
FAUST_1[2014-06]	3	1	8	1	1	2	1	1	1	1	2841	1	1	1	1345	4	1405	RICHTER	fürst	graf	herzog	richter	könig	richter	21	2	1	1	1	SOWI
FAUST_1[2014-06]	3	1	1	1	1	1	2	1	2	0	2646	2	2	1	2063	3	4535	DREIECK	meißel	dreieck	kreis	viereck	rechteck	meißel	21	2	1	1	1	SOWI
FAUST_1[2014-06]	3	1	10	1	1	2	2	1	1	1	1516	1	1	1	2228	4	1219	LÖFFEL	teelöffel	löffel	flasche	messer	brotmesser	löffel	21	2	1	1	1	SOWI
FAUST_1[2014-06]	3	1	7	1	1	1	1	2	2	1	2131	2	2	1	2431	3	1847	BRATWURST	filzstift	döner	buntstift	füller	buntstift	kugelschreiber	21	2	1	1	1	SOWI
FAUST_1[2014-06]	3	1	4	1	1	2	1	2	2	1	2402	1	1	1	2099	4	1242	SICHERHEITSNADEL	stricknadel	schach	halma	monopoly	stricknadel	backgammon	21	2	1	1	1	SOWI
FAUST_1[2014-06]	3	1	11	1	1	1	2	2	2	1	1429	1	1	1	1680	3	1047	KÜCHENWAAGE	nudelholz	backblech	mumps	pfannenwender	backform	mumps	21	2	1	1	1	SOWI
FAUST_1[2014-06]	3	1	24	1	1	2	2	2	2	1	1309	2	2	1	2321	3	1727	SCHAM	freude	ärger	saarland	ärger	trauer	angst	21	2	1	1	1	SOWI
FAUST_1[2014-06]	3	1	22	1	1	1	1	2	2	1	1454	2	2	1	3086	3	1425	KARAMELL	vivaldi	beethoven	brahms	lakritz	brahms	chopin	21	2	1	1	1	SOWI
FAUST_1[2014-06]	3	1	3	1	1	2	1	2	2	1	1716	2	2	1	2280	4	1451	HOSE	oregano	jacke	koriander	thymian	majoran	jacke	21	2	1	1	1	SOWI
FAUST_1[2014-06]	3	1	18	1	1	1	2	2	2	1	1274	1	1	1	1679	3	2114	RUM	kerosin	gin	kerosin	whiskey	wodka	tequila	21	2	1	1	1	SOWI
FAUST_1[2014-06]	3	1	31	1	1	2	2	2	2	1	1137	2	2	1	2629	3	1288	HANDBREMSE	rückspiegel	lenkrad	kupplung	gaspedal	kupplung	western	21	2	1	1	1	SOWI
FAUST_1[2014-06]	3	1	25	1	1	1	1	2	2	1	3575	-1	1	0	0	2	1562	THUNFISCH	baumwolle	wolle	forelle	flanell	baumwolle	seide	21	2	1	1	1	SOWI
FAUST_1[2014-06]	3	1	17	1	1	2	1	2	2	1	1318	2	2	1	1271	3	2388	BLAU	bein	arm	lila	kopf	hand	lila	21	2	1	1	1	SOWI
FAUST_1[2014-06]	3	1	20	1	1	1	2	2	1	0	1961	2	2	1	1484	2	1776	SCHWALBE	taube	meise	biene	amsel	fink	biene	21	2	1	1	1	SOWI
FAUST_1[2014-06]	3	1	30	1	1	2	2	2	1	0	1923	1	1	1	2096	2	2816	WALZER	pistole	foxtrott	chachacha	tango	rumba	foxtrott	21	2	1	1	1	SOWI
FAUST_1[2014-06]	3	1	28	1	1	1	1	3	2	1	1201	2	2	1	2631	3	1245	WASSERMANN	hamburg	berlin	italien	münchen	hamburg	stuttgart	21	2	1	1	1	SOWI
FAUST_1[2014-06]	3	1	16	1	1	2	1	3	2	1	1950	-1	2	0	0	2	2524	ELBE	sehen	mops	dackel	sehen	terrier	dogge	21	2	1	1	1	SOWI
FAUST_1[2014-06]	3	1	2	1	1	1	1	3	2	1	2995	1	1	1	1599	4	1674	JUPITER	gymnasium	onkel	realschule	hauptschule	gymnasium	berufsschule	21	2	1	1	1	SOWI
FAUST_1[2014-06]	3	1	6	1	1	2	1	3	1	0	2415	2	2	1	2240	3	3035	NELKE	brieföffner	birke	lineal	birke	büroklammer	locher	21	2	1	1	1	SOWI
FAUST_1[2014-06]	3	1	14	1	1	1	1	3	2	1	2051	2	2	1	2561	2	4234	FÄHRE	posaune	banane	klarinette	oboe	posaune	trompete	21	2	1	1	1	SOWI
FAUST_1[2014-06]	3	1	15	1	1	2	1	3	2	1	1235	1	1	1	1701	3	1508	PUMA	sekunde	synagoge	sekunde	tempel	kapelle	kirche	21	2	1	1	1	SOWI
FAUST_1[2014-06]	3	1	21	1	1	1	1	3	2	1	1450	1	1	1	1955	2	2448	COMPUTER	radio	buch	weizen	zeitung	fernsehen	radio	21	2	1	1	1	SOWI
FAUST_1[2014-06]	3	1	19	1	1	2	1	3	2	1	1557	-1	2	0	0	2	1198	HAGEL	millimeter	meter	baracke	kilometer	baracke	meile	21	2	1	1	1	SOWI
FAUST_1[2014-06]	3	2	21	1	2	1	1	1	1	1	1125	1	1	1	2017	3	1664	Pear16.bmp	Man2.bmp	Man4.bmp	Man10.bmp	Man24.bmp	Man2.bmp	Pear16.bmp	21	2	1	1	1	SOWI
FAUST_1[2014-06]	3	2	1	1	2	2	1	1	1	1	2623	2	2	1	2942	4	1773	Apple10.bmp	Pen5.bmp	Apple10.bmp	Pen20.bmp	Pen10.bmp	Pen1.bmp	Apple10.bmp	21	2	1	1	1	SOWI
FAUST_1[2014-06]	3	2	20	1	2	1	2	1	1	1	1152	1	1	1	2487	3	1053	Flower17.bmp	Flower17.bmp	Plug9.bmp	Flower3.bmp	Flower14.bmp	Plug9.bmp	Flower13.bmp	21	2	1	1	1	SOWI
FAUST_1[2014-06]	3	2	3	1	2	2	2	1	1	1	1258	1	1	1	2285	4	1077	Glass4.bmp	Glass4.bmp	Jigsaw18.bmp	Glass19.bmp	Glass4.bmp	Glass12.bmp	Glass16.bmp	21	2	1	1	1	SOWI
FAUST_1[2014-06]	3	2	6	1	2	1	1	1	1	1	2620	2	2	1	2904	3	899	Swirl1.bmp	Holly11.bmp	Holly17.bmp	Holly14.bmp	Holly17.bmp	Holly3.bmp	Swirl1.bmp	21	2	1	1	1	SOWI
FAUST_1[2014-06]	3	2	12	1	2	2	1	1	1	1	1577	1	1	1	2099	4	2239	Strawberry14.bmp	Varnish17.bmp	Strawberry14.bmp	Varnish5.bmp	Varnish11.bmp	Strawberry14.bmp	Varnish3.bmp	21	2	1	1	1	SOWI
FAUST_1[2014-06]	3	2	14	1	2	1	2	1	1	1	2485	2	2	1	1673	3	1646	Present3.bmp	Present2.bmp	Present14.bmp	Mushroom18.bmp	Present3.bmp	Present17.bmp	Mushroom18.bmp	21	2	1	1	1	SOWI
FAUST_1[2014-06]	3	2	9	1	2	2	2	1	1	1	1972	-1	2	0	0	4	3252	Bag3.bmp	Bag3.bmp	Bag25.bmp	Bag3.bmp	Sweet1.bmp	Bag5.bmp	Bag4.bmp	21	2	1	1	1	SOWI
FAUST_1[2014-06]	3	2	5	1	2	1	1	2	2	1	1462	1	1	1	3004	3	2242	Keys6.bmp	Candle20.bmp	Keys5.bmp	Candle10.bmp	Candle13.bmp	Candle1.bmp	Candle13.bmp	21	2	1	1	1	SOWI
FAUST_1[2014-06]	3	2	16	1	2	2	1	2	1	0	2957	2	2	1	1578	1	1930	Screw9.bmp	Tomato2.bmp	Screw18.bmp	Tomato12.bmp	Tomato18.bmp	Screw18.bmp	Tomato3.bmp	21	2	1	1	1	SOWI
FAUST_1[2014-06]	3	2	13	1	2	1	2	2	1	0	1623	1	1	1	1492	3	1716	Toothbrush1.bmp	Ginger17.bmp	Toothbrush9.bmp	Toothbrush6.bmp	Toothbrush12.bmp	Ginger17.bmp	Toothbrush10.bmp	21	2	1	1	1	SOWI
FAUST_1[2014-06]	3	2	19	1	2	2	2	2	1	0	1564	2	2	1	1374	4	1386	Bun17.bmp	Bun22.bmp	Hand13.bmp	Bun22.bmp	Bun5.bmp	Bun19.bmp	Bun12.bmp	21	2	1	1	1	SOWI
FAUST_1[2014-06]	3	2	8	1	2	1	1	2	2	1	2611	1	1	1	1409	3	1206	Key20.bmp	Hanger15.bmp	Hanger12.bmp	Hanger14.bmp	Key11.bmp	Hanger7.bmp	Hanger12.bmp	21	2	1	1	1	SOWI
FAUST_1[2014-06]	3	2	10	1	2	2	1	2	2	1	2308	2	2	1	1634	2	1674	Daff1.bmp	Bracelet2.bmp	Bracelet8.bmp	Bracelet5.bmp	Daff9.bmp	Bracelet18.bmp	Daff9.bmp	21	2	1	1	1	SOWI
FAUST_1[2014-06]	3	2	22	1	2	1	2	2	1	0	1095	1	1	1	1467	4	1126	Fudge5.bmp	Fudge8.bmp	Fudge20.bmp	Paperclip4.bmp	Fudge15.bmp	Fudge17.bmp	Paperclip4.bmp	21	2	1	1	1	SOWI
FAUST_1[2014-06]	3	2	2	1	2	2	2	2	1	0	2167	2	2	1	1813	3	2695	Button3.bmp	Button20.bmp	Button18.bmp	Lipstick2.bmp	Button10.bmp	Button20.bmp	Button14.bmp	21	2	1	1	1	SOWI
FAUST_1[2014-06]	3	2	17	1	2	1	1	3	2	1	1377	2	1	0	1427	3	2014	Chocolate9.bmp	Star2.bmp	Star1.bmp	Star17.bmp	Biscuit25.bmp	Star2.bmp	Star7.bmp	21	2	1	1	1	SOWI
FAUST_1[2014-06]	3	2	18	1	2	2	1	3	2	1	1464	1	1	1	1629	3	1713	Nut19.bmp	Stapler6.bmp	Stapler8.bmp	Brocolli14.bmp	Stapler9.bmp	Brocolli14.bmp	Stapler10.bmp	21	2	1	1	1	SOWI
FAUST_1[2014-06]	3	2	11	1	2	1	1	3	2	1	1359	2	2	1	1078	3	1925	Onion18.bmp	Coins10.bmp	Leaf13.bmp	Coins8.bmp	Coins10.bmp	Coins14.bmp	Coins12.bmp	21	2	1	1	1	SOWI
FAUST_1[2014-06]	3	2	4	1	2	2	1	3	1	0	2858	1	1	1	1149	1	2161	Chilli22.bmp	Scissors23.bmp	Shell9.bmp	Shell1.bmp	Shell17.bmp	Shell18.bmp	Scissors23.bmp	21	2	1	1	1	SOWI
FAUST_1[2014-06]	3	2	15	1	2	1	1	3	2	1	1343	1	1	1	2524	4	1961	Fork8.bmp	Cake16.bmp	Cake18.bmp	Cake7.bmp	String8.bmp	Cake7.bmp	Cake24.bmp	21	2	1	1	1	SOWI
FAUST_1[2014-06]	3	2	7	1	2	2	1	3	2	1	1406	1	1	1	1140	3	1345	Umbrella19.bmp	Feather18.bmp	Car13.bmp	Car7.bmp	Car12.bmp	Car21.bmp	Feather18.bmp	21	2	1	1	1	SOWI
FAUST_1[2014-06]	3	3	18	1	3	1	1	1	1	1	1066	1	1	1	1769	4	1137	cat_1.bmp	goggle_3.bmp	cat_1.bmp	goggle_4.bmp	goggle_13.bmp	goggle_9.bmp	goggle_13.bmp	21	2	1	1	1	SOWI
FAUST_1[2014-06]	3	3	1	1	3	2	1	1	1	1	1331	2	2	1	2200	4	1369	videogamecontroller_5.bmp	watch_8.bmp	videogamecontroller_5.bmp	watch_6.bmp	watch_14.bmp	watch_7.bmp	videogamecontroller_5.bmp	21	2	1	1	1	SOWI
FAUST_1[2014-06]	3	3	14	1	3	1	2	1	1	1	2262	2	2	1	1396	3	3801	carriage_3.bmp	carriage_12.bmp	backpack_16.bmp	carriage_14.bmp	backpack_16.bmp	carriage_3.bmp	carriage_9.bmp	21	2	1	1	1	SOWI
FAUST_1[2014-06]	3	3	29	1	3	2	2	1	1	1	1338	2	2	1	2943	4	911	abacus_4.bmp	abacus_15.bmp	lawnmower_13.bmp	abacus_4.bmp	abacus_7.bmp	abacus_6.bmp	abacus_4.bmp	21	2	1	1	1	SOWI
FAUST_1[2014-06]	3	3	21	1	3	1	1	1	1	1	1800	1	1	1	1945	1	1242	circuitboard_4.bmp	beanbagchair_15.bmp	beanbagchair_14.bmp	beanbagchair_12.bmp	beanbagchair_3.bmp	beanbagchair_14.bmp	circuitboard_4.bmp	21	2	1	1	1	SOWI
FAUST_1[2014-06]	3	3	3	1	3	2	1	1	1	1	1172	2	2	1	1857	4	1221	tv_5.bmp	tv_5.bmp	glasses_6.bmp	glasses_15.bmp	glasses_9.bmp	tv_5.bmp	glasses_13.bmp	21	2	1	1	1	SOWI
FAUST_1[2014-06]	3	3	9	1	3	1	2	1	1	1	2529	1	1	1	1375	2	1705	rollerskates_8.bmp	rollerskates_2.bmp	rollerskates_8.bmp	rollerskates_5.bmp	camera_4.bmp	rollerskates_17.bmp	camera_4.bmp	21	2	1	1	1	SOWI
FAUST_1[2014-06]	3	3	28	1	3	2	2	1	1	1	1680	2	2	1	1709	4	802	sofa_12.bmp	sofa_9.bmp	sofa_12.bmp	jacket_10.bmp	sofa_3.bmp	sofa_13.bmp	sofa_12.bmp	21	2	1	1	1	SOWI
FAUST_1[2014-06]	3	3	26	1	3	1	1	1	2	0	5948	2	2	1	2970	2	1260	bowlingpin_13.bmp	orifan_7.bmp	orifan_17.bmp	bowlingpin_13.bmp	orifan_6.bmp	orifan_7.bmp	orifan_14.bmp	21	2	1	1	1	SOWI
FAUST_1[2014-06]	3	3	15	1	3	2	1	1	1	1	1081	1	1	1	907	4	1233	trunk_5.bmp	coffee_14.bmp	trunk_5.bmp	coffee_1.bmp	trunk_5.bmp	coffee_15.bmp	coffee_2.bmp	21	2	1	1	1	SOWI
FAUST_1[2014-06]	3	3	27	1	3	1	2	1	1	1	1963	2	2	1	2458	3	892	cellphone_8.bmp	turtle_6.bmp	cellphone_12.bmp	cellphone_11.bmp	turtle_6.bmp	cellphone_3.bmp	cellphone_8.bmp	21	2	1	1	1	SOWI
FAUST_1[2014-06]	3	3	31	1	3	2	2	1	1	1	1028	2	2	1	2991	4	887	doorknocker_11.bmp	doorknocker_11.bmp	guitar_7.bmp	doorknocker_2.bmp	doorknocker_11.bmp	doorknocker_4.bmp	doorknocker_14.bmp	21	2	1	1	1	SOWI
FAUST_1[2014-06]	3	3	10	1	3	1	1	2	2	1	2692	-1	2	0	0	2	2476	leatherman_10.bmp	flashlight_13.bmp	flashlight_1.bmp	flashlight_2.bmp	leatherman_7.bmp	flashlight_12.bmp	flashlight_13.bmp	21	2	1	1	1	SOWI
FAUST_1[2014-06]	3	3	16	1	3	2	1	2	2	1	1120	2	2	1	2338	3	1083	shoe_17.bmp	shoe_15.bmp	sink_6.bmp	sink_11.bmp	shoe_15.bmp	sink_1.bmp	sink_10.bmp	21	2	1	1	1	SOWI
FAUST_1[2014-06]	3	3	32	1	3	1	2	2	1	0	3310	2	1	0	2296	1	1049	wig_9.bmp	wig_6.bmp	wig_1.bmp	powerstrip_14.bmp	wig_7.bmp	wig_12.bmp	powerstrip_14.bmp	21	2	1	1	1	SOWI
FAUST_1[2014-06]	3	3	12	1	3	2	2	2	2	1	1556	2	2	1	1316	2	1865	trumpet_17.bmp	trumpet_5.bmp	trumpet_3.bmp	trumpet_5.bmp	tricycle_5.bmp	trumpet_6.bmp	trumpet_1.bmp	21	2	1	1	1	SOWI
FAUST_1[2014-06]	3	3	2	1	3	1	1	2	2	1	1741	1	1	1	1420	2	3651	socks_15.bmp	mic_12.bmp	socks_12.bmp	mic_3.bmp	mic_5.bmp	mic_2.bmp	mic_5.bmp	21	2	1	1	1	SOWI
FAUST_1[2014-06]	3	3	4	1	3	2	1	2	2	1	2606	1	1	1	1419	2	1714	hairdryer_14.bmp	hairdryer_13.bmp	chair_16.bmp	chair_3.bmp	hairdryer_13.bmp	chair_2.bmp	chair_11.bmp	21	2	1	1	1	SOWI
FAUST_1[2014-06]	3	3	6	1	3	1	2	2	1	0	1160	2	2	1	1060	4	1210	saddle_5.bmp	saddle_15.bmp	saddle_4.bmp	saddle_3.bmp	rusdoll_1.bmp	saddle_8.bmp	rusdoll_1.bmp	21	2	1	1	1	SOWI
FAUST_1[2014-06]	3	3	13	1	3	2	2	2	1	0	2866	1	1	1	1422	2	1862	fan_15.bmp	horseshoe_3.bmp	fan_10.bmp	fan_17.bmp	fan_11.bmp	fan_1.bmp	fan_17.bmp	21	2	1	1	1	SOWI
FAUST_1[2014-06]	3	3	11	1	3	1	1	2	1	0	2665	-1	1	0	0	2	1022	cherubstatue_12.bmp	laptop_16.bmp	laptop_15.bmp	laptop_10.bmp	cherubstatue_11.bmp	laptop_10.bmp	laptop_14.bmp	21	2	1	1	1	SOWI
FAUST_1[2014-06]	3	3	25	1	3	2	1	2	2	1	2619	2	2	1	2046	1	1173	garbagecan_17.bmp	windchime_16.bmp	windchime_3.bmp	garbagecan_8.bmp	windchime_15.bmp	garbagecan_8.bmp	windchime_6.bmp	21	2	1	1	1	SOWI
FAUST_1[2014-06]	3	3	17	1	3	1	2	2	1	0	3312	1	1	1	1024	2	1500	remote_14.bmp	remote_11.bmp	vase_1.bmp	remote_13.bmp	vase_1.bmp	remote_3.bmp	remote_2.bmp	21	2	1	1	1	SOWI
FAUST_1[2014-06]	3	3	8	1	3	2	2	2	1	0	2249	2	2	1	2679	2	2233	glove_8.bmp	glove_12.bmp	glove_15.bmp	glove_5.bmp	trophy_4.bmp	glove_12.bmp	glove_10.bmp	21	2	1	1	1	SOWI
FAUST_1[2014-06]	3	3	24	1	3	1	1	3	2	1	878	1	1	1	1584	4	1337	plant_2.bmp	cheesegrater_5.bmp	cheesegrater_14.bmp	ring_12.bmp	cheesegrater_8.bmp	cheesegrater_15.bmp	cheesegrater_14.bmp	21	2	1	1	1	SOWI
FAUST_1[2014-06]	3	3	20	1	3	2	1	3	2	1	1153	2	2	1	1530	4	1231	saltpeppershake_2.bmp	printer_3.bmp	router_16.bmp	printer_14.bmp	router_16.bmp	printer_16.bmp	printer_1.bmp	21	2	1	1	1	SOWI
FAUST_1[2014-06]	3	3	19	1	3	1	1	3	2	1	2138	2	2	1	2872	3	1569	babycrib_7.bmp	cake_14.bmp	highchair_4.bmp	highchair_15.bmp	highchair_6.bmp	highchair_3.bmp	highchair_15.bmp	21	2	1	1	1	SOWI
FAUST_1[2014-06]	3	3	7	1	3	2	1	3	2	1	2561	2	2	1	2722	3	1173	carabiner_2.bmp	iceskates_14.bmp	iceskates_16.bmp	doorknob_10.bmp	iceskates_5.bmp	doorknob_10.bmp	iceskates_9.bmp	21	2	1	1	1	SOWI
FAUST_1[2014-06]	3	3	22	1	3	1	1	3	2	1	833	1	1	1	2397	4	1275	pasta_15.bmp	skateboard_15.bmp	skateboard_3.bmp	shredder_15.bmp	skateboard_14.bmp	skateboard_16.bmp	skateboard_15.bmp	21	2	1	1	1	SOWI
FAUST_1[2014-06]	3	3	23	1	3	2	1	3	2	1	1605	2	1	0	3192	4	1268	birdhouse_9.bmp	parfait_15.bmp	scooter_8.bmp	parfait_15.bmp	scooter_4.bmp	scooter_11.bmp	scooter_10.bmp	21	2	1	1	1	SOWI
FAUST_1[2014-06]	3	3	5	1	3	1	1	3	2	1	4056	2	1	0	2962	1	927	hammer_11.bmp	hairbrush_17.bmp	hairbrush_12.bmp	hairbrush_16.bmp	hairbrush_12.bmp	hairbrush_7.bmp	easteregg_14.bmp	21	2	1	1	1	SOWI
FAUST_1[2014-06]	3	3	30	1	3	2	1	3	2	1	856	1	1	1	1916	4	1189	bagel_4.bmp	speaker_15.bmp	speaker_10.bmp	speaker_4.bmp	watergun_8.bmp	speaker_17.bmp	watergun_8.bmp	21	2	1	1	1	SOWI
FAUST_1[2014-06]	3	2	14	1	1	1	1	1	1	1	1329	1	1	1	2763	1	1398	ROT	dämon	werwolf	dämon	hexe	rot	vampir	21	2	1	1	1	SOWI
FAUST_1[2014-06]	3	2	15	1	1	2	1	1	1	1	1478	1	1	1	1609	2	2528	BUCHE	pfarrer	lehrer	buche	polizist	arzt	buche	21	2	1	1	1	SOWI
FAUST_1[2014-06]	3	2	32	1	1	1	2	1	2	0	2054	1	1	1	883	2	1079	TEQUILA	whiskey	rum	präposition	wodka	tequila	präposition	21	2	1	1	1	SOWI
FAUST_1[2014-06]	3	2	22	1	1	2	2	1	1	1	1149	1	1	1	2174	4	1257	LILIE	veilchen	lilie	hand	lilie	tulpe	nelke	21	2	1	1	1	SOWI
FAUST_1[2014-06]	3	2	28	1	1	1	1	1	1	1	1855	2	2	1	1030	4	2245	GYMNASIUM	gymnasium	südamerika	australien	nordamerika	asien	nordamerika	21	2	1	1	1	SOWI
FAUST_1[2014-06]	3	2	16	1	1	2	1	1	1	1	1737	2	2	1	2558	3	1100	ZUG	handbremse	zug	rückspiegel	zug	gaspedal	lenkrad	21	2	1	1	1	SOWI
FAUST_1[2014-06]	3	2	7	1	1	1	2	1	1	1	1098	2	2	1	2279	3	1269	KOMÖDIE	apfel	actionfilm	komödie	apfel	western	horrorfilm	21	2	1	1	1	SOWI
FAUST_1[2014-06]	3	2	20	1	1	2	2	1	1	1	1247	2	2	1	1656	4	706	TROMPETE	trompete	klarinette	flöte	oboe	trompete	helium	21	2	1	1	1	SOWI
FAUST_1[2014-06]	3	2	2	1	1	1	1	1	1	1	1433	-1	1	0	0	3	889	SCHWERT	vater	tochter	onkel	sohn	schwert	sohn	21	2	1	1	1	SOWI
FAUST_1[2014-06]	3	2	19	1	1	2	1	1	1	1	1121	2	2	1	941	4	1060	LIDSCHATTEN	lidschatten	halma	schach	backgammon	scrabble	lidschatten	21	2	1	1	1	SOWI
FAUST_1[2014-06]	3	2	5	1	1	1	2	1	1	1	1444	2	2	1	2306	2	1259	KINO	grippe	oper	konzertsaal	kino	grippe	zirkus	21	2	1	1	1	SOWI
FAUST_1[2014-06]	3	2	21	1	1	2	2	1	2	0	1239	2	2	1	2245	2	3639	KIRCHE	kapelle	synagoge	kirche	tempel	magen	kirche	21	2	1	1	1	SOWI
FAUST_1[2014-06]	3	2	8	1	1	1	1	2	2	1	933	1	1	1	1870	4	1157	NUDELHOLZ	sehen	schmecken	küchenwaage	hören	sehen	riechen	21	2	1	1	1	SOWI
FAUST_1[2014-06]	3	2	13	1	1	2	1	2	1	0	2335	2	2	1	2475	1	1097	TAG	jahr	weser	main	elbe	donau	jahr	21	2	1	1	1	SOWI
FAUST_1[2014-06]	3	2	23	1	1	1	2	2	2	1	1276	1	1	1	783	3	1317	LEINEN	wolle	seide	bratwurst	flanell	bratwurst	baumwolle	21	2	1	1	1	SOWI
FAUST_1[2014-06]	3	2	4	1	1	2	2	2	2	1	1419	1	1	1	1429	2	1383	WASSERMANN	steinbock	gummibärchen	steinbock	schütze	zwilling	jungfrau	21	2	1	1	1	SOWI
FAUST_1[2014-06]	3	2	9	1	1	1	1	2	2	1	1592	1	1	1	1950	3	1733	HEROIN	glas	becher	flasche	kanne	glas	opium	21	2	1	1	1	SOWI
FAUST_1[2014-06]	3	2	25	1	1	2	1	2	1	0	2037	2	2	1	2592	1	959	AMSEL	schwalbe	dinkel	hafer	gerste	weizen	schwalbe	21	2	1	1	1	SOWI
FAUST_1[2014-06]	3	2	11	1	1	1	2	2	2	1	3361	2	2	1	1574	1	821	FILZSTIFT	ärger	buntstift	kugelschreiber	bleistift	ärger	füller	21	2	1	1	1	SOWI
FAUST_1[2014-06]	3	2	3	1	1	2	2	2	2	1	1113	1	1	1	2585	3	1262	BLOCKHAUS	scheune	schuppen	baracke	mercedes	hütte	scheune	21	2	1	1	1	SOWI
FAUST_1[2014-06]	3	2	30	1	1	1	1	2	2	1	984	1	1	1	1451	2	1248	TEELÖFFEL	laptop	mobiltelefon	gabel	kamera	laptop	computer	21	2	1	1	1	SOWI
FAUST_1[2014-06]	3	2	27	1	1	2	1	2	2	1	1127	1	1	1	2587	2	1329	LESEN	schreiben	brandenburg	sachsen	schreiben	thüringen	saarland	21	2	1	1	1	SOWI
FAUST_1[2014-06]	3	2	29	1	1	1	2	2	1	0	1112	2	2	1	2757	3	1135	JUPITER	venus	merkur	pluto	see	saturn	see	21	2	1	1	1	SOWI
FAUST_1[2014-06]	3	2	12	1	1	2	2	2	1	0	1373	2	2	1	1814	3	1078	PFENNIG	dollar	mark	dollar	cent	euro	hose	21	2	1	1	1	SOWI
FAUST_1[2014-06]	3	2	26	1	1	1	1	3	2	1	889	2	2	1	2213	4	1163	GOLD	italien	rechteck	quadrat	dreieck	viereck	quadrat	21	2	1	1	1	SOWI
FAUST_1[2014-06]	3	2	31	1	1	2	1	3	2	1	1509	1	1	1	2312	2	939	MEILE	dogge	dackel	bleifrei	terrier	mops	bleifrei	21	2	1	1	1	SOWI
FAUST_1[2014-06]	3	2	17	1	1	1	1	3	2	1	979	2	2	1	1398	4	1040	NÄHNADEL	beethoven	chopin	brahms	koriander	brahms	mozart	21	2	1	1	1	SOWI
FAUST_1[2014-06]	3	2	6	1	1	2	1	3	2	1	1200	-1	2	0	0	3	1091	LOCHER	tango	makrele	thunfisch	hering	tango	lachs	21	2	1	1	1	SOWI
FAUST_1[2014-06]	3	2	18	1	1	1	1	3	2	1	1838	1	1	1	3109	4	927	HUMMEL	hamburg	hannover	berlin	stuttgart	yacht	stuttgart	21	2	1	1	1	SOWI
FAUST_1[2014-06]	3	2	24	1	1	2	1	3	2	1	1016	1	1	1	1053	2	2059	RADIO	hammer	kaiser	säge	kaiser	bohrer	zange	21	2	1	1	1	SOWI
FAUST_1[2014-06]	3	2	10	1	1	1	1	3	2	1	799	2	2	1	2071	4	1199	PHYSIK	tennis	fußball	golf	schwimmen	golf	schnee	21	2	1	1	1	SOWI
FAUST_1[2014-06]	3	2	1	1	1	2	1	3	2	1	1036	2	2	1	2207	3	941	GEPARD	tisch	blumenkohl	spinat	tomaten	tisch	bohnen	21	2	1	1	1	SOWI
FAUST_1[2014-06]	3	3	14	1	2	1	1	1	1	1	1074	1	1	1	2253	4	1180	Paperclip14.bmp	Ginger15.bmp	Ginger3.bmp	Ginger10.bmp	Ginger15.bmp	Ginger17.bmp	Paperclip14.bmp	21	2	1	1	1	SOWI
FAUST_1[2014-06]	3	3	8	1	2	2	1	1	1	1	1045	1	1	1	1697	4	1245	Chilli11.bmp	Nut21.bmp	Chilli11.bmp	Nut19.bmp	Nut2.bmp	Chilli11.bmp	Nut18.bmp	21	2	1	1	1	SOWI
FAUST_1[2014-06]	3	3	1	1	2	1	2	1	1	1	1865	1	1	1	1515	4	889	Bun5.bmp	Bun12.bmp	Bun19.bmp	Screw16.bmp	Bun5.bmp	Screw16.bmp	Bun17.bmp	21	2	1	1	1	SOWI
FAUST_1[2014-06]	3	3	22	1	2	2	2	1	1	1	1414	1	1	1	1568	4	1133	Man10.bmp	Man10.bmp	Man4.bmp	Man2.bmp	Cake18.bmp	Man10.bmp	Man24.bmp	21	2	1	1	1	SOWI
FAUST_1[2014-06]	3	3	19	1	2	1	1	1	1	1	1714	2	2	1	826	4	972	Lipstick15.bmp	Plug8.bmp	Lipstick15.bmp	Plug9.bmp	Plug8.bmp	Plug4.bmp	Plug6.bmp	21	2	1	1	1	SOWI
FAUST_1[2014-06]	3	3	9	1	2	2	1	1	1	1	1141	1	1	1	3115	4	2024	Present2.bmp	Present2.bmp	Leaf13.bmp	Leaf15.bmp	Leaf10.bmp	Present2.bmp	Leaf22.bmp	21	2	1	1	1	SOWI
FAUST_1[2014-06]	3	3	5	1	2	1	2	1	1	1	2039	2	2	1	1987	4	1814	Car12.bmp	Car14.bmp	Car12.bmp	Toothbrush6.bmp	Car21.bmp	Toothbrush6.bmp	Car7.bmp	21	2	1	1	1	SOWI
FAUST_1[2014-06]	3	3	18	1	2	2	2	1	1	1	2051	2	2	1	1587	4	1104	Bag4.bmp	Bag4.bmp	Bag3.bmp	Coins14.bmp	Bag25.bmp	Bag5.bmp	Bag4.bmp	21	2	1	1	1	SOWI
FAUST_1[2014-06]	3	3	3	1	2	1	1	2	1	0	1929	1	1	1	1874	3	1220	Button18.bmp	Fudge17.bmp	Fudge5.bmp	Fudge8.bmp	Fudge20.bmp	Fudge17.bmp	Button10.bmp	21	2	1	1	1	SOWI
FAUST_1[2014-06]	3	3	16	1	2	2	1	2	1	0	2025	1	1	1	2464	3	1276	Keys5.bmp	Candle1.bmp	Keys9.bmp	Candle20.bmp	Candle10.bmp	Keys9.bmp	Candle17.bmp	21	2	1	1	1	SOWI
FAUST_1[2014-06]	3	3	7	1	2	1	2	2	1	0	1406	2	2	1	2390	2	1690	Star2.bmp	Pear4.bmp	Star19.bmp	Star7.bmp	Star1.bmp	Star17.bmp	Pear4.bmp	21	2	1	1	1	SOWI
FAUST_1[2014-06]	3	3	6	1	2	2	2	2	1	0	4434	2	2	1	1529	1	1104	Glass16.bmp	Glass12.bmp	Brocolli4.bmp	Glass19.bmp	Glass3.bmp	Glass12.bmp	Glass4.bmp	21	2	1	1	1	SOWI
FAUST_1[2014-06]	3	3	17	1	2	1	1	2	2	1	1212	1	1	1	3035	3	981	Scissors11.bmp	Scissors14.bmp	Hanger7.bmp	Hanger15.bmp	Hanger12.bmp	Hanger2.bmp	Hanger12.bmp	21	2	1	1	1	SOWI
FAUST_1[2014-06]	3	3	11	1	2	2	1	2	1	0	2303	2	2	1	2834	3	1140	Apple10.bmp	Apple18.bmp	Flower17.bmp	Flower13.bmp	Apple18.bmp	Flower3.bmp	Flower14.bmp	21	2	1	1	1	SOWI
FAUST_1[2014-06]	3	3	2	1	2	1	2	2	1	0	2018	2	2	1	2713	3	777	Bracelet5.bmp	Feather18.bmp	Bracelet8.bmp	Feather18.bmp	Bracelet18.bmp	Bracelet2.bmp	Bracelet1.bmp	21	2	1	1	1	SOWI
FAUST_1[2014-06]	3	3	12	1	2	2	2	2	1	0	1218	1	1	1	2821	3	1232	Sweet22.bmp	Tomato3.bmp	Sweet1.bmp	Sweet25.bmp	Sweet18.bmp	Sweet10.bmp	Sweet25.bmp	21	2	1	1	1	SOWI
FAUST_1[2014-06]	3	3	4	1	2	1	1	3	2	1	827	1	1	1	1926	3	1456	Onion18.bmp	Pen5.bmp	Key5.bmp	Pen20.bmp	Pen10.bmp	Pen20.bmp	Pen17.bmp	21	2	1	1	1	SOWI
FAUST_1[2014-06]	3	3	20	1	2	2	1	3	2	1	1201	1	1	1	1308	4	1139	Jigsaw11.bmp	Umbrella7.bmp	Chocolate5.bmp	Umbrella6.bmp	Umbrella19.bmp	Umbrella21.bmp	Chocolate5.bmp	21	2	1	1	1	SOWI
FAUST_1[2014-06]	3	3	15	1	2	1	1	3	2	1	2078	2	2	1	1084	2	1099	Holly20.bmp	Biscuit17.bmp	Biscuit4.bmp	Stapler7.bmp	Biscuit25.bmp	Biscuit20.bmp	Biscuit4.bmp	21	2	1	1	1	SOWI
FAUST_1[2014-06]	3	3	21	1	2	2	1	3	2	1	714	2	2	1	916	4	966	Mushroom18.bmp	Varnish14.bmp	Shell17.bmp	Varnish11.bmp	Varnish3.bmp	Shell17.bmp	Varnish17.bmp	21	2	1	1	1	SOWI
FAUST_1[2014-06]	3	3	10	1	2	1	1	3	2	1	1243	1	1	1	3207	4	1338	Daff1.bmp	Swirl10.bmp	Swirl13.bmp	Swirl23.bmp	Swirl1.bmp	Fork7.bmp	Swirl23.bmp	21	2	1	1	1	SOWI
FAUST_1[2014-06]	3	3	13	1	2	2	1	3	2	1	1435	1	1	1	1320	3	1270	String9.bmp	Hand1.bmp	Hand13.bmp	Hand10.bmp	Strawberry21.bmp	Hand8.bmp	Strawberry21.bmp	21	2	1	1	1	SOWI
FAUST_1[2014-06]	3	4	28	1	3	1	1	1	1	1	3851	1	1	1	1949	1	1066	ring_15.bmp	ring_15.bmp	garbagecan_10.bmp	garbagecan_17.bmp	garbagecan_13.bmp	garbagecan_2.bmp	garbagecan_13.bmp	21	2	1	1	1	SOWI
FAUST_1[2014-06]	3	4	20	1	3	2	1	1	1	1	1165	1	1	1	1960	4	708	chair_2.bmp	leatherman_10.bmp	leatherman_14.bmp	chair_2.bmp	leatherman_7.bmp	leatherman_5.bmp	chair_2.bmp	21	2	1	1	1	SOWI
FAUST_1[2014-06]	3	4	2	1	3	1	2	1	1	1	1257	1	1	1	770	4	864	cat_10.bmp	cake_4.bmp	cat_5.bmp	cat_9.bmp	cat_4.bmp	cake_4.bmp	cat_10.bmp	21	2	1	1	1	SOWI
FAUST_1[2014-06]	3	4	12	1	3	2	2	1	1	1	837	1	1	1	1384	4	1165	doorknocker_11.bmp	doorknocker_11.bmp	doorknocker_2.bmp	doorknocker_14.bmp	doorknocker_11.bmp	glove_10.bmp	doorknocker_4.bmp	21	2	1	1	1	SOWI
FAUST_1[2014-06]	3	4	17	1	3	1	1	1	1	1	1105	2	2	1	1926	3	1330	trumpet_6.bmp	easteregg_9.bmp	easteregg_17.bmp	easteregg_9.bmp	trumpet_6.bmp	easteregg_5.bmp	easteregg_16.bmp	21	2	1	1	1	SOWI
FAUST_1[2014-06]	3	4	1	1	3	2	1	1	1	1	839	1	1	1	668	4	1994	cherubstatue_12.bmp	horseshoe_5.bmp	horseshoe_4.bmp	horseshoe_12.bmp	cherubstatue_12.bmp	horseshoe_3.bmp	cherubstatue_12.bmp	21	2	1	1	1	SOWI
FAUST_1[2014-06]	3	4	24	1	3	1	2	1	1	1	1269	2	2	1	1138	4	1332	hammer_6.bmp	hammer_17.bmp	hammer_15.bmp	hammer_6.bmp	camera_4.bmp	hammer_11.bmp	camera_4.bmp	21	2	1	1	1	SOWI
FAUST_1[2014-06]	3	4	22	1	3	2	2	1	1	1	1903	-1	2	0	0	3	908	sink_6.bmp	babycrib_6.bmp	sink_6.bmp	sink_1.bmp	sink_6.bmp	sink_10.bmp	sink_15.bmp	21	2	1	1	1	SOWI
FAUST_1[2014-06]	3	4	18	1	3	1	1	1	1	1	1267	2	2	1	3091	3	919	doorknob_7.bmp	rusdoll_8.bmp	rusdoll_3.bmp	rusdoll_5.bmp	rusdoll_8.bmp	rusdoll_6.bmp	doorknob_7.bmp	21	2	1	1	1	SOWI
FAUST_1[2014-06]	3	4	6	1	3	2	1	1	1	1	1041	1	1	1	1964	3	781	circuitboard_13.bmp	circuitboard_13.bmp	sofa_3.bmp	sofa_9.bmp	circuitboard_13.bmp	sofa_13.bmp	sofa_12.bmp	21	2	1	1	1	SOWI
FAUST_1[2014-06]	3	4	26	1	3	1	2	1	1	1	2201	2	2	1	1084	1	890	beanbagchair_14.bmp	beanbagchair_3.bmp	socks_10.bmp	beanbagchair_15.bmp	beanbagchair_14.bmp	beanbagchair_12.bmp	socks_10.bmp	21	2	1	1	1	SOWI
FAUST_1[2014-06]	3	4	5	1	3	2	2	1	1	1	1928	1	1	1	1752	2	958	powerstrip_8.bmp	powerstrip_7.bmp	powerstrip_8.bmp	powerstrip_10.bmp	powerstrip_8.bmp	powerstrip_14.bmp	hairbrush_12.bmp	21	2	1	1	1	SOWI
FAUST_1[2014-06]	3	4	19	1	3	1	1	2	1	0	1267	2	2	1	1905	3	861	router_5.bmp	watch_6.bmp	router_7.bmp	watch_7.bmp	watch_14.bmp	watch_6.bmp	watch_3.bmp	21	2	1	1	1	SOWI
FAUST_1[2014-06]	3	4	8	1	3	2	1	2	2	1	781	2	2	1	1347	4	876	guitar_7.bmp	goggle_13.bmp	guitar_5.bmp	goggle_4.bmp	goggle_3.bmp	goggle_1.bmp	guitar_5.bmp	21	2	1	1	1	SOWI
FAUST_1[2014-06]	3	4	4	1	3	1	2	2	1	0	949	2	2	1	1916	3	847	mic_12.bmp	remote_2.bmp	mic_10.bmp	mic_2.bmp	remote_2.bmp	mic_3.bmp	mic_5.bmp	21	2	1	1	1	SOWI
FAUST_1[2014-06]	3	4	25	1	3	2	2	2	1	0	1433	1	1	1	925	3	862	cellphone_12.bmp	cellphone_11.bmp	cellphone_4.bmp	cellphone_8.bmp	cellphone_3.bmp	cellphone_11.bmp	abacus_15.bmp	21	2	1	1	1	SOWI
FAUST_1[2014-06]	3	4	21	1	3	1	1	2	2	1	1268	1	1	1	1716	3	1696	tv_5.bmp	shredder_7.bmp	shredder_5.bmp	shredder_7.bmp	tv_16.bmp	shredder_1.bmp	shredder_15.bmp	21	2	1	1	1	SOWI
FAUST_1[2014-06]	3	4	30	1	3	2	1	2	2	1	1487	2	2	1	3344	3	818	rollerskates_2.bmp	windchime_15.bmp	rollerskates_8.bmp	windchime_16.bmp	windchime_3.bmp	windchime_6.bmp	rollerskates_8.bmp	21	2	1	1	1	SOWI
FAUST_1[2014-06]	3	4	3	1	3	1	2	2	2	1	2110	2	2	1	1793	1	1528	iceskates_16.bmp	bagel_16.bmp	iceskates_14.bmp	iceskates_7.bmp	iceskates_5.bmp	bagel_16.bmp	iceskates_9.bmp	21	2	1	1	1	SOWI
FAUST_1[2014-06]	3	4	32	1	3	2	2	2	1	0	1886	2	2	1	2423	3	665	parfait_15.bmp	coffee_15.bmp	parfait_1.bmp	parfait_11.bmp	parfait_4.bmp	parfait_13.bmp	parfait_1.bmp	21	2	1	1	1	SOWI
FAUST_1[2014-06]	3	4	31	1	3	1	1	2	2	1	1405	2	2	1	1483	3	744	watergun_15.bmp	highchair_6.bmp	watergun_7.bmp	highchair_4.bmp	highchair_15.bmp	highchair_3.bmp	highchair_15.bmp	21	2	1	1	1	SOWI
FAUST_1[2014-06]	3	4	7	1	3	2	1	2	2	1	1055	2	2	1	1478	4	913	birdhouse_9.bmp	saddle_5.bmp	saddle_15.bmp	birdhouse_7.bmp	saddle_4.bmp	saddle_3.bmp	birdhouse_7.bmp	21	2	1	1	1	SOWI
FAUST_1[2014-06]	3	4	27	1	3	1	2	2	1	0	1669	2	1	0	1664	3	899	cheesegrater_14.bmp	glasses_13.bmp	cheesegrater_5.bmp	glasses_13.bmp	cheesegrater_11.bmp	cheesegrater_8.bmp	cheesegrater_15.bmp	21	2	1	1	1	SOWI
FAUST_1[2014-06]	3	4	29	1	3	2	2	2	2	1	2968	1	1	1	3067	2	1373	orifan_1.bmp	jacket_11.bmp	orifan_7.bmp	orifan_17.bmp	orifan_6.bmp	orifan_14.bmp	orifan_17.bmp	21	2	1	1	1	SOWI
FAUST_1[2014-06]	3	4	23	1	3	1	1	3	2	1	821	2	2	1	1348	4	1023	trunk_2.bmp	carabiner_6.bmp	carabiner_5.bmp	carabiner_9.bmp	carabiner_6.bmp	fan_17.bmp	carabiner_7.bmp	21	2	1	1	1	SOWI
FAUST_1[2014-06]	3	4	13	1	3	2	1	3	2	1	737	2	2	1	1644	4	1160	plant_5.bmp	videogamecontroller_3.bmp	backpack_12.bmp	backpack_10.bmp	backpack_16.bmp	backpack_6.bmp	videogamecontroller_3.bmp	21	2	1	1	1	SOWI
FAUST_1[2014-06]	3	4	14	1	3	1	1	3	2	1	839	1	1	1	1949	4	1272	speaker_17.bmp	turtle_12.bmp	turtle_6.bmp	turtle_7.bmp	turtle_11.bmp	turtle_6.bmp	printer_14.bmp	21	2	1	1	1	SOWI
FAUST_1[2014-06]	3	4	10	1	3	2	1	3	2	1	1083	2	2	1	1294	4	931	tricycle_8.bmp	wig_9.bmp	vase_6.bmp	wig_6.bmp	vase_6.bmp	wig_12.bmp	wig_1.bmp	21	2	1	1	1	SOWI
FAUST_1[2014-06]	3	4	16	1	3	1	1	3	2	1	1457	2	2	1	2406	4	1105	shoe_13.bmp	scooter_10.bmp	scooter_4.bmp	scooter_11.bmp	lawnmower_17.bmp	scooter_8.bmp	scooter_10.bmp	21	2	1	1	1	SOWI
FAUST_1[2014-06]	3	4	15	1	3	2	1	3	2	1	1552	1	2	0	2929	3	2185	flashlight_17.bmp	laptop_14.bmp	bowlingpin_4.bmp	bowlingpin_11.bmp	bowlingpin_3.bmp	laptop_14.bmp	bowlingpin_1.bmp	21	2	1	1	1	SOWI
FAUST_1[2014-06]	3	4	11	1	3	1	1	3	2	1	1621	1	1	1	1748	2	1142	hairdryer_13.bmp	carriage_2.bmp	pasta_15.bmp	pasta_9.bmp	pasta_11.bmp	pasta_9.bmp	pasta_13.bmp	21	2	1	1	1	SOWI
FAUST_1[2014-06]	3	4	9	1	3	2	1	3	2	1	1497	2	2	1	2471	4	945	trophy_4.bmp	saltpeppershake_9.bmp	skateboard_14.bmp	skateboard_16.bmp	saltpeppershake_9.bmp	skateboard_11.bmp	skateboard_15.bmp	21	2	1	1	1	SOWI
