experiment	subject	trial	order	material	repeated	related	probetype	response	correct	rt	confidence	confidence_rt	probe	category	ndisplayed	nrelated	nrelated_unique	trial1	trial2	trial3	trial4	mean_trial	last_trial	age	sex	handedness	color_vision	mother_tongue	occupation
FAUST_1[2014-06]	40	-1	1	words	1	1	target	2	0	4213	2	3205	heroin	54	1	1	1	64	0	0	0	64,000000	64	19	1	1	1	1	MEDIENJKULTURWISSENSCHAFTT
FAUST_1[2014-06]	40	-1	1	words	2	1	target	2	0	5701	2	1014	lehrer	11	4	3	3	22	22	33	33	27,000000	33	19	1	1	1	1	MEDIENJKULTURWISSENSCHAFTT
FAUST_1[2014-06]	40	-1	1	words	1	1	target	2	0	1796	2	983	mozart	51	1	1	1	6	0	0	0	6,000000	6	19	1	1	1	1	MEDIENJKULTURWISSENSCHAFTT
FAUST_1[2014-06]	40	-1	1	words	3	3	lure	1	0	2510	2	1164	sachsen	41	0	3	2	0	0	0	0	0,000000	0	19	1	1	1	1	MEDIENJKULTURWISSENSCHAFTT
FAUST_1[2014-06]	40	-1	1	words	3	3	lure	1	0	1554	2	1020	verb	66	0	3	2	0	0	0	0	0,000000	0	19	1	1	1	1	MEDIENJKULTURWISSENSCHAFTT
FAUST_1[2014-06]	40	-1	1	words	3	3	target	1	1	1370	4	1665	rhein	17	2	6	4	16	50	0	0	33,000000	50	19	1	1	1	1	MEDIENJKULTURWISSENSCHAFTT
FAUST_1[2014-06]	40	-1	1	words	2	2	target	1	1	1381	3	927	rechteck	56	3	9	4	17	64	64	0	48,000000	64	19	1	1	1	1	MEDIENJKULTURWISSENSCHAFTT
FAUST_1[2014-06]	40	-1	1	words	3	3	target	2	0	1221	3	950	lakritz	55	3	6	4	1	37	37	0	25,000000	37	19	1	1	1	1	MEDIENJKULTURWISSENSCHAFTT
FAUST_1[2014-06]	40	-1	1	words	1	1	lure	2	1	1304	3	1195	küchenwaage	68	0	4	1	0	0	0	0	0,000000	0	19	1	1	1	1	MEDIENJKULTURWISSENSCHAFTT
FAUST_1[2014-06]	40	-1	1	words	2	2	lure	2	1	1201	3	709	klebeband	32	0	8	4	0	0	0	0	0,000000	0	19	1	1	1	1	MEDIENJKULTURWISSENSCHAFTT
FAUST_1[2014-06]	40	-1	1	words	1	2	lure	2	1	1091	3	850	mücke	13	0	3	2	0	0	0	0	0,000000	0	19	1	1	1	1	MEDIENJKULTURWISSENSCHAFTT
FAUST_1[2014-06]	40	-1	1	words	1	1	target	1	1	979	3	1849	kilometer	72	1	1	1	17	0	0	0	17,000000	17	19	1	1	1	1	MEDIENJKULTURWISSENSCHAFTT
FAUST_1[2014-06]	40	-1	1	words	2	1	target	2	0	1175	3	621	herz	42	3	0	0	19	54	54	0	42,000000	54	19	1	1	1	1	MEDIENJKULTURWISSENSCHAFTT
FAUST_1[2014-06]	40	-1	1	words	2	1	lure	2	1	1155	3	688	teich	67	0	5	2	0	0	0	0	0,000000	0	19	1	1	1	1	MEDIENJKULTURWISSENSCHAFTT
FAUST_1[2014-06]	40	-1	1	words	2	1	target	2	0	1152	3	715	schweiz	18	3	3	3	5	5	38	0	16,000000	38	19	1	1	1	1	MEDIENJKULTURWISSENSCHAFTT
FAUST_1[2014-06]	40	-1	1	words	1	2	target	2	0	1173	3	582	stuhl	6	1	8	3	55	0	0	0	55,000000	55	19	1	1	1	1	MEDIENJKULTURWISSENSCHAFTT
FAUST_1[2014-06]	40	-1	1	words	1	1	lure	2	1	1055	3	661	theater	58	0	4	1	0	0	0	0	0,000000	0	19	1	1	1	1	MEDIENJKULTURWISSENSCHAFTT
FAUST_1[2014-06]	40	-1	1	words	3	3	lure	1	0	1275	4	904	münchen	16	0	3	2	0	0	0	0	0,000000	0	19	1	1	1	1	MEDIENJKULTURWISSENSCHAFTT
FAUST_1[2014-06]	40	-1	1	words	2	2	lure	2	1	1468	3	729	schiff	35	0	8	4	0	0	0	0	0,000000	0	19	1	1	1	1	MEDIENJKULTURWISSENSCHAFTT
FAUST_1[2014-06]	40	-1	1	words	1	2	lure	2	1	1096	3	1116	wimperntusche	37	0	4	3	0	0	0	0	0,000000	0	19	1	1	1	1	MEDIENJKULTURWISSENSCHAFTT
FAUST_1[2014-06]	40	-1	1	words	2	2	lure	1	0	1504	4	804	sicherheitsnadel	70	0	8	4	0	0	0	0	0,000000	0	19	1	1	1	1	MEDIENJKULTURWISSENSCHAFTT
FAUST_1[2014-06]	40	-1	1	words	2	1	lure	1	0	1612	3	736	kugelschreiber	28	0	5	2	0	0	0	0	0,000000	0	19	1	1	1	1	MEDIENJKULTURWISSENSCHAFTT
FAUST_1[2014-06]	40	-1	1	words	3	3	target	2	0	1008	3	924	wasserstoff	48	2	6	4	40	40	0	0	40,000000	40	19	1	1	1	1	MEDIENJKULTURWISSENSCHAFTT
FAUST_1[2014-06]	40	-1	1	words	1	2	target	2	0	927	3	685	säge	4	1	8	4	32	0	0	0	32,000000	32	19	1	1	1	1	MEDIENJKULTURWISSENSCHAFTT
FAUST_1[2014-06]	40	-1	1	words	2	1	lure	2	1	767	3	597	spinat	2	0	5	2	0	0	0	0	0,000000	0	19	1	1	1	1	MEDIENJKULTURWISSENSCHAFTT
FAUST_1[2014-06]	40	-1	1	words	1	2	target	1	1	1072	3	644	fühlen	65	1	10	4	9	0	0	0	9,000000	9	19	1	1	1	1	MEDIENJKULTURWISSENSCHAFTT
FAUST_1[2014-06]	40	-1	1	words	2	2	target	1	1	1471	3	670	dinkel	64	4	6	4	4	4	58	58	31,000000	58	19	1	1	1	1	MEDIENJKULTURWISSENSCHAFTT
FAUST_1[2014-06]	40	-1	1	words	1	2	lure	2	1	816	3	654	könig	53	0	3	3	0	0	0	0	0,000000	0	19	1	1	1	1	MEDIENJKULTURWISSENSCHAFTT
FAUST_1[2014-06]	40	-1	1	words	2	2	target	1	1	1707	3	751	tochter	45	3	8	4	12	48	48	0	36,000000	48	19	1	1	1	1	MEDIENJKULTURWISSENSCHAFTT
FAUST_1[2014-06]	40	-1	1	words	1	1	lure	2	1	924	3	607	physik	19	0	2	1	0	0	0	0	0,000000	0	19	1	1	1	1	MEDIENJKULTURWISSENSCHAFTT
FAUST_1[2014-06]	40	-1	1	migo	1	2	target	1	1	2017	2	1175	Glass19.bmp	20	1	9	4	38	0	0	0	38,000000	38	19	1	1	1	1	MEDIENJKULTURWISSENSCHAFTT
FAUST_1[2014-06]	40	-1	1	migo	1	1	lure	2	1	1695	3	1214	Hanger12.bmp	22	0	3	1	0	0	0	0	0,000000	0	19	1	1	1	1	MEDIENJKULTURWISSENSCHAFTT
FAUST_1[2014-06]	40	-1	1	migo	2	2	target	1	1	1019	3	746	Key20.bmp	25	4	6	3	19	19	26	26	22,000000	26	19	1	1	1	1	MEDIENJKULTURWISSENSCHAFTT
FAUST_1[2014-06]	40	-1	1	migo	1	1	target	1	1	1178	4	595	Bracelet8.bmp	4	1	2	1	43	0	0	0	43,000000	43	19	1	1	1	1	MEDIENJKULTURWISSENSCHAFTT
FAUST_1[2014-06]	40	-1	1	migo	2	1	target	1	1	868	4	842	Coins14.bmp	13	3	3	3	12	29	29	0	23,000000	29	19	1	1	1	1	MEDIENJKULTURWISSENSCHAFTT
FAUST_1[2014-06]	40	-1	1	migo	3	3	target	2	0	1235	2	890	Scissors3.bmp	38	1	5	4	3	0	0	0	3,000000	3	19	1	1	1	1	MEDIENJKULTURWISSENSCHAFTT
FAUST_1[2014-06]	40	-1	1	migo	1	2	lure	2	1	1494	3	709	Onion14.bmp	32	0	4	3	0	0	0	0	0,000000	0	19	1	1	1	1	MEDIENJKULTURWISSENSCHAFTT
FAUST_1[2014-06]	40	-1	1	migo	3	3	target	1	1	1127	3	679	Car14.bmp	10	2	4	3	36	36	0	0	36,000000	36	19	1	1	1	1	MEDIENJKULTURWISSENSCHAFTT
FAUST_1[2014-06]	40	-1	1	migo	1	1	lure	2	1	1324	3	618	Varnish11.bmp	50	0	2	1	0	0	0	0	0,000000	0	19	1	1	1	1	MEDIENJKULTURWISSENSCHAFTT
FAUST_1[2014-06]	40	-1	1	migo	2	2	lure	1	0	949	3	559	Umbrella21.bmp	49	0	10	4	0	0	0	0	0,000000	0	19	1	1	1	1	MEDIENJKULTURWISSENSCHAFTT
FAUST_1[2014-06]	40	-1	1	migo	1	2	lure	2	1	1469	3	543	Bag21.bmp	2	0	4	3	0	0	0	0	0,000000	0	19	1	1	1	1	MEDIENJKULTURWISSENSCHAFTT
FAUST_1[2014-06]	40	-1	1	migo	1	1	target	2	0	1186	3	572	Fork7.bmp	17	1	2	1	17	0	0	0	17,000000	17	19	1	1	1	1	MEDIENJKULTURWISSENSCHAFTT
FAUST_1[2014-06]	40	-1	1	migo	1	2	target	1	1	1391	3	598	Man10.bmp	29	1	9	4	5	0	0	0	5,000000	5	19	1	1	1	1	MEDIENJKULTURWISSENSCHAFTT
FAUST_1[2014-06]	40	-1	1	migo	2	2	lure	1	0	1278	3	567	Jigsaw10.bmp	24	0	8	4	0	0	0	0	0,000000	0	19	1	1	1	1	MEDIENJKULTURWISSENSCHAFTT
FAUST_1[2014-06]	40	-1	1	migo	2	1	target	1	1	831	3	654	Apple10.bmp	1	3	3	3	7	24	24	0	18,000000	24	19	1	1	1	1	MEDIENJKULTURWISSENSCHAFTT
FAUST_1[2014-06]	40	-1	1	migo	2	1	lure	2	1	1556	3	969	String12.bmp	44	0	4	1	0	0	0	0	0,000000	0	19	1	1	1	1	MEDIENJKULTURWISSENSCHAFTT
FAUST_1[2014-06]	40	-1	1	migo	2	2	target	1	1	780	2	722	Plug6.bmp	36	4	8	4	20	20	25	25	22,000000	25	19	1	1	1	1	MEDIENJKULTURWISSENSCHAFTT
FAUST_1[2014-06]	40	-1	1	migo	2	1	lure	2	1	1153	3	740	Chocolate17.bmp	12	0	5	2	0	0	0	0	0,000000	0	19	1	1	1	1	MEDIENJKULTURWISSENSCHAFTT
FAUST_1[2014-06]	40	-1	1	migo	3	3	lure	1	0	815	2	655	Screw9.bmp	39	0	3	2	0	0	0	0	0,000000	0	19	1	1	1	1	MEDIENJKULTURWISSENSCHAFTT
FAUST_1[2014-06]	40	-1	1	migo	3	3	lure	1	0	1165	2	952	Chilli11.bmp	11	0	3	2	0	0	0	0	0,000000	0	19	1	1	1	1	MEDIENJKULTURWISSENSCHAFTT
FAUST_1[2014-06]	40	-1	1	brady	1	1	target	2	0	1832	3	651	parfait_1.bmp	41	1	1	1	48	0	0	0	48,000000	48	19	1	1	1	1	MEDIENJKULTURWISSENSCHAFTT
FAUST_1[2014-06]	40	-1	1	brady	2	1	lure	1	0	863	2	630	cellphone_11.bmp	13	0	4	2	0	0	0	0	0,000000	0	19	1	1	1	1	MEDIENJKULTURWISSENSCHAFTT
FAUST_1[2014-06]	40	-1	1	brady	2	1	lure	2	1	972	3	811	doorknocker_11.bmp	20	0	5	2	0	0	0	0	0,000000	0	19	1	1	1	1	MEDIENJKULTURWISSENSCHAFTT
FAUST_1[2014-06]	40	-1	1	brady	1	2	lure	1	0	806	2	711	birdhouse_11.bmp	6	0	4	3	0	0	0	0	0,000000	0	19	1	1	1	1	MEDIENJKULTURWISSENSCHAFTT
FAUST_1[2014-06]	40	-1	1	brady	2	1	target	1	1	729	2	1229	watch_6.bmp	69	3	3	3	16	44	44	0	34,000000	44	19	1	1	1	1	MEDIENJKULTURWISSENSCHAFTT
FAUST_1[2014-06]	40	-1	1	brady	2	2	lure	2	1	1345	3	692	wig_6.bmp	71	0	8	4	0	0	0	0	0,000000	0	19	1	1	1	1	MEDIENJKULTURWISSENSCHAFTT
FAUST_1[2014-06]	40	-1	1	brady	3	3	lure	2	1	1293	3	713	laptop_16.bmp	36	0	4	3	0	0	0	0	0,000000	0	19	1	1	1	1	MEDIENJKULTURWISSENSCHAFTT
FAUST_1[2014-06]	40	-1	1	brady	2	2	target	1	1	953	2	821	doorknob_10.bmp	19	4	6	4	11	11	40	40	25,000000	40	19	1	1	1	1	MEDIENJKULTURWISSENSCHAFTT
FAUST_1[2014-06]	40	-1	1	brady	3	3	target	1	1	1244	3	809	beanbagchair_12.bmp	5	2	6	4	9	59	0	0	34,000000	59	19	1	1	1	1	MEDIENJKULTURWISSENSCHAFTT
FAUST_1[2014-06]	40	-1	1	brady	1	1	lure	2	1	1361	2	732	lawnmower_15.bmp	37	0	2	2	0	0	0	0	0,000000	0	19	1	1	1	1	MEDIENJKULTURWISSENSCHAFTT
FAUST_1[2014-06]	40	-1	1	brady	3	3	target	2	0	1134	3	1119	tv_8.bmp	66	2	6	4	29	34	0	0	31,000000	34	19	1	1	1	1	MEDIENJKULTURWISSENSCHAFTT
FAUST_1[2014-06]	40	-1	1	brady	1	2	lure	2	1	1406	3	903	cake_3.bmp	8	0	3	3	0	0	0	0	0,000000	0	19	1	1	1	1	MEDIENJKULTURWISSENSCHAFTT
FAUST_1[2014-06]	40	-1	1	brady	1	1	lure	2	1	1014	3	656	trophy_14.bmp	62	0	3	1	0	0	0	0	0,000000	0	19	1	1	1	1	MEDIENJKULTURWISSENSCHAFTT
FAUST_1[2014-06]	40	-1	1	brady	1	2	target	1	1	682	3	835	shoe_15.bmp	54	1	9	4	45	0	0	0	45,000000	45	19	1	1	1	1	MEDIENJKULTURWISSENSCHAFTT
FAUST_1[2014-06]	40	-1	1	brady	1	2	target	2	0	1319	3	584	coffee_14.bmp	18	1	8	4	5	0	0	0	5,000000	5	19	1	1	1	1	MEDIENJKULTURWISSENSCHAFTT
FAUST_1[2014-06]	40	-1	1	brady	2	2	target	1	1	783	3	693	horseshoe_4.bmp	33	3	8	4	7	7	58	0	24,000000	58	19	1	1	1	1	MEDIENJKULTURWISSENSCHAFTT
FAUST_1[2014-06]	40	-1	1	brady	2	2	target	1	1	781	3	799	mic_10.bmp	39	3	9	4	16	50	50	0	38,000000	50	19	1	1	1	1	MEDIENJKULTURWISSENSCHAFTT
FAUST_1[2014-06]	40	-1	1	brady	2	1	target	1	1	831	3	879	flashlight_1.bmp	23	3	3	3	14	48	48	0	36,000000	48	19	1	1	1	1	MEDIENJKULTURWISSENSCHAFTT
FAUST_1[2014-06]	40	-1	1	brady	2	1	target	1	1	650	3	620	hairbrush_17.bmp	29	3	3	3	9	9	54	0	24,000000	54	19	1	1	1	1	MEDIENJKULTURWISSENSCHAFTT
FAUST_1[2014-06]	40	-1	1	brady	2	2	lure	2	1	1802	3	819	tricycle_10.bmp	61	0	8	4	0	0	0	0	0,000000	0	19	1	1	1	1	MEDIENJKULTURWISSENSCHAFTT
FAUST_1[2014-06]	40	-1	1	brady	1	1	target	1	1	1258	3	859	cat_10.bmp	12	1	1	1	25	0	0	0	25,000000	25	19	1	1	1	1	MEDIENJKULTURWISSENSCHAFTT
FAUST_1[2014-06]	40	-1	1	brady	2	1	lure	2	1	1287	3	606	glove_10.bmp	26	0	5	2	0	0	0	0	0,000000	0	19	1	1	1	1	MEDIENJKULTURWISSENSCHAFTT
FAUST_1[2014-06]	40	-1	1	brady	3	3	lure	2	1	1320	3	957	backpack_12.bmp	3	0	3	2	0	0	0	0	0,000000	0	19	1	1	1	1	MEDIENJKULTURWISSENSCHAFTT
FAUST_1[2014-06]	40	-1	1	brady	1	2	target	1	1	1042	3	755	circuitboard_13.bmp	17	1	8	4	8	0	0	0	8,000000	8	19	1	1	1	1	MEDIENJKULTURWISSENSCHAFTT
FAUST_1[2014-06]	40	-1	1	brady	1	1	lure	2	1	1173	3	544	videogamecontroller_13.bmp	68	0	2	2	0	0	0	0	0,000000	0	19	1	1	1	1	MEDIENJKULTURWISSENSCHAFTT
FAUST_1[2014-06]	40	-1	1	brady	3	3	lure	1	0	2055	2	693	printer_16.bmp	45	0	4	2	0	0	0	0	0,000000	0	19	1	1	1	1	MEDIENJKULTURWISSENSCHAFTT
FAUST_1[2014-06]	40	-1	1	brady	3	3	target	1	1	1003	3	541	garbagecan_13.bmp	24	2	6	4	2	56	0	0	29,000000	56	19	1	1	1	1	MEDIENJKULTURWISSENSCHAFTT
FAUST_1[2014-06]	40	-1	1	brady	1	1	target	1	1	968	3	653	rusdoll_6.bmp	50	1	1	1	41	0	0	0	41,000000	41	19	1	1	1	1	MEDIENJKULTURWISSENSCHAFTT
FAUST_1[2014-06]	40	-1	1	brady	2	2	lure	2	1	1463	3	431	bowlingpin_4.bmp	7	0	8	4	0	0	0	0	0,000000	0	19	1	1	1	1	MEDIENJKULTURWISSENSCHAFTT
FAUST_1[2014-06]	40	-1	1	brady	1	2	lure	2	1	1662	3	792	sink_10.bmp	56	0	3	3	0	0	0	0	0,000000	0	19	1	1	1	1	MEDIENJKULTURWISSENSCHAFTT
