experiment	subject	block	trial	order	material	repeated	related	probetype	response	correct	rt	math_response	math_correctresponse	math_correct	math_rt	confidence	confidence_rt	probe	item1	item2	item3	item4	item5	item6	age	sex	handedness	color_vision	mother_tongue	occupation
FAUST_1[2014-06]	40	1	15	1	1	1	1	1	2	0	1799	1	2	0	1471	2	2781	BECHER	gold	becher	messing	silber	bronze	silber	19	1	1	1	1	MEDIENJKULTURWISSENSCHAFTT
FAUST_1[2014-06]	40	1	13	1	1	2	1	1	2	0	2346	2	2	1	1736	2	1855	GASPEDAL	nelke	gaspedal	rose	lilie	tulpe	gaspedal	19	1	1	1	1	MEDIENJKULTURWISSENSCHAFTT
FAUST_1[2014-06]	40	1	28	1	1	1	2	1	1	1	1228	1	1	1	2095	3	1947	SEKUNDE	jahr	stunde	minute	computer	sekunde	computer	19	1	1	1	1	MEDIENJKULTURWISSENSCHAFTT
FAUST_1[2014-06]	40	1	2	1	1	2	2	1	1	1	2304	2	2	1	1900	3	3386	STICKSTOFF	sauerstoff	stickstoff	helium	stickstoff	nordamerika	kohlenstoff	19	1	1	1	1	MEDIENJKULTURWISSENSCHAFTT
FAUST_1[2014-06]	40	1	32	1	1	1	1	1	2	0	1564	2	2	1	1880	2	984	KINO	hammer	meißel	bohrer	meißel	säge	kino	19	1	1	1	1	MEDIENJKULTURWISSENSCHAFTT
FAUST_1[2014-06]	40	1	3	1	1	2	1	1	1	1	1857	1	1	1	3362	3	3112	NUDELHOLZ	brieföffner	büroklammer	nudelholz	lineal	nudelholz	locher	19	1	1	1	1	MEDIENJKULTURWISSENSCHAFTT
FAUST_1[2014-06]	40	1	7	1	1	1	2	1	1	1	1777	2	2	1	1661	3	3753	ZOMBIE	vampir	hexe	ameise	zombie	ameise	dämon	19	1	1	1	1	MEDIENJKULTURWISSENSCHAFTT
FAUST_1[2014-06]	40	1	17	1	1	2	2	1	1	1	1554	1	1	1	1082	4	1883	QUADRAT	quadrat	dreieck	kilometer	rechteck	quadrat	viereck	19	1	1	1	1	MEDIENJKULTURWISSENSCHAFTT
FAUST_1[2014-06]	40	1	31	1	1	1	1	1	2	0	1537	1	2	0	2266	3	1705	ZEITUNG	flöte	oboe	trompete	oboe	zeitung	klarinette	19	1	1	1	1	MEDIENJKULTURWISSENSCHAFTT
FAUST_1[2014-06]	40	1	23	1	1	2	1	1	1	1	1471	1	1	1	1117	4	1353	STECKNADEL	stecknadel	wolle	flanell	seide	baumwolle	stecknadel	19	1	1	1	1	MEDIENJKULTURWISSENSCHAFTT
FAUST_1[2014-06]	40	1	10	1	1	1	2	1	1	1	1605	1	1	1	2583	4	4449	LÖFFEL	messer	gabel	basteln	teelöffel	löffel	basteln	19	1	1	1	1	MEDIENJKULTURWISSENSCHAFTT
FAUST_1[2014-06]	40	1	30	1	1	2	2	1	1	1	1199	2	2	1	1937	4	2070	SYNAGOGE	synagoge	moschee	kapelle	arm	synagoge	kirche	19	1	1	1	1	MEDIENJKULTURWISSENSCHAFTT
FAUST_1[2014-06]	40	1	27	1	1	1	1	2	2	1	1762	1	1	1	1729	3	1076	FÜLLER	eiche	bleistift	buche	weide	tanne	buche	19	1	1	1	1	MEDIENJKULTURWISSENSCHAFTT
FAUST_1[2014-06]	40	1	14	1	1	2	1	2	2	1	1726	2	2	1	1950	4	1955	BLAU	gesamtschule	lila	hauptschule	lila	berufsschule	gymnasium	19	1	1	1	1	MEDIENJKULTURWISSENSCHAFTT
FAUST_1[2014-06]	40	1	12	1	1	1	2	2	1	0	5503	1	1	1	2684	2	1877	SOHN	meer	tochter	mutter	vater	onkel	meer	19	1	1	1	1	MEDIENJKULTURWISSENSCHAFTT
FAUST_1[2014-06]	40	1	29	1	1	2	2	2	1	0	2250	2	1	0	2073	2	1693	ANGST	ärger	freude	trauer	scham	trauer	brandenburg	19	1	1	1	1	MEDIENJKULTURWISSENSCHAFTT
FAUST_1[2014-06]	40	1	11	1	1	1	1	2	2	1	1944	1	1	1	2002	3	1920	CHACHACHA	peugeot	porsche	audi	tango	porsche	mercedes	19	1	1	1	1	MEDIENJKULTURWISSENSCHAFTT
FAUST_1[2014-06]	40	1	18	1	1	2	1	2	2	1	1459	1	1	1	1184	3	2019	TISCH	leopard	panther	regal	tiger	puma	regal	19	1	1	1	1	MEDIENJKULTURWISSENSCHAFTT
FAUST_1[2014-06]	40	1	24	1	1	1	2	2	2	1	1216	2	1	0	682	3	1298	REGEN	boot	hagel	schnee	sonnenschein	boot	nebel	19	1	1	1	1	MEDIENJKULTURWISSENSCHAFTT
FAUST_1[2014-06]	40	1	6	1	1	2	2	2	2	1	3186	1	2	0	2653	2	2190	PIZZA	mozart	pommes	döner	pommes	hamburger	bratwurst	19	1	1	1	1	MEDIENJKULTURWISSENSCHAFTT
FAUST_1[2014-06]	40	1	22	1	1	1	1	2	2	1	4040	2	1	0	1417	2	1409	GRIPPE	lehrer	pfarrer	röteln	arzt	richter	lehrer	19	1	1	1	1	MEDIENJKULTURWISSENSCHAFTT
FAUST_1[2014-06]	40	1	8	1	1	2	1	2	2	1	2125	2	2	1	2954	3	2126	SCHACH	fußball	skifahren	scrabble	golf	scrabble	tennis	19	1	1	1	1	MEDIENJKULTURWISSENSCHAFTT
FAUST_1[2014-06]	40	1	26	1	1	1	2	2	2	1	3604	2	1	0	362	3	1635	PLUTO	jupiter	tomaten	saturn	tomaten	merkur	venus	19	1	1	1	1	MEDIENJKULTURWISSENSCHAFTT
FAUST_1[2014-06]	40	1	25	1	1	2	2	2	1	0	1522	2	2	1	1549	3	1404	SCHUPPEN	hütte	rum	baracke	scheune	baracke	blockhaus	19	1	1	1	1	MEDIENJKULTURWISSENSCHAFTT
FAUST_1[2014-06]	40	1	4	1	1	1	1	3	2	1	1732	-1	1	0	0	3	2992	ROUGE	hafer	dinkel	jacke	weizen	dinkel	roggen	19	1	1	1	1	MEDIENJKULTURWISSENSCHAFTT
FAUST_1[2014-06]	40	1	1	1	1	2	1	3	2	1	1953	-1	1	0	0	3	2187	BOMBE	lakritz	horrorfilm	bonbons	marzipan	horrorfilm	karamell	19	1	1	1	1	MEDIENJKULTURWISSENSCHAFTT
FAUST_1[2014-06]	40	1	9	1	1	1	1	3	2	1	2069	1	2	0	1604	3	1364	CHEMIE	hören	fühlen	riechen	schmecken	kokain	schmecken	19	1	1	1	1	MEDIENJKULTURWISSENSCHAFTT
FAUST_1[2014-06]	40	1	16	1	1	2	1	3	2	1	2846	1	1	1	1581	3	1386	NOMEN	rhein	dackel	weser	donau	elbe	dackel	19	1	1	1	1	MEDIENJKULTURWISSENSCHAFTT
FAUST_1[2014-06]	40	1	21	1	1	1	1	3	2	1	1627	1	2	0	908	3	1371	KAISER	jungfrau	zwilling	jungfrau	schütze	steinbock	hamburg	19	1	1	1	1	MEDIENJKULTURWISSENSCHAFTT
FAUST_1[2014-06]	40	1	20	1	1	2	1	3	2	1	1388	2	1	0	1578	3	1880	LACHS	majoran	apfel	birne	banane	erdbeere	majoran	19	1	1	1	1	MEDIENJKULTURWISSENSCHAFTT
FAUST_1[2014-06]	40	1	19	1	1	1	1	3	2	1	1635	1	1	1	2260	4	1513	KEROSIN	straßenbahn	herz	fahrrad	bus	straßenbahn	zug	19	1	1	1	1	MEDIENJKULTURWISSENSCHAFTT
FAUST_1[2014-06]	40	1	5	1	1	2	1	3	2	1	1295	1	1	1	2979	3	1433	FINK	schweiz	pfennig	schweiz	dollar	cent	euro	19	1	1	1	1	MEDIENJKULTURWISSENSCHAFTT
FAUST_1[2014-06]	40	2	15	1	2	1	1	1	1	1	1173	1	1	1	1689	4	1629	Hanger2.bmp	Shell9.bmp	Hanger2.bmp	Shell18.bmp	Shell1.bmp	Shell9.bmp	Shell17.bmp	19	1	1	1	1	MEDIENJKULTURWISSENSCHAFTT
FAUST_1[2014-06]	40	2	14	1	2	2	1	1	1	1	1366	2	1	0	2083	3	1589	Chocolate24.bmp	Button14.bmp	Button18.bmp	Chocolate24.bmp	Button3.bmp	Button10.bmp	Chocolate24.bmp	19	1	1	1	1	MEDIENJKULTURWISSENSCHAFTT
FAUST_1[2014-06]	40	2	8	1	2	1	2	1	1	1	1402	1	2	0	1896	3	1639	Glass12.bmp	Sweet10.bmp	Glass16.bmp	Glass12.bmp	Sweet10.bmp	Glass4.bmp	Glass3.bmp	19	1	1	1	1	MEDIENJKULTURWISSENSCHAFTT
FAUST_1[2014-06]	40	2	22	1	2	2	2	1	1	1	1375	1	2	0	1860	3	2115	Umbrella7.bmp	Umbrella17.bmp	Screw18.bmp	Umbrella6.bmp	Umbrella7.bmp	Umbrella19.bmp	Umbrella7.bmp	19	1	1	1	1	MEDIENJKULTURWISSENSCHAFTT
FAUST_1[2014-06]	40	2	5	1	2	1	1	1	2	0	1406	2	1	0	1946	4	1594	Strawberry18.bmp	Man15.bmp	Strawberry18.bmp	Man4.bmp	Man24.bmp	Man10.bmp	Man24.bmp	19	1	1	1	1	MEDIENJKULTURWISSENSCHAFTT
FAUST_1[2014-06]	40	2	9	1	2	2	1	1	1	1	1377	1	1	1	1894	3	1596	String6.bmp	String6.bmp	Holly17.bmp	Holly14.bmp	Holly20.bmp	String6.bmp	Holly11.bmp	19	1	1	1	1	MEDIENJKULTURWISSENSCHAFTT
FAUST_1[2014-06]	40	2	18	1	2	1	2	1	1	1	1403	1	1	1	1730	4	1574	Stapler8.bmp	Tomato18.bmp	Stapler6.bmp	Tomato18.bmp	Stapler10.bmp	Stapler8.bmp	Stapler7.bmp	19	1	1	1	1	MEDIENJKULTURWISSENSCHAFTT
FAUST_1[2014-06]	40	2	1	1	2	2	2	1	1	1	1963	1	2	0	1957	4	2333	Present3.bmp	Present3.bmp	Present14.bmp	Present9.bmp	Pen10.bmp	Present3.bmp	Present17.bmp	19	1	1	1	1	MEDIENJKULTURWISSENSCHAFTT
FAUST_1[2014-06]	40	2	19	1	2	1	1	2	2	1	1316	1	2	0	1517	4	1572	Toothbrush9.bmp	Key11.bmp	Key20.bmp	Key13.bmp	Toothbrush12.bmp	Key20.bmp	Key5.bmp	19	1	1	1	1	MEDIENJKULTURWISSENSCHAFTT
FAUST_1[2014-06]	40	2	7	1	2	2	1	2	2	1	1463	1	2	0	2205	3	1750	Onion7.bmp	Apple10.bmp	Onion13.bmp	Apple24.bmp	Apple5.bmp	Apple21.bmp	Onion13.bmp	19	1	1	1	1	MEDIENJKULTURWISSENSCHAFTT
FAUST_1[2014-06]	40	2	3	1	2	1	2	2	2	1	1618	1	2	0	1907	3	1375	Scissors14.bmp	Scissors1.bmp	Scissors11.bmp	Daff1.bmp	Scissors23.bmp	Scissors3.bmp	Daff1.bmp	19	1	1	1	1	MEDIENJKULTURWISSENSCHAFTT
FAUST_1[2014-06]	40	2	20	1	2	2	2	2	1	0	2052	1	1	1	1901	3	1484	Plug4.bmp	Plug18.bmp	Plug6.bmp	Plug8.bmp	Plug6.bmp	Plug9.bmp	Varnish14.bmp	19	1	1	1	1	MEDIENJKULTURWISSENSCHAFTT
FAUST_1[2014-06]	40	2	6	1	2	1	1	2	2	1	1770	1	1	1	1916	3	986	Swirl13.bmp	Swirl10.bmp	Jigsaw18.bmp	Jigsaw17.bmp	Jigsaw11.bmp	Jigsaw14.bmp	Jigsaw11.bmp	19	1	1	1	1	MEDIENJKULTURWISSENSCHAFTT
FAUST_1[2014-06]	40	2	11	1	2	2	1	2	2	1	2200	1	2	0	2276	3	1372	Leaf22.bmp	Leaf10.bmp	Paperclip4.bmp	Paperclip13.bmp	Paperclip6.bmp	Paperclip14.bmp	Leaf10.bmp	19	1	1	1	1	MEDIENJKULTURWISSENSCHAFTT
FAUST_1[2014-06]	40	2	4	1	2	1	2	2	1	0	3152	1	2	0	1462	2	1483	Bun17.bmp	Bun12.bmp	Bracelet18.bmp	Bun5.bmp	Bracelet18.bmp	Bun22.bmp	Bun19.bmp	19	1	1	1	1	MEDIENJKULTURWISSENSCHAFTT
FAUST_1[2014-06]	40	2	16	1	2	2	2	2	2	1	2995	2	1	0	1990	2	1856	Biscuit17.bmp	Biscuit25.bmp	Biscuit4.bmp	Biscuit20.bmp	Biscuit9.bmp	Biscuit20.bmp	Hand17.bmp	19	1	1	1	1	MEDIENJKULTURWISSENSCHAFTT
FAUST_1[2014-06]	40	2	2	1	2	1	1	3	2	1	1414	2	1	0	2200	3	1250	Bag4.bmp	Candle20.bmp	Lipstick9.bmp	Candle17.bmp	Candle10.bmp	Candle1.bmp	Candle10.bmp	19	1	1	1	1	MEDIENJKULTURWISSENSCHAFTT
FAUST_1[2014-06]	40	2	21	1	2	2	1	3	2	1	2949	1	2	0	1963	3	1732	Keys7.bmp	Mushroom25.bmp	Nut19.bmp	Nut11.bmp	Nut21.bmp	Mushroom25.bmp	Nut2.bmp	19	1	1	1	1	MEDIENJKULTURWISSENSCHAFTT
FAUST_1[2014-06]	40	2	10	1	2	1	1	3	2	1	1032	1	2	0	1625	3	1323	Fudge15.bmp	Ginger15.bmp	Ginger10.bmp	Ginger15.bmp	Car12.bmp	Ginger5.bmp	Ginger17.bmp	19	1	1	1	1	MEDIENJKULTURWISSENSCHAFTT
FAUST_1[2014-06]	40	2	13	1	2	2	1	3	2	1	1156	1	2	0	1878	4	803	Pear18.bmp	Brocolli14.bmp	Cake16.bmp	Cake24.bmp	Cake18.bmp	Brocolli14.bmp	Cake7.bmp	19	1	1	1	1	MEDIENJKULTURWISSENSCHAFTT
FAUST_1[2014-06]	40	2	17	1	2	1	1	3	2	1	1093	1	1	1	2077	4	1370	Feather12.bmp	Star17.bmp	Star1.bmp	Star19.bmp	Star7.bmp	Fork7.bmp	Star7.bmp	19	1	1	1	1	MEDIENJKULTURWISSENSCHAFTT
FAUST_1[2014-06]	40	2	12	1	2	2	1	3	2	1	1147	1	1	1	2125	3	1112	Flower13.bmp	Chilli19.bmp	Coins8.bmp	Coins14.bmp	Coins3.bmp	Chilli19.bmp	Coins12.bmp	19	1	1	1	1	MEDIENJKULTURWISSENSCHAFTT
FAUST_1[2014-06]	40	3	7	1	3	1	1	1	1	1	2600	1	1	1	1748	3	1285	glove_15.bmp	horseshoe_12.bmp	horseshoe_4.bmp	horseshoe_5.bmp	horseshoe_4.bmp	horseshoe_6.bmp	glove_15.bmp	19	1	1	1	1	MEDIENJKULTURWISSENSCHAFTT
FAUST_1[2014-06]	40	3	29	1	3	2	1	1	1	1	1994	1	1	1	1560	3	1704	bowlingpin_1.bmp	bowlingpin_1.bmp	tv_16.bmp	tv_8.bmp	tv_7.bmp	tv_4.bmp	bowlingpin_1.bmp	19	1	1	1	1	MEDIENJKULTURWISSENSCHAFTT
FAUST_1[2014-06]	40	3	24	1	3	1	2	1	1	1	2549	2	1	0	1871	2	1382	trumpet_17.bmp	cellphone_3.bmp	trumpet_1.bmp	trumpet_17.bmp	trumpet_6.bmp	cellphone_3.bmp	trumpet_3.bmp	19	1	1	1	1	MEDIENJKULTURWISSENSCHAFTT
FAUST_1[2014-06]	40	3	16	1	3	2	2	1	1	1	1296	1	1	1	1695	3	1167	mic_3.bmp	mic_3.bmp	watch_6.bmp	mic_5.bmp	mic_12.bmp	mic_10.bmp	mic_3.bmp	19	1	1	1	1	MEDIENJKULTURWISSENSCHAFTT
FAUST_1[2014-06]	40	3	10	1	3	1	1	1	2	0	4570	2	2	1	1820	3	1612	iceskates_7.bmp	goggle_4.bmp	goggle_1.bmp	iceskates_7.bmp	goggle_1.bmp	goggle_3.bmp	goggle_9.bmp	19	1	1	1	1	MEDIENJKULTURWISSENSCHAFTT
FAUST_1[2014-06]	40	3	13	1	3	2	1	1	1	1	1802	2	2	1	2099	4	1633	doorknocker_2.bmp	doorknocker_2.bmp	abacus_2.bmp	doorknocker_2.bmp	abacus_4.bmp	abacus_6.bmp	abacus_7.bmp	19	1	1	1	1	MEDIENJKULTURWISSENSCHAFTT
FAUST_1[2014-06]	40	3	17	1	3	1	2	1	2	0	4024	2	2	1	1806	2	1325	shredder_7.bmp	shredder_15.bmp	shredder_5.bmp	shredder_7.bmp	babycrib_9.bmp	shredder_1.bmp	babycrib_9.bmp	19	1	1	1	1	MEDIENJKULTURWISSENSCHAFTT
FAUST_1[2014-06]	40	3	14	1	3	2	2	1	1	1	1588	1	1	1	1456	3	1818	shoe_9.bmp	shoe_9.bmp	shoe_13.bmp	shoe_9.bmp	shoe_17.bmp	shoe_7.bmp	flashlight_1.bmp	19	1	1	1	1	MEDIENJKULTURWISSENSCHAFTT
FAUST_1[2014-06]	40	3	21	1	3	1	1	1	2	0	2583	1	1	1	1775	3	1327	printer_3.bmp	tricycle_2.bmp	printer_3.bmp	tricycle_8.bmp	tricycle_5.bmp	tricycle_15.bmp	tricycle_5.bmp	19	1	1	1	1	MEDIENJKULTURWISSENSCHAFTT
FAUST_1[2014-06]	40	3	31	1	3	2	1	1	1	1	2047	2	1	0	1722	2	1778	scooter_8.bmp	scooter_8.bmp	easteregg_17.bmp	easteregg_9.bmp	easteregg_14.bmp	scooter_8.bmp	easteregg_5.bmp	19	1	1	1	1	MEDIENJKULTURWISSENSCHAFTT
FAUST_1[2014-06]	40	3	4	1	3	1	2	1	1	1	1486	2	1	0	2132	2	1132	hairdryer_13.bmp	hairdryer_13.bmp	orifan_14.bmp	hairdryer_14.bmp	hairdryer_7.bmp	orifan_14.bmp	hairdryer_2.bmp	19	1	1	1	1	MEDIENJKULTURWISSENSCHAFTT
FAUST_1[2014-06]	40	3	15	1	3	2	2	1	1	1	1414	1	1	1	2016	3	1293	wig_7.bmp	wig_1.bmp	wig_7.bmp	wig_9.bmp	wig_7.bmp	sofa_13.bmp	wig_12.bmp	19	1	1	1	1	MEDIENJKULTURWISSENSCHAFTT
FAUST_1[2014-06]	40	3	5	1	3	1	1	2	1	0	1583	1	1	1	1863	4	1578	watergun_7.bmp	coffee_2.bmp	coffee_1.bmp	watergun_8.bmp	coffee_1.bmp	coffee_14.bmp	coffee_7.bmp	19	1	1	1	1	MEDIENJKULTURWISSENSCHAFTT
FAUST_1[2014-06]	40	3	19	1	3	2	1	2	2	1	1025	1	2	0	1846	3	1376	windchime_16.bmp	carabiner_9.bmp	windchime_10.bmp	carabiner_6.bmp	windchime_10.bmp	carabiner_2.bmp	carabiner_5.bmp	19	1	1	1	1	MEDIENJKULTURWISSENSCHAFTT
FAUST_1[2014-06]	40	3	1	1	3	1	2	2	1	0	1258	1	1	1	2145	3	1919	plant_5.bmp	plant_8.bmp	saltpeppershake_9.bmp	plant_13.bmp	plant_14.bmp	plant_2.bmp	saltpeppershake_9.bmp	19	1	1	1	1	MEDIENJKULTURWISSENSCHAFTT
FAUST_1[2014-06]	40	3	20	1	3	2	2	2	1	0	1158	2	1	0	1976	3	1210	trunk_2.bmp	trunk_3.bmp	trunk_1.bmp	trunk_7.bmp	backpack_6.bmp	trunk_1.bmp	trunk_5.bmp	19	1	1	1	1	MEDIENJKULTURWISSENSCHAFTT
FAUST_1[2014-06]	40	3	8	1	3	1	1	2	2	1	3630	2	2	1	2013	3	1633	laptop_15.bmp	circuitboard_13.bmp	circuitboard_8.bmp	laptop_7.bmp	circuitboard_2.bmp	circuitboard_4.bmp	circuitboard_8.bmp	19	1	1	1	1	MEDIENJKULTURWISSENSCHAFTT
FAUST_1[2014-06]	40	3	3	1	3	2	1	2	1	0	1273	2	2	1	1910	3	1315	birdhouse_9.bmp	birdhouse_6.bmp	skateboard_3.bmp	skateboard_11.bmp	skateboard_14.bmp	birdhouse_6.bmp	skateboard_16.bmp	19	1	1	1	1	MEDIENJKULTURWISSENSCHAFTT
FAUST_1[2014-06]	40	3	18	1	3	1	2	2	2	1	1271	1	1	1	1781	4	1171	fan_15.bmp	fan_1.bmp	fan_11.bmp	trophy_6.bmp	fan_10.bmp	trophy_6.bmp	fan_17.bmp	19	1	1	1	1	MEDIENJKULTURWISSENSCHAFTT
FAUST_1[2014-06]	40	3	26	1	3	2	2	2	2	1	1830	1	1	1	1436	3	1218	carriage_3.bmp	carriage_14.bmp	carriage_12.bmp	chair_16.bmp	carriage_14.bmp	carriage_2.bmp	carriage_9.bmp	19	1	1	1	1	MEDIENJKULTURWISSENSCHAFTT
FAUST_1[2014-06]	40	3	23	1	3	1	1	2	2	1	1378	1	2	0	1305	3	1209	sink_6.bmp	sink_15.bmp	glasses_13.bmp	glasses_6.bmp	glasses_8.bmp	glasses_13.bmp	glasses_9.bmp	19	1	1	1	1	MEDIENJKULTURWISSENSCHAFTT
FAUST_1[2014-06]	40	3	2	1	3	2	1	2	2	1	1325	1	2	0	1781	4	1608	cherubstatue_12.bmp	cherubstatue_10.bmp	garbagecan_2.bmp	garbagecan_17.bmp	garbagecan_10.bmp	garbagecan_13.bmp	cherubstatue_10.bmp	19	1	1	1	1	MEDIENJKULTURWISSENSCHAFTT
FAUST_1[2014-06]	40	3	28	1	3	1	2	2	2	1	968	1	1	1	1660	3	984	cheesegrater_5.bmp	camera_6.bmp	cheesegrater_15.bmp	camera_6.bmp	cheesegrater_11.bmp	cheesegrater_14.bmp	cheesegrater_8.bmp	19	1	1	1	1	MEDIENJKULTURWISSENSCHAFTT
FAUST_1[2014-06]	40	3	22	1	3	2	2	2	2	1	1718	1	2	0	1758	3	879	turtle_12.bmp	turtle_2.bmp	turtle_6.bmp	speaker_6.bmp	turtle_11.bmp	turtle_6.bmp	turtle_7.bmp	19	1	1	1	1	MEDIENJKULTURWISSENSCHAFTT
FAUST_1[2014-06]	40	3	6	1	3	1	1	3	2	1	1245	1	2	0	1805	4	1200	rusdoll_1.bmp	saddle_4.bmp	saddle_3.bmp	saddle_5.bmp	saddle_4.bmp	saddle_8.bmp	videogamecontroller_2.bmp	19	1	1	1	1	MEDIENJKULTURWISSENSCHAFTT
FAUST_1[2014-06]	40	3	9	1	3	2	1	3	2	1	1197	2	2	1	1914	4	1454	router_7.bmp	hairbrush_17.bmp	beanbagchair_17.bmp	beanbagchair_3.bmp	hairbrush_17.bmp	beanbagchair_12.bmp	beanbagchair_14.bmp	19	1	1	1	1	MEDIENJKULTURWISSENSCHAFTT
FAUST_1[2014-06]	40	3	11	1	3	1	1	3	2	1	992	2	2	1	2114	3	1377	hammer_11.bmp	doorknob_10.bmp	doorknob_17.bmp	doorknob_10.bmp	bagel_16.bmp	doorknob_7.bmp	doorknob_14.bmp	19	1	1	1	1	MEDIENJKULTURWISSENSCHAFTT
FAUST_1[2014-06]	40	3	30	1	3	2	1	3	2	1	782	1	1	1	1705	4	983	parfait_4.bmp	ring_15.bmp	ring_11.bmp	remote_2.bmp	ring_7.bmp	ring_8.bmp	remote_2.bmp	19	1	1	1	1	MEDIENJKULTURWISSENSCHAFTT
FAUST_1[2014-06]	40	3	12	1	3	1	1	3	2	1	997	1	2	0	1859	3	1141	rollerskates_7.bmp	powerstrip_10.bmp	powerstrip_8.bmp	powerstrip_13.bmp	leatherman_7.bmp	powerstrip_13.bmp	powerstrip_7.bmp	19	1	1	1	1	MEDIENJKULTURWISSENSCHAFTT
FAUST_1[2014-06]	40	3	27	1	3	2	1	3	2	1	848	1	1	1	1835	4	1114	pasta_13.bmp	jacket_7.bmp	guitar_10.bmp	guitar_5.bmp	guitar_7.bmp	jacket_7.bmp	guitar_14.bmp	19	1	1	1	1	MEDIENJKULTURWISSENSCHAFTT
FAUST_1[2014-06]	40	3	25	1	3	1	1	3	2	1	924	1	2	0	1622	4	1029	cake_14.bmp	cat_10.bmp	vase_5.bmp	vase_1.bmp	vase_15.bmp	vase_5.bmp	vase_13.bmp	19	1	1	1	1	MEDIENJKULTURWISSENSCHAFTT
FAUST_1[2014-06]	40	3	32	1	3	2	1	3	2	1	1081	2	1	0	1803	3	1131	lawnmower_13.bmp	highchair_6.bmp	highchair_4.bmp	socks_10.bmp	highchair_3.bmp	socks_10.bmp	highchair_15.bmp	19	1	1	1	1	MEDIENJKULTURWISSENSCHAFTT
FAUST_1[2014-06]	40	2	31	1	1	1	1	1	1	1	1029	2	1	0	1900	4	867	SILBER	silber	tango	walzer	chachacha	foxtrott	chachacha	19	1	1	1	1	MEDIENJKULTURWISSENSCHAFTT
FAUST_1[2014-06]	40	2	17	1	1	2	1	1	1	1	1152	2	1	0	1910	4	1010	VEILCHEN	veilchen	hemd	veilchen	jacke	hose	rock	19	1	1	1	1	MEDIENJKULTURWISSENSCHAFTT
FAUST_1[2014-06]	40	2	8	1	1	1	2	1	1	1	1137	2	1	0	1786	4	1047	MOBILTELEFON	drucker	wasserstoff	computer	kamera	wasserstoff	mobiltelefon	19	1	1	1	1	MEDIENJKULTURWISSENSCHAFTT
FAUST_1[2014-06]	40	2	23	1	1	2	2	1	1	1	1121	2	1	0	1899	3	2203	TISCH	tisch	flanell	sofa	regal	tisch	stuhl	19	1	1	1	1	MEDIENJKULTURWISSENSCHAFTT
FAUST_1[2014-06]	40	2	14	1	1	1	1	1	1	1	2914	1	1	1	1692	2	1710	ERDBEERE	südamerika	australien	nordamerika	asien	erdbeere	australien	19	1	1	1	1	MEDIENJKULTURWISSENSCHAFTT
FAUST_1[2014-06]	40	2	6	1	1	2	1	1	1	1	1163	1	2	0	2486	4	1392	KAROTTEN	schweiz	österreich	karotten	england	karotten	dänemark	19	1	1	1	1	MEDIENJKULTURWISSENSCHAFTT
FAUST_1[2014-06]	40	2	24	1	1	1	2	1	1	1	1750	1	1	1	1875	2	2040	LESEN	hessen	basteln	hessen	lesen	malen	zeichnen	19	1	1	1	1	MEDIENJKULTURWISSENSCHAFTT
FAUST_1[2014-06]	40	2	4	1	1	2	2	1	1	1	1148	2	1	0	2367	3	1699	BOOT	chemie	yacht	boot	kanu	boot	fähre	19	1	1	1	1	MEDIENJKULTURWISSENSCHAFTT
FAUST_1[2014-06]	40	2	25	1	1	1	1	1	1	1	1147	1	2	0	1915	4	965	PRÄPOSITION	kerosin	bleifrei	präposition	diesel	bleifrei	benzin	19	1	1	1	1	MEDIENJKULTURWISSENSCHAFTT
FAUST_1[2014-06]	40	2	13	1	1	2	1	1	1	1	1230	1	2	0	1557	3	1289	SEE	see	brieföffner	see	locher	büroklammer	lineal	19	1	1	1	1	MEDIENJKULTURWISSENSCHAFTT
FAUST_1[2014-06]	40	2	3	1	1	1	2	1	1	1	1225	2	2	1	1758	2	1698	EURO	euro	mark	vampir	cent	dollar	vampir	19	1	1	1	1	MEDIENJKULTURWISSENSCHAFTT
FAUST_1[2014-06]	40	2	21	1	1	2	2	1	1	1	1773	1	1	1	1788	3	1099	SEHEN	hören	sehen	riechen	schmecken	eiche	sehen	19	1	1	1	1	MEDIENJKULTURWISSENSCHAFTT
FAUST_1[2014-06]	40	2	30	1	1	1	1	2	2	1	1259	2	1	0	2244	3	1222	JUNGFRAU	stricknadel	steinbock	nähnadel	häkelnadel	nähnadel	stecknadel	19	1	1	1	1	MEDIENJKULTURWISSENSCHAFTT
FAUST_1[2014-06]	40	2	18	1	1	2	1	2	2	1	1018	2	1	0	1743	3	1139	BLEISTIFT	donau	weser	füller	main	füller	rhein	19	1	1	1	1	MEDIENJKULTURWISSENSCHAFTT
FAUST_1[2014-06]	40	2	20	1	1	1	2	2	2	1	1502	2	1	0	1464	3	1486	TAUBE	amsel	fink	merkur	schwalbe	meise	merkur	19	1	1	1	1	MEDIENJKULTURWISSENSCHAFTT
FAUST_1[2014-06]	40	2	9	1	1	2	2	2	2	1	3043	1	1	1	1492	2	1165	LACHS	makrele	hering	makrele	thunfisch	forelle	synagoge	19	1	1	1	1	MEDIENJKULTURWISSENSCHAFTT
FAUST_1[2014-06]	40	2	2	1	1	1	1	2	2	1	1342	2	1	0	1740	3	1447	BERUFSSCHULE	thymian	rosmarin	thymian	oregano	gymnasium	majoran	19	1	1	1	1	MEDIENJKULTURWISSENSCHAFTT
FAUST_1[2014-06]	40	2	27	1	1	2	1	2	2	1	1147	1	2	0	1245	3	957	LIDSCHATTEN	lippenstift	mumps	windpocken	masern	röteln	lippenstift	19	1	1	1	1	MEDIENJKULTURWISSENSCHAFTT
FAUST_1[2014-06]	40	2	12	1	1	1	2	2	2	1	1299	1	2	0	1752	3	1105	KOMÖDIE	stuttgart	horrorfilm	actionfilm	western	thriller	stuttgart	19	1	1	1	1	MEDIENJKULTURWISSENSCHAFTT
FAUST_1[2014-06]	40	2	32	1	1	2	2	2	2	1	2651	1	2	0	1797	1	1897	VIERECK	dreieck	rechteck	kreis	quadrat	heroin	rechteck	19	1	1	1	1	MEDIENJKULTURWISSENSCHAFTT
FAUST_1[2014-06]	40	2	10	1	1	1	1	2	2	1	2992	1	2	0	2132	1	940	HERZOG	handbremse	rückspiegel	lenkrad	graf	kupplung	lenkrad	19	1	1	1	1	MEDIENJKULTURWISSENSCHAFTT
FAUST_1[2014-06]	40	2	28	1	1	2	1	2	2	1	943	1	2	0	1637	3	1010	GOLF	flöte	oboe	schwimmen	posaune	schwimmen	klarinette	19	1	1	1	1	MEDIENJKULTURWISSENSCHAFTT
FAUST_1[2014-06]	40	2	15	1	1	1	2	2	2	1	2261	2	2	1	1813	3	908	ROT	halma	lila	halma	grün	blau	gelb	19	1	1	1	1	MEDIENJKULTURWISSENSCHAFTT
FAUST_1[2014-06]	40	2	16	1	1	2	2	2	2	1	1422	1	2	0	1966	4	1571	MUTTER	sohn	tochter	vater	onkel	flasche	tochter	19	1	1	1	1	MEDIENJKULTURWISSENSCHAFTT
FAUST_1[2014-06]	40	2	29	1	1	1	1	3	2	1	1776	1	2	0	1790	3	1041	BIENE	kopf	arm	nudelholz	hand	kopf	bein	19	1	1	1	1	MEDIENJKULTURWISSENSCHAFTT
FAUST_1[2014-06]	40	2	22	1	1	2	1	3	2	1	998	2	1	0	1725	3	1325	FREUDE	porsche	herz	volvo	herz	peugeot	audi	19	1	1	1	1	MEDIENJKULTURWISSENSCHAFTT
FAUST_1[2014-06]	40	2	26	1	1	1	1	3	2	1	1008	2	1	0	2094	3	1085	BEETHOVEN	dinkel	roggen	gerste	dinkel	nebel	weizen	19	1	1	1	1	MEDIENJKULTURWISSENSCHAFTT
FAUST_1[2014-06]	40	2	11	1	1	2	1	3	2	1	899	1	1	1	2309	3	1054	DOGGE	sekunde	zange	sekunde	hammer	meißel	bohrer	19	1	1	1	1	MEDIENJKULTURWISSENSCHAFTT
FAUST_1[2014-06]	40	2	5	1	1	1	1	3	2	1	1055	1	1	1	1802	3	1160	TEELÖFFEL	gummibärchen	zug	lakritz	bonbons	lakritz	marzipan	19	1	1	1	1	MEDIENJKULTURWISSENSCHAFTT
FAUST_1[2014-06]	40	2	7	1	1	2	1	3	2	1	1045	1	1	1	1759	4	998	PIZZA	gin	rum	kino	whiskey	tequila	kino	19	1	1	1	1	MEDIENJKULTURWISSENSCHAFTT
FAUST_1[2014-06]	40	2	19	1	1	1	1	3	2	1	937	1	1	1	1716	3	1062	PANTHER	pistole	dolch	bombe	dolch	scheune	schwert	19	1	1	1	1	MEDIENJKULTURWISSENSCHAFTT
FAUST_1[2014-06]	40	2	1	1	1	2	1	3	2	1	1071	1	1	1	1875	3	1283	METER	lehrer	zeitung	radio	fernsehen	buch	lehrer	19	1	1	1	1	MEDIENJKULTURWISSENSCHAFTT
FAUST_1[2014-06]	40	3	1	1	2	1	1	1	1	1	1295	1	1	1	2093	4	1203	Lipstick9.bmp	Star1.bmp	Star2.bmp	Star19.bmp	Lipstick9.bmp	Star2.bmp	Star17.bmp	19	1	1	1	1	MEDIENJKULTURWISSENSCHAFTT
FAUST_1[2014-06]	40	3	12	1	2	2	1	1	1	1	1807	1	1	1	2280	3	1315	Jigsaw11.bmp	Jigsaw11.bmp	Fudge15.bmp	Fudge20.bmp	Fudge17.bmp	Fudge5.bmp	Jigsaw11.bmp	19	1	1	1	1	MEDIENJKULTURWISSENSCHAFTT
FAUST_1[2014-06]	40	3	6	1	2	1	2	1	2	0	2233	2	1	0	2074	2	1864	Stapler9.bmp	Screw10.bmp	Stapler7.bmp	Stapler9.bmp	Screw10.bmp	Stapler10.bmp	Stapler6.bmp	19	1	1	1	1	MEDIENJKULTURWISSENSCHAFTT
FAUST_1[2014-06]	40	3	21	1	2	2	2	1	2	0	1655	1	2	0	1773	2	1418	Keys9.bmp	Bracelet8.bmp	Keys5.bmp	Keys7.bmp	Keys9.bmp	Keys8.bmp	Keys9.bmp	19	1	1	1	1	MEDIENJKULTURWISSENSCHAFTT
FAUST_1[2014-06]	40	3	19	1	2	1	1	1	1	1	1326	1	1	1	1767	3	1615	Feather18.bmp	Sweet22.bmp	Sweet25.bmp	Sweet10.bmp	Feather18.bmp	Sweet18.bmp	Sweet25.bmp	19	1	1	1	1	MEDIENJKULTURWISSENSCHAFTT
FAUST_1[2014-06]	40	3	9	1	2	2	1	1	1	1	1465	2	1	0	2023	3	1125	Hand13.bmp	Hand13.bmp	Ginger17.bmp	Hand13.bmp	Ginger3.bmp	Ginger10.bmp	Ginger5.bmp	19	1	1	1	1	MEDIENJKULTURWISSENSCHAFTT
FAUST_1[2014-06]	40	3	20	1	2	1	2	1	1	1	1228	1	2	0	1777	4	1781	Man24.bmp	Leaf22.bmp	Man4.bmp	Man2.bmp	Man15.bmp	Leaf22.bmp	Man24.bmp	19	1	1	1	1	MEDIENJKULTURWISSENSCHAFTT
FAUST_1[2014-06]	40	3	17	1	2	2	2	1	1	1	900	1	1	1	1729	3	1054	Swirl5.bmp	Swirl5.bmp	Swirl10.bmp	Cake16.bmp	Swirl13.bmp	Swirl1.bmp	Swirl5.bmp	19	1	1	1	1	MEDIENJKULTURWISSENSCHAFTT
FAUST_1[2014-06]	40	3	18	1	2	1	1	2	2	1	2301	2	2	1	1344	2	1250	Mushroom25.bmp	Holly14.bmp	Holly11.bmp	Mushroom14.bmp	Holly20.bmp	Holly3.bmp	Holly14.bmp	19	1	1	1	1	MEDIENJKULTURWISSENSCHAFTT
FAUST_1[2014-06]	40	3	13	1	2	2	1	2	2	1	1337	1	2	0	2176	3	1261	Nut2.bmp	Present14.bmp	Nut19.bmp	Present9.bmp	Nut19.bmp	Present17.bmp	Present2.bmp	19	1	1	1	1	MEDIENJKULTURWISSENSCHAFTT
FAUST_1[2014-06]	40	3	2	1	2	1	2	2	2	1	2958	2	1	0	1985	2	1154	Daff1.bmp	Apple10.bmp	Daff3.bmp	Apple10.bmp	Daff9.bmp	Daff22.bmp	Daff21.bmp	19	1	1	1	1	MEDIENJKULTURWISSENSCHAFTT
FAUST_1[2014-06]	40	3	3	1	2	2	2	2	1	0	1642	1	1	1	1998	3	1315	Plug18.bmp	Bun17.bmp	Plug9.bmp	Plug6.bmp	Plug4.bmp	Plug8.bmp	Plug6.bmp	19	1	1	1	1	MEDIENJKULTURWISSENSCHAFTT
FAUST_1[2014-06]	40	3	22	1	2	1	1	2	1	0	2694	2	1	0	1899	2	1448	Biscuit25.bmp	Pear16.bmp	Biscuit20.bmp	Pear15.bmp	Pear18.bmp	Pear15.bmp	Pear4.bmp	19	1	1	1	1	MEDIENJKULTURWISSENSCHAFTT
FAUST_1[2014-06]	40	3	15	1	2	2	1	2	2	1	1260	1	1	1	1571	3	1253	Bag5.bmp	Bag25.bmp	Toothbrush12.bmp	Toothbrush10.bmp	Toothbrush9.bmp	Bag25.bmp	Toothbrush6.bmp	19	1	1	1	1	MEDIENJKULTURWISSENSCHAFTT
FAUST_1[2014-06]	40	3	11	1	2	1	2	2	2	1	4410	1	1	1	1849	2	1730	Strawberry18.bmp	Chocolate6.bmp	Strawberry14.bmp	Strawberry4.bmp	Chocolate6.bmp	Strawberry21.bmp	Strawberry3.bmp	19	1	1	1	1	MEDIENJKULTURWISSENSCHAFTT
FAUST_1[2014-06]	40	3	5	1	2	2	2	2	2	1	1458	2	1	0	1875	3	1268	Flower17.bmp	Flower3.bmp	Flower13.bmp	Flower18.bmp	Flower13.bmp	Shell17.bmp	Flower14.bmp	19	1	1	1	1	MEDIENJKULTURWISSENSCHAFTT
FAUST_1[2014-06]	40	3	14	1	2	1	1	3	2	1	907	1	1	1	1923	3	841	Chilli22.bmp	Car12.bmp	Car13.bmp	Car14.bmp	Car7.bmp	Car14.bmp	Onion19.bmp	19	1	1	1	1	MEDIENJKULTURWISSENSCHAFTT
FAUST_1[2014-06]	40	3	7	1	2	2	1	3	2	1	2394	1	2	0	1785	4	1546	String6.bmp	Coins14.bmp	Pen5.bmp	Pen10.bmp	Coins14.bmp	Pen17.bmp	Pen1.bmp	19	1	1	1	1	MEDIENJKULTURWISSENSCHAFTT
FAUST_1[2014-06]	40	3	16	1	2	1	1	3	2	1	779	1	2	0	1754	3	1085	Hanger2.bmp	Glass3.bmp	Glass16.bmp	Glass19.bmp	Glass3.bmp	Varnish14.bmp	Glass12.bmp	19	1	1	1	1	MEDIENJKULTURWISSENSCHAFTT
FAUST_1[2014-06]	40	3	10	1	2	2	1	3	2	1	901	1	1	1	2100	3	1416	Candle10.bmp	Paperclip13.bmp	Paperclip14.bmp	Fork14.bmp	Paperclip6.bmp	Fork14.bmp	Paperclip4.bmp	19	1	1	1	1	MEDIENJKULTURWISSENSCHAFTT
FAUST_1[2014-06]	40	3	4	1	2	1	1	3	2	1	1077	2	1	0	1815	4	847	Scissors1.bmp	Key11.bmp	Key20.bmp	Button14.bmp	Key20.bmp	Key5.bmp	Key13.bmp	19	1	1	1	1	MEDIENJKULTURWISSENSCHAFTT
FAUST_1[2014-06]	40	3	8	1	2	2	1	3	2	1	946	1	2	0	1618	3	1014	Brocolli4.bmp	Umbrella7.bmp	Umbrella19.bmp	Tomato2.bmp	Umbrella6.bmp	Umbrella17.bmp	Tomato2.bmp	19	1	1	1	1	MEDIENJKULTURWISSENSCHAFTT
FAUST_1[2014-06]	40	4	12	1	3	1	1	1	1	1	1244	2	2	1	1890	3	1255	printer_1.bmp	watch_14.bmp	watch_7.bmp	watch_6.bmp	watch_3.bmp	watch_6.bmp	printer_1.bmp	19	1	1	1	1	MEDIENJKULTURWISSENSCHAFTT
FAUST_1[2014-06]	40	4	21	1	3	2	1	1	1	1	2463	1	2	0	1913	3	1002	rollerskates_2.bmp	rollerskates_2.bmp	circuitboard_4.bmp	rollerskates_2.bmp	circuitboard_16.bmp	circuitboard_2.bmp	circuitboard_8.bmp	19	1	1	1	1	MEDIENJKULTURWISSENSCHAFTT
FAUST_1[2014-06]	40	4	6	1	3	1	2	1	2	0	1285	1	1	1	2074	2	1062	leatherman_2.bmp	carriage_12.bmp	leatherman_5.bmp	leatherman_14.bmp	leatherman_2.bmp	leatherman_7.bmp	carriage_12.bmp	19	1	1	1	1	MEDIENJKULTURWISSENSCHAFTT
FAUST_1[2014-06]	40	4	1	1	3	2	2	1	1	1	1127	1	1	1	1755	3	1245	sofa_6.bmp	sofa_6.bmp	sofa_12.bmp	cat_1.bmp	sofa_3.bmp	sofa_13.bmp	sofa_6.bmp	19	1	1	1	1	MEDIENJKULTURWISSENSCHAFTT
FAUST_1[2014-06]	40	4	30	1	3	1	1	1	1	1	1675	1	2	0	1676	3	1600	cellphone_4.bmp	glasses_8.bmp	glasses_15.bmp	glasses_9.bmp	glasses_15.bmp	cellphone_4.bmp	glasses_6.bmp	19	1	1	1	1	MEDIENJKULTURWISSENSCHAFTT
FAUST_1[2014-06]	40	4	27	1	3	2	1	1	1	1	1267	1	1	1	1605	3	1106	glove_8.bmp	glove_8.bmp	beanbagchair_14.bmp	beanbagchair_17.bmp	glove_8.bmp	beanbagchair_12.bmp	beanbagchair_15.bmp	19	1	1	1	1	MEDIENJKULTURWISSENSCHAFTT
FAUST_1[2014-06]	40	4	11	1	3	1	2	1	2	0	2652	1	2	0	1658	3	1011	bagel_16.bmp	chair_3.bmp	bagel_12.bmp	bagel_16.bmp	bagel_14.bmp	chair_3.bmp	bagel_4.bmp	19	1	1	1	1	MEDIENJKULTURWISSENSCHAFTT
FAUST_1[2014-06]	40	4	3	1	3	2	2	1	1	1	1071	2	1	0	2164	3	1675	router_12.bmp	easteregg_9.bmp	router_6.bmp	router_12.bmp	router_16.bmp	router_5.bmp	router_12.bmp	19	1	1	1	1	MEDIENJKULTURWISSENSCHAFTT
FAUST_1[2014-06]	40	4	29	1	3	1	1	1	1	1	1258	2	2	1	1999	3	787	backpack_10.bmp	pasta_13.bmp	pasta_9.bmp	backpack_10.bmp	pasta_15.bmp	pasta_13.bmp	pasta_11.bmp	19	1	1	1	1	MEDIENJKULTURWISSENSCHAFTT
FAUST_1[2014-06]	40	4	2	1	3	2	1	1	1	1	1330	2	2	1	1891	3	1038	hammer_17.bmp	hammer_17.bmp	tv_5.bmp	tv_8.bmp	tv_7.bmp	tv_4.bmp	hammer_17.bmp	19	1	1	1	1	MEDIENJKULTURWISSENSCHAFTT
FAUST_1[2014-06]	40	4	7	1	3	1	2	1	1	1	1303	1	1	1	1720	3	1668	socks_13.bmp	socks_4.bmp	wig_12.bmp	socks_10.bmp	socks_13.bmp	socks_12.bmp	wig_12.bmp	19	1	1	1	1	MEDIENJKULTURWISSENSCHAFTT
FAUST_1[2014-06]	40	4	4	1	3	2	2	1	1	1	3146	2	2	1	1953	3	872	iceskates_9.bmp	iceskates_9.bmp	iceskates_16.bmp	fan_17.bmp	iceskates_9.bmp	iceskates_5.bmp	iceskates_14.bmp	19	1	1	1	1	MEDIENJKULTURWISSENSCHAFTT
FAUST_1[2014-06]	40	4	15	1	3	1	1	2	2	1	1356	1	1	1	1750	4	1572	cake_4.bmp	jacket_10.bmp	jacket_13.bmp	jacket_11.bmp	jacket_6.bmp	cake_1.bmp	jacket_10.bmp	19	1	1	1	1	MEDIENJKULTURWISSENSCHAFTT
FAUST_1[2014-06]	40	4	23	1	3	2	1	2	2	1	1115	1	1	1	1773	4	1058	watergun_15.bmp	windchime_10.bmp	windchime_6.bmp	windchime_16.bmp	watergun_9.bmp	windchime_15.bmp	watergun_9.bmp	19	1	1	1	1	MEDIENJKULTURWISSENSCHAFTT
FAUST_1[2014-06]	40	4	10	1	3	1	2	2	2	1	957	2	2	1	2290	3	914	plant_13.bmp	cheesegrater_11.bmp	plant_8.bmp	plant_14.bmp	plant_2.bmp	plant_5.bmp	cheesegrater_11.bmp	19	1	1	1	1	MEDIENJKULTURWISSENSCHAFTT
FAUST_1[2014-06]	40	4	26	1	3	2	2	2	1	0	1500	1	1	1	2128	3	899	horseshoe_6.bmp	trumpet_5.bmp	horseshoe_5.bmp	horseshoe_12.bmp	horseshoe_3.bmp	horseshoe_4.bmp	horseshoe_3.bmp	19	1	1	1	1	MEDIENJKULTURWISSENSCHAFTT
FAUST_1[2014-06]	40	4	8	1	3	1	1	2	1	0	3239	2	1	0	2066	2	1509	shredder_7.bmp	shredder_6.bmp	doorknob_10.bmp	doorknob_2.bmp	doorknob_17.bmp	doorknob_10.bmp	doorknob_7.bmp	19	1	1	1	1	MEDIENJKULTURWISSENSCHAFTT
FAUST_1[2014-06]	40	4	32	1	3	2	1	2	2	1	829	1	1	1	2294	4	1294	tricycle_15.bmp	tricycle_8.bmp	coffee_1.bmp	tricycle_8.bmp	coffee_15.bmp	coffee_2.bmp	coffee_7.bmp	19	1	1	1	1	MEDIENJKULTURWISSENSCHAFTT
FAUST_1[2014-06]	40	4	19	1	3	1	2	2	2	1	936	2	2	1	1970	3	1089	goggle_13.bmp	goggle_9.bmp	hairdryer_2.bmp	goggle_1.bmp	goggle_4.bmp	goggle_3.bmp	hairdryer_2.bmp	19	1	1	1	1	MEDIENJKULTURWISSENSCHAFTT
FAUST_1[2014-06]	40	4	18	1	3	2	2	2	2	1	2767	2	2	1	2013	2	1191	mic_12.bmp	mic_10.bmp	mic_3.bmp	mic_10.bmp	carabiner_5.bmp	mic_2.bmp	mic_5.bmp	19	1	1	1	1	MEDIENJKULTURWISSENSCHAFTT
FAUST_1[2014-06]	40	4	20	1	3	1	1	2	2	1	4662	2	2	1	1946	2	866	turtle_6.bmp	bowlingpin_11.bmp	bowlingpin_13.bmp	bowlingpin_1.bmp	bowlingpin_3.bmp	turtle_7.bmp	bowlingpin_3.bmp	19	1	1	1	1	MEDIENJKULTURWISSENSCHAFTT
FAUST_1[2014-06]	40	4	13	1	3	2	1	2	2	1	1292	1	2	0	2010	3	978	powerstrip_7.bmp	powerstrip_14.bmp	shoe_13.bmp	powerstrip_14.bmp	shoe_15.bmp	shoe_17.bmp	shoe_9.bmp	19	1	1	1	1	MEDIENJKULTURWISSENSCHAFTT
FAUST_1[2014-06]	40	4	17	1	3	1	2	2	1	0	1216	1	1	1	1830	3	1045	orifan_6.bmp	orifan_1.bmp	orifan_14.bmp	highchair_10.bmp	orifan_7.bmp	orifan_17.bmp	highchair_10.bmp	19	1	1	1	1	MEDIENJKULTURWISSENSCHAFTT
FAUST_1[2014-06]	40	4	28	1	3	2	2	2	2	1	1293	1	1	1	1849	3	1233	remote_2.bmp	babycrib_2.bmp	remote_14.bmp	remote_3.bmp	remote_11.bmp	remote_13.bmp	remote_14.bmp	19	1	1	1	1	MEDIENJKULTURWISSENSCHAFTT
FAUST_1[2014-06]	40	4	9	1	3	1	1	3	2	1	873	1	2	0	2011	4	972	sink_1.bmp	saltpeppershake_17.bmp	saltpeppershake_9.bmp	saltpeppershake_8.bmp	saltpeppershake_17.bmp	rusdoll_6.bmp	saltpeppershake_2.bmp	19	1	1	1	1	MEDIENJKULTURWISSENSCHAFTT
FAUST_1[2014-06]	40	4	22	1	3	2	1	3	2	1	849	1	2	0	2021	3	1026	vase_15.bmp	hairbrush_7.bmp	hairbrush_15.bmp	abacus_15.bmp	hairbrush_16.bmp	hairbrush_17.bmp	abacus_15.bmp	19	1	1	1	1	MEDIENJKULTURWISSENSCHAFTT
FAUST_1[2014-06]	40	4	25	1	3	1	1	3	2	1	1856	1	2	0	2247	3	1522	videogamecontroller_11.bmp	camera_6.bmp	camera_9.bmp	camera_7.bmp	camera_3.bmp	birdhouse_7.bmp	camera_9.bmp	19	1	1	1	1	MEDIENJKULTURWISSENSCHAFTT
FAUST_1[2014-06]	40	4	31	1	3	2	1	3	2	1	951	2	1	0	1692	3	729	trunk_5.bmp	cherubstatue_10.bmp	cherubstatue_11.bmp	cherubstatue_12.bmp	guitar_8.bmp	cherubstatue_5.bmp	guitar_8.bmp	19	1	1	1	1	MEDIENJKULTURWISSENSCHAFTT
FAUST_1[2014-06]	40	4	16	1	3	1	1	3	2	1	948	2	2	1	1431	4	975	lawnmower_3.bmp	flashlight_2.bmp	parfait_1.bmp	flashlight_1.bmp	flashlight_12.bmp	flashlight_13.bmp	flashlight_1.bmp	19	1	1	1	1	MEDIENJKULTURWISSENSCHAFTT
FAUST_1[2014-06]	40	4	24	1	3	2	1	3	2	1	734	1	1	1	1998	4	859	ring_11.bmp	garbagecan_17.bmp	doorknocker_14.bmp	garbagecan_13.bmp	garbagecan_2.bmp	garbagecan_8.bmp	doorknocker_14.bmp	19	1	1	1	1	MEDIENJKULTURWISSENSCHAFTT
FAUST_1[2014-06]	40	4	5	1	3	1	1	3	2	1	887	1	2	0	1801	4	782	saddle_3.bmp	scooter_10.bmp	scooter_11.bmp	scooter_4.bmp	scooter_11.bmp	skateboard_11.bmp	scooter_5.bmp	19	1	1	1	1	MEDIENJKULTURWISSENSCHAFTT
FAUST_1[2014-06]	40	4	14	1	3	2	1	3	2	1	661	1	1	1	1850	3	1202	trophy_6.bmp	speaker_17.bmp	speaker_10.bmp	laptop_10.bmp	speaker_4.bmp	laptop_10.bmp	speaker_15.bmp	19	1	1	1	1	MEDIENJKULTURWISSENSCHAFTT
