experiment	subject	block	trial	order	material	repeated	related	probetype	response	correct	rt	math_response	math_correctresponse	math_correct	math_rt	confidence	confidence_rt	probe	item1	item2	item3	item4	item5	item6	age	sex	handedness	color_vision	mother_tongue	occupation
FAUST_1[2014-06]	41	1	5	5	3	1	1	1	1	1	2141	2	2	1	2794	4	1883	hairdryer_2.bmp	shredder_6.bmp	shredder_1.bmp	shredder_5.bmp	hairdryer_2.bmp	shredder_7.bmp	shredder_6.bmp	26	1	1	1	1	LASONDERPÄDAGOGIK
FAUST_1[2014-06]	41	1	14	5	3	2	1	1	1	1	1965	1	1	1	2038	4	2041	wig_12.bmp	wig_12.bmp	rusdoll_5.bmp	rusdoll_3.bmp	rusdoll_8.bmp	wig_12.bmp	rusdoll_1.bmp	26	1	1	1	1	LASONDERPÄDAGOGIK
FAUST_1[2014-06]	41	1	22	5	3	1	2	1	1	1	1058	1	1	1	2278	4	1583	shoe_9.bmp	cellphone_11.bmp	shoe_9.bmp	shoe_17.bmp	cellphone_11.bmp	shoe_15.bmp	shoe_7.bmp	26	1	1	1	1	LASONDERPÄDAGOGIK
FAUST_1[2014-06]	41	1	25	5	3	2	2	1	1	1	1402	2	1	0	2590	4	1676	hairbrush_15.bmp	hairbrush_7.bmp	hairbrush_15.bmp	hairbrush_17.bmp	hairbrush_15.bmp	hairbrush_16.bmp	birdhouse_7.bmp	26	1	1	1	1	LASONDERPÄDAGOGIK
FAUST_1[2014-06]	41	1	26	5	3	1	1	1	2	0	3026	1	1	1	2438	2	2507	highchair_15.bmp	vase_15.bmp	highchair_15.bmp	vase_13.bmp	vase_1.bmp	vase_6.bmp	vase_13.bmp	26	1	1	1	1	LASONDERPÄDAGOGIK
FAUST_1[2014-06]	41	1	28	5	3	2	1	1	1	1	1567	-1	2	0	0	4	1587	orifan_1.bmp	orifan_1.bmp	garbagecan_13.bmp	orifan_1.bmp	garbagecan_10.bmp	garbagecan_2.bmp	garbagecan_8.bmp	26	1	1	1	1	LASONDERPÄDAGOGIK
FAUST_1[2014-06]	41	1	30	5	3	1	2	1	1	1	1712	-1	1	0	0	4	1721	videogamecontroller_13.bmp	videogamecontroller_3.bmp	videogamecontroller_11.bmp	videogamecontroller_2.bmp	rollerskates_17.bmp	videogamecontroller_13.bmp	rollerskates_17.bmp	26	1	1	1	1	LASONDERPÄDAGOGIK
FAUST_1[2014-06]	41	1	18	5	3	2	2	1	1	1	3268	-1	2	0	0	2	1964	bowlingpin_13.bmp	bowlingpin_13.bmp	bowlingpin_3.bmp	bowlingpin_4.bmp	bowlingpin_13.bmp	pasta_10.bmp	bowlingpin_11.bmp	26	1	1	1	1	LASONDERPÄDAGOGIK
FAUST_1[2014-06]	41	1	31	5	3	1	1	1	1	1	1312	2	2	1	2812	4	1513	carabiner_2.bmp	jacket_10.bmp	jacket_6.bmp	jacket_7.bmp	jacket_11.bmp	jacket_6.bmp	carabiner_2.bmp	26	1	1	1	1	LASONDERPÄDAGOGIK
FAUST_1[2014-06]	41	1	8	5	3	2	1	1	1	1	1908	-1	2	0	0	3	1998	saddle_8.bmp	scooter_11.bmp	scooter_8.bmp	scooter_4.bmp	saddle_8.bmp	scooter_5.bmp	saddle_8.bmp	26	1	1	1	1	LASONDERPÄDAGOGIK
FAUST_1[2014-06]	41	1	27	5	3	1	2	1	1	1	2140	2	1	0	2725	2	1944	trumpet_6.bmp	trumpet_17.bmp	trumpet_5.bmp	ring_12.bmp	trumpet_6.bmp	ring_12.bmp	trumpet_3.bmp	26	1	1	1	1	LASONDERPÄDAGOGIK
FAUST_1[2014-06]	41	1	19	5	3	2	2	1	1	1	57	-1	1	0	0	4	3552	speaker_17.bmp	speaker_17.bmp	speaker_6.bmp	speaker_10.bmp	speaker_17.bmp	turtle_2.bmp	speaker_4.bmp	26	1	1	1	1	LASONDERPÄDAGOGIK
FAUST_1[2014-06]	41	1	21	5	3	1	1	2	2	1	2636	2	2	1	2873	3	1898	flashlight_2.bmp	saltpeppershake_9.bmp	saltpeppershake_2.bmp	saltpeppershake_8.bmp	saltpeppershake_17.bmp	saltpeppershake_9.bmp	flashlight_1.bmp	26	1	1	1	1	LASONDERPÄDAGOGIK
FAUST_1[2014-06]	41	1	17	5	3	2	1	2	2	1	2592	1	1	1	2526	3	2261	powerstrip_13.bmp	remote_14.bmp	remote_2.bmp	remote_13.bmp	powerstrip_8.bmp	remote_11.bmp	powerstrip_8.bmp	26	1	1	1	1	LASONDERPÄDAGOGIK
FAUST_1[2014-06]	41	1	3	5	3	1	2	2	1	0	1801	1	1	1	2554	4	2503	doorknocker_14.bmp	chair_2.bmp	doorknocker_2.bmp	doorknocker_11.bmp	doorknocker_5.bmp	doorknocker_4.bmp	chair_2.bmp	26	1	1	1	1	LASONDERPÄDAGOGIK
FAUST_1[2014-06]	41	1	23	5	3	2	2	2	1	0	1705	1	2	0	2721	3	1765	windchime_10.bmp	windchime_6.bmp	windchime_16.bmp	windchime_3.bmp	cheesegrater_8.bmp	windchime_6.bmp	windchime_15.bmp	26	1	1	1	1	LASONDERPÄDAGOGIK
FAUST_1[2014-06]	41	1	4	5	3	1	1	2	2	1	3135	-1	1	0	0	2	3862	abacus_7.bmp	mic_12.bmp	mic_3.bmp	mic_10.bmp	mic_5.bmp	abacus_6.bmp	mic_3.bmp	26	1	1	1	1	LASONDERPÄDAGOGIK
FAUST_1[2014-06]	41	1	20	5	3	2	1	2	1	0	2062	2	1	0	1948	1	2306	laptop_10.bmp	skateboard_16.bmp	skateboard_15.bmp	laptop_15.bmp	skateboard_3.bmp	skateboard_11.bmp	laptop_15.bmp	26	1	1	1	1	LASONDERPÄDAGOGIK
FAUST_1[2014-06]	41	1	7	5	3	1	2	2	1	0	2339	2	2	1	2955	3	2481	cake_1.bmp	cake_3.bmp	babycrib_5.bmp	cake_4.bmp	cake_5.bmp	babycrib_5.bmp	cake_14.bmp	26	1	1	1	1	LASONDERPÄDAGOGIK
FAUST_1[2014-06]	41	1	1	5	3	2	2	2	1	0	2035	1	1	1	1652	4	3580	trophy_6.bmp	trophy_14.bmp	trophy_16.bmp	trophy_15.bmp	backpack_16.bmp	trophy_4.bmp	trophy_14.bmp	26	1	1	1	1	LASONDERPÄDAGOGIK
FAUST_1[2014-06]	41	1	15	5	3	1	1	2	1	0	48	-1	2	0	0	1	4318	beanbagchair_15.bmp	lawnmower_15.bmp	lawnmower_13.bmp	lawnmower_17.bmp	beanbagchair_12.bmp	lawnmower_3.bmp	lawnmower_17.bmp	26	1	1	1	1	LASONDERPÄDAGOGIK
FAUST_1[2014-06]	41	1	6	5	3	2	1	2	1	0	3686	-1	1	0	0	3	3950	printer_1.bmp	printer_3.bmp	carriage_14.bmp	carriage_9.bmp	carriage_3.bmp	carriage_2.bmp	printer_3.bmp	26	1	1	1	1	LASONDERPÄDAGOGIK
FAUST_1[2014-06]	41	1	16	5	3	1	2	2	1	0	2822	1	2	0	1997	2	2285	coffee_14.bmp	coffee_2.bmp	cherubstatue_10.bmp	coffee_1.bmp	cherubstatue_10.bmp	coffee_7.bmp	coffee_15.bmp	26	1	1	1	1	LASONDERPÄDAGOGIK
FAUST_1[2014-06]	41	1	29	5	3	2	2	2	2	1	2552	1	2	0	2944	3	1785	sofa_13.bmp	sofa_12.bmp	sofa_3.bmp	sofa_6.bmp	hammer_8.bmp	sofa_3.bmp	sofa_9.bmp	26	1	1	1	1	LASONDERPÄDAGOGIK
FAUST_1[2014-06]	41	1	12	5	3	1	1	3	2	1	2399	1	1	1	3308	4	2964	easteregg_16.bmp	guitar_10.bmp	guitar_7.bmp	leatherman_14.bmp	guitar_14.bmp	guitar_7.bmp	guitar_5.bmp	26	1	1	1	1	LASONDERPÄDAGOGIK
FAUST_1[2014-06]	41	1	24	5	3	2	1	3	2	1	1638	1	1	1	3282	4	2149	goggle_3.bmp	glasses_13.bmp	sink_15.bmp	glasses_8.bmp	glasses_6.bmp	sink_15.bmp	glasses_15.bmp	26	1	1	1	1	LASONDERPÄDAGOGIK
FAUST_1[2014-06]	41	1	32	5	3	1	1	3	2	1	1742	2	1	0	2011	4	1455	bagel_4.bmp	parfait_4.bmp	circuitboard_4.bmp	parfait_13.bmp	parfait_4.bmp	parfait_15.bmp	parfait_11.bmp	26	1	1	1	1	LASONDERPÄDAGOGIK
FAUST_1[2014-06]	41	1	13	5	3	2	1	3	2	1	2850	2	1	0	2128	4	1576	router_6.bmp	tricycle_8.bmp	tricycle_2.bmp	camera_6.bmp	tricycle_10.bmp	camera_6.bmp	tricycle_15.bmp	26	1	1	1	1	LASONDERPÄDAGOGIK
FAUST_1[2014-06]	41	1	2	5	3	1	1	3	2	1	2100	1	1	1	2640	4	3522	horseshoe_4.bmp	glove_12.bmp	glove_15.bmp	glove_10.bmp	glove_5.bmp	socks_12.bmp	glove_15.bmp	26	1	1	1	1	LASONDERPÄDAGOGIK
FAUST_1[2014-06]	41	1	10	5	3	2	1	3	2	1	1384	1	1	1	3414	4	1670	trunk_3.bmp	doorknob_17.bmp	doorknob_14.bmp	doorknob_2.bmp	cat_9.bmp	doorknob_10.bmp	cat_9.bmp	26	1	1	1	1	LASONDERPÄDAGOGIK
FAUST_1[2014-06]	41	1	9	5	3	1	1	3	2	1	2858	-1	2	0	0	4	2128	plant_13.bmp	watch_8.bmp	fan_11.bmp	fan_1.bmp	fan_10.bmp	fan_17.bmp	fan_11.bmp	26	1	1	1	1	LASONDERPÄDAGOGIK
FAUST_1[2014-06]	41	1	11	5	3	2	1	3	2	1	3161	1	1	1	2854	3	2634	iceskates_5.bmp	watergun_8.bmp	tv_7.bmp	tv_4.bmp	tv_5.bmp	tv_8.bmp	watergun_8.bmp	26	1	1	1	1	LASONDERPÄDAGOGIK
FAUST_1[2014-06]	41	2	5	5	2	1	1	1	1	1	1452	1	1	1	2759	4	1274	Bracelet1.bmp	Brocolli14.bmp	Bracelet1.bmp	Brocolli9.bmp	Brocolli19.bmp	Brocolli4.bmp	Brocolli14.bmp	26	1	1	1	1	LASONDERPÄDAGOGIK
FAUST_1[2014-06]	41	2	6	5	2	2	1	1	1	1	1154	1	1	1	1873	4	1146	Bun17.bmp	Bun17.bmp	Sweet25.bmp	Bun17.bmp	Sweet1.bmp	Sweet22.bmp	Sweet18.bmp	26	1	1	1	1	LASONDERPÄDAGOGIK
FAUST_1[2014-06]	41	2	15	5	2	1	2	1	1	1	2040	2	2	1	3048	4	1681	Holly17.bmp	Holly20.bmp	Holly17.bmp	Fudge15.bmp	Holly14.bmp	Fudge15.bmp	Holly11.bmp	26	1	1	1	1	LASONDERPÄDAGOGIK
FAUST_1[2014-06]	41	2	7	5	2	2	2	1	1	1	1062	1	1	1	2425	4	1158	Chilli19.bmp	Chilli19.bmp	Chilli14.bmp	Button10.bmp	Chilli11.bmp	Chilli22.bmp	Chilli19.bmp	26	1	1	1	1	LASONDERPÄDAGOGIK
FAUST_1[2014-06]	41	2	12	5	2	1	1	1	1	1	1620	1	1	1	2650	4	1504	Screw10.bmp	Apple5.bmp	Apple24.bmp	Apple10.bmp	Apple24.bmp	Apple18.bmp	Screw10.bmp	26	1	1	1	1	LASONDERPÄDAGOGIK
FAUST_1[2014-06]	41	2	2	5	2	2	1	1	1	1	2471	2	1	0	2968	4	2719	Strawberry4.bmp	Feather12.bmp	Feather18.bmp	Feather11.bmp	Strawberry4.bmp	Feather14.bmp	Strawberry4.bmp	26	1	1	1	1	LASONDERPÄDAGOGIK
FAUST_1[2014-06]	41	2	4	5	2	1	2	1	1	1	1075	1	1	1	2415	4	1299	Key13.bmp	Key5.bmp	Swirl13.bmp	Key13.bmp	Swirl13.bmp	Key11.bmp	Key9.bmp	26	1	1	1	1	LASONDERPÄDAGOGIK
FAUST_1[2014-06]	41	2	8	5	2	2	2	1	1	1	1536	1	1	1	2054	4	1488	String8.bmp	Coins14.bmp	String8.bmp	String2.bmp	String12.bmp	String6.bmp	String8.bmp	26	1	1	1	1	LASONDERPÄDAGOGIK
FAUST_1[2014-06]	41	2	9	5	2	1	1	2	2	1	2651	2	1	0	1990	4	2588	Cake7.bmp	Paperclip6.bmp	Paperclip14.bmp	Paperclip4.bmp	Paperclip13.bmp	Cake16.bmp	Paperclip4.bmp	26	1	1	1	1	LASONDERPÄDAGOGIK
FAUST_1[2014-06]	41	2	3	5	2	2	1	2	1	0	1713	1	1	1	2445	4	1603	Plug4.bmp	Plug18.bmp	Umbrella19.bmp	Plug18.bmp	Umbrella6.bmp	Umbrella7.bmp	Umbrella17.bmp	26	1	1	1	1	LASONDERPÄDAGOGIK
FAUST_1[2014-06]	41	2	11	5	2	1	2	2	1	0	2765	1	1	1	2746	3	1972	Mushroom14.bmp	Onion19.bmp	Mushroom6.bmp	Mushroom25.bmp	Mushroom7.bmp	Mushroom18.bmp	Onion19.bmp	26	1	1	1	1	LASONDERPÄDAGOGIK
FAUST_1[2014-06]	41	2	18	5	2	2	2	2	2	1	1684	2	2	1	2429	4	2071	Hand8.bmp	Hand13.bmp	Hand1.bmp	Hand17.bmp	Varnish11.bmp	Hand10.bmp	Hand1.bmp	26	1	1	1	1	LASONDERPÄDAGOGIK
FAUST_1[2014-06]	41	2	20	5	2	1	1	2	2	1	2128	2	1	0	2809	4	1488	Pen10.bmp	Glass3.bmp	Glass19.bmp	Glass16.bmp	Glass12.bmp	Pen5.bmp	Glass19.bmp	26	1	1	1	1	LASONDERPÄDAGOGIK
FAUST_1[2014-06]	41	2	16	5	2	2	1	2	2	1	2815	-1	2	0	0	3	1679	Lipstick2.bmp	Tomato5.bmp	Lipstick7.bmp	Tomato2.bmp	Tomato3.bmp	Tomato18.bmp	Lipstick7.bmp	26	1	1	1	1	LASONDERPÄDAGOGIK
FAUST_1[2014-06]	41	2	14	5	2	1	2	2	2	1	1588	2	1	0	1478	4	2104	Nut2.bmp	Present17.bmp	Nut11.bmp	Nut21.bmp	Present17.bmp	Nut19.bmp	Nut18.bmp	26	1	1	1	1	LASONDERPÄDAGOGIK
FAUST_1[2014-06]	41	2	10	5	2	2	2	2	1	0	1199	1	1	1	2216	4	2244	Shell1.bmp	Shell9.bmp	Shell5.bmp	Man24.bmp	Shell17.bmp	Shell9.bmp	Shell18.bmp	26	1	1	1	1	LASONDERPÄDAGOGIK
FAUST_1[2014-06]	41	2	21	5	2	1	1	3	2	1	1958	1	2	0	2322	4	1506	Scissors11.bmp	Flower13.bmp	Candle1.bmp	Candle17.bmp	Candle10.bmp	Candle1.bmp	Candle13.bmp	26	1	1	1	1	LASONDERPÄDAGOGIK
FAUST_1[2014-06]	41	2	22	5	2	2	1	3	2	1	1141	1	1	1	3407	4	2079	Ginger10.bmp	Bag3.bmp	Bag4.bmp	Bag5.bmp	Star2.bmp	Bag25.bmp	Star2.bmp	26	1	1	1	1	LASONDERPÄDAGOGIK
FAUST_1[2014-06]	41	2	19	5	2	1	1	3	2	1	1130	1	1	1	2546	4	1470	Toothbrush10.bmp	Chocolate9.bmp	Chocolate17.bmp	Chocolate24.bmp	Chocolate5.bmp	Leaf22.bmp	Chocolate9.bmp	26	1	1	1	1	LASONDERPÄDAGOGIK
FAUST_1[2014-06]	41	2	17	5	2	2	1	3	2	1	1141	2	2	1	1707	4	2010	Car7.bmp	Pear4.bmp	Stapler6.bmp	Stapler8.bmp	Stapler9.bmp	Stapler10.bmp	Pear4.bmp	26	1	1	1	1	LASONDERPÄDAGOGIK
FAUST_1[2014-06]	41	2	1	5	2	1	1	3	2	1	1701	2	2	1	2656	4	2237	Fork17.bmp	Biscuit4.bmp	Biscuit17.bmp	Jigsaw18.bmp	Biscuit4.bmp	Biscuit25.bmp	Biscuit9.bmp	26	1	1	1	1	LASONDERPÄDAGOGIK
FAUST_1[2014-06]	41	2	13	5	2	2	1	3	2	1	2169	1	1	1	2130	4	1819	Hanger2.bmp	Keys7.bmp	Daff22.bmp	Keys9.bmp	Keys6.bmp	Keys5.bmp	Daff22.bmp	26	1	1	1	1	LASONDERPÄDAGOGIK
FAUST_1[2014-06]	41	3	4	5	1	1	1	1	2	0	2152	2	1	0	1943	2	1770	MASERN	fahrrad	bus	masern	straßenbahn	fahrrad	taxi	26	1	1	1	1	LASONDERPÄDAGOGIK
FAUST_1[2014-06]	41	3	26	5	1	2	1	1	1	1	1614	1	1	1	2616	4	2031	BEETHOVEN	beethoven	puma	gepard	beethoven	panther	tiger	26	1	1	1	1	LASONDERPÄDAGOGIK
FAUST_1[2014-06]	41	3	29	5	1	1	2	1	1	1	1675	2	2	1	1029	2	1436	ANGST	freude	ärger	angst	birke	scham	birke	26	1	1	1	1	LASONDERPÄDAGOGIK
FAUST_1[2014-06]	41	3	12	5	1	2	2	1	2	0	1501	1	1	1	745	4	1110	RÜCKSPIEGEL	opium	gaspedal	rückspiegel	handbremse	rückspiegel	kupplung	26	1	1	1	1	LASONDERPÄDAGOGIK
FAUST_1[2014-06]	41	3	28	5	1	1	1	1	2	0	1199	1	2	0	2381	4	1573	PHYSIK	majoran	koriander	oregano	koriander	thymian	physik	26	1	1	1	1	LASONDERPÄDAGOGIK
FAUST_1[2014-06]	41	3	31	5	1	2	1	1	1	1	1217	2	2	1	313	4	2265	KLARINETTE	klarinette	vater	tochter	onkel	klarinette	mutter	26	1	1	1	1	LASONDERPÄDAGOGIK
FAUST_1[2014-06]	41	3	25	5	1	1	2	1	1	1	1539	1	1	1	319	3	2655	VENUS	pfannenwender	jupiter	pluto	saturn	pfannenwender	venus	26	1	1	1	1	LASONDERPÄDAGOGIK
FAUST_1[2014-06]	41	3	3	5	1	2	2	1	2	0	2659	1	2	0	1552	2	1840	DOLCH	schwert	gewehr	pistole	dolch	karamell	dolch	26	1	1	1	1	LASONDERPÄDAGOGIK
FAUST_1[2014-06]	41	3	14	5	1	1	1	1	1	1	1790	1	1	1	865	3	1555	DRUCKER	präposition	verb	adverb	drucker	nomen	verb	26	1	1	1	1	LASONDERPÄDAGOGIK
FAUST_1[2014-06]	41	3	2	5	1	2	1	1	2	0	1432	1	1	1	2351	4	1288	CHACHACHA	scrabble	chachacha	halma	chachacha	monopoly	schach	26	1	1	1	1	LASONDERPÄDAGOGIK
FAUST_1[2014-06]	41	3	8	5	1	1	2	1	1	1	1392	2	2	1	1465	3	1943	KÖNIG	graf	fürst	horrorfilm	kaiser	könig	horrorfilm	26	1	1	1	1	LASONDERPÄDAGOGIK
FAUST_1[2014-06]	41	3	6	5	1	2	2	1	1	1	1803	2	2	1	1581	3	1894	SÄGE	säge	zange	minute	meißel	säge	bohrer	26	1	1	1	1	LASONDERPÄDAGOGIK
FAUST_1[2014-06]	41	3	15	5	1	1	1	2	2	1	1254	2	2	1	407	4	1212	RHEIN	kerosin	benzin	bleifrei	kerosin	weser	diesel	26	1	1	1	1	LASONDERPÄDAGOGIK
FAUST_1[2014-06]	41	3	27	5	1	2	1	2	2	1	1113	1	1	1	2617	4	1152	MESSING	gold	rum	gold	wodka	whiskey	tequila	26	1	1	1	1	LASONDERPÄDAGOGIK
FAUST_1[2014-06]	41	3	18	5	1	1	2	2	1	0	2711	1	2	0	1783	2	1804	NIERE	herz	lunge	fink	leber	fink	magen	26	1	1	1	1	LASONDERPÄDAGOGIK
FAUST_1[2014-06]	41	3	22	5	1	2	2	2	2	1	1048	1	2	0	532	4	1341	GLAS	becher	lila	kanne	becher	flasche	karaffe	26	1	1	1	1	LASONDERPÄDAGOGIK
FAUST_1[2014-06]	41	3	21	5	1	1	1	2	2	1	1263	1	2	0	1748	4	1328	AMEISE	wespe	buntstift	kugelschreiber	füller	bleistift	füller	26	1	1	1	1	LASONDERPÄDAGOGIK
FAUST_1[2014-06]	41	3	10	5	1	2	1	2	2	1	1047	1	2	0	1497	4	1114	JUNGFRAU	steinbock	buch	steinbock	zeitung	internet	radio	26	1	1	1	1	LASONDERPÄDAGOGIK
FAUST_1[2014-06]	41	3	30	5	1	1	2	2	2	1	1338	2	2	1	1542	4	1181	DOGGE	golf	terrier	golf	mops	schäferhund	dackel	26	1	1	1	1	LASONDERPÄDAGOGIK
FAUST_1[2014-06]	41	3	32	5	1	2	2	2	2	1	1452	2	2	1	390	3	1344	OZEAN	nelke	meer	see	teich	fluss	see	26	1	1	1	1	LASONDERPÄDAGOGIK
FAUST_1[2014-06]	41	3	24	5	1	1	1	2	2	1	2474	1	2	0	2456	2	2004	DINKEL	kreis	dreieck	viereck	dreieck	rechteck	roggen	26	1	1	1	1	LASONDERPÄDAGOGIK
FAUST_1[2014-06]	41	3	17	5	1	2	1	2	2	1	1138	1	1	1	806	4	969	KIRCHE	moschee	rouge	kajal	wimperntusche	lippenstift	moschee	26	1	1	1	1	LASONDERPÄDAGOGIK
FAUST_1[2014-06]	41	3	16	5	1	1	2	2	2	1	1047	1	2	0	1431	3	1544	REGAL	südamerika	stuhl	schrank	südamerika	sofa	tisch	26	1	1	1	1	LASONDERPÄDAGOGIK
FAUST_1[2014-06]	41	3	11	5	1	2	2	2	2	1	941	1	1	1	1470	4	1795	OPER	zirkus	fähre	konzertsaal	theater	kino	konzertsaal	26	1	1	1	1	LASONDERPÄDAGOGIK
FAUST_1[2014-06]	41	3	7	5	1	1	1	3	2	1	1091	1	1	1	2143	3	1725	FÜHLEN	pflaume	kilometer	pflaume	birne	apfel	erdbeere	26	1	1	1	1	LASONDERPÄDAGOGIK
FAUST_1[2014-06]	41	3	23	5	1	2	1	3	2	1	1125	1	1	1	1949	4	1636	WERWOLF	brieföffner	forelle	brieföffner	makrele	lachs	thunfisch	26	1	1	1	1	LASONDERPÄDAGOGIK
FAUST_1[2014-06]	41	3	9	5	1	1	1	3	2	1	1100	1	1	1	1412	4	1493	STRICKNADEL	wasserstoff	helium	stickstoff	helium	kohlenstoff	schuppen	26	1	1	1	1	LASONDERPÄDAGOGIK
FAUST_1[2014-06]	41	3	19	5	1	2	1	3	2	1	992	1	2	0	93	4	1230	LÖFFEL	hemd	karotten	hemd	blumenkohl	tomaten	bohnen	26	1	1	1	1	LASONDERPÄDAGOGIK
FAUST_1[2014-06]	41	3	20	5	1	1	1	3	2	1	1047	1	2	0	1536	4	1325	MALEN	döner	flanell	leinen	baumwolle	flanell	seide	26	1	1	1	1	LASONDERPÄDAGOGIK
FAUST_1[2014-06]	41	3	1	5	1	2	1	3	2	1	1530	1	1	1	2148	4	2309	HAND	schweiz	volvo	audi	schweiz	porsche	peugeot	26	1	1	1	1	LASONDERPÄDAGOGIK
FAUST_1[2014-06]	41	3	13	5	1	1	1	3	2	1	1097	1	1	1	1831	4	1208	SACHSEN	sonnenschein	mark	cent	dollar	cent	pfennig	26	1	1	1	1	LASONDERPÄDAGOGIK
FAUST_1[2014-06]	41	3	5	5	1	2	1	3	2	1	1515	1	2	0	2998	3	2258	GYMNASIUM	pfarrer	hannover	stuttgart	münchen	pfarrer	hamburg	26	1	1	1	1	LASONDERPÄDAGOGIK
FAUST_1[2014-06]	41	2	17	5	3	1	1	1	1	1	1592	1	2	0	3095	4	2293	shoe_13.bmp	iceskates_9.bmp	iceskates_16.bmp	iceskates_7.bmp	iceskates_14.bmp	iceskates_9.bmp	shoe_13.bmp	26	1	1	1	1	LASONDERPÄDAGOGIK
FAUST_1[2014-06]	41	2	1	5	3	2	1	1	1	1	1510	1	1	1	2142	4	2314	chair_3.bmp	cellphone_4.bmp	chair_3.bmp	cellphone_11.bmp	cellphone_12.bmp	cellphone_3.bmp	chair_3.bmp	26	1	1	1	1	LASONDERPÄDAGOGIK
FAUST_1[2014-06]	41	2	7	5	3	1	2	1	2	0	2725	1	1	1	2543	2	2551	lawnmower_15.bmp	lawnmower_15.bmp	lawnmower_13.bmp	fan_15.bmp	lawnmower_17.bmp	lawnmower_8.bmp	fan_15.bmp	26	1	1	1	1	LASONDERPÄDAGOGIK
FAUST_1[2014-06]	41	2	25	5	3	2	2	1	1	1	1129	1	1	1	2590	4	1167	coffee_7.bmp	coffee_2.bmp	coffee_7.bmp	coffee_14.bmp	cherubstatue_11.bmp	coffee_1.bmp	coffee_7.bmp	26	1	1	1	1	LASONDERPÄDAGOGIK
FAUST_1[2014-06]	41	2	4	5	3	1	1	1	1	1	1515	1	1	1	2499	4	1534	horseshoe_4.bmp	watergun_7.bmp	watergun_8.bmp	horseshoe_4.bmp	watergun_15.bmp	watergun_9.bmp	watergun_15.bmp	26	1	1	1	1	LASONDERPÄDAGOGIK
FAUST_1[2014-06]	41	2	28	5	3	2	1	1	1	1	1282	1	2	0	2461	4	1518	turtle_6.bmp	turtle_6.bmp	shredder_15.bmp	shredder_1.bmp	turtle_6.bmp	shredder_5.bmp	shredder_6.bmp	26	1	1	1	1	LASONDERPÄDAGOGIK
FAUST_1[2014-06]	41	2	8	5	3	1	2	1	1	1	1426	1	1	1	2022	4	1941	bagel_4.bmp	bowlingpin_4.bmp	bagel_4.bmp	bowlingpin_4.bmp	bagel_12.bmp	bagel_14.bmp	bagel_16.bmp	26	1	1	1	1	LASONDERPÄDAGOGIK
FAUST_1[2014-06]	41	2	24	5	3	2	2	1	1	1	1136	2	2	1	2084	4	1525	vase_6.bmp	vase_6.bmp	vase_13.bmp	vase_5.bmp	vase_6.bmp	vase_1.bmp	remote_13.bmp	26	1	1	1	1	LASONDERPÄDAGOGIK
FAUST_1[2014-06]	41	2	31	5	3	1	1	1	1	1	1414	1	1	1	1688	4	1557	plant_2.bmp	hairdryer_12.bmp	hairdryer_14.bmp	hairdryer_12.bmp	plant_2.bmp	hairdryer_2.bmp	hairdryer_7.bmp	26	1	1	1	1	LASONDERPÄDAGOGIK
FAUST_1[2014-06]	41	2	27	5	3	2	1	1	1	1	1277	1	1	1	1894	4	1118	socks_12.bmp	router_6.bmp	socks_12.bmp	router_12.bmp	router_7.bmp	router_5.bmp	socks_12.bmp	26	1	1	1	1	LASONDERPÄDAGOGIK
FAUST_1[2014-06]	41	2	22	5	3	1	2	1	1	1	1478	2	2	1	1995	4	2029	parfait_13.bmp	parfait_11.bmp	parfait_13.bmp	glasses_13.bmp	parfait_15.bmp	glasses_13.bmp	parfait_4.bmp	26	1	1	1	1	LASONDERPÄDAGOGIK
FAUST_1[2014-06]	41	2	18	5	3	2	2	1	1	1	1542	2	2	1	2377	4	1732	skateboard_3.bmp	skateboard_3.bmp	skateboard_15.bmp	cake_1.bmp	skateboard_3.bmp	skateboard_16.bmp	skateboard_14.bmp	26	1	1	1	1	LASONDERPÄDAGOGIK
FAUST_1[2014-06]	41	2	13	5	3	1	1	2	2	1	2314	1	1	1	3444	3	1725	mic_12.bmp	tv_16.bmp	mic_10.bmp	tv_4.bmp	tv_8.bmp	tv_16.bmp	tv_7.bmp	26	1	1	1	1	LASONDERPÄDAGOGIK
FAUST_1[2014-06]	41	2	20	5	3	2	1	2	2	1	1130	1	1	1	3069	4	1445	trophy_4.bmp	trophy_14.bmp	rusdoll_3.bmp	trophy_14.bmp	rusdoll_6.bmp	rusdoll_8.bmp	rusdoll_5.bmp	26	1	1	1	1	LASONDERPÄDAGOGIK
FAUST_1[2014-06]	41	2	11	5	3	1	2	2	1	0	2018	-1	2	0	0	3	2246	easteregg_16.bmp	videogamecontroller_3.bmp	easteregg_5.bmp	easteregg_17.bmp	videogamecontroller_3.bmp	easteregg_14.bmp	easteregg_9.bmp	26	1	1	1	1	LASONDERPÄDAGOGIK
FAUST_1[2014-06]	41	2	2	5	3	2	2	2	1	0	1590	2	1	0	2085	3	1534	doorknocker_11.bmp	doorknocker_14.bmp	doorknocker_4.bmp	pasta_15.bmp	doorknocker_4.bmp	doorknocker_2.bmp	doorknocker_5.bmp	26	1	1	1	1	LASONDERPÄDAGOGIK
FAUST_1[2014-06]	41	2	5	5	3	1	1	2	2	1	2054	2	1	0	1868	4	1775	leatherman_5.bmp	circuitboard_8.bmp	leatherman_10.bmp	circuitboard_13.bmp	circuitboard_4.bmp	circuitboard_8.bmp	circuitboard_2.bmp	26	1	1	1	1	LASONDERPÄDAGOGIK
FAUST_1[2014-06]	41	2	23	5	3	2	1	2	2	1	1493	2	2	1	2039	4	1371	printer_14.bmp	hammer_15.bmp	hammer_11.bmp	hammer_17.bmp	printer_1.bmp	hammer_8.bmp	printer_1.bmp	26	1	1	1	1	LASONDERPÄDAGOGIK
FAUST_1[2014-06]	41	2	3	5	3	1	2	2	2	1	3241	2	1	0	3248	2	1408	glove_10.bmp	glove_8.bmp	glove_15.bmp	guitar_10.bmp	glove_12.bmp	guitar_10.bmp	glove_5.bmp	26	1	1	1	1	LASONDERPÄDAGOGIK
FAUST_1[2014-06]	41	2	30	5	3	2	2	2	2	1	1423	1	2	0	2656	3	1702	ring_12.bmp	ring_7.bmp	ring_11.bmp	carriage_14.bmp	ring_15.bmp	ring_7.bmp	ring_8.bmp	26	1	1	1	1	LASONDERPÄDAGOGIK
FAUST_1[2014-06]	41	2	15	5	3	1	1	2	2	1	854	1	2	0	1527	4	1073	beanbagchair_14.bmp	backpack_16.bmp	backpack_10.bmp	backpack_13.bmp	beanbagchair_12.bmp	backpack_10.bmp	backpack_12.bmp	26	1	1	1	1	LASONDERPÄDAGOGIK
FAUST_1[2014-06]	41	2	29	5	3	2	1	2	2	1	1747	2	1	0	1492	3	1304	flashlight_2.bmp	flashlight_1.bmp	saddle_4.bmp	saddle_8.bmp	flashlight_1.bmp	saddle_5.bmp	saddle_15.bmp	26	1	1	1	1	LASONDERPÄDAGOGIK
FAUST_1[2014-06]	41	2	12	5	3	1	2	2	2	1	1733	2	1	0	2325	4	1481	babycrib_7.bmp	hairbrush_7.bmp	babycrib_9.bmp	babycrib_2.bmp	babycrib_5.bmp	babycrib_6.bmp	hairbrush_7.bmp	26	1	1	1	1	LASONDERPÄDAGOGIK
FAUST_1[2014-06]	41	2	9	5	3	2	2	2	2	1	1913	1	1	1	2583	2	2110	tricycle_10.bmp	tricycle_2.bmp	highchair_6.bmp	tricycle_2.bmp	tricycle_8.bmp	tricycle_5.bmp	tricycle_15.bmp	26	1	1	1	1	LASONDERPÄDAGOGIK
FAUST_1[2014-06]	41	2	16	5	3	1	1	3	2	1	1109	1	2	0	1849	4	1498	powerstrip_13.bmp	laptop_16.bmp	laptop_10.bmp	laptop_15.bmp	trunk_3.bmp	laptop_15.bmp	laptop_14.bmp	26	1	1	1	1	LASONDERPÄDAGOGIK
FAUST_1[2014-06]	41	2	10	5	3	2	1	3	2	1	1863	2	1	0	2261	4	2247	garbagecan_17.bmp	carabiner_7.bmp	scooter_8.bmp	scooter_4.bmp	scooter_11.bmp	scooter_5.bmp	carabiner_7.bmp	26	1	1	1	1	LASONDERPÄDAGOGIK
FAUST_1[2014-06]	41	2	21	5	3	1	1	3	2	1	1718	1	2	0	2787	4	1351	camera_6.bmp	goggle_9.bmp	goggle_3.bmp	goggle_4.bmp	goggle_1.bmp	birdhouse_6.bmp	goggle_1.bmp	26	1	1	1	1	LASONDERPÄDAGOGIK
FAUST_1[2014-06]	41	2	19	5	3	2	1	3	2	1	1029	1	1	1	2766	4	1132	watch_14.bmp	sofa_6.bmp	saltpeppershake_12.bmp	sofa_6.bmp	saltpeppershake_17.bmp	saltpeppershake_8.bmp	saltpeppershake_2.bmp	26	1	1	1	1	LASONDERPÄDAGOGIK
FAUST_1[2014-06]	41	2	6	5	3	1	1	3	2	1	1191	1	1	1	2180	4	1410	windchime_10.bmp	speaker_10.bmp	speaker_15.bmp	speaker_17.bmp	speaker_10.bmp	doorknob_17.bmp	speaker_4.bmp	26	1	1	1	1	LASONDERPÄDAGOGIK
FAUST_1[2014-06]	41	2	32	5	3	2	1	3	2	1	1092	2	2	1	2038	4	1261	wig_9.bmp	rollerskates_5.bmp	orifan_7.bmp	rollerskates_2.bmp	orifan_7.bmp	rollerskates_7.bmp	rollerskates_17.bmp	26	1	1	1	1	LASONDERPÄDAGOGIK
FAUST_1[2014-06]	41	2	26	5	3	1	1	3	2	1	1110	2	2	1	2090	4	1376	cheesegrater_14.bmp	trumpet_3.bmp	jacket_6.bmp	jacket_13.bmp	jacket_6.bmp	jacket_10.bmp	jacket_11.bmp	26	1	1	1	1	LASONDERPÄDAGOGIK
FAUST_1[2014-06]	41	2	14	5	3	2	1	3	2	1	1240	-1	1	0	0	4	1084	abacus_4.bmp	cat_9.bmp	sink_6.bmp	sink_11.bmp	sink_15.bmp	cat_9.bmp	sink_1.bmp	26	1	1	1	1	LASONDERPÄDAGOGIK
FAUST_1[2014-06]	41	3	5	5	2	1	1	1	1	1	1499	1	1	1	1736	3	1374	Strawberry4.bmp	Screw16.bmp	Screw10.bmp	Screw18.bmp	Screw13.bmp	Strawberry4.bmp	Screw10.bmp	26	1	1	1	1	LASONDERPÄDAGOGIK
FAUST_1[2014-06]	41	3	16	5	2	2	1	1	1	1	1650	1	1	1	1708	4	1925	Button10.bmp	Button10.bmp	Pear15.bmp	Pear7.bmp	Pear18.bmp	Button10.bmp	Pear16.bmp	26	1	1	1	1	LASONDERPÄDAGOGIK
FAUST_1[2014-06]	41	3	4	5	2	1	2	1	1	1	1221	2	2	1	2235	4	2159	Umbrella7.bmp	Ginger5.bmp	Umbrella19.bmp	Umbrella7.bmp	Umbrella17.bmp	Ginger5.bmp	Umbrella21.bmp	26	1	1	1	1	LASONDERPÄDAGOGIK
FAUST_1[2014-06]	41	3	19	5	2	2	2	1	1	1	1296	1	2	0	2029	3	1777	Feather11.bmp	Feather11.bmp	Feather2.bmp	Chocolate6.bmp	Feather14.bmp	Feather18.bmp	Feather11.bmp	26	1	1	1	1	LASONDERPÄDAGOGIK
FAUST_1[2014-06]	41	3	22	5	2	1	1	1	1	1	1393	2	2	1	2514	4	1206	Car21.bmp	Mushroom18.bmp	Mushroom6.bmp	Mushroom7.bmp	Mushroom6.bmp	Mushroom14.bmp	Car21.bmp	26	1	1	1	1	LASONDERPÄDAGOGIK
FAUST_1[2014-06]	41	3	10	5	2	2	1	1	1	1	1210	1	1	1	2601	4	1322	Candle20.bmp	Glass12.bmp	Candle20.bmp	Glass3.bmp	Glass16.bmp	Glass4.bmp	Candle20.bmp	26	1	1	1	1	LASONDERPÄDAGOGIK
FAUST_1[2014-06]	41	3	21	5	2	1	2	1	1	1	1158	1	1	1	2255	4	1159	Present9.bmp	Present9.bmp	Paperclip4.bmp	Present3.bmp	Present14.bmp	Present2.bmp	Paperclip4.bmp	26	1	1	1	1	LASONDERPÄDAGOGIK
FAUST_1[2014-06]	41	3	12	5	2	2	2	1	1	1	1254	1	1	1	1595	4	1814	Bag4.bmp	Bag4.bmp	Brocolli19.bmp	Bag3.bmp	Bag25.bmp	Bag4.bmp	Bag21.bmp	26	1	1	1	1	LASONDERPÄDAGOGIK
FAUST_1[2014-06]	41	3	11	5	2	1	1	2	2	1	1327	1	1	1	1825	4	1319	Star19.bmp	Bracelet2.bmp	Bracelet5.bmp	Bracelet18.bmp	Star2.bmp	Bracelet18.bmp	Bracelet8.bmp	26	1	1	1	1	LASONDERPÄDAGOGIK
FAUST_1[2014-06]	41	3	8	5	2	2	1	2	2	1	979	1	1	1	2970	4	1197	Varnish14.bmp	Varnish11.bmp	Plug9.bmp	Plug18.bmp	Plug8.bmp	Varnish11.bmp	Plug4.bmp	26	1	1	1	1	LASONDERPÄDAGOGIK
FAUST_1[2014-06]	41	3	9	5	2	1	2	2	2	1	1646	1	2	0	2099	3	1694	Stapler9.bmp	Stapler6.bmp	Stapler8.bmp	Leaf21.bmp	Stapler10.bmp	Stapler7.bmp	Leaf21.bmp	26	1	1	1	1	LASONDERPÄDAGOGIK
FAUST_1[2014-06]	41	3	18	5	2	2	2	2	2	1	1394	1	1	1	2223	3	1550	Biscuit20.bmp	Biscuit25.bmp	Biscuit9.bmp	Biscuit25.bmp	Biscuit17.bmp	Biscuit4.bmp	Bun22.bmp	26	1	1	1	1	LASONDERPÄDAGOGIK
FAUST_1[2014-06]	41	3	14	5	2	1	1	2	1	0	1316	2	2	1	2675	4	1682	Man10.bmp	Cake24.bmp	Cake25.bmp	Cake7.bmp	Cake25.bmp	Cake16.bmp	Man2.bmp	26	1	1	1	1	LASONDERPÄDAGOGIK
FAUST_1[2014-06]	41	3	13	5	2	2	1	2	1	0	1993	1	1	1	2026	2	2482	Apple21.bmp	Hand17.bmp	Hand10.bmp	Apple10.bmp	Hand1.bmp	Hand8.bmp	Apple10.bmp	26	1	1	1	1	LASONDERPÄDAGOGIK
FAUST_1[2014-06]	41	3	1	5	2	1	2	2	1	0	1383	2	2	1	1427	3	2245	Shell18.bmp	Shell9.bmp	Shell1.bmp	Tomato2.bmp	Shell5.bmp	Tomato2.bmp	Shell17.bmp	26	1	1	1	1	LASONDERPÄDAGOGIK
FAUST_1[2014-06]	41	3	2	5	2	2	2	2	2	1	2431	1	1	1	1505	3	1857	Coins3.bmp	Key11.bmp	Coins12.bmp	Coins10.bmp	Coins8.bmp	Coins14.bmp	Coins10.bmp	26	1	1	1	1	LASONDERPÄDAGOGIK
FAUST_1[2014-06]	41	3	6	5	2	1	1	3	2	1	2003	1	2	0	1756	3	1373	Daff22.bmp	Lipstick2.bmp	Lipstick15.bmp	Lipstick3.bmp	Lipstick7.bmp	Holly20.bmp	Lipstick15.bmp	26	1	1	1	1	LASONDERPÄDAGOGIK
FAUST_1[2014-06]	41	3	17	5	2	2	1	3	2	1	1067	2	2	1	2668	4	1234	Jigsaw18.bmp	Sweet1.bmp	Sweet10.bmp	Sweet25.bmp	Swirl1.bmp	Sweet18.bmp	Swirl1.bmp	26	1	1	1	1	LASONDERPÄDAGOGIK
FAUST_1[2014-06]	41	3	3	5	2	1	1	3	2	1	999	1	2	0	1699	4	1034	Pen10.bmp	String9.bmp	String8.bmp	String9.bmp	Fork17.bmp	String2.bmp	String6.bmp	26	1	1	1	1	LASONDERPÄDAGOGIK
FAUST_1[2014-06]	41	3	7	5	2	2	1	3	2	1	1765	-1	1	0	0	4	1972	Toothbrush10.bmp	Scissors3.bmp	Hanger15.bmp	Scissors1.bmp	Scissors14.bmp	Hanger15.bmp	Scissors11.bmp	26	1	1	1	1	LASONDERPÄDAGOGIK
FAUST_1[2014-06]	41	3	20	5	2	1	1	3	2	1	1076	1	1	1	2166	4	1169	Onion18.bmp	Keys6.bmp	Keys9.bmp	Flower18.bmp	Keys7.bmp	Keys5.bmp	Keys7.bmp	26	1	1	1	1	LASONDERPÄDAGOGIK
FAUST_1[2014-06]	41	3	15	5	2	2	1	3	2	1	1011	2	2	1	2143	4	1039	Fudge20.bmp	Chilli12.bmp	Nut2.bmp	Chilli11.bmp	Nut2.bmp	Chilli22.bmp	Chilli14.bmp	26	1	1	1	1	LASONDERPÄDAGOGIK
FAUST_1[2014-06]	41	4	29	5	1	1	1	1	1	1	2048	1	1	1	431	4	1082	BACKFORM	whiskey	rum	whiskey	wodka	backform	gin	26	1	1	1	1	LASONDERPÄDAGOGIK
FAUST_1[2014-06]	41	4	5	5	1	2	1	1	1	1	1650	1	1	1	433	3	1139	SOFA	sofa	lilie	veilchen	sofa	tulpe	rose	26	1	1	1	1	LASONDERPÄDAGOGIK
FAUST_1[2014-06]	41	4	26	5	1	1	2	1	1	1	2632	1	1	1	977	2	1819	LILA	blau	donau	lila	rot	donau	grün	26	1	1	1	1	LASONDERPÄDAGOGIK
FAUST_1[2014-06]	41	4	2	5	1	2	2	1	1	1	1401	2	2	1	184	4	1247	MOPS	mops	dogge	dackel	schäferhund	mops	niere	26	1	1	1	1	LASONDERPÄDAGOGIK
FAUST_1[2014-06]	41	4	3	5	1	1	1	1	2	0	1499	2	1	0	126	3	1353	AUSTRALIEN	australien	bombe	pistole	gewehr	schwert	gewehr	26	1	1	1	1	LASONDERPÄDAGOGIK
FAUST_1[2014-06]	41	4	32	5	1	2	1	1	2	0	1139	1	2	0	396	3	1032	KREIS	karamell	kreis	lakritz	gummibärchen	kreis	marzipan	26	1	1	1	1	LASONDERPÄDAGOGIK
FAUST_1[2014-06]	41	4	12	5	1	1	2	1	1	1	1518	1	1	1	212	4	1879	JUPITER	malen	pluto	jupiter	malen	venus	merkur	26	1	1	1	1	LASONDERPÄDAGOGIK
FAUST_1[2014-06]	41	4	25	5	1	2	2	1	1	1	1204	2	2	1	1899	4	1378	OBOE	oboe	trompete	flöte	oboe	stunde	posaune	26	1	1	1	1	LASONDERPÄDAGOGIK
FAUST_1[2014-06]	41	4	22	5	1	1	1	1	2	0	1017	2	1	0	271	4	1311	THÜRINGEN	kamera	computer	kamera	laptop	thüringen	mobiltelefon	26	1	1	1	1	LASONDERPÄDAGOGIK
FAUST_1[2014-06]	41	4	6	5	1	2	1	1	1	1	1653	2	2	1	246	4	1380	DÄNEMARK	sonnenschein	regen	dänemark	nebel	dänemark	schnee	26	1	1	1	1	LASONDERPÄDAGOGIK
FAUST_1[2014-06]	41	4	10	5	1	1	2	1	1	1	2862	1	2	0	460	1	1208	PHYSIK	physik	mathematik	erdkunde	blumenkohl	biologie	blumenkohl	26	1	1	1	1	LASONDERPÄDAGOGIK
FAUST_1[2014-06]	41	4	14	5	1	2	2	1	1	1	1550	2	2	1	1083	2	2001	BRONZE	bronze	silber	bronze	synagoge	gold	messing	26	1	1	1	1	LASONDERPÄDAGOGIK
FAUST_1[2014-06]	41	4	13	5	1	1	1	2	2	1	1255	2	1	0	478	4	1084	OPER	fernsehen	radio	zirkus	fernsehen	buch	internet	26	1	1	1	1	LASONDERPÄDAGOGIK
FAUST_1[2014-06]	41	4	19	5	1	2	1	2	2	1	989	2	1	0	975	4	1524	DÖNER	kugelschreiber	filzstift	buntstift	hamburger	bleistift	hamburger	26	1	1	1	1	LASONDERPÄDAGOGIK
FAUST_1[2014-06]	41	4	1	5	1	1	2	2	2	1	1265	2	1	0	543	4	2757	CHACHACHA	walzer	horrorfilm	rumba	horrorfilm	tango	foxtrott	26	1	1	1	1	LASONDERPÄDAGOGIK
FAUST_1[2014-06]	41	4	7	5	1	2	2	2	2	1	1197	2	2	1	270	4	1140	BARACKE	hütte	scheune	kupplung	schuppen	blockhaus	schuppen	26	1	1	1	1	LASONDERPÄDAGOGIK
FAUST_1[2014-06]	41	4	31	5	1	1	1	2	2	1	1046	1	1	1	1608	4	948	LEOPARD	könig	graf	fürst	könig	puma	herzog	26	1	1	1	1	LASONDERPÄDAGOGIK
FAUST_1[2014-06]	41	4	21	5	1	2	1	2	1	0	1534	1	1	1	558	3	1404	BIRNE	apfel	richter	lehrer	apfel	polizist	pfarrer	26	1	1	1	1	LASONDERPÄDAGOGIK
FAUST_1[2014-06]	41	4	23	5	1	1	2	2	2	1	1075	1	1	1	3344	4	1647	SCHWIMMEN	flasche	golf	skifahren	tennis	flasche	fußball	26	1	1	1	1	LASONDERPÄDAGOGIK
FAUST_1[2014-06]	41	4	16	5	1	2	2	2	2	1	1080	1	1	1	605	4	963	ROCK	bluse	hemd	verb	hose	bluse	jacke	26	1	1	1	1	LASONDERPÄDAGOGIK
FAUST_1[2014-06]	41	4	17	5	1	1	1	2	2	1	1191	1	2	0	498	4	1181	LINEAL	brieföffner	angst	ärger	scham	freude	scham	26	1	1	1	1	LASONDERPÄDAGOGIK
FAUST_1[2014-06]	41	4	15	5	1	2	1	2	2	1	1033	2	1	0	887	4	1091	WEIDE	heroin	haschisch	opium	buche	cannabis	buche	26	1	1	1	1	LASONDERPÄDAGOGIK
FAUST_1[2014-06]	41	4	9	5	1	1	2	2	2	1	1287	1	2	0	64	4	1206	HAFER	gerste	kajal	roggen	kajal	weizen	dinkel	26	1	1	1	1	LASONDERPÄDAGOGIK
FAUST_1[2014-06]	41	4	24	5	1	2	2	2	2	1	1248	2	1	0	2395	4	1369	FORELLE	lachs	mozart	thunfisch	makrele	thunfisch	hering	26	1	1	1	1	LASONDERPÄDAGOGIK
FAUST_1[2014-06]	41	4	18	5	1	1	1	3	2	1	906	1	1	1	520	4	1913	KANU	ameise	biene	mücke	hummel	biene	sicherheitsnadel	26	1	1	1	1	LASONDERPÄDAGOGIK
FAUST_1[2014-06]	41	4	27	5	1	2	1	3	2	1	953	2	2	1	198	4	1374	TEELÖFFEL	halma	kilometer	halma	meter	meile	millimeter	26	1	1	1	1	LASONDERPÄDAGOGIK
FAUST_1[2014-06]	41	4	30	5	1	1	1	3	2	1	1080	1	1	1	432	4	1142	HEXE	bus	taxi	zug	grippe	zug	fahrrad	26	1	1	1	1	LASONDERPÄDAGOGIK
FAUST_1[2014-06]	41	4	20	5	1	2	1	3	2	1	1036	2	2	1	2242	4	1563	ARM	petroleum	steinbock	kerosin	steinbock	benzin	bleifrei	26	1	1	1	1	LASONDERPÄDAGOGIK
FAUST_1[2014-06]	41	4	4	5	1	1	1	3	2	1	1057	1	1	1	236	4	1855	STICKSTOFF	hören	fühlen	meer	hören	sehen	riechen	26	1	1	1	1	LASONDERPÄDAGOGIK
FAUST_1[2014-06]	41	4	8	5	1	2	1	3	2	1	940	1	1	1	238	4	933	CENT	berufsschule	fink	berufsschule	meise	taube	amsel	26	1	1	1	1	LASONDERPÄDAGOGIK
FAUST_1[2014-06]	41	4	11	5	1	1	1	3	2	1	924	1	1	1	1638	4	1222	WOLLE	onkel	säge	zange	meißel	hammer	meißel	26	1	1	1	1	LASONDERPÄDAGOGIK
FAUST_1[2014-06]	41	4	28	5	1	2	1	3	2	1	1283	1	1	1	613	4	1456	MAJORAN	hamburg	porsche	peugeot	hamburg	volvo	audi	26	1	1	1	1	LASONDERPÄDAGOGIK
