experiment	subject	block	trial	order	material	repeated	related	probetype	response	correct	rt	math_response	math_correctresponse	math_correct	math_rt	confidence	confidence_rt	probe	item1	item2	item3	item4	item5	item6	age	sex	handedness	color_vision	mother_tongue	occupation
FAUST_1[2014-06]	42	1	26	1	1	1	1	1	1	1	1161	2	1	0	2473	4	927	PETROLEUM	petroleum	schrank	tisch	sofa	stuhl	sofa	24	2	1	1	1	MEDIENKULTURWISSENSCHAFTEN
FAUST_1[2014-06]	42	1	16	1	1	2	1	1	1	1	2072	1	1	1	2071	4	1285	BRIEFÖFFNER	brieföffner	nudelholz	brieföffner	pfannenwender	küchenwaage	backblech	24	2	1	1	1	MEDIENKULTURWISSENSCHAFTEN
FAUST_1[2014-06]	42	1	11	1	1	1	2	1	2	0	2557	1	2	0	2022	3	1546	GEWEHR	gewehr	zwilling	bombe	pistole	zwilling	schwert	24	2	1	1	1	MEDIENKULTURWISSENSCHAFTEN
FAUST_1[2014-06]	42	1	22	1	1	2	2	1	1	1	1875	2	2	1	2008	4	2906	GESAMTSCHULE	realschule	gesamtschule	berufsschule	hauptschule	gesamtschule	venus	24	2	1	1	1	MEDIENKULTURWISSENSCHAFTEN
FAUST_1[2014-06]	42	1	5	1	1	1	1	1	2	0	1627	2	1	0	2227	3	1180	RECHTECK	blumenkohl	spinat	karotten	rechteck	bohnen	blumenkohl	24	2	1	1	1	MEDIENKULTURWISSENSCHAFTEN
FAUST_1[2014-06]	42	1	17	1	1	2	1	1	1	1	1365	2	1	0	2530	4	942	DÄNEMARK	terrier	schäferhund	dänemark	mops	dackel	dänemark	24	2	1	1	1	MEDIENKULTURWISSENSCHAFTEN
FAUST_1[2014-06]	42	1	1	1	1	1	2	1	1	1	4429	2	1	0	1846	4	2598	ROSE	schiff	rose	schiff	tulpe	nelke	veilchen	24	2	1	1	1	MEDIENKULTURWISSENSCHAFTEN
FAUST_1[2014-06]	42	1	25	1	1	2	2	1	1	1	1535	1	2	0	2626	3	1580	HEMD	hemd	hose	bluse	hemd	jacke	buntstift	24	2	1	1	1	MEDIENKULTURWISSENSCHAFTEN
FAUST_1[2014-06]	42	1	7	1	1	1	1	1	1	1	3859	2	2	1	3071	3	2216	GRIPPE	pizza	hamburger	bratwurst	pommes	hamburger	grippe	24	2	1	1	1	MEDIENKULTURWISSENSCHAFTEN
FAUST_1[2014-06]	42	1	29	1	1	2	1	1	2	0	2544	2	2	1	3177	2	1229	WEIDE	tochter	sohn	mutter	weide	onkel	weide	24	2	1	1	1	MEDIENKULTURWISSENSCHAFTEN
FAUST_1[2014-06]	42	1	21	1	1	1	2	1	2	0	1899	2	2	1	2147	3	1138	TEMPEL	biene	tempel	moschee	kirche	biene	kapelle	24	2	1	1	1	MEDIENKULTURWISSENSCHAFTEN
FAUST_1[2014-06]	42	1	15	1	1	2	2	1	1	1	4726	2	1	0	2773	3	1759	ARZT	arzt	pfarrer	richter	lehrer	arzt	internet	24	2	1	1	1	MEDIENKULTURWISSENSCHAFTEN
FAUST_1[2014-06]	42	1	3	1	1	1	1	2	2	1	1747	2	1	0	2754	4	1829	SACHSEN	nähnadel	saarland	stricknadel	häkelnadel	sicherheitsnadel	stricknadel	24	2	1	1	1	MEDIENKULTURWISSENSCHAFTEN
FAUST_1[2014-06]	42	1	14	1	1	2	1	2	1	0	2179	2	2	1	2383	3	1522	REGEN	südamerika	nebel	asien	afrika	australien	nebel	24	2	1	1	1	MEDIENKULTURWISSENSCHAFTEN
FAUST_1[2014-06]	42	1	2	1	1	1	2	2	2	1	3185	2	1	0	2288	3	2276	FLASCHE	glas	scrabble	karaffe	scrabble	becher	kanne	24	2	1	1	1	MEDIENKULTURWISSENSCHAFTEN
FAUST_1[2014-06]	42	1	19	1	1	2	2	2	1	0	1448	1	1	1	2801	4	983	SILBER	eisen	messing	eisen	bronze	kilometer	gold	24	2	1	1	1	MEDIENKULTURWISSENSCHAFTEN
FAUST_1[2014-06]	42	1	23	1	1	1	1	2	2	1	1547	2	2	1	2488	3	1791	TEQUILA	jahr	tag	stunde	tag	whiskey	minute	24	2	1	1	1	MEDIENKULTURWISSENSCHAFTEN
FAUST_1[2014-06]	42	1	9	1	1	2	1	2	2	1	3884	2	2	1	2525	3	4133	WESER	main	tiger	main	gepard	puma	panther	24	2	1	1	1	MEDIENKULTURWISSENSCHAFTEN
FAUST_1[2014-06]	42	1	32	1	1	1	2	2	2	1	1992	2	2	1	2588	2	1587	KOHLENSTOFF	helium	kupplung	sauerstoff	stickstoff	wasserstoff	kupplung	24	2	1	1	1	MEDIENKULTURWISSENSCHAFTEN
FAUST_1[2014-06]	42	1	18	1	1	2	2	2	2	1	1296	2	2	1	1606	4	1333	TEICH	ozean	fluss	chachacha	see	meer	fluss	24	2	1	1	1	MEDIENKULTURWISSENSCHAFTEN
FAUST_1[2014-06]	42	1	8	1	1	1	1	2	1	0	2715	1	1	1	2776	4	2109	BONBONS	mathematik	lakritz	erdkunde	physik	biologie	erdkunde	24	2	1	1	1	MEDIENKULTURWISSENSCHAFTEN
FAUST_1[2014-06]	42	1	28	1	1	2	1	2	1	0	2112	1	1	1	2476	1	2625	FORELLE	herzog	kaiser	lachs	fürst	lachs	graf	24	2	1	1	1	MEDIENKULTURWISSENSCHAFTEN
FAUST_1[2014-06]	42	1	27	1	1	1	2	2	2	1	4453	1	1	1	2047	4	1523	MOZART	beethoven	chopin	wimperntusche	vivaldi	brahms	wimperntusche	24	2	1	1	1	MEDIENKULTURWISSENSCHAFTEN
FAUST_1[2014-06]	42	1	20	1	1	2	2	2	2	1	1647	2	2	1	3097	3	1525	POSAUNE	klarinette	oboe	trompete	flöte	klarinette	cent	24	2	1	1	1	MEDIENKULTURWISSENSCHAFTEN
FAUST_1[2014-06]	42	1	6	1	1	1	1	3	2	1	1174	1	2	0	2757	2	1432	KOPF	nomen	präposition	adverb	verb	präposition	flanell	24	2	1	1	1	MEDIENKULTURWISSENSCHAFTEN
FAUST_1[2014-06]	42	1	24	1	1	2	1	3	2	1	1285	2	2	1	2795	2	1534	KONZERTSAAL	niere	leber	magen	hammer	herz	hammer	24	2	1	1	1	MEDIENKULTURWISSENSCHAFTEN
FAUST_1[2014-06]	42	1	13	1	1	1	1	3	2	1	2416	-1	2	0	0	2	1377	HÖREN	gelb	rot	erdbeere	lila	blau	lila	24	2	1	1	1	MEDIENKULTURWISSENSCHAFTEN
FAUST_1[2014-06]	42	1	31	1	1	2	1	3	2	1	1174	2	2	1	2089	3	1137	SCHEUNE	peugeot	haschisch	porsche	mercedes	haschisch	volvo	24	2	1	1	1	MEDIENKULTURWISSENSCHAFTEN
FAUST_1[2014-06]	42	1	30	1	1	1	1	3	2	1	1593	2	2	1	2345	3	1015	FREUDE	zeichnen	basteln	lesen	hamburg	basteln	malen	24	2	1	1	1	MEDIENKULTURWISSENSCHAFTEN
FAUST_1[2014-06]	42	1	12	1	1	2	1	3	2	1	3231	2	1	0	2228	2	1473	HAFER	kamera	schwalbe	amsel	kamera	fink	taube	24	2	1	1	1	MEDIENKULTURWISSENSCHAFTEN
FAUST_1[2014-06]	42	1	10	1	1	1	1	3	2	1	3147	2	1	0	2250	3	2985	MESSER	horrorfilm	western	majoran	thriller	horrorfilm	komödie	24	2	1	1	1	MEDIENKULTURWISSENSCHAFTEN
FAUST_1[2014-06]	42	1	4	1	1	2	1	3	2	1	6161	2	1	0	2650	4	2503	VAMPIR	zug	golf	tennis	fußball	skifahren	zug	24	2	1	1	1	MEDIENKULTURWISSENSCHAFTEN
FAUST_1[2014-06]	42	2	2	1	2	1	1	1	1	1	1509	1	1	1	3200	3	3126	Pear16.bmp	Coins12.bmp	Coins8.bmp	Coins3.bmp	Coins8.bmp	Coins14.bmp	Pear16.bmp	24	2	1	1	1	MEDIENKULTURWISSENSCHAFTEN
FAUST_1[2014-06]	42	2	16	1	2	2	1	1	1	1	1305	2	1	0	2444	4	949	Onion7.bmp	Onion7.bmp	Screw9.bmp	Screw18.bmp	Screw10.bmp	Onion7.bmp	Screw16.bmp	24	2	1	1	1	MEDIENKULTURWISSENSCHAFTEN
FAUST_1[2014-06]	42	2	12	1	2	1	2	1	1	1	1464	1	1	1	1857	4	1073	Shell18.bmp	Stapler9.bmp	Shell1.bmp	Shell18.bmp	Shell5.bmp	Shell17.bmp	Stapler9.bmp	24	2	1	1	1	MEDIENKULTURWISSENSCHAFTEN
FAUST_1[2014-06]	42	2	7	1	2	2	2	1	1	1	2011	1	1	1	2600	4	3813	Umbrella7.bmp	Umbrella7.bmp	Umbrella21.bmp	Umbrella6.bmp	Umbrella17.bmp	Daff1.bmp	Umbrella7.bmp	24	2	1	1	1	MEDIENKULTURWISSENSCHAFTEN
FAUST_1[2014-06]	42	2	8	1	2	1	1	1	1	1	1748	1	1	1	2737	4	828	Glass3.bmp	Chocolate9.bmp	Chocolate24.bmp	Glass3.bmp	Chocolate24.bmp	Chocolate17.bmp	Chocolate5.bmp	24	2	1	1	1	MEDIENKULTURWISSENSCHAFTEN
FAUST_1[2014-06]	42	2	5	1	2	2	1	1	1	1	4757	1	1	1	2599	3	1341	Bun22.bmp	Bun22.bmp	String12.bmp	String2.bmp	Bun22.bmp	String9.bmp	String6.bmp	24	2	1	1	1	MEDIENKULTURWISSENSCHAFTEN
FAUST_1[2014-06]	42	2	21	1	2	1	2	1	1	1	1091	2	2	1	1840	4	1368	Fudge15.bmp	Fudge8.bmp	Fudge5.bmp	Fudge15.bmp	Car21.bmp	Fudge17.bmp	Car21.bmp	24	2	1	1	1	MEDIENKULTURWISSENSCHAFTEN
FAUST_1[2014-06]	42	2	15	1	2	2	2	1	1	1	1375	2	1	0	2387	3	3932	Chilli22.bmp	Chilli22.bmp	Chilli12.bmp	Chilli22.bmp	Chilli19.bmp	Fork7.bmp	Chilli14.bmp	24	2	1	1	1	MEDIENKULTURWISSENSCHAFTEN
FAUST_1[2014-06]	42	2	6	1	2	1	1	2	2	1	4468	1	1	1	2335	2	1724	Feather14.bmp	Tomato18.bmp	Feather12.bmp	Tomato5.bmp	Tomato3.bmp	Tomato2.bmp	Tomato3.bmp	24	2	1	1	1	MEDIENKULTURWISSENSCHAFTEN
FAUST_1[2014-06]	42	2	22	1	2	2	1	2	1	0	2968	2	2	1	2918	2	1268	Varnish11.bmp	Varnish17.bmp	Hanger15.bmp	Hanger12.bmp	Varnish17.bmp	Hanger2.bmp	Hanger14.bmp	24	2	1	1	1	MEDIENKULTURWISSENSCHAFTEN
FAUST_1[2014-06]	42	2	9	1	2	1	2	2	2	1	2534	2	1	0	1204	2	1555	Strawberry3.bmp	Strawberry18.bmp	Apple21.bmp	Strawberry14.bmp	Strawberry21.bmp	Strawberry4.bmp	Apple21.bmp	24	2	1	1	1	MEDIENKULTURWISSENSCHAFTEN
FAUST_1[2014-06]	42	2	20	1	2	2	2	2	1	0	1505	1	1	1	1951	4	1066	Bag25.bmp	Bag21.bmp	Bag5.bmp	Lipstick2.bmp	Bag4.bmp	Bag5.bmp	Bag3.bmp	24	2	1	1	1	MEDIENKULTURWISSENSCHAFTEN
FAUST_1[2014-06]	42	2	18	1	2	1	1	2	2	1	6135	1	1	1	2137	2	2232	Holly11.bmp	Hand10.bmp	Hand13.bmp	Hand17.bmp	Holly3.bmp	Hand13.bmp	Hand1.bmp	24	2	1	1	1	MEDIENKULTURWISSENSCHAFTEN
FAUST_1[2014-06]	42	2	11	1	2	2	1	2	1	0	2526	2	2	1	2600	4	1588	Pen20.bmp	Pen17.bmp	Bracelet1.bmp	Bracelet5.bmp	Bracelet18.bmp	Bracelet8.bmp	Pen17.bmp	24	2	1	1	1	MEDIENKULTURWISSENSCHAFTEN
FAUST_1[2014-06]	42	2	19	1	2	1	2	2	1	0	2122	2	2	1	2623	3	1746	Ginger15.bmp	Ginger5.bmp	Nut2.bmp	Ginger3.bmp	Nut2.bmp	Ginger10.bmp	Ginger17.bmp	24	2	1	1	1	MEDIENKULTURWISSENSCHAFTEN
FAUST_1[2014-06]	42	2	10	1	2	2	2	2	1	0	2227	1	1	1	1687	3	2368	Biscuit25.bmp	Biscuit9.bmp	Biscuit17.bmp	Brocolli14.bmp	Biscuit20.bmp	Biscuit4.bmp	Biscuit9.bmp	24	2	1	1	1	MEDIENKULTURWISSENSCHAFTEN
FAUST_1[2014-06]	42	2	3	1	2	1	1	3	2	1	1887	1	1	1	1964	3	1470	Candle1.bmp	Paperclip4.bmp	Paperclip6.bmp	Paperclip14.bmp	Toothbrush6.bmp	Paperclip14.bmp	Paperclip9.bmp	24	2	1	1	1	MEDIENKULTURWISSENSCHAFTEN
FAUST_1[2014-06]	42	2	14	1	2	2	1	3	2	1	997	2	1	0	2946	4	1200	Mushroom25.bmp	Star17.bmp	Present17.bmp	Present2.bmp	Present9.bmp	Present14.bmp	Star17.bmp	24	2	1	1	1	MEDIENKULTURWISSENSCHAFTEN
FAUST_1[2014-06]	42	2	1	1	2	1	1	3	2	1	2276	2	2	1	1561	3	1722	Jigsaw11.bmp	Keys5.bmp	Flower18.bmp	Keys6.bmp	Keys5.bmp	Keys8.bmp	Keys9.bmp	24	2	1	1	1	MEDIENKULTURWISSENSCHAFTEN
FAUST_1[2014-06]	42	2	13	1	2	2	1	3	2	1	1315	2	2	1	1941	4	1580	Cake16.bmp	Scissors14.bmp	Leaf22.bmp	Scissors3.bmp	Leaf22.bmp	Scissors23.bmp	Scissors11.bmp	24	2	1	1	1	MEDIENKULTURWISSENSCHAFTEN
FAUST_1[2014-06]	42	2	4	1	2	1	1	3	2	1	1119	2	2	1	2770	4	1115	Button20.bmp	Plug18.bmp	Sweet1.bmp	Sweet22.bmp	Sweet10.bmp	Sweet25.bmp	Sweet22.bmp	24	2	1	1	1	MEDIENKULTURWISSENSCHAFTEN
FAUST_1[2014-06]	42	2	17	1	2	2	1	3	2	1	1129	2	1	0	2890	4	2147	Man4.bmp	Key5.bmp	Key13.bmp	Swirl10.bmp	Key9.bmp	Key11.bmp	Swirl10.bmp	24	2	1	1	1	MEDIENKULTURWISSENSCHAFTEN
FAUST_1[2014-06]	42	3	30	1	3	1	1	1	1	1	6078	1	1	1	2786	1	2751	mic_12.bmp	watch_7.bmp	watch_6.bmp	watch_8.bmp	mic_12.bmp	watch_14.bmp	watch_8.bmp	24	2	1	1	1	MEDIENKULTURWISSENSCHAFTEN
FAUST_1[2014-06]	42	3	18	1	3	2	1	1	1	1	1589	2	2	1	2397	4	1494	cat_1.bmp	abacus_4.bmp	abacus_6.bmp	cat_1.bmp	abacus_7.bmp	cat_1.bmp	abacus_2.bmp	24	2	1	1	1	MEDIENKULTURWISSENSCHAFTEN
FAUST_1[2014-06]	42	3	19	1	3	1	2	1	1	1	3575	1	1	1	2031	3	1213	shoe_17.bmp	shoe_17.bmp	shoe_7.bmp	shoe_9.bmp	bowlingpin_13.bmp	shoe_15.bmp	bowlingpin_13.bmp	24	2	1	1	1	MEDIENKULTURWISSENSCHAFTEN
FAUST_1[2014-06]	42	3	26	1	3	2	2	1	1	1	1666	2	2	1	2710	4	967	carabiner_9.bmp	carabiner_2.bmp	carabiner_9.bmp	turtle_12.bmp	carabiner_7.bmp	carabiner_6.bmp	carabiner_9.bmp	24	2	1	1	1	MEDIENKULTURWISSENSCHAFTEN
FAUST_1[2014-06]	42	3	15	1	3	1	1	1	1	1	1438	2	2	1	2473	4	1940	printer_14.bmp	babycrib_7.bmp	babycrib_2.bmp	babycrib_5.bmp	babycrib_9.bmp	printer_14.bmp	babycrib_2.bmp	24	2	1	1	1	MEDIENKULTURWISSENSCHAFTEN
FAUST_1[2014-06]	42	3	27	1	3	2	1	1	1	1	1347	2	2	1	2514	4	1058	scooter_8.bmp	remote_13.bmp	scooter_8.bmp	remote_3.bmp	remote_2.bmp	remote_14.bmp	scooter_8.bmp	24	2	1	1	1	MEDIENKULTURWISSENSCHAFTEN
FAUST_1[2014-06]	42	3	31	1	3	1	2	1	1	1	3596	1	1	1	1615	3	2098	trophy_6.bmp	trophy_16.bmp	hairdryer_7.bmp	trophy_4.bmp	trophy_6.bmp	trophy_14.bmp	hairdryer_7.bmp	24	2	1	1	1	MEDIENKULTURWISSENSCHAFTEN
FAUST_1[2014-06]	42	3	29	1	3	2	2	1	1	1	1060	2	1	0	2597	4	1037	vase_15.bmp	vase_5.bmp	vase_1.bmp	tv_16.bmp	vase_15.bmp	vase_13.bmp	vase_15.bmp	24	2	1	1	1	MEDIENKULTURWISSENSCHAFTEN
FAUST_1[2014-06]	42	3	10	1	3	1	1	1	1	1	1482	1	2	0	1893	4	1527	cherubstatue_10.bmp	glove_5.bmp	glove_8.bmp	cherubstatue_10.bmp	glove_10.bmp	glove_8.bmp	glove_12.bmp	24	2	1	1	1	MEDIENKULTURWISSENSCHAFTEN
FAUST_1[2014-06]	42	3	3	1	3	2	1	1	1	1	1422	2	2	1	2114	4	1697	rusdoll_1.bmp	rusdoll_1.bmp	cheesegrater_15.bmp	cheesegrater_11.bmp	cheesegrater_8.bmp	rusdoll_1.bmp	cheesegrater_5.bmp	24	2	1	1	1	MEDIENKULTURWISSENSCHAFTEN
FAUST_1[2014-06]	42	3	28	1	3	1	2	1	1	1	2270	1	1	1	1977	4	2151	skateboard_3.bmp	goggle_4.bmp	skateboard_15.bmp	goggle_4.bmp	skateboard_11.bmp	skateboard_16.bmp	skateboard_3.bmp	24	2	1	1	1	MEDIENKULTURWISSENSCHAFTEN
FAUST_1[2014-06]	42	3	8	1	3	2	2	1	1	1	2198	1	1	1	2543	2	1644	laptop_14.bmp	laptop_14.bmp	laptop_10.bmp	laptop_14.bmp	laptop_16.bmp	laptop_15.bmp	horseshoe_4.bmp	24	2	1	1	1	MEDIENKULTURWISSENSCHAFTEN
FAUST_1[2014-06]	42	3	5	1	3	1	1	2	2	1	1308	2	2	1	2225	4	1729	chair_11.bmp	highchair_15.bmp	chair_3.bmp	highchair_3.bmp	highchair_10.bmp	highchair_4.bmp	highchair_10.bmp	24	2	1	1	1	MEDIENKULTURWISSENSCHAFTEN
FAUST_1[2014-06]	42	3	2	1	3	2	1	2	2	1	4472	1	1	1	2429	4	1501	iceskates_14.bmp	iceskates_7.bmp	tricycle_10.bmp	tricycle_2.bmp	iceskates_7.bmp	tricycle_8.bmp	tricycle_15.bmp	24	2	1	1	1	MEDIENKULTURWISSENSCHAFTEN
FAUST_1[2014-06]	42	3	6	1	3	1	2	2	1	0	5585	2	2	1	2503	2	1518	socks_10.bmp	plant_13.bmp	socks_13.bmp	socks_4.bmp	socks_12.bmp	socks_15.bmp	plant_13.bmp	24	2	1	1	1	MEDIENKULTURWISSENSCHAFTEN
FAUST_1[2014-06]	42	3	1	1	3	2	2	2	2	1	1508	2	2	1	2153	3	2082	cellphone_4.bmp	cellphone_3.bmp	cake_3.bmp	cellphone_3.bmp	cellphone_12.bmp	cellphone_8.bmp	cellphone_11.bmp	24	2	1	1	1	MEDIENKULTURWISSENSCHAFTEN
FAUST_1[2014-06]	42	3	25	1	3	1	1	2	2	1	1777	2	2	1	2068	3	2191	watergun_15.bmp	glasses_15.bmp	glasses_6.bmp	watergun_7.bmp	glasses_15.bmp	glasses_9.bmp	glasses_8.bmp	24	2	1	1	1	MEDIENKULTURWISSENSCHAFTEN
FAUST_1[2014-06]	42	3	13	1	3	2	1	2	2	1	2686	2	2	1	2623	3	1792	birdhouse_6.bmp	trunk_3.bmp	birdhouse_9.bmp	trunk_2.bmp	trunk_1.bmp	trunk_7.bmp	birdhouse_9.bmp	24	2	1	1	1	MEDIENKULTURWISSENSCHAFTEN
FAUST_1[2014-06]	42	3	24	1	3	1	2	2	2	1	6460	2	2	1	3085	2	1843	saddle_3.bmp	speaker_15.bmp	saddle_5.bmp	saddle_15.bmp	saddle_4.bmp	speaker_15.bmp	saddle_8.bmp	24	2	1	1	1	MEDIENKULTURWISSENSCHAFTEN
FAUST_1[2014-06]	42	3	7	1	3	2	2	2	1	0	1887	1	1	1	2333	3	1205	coffee_2.bmp	coffee_14.bmp	garbagecan_2.bmp	coffee_14.bmp	coffee_1.bmp	coffee_7.bmp	coffee_15.bmp	24	2	1	1	1	MEDIENKULTURWISSENSCHAFTEN
FAUST_1[2014-06]	42	3	16	1	3	1	1	2	2	1	6071	2	1	0	1947	3	1557	hammer_15.bmp	parfait_11.bmp	parfait_1.bmp	parfait_4.bmp	parfait_13.bmp	parfait_1.bmp	hammer_8.bmp	24	2	1	1	1	MEDIENKULTURWISSENSCHAFTEN
FAUST_1[2014-06]	42	3	32	1	3	2	1	2	2	1	2607	1	1	1	2352	3	1757	ring_12.bmp	powerstrip_13.bmp	ring_7.bmp	powerstrip_7.bmp	powerstrip_8.bmp	powerstrip_10.bmp	ring_7.bmp	24	2	1	1	1	MEDIENKULTURWISSENSCHAFTEN
FAUST_1[2014-06]	42	3	4	1	3	1	2	2	2	1	1666	1	1	1	1758	4	1771	guitar_8.bmp	guitar_14.bmp	wig_7.bmp	guitar_5.bmp	guitar_7.bmp	wig_7.bmp	guitar_10.bmp	24	2	1	1	1	MEDIENKULTURWISSENSCHAFTEN
FAUST_1[2014-06]	42	3	17	1	3	2	2	2	2	1	1250	1	1	1	2035	4	2154	rollerskates_5.bmp	circuitboard_13.bmp	rollerskates_7.bmp	rollerskates_2.bmp	rollerskates_8.bmp	rollerskates_17.bmp	rollerskates_2.bmp	24	2	1	1	1	MEDIENKULTURWISSENSCHAFTEN
FAUST_1[2014-06]	42	3	14	1	3	1	1	3	2	1	1018	1	1	1	2408	4	1294	backpack_10.bmp	doorknocker_2.bmp	trumpet_5.bmp	doorknocker_14.bmp	doorknocker_2.bmp	doorknocker_5.bmp	doorknocker_11.bmp	24	2	1	1	1	MEDIENKULTURWISSENSCHAFTEN
FAUST_1[2014-06]	42	3	23	1	3	2	1	3	2	1	841	1	1	1	2458	4	1790	bagel_14.bmp	beanbagchair_14.bmp	videogamecontroller_3.bmp	beanbagchair_14.bmp	videogamecontroller_13.bmp	videogamecontroller_11.bmp	videogamecontroller_2.bmp	24	2	1	1	1	MEDIENKULTURWISSENSCHAFTEN
FAUST_1[2014-06]	42	3	9	1	3	1	1	3	2	1	1277	2	1	0	2094	4	1558	sink_1.bmp	pasta_15.bmp	pasta_9.bmp	shredder_1.bmp	pasta_10.bmp	pasta_9.bmp	pasta_11.bmp	24	2	1	1	1	MEDIENKULTURWISSENSCHAFTEN
FAUST_1[2014-06]	42	3	12	1	3	2	1	3	2	1	1025	1	1	1	1879	4	1260	fan_15.bmp	windchime_6.bmp	flashlight_17.bmp	windchime_15.bmp	flashlight_17.bmp	windchime_10.bmp	windchime_16.bmp	24	2	1	1	1	MEDIENKULTURWISSENSCHAFTEN
FAUST_1[2014-06]	42	3	11	1	3	1	1	3	2	1	1148	1	1	1	2445	4	946	hairbrush_12.bmp	sofa_3.bmp	sofa_6.bmp	sofa_9.bmp	sofa_12.bmp	sofa_9.bmp	easteregg_16.bmp	24	2	1	1	1	MEDIENKULTURWISSENSCHAFTEN
FAUST_1[2014-06]	42	3	20	1	3	2	1	3	2	1	1340	2	1	0	2692	4	1184	doorknob_2.bmp	carriage_2.bmp	carriage_9.bmp	carriage_12.bmp	jacket_11.bmp	carriage_14.bmp	jacket_11.bmp	24	2	1	1	1	MEDIENKULTURWISSENSCHAFTEN
FAUST_1[2014-06]	42	3	21	1	3	1	1	3	2	1	1164	2	2	1	3094	4	1052	camera_7.bmp	orifan_6.bmp	orifan_17.bmp	orifan_14.bmp	orifan_6.bmp	orifan_7.bmp	leatherman_5.bmp	24	2	1	1	1	MEDIENKULTURWISSENSCHAFTEN
FAUST_1[2014-06]	42	3	22	1	3	2	1	3	2	1	1028	2	2	1	2530	4	1843	router_16.bmp	lawnmower_3.bmp	saltpeppershake_2.bmp	lawnmower_15.bmp	lawnmower_13.bmp	lawnmower_8.bmp	saltpeppershake_2.bmp	24	2	1	1	1	MEDIENKULTURWISSENSCHAFTEN
FAUST_1[2014-06]	42	2	10	1	1	1	1	1	2	0	1037	1	1	1	1365	3	1408	FREUDE	nudelholz	freude	pfannenwender	backblech	pfannenwender	küchenwaage	24	2	1	1	1	MEDIENKULTURWISSENSCHAFTEN
FAUST_1[2014-06]	42	2	19	1	1	2	1	1	2	0	1789	2	2	1	2488	4	2156	ZWILLING	zwilling	chopin	beethoven	mozart	zwilling	brahms	24	2	1	1	1	MEDIENKULTURWISSENSCHAFTEN
FAUST_1[2014-06]	42	2	23	1	1	1	2	1	2	0	3848	2	2	1	2220	3	1101	SYNAGOGE	kapelle	audi	moschee	synagoge	kirche	audi	24	2	1	1	1	MEDIENKULTURWISSENSCHAFTEN
FAUST_1[2014-06]	42	2	11	1	1	2	2	1	1	1	1322	2	2	1	2193	4	1656	MÜNCHEN	döner	münchen	stuttgart	hannover	berlin	münchen	24	2	1	1	1	MEDIENKULTURWISSENSCHAFTEN
FAUST_1[2014-06]	42	2	28	1	1	1	1	1	2	0	1337	2	2	1	2379	4	1310	TAXI	magen	taxi	leber	lunge	magen	niere	24	2	1	1	1	MEDIENKULTURWISSENSCHAFTEN
FAUST_1[2014-06]	42	2	25	1	1	2	1	1	1	1	1937	2	2	1	1959	4	1764	LILIE	lilie	gewehr	pistole	lilie	dolch	bombe	24	2	1	1	1	MEDIENKULTURWISSENSCHAFTEN
FAUST_1[2014-06]	42	2	27	1	1	1	2	1	2	0	1126	2	1	0	2298	2	991	LOCHER	weser	lineal	weser	brieföffner	büroklammer	locher	24	2	1	1	1	MEDIENKULTURWISSENSCHAFTEN
FAUST_1[2014-06]	42	2	6	1	1	2	2	1	1	1	1370	2	1	0	2681	4	1973	KAROTTEN	bohnen	hemd	tomaten	karotten	spinat	karotten	24	2	1	1	1	MEDIENKULTURWISSENSCHAFTEN
FAUST_1[2014-06]	42	2	29	1	1	1	1	1	1	1	1257	2	2	1	1583	4	854	COMPUTER	arzt	lehrer	polizist	richter	computer	lehrer	24	2	1	1	1	MEDIENKULTURWISSENSCHAFTEN
FAUST_1[2014-06]	42	2	9	1	1	2	1	1	1	1	1328	2	2	1	2436	4	1983	CHEMIE	chemie	kerosin	benzin	bleifrei	chemie	petroleum	24	2	1	1	1	MEDIENKULTURWISSENSCHAFTEN
FAUST_1[2014-06]	42	2	16	1	1	1	2	1	1	1	4645	1	1	1	2505	2	1421	AFRIKA	nordamerika	afrika	asien	graf	australien	graf	24	2	1	1	1	MEDIENKULTURWISSENSCHAFTEN
FAUST_1[2014-06]	42	2	13	1	1	2	2	1	2	0	2385	1	1	1	2694	2	1565	BIRKE	birke	buntstift	buche	eiche	birke	tanne	24	2	1	1	1	MEDIENKULTURWISSENSCHAFTEN
FAUST_1[2014-06]	42	2	22	1	1	1	1	2	2	1	2006	2	2	1	1873	3	1161	BASTELN	schreiben	minute	tag	stunde	jahr	stunde	24	2	1	1	1	MEDIENKULTURWISSENSCHAFTEN
FAUST_1[2014-06]	42	2	5	1	1	2	1	2	2	1	4525	2	2	1	2753	4	778	ROGGEN	weizen	sicherheitsnadel	häkelnadel	weizen	stricknadel	stecknadel	24	2	1	1	1	MEDIENKULTURWISSENSCHAFTEN
FAUST_1[2014-06]	42	2	1	1	1	1	2	2	2	1	1232	2	2	1	2254	4	4471	DÄMON	hexe	mücke	zombie	werwolf	mücke	vampir	24	2	1	1	1	MEDIENKULTURWISSENSCHAFTEN
FAUST_1[2014-06]	42	2	30	1	1	2	2	2	2	1	1180	2	1	0	2458	3	1304	SCHWEIZ	england	italien	england	dänemark	österreich	gymnasium	24	2	1	1	1	MEDIENKULTURWISSENSCHAFTEN
FAUST_1[2014-06]	42	2	26	1	1	1	1	2	2	1	1946	1	1	1	2080	3	959	BECHER	karaffe	gelb	lila	grün	blau	lila	24	2	1	1	1	MEDIENKULTURWISSENSCHAFTEN
FAUST_1[2014-06]	42	2	18	1	1	2	1	2	2	1	1497	1	2	0	3072	3	1433	DACKEL	schäferhund	tochter	mutter	schäferhund	onkel	vater	24	2	1	1	1	MEDIENKULTURWISSENSCHAFTEN
FAUST_1[2014-06]	42	2	3	1	1	1	2	2	2	1	1101	2	2	1	2656	3	1569	GOLF	schwimmen	tennis	skifahren	meißel	fußball	meißel	24	2	1	1	1	MEDIENKULTURWISSENSCHAFTEN
FAUST_1[2014-06]	42	2	2	1	1	2	2	2	2	1	1918	2	2	1	2387	2	1108	ACTIONFILM	western	thriller	wimperntusche	thriller	komödie	horrorfilm	24	2	1	1	1	MEDIENKULTURWISSENSCHAFTEN
FAUST_1[2014-06]	42	2	31	1	1	1	1	2	2	1	1347	2	1	0	2853	4	950	MUMPS	merkur	saturn	venus	pluto	röteln	pluto	24	2	1	1	1	MEDIENKULTURWISSENSCHAFTEN
FAUST_1[2014-06]	42	2	14	1	1	2	1	2	2	1	1013	2	2	1	2410	4	1834	SCHNEE	regen	pfennig	mark	dollar	euro	regen	24	2	1	1	1	MEDIENKULTURWISSENSCHAFTEN
FAUST_1[2014-06]	42	2	17	1	1	1	2	2	2	1	1024	1	1	1	2286	3	1871	YACHT	boot	posaune	schiff	fähre	posaune	kanu	24	2	1	1	1	MEDIENKULTURWISSENSCHAFTEN
FAUST_1[2014-06]	42	2	12	1	1	2	2	2	2	1	1747	2	1	0	1491	4	1204	BROTMESSER	teelöffel	kreis	messer	löffel	gabel	löffel	24	2	1	1	1	MEDIENKULTURWISSENSCHAFTEN
FAUST_1[2014-06]	42	2	20	1	1	1	1	3	2	1	1035	1	2	0	2244	3	1208	SAUERSTOFF	puma	panther	gepard	apfel	leopard	gepard	24	2	1	1	1	MEDIENKULTURWISSENSCHAFTEN
FAUST_1[2014-06]	42	2	4	1	1	2	1	3	2	1	1101	1	1	1	2331	4	937	PRÄPOSITION	fernsehen	schwalbe	internet	zeitung	schwalbe	buch	24	2	1	1	1	MEDIENKULTURWISSENSCHAFTEN
FAUST_1[2014-06]	42	2	24	1	1	1	1	3	2	1	1416	2	2	1	2364	4	1194	TEICH	schach	cannabis	kokain	haschisch	heroin	kokain	24	2	1	1	1	MEDIENKULTURWISSENSCHAFTEN
FAUST_1[2014-06]	42	2	32	1	1	2	1	3	2	1	1608	2	1	0	2572	3	883	GUMMIBÄRCHEN	brandenburg	tequila	hessen	saarland	sachsen	tequila	24	2	1	1	1	MEDIENKULTURWISSENSCHAFTEN
FAUST_1[2014-06]	42	2	15	1	1	1	1	3	2	1	954	1	1	1	1681	4	1170	MAJORAN	seide	konzertsaal	theater	konzertsaal	oper	zirkus	24	2	1	1	1	MEDIENKULTURWISSENSCHAFTEN
FAUST_1[2014-06]	42	2	21	1	1	2	1	3	2	1	1492	2	2	1	2207	4	1829	FUß	tango	stuhl	walzer	stuhl	foxtrott	rumba	24	2	1	1	1	MEDIENKULTURWISSENSCHAFTEN
FAUST_1[2014-06]	42	2	7	1	1	1	1	3	2	1	2276	2	2	1	2151	2	2010	HERING	bronze	zentimeter	meile	millimeter	kilometer	millimeter	24	2	1	1	1	MEDIENKULTURWISSENSCHAFTEN
FAUST_1[2014-06]	42	2	8	1	1	2	1	3	2	1	1116	2	2	1	2315	3	1222	SCHUPPEN	kupplung	fühlen	kupplung	schmecken	sehen	hören	24	2	1	1	1	MEDIENKULTURWISSENSCHAFTEN
FAUST_1[2014-06]	42	3	3	1	2	1	1	1	2	0	2615	1	1	1	2870	3	1315	Holly17.bmp	Glass3.bmp	Glass16.bmp	Glass19.bmp	Glass4.bmp	Glass19.bmp	Holly17.bmp	24	2	1	1	1	MEDIENKULTURWISSENSCHAFTEN
FAUST_1[2014-06]	42	3	4	1	2	2	1	1	1	1	1137	2	2	1	2502	4	2149	Bracelet18.bmp	Tomato3.bmp	Bracelet18.bmp	Tomato5.bmp	Tomato18.bmp	Tomato2.bmp	Bracelet18.bmp	24	2	1	1	1	MEDIENKULTURWISSENSCHAFTEN
FAUST_1[2014-06]	42	3	14	1	2	1	2	1	1	1	1692	1	1	1	1972	4	1320	Strawberry3.bmp	Strawberry3.bmp	Chilli12.bmp	Strawberry21.bmp	Strawberry14.bmp	Chilli12.bmp	Strawberry18.bmp	24	2	1	1	1	MEDIENKULTURWISSENSCHAFTEN
FAUST_1[2014-06]	42	3	1	1	2	2	2	1	1	1	1346	1	1	1	2595	4	1567	Daff3.bmp	Button20.bmp	Daff21.bmp	Daff1.bmp	Daff3.bmp	Daff22.bmp	Daff3.bmp	24	2	1	1	1	MEDIENKULTURWISSENSCHAFTEN
FAUST_1[2014-06]	42	3	6	1	2	1	1	1	1	1	1283	2	2	1	2020	4	1475	Star19.bmp	Flower18.bmp	Flower13.bmp	Flower14.bmp	Star19.bmp	Flower17.bmp	Flower13.bmp	24	2	1	1	1	MEDIENKULTURWISSENSCHAFTEN
FAUST_1[2014-06]	42	3	13	1	2	2	1	1	1	1	2030	2	2	1	2210	3	1140	Jigsaw10.bmp	Swirl1.bmp	Jigsaw10.bmp	Swirl5.bmp	Jigsaw10.bmp	Swirl10.bmp	Swirl13.bmp	24	2	1	1	1	MEDIENKULTURWISSENSCHAFTEN
FAUST_1[2014-06]	42	3	7	1	2	1	2	1	1	1	2942	2	2	1	1767	3	1284	Bun19.bmp	Brocolli9.bmp	Bun19.bmp	Bun17.bmp	Bun5.bmp	Bun12.bmp	Brocolli9.bmp	24	2	1	1	1	MEDIENKULTURWISSENSCHAFTEN
FAUST_1[2014-06]	42	3	5	1	2	2	2	1	1	1	2239	2	2	1	1882	3	1236	Screw9.bmp	Screw9.bmp	Screw10.bmp	Hanger15.bmp	Screw9.bmp	Screw13.bmp	Screw16.bmp	24	2	1	1	1	MEDIENKULTURWISSENSCHAFTEN
FAUST_1[2014-06]	42	3	20	1	2	1	1	2	2	1	5827	2	2	1	2239	3	827	Stapler8.bmp	Biscuit4.bmp	Biscuit17.bmp	Biscuit25.bmp	Stapler7.bmp	Biscuit4.bmp	Biscuit20.bmp	24	2	1	1	1	MEDIENKULTURWISSENSCHAFTEN
FAUST_1[2014-06]	42	3	15	1	2	2	1	2	2	1	4273	2	1	0	1906	2	1854	Present3.bmp	Bag25.bmp	Present14.bmp	Bag5.bmp	Present14.bmp	Bag21.bmp	Bag3.bmp	24	2	1	1	1	MEDIENKULTURWISSENSCHAFTEN
FAUST_1[2014-06]	42	3	21	1	2	1	2	2	2	1	1163	2	2	1	2517	4	1002	Sweet18.bmp	Umbrella21.bmp	Sweet1.bmp	Sweet25.bmp	Sweet22.bmp	Sweet10.bmp	Umbrella21.bmp	24	2	1	1	1	MEDIENKULTURWISSENSCHAFTEN
FAUST_1[2014-06]	42	3	10	1	2	2	2	2	2	1	1924	1	1	1	1345	3	1221	Key9.bmp	Key5.bmp	Key11.bmp	Key13.bmp	Chocolate17.bmp	Key13.bmp	Key20.bmp	24	2	1	1	1	MEDIENKULTURWISSENSCHAFTEN
FAUST_1[2014-06]	42	3	22	1	2	1	1	2	1	0	2992	2	2	1	3181	2	1349	Lipstick2.bmp	Mushroom14.bmp	Lipstick15.bmp	Mushroom6.bmp	Mushroom25.bmp	Mushroom7.bmp	Mushroom14.bmp	24	2	1	1	1	MEDIENKULTURWISSENSCHAFTEN
FAUST_1[2014-06]	42	3	12	1	2	2	1	2	2	1	1845	2	2	1	1686	1	2592	Toothbrush1.bmp	Shell1.bmp	Toothbrush10.bmp	Shell18.bmp	Toothbrush10.bmp	Shell5.bmp	Shell9.bmp	24	2	1	1	1	MEDIENKULTURWISSENSCHAFTEN
FAUST_1[2014-06]	42	3	2	1	2	1	2	2	1	0	1407	2	1	0	2230	3	1155	Feather18.bmp	Fudge15.bmp	Feather2.bmp	Feather11.bmp	Feather14.bmp	Fudge15.bmp	Feather12.bmp	24	2	1	1	1	MEDIENKULTURWISSENSCHAFTEN
FAUST_1[2014-06]	42	3	19	1	2	2	2	2	1	0	2021	1	1	1	1872	3	1544	Hand13.bmp	Hand1.bmp	Hand17.bmp	Hand1.bmp	Hand10.bmp	Plug18.bmp	Hand8.bmp	24	2	1	1	1	MEDIENKULTURWISSENSCHAFTEN
FAUST_1[2014-06]	42	3	16	1	2	1	1	3	2	1	1278	2	1	0	2135	4	1910	Car7.bmp	Candle17.bmp	Candle13.bmp	Candle17.bmp	Onion13.bmp	Candle20.bmp	Candle1.bmp	24	2	1	1	1	MEDIENKULTURWISSENSCHAFTEN
FAUST_1[2014-06]	42	3	9	1	2	2	1	3	2	1	1164	2	2	1	2383	4	971	Coins8.bmp	Varnish5.bmp	Keys8.bmp	Varnish14.bmp	Varnish3.bmp	Keys8.bmp	Varnish11.bmp	24	2	1	1	1	MEDIENKULTURWISSENSCHAFTEN
FAUST_1[2014-06]	42	3	8	1	2	1	1	3	2	1	1461	2	2	1	2023	4	2030	Nut21.bmp	Ginger3.bmp	Leaf13.bmp	Leaf22.bmp	Leaf21.bmp	Leaf22.bmp	Leaf10.bmp	24	2	1	1	1	MEDIENKULTURWISSENSCHAFTEN
FAUST_1[2014-06]	42	3	18	1	2	2	1	3	2	1	3098	2	1	0	2279	4	1422	Fork14.bmp	Scissors1.bmp	Scissors11.bmp	Scissors14.bmp	Apple21.bmp	Scissors23.bmp	Apple21.bmp	24	2	1	1	1	MEDIENKULTURWISSENSCHAFTEN
FAUST_1[2014-06]	42	3	11	1	2	1	1	3	2	1	3232	2	2	1	1908	4	1508	Paperclip6.bmp	Pen17.bmp	Pen10.bmp	Pen1.bmp	Pen5.bmp	Man4.bmp	Pen17.bmp	24	2	1	1	1	MEDIENKULTURWISSENSCHAFTEN
FAUST_1[2014-06]	42	3	17	1	2	2	1	3	2	1	2480	2	2	1	1785	4	999	Pear4.bmp	String12.bmp	Cake7.bmp	Cake18.bmp	String12.bmp	Cake25.bmp	Cake16.bmp	24	2	1	1	1	MEDIENKULTURWISSENSCHAFTEN
FAUST_1[2014-06]	42	4	30	1	3	1	1	1	1	1	1209	1	1	1	2000	4	965	skateboard_11.bmp	tv_16.bmp	skateboard_11.bmp	tv_8.bmp	tv_7.bmp	tv_5.bmp	tv_16.bmp	24	2	1	1	1	MEDIENKULTURWISSENSCHAFTEN
FAUST_1[2014-06]	42	4	29	1	3	2	1	1	1	1	1291	2	1	0	1578	3	935	lawnmower_17.bmp	lawnmower_17.bmp	flashlight_17.bmp	flashlight_12.bmp	flashlight_1.bmp	lawnmower_17.bmp	flashlight_13.bmp	24	2	1	1	1	MEDIENKULTURWISSENSCHAFTEN
FAUST_1[2014-06]	42	4	5	1	3	1	2	1	2	0	2073	1	1	1	1668	2	2671	easteregg_5.bmp	circuitboard_2.bmp	easteregg_16.bmp	easteregg_9.bmp	circuitboard_2.bmp	easteregg_14.bmp	easteregg_5.bmp	24	2	1	1	1	MEDIENKULTURWISSENSCHAFTEN
FAUST_1[2014-06]	42	4	24	1	3	2	2	1	1	1	1597	2	2	1	3051	3	1527	doorknob_10.bmp	doorknob_17.bmp	doorknob_10.bmp	doorknob_7.bmp	doorknob_14.bmp	doorknob_10.bmp	windchime_15.bmp	24	2	1	1	1	MEDIENKULTURWISSENSCHAFTEN
FAUST_1[2014-06]	42	4	20	1	3	1	1	1	1	1	1329	2	2	1	2317	3	2437	orifan_17.bmp	orifan_17.bmp	highchair_4.bmp	highchair_10.bmp	highchair_6.bmp	highchair_4.bmp	highchair_3.bmp	24	2	1	1	1	MEDIENKULTURWISSENSCHAFTEN
FAUST_1[2014-06]	42	4	18	1	3	2	1	1	1	1	3344	1	2	0	2634	3	1214	parfait_13.bmp	laptop_7.bmp	laptop_14.bmp	laptop_15.bmp	parfait_13.bmp	laptop_10.bmp	parfait_13.bmp	24	2	1	1	1	MEDIENKULTURWISSENSCHAFTEN
FAUST_1[2014-06]	42	4	1	1	3	1	2	1	1	1	1770	2	2	1	2284	3	2597	saddle_5.bmp	saddle_3.bmp	birdhouse_11.bmp	saddle_4.bmp	saddle_15.bmp	saddle_5.bmp	birdhouse_11.bmp	24	2	1	1	1	MEDIENKULTURWISSENSCHAFTEN
FAUST_1[2014-06]	42	4	32	1	3	2	2	1	1	1	1196	2	2	1	1916	4	1185	videogamecontroller_2.bmp	videogamecontroller_2.bmp	videogamecontroller_11.bmp	videogamecontroller_5.bmp	videogamecontroller_3.bmp	videogamecontroller_2.bmp	trophy_4.bmp	24	2	1	1	1	MEDIENKULTURWISSENSCHAFTEN
FAUST_1[2014-06]	42	4	11	1	3	1	1	1	1	1	1306	1	1	1	1568	4	1366	router_16.bmp	powerstrip_13.bmp	powerstrip_7.bmp	powerstrip_8.bmp	powerstrip_14.bmp	router_16.bmp	powerstrip_13.bmp	24	2	1	1	1	MEDIENKULTURWISSENSCHAFTEN
FAUST_1[2014-06]	42	4	13	1	3	2	1	1	1	1	1094	1	1	1	2305	4	1985	cherubstatue_6.bmp	cherubstatue_6.bmp	backpack_10.bmp	backpack_6.bmp	backpack_13.bmp	backpack_12.bmp	cherubstatue_6.bmp	24	2	1	1	1	MEDIENKULTURWISSENSCHAFTEN
FAUST_1[2014-06]	42	4	10	1	3	1	2	1	1	1	2946	2	2	1	1813	3	1156	turtle_7.bmp	rusdoll_6.bmp	turtle_6.bmp	turtle_11.bmp	turtle_7.bmp	turtle_12.bmp	rusdoll_6.bmp	24	2	1	1	1	MEDIENKULTURWISSENSCHAFTEN
FAUST_1[2014-06]	42	4	28	1	3	2	2	1	1	1	1308	1	1	1	2646	4	1155	cake_14.bmp	cake_4.bmp	cake_5.bmp	cake_1.bmp	cake_14.bmp	scooter_8.bmp	cake_14.bmp	24	2	1	1	1	MEDIENKULTURWISSENSCHAFTEN
FAUST_1[2014-06]	42	4	27	1	3	1	1	2	2	1	1803	1	1	1	2745	4	1855	leatherman_2.bmp	carabiner_2.bmp	carabiner_5.bmp	carabiner_9.bmp	leatherman_10.bmp	carabiner_7.bmp	carabiner_5.bmp	24	2	1	1	1	MEDIENKULTURWISSENSCHAFTEN
FAUST_1[2014-06]	42	4	25	1	3	2	1	2	1	0	3912	2	2	1	2774	1	1332	tricycle_5.bmp	abacus_4.bmp	tricycle_8.bmp	abacus_7.bmp	tricycle_8.bmp	abacus_2.bmp	abacus_15.bmp	24	2	1	1	1	MEDIENKULTURWISSENSCHAFTEN
FAUST_1[2014-06]	42	4	22	1	3	1	2	2	2	1	1057	1	1	1	1899	2	1075	vase_1.bmp	vase_5.bmp	vase_13.bmp	watergun_3.bmp	vase_15.bmp	watergun_3.bmp	vase_6.bmp	24	2	1	1	1	MEDIENKULTURWISSENSCHAFTEN
FAUST_1[2014-06]	42	4	31	1	3	2	2	2	2	1	1259	2	2	1	1386	3	981	socks_4.bmp	socks_10.bmp	bowlingpin_3.bmp	socks_10.bmp	socks_13.bmp	socks_12.bmp	socks_15.bmp	24	2	1	1	1	MEDIENKULTURWISSENSCHAFTEN
FAUST_1[2014-06]	42	4	8	1	3	1	1	2	2	1	2271	2	2	1	2192	3	2949	coffee_2.bmp	babycrib_5.bmp	coffee_1.bmp	babycrib_7.bmp	babycrib_6.bmp	babycrib_2.bmp	babycrib_5.bmp	24	2	1	1	1	MEDIENKULTURWISSENSCHAFTEN
FAUST_1[2014-06]	42	4	19	1	3	2	1	2	1	0	1551	2	1	0	1764	3	1686	shredder_6.bmp	shredder_7.bmp	saltpeppershake_12.bmp	saltpeppershake_8.bmp	saltpeppershake_17.bmp	saltpeppershake_2.bmp	shredder_7.bmp	24	2	1	1	1	MEDIENKULTURWISSENSCHAFTEN
FAUST_1[2014-06]	42	4	21	1	3	1	2	2	2	1	1341	1	1	1	1565	4	2136	speaker_4.bmp	iceskates_5.bmp	speaker_10.bmp	speaker_15.bmp	speaker_6.bmp	iceskates_5.bmp	speaker_17.bmp	24	2	1	1	1	MEDIENKULTURWISSENSCHAFTEN
FAUST_1[2014-06]	42	4	4	1	3	2	2	2	1	0	5059	2	1	0	1783	2	1045	garbagecan_8.bmp	garbagecan_17.bmp	garbagecan_13.bmp	sofa_6.bmp	garbagecan_17.bmp	garbagecan_10.bmp	garbagecan_2.bmp	24	2	1	1	1	MEDIENKULTURWISSENSCHAFTEN
FAUST_1[2014-06]	42	4	15	1	3	1	1	2	2	1	1456	2	2	1	2117	4	1363	guitar_10.bmp	guitar_7.bmp	shoe_7.bmp	shoe_15.bmp	shoe_17.bmp	shoe_7.bmp	shoe_13.bmp	24	2	1	1	1	MEDIENKULTURWISSENSCHAFTEN
FAUST_1[2014-06]	42	4	23	1	3	2	1	2	2	1	1664	1	1	1	2145	4	1489	remote_13.bmp	printer_16.bmp	remote_3.bmp	printer_1.bmp	printer_3.bmp	printer_5.bmp	remote_3.bmp	24	2	1	1	1	MEDIENKULTURWISSENSCHAFTEN
FAUST_1[2014-06]	42	4	16	1	3	1	2	2	2	1	1283	2	2	1	2429	3	1771	glove_12.bmp	glove_5.bmp	cat_9.bmp	glove_10.bmp	cat_9.bmp	glove_15.bmp	glove_8.bmp	24	2	1	1	1	MEDIENKULTURWISSENSCHAFTEN
FAUST_1[2014-06]	42	4	7	1	3	2	2	2	2	1	821	1	1	1	2730	4	1691	plant_8.bmp	cellphone_12.bmp	plant_2.bmp	plant_13.bmp	plant_14.bmp	plant_5.bmp	plant_2.bmp	24	2	1	1	1	MEDIENKULTURWISSENSCHAFTEN
FAUST_1[2014-06]	42	4	26	1	3	1	1	3	2	1	1237	1	1	1	2583	4	1052	mic_12.bmp	hairbrush_12.bmp	sink_11.bmp	hairbrush_16.bmp	hairbrush_17.bmp	hairbrush_16.bmp	hairbrush_7.bmp	24	2	1	1	1	MEDIENKULTURWISSENSCHAFTEN
FAUST_1[2014-06]	42	4	2	1	3	2	1	3	2	1	1340	2	1	0	1975	4	1272	trunk_5.bmp	hairdryer_12.bmp	hairdryer_13.bmp	hairdryer_14.bmp	ring_11.bmp	hairdryer_7.bmp	ring_11.bmp	24	2	1	1	1	MEDIENKULTURWISSENSCHAFTEN
FAUST_1[2014-06]	42	4	6	1	3	1	1	3	2	1	1579	1	2	0	3223	2	2249	chair_5.bmp	rollerskates_7.bmp	glasses_15.bmp	rollerskates_2.bmp	rollerskates_5.bmp	rollerskates_2.bmp	rollerskates_8.bmp	24	2	1	1	1	MEDIENKULTURWISSENSCHAFTEN
FAUST_1[2014-06]	42	4	14	1	3	2	1	3	2	1	984	1	1	1	2604	4	1093	camera_7.bmp	watch_14.bmp	doorknocker_11.bmp	doorknocker_5.bmp	watch_14.bmp	doorknocker_2.bmp	doorknocker_4.bmp	24	2	1	1	1	MEDIENKULTURWISSENSCHAFTEN
FAUST_1[2014-06]	42	4	3	1	3	1	1	3	2	1	898	2	2	1	2263	4	1561	jacket_13.bmp	horseshoe_3.bmp	horseshoe_12.bmp	horseshoe_3.bmp	horseshoe_5.bmp	horseshoe_4.bmp	carriage_9.bmp	24	2	1	1	1	MEDIENKULTURWISSENSCHAFTEN
FAUST_1[2014-06]	42	4	17	1	3	2	1	3	2	1	871	2	2	1	1429	4	1454	pasta_11.bmp	fan_11.bmp	bagel_4.bmp	bagel_14.bmp	bagel_12.bmp	bagel_10.bmp	fan_11.bmp	24	2	1	1	1	MEDIENKULTURWISSENSCHAFTEN
FAUST_1[2014-06]	42	4	12	1	3	1	1	3	2	1	1210	2	2	1	1413	4	2017	cheesegrater_11.bmp	goggle_4.bmp	hammer_6.bmp	goggle_9.bmp	goggle_4.bmp	goggle_1.bmp	goggle_3.bmp	24	2	1	1	1	MEDIENKULTURWISSENSCHAFTEN
FAUST_1[2014-06]	42	4	9	1	3	2	1	3	2	1	993	1	1	1	2271	4	1021	trumpet_17.bmp	wig_7.bmp	wig_9.bmp	wig_12.bmp	beanbagchair_12.bmp	wig_6.bmp	beanbagchair_12.bmp	24	2	1	1	1	MEDIENKULTURWISSENSCHAFTEN
