experiment	subject	block	trial	order	material	repeated	related	probetype	response	correct	rt	math_response	math_correctresponse	math_correct	math_rt	confidence	confidence_rt	probe	item1	item2	item3	item4	item5	item6	age	sex	handedness	color_vision	mother_tongue	occupation
FAUST_1[2014-06]	44	1	17	4	2	1	1	1	1	1	1902	1	1	1	3208	4	3308	Ginger17.bmp	Keys6.bmp	Keys8.bmp	Ginger17.bmp	Keys7.bmp	Keys9.bmp	Keys7.bmp	38	2	1	1	1	MATHEMATIK
FAUST_1[2014-06]	44	1	19	4	2	2	1	1	1	1	1355	1	1	1	2197	3	2054	Chocolate6.bmp	Fudge8.bmp	Chocolate6.bmp	Fudge20.bmp	Fudge17.bmp	Chocolate6.bmp	Fudge15.bmp	38	2	1	1	1	MATHEMATIK
FAUST_1[2014-06]	44	1	13	4	2	1	2	1	2	0	1826	2	2	1	2345	3	2136	Scissors1.bmp	Scissors3.bmp	Swirl23.bmp	Scissors23.bmp	Swirl23.bmp	Scissors11.bmp	Scissors1.bmp	38	2	1	1	1	MATHEMATIK
FAUST_1[2014-06]	44	1	3	4	2	2	2	1	1	1	2330	-1	2	0	0	3	2768	Shell1.bmp	Varnish14.bmp	Shell5.bmp	Shell18.bmp	Shell1.bmp	Shell9.bmp	Shell1.bmp	38	2	1	1	1	MATHEMATIK
FAUST_1[2014-06]	44	1	20	4	2	1	1	1	1	1	1497	1	1	1	2239	3	1599	Bun12.bmp	Nut21.bmp	Nut19.bmp	Nut11.bmp	Nut2.bmp	Nut11.bmp	Bun12.bmp	38	2	1	1	1	MATHEMATIK
FAUST_1[2014-06]	44	1	1	4	2	2	1	1	1	1	2453	-1	1	0	0	4	2551	Feather2.bmp	Star2.bmp	Star19.bmp	Feather2.bmp	Star1.bmp	Star17.bmp	Feather2.bmp	38	2	1	1	1	MATHEMATIK
FAUST_1[2014-06]	44	1	9	4	2	1	2	1	1	1	1709	1	1	1	3447	3	1773	Button18.bmp	Stapler10.bmp	Button10.bmp	Stapler10.bmp	Button18.bmp	Button20.bmp	Button14.bmp	38	2	1	1	1	MATHEMATIK
FAUST_1[2014-06]	44	1	7	4	2	2	2	1	1	1	2189	-1	1	0	0	2	2069	Plug6.bmp	Candle20.bmp	Plug9.bmp	Plug6.bmp	Plug8.bmp	Plug6.bmp	Plug18.bmp	38	2	1	1	1	MATHEMATIK
FAUST_1[2014-06]	44	1	12	4	2	1	1	2	2	1	2479	1	1	1	1894	2	2344	Fork8.bmp	Pear16.bmp	Pear18.bmp	Pear15.bmp	Pear4.bmp	Fork7.bmp	Pear4.bmp	38	2	1	1	1	MATHEMATIK
FAUST_1[2014-06]	44	1	15	4	2	2	1	2	2	1	1325	1	1	1	2501	1	2718	Glass3.bmp	Apple21.bmp	Apple5.bmp	Glass16.bmp	Apple18.bmp	Glass16.bmp	Apple24.bmp	38	2	1	1	1	MATHEMATIK
FAUST_1[2014-06]	44	1	8	4	2	1	2	2	1	0	1685	1	1	1	2124	2	1975	Mushroom14.bmp	Toothbrush10.bmp	Mushroom18.bmp	Toothbrush10.bmp	Mushroom25.bmp	Mushroom7.bmp	Mushroom6.bmp	38	2	1	1	1	MATHEMATIK
FAUST_1[2014-06]	44	1	4	4	2	2	2	2	1	0	1500	1	1	1	2320	3	2206	Leaf13.bmp	Leaf15.bmp	Leaf22.bmp	Leaf21.bmp	Man24.bmp	Leaf10.bmp	Leaf22.bmp	38	2	1	1	1	MATHEMATIK
FAUST_1[2014-06]	44	1	22	4	2	1	1	2	2	1	2018	1	1	1	2245	1	6679	Brocolli9.bmp	Umbrella19.bmp	Umbrella21.bmp	Umbrella19.bmp	Umbrella17.bmp	Umbrella6.bmp	Brocolli19.bmp	38	2	1	1	1	MATHEMATIK
FAUST_1[2014-06]	44	1	11	4	2	2	1	2	2	1	4476	2	2	1	3115	3	2472	Daff9.bmp	Paperclip13.bmp	Daff3.bmp	Paperclip9.bmp	Daff3.bmp	Paperclip14.bmp	Paperclip6.bmp	38	2	1	1	1	MATHEMATIK
FAUST_1[2014-06]	44	1	18	4	2	1	2	2	1	0	1418	1	1	1	2286	3	1750	Cake7.bmp	Cake24.bmp	Jigsaw10.bmp	Cake16.bmp	Jigsaw10.bmp	Cake25.bmp	Cake18.bmp	38	2	1	1	1	MATHEMATIK
FAUST_1[2014-06]	44	1	5	4	2	2	2	2	1	0	1869	2	2	1	3298	3	1863	Key11.bmp	Key20.bmp	Key5.bmp	Key9.bmp	Key20.bmp	Bag21.bmp	Key13.bmp	38	2	1	1	1	MATHEMATIK
FAUST_1[2014-06]	44	1	2	4	2	1	1	3	1	0	2950	2	1	0	2722	2	2803	Car7.bmp	Pen20.bmp	Pen10.bmp	Pen1.bmp	Pen5.bmp	Pen10.bmp	Bracelet18.bmp	38	2	1	1	1	MATHEMATIK
FAUST_1[2014-06]	44	1	6	4	2	2	1	3	2	1	2275	2	2	1	2279	3	2549	Flower18.bmp	Strawberry18.bmp	Strawberry3.bmp	Sweet22.bmp	Strawberry21.bmp	Sweet22.bmp	Strawberry14.bmp	38	2	1	1	1	MATHEMATIK
FAUST_1[2014-06]	44	1	16	4	2	1	1	3	2	1	1764	2	2	1	3182	4	2018	String9.bmp	Chilli22.bmp	Hand17.bmp	Hand10.bmp	Hand13.bmp	Hand1.bmp	Hand17.bmp	38	2	1	1	1	MATHEMATIK
FAUST_1[2014-06]	44	1	10	4	2	2	1	3	2	1	3924	2	1	0	3471	3	4510	Screw13.bmp	Biscuit17.bmp	Biscuit9.bmp	Holly3.bmp	Biscuit25.bmp	Holly3.bmp	Biscuit4.bmp	38	2	1	1	1	MATHEMATIK
FAUST_1[2014-06]	44	1	21	4	2	1	1	3	2	1	1462	1	1	1	2204	3	2488	Onion14.bmp	Hanger15.bmp	Hanger14.bmp	Hanger2.bmp	Coins14.bmp	Hanger12.bmp	Hanger15.bmp	38	2	1	1	1	MATHEMATIK
FAUST_1[2014-06]	44	1	14	4	2	2	1	3	2	1	3030	2	2	1	2156	4	3764	Present9.bmp	Tomato2.bmp	Tomato12.bmp	Tomato18.bmp	Lipstick9.bmp	Tomato3.bmp	Lipstick9.bmp	38	2	1	1	1	MATHEMATIK
FAUST_1[2014-06]	44	2	30	4	1	1	1	1	2	0	1555	1	1	1	2068	3	2128	LAKRITZ	helium	kohlenstoff	lakritz	sauerstoff	wasserstoff	kohlenstoff	38	2	1	1	1	MATHEMATIK
FAUST_1[2014-06]	44	2	14	4	1	2	1	1	1	1	1866	2	2	1	2223	2	2654	BERLIN	berlin	fink	amsel	schwalbe	berlin	meise	38	2	1	1	1	MATHEMATIK
FAUST_1[2014-06]	44	2	4	4	1	1	2	1	1	1	2506	1	1	1	2734	3	2563	STUHL	tisch	bluse	stuhl	bluse	regal	sofa	38	2	1	1	1	MATHEMATIK
FAUST_1[2014-06]	44	2	5	4	1	2	2	1	1	1	1679	2	2	1	2645	4	1756	SCHACH	schach	halma	schach	scrabble	vivaldi	backgammon	38	2	1	1	1	MATHEMATIK
FAUST_1[2014-06]	44	2	9	4	1	1	1	1	2	0	2094	-1	1	0	0	3	1931	OBOE	whiskey	rum	whiskey	oboe	gin	tequila	38	2	1	1	1	MATHEMATIK
FAUST_1[2014-06]	44	2	18	4	1	2	1	1	2	0	2098	2	2	1	2329	4	1982	FÜHLEN	forelle	fühlen	thunfisch	lachs	makrele	fühlen	38	2	1	1	1	MATHEMATIK
FAUST_1[2014-06]	44	2	3	4	1	1	2	1	2	0	4312	2	2	1	2659	3	1851	SPINAT	füller	karotten	blumenkohl	füller	tomaten	spinat	38	2	1	1	1	MATHEMATIK
FAUST_1[2014-06]	44	2	25	4	1	2	2	1	1	1	2726	2	1	0	2436	3	2008	TRAUER	trauer	ärger	trauer	diesel	scham	freude	38	2	1	1	1	MATHEMATIK
FAUST_1[2014-06]	44	2	1	4	1	1	1	1	2	0	2523	-1	2	0	0	4	2351	BUCH	kopf	bein	arm	buch	hand	kopf	38	2	1	1	1	MATHEMATIK
FAUST_1[2014-06]	44	2	31	4	1	2	1	1	1	1	2178	1	1	1	1875	4	2404	BOMBE	bombe	pflaume	bombe	apfel	erdbeere	birne	38	2	1	1	1	MATHEMATIK
FAUST_1[2014-06]	44	2	22	4	1	1	2	1	1	1	1805	1	1	1	2261	3	2842	BARACKE	schuppen	tiger	blockhaus	scheune	baracke	tiger	38	2	1	1	1	MATHEMATIK
FAUST_1[2014-06]	44	2	12	4	1	2	2	1	1	1	2127	1	1	1	2399	4	2785	SEKUNDE	tag	sekunde	kanu	minute	jahr	sekunde	38	2	1	1	1	MATHEMATIK
FAUST_1[2014-06]	44	2	17	4	1	1	1	2	2	1	2572	1	1	1	1505	4	6189	PFENNIG	cent	herz	lunge	magen	niere	magen	38	2	1	1	1	MATHEMATIK
FAUST_1[2014-06]	44	2	13	4	1	2	1	2	2	1	2850	1	1	1	2202	3	2013	ERDKUNDE	physik	cannabis	haschisch	heroin	physik	kokain	38	2	1	1	1	MATHEMATIK
FAUST_1[2014-06]	44	2	32	4	1	1	2	2	1	0	2174	1	1	1	2482	2	1905	HERZOG	laptop	fürst	könig	laptop	kaiser	graf	38	2	1	1	1	MATHEMATIK
FAUST_1[2014-06]	44	2	26	4	1	2	2	2	2	1	2682	1	1	1	2658	2	2865	OZEAN	meer	kreis	teich	see	teich	fluss	38	2	1	1	1	MATHEMATIK
FAUST_1[2014-06]	44	2	19	4	1	1	1	2	1	0	3106	1	1	1	3185	2	2639	BUCHE	klebeband	eiche	lineal	locher	büroklammer	klebeband	38	2	1	1	1	MATHEMATIK
FAUST_1[2014-06]	44	2	28	4	1	2	1	2	1	0	2196	2	2	1	2460	3	1700	VEILCHEN	zwilling	tulpe	schütze	tulpe	wassermann	steinbock	38	2	1	1	1	MATHEMATIK
FAUST_1[2014-06]	44	2	6	4	1	1	2	2	2	1	2384	2	2	1	1750	3	2084	TERRIER	schäferhund	mops	messer	dogge	messer	dackel	38	2	1	1	1	MATHEMATIK
FAUST_1[2014-06]	44	2	23	4	1	2	2	2	1	0	1710	2	2	1	3432	3	2852	STRICKNADEL	sicherheitsnadel	stecknadel	mutter	sicherheitsnadel	nähnadel	häkelnadel	38	2	1	1	1	MATHEMATIK
FAUST_1[2014-06]	44	2	2	4	1	1	1	2	2	1	3012	2	2	1	1844	3	3629	DÄNEMARK	eisen	gold	bronze	messing	italien	eisen	38	2	1	1	1	MATHEMATIK
FAUST_1[2014-06]	44	2	7	4	1	2	1	2	2	1	2625	1	1	1	2264	3	3407	WALZER	gaspedal	kupplung	chachacha	handbremse	chachacha	lenkrad	38	2	1	1	1	MATHEMATIK
FAUST_1[2014-06]	44	2	8	4	1	1	2	2	1	0	3519	2	2	1	2465	2	2149	BASTELN	schreiben	zeichnen	malen	karaffe	lesen	karaffe	38	2	1	1	1	MATHEMATIK
FAUST_1[2014-06]	44	2	20	4	1	2	2	2	2	1	1935	1	1	1	2936	2	2137	TEMPEL	ameise	kirche	kapelle	synagoge	kirche	moschee	38	2	1	1	1	MATHEMATIK
FAUST_1[2014-06]	44	2	15	4	1	1	1	3	2	1	1406	1	1	1	2534	4	2622	GRIPPE	oregano	majoran	thymian	oper	majoran	koriander	38	2	1	1	1	MATHEMATIK
FAUST_1[2014-06]	44	2	16	4	1	2	1	3	2	1	2816	2	2	1	1862	4	1835	KÜCHENWAAGE	straßenbahn	fahrrad	zug	saturn	bus	saturn	38	2	1	1	1	MATHEMATIK
FAUST_1[2014-06]	44	2	10	4	1	1	1	3	2	1	2367	2	2	1	1849	3	1637	AFRIKA	wimperntusche	rouge	kajal	lidschatten	wimperntusche	baumwolle	38	2	1	1	1	MATHEMATIK
FAUST_1[2014-06]	44	2	21	4	1	2	1	3	1	0	2790	1	1	1	2171	1	1973	REALSCHULE	lila	gelb	hagel	blau	hagel	rot	38	2	1	1	1	MATHEMATIK
FAUST_1[2014-06]	44	2	27	4	1	1	1	3	2	1	1455	-1	1	0	0	4	2211	PORSCHE	dinkel	saarland	sachsen	brandenburg	thüringen	brandenburg	38	2	1	1	1	MATHEMATIK
FAUST_1[2014-06]	44	2	24	4	1	2	1	3	2	1	2381	2	2	1	2059	2	2895	KOMÖDIE	säge	donau	hammer	donau	bohrer	meißel	38	2	1	1	1	MATHEMATIK
FAUST_1[2014-06]	44	2	11	4	1	1	1	3	2	1	2487	2	2	1	2563	4	1994	PRÄPOSITION	bratwurst	pizza	pommes	hamburger	pizza	polizist	38	2	1	1	1	MATHEMATIK
FAUST_1[2014-06]	44	2	29	4	1	2	1	3	2	1	1425	1	1	1	1424	3	2268	METER	fußball	hexe	werwolf	fußball	zombie	dämon	38	2	1	1	1	MATHEMATIK
FAUST_1[2014-06]	44	3	32	4	3	1	1	1	2	0	1888	1	1	1	2605	2	1907	router_7.bmp	router_7.bmp	videogamecontroller_3.bmp	videogamecontroller_11.bmp	videogamecontroller_2.bmp	videogamecontroller_3.bmp	videogamecontroller_13.bmp	38	2	1	1	1	MATHEMATIK
FAUST_1[2014-06]	44	3	16	4	3	2	1	1	2	0	1627	2	2	1	2282	2	1680	cherubstatue_6.bmp	iceskates_16.bmp	iceskates_9.bmp	cherubstatue_6.bmp	iceskates_7.bmp	cherubstatue_6.bmp	iceskates_5.bmp	38	2	1	1	1	MATHEMATIK
FAUST_1[2014-06]	44	3	4	4	3	1	2	1	1	1	1440	1	1	1	2830	3	1736	camera_7.bmp	camera_4.bmp	camera_9.bmp	camera_7.bmp	trophy_16.bmp	camera_6.bmp	trophy_16.bmp	38	2	1	1	1	MATHEMATIK
FAUST_1[2014-06]	44	3	26	4	3	2	2	1	1	1	1657	2	2	1	3252	3	1826	tv_7.bmp	tv_7.bmp	tv_8.bmp	tv_16.bmp	tv_4.bmp	guitar_10.bmp	tv_7.bmp	38	2	1	1	1	MATHEMATIK
FAUST_1[2014-06]	44	3	9	4	3	1	1	1	2	0	2030	2	2	1	2135	3	2652	trumpet_3.bmp	orifan_1.bmp	orifan_14.bmp	orifan_6.bmp	orifan_1.bmp	trumpet_3.bmp	orifan_7.bmp	38	2	1	1	1	MATHEMATIK
FAUST_1[2014-06]	44	3	5	4	3	2	1	1	1	1	2369	1	1	1	3361	4	1682	wig_1.bmp	wig_1.bmp	laptop_7.bmp	laptop_14.bmp	laptop_10.bmp	wig_1.bmp	laptop_16.bmp	38	2	1	1	1	MATHEMATIK
FAUST_1[2014-06]	44	3	30	4	3	1	2	1	1	1	1507	2	2	1	2773	4	2105	saddle_4.bmp	saddle_4.bmp	saddle_15.bmp	glasses_8.bmp	saddle_5.bmp	glasses_8.bmp	saddle_3.bmp	38	2	1	1	1	MATHEMATIK
FAUST_1[2014-06]	44	3	20	4	3	2	2	1	1	1	1238	2	1	0	1356	4	1807	goggle_1.bmp	goggle_1.bmp	goggle_13.bmp	goggle_9.bmp	printer_16.bmp	goggle_3.bmp	goggle_1.bmp	38	2	1	1	1	MATHEMATIK
FAUST_1[2014-06]	44	3	3	4	3	1	1	1	1	1	1407	2	2	1	3085	4	2290	powerstrip_7.bmp	flashlight_13.bmp	flashlight_17.bmp	powerstrip_7.bmp	flashlight_17.bmp	flashlight_1.bmp	flashlight_12.bmp	38	2	1	1	1	MATHEMATIK
FAUST_1[2014-06]	44	3	15	4	3	2	1	1	1	1	1623	2	2	1	2456	3	1858	tricycle_10.bmp	shredder_6.bmp	shredder_5.bmp	tricycle_10.bmp	shredder_15.bmp	tricycle_10.bmp	shredder_1.bmp	38	2	1	1	1	MATHEMATIK
FAUST_1[2014-06]	44	3	18	4	3	1	2	1	1	1	1557	2	2	1	2425	3	2284	vase_15.bmp	glove_15.bmp	vase_5.bmp	vase_6.bmp	vase_15.bmp	glove_15.bmp	vase_13.bmp	38	2	1	1	1	MATHEMATIK
FAUST_1[2014-06]	44	3	31	4	3	2	2	1	1	1	1239	2	2	1	2600	4	2773	cat_4.bmp	lawnmower_3.bmp	cat_5.bmp	cat_9.bmp	cat_4.bmp	cat_1.bmp	cat_4.bmp	38	2	1	1	1	MATHEMATIK
FAUST_1[2014-06]	44	3	13	4	3	1	1	2	1	0	2728	2	2	1	2999	2	2040	cake_1.bmp	cake_14.bmp	babycrib_7.bmp	babycrib_5.bmp	babycrib_7.bmp	babycrib_9.bmp	babycrib_2.bmp	38	2	1	1	1	MATHEMATIK
FAUST_1[2014-06]	44	3	10	4	3	2	1	2	2	1	2715	1	1	1	3013	2	1984	rollerskates_7.bmp	garbagecan_13.bmp	garbagecan_17.bmp	garbagecan_2.bmp	rollerskates_5.bmp	garbagecan_8.bmp	rollerskates_5.bmp	38	2	1	1	1	MATHEMATIK
FAUST_1[2014-06]	44	3	1	4	3	1	2	2	1	0	2098	2	2	1	1758	4	2031	doorknocker_14.bmp	hammer_17.bmp	doorknocker_4.bmp	doorknocker_11.bmp	doorknocker_2.bmp	doorknocker_5.bmp	hammer_17.bmp	38	2	1	1	1	MATHEMATIK
FAUST_1[2014-06]	44	3	14	4	3	2	2	2	1	0	1742	1	1	1	2076	3	2011	highchair_15.bmp	highchair_6.bmp	highchair_4.bmp	highchair_3.bmp	highchair_6.bmp	backpack_16.bmp	highchair_10.bmp	38	2	1	1	1	MATHEMATIK
FAUST_1[2014-06]	44	3	28	4	3	1	1	2	2	1	1902	1	1	1	3162	3	1500	turtle_7.bmp	cheesegrater_11.bmp	cheesegrater_14.bmp	cheesegrater_8.bmp	cheesegrater_5.bmp	cheesegrater_14.bmp	turtle_12.bmp	38	2	1	1	1	MATHEMATIK
FAUST_1[2014-06]	44	3	17	4	3	2	1	2	1	0	232	-1	1	0	0	3	3868	carabiner_5.bmp	carabiner_9.bmp	watergun_15.bmp	watergun_3.bmp	carabiner_9.bmp	watergun_9.bmp	watergun_8.bmp	38	2	1	1	1	MATHEMATIK
FAUST_1[2014-06]	44	3	6	4	3	1	2	2	1	0	1813	1	1	1	1981	4	3007	skateboard_15.bmp	skateboard_16.bmp	skateboard_11.bmp	coffee_2.bmp	skateboard_3.bmp	coffee_2.bmp	skateboard_14.bmp	38	2	1	1	1	MATHEMATIK
FAUST_1[2014-06]	44	3	23	4	3	2	2	2	1	0	1363	1	1	1	2246	3	1654	plant_8.bmp	plant_14.bmp	hairdryer_2.bmp	plant_13.bmp	plant_5.bmp	plant_2.bmp	plant_5.bmp	38	2	1	1	1	MATHEMATIK
FAUST_1[2014-06]	44	3	22	4	3	1	1	2	1	0	2484	2	2	1	2669	1	1704	birdhouse_9.bmp	watch_6.bmp	watch_8.bmp	watch_3.bmp	watch_14.bmp	birdhouse_14.bmp	watch_6.bmp	38	2	1	1	1	MATHEMATIK
FAUST_1[2014-06]	44	3	24	4	3	2	1	2	1	0	5532	2	2	1	2584	3	2963	bagel_10.bmp	bagel_16.bmp	horseshoe_3.bmp	horseshoe_6.bmp	horseshoe_4.bmp	horseshoe_12.bmp	bagel_16.bmp	38	2	1	1	1	MATHEMATIK
FAUST_1[2014-06]	44	3	19	4	3	1	2	2	1	0	2104	2	2	1	1305	3	2910	shoe_7.bmp	fan_1.bmp	shoe_9.bmp	shoe_15.bmp	shoe_13.bmp	fan_1.bmp	shoe_17.bmp	38	2	1	1	1	MATHEMATIK
FAUST_1[2014-06]	44	3	29	4	3	2	2	2	1	0	1676	-1	2	0	0	4	2401	cellphone_12.bmp	cellphone_11.bmp	cellphone_4.bmp	cellphone_3.bmp	abacus_6.bmp	cellphone_11.bmp	cellphone_8.bmp	38	2	1	1	1	MATHEMATIK
FAUST_1[2014-06]	44	3	2	4	3	1	1	3	2	1	2071	2	2	1	1334	4	3470	bowlingpin_13.bmp	remote_2.bmp	remote_3.bmp	remote_13.bmp	remote_14.bmp	sofa_12.bmp	remote_13.bmp	38	2	1	1	1	MATHEMATIK
FAUST_1[2014-06]	44	3	27	4	3	2	1	3	2	1	1445	-1	1	0	0	4	1750	easteregg_9.bmp	circuitboard_16.bmp	windchime_3.bmp	circuitboard_16.bmp	windchime_16.bmp	windchime_6.bmp	windchime_10.bmp	38	2	1	1	1	MATHEMATIK
FAUST_1[2014-06]	44	3	12	4	3	1	1	3	2	1	1295	2	2	1	2464	4	1400	scooter_10.bmp	trunk_1.bmp	trunk_2.bmp	trunk_5.bmp	trunk_1.bmp	saltpeppershake_2.bmp	trunk_3.bmp	38	2	1	1	1	MATHEMATIK
FAUST_1[2014-06]	44	3	8	4	3	2	1	3	2	1	1794	2	1	0	1407	4	2682	hairbrush_17.bmp	pasta_9.bmp	pasta_13.bmp	beanbagchair_15.bmp	pasta_11.bmp	beanbagchair_15.bmp	pasta_10.bmp	38	2	1	1	1	MATHEMATIK
FAUST_1[2014-06]	44	3	7	4	3	1	1	3	2	1	1652	2	2	1	2204	4	1854	sink_10.bmp	carriage_3.bmp	carriage_9.bmp	rusdoll_6.bmp	carriage_2.bmp	carriage_14.bmp	carriage_3.bmp	38	2	1	1	1	MATHEMATIK
FAUST_1[2014-06]	44	3	21	4	3	2	1	3	2	1	2499	2	1	0	3198	3	2307	socks_10.bmp	speaker_4.bmp	leatherman_10.bmp	leatherman_7.bmp	leatherman_2.bmp	leatherman_14.bmp	speaker_4.bmp	38	2	1	1	1	MATHEMATIK
FAUST_1[2014-06]	44	3	11	4	3	1	1	3	2	1	1270	1	1	1	2008	4	1705	ring_7.bmp	chair_5.bmp	mic_12.bmp	mic_2.bmp	mic_5.bmp	mic_12.bmp	mic_3.bmp	38	2	1	1	1	MATHEMATIK
FAUST_1[2014-06]	44	3	25	4	3	2	1	3	2	1	2005	-1	1	0	0	4	1873	doorknob_7.bmp	jacket_6.bmp	parfait_1.bmp	jacket_7.bmp	parfait_1.bmp	jacket_11.bmp	jacket_13.bmp	38	2	1	1	1	MATHEMATIK
FAUST_1[2014-06]	44	2	13	4	2	1	1	1	2	0	2757	-1	2	0	0	1	2043	Chilli12.bmp	Coins3.bmp	Chilli12.bmp	Coins12.bmp	Coins14.bmp	Coins10.bmp	Coins14.bmp	38	2	1	1	1	MATHEMATIK
FAUST_1[2014-06]	44	2	17	4	2	2	1	1	1	1	991	2	2	1	2524	3	1873	Pear7.bmp	Candle20.bmp	Candle13.bmp	Pear7.bmp	Candle17.bmp	Candle1.bmp	Pear7.bmp	38	2	1	1	1	MATHEMATIK
FAUST_1[2014-06]	44	2	22	4	2	1	2	1	1	1	2338	2	2	1	2950	3	1802	Fork14.bmp	Fork7.bmp	Fork14.bmp	Scissors23.bmp	Fork9.bmp	Fork8.bmp	Scissors23.bmp	38	2	1	1	1	MATHEMATIK
FAUST_1[2014-06]	44	2	6	4	2	2	2	1	1	1	1485	2	2	1	3155	4	1961	Pen10.bmp	Pen10.bmp	Pen5.bmp	Nut19.bmp	Pen10.bmp	Pen20.bmp	Pen1.bmp	38	2	1	1	1	MATHEMATIK
FAUST_1[2014-06]	44	2	12	4	2	1	1	1	2	0	2378	2	2	1	2310	1	3023	Jigsaw10.bmp	Mushroom7.bmp	Mushroom14.bmp	Jigsaw10.bmp	Mushroom14.bmp	Mushroom6.bmp	Mushroom18.bmp	38	2	1	1	1	MATHEMATIK
FAUST_1[2014-06]	44	2	18	4	2	2	1	1	1	1	1028	1	1	1	2633	3	1640	Stapler9.bmp	Biscuit9.bmp	Stapler9.bmp	Biscuit4.bmp	Stapler9.bmp	Biscuit20.bmp	Biscuit17.bmp	38	2	1	1	1	MATHEMATIK
FAUST_1[2014-06]	44	2	11	4	2	1	2	1	1	1	1564	2	2	1	1519	4	2052	Sweet22.bmp	Sweet18.bmp	Man24.bmp	Sweet25.bmp	Sweet22.bmp	Man24.bmp	Sweet10.bmp	38	2	1	1	1	MATHEMATIK
FAUST_1[2014-06]	44	2	14	4	2	2	2	1	1	1	1077	1	1	1	1933	3	1615	Hanger12.bmp	Hanger12.bmp	Hanger7.bmp	Hanger2.bmp	Hanger12.bmp	Apple10.bmp	Hanger14.bmp	38	2	1	1	1	MATHEMATIK
FAUST_1[2014-06]	44	2	9	4	2	1	1	2	1	0	2015	2	2	1	3180	3	2620	Plug6.bmp	Chocolate5.bmp	Chocolate9.bmp	Chocolate6.bmp	Plug18.bmp	Chocolate5.bmp	Chocolate24.bmp	38	2	1	1	1	MATHEMATIK
FAUST_1[2014-06]	44	2	4	4	2	2	1	2	1	0	1110	1	1	1	2389	4	2304	Lipstick3.bmp	Lipstick2.bmp	Shell5.bmp	Shell18.bmp	Lipstick2.bmp	Shell9.bmp	Shell1.bmp	38	2	1	1	1	MATHEMATIK
FAUST_1[2014-06]	44	2	1	4	2	1	2	2	1	0	2199	2	1	0	1805	4	2510	Cake16.bmp	Cake24.bmp	Cake7.bmp	Leaf10.bmp	Cake18.bmp	Cake25.bmp	Leaf10.bmp	38	2	1	1	1	MATHEMATIK
FAUST_1[2014-06]	44	2	3	4	2	2	2	2	1	0	1134	2	2	1	2591	3	1640	Swirl1.bmp	Swirl5.bmp	Swirl10.bmp	Swirl5.bmp	Key5.bmp	Swirl13.bmp	Swirl23.bmp	38	2	1	1	1	MATHEMATIK
FAUST_1[2014-06]	44	2	8	4	2	1	1	2	1	0	1242	2	2	1	2951	3	1990	Umbrella19.bmp	Hand17.bmp	Hand13.bmp	Hand8.bmp	Hand1.bmp	Umbrella7.bmp	Hand8.bmp	38	2	1	1	1	MATHEMATIK
FAUST_1[2014-06]	44	2	2	4	2	2	1	2	1	0	1517	1	1	1	2753	3	1770	Ginger10.bmp	Strawberry21.bmp	Ginger15.bmp	Strawberry3.bmp	Ginger15.bmp	Strawberry18.bmp	Strawberry14.bmp	38	2	1	1	1	MATHEMATIK
FAUST_1[2014-06]	44	2	16	4	2	1	2	2	1	0	1965	2	2	1	2706	3	2012	Bun19.bmp	Bun5.bmp	Toothbrush12.bmp	Bun22.bmp	Bun17.bmp	Bun12.bmp	Toothbrush12.bmp	38	2	1	1	1	MATHEMATIK
FAUST_1[2014-06]	44	2	7	4	2	2	2	2	1	0	1554	2	2	1	2396	4	1708	Brocolli14.bmp	Brocolli19.bmp	Brocolli9.bmp	Flower14.bmp	Brocolli4.bmp	Brocolli19.bmp	Brocolli10.bmp	38	2	1	1	1	MATHEMATIK
FAUST_1[2014-06]	44	2	21	4	2	1	1	3	1	0	1129	2	2	1	2866	3	1539	Present2.bmp	Car12.bmp	Car13.bmp	Car21.bmp	Tomato12.bmp	Car13.bmp	Car14.bmp	38	2	1	1	1	MATHEMATIK
FAUST_1[2014-06]	44	2	10	4	2	2	1	3	2	1	2576	2	2	1	3413	1	2926	Keys7.bmp	Screw16.bmp	Bracelet18.bmp	Bracelet8.bmp	Bracelet5.bmp	Screw16.bmp	Bracelet2.bmp	38	2	1	1	1	MATHEMATIK
FAUST_1[2014-06]	44	2	19	4	2	1	1	3	2	1	1478	1	1	1	1942	1	1667	Feather11.bmp	Bag3.bmp	String9.bmp	Bag4.bmp	Bag21.bmp	Bag5.bmp	Bag3.bmp	38	2	1	1	1	MATHEMATIK
FAUST_1[2014-06]	44	2	5	4	2	2	1	3	2	1	2584	2	2	1	2219	3	1720	Daff1.bmp	Holly3.bmp	Varnish5.bmp	Holly14.bmp	Holly11.bmp	Holly17.bmp	Varnish5.bmp	38	2	1	1	1	MATHEMATIK
FAUST_1[2014-06]	44	2	15	4	2	1	1	3	2	1	1331	1	1	1	3400	1	2301	Onion19.bmp	Star7.bmp	Star1.bmp	Star2.bmp	Star17.bmp	Paperclip4.bmp	Star17.bmp	38	2	1	1	1	MATHEMATIK
FAUST_1[2014-06]	44	2	20	4	2	2	1	3	1	0	1619	2	1	0	1920	2	1748	Fudge17.bmp	Glass16.bmp	Button14.bmp	Button18.bmp	Button20.bmp	Glass16.bmp	Button3.bmp	38	2	1	1	1	MATHEMATIK
FAUST_1[2014-06]	44	3	29	4	1	1	1	1	1	1	1172	2	2	1	2805	4	1766	SPINAT	england	dänemark	spinat	italien	schweiz	italien	38	2	1	1	1	MATHEMATIK
FAUST_1[2014-06]	44	3	12	4	1	2	1	1	1	1	1166	2	2	1	3096	4	2235	BRANDENBURG	brandenburg	regen	hagel	nebel	brandenburg	sonnenschein	38	2	1	1	1	MATHEMATIK
FAUST_1[2014-06]	44	3	4	4	1	1	2	1	2	0	2687	-1	1	0	0	2	1692	LENKRAD	kupplung	hamburger	lenkrad	hamburger	handbremse	rückspiegel	38	2	1	1	1	MATHEMATIK
FAUST_1[2014-06]	44	3	7	4	1	2	2	1	1	1	1690	2	2	1	2612	4	1612	RICHTER	richter	arzt	polizist	lehrer	richter	berufsschule	38	2	1	1	1	MATHEMATIK
FAUST_1[2014-06]	44	3	9	4	1	1	1	1	2	0	1932	1	1	1	2200	3	1885	TISCH	straßenbahn	tisch	bus	zug	bus	fahrrad	38	2	1	1	1	MATHEMATIK
FAUST_1[2014-06]	44	3	24	4	1	2	1	1	1	1	1542	2	2	1	2631	3	1525	PRÄPOSITION	filzstift	buntstift	präposition	füller	bleistift	präposition	38	2	1	1	1	MATHEMATIK
FAUST_1[2014-06]	44	3	21	4	1	1	2	1	1	1	2507	2	2	1	2092	4	2255	EURO	dollar	eisen	cent	euro	eisen	pfennig	38	2	1	1	1	MATHEMATIK
FAUST_1[2014-06]	44	3	30	4	1	2	2	1	1	1	1109	2	2	1	3048	3	1627	OZEAN	meer	actionfilm	ozean	fluss	teich	ozean	38	2	1	1	1	MATHEMATIK
FAUST_1[2014-06]	44	3	26	4	1	1	1	1	1	1	1342	2	2	1	3211	3	2684	WASSERMANN	lila	gelb	rot	grün	lila	wassermann	38	2	1	1	1	MATHEMATIK
FAUST_1[2014-06]	44	3	14	4	1	2	1	1	1	1	2068	2	1	0	2787	3	1636	THEATER	theater	stuttgart	theater	hannover	hamburg	münchen	38	2	1	1	1	MATHEMATIK
FAUST_1[2014-06]	44	3	22	4	1	1	2	1	1	1	1901	2	2	1	1969	3	1780	AFRIKA	afrika	kamera	asien	australien	kamera	nordamerika	38	2	1	1	1	MATHEMATIK
FAUST_1[2014-06]	44	3	18	4	1	2	2	1	1	1	1944	2	2	1	2288	3	3229	DACKEL	schäferhund	dogge	terrier	dackel	mathematik	dackel	38	2	1	1	1	MATHEMATIK
FAUST_1[2014-06]	44	3	15	4	1	1	1	2	2	1	1860	2	2	1	1942	2	1881	NÄHNADEL	gewehr	pistole	schwert	bombe	schwert	stricknadel	38	2	1	1	1	MATHEMATIK
FAUST_1[2014-06]	44	3	8	4	1	2	1	2	2	1	1439	2	2	1	2884	3	1704	BACKFORM	whiskey	küchenwaage	wodka	küchenwaage	tequila	gin	38	2	1	1	1	MATHEMATIK
FAUST_1[2014-06]	44	3	3	4	1	1	2	2	2	1	1385	2	2	1	2494	3	1786	FUß	bonbons	arm	bonbons	kopf	hand	bein	38	2	1	1	1	MATHEMATIK
FAUST_1[2014-06]	44	3	25	4	1	2	2	2	2	1	2282	2	1	0	3434	2	2676	STUNDE	glas	sekunde	tag	minute	jahr	minute	38	2	1	1	1	MATHEMATIK
FAUST_1[2014-06]	44	3	2	4	1	1	1	2	2	1	2056	2	2	1	2576	2	1510	TANNE	ärger	trauer	freude	scham	freude	buche	38	2	1	1	1	MATHEMATIK
FAUST_1[2014-06]	44	3	28	4	1	2	1	2	2	1	1614	2	2	1	2495	3	1804	SKIFAHREN	teelöffel	golf	brotmesser	löffel	messer	golf	38	2	1	1	1	MATHEMATIK
FAUST_1[2014-06]	44	3	16	4	1	1	2	2	1	0	1543	2	1	0	1799	4	2350	PANTHER	tiger	gepard	leopard	hemd	puma	hemd	38	2	1	1	1	MATHEMATIK
FAUST_1[2014-06]	44	3	5	4	1	2	2	2	2	1	1901	2	2	1	1867	2	2225	HÖREN	sehen	schmecken	lilie	fühlen	sehen	riechen	38	2	1	1	1	MATHEMATIK
FAUST_1[2014-06]	44	3	17	4	1	1	1	2	2	1	3093	1	1	1	2324	3	2906	BRAHMS	baumwolle	flanell	wolle	chopin	leinen	flanell	38	2	1	1	1	MATHEMATIK
FAUST_1[2014-06]	44	3	1	4	1	2	1	2	2	1	3568	2	2	1	2311	3	3301	KEROSIN	kreis	dreieck	viereck	petroleum	quadrat	petroleum	38	2	1	1	1	MATHEMATIK
FAUST_1[2014-06]	44	3	6	4	1	1	2	2	1	0	2260	2	1	0	1258	3	1848	MEISE	niere	schwalbe	amsel	taube	niere	fink	38	2	1	1	1	MATHEMATIK
FAUST_1[2014-06]	44	3	11	4	1	2	2	2	1	0	2342	2	2	1	3278	4	1654	VOLVO	audi	porsche	audi	peugeot	masern	mercedes	38	2	1	1	1	MATHEMATIK
FAUST_1[2014-06]	44	3	27	4	1	1	1	3	2	1	2742	2	2	1	2430	3	2184	KOHLENSTOFF	radio	malen	basteln	schreiben	zeichnen	malen	38	2	1	1	1	MATHEMATIK
FAUST_1[2014-06]	44	3	23	4	1	2	1	3	2	1	1584	1	1	1	2786	1	2167	SCHIFF	kokain	haschisch	locher	heroin	opium	locher	38	2	1	1	1	MATHEMATIK
FAUST_1[2014-06]	44	3	10	4	1	1	1	3	2	1	2049	1	1	1	1909	4	2815	PLUTO	onkel	biene	ameise	mücke	hummel	ameise	38	2	1	1	1	MATHEMATIK
FAUST_1[2014-06]	44	3	19	4	1	2	1	3	2	1	1461	1	1	1	3015	2	2883	FOXTROTT	main	forelle	lachs	main	hering	makrele	38	2	1	1	1	MATHEMATIK
FAUST_1[2014-06]	44	3	13	4	1	1	1	3	2	1	2542	1	1	1	1566	2	2182	HÜTTE	rouge	lippenstift	wimperntusche	lidschatten	hafer	lidschatten	38	2	1	1	1	MATHEMATIK
FAUST_1[2014-06]	44	3	32	4	1	2	1	3	2	1	11	-1	2	0	0	4	2488	MOSCHEE	graf	könig	kilometer	fürst	kilometer	kaiser	38	2	1	1	1	MATHEMATIK
FAUST_1[2014-06]	44	3	31	4	1	1	1	3	2	1	2873	2	2	1	2175	3	2093	KLARINETTE	koriander	thymian	monopoly	rosmarin	majoran	rosmarin	38	2	1	1	1	MATHEMATIK
FAUST_1[2014-06]	44	3	20	4	1	2	1	3	2	1	1312	1	1	1	2299	2	3506	MEIßEL	birne	hexe	zombie	birne	werwolf	vampir	38	2	1	1	1	MATHEMATIK
FAUST_1[2014-06]	44	4	27	4	3	1	1	1	1	1	935	2	2	1	3137	3	2289	scooter_10.bmp	bowlingpin_13.bmp	bowlingpin_4.bmp	scooter_10.bmp	bowlingpin_3.bmp	bowlingpin_1.bmp	bowlingpin_13.bmp	38	2	1	1	1	MATHEMATIK
FAUST_1[2014-06]	44	4	29	4	3	2	1	1	1	1	1242	1	1	1	3292	4	1137	saltpeppershake_8.bmp	saltpeppershake_8.bmp	easteregg_9.bmp	easteregg_17.bmp	saltpeppershake_8.bmp	easteregg_16.bmp	easteregg_5.bmp	38	2	1	1	1	MATHEMATIK
FAUST_1[2014-06]	44	4	16	4	3	1	2	1	1	1	1010	2	2	1	3258	3	1768	fan_17.bmp	fan_10.bmp	plant_13.bmp	fan_17.bmp	plant_13.bmp	fan_15.bmp	fan_11.bmp	38	2	1	1	1	MATHEMATIK
FAUST_1[2014-06]	44	4	4	4	3	2	2	1	1	1	1149	2	1	0	3085	3	1991	horseshoe_4.bmp	horseshoe_4.bmp	trophy_4.bmp	horseshoe_12.bmp	horseshoe_4.bmp	horseshoe_3.bmp	horseshoe_5.bmp	38	2	1	1	1	MATHEMATIK
FAUST_1[2014-06]	44	4	10	4	3	1	1	1	1	1	1665	2	2	1	1377	3	1354	tv_7.bmp	windchime_3.bmp	tv_7.bmp	windchime_10.bmp	windchime_16.bmp	windchime_3.bmp	windchime_6.bmp	38	2	1	1	1	MATHEMATIK
FAUST_1[2014-06]	44	4	6	4	3	2	1	1	1	1	1413	2	2	1	1580	3	1525	orifan_14.bmp	orifan_14.bmp	guitar_7.bmp	guitar_14.bmp	guitar_8.bmp	guitar_5.bmp	orifan_14.bmp	38	2	1	1	1	MATHEMATIK
FAUST_1[2014-06]	44	4	18	4	3	1	2	1	1	1	996	2	1	0	2607	3	2255	turtle_2.bmp	turtle_7.bmp	flashlight_2.bmp	turtle_12.bmp	turtle_6.bmp	flashlight_2.bmp	turtle_2.bmp	38	2	1	1	1	MATHEMATIK
FAUST_1[2014-06]	44	4	26	4	3	2	2	1	1	1	1310	2	2	1	2589	3	1543	hammer_15.bmp	hammer_8.bmp	wig_12.bmp	hammer_15.bmp	hammer_17.bmp	hammer_11.bmp	hammer_15.bmp	38	2	1	1	1	MATHEMATIK
FAUST_1[2014-06]	44	4	20	4	3	1	1	1	2	0	1355	1	1	1	2854	2	1906	powerstrip_13.bmp	tricycle_5.bmp	tricycle_8.bmp	tricycle_10.bmp	tricycle_5.bmp	powerstrip_13.bmp	tricycle_15.bmp	38	2	1	1	1	MATHEMATIK
FAUST_1[2014-06]	44	4	7	4	3	2	1	1	1	1	1018	2	2	1	1730	4	1404	bagel_10.bmp	bagel_10.bmp	watergun_3.bmp	bagel_10.bmp	watergun_7.bmp	watergun_15.bmp	watergun_8.bmp	38	2	1	1	1	MATHEMATIK
FAUST_1[2014-06]	44	4	31	4	3	1	2	1	1	1	915	2	2	1	1443	4	1564	glasses_8.bmp	chair_3.bmp	glasses_13.bmp	glasses_15.bmp	chair_3.bmp	glasses_9.bmp	glasses_8.bmp	38	2	1	1	1	MATHEMATIK
FAUST_1[2014-06]	44	4	24	4	3	2	2	1	1	1	1135	1	1	1	2372	4	1658	printer_3.bmp	printer_3.bmp	printer_1.bmp	printer_3.bmp	parfait_13.bmp	printer_5.bmp	printer_16.bmp	38	2	1	1	1	MATHEMATIK
FAUST_1[2014-06]	44	4	11	4	3	1	1	2	2	1	1903	2	2	1	2946	3	1905	cherubstatue_5.bmp	mic_12.bmp	mic_10.bmp	mic_5.bmp	cherubstatue_12.bmp	mic_10.bmp	mic_3.bmp	38	2	1	1	1	MATHEMATIK
FAUST_1[2014-06]	44	4	12	4	3	2	1	2	1	0	2311	2	2	1	3238	3	1637	birdhouse_6.bmp	birdhouse_11.bmp	backpack_12.bmp	backpack_10.bmp	backpack_16.bmp	backpack_6.bmp	birdhouse_11.bmp	38	2	1	1	1	MATHEMATIK
FAUST_1[2014-06]	44	4	8	4	3	1	2	2	1	0	1199	2	2	1	2746	4	1069	trunk_2.bmp	trunk_1.bmp	trunk_5.bmp	camera_9.bmp	trunk_3.bmp	camera_9.bmp	trunk_7.bmp	38	2	1	1	1	MATHEMATIK
FAUST_1[2014-06]	44	4	14	4	3	2	2	2	1	0	1906	2	2	1	3157	3	2303	doorknob_7.bmp	doorknob_14.bmp	doorknob_2.bmp	goggle_13.bmp	doorknob_17.bmp	doorknob_10.bmp	doorknob_2.bmp	38	2	1	1	1	MATHEMATIK
FAUST_1[2014-06]	44	4	32	4	3	1	1	2	2	1	1116	2	1	0	2283	3	1978	beanbagchair_3.bmp	hairdryer_13.bmp	beanbagchair_14.bmp	hairdryer_13.bmp	hairdryer_12.bmp	hairdryer_14.bmp	hairdryer_2.bmp	38	2	1	1	1	MATHEMATIK
FAUST_1[2014-06]	44	4	2	4	3	2	1	2	1	0	1222	2	2	1	2129	4	1829	abacus_6.bmp	abacus_4.bmp	socks_4.bmp	socks_10.bmp	socks_15.bmp	abacus_4.bmp	socks_12.bmp	38	2	1	1	1	MATHEMATIK
FAUST_1[2014-06]	44	4	19	4	3	1	2	2	1	0	876	1	1	1	2527	3	1380	highchair_15.bmp	rollerskates_5.bmp	highchair_10.bmp	highchair_4.bmp	highchair_6.bmp	rollerskates_5.bmp	highchair_3.bmp	38	2	1	1	1	MATHEMATIK
FAUST_1[2014-06]	44	4	15	4	3	2	2	2	2	1	1820	2	1	0	2214	1	2960	carriage_3.bmp	carriage_12.bmp	carriage_14.bmp	carriage_9.bmp	carriage_2.bmp	circuitboard_13.bmp	carriage_9.bmp	38	2	1	1	1	MATHEMATIK
FAUST_1[2014-06]	44	4	5	4	3	1	1	2	1	0	1147	2	2	1	2100	3	1669	saddle_15.bmp	trumpet_6.bmp	trumpet_3.bmp	trumpet_5.bmp	saddle_3.bmp	trumpet_1.bmp	trumpet_3.bmp	38	2	1	1	1	MATHEMATIK
FAUST_1[2014-06]	44	4	17	4	3	2	1	2	1	0	1137	2	2	1	3050	3	1880	cat_1.bmp	cat_5.bmp	garbagecan_13.bmp	garbagecan_17.bmp	garbagecan_10.bmp	garbagecan_8.bmp	cat_5.bmp	38	2	1	1	1	MATHEMATIK
FAUST_1[2014-06]	44	4	28	4	3	1	2	2	1	0	1012	-1	1	0	0	3	2017	lawnmower_13.bmp	lawnmower_8.bmp	lawnmower_17.bmp	laptop_7.bmp	lawnmower_3.bmp	laptop_7.bmp	lawnmower_15.bmp	38	2	1	1	1	MATHEMATIK
FAUST_1[2014-06]	44	4	9	4	3	2	2	2	1	0	1087	2	1	0	2466	3	1141	babycrib_7.bmp	babycrib_9.bmp	vase_1.bmp	babycrib_5.bmp	babycrib_2.bmp	babycrib_6.bmp	babycrib_9.bmp	38	2	1	1	1	MATHEMATIK
FAUST_1[2014-06]	44	4	3	4	3	1	1	3	2	1	2603	2	2	1	1641	4	1882	cheesegrater_11.bmp	router_5.bmp	router_12.bmp	carabiner_6.bmp	router_6.bmp	router_16.bmp	router_6.bmp	38	2	1	1	1	MATHEMATIK
FAUST_1[2014-06]	44	4	25	4	3	2	1	3	2	1	1278	2	1	0	2420	2	1498	skateboard_15.bmp	pasta_15.bmp	hairbrush_16.bmp	pasta_9.bmp	hairbrush_16.bmp	pasta_11.bmp	pasta_13.bmp	38	2	1	1	1	MATHEMATIK
FAUST_1[2014-06]	44	4	22	4	3	1	1	3	2	1	1389	1	1	1	3134	3	2135	doorknocker_4.bmp	sofa_6.bmp	sofa_3.bmp	sofa_13.bmp	sofa_6.bmp	cake_4.bmp	sofa_9.bmp	38	2	1	1	1	MATHEMATIK
FAUST_1[2014-06]	44	4	30	4	3	2	1	3	2	1	1287	1	1	1	3306	3	1837	cellphone_3.bmp	videogamecontroller_2.bmp	coffee_2.bmp	coffee_14.bmp	coffee_15.bmp	coffee_7.bmp	videogamecontroller_2.bmp	38	2	1	1	1	MATHEMATIK
FAUST_1[2014-06]	44	4	21	4	3	1	1	3	2	1	1320	2	2	1	2184	2	1754	sink_15.bmp	glove_8.bmp	glove_5.bmp	remote_3.bmp	glove_15.bmp	glove_10.bmp	glove_5.bmp	38	2	1	1	1	MATHEMATIK
FAUST_1[2014-06]	44	4	13	4	3	2	1	3	2	1	1849	2	2	1	2037	3	1982	shredder_7.bmp	ring_15.bmp	ring_7.bmp	jacket_6.bmp	ring_8.bmp	jacket_6.bmp	ring_12.bmp	38	2	1	1	1	MATHEMATIK
FAUST_1[2014-06]	44	4	1	4	3	1	1	3	2	1	1400	2	2	1	2674	4	3197	rusdoll_5.bmp	watch_7.bmp	iceskates_7.bmp	iceskates_14.bmp	iceskates_9.bmp	iceskates_7.bmp	iceskates_5.bmp	38	2	1	1	1	MATHEMATIK
FAUST_1[2014-06]	44	4	23	4	3	2	1	3	2	1	1748	2	1	0	2380	3	1415	shoe_15.bmp	leatherman_10.bmp	speaker_6.bmp	leatherman_10.bmp	speaker_17.bmp	speaker_15.bmp	speaker_4.bmp	38	2	1	1	1	MATHEMATIK
