experiment	subject	block	trial	order	material	repeated	related	probetype	response	correct	rt	math_response	math_correctresponse	math_correct	math_rt	confidence	confidence_rt	probe	item1	item2	item3	item4	item5	item6	age	sex	handedness	color_vision	mother_tongue	occupation
FAUST_1[2014-06]	47	1	16	3	2	1	1	1	2	0	2294	2	2	1	2421	4	1692	Glass19.bmp	Man24.bmp	Man2.bmp	Man10.bmp	Glass19.bmp	Man24.bmp	Man15.bmp	25	1	1	1	1	ERZIEHUNGSWISSENSCHAFT
FAUST_1[2014-06]	47	1	19	3	2	2	1	1	2	0	4188	2	2	1	2567	3	1950	Bag5.bmp	Key20.bmp	Bag5.bmp	Key5.bmp	Bag5.bmp	Key11.bmp	Key13.bmp	25	1	1	1	1	ERZIEHUNGSWISSENSCHAFT
FAUST_1[2014-06]	47	1	20	3	2	1	2	1	1	1	2378	2	2	1	2579	4	1923	Button3.bmp	Button10.bmp	Button18.bmp	Flower18.bmp	Button3.bmp	Button20.bmp	Flower18.bmp	25	1	1	1	1	ERZIEHUNGSWISSENSCHAFT
FAUST_1[2014-06]	47	1	22	3	2	2	2	1	1	1	2535	2	1	0	1212	4	1424	Chocolate17.bmp	Chocolate17.bmp	Chocolate24.bmp	Car14.bmp	Chocolate6.bmp	Chocolate5.bmp	Chocolate17.bmp	25	1	1	1	1	ERZIEHUNGSWISSENSCHAFT
FAUST_1[2014-06]	47	1	13	3	2	1	1	1	1	1	8285	1	1	1	2926	3	2043	Pen10.bmp	Pen10.bmp	Holly17.bmp	Holly14.bmp	Holly17.bmp	Holly11.bmp	Holly20.bmp	25	1	1	1	1	ERZIEHUNGSWISSENSCHAFT
FAUST_1[2014-06]	47	1	17	3	2	2	1	1	1	1	2042	2	2	1	2293	4	1114	Bracelet5.bmp	Bracelet5.bmp	Hanger15.bmp	Hanger2.bmp	Hanger7.bmp	Hanger14.bmp	Bracelet5.bmp	25	1	1	1	1	ERZIEHUNGSWISSENSCHAFT
FAUST_1[2014-06]	47	1	10	3	2	1	2	1	1	1	5874	2	2	1	2821	3	1582	Plug4.bmp	Plug6.bmp	Plug4.bmp	Feather18.bmp	Plug8.bmp	Plug18.bmp	Feather18.bmp	25	1	1	1	1	ERZIEHUNGSWISSENSCHAFT
FAUST_1[2014-06]	47	1	3	3	2	2	2	1	2	0	5131	2	2	1	2808	3	2306	Scissors1.bmp	Scissors1.bmp	Scissors11.bmp	Scissors3.bmp	Scissors1.bmp	Scissors14.bmp	Cake7.bmp	25	1	1	1	1	ERZIEHUNGSWISSENSCHAFT
FAUST_1[2014-06]	47	1	21	3	2	1	1	2	2	1	51	-1	1	0	0	3	2101	Fudge17.bmp	Fudge5.bmp	Leaf15.bmp	Leaf21.bmp	Leaf22.bmp	Leaf10.bmp	Leaf15.bmp	25	1	1	1	1	ERZIEHUNGSWISSENSCHAFT
FAUST_1[2014-06]	47	1	15	3	2	2	1	2	2	1	4256	2	2	1	2697	3	1540	Tomato18.bmp	Biscuit20.bmp	Tomato2.bmp	Biscuit17.bmp	Tomato2.bmp	Biscuit25.bmp	Biscuit9.bmp	25	1	1	1	1	ERZIEHUNGSWISSENSCHAFT
FAUST_1[2014-06]	47	1	11	3	2	1	2	2	1	0	4926	2	1	0	2634	3	1992	Lipstick3.bmp	Jigsaw17.bmp	Lipstick7.bmp	Lipstick2.bmp	Lipstick9.bmp	Jigsaw17.bmp	Lipstick15.bmp	25	1	1	1	1	ERZIEHUNGSWISSENSCHAFT
FAUST_1[2014-06]	47	1	8	3	2	2	2	2	1	0	4969	2	2	1	2960	3	2139	Screw16.bmp	Screw13.bmp	Screw18.bmp	Screw9.bmp	Bun17.bmp	Screw10.bmp	Screw9.bmp	25	1	1	1	1	ERZIEHUNGSWISSENSCHAFT
FAUST_1[2014-06]	47	1	18	3	2	1	1	2	2	1	3282	2	2	1	2554	4	2388	Sweet1.bmp	Nut2.bmp	Nut19.bmp	Nut21.bmp	Nut11.bmp	Nut19.bmp	Sweet18.bmp	25	1	1	1	1	ERZIEHUNGSWISSENSCHAFT
FAUST_1[2014-06]	47	1	5	3	2	2	1	2	2	1	4815	1	1	1	1548	3	2149	Fork17.bmp	Pear18.bmp	Fork7.bmp	Pear15.bmp	Fork7.bmp	Pear16.bmp	Pear4.bmp	25	1	1	1	1	ERZIEHUNGSWISSENSCHAFT
FAUST_1[2014-06]	47	1	7	3	2	1	2	2	2	1	4172	1	2	0	2269	3	1258	Strawberry3.bmp	Strawberry4.bmp	Strawberry21.bmp	Mushroom18.bmp	Strawberry18.bmp	Strawberry14.bmp	Mushroom18.bmp	25	1	1	1	1	ERZIEHUNGSWISSENSCHAFT
FAUST_1[2014-06]	47	1	12	3	2	2	2	2	1	0	2922	2	2	1	2369	4	1552	String8.bmp	Brocolli9.bmp	String6.bmp	String12.bmp	String2.bmp	String9.bmp	String6.bmp	25	1	1	1	1	ERZIEHUNGSWISSENSCHAFT
FAUST_1[2014-06]	47	1	6	3	2	1	1	3	2	1	6293	1	1	1	2245	4	1500	Candle13.bmp	Keys6.bmp	Keys8.bmp	Keys7.bmp	Onion19.bmp	Keys9.bmp	Keys6.bmp	25	1	1	1	1	ERZIEHUNGSWISSENSCHAFT
FAUST_1[2014-06]	47	1	2	3	2	2	1	3	2	1	2147	1	1	1	2433	3	2345	Present9.bmp	Star17.bmp	Stapler7.bmp	Star19.bmp	Star7.bmp	Star1.bmp	Stapler7.bmp	25	1	1	1	1	ERZIEHUNGSWISSENSCHAFT
FAUST_1[2014-06]	47	1	1	3	2	1	1	3	2	1	2001	1	1	1	2700	3	5844	Varnish11.bmp	Swirl23.bmp	Swirl13.bmp	Swirl5.bmp	Coins10.bmp	Swirl13.bmp	Swirl1.bmp	25	1	1	1	1	ERZIEHUNGSWISSENSCHAFT
FAUST_1[2014-06]	47	1	9	3	2	2	1	3	1	0	26170	1	1	1	2679	3	1696	Shell17.bmp	Daff9.bmp	Chilli12.bmp	Chilli14.bmp	Chilli11.bmp	Chilli19.bmp	Daff9.bmp	25	1	1	1	1	ERZIEHUNGSWISSENSCHAFT
FAUST_1[2014-06]	47	1	14	3	2	1	1	3	2	1	4486	-1	1	0	0	4	2269	Ginger5.bmp	Toothbrush1.bmp	Toothbrush10.bmp	Umbrella17.bmp	Toothbrush9.bmp	Toothbrush10.bmp	Toothbrush6.bmp	25	1	1	1	1	ERZIEHUNGSWISSENSCHAFT
FAUST_1[2014-06]	47	1	4	3	2	2	1	3	2	1	2874	1	2	0	3497	3	1816	Paperclip13.bmp	Apple5.bmp	Hand17.bmp	Apple5.bmp	Hand1.bmp	Hand8.bmp	Hand13.bmp	25	1	1	1	1	ERZIEHUNGSWISSENSCHAFT
FAUST_1[2014-06]	47	2	19	3	3	1	1	1	1	1	3022	2	1	0	2495	4	1484	windchime_16.bmp	doorknob_10.bmp	doorknob_7.bmp	doorknob_17.bmp	windchime_16.bmp	doorknob_10.bmp	doorknob_14.bmp	25	1	1	1	1	ERZIEHUNGSWISSENSCHAFT
FAUST_1[2014-06]	47	2	12	3	3	2	1	1	1	1	6929	2	2	1	2871	3	1412	tricycle_5.bmp	babycrib_6.bmp	tricycle_5.bmp	babycrib_2.bmp	tricycle_5.bmp	babycrib_7.bmp	babycrib_5.bmp	25	1	1	1	1	ERZIEHUNGSWISSENSCHAFT
FAUST_1[2014-06]	47	2	25	3	3	1	2	1	1	1	2596	2	1	0	2164	3	2137	pasta_10.bmp	sofa_12.bmp	pasta_10.bmp	pasta_13.bmp	pasta_15.bmp	pasta_9.bmp	sofa_12.bmp	25	1	1	1	1	ERZIEHUNGSWISSENSCHAFT
FAUST_1[2014-06]	47	2	9	3	3	2	2	1	1	1	5349	1	2	0	3083	4	1564	fan_15.bmp	fan_15.bmp	hairdryer_2.bmp	fan_1.bmp	fan_15.bmp	fan_11.bmp	fan_10.bmp	25	1	1	1	1	ERZIEHUNGSWISSENSCHAFT
FAUST_1[2014-06]	47	2	26	3	3	1	1	1	1	1	1590	2	1	0	1568	3	1268	trunk_5.bmp	ring_12.bmp	trunk_5.bmp	ring_15.bmp	ring_11.bmp	ring_7.bmp	ring_15.bmp	25	1	1	1	1	ERZIEHUNGSWISSENSCHAFT
FAUST_1[2014-06]	47	2	4	3	3	2	1	1	1	1	2378	2	2	1	2540	4	1389	cheesegrater_8.bmp	cheesegrater_8.bmp	carriage_9.bmp	cheesegrater_8.bmp	carriage_12.bmp	carriage_2.bmp	carriage_3.bmp	25	1	1	1	1	ERZIEHUNGSWISSENSCHAFT
FAUST_1[2014-06]	47	2	14	3	3	1	2	1	1	1	5793	2	2	1	1559	4	2214	hairbrush_17.bmp	hairbrush_17.bmp	hairbrush_7.bmp	chair_11.bmp	hairbrush_16.bmp	chair_11.bmp	hairbrush_15.bmp	25	1	1	1	1	ERZIEHUNGSWISSENSCHAFT
FAUST_1[2014-06]	47	2	28	3	3	2	2	1	1	1	1903	2	2	1	2467	4	1709	glasses_13.bmp	glasses_6.bmp	glasses_15.bmp	glasses_13.bmp	glasses_9.bmp	videogamecontroller_2.bmp	glasses_13.bmp	25	1	1	1	1	ERZIEHUNGSWISSENSCHAFT
FAUST_1[2014-06]	47	2	13	3	3	1	1	1	1	1	2621	-1	1	0	0	4	1543	socks_12.bmp	iceskates_16.bmp	socks_12.bmp	iceskates_9.bmp	iceskates_5.bmp	iceskates_7.bmp	iceskates_9.bmp	25	1	1	1	1	ERZIEHUNGSWISSENSCHAFT
FAUST_1[2014-06]	47	2	18	3	3	2	1	1	1	1	2403	1	2	0	1193	4	1741	cat_5.bmp	cat_5.bmp	wig_9.bmp	cat_5.bmp	wig_12.bmp	wig_6.bmp	wig_7.bmp	25	1	1	1	1	ERZIEHUNGSWISSENSCHAFT
FAUST_1[2014-06]	47	2	2	3	3	1	2	1	1	1	4522	2	2	1	3020	4	1392	saltpeppershake_2.bmp	circuitboard_4.bmp	saltpeppershake_17.bmp	saltpeppershake_2.bmp	saltpeppershake_8.bmp	saltpeppershake_9.bmp	circuitboard_4.bmp	25	1	1	1	1	ERZIEHUNGSWISSENSCHAFT
FAUST_1[2014-06]	47	2	30	3	3	2	2	1	1	1	1721	2	2	1	2602	4	1798	watergun_9.bmp	watergun_9.bmp	watergun_3.bmp	watergun_9.bmp	carabiner_9.bmp	watergun_8.bmp	watergun_15.bmp	25	1	1	1	1	ERZIEHUNGSWISSENSCHAFT
FAUST_1[2014-06]	47	2	31	3	3	1	1	2	2	1	2225	1	1	1	2202	4	2026	backpack_13.bmp	guitar_8.bmp	guitar_14.bmp	guitar_5.bmp	backpack_6.bmp	guitar_7.bmp	guitar_14.bmp	25	1	1	1	1	ERZIEHUNGSWISSENSCHAFT
FAUST_1[2014-06]	47	2	17	3	3	2	1	2	2	1	2922	-1	1	0	0	3	1650	lawnmower_15.bmp	lawnmower_17.bmp	vase_13.bmp	vase_6.bmp	vase_15.bmp	vase_1.bmp	lawnmower_17.bmp	25	1	1	1	1	ERZIEHUNGSWISSENSCHAFT
FAUST_1[2014-06]	47	2	8	3	3	1	2	2	2	1	4874	2	2	1	2739	3	1634	turtle_7.bmp	jacket_6.bmp	turtle_11.bmp	turtle_2.bmp	jacket_6.bmp	turtle_12.bmp	turtle_6.bmp	25	1	1	1	1	ERZIEHUNGSWISSENSCHAFT
FAUST_1[2014-06]	47	2	22	3	3	2	2	2	2	1	3823	1	1	1	2810	3	1670	router_12.bmp	router_16.bmp	router_6.bmp	watch_14.bmp	router_5.bmp	router_7.bmp	router_6.bmp	25	1	1	1	1	ERZIEHUNGSWISSENSCHAFT
FAUST_1[2014-06]	47	2	16	3	3	1	1	2	2	1	4348	2	2	1	2658	3	1730	remote_11.bmp	scooter_11.bmp	remote_14.bmp	scooter_11.bmp	scooter_10.bmp	scooter_5.bmp	scooter_4.bmp	25	1	1	1	1	ERZIEHUNGSWISSENSCHAFT
FAUST_1[2014-06]	47	2	29	3	3	2	1	2	2	1	1996	2	2	1	2670	4	1816	tv_7.bmp	tv_8.bmp	rollerskates_5.bmp	tv_8.bmp	rollerskates_17.bmp	rollerskates_7.bmp	rollerskates_2.bmp	25	1	1	1	1	ERZIEHUNGSWISSENSCHAFT
FAUST_1[2014-06]	47	2	10	3	3	1	2	2	1	0	5885	2	2	1	2416	3	1657	leatherman_5.bmp	printer_3.bmp	leatherman_7.bmp	leatherman_2.bmp	leatherman_10.bmp	leatherman_14.bmp	printer_3.bmp	25	1	1	1	1	ERZIEHUNGSWISSENSCHAFT
FAUST_1[2014-06]	47	2	11	3	3	2	2	2	1	0	3979	2	2	1	2647	4	1917	bowlingpin_13.bmp	bowlingpin_11.bmp	bowlingpin_1.bmp	bowlingpin_11.bmp	bowlingpin_3.bmp	bowlingpin_4.bmp	rusdoll_5.bmp	25	1	1	1	1	ERZIEHUNGSWISSENSCHAFT
FAUST_1[2014-06]	47	2	23	3	3	1	1	2	2	1	2857	1	1	1	2019	3	1670	highchair_6.bmp	sink_15.bmp	sink_11.bmp	sink_1.bmp	sink_6.bmp	sink_1.bmp	highchair_4.bmp	25	1	1	1	1	ERZIEHUNGSWISSENSCHAFT
FAUST_1[2014-06]	47	2	24	3	3	2	1	2	2	1	1694	1	1	1	2961	2	2049	coffee_14.bmp	coffee_15.bmp	cake_3.bmp	cake_14.bmp	coffee_15.bmp	cake_5.bmp	cake_1.bmp	25	1	1	1	1	ERZIEHUNGSWISSENSCHAFT
FAUST_1[2014-06]	47	2	20	3	3	1	2	2	2	1	3874	1	1	1	3236	4	1948	cherubstatue_10.bmp	camera_6.bmp	cherubstatue_5.bmp	camera_6.bmp	cherubstatue_11.bmp	cherubstatue_12.bmp	cherubstatue_6.bmp	25	1	1	1	1	ERZIEHUNGSWISSENSCHAFT
FAUST_1[2014-06]	47	2	21	3	3	2	2	2	2	1	2577	1	1	1	2548	4	2013	garbagecan_10.bmp	garbagecan_17.bmp	garbagecan_13.bmp	garbagecan_2.bmp	garbagecan_17.bmp	orifan_14.bmp	garbagecan_8.bmp	25	1	1	1	1	ERZIEHUNGSWISSENSCHAFT
FAUST_1[2014-06]	47	2	5	3	3	1	1	3	2	1	2926	1	1	1	3199	4	1846	mic_12.bmp	birdhouse_14.bmp	birdhouse_9.bmp	birdhouse_6.bmp	birdhouse_7.bmp	birdhouse_6.bmp	trumpet_3.bmp	25	1	1	1	1	ERZIEHUNGSWISSENSCHAFT
FAUST_1[2014-06]	47	2	1	3	3	2	1	3	2	1	2430	2	2	1	2173	4	2304	plant_8.bmp	shredder_1.bmp	shredder_5.bmp	cellphone_12.bmp	shredder_7.bmp	shredder_6.bmp	cellphone_12.bmp	25	1	1	1	1	ERZIEHUNGSWISSENSCHAFT
FAUST_1[2014-06]	47	2	15	3	3	1	1	3	2	1	4032	2	1	0	2816	4	2184	flashlight_12.bmp	skateboard_15.bmp	saddle_3.bmp	saddle_8.bmp	saddle_5.bmp	saddle_3.bmp	saddle_15.bmp	25	1	1	1	1	ERZIEHUNGSWISSENSCHAFT
FAUST_1[2014-06]	47	2	3	3	3	2	1	3	2	1	2991	2	1	0	3121	4	2081	hammer_17.bmp	bagel_16.bmp	beanbagchair_3.bmp	beanbagchair_17.bmp	beanbagchair_14.bmp	beanbagchair_15.bmp	bagel_16.bmp	25	1	1	1	1	ERZIEHUNGSWISSENSCHAFT
FAUST_1[2014-06]	47	2	7	3	3	1	1	3	2	1	2859	2	1	0	2453	4	1902	powerstrip_13.bmp	speaker_10.bmp	speaker_6.bmp	speaker_15.bmp	trophy_14.bmp	speaker_4.bmp	speaker_15.bmp	25	1	1	1	1	ERZIEHUNGSWISSENSCHAFT
FAUST_1[2014-06]	47	2	32	3	3	2	1	3	2	1	1424	2	2	1	2156	4	1732	glove_10.bmp	easteregg_5.bmp	shoe_9.bmp	easteregg_9.bmp	easteregg_14.bmp	easteregg_16.bmp	shoe_9.bmp	25	1	1	1	1	ERZIEHUNGSWISSENSCHAFT
FAUST_1[2014-06]	47	2	6	3	3	1	1	3	2	1	4401	1	1	1	2726	4	1954	laptop_7.bmp	goggle_3.bmp	goggle_4.bmp	goggle_13.bmp	goggle_4.bmp	doorknocker_14.bmp	goggle_1.bmp	25	1	1	1	1	ERZIEHUNGSWISSENSCHAFT
FAUST_1[2014-06]	47	2	27	3	3	2	1	3	2	1	2521	2	2	1	1867	3	1465	abacus_15.bmp	parfait_13.bmp	parfait_11.bmp	horseshoe_5.bmp	parfait_4.bmp	horseshoe_5.bmp	parfait_1.bmp	25	1	1	1	1	ERZIEHUNGSWISSENSCHAFT
FAUST_1[2014-06]	47	3	4	3	1	1	1	1	1	1	1737	1	1	1	3437	4	1249	KAROTTEN	brieföffner	karotten	klebeband	locher	klebeband	büroklammer	25	1	1	1	1	ERZIEHUNGSWISSENSCHAFT
FAUST_1[2014-06]	47	3	23	3	1	2	1	1	1	1	1644	1	1	1	2727	3	1318	BASTELN	erdbeere	basteln	pflaume	basteln	birne	banane	25	1	1	1	1	ERZIEHUNGSWISSENSCHAFT
FAUST_1[2014-06]	47	3	24	3	1	1	2	1	2	0	1296	1	1	1	2616	3	1215	PETROLEUM	säge	petroleum	säge	benzin	kerosin	bleifrei	25	1	1	1	1	ERZIEHUNGSWISSENSCHAFT
FAUST_1[2014-06]	47	3	11	3	1	2	2	1	1	1	1488	2	1	0	2852	4	1286	SCHEUNE	baracke	scheune	hütte	yacht	blockhaus	scheune	25	1	1	1	1	ERZIEHUNGSWISSENSCHAFT
FAUST_1[2014-06]	47	3	19	3	1	1	1	1	1	1	3724	1	1	1	2485	3	1510	HEXE	leinen	seide	flanell	wolle	seide	hexe	25	1	1	1	1	ERZIEHUNGSWISSENSCHAFT
FAUST_1[2014-06]	47	3	14	3	1	2	1	1	1	1	3339	-1	2	0	0	3	1289	MASERN	wimperntusche	masern	rouge	masern	lidschatten	lippenstift	25	1	1	1	1	ERZIEHUNGSWISSENSCHAFT
FAUST_1[2014-06]	47	3	10	3	1	1	2	1	2	0	1555	2	2	1	3077	3	1197	RÜCKSPIEGEL	rückspiegel	gaspedal	kupplung	fuß	lenkrad	fuß	25	1	1	1	1	ERZIEHUNGSWISSENSCHAFT
FAUST_1[2014-06]	47	3	18	3	1	2	2	1	2	0	2050	2	1	0	2158	3	1571	STRICKNADEL	stricknadel	mücke	häkelnadel	stricknadel	stecknadel	sicherheitsnadel	25	1	1	1	1	ERZIEHUNGSWISSENSCHAFT
FAUST_1[2014-06]	47	3	26	3	1	1	1	1	1	1	1291	2	2	1	2068	2	1665	HALMA	forelle	thunfisch	halma	forelle	lachs	makrele	25	1	1	1	1	ERZIEHUNGSWISSENSCHAFT
FAUST_1[2014-06]	47	3	15	3	1	2	1	1	1	1	1621	2	2	1	3094	4	1823	CANNABIS	regal	tisch	cannabis	stuhl	sofa	cannabis	25	1	1	1	1	ERZIEHUNGSWISSENSCHAFT
FAUST_1[2014-06]	47	3	7	3	1	1	2	1	2	0	1531	1	1	1	3466	1	2383	POLIZIST	arzt	sehen	polizist	pfarrer	lehrer	sehen	25	1	1	1	1	ERZIEHUNGSWISSENSCHAFT
FAUST_1[2014-06]	47	3	31	3	1	2	2	1	1	1	1123	2	2	1	2720	4	1723	OPER	oper	zirkus	gepard	theater	konzertsaal	oper	25	1	1	1	1	ERZIEHUNGSWISSENSCHAFT
FAUST_1[2014-06]	47	3	13	3	1	1	1	2	2	1	1297	2	2	1	2746	4	1207	AUDI	stickstoff	volvo	sauerstoff	helium	kohlenstoff	helium	25	1	1	1	1	ERZIEHUNGSWISSENSCHAFT
FAUST_1[2014-06]	47	3	32	3	1	2	1	2	2	1	1161	2	2	1	2400	4	1746	TROMPETE	tochter	mutter	flöte	vater	sohn	flöte	25	1	1	1	1	ERZIEHUNGSWISSENSCHAFT
FAUST_1[2014-06]	47	3	28	3	1	1	2	2	2	1	1066	1	1	1	2911	4	1227	RUM	whiskey	sekunde	wodka	gin	tequila	sekunde	25	1	1	1	1	ERZIEHUNGSWISSENSCHAFT
FAUST_1[2014-06]	47	3	27	3	1	2	2	2	2	1	1168	2	2	1	1837	3	1092	LAKRITZ	gummibärchen	bonbons	karamell	meer	bonbons	marzipan	25	1	1	1	1	ERZIEHUNGSWISSENSCHAFT
FAUST_1[2014-06]	47	3	2	3	1	1	1	2	2	1	2244	2	2	1	2438	4	1369	WESER	elbe	realschule	gesamtschule	berufsschule	realschule	gymnasium	25	1	1	1	1	ERZIEHUNGSWISSENSCHAFT
FAUST_1[2014-06]	47	3	20	3	1	2	1	2	2	1	1469	2	2	1	2079	4	1636	DOGGE	asien	südamerika	schäferhund	afrika	australien	schäferhund	25	1	1	1	1	ERZIEHUNGSWISSENSCHAFT
FAUST_1[2014-06]	47	3	30	3	1	1	2	2	1	0	1472	2	2	1	2344	2	1244	BUS	italien	zug	taxi	fahrrad	italien	straßenbahn	25	1	1	1	1	ERZIEHUNGSWISSENSCHAFT
FAUST_1[2014-06]	47	3	12	3	1	2	2	2	2	1	1910	2	2	1	1965	4	1475	BLUSE	hose	jacke	rock	internet	hose	hemd	25	1	1	1	1	ERZIEHUNGSWISSENSCHAFT
FAUST_1[2014-06]	47	3	17	3	1	1	1	2	2	1	1099	2	1	0	1901	3	2597	TEMPEL	merkur	pluto	saturn	pluto	kapelle	venus	25	1	1	1	1	ERZIEHUNGSWISSENSCHAFT
FAUST_1[2014-06]	47	3	21	3	1	2	1	2	2	1	1285	1	1	1	3339	4	1068	VIVALDI	beethoven	fußball	beethoven	tennis	golf	schwimmen	25	1	1	1	1	ERZIEHUNGSWISSENSCHAFT
FAUST_1[2014-06]	47	3	6	3	1	1	2	2	1	0	3062	2	1	0	1756	3	1377	SAARLAND	brandenburg	hessen	niere	thüringen	niere	sachsen	25	1	1	1	1	ERZIEHUNGSWISSENSCHAFT
FAUST_1[2014-06]	47	3	22	3	1	2	2	2	2	1	1103	2	1	0	2511	4	2271	PIZZA	hamburger	bratwurst	döner	hagel	pommes	bratwurst	25	1	1	1	1	ERZIEHUNGSWISSENSCHAFT
FAUST_1[2014-06]	47	3	29	3	1	1	1	3	2	1	1247	2	2	1	2932	4	1390	VIERECK	fink	meise	taube	meise	bleistift	schwalbe	25	1	1	1	1	ERZIEHUNGSWISSENSCHAFT
FAUST_1[2014-06]	47	3	9	3	1	2	1	3	2	1	1563	2	2	1	2265	3	1057	MEILE	kamera	scham	drucker	scham	computer	mobiltelefon	25	1	1	1	1	ERZIEHUNGSWISSENSCHAFT
FAUST_1[2014-06]	47	3	3	3	1	1	1	3	2	1	1420	1	2	0	2901	4	1079	VEILCHEN	flasche	kanne	euro	karaffe	flasche	becher	25	1	1	1	1	ERZIEHUNGSWISSENSCHAFT
FAUST_1[2014-06]	47	3	16	3	1	2	1	3	2	1	1425	2	2	1	2050	4	1092	ERDKUNDE	thriller	schütze	wassermann	steinbock	thriller	jungfrau	25	1	1	1	1	ERZIEHUNGSWISSENSCHAFT
FAUST_1[2014-06]	47	3	8	3	1	1	1	3	2	1	1551	2	1	0	2318	3	1215	HAFER	fürst	herzog	könig	birke	kaiser	fürst	25	1	1	1	1	ERZIEHUNGSWISSENSCHAFT
FAUST_1[2014-06]	47	3	25	3	1	2	1	3	2	1	1933	2	2	1	2597	3	1550	FOXTROTT	gabel	rot	teelöffel	löffel	rot	brotmesser	25	1	1	1	1	ERZIEHUNGSWISSENSCHAFT
FAUST_1[2014-06]	47	3	5	3	1	1	1	3	2	1	1543	2	2	1	3094	4	2503	BERLIN	backform	pfannenwender	nudelholz	verb	backblech	pfannenwender	25	1	1	1	1	ERZIEHUNGSWISSENSCHAFT
FAUST_1[2014-06]	47	3	1	3	1	2	1	3	2	1	1538	2	2	1	2374	4	2202	EISEN	koriander	pistole	schwert	koriander	gewehr	bombe	25	1	1	1	1	ERZIEHUNGSWISSENSCHAFT
FAUST_1[2014-06]	47	2	16	3	2	1	1	1	2	0	2810	1	2	0	2317	2	1371	Strawberry4.bmp	Coins3.bmp	Coins10.bmp	Coins12.bmp	Strawberry4.bmp	Coins8.bmp	Coins12.bmp	25	1	1	1	1	ERZIEHUNGSWISSENSCHAFT
FAUST_1[2014-06]	47	2	15	3	2	2	1	1	1	1	1552	1	2	0	2506	4	1760	Chilli14.bmp	Button20.bmp	Chilli14.bmp	Button3.bmp	Chilli14.bmp	Button14.bmp	Button10.bmp	25	1	1	1	1	ERZIEHUNGSWISSENSCHAFT
FAUST_1[2014-06]	47	2	7	3	2	1	2	1	1	1	1632	2	1	0	2424	4	1443	Scissors14.bmp	Pen17.bmp	Scissors11.bmp	Scissors3.bmp	Scissors23.bmp	Scissors14.bmp	Pen17.bmp	25	1	1	1	1	ERZIEHUNGSWISSENSCHAFT
FAUST_1[2014-06]	47	2	8	3	2	2	2	1	1	1	1677	2	2	1	2081	4	1428	Onion19.bmp	Onion19.bmp	Onion7.bmp	Onion13.bmp	Onion19.bmp	Onion14.bmp	Sweet22.bmp	25	1	1	1	1	ERZIEHUNGSWISSENSCHAFT
FAUST_1[2014-06]	47	2	6	3	2	1	1	1	1	1	1794	2	2	1	1474	4	1411	Feather14.bmp	Plug4.bmp	Plug8.bmp	Plug9.bmp	Feather14.bmp	Plug6.bmp	Plug4.bmp	25	1	1	1	1	ERZIEHUNGSWISSENSCHAFT
FAUST_1[2014-06]	47	2	1	3	2	2	1	1	1	1	1205	2	1	0	1755	4	1780	Swirl13.bmp	Screw9.bmp	Screw13.bmp	Swirl13.bmp	Screw10.bmp	Swirl13.bmp	Screw18.bmp	25	1	1	1	1	ERZIEHUNGSWISSENSCHAFT
FAUST_1[2014-06]	47	2	21	3	2	1	2	1	1	1	1206	1	1	1	2371	4	1131	Candle20.bmp	Star19.bmp	Candle20.bmp	Star19.bmp	Candle10.bmp	Candle17.bmp	Candle1.bmp	25	1	1	1	1	ERZIEHUNGSWISSENSCHAFT
FAUST_1[2014-06]	47	2	22	3	2	2	2	1	1	1	2980	2	1	0	1759	4	1514	Umbrella19.bmp	Umbrella21.bmp	Car14.bmp	Umbrella19.bmp	Umbrella6.bmp	Umbrella7.bmp	Umbrella19.bmp	25	1	1	1	1	ERZIEHUNGSWISSENSCHAFT
FAUST_1[2014-06]	47	2	17	3	2	1	1	2	1	0	1942	2	2	1	3166	3	1483	Hand13.bmp	Ginger5.bmp	Hand1.bmp	Ginger17.bmp	Ginger10.bmp	Ginger3.bmp	Ginger10.bmp	25	1	1	1	1	ERZIEHUNGSWISSENSCHAFT
FAUST_1[2014-06]	47	2	10	3	2	2	1	2	2	1	3871	1	1	1	1867	4	1441	Bag4.bmp	Bag3.bmp	Keys5.bmp	Keys7.bmp	Keys6.bmp	Keys8.bmp	Bag3.bmp	25	1	1	1	1	ERZIEHUNGSWISSENSCHAFT
FAUST_1[2014-06]	47	2	2	3	2	1	2	2	1	0	2652	1	1	1	2111	3	1964	Holly3.bmp	Varnish14.bmp	Holly14.bmp	Holly20.bmp	Holly11.bmp	Holly17.bmp	Varnish14.bmp	25	1	1	1	1	ERZIEHUNGSWISSENSCHAFT
FAUST_1[2014-06]	47	2	5	3	2	2	2	2	2	1	3661	2	1	0	2392	4	1351	Brocolli4.bmp	Brocolli9.bmp	Glass12.bmp	Brocolli14.bmp	Brocolli10.bmp	Brocolli9.bmp	Brocolli19.bmp	25	1	1	1	1	ERZIEHUNGSWISSENSCHAFT
FAUST_1[2014-06]	47	2	20	3	2	1	1	2	1	0	2784	2	1	0	2966	4	1561	Fudge17.bmp	String2.bmp	String12.bmp	String6.bmp	String12.bmp	Fudge8.bmp	String9.bmp	25	1	1	1	1	ERZIEHUNGSWISSENSCHAFT
FAUST_1[2014-06]	47	2	3	3	2	2	1	2	2	1	1607	2	2	1	2950	3	1856	Leaf13.bmp	Pear4.bmp	Leaf22.bmp	Pear16.bmp	Pear18.bmp	Pear7.bmp	Leaf22.bmp	25	1	1	1	1	ERZIEHUNGSWISSENSCHAFT
FAUST_1[2014-06]	47	2	13	3	2	1	2	2	2	1	1446	2	2	1	1820	4	1551	Key5.bmp	Key20.bmp	Key13.bmp	Shell1.bmp	Key11.bmp	Key9.bmp	Shell1.bmp	25	1	1	1	1	ERZIEHUNGSWISSENSCHAFT
FAUST_1[2014-06]	47	2	18	3	2	2	2	2	2	1	1775	2	2	1	3341	4	1604	Bracelet18.bmp	Bracelet8.bmp	Bracelet1.bmp	Stapler9.bmp	Bracelet5.bmp	Bracelet2.bmp	Bracelet5.bmp	25	1	1	1	1	ERZIEHUNGSWISSENSCHAFT
FAUST_1[2014-06]	47	2	12	3	2	1	1	3	2	1	1045	2	2	1	2051	4	1561	Lipstick7.bmp	Jigsaw10.bmp	Daff22.bmp	Daff21.bmp	Daff1.bmp	Daff22.bmp	Daff9.bmp	25	1	1	1	1	ERZIEHUNGSWISSENSCHAFT
FAUST_1[2014-06]	47	2	14	3	2	2	1	3	2	1	1644	2	1	0	2139	3	1934	Mushroom14.bmp	Paperclip4.bmp	Paperclip6.bmp	Paperclip13.bmp	Bun22.bmp	Paperclip9.bmp	Bun22.bmp	25	1	1	1	1	ERZIEHUNGSWISSENSCHAFT
FAUST_1[2014-06]	47	2	9	3	2	1	1	3	2	1	1227	1	1	1	1538	4	2776	Fork14.bmp	Hanger14.bmp	Chocolate9.bmp	Hanger12.bmp	Hanger14.bmp	Hanger2.bmp	Hanger15.bmp	25	1	1	1	1	ERZIEHUNGSWISSENSCHAFT
FAUST_1[2014-06]	47	2	19	3	2	2	1	3	2	1	1472	2	2	1	1906	4	1205	Tomato3.bmp	Nut21.bmp	Present9.bmp	Nut11.bmp	Present9.bmp	Nut18.bmp	Nut2.bmp	25	1	1	1	1	ERZIEHUNGSWISSENSCHAFT
FAUST_1[2014-06]	47	2	4	3	2	1	1	3	2	1	1208	1	1	1	1690	4	2405	Flower17.bmp	Biscuit4.bmp	Biscuit17.bmp	Man2.bmp	Biscuit9.bmp	Biscuit4.bmp	Biscuit25.bmp	25	1	1	1	1	ERZIEHUNGSWISSENSCHAFT
FAUST_1[2014-06]	47	2	11	3	2	2	1	3	2	1	1027	1	1	1	1868	4	1551	Cake7.bmp	Apple5.bmp	Toothbrush1.bmp	Toothbrush9.bmp	Apple5.bmp	Toothbrush12.bmp	Toothbrush6.bmp	25	1	1	1	1	ERZIEHUNGSWISSENSCHAFT
FAUST_1[2014-06]	47	3	13	3	3	1	1	1	1	1	1470	1	1	1	2197	3	1275	cheesegrater_15.bmp	guitar_8.bmp	cheesegrater_15.bmp	guitar_5.bmp	guitar_14.bmp	guitar_5.bmp	guitar_7.bmp	25	1	1	1	1	ERZIEHUNGSWISSENSCHAFT
FAUST_1[2014-06]	47	3	19	3	3	2	1	1	1	1	1366	1	1	1	2829	4	1771	easteregg_17.bmp	rusdoll_5.bmp	easteregg_17.bmp	rusdoll_8.bmp	rusdoll_3.bmp	easteregg_17.bmp	rusdoll_6.bmp	25	1	1	1	1	ERZIEHUNGSWISSENSCHAFT
FAUST_1[2014-06]	47	3	30	3	3	1	2	1	2	0	2167	1	2	0	2150	2	2019	trumpet_1.bmp	trumpet_5.bmp	remote_14.bmp	trumpet_17.bmp	trumpet_1.bmp	remote_14.bmp	trumpet_3.bmp	25	1	1	1	1	ERZIEHUNGSWISSENSCHAFT
FAUST_1[2014-06]	47	3	17	3	3	2	2	1	1	1	1257	2	1	0	3130	4	1328	trunk_5.bmp	trunk_1.bmp	trunk_7.bmp	trunk_5.bmp	bagel_12.bmp	trunk_5.bmp	trunk_3.bmp	25	1	1	1	1	ERZIEHUNGSWISSENSCHAFT
FAUST_1[2014-06]	47	3	3	3	3	1	1	1	2	0	1761	2	2	1	2384	3	1523	scooter_5.bmp	goggle_3.bmp	goggle_9.bmp	goggle_4.bmp	goggle_13.bmp	scooter_5.bmp	goggle_4.bmp	25	1	1	1	1	ERZIEHUNGSWISSENSCHAFT
FAUST_1[2014-06]	47	3	31	3	3	2	1	1	1	1	1303	2	1	0	2768	4	1477	cherubstatue_11.bmp	cherubstatue_11.bmp	carriage_9.bmp	carriage_12.bmp	cherubstatue_11.bmp	carriage_14.bmp	carriage_3.bmp	25	1	1	1	1	ERZIEHUNGSWISSENSCHAFT
FAUST_1[2014-06]	47	3	12	3	3	1	2	1	1	1	4901	1	1	1	1572	3	1811	doorknocker_5.bmp	glasses_6.bmp	doorknocker_11.bmp	doorknocker_5.bmp	doorknocker_14.bmp	glasses_6.bmp	doorknocker_2.bmp	25	1	1	1	1	ERZIEHUNGSWISSENSCHAFT
FAUST_1[2014-06]	47	3	4	3	3	2	2	1	1	1	1959	1	2	0	2126	3	1306	trophy_14.bmp	vase_1.bmp	trophy_16.bmp	trophy_4.bmp	trophy_14.bmp	trophy_6.bmp	trophy_14.bmp	25	1	1	1	1	ERZIEHUNGSWISSENSCHAFT
FAUST_1[2014-06]	47	3	32	3	3	1	1	1	1	1	1033	1	1	1	2749	4	1424	beanbagchair_17.bmp	windchime_3.bmp	windchime_16.bmp	beanbagchair_17.bmp	windchime_16.bmp	windchime_6.bmp	windchime_10.bmp	25	1	1	1	1	ERZIEHUNGSWISSENSCHAFT
FAUST_1[2014-06]	47	3	23	3	3	2	1	1	1	1	1711	2	2	1	2304	1	989	speaker_17.bmp	speaker_17.bmp	hairbrush_7.bmp	speaker_17.bmp	hairbrush_17.bmp	hairbrush_12.bmp	hairbrush_16.bmp	25	1	1	1	1	ERZIEHUNGSWISSENSCHAFT
FAUST_1[2014-06]	47	3	7	3	3	1	2	1	1	1	2752	2	1	0	2342	3	1613	babycrib_2.bmp	babycrib_5.bmp	babycrib_2.bmp	jacket_6.bmp	babycrib_9.bmp	babycrib_6.bmp	jacket_6.bmp	25	1	1	1	1	ERZIEHUNGSWISSENSCHAFT
FAUST_1[2014-06]	47	3	9	3	3	2	2	1	1	1	2090	2	2	1	2189	3	2231	sink_11.bmp	circuitboard_4.bmp	sink_1.bmp	sink_11.bmp	sink_15.bmp	sink_10.bmp	sink_11.bmp	25	1	1	1	1	ERZIEHUNGSWISSENSCHAFT
FAUST_1[2014-06]	47	3	27	3	3	1	1	2	2	1	1396	1	1	1	3291	3	1399	turtle_6.bmp	watergun_7.bmp	watergun_15.bmp	watergun_3.bmp	watergun_7.bmp	watergun_9.bmp	turtle_2.bmp	25	1	1	1	1	ERZIEHUNGSWISSENSCHAFT
FAUST_1[2014-06]	47	3	10	3	3	2	1	2	2	1	1126	2	2	1	2352	4	1786	abacus_4.bmp	mic_12.bmp	abacus_2.bmp	mic_10.bmp	mic_5.bmp	abacus_2.bmp	mic_3.bmp	25	1	1	1	1	ERZIEHUNGSWISSENSCHAFT
FAUST_1[2014-06]	47	3	15	3	3	1	2	2	2	1	1190	1	1	1	1780	3	1602	laptop_10.bmp	orifan_7.bmp	laptop_16.bmp	orifan_7.bmp	laptop_14.bmp	laptop_7.bmp	laptop_15.bmp	25	1	1	1	1	ERZIEHUNGSWISSENSCHAFT
FAUST_1[2014-06]	47	3	25	3	3	2	2	2	2	1	1478	2	2	1	2919	3	1777	cat_9.bmp	cat_1.bmp	cat_10.bmp	cat_4.bmp	cat_10.bmp	cat_5.bmp	iceskates_5.bmp	25	1	1	1	1	ERZIEHUNGSWISSENSCHAFT
FAUST_1[2014-06]	47	3	26	3	3	1	1	2	2	1	1315	2	2	1	2673	1	2353	wig_7.bmp	wig_6.bmp	pasta_15.bmp	pasta_13.bmp	pasta_15.bmp	pasta_11.bmp	pasta_9.bmp	25	1	1	1	1	ERZIEHUNGSWISSENSCHAFT
FAUST_1[2014-06]	47	3	24	3	3	2	1	2	1	0	2300	1	1	1	3126	2	1128	plant_8.bmp	shoe_15.bmp	shoe_9.bmp	plant_2.bmp	shoe_17.bmp	shoe_13.bmp	plant_2.bmp	25	1	1	1	1	ERZIEHUNGSWISSENSCHAFT
FAUST_1[2014-06]	47	3	18	3	3	1	2	2	2	1	1210	2	2	1	2762	3	1973	rollerskates_5.bmp	tv_8.bmp	rollerskates_7.bmp	tv_8.bmp	rollerskates_17.bmp	rollerskates_8.bmp	rollerskates_2.bmp	25	1	1	1	1	ERZIEHUNGSWISSENSCHAFT
FAUST_1[2014-06]	47	3	14	3	3	2	2	2	2	1	1518	2	1	0	2049	4	1504	saddle_4.bmp	saddle_15.bmp	saddle_5.bmp	skateboard_3.bmp	saddle_3.bmp	saddle_15.bmp	saddle_8.bmp	25	1	1	1	1	ERZIEHUNGSWISSENSCHAFT
FAUST_1[2014-06]	47	3	1	3	3	1	1	2	2	1	1308	2	2	1	1912	3	1148	highchair_15.bmp	highchair_3.bmp	backpack_13.bmp	backpack_10.bmp	backpack_12.bmp	backpack_13.bmp	backpack_16.bmp	25	1	1	1	1	ERZIEHUNGSWISSENSCHAFT
FAUST_1[2014-06]	47	3	8	3	3	2	1	2	2	1	1024	1	1	1	2425	4	1785	powerstrip_14.bmp	cellphone_4.bmp	powerstrip_10.bmp	cellphone_3.bmp	powerstrip_10.bmp	cellphone_8.bmp	cellphone_11.bmp	25	1	1	1	1	ERZIEHUNGSWISSENSCHAFT
FAUST_1[2014-06]	47	3	21	3	3	1	2	2	2	1	2502	2	1	0	1503	3	1497	tricycle_2.bmp	tricycle_15.bmp	camera_3.bmp	tricycle_10.bmp	tricycle_8.bmp	tricycle_5.bmp	camera_3.bmp	25	1	1	1	1	ERZIEHUNGSWISSENSCHAFT
FAUST_1[2014-06]	47	3	5	3	3	2	2	2	2	1	1520	2	2	1	2075	4	1251	chair_16.bmp	chair_3.bmp	lawnmower_8.bmp	chair_11.bmp	chair_5.bmp	chair_3.bmp	chair_2.bmp	25	1	1	1	1	ERZIEHUNGSWISSENSCHAFT
FAUST_1[2014-06]	47	3	16	3	3	1	1	3	2	1	987	2	1	0	2395	3	1344	router_7.bmp	glove_12.bmp	glove_8.bmp	shredder_15.bmp	glove_10.bmp	glove_5.bmp	glove_12.bmp	25	1	1	1	1	ERZIEHUNGSWISSENSCHAFT
FAUST_1[2014-06]	47	3	11	3	3	2	1	3	2	1	990	1	1	1	2413	4	1818	printer_5.bmp	watch_7.bmp	doorknob_14.bmp	watch_3.bmp	watch_8.bmp	watch_14.bmp	doorknob_14.bmp	25	1	1	1	1	ERZIEHUNGSWISSENSCHAFT
FAUST_1[2014-06]	47	3	29	3	3	1	1	3	2	1	1000	2	2	1	2601	4	1212	socks_4.bmp	garbagecan_10.bmp	hammer_15.bmp	garbagecan_13.bmp	garbagecan_8.bmp	garbagecan_2.bmp	garbagecan_13.bmp	25	1	1	1	1	ERZIEHUNGSWISSENSCHAFT
FAUST_1[2014-06]	47	3	6	3	3	2	1	3	2	1	1391	1	1	1	2562	4	1272	leatherman_10.bmp	saltpeppershake_12.bmp	flashlight_2.bmp	flashlight_12.bmp	flashlight_1.bmp	flashlight_17.bmp	saltpeppershake_12.bmp	25	1	1	1	1	ERZIEHUNGSWISSENSCHAFT
FAUST_1[2014-06]	47	3	22	3	3	1	1	3	2	1	933	1	1	1	2277	4	1722	parfait_4.bmp	ring_8.bmp	birdhouse_14.bmp	ring_12.bmp	ring_11.bmp	ring_7.bmp	ring_12.bmp	25	1	1	1	1	ERZIEHUNGSWISSENSCHAFT
FAUST_1[2014-06]	47	3	2	3	3	2	1	3	2	1	4165	1	1	1	1697	3	1512	cake_1.bmp	coffee_2.bmp	horseshoe_4.bmp	coffee_1.bmp	coffee_7.bmp	coffee_14.bmp	horseshoe_4.bmp	25	1	1	1	1	ERZIEHUNGSWISSENSCHAFT
FAUST_1[2014-06]	47	3	28	3	3	1	1	3	2	1	939	1	1	1	2022	4	1769	sofa_6.bmp	hairdryer_2.bmp	hairdryer_12.bmp	hairdryer_7.bmp	bowlingpin_1.bmp	hairdryer_14.bmp	hairdryer_2.bmp	25	1	1	1	1	ERZIEHUNGSWISSENSCHAFT
FAUST_1[2014-06]	47	3	20	3	3	2	1	3	2	1	1003	2	2	1	1814	4	1289	carabiner_9.bmp	fan_11.bmp	videogamecontroller_2.bmp	videogamecontroller_13.bmp	videogamecontroller_5.bmp	fan_11.bmp	videogamecontroller_11.bmp	25	1	1	1	1	ERZIEHUNGSWISSENSCHAFT
FAUST_1[2014-06]	47	4	13	3	1	1	1	1	2	0	1271	2	1	0	2432	4	1497	DÄMON	windpocken	mumps	grippe	röteln	dämon	mumps	25	1	1	1	1	ERZIEHUNGSWISSENSCHAFT
FAUST_1[2014-06]	47	4	31	3	1	2	1	1	1	1	918	2	2	1	3072	4	1502	NELKE	mobiltelefon	nelke	drucker	computer	nelke	kamera	25	1	1	1	1	ERZIEHUNGSWISSENSCHAFT
FAUST_1[2014-06]	47	4	32	3	1	1	2	1	2	0	1652	-1	1	0	0	2	1384	ÖSTERREICH	österreich	thymian	italien	thymian	england	dänemark	25	1	1	1	1	ERZIEHUNGSWISSENSCHAFT
FAUST_1[2014-06]	47	4	17	3	1	2	2	1	1	1	1257	2	1	0	2947	4	1356	BLEISTIFT	bleistift	buntstift	filzstift	bleistift	buche	kugelschreiber	25	1	1	1	1	ERZIEHUNGSWISSENSCHAFT
FAUST_1[2014-06]	47	4	5	3	1	1	1	1	2	0	1045	2	2	1	2229	4	1509	INTERNET	fußball	internet	golf	schwimmen	fußball	tennis	25	1	1	1	1	ERZIEHUNGSWISSENSCHAFT
FAUST_1[2014-06]	47	4	9	3	1	2	1	1	1	1	1326	2	1	0	2587	4	1233	DOLCH	dolch	lehrer	arzt	richter	dolch	polizist	25	1	1	1	1	ERZIEHUNGSWISSENSCHAFT
FAUST_1[2014-06]	47	4	28	3	1	1	2	1	1	1	1191	1	2	0	2416	4	1073	LIPPENSTIFT	rouge	kajal	lidschatten	jungfrau	lippenstift	jungfrau	25	1	1	1	1	ERZIEHUNGSWISSENSCHAFT
FAUST_1[2014-06]	47	4	4	3	1	2	2	1	2	0	1443	1	1	1	3069	4	1269	NÄHNADEL	nähnadel	stecknadel	häkelnadel	nähnadel	stricknadel	backgammon	25	1	1	1	1	ERZIEHUNGSWISSENSCHAFT
FAUST_1[2014-06]	47	4	18	3	1	1	1	1	2	0	1902	1	1	1	1788	2	1220	BRIEFÖFFNER	becher	kanne	flasche	glas	flasche	brieföffner	25	1	1	1	1	ERZIEHUNGSWISSENSCHAFT
FAUST_1[2014-06]	47	4	19	3	1	2	1	1	1	1	2032	2	2	1	2361	1	1563	BIENE	flöte	biene	oboe	biene	posaune	trompete	25	1	1	1	1	ERZIEHUNGSWISSENSCHAFT
FAUST_1[2014-06]	47	4	26	3	1	1	2	1	2	0	3260	1	1	1	2950	1	1593	MAGEN	magen	australien	lunge	australien	leber	herz	25	1	1	1	1	ERZIEHUNGSWISSENSCHAFT
FAUST_1[2014-06]	47	4	12	3	1	2	2	1	2	0	2187	1	1	1	1966	3	1567	RUMBA	chachacha	rumba	foxtrott	walzer	haschisch	rumba	25	1	1	1	1	ERZIEHUNGSWISSENSCHAFT
FAUST_1[2014-06]	47	4	21	3	1	1	1	2	2	1	1149	2	2	1	2909	3	1949	KÜCHENWAAGE	präposition	nudelholz	präposition	nomen	verb	adjektiv	25	1	1	1	1	ERZIEHUNGSWISSENSCHAFT
FAUST_1[2014-06]	47	4	6	3	1	2	1	2	2	1	1406	1	1	1	1354	4	1475	APFEL	erdbeere	gin	whiskey	wodka	tequila	erdbeere	25	1	1	1	1	ERZIEHUNGSWISSENSCHAFT
FAUST_1[2014-06]	47	4	11	3	1	1	2	2	1	0	3271	1	1	1	1761	1	1030	WEIZEN	sohn	gerste	sohn	roggen	hafer	dinkel	25	1	1	1	1	ERZIEHUNGSWISSENSCHAFT
FAUST_1[2014-06]	47	4	10	3	1	2	2	2	2	1	1826	2	1	0	1673	4	1319	BERUFSSCHULE	gesamtschule	gymnasium	realschule	gymnasium	hauptschule	blockhaus	25	1	1	1	1	ERZIEHUNGSWISSENSCHAFT
FAUST_1[2014-06]	47	4	22	3	1	1	1	2	2	1	890	2	2	1	1912	4	1383	ROCK	kapelle	synagoge	bluse	kirche	kapelle	moschee	25	1	1	1	1	ERZIEHUNGSWISSENSCHAFT
FAUST_1[2014-06]	47	4	7	3	1	2	1	2	2	1	1070	2	1	0	2609	4	986	THEATER	konzertsaal	lesen	zeichnen	malen	schreiben	konzertsaal	25	1	1	1	1	ERZIEHUNGSWISSENSCHAFT
FAUST_1[2014-06]	47	4	23	3	1	1	2	2	2	1	914	2	2	1	2838	4	1322	GUMMIBÄRCHEN	marzipan	graf	karamell	lakritz	graf	bonbons	25	1	1	1	1	ERZIEHUNGSWISSENSCHAFT
FAUST_1[2014-06]	47	4	15	3	1	2	2	2	2	1	1862	1	1	1	1998	2	1456	PUMA	tiger	panther	leopard	tiger	gepard	leinen	25	1	1	1	1	ERZIEHUNGSWISSENSCHAFT
FAUST_1[2014-06]	47	4	8	3	1	1	1	2	2	1	1030	2	2	1	2400	4	1267	VIVALDI	eisen	silber	gold	chopin	gold	messing	25	1	1	1	1	ERZIEHUNGSWISSENSCHAFT
FAUST_1[2014-06]	47	4	2	3	1	2	1	2	2	1	1269	-1	2	0	0	2	1538	PORSCHE	münchen	volvo	berlin	stuttgart	volvo	hannover	25	1	1	1	1	ERZIEHUNGSWISSENSCHAFT
FAUST_1[2014-06]	47	4	30	3	1	1	2	2	2	1	1132	2	1	0	3152	4	1972	GRÜN	blau	kopf	rot	kopf	lila	gelb	25	1	1	1	1	ERZIEHUNGSWISSENSCHAFT
FAUST_1[2014-06]	47	4	16	3	1	2	2	2	2	1	901	2	2	1	2260	4	1274	BOHNEN	blumenkohl	straßenbahn	tomaten	karotten	tomaten	spinat	25	1	1	1	1	ERZIEHUNGSWISSENSCHAFT
FAUST_1[2014-06]	47	4	29	3	1	1	1	3	2	1	949	1	2	0	3452	3	1456	HAMMER	viereck	benzin	kerosin	diesel	bleifrei	diesel	25	1	1	1	1	ERZIEHUNGSWISSENSCHAFT
FAUST_1[2014-06]	47	4	20	3	1	2	1	3	2	1	1216	2	2	1	2430	4	1041	STICKSTOFF	mathematik	lenkrad	mathematik	gaspedal	handbremse	kupplung	25	1	1	1	1	ERZIEHUNGSWISSENSCHAFT
FAUST_1[2014-06]	47	4	25	3	1	1	1	3	2	1	761	1	1	1	3327	2	1422	POMMES	schnee	regen	sonnenschein	schnee	brotmesser	nebel	25	1	1	1	1	ERZIEHUNGSWISSENSCHAFT
FAUST_1[2014-06]	47	4	24	3	1	2	1	3	2	1	1202	1	1	1	2405	2	1877	HERING	sachsen	mark	saarland	thüringen	brandenburg	mark	25	1	1	1	1	ERZIEHUNGSWISSENSCHAFT
FAUST_1[2014-06]	47	4	1	3	1	1	1	3	2	1	1424	1	2	0	2264	3	3469	SEHEN	horrorfilm	meise	amsel	taube	meise	fink	25	1	1	1	1	ERZIEHUNGSWISSENSCHAFT
FAUST_1[2014-06]	47	4	27	3	1	2	1	3	2	1	1515	2	1	0	1824	4	1103	SEKUNDE	tisch	sofa	regal	dackel	schrank	dackel	25	1	1	1	1	ERZIEHUNGSWISSENSCHAFT
FAUST_1[2014-06]	47	4	14	3	1	1	1	3	2	1	961	2	2	1	2214	4	1207	TRAUER	saturn	merkur	jupiter	millimeter	merkur	pluto	25	1	1	1	1	ERZIEHUNGSWISSENSCHAFT
FAUST_1[2014-06]	47	4	3	3	1	2	1	3	2	1	1429	2	1	0	2053	3	1824	TEICH	rhein	boot	yacht	rhein	kanu	fähre	25	1	1	1	1	ERZIEHUNGSWISSENSCHAFT
