experiment	subject	block	trial	order	material	repeated	related	probetype	response	correct	rt	math_response	math_correctresponse	math_correct	math_rt	confidence	confidence_rt	probe	item1	item2	item3	item4	item5	item6	age	sex	handedness	color_vision	mother_tongue	occupation
FAUST_1[2014-06]	48	1	1	4	2	1	1	1	1	1	2278	1	2	0	2577	4	5728	Bun17.bmp	Varnish14.bmp	Bun17.bmp	Varnish17.bmp	Varnish3.bmp	Varnish11.bmp	Varnish3.bmp	21	1	1	1	1	LEHRAMT
FAUST_1[2014-06]	48	1	21	4	2	2	1	1	1	1	2013	2	2	1	2377	3	1857	Umbrella17.bmp	Keys7.bmp	Umbrella17.bmp	Keys6.bmp	Umbrella17.bmp	Keys9.bmp	Keys8.bmp	21	1	1	1	1	LEHRAMT
FAUST_1[2014-06]	48	1	7	4	2	1	2	1	1	1	1805	1	1	1	2575	4	3563	Flower17.bmp	Scissors14.bmp	Flower17.bmp	Flower3.bmp	Flower18.bmp	Flower14.bmp	Scissors14.bmp	21	1	1	1	1	LEHRAMT
FAUST_1[2014-06]	48	1	10	4	2	2	2	1	1	1	2075	2	2	1	2674	3	2700	Onion7.bmp	Plug6.bmp	Onion7.bmp	Onion13.bmp	Onion14.bmp	Onion7.bmp	Onion18.bmp	21	1	1	1	1	LEHRAMT
FAUST_1[2014-06]	48	1	6	4	2	1	1	1	2	0	2441	2	2	1	2788	4	4309	Nut21.bmp	Nut21.bmp	Star17.bmp	Star1.bmp	Star2.bmp	Star7.bmp	Star1.bmp	21	1	1	1	1	LEHRAMT
FAUST_1[2014-06]	48	1	13	4	2	2	1	1	1	1	1634	2	1	0	2956	3	2317	Shell1.bmp	Shell1.bmp	Cake18.bmp	Cake25.bmp	Cake24.bmp	Cake16.bmp	Shell1.bmp	21	1	1	1	1	LEHRAMT
FAUST_1[2014-06]	48	1	8	4	2	1	2	1	1	1	1809	1	2	0	3245	3	7285	Swirl10.bmp	Apple18.bmp	Swirl13.bmp	Swirl10.bmp	Swirl23.bmp	Apple18.bmp	Swirl5.bmp	21	1	1	1	1	LEHRAMT
FAUST_1[2014-06]	48	1	15	4	2	2	2	1	1	1	1899	2	1	0	2869	4	2543	Chocolate24.bmp	Chocolate17.bmp	Chocolate24.bmp	Chocolate6.bmp	Chocolate5.bmp	Mushroom7.bmp	Chocolate24.bmp	21	1	1	1	1	LEHRAMT
FAUST_1[2014-06]	48	1	4	4	2	1	1	2	1	0	3541	2	2	1	2787	2	2832	Key5.bmp	Candle1.bmp	Candle17.bmp	Candle10.bmp	Candle17.bmp	Candle13.bmp	Key11.bmp	21	1	1	1	1	LEHRAMT
FAUST_1[2014-06]	48	1	3	4	2	2	1	2	1	0	2392	1	1	1	2860	4	2612	Feather2.bmp	Tomato5.bmp	Feather14.bmp	Tomato3.bmp	Feather14.bmp	Tomato18.bmp	Tomato2.bmp	21	1	1	1	1	LEHRAMT
FAUST_1[2014-06]	48	1	5	4	2	1	2	2	2	1	4721	-1	2	0	0	2	3976	Ginger10.bmp	Ginger3.bmp	Biscuit9.bmp	Ginger17.bmp	Biscuit9.bmp	Ginger15.bmp	Ginger5.bmp	21	1	1	1	1	LEHRAMT
FAUST_1[2014-06]	48	1	18	4	2	2	2	2	1	0	3409	2	2	1	2294	2	2071	Car13.bmp	Car12.bmp	Car21.bmp	Car14.bmp	Car7.bmp	Car12.bmp	Fudge20.bmp	21	1	1	1	1	LEHRAMT
FAUST_1[2014-06]	48	1	9	4	2	1	1	2	1	0	4084	2	1	0	2295	2	2522	Stapler7.bmp	Present14.bmp	Stapler6.bmp	Present9.bmp	Present3.bmp	Present17.bmp	Present14.bmp	21	1	1	1	1	LEHRAMT
FAUST_1[2014-06]	48	1	17	4	2	2	1	2	2	1	2086	1	1	1	2313	3	1562	Chilli22.bmp	Chilli12.bmp	Paperclip9.bmp	Paperclip13.bmp	Paperclip6.bmp	Paperclip14.bmp	Chilli12.bmp	21	1	1	1	1	LEHRAMT
FAUST_1[2014-06]	48	1	19	4	2	1	2	2	1	0	1467	2	2	1	2327	1	1778	Coins10.bmp	Coins8.bmp	Coins3.bmp	String2.bmp	Coins12.bmp	Coins14.bmp	String2.bmp	21	1	1	1	1	LEHRAMT
FAUST_1[2014-06]	48	1	14	4	2	2	2	2	1	0	1747	2	2	1	2880	2	2577	Brocolli4.bmp	Brocolli9.bmp	Brocolli14.bmp	Hand1.bmp	Brocolli19.bmp	Brocolli14.bmp	Brocolli10.bmp	21	1	1	1	1	LEHRAMT
FAUST_1[2014-06]	48	1	12	4	2	1	1	3	2	1	1763	2	1	0	2785	3	2586	Bracelet1.bmp	Glass4.bmp	Glass19.bmp	Glass16.bmp	Toothbrush1.bmp	Glass4.bmp	Glass3.bmp	21	1	1	1	1	LEHRAMT
FAUST_1[2014-06]	48	1	22	4	2	2	1	3	2	1	2822	1	1	1	1799	2	2625	Pear4.bmp	Sweet18.bmp	Holly17.bmp	Sweet18.bmp	Holly14.bmp	Holly3.bmp	Holly11.bmp	21	1	1	1	1	LEHRAMT
FAUST_1[2014-06]	48	1	16	4	2	1	1	3	2	1	3786	1	1	1	2219	3	1600	Hanger7.bmp	Man24.bmp	Man15.bmp	Man2.bmp	Man4.bmp	Daff22.bmp	Man15.bmp	21	1	1	1	1	LEHRAMT
FAUST_1[2014-06]	48	1	11	4	2	2	1	3	2	1	2873	2	2	1	3273	4	2256	Screw10.bmp	Fork14.bmp	Lipstick15.bmp	Fork9.bmp	Lipstick15.bmp	Fork8.bmp	Fork17.bmp	21	1	1	1	1	LEHRAMT
FAUST_1[2014-06]	48	1	20	4	2	1	1	3	2	1	1401	1	1	1	3093	1	2607	Strawberry21.bmp	Pen20.bmp	Pen5.bmp	Pen10.bmp	Pen1.bmp	Button20.bmp	Pen10.bmp	21	1	1	1	1	LEHRAMT
FAUST_1[2014-06]	48	1	2	4	2	2	1	3	2	1	2134	1	2	0	2656	2	4747	Leaf21.bmp	Bag5.bmp	Bag3.bmp	Bag21.bmp	Jigsaw11.bmp	Bag25.bmp	Jigsaw11.bmp	21	1	1	1	1	LEHRAMT
FAUST_1[2014-06]	48	2	29	4	1	1	1	1	1	1	1456	1	1	1	3111	3	1534	BASTELN	biologie	chemie	biologie	basteln	physik	erdkunde	21	1	1	1	1	LEHRAMT
FAUST_1[2014-06]	48	2	11	4	1	2	1	1	1	1	1589	1	2	0	2170	3	2167	LEBER	rosmarin	thymian	leber	koriander	leber	majoran	21	1	1	1	1	LEHRAMT
FAUST_1[2014-06]	48	2	12	4	1	1	2	1	1	1	1414	1	1	1	2560	3	1642	EICHE	eiche	mercedes	birke	mercedes	buche	tanne	21	1	1	1	1	LEHRAMT
FAUST_1[2014-06]	48	2	30	4	1	2	2	1	1	1	1352	1	2	0	2914	3	790	HAGEL	zombie	hagel	nebel	sonnenschein	hagel	schnee	21	1	1	1	1	LEHRAMT
FAUST_1[2014-06]	48	2	13	4	1	1	1	1	2	0	1388	1	1	1	2666	3	1467	TROMPETE	brahms	trompete	beethoven	mozart	brahms	chopin	21	1	1	1	1	LEHRAMT
FAUST_1[2014-06]	48	2	27	4	1	2	1	1	1	1	1935	1	1	1	1582	4	1392	KAPELLE	kapelle	stecknadel	sicherheitsnadel	stricknadel	häkelnadel	kapelle	21	1	1	1	1	LEHRAMT
FAUST_1[2014-06]	48	2	31	4	1	1	2	1	1	1	1622	1	1	1	2905	4	1493	PANTHER	kamera	gepard	leopard	puma	panther	kamera	21	1	1	1	1	LEHRAMT
FAUST_1[2014-06]	48	2	20	4	1	2	2	1	1	1	1981	1	1	1	2106	4	1047	DOGGE	dogge	dackel	terrier	dogge	lilie	mops	21	1	1	1	1	LEHRAMT
FAUST_1[2014-06]	48	2	4	4	1	1	1	1	1	1	1318	2	2	1	2682	4	1480	HUMMEL	hummel	arzt	pfarrer	polizist	pfarrer	richter	21	1	1	1	1	LEHRAMT
FAUST_1[2014-06]	48	2	19	4	1	2	1	1	1	1	1770	2	2	1	1917	4	2667	LOCHER	afrika	nordamerika	australien	locher	asien	locher	21	1	1	1	1	LEHRAMT
FAUST_1[2014-06]	48	2	21	4	1	1	2	1	1	1	1475	1	1	1	1891	3	1004	ONKEL	apfel	mutter	tochter	apfel	onkel	vater	21	1	1	1	1	LEHRAMT
FAUST_1[2014-06]	48	2	26	4	1	2	2	1	1	1	1507	1	1	1	2872	3	1589	KILOMETER	kilometer	backform	meile	millimeter	zentimeter	kilometer	21	1	1	1	1	LEHRAMT
FAUST_1[2014-06]	48	2	1	4	1	1	1	2	2	1	1317	1	2	0	2492	3	2163	GYMNASIUM	adjektiv	realschule	nomen	präposition	nomen	adverb	21	1	1	1	1	LEHRAMT
FAUST_1[2014-06]	48	2	10	4	1	2	1	2	1	0	1755	2	2	1	1797	1	2475	ROCK	bluse	schwert	gewehr	pistole	bluse	bombe	21	1	1	1	1	LEHRAMT
FAUST_1[2014-06]	48	2	2	4	1	1	2	2	2	1	1303	2	2	1	2532	4	1523	ZUG	straßenbahn	bus	heroin	fahrrad	taxi	heroin	21	1	1	1	1	LEHRAMT
FAUST_1[2014-06]	48	2	24	4	1	2	2	2	2	1	1592	2	2	1	1778	3	1343	MASERN	röteln	grippe	windpocken	mumps	blockhaus	röteln	21	1	1	1	1	LEHRAMT
FAUST_1[2014-06]	48	2	16	4	1	1	1	2	2	1	1099	2	2	1	2445	3	1390	WASSERMANN	amsel	schwalbe	meise	taube	schwalbe	steinbock	21	1	1	1	1	LEHRAMT
FAUST_1[2014-06]	48	2	22	4	1	2	1	2	2	1	1365	2	2	1	1960	3	1456	BROTMESSER	kugelschreiber	löffel	buntstift	bleistift	löffel	filzstift	21	1	1	1	1	LEHRAMT
FAUST_1[2014-06]	48	2	7	4	1	1	2	2	2	1	1722	2	1	0	2043	3	1209	KREIS	quadrat	silber	dreieck	rechteck	silber	viereck	21	1	1	1	1	LEHRAMT
FAUST_1[2014-06]	48	2	14	4	1	2	2	2	1	0	1387	1	1	1	2083	3	3365	BENZIN	bleifrei	petroleum	diesel	döner	diesel	kerosin	21	1	1	1	1	LEHRAMT
FAUST_1[2014-06]	48	2	32	4	1	1	1	2	2	1	1991	1	1	1	2931	4	1637	MEIßEL	main	donau	bohrer	elbe	main	weser	21	1	1	1	1	LEHRAMT
FAUST_1[2014-06]	48	2	17	4	1	2	1	2	2	1	2669	2	2	1	1266	3	1187	FÜRST	chachacha	rumba	könig	tango	foxtrott	könig	21	1	1	1	1	LEHRAMT
FAUST_1[2014-06]	48	2	15	4	1	1	2	2	2	1	1581	2	1	0	2110	1	3285	RADIO	zeitung	internet	gummibärchen	buch	fernsehen	gummibärchen	21	1	1	1	1	LEHRAMT
FAUST_1[2014-06]	48	2	6	4	1	2	2	2	2	1	3181	1	1	1	2342	4	1581	MONOPOLY	backgammon	halma	schach	lila	halma	scrabble	21	1	1	1	1	LEHRAMT
FAUST_1[2014-06]	48	2	23	4	1	1	1	3	2	1	1277	2	1	0	3091	3	1240	STUTTGART	theater	stickstoff	wasserstoff	kohlenstoff	stickstoff	sauerstoff	21	1	1	1	1	LEHRAMT
FAUST_1[2014-06]	48	2	18	4	1	2	1	3	2	1	1351	1	2	0	2763	3	1171	SEE	schmecken	karotten	tomaten	bohnen	schmecken	blumenkohl	21	1	1	1	1	LEHRAMT
FAUST_1[2014-06]	48	2	3	4	1	1	1	3	2	1	1063	2	2	1	3051	3	1122	TAG	schiff	kanu	schiff	lenkrad	fähre	yacht	21	1	1	1	1	LEHRAMT
FAUST_1[2014-06]	48	2	25	4	1	2	1	3	2	1	1446	2	1	0	2937	3	1181	MAKRELE	sachsen	euro	brandenburg	thüringen	euro	hessen	21	1	1	1	1	LEHRAMT
FAUST_1[2014-06]	48	2	9	4	1	1	1	3	2	1	1584	2	2	1	3173	4	1227	ARM	tennis	schwimmen	golf	schwimmen	fußball	italien	21	1	1	1	1	LEHRAMT
FAUST_1[2014-06]	48	2	28	4	1	2	1	3	2	1	1376	2	1	0	2537	4	1356	ROUGE	karaffe	kanne	western	glas	western	becher	21	1	1	1	1	LEHRAMT
FAUST_1[2014-06]	48	2	5	4	1	1	1	3	2	1	1391	2	2	1	2959	3	2646	WOLLE	tisch	stuhl	schrank	sofa	tisch	saturn	21	1	1	1	1	LEHRAMT
FAUST_1[2014-06]	48	2	8	4	1	2	1	3	2	1	1101	2	2	1	2279	3	2108	WHISKEY	roggen	ärger	gerste	ärger	weizen	hafer	21	1	1	1	1	LEHRAMT
FAUST_1[2014-06]	48	3	1	4	3	1	1	1	1	1	1247	1	1	1	1684	4	1726	cat_10.bmp	mic_3.bmp	mic_2.bmp	mic_12.bmp	mic_2.bmp	mic_10.bmp	cat_10.bmp	21	1	1	1	1	LEHRAMT
FAUST_1[2014-06]	48	3	10	4	3	2	1	1	1	1	1283	1	2	0	3119	3	2718	orifan_1.bmp	orifan_1.bmp	socks_4.bmp	socks_15.bmp	orifan_1.bmp	socks_12.bmp	socks_10.bmp	21	1	1	1	1	LEHRAMT
FAUST_1[2014-06]	48	3	5	4	3	1	2	1	1	1	2452	1	2	0	2759	3	1640	parfait_11.bmp	parfait_4.bmp	remote_2.bmp	parfait_13.bmp	remote_2.bmp	parfait_11.bmp	parfait_1.bmp	21	1	1	1	1	LEHRAMT
FAUST_1[2014-06]	48	3	16	4	3	2	2	1	1	1	1131	1	2	0	2548	4	887	watch_7.bmp	watch_7.bmp	glove_10.bmp	watch_3.bmp	watch_7.bmp	watch_8.bmp	watch_6.bmp	21	1	1	1	1	LEHRAMT
FAUST_1[2014-06]	48	3	19	4	3	1	1	1	2	0	1632	2	2	1	1916	3	1492	iceskates_16.bmp	watergun_9.bmp	watergun_7.bmp	watergun_15.bmp	iceskates_16.bmp	watergun_7.bmp	watergun_3.bmp	21	1	1	1	1	LEHRAMT
FAUST_1[2014-06]	48	3	31	4	3	2	1	1	1	1	1120	2	2	1	1900	3	1001	doorknob_17.bmp	doorknob_17.bmp	trumpet_3.bmp	trumpet_17.bmp	trumpet_1.bmp	doorknob_17.bmp	trumpet_5.bmp	21	1	1	1	1	LEHRAMT
FAUST_1[2014-06]	48	3	7	4	3	1	2	1	1	1	1521	1	1	1	3235	4	1198	wig_7.bmp	shredder_5.bmp	wig_1.bmp	wig_12.bmp	wig_6.bmp	shredder_5.bmp	wig_7.bmp	21	1	1	1	1	LEHRAMT
FAUST_1[2014-06]	48	3	18	4	3	2	2	1	1	1	1227	1	1	1	2017	4	1419	cheesegrater_5.bmp	cheesegrater_5.bmp	cheesegrater_11.bmp	doorknocker_2.bmp	cheesegrater_14.bmp	cheesegrater_5.bmp	cheesegrater_15.bmp	21	1	1	1	1	LEHRAMT
FAUST_1[2014-06]	48	3	12	4	3	1	1	1	1	1	1346	1	1	1	3076	3	933	saltpeppershake_9.bmp	garbagecan_10.bmp	garbagecan_13.bmp	saltpeppershake_9.bmp	garbagecan_2.bmp	garbagecan_13.bmp	garbagecan_17.bmp	21	1	1	1	1	LEHRAMT
FAUST_1[2014-06]	48	3	29	4	3	2	1	1	1	1	1178	2	2	1	3112	4	879	easteregg_14.bmp	easteregg_14.bmp	guitar_8.bmp	guitar_7.bmp	guitar_5.bmp	easteregg_14.bmp	guitar_14.bmp	21	1	1	1	1	LEHRAMT
FAUST_1[2014-06]	48	3	8	4	3	1	2	1	2	0	1104	2	1	0	3212	1	2731	birdhouse_14.bmp	birdhouse_11.bmp	skateboard_16.bmp	birdhouse_9.bmp	birdhouse_14.bmp	skateboard_16.bmp	birdhouse_6.bmp	21	1	1	1	1	LEHRAMT
FAUST_1[2014-06]	48	3	20	4	3	2	2	1	1	1	1341	2	2	1	2723	4	896	windchime_16.bmp	windchime_15.bmp	windchime_16.bmp	windchime_3.bmp	plant_5.bmp	windchime_10.bmp	windchime_16.bmp	21	1	1	1	1	LEHRAMT
FAUST_1[2014-06]	48	3	21	4	3	1	1	2	1	0	1352	2	2	1	2519	1	1771	sofa_13.bmp	carabiner_9.bmp	carabiner_2.bmp	carabiner_7.bmp	carabiner_2.bmp	carabiner_6.bmp	sofa_9.bmp	21	1	1	1	1	LEHRAMT
FAUST_1[2014-06]	48	3	30	4	3	2	1	2	2	1	1668	2	2	1	2927	3	911	trophy_14.bmp	cellphone_8.bmp	cellphone_11.bmp	trophy_15.bmp	cellphone_3.bmp	trophy_15.bmp	cellphone_4.bmp	21	1	1	1	1	LEHRAMT
FAUST_1[2014-06]	48	3	2	4	3	1	2	2	2	1	1655	1	1	1	2290	2	3561	beanbagchair_3.bmp	circuitboard_13.bmp	beanbagchair_12.bmp	beanbagchair_14.bmp	beanbagchair_15.bmp	circuitboard_13.bmp	beanbagchair_17.bmp	21	1	1	1	1	LEHRAMT
FAUST_1[2014-06]	48	3	32	4	3	2	2	2	2	1	1281	1	1	1	2846	2	1743	backpack_10.bmp	backpack_12.bmp	videogamecontroller_3.bmp	backpack_13.bmp	backpack_16.bmp	backpack_6.bmp	backpack_12.bmp	21	1	1	1	1	LEHRAMT
FAUST_1[2014-06]	48	3	25	4	3	1	1	2	1	0	2909	2	2	1	2800	3	1740	rusdoll_1.bmp	horseshoe_5.bmp	horseshoe_12.bmp	horseshoe_4.bmp	horseshoe_12.bmp	rusdoll_5.bmp	horseshoe_3.bmp	21	1	1	1	1	LEHRAMT
FAUST_1[2014-06]	48	3	3	4	3	2	1	2	2	1	1877	2	2	1	2711	4	2493	speaker_15.bmp	speaker_6.bmp	highchair_10.bmp	highchair_3.bmp	highchair_6.bmp	highchair_4.bmp	speaker_6.bmp	21	1	1	1	1	LEHRAMT
FAUST_1[2014-06]	48	3	27	4	3	1	2	2	2	1	1301	1	1	1	2231	3	1476	tricycle_10.bmp	tricycle_15.bmp	tricycle_5.bmp	scooter_4.bmp	tricycle_2.bmp	scooter_4.bmp	tricycle_8.bmp	21	1	1	1	1	LEHRAMT
FAUST_1[2014-06]	48	3	4	4	3	2	2	2	1	0	1553	2	1	0	2810	3	1538	bagel_10.bmp	bagel_4.bmp	hairdryer_7.bmp	bagel_12.bmp	bagel_4.bmp	bagel_16.bmp	bagel_14.bmp	21	1	1	1	1	LEHRAMT
FAUST_1[2014-06]	48	3	13	4	3	1	1	2	1	0	1823	2	1	0	2966	2	1234	hairbrush_15.bmp	flashlight_12.bmp	hairbrush_17.bmp	flashlight_1.bmp	flashlight_17.bmp	flashlight_2.bmp	flashlight_1.bmp	21	1	1	1	1	LEHRAMT
FAUST_1[2014-06]	48	3	6	4	3	2	1	2	2	1	1807	1	2	0	2892	4	1822	tv_16.bmp	tv_7.bmp	vase_15.bmp	vase_6.bmp	vase_1.bmp	tv_7.bmp	vase_5.bmp	21	1	1	1	1	LEHRAMT
FAUST_1[2014-06]	48	3	26	4	3	1	2	2	1	0	1220	2	1	0	3475	3	690	cake_3.bmp	cake_4.bmp	cake_1.bmp	printer_1.bmp	cake_14.bmp	printer_1.bmp	cake_5.bmp	21	1	1	1	1	LEHRAMT
FAUST_1[2014-06]	48	3	23	4	3	2	2	2	1	0	1253	1	1	1	2653	4	781	glasses_13.bmp	glasses_15.bmp	cherubstatue_10.bmp	glasses_6.bmp	glasses_9.bmp	glasses_15.bmp	glasses_8.bmp	21	1	1	1	1	LEHRAMT
FAUST_1[2014-06]	48	3	15	4	3	1	1	3	2	1	982	2	2	1	2940	4	983	lawnmower_17.bmp	chair_2.bmp	chair_11.bmp	chair_16.bmp	chair_3.bmp	carriage_9.bmp	chair_16.bmp	21	1	1	1	1	LEHRAMT
FAUST_1[2014-06]	48	3	22	4	3	2	1	3	2	1	896	2	2	1	2914	4	1154	jacket_10.bmp	pasta_10.bmp	pasta_13.bmp	shoe_15.bmp	pasta_11.bmp	shoe_15.bmp	pasta_9.bmp	21	1	1	1	1	LEHRAMT
FAUST_1[2014-06]	48	3	14	4	3	1	1	3	2	1	1604	1	1	1	2697	4	1577	trunk_7.bmp	sink_11.bmp	sink_1.bmp	sink_11.bmp	sink_15.bmp	abacus_7.bmp	sink_6.bmp	21	1	1	1	1	LEHRAMT
FAUST_1[2014-06]	48	3	24	4	3	2	1	3	2	1	1318	1	1	1	2535	4	1035	router_5.bmp	goggle_4.bmp	coffee_2.bmp	coffee_14.bmp	coffee_15.bmp	goggle_4.bmp	coffee_7.bmp	21	1	1	1	1	LEHRAMT
FAUST_1[2014-06]	48	3	28	4	3	1	1	3	2	1	922	1	1	1	3311	4	570	rollerskates_2.bmp	fan_15.bmp	fan_1.bmp	fan_10.bmp	fan_11.bmp	fan_1.bmp	laptop_15.bmp	21	1	1	1	1	LEHRAMT
FAUST_1[2014-06]	48	3	9	4	3	2	1	3	2	1	942	1	1	1	3178	4	1504	ring_11.bmp	turtle_6.bmp	powerstrip_7.bmp	turtle_2.bmp	powerstrip_7.bmp	turtle_11.bmp	turtle_7.bmp	21	1	1	1	1	LEHRAMT
FAUST_1[2014-06]	48	3	17	4	3	1	1	3	2	1	972	2	2	1	3064	4	1193	leatherman_14.bmp	saddle_4.bmp	bowlingpin_1.bmp	bowlingpin_11.bmp	bowlingpin_3.bmp	bowlingpin_11.bmp	bowlingpin_4.bmp	21	1	1	1	1	LEHRAMT
FAUST_1[2014-06]	48	3	11	4	3	2	1	3	2	1	1879	1	1	1	2299	4	2078	babycrib_9.bmp	hammer_8.bmp	camera_9.bmp	camera_4.bmp	camera_7.bmp	camera_6.bmp	hammer_8.bmp	21	1	1	1	1	LEHRAMT
FAUST_1[2014-06]	48	2	4	4	2	1	1	1	1	1	1449	1	1	1	2410	4	1081	Leaf13.bmp	Present14.bmp	Present9.bmp	Present17.bmp	Present9.bmp	Leaf13.bmp	Present2.bmp	21	1	1	1	1	LEHRAMT
FAUST_1[2014-06]	48	2	20	4	2	2	1	1	1	1	1051	1	1	1	1729	3	773	Biscuit25.bmp	Biscuit25.bmp	Toothbrush6.bmp	Toothbrush1.bmp	Toothbrush12.bmp	Biscuit25.bmp	Toothbrush10.bmp	21	1	1	1	1	LEHRAMT
FAUST_1[2014-06]	48	2	14	4	2	1	2	1	1	1	1039	1	1	1	2166	3	960	Chilli14.bmp	Onion7.bmp	Chilli22.bmp	Chilli12.bmp	Onion7.bmp	Chilli19.bmp	Chilli14.bmp	21	1	1	1	1	LEHRAMT
FAUST_1[2014-06]	48	2	22	4	2	2	2	1	1	1	1135	1	1	1	1769	3	1024	Sweet1.bmp	Sweet10.bmp	Sweet1.bmp	Sweet22.bmp	Bun5.bmp	Sweet25.bmp	Sweet1.bmp	21	1	1	1	1	LEHRAMT
FAUST_1[2014-06]	48	2	10	4	2	1	1	1	1	1	1273	2	1	0	2963	3	811	Umbrella17.bmp	Candle1.bmp	Candle17.bmp	Candle20.bmp	Umbrella17.bmp	Candle20.bmp	Candle13.bmp	21	1	1	1	1	LEHRAMT
FAUST_1[2014-06]	48	2	8	4	2	2	1	1	1	1	3447	2	2	1	1565	2	1788	Car12.bmp	Ginger3.bmp	Car12.bmp	Ginger10.bmp	Car12.bmp	Ginger5.bmp	Ginger15.bmp	21	1	1	1	1	LEHRAMT
FAUST_1[2014-06]	48	2	7	4	2	1	2	1	2	0	1192	2	2	1	1964	2	1424	Mushroom14.bmp	Bag5.bmp	Mushroom18.bmp	Mushroom14.bmp	Bag5.bmp	Mushroom7.bmp	Mushroom25.bmp	21	1	1	1	1	LEHRAMT
FAUST_1[2014-06]	48	2	9	4	2	2	2	1	1	1	1292	2	2	1	2011	4	893	Glass16.bmp	Glass4.bmp	Glass16.bmp	Varnish11.bmp	Glass16.bmp	Glass19.bmp	Glass3.bmp	21	1	1	1	1	LEHRAMT
FAUST_1[2014-06]	48	2	3	4	2	1	1	2	1	0	1603	2	2	1	2799	3	1823	Keys7.bmp	Swirl23.bmp	Swirl13.bmp	Swirl5.bmp	Keys8.bmp	Swirl5.bmp	Swirl1.bmp	21	1	1	1	1	LEHRAMT
FAUST_1[2014-06]	48	2	1	4	2	2	1	2	1	0	2500	1	1	1	2588	3	2448	Bracelet5.bmp	Bracelet2.bmp	Lipstick15.bmp	Lipstick2.bmp	Lipstick7.bmp	Lipstick3.bmp	Bracelet2.bmp	21	1	1	1	1	LEHRAMT
FAUST_1[2014-06]	48	2	16	4	2	1	2	2	2	1	899	1	2	0	3469	1	1620	Strawberry4.bmp	Strawberry14.bmp	Star7.bmp	Strawberry3.bmp	Strawberry18.bmp	Star7.bmp	Strawberry21.bmp	21	1	1	1	1	LEHRAMT
FAUST_1[2014-06]	48	2	12	4	2	2	2	2	1	0	992	2	2	1	2933	3	1996	Stapler6.bmp	Stapler10.bmp	Stapler9.bmp	Stapler8.bmp	Stapler9.bmp	Tomato12.bmp	Stapler7.bmp	21	1	1	1	1	LEHRAMT
FAUST_1[2014-06]	48	2	19	4	2	1	1	2	2	1	2355	1	1	1	2273	3	1553	Pen10.bmp	Hanger2.bmp	Pen5.bmp	Hanger7.bmp	Hanger2.bmp	Hanger14.bmp	Hanger15.bmp	21	1	1	1	1	LEHRAMT
FAUST_1[2014-06]	48	2	17	4	2	2	1	2	1	0	1043	2	2	1	2671	4	959	String8.bmp	Flower17.bmp	Flower14.bmp	Flower3.bmp	String9.bmp	Flower13.bmp	String9.bmp	21	1	1	1	1	LEHRAMT
FAUST_1[2014-06]	48	2	13	4	2	1	2	2	2	1	1265	1	1	1	3410	3	1026	Chocolate9.bmp	Paperclip14.bmp	Chocolate6.bmp	Chocolate24.bmp	Chocolate5.bmp	Chocolate17.bmp	Paperclip14.bmp	21	1	1	1	1	LEHRAMT
FAUST_1[2014-06]	48	2	2	4	2	2	2	2	2	1	1694	2	2	1	3207	2	1973	Coins12.bmp	Coins14.bmp	Coins10.bmp	Coins8.bmp	Brocolli10.bmp	Coins3.bmp	Coins14.bmp	21	1	1	1	1	LEHRAMT
FAUST_1[2014-06]	48	2	21	4	2	1	1	3	2	1	850	1	1	1	1970	4	1224	Man2.bmp	Screw16.bmp	Screw13.bmp	Screw18.bmp	Holly3.bmp	Screw16.bmp	Screw10.bmp	21	1	1	1	1	LEHRAMT
FAUST_1[2014-06]	48	2	5	4	2	2	1	3	1	0	1488	1	1	1	2638	3	629	Jigsaw11.bmp	Button10.bmp	Button3.bmp	Nut11.bmp	Button20.bmp	Button14.bmp	Nut11.bmp	21	1	1	1	1	LEHRAMT
FAUST_1[2014-06]	48	2	11	4	2	1	1	3	2	1	1162	1	1	1	2964	4	1223	Pear18.bmp	Daff1.bmp	Daff22.bmp	Cake18.bmp	Daff1.bmp	Daff9.bmp	Daff21.bmp	21	1	1	1	1	LEHRAMT
FAUST_1[2014-06]	48	2	15	4	2	2	1	3	2	1	1175	2	2	1	1532	2	1349	Shell5.bmp	Apple24.bmp	Scissors23.bmp	Scissors14.bmp	Apple24.bmp	Scissors3.bmp	Scissors11.bmp	21	1	1	1	1	LEHRAMT
FAUST_1[2014-06]	48	2	18	4	2	1	1	3	2	1	1109	2	2	1	3423	4	1087	Plug6.bmp	Key20.bmp	Key13.bmp	Key9.bmp	Key11.bmp	Fork7.bmp	Key11.bmp	21	1	1	1	1	LEHRAMT
FAUST_1[2014-06]	48	2	6	4	2	2	1	3	2	1	1361	2	2	1	3265	4	1411	Hand10.bmp	Feather18.bmp	Feather12.bmp	Fudge17.bmp	Feather14.bmp	Fudge17.bmp	Feather11.bmp	21	1	1	1	1	LEHRAMT
FAUST_1[2014-06]	48	3	27	4	1	1	1	1	2	0	723	2	2	1	2848	3	687	KLEBEBAND	kaiser	fürst	herzog	klebeband	graf	fürst	21	1	1	1	1	LEHRAMT
FAUST_1[2014-06]	48	3	15	4	1	2	1	1	1	1	1278	1	1	1	1593	4	1386	HELIUM	chemie	mathematik	helium	biologie	erdkunde	helium	21	1	1	1	1	LEHRAMT
FAUST_1[2014-06]	48	3	13	4	1	1	2	1	1	1	1331	2	1	0	2468	1	1151	BOHNEN	yacht	karotten	spinat	yacht	bohnen	tomaten	21	1	1	1	1	LEHRAMT
FAUST_1[2014-06]	48	3	18	4	1	2	2	1	2	0	1038	1	2	0	2742	4	1060	HERZ	herz	leber	lunge	herz	magen	bonbons	21	1	1	1	1	LEHRAMT
FAUST_1[2014-06]	48	3	10	4	1	1	1	1	2	0	945	1	1	1	2668	3	1170	SÜDAMERIKA	lehrer	polizist	pfarrer	arzt	pfarrer	südamerika	21	1	1	1	1	LEHRAMT
FAUST_1[2014-06]	48	3	14	4	1	2	1	1	2	0	1198	-1	2	0	0	4	1557	NEBEL	rosmarin	thymian	nebel	koriander	majoran	nebel	21	1	1	1	1	LEHRAMT
FAUST_1[2014-06]	48	3	8	4	1	1	2	1	1	1	1254	2	2	1	2268	4	901	ZENTIMETER	kilometer	millimeter	peugeot	meter	peugeot	zentimeter	21	1	1	1	1	LEHRAMT
FAUST_1[2014-06]	48	3	25	4	1	2	2	1	1	1	1133	2	2	1	3370	3	2521	BOHRER	bohrer	eiche	säge	bohrer	meißel	zange	21	1	1	1	1	LEHRAMT
FAUST_1[2014-06]	48	3	4	4	1	1	1	1	1	1	1385	1	2	0	3198	3	887	SCHEUNE	scheune	fahrrad	zug	taxi	zug	straßenbahn	21	1	1	1	1	LEHRAMT
FAUST_1[2014-06]	48	3	3	4	1	2	1	1	2	0	1563	2	2	1	2322	3	1042	LENKRAD	lenkrad	theater	lenkrad	konzertsaal	oper	zirkus	21	1	1	1	1	LEHRAMT
FAUST_1[2014-06]	48	3	21	4	1	1	2	1	1	1	1307	2	2	1	2324	4	937	KEROSIN	kugelschreiber	benzin	kugelschreiber	kerosin	diesel	bleifrei	21	1	1	1	1	LEHRAMT
FAUST_1[2014-06]	48	3	6	4	1	2	2	1	1	1	2920	2	2	1	2554	4	829	NÄHNADEL	nähnadel	roggen	sicherheitsnadel	häkelnadel	nähnadel	stecknadel	21	1	1	1	1	LEHRAMT
FAUST_1[2014-06]	48	3	5	4	1	1	1	2	1	0	1212	2	2	1	3358	1	1502	BEIN	fuß	wespe	biene	mücke	wespe	hummel	21	1	1	1	1	LEHRAMT
FAUST_1[2014-06]	48	3	11	4	1	2	1	2	1	0	1373	2	1	0	3092	3	1227	SATURN	realschule	venus	gesamtschule	berufsschule	gymnasium	venus	21	1	1	1	1	LEHRAMT
FAUST_1[2014-06]	48	3	9	4	1	1	2	2	2	1	1767	2	2	1	2463	3	1133	TRAUER	angst	weser	freude	scham	weser	ärger	21	1	1	1	1	LEHRAMT
FAUST_1[2014-06]	48	3	2	4	1	2	2	2	1	0	2524	2	2	1	3250	3	848	SEHEN	riechen	fühlen	schmecken	zwilling	riechen	hören	21	1	1	1	1	LEHRAMT
FAUST_1[2014-06]	48	3	28	4	1	1	1	2	2	1	802	2	1	0	2704	4	1260	THÜRINGEN	hessen	mutter	tochter	onkel	vater	tochter	21	1	1	1	1	LEHRAMT
FAUST_1[2014-06]	48	3	12	4	1	2	1	2	2	1	2015	2	2	1	1813	4	1103	DOGGE	dackel	erdbeere	dackel	birne	banane	pflaume	21	1	1	1	1	LEHRAMT
FAUST_1[2014-06]	48	3	30	4	1	1	2	2	2	1	910	2	2	1	2984	3	525	GRÜN	tango	rot	blau	gelb	lila	tango	21	1	1	1	1	LEHRAMT
FAUST_1[2014-06]	48	3	22	4	1	2	2	2	1	0	1149	2	2	1	2600	3	836	VERB	wimperntusche	adverb	nomen	adjektiv	nomen	präposition	21	1	1	1	1	LEHRAMT
FAUST_1[2014-06]	48	3	1	4	1	1	1	2	2	1	1798	1	1	1	3046	3	1923	RUM	wodka	fußball	skifahren	schwimmen	golf	fußball	21	1	1	1	1	LEHRAMT
FAUST_1[2014-06]	48	3	23	4	1	2	1	2	2	1	1124	1	1	1	1712	4	953	SCHACH	backgammon	bronze	gold	silber	messing	backgammon	21	1	1	1	1	LEHRAMT
FAUST_1[2014-06]	48	3	16	4	1	1	2	2	2	1	1662	1	2	0	2775	4	814	HASCHISCH	cannabis	heroin	oboe	opium	kokain	oboe	21	1	1	1	1	LEHRAMT
FAUST_1[2014-06]	48	3	17	4	1	2	2	2	2	1	1191	2	2	1	2584	3	1658	VIVALDI	mozart	beethoven	kapelle	beethoven	chopin	brahms	21	1	1	1	1	LEHRAMT
FAUST_1[2014-06]	48	3	26	4	1	1	1	3	2	1	1016	2	2	1	2431	3	946	PUMA	vampir	hemd	hexe	werwolf	dämon	werwolf	21	1	1	1	1	LEHRAMT
FAUST_1[2014-06]	48	3	19	4	1	2	1	3	2	1	862	1	1	1	2902	3	1711	PISTOLE	meise	taube	fink	österreich	amsel	österreich	21	1	1	1	1	LEHRAMT
FAUST_1[2014-06]	48	3	7	4	1	1	1	3	2	1	2914	-1	2	0	0	4	1552	ACTIONFILM	sofa	regal	tisch	schrank	kreis	schrank	21	1	1	1	1	LEHRAMT
FAUST_1[2014-06]	48	3	32	4	1	2	1	3	2	1	786	2	2	1	3049	4	802	TEICH	döner	pommes	berlin	bratwurst	hamburger	berlin	21	1	1	1	1	LEHRAMT
FAUST_1[2014-06]	48	3	29	4	1	1	1	3	2	1	767	1	1	1	3117	3	1825	KANNE	zeitung	internet	radio	buch	radio	veilchen	21	1	1	1	1	LEHRAMT
FAUST_1[2014-06]	48	3	24	4	1	2	1	3	2	1	827	2	2	1	1565	3	845	BROTMESSER	zeichnen	mobiltelefon	malen	lesen	mobiltelefon	basteln	21	1	1	1	1	LEHRAMT
FAUST_1[2014-06]	48	3	31	4	1	1	1	3	2	1	911	2	2	1	2442	4	1358	MUMPS	forelle	cent	dollar	mark	euro	cent	21	1	1	1	1	LEHRAMT
FAUST_1[2014-06]	48	3	20	4	1	2	1	3	2	1	1156	2	2	1	2024	4	1374	BACKBLECH	leinen	stunde	sekunde	leinen	tag	jahr	21	1	1	1	1	LEHRAMT
FAUST_1[2014-06]	48	4	19	4	3	1	1	1	2	0	4427	1	1	1	2127	1	1158	carriage_3.bmp	speaker_4.bmp	speaker_6.bmp	speaker_4.bmp	speaker_15.bmp	speaker_10.bmp	carriage_3.bmp	21	1	1	1	1	LEHRAMT
FAUST_1[2014-06]	48	4	22	4	3	2	1	1	1	1	878	1	1	1	2274	3	1172	vase_5.bmp	vase_5.bmp	chair_16.bmp	chair_3.bmp	chair_5.bmp	vase_5.bmp	chair_2.bmp	21	1	1	1	1	LEHRAMT
FAUST_1[2014-06]	48	4	11	4	3	1	2	1	1	1	1065	-1	1	0	0	4	886	rollerskates_2.bmp	rollerskates_2.bmp	trumpet_17.bmp	rollerskates_7.bmp	rollerskates_8.bmp	trumpet_17.bmp	rollerskates_5.bmp	21	1	1	1	1	LEHRAMT
FAUST_1[2014-06]	48	4	20	4	3	2	2	1	1	1	1334	1	1	1	2635	4	1126	easteregg_14.bmp	easteregg_14.bmp	easteregg_16.bmp	easteregg_14.bmp	easteregg_9.bmp	easteregg_17.bmp	hairdryer_2.bmp	21	1	1	1	1	LEHRAMT
FAUST_1[2014-06]	48	4	5	4	3	1	1	1	1	1	1136	2	2	1	2722	3	976	highchair_4.bmp	glasses_13.bmp	glasses_6.bmp	glasses_9.bmp	glasses_8.bmp	highchair_4.bmp	glasses_9.bmp	21	1	1	1	1	LEHRAMT
FAUST_1[2014-06]	48	4	17	4	3	2	1	1	1	1	1247	1	2	0	3138	4	1628	shoe_15.bmp	babycrib_9.bmp	babycrib_5.bmp	shoe_15.bmp	babycrib_7.bmp	babycrib_2.bmp	shoe_15.bmp	21	1	1	1	1	LEHRAMT
FAUST_1[2014-06]	48	4	7	4	3	1	2	1	1	1	3322	1	1	1	2068	3	1095	carabiner_7.bmp	carabiner_7.bmp	saddle_5.bmp	carabiner_9.bmp	carabiner_6.bmp	carabiner_2.bmp	saddle_5.bmp	21	1	1	1	1	LEHRAMT
FAUST_1[2014-06]	48	4	2	4	3	2	2	1	1	1	1507	2	2	1	3008	3	1183	wig_9.bmp	wig_9.bmp	socks_15.bmp	wig_9.bmp	wig_12.bmp	wig_6.bmp	wig_7.bmp	21	1	1	1	1	LEHRAMT
FAUST_1[2014-06]	48	4	27	4	3	1	1	1	2	0	925	2	2	1	2838	3	2180	iceskates_14.bmp	turtle_11.bmp	iceskates_14.bmp	turtle_6.bmp	turtle_12.bmp	turtle_7.bmp	turtle_12.bmp	21	1	1	1	1	LEHRAMT
FAUST_1[2014-06]	48	4	9	4	3	2	1	1	1	1	1160	2	1	0	3156	4	792	cat_4.bmp	cat_4.bmp	parfait_13.bmp	cat_4.bmp	parfait_15.bmp	parfait_11.bmp	parfait_4.bmp	21	1	1	1	1	LEHRAMT
FAUST_1[2014-06]	48	4	8	4	3	1	2	1	1	1	984	2	2	1	3017	4	1121	jacket_10.bmp	hairbrush_7.bmp	jacket_10.bmp	jacket_13.bmp	jacket_7.bmp	hairbrush_7.bmp	jacket_6.bmp	21	1	1	1	1	LEHRAMT
FAUST_1[2014-06]	48	4	24	4	3	2	2	1	1	1	805	1	1	1	2428	3	945	camera_4.bmp	camera_4.bmp	camera_3.bmp	camera_6.bmp	camera_9.bmp	camera_4.bmp	plant_14.bmp	21	1	1	1	1	LEHRAMT
FAUST_1[2014-06]	48	4	31	4	3	1	1	2	1	0	822	1	1	1	2571	3	890	cheesegrater_8.bmp	coffee_1.bmp	coffee_14.bmp	coffee_7.bmp	cheesegrater_15.bmp	coffee_14.bmp	coffee_2.bmp	21	1	1	1	1	LEHRAMT
FAUST_1[2014-06]	48	4	10	4	3	2	1	2	1	0	983	1	1	1	1849	4	1560	goggle_4.bmp	goggle_13.bmp	windchime_6.bmp	windchime_15.bmp	windchime_16.bmp	windchime_10.bmp	goggle_13.bmp	21	1	1	1	1	LEHRAMT
FAUST_1[2014-06]	48	4	18	4	3	1	2	2	1	0	1053	2	1	0	2845	3	913	cake_1.bmp	bagel_12.bmp	cake_4.bmp	cake_5.bmp	cake_3.bmp	bagel_12.bmp	cake_14.bmp	21	1	1	1	1	LEHRAMT
FAUST_1[2014-06]	48	4	25	4	3	2	2	2	1	0	1160	1	2	0	3105	3	1063	guitar_8.bmp	guitar_10.bmp	guitar_5.bmp	guitar_14.bmp	guitar_7.bmp	guitar_5.bmp	sink_10.bmp	21	1	1	1	1	LEHRAMT
FAUST_1[2014-06]	48	4	23	4	3	1	1	2	1	0	540	-1	2	0	0	1	1797	watergun_15.bmp	watergun_3.bmp	leatherman_14.bmp	leatherman_2.bmp	leatherman_10.bmp	leatherman_2.bmp	leatherman_5.bmp	21	1	1	1	1	LEHRAMT
FAUST_1[2014-06]	48	4	28	4	3	2	1	2	2	1	788	1	1	1	2980	4	1040	flashlight_2.bmp	trunk_2.bmp	trunk_1.bmp	flashlight_1.bmp	trunk_3.bmp	flashlight_1.bmp	trunk_7.bmp	21	1	1	1	1	LEHRAMT
FAUST_1[2014-06]	48	4	15	4	3	1	2	2	1	0	1024	1	1	1	2218	4	1224	backpack_10.bmp	fan_11.bmp	backpack_16.bmp	backpack_13.bmp	backpack_12.bmp	backpack_6.bmp	fan_11.bmp	21	1	1	1	1	LEHRAMT
FAUST_1[2014-06]	48	4	29	4	3	2	2	2	1	0	1024	1	1	1	1850	4	1317	circuitboard_2.bmp	circuitboard_13.bmp	circuitboard_16.bmp	abacus_2.bmp	circuitboard_13.bmp	circuitboard_4.bmp	circuitboard_8.bmp	21	1	1	1	1	LEHRAMT
FAUST_1[2014-06]	48	4	6	4	3	1	1	2	2	1	1076	2	2	1	2637	3	1420	horseshoe_12.bmp	printer_14.bmp	printer_5.bmp	printer_3.bmp	printer_14.bmp	printer_16.bmp	horseshoe_4.bmp	21	1	1	1	1	LEHRAMT
FAUST_1[2014-06]	48	4	30	4	3	2	1	2	1	0	710	2	1	0	2014	3	1084	remote_3.bmp	remote_11.bmp	glove_10.bmp	remote_11.bmp	glove_8.bmp	glove_12.bmp	glove_15.bmp	21	1	1	1	1	LEHRAMT
FAUST_1[2014-06]	48	4	1	4	3	1	2	2	2	1	1172	2	2	1	2757	1	1633	tv_7.bmp	tv_8.bmp	orifan_17.bmp	tv_16.bmp	orifan_17.bmp	tv_4.bmp	tv_5.bmp	21	1	1	1	1	LEHRAMT
FAUST_1[2014-06]	48	4	21	4	3	2	2	2	2	1	1121	2	2	1	2915	4	826	tricycle_15.bmp	tricycle_5.bmp	birdhouse_14.bmp	tricycle_8.bmp	tricycle_2.bmp	tricycle_10.bmp	tricycle_2.bmp	21	1	1	1	1	LEHRAMT
FAUST_1[2014-06]	48	4	14	4	3	1	1	3	2	1	1016	1	2	0	2633	4	3169	scooter_8.bmp	rusdoll_1.bmp	sofa_3.bmp	sofa_13.bmp	sofa_3.bmp	sofa_6.bmp	sofa_12.bmp	21	1	1	1	1	LEHRAMT
FAUST_1[2014-06]	48	4	12	4	3	2	1	3	1	0	972	2	1	0	2588	1	1910	bowlingpin_13.bmp	shredder_15.bmp	shredder_7.bmp	garbagecan_2.bmp	shredder_5.bmp	garbagecan_2.bmp	shredder_1.bmp	21	1	1	1	1	LEHRAMT
FAUST_1[2014-06]	48	4	26	4	3	1	1	3	1	0	1023	2	2	1	2468	1	2057	mic_2.bmp	hammer_11.bmp	videogamecontroller_5.bmp	videogamecontroller_11.bmp	videogamecontroller_3.bmp	videogamecontroller_2.bmp	videogamecontroller_5.bmp	21	1	1	1	1	LEHRAMT
FAUST_1[2014-06]	48	4	4	4	3	2	1	3	2	1	1624	1	1	1	1761	4	830	beanbagchair_3.bmp	cherubstatue_5.bmp	cherubstatue_11.bmp	doorknocker_11.bmp	cherubstatue_6.bmp	cherubstatue_12.bmp	doorknocker_11.bmp	21	1	1	1	1	LEHRAMT
FAUST_1[2014-06]	48	4	32	4	3	1	1	3	2	1	872	2	2	1	1802	4	2279	powerstrip_8.bmp	skateboard_14.bmp	skateboard_15.bmp	skateboard_16.bmp	trophy_15.bmp	skateboard_16.bmp	skateboard_11.bmp	21	1	1	1	1	LEHRAMT
FAUST_1[2014-06]	48	4	16	4	3	2	1	3	2	1	1699	2	1	0	1730	3	1132	doorknob_10.bmp	saltpeppershake_8.bmp	laptop_14.bmp	laptop_16.bmp	laptop_15.bmp	saltpeppershake_8.bmp	laptop_10.bmp	21	1	1	1	1	LEHRAMT
FAUST_1[2014-06]	48	4	3	4	3	1	1	3	2	1	913	2	2	1	2738	3	844	cellphone_12.bmp	ring_11.bmp	pasta_15.bmp	ring_7.bmp	ring_15.bmp	ring_12.bmp	ring_11.bmp	21	1	1	1	1	LEHRAMT
FAUST_1[2014-06]	48	4	13	4	3	2	1	3	1	0	1137	-1	2	0	0	1	1046	lawnmower_13.bmp	router_12.bmp	watch_14.bmp	router_6.bmp	router_5.bmp	watch_14.bmp	router_16.bmp	21	1	1	1	1	LEHRAMT
