experiment	subject	block	trial	order	material	repeated	related	probetype	response	correct	rt	math_response	math_correctresponse	math_correct	math_rt	confidence	confidence_rt	probe	item1	item2	item3	item4	item5	item6	age	sex	handedness	color_vision	mother_tongue	occupation
FAUST_1[2014-06]	49	1	29	5	3	1	1	1	1	1	1220	1	1	1	1846	4	1406	sofa_6.bmp	trumpet_5.bmp	trumpet_1.bmp	trumpet_17.bmp	trumpet_3.bmp	sofa_6.bmp	trumpet_3.bmp	19	1	1	1	1	ERZIEHUNGSWISSENSCHAFT
FAUST_1[2014-06]	49	1	1	5	3	2	1	1	1	1	2309	2	2	1	2349	4	7107	hairdryer_12.bmp	hairbrush_17.bmp	hairbrush_16.bmp	hairdryer_12.bmp	hairbrush_12.bmp	hairbrush_15.bmp	hairdryer_12.bmp	19	1	1	1	1	ERZIEHUNGSWISSENSCHAFT
FAUST_1[2014-06]	49	1	31	5	3	1	2	1	1	1	1378	1	1	1	1483	3	1375	easteregg_14.bmp	powerstrip_13.bmp	easteregg_17.bmp	easteregg_5.bmp	powerstrip_13.bmp	easteregg_14.bmp	easteregg_9.bmp	19	1	1	1	1	ERZIEHUNGSWISSENSCHAFT
FAUST_1[2014-06]	49	1	11	5	3	2	2	1	1	1	2003	2	2	1	2869	3	2146	circuitboard_8.bmp	circuitboard_8.bmp	circuitboard_2.bmp	circuitboard_4.bmp	circuitboard_16.bmp	highchair_3.bmp	circuitboard_8.bmp	19	1	1	1	1	ERZIEHUNGSWISSENSCHAFT
FAUST_1[2014-06]	49	1	16	5	3	1	1	1	1	1	2010	1	1	1	1985	3	2201	carriage_12.bmp	mic_2.bmp	mic_3.bmp	mic_10.bmp	carriage_12.bmp	mic_2.bmp	mic_12.bmp	19	1	1	1	1	ERZIEHUNGSWISSENSCHAFT
FAUST_1[2014-06]	49	1	12	5	3	2	1	1	1	1	1147	2	2	1	1742	4	1192	cherubstatue_12.bmp	trophy_14.bmp	trophy_16.bmp	cherubstatue_12.bmp	trophy_4.bmp	trophy_6.bmp	cherubstatue_12.bmp	19	1	1	1	1	ERZIEHUNGSWISSENSCHAFT
FAUST_1[2014-06]	49	1	21	5	3	1	2	1	1	1	1271	2	2	1	2588	4	1105	bagel_10.bmp	bagel_12.bmp	bagel_10.bmp	bagel_4.bmp	plant_13.bmp	bagel_14.bmp	plant_13.bmp	19	1	1	1	1	ERZIEHUNGSWISSENSCHAFT
FAUST_1[2014-06]	49	1	4	5	3	2	2	1	1	1	2301	2	2	1	3103	3	4188	cat_10.bmp	cat_10.bmp	beanbagchair_3.bmp	cat_9.bmp	cat_5.bmp	cat_1.bmp	cat_10.bmp	19	1	1	1	1	ERZIEHUNGSWISSENSCHAFT
FAUST_1[2014-06]	49	1	26	5	3	1	1	1	1	1	1152	2	2	1	2418	3	977	parfait_11.bmp	horseshoe_3.bmp	horseshoe_12.bmp	parfait_11.bmp	horseshoe_3.bmp	horseshoe_5.bmp	horseshoe_6.bmp	19	1	1	1	1	ERZIEHUNGSWISSENSCHAFT
FAUST_1[2014-06]	49	1	32	5	3	2	1	1	1	1	1841	2	2	1	3489	3	848	router_7.bmp	router_7.bmp	cellphone_8.bmp	cellphone_11.bmp	router_7.bmp	cellphone_3.bmp	cellphone_12.bmp	19	1	1	1	1	ERZIEHUNGSWISSENSCHAFT
FAUST_1[2014-06]	49	1	28	5	3	1	2	1	1	1	9256	1	1	1	2127	2	3189	glove_10.bmp	speaker_6.bmp	glove_12.bmp	glove_8.bmp	glove_15.bmp	speaker_6.bmp	glove_10.bmp	19	1	1	1	1	ERZIEHUNGSWISSENSCHAFT
FAUST_1[2014-06]	49	1	25	5	3	2	2	1	1	1	1201	1	1	1	1197	4	1001	backpack_12.bmp	backpack_6.bmp	orifan_14.bmp	backpack_12.bmp	backpack_10.bmp	backpack_12.bmp	backpack_16.bmp	19	1	1	1	1	ERZIEHUNGSWISSENSCHAFT
FAUST_1[2014-06]	49	1	13	5	3	1	1	2	2	1	3431	2	2	1	1242	2	2505	iceskates_5.bmp	guitar_8.bmp	iceskates_9.bmp	guitar_7.bmp	guitar_8.bmp	guitar_14.bmp	guitar_10.bmp	19	1	1	1	1	ERZIEHUNGSWISSENSCHAFT
FAUST_1[2014-06]	49	1	2	5	3	2	1	2	2	1	1982	2	2	1	3019	3	2494	vase_15.bmp	bowlingpin_1.bmp	bowlingpin_4.bmp	vase_6.bmp	bowlingpin_11.bmp	bowlingpin_3.bmp	vase_6.bmp	19	1	1	1	1	ERZIEHUNGSWISSENSCHAFT
FAUST_1[2014-06]	49	1	17	5	3	1	2	2	2	1	1481	1	1	1	1902	3	1108	tv_16.bmp	tv_7.bmp	tv_4.bmp	scooter_10.bmp	tv_5.bmp	scooter_10.bmp	tv_8.bmp	19	1	1	1	1	ERZIEHUNGSWISSENSCHAFT
FAUST_1[2014-06]	49	1	8	5	3	2	2	2	1	0	1434	2	2	1	1682	3	2310	saltpeppershake_2.bmp	saltpeppershake_17.bmp	saltpeppershake_8.bmp	saltpeppershake_9.bmp	saltpeppershake_8.bmp	saltpeppershake_12.bmp	watergun_15.bmp	19	1	1	1	1	ERZIEHUNGSWISSENSCHAFT
FAUST_1[2014-06]	49	1	19	5	3	1	1	2	1	0	2409	1	1	1	1186	3	2479	trunk_5.bmp	laptop_10.bmp	laptop_14.bmp	laptop_16.bmp	laptop_15.bmp	trunk_7.bmp	laptop_16.bmp	19	1	1	1	1	ERZIEHUNGSWISSENSCHAFT
FAUST_1[2014-06]	49	1	10	5	3	2	1	2	1	0	1779	1	1	1	2355	3	2864	tricycle_5.bmp	skateboard_3.bmp	tricycle_10.bmp	skateboard_14.bmp	skateboard_16.bmp	skateboard_15.bmp	tricycle_10.bmp	19	1	1	1	1	ERZIEHUNGSWISSENSCHAFT
FAUST_1[2014-06]	49	1	22	5	3	1	2	2	1	0	3122	1	1	1	1537	2	2190	coffee_1.bmp	coffee_15.bmp	coffee_7.bmp	turtle_2.bmp	coffee_14.bmp	coffee_2.bmp	turtle_2.bmp	19	1	1	1	1	ERZIEHUNGSWISSENSCHAFT
FAUST_1[2014-06]	49	1	27	5	3	2	2	2	2	1	1154	2	2	1	1134	3	1499	shoe_15.bmp	shoe_17.bmp	shoe_9.bmp	shoe_7.bmp	flashlight_1.bmp	shoe_13.bmp	shoe_7.bmp	19	1	1	1	1	ERZIEHUNGSWISSENSCHAFT
FAUST_1[2014-06]	49	1	6	5	3	1	1	2	2	1	3200	1	1	1	1448	3	2302	glasses_8.bmp	saddle_15.bmp	saddle_8.bmp	saddle_3.bmp	saddle_4.bmp	saddle_3.bmp	glasses_6.bmp	19	1	1	1	1	ERZIEHUNGSWISSENSCHAFT
FAUST_1[2014-06]	49	1	23	5	3	2	1	2	1	0	1362	2	2	1	1299	3	712	watch_6.bmp	videogamecontroller_3.bmp	watch_7.bmp	videogamecontroller_5.bmp	videogamecontroller_2.bmp	videogamecontroller_13.bmp	watch_7.bmp	19	1	1	1	1	ERZIEHUNGSWISSENSCHAFT
FAUST_1[2014-06]	49	1	9	5	3	1	2	2	2	1	1707	-1	2	0	0	2	4697	garbagecan_17.bmp	abacus_2.bmp	garbagecan_2.bmp	garbagecan_13.bmp	abacus_2.bmp	garbagecan_10.bmp	garbagecan_8.bmp	19	1	1	1	1	ERZIEHUNGSWISSENSCHAFT
FAUST_1[2014-06]	49	1	5	5	3	2	2	2	1	0	2371	1	1	1	1893	3	1892	hammer_15.bmp	fan_10.bmp	hammer_6.bmp	hammer_8.bmp	hammer_6.bmp	hammer_17.bmp	hammer_11.bmp	19	1	1	1	1	ERZIEHUNGSWISSENSCHAFT
FAUST_1[2014-06]	49	1	24	5	3	1	1	3	2	1	2009	1	1	1	1389	3	1293	babycrib_6.bmp	cake_14.bmp	cake_1.bmp	cake_3.bmp	cake_4.bmp	ring_8.bmp	cake_14.bmp	19	1	1	1	1	ERZIEHUNGSWISSENSCHAFT
FAUST_1[2014-06]	49	1	3	5	3	2	1	3	2	1	1488	2	2	1	2194	4	2934	rusdoll_3.bmp	rollerskates_7.bmp	rollerskates_5.bmp	windchime_6.bmp	rollerskates_8.bmp	rollerskates_17.bmp	windchime_6.bmp	19	1	1	1	1	ERZIEHUNGSWISSENSCHAFT
FAUST_1[2014-06]	49	1	14	5	3	1	1	3	2	1	1465	2	2	1	1671	3	1212	wig_7.bmp	doorknocker_4.bmp	doorknocker_5.bmp	doorknocker_2.bmp	doorknocker_4.bmp	birdhouse_9.bmp	doorknocker_14.bmp	19	1	1	1	1	ERZIEHUNGSWISSENSCHAFT
FAUST_1[2014-06]	49	1	7	5	3	2	1	3	2	1	1460	1	1	1	2446	4	2138	remote_2.bmp	carabiner_6.bmp	jacket_10.bmp	carabiner_7.bmp	jacket_10.bmp	carabiner_2.bmp	carabiner_5.bmp	19	1	1	1	1	ERZIEHUNGSWISSENSCHAFT
FAUST_1[2014-06]	49	1	30	5	3	1	1	3	2	1	1578	2	1	0	1469	3	2550	shredder_5.bmp	goggle_3.bmp	pasta_13.bmp	pasta_10.bmp	pasta_11.bmp	pasta_15.bmp	pasta_10.bmp	19	1	1	1	1	ERZIEHUNGSWISSENSCHAFT
FAUST_1[2014-06]	49	1	15	5	3	2	1	3	2	1	1397	1	1	1	1696	3	932	cheesegrater_8.bmp	camera_6.bmp	chair_2.bmp	chair_11.bmp	camera_6.bmp	chair_16.bmp	chair_5.bmp	19	1	1	1	1	ERZIEHUNGSWISSENSCHAFT
FAUST_1[2014-06]	49	1	20	5	3	1	1	3	2	1	953	1	1	1	1807	4	2447	printer_1.bmp	sink_6.bmp	lawnmower_8.bmp	lawnmower_15.bmp	lawnmower_13.bmp	lawnmower_3.bmp	lawnmower_13.bmp	19	1	1	1	1	ERZIEHUNGSWISSENSCHAFT
FAUST_1[2014-06]	49	1	18	5	3	2	1	3	2	1	1033	1	1	1	1305	4	2044	leatherman_2.bmp	doorknob_17.bmp	doorknob_2.bmp	doorknob_7.bmp	socks_12.bmp	doorknob_14.bmp	socks_12.bmp	19	1	1	1	1	ERZIEHUNGSWISSENSCHAFT
FAUST_1[2014-06]	49	2	20	5	2	1	1	1	1	1	1203	2	2	1	2283	4	1027	Scissors23.bmp	Varnish3.bmp	Varnish11.bmp	Varnish17.bmp	Scissors23.bmp	Varnish14.bmp	Varnish17.bmp	19	1	1	1	1	ERZIEHUNGSWISSENSCHAFT
FAUST_1[2014-06]	49	2	22	5	2	2	1	1	1	1	991	2	2	1	2886	3	741	Daff22.bmp	Chilli14.bmp	Chilli12.bmp	Daff22.bmp	Chilli19.bmp	Daff22.bmp	Chilli22.bmp	19	1	1	1	1	ERZIEHUNGSWISSENSCHAFT
FAUST_1[2014-06]	49	2	11	5	2	1	2	1	1	1	1431	1	1	1	1370	3	804	Screw10.bmp	Screw13.bmp	Screw18.bmp	Bag3.bmp	Screw9.bmp	Screw10.bmp	Bag3.bmp	19	1	1	1	1	ERZIEHUNGSWISSENSCHAFT
FAUST_1[2014-06]	49	2	1	5	2	2	2	1	1	1	1526	1	1	1	1114	4	981	Candle17.bmp	Candle10.bmp	Candle17.bmp	Candle13.bmp	Candle17.bmp	Hanger14.bmp	Candle20.bmp	19	1	1	1	1	ERZIEHUNGSWISSENSCHAFT
FAUST_1[2014-06]	49	2	6	5	2	1	1	1	1	1	8667	1	1	1	1219	3	1237	Biscuit25.bmp	Nut11.bmp	Nut21.bmp	Nut19.bmp	Nut21.bmp	Nut18.bmp	Biscuit25.bmp	19	1	1	1	1	ERZIEHUNGSWISSENSCHAFT
FAUST_1[2014-06]	49	2	16	5	2	2	1	1	1	1	1584	2	1	0	1486	4	649	Hand10.bmp	Hand10.bmp	Mushroom14.bmp	Mushroom7.bmp	Hand10.bmp	Mushroom18.bmp	Mushroom6.bmp	19	1	1	1	1	ERZIEHUNGSWISSENSCHAFT
FAUST_1[2014-06]	49	2	9	5	2	1	2	1	1	1	1390	1	1	1	1997	4	787	Pen1.bmp	Pen17.bmp	Car7.bmp	Pen1.bmp	Pen5.bmp	Car7.bmp	Pen10.bmp	19	1	1	1	1	ERZIEHUNGSWISSENSCHAFT
FAUST_1[2014-06]	49	2	5	5	2	2	2	1	1	1	1363	1	2	0	2607	3	629	String8.bmp	String9.bmp	String2.bmp	String8.bmp	String12.bmp	Bracelet5.bmp	String8.bmp	19	1	1	1	1	ERZIEHUNGSWISSENSCHAFT
FAUST_1[2014-06]	49	2	12	5	2	1	1	2	2	1	2048	1	1	1	2199	2	1159	Shell1.bmp	Button20.bmp	Button18.bmp	Button3.bmp	Shell5.bmp	Button20.bmp	Button14.bmp	19	1	1	1	1	ERZIEHUNGSWISSENSCHAFT
FAUST_1[2014-06]	49	2	19	5	2	2	1	2	1	0	1337	2	2	1	2917	3	902	Holly14.bmp	Holly11.bmp	Feather2.bmp	Feather12.bmp	Feather18.bmp	Feather11.bmp	Holly11.bmp	19	1	1	1	1	ERZIEHUNGSWISSENSCHAFT
FAUST_1[2014-06]	49	2	8	5	2	1	2	2	1	0	1635	2	2	1	2334	3	729	Cake16.bmp	Cake7.bmp	Strawberry21.bmp	Cake24.bmp	Cake25.bmp	Cake18.bmp	Strawberry21.bmp	19	1	1	1	1	ERZIEHUNGSWISSENSCHAFT
FAUST_1[2014-06]	49	2	13	5	2	2	2	2	1	0	2599	2	1	0	1347	2	1025	Key5.bmp	Key20.bmp	Key13.bmp	Key11.bmp	Plug8.bmp	Key13.bmp	Key9.bmp	19	1	1	1	1	ERZIEHUNGSWISSENSCHAFT
FAUST_1[2014-06]	49	2	21	5	2	1	1	2	1	0	1391	1	1	1	1328	3	1012	Apple5.bmp	Chocolate9.bmp	Chocolate17.bmp	Apple10.bmp	Chocolate24.bmp	Chocolate5.bmp	Chocolate24.bmp	19	1	1	1	1	ERZIEHUNGSWISSENSCHAFT
FAUST_1[2014-06]	49	2	3	5	2	2	1	2	1	0	3311	2	1	0	2602	2	1196	Flower17.bmp	Flower13.bmp	Tomato12.bmp	Tomato18.bmp	Tomato5.bmp	Tomato3.bmp	Flower13.bmp	19	1	1	1	1	ERZIEHUNGSWISSENSCHAFT
FAUST_1[2014-06]	49	2	2	5	2	1	2	2	2	1	3009	2	2	1	2451	2	1207	Fork14.bmp	Fork7.bmp	Lipstick2.bmp	Fork9.bmp	Lipstick2.bmp	Fork17.bmp	Fork8.bmp	19	1	1	1	1	ERZIEHUNGSWISSENSCHAFT
FAUST_1[2014-06]	49	2	15	5	2	2	2	2	1	0	1695	2	2	1	3290	3	1139	Leaf15.bmp	Leaf22.bmp	Leaf10.bmp	Leaf13.bmp	Leaf21.bmp	Pear4.bmp	Leaf13.bmp	19	1	1	1	1	ERZIEHUNGSWISSENSCHAFT
FAUST_1[2014-06]	49	2	17	5	2	1	1	3	2	1	1384	1	1	1	2301	3	1252	Bun5.bmp	Ginger5.bmp	Fudge17.bmp	Fudge5.bmp	Fudge17.bmp	Fudge8.bmp	Fudge15.bmp	19	1	1	1	1	ERZIEHUNGSWISSENSCHAFT
FAUST_1[2014-06]	49	2	18	5	2	2	1	3	2	1	1201	1	1	1	1575	3	1561	Brocolli10.bmp	Glass19.bmp	Jigsaw18.bmp	Glass4.bmp	Jigsaw18.bmp	Glass12.bmp	Glass16.bmp	19	1	1	1	1	ERZIEHUNGSWISSENSCHAFT
FAUST_1[2014-06]	49	2	7	5	2	1	1	3	2	1	1066	2	2	1	2131	4	1143	Man15.bmp	Stapler6.bmp	Stapler10.bmp	Stapler9.bmp	Stapler7.bmp	Stapler9.bmp	Coins10.bmp	19	1	1	1	1	ERZIEHUNGSWISSENSCHAFT
FAUST_1[2014-06]	49	2	10	5	2	2	1	3	2	1	853	1	1	1	1578	4	1160	Star7.bmp	Onion19.bmp	Onion13.bmp	Keys7.bmp	Onion18.bmp	Onion7.bmp	Keys7.bmp	19	1	1	1	1	ERZIEHUNGSWISSENSCHAFT
FAUST_1[2014-06]	49	2	14	5	2	1	1	3	2	1	1089	1	2	0	1482	4	1037	Swirl13.bmp	Present3.bmp	Present2.bmp	Present17.bmp	Sweet22.bmp	Present14.bmp	Present17.bmp	19	1	1	1	1	ERZIEHUNGSWISSENSCHAFT
FAUST_1[2014-06]	49	2	4	5	2	2	1	3	2	1	1179	2	2	1	1142	3	1088	Umbrella21.bmp	Paperclip4.bmp	Toothbrush1.bmp	Toothbrush10.bmp	Toothbrush12.bmp	Toothbrush6.bmp	Paperclip4.bmp	19	1	1	1	1	ERZIEHUNGSWISSENSCHAFT
FAUST_1[2014-06]	49	3	8	5	1	1	1	1	1	1	956	2	1	0	2055	3	1704	BUCH	forelle	lachs	buch	hering	thunfisch	hering	19	1	1	1	1	ERZIEHUNGSWISSENSCHAFT
FAUST_1[2014-06]	49	3	24	5	1	2	1	1	2	0	875	2	2	1	1811	4	922	KAMERA	könig	graf	kamera	kaiser	herzog	kamera	19	1	1	1	1	ERZIEHUNGSWISSENSCHAFT
FAUST_1[2014-06]	49	3	21	5	1	1	2	1	2	0	3127	2	2	1	1546	2	737	HEXE	werwolf	vampir	petroleum	dämon	hexe	petroleum	19	1	1	1	1	ERZIEHUNGSWISSENSCHAFT
FAUST_1[2014-06]	49	3	6	5	1	2	2	1	1	1	2306	1	2	0	1853	4	1564	BERUFSSCHULE	gymnasium	hauptschule	berufsschule	gesamtschule	thüringen	berufsschule	19	1	1	1	1	ERZIEHUNGSWISSENSCHAFT
FAUST_1[2014-06]	49	3	20	5	1	1	1	1	2	0	882	2	2	1	1009	4	11305	MAIN	helium	kohlenstoff	wasserstoff	main	stickstoff	helium	19	1	1	1	1	ERZIEHUNGSWISSENSCHAFT
FAUST_1[2014-06]	49	3	25	5	1	2	1	1	2	0	5898	1	1	1	2760	2	765	PISTOLE	oboe	pistole	posaune	trompete	pistole	klarinette	19	1	1	1	1	ERZIEHUNGSWISSENSCHAFT
FAUST_1[2014-06]	49	3	31	5	1	1	2	1	1	1	3614	1	1	1	1399	4	1697	PFENNIG	cent	messer	dollar	messer	pfennig	euro	19	1	1	1	1	ERZIEHUNGSWISSENSCHAFT
FAUST_1[2014-06]	49	3	19	5	1	2	2	1	1	1	1358	2	2	1	1162	4	691	KIRCHE	kirche	kapelle	tempel	kirche	lila	synagoge	19	1	1	1	1	ERZIEHUNGSWISSENSCHAFT
FAUST_1[2014-06]	49	3	17	5	1	1	1	1	1	1	1536	1	1	1	2248	3	793	NUDELHOLZ	karamell	bonbons	gummibärchen	lakritz	nudelholz	gummibärchen	19	1	1	1	1	ERZIEHUNGSWISSENSCHAFT
FAUST_1[2014-06]	49	3	10	5	1	2	1	1	2	0	1416	1	1	1	1106	4	925	MESSING	häkelnadel	sicherheitsnadel	messing	nähnadel	stecknadel	messing	19	1	1	1	1	ERZIEHUNGSWISSENSCHAFT
FAUST_1[2014-06]	49	3	7	5	1	1	2	1	1	1	1020	2	1	0	2583	4	838	WESPE	bein	mücke	ameise	hummel	bein	wespe	19	1	1	1	1	ERZIEHUNGSWISSENSCHAFT
FAUST_1[2014-06]	49	3	1	5	1	2	2	1	1	1	1310	1	1	1	1572	4	1427	MAGEN	niere	magen	herz	straßenbahn	magen	leber	19	1	1	1	1	ERZIEHUNGSWISSENSCHAFT
FAUST_1[2014-06]	49	3	30	5	1	1	1	2	2	1	2475	2	1	0	1105	3	1035	FÜHLEN	puma	riechen	gepard	puma	panther	leopard	19	1	1	1	1	ERZIEHUNGSWISSENSCHAFT
FAUST_1[2014-06]	49	3	18	5	1	2	1	2	2	1	1535	2	2	1	1348	4	765	ÄRGER	döner	freude	pommes	bratwurst	freude	hamburger	19	1	1	1	1	ERZIEHUNGSWISSENSCHAFT
FAUST_1[2014-06]	49	3	16	5	1	1	2	2	1	0	2257	1	1	1	1479	3	902	BLUSE	rock	hemd	thriller	hose	jacke	thriller	19	1	1	1	1	ERZIEHUNGSWISSENSCHAFT
FAUST_1[2014-06]	49	3	3	5	1	2	2	2	1	0	4222	1	1	1	2289	2	1182	RICHTER	lehrer	polizist	pfarrer	südamerika	arzt	lehrer	19	1	1	1	1	ERZIEHUNGSWISSENSCHAFT
FAUST_1[2014-06]	49	3	26	5	1	1	1	2	2	1	941	2	2	1	1354	4	1107	PEUGEOT	oper	kino	theater	volvo	theater	zirkus	19	1	1	1	1	ERZIEHUNGSWISSENSCHAFT
FAUST_1[2014-06]	49	3	32	5	1	2	1	2	2	1	1185	2	2	1	1136	4	1127	BECHER	wodka	glas	rum	gin	glas	whiskey	19	1	1	1	1	ERZIEHUNGSWISSENSCHAFT
FAUST_1[2014-06]	49	3	22	5	1	1	2	2	2	1	1734	1	1	1	1844	2	980	BOHRER	viereck	hammer	zange	viereck	säge	meißel	19	1	1	1	1	ERZIEHUNGSWISSENSCHAFT
FAUST_1[2014-06]	49	3	23	5	1	2	2	2	2	1	3040	2	2	1	1459	3	834	PLUTO	venus	saturn	merkur	jupiter	rose	saturn	19	1	1	1	1	ERZIEHUNGSWISSENSCHAFT
FAUST_1[2014-06]	49	3	12	5	1	1	1	2	2	1	980	2	2	1	1477	4	821	SCRABBLE	kupplung	gaspedal	kupplung	handbremse	lenkrad	backgammon	19	1	1	1	1	ERZIEHUNGSWISSENSCHAFT
FAUST_1[2014-06]	49	3	15	5	1	2	1	2	2	1	944	1	1	1	1466	4	1074	KLEBEBAND	windpocken	büroklammer	masern	mumps	büroklammer	röteln	19	1	1	1	1	ERZIEHUNGSWISSENSCHAFT
FAUST_1[2014-06]	49	3	28	5	1	1	2	2	2	1	1445	2	2	1	998	4	1659	APFEL	banane	pflaume	birne	foxtrott	erdbeere	foxtrott	19	1	1	1	1	ERZIEHUNGSWISSENSCHAFT
FAUST_1[2014-06]	49	3	14	5	1	2	2	2	2	1	1129	1	1	1	2742	3	861	PHYSIK	erdkunde	biologie	chemie	biologie	regal	mathematik	19	1	1	1	1	ERZIEHUNGSWISSENSCHAFT
FAUST_1[2014-06]	49	3	13	5	1	1	1	3	2	1	1162	1	2	0	2329	3	1117	MUTTER	majoran	thymian	stuttgart	oregano	thymian	rosmarin	19	1	1	1	1	ERZIEHUNGSWISSENSCHAFT
FAUST_1[2014-06]	49	3	5	5	1	2	1	3	2	1	1119	2	2	1	1310	4	1354	SCHIFF	italien	terrier	england	schweiz	terrier	dänemark	19	1	1	1	1	ERZIEHUNGSWISSENSCHAFT
FAUST_1[2014-06]	49	3	2	5	1	1	1	3	2	1	980	2	2	1	1534	4	1200	GERSTE	schreiben	minute	jahr	stunde	jahr	tag	19	1	1	1	1	ERZIEHUNGSWISSENSCHAFT
FAUST_1[2014-06]	49	3	4	5	1	2	1	3	2	1	836	1	1	1	1340	4	1318	OPIUM	hagel	zentimeter	millimeter	meile	hagel	meter	19	1	1	1	1	ERZIEHUNGSWISSENSCHAFT
FAUST_1[2014-06]	49	3	9	5	1	1	1	3	2	1	890	1	1	1	1945	4	1127	ROUGE	baracke	schuppen	blockhaus	leinen	hütte	baracke	19	1	1	1	1	ERZIEHUNGSWISSENSCHAFT
FAUST_1[2014-06]	49	3	29	5	1	2	1	3	2	1	891	2	2	1	1911	4	873	TENNIS	fluss	bohnen	blumenkohl	karotten	fluss	spinat	19	1	1	1	1	ERZIEHUNGSWISSENSCHAFT
FAUST_1[2014-06]	49	3	27	5	1	1	1	3	2	1	1308	2	2	1	1405	4	845	MEISE	weide	buche	eiche	tanne	schütze	tanne	19	1	1	1	1	ERZIEHUNGSWISSENSCHAFT
FAUST_1[2014-06]	49	3	11	5	1	2	1	3	2	1	863	2	2	1	1429	4	1283	BEETHOVEN	adjektiv	filzstift	adverb	filzstift	verb	nomen	19	1	1	1	1	ERZIEHUNGSWISSENSCHAFT
FAUST_1[2014-06]	49	2	16	5	3	1	1	1	1	1	1080	2	2	1	1165	4	1417	iceskates_5.bmp	doorknob_17.bmp	doorknob_14.bmp	iceskates_5.bmp	doorknob_14.bmp	doorknob_7.bmp	doorknob_2.bmp	19	1	1	1	1	ERZIEHUNGSWISSENSCHAFT
FAUST_1[2014-06]	49	2	30	5	3	2	1	1	1	1	1249	2	2	1	1572	3	732	chair_5.bmp	chair_5.bmp	leatherman_2.bmp	leatherman_7.bmp	chair_5.bmp	leatherman_14.bmp	leatherman_10.bmp	19	1	1	1	1	ERZIEHUNGSWISSENSCHAFT
FAUST_1[2014-06]	49	2	19	5	3	1	2	1	1	1	1279	2	2	1	1100	3	745	wig_1.bmp	hairbrush_7.bmp	wig_1.bmp	wig_12.bmp	wig_6.bmp	hairbrush_7.bmp	wig_9.bmp	19	1	1	1	1	ERZIEHUNGSWISSENSCHAFT
FAUST_1[2014-06]	49	2	22	5	3	2	2	1	1	1	1905	2	2	1	2140	2	3765	rollerskates_2.bmp	rollerskates_17.bmp	rollerskates_2.bmp	rollerskates_7.bmp	rollerskates_5.bmp	rollerskates_2.bmp	doorknocker_4.bmp	19	1	1	1	1	ERZIEHUNGSWISSENSCHAFT
FAUST_1[2014-06]	49	2	23	5	3	1	1	1	1	1	941	1	1	1	1166	4	1371	flashlight_13.bmp	glove_8.bmp	glove_5.bmp	glove_10.bmp	flashlight_13.bmp	glove_15.bmp	glove_8.bmp	19	1	1	1	1	ERZIEHUNGSWISSENSCHAFT
FAUST_1[2014-06]	49	2	31	5	3	2	1	1	1	1	1248	2	2	1	1077	3	716	pasta_13.bmp	tricycle_5.bmp	tricycle_15.bmp	pasta_13.bmp	tricycle_2.bmp	pasta_13.bmp	tricycle_8.bmp	19	1	1	1	1	ERZIEHUNGSWISSENSCHAFT
FAUST_1[2014-06]	49	2	21	5	3	1	2	1	1	1	727	2	2	1	1788	4	1049	cake_4.bmp	abacus_7.bmp	cake_3.bmp	abacus_7.bmp	cake_5.bmp	cake_14.bmp	cake_4.bmp	19	1	1	1	1	ERZIEHUNGSWISSENSCHAFT
FAUST_1[2014-06]	49	2	4	5	3	2	2	1	1	1	892	2	2	1	1590	4	1052	easteregg_17.bmp	videogamecontroller_2.bmp	easteregg_14.bmp	easteregg_17.bmp	easteregg_9.bmp	easteregg_17.bmp	easteregg_5.bmp	19	1	1	1	1	ERZIEHUNGSWISSENSCHAFT
FAUST_1[2014-06]	49	2	5	5	3	1	1	1	1	1	1606	1	2	0	1686	4	1431	scooter_5.bmp	printer_1.bmp	scooter_5.bmp	printer_16.bmp	printer_14.bmp	printer_1.bmp	printer_3.bmp	19	1	1	1	1	ERZIEHUNGSWISSENSCHAFT
FAUST_1[2014-06]	49	2	6	5	3	2	1	1	1	1	1195	2	2	1	975	4	569	ring_15.bmp	glasses_8.bmp	ring_15.bmp	glasses_9.bmp	ring_15.bmp	glasses_15.bmp	glasses_13.bmp	19	1	1	1	1	ERZIEHUNGSWISSENSCHAFT
FAUST_1[2014-06]	49	2	2	5	3	1	2	1	1	1	1182	2	2	1	1824	4	1102	birdhouse_9.bmp	cellphone_3.bmp	birdhouse_7.bmp	birdhouse_11.bmp	birdhouse_9.bmp	birdhouse_14.bmp	cellphone_3.bmp	19	1	1	1	1	ERZIEHUNGSWISSENSCHAFT
FAUST_1[2014-06]	49	2	25	5	3	2	2	1	1	1	998	1	1	1	2712	4	885	carriage_9.bmp	bowlingpin_11.bmp	carriage_14.bmp	carriage_12.bmp	carriage_9.bmp	carriage_2.bmp	carriage_9.bmp	19	1	1	1	1	ERZIEHUNGSWISSENSCHAFT
FAUST_1[2014-06]	49	2	11	5	3	1	1	2	1	0	1542	2	2	1	1532	3	844	guitar_7.bmp	laptop_7.bmp	laptop_16.bmp	laptop_14.bmp	laptop_10.bmp	laptop_7.bmp	guitar_8.bmp	19	1	1	1	1	ERZIEHUNGSWISSENSCHAFT
FAUST_1[2014-06]	49	2	10	5	3	2	1	2	2	1	4973	2	2	1	1714	3	875	windchime_6.bmp	carabiner_2.bmp	windchime_16.bmp	carabiner_6.bmp	windchime_16.bmp	carabiner_7.bmp	carabiner_5.bmp	19	1	1	1	1	ERZIEHUNGSWISSENSCHAFT
FAUST_1[2014-06]	49	2	3	5	3	1	2	2	1	0	837	1	1	1	1907	4	769	backpack_10.bmp	backpack_12.bmp	backpack_6.bmp	hammer_8.bmp	backpack_13.bmp	hammer_8.bmp	backpack_16.bmp	19	1	1	1	1	ERZIEHUNGSWISSENSCHAFT
FAUST_1[2014-06]	49	2	14	5	3	2	2	2	1	0	1403	2	1	0	1874	3	798	camera_3.bmp	camera_7.bmp	camera_6.bmp	camera_7.bmp	tv_7.bmp	camera_4.bmp	camera_9.bmp	19	1	1	1	1	ERZIEHUNGSWISSENSCHAFT
FAUST_1[2014-06]	49	2	24	5	3	1	1	2	2	1	1469	1	2	0	1582	2	1354	sofa_13.bmp	jacket_13.bmp	jacket_10.bmp	jacket_6.bmp	jacket_13.bmp	sofa_9.bmp	jacket_11.bmp	19	1	1	1	1	ERZIEHUNGSWISSENSCHAFT
FAUST_1[2014-06]	49	2	8	5	3	2	1	2	1	0	1925	1	2	0	2883	3	844	watergun_9.bmp	trunk_2.bmp	trunk_3.bmp	watergun_3.bmp	trunk_7.bmp	trunk_5.bmp	watergun_3.bmp	19	1	1	1	1	ERZIEHUNGSWISSENSCHAFT
FAUST_1[2014-06]	49	2	29	5	3	1	2	2	1	0	3130	1	1	1	1905	3	2955	mic_2.bmp	shredder_6.bmp	mic_5.bmp	mic_12.bmp	mic_3.bmp	shredder_6.bmp	mic_10.bmp	19	1	1	1	1	ERZIEHUNGSWISSENSCHAFT
FAUST_1[2014-06]	49	2	12	5	3	2	2	2	1	0	1328	1	1	1	1125	3	1354	horseshoe_5.bmp	horseshoe_12.bmp	horseshoe_4.bmp	horseshoe_3.bmp	cherubstatue_10.bmp	horseshoe_4.bmp	horseshoe_6.bmp	19	1	1	1	1	ERZIEHUNGSWISSENSCHAFT
FAUST_1[2014-06]	49	2	28	5	3	1	1	2	2	1	3277	2	1	0	1245	3	938	coffee_1.bmp	fan_11.bmp	fan_1.bmp	coffee_14.bmp	fan_17.bmp	fan_15.bmp	fan_1.bmp	19	1	1	1	1	ERZIEHUNGSWISSENSCHAFT
FAUST_1[2014-06]	49	2	1	5	3	2	1	2	1	0	1773	1	1	1	1225	3	2406	highchair_15.bmp	shoe_15.bmp	highchair_10.bmp	shoe_7.bmp	shoe_13.bmp	highchair_10.bmp	shoe_9.bmp	19	1	1	1	1	ERZIEHUNGSWISSENSCHAFT
FAUST_1[2014-06]	49	2	17	5	3	1	2	2	1	0	1641	1	1	1	1681	3	929	hairdryer_7.bmp	hairdryer_13.bmp	trumpet_5.bmp	hairdryer_12.bmp	hairdryer_2.bmp	trumpet_5.bmp	hairdryer_14.bmp	19	1	1	1	1	ERZIEHUNGSWISSENSCHAFT
FAUST_1[2014-06]	49	2	9	5	3	2	2	2	2	1	1085	2	2	1	930	3	1134	orifan_7.bmp	babycrib_5.bmp	orifan_6.bmp	orifan_1.bmp	orifan_14.bmp	orifan_17.bmp	orifan_6.bmp	19	1	1	1	1	ERZIEHUNGSWISSENSCHAFT
FAUST_1[2014-06]	49	2	20	5	3	1	1	3	2	1	1435	2	2	1	1456	3	1277	vase_5.bmp	cheesegrater_8.bmp	cheesegrater_15.bmp	cheesegrater_5.bmp	cheesegrater_11.bmp	cheesegrater_5.bmp	watch_6.bmp	19	1	1	1	1	ERZIEHUNGSWISSENSCHAFT
FAUST_1[2014-06]	49	2	26	5	3	2	1	3	2	1	1519	2	1	0	1714	4	1619	parfait_1.bmp	skateboard_14.bmp	skateboard_11.bmp	skateboard_3.bmp	turtle_2.bmp	skateboard_16.bmp	turtle_2.bmp	19	1	1	1	1	ERZIEHUNGSWISSENSCHAFT
FAUST_1[2014-06]	49	2	13	5	3	1	1	3	2	1	990	1	1	1	1011	3	753	speaker_15.bmp	trophy_4.bmp	socks_13.bmp	trophy_16.bmp	trophy_15.bmp	trophy_16.bmp	trophy_6.bmp	19	1	1	1	1	ERZIEHUNGSWISSENSCHAFT
FAUST_1[2014-06]	49	2	32	5	3	2	1	3	2	1	1010	1	1	1	2454	4	635	circuitboard_2.bmp	bagel_10.bmp	bagel_14.bmp	powerstrip_7.bmp	bagel_16.bmp	bagel_12.bmp	powerstrip_7.bmp	19	1	1	1	1	ERZIEHUNGSWISSENSCHAFT
FAUST_1[2014-06]	49	2	15	5	3	1	1	3	2	1	826	1	1	1	1637	4	2805	goggle_1.bmp	plant_14.bmp	lawnmower_15.bmp	plant_8.bmp	plant_14.bmp	plant_5.bmp	plant_2.bmp	19	1	1	1	1	ERZIEHUNGSWISSENSCHAFT
FAUST_1[2014-06]	49	2	27	5	3	2	1	3	2	1	924	2	2	1	1224	4	1427	cat_10.bmp	remote_2.bmp	saddle_4.bmp	remote_2.bmp	saddle_5.bmp	saddle_3.bmp	saddle_15.bmp	19	1	1	1	1	ERZIEHUNGSWISSENSCHAFT
FAUST_1[2014-06]	49	2	18	5	3	1	1	3	2	1	791	1	1	1	1496	4	1164	beanbagchair_12.bmp	rusdoll_1.bmp	rusdoll_8.bmp	rusdoll_1.bmp	saltpeppershake_12.bmp	rusdoll_5.bmp	rusdoll_6.bmp	19	1	1	1	1	ERZIEHUNGSWISSENSCHAFT
FAUST_1[2014-06]	49	2	7	5	3	2	1	3	2	1	1155	1	1	1	1302	4	930	sink_6.bmp	router_16.bmp	garbagecan_13.bmp	garbagecan_8.bmp	garbagecan_10.bmp	garbagecan_2.bmp	router_16.bmp	19	1	1	1	1	ERZIEHUNGSWISSENSCHAFT
FAUST_1[2014-06]	49	3	17	5	2	1	1	1	1	1	1523	1	1	1	2732	3	745	Fork17.bmp	Paperclip14.bmp	Paperclip4.bmp	Paperclip13.bmp	Paperclip6.bmp	Paperclip13.bmp	Fork17.bmp	19	1	1	1	1	ERZIEHUNGSWISSENSCHAFT
FAUST_1[2014-06]	49	3	11	5	2	2	1	1	1	1	4124	2	2	1	1227	3	851	Daff1.bmp	Mushroom25.bmp	Daff1.bmp	Mushroom14.bmp	Mushroom18.bmp	Daff1.bmp	Mushroom6.bmp	19	1	1	1	1	ERZIEHUNGSWISSENSCHAFT
FAUST_1[2014-06]	49	3	16	5	2	1	2	1	1	1	2887	1	1	1	2076	3	1413	Key11.bmp	Key20.bmp	Leaf10.bmp	Key13.bmp	Leaf10.bmp	Key11.bmp	Key5.bmp	19	1	1	1	1	ERZIEHUNGSWISSENSCHAFT
FAUST_1[2014-06]	49	3	7	5	2	2	2	1	1	1	1436	2	2	1	1016	4	677	Jigsaw17.bmp	Jigsaw18.bmp	Jigsaw14.bmp	Jigsaw17.bmp	Man4.bmp	Jigsaw11.bmp	Jigsaw17.bmp	19	1	1	1	1	ERZIEHUNGSWISSENSCHAFT
FAUST_1[2014-06]	49	3	3	5	2	1	1	1	1	1	1243	1	2	0	1056	3	1102	Glass4.bmp	Keys7.bmp	Glass4.bmp	Keys5.bmp	Keys9.bmp	Keys7.bmp	Keys8.bmp	19	1	1	1	1	ERZIEHUNGSWISSENSCHAFT
FAUST_1[2014-06]	49	3	22	5	2	2	1	1	1	1	829	2	2	1	1477	3	997	Tomato3.bmp	Onion14.bmp	Tomato3.bmp	Onion7.bmp	Tomato3.bmp	Onion13.bmp	Onion18.bmp	19	1	1	1	1	ERZIEHUNGSWISSENSCHAFT
FAUST_1[2014-06]	49	3	14	5	2	1	2	1	1	1	746	2	2	1	1678	3	894	Shell18.bmp	Toothbrush10.bmp	Shell18.bmp	Shell5.bmp	Shell17.bmp	Toothbrush10.bmp	Shell1.bmp	19	1	1	1	1	ERZIEHUNGSWISSENSCHAFT
FAUST_1[2014-06]	49	3	8	5	2	2	2	1	1	1	1023	1	1	1	1893	3	792	Hanger2.bmp	Hanger2.bmp	Hanger12.bmp	Hanger14.bmp	Hanger7.bmp	Swirl5.bmp	Hanger2.bmp	19	1	1	1	1	ERZIEHUNGSWISSENSCHAFT
FAUST_1[2014-06]	49	3	2	5	2	1	1	2	1	0	1021	1	1	1	1954	3	1553	Biscuit20.bmp	Pear7.bmp	Pear4.bmp	Pear15.bmp	Pear18.bmp	Biscuit4.bmp	Pear4.bmp	19	1	1	1	1	ERZIEHUNGSWISSENSCHAFT
FAUST_1[2014-06]	49	3	12	5	2	2	1	2	1	0	927	1	1	1	2075	4	776	Bun19.bmp	Feather2.bmp	Feather12.bmp	Bun12.bmp	Feather14.bmp	Bun12.bmp	Feather11.bmp	19	1	1	1	1	ERZIEHUNGSWISSENSCHAFT
FAUST_1[2014-06]	49	3	6	5	2	1	2	2	1	0	1454	2	2	1	1906	3	949	Brocolli10.bmp	Flower18.bmp	Brocolli4.bmp	Brocolli9.bmp	Brocolli19.bmp	Brocolli14.bmp	Flower18.bmp	19	1	1	1	1	ERZIEHUNGSWISSENSCHAFT
FAUST_1[2014-06]	49	3	20	5	2	2	2	2	1	0	1508	2	2	1	887	3	1854	Star2.bmp	Star17.bmp	Pen17.bmp	Star1.bmp	Star7.bmp	Star17.bmp	Star19.bmp	19	1	1	1	1	ERZIEHUNGSWISSENSCHAFT
FAUST_1[2014-06]	49	3	1	5	2	1	1	2	1	0	1145	2	2	1	1698	4	1029	Fudge15.bmp	Nut2.bmp	Fudge5.bmp	Nut18.bmp	Nut19.bmp	Nut11.bmp	Nut2.bmp	19	1	1	1	1	ERZIEHUNGSWISSENSCHAFT
FAUST_1[2014-06]	49	3	4	5	2	2	1	2	1	0	2314	1	1	1	1391	3	1508	Chilli19.bmp	Cake18.bmp	Chilli12.bmp	Cake25.bmp	Chilli12.bmp	Cake24.bmp	Cake7.bmp	19	1	1	1	1	ERZIEHUNGSWISSENSCHAFT
FAUST_1[2014-06]	49	3	18	5	2	1	2	2	1	0	839	2	2	1	2183	3	609	Sweet22.bmp	Sweet25.bmp	Car7.bmp	Sweet1.bmp	Sweet18.bmp	Car7.bmp	Sweet10.bmp	19	1	1	1	1	ERZIEHUNGSWISSENSCHAFT
FAUST_1[2014-06]	49	3	21	5	2	2	2	2	1	0	1531	1	1	1	1919	2	838	Varnish3.bmp	Varnish17.bmp	Varnish14.bmp	Varnish11.bmp	Varnish5.bmp	Scissors3.bmp	Varnish14.bmp	19	1	1	1	1	ERZIEHUNGSWISSENSCHAFT
FAUST_1[2014-06]	49	3	13	5	2	1	1	3	2	1	766	1	1	1	2424	4	1089	Holly17.bmp	String9.bmp	Hand10.bmp	String2.bmp	String12.bmp	String8.bmp	String9.bmp	19	1	1	1	1	ERZIEHUNGSWISSENSCHAFT
FAUST_1[2014-06]	49	3	15	5	2	2	1	3	2	1	685	2	2	1	860	4	1566	Stapler10.bmp	Coins8.bmp	Apple10.bmp	Coins10.bmp	Coins12.bmp	Apple10.bmp	Coins3.bmp	19	1	1	1	1	ERZIEHUNGSWISSENSCHAFT
FAUST_1[2014-06]	49	3	19	5	2	1	1	3	2	1	735	2	2	1	989	4	699	Present17.bmp	Screw13.bmp	Screw16.bmp	Screw18.bmp	Screw10.bmp	Bag4.bmp	Screw13.bmp	19	1	1	1	1	ERZIEHUNGSWISSENSCHAFT
FAUST_1[2014-06]	49	3	10	5	2	2	1	3	2	1	999	2	2	1	1345	4	867	Umbrella21.bmp	Strawberry3.bmp	Strawberry18.bmp	Candle20.bmp	Strawberry4.bmp	Candle20.bmp	Strawberry14.bmp	19	1	1	1	1	ERZIEHUNGSWISSENSCHAFT
FAUST_1[2014-06]	49	3	5	5	2	1	1	3	2	1	781	1	1	1	901	4	1185	Button18.bmp	Ginger3.bmp	Ginger17.bmp	Ginger5.bmp	Ginger15.bmp	Ginger3.bmp	Chocolate9.bmp	19	1	1	1	1	ERZIEHUNGSWISSENSCHAFT
FAUST_1[2014-06]	49	3	9	5	2	2	1	3	2	1	665	2	2	1	1403	4	947	Plug9.bmp	Lipstick9.bmp	Bracelet1.bmp	Lipstick7.bmp	Lipstick2.bmp	Lipstick15.bmp	Bracelet1.bmp	19	1	1	1	1	ERZIEHUNGSWISSENSCHAFT
FAUST_1[2014-06]	49	4	19	5	1	1	1	1	1	1	690	2	2	1	1365	4	1190	TEMPEL	backgammon	scrabble	halma	schach	tempel	schach	19	1	1	1	1	ERZIEHUNGSWISSENSCHAFT
FAUST_1[2014-06]	49	4	6	5	1	2	1	1	1	1	1558	1	1	1	1545	4	1250	POLIZIST	viereck	polizist	kreis	quadrat	dreieck	polizist	19	1	1	1	1	ERZIEHUNGSWISSENSCHAFT
FAUST_1[2014-06]	49	4	20	5	1	1	2	1	1	1	769	1	2	0	1374	4	634	GEPARD	stunde	puma	stunde	tiger	gepard	panther	19	1	1	1	1	ERZIEHUNGSWISSENSCHAFT
FAUST_1[2014-06]	49	4	16	5	1	2	2	1	1	1	870	2	2	1	1049	4	518	INTERNET	radio	internet	buch	zeitung	internet	schäferhund	19	1	1	1	1	ERZIEHUNGSWISSENSCHAFT
FAUST_1[2014-06]	49	4	31	5	1	1	1	1	1	1	3222	2	2	1	1074	2	1406	GEWEHR	gewehr	konzertsaal	zirkus	kino	theater	kino	19	1	1	1	1	ERZIEHUNGSWISSENSCHAFT
FAUST_1[2014-06]	49	4	21	5	1	2	1	1	1	1	719	1	1	1	1785	4	885	PRÄPOSITION	präposition	lila	rot	grün	präposition	gelb	19	1	1	1	1	ERZIEHUNGSWISSENSCHAFT
FAUST_1[2014-06]	49	4	4	5	1	1	2	1	1	1	833	1	1	1	968	4	626	WEIDE	weide	birke	thriller	eiche	buche	thriller	19	1	1	1	1	ERZIEHUNGSWISSENSCHAFT
FAUST_1[2014-06]	49	4	5	5	1	2	2	1	1	1	747	2	2	1	951	4	513	MATHEMATIK	physik	mathematik	biologie	mathematik	hütte	erdkunde	19	1	1	1	1	ERZIEHUNGSWISSENSCHAFT
FAUST_1[2014-06]	49	4	10	5	1	1	1	1	1	1	1008	2	2	1	2897	3	1568	BRIEFÖFFNER	scham	brieföffner	angst	trauer	ärger	scham	19	1	1	1	1	ERZIEHUNGSWISSENSCHAFT
FAUST_1[2014-06]	49	4	32	5	1	2	1	1	1	1	841	2	2	1	1878	3	1156	MARZIPAN	messer	brotmesser	löffel	marzipan	gabel	marzipan	19	1	1	1	1	ERZIEHUNGSWISSENSCHAFT
FAUST_1[2014-06]	49	4	27	5	1	1	2	1	1	1	632	1	1	1	850	4	881	MEISE	österreich	meise	fink	österreich	taube	schwalbe	19	1	1	1	1	ERZIEHUNGSWISSENSCHAFT
FAUST_1[2014-06]	49	4	8	5	1	2	2	1	1	1	771	2	2	1	1599	4	977	BAUMWOLLE	stuttgart	leinen	wolle	baumwolle	seide	baumwolle	19	1	1	1	1	ERZIEHUNGSWISSENSCHAFT
FAUST_1[2014-06]	49	4	23	5	1	1	1	2	2	1	1081	1	1	1	1060	3	690	SEHEN	mücke	riechen	biene	hummel	ameise	biene	19	1	1	1	1	ERZIEHUNGSWISSENSCHAFT
FAUST_1[2014-06]	49	4	13	5	1	2	1	2	2	1	958	2	1	0	3148	4	660	KAMERA	schiff	drucker	yacht	boot	drucker	kanu	19	1	1	1	1	ERZIEHUNGSWISSENSCHAFT
FAUST_1[2014-06]	49	4	3	5	1	1	2	2	2	1	2262	1	1	1	1816	2	1701	HOSE	bluse	rock	jacke	herz	hemd	herz	19	1	1	1	1	ERZIEHUNGSWISSENSCHAFT
FAUST_1[2014-06]	49	4	15	5	1	2	2	2	2	1	690	2	2	1	1431	4	708	CHACHACHA	tango	foxtrott	rumba	herzog	walzer	rumba	19	1	1	1	1	ERZIEHUNGSWISSENSCHAFT
FAUST_1[2014-06]	49	4	28	5	1	1	1	2	2	1	1281	2	1	0	1753	4	800	BRANDENBURG	füller	bleistift	kugelschreiber	sachsen	filzstift	füller	19	1	1	1	1	ERZIEHUNGSWISSENSCHAFT
FAUST_1[2014-06]	49	4	18	5	1	2	1	2	2	1	969	1	1	1	1027	4	923	ELBE	rhein	euro	cent	rhein	pfennig	dollar	19	1	1	1	1	ERZIEHUNGSWISSENSCHAFT
FAUST_1[2014-06]	49	4	11	5	1	1	2	2	2	1	1970	2	2	1	1857	4	687	SKIFAHREN	tennis	lidschatten	golf	schwimmen	lidschatten	fußball	19	1	1	1	1	ERZIEHUNGSWISSENSCHAFT
FAUST_1[2014-06]	49	4	7	5	1	2	2	2	1	0	1198	1	1	1	2402	3	522	NÄHNADEL	stricknadel	häkelnadel	see	stricknadel	stecknadel	sicherheitsnadel	19	1	1	1	1	ERZIEHUNGSWISSENSCHAFT
FAUST_1[2014-06]	49	4	2	5	1	1	1	2	2	1	943	1	1	1	806	4	1707	KÜCHENWAAGE	zug	fahrrad	straßenbahn	zug	taxi	nudelholz	19	1	1	1	1	ERZIEHUNGSWISSENSCHAFT
FAUST_1[2014-06]	49	4	17	5	1	2	1	2	2	1	2047	1	1	1	922	2	930	PFLAUME	birne	mozart	vivaldi	beethoven	birne	chopin	19	1	1	1	1	ERZIEHUNGSWISSENSCHAFT
FAUST_1[2014-06]	49	4	25	5	1	1	2	2	2	1	719	2	1	0	1966	4	625	KOPF	hand	handbremse	fuß	handbremse	bein	arm	19	1	1	1	1	ERZIEHUNGSWISSENSCHAFT
FAUST_1[2014-06]	49	4	9	5	1	2	2	2	1	0	697	2	2	1	1668	3	848	HERING	thunfisch	makrele	forelle	thunfisch	majoran	lachs	19	1	1	1	1	ERZIEHUNGSWISSENSCHAFT
FAUST_1[2014-06]	49	4	22	5	1	1	1	3	2	1	797	2	1	0	858	4	764	TOCHTER	tomaten	spinat	blumenkohl	spinat	lilie	bohnen	19	1	1	1	1	ERZIEHUNGSWISSENSCHAFT
FAUST_1[2014-06]	49	4	29	5	1	2	1	3	2	1	1053	2	2	1	2154	4	688	STEINBOCK	kohlenstoff	helium	wasserstoff	mercedes	stickstoff	mercedes	19	1	1	1	1	ERZIEHUNGSWISSENSCHAFT
FAUST_1[2014-06]	49	4	12	5	1	1	1	3	2	1	639	2	2	1	920	4	900	WEIZEN	trompete	klarinette	posaune	flöte	merkur	klarinette	19	1	1	1	1	ERZIEHUNGSWISSENSCHAFT
FAUST_1[2014-06]	49	4	1	5	1	2	1	3	2	1	788	2	2	1	1010	4	640	BERUFSSCHULE	stuhl	hexe	sofa	tisch	hexe	regal	19	1	1	1	1	ERZIEHUNGSWISSENSCHAFT
FAUST_1[2014-06]	49	4	30	5	1	1	1	3	2	1	758	1	2	0	1056	4	1057	SCHNEE	schreiben	hamburger	malen	schreiben	lesen	zeichnen	19	1	1	1	1	ERZIEHUNGSWISSENSCHAFT
FAUST_1[2014-06]	49	4	24	5	1	2	1	3	2	1	1006	1	2	0	1771	4	668	BECHER	benzin	rum	gin	tequila	wodka	benzin	19	1	1	1	1	ERZIEHUNGSWISSENSCHAFT
FAUST_1[2014-06]	49	4	26	5	1	1	1	3	2	1	998	1	2	0	1766	3	630	ZENTIMETER	afrika	nordamerika	südamerika	nordamerika	säge	australien	19	1	1	1	1	ERZIEHUNGSWISSENSCHAFT
FAUST_1[2014-06]	49	4	14	5	1	2	1	3	2	1	689	1	1	1	860	4	639	BRONZE	windpocken	heroin	windpocken	kokain	cannabis	opium	19	1	1	1	1	ERZIEHUNGSWISSENSCHAFT
