experiment	subject	block	trial	order	material	repeated	related	probetype	response	correct	rt	math_response	math_correctresponse	math_correct	math_rt	confidence	confidence_rt	probe	item1	item2	item3	item4	item5	item6	age	sex	handedness	color_vision	mother_tongue	occupation
FAUST_1[2014-06]	50	1	18	6	3	1	1	1	1	1	1333	1	2	0	2246	4	1163	orifan_7.bmp	shoe_7.bmp	shoe_13.bmp	shoe_17.bmp	shoe_15.bmp	shoe_17.bmp	orifan_7.bmp	18	1	1	1	1	ERZUIEHUNGSWISSENSCHAFTE
FAUST_1[2014-06]	50	1	10	6	3	2	1	1	1	1	4771	1	2	0	2236	3	1578	scooter_5.bmp	plant_5.bmp	scooter_5.bmp	plant_8.bmp	plant_2.bmp	plant_13.bmp	scooter_5.bmp	18	1	1	1	1	ERZUIEHUNGSWISSENSCHAFTE
FAUST_1[2014-06]	50	1	30	6	3	1	2	1	1	1	1707	1	1	1	2036	4	962	horseshoe_5.bmp	horseshoe_12.bmp	horseshoe_3.bmp	horseshoe_5.bmp	glasses_13.bmp	horseshoe_6.bmp	glasses_13.bmp	18	1	1	1	1	ERZUIEHUNGSWISSENSCHAFTE
FAUST_1[2014-06]	50	1	16	6	3	2	2	1	1	1	984	2	2	1	2050	4	1094	goggle_4.bmp	goggle_4.bmp	goggle_3.bmp	circuitboard_2.bmp	goggle_4.bmp	goggle_9.bmp	goggle_13.bmp	18	1	1	1	1	ERZUIEHUNGSWISSENSCHAFTE
FAUST_1[2014-06]	50	1	12	6	3	1	1	1	1	1	2010	2	1	0	2318	3	1255	sink_1.bmp	trumpet_6.bmp	trumpet_1.bmp	trumpet_5.bmp	trumpet_17.bmp	sink_1.bmp	trumpet_5.bmp	18	1	1	1	1	ERZUIEHUNGSWISSENSCHAFTE
FAUST_1[2014-06]	50	1	9	6	3	2	1	1	1	1	1285	1	1	1	2400	4	1068	shredder_7.bmp	highchair_10.bmp	shredder_7.bmp	highchair_6.bmp	highchair_3.bmp	shredder_7.bmp	highchair_15.bmp	18	1	1	1	1	ERZUIEHUNGSWISSENSCHAFTE
FAUST_1[2014-06]	50	1	7	6	3	1	2	1	1	1	2460	2	1	0	1978	4	1238	rusdoll_3.bmp	parfait_1.bmp	rusdoll_5.bmp	rusdoll_8.bmp	parfait_1.bmp	rusdoll_1.bmp	rusdoll_3.bmp	18	1	1	1	1	ERZUIEHUNGSWISSENSCHAFTE
FAUST_1[2014-06]	50	1	8	6	3	2	2	1	1	1	1375	1	1	1	2165	4	1168	bagel_12.bmp	carabiner_2.bmp	bagel_12.bmp	bagel_10.bmp	bagel_12.bmp	bagel_4.bmp	bagel_16.bmp	18	1	1	1	1	ERZUIEHUNGSWISSENSCHAFTE
FAUST_1[2014-06]	50	1	6	6	3	1	1	1	1	1	1532	1	2	0	2165	4	1337	sofa_9.bmp	pasta_13.bmp	pasta_10.bmp	pasta_13.bmp	sofa_9.bmp	pasta_15.bmp	pasta_11.bmp	18	1	1	1	1	ERZUIEHUNGSWISSENSCHAFTE
FAUST_1[2014-06]	50	1	21	6	3	2	1	1	1	1	1068	1	2	0	2119	4	1168	cake_14.bmp	cake_14.bmp	remote_11.bmp	remote_2.bmp	cake_14.bmp	remote_14.bmp	remote_13.bmp	18	1	1	1	1	ERZUIEHUNGSWISSENSCHAFTE
FAUST_1[2014-06]	50	1	14	6	3	1	2	1	1	1	1305	2	2	1	1818	4	1247	cat_5.bmp	cat_5.bmp	guitar_10.bmp	cat_10.bmp	cat_9.bmp	cat_4.bmp	guitar_10.bmp	18	1	1	1	1	ERZUIEHUNGSWISSENSCHAFTE
FAUST_1[2014-06]	50	1	22	6	3	2	2	1	1	1	756	2	2	1	1980	4	947	lawnmower_13.bmp	lawnmower_13.bmp	glove_15.bmp	lawnmower_17.bmp	lawnmower_13.bmp	lawnmower_8.bmp	lawnmower_3.bmp	18	1	1	1	1	ERZUIEHUNGSWISSENSCHAFTE
FAUST_1[2014-06]	50	1	13	6	3	1	1	2	1	0	1547	2	2	1	2198	3	1729	backpack_10.bmp	backpack_12.bmp	videogamecontroller_3.bmp	videogamecontroller_2.bmp	videogamecontroller_3.bmp	videogamecontroller_13.bmp	videogamecontroller_11.bmp	18	1	1	1	1	ERZUIEHUNGSWISSENSCHAFTE
FAUST_1[2014-06]	50	1	23	6	3	2	1	2	2	1	1135	1	2	0	1951	4	1906	watergun_9.bmp	wig_9.bmp	wig_1.bmp	watergun_15.bmp	wig_12.bmp	wig_7.bmp	watergun_15.bmp	18	1	1	1	1	ERZUIEHUNGSWISSENSCHAFTE
FAUST_1[2014-06]	50	1	28	6	3	1	2	2	1	0	1416	1	1	1	1775	4	1228	flashlight_17.bmp	flashlight_1.bmp	flashlight_12.bmp	saltpeppershake_12.bmp	flashlight_2.bmp	saltpeppershake_12.bmp	flashlight_13.bmp	18	1	1	1	1	ERZUIEHUNGSWISSENSCHAFTE
FAUST_1[2014-06]	50	1	4	6	3	2	2	2	1	0	2006	2	2	1	1844	3	1923	tricycle_2.bmp	tricycle_15.bmp	tricycle_5.bmp	tricycle_10.bmp	beanbagchair_15.bmp	tricycle_8.bmp	tricycle_15.bmp	18	1	1	1	1	ERZUIEHUNGSWISSENSCHAFTE
FAUST_1[2014-06]	50	1	5	6	3	1	1	2	1	0	1517	1	1	1	1956	4	1796	hairbrush_16.bmp	fan_15.bmp	fan_10.bmp	fan_17.bmp	hairbrush_15.bmp	fan_1.bmp	fan_17.bmp	18	1	1	1	1	ERZUIEHUNGSWISSENSCHAFTE
FAUST_1[2014-06]	50	1	32	6	3	2	1	2	2	1	5043	1	1	1	1989	3	1218	ring_8.bmp	ring_12.bmp	doorknob_2.bmp	ring_12.bmp	doorknob_10.bmp	doorknob_17.bmp	doorknob_14.bmp	18	1	1	1	1	ERZUIEHUNGSWISSENSCHAFTE
FAUST_1[2014-06]	50	1	20	6	3	1	2	2	1	0	1182	2	1	0	2113	3	1567	abacus_7.bmp	abacus_6.bmp	abacus_2.bmp	windchime_15.bmp	abacus_4.bmp	abacus_15.bmp	windchime_15.bmp	18	1	1	1	1	ERZUIEHUNGSWISSENSCHAFTE
FAUST_1[2014-06]	50	1	15	6	3	2	2	2	1	0	2650	2	1	0	1868	4	1534	iceskates_14.bmp	iceskates_16.bmp	trophy_14.bmp	iceskates_7.bmp	iceskates_16.bmp	iceskates_5.bmp	iceskates_9.bmp	18	1	1	1	1	ERZUIEHUNGSWISSENSCHAFTE
FAUST_1[2014-06]	50	1	3	6	3	1	1	2	2	1	2280	1	1	1	1916	3	2595	babycrib_5.bmp	birdhouse_11.bmp	birdhouse_7.bmp	birdhouse_9.bmp	babycrib_9.bmp	birdhouse_14.bmp	birdhouse_11.bmp	18	1	1	1	1	ERZUIEHUNGSWISSENSCHAFTE
FAUST_1[2014-06]	50	1	19	6	3	2	1	2	2	1	2113	2	1	0	3078	3	2227	tv_5.bmp	tv_8.bmp	jacket_11.bmp	jacket_10.bmp	jacket_6.bmp	jacket_7.bmp	tv_8.bmp	18	1	1	1	1	ERZUIEHUNGSWISSENSCHAFTE
FAUST_1[2014-06]	50	1	11	6	3	1	2	2	1	0	2825	2	1	0	2106	4	2002	laptop_16.bmp	laptop_15.bmp	laptop_14.bmp	carriage_3.bmp	laptop_10.bmp	laptop_7.bmp	carriage_3.bmp	18	1	1	1	1	ERZUIEHUNGSWISSENSCHAFTE
FAUST_1[2014-06]	50	1	29	6	3	2	2	2	1	0	956	2	2	1	1802	4	1460	trunk_7.bmp	trunk_5.bmp	trunk_1.bmp	trunk_3.bmp	garbagecan_17.bmp	trunk_3.bmp	trunk_2.bmp	18	1	1	1	1	ERZUIEHUNGSWISSENSCHAFTE
FAUST_1[2014-06]	50	1	25	6	3	1	1	3	2	1	924	1	2	0	1436	3	2256	speaker_6.bmp	leatherman_5.bmp	leatherman_14.bmp	leatherman_2.bmp	leatherman_7.bmp	turtle_11.bmp	leatherman_14.bmp	18	1	1	1	1	ERZUIEHUNGSWISSENSCHAFTE
FAUST_1[2014-06]	50	1	2	6	3	2	1	3	1	0	5067	1	2	0	2382	1	2717	camera_7.bmp	rollerskates_7.bmp	rollerskates_2.bmp	easteregg_16.bmp	rollerskates_17.bmp	rollerskates_5.bmp	easteregg_16.bmp	18	1	1	1	1	ERZUIEHUNGSWISSENSCHAFTE
FAUST_1[2014-06]	50	1	27	6	3	1	1	3	2	1	1476	1	1	1	1395	4	1859	bowlingpin_13.bmp	mic_2.bmp	mic_10.bmp	cherubstatue_10.bmp	mic_5.bmp	mic_3.bmp	mic_10.bmp	18	1	1	1	1	ERZUIEHUNGSWISSENSCHAFTE
FAUST_1[2014-06]	50	1	26	6	3	2	1	3	2	1	1086	1	2	0	1883	4	1373	hairdryer_2.bmp	cheesegrater_5.bmp	cellphone_12.bmp	cellphone_8.bmp	cheesegrater_5.bmp	cellphone_11.bmp	cellphone_3.bmp	18	1	1	1	1	ERZUIEHUNGSWISSENSCHAFTE
FAUST_1[2014-06]	50	1	1	6	3	1	1	3	2	1	2038	1	2	0	2739	3	2293	saddle_3.bmp	watch_6.bmp	watch_3.bmp	skateboard_11.bmp	watch_6.bmp	watch_7.bmp	watch_8.bmp	18	1	1	1	1	ERZUIEHUNGSWISSENSCHAFTE
FAUST_1[2014-06]	50	1	17	6	3	2	1	3	2	1	1762	1	1	1	2331	3	2008	socks_12.bmp	printer_3.bmp	hammer_6.bmp	hammer_17.bmp	printer_3.bmp	hammer_15.bmp	hammer_8.bmp	18	1	1	1	1	ERZUIEHUNGSWISSENSCHAFTE
FAUST_1[2014-06]	50	1	24	6	3	1	1	3	2	1	1304	1	1	1	1609	3	1167	router_12.bmp	chair_16.bmp	chair_5.bmp	chair_2.bmp	chair_11.bmp	chair_16.bmp	powerstrip_7.bmp	18	1	1	1	1	ERZUIEHUNGSWISSENSCHAFTE
FAUST_1[2014-06]	50	1	31	6	3	2	1	3	2	1	1071	1	1	1	1467	4	1005	doorknocker_14.bmp	coffee_7.bmp	vase_5.bmp	coffee_7.bmp	vase_1.bmp	vase_15.bmp	vase_6.bmp	18	1	1	1	1	ERZUIEHUNGSWISSENSCHAFTE
FAUST_1[2014-06]	50	2	13	6	1	1	1	1	1	1	1012	1	2	0	2497	3	1080	HANNOVER	hannover	freude	angst	trauer	ärger	angst	18	1	1	1	1	ERZUIEHUNGSWISSENSCHAFTE
FAUST_1[2014-06]	50	2	26	6	1	2	1	1	1	1	743	2	1	0	1320	4	1108	TULPE	kugelschreiber	tulpe	filzstift	füller	bleistift	tulpe	18	1	1	1	1	ERZUIEHUNGSWISSENSCHAFTE
FAUST_1[2014-06]	50	2	17	6	1	1	2	1	1	1	1076	2	1	0	1370	4	1098	LENKRAD	lenkrad	präposition	rückspiegel	präposition	handbremse	kupplung	18	1	1	1	1	ERZUIEHUNGSWISSENSCHAFTE
FAUST_1[2014-06]	50	2	22	6	1	2	2	1	1	1	1383	2	2	1	1112	4	799	SONNENSCHEIN	sonnenschein	hagel	schnee	australien	nebel	sonnenschein	18	1	1	1	1	ERZUIEHUNGSWISSENSCHAFTE
FAUST_1[2014-06]	50	2	30	6	1	1	1	1	1	1	904	1	1	1	1388	4	961	PIZZA	roggen	pizza	roggen	hafer	weizen	gerste	18	1	1	1	1	ERZUIEHUNGSWISSENSCHAFTE
FAUST_1[2014-06]	50	2	1	6	1	2	1	1	1	1	2555	2	1	0	3143	1	1623	BLAU	blau	chopin	mozart	blau	vivaldi	beethoven	18	1	1	1	1	ERZUIEHUNGSWISSENSCHAFTE
FAUST_1[2014-06]	50	2	28	6	1	1	2	1	1	1	1196	1	2	0	2208	4	761	NÄHNADEL	nähnadel	puma	stecknadel	sicherheitsnadel	stricknadel	puma	18	1	1	1	1	ERZUIEHUNGSWISSENSCHAFTE
FAUST_1[2014-06]	50	2	25	6	1	2	2	1	1	1	1287	2	1	0	2227	4	849	PORSCHE	mercedes	hauptschule	porsche	peugeot	volvo	porsche	18	1	1	1	1	ERZUIEHUNGSWISSENSCHAFTE
FAUST_1[2014-06]	50	2	19	6	1	1	1	1	2	0	1077	2	1	0	2834	3	1123	RIECHEN	meißel	zange	riechen	zange	säge	hammer	18	1	1	1	1	ERZUIEHUNGSWISSENSCHAFTE
FAUST_1[2014-06]	50	2	27	6	1	2	1	1	1	1	1161	1	1	1	1923	3	941	DREIECK	ameise	dreieck	wespe	dreieck	mücke	biene	18	1	1	1	1	ERZUIEHUNGSWISSENSCHAFTE
FAUST_1[2014-06]	50	2	4	6	1	1	2	1	1	1	1553	1	1	1	1567	4	1195	GIN	gin	tequila	whiskey	erdbeere	rum	erdbeere	18	1	1	1	1	ERZUIEHUNGSWISSENSCHAFTE
FAUST_1[2014-06]	50	2	11	6	1	2	2	1	1	1	1396	1	1	1	1648	3	1301	ARZT	lehrer	polizist	arzt	pfarrer	elbe	arzt	18	1	1	1	1	ERZUIEHUNGSWISSENSCHAFTE
FAUST_1[2014-06]	50	2	21	6	1	1	1	2	2	1	1014	1	1	1	1602	3	1167	MATHEMATIK	erdkunde	magen	lunge	herz	lunge	niere	18	1	1	1	1	ERZUIEHUNGSWISSENSCHAFTE
FAUST_1[2014-06]	50	2	5	6	1	2	1	2	1	0	1766	2	2	1	2430	2	967	LIPPENSTIFT	wimperntusche	amsel	wimperntusche	schwalbe	fink	taube	18	1	1	1	1	ERZUIEHUNGSWISSENSCHAFTE
FAUST_1[2014-06]	50	2	2	6	1	1	2	2	2	1	2290	1	1	1	1540	3	1767	TAXI	straßenbahn	bus	saturn	zug	saturn	fahrrad	18	1	1	1	1	ERZUIEHUNGSWISSENSCHAFTE
FAUST_1[2014-06]	50	2	16	6	1	2	2	2	2	1	1379	2	2	1	2675	3	922	BLUSE	fußball	jacke	hemd	hose	rock	jacke	18	1	1	1	1	ERZUIEHUNGSWISSENSCHAFTE
FAUST_1[2014-06]	50	2	6	6	1	1	1	2	2	1	1328	2	2	1	1266	3	1166	BLEIFREI	england	schweiz	dänemark	petroleum	dänemark	italien	18	1	1	1	1	ERZUIEHUNGSWISSENSCHAFTE
FAUST_1[2014-06]	50	2	32	6	1	2	1	2	2	1	1343	2	2	1	1789	3	1132	FLUSS	drucker	laptop	computer	ozean	mobiltelefon	ozean	18	1	1	1	1	ERZUIEHUNGSWISSENSCHAFTE
FAUST_1[2014-06]	50	2	23	6	1	1	2	2	2	1	5153	2	1	0	2287	1	1095	TOMATEN	makrele	karotten	bohnen	blumenkohl	spinat	makrele	18	1	1	1	1	ERZUIEHUNGSWISSENSCHAFTE
FAUST_1[2014-06]	50	2	15	6	1	2	2	2	1	0	1305	1	2	0	1101	3	1265	SEIDE	baumwolle	wolle	fernsehen	flanell	leinen	wolle	18	1	1	1	1	ERZUIEHUNGSWISSENSCHAFTE
FAUST_1[2014-06]	50	2	9	6	1	1	1	2	2	1	1492	1	1	1	1993	2	1423	TEELÖFFEL	zentimeter	kilometer	meile	kilometer	löffel	millimeter	18	1	1	1	1	ERZUIEHUNGSWISSENSCHAFTE
FAUST_1[2014-06]	50	2	24	6	1	2	1	2	2	1	1409	1	1	1	1740	4	1038	SCHÄFERHUND	mops	hessen	saarland	mops	thüringen	sachsen	18	1	1	1	1	ERZUIEHUNGSWISSENSCHAFTE
FAUST_1[2014-06]	50	2	29	6	1	1	2	2	1	0	1435	1	1	1	1512	3	1025	SCHUPPEN	euro	blockhaus	baracke	euro	hütte	scheune	18	1	1	1	1	ERZUIEHUNGSWISSENSCHAFTE
FAUST_1[2014-06]	50	2	10	6	1	2	2	2	1	0	1706	1	1	1	1785	3	1222	KANNE	becher	flasche	karaffe	glas	schach	flasche	18	1	1	1	1	ERZUIEHUNGSWISSENSCHAFTE
FAUST_1[2014-06]	50	2	18	6	1	1	1	3	2	1	1261	2	2	1	2446	2	1082	HERZOG	thriller	western	komödie	flöte	komödie	actionfilm	18	1	1	1	1	ERZUIEHUNGSWISSENSCHAFTE
FAUST_1[2014-06]	50	2	20	6	1	2	1	3	2	1	1191	1	2	0	1581	3	1396	ONKEL	fuß	kopf	windpocken	bein	windpocken	arm	18	1	1	1	1	ERZUIEHUNGSWISSENSCHAFTE
FAUST_1[2014-06]	50	2	31	6	1	1	1	3	2	1	1076	1	1	1	1899	3	1603	OREGANO	konzertsaal	theater	oper	bonbons	theater	kino	18	1	1	1	1	ERZUIEHUNGSWISSENSCHAFTE
FAUST_1[2014-06]	50	2	14	6	1	2	1	3	2	1	1742	1	2	0	1312	2	1450	DOLCH	tempel	kapelle	synagoge	brieföffner	moschee	brieföffner	18	1	1	1	1	ERZUIEHUNGSWISSENSCHAFTE
FAUST_1[2014-06]	50	2	12	6	1	1	1	3	2	1	973	2	2	1	1462	3	870	SILBER	tanne	weide	birke	buche	weide	regal	18	1	1	1	1	ERZUIEHUNGSWISSENSCHAFTE
FAUST_1[2014-06]	50	2	7	6	1	2	1	3	2	1	1295	1	1	1	2214	4	1178	LESEN	schütze	jungfrau	jahr	steinbock	wassermann	jahr	18	1	1	1	1	ERZUIEHUNGSWISSENSCHAFTE
FAUST_1[2014-06]	50	2	8	6	1	1	1	3	2	1	1403	2	1	0	2207	3	1078	HEROIN	backform	küchenwaage	nudelholz	backform	pfannenwender	hexe	18	1	1	1	1	ERZUIEHUNGSWISSENSCHAFTE
FAUST_1[2014-06]	50	2	3	6	1	2	1	3	2	1	3015	2	2	1	1916	2	1295	HELIUM	boot	chachacha	foxtrott	boot	walzer	tango	18	1	1	1	1	ERZUIEHUNGSWISSENSCHAFTE
FAUST_1[2014-06]	50	3	14	6	2	1	1	1	1	1	915	1	2	0	2346	4	1412	Onion18.bmp	Chocolate9.bmp	Chocolate5.bmp	Chocolate24.bmp	Onion18.bmp	Chocolate17.bmp	Chocolate9.bmp	18	1	1	1	1	ERZUIEHUNGSWISSENSCHAFTE
FAUST_1[2014-06]	50	3	22	6	2	2	1	1	1	1	1260	1	2	0	1650	3	1712	Fork9.bmp	Strawberry3.bmp	Fork9.bmp	Strawberry18.bmp	Fork9.bmp	Strawberry21.bmp	Strawberry14.bmp	18	1	1	1	1	ERZUIEHUNGSWISSENSCHAFTE
FAUST_1[2014-06]	50	3	4	6	2	1	2	1	1	1	854	2	2	1	1495	4	1261	Star19.bmp	Star7.bmp	Star1.bmp	Lipstick9.bmp	Star19.bmp	Lipstick9.bmp	Star17.bmp	18	1	1	1	1	ERZUIEHUNGSWISSENSCHAFTE
FAUST_1[2014-06]	50	3	19	6	2	2	2	1	1	1	1516	2	1	0	1860	4	1357	Man10.bmp	Man24.bmp	Man10.bmp	Man2.bmp	Feather2.bmp	Man4.bmp	Man10.bmp	18	1	1	1	1	ERZUIEHUNGSWISSENSCHAFTE
FAUST_1[2014-06]	50	3	1	6	2	1	1	1	1	1	1338	2	1	0	1729	4	2456	Ginger5.bmp	Flower17.bmp	Flower18.bmp	Flower13.bmp	Ginger5.bmp	Flower14.bmp	Flower17.bmp	18	1	1	1	1	ERZUIEHUNGSWISSENSCHAFTE
FAUST_1[2014-06]	50	3	18	6	2	2	1	1	1	1	1125	2	2	1	1405	4	1311	Bracelet8.bmp	Bracelet8.bmp	Umbrella6.bmp	Bracelet8.bmp	Umbrella21.bmp	Umbrella17.bmp	Umbrella7.bmp	18	1	1	1	1	ERZUIEHUNGSWISSENSCHAFTE
FAUST_1[2014-06]	50	3	2	6	2	1	2	1	1	1	891	1	1	1	1216	4	1199	Car21.bmp	Car21.bmp	Fudge5.bmp	Car14.bmp	Fudge5.bmp	Car12.bmp	Car7.bmp	18	1	1	1	1	ERZUIEHUNGSWISSENSCHAFTE
FAUST_1[2014-06]	50	3	7	6	2	2	2	1	1	1	1061	2	2	1	2315	4	1310	Paperclip13.bmp	Paperclip9.bmp	Paperclip4.bmp	Paperclip13.bmp	Paperclip14.bmp	Paperclip13.bmp	Glass19.bmp	18	1	1	1	1	ERZUIEHUNGSWISSENSCHAFTE
FAUST_1[2014-06]	50	3	11	6	2	1	1	2	2	1	1119	1	1	1	1585	3	1165	Pen1.bmp	Pen10.bmp	Tomato18.bmp	Tomato12.bmp	Tomato3.bmp	Tomato12.bmp	Tomato2.bmp	18	1	1	1	1	ERZUIEHUNGSWISSENSCHAFTE
FAUST_1[2014-06]	50	3	17	6	2	2	1	2	2	1	1109	1	2	0	2259	3	1526	Scissors1.bmp	Present17.bmp	Present9.bmp	Scissors11.bmp	Present14.bmp	Scissors11.bmp	Present2.bmp	18	1	1	1	1	ERZUIEHUNGSWISSENSCHAFTE
FAUST_1[2014-06]	50	3	16	6	2	1	2	2	1	0	771	1	1	1	1347	4	1462	Daff3.bmp	Daff22.bmp	Button10.bmp	Daff21.bmp	Button10.bmp	Daff1.bmp	Daff9.bmp	18	1	1	1	1	ERZUIEHUNGSWISSENSCHAFTE
FAUST_1[2014-06]	50	3	12	6	2	2	2	2	2	1	2860	1	1	1	1564	2	1624	Coins8.bmp	Screw18.bmp	Coins10.bmp	Coins12.bmp	Coins14.bmp	Coins3.bmp	Coins12.bmp	18	1	1	1	1	ERZUIEHUNGSWISSENSCHAFTE
FAUST_1[2014-06]	50	3	8	6	2	1	1	2	1	0	841	1	2	0	2124	4	1274	Pear7.bmp	Hand1.bmp	Hand8.bmp	Hand1.bmp	Pear15.bmp	Hand17.bmp	Hand10.bmp	18	1	1	1	1	ERZUIEHUNGSWISSENSCHAFTE
FAUST_1[2014-06]	50	3	21	6	2	2	1	2	1	0	1203	1	1	1	1518	3	1585	Biscuit4.bmp	Biscuit25.bmp	Holly3.bmp	Holly11.bmp	Holly17.bmp	Holly20.bmp	Biscuit25.bmp	18	1	1	1	1	ERZUIEHUNGSWISSENSCHAFTE
FAUST_1[2014-06]	50	3	10	6	2	1	2	2	1	0	1038	1	1	1	1812	4	1109	Keys9.bmp	Bun12.bmp	Keys8.bmp	Keys5.bmp	Keys6.bmp	Keys7.bmp	Bun12.bmp	18	1	1	1	1	ERZUIEHUNGSWISSENSCHAFTE
FAUST_1[2014-06]	50	3	9	6	2	2	2	2	1	0	765	1	2	0	1901	3	1983	Nut19.bmp	Nut21.bmp	Nut18.bmp	Nut21.bmp	Plug6.bmp	Nut11.bmp	Nut2.bmp	18	1	1	1	1	ERZUIEHUNGSWISSENSCHAFTE
FAUST_1[2014-06]	50	3	20	6	2	1	1	3	2	1	902	2	2	1	1510	4	1709	Candle10.bmp	Mushroom7.bmp	Chilli19.bmp	Mushroom14.bmp	Mushroom18.bmp	Mushroom14.bmp	Mushroom25.bmp	18	1	1	1	1	ERZUIEHUNGSWISSENSCHAFTE
FAUST_1[2014-06]	50	3	13	6	2	2	1	3	2	1	849	1	1	1	1485	4	1946	Stapler6.bmp	Leaf10.bmp	Leaf15.bmp	Leaf21.bmp	Sweet1.bmp	Leaf13.bmp	Sweet1.bmp	18	1	1	1	1	ERZUIEHUNGSWISSENSCHAFTE
FAUST_1[2014-06]	50	3	5	6	2	1	1	3	2	1	1135	2	2	1	1699	4	1200	String9.bmp	Shell1.bmp	Shell17.bmp	Shell9.bmp	Cake7.bmp	Shell9.bmp	Shell18.bmp	18	1	1	1	1	ERZUIEHUNGSWISSENSCHAFTE
FAUST_1[2014-06]	50	3	3	6	2	2	1	3	2	1	2174	1	1	1	2354	3	1588	Key20.bmp	Apple21.bmp	Bag3.bmp	Apple5.bmp	Apple10.bmp	Bag3.bmp	Apple24.bmp	18	1	1	1	1	ERZUIEHUNGSWISSENSCHAFTE
FAUST_1[2014-06]	50	3	6	6	2	1	1	3	2	1	1214	1	1	1	1855	3	1991	Brocolli19.bmp	Jigsaw10.bmp	Swirl5.bmp	Swirl1.bmp	Swirl23.bmp	Swirl13.bmp	Swirl23.bmp	18	1	1	1	1	ERZUIEHUNGSWISSENSCHAFTE
FAUST_1[2014-06]	50	3	15	6	2	2	1	3	2	1	2204	1	2	0	1952	4	1421	Hanger15.bmp	Toothbrush6.bmp	Varnish3.bmp	Toothbrush10.bmp	Varnish3.bmp	Toothbrush12.bmp	Toothbrush1.bmp	18	1	1	1	1	ERZUIEHUNGSWISSENSCHAFTE
FAUST_1[2014-06]	50	2	3	6	3	1	1	1	1	1	1097	2	2	1	1758	3	1131	flashlight_17.bmp	doorknob_2.bmp	doorknob_10.bmp	flashlight_17.bmp	doorknob_10.bmp	doorknob_17.bmp	doorknob_7.bmp	18	1	1	1	1	ERZUIEHUNGSWISSENSCHAFTE
FAUST_1[2014-06]	50	2	23	6	3	2	1	1	1	1	911	2	1	0	776	4	1488	glove_10.bmp	videogamecontroller_13.bmp	videogamecontroller_5.bmp	glove_10.bmp	videogamecontroller_3.bmp	videogamecontroller_11.bmp	glove_10.bmp	18	1	1	1	1	ERZUIEHUNGSWISSENSCHAFTE
FAUST_1[2014-06]	50	2	28	6	3	1	2	1	1	1	816	2	2	1	1467	4	1956	trophy_14.bmp	trophy_6.bmp	powerstrip_10.bmp	trophy_14.bmp	trophy_16.bmp	powerstrip_10.bmp	trophy_4.bmp	18	1	1	1	1	ERZUIEHUNGSWISSENSCHAFTE
FAUST_1[2014-06]	50	2	11	6	3	2	2	1	1	1	843	2	2	1	1322	4	1601	sofa_6.bmp	sofa_6.bmp	sofa_13.bmp	sofa_9.bmp	sofa_12.bmp	sofa_6.bmp	carabiner_7.bmp	18	1	1	1	1	ERZUIEHUNGSWISSENSCHAFTE
FAUST_1[2014-06]	50	2	24	6	3	1	1	1	1	1	1367	2	2	1	1361	4	1024	saltpeppershake_8.bmp	rollerskates_2.bmp	rollerskates_7.bmp	rollerskates_8.bmp	saltpeppershake_8.bmp	rollerskates_8.bmp	rollerskates_5.bmp	18	1	1	1	1	ERZUIEHUNGSWISSENSCHAFTE
FAUST_1[2014-06]	50	2	4	6	3	2	1	1	1	1	780	2	2	1	1634	4	993	shredder_1.bmp	shredder_1.bmp	goggle_3.bmp	goggle_4.bmp	goggle_13.bmp	goggle_9.bmp	shredder_1.bmp	18	1	1	1	1	ERZUIEHUNGSWISSENSCHAFTE
FAUST_1[2014-06]	50	2	7	6	3	1	2	1	1	1	843	2	1	0	1962	4	1310	remote_2.bmp	remote_13.bmp	bagel_12.bmp	remote_14.bmp	bagel_12.bmp	remote_2.bmp	remote_3.bmp	18	1	1	1	1	ERZUIEHUNGSWISSENSCHAFTE
FAUST_1[2014-06]	50	2	31	6	3	2	2	1	1	1	1039	2	2	1	1912	4	2017	horseshoe_12.bmp	horseshoe_4.bmp	horseshoe_12.bmp	horseshoe_3.bmp	cherubstatue_11.bmp	horseshoe_12.bmp	horseshoe_6.bmp	18	1	1	1	1	ERZUIEHUNGSWISSENSCHAFTE
FAUST_1[2014-06]	50	2	32	6	3	1	1	1	1	1	712	2	1	0	1656	4	1704	turtle_7.bmp	vase_5.bmp	turtle_7.bmp	vase_5.bmp	vase_6.bmp	vase_1.bmp	vase_15.bmp	18	1	1	1	1	ERZUIEHUNGSWISSENSCHAFTE
FAUST_1[2014-06]	50	2	26	6	3	2	1	1	1	1	940	1	2	0	1503	4	1280	babycrib_9.bmp	babycrib_9.bmp	birdhouse_7.bmp	birdhouse_11.bmp	birdhouse_9.bmp	babycrib_9.bmp	birdhouse_14.bmp	18	1	1	1	1	ERZUIEHUNGSWISSENSCHAFTE
FAUST_1[2014-06]	50	2	16	6	3	1	2	1	1	1	802	2	2	1	1352	4	1310	doorknocker_14.bmp	doorknocker_14.bmp	doorknocker_11.bmp	doorknocker_4.bmp	pasta_13.bmp	doorknocker_5.bmp	pasta_13.bmp	18	1	1	1	1	ERZUIEHUNGSWISSENSCHAFTE
FAUST_1[2014-06]	50	2	25	6	3	2	2	1	1	1	1996	2	1	0	754	4	1366	laptop_15.bmp	laptop_15.bmp	laptop_16.bmp	laptop_14.bmp	tricycle_5.bmp	laptop_7.bmp	laptop_15.bmp	18	1	1	1	1	ERZUIEHUNGSWISSENSCHAFTE
FAUST_1[2014-06]	50	2	17	6	3	1	1	2	1	0	999	2	1	0	1197	3	1946	saddle_5.bmp	speaker_10.bmp	speaker_4.bmp	speaker_6.bmp	saddle_8.bmp	speaker_4.bmp	speaker_15.bmp	18	1	1	1	1	ERZUIEHUNGSWISSENSCHAFTE
FAUST_1[2014-06]	50	2	2	6	3	2	1	2	1	0	669	1	1	1	1545	4	1793	bowlingpin_13.bmp	chair_3.bmp	bowlingpin_11.bmp	chair_2.bmp	chair_11.bmp	bowlingpin_11.bmp	chair_16.bmp	18	1	1	1	1	ERZUIEHUNGSWISSENSCHAFTE
FAUST_1[2014-06]	50	2	21	6	3	1	2	2	2	1	1707	1	1	1	1065	2	1966	router_6.bmp	ring_11.bmp	router_16.bmp	router_7.bmp	ring_11.bmp	router_5.bmp	router_12.bmp	18	1	1	1	1	ERZUIEHUNGSWISSENSCHAFTE
FAUST_1[2014-06]	50	2	10	6	3	2	2	2	1	0	1480	2	2	1	1570	3	1454	watergun_8.bmp	watergun_3.bmp	watergun_9.bmp	abacus_2.bmp	watergun_15.bmp	watergun_7.bmp	watergun_15.bmp	18	1	1	1	1	ERZUIEHUNGSWISSENSCHAFTE
FAUST_1[2014-06]	50	2	15	6	3	1	1	2	2	1	1651	1	1	1	1144	4	1292	cat_10.bmp	lawnmower_8.bmp	lawnmower_15.bmp	lawnmower_17.bmp	lawnmower_15.bmp	lawnmower_3.bmp	cat_9.bmp	18	1	1	1	1	ERZUIEHUNGSWISSENSCHAFTE
FAUST_1[2014-06]	50	2	27	6	3	2	1	2	2	1	1124	2	2	1	689	3	1896	fan_15.bmp	fan_10.bmp	shoe_15.bmp	shoe_17.bmp	shoe_9.bmp	shoe_7.bmp	fan_10.bmp	18	1	1	1	1	ERZUIEHUNGSWISSENSCHAFTE
FAUST_1[2014-06]	50	2	6	6	3	1	2	2	2	1	860	2	2	1	1322	4	1620	tv_5.bmp	tv_8.bmp	tv_16.bmp	highchair_15.bmp	tv_4.bmp	highchair_15.bmp	tv_7.bmp	18	1	1	1	1	ERZUIEHUNGSWISSENSCHAFTE
FAUST_1[2014-06]	50	2	29	6	3	2	2	2	2	1	1065	2	1	0	960	2	1420	cheesegrater_11.bmp	cheesegrater_8.bmp	cheesegrater_15.bmp	cheesegrater_8.bmp	cheesegrater_5.bmp	cheesegrater_14.bmp	trumpet_6.bmp	18	1	1	1	1	ERZUIEHUNGSWISSENSCHAFTE
FAUST_1[2014-06]	50	2	22	6	3	1	1	2	1	0	1464	1	2	0	1714	4	1416	parfait_4.bmp	parfait_11.bmp	iceskates_9.bmp	iceskates_7.bmp	iceskates_16.bmp	iceskates_5.bmp	iceskates_7.bmp	18	1	1	1	1	ERZUIEHUNGSWISSENSCHAFTE
FAUST_1[2014-06]	50	2	13	6	3	2	1	2	2	1	976	1	1	1	1271	4	1685	beanbagchair_3.bmp	beanbagchair_17.bmp	mic_10.bmp	mic_2.bmp	mic_3.bmp	mic_12.bmp	beanbagchair_17.bmp	18	1	1	1	1	ERZUIEHUNGSWISSENSCHAFTE
FAUST_1[2014-06]	50	2	8	6	3	1	2	2	2	1	1292	1	2	0	1169	2	1229	leatherman_2.bmp	leatherman_5.bmp	jacket_11.bmp	leatherman_14.bmp	leatherman_10.bmp	leatherman_7.bmp	jacket_11.bmp	18	1	1	1	1	ERZUIEHUNGSWISSENSCHAFTE
FAUST_1[2014-06]	50	2	19	6	3	2	2	2	1	0	773	2	2	1	1575	3	1813	windchime_3.bmp	scooter_10.bmp	windchime_15.bmp	windchime_6.bmp	windchime_10.bmp	windchime_6.bmp	windchime_16.bmp	18	1	1	1	1	ERZUIEHUNGSWISSENSCHAFTE
FAUST_1[2014-06]	50	2	14	6	3	1	1	3	2	1	747	2	1	0	2158	3	1407	camera_4.bmp	guitar_14.bmp	guitar_10.bmp	guitar_8.bmp	guitar_10.bmp	printer_16.bmp	guitar_5.bmp	18	1	1	1	1	ERZUIEHUNGSWISSENSCHAFTE
FAUST_1[2014-06]	50	2	12	6	3	2	1	3	2	1	1651	1	1	1	1490	4	1247	cellphone_3.bmp	rusdoll_8.bmp	rusdoll_5.bmp	rusdoll_1.bmp	garbagecan_13.bmp	rusdoll_3.bmp	garbagecan_13.bmp	18	1	1	1	1	ERZUIEHUNGSWISSENSCHAFTE
FAUST_1[2014-06]	50	2	1	6	3	1	1	3	2	1	868	2	2	1	1704	4	1756	hairdryer_12.bmp	hairbrush_7.bmp	trunk_7.bmp	hairbrush_12.bmp	hairbrush_7.bmp	hairbrush_17.bmp	hairbrush_15.bmp	18	1	1	1	1	ERZUIEHUNGSWISSENSCHAFTE
FAUST_1[2014-06]	50	2	18	6	3	2	1	3	2	1	948	2	2	1	2227	4	1229	backpack_12.bmp	cake_1.bmp	cake_5.bmp	cake_4.bmp	socks_12.bmp	cake_3.bmp	socks_12.bmp	18	1	1	1	1	ERZUIEHUNGSWISSENSCHAFTE
FAUST_1[2014-06]	50	2	20	6	3	1	1	3	2	1	2238	2	2	1	1026	2	1229	hammer_8.bmp	wig_6.bmp	wig_1.bmp	wig_6.bmp	wig_9.bmp	circuitboard_8.bmp	wig_12.bmp	18	1	1	1	1	ERZUIEHUNGSWISSENSCHAFTE
FAUST_1[2014-06]	50	2	30	6	3	2	1	3	2	1	2042	1	2	0	1939	2	2147	skateboard_3.bmp	watch_6.bmp	orifan_14.bmp	watch_6.bmp	orifan_17.bmp	orifan_7.bmp	orifan_6.bmp	18	1	1	1	1	ERZUIEHUNGSWISSENSCHAFTE
FAUST_1[2014-06]	50	2	9	6	3	1	1	3	2	1	2133	1	1	1	1387	4	1224	coffee_15.bmp	sink_15.bmp	sink_6.bmp	sink_10.bmp	sink_15.bmp	easteregg_17.bmp	sink_1.bmp	18	1	1	1	1	ERZUIEHUNGSWISSENSCHAFTE
FAUST_1[2014-06]	50	2	5	6	3	2	1	3	2	1	3690	1	2	0	2445	3	1366	plant_14.bmp	glasses_9.bmp	carriage_9.bmp	carriage_2.bmp	glasses_9.bmp	carriage_14.bmp	carriage_12.bmp	18	1	1	1	1	ERZUIEHUNGSWISSENSCHAFTE
FAUST_1[2014-06]	50	3	20	6	1	1	1	1	1	1	919	2	2	1	1001	4	1303	PORSCHE	porsche	hamburger	döner	hamburger	pizza	bratwurst	18	1	1	1	1	ERZUIEHUNGSWISSENSCHAFTE
FAUST_1[2014-06]	50	3	4	6	1	2	1	1	1	1	1165	2	1	0	1224	4	992	LÖFFEL	bleistift	buntstift	löffel	kugelschreiber	filzstift	löffel	18	1	1	1	1	ERZUIEHUNGSWISSENSCHAFTE
FAUST_1[2014-06]	50	3	22	6	1	1	2	1	1	1	1103	2	2	1	1754	2	1057	BLEIFREI	bleifrei	diesel	hose	petroleum	kerosin	hose	18	1	1	1	1	ERZUIEHUNGSWISSENSCHAFTE
FAUST_1[2014-06]	50	3	29	6	1	2	2	1	1	1	799	2	2	1	608	3	1720	TISCH	handbremse	tisch	schrank	tisch	stuhl	regal	18	1	1	1	1	ERZUIEHUNGSWISSENSCHAFTE
FAUST_1[2014-06]	50	3	12	6	1	1	1	1	1	1	842	2	2	1	2428	4	1142	OPIUM	terrier	dackel	opium	schäferhund	dogge	dackel	18	1	1	1	1	ERZUIEHUNGSWISSENSCHAFTE
FAUST_1[2014-06]	50	3	21	6	1	2	1	1	1	1	619	2	2	1	1584	4	1334	TEICH	rosmarin	majoran	koriander	teich	oregano	teich	18	1	1	1	1	ERZUIEHUNGSWISSENSCHAFTE
FAUST_1[2014-06]	50	3	10	6	1	1	2	1	1	1	1269	2	2	1	1583	2	1650	MOBILTELEFON	adverb	mobiltelefon	computer	laptop	drucker	adverb	18	1	1	1	1	ERZUIEHUNGSWISSENSCHAFTE
FAUST_1[2014-06]	50	3	11	6	1	2	2	1	1	1	896	1	1	1	1902	4	1473	SCRABBLE	scrabble	schach	backgammon	monopoly	scrabble	mozart	18	1	1	1	1	ERZUIEHUNGSWISSENSCHAFTE
FAUST_1[2014-06]	50	3	18	6	1	1	1	1	1	1	514	2	1	0	1409	4	1352	BIRNE	oper	zirkus	theater	birne	zirkus	konzertsaal	18	1	1	1	1	ERZUIEHUNGSWISSENSCHAFTE
FAUST_1[2014-06]	50	3	17	6	1	2	1	1	1	1	1004	2	2	1	663	4	1366	METER	cent	meter	mark	dollar	euro	meter	18	1	1	1	1	ERZUIEHUNGSWISSENSCHAFTE
FAUST_1[2014-06]	50	3	30	6	1	1	2	1	1	1	857	2	1	0	552	4	1250	VAMPIR	hering	werwolf	dämon	vampir	hering	zombie	18	1	1	1	1	ERZUIEHUNGSWISSENSCHAFTE
FAUST_1[2014-06]	50	3	6	6	1	2	2	1	1	1	1002	2	1	0	1065	4	1307	MAGEN	magen	herz	magen	leber	österreich	niere	18	1	1	1	1	ERZUIEHUNGSWISSENSCHAFTE
FAUST_1[2014-06]	50	3	1	6	1	1	1	2	2	1	808	1	2	0	1371	3	1170	WEIDE	silber	eiche	messing	gold	bronze	messing	18	1	1	1	1	ERZUIEHUNGSWISSENSCHAFTE
FAUST_1[2014-06]	50	3	31	6	1	2	1	2	1	0	2714	2	2	1	1462	1	1267	LEINEN	seide	lehrer	richter	pfarrer	seide	arzt	18	1	1	1	1	ERZUIEHUNGSWISSENSCHAFTE
FAUST_1[2014-06]	50	3	3	6	1	1	2	2	1	0	1639	1	1	1	1553	3	1363	KAPELLE	tempel	moschee	donau	synagoge	kirche	donau	18	1	1	1	1	ERZUIEHUNGSWISSENSCHAFTE
FAUST_1[2014-06]	50	3	5	6	1	2	2	2	2	1	1795	2	2	1	1570	2	1602	TAG	minute	jahr	stunde	komödie	sekunde	stunde	18	1	1	1	1	ERZUIEHUNGSWISSENSCHAFTE
FAUST_1[2014-06]	50	3	9	6	1	1	1	2	2	1	1568	1	2	0	1918	2	2410	INTERNET	wassermann	steinbock	radio	wassermann	zwilling	jungfrau	18	1	1	1	1	ERZUIEHUNGSWISSENSCHAFTE
FAUST_1[2014-06]	50	3	23	6	1	2	1	2	2	1	800	2	2	1	1225	2	1381	BRIEFÖFFNER	hummel	wespe	büroklammer	ameise	biene	büroklammer	18	1	1	1	1	ERZUIEHUNGSWISSENSCHAFTE
FAUST_1[2014-06]	50	3	32	6	1	1	2	2	2	1	1307	2	1	0	434	1	1267	VIERECK	quadrat	karamell	dreieck	karamell	rechteck	kreis	18	1	1	1	1	ERZUIEHUNGSWISSENSCHAFTE
FAUST_1[2014-06]	50	3	25	6	1	2	2	2	1	0	2245	2	2	1	1769	2	1479	BEIN	fuß	hand	kopf	fußball	fuß	arm	18	1	1	1	1	ERZUIEHUNGSWISSENSCHAFTE
FAUST_1[2014-06]	50	3	2	6	1	1	1	2	2	1	918	2	2	1	1820	2	2160	ANGST	scham	walzer	chachacha	rumba	foxtrott	rumba	18	1	1	1	1	ERZUIEHUNGSWISSENSCHAFTE
FAUST_1[2014-06]	50	3	19	6	1	2	1	2	2	1	1564	1	2	0	2019	1	1369	BOHRER	sicherheitsnadel	hammer	häkelnadel	stecknadel	nähnadel	hammer	18	1	1	1	1	ERZUIEHUNGSWISSENSCHAFTE
FAUST_1[2014-06]	50	3	8	6	1	1	2	2	2	1	1357	1	1	1	1557	2	1415	KÜCHENWAAGE	backform	nudelholz	backblech	trompete	pfannenwender	trompete	18	1	1	1	1	ERZUIEHUNGSWISSENSCHAFTE
FAUST_1[2014-06]	50	3	24	6	1	2	2	2	2	1	737	2	1	0	1018	2	1888	LESEN	malen	zeichnen	tomaten	schreiben	basteln	zeichnen	18	1	1	1	1	ERZUIEHUNGSWISSENSCHAFTE
FAUST_1[2014-06]	50	3	15	6	1	1	1	3	2	1	1080	2	2	1	996	2	1398	HERZOG	saturn	kanne	glas	becher	flasche	becher	18	1	1	1	1	ERZUIEHUNGSWISSENSCHAFTE
FAUST_1[2014-06]	50	3	28	6	1	2	1	3	2	1	1093	1	1	1	878	3	1842	WODKA	thüringen	hafer	weizen	gerste	thüringen	dinkel	18	1	1	1	1	ERZUIEHUNGSWISSENSCHAFTE
FAUST_1[2014-06]	50	3	13	6	1	1	1	3	2	1	1030	2	1	0	1061	3	1281	BARACKE	tiger	puma	tiger	gepard	panther	windpocken	18	1	1	1	1	ERZUIEHUNGSWISSENSCHAFTE
FAUST_1[2014-06]	50	3	27	6	1	2	1	3	2	1	721	2	2	1	1278	2	1824	KANU	mathematik	biologie	gymnasium	chemie	erdkunde	gymnasium	18	1	1	1	1	ERZUIEHUNGSWISSENSCHAFTE
FAUST_1[2014-06]	50	3	7	6	1	1	1	3	2	1	1633	1	2	0	2643	2	2012	BOMBE	asien	schwalbe	taube	amsel	meise	amsel	18	1	1	1	1	ERZUIEHUNGSWISSENSCHAFTE
FAUST_1[2014-06]	50	3	26	6	1	2	1	3	2	1	1066	2	1	0	1103	2	1387	VEILCHEN	bus	hagel	taxi	fahrrad	hagel	straßenbahn	18	1	1	1	1	ERZUIEHUNGSWISSENSCHAFTE
FAUST_1[2014-06]	50	3	14	6	1	1	1	3	2	1	801	2	2	1	1956	3	1735	VATER	schmecken	kohlenstoff	sehen	fühlen	hören	sehen	18	1	1	1	1	ERZUIEHUNGSWISSENSCHAFTE
FAUST_1[2014-06]	50	3	16	6	1	2	1	3	2	1	1078	1	2	0	971	2	2109	LILA	wimperntusche	lippenstift	stuttgart	kajal	stuttgart	lidschatten	18	1	1	1	1	ERZUIEHUNGSWISSENSCHAFTE
FAUST_1[2014-06]	50	4	8	6	2	1	1	1	1	1	786	2	2	1	1012	4	1994	Umbrella6.bmp	Holly17.bmp	Holly14.bmp	Holly20.bmp	Umbrella6.bmp	Holly20.bmp	Holly11.bmp	18	1	1	1	1	ERZUIEHUNGSWISSENSCHAFTE
FAUST_1[2014-06]	50	4	14	6	2	2	1	1	1	1	688	1	2	0	888	4	1564	Stapler7.bmp	Sweet18.bmp	Stapler7.bmp	Sweet22.bmp	Sweet10.bmp	Sweet1.bmp	Stapler7.bmp	18	1	1	1	1	ERZUIEHUNGSWISSENSCHAFTE
FAUST_1[2014-06]	50	4	20	6	2	1	2	1	1	1	645	2	2	1	1528	4	1721	Plug6.bmp	Plug18.bmp	Plug9.bmp	Plug6.bmp	Chocolate24.bmp	Plug4.bmp	Chocolate24.bmp	18	1	1	1	1	ERZUIEHUNGSWISSENSCHAFTE
FAUST_1[2014-06]	50	4	5	6	2	2	2	1	1	1	649	2	2	1	702	3	1825	Car21.bmp	Mushroom25.bmp	Car13.bmp	Car21.bmp	Car14.bmp	Car21.bmp	Car7.bmp	18	1	1	1	1	ERZUIEHUNGSWISSENSCHAFTE
FAUST_1[2014-06]	50	4	17	6	2	1	1	1	1	1	891	2	2	1	1492	3	1322	Coins10.bmp	Present9.bmp	Coins10.bmp	Present2.bmp	Present14.bmp	Present3.bmp	Present2.bmp	18	1	1	1	1	ERZUIEHUNGSWISSENSCHAFTE
FAUST_1[2014-06]	50	4	12	6	2	2	1	1	1	1	982	2	2	1	1174	3	2530	Hand17.bmp	Toothbrush10.bmp	Hand17.bmp	Toothbrush1.bmp	Toothbrush9.bmp	Toothbrush6.bmp	Hand17.bmp	18	1	1	1	1	ERZUIEHUNGSWISSENSCHAFTE
FAUST_1[2014-06]	50	4	22	6	2	1	2	1	1	1	1109	1	2	0	1721	3	2183	Scissors3.bmp	Scissors1.bmp	Pen20.bmp	Scissors3.bmp	Scissors23.bmp	Pen20.bmp	Scissors14.bmp	18	1	1	1	1	ERZUIEHUNGSWISSENSCHAFTE
FAUST_1[2014-06]	50	4	18	6	2	2	2	1	1	1	1248	2	1	0	455	4	919	Varnish17.bmp	Chilli11.bmp	Varnish14.bmp	Varnish17.bmp	Varnish11.bmp	Varnish5.bmp	Varnish17.bmp	18	1	1	1	1	ERZUIEHUNGSWISSENSCHAFTE
FAUST_1[2014-06]	50	4	2	6	2	1	1	2	1	0	560	1	1	1	1172	3	1708	Cake7.bmp	Biscuit17.bmp	Cake25.bmp	Biscuit9.bmp	Biscuit20.bmp	Biscuit17.bmp	Biscuit25.bmp	18	1	1	1	1	ERZUIEHUNGSWISSENSCHAFTE
FAUST_1[2014-06]	50	4	19	6	2	2	1	2	2	1	944	1	1	1	1534	4	1011	Glass4.bmp	Fork17.bmp	Glass19.bmp	Fork9.bmp	Fork8.bmp	Glass19.bmp	Fork7.bmp	18	1	1	1	1	ERZUIEHUNGSWISSENSCHAFTE
FAUST_1[2014-06]	50	4	4	6	2	1	2	2	1	0	650	2	2	1	1431	3	1980	Jigsaw18.bmp	Jigsaw11.bmp	Key5.bmp	Jigsaw17.bmp	Key5.bmp	Jigsaw10.bmp	Jigsaw14.bmp	18	1	1	1	1	ERZUIEHUNGSWISSENSCHAFTE
FAUST_1[2014-06]	50	4	11	6	2	2	2	2	1	0	1582	2	1	0	589	4	1115	Bun17.bmp	Bun22.bmp	Brocolli9.bmp	Bun12.bmp	Bun5.bmp	Bun12.bmp	Bun19.bmp	18	1	1	1	1	ERZUIEHUNGSWISSENSCHAFTE
FAUST_1[2014-06]	50	4	1	6	2	1	1	2	1	0	1325	2	1	0	646	2	1369	Button18.bmp	Ginger5.bmp	Ginger10.bmp	Ginger17.bmp	Ginger15.bmp	Button20.bmp	Ginger10.bmp	18	1	1	1	1	ERZUIEHUNGSWISSENSCHAFTE
FAUST_1[2014-06]	50	4	7	6	2	2	1	2	2	1	1003	2	2	1	1093	3	1678	Strawberry3.bmp	Bracelet8.bmp	Strawberry14.bmp	Bracelet1.bmp	Strawberry14.bmp	Bracelet2.bmp	Bracelet18.bmp	18	1	1	1	1	ERZUIEHUNGSWISSENSCHAFTE
FAUST_1[2014-06]	50	4	10	6	2	1	2	2	1	0	838	1	1	1	427	3	1331	Apple18.bmp	Apple21.bmp	Apple5.bmp	Star2.bmp	Apple24.bmp	Star2.bmp	Apple10.bmp	18	1	1	1	1	ERZUIEHUNGSWISSENSCHAFTE
FAUST_1[2014-06]	50	4	16	6	2	2	2	2	2	1	961	1	2	0	1069	3	1611	Paperclip6.bmp	Paperclip4.bmp	Paperclip14.bmp	Paperclip9.bmp	Paperclip14.bmp	Pear18.bmp	Paperclip13.bmp	18	1	1	1	1	ERZUIEHUNGSWISSENSCHAFTE
FAUST_1[2014-06]	50	4	13	6	2	1	1	3	2	1	854	1	2	0	1351	4	1521	String9.bmp	Man2.bmp	Man4.bmp	Man15.bmp	Leaf10.bmp	Man15.bmp	Man24.bmp	18	1	1	1	1	ERZUIEHUNGSWISSENSCHAFTE
FAUST_1[2014-06]	50	4	3	6	2	2	1	3	2	1	838	1	1	1	1241	3	1755	Onion19.bmp	Hanger14.bmp	Keys9.bmp	Keys6.bmp	Hanger14.bmp	Keys7.bmp	Keys8.bmp	18	1	1	1	1	ERZUIEHUNGSWISSENSCHAFTE
FAUST_1[2014-06]	50	4	9	6	2	1	1	3	2	1	795	1	1	1	778	3	1594	Flower3.bmp	Bag21.bmp	Bag3.bmp	Bag25.bmp	Bag4.bmp	Daff3.bmp	Bag4.bmp	18	1	1	1	1	ERZUIEHUNGSWISSENSCHAFTE
FAUST_1[2014-06]	50	4	21	6	2	2	1	3	2	1	683	1	1	1	1632	4	1262	Swirl5.bmp	Candle1.bmp	Feather14.bmp	Feather11.bmp	Candle1.bmp	Feather2.bmp	Feather18.bmp	18	1	1	1	1	ERZUIEHUNGSWISSENSCHAFTE
FAUST_1[2014-06]	50	4	15	6	2	1	1	3	2	1	835	2	2	1	1147	3	1662	Fudge15.bmp	Screw18.bmp	Screw16.bmp	Lipstick2.bmp	Screw9.bmp	Screw13.bmp	Screw9.bmp	18	1	1	1	1	ERZUIEHUNGSWISSENSCHAFTE
FAUST_1[2014-06]	50	4	6	6	2	2	1	3	2	1	827	1	1	1	1130	3	1676	Tomato5.bmp	Shell18.bmp	Nut2.bmp	Nut19.bmp	Nut11.bmp	Shell18.bmp	Nut18.bmp	18	1	1	1	1	ERZUIEHUNGSWISSENSCHAFTE
