experiment	subject	block	trial	order	material	repeated	related	probetype	response	correct	rt	math_response	math_correctresponse	math_correct	math_rt	confidence	confidence_rt	probe	item1	item2	item3	item4	item5	item6	age	sex	handedness	color_vision	mother_tongue	occupation
FAUST_1[2014-06]	51	1	4	1	1	1	1	1	1	1	1591	2	2	1	2253	4	2396	HAMMER	chemie	biologie	hammer	physik	chemie	erdkunde	29	2	1	1	1	SONDERPÄDAGOGIK
FAUST_1[2014-06]	51	1	24	1	1	2	1	1	1	1	1017	1	1	1	1993	4	800	TEMPEL	nudelholz	tempel	küchenwaage	backblech	pfannenwender	tempel	29	2	1	1	1	SONDERPÄDAGOGIK
FAUST_1[2014-06]	51	1	21	1	1	1	2	1	1	1	1048	2	2	1	2642	4	883	STECKNADEL	nähnadel	dogge	sicherheitsnadel	stecknadel	häkelnadel	dogge	29	2	1	1	1	SONDERPÄDAGOGIK
FAUST_1[2014-06]	51	1	31	1	1	2	2	1	1	1	1108	1	1	1	1346	4	812	HASCHISCH	opium	kokain	haschisch	apfel	haschisch	heroin	29	2	1	1	1	SONDERPÄDAGOGIK
FAUST_1[2014-06]	51	1	20	1	1	1	1	1	1	1	938	2	2	1	2133	4	1021	TULPE	tulpe	venus	merkur	jupiter	saturn	merkur	29	2	1	1	1	SONDERPÄDAGOGIK
FAUST_1[2014-06]	51	1	16	1	1	2	1	1	1	1	884	2	2	1	2780	4	1035	HÜTTE	bombe	schwert	dolch	hütte	gewehr	hütte	29	2	1	1	1	SONDERPÄDAGOGIK
FAUST_1[2014-06]	51	1	25	1	1	1	2	1	2	0	3909	2	2	1	2528	4	1028	BUNTSTIFT	bleistift	buntstift	füller	computer	filzstift	computer	29	2	1	1	1	SONDERPÄDAGOGIK
FAUST_1[2014-06]	51	1	30	1	1	2	2	1	1	1	1207	1	1	1	1405	4	881	GUMMIBÄRCHEN	gummibärchen	karamell	lakritz	karaffe	gummibärchen	marzipan	29	2	1	1	1	SONDERPÄDAGOGIK
FAUST_1[2014-06]	51	1	18	1	1	1	1	1	1	1	3583	1	1	1	2484	1	1881	BRAHMS	stuttgart	hamburg	brahms	münchen	hannover	hamburg	29	2	1	1	1	SONDERPÄDAGOGIK
FAUST_1[2014-06]	51	1	13	1	1	2	1	1	1	1	3578	1	2	0	2530	1	2225	MILLIMETER	messing	eisen	millimeter	gold	millimeter	silber	29	2	1	1	1	SONDERPÄDAGOGIK
FAUST_1[2014-06]	51	1	32	1	1	1	2	1	2	0	8541	1	2	0	2829	4	907	THYMIAN	western	rosmarin	thymian	majoran	koriander	western	29	2	1	1	1	SONDERPÄDAGOGIK
FAUST_1[2014-06]	51	1	3	1	1	2	2	1	2	0	1936	-1	2	0	0	4	1980	KOPF	bein	kopf	fuß	gesamtschule	kopf	arm	29	2	1	1	1	SONDERPÄDAGOGIK
FAUST_1[2014-06]	51	1	8	1	1	1	1	2	2	1	7228	2	2	1	2934	1	2234	SAUERSTOFF	zeitung	internet	radio	stickstoff	internet	fernsehen	29	2	1	1	1	SONDERPÄDAGOGIK
FAUST_1[2014-06]	51	1	19	1	1	2	1	2	2	1	2268	2	1	0	2487	4	1472	KANU	skifahren	schwimmen	boot	golf	boot	tennis	29	2	1	1	1	SONDERPÄDAGOGIK
FAUST_1[2014-06]	51	1	23	1	1	1	2	2	2	1	2269	2	2	1	2327	4	937	HAMBURGER	pizza	döner	lidschatten	pommes	bratwurst	lidschatten	29	2	1	1	1	SONDERPÄDAGOGIK
FAUST_1[2014-06]	51	1	10	1	1	2	2	2	2	1	1653	2	2	1	2976	4	1142	HANDBREMSE	rückspiegel	gaspedal	lenkrad	wodka	rückspiegel	kupplung	29	2	1	1	1	SONDERPÄDAGOGIK
FAUST_1[2014-06]	51	1	29	1	1	1	1	2	2	1	2663	2	2	1	2465	4	900	KAROTTEN	makrele	lachs	thunfisch	bohnen	hering	makrele	29	2	1	1	1	SONDERPÄDAGOGIK
FAUST_1[2014-06]	51	1	12	1	1	2	1	2	2	1	1428	1	1	1	2058	4	1433	POSAUNE	chachacha	flöte	tango	rumba	flöte	foxtrott	29	2	1	1	1	SONDERPÄDAGOGIK
FAUST_1[2014-06]	51	1	7	1	1	1	2	2	1	0	1470	2	1	0	2415	4	1853	VOLVO	ärger	peugeot	mercedes	ärger	porsche	audi	29	2	1	1	1	SONDERPÄDAGOGIK
FAUST_1[2014-06]	51	1	1	1	1	2	2	2	2	1	3979	1	1	1	3389	2	2202	HAFER	hexe	weizen	roggen	weizen	dinkel	gerste	29	2	1	1	1	SONDERPÄDAGOGIK
FAUST_1[2014-06]	51	1	2	1	1	1	1	2	2	1	1757	-1	2	0	0	4	2743	ZEICHNEN	ameise	mücke	biene	ameise	schreiben	wespe	29	2	1	1	1	SONDERPÄDAGOGIK
FAUST_1[2014-06]	51	1	15	1	1	2	1	2	2	1	1262	2	2	1	2383	4	1030	JUNGFRAU	schütze	herz	lunge	niere	leber	schütze	29	2	1	1	1	SONDERPÄDAGOGIK
FAUST_1[2014-06]	51	1	14	1	1	1	2	2	1	0	1158	1	1	1	1858	4	1111	THEATER	oper	brieföffner	konzertsaal	kino	brieföffner	zirkus	29	2	1	1	1	SONDERPÄDAGOGIK
FAUST_1[2014-06]	51	1	11	1	1	2	2	2	2	1	1442	1	1	1	3276	4	1358	SCHACH	monopoly	halma	dollar	scrabble	backgammon	halma	29	2	1	1	1	SONDERPÄDAGOGIK
FAUST_1[2014-06]	51	1	5	1	1	1	1	3	2	1	1319	1	1	1	2050	4	1994	LILA	england	schweiz	dänemark	tiger	england	italien	29	2	1	1	1	SONDERPÄDAGOGIK
FAUST_1[2014-06]	51	1	22	1	1	2	1	3	2	1	5041	1	1	1	2832	1	1164	MEER	vater	sohn	main	onkel	mutter	main	29	2	1	1	1	SONDERPÄDAGOGIK
FAUST_1[2014-06]	51	1	28	1	1	1	1	3	2	1	1840	1	1	1	2481	4	1108	THÜRINGEN	röteln	mumps	masern	grippe	mumps	fürst	29	2	1	1	1	SONDERPÄDAGOGIK
FAUST_1[2014-06]	51	1	6	1	1	2	1	3	2	1	1070	1	1	1	1933	4	2169	ADJEKTIV	sekunde	meise	sekunde	fink	taube	schwalbe	29	2	1	1	1	SONDERPÄDAGOGIK
FAUST_1[2014-06]	51	1	9	1	1	1	1	3	2	1	2979	2	2	1	2457	4	1223	SOFA	afrika	hagel	sonnenschein	nebel	hagel	schnee	29	2	1	1	1	SONDERPÄDAGOGIK
FAUST_1[2014-06]	51	1	27	1	1	2	1	3	2	1	4308	2	2	1	2462	4	1096	TANNE	hose	hören	sehen	hose	schmecken	riechen	29	2	1	1	1	SONDERPÄDAGOGIK
FAUST_1[2014-06]	51	1	17	1	1	1	1	3	2	1	1768	1	1	1	1762	4	815	TEELÖFFEL	zug	seide	baumwolle	flanell	wolle	seide	29	2	1	1	1	SONDERPÄDAGOGIK
FAUST_1[2014-06]	51	1	26	1	1	2	1	3	2	1	2848	2	1	0	1763	2	1689	KREIS	polizist	diesel	bleifrei	petroleum	benzin	polizist	29	2	1	1	1	SONDERPÄDAGOGIK
FAUST_1[2014-06]	51	2	18	1	2	1	1	1	1	1	1931	2	2	1	3310	4	789	Lipstick3.bmp	Pear18.bmp	Pear16.bmp	Pear18.bmp	Pear7.bmp	Pear4.bmp	Lipstick3.bmp	29	2	1	1	1	SONDERPÄDAGOGIK
FAUST_1[2014-06]	51	2	11	1	2	2	1	1	1	1	811	2	2	1	2142	4	1007	String6.bmp	String6.bmp	Man4.bmp	Man2.bmp	Man15.bmp	Man10.bmp	String6.bmp	29	2	1	1	1	SONDERPÄDAGOGIK
FAUST_1[2014-06]	51	2	4	1	2	1	2	1	1	1	1109	2	2	1	2190	4	938	Apple10.bmp	Brocolli14.bmp	Apple24.bmp	Apple21.bmp	Apple10.bmp	Brocolli14.bmp	Apple18.bmp	29	2	1	1	1	SONDERPÄDAGOGIK
FAUST_1[2014-06]	51	2	17	1	2	2	2	1	1	1	1152	1	1	1	2017	4	1530	Jigsaw10.bmp	Jigsaw18.bmp	Jigsaw11.bmp	Jigsaw10.bmp	Jigsaw14.bmp	Keys6.bmp	Jigsaw10.bmp	29	2	1	1	1	SONDERPÄDAGOGIK
FAUST_1[2014-06]	51	2	16	1	2	1	1	1	1	1	3858	2	1	0	2528	4	728	Plug18.bmp	Glass19.bmp	Glass16.bmp	Glass12.bmp	Glass16.bmp	Glass4.bmp	Plug18.bmp	29	2	1	1	1	SONDERPÄDAGOGIK
FAUST_1[2014-06]	51	2	6	1	2	2	1	1	1	1	1311	1	1	1	2181	4	953	Swirl23.bmp	Biscuit25.bmp	Biscuit9.bmp	Biscuit4.bmp	Swirl23.bmp	Biscuit17.bmp	Swirl23.bmp	29	2	1	1	1	SONDERPÄDAGOGIK
FAUST_1[2014-06]	51	2	3	1	2	1	2	1	1	1	973	2	2	1	2751	4	753	Candle1.bmp	Candle10.bmp	Nut19.bmp	Candle1.bmp	Candle20.bmp	Nut19.bmp	Candle13.bmp	29	2	1	1	1	SONDERPÄDAGOGIK
FAUST_1[2014-06]	51	2	1	1	2	2	2	1	1	1	3187	2	2	1	2156	4	1046	Stapler6.bmp	Stapler9.bmp	Stapler6.bmp	Stapler8.bmp	Coins12.bmp	Stapler6.bmp	Stapler7.bmp	29	2	1	1	1	SONDERPÄDAGOGIK
FAUST_1[2014-06]	51	2	13	1	2	1	1	2	1	0	2153	1	1	1	1732	4	927	Bun19.bmp	Mushroom7.bmp	Mushroom25.bmp	Mushroom14.bmp	Bun5.bmp	Mushroom25.bmp	Mushroom18.bmp	29	2	1	1	1	SONDERPÄDAGOGIK
FAUST_1[2014-06]	51	2	21	1	2	2	1	2	2	1	3006	1	2	0	2449	4	1773	Cake24.bmp	Leaf10.bmp	Cake16.bmp	Leaf13.bmp	Cake16.bmp	Leaf22.bmp	Leaf21.bmp	29	2	1	1	1	SONDERPÄDAGOGIK
FAUST_1[2014-06]	51	2	9	1	2	1	2	2	1	0	3527	1	1	1	2241	4	1231	Key5.bmp	Key9.bmp	Bracelet2.bmp	Key11.bmp	Key13.bmp	Key20.bmp	Bracelet2.bmp	29	2	1	1	1	SONDERPÄDAGOGIK
FAUST_1[2014-06]	51	2	10	1	2	2	2	2	1	0	1979	2	2	1	2899	4	925	Onion7.bmp	Hanger12.bmp	Onion13.bmp	Onion14.bmp	Onion19.bmp	Onion18.bmp	Onion19.bmp	29	2	1	1	1	SONDERPÄDAGOGIK
FAUST_1[2014-06]	51	2	5	1	2	1	1	2	1	0	2181	2	2	1	2453	4	1112	Umbrella6.bmp	Chilli22.bmp	Umbrella7.bmp	Chilli14.bmp	Chilli11.bmp	Chilli12.bmp	Chilli22.bmp	29	2	1	1	1	SONDERPÄDAGOGIK
FAUST_1[2014-06]	51	2	8	1	2	2	1	2	2	1	4209	1	2	0	1185	4	935	Car7.bmp	Car12.bmp	Sweet18.bmp	Sweet10.bmp	Car12.bmp	Sweet1.bmp	Sweet22.bmp	29	2	1	1	1	SONDERPÄDAGOGIK
FAUST_1[2014-06]	51	2	12	1	2	1	2	2	1	0	1751	2	2	1	2597	4	873	Paperclip14.bmp	Paperclip6.bmp	Paperclip4.bmp	Paperclip9.bmp	Fork9.bmp	Paperclip13.bmp	Fork9.bmp	29	2	1	1	1	SONDERPÄDAGOGIK
FAUST_1[2014-06]	51	2	20	1	2	2	2	2	1	0	3194	1	1	1	1868	4	842	Scissors14.bmp	Scissors1.bmp	Scissors23.bmp	Strawberry3.bmp	Scissors11.bmp	Scissors3.bmp	Scissors23.bmp	29	2	1	1	1	SONDERPÄDAGOGIK
FAUST_1[2014-06]	51	2	19	1	2	1	1	3	2	1	2807	1	1	1	1971	4	1182	Fudge8.bmp	Toothbrush9.bmp	Toothbrush10.bmp	Shell17.bmp	Toothbrush9.bmp	Toothbrush6.bmp	Toothbrush1.bmp	29	2	1	1	1	SONDERPÄDAGOGIK
FAUST_1[2014-06]	51	2	7	1	2	2	1	3	1	0	4190	1	1	1	2477	4	1814	Feather11.bmp	Present9.bmp	Holly11.bmp	Holly17.bmp	Holly14.bmp	Present9.bmp	Holly3.bmp	29	2	1	1	1	SONDERPÄDAGOGIK
FAUST_1[2014-06]	51	2	22	1	2	1	1	3	2	1	935	1	1	1	2332	4	1062	Daff9.bmp	Bag25.bmp	Bag5.bmp	Chocolate17.bmp	Bag5.bmp	Bag21.bmp	Bag3.bmp	29	2	1	1	1	SONDERPÄDAGOGIK
FAUST_1[2014-06]	51	2	14	1	2	2	1	3	2	1	3466	1	1	1	2295	4	843	Screw10.bmp	Star1.bmp	Flower13.bmp	Star2.bmp	Flower13.bmp	Star19.bmp	Star7.bmp	29	2	1	1	1	SONDERPÄDAGOGIK
FAUST_1[2014-06]	51	2	15	1	2	1	1	3	2	1	3074	1	1	1	2385	4	1004	Varnish3.bmp	Tomato18.bmp	Tomato5.bmp	Tomato2.bmp	Tomato3.bmp	Tomato2.bmp	Hand13.bmp	29	2	1	1	1	SONDERPÄDAGOGIK
FAUST_1[2014-06]	51	2	2	1	2	2	1	3	2	1	1540	1	1	1	1435	4	1312	Button14.bmp	Pen20.bmp	Pen17.bmp	Ginger10.bmp	Pen1.bmp	Pen5.bmp	Ginger10.bmp	29	2	1	1	1	SONDERPÄDAGOGIK
FAUST_1[2014-06]	51	3	8	1	3	1	1	1	1	1	1318	1	2	0	2570	4	767	easteregg_9.bmp	cake_14.bmp	cake_1.bmp	cake_4.bmp	cake_5.bmp	cake_14.bmp	easteregg_9.bmp	29	2	1	1	1	SONDERPÄDAGOGIK
FAUST_1[2014-06]	51	3	9	1	3	2	1	1	1	1	859	1	1	1	2100	4	790	circuitboard_4.bmp	tricycle_8.bmp	tricycle_2.bmp	tricycle_10.bmp	circuitboard_4.bmp	tricycle_5.bmp	circuitboard_4.bmp	29	2	1	1	1	SONDERPÄDAGOGIK
FAUST_1[2014-06]	51	3	28	1	3	1	2	1	1	1	836	2	2	1	2753	4	1088	videogamecontroller_5.bmp	videogamecontroller_5.bmp	windchime_6.bmp	videogamecontroller_3.bmp	windchime_6.bmp	videogamecontroller_11.bmp	videogamecontroller_13.bmp	29	2	1	1	1	SONDERPÄDAGOGIK
FAUST_1[2014-06]	51	3	31	1	3	2	2	1	1	1	1155	1	1	1	1984	4	923	plant_13.bmp	plant_2.bmp	plant_14.bmp	plant_8.bmp	plant_13.bmp	beanbagchair_12.bmp	plant_13.bmp	29	2	1	1	1	SONDERPÄDAGOGIK
FAUST_1[2014-06]	51	3	11	1	3	1	1	1	1	1	1328	2	2	1	1789	4	717	shredder_1.bmp	jacket_7.bmp	jacket_13.bmp	jacket_11.bmp	jacket_13.bmp	shredder_1.bmp	jacket_10.bmp	29	2	1	1	1	SONDERPÄDAGOGIK
FAUST_1[2014-06]	51	3	25	1	3	2	1	1	1	1	1358	1	1	1	1440	4	1041	sofa_12.bmp	laptop_7.bmp	sofa_12.bmp	laptop_15.bmp	sofa_12.bmp	laptop_16.bmp	laptop_14.bmp	29	2	1	1	1	SONDERPÄDAGOGIK
FAUST_1[2014-06]	51	3	24	1	3	1	2	1	2	0	2256	2	2	1	2265	4	1072	rollerskates_5.bmp	rollerskates_8.bmp	rollerskates_17.bmp	rollerskates_2.bmp	cherubstatue_11.bmp	rollerskates_5.bmp	cherubstatue_11.bmp	29	2	1	1	1	SONDERPÄDAGOGIK
FAUST_1[2014-06]	51	3	7	1	3	2	2	1	1	1	1942	1	1	1	1427	4	1175	remote_11.bmp	remote_11.bmp	doorknob_10.bmp	remote_11.bmp	remote_3.bmp	remote_13.bmp	remote_14.bmp	29	2	1	1	1	SONDERPÄDAGOGIK
FAUST_1[2014-06]	51	3	2	1	3	1	1	1	1	1	1829	2	1	0	1482	4	921	bagel_16.bmp	ring_7.bmp	ring_8.bmp	ring_15.bmp	bagel_16.bmp	ring_12.bmp	ring_8.bmp	29	2	1	1	1	SONDERPÄDAGOGIK
FAUST_1[2014-06]	51	3	13	1	3	2	1	1	1	1	1302	2	2	1	2256	4	617	bowlingpin_4.bmp	saddle_8.bmp	bowlingpin_4.bmp	saddle_15.bmp	bowlingpin_4.bmp	saddle_3.bmp	saddle_4.bmp	29	2	1	1	1	SONDERPÄDAGOGIK
FAUST_1[2014-06]	51	3	30	1	3	1	2	1	1	1	1117	2	1	0	3158	4	844	hairbrush_17.bmp	hairbrush_7.bmp	hairbrush_17.bmp	flashlight_17.bmp	hairbrush_12.bmp	hairbrush_16.bmp	flashlight_17.bmp	29	2	1	1	1	SONDERPÄDAGOGIK
FAUST_1[2014-06]	51	3	17	1	3	2	2	1	1	1	1188	1	1	1	2383	4	1138	garbagecan_10.bmp	garbagecan_13.bmp	garbagecan_8.bmp	garbagecan_10.bmp	vase_15.bmp	garbagecan_10.bmp	garbagecan_17.bmp	29	2	1	1	1	SONDERPÄDAGOGIK
FAUST_1[2014-06]	51	3	1	1	3	1	1	2	2	1	10181	2	2	1	2188	4	968	leatherman_10.bmp	skateboard_11.bmp	skateboard_3.bmp	skateboard_11.bmp	skateboard_16.bmp	skateboard_15.bmp	leatherman_5.bmp	29	2	1	1	1	SONDERPÄDAGOGIK
FAUST_1[2014-06]	51	3	20	1	3	2	1	2	1	0	1900	2	2	1	2620	4	885	guitar_5.bmp	guitar_8.bmp	fan_15.bmp	fan_17.bmp	guitar_8.bmp	fan_10.bmp	fan_1.bmp	29	2	1	1	1	SONDERPÄDAGOGIK
FAUST_1[2014-06]	51	3	4	1	3	1	2	2	1	0	2850	2	2	1	1611	4	984	printer_3.bmp	printer_16.bmp	mic_2.bmp	printer_1.bmp	printer_5.bmp	printer_14.bmp	mic_2.bmp	29	2	1	1	1	SONDERPÄDAGOGIK
FAUST_1[2014-06]	51	3	21	1	3	2	2	2	2	1	2325	2	2	1	2424	4	1082	trophy_16.bmp	trophy_15.bmp	trophy_14.bmp	chair_2.bmp	trophy_4.bmp	trophy_6.bmp	trophy_14.bmp	29	2	1	1	1	SONDERPÄDAGOGIK
FAUST_1[2014-06]	51	3	22	1	3	1	1	2	1	0	1202	2	2	1	1805	4	992	wig_12.bmp	tv_5.bmp	tv_7.bmp	wig_9.bmp	tv_7.bmp	tv_8.bmp	tv_4.bmp	29	2	1	1	1	SONDERPÄDAGOGIK
FAUST_1[2014-06]	51	3	12	1	3	2	1	2	1	0	2361	1	1	1	1837	4	1431	trumpet_1.bmp	powerstrip_14.bmp	trumpet_6.bmp	powerstrip_13.bmp	powerstrip_8.bmp	powerstrip_10.bmp	trumpet_6.bmp	29	2	1	1	1	SONDERPÄDAGOGIK
FAUST_1[2014-06]	51	3	18	1	3	1	2	2	1	0	1626	2	2	1	2296	4	1287	cellphone_11.bmp	backpack_12.bmp	cellphone_12.bmp	backpack_12.bmp	cellphone_8.bmp	cellphone_4.bmp	cellphone_3.bmp	29	2	1	1	1	SONDERPÄDAGOGIK
FAUST_1[2014-06]	51	3	19	1	3	2	2	2	1	0	1096	2	2	1	1776	4	904	coffee_2.bmp	coffee_1.bmp	socks_10.bmp	coffee_14.bmp	coffee_7.bmp	coffee_1.bmp	coffee_15.bmp	29	2	1	1	1	SONDERPÄDAGOGIK
FAUST_1[2014-06]	51	3	32	1	3	1	1	2	1	0	1935	1	1	1	2192	4	1515	turtle_6.bmp	turtle_7.bmp	watergun_9.bmp	watergun_3.bmp	watergun_8.bmp	watergun_7.bmp	watergun_3.bmp	29	2	1	1	1	SONDERPÄDAGOGIK
FAUST_1[2014-06]	51	3	16	1	3	2	1	2	1	0	4365	2	2	1	1901	1	2610	parfait_4.bmp	parfait_13.bmp	orifan_14.bmp	orifan_17.bmp	parfait_13.bmp	orifan_7.bmp	orifan_6.bmp	29	2	1	1	1	SONDERPÄDAGOGIK
FAUST_1[2014-06]	51	3	26	1	3	1	2	2	1	0	727	1	1	1	1852	4	841	doorknocker_2.bmp	horseshoe_3.bmp	doorknocker_14.bmp	doorknocker_11.bmp	doorknocker_4.bmp	horseshoe_3.bmp	doorknocker_5.bmp	29	2	1	1	1	SONDERPÄDAGOGIK
FAUST_1[2014-06]	51	3	10	1	3	2	2	2	1	0	1696	1	1	1	2605	4	893	abacus_4.bmp	abacus_6.bmp	abacus_7.bmp	abacus_6.bmp	abacus_15.bmp	abacus_2.bmp	birdhouse_7.bmp	29	2	1	1	1	SONDERPÄDAGOGIK
FAUST_1[2014-06]	51	3	6	1	3	1	1	3	2	1	1075	1	2	0	2119	4	1014	sink_1.bmp	camera_7.bmp	carabiner_9.bmp	camera_4.bmp	camera_9.bmp	camera_4.bmp	camera_3.bmp	29	2	1	1	1	SONDERPÄDAGOGIK
FAUST_1[2014-06]	51	3	15	1	3	2	1	3	2	1	1985	2	2	1	2707	4	1403	hairdryer_2.bmp	highchair_6.bmp	router_16.bmp	router_6.bmp	router_7.bmp	router_12.bmp	highchair_6.bmp	29	2	1	1	1	SONDERPÄDAGOGIK
FAUST_1[2014-06]	51	3	23	1	3	1	1	3	2	1	844	1	1	1	2416	4	888	glove_12.bmp	saltpeppershake_9.bmp	saltpeppershake_8.bmp	saltpeppershake_2.bmp	hammer_8.bmp	saltpeppershake_12.bmp	saltpeppershake_9.bmp	29	2	1	1	1	SONDERPÄDAGOGIK
FAUST_1[2014-06]	51	3	14	1	3	2	1	3	2	1	1028	1	1	1	2595	4	1089	pasta_11.bmp	glasses_9.bmp	glasses_15.bmp	cheesegrater_11.bmp	glasses_8.bmp	cheesegrater_11.bmp	glasses_13.bmp	29	2	1	1	1	SONDERPÄDAGOGIK
FAUST_1[2014-06]	51	3	3	1	3	1	1	3	2	1	1006	1	1	1	1728	4	1110	lawnmower_17.bmp	speaker_15.bmp	speaker_10.bmp	speaker_6.bmp	speaker_15.bmp	shoe_7.bmp	speaker_17.bmp	29	2	1	1	1	SONDERPÄDAGOGIK
FAUST_1[2014-06]	51	3	5	1	3	2	1	3	2	1	1066	1	2	0	2260	4	1050	cat_9.bmp	watch_7.bmp	babycrib_6.bmp	watch_8.bmp	watch_3.bmp	watch_6.bmp	babycrib_6.bmp	29	2	1	1	1	SONDERPÄDAGOGIK
FAUST_1[2014-06]	51	3	29	1	3	1	1	3	2	1	1003	2	1	0	2489	4	1176	rusdoll_8.bmp	carriage_2.bmp	carriage_14.bmp	iceskates_7.bmp	carriage_3.bmp	carriage_9.bmp	carriage_3.bmp	29	2	1	1	1	SONDERPÄDAGOGIK
FAUST_1[2014-06]	51	3	27	1	3	2	1	3	2	1	788	1	1	1	1585	4	1047	scooter_4.bmp	goggle_9.bmp	goggle_4.bmp	trunk_2.bmp	goggle_3.bmp	goggle_1.bmp	trunk_2.bmp	29	2	1	1	1	SONDERPÄDAGOGIK
FAUST_1[2014-06]	51	2	4	1	1	1	1	1	1	1	942	2	2	1	1934	4	703	TEQUILA	venus	pluto	merkur	tequila	merkur	jupiter	29	2	1	1	1	SONDERPÄDAGOGIK
FAUST_1[2014-06]	51	2	12	1	1	2	1	1	1	1	988	2	2	1	1468	4	780	BACKGAMMON	eiche	backgammon	weide	backgammon	birke	tanne	29	2	1	1	1	SONDERPÄDAGOGIK
FAUST_1[2014-06]	51	2	11	1	1	1	2	1	1	1	899	2	2	1	2627	4	645	POMMES	dänemark	pommes	pizza	hamburger	bratwurst	dänemark	29	2	1	1	1	SONDERPÄDAGOGIK
FAUST_1[2014-06]	51	2	16	1	1	2	2	1	1	1	779	2	2	1	1973	4	1287	GERSTE	hafer	gerste	weizen	onkel	gerste	roggen	29	2	1	1	1	SONDERPÄDAGOGIK
FAUST_1[2014-06]	51	2	31	1	1	1	1	1	2	0	1773	1	1	1	2022	3	1258	THRILLER	scheune	baracke	thriller	schuppen	blockhaus	baracke	29	2	1	1	1	SONDERPÄDAGOGIK
FAUST_1[2014-06]	51	2	3	1	1	2	1	1	1	1	1182	2	1	0	2023	4	1163	MILLIMETER	millimeter	afrika	asien	millimeter	nordamerika	australien	29	2	1	1	1	SONDERPÄDAGOGIK
FAUST_1[2014-06]	51	2	9	1	1	1	2	1	1	1	1310	2	2	1	1439	2	3759	ZIRKUS	werwolf	zirkus	theater	oper	werwolf	kino	29	2	1	1	1	SONDERPÄDAGOGIK
FAUST_1[2014-06]	51	2	26	1	1	2	2	1	1	1	785	2	2	1	1282	4	726	NUDELHOLZ	nudelholz	pfannenwender	kanne	nudelholz	backform	küchenwaage	29	2	1	1	1	SONDERPÄDAGOGIK
FAUST_1[2014-06]	51	2	23	1	1	1	1	1	1	1	820	2	2	1	2560	4	763	NIERE	rot	lila	niere	lila	gelb	blau	29	2	1	1	1	SONDERPÄDAGOGIK
FAUST_1[2014-06]	51	2	6	1	1	2	1	1	1	1	975	2	2	1	1348	4	777	TULPE	apfel	banane	pflaume	tulpe	erdbeere	tulpe	29	2	1	1	1	SONDERPÄDAGOGIK
FAUST_1[2014-06]	51	2	1	1	1	1	2	1	1	1	1381	2	1	0	2158	4	960	FÄHRE	yacht	fahrrad	fähre	fahrrad	kanu	boot	29	2	1	1	1	SONDERPÄDAGOGIK
FAUST_1[2014-06]	51	2	13	1	1	2	2	1	1	1	748	2	2	1	1666	4	772	ROSMARIN	rosmarin	regen	majoran	rosmarin	thymian	koriander	29	2	1	1	1	SONDERPÄDAGOGIK
FAUST_1[2014-06]	51	2	8	1	1	1	1	2	2	1	2017	2	2	1	2384	4	959	LAKRITZ	grippe	mumps	röteln	masern	mumps	marzipan	29	2	1	1	1	SONDERPÄDAGOGIK
FAUST_1[2014-06]	51	2	28	1	1	2	1	2	2	1	1717	2	2	1	2545	4	994	KAPELLE	biene	ameise	mücke	moschee	hummel	moschee	29	2	1	1	1	SONDERPÄDAGOGIK
FAUST_1[2014-06]	51	2	15	1	1	1	2	2	1	0	1099	1	1	1	2427	4	1186	FORELLE	tennis	makrele	hering	thunfisch	tennis	lachs	29	2	1	1	1	SONDERPÄDAGOGIK
FAUST_1[2014-06]	51	2	21	1	1	2	2	2	1	0	942	2	2	1	1486	4	749	TROMPETE	flöte	oboe	posaune	berlin	klarinette	flöte	29	2	1	1	1	SONDERPÄDAGOGIK
FAUST_1[2014-06]	51	2	25	1	1	1	1	2	2	1	1222	2	1	0	2303	4	880	LINEAL	bein	arm	fuß	kopf	büroklammer	bein	29	2	1	1	1	SONDERPÄDAGOGIK
FAUST_1[2014-06]	51	2	2	1	1	2	1	2	1	0	1938	2	2	1	2308	4	909	FÜRST	herzog	hose	jacke	rock	hemd	herzog	29	2	1	1	1	SONDERPÄDAGOGIK
FAUST_1[2014-06]	51	2	27	1	1	1	2	2	2	1	1070	1	2	0	1930	4	1003	SÄGE	meißel	radio	zange	radio	hammer	bohrer	29	2	1	1	1	SONDERPÄDAGOGIK
FAUST_1[2014-06]	51	2	29	1	1	2	2	2	2	1	1662	2	2	1	1809	3	1296	KOKAIN	opium	heroin	haschisch	tiger	opium	cannabis	29	2	1	1	1	SONDERPÄDAGOGIK
FAUST_1[2014-06]	51	2	32	1	1	1	1	2	2	1	1157	2	2	1	2327	4	973	HAUPTSCHULE	mops	dogge	mops	dackel	schäferhund	gymnasium	29	2	1	1	1	SONDERPÄDAGOGIK
FAUST_1[2014-06]	51	2	14	1	1	2	1	2	1	0	831	2	2	1	1767	3	1759	MEER	zwilling	steinbock	see	wassermann	jungfrau	see	29	2	1	1	1	SONDERPÄDAGOGIK
FAUST_1[2014-06]	51	2	7	1	1	1	2	2	1	0	1347	2	2	1	2554	4	880	JAHR	füller	minute	stunde	füller	tag	sekunde	29	2	1	1	1	SONDERPÄDAGOGIK
FAUST_1[2014-06]	51	2	30	1	1	2	2	2	1	0	1193	2	2	1	2833	3	984	MEISE	taube	fink	schwalbe	saarland	amsel	taube	29	2	1	1	1	SONDERPÄDAGOGIK
FAUST_1[2014-06]	51	2	19	1	1	1	1	3	2	1	1258	1	1	1	1571	3	914	TOMATEN	schwert	pistole	angst	pistole	gewehr	bombe	29	2	1	1	1	SONDERPÄDAGOGIK
FAUST_1[2014-06]	51	2	24	1	1	2	1	3	2	1	1049	1	2	0	2230	4	1269	PFENNIG	adverb	nomen	sauerstoff	präposition	verb	sauerstoff	29	2	1	1	1	SONDERPÄDAGOGIK
FAUST_1[2014-06]	51	2	20	1	1	1	1	3	2	1	894	1	1	1	1665	4	857	HÖREN	basteln	zeichnen	schreiben	malen	basteln	kamera	29	2	1	1	1	SONDERPÄDAGOGIK
FAUST_1[2014-06]	51	2	10	1	1	2	1	3	2	1	1875	2	1	0	2347	3	1126	KREIS	schrank	baumwolle	stuhl	baumwolle	regal	sofa	29	2	1	1	1	SONDERPÄDAGOGIK
FAUST_1[2014-06]	51	2	18	1	1	1	1	3	2	1	1107	1	1	1	1730	4	934	CHACHACHA	kerosin	petroleum	bleifrei	stricknadel	benzin	kerosin	29	2	1	1	1	SONDERPÄDAGOGIK
FAUST_1[2014-06]	51	2	5	1	1	2	1	3	2	1	940	2	2	1	2701	4	851	POLIZIST	teelöffel	mathematik	teelöffel	erdkunde	biologie	chemie	29	2	1	1	1	SONDERPÄDAGOGIK
FAUST_1[2014-06]	51	2	22	1	1	1	1	3	2	1	2478	2	1	0	1496	2	1196	MESSING	volvo	peugeot	audi	beethoven	audi	mercedes	29	2	1	1	1	SONDERPÄDAGOGIK
FAUST_1[2014-06]	51	2	17	1	1	2	1	3	2	1	912	1	1	1	2781	4	1775	RÜCKSPIEGEL	wimperntusche	lippenstift	rhein	lidschatten	rhein	rouge	29	2	1	1	1	SONDERPÄDAGOGIK
FAUST_1[2014-06]	51	3	16	1	2	1	1	1	1	1	978	1	1	1	1275	4	629	Sweet18.bmp	Man4.bmp	Sweet18.bmp	Man10.bmp	Man15.bmp	Man2.bmp	Man4.bmp	29	2	1	1	1	SONDERPÄDAGOGIK
FAUST_1[2014-06]	51	3	15	1	2	2	1	1	1	1	722	2	2	1	2368	4	1210	Umbrella17.bmp	Keys5.bmp	Keys8.bmp	Keys6.bmp	Umbrella17.bmp	Keys9.bmp	Umbrella17.bmp	29	2	1	1	1	SONDERPÄDAGOGIK
FAUST_1[2014-06]	51	3	1	1	2	1	2	1	1	1	938	1	2	0	2184	4	1503	Pen20.bmp	Tomato18.bmp	Pen10.bmp	Pen5.bmp	Tomato18.bmp	Pen20.bmp	Pen17.bmp	29	2	1	1	1	SONDERPÄDAGOGIK
FAUST_1[2014-06]	51	3	20	1	2	2	2	1	1	1	1005	1	1	1	2123	4	640	Onion14.bmp	Onion14.bmp	Onion13.bmp	Nut18.bmp	Onion14.bmp	Onion7.bmp	Onion18.bmp	29	2	1	1	1	SONDERPÄDAGOGIK
FAUST_1[2014-06]	51	3	5	1	2	1	1	1	1	1	774	2	2	1	1592	4	793	Pear18.bmp	Pear18.bmp	Swirl13.bmp	Swirl10.bmp	Swirl23.bmp	Swirl5.bmp	Swirl13.bmp	29	2	1	1	1	SONDERPÄDAGOGIK
FAUST_1[2014-06]	51	3	12	1	2	2	1	1	1	1	1102	1	1	1	2563	4	1176	Strawberry3.bmp	Bun19.bmp	Bun12.bmp	Bun22.bmp	Strawberry3.bmp	Bun5.bmp	Strawberry3.bmp	29	2	1	1	1	SONDERPÄDAGOGIK
FAUST_1[2014-06]	51	3	11	1	2	1	2	1	1	1	1071	2	2	1	2314	4	1264	Flower17.bmp	Lipstick3.bmp	Flower18.bmp	Flower17.bmp	Flower14.bmp	Lipstick3.bmp	Flower13.bmp	29	2	1	1	1	SONDERPÄDAGOGIK
FAUST_1[2014-06]	51	3	6	1	2	2	2	1	1	1	741	1	2	0	2393	4	968	Mushroom25.bmp	Mushroom18.bmp	Mushroom14.bmp	Mushroom25.bmp	Mushroom7.bmp	Glass16.bmp	Mushroom25.bmp	29	2	1	1	1	SONDERPÄDAGOGIK
FAUST_1[2014-06]	51	3	7	1	2	1	1	2	1	0	1169	2	1	0	2436	4	766	Coins10.bmp	Daff3.bmp	Daff21.bmp	Daff1.bmp	Daff22.bmp	Daff21.bmp	Coins8.bmp	29	2	1	1	1	SONDERPÄDAGOGIK
FAUST_1[2014-06]	51	3	2	1	2	2	1	2	1	0	1656	2	2	1	1329	4	836	Hand8.bmp	Button10.bmp	Hand13.bmp	Button14.bmp	Button20.bmp	Button3.bmp	Hand13.bmp	29	2	1	1	1	SONDERPÄDAGOGIK
FAUST_1[2014-06]	51	3	9	1	2	1	2	2	1	0	1371	2	2	1	1609	4	871	Jigsaw18.bmp	Jigsaw11.bmp	Candle10.bmp	Jigsaw10.bmp	Jigsaw17.bmp	Jigsaw14.bmp	Candle10.bmp	29	2	1	1	1	SONDERPÄDAGOGIK
FAUST_1[2014-06]	51	3	14	1	2	2	2	2	1	0	807	1	2	0	2840	4	751	Paperclip14.bmp	Paperclip9.bmp	Paperclip13.bmp	Paperclip4.bmp	Brocolli4.bmp	Paperclip4.bmp	Paperclip6.bmp	29	2	1	1	1	SONDERPÄDAGOGIK
FAUST_1[2014-06]	51	3	8	1	2	1	1	2	2	1	2239	1	1	1	1530	3	1316	Varnish5.bmp	Apple10.bmp	Varnish3.bmp	Apple21.bmp	Apple10.bmp	Apple18.bmp	Apple24.bmp	29	2	1	1	1	SONDERPÄDAGOGIK
FAUST_1[2014-06]	51	3	13	1	2	2	1	2	2	1	1671	1	1	1	1842	2	1147	Chocolate6.bmp	Shell17.bmp	Shell1.bmp	Chocolate17.bmp	Shell9.bmp	Chocolate17.bmp	Shell5.bmp	29	2	1	1	1	SONDERPÄDAGOGIK
FAUST_1[2014-06]	51	3	18	1	2	1	2	2	1	0	759	2	2	1	1741	4	835	Plug6.bmp	Plug8.bmp	String8.bmp	Plug4.bmp	Plug9.bmp	String8.bmp	Plug18.bmp	29	2	1	1	1	SONDERPÄDAGOGIK
FAUST_1[2014-06]	51	3	4	1	2	2	2	2	1	0	1272	2	2	1	2196	4	741	Cake7.bmp	Cake25.bmp	Cake18.bmp	Cake24.bmp	Cake16.bmp	Fork14.bmp	Cake24.bmp	29	2	1	1	1	SONDERPÄDAGOGIK
FAUST_1[2014-06]	51	3	22	1	2	1	1	3	2	1	1016	1	1	1	1790	4	974	Present2.bmp	Scissors3.bmp	Scissors23.bmp	Scissors1.bmp	Stapler8.bmp	Scissors1.bmp	Scissors14.bmp	29	2	1	1	1	SONDERPÄDAGOGIK
FAUST_1[2014-06]	51	3	10	1	2	2	1	3	2	1	1686	2	1	0	2542	4	1034	Feather14.bmp	Biscuit9.bmp	Leaf10.bmp	Biscuit17.bmp	Leaf10.bmp	Biscuit20.bmp	Biscuit25.bmp	29	2	1	1	1	SONDERPÄDAGOGIK
FAUST_1[2014-06]	51	3	17	1	2	1	1	3	2	1	758	1	1	1	2120	4	857	Star1.bmp	Chilli14.bmp	Bracelet18.bmp	Chilli11.bmp	Chilli19.bmp	Chilli14.bmp	Chilli12.bmp	29	2	1	1	1	SONDERPÄDAGOGIK
FAUST_1[2014-06]	51	3	3	1	2	2	1	3	2	1	1026	2	2	1	2109	4	992	Car14.bmp	Screw10.bmp	Screw18.bmp	Toothbrush6.bmp	Screw9.bmp	Screw13.bmp	Toothbrush6.bmp	29	2	1	1	1	SONDERPÄDAGOGIK
FAUST_1[2014-06]	51	3	21	1	2	1	1	3	2	1	885	2	2	1	2269	4	934	Ginger15.bmp	Bag4.bmp	Hanger14.bmp	Hanger2.bmp	Hanger14.bmp	Hanger15.bmp	Hanger12.bmp	29	2	1	1	1	SONDERPÄDAGOGIK
FAUST_1[2014-06]	51	3	19	1	2	2	1	3	2	1	879	2	2	1	1333	4	879	Holly20.bmp	Fudge15.bmp	Key5.bmp	Fudge5.bmp	Fudge17.bmp	Key5.bmp	Fudge20.bmp	29	2	1	1	1	SONDERPÄDAGOGIK
FAUST_1[2014-06]	51	4	16	1	3	1	1	1	1	1	850	1	1	1	1205	4	928	trunk_1.bmp	iceskates_7.bmp	iceskates_16.bmp	iceskates_14.bmp	iceskates_5.bmp	trunk_1.bmp	iceskates_14.bmp	29	2	1	1	1	SONDERPÄDAGOGIK
FAUST_1[2014-06]	51	4	20	1	3	2	1	1	1	1	1829	2	2	1	1920	4	1057	scooter_5.bmp	laptop_7.bmp	scooter_5.bmp	laptop_15.bmp	laptop_14.bmp	laptop_10.bmp	scooter_5.bmp	29	2	1	1	1	SONDERPÄDAGOGIK
FAUST_1[2014-06]	51	4	22	1	3	1	2	1	1	1	1047	1	1	1	2466	4	837	parfait_4.bmp	parfait_4.bmp	backpack_6.bmp	parfait_11.bmp	backpack_6.bmp	parfait_1.bmp	parfait_13.bmp	29	2	1	1	1	SONDERPÄDAGOGIK
FAUST_1[2014-06]	51	4	12	1	3	2	2	1	1	1	971	2	2	1	1987	4	947	plant_5.bmp	plant_14.bmp	plant_8.bmp	plant_5.bmp	plant_2.bmp	plant_5.bmp	shoe_9.bmp	29	2	1	1	1	SONDERPÄDAGOGIK
FAUST_1[2014-06]	51	4	26	1	3	1	1	1	1	1	850	2	2	1	2946	4	785	leatherman_5.bmp	chair_3.bmp	leatherman_5.bmp	chair_2.bmp	chair_5.bmp	chair_16.bmp	chair_5.bmp	29	2	1	1	1	SONDERPÄDAGOGIK
FAUST_1[2014-06]	51	4	27	1	3	2	1	1	1	1	903	1	1	1	1763	4	822	saltpeppershake_9.bmp	orifan_7.bmp	saltpeppershake_9.bmp	orifan_17.bmp	orifan_6.bmp	saltpeppershake_9.bmp	orifan_1.bmp	29	2	1	1	1	SONDERPÄDAGOGIK
FAUST_1[2014-06]	51	4	17	1	3	1	2	1	1	1	889	2	1	0	2417	4	900	speaker_17.bmp	highchair_3.bmp	speaker_17.bmp	speaker_15.bmp	highchair_3.bmp	speaker_10.bmp	speaker_6.bmp	29	2	1	1	1	SONDERPÄDAGOGIK
FAUST_1[2014-06]	51	4	29	1	3	2	2	1	1	1	807	1	1	1	1573	4	717	abacus_4.bmp	abacus_2.bmp	abacus_6.bmp	abacus_4.bmp	cherubstatue_12.bmp	abacus_7.bmp	abacus_4.bmp	29	2	1	1	1	SONDERPÄDAGOGIK
FAUST_1[2014-06]	51	4	8	1	3	1	1	1	2	0	2532	1	1	1	1495	3	1573	fan_11.bmp	fan_11.bmp	shredder_6.bmp	shredder_15.bmp	shredder_7.bmp	shredder_5.bmp	shredder_15.bmp	29	2	1	1	1	SONDERPÄDAGOGIK
FAUST_1[2014-06]	51	4	24	1	3	2	1	1	1	1	947	1	1	1	1710	4	640	skateboard_11.bmp	rusdoll_1.bmp	skateboard_11.bmp	rusdoll_5.bmp	rusdoll_6.bmp	rusdoll_8.bmp	skateboard_11.bmp	29	2	1	1	1	SONDERPÄDAGOGIK
FAUST_1[2014-06]	51	4	28	1	3	1	2	1	1	1	1567	2	2	1	2733	4	1562	powerstrip_10.bmp	powerstrip_13.bmp	turtle_12.bmp	powerstrip_10.bmp	powerstrip_8.bmp	powerstrip_14.bmp	turtle_12.bmp	29	2	1	1	1	SONDERPÄDAGOGIK
FAUST_1[2014-06]	51	4	4	1	3	2	2	1	1	1	948	2	2	1	1473	4	854	watch_6.bmp	watch_7.bmp	watch_14.bmp	watch_6.bmp	coffee_1.bmp	watch_8.bmp	watch_6.bmp	29	2	1	1	1	SONDERPÄDAGOGIK
FAUST_1[2014-06]	51	4	13	1	3	1	1	2	2	1	880	2	2	1	1708	4	769	trophy_16.bmp	trophy_15.bmp	circuitboard_4.bmp	circuitboard_2.bmp	circuitboard_16.bmp	circuitboard_4.bmp	circuitboard_13.bmp	29	2	1	1	1	SONDERPÄDAGOGIK
FAUST_1[2014-06]	51	4	30	1	3	2	1	2	2	1	1874	1	2	0	1472	4	1216	jacket_7.bmp	bowlingpin_1.bmp	bowlingpin_13.bmp	jacket_6.bmp	bowlingpin_11.bmp	jacket_6.bmp	bowlingpin_4.bmp	29	2	1	1	1	SONDERPÄDAGOGIK
FAUST_1[2014-06]	51	4	11	1	3	1	2	2	2	1	1556	2	2	1	1818	4	1108	goggle_9.bmp	goggle_3.bmp	hairdryer_7.bmp	goggle_1.bmp	goggle_13.bmp	goggle_4.bmp	hairdryer_7.bmp	29	2	1	1	1	SONDERPÄDAGOGIK
FAUST_1[2014-06]	51	4	18	1	3	2	2	2	1	0	1213	1	1	1	2706	4	594	camera_4.bmp	camera_9.bmp	camera_6.bmp	garbagecan_8.bmp	camera_7.bmp	camera_3.bmp	camera_7.bmp	29	2	1	1	1	SONDERPÄDAGOGIK
FAUST_1[2014-06]	51	4	9	1	3	1	1	2	2	1	1294	1	1	1	1953	4	1052	saddle_3.bmp	cake_3.bmp	cake_14.bmp	cake_3.bmp	saddle_5.bmp	cake_4.bmp	cake_1.bmp	29	2	1	1	1	SONDERPÄDAGOGIK
FAUST_1[2014-06]	51	4	6	1	3	2	1	2	2	1	865	1	1	1	1945	4	922	tricycle_5.bmp	tricycle_15.bmp	hammer_15.bmp	tricycle_15.bmp	hammer_11.bmp	hammer_6.bmp	hammer_8.bmp	29	2	1	1	1	SONDERPÄDAGOGIK
FAUST_1[2014-06]	51	4	23	1	3	1	2	2	2	1	2283	2	2	1	2277	4	969	bagel_14.bmp	cat_10.bmp	bagel_16.bmp	bagel_12.bmp	bagel_10.bmp	bagel_4.bmp	cat_10.bmp	29	2	1	1	1	SONDERPÄDAGOGIK
FAUST_1[2014-06]	51	4	3	1	3	2	2	2	2	1	1100	2	2	1	1245	4	861	rollerskates_2.bmp	rollerskates_8.bmp	rollerskates_17.bmp	rollerskates_5.bmp	vase_13.bmp	rollerskates_17.bmp	rollerskates_7.bmp	29	2	1	1	1	SONDERPÄDAGOGIK
FAUST_1[2014-06]	51	4	32	1	3	1	1	2	2	1	1314	2	2	1	1735	4	919	sofa_12.bmp	flashlight_12.bmp	sofa_3.bmp	flashlight_13.bmp	flashlight_1.bmp	flashlight_13.bmp	flashlight_17.bmp	29	2	1	1	1	SONDERPÄDAGOGIK
FAUST_1[2014-06]	51	4	1	1	3	2	1	2	2	1	1315	1	2	0	2387	4	970	carabiner_5.bmp	easteregg_16.bmp	carabiner_6.bmp	easteregg_5.bmp	carabiner_6.bmp	easteregg_9.bmp	easteregg_17.bmp	29	2	1	1	1	SONDERPÄDAGOGIK
FAUST_1[2014-06]	51	4	19	1	3	1	2	2	1	0	765	2	2	1	2023	4	1038	hairbrush_17.bmp	sink_15.bmp	hairbrush_12.bmp	hairbrush_15.bmp	hairbrush_7.bmp	hairbrush_16.bmp	sink_15.bmp	29	2	1	1	1	SONDERPÄDAGOGIK
FAUST_1[2014-06]	51	4	2	1	3	2	2	2	1	0	834	1	1	1	1484	4	996	windchime_16.bmp	cellphone_8.bmp	windchime_6.bmp	windchime_3.bmp	windchime_10.bmp	windchime_15.bmp	windchime_10.bmp	29	2	1	1	1	SONDERPÄDAGOGIK
FAUST_1[2014-06]	51	4	15	1	3	1	1	3	2	1	778	1	1	1	1178	4	1229	printer_3.bmp	videogamecontroller_11.bmp	videogamecontroller_5.bmp	videogamecontroller_3.bmp	videogamecontroller_13.bmp	videogamecontroller_5.bmp	watergun_9.bmp	29	2	1	1	1	SONDERPÄDAGOGIK
FAUST_1[2014-06]	51	4	5	1	3	2	1	3	2	1	936	2	2	1	1537	4	895	ring_15.bmp	beanbagchair_14.bmp	doorknocker_5.bmp	doorknocker_2.bmp	beanbagchair_14.bmp	doorknocker_11.bmp	doorknocker_14.bmp	29	2	1	1	1	SONDERPÄDAGOGIK
FAUST_1[2014-06]	51	4	31	1	3	1	1	3	2	1	1159	2	2	1	2454	4	1131	wig_9.bmp	router_16.bmp	router_6.bmp	router_5.bmp	horseshoe_5.bmp	router_6.bmp	router_12.bmp	29	2	1	1	1	SONDERPÄDAGOGIK
FAUST_1[2014-06]	51	4	21	1	3	2	1	3	2	1	875	1	2	0	1490	4	933	carriage_9.bmp	lawnmower_8.bmp	glove_5.bmp	lawnmower_3.bmp	lawnmower_17.bmp	glove_5.bmp	lawnmower_13.bmp	29	2	1	1	1	SONDERPÄDAGOGIK
FAUST_1[2014-06]	51	4	25	1	3	1	1	3	2	1	799	2	1	0	2147	4	833	babycrib_2.bmp	mic_10.bmp	mic_2.bmp	glasses_15.bmp	mic_3.bmp	mic_2.bmp	mic_5.bmp	29	2	1	1	1	SONDERPÄDAGOGIK
FAUST_1[2014-06]	51	4	10	1	3	2	1	3	2	1	778	1	1	1	2710	4	952	birdhouse_11.bmp	doorknob_10.bmp	tv_5.bmp	doorknob_7.bmp	doorknob_14.bmp	doorknob_2.bmp	tv_5.bmp	29	2	1	1	1	SONDERPÄDAGOGIK
FAUST_1[2014-06]	51	4	7	1	3	1	1	3	2	1	840	2	2	1	2361	4	1102	guitar_8.bmp	pasta_9.bmp	socks_12.bmp	socks_13.bmp	socks_12.bmp	socks_4.bmp	socks_15.bmp	29	2	1	1	1	SONDERPÄDAGOGIK
FAUST_1[2014-06]	51	4	14	1	3	2	1	3	2	1	857	1	1	1	2946	4	983	cheesegrater_11.bmp	trumpet_5.bmp	remote_3.bmp	trumpet_17.bmp	trumpet_6.bmp	remote_3.bmp	trumpet_3.bmp	29	2	1	1	1	SONDERPÄDAGOGIK
