experiment	subject	block	trial	order	material	repeated	related	probetype	response	correct	rt	math_response	math_correctresponse	math_correct	math_rt	confidence	confidence_rt	probe	item1	item2	item3	item4	item5	item6	age	sex	handedness	color_vision	mother_tongue	occupation
FAUST_1[2014-06]	52	1	25	2	1	1	1	1	1	1	1732	2	1	0	2346	4	2829	TANNE	ärger	tanne	freude	ärger	trauer	angst	24	1	1	1	1	LASSONDERPPÄDAGOGIK
FAUST_1[2014-06]	52	1	32	2	1	2	1	1	1	1	1177	2	2	1	1709	4	1578	QUADRAT	bronze	quadrat	messing	gold	quadrat	silber	24	1	1	1	1	LASSONDERPPÄDAGOGIK
FAUST_1[2014-06]	52	1	21	2	1	1	2	1	1	1	2222	1	1	1	3113	4	1419	PFARRER	richter	boot	arzt	pfarrer	polizist	boot	24	1	1	1	1	LASSONDERPPÄDAGOGIK
FAUST_1[2014-06]	52	1	24	2	1	2	2	1	1	1	3101	1	2	0	2795	4	1807	MUMPS	röteln	moschee	mumps	grippe	mumps	masern	24	1	1	1	1	LASSONDERPPÄDAGOGIK
FAUST_1[2014-06]	52	1	6	2	1	1	1	1	1	1	2332	2	2	1	2620	2	1974	SAARLAND	leopard	panther	gepard	puma	saarland	puma	24	1	1	1	1	LASSONDERPPÄDAGOGIK
FAUST_1[2014-06]	52	1	29	2	1	2	1	1	1	1	2913	1	1	1	2335	2	1585	SEHEN	australien	sehen	asien	sehen	südamerika	afrika	24	1	1	1	1	LASSONDERPPÄDAGOGIK
FAUST_1[2014-06]	52	1	10	2	1	1	2	1	1	1	1930	2	2	1	2512	4	1739	DINKEL	flöte	gerste	hafer	weizen	dinkel	flöte	24	1	1	1	1	LASSONDERPPÄDAGOGIK
FAUST_1[2014-06]	52	1	27	2	1	2	2	1	1	1	2545	2	2	1	2776	3	3373	GYMNASIUM	gymnasium	hauptschule	realschule	cent	gymnasium	gesamtschule	24	1	1	1	1	LASSONDERPPÄDAGOGIK
FAUST_1[2014-06]	52	1	11	2	1	1	1	1	1	1	1336	2	2	1	2964	4	1638	BOMBE	bombe	zeitung	internet	buch	radio	zeitung	24	1	1	1	1	LASSONDERPPÄDAGOGIK
FAUST_1[2014-06]	52	1	18	2	1	2	1	1	2	0	3048	2	2	1	2659	4	1251	BOHNEN	bohnen	kilometer	zentimeter	bohnen	millimeter	meter	24	1	1	1	1	LASSONDERPPÄDAGOGIK
FAUST_1[2014-06]	52	1	9	2	1	1	2	1	1	1	1915	2	2	1	2578	4	1705	FOXTROTT	zirkus	rumba	foxtrott	walzer	zirkus	chachacha	24	1	1	1	1	LASSONDERPPÄDAGOGIK
FAUST_1[2014-06]	52	1	12	2	1	2	2	1	2	0	1927	1	1	1	2145	3	2531	SOFA	sofa	karaffe	sofa	tisch	regal	stuhl	24	1	1	1	1	LASSONDERPPÄDAGOGIK
FAUST_1[2014-06]	52	1	22	2	1	1	1	2	2	1	1759	2	2	1	3226	4	1691	BLUSE	jacke	merkur	saturn	jupiter	venus	jupiter	24	1	1	1	1	LASSONDERPPÄDAGOGIK
FAUST_1[2014-06]	52	1	26	2	1	2	1	2	2	1	2141	2	2	1	2436	4	1548	WESER	main	rum	main	tequila	wodka	whiskey	24	1	1	1	1	LASSONDERPPÄDAGOGIK
FAUST_1[2014-06]	52	1	3	2	1	1	2	2	1	0	155	-1	2	0	0	2	5717	WERWOLF	zombie	vampir	hexe	klebeband	dämon	klebeband	24	1	1	1	1	LASSONDERPPÄDAGOGIK
FAUST_1[2014-06]	52	1	17	2	1	2	2	2	1	0	1824	2	1	0	2496	4	2379	BENZIN	rosmarin	kerosin	diesel	kerosin	bleifrei	petroleum	24	1	1	1	1	LASSONDERPPÄDAGOGIK
FAUST_1[2014-06]	52	1	7	2	1	1	1	2	2	1	2854	1	2	0	2849	4	2992	AUDI	drucker	mobiltelefon	laptop	computer	mercedes	drucker	24	1	1	1	1	LASSONDERPPÄDAGOGIK
FAUST_1[2014-06]	52	1	15	2	1	2	1	2	2	1	2728	2	2	1	2449	3	1387	TAG	opium	haschisch	jahr	cannabis	jahr	heroin	24	1	1	1	1	LASSONDERPPÄDAGOGIK
FAUST_1[2014-06]	52	1	2	2	1	1	2	2	2	1	2481	2	1	0	2432	2	2744	MEER	österreich	teich	see	fluss	ozean	österreich	24	1	1	1	1	LASSONDERPPÄDAGOGIK
FAUST_1[2014-06]	52	1	1	2	1	2	2	2	1	0	2792	2	2	1	2822	2	1757	HANNOVER	hamburg	berlin	münchen	stuttgart	taxi	münchen	24	1	1	1	1	LASSONDERPPÄDAGOGIK
FAUST_1[2014-06]	52	1	5	2	1	1	1	2	2	1	1881	1	1	1	2191	4	1480	FÜRST	rückspiegel	könig	handbremse	lenkrad	kupplung	lenkrad	24	1	1	1	1	LASSONDERPPÄDAGOGIK
FAUST_1[2014-06]	52	1	14	2	1	2	1	2	2	1	2017	2	1	0	2764	4	3076	HAGEL	physik	chemie	schnee	mathematik	erdkunde	schnee	24	1	1	1	1	LASSONDERPPÄDAGOGIK
FAUST_1[2014-06]	52	1	19	2	1	1	2	2	1	0	2864	1	1	1	2372	4	2012	HAND	lippenstift	fuß	lippenstift	arm	bein	kopf	24	1	1	1	1	LASSONDERPPÄDAGOGIK
FAUST_1[2014-06]	52	1	31	2	1	2	2	2	1	0	2716	1	1	1	2509	3	1372	BUNTSTIFT	filzstift	kugelschreiber	zange	bleistift	füller	bleistift	24	1	1	1	1	LASSONDERPPÄDAGOGIK
FAUST_1[2014-06]	52	1	4	2	1	1	1	3	2	1	2052	1	1	1	2200	4	2338	BANANE	verb	adverb	präposition	nomen	basteln	präposition	24	1	1	1	1	LASSONDERPPÄDAGOGIK
FAUST_1[2014-06]	52	1	16	2	1	2	1	3	2	1	1559	1	1	1	1701	4	1233	HALMA	gelb	grün	lila	rose	blau	rose	24	1	1	1	1	LASSONDERPPÄDAGOGIK
FAUST_1[2014-06]	52	1	28	2	1	1	1	3	2	1	1916	1	1	1	1577	4	1269	LEBER	tochter	mutter	vater	blockhaus	tochter	onkel	24	1	1	1	1	LASSONDERPPÄDAGOGIK
FAUST_1[2014-06]	52	1	20	2	1	2	1	3	2	1	1502	1	1	1	2481	4	1044	AMEISE	pfannenwender	tennis	backblech	backform	tennis	nudelholz	24	1	1	1	1	LASSONDERPPÄDAGOGIK
FAUST_1[2014-06]	52	1	13	2	1	1	1	3	2	1	1735	1	2	0	3064	3	2996	BONBONS	stickstoff	helium	wasserstoff	hamburger	sauerstoff	helium	24	1	1	1	1	LASSONDERPPÄDAGOGIK
FAUST_1[2014-06]	52	1	23	2	1	2	1	3	2	1	1440	2	2	1	2326	4	1732	AMSEL	actionfilm	komödie	häkelnadel	western	thriller	häkelnadel	24	1	1	1	1	LASSONDERPPÄDAGOGIK
FAUST_1[2014-06]	52	1	8	2	1	1	1	3	2	1	1258	1	1	1	2952	4	1256	HERING	teelöffel	löffel	messer	löffel	gabel	flanell	24	1	1	1	1	LASSONDERPPÄDAGOGIK
FAUST_1[2014-06]	52	1	30	2	1	2	1	3	2	1	1304	2	2	1	2470	4	1102	DACKEL	jungfrau	beethoven	vivaldi	brahms	jungfrau	mozart	24	1	1	1	1	LASSONDERPPÄDAGOGIK
FAUST_1[2014-06]	52	2	24	2	3	1	1	1	1	1	1855	2	2	1	1563	2	1626	powerstrip_7.bmp	shoe_13.bmp	shoe_17.bmp	powerstrip_7.bmp	shoe_15.bmp	shoe_17.bmp	shoe_9.bmp	24	1	1	1	1	LASSONDERPPÄDAGOGIK
FAUST_1[2014-06]	52	2	21	2	3	2	1	1	1	1	1421	2	2	1	2458	4	1801	jacket_10.bmp	remote_11.bmp	remote_2.bmp	remote_3.bmp	jacket_10.bmp	remote_14.bmp	jacket_10.bmp	24	1	1	1	1	LASSONDERPPÄDAGOGIK
FAUST_1[2014-06]	52	2	26	2	3	1	2	1	2	0	3117	1	2	0	1818	3	2275	trumpet_1.bmp	trumpet_17.bmp	trumpet_5.bmp	iceskates_14.bmp	trumpet_1.bmp	trumpet_6.bmp	iceskates_14.bmp	24	1	1	1	1	LASSONDERPPÄDAGOGIK
FAUST_1[2014-06]	52	2	3	2	3	2	2	1	1	1	3586	1	2	0	1565	3	1716	lawnmower_13.bmp	lawnmower_17.bmp	lawnmower_13.bmp	lawnmower_8.bmp	lawnmower_13.bmp	lawnmower_3.bmp	glove_8.bmp	24	1	1	1	1	LASSONDERPPÄDAGOGIK
FAUST_1[2014-06]	52	2	30	2	3	1	1	1	1	1	2733	2	2	1	2520	2	2130	cellphone_12.bmp	camera_6.bmp	cellphone_12.bmp	camera_6.bmp	camera_7.bmp	camera_4.bmp	camera_9.bmp	24	1	1	1	1	LASSONDERPPÄDAGOGIK
FAUST_1[2014-06]	52	2	8	2	3	2	1	1	1	1	1247	1	1	1	1751	4	1190	cherubstatue_11.bmp	trophy_14.bmp	trophy_15.bmp	cherubstatue_11.bmp	trophy_6.bmp	trophy_16.bmp	cherubstatue_11.bmp	24	1	1	1	1	LASSONDERPPÄDAGOGIK
FAUST_1[2014-06]	52	2	23	2	3	1	2	1	1	1	1304	1	1	1	1839	4	1161	cat_4.bmp	wig_6.bmp	cat_10.bmp	cat_4.bmp	cat_1.bmp	wig_6.bmp	cat_5.bmp	24	1	1	1	1	LASSONDERPPÄDAGOGIK
FAUST_1[2014-06]	52	2	19	2	3	2	2	1	1	1	2262	1	2	0	2503	4	1262	goggle_4.bmp	goggle_4.bmp	goggle_9.bmp	turtle_7.bmp	goggle_4.bmp	goggle_13.bmp	goggle_1.bmp	24	1	1	1	1	LASSONDERPPÄDAGOGIK
FAUST_1[2014-06]	52	2	31	2	3	1	1	1	1	1	1671	1	1	1	1888	4	1644	guitar_14.bmp	guitar_14.bmp	flashlight_12.bmp	flashlight_1.bmp	flashlight_17.bmp	flashlight_2.bmp	flashlight_1.bmp	24	1	1	1	1	LASSONDERPPÄDAGOGIK
FAUST_1[2014-06]	52	2	11	2	3	2	1	1	2	0	3902	2	2	1	2679	3	1797	carriage_9.bmp	bowlingpin_1.bmp	bowlingpin_11.bmp	carriage_9.bmp	bowlingpin_3.bmp	bowlingpin_4.bmp	carriage_9.bmp	24	1	1	1	1	LASSONDERPPÄDAGOGIK
FAUST_1[2014-06]	52	2	22	2	3	1	2	1	1	1	1528	2	2	1	2276	4	1191	plant_13.bmp	hairbrush_7.bmp	plant_13.bmp	plant_2.bmp	plant_8.bmp	hairbrush_7.bmp	plant_5.bmp	24	1	1	1	1	LASSONDERPPÄDAGOGIK
FAUST_1[2014-06]	52	2	1	2	3	2	2	1	1	1	1543	1	1	1	2167	4	1943	doorknocker_2.bmp	doorknocker_2.bmp	doorknocker_14.bmp	doorknocker_5.bmp	doorknocker_11.bmp	birdhouse_9.bmp	doorknocker_2.bmp	24	1	1	1	1	LASSONDERPPÄDAGOGIK
FAUST_1[2014-06]	52	2	9	2	3	1	1	2	2	1	1923	1	1	1	1543	3	2604	abacus_7.bmp	babycrib_6.bmp	babycrib_2.bmp	babycrib_7.bmp	babycrib_9.bmp	abacus_15.bmp	babycrib_7.bmp	24	1	1	1	1	LASSONDERPPÄDAGOGIK
FAUST_1[2014-06]	52	2	13	2	3	2	1	2	2	1	1153	2	2	1	1671	4	1802	hairdryer_12.bmp	hairdryer_2.bmp	glasses_8.bmp	glasses_6.bmp	hairdryer_2.bmp	glasses_15.bmp	glasses_13.bmp	24	1	1	1	1	LASSONDERPPÄDAGOGIK
FAUST_1[2014-06]	52	2	12	2	3	1	2	2	1	0	2496	1	2	0	2622	4	1130	parfait_15.bmp	fan_10.bmp	parfait_4.bmp	parfait_1.bmp	parfait_11.bmp	parfait_13.bmp	fan_10.bmp	24	1	1	1	1	LASSONDERPPÄDAGOGIK
FAUST_1[2014-06]	52	2	17	2	3	2	2	2	1	0	2284	1	2	0	2523	3	1344	garbagecan_10.bmp	garbagecan_8.bmp	garbagecan_2.bmp	garbagecan_17.bmp	garbagecan_13.bmp	saddle_5.bmp	garbagecan_8.bmp	24	1	1	1	1	LASSONDERPPÄDAGOGIK
FAUST_1[2014-06]	52	2	15	2	3	1	1	2	2	1	2445	1	1	1	1770	2	2448	rollerskates_7.bmp	laptop_7.bmp	laptop_10.bmp	laptop_14.bmp	rollerskates_5.bmp	laptop_7.bmp	laptop_16.bmp	24	1	1	1	1	LASSONDERPPÄDAGOGIK
FAUST_1[2014-06]	52	2	18	2	3	2	1	2	1	0	3068	2	1	0	2025	2	1679	socks_13.bmp	tv_5.bmp	tv_4.bmp	socks_15.bmp	tv_8.bmp	tv_7.bmp	socks_15.bmp	24	1	1	1	1	LASSONDERPPÄDAGOGIK
FAUST_1[2014-06]	52	2	14	2	3	1	2	2	2	1	1106	1	2	0	1755	4	1446	saltpeppershake_12.bmp	videogamecontroller_2.bmp	saltpeppershake_8.bmp	saltpeppershake_17.bmp	videogamecontroller_2.bmp	saltpeppershake_2.bmp	saltpeppershake_9.bmp	24	1	1	1	1	LASSONDERPPÄDAGOGIK
FAUST_1[2014-06]	52	2	6	2	3	2	2	2	1	0	3308	2	1	0	2619	3	2273	cheesegrater_5.bmp	cheesegrater_15.bmp	cheesegrater_8.bmp	cheesegrater_14.bmp	sofa_3.bmp	cheesegrater_11.bmp	cheesegrater_8.bmp	24	1	1	1	1	LASSONDERPPÄDAGOGIK
FAUST_1[2014-06]	52	2	27	2	3	1	1	2	1	0	3677	2	1	0	2896	2	2047	shredder_6.bmp	hammer_17.bmp	hammer_6.bmp	hammer_11.bmp	shredder_1.bmp	hammer_6.bmp	hammer_15.bmp	24	1	1	1	1	LASSONDERPPÄDAGOGIK
FAUST_1[2014-06]	52	2	29	2	3	2	1	2	2	1	3924	2	1	0	2017	3	1836	skateboard_14.bmp	scooter_5.bmp	skateboard_16.bmp	scooter_10.bmp	scooter_4.bmp	scooter_8.bmp	skateboard_16.bmp	24	1	1	1	1	LASSONDERPPÄDAGOGIK
FAUST_1[2014-06]	52	2	28	2	3	1	2	2	1	0	1597	1	2	0	1970	3	1867	beanbagchair_17.bmp	beanbagchair_15.bmp	trunk_7.bmp	beanbagchair_14.bmp	beanbagchair_12.bmp	trunk_7.bmp	beanbagchair_3.bmp	24	1	1	1	1	LASSONDERPPÄDAGOGIK
FAUST_1[2014-06]	52	2	2	2	3	2	2	2	2	1	1570	2	2	1	1349	2	2272	speaker_4.bmp	speaker_10.bmp	speaker_15.bmp	speaker_17.bmp	circuitboard_13.bmp	speaker_6.bmp	speaker_10.bmp	24	1	1	1	1	LASSONDERPPÄDAGOGIK
FAUST_1[2014-06]	52	2	7	2	3	1	1	3	2	1	1537	2	1	0	2021	4	1143	sink_6.bmp	doorknob_2.bmp	doorknob_14.bmp	doorknob_10.bmp	doorknob_2.bmp	chair_16.bmp	doorknob_7.bmp	24	1	1	1	1	LASSONDERPPÄDAGOGIK
FAUST_1[2014-06]	52	2	5	2	3	2	1	3	2	1	1131	1	2	0	1770	4	1224	cake_14.bmp	windchime_16.bmp	windchime_6.bmp	windchime_3.bmp	mic_3.bmp	windchime_15.bmp	mic_3.bmp	24	1	1	1	1	LASSONDERPPÄDAGOGIK
FAUST_1[2014-06]	52	2	10	2	3	1	1	3	2	1	1373	2	2	1	1408	4	1432	coffee_7.bmp	horseshoe_12.bmp	rusdoll_1.bmp	rusdoll_3.bmp	rusdoll_8.bmp	rusdoll_3.bmp	rusdoll_5.bmp	24	1	1	1	1	LASSONDERPPÄDAGOGIK
FAUST_1[2014-06]	52	2	4	2	3	2	1	3	2	1	1883	2	2	1	1606	4	1545	backpack_12.bmp	pasta_10.bmp	carabiner_9.bmp	carabiner_2.bmp	carabiner_5.bmp	carabiner_6.bmp	pasta_10.bmp	24	1	1	1	1	LASSONDERPPÄDAGOGIK
FAUST_1[2014-06]	52	2	25	2	3	1	1	3	1	0	2702	1	2	0	2288	3	1534	highchair_4.bmp	printer_14.bmp	printer_3.bmp	tricycle_15.bmp	printer_3.bmp	printer_16.bmp	printer_1.bmp	24	1	1	1	1	LASSONDERPPÄDAGOGIK
FAUST_1[2014-06]	52	2	16	2	3	2	1	3	2	1	3701	2	2	1	1530	4	2403	bagel_14.bmp	easteregg_14.bmp	leatherman_5.bmp	leatherman_10.bmp	leatherman_7.bmp	easteregg_14.bmp	leatherman_2.bmp	24	1	1	1	1	LASSONDERPPÄDAGOGIK
FAUST_1[2014-06]	52	2	20	2	3	1	1	3	2	1	2548	1	1	1	1689	2	2318	vase_15.bmp	orifan_17.bmp	orifan_6.bmp	orifan_1.bmp	watergun_15.bmp	orifan_7.bmp	orifan_6.bmp	24	1	1	1	1	LASSONDERPPÄDAGOGIK
FAUST_1[2014-06]	52	2	32	2	3	2	1	3	2	1	1471	2	1	0	1671	4	1691	router_16.bmp	watch_3.bmp	ring_8.bmp	watch_6.bmp	ring_8.bmp	watch_8.bmp	watch_7.bmp	24	1	1	1	1	LASSONDERPPÄDAGOGIK
FAUST_1[2014-06]	52	3	21	2	2	1	1	1	1	1	1310	1	2	0	1943	4	1525	String12.bmp	Lipstick9.bmp	String12.bmp	Lipstick15.bmp	Lipstick7.bmp	Lipstick3.bmp	Lipstick7.bmp	24	1	1	1	1	LASSONDERPPÄDAGOGIK
FAUST_1[2014-06]	52	3	22	2	2	2	1	1	1	1	1447	1	2	0	2540	4	1506	Scissors23.bmp	Apple5.bmp	Apple18.bmp	Apple21.bmp	Scissors23.bmp	Apple24.bmp	Scissors23.bmp	24	1	1	1	1	LASSONDERPPÄDAGOGIK
FAUST_1[2014-06]	52	3	2	2	2	1	2	1	1	1	1714	1	1	1	2359	4	1459	Mushroom25.bmp	Biscuit9.bmp	Mushroom6.bmp	Biscuit9.bmp	Mushroom18.bmp	Mushroom7.bmp	Mushroom25.bmp	24	1	1	1	1	LASSONDERPPÄDAGOGIK
FAUST_1[2014-06]	52	3	20	2	2	2	2	1	1	1	1381	1	1	1	2641	4	868	Hanger7.bmp	Candle13.bmp	Hanger7.bmp	Hanger14.bmp	Hanger12.bmp	Hanger15.bmp	Hanger7.bmp	24	1	1	1	1	LASSONDERPPÄDAGOGIK
FAUST_1[2014-06]	52	3	1	2	2	1	1	1	2	0	1771	1	2	0	2220	4	1417	Screw9.bmp	Bag5.bmp	Bag25.bmp	Bag3.bmp	Screw9.bmp	Bag21.bmp	Bag3.bmp	24	1	1	1	1	LASSONDERPPÄDAGOGIK
FAUST_1[2014-06]	52	3	3	2	2	2	1	1	1	1	1121	1	1	1	2046	4	1351	Chocolate24.bmp	Chocolate24.bmp	Chilli19.bmp	Chocolate24.bmp	Chilli12.bmp	Chilli11.bmp	Chilli22.bmp	24	1	1	1	1	LASSONDERPPÄDAGOGIK
FAUST_1[2014-06]	52	3	13	2	2	1	2	1	1	1	1409	1	2	0	2359	4	1074	Star19.bmp	Star17.bmp	Glass19.bmp	Star2.bmp	Glass19.bmp	Star19.bmp	Star1.bmp	24	1	1	1	1	LASSONDERPPÄDAGOGIK
FAUST_1[2014-06]	52	3	18	2	2	2	2	1	1	1	1267	1	1	1	2523	4	857	Button18.bmp	Button18.bmp	Button10.bmp	Button18.bmp	Button14.bmp	Button20.bmp	Key11.bmp	24	1	1	1	1	LASSONDERPPÄDAGOGIK
FAUST_1[2014-06]	52	3	16	2	2	1	1	2	2	1	3057	2	2	1	2428	1	4196	Varnish5.bmp	Paperclip14.bmp	Paperclip4.bmp	Paperclip9.bmp	Paperclip13.bmp	Varnish17.bmp	Paperclip14.bmp	24	1	1	1	1	LASSONDERPPÄDAGOGIK
FAUST_1[2014-06]	52	3	4	2	2	2	1	2	2	1	2172	2	2	1	2271	4	1517	Nut21.bmp	Flower13.bmp	Flower18.bmp	Nut11.bmp	Flower17.bmp	Nut11.bmp	Flower14.bmp	24	1	1	1	1	LASSONDERPPÄDAGOGIK
FAUST_1[2014-06]	52	3	7	2	2	1	2	2	1	0	2578	2	2	1	2337	4	1548	Leaf10.bmp	Leaf13.bmp	Onion13.bmp	Leaf22.bmp	Leaf15.bmp	Onion13.bmp	Leaf21.bmp	24	1	1	1	1	LASSONDERPPÄDAGOGIK
FAUST_1[2014-06]	52	3	12	2	2	2	2	2	1	0	1583	1	1	1	2233	4	1352	Pear18.bmp	Fork14.bmp	Pear16.bmp	Pear4.bmp	Pear7.bmp	Pear4.bmp	Pear15.bmp	24	1	1	1	1	LASSONDERPPÄDAGOGIK
FAUST_1[2014-06]	52	3	6	2	2	1	1	2	1	0	2514	1	2	0	1320	2	1779	Tomato2.bmp	Car14.bmp	Car7.bmp	Car14.bmp	Tomato3.bmp	Car13.bmp	Car12.bmp	24	1	1	1	1	LASSONDERPPÄDAGOGIK
FAUST_1[2014-06]	52	3	8	2	2	2	1	2	1	0	2748	1	1	1	2270	4	1722	Jigsaw14.bmp	Jigsaw18.bmp	Swirl5.bmp	Jigsaw18.bmp	Swirl13.bmp	Swirl23.bmp	Swirl1.bmp	24	1	1	1	1	LASSONDERPPÄDAGOGIK
FAUST_1[2014-06]	52	3	14	2	2	1	2	2	1	0	1296	1	1	1	2672	4	959	Umbrella21.bmp	Bun5.bmp	Umbrella7.bmp	Umbrella17.bmp	Umbrella6.bmp	Bun5.bmp	Umbrella19.bmp	24	1	1	1	1	LASSONDERPPÄDAGOGIK
FAUST_1[2014-06]	52	3	17	2	2	2	2	2	1	0	1358	1	1	1	1620	4	1022	Toothbrush12.bmp	Strawberry3.bmp	Toothbrush6.bmp	Toothbrush10.bmp	Toothbrush6.bmp	Toothbrush1.bmp	Toothbrush9.bmp	24	1	1	1	1	LASSONDERPPÄDAGOGIK
FAUST_1[2014-06]	52	3	11	2	2	1	1	3	2	1	2299	2	1	0	2418	4	1284	Ginger3.bmp	Cake24.bmp	Man2.bmp	Man15.bmp	Man4.bmp	Man15.bmp	Man10.bmp	24	1	1	1	1	LASSONDERPPÄDAGOGIK
FAUST_1[2014-06]	52	3	15	2	2	2	1	3	2	1	1053	1	1	1	1413	4	1301	Brocolli9.bmp	Pen1.bmp	Stapler9.bmp	Pen5.bmp	Stapler9.bmp	Pen20.bmp	Pen17.bmp	24	1	1	1	1	LASSONDERPPÄDAGOGIK
FAUST_1[2014-06]	52	3	19	2	2	1	1	3	2	1	2302	1	1	1	2439	4	1445	Hand8.bmp	Sweet10.bmp	Sweet22.bmp	Sweet1.bmp	Plug8.bmp	Sweet18.bmp	Sweet10.bmp	24	1	1	1	1	LASSONDERPPÄDAGOGIK
FAUST_1[2014-06]	52	3	9	2	2	2	1	3	2	1	1852	2	2	1	1619	3	1201	Holly17.bmp	Keys9.bmp	Keys6.bmp	Shell1.bmp	Keys7.bmp	Shell1.bmp	Keys5.bmp	24	1	1	1	1	LASSONDERPPÄDAGOGIK
FAUST_1[2014-06]	52	3	10	2	2	1	1	3	2	1	1399	2	2	1	2541	4	1155	Fudge8.bmp	Coins3.bmp	Coins10.bmp	Coins3.bmp	Coins14.bmp	Bracelet18.bmp	Coins8.bmp	24	1	1	1	1	LASSONDERPPÄDAGOGIK
FAUST_1[2014-06]	52	3	5	2	2	2	1	3	2	1	1504	2	2	1	1865	4	1446	Present14.bmp	Feather11.bmp	Daff22.bmp	Daff9.bmp	Daff21.bmp	Feather11.bmp	Daff1.bmp	24	1	1	1	1	LASSONDERPPÄDAGOGIK
FAUST_1[2014-06]	52	2	15	2	1	1	1	1	1	1	1099	1	1	1	2259	4	827	TENNIS	lilie	nelke	veilchen	rose	lilie	tennis	24	1	1	1	1	LASSONDERPPÄDAGOGIK
FAUST_1[2014-06]	52	2	3	2	1	2	1	1	1	1	902	1	1	1	1240	4	836	HAGEL	hagel	bombe	pistole	schwert	gewehr	hagel	24	1	1	1	1	LASSONDERPPÄDAGOGIK
FAUST_1[2014-06]	52	2	27	2	1	1	2	1	1	1	1225	2	2	1	2440	4	993	TIGER	tiger	leopard	merkur	puma	merkur	panther	24	1	1	1	1	LASSONDERPPÄDAGOGIK
FAUST_1[2014-06]	52	2	32	2	1	2	2	1	1	1	992	1	1	1	1499	4	1235	BRAHMS	brahms	vivaldi	backgammon	brahms	mozart	beethoven	24	1	1	1	1	LASSONDERPPÄDAGOGIK
FAUST_1[2014-06]	52	2	11	2	1	1	1	1	1	1	1304	2	2	1	1926	4	1229	GABEL	rückspiegel	gabel	kupplung	gaspedal	lenkrad	gaspedal	24	1	1	1	1	LASSONDERPPÄDAGOGIK
FAUST_1[2014-06]	52	2	2	2	1	2	1	1	1	1	1114	1	1	1	1393	4	1106	MEISE	meise	actionfilm	thriller	komödie	horrorfilm	meise	24	1	1	1	1	LASSONDERPPÄDAGOGIK
FAUST_1[2014-06]	52	2	4	2	1	1	2	1	1	1	1126	1	1	1	2503	4	950	LILA	blau	rot	lila	england	gelb	england	24	1	1	1	1	LASSONDERPPÄDAGOGIK
FAUST_1[2014-06]	52	2	7	2	1	2	2	1	1	1	1421	1	1	1	2164	4	1059	PEUGEOT	peugeot	forelle	volvo	peugeot	mercedes	porsche	24	1	1	1	1	LASSONDERPPÄDAGOGIK
FAUST_1[2014-06]	52	2	6	2	1	1	1	1	1	1	1211	2	2	1	1811	4	1007	KAJAL	kajal	weide	buche	eiche	birke	buche	24	1	1	1	1	LASSONDERPPÄDAGOGIK
FAUST_1[2014-06]	52	2	10	2	1	2	1	1	1	1	1718	2	1	0	1490	4	1206	BONBONS	bonbons	werwolf	dämon	bonbons	hexe	vampir	24	1	1	1	1	LASSONDERPPÄDAGOGIK
FAUST_1[2014-06]	52	2	17	2	1	1	2	1	2	0	1939	2	1	0	2290	3	1415	PFANNENWENDER	nudelholz	onkel	pfannenwender	onkel	backform	backblech	24	1	1	1	1	LASSONDERPPÄDAGOGIK
FAUST_1[2014-06]	52	2	8	2	1	2	2	1	1	1	1151	2	2	1	1326	4	779	MUMPS	windpocken	mumps	berlin	grippe	mumps	röteln	24	1	1	1	1	LASSONDERPPÄDAGOGIK
FAUST_1[2014-06]	52	2	20	2	1	1	1	2	2	1	1059	2	2	1	1692	4	1495	STRICKNADEL	physik	biologie	mathematik	physik	chemie	stecknadel	24	1	1	1	1	LASSONDERPPÄDAGOGIK
FAUST_1[2014-06]	52	2	22	2	1	2	1	2	2	1	866	2	2	1	2011	4	874	MAGEN	sehen	leber	fühlen	leber	schmecken	riechen	24	1	1	1	1	LASSONDERPPÄDAGOGIK
FAUST_1[2014-06]	52	2	31	2	1	1	2	2	2	1	1470	1	1	1	1486	4	1231	KLARINETTE	trompete	oboe	flöte	donau	posaune	donau	24	1	1	1	1	LASSONDERPPÄDAGOGIK
FAUST_1[2014-06]	52	2	5	2	1	2	2	2	2	1	2377	1	1	1	1797	3	1503	LOCHER	lineal	klebeband	afrika	büroklammer	brieföffner	klebeband	24	1	1	1	1	LASSONDERPPÄDAGOGIK
FAUST_1[2014-06]	52	2	26	2	1	1	1	2	2	1	1822	1	1	1	2327	4	1320	BEIN	bluse	hose	hemd	jacke	fuß	hose	24	1	1	1	1	LASSONDERPPÄDAGOGIK
FAUST_1[2014-06]	52	2	24	2	1	2	1	2	1	0	2649	1	2	0	3038	3	931	HAUPTSCHULE	malen	zeichnen	berufsschule	lesen	berufsschule	schreiben	24	1	1	1	1	LASSONDERPPÄDAGOGIK
FAUST_1[2014-06]	52	2	25	2	1	1	2	2	1	0	1441	2	1	0	2019	4	824	KOHLENSTOFF	wasserstoff	helium	benzin	stickstoff	sauerstoff	benzin	24	1	1	1	1	LASSONDERPPÄDAGOGIK
FAUST_1[2014-06]	52	2	1	2	1	2	2	2	2	1	2401	2	2	1	1874	4	1851	VERB	präposition	adjektiv	buch	adverb	präposition	nomen	24	1	1	1	1	LASSONDERPPÄDAGOGIK
FAUST_1[2014-06]	52	2	13	2	1	1	1	2	2	1	1038	2	2	1	1300	4	973	HUMMEL	buntstift	füller	filzstift	kugelschreiber	buntstift	biene	24	1	1	1	1	LASSONDERPPÄDAGOGIK
FAUST_1[2014-06]	52	2	30	2	1	2	1	2	2	1	1604	2	2	1	1716	2	1069	QUADRAT	konzertsaal	zirkus	viereck	theater	viereck	kino	24	1	1	1	1	LASSONDERPPÄDAGOGIK
FAUST_1[2014-06]	52	2	19	2	1	1	2	2	2	1	2050	2	2	1	2516	2	1053	GERSTE	kanne	hafer	weizen	dinkel	kanne	roggen	24	1	1	1	1	LASSONDERPPÄDAGOGIK
FAUST_1[2014-06]	52	2	23	2	1	2	2	2	2	1	2648	1	1	1	2799	4	1249	TISCH	sofa	regal	schrank	sofa	stuhl	pfarrer	24	1	1	1	1	LASSONDERPPÄDAGOGIK
FAUST_1[2014-06]	52	2	29	2	1	1	1	3	2	1	2073	2	2	1	2555	4	1345	GRAF	saarland	seide	brandenburg	hessen	saarland	sachsen	24	1	1	1	1	LASSONDERPPÄDAGOGIK
FAUST_1[2014-06]	52	2	28	2	1	2	1	3	2	1	1612	1	1	1	1902	4	1178	TERRIER	hütte	scheune	tango	blockhaus	baracke	tango	24	1	1	1	1	LASSONDERPPÄDAGOGIK
FAUST_1[2014-06]	52	2	16	2	1	1	1	3	2	1	933	2	2	1	1828	4	1043	MILLIMETER	bohrer	zange	säge	bohrer	synagoge	meißel	24	1	1	1	1	LASSONDERPPÄDAGOGIK
FAUST_1[2014-06]	52	2	18	2	1	2	1	3	2	1	999	2	2	1	2658	4	1156	STRAßENBAHN	schiff	teich	schiff	fluss	meer	see	24	1	1	1	1	LASSONDERPPÄDAGOGIK
FAUST_1[2014-06]	52	2	21	2	1	1	1	3	2	1	1353	2	1	0	2361	4	1167	SPINAT	tag	angst	trauer	scham	ärger	angst	24	1	1	1	1	LASSONDERPPÄDAGOGIK
FAUST_1[2014-06]	52	2	12	2	1	2	1	3	2	1	1260	2	2	1	1690	4	1425	ROSMARIN	bratwurst	pommes	wassermann	döner	wassermann	hamburger	24	1	1	1	1	LASSONDERPPÄDAGOGIK
FAUST_1[2014-06]	52	2	9	2	1	1	1	3	2	1	1313	2	2	1	2359	4	1110	OPIUM	dollar	banane	mark	euro	pfennig	dollar	24	1	1	1	1	LASSONDERPPÄDAGOGIK
FAUST_1[2014-06]	52	2	14	2	1	2	1	3	2	1	1286	2	1	0	2700	4	1205	COMPUTER	gold	whiskey	eisen	bronze	messing	whiskey	24	1	1	1	1	LASSONDERPPÄDAGOGIK
FAUST_1[2014-06]	52	3	13	2	3	1	1	1	1	1	2233	2	2	1	2441	2	1284	doorknob_14.bmp	lawnmower_15.bmp	lawnmower_13.bmp	lawnmower_8.bmp	doorknob_14.bmp	lawnmower_13.bmp	lawnmower_17.bmp	24	1	1	1	1	LASSONDERPPÄDAGOGIK
FAUST_1[2014-06]	52	3	25	2	3	2	1	1	1	1	1804	2	2	1	1414	4	1082	hammer_17.bmp	plant_13.bmp	hammer_17.bmp	plant_14.bmp	plant_5.bmp	hammer_17.bmp	plant_8.bmp	24	1	1	1	1	LASSONDERPPÄDAGOGIK
FAUST_1[2014-06]	52	3	31	2	3	1	2	1	1	1	1205	1	1	1	2209	3	739	iceskates_9.bmp	orifan_14.bmp	iceskates_7.bmp	iceskates_16.bmp	orifan_14.bmp	iceskates_5.bmp	iceskates_9.bmp	24	1	1	1	1	LASSONDERPPÄDAGOGIK
FAUST_1[2014-06]	52	3	24	2	3	2	2	1	1	1	1039	2	2	1	1740	4	828	abacus_7.bmp	abacus_7.bmp	carabiner_2.bmp	abacus_6.bmp	abacus_7.bmp	abacus_2.bmp	abacus_4.bmp	24	1	1	1	1	LASSONDERPPÄDAGOGIK
FAUST_1[2014-06]	52	3	7	2	3	1	1	1	1	1	1662	2	2	1	2414	4	1198	beanbagchair_12.bmp	speaker_6.bmp	speaker_15.bmp	speaker_4.bmp	beanbagchair_12.bmp	speaker_6.bmp	speaker_10.bmp	24	1	1	1	1	LASSONDERPPÄDAGOGIK
FAUST_1[2014-06]	52	3	14	2	3	2	1	1	1	1	1589	2	2	1	1917	4	1199	glasses_6.bmp	glasses_6.bmp	cellphone_3.bmp	cellphone_4.bmp	cellphone_8.bmp	cellphone_11.bmp	glasses_6.bmp	24	1	1	1	1	LASSONDERPPÄDAGOGIK
FAUST_1[2014-06]	52	3	9	2	3	1	2	1	1	1	1457	1	2	0	1451	4	791	sink_10.bmp	sink_10.bmp	wig_9.bmp	sink_1.bmp	wig_9.bmp	sink_6.bmp	sink_11.bmp	24	1	1	1	1	LASSONDERPPÄDAGOGIK
FAUST_1[2014-06]	52	3	15	2	3	2	2	1	1	1	5260	2	1	0	2189	1	1168	windchime_15.bmp	windchime_15.bmp	pasta_15.bmp	windchime_15.bmp	windchime_3.bmp	windchime_10.bmp	windchime_6.bmp	24	1	1	1	1	LASSONDERPPÄDAGOGIK
FAUST_1[2014-06]	52	3	10	2	3	1	1	1	1	1	1386	1	1	1	1349	4	803	backpack_6.bmp	easteregg_9.bmp	easteregg_5.bmp	backpack_6.bmp	easteregg_5.bmp	easteregg_14.bmp	easteregg_16.bmp	24	1	1	1	1	LASSONDERPPÄDAGOGIK
FAUST_1[2014-06]	52	3	1	2	3	2	1	1	1	1	1048	1	1	1	2428	4	1019	hairbrush_15.bmp	hairdryer_7.bmp	hairbrush_15.bmp	hairdryer_14.bmp	hairbrush_15.bmp	hairdryer_2.bmp	hairdryer_13.bmp	24	1	1	1	1	LASSONDERPPÄDAGOGIK
FAUST_1[2014-06]	52	3	2	2	3	1	2	1	2	0	2807	2	2	1	1473	2	1623	leatherman_2.bmp	leatherman_2.bmp	flashlight_2.bmp	leatherman_7.bmp	leatherman_10.bmp	flashlight_2.bmp	leatherman_14.bmp	24	1	1	1	1	LASSONDERPPÄDAGOGIK
FAUST_1[2014-06]	52	3	11	2	3	2	2	1	1	1	1830	2	1	0	1331	2	1400	bagel_4.bmp	bagel_16.bmp	bagel_12.bmp	bagel_4.bmp	goggle_4.bmp	bagel_4.bmp	bagel_10.bmp	24	1	1	1	1	LASSONDERPPÄDAGOGIK
FAUST_1[2014-06]	52	3	28	2	3	1	1	2	1	0	1471	1	1	1	1421	3	1133	printer_5.bmp	coffee_1.bmp	printer_3.bmp	coffee_14.bmp	coffee_1.bmp	coffee_2.bmp	coffee_15.bmp	24	1	1	1	1	LASSONDERPPÄDAGOGIK
FAUST_1[2014-06]	52	3	8	2	3	2	1	2	2	1	2318	2	2	1	2491	3	1285	bowlingpin_13.bmp	bowlingpin_1.bmp	remote_2.bmp	bowlingpin_1.bmp	remote_3.bmp	remote_11.bmp	remote_14.bmp	24	1	1	1	1	LASSONDERPPÄDAGOGIK
FAUST_1[2014-06]	52	3	21	2	3	1	2	2	1	0	2406	2	2	1	2188	2	1204	powerstrip_10.bmp	powerstrip_13.bmp	watch_3.bmp	powerstrip_8.bmp	powerstrip_14.bmp	powerstrip_7.bmp	watch_3.bmp	24	1	1	1	1	LASSONDERPPÄDAGOGIK
FAUST_1[2014-06]	52	3	3	2	3	2	2	2	2	1	2337	2	2	1	2151	2	1136	garbagecan_10.bmp	garbagecan_17.bmp	garbagecan_8.bmp	garbagecan_13.bmp	garbagecan_17.bmp	rollerskates_5.bmp	garbagecan_2.bmp	24	1	1	1	1	LASSONDERPPÄDAGOGIK
FAUST_1[2014-06]	52	3	16	2	3	1	1	2	2	1	1050	2	2	1	1796	4	1165	babycrib_2.bmp	saddle_8.bmp	babycrib_6.bmp	saddle_8.bmp	saddle_4.bmp	saddle_15.bmp	saddle_5.bmp	24	1	1	1	1	LASSONDERPPÄDAGOGIK
FAUST_1[2014-06]	52	3	20	2	3	2	1	2	1	0	1613	2	2	1	2224	3	1155	ring_7.bmp	guitar_14.bmp	guitar_10.bmp	ring_15.bmp	guitar_7.bmp	guitar_5.bmp	ring_15.bmp	24	1	1	1	1	LASSONDERPPÄDAGOGIK
FAUST_1[2014-06]	52	3	32	2	3	1	2	2	1	0	1947	2	2	1	2753	3	948	camera_3.bmp	fan_15.bmp	camera_4.bmp	camera_6.bmp	camera_7.bmp	camera_9.bmp	fan_15.bmp	24	1	1	1	1	LASSONDERPPÄDAGOGIK
FAUST_1[2014-06]	52	3	5	2	3	2	2	2	1	0	1426	1	1	1	2545	3	919	saltpeppershake_2.bmp	saltpeppershake_8.bmp	saltpeppershake_12.bmp	saltpeppershake_9.bmp	saltpeppershake_17.bmp	birdhouse_11.bmp	saltpeppershake_9.bmp	24	1	1	1	1	LASSONDERPPÄDAGOGIK
FAUST_1[2014-06]	52	3	26	2	3	1	1	2	2	1	1966	1	1	1	2587	3	1641	router_12.bmp	cake_5.bmp	cake_4.bmp	cake_14.bmp	cake_4.bmp	cake_1.bmp	router_5.bmp	24	1	1	1	1	LASSONDERPPÄDAGOGIK
FAUST_1[2014-06]	52	3	30	2	3	2	1	2	1	0	3257	1	1	1	2513	4	1159	turtle_7.bmp	trumpet_5.bmp	trumpet_6.bmp	turtle_12.bmp	trumpet_17.bmp	turtle_12.bmp	trumpet_1.bmp	24	1	1	1	1	LASSONDERPPÄDAGOGIK
FAUST_1[2014-06]	52	3	6	2	3	1	2	2	1	0	1415	2	2	1	1504	3	1002	sofa_12.bmp	scooter_8.bmp	sofa_9.bmp	sofa_3.bmp	scooter_8.bmp	sofa_13.bmp	sofa_6.bmp	24	1	1	1	1	LASSONDERPPÄDAGOGIK
FAUST_1[2014-06]	52	3	23	2	3	2	2	2	1	0	1274	1	1	1	2359	4	910	carriage_2.bmp	watergun_8.bmp	carriage_3.bmp	carriage_9.bmp	carriage_12.bmp	carriage_3.bmp	carriage_14.bmp	24	1	1	1	1	LASSONDERPPÄDAGOGIK
FAUST_1[2014-06]	52	3	29	2	3	1	1	3	2	1	3188	2	2	1	2096	4	2014	trophy_15.bmp	shredder_5.bmp	shredder_7.bmp	shredder_6.bmp	laptop_15.bmp	shredder_5.bmp	shredder_15.bmp	24	1	1	1	1	LASSONDERPPÄDAGOGIK
FAUST_1[2014-06]	52	3	17	2	3	2	1	3	2	1	2286	2	1	0	2244	3	1256	glove_15.bmp	mic_5.bmp	tricycle_15.bmp	mic_10.bmp	mic_3.bmp	tricycle_15.bmp	mic_12.bmp	24	1	1	1	1	LASSONDERPPÄDAGOGIK
FAUST_1[2014-06]	52	3	18	2	3	1	1	3	2	1	965	2	2	1	2010	4	1088	circuitboard_8.bmp	jacket_6.bmp	jacket_7.bmp	cherubstatue_10.bmp	jacket_11.bmp	jacket_6.bmp	jacket_13.bmp	24	1	1	1	1	LASSONDERPPÄDAGOGIK
FAUST_1[2014-06]	52	3	27	2	3	2	1	3	2	1	1588	1	1	1	2228	4	1405	trunk_5.bmp	chair_2.bmp	chair_16.bmp	highchair_15.bmp	chair_5.bmp	chair_3.bmp	highchair_15.bmp	24	1	1	1	1	LASSONDERPPÄDAGOGIK
FAUST_1[2014-06]	52	3	22	2	3	1	1	3	2	1	901	1	1	1	1499	4	1290	horseshoe_6.bmp	socks_13.bmp	socks_4.bmp	shoe_9.bmp	socks_10.bmp	socks_12.bmp	socks_13.bmp	24	1	1	1	1	LASSONDERPPÄDAGOGIK
FAUST_1[2014-06]	52	3	12	2	3	2	1	3	2	1	1358	2	2	1	1843	4	905	doorknocker_11.bmp	rusdoll_5.bmp	skateboard_15.bmp	rusdoll_5.bmp	skateboard_11.bmp	skateboard_3.bmp	skateboard_16.bmp	24	1	1	1	1	LASSONDERPPÄDAGOGIK
FAUST_1[2014-06]	52	3	19	2	3	1	1	3	2	1	1239	2	2	1	1838	4	1339	parfait_4.bmp	vase_1.bmp	vase_6.bmp	cheesegrater_15.bmp	vase_13.bmp	vase_6.bmp	vase_5.bmp	24	1	1	1	1	LASSONDERPPÄDAGOGIK
FAUST_1[2014-06]	52	3	4	2	3	2	1	3	2	1	1227	2	2	1	1961	4	1045	videogamecontroller_5.bmp	tv_5.bmp	tv_8.bmp	tv_7.bmp	cat_4.bmp	tv_4.bmp	cat_4.bmp	24	1	1	1	1	LASSONDERPPÄDAGOGIK
FAUST_1[2014-06]	52	4	21	2	2	1	1	1	1	1	1565	2	2	1	2382	4	951	Biscuit20.bmp	Man2.bmp	Man10.bmp	Man2.bmp	Man24.bmp	Biscuit20.bmp	Man4.bmp	24	1	1	1	1	LASSONDERPPÄDAGOGIK
FAUST_1[2014-06]	52	4	17	2	2	2	1	1	1	1	1118	1	1	1	2176	4	1085	Fork9.bmp	Fork9.bmp	Button10.bmp	Button14.bmp	Fork9.bmp	Button18.bmp	Button3.bmp	24	1	1	1	1	LASSONDERPPÄDAGOGIK
FAUST_1[2014-06]	52	4	11	2	2	1	2	1	1	1	1123	1	1	1	2525	3	881	Holly17.bmp	Fudge15.bmp	Holly20.bmp	Holly11.bmp	Holly17.bmp	Holly3.bmp	Fudge15.bmp	24	1	1	1	1	LASSONDERPPÄDAGOGIK
FAUST_1[2014-06]	52	4	6	2	2	2	2	1	1	1	1191	2	2	1	2262	4	1196	Hanger7.bmp	Hanger7.bmp	Hanger15.bmp	Toothbrush1.bmp	Hanger2.bmp	Hanger12.bmp	Hanger7.bmp	24	1	1	1	1	LASSONDERPPÄDAGOGIK
FAUST_1[2014-06]	52	4	4	2	2	1	1	1	1	1	1253	1	2	0	1847	4	677	Mushroom14.bmp	Mushroom14.bmp	Brocolli4.bmp	Brocolli9.bmp	Brocolli19.bmp	Brocolli4.bmp	Brocolli10.bmp	24	1	1	1	1	LASSONDERPPÄDAGOGIK
FAUST_1[2014-06]	52	4	10	2	2	2	1	1	1	1	1475	2	2	1	1518	4	971	Screw9.bmp	Chocolate6.bmp	Screw9.bmp	Chocolate9.bmp	Chocolate17.bmp	Screw9.bmp	Chocolate24.bmp	24	1	1	1	1	LASSONDERPPÄDAGOGIK
FAUST_1[2014-06]	52	4	1	2	2	1	2	1	2	0	2494	1	1	1	1114	2	1183	Hand1.bmp	Apple10.bmp	Hand17.bmp	Hand1.bmp	Apple10.bmp	Hand8.bmp	Hand10.bmp	24	1	1	1	1	LASSONDERPPÄDAGOGIK
FAUST_1[2014-06]	52	4	14	2	2	2	2	1	1	1	1423	2	1	0	2538	4	1330	Bag25.bmp	Bag25.bmp	Leaf21.bmp	Bag3.bmp	Bag5.bmp	Bag4.bmp	Bag25.bmp	24	1	1	1	1	LASSONDERPPÄDAGOGIK
FAUST_1[2014-06]	52	4	22	2	2	1	1	2	2	1	1963	2	2	1	1475	4	1286	Scissors11.bmp	Scissors3.bmp	Stapler7.bmp	Stapler6.bmp	Stapler9.bmp	Stapler8.bmp	Stapler7.bmp	24	1	1	1	1	LASSONDERPPÄDAGOGIK
FAUST_1[2014-06]	52	4	7	2	2	2	1	2	2	1	3434	2	1	0	2259	4	1858	Tomato5.bmp	Pear4.bmp	Pear16.bmp	Tomato2.bmp	Pear18.bmp	Pear15.bmp	Tomato2.bmp	24	1	1	1	1	LASSONDERPPÄDAGOGIK
FAUST_1[2014-06]	52	4	13	2	2	1	2	2	1	0	1162	1	1	1	2365	4	1131	Plug8.bmp	Jigsaw11.bmp	Plug6.bmp	Plug4.bmp	Jigsaw11.bmp	Plug9.bmp	Plug18.bmp	24	1	1	1	1	LASSONDERPPÄDAGOGIK
FAUST_1[2014-06]	52	4	3	2	2	2	2	2	1	0	1791	2	2	1	2287	4	916	Strawberry18.bmp	Cake16.bmp	Strawberry4.bmp	Strawberry21.bmp	Strawberry3.bmp	Strawberry14.bmp	Strawberry4.bmp	24	1	1	1	1	LASSONDERPPÄDAGOGIK
FAUST_1[2014-06]	52	4	5	2	2	1	1	2	1	0	1650	1	1	1	1089	4	1681	Present17.bmp	Present3.bmp	Daff21.bmp	Daff1.bmp	Daff21.bmp	Daff9.bmp	Daff3.bmp	24	1	1	1	1	LASSONDERPPÄDAGOGIK
FAUST_1[2014-06]	52	4	16	2	2	2	1	2	1	0	1295	1	1	1	1878	4	1517	Umbrella19.bmp	Coins14.bmp	Coins12.bmp	Coins10.bmp	Umbrella6.bmp	Coins8.bmp	Umbrella6.bmp	24	1	1	1	1	LASSONDERPPÄDAGOGIK
FAUST_1[2014-06]	52	4	8	2	2	1	2	2	1	0	1036	1	1	1	1774	4	1297	Bun22.bmp	Bun17.bmp	Bun12.bmp	Shell9.bmp	Bun5.bmp	Bun19.bmp	Shell9.bmp	24	1	1	1	1	LASSONDERPPÄDAGOGIK
FAUST_1[2014-06]	52	4	2	2	2	2	2	2	1	0	1404	2	2	1	2048	4	838	Chilli14.bmp	Chilli11.bmp	Chilli12.bmp	Chilli11.bmp	Chilli22.bmp	Pen1.bmp	Chilli19.bmp	24	1	1	1	1	LASSONDERPPÄDAGOGIK
FAUST_1[2014-06]	52	4	15	2	2	1	1	3	2	1	1158	2	1	0	2054	4	901	Feather12.bmp	Onion18.bmp	Onion14.bmp	Swirl13.bmp	Onion13.bmp	Onion7.bmp	Onion13.bmp	24	1	1	1	1	LASSONDERPPÄDAGOGIK
FAUST_1[2014-06]	52	4	18	2	2	2	1	3	2	1	833	2	2	1	1698	4	1001	Paperclip4.bmp	Bracelet18.bmp	Bracelet8.bmp	Ginger10.bmp	Bracelet2.bmp	Bracelet5.bmp	Ginger10.bmp	24	1	1	1	1	LASSONDERPPÄDAGOGIK
FAUST_1[2014-06]	52	4	19	2	2	1	1	3	2	1	1416	2	2	1	1732	2	1264	Key5.bmp	Lipstick15.bmp	Flower13.bmp	Flower14.bmp	Flower3.bmp	Flower17.bmp	Flower14.bmp	24	1	1	1	1	LASSONDERPPÄDAGOGIK
FAUST_1[2014-06]	52	4	12	2	2	2	1	3	2	1	1916	2	2	1	1731	4	1461	Glass19.bmp	Nut18.bmp	Nut21.bmp	Car13.bmp	Nut2.bmp	Car13.bmp	Nut11.bmp	24	1	1	1	1	LASSONDERPPÄDAGOGIK
FAUST_1[2014-06]	52	4	9	2	2	1	1	3	2	1	1591	1	1	1	1406	4	1477	Varnish5.bmp	Keys8.bmp	Keys6.bmp	Keys5.bmp	Keys9.bmp	Star17.bmp	Keys8.bmp	24	1	1	1	1	LASSONDERPPÄDAGOGIK
FAUST_1[2014-06]	52	4	20	2	2	2	1	3	2	1	1616	1	2	0	1787	4	839	Sweet22.bmp	Candle13.bmp	String8.bmp	Candle20.bmp	Candle10.bmp	String8.bmp	Candle1.bmp	24	1	1	1	1	LASSONDERPPÄDAGOGIK
