experiment	subject	block	trial	order	material	repeated	related	probetype	response	correct	rt	math_response	math_correctresponse	math_correct	math_rt	confidence	confidence_rt	probe	item1	item2	item3	item4	item5	item6	age	sex	handedness	color_vision	mother_tongue	occupation
FAUST_1[2014-06]	5	1	7	4	2	1	1	1	1	1	1183	2	2	1	1888	4	1900	Button3.bmp	Nut19.bmp	Nut2.bmp	Nut21.bmp	Button3.bmp	Nut21.bmp	Nut18.bmp	27	1	1	1	1	PSYCHOLOGIE
FAUST_1[2014-06]	5	1	18	4	2	2	1	1	1	1	1899	2	2	1	2806	3	1705	Lipstick9.bmp	Scissors11.bmp	Lipstick9.bmp	Scissors23.bmp	Scissors3.bmp	Lipstick9.bmp	Scissors1.bmp	27	1	1	1	1	PSYCHOLOGIE
FAUST_1[2014-06]	5	1	20	4	2	1	2	1	1	1	1642	2	2	1	2428	4	1157	Fudge5.bmp	Apple18.bmp	Fudge17.bmp	Apple18.bmp	Fudge5.bmp	Fudge15.bmp	Fudge20.bmp	27	1	1	1	1	PSYCHOLOGIE
FAUST_1[2014-06]	5	1	15	4	2	2	2	1	2	0	1576	-1	1	0	0	1	2023	Flower3.bmp	Flower13.bmp	Flower14.bmp	Present17.bmp	Flower3.bmp	Flower18.bmp	Flower3.bmp	27	1	1	1	1	PSYCHOLOGIE
FAUST_1[2014-06]	5	1	19	4	2	1	1	1	1	1	1079	1	1	1	2601	4	1489	Bun22.bmp	Bun22.bmp	Sweet22.bmp	Sweet25.bmp	Sweet18.bmp	Sweet25.bmp	Sweet1.bmp	27	1	1	1	1	PSYCHOLOGIE
FAUST_1[2014-06]	5	1	1	4	2	2	1	1	2	0	226	-1	1	0	0	1	5988	Holly20.bmp	Holly20.bmp	Bag4.bmp	Bag21.bmp	Bag5.bmp	Holly20.bmp	Bag25.bmp	27	1	1	1	1	PSYCHOLOGIE
FAUST_1[2014-06]	5	1	17	4	2	1	2	1	1	1	1266	2	1	0	2974	4	2104	Ginger3.bmp	Ginger3.bmp	Plug4.bmp	Ginger10.bmp	Ginger15.bmp	Ginger5.bmp	Plug4.bmp	27	1	1	1	1	PSYCHOLOGIE
FAUST_1[2014-06]	5	1	14	4	2	2	2	1	1	1	1683	2	1	0	3112	4	2065	Candle20.bmp	Candle20.bmp	Candle17.bmp	Candle20.bmp	Candle13.bmp	Cake16.bmp	Candle1.bmp	27	1	1	1	1	PSYCHOLOGIE
FAUST_1[2014-06]	5	1	16	4	2	1	1	2	1	0	1609	1	1	1	2962	3	2506	Fork17.bmp	Keys5.bmp	Keys6.bmp	Keys7.bmp	Keys5.bmp	Fork9.bmp	Keys8.bmp	27	1	1	1	1	PSYCHOLOGIE
FAUST_1[2014-06]	5	1	21	4	2	2	1	2	1	0	2689	2	2	1	1389	3	2419	Leaf15.bmp	Star2.bmp	Star17.bmp	Leaf10.bmp	Star1.bmp	Leaf10.bmp	Star19.bmp	27	1	1	1	1	PSYCHOLOGIE
FAUST_1[2014-06]	5	1	6	4	2	1	2	2	2	1	1710	2	2	1	2670	3	1771	Onion7.bmp	Pen10.bmp	Onion13.bmp	Onion18.bmp	Onion14.bmp	Pen10.bmp	Onion19.bmp	27	1	1	1	1	PSYCHOLOGIE
FAUST_1[2014-06]	5	1	5	4	2	2	2	2	1	0	1728	1	1	1	2295	3	2762	Strawberry14.bmp	Strawberry18.bmp	Strawberry4.bmp	Strawberry3.bmp	Strawberry21.bmp	Hanger12.bmp	Strawberry3.bmp	27	1	1	1	1	PSYCHOLOGIE
FAUST_1[2014-06]	5	1	22	4	2	1	1	2	2	1	4153	1	1	1	1275	3	1868	Stapler6.bmp	Screw13.bmp	Screw18.bmp	Screw10.bmp	Stapler9.bmp	Screw10.bmp	Screw16.bmp	27	1	1	1	1	PSYCHOLOGIE
FAUST_1[2014-06]	5	1	2	4	2	2	1	2	1	0	69	2	1	0	2320	3	3137	Tomato5.bmp	Tomato3.bmp	Key20.bmp	Key11.bmp	Key5.bmp	Tomato3.bmp	Key13.bmp	27	1	1	1	1	PSYCHOLOGIE
FAUST_1[2014-06]	5	1	10	4	2	1	2	2	2	1	2309	2	2	1	2474	2	1688	Coins14.bmp	Mushroom25.bmp	Coins8.bmp	Coins12.bmp	Mushroom25.bmp	Coins10.bmp	Coins3.bmp	27	1	1	1	1	PSYCHOLOGIE
FAUST_1[2014-06]	5	1	9	4	2	2	2	2	1	0	1655	1	1	1	3149	2	1951	Shell17.bmp	Glass12.bmp	Shell9.bmp	Shell5.bmp	Shell18.bmp	Shell5.bmp	Shell1.bmp	27	1	1	1	1	PSYCHOLOGIE
FAUST_1[2014-06]	5	1	8	4	2	1	1	3	2	1	1264	2	2	1	1657	4	1932	Man24.bmp	String12.bmp	String9.bmp	Chocolate24.bmp	String6.bmp	String9.bmp	String2.bmp	27	1	1	1	1	PSYCHOLOGIE
FAUST_1[2014-06]	5	1	13	4	2	2	1	3	2	1	1832	1	1	1	2512	2	3213	Feather14.bmp	Jigsaw11.bmp	Daff9.bmp	Daff22.bmp	Daff1.bmp	Daff21.bmp	Jigsaw11.bmp	27	1	1	1	1	PSYCHOLOGIE
FAUST_1[2014-06]	5	1	11	4	2	1	1	3	2	1	1002	2	2	1	2527	4	1683	Umbrella21.bmp	Chilli22.bmp	Chilli19.bmp	Chilli14.bmp	Brocolli4.bmp	Chilli22.bmp	Chilli11.bmp	27	1	1	1	1	PSYCHOLOGIE
FAUST_1[2014-06]	5	1	4	4	2	2	1	3	2	1	1280	2	2	1	2293	4	1961	Car13.bmp	Pear7.bmp	Toothbrush12.bmp	Pear7.bmp	Toothbrush9.bmp	Toothbrush10.bmp	Toothbrush1.bmp	27	1	1	1	1	PSYCHOLOGIE
FAUST_1[2014-06]	5	1	12	4	2	1	1	3	2	1	1653	1	1	1	3137	4	1821	Paperclip4.bmp	Varnish5.bmp	Varnish3.bmp	Varnish17.bmp	Bracelet8.bmp	Varnish11.bmp	Varnish5.bmp	27	1	1	1	1	PSYCHOLOGIE
FAUST_1[2014-06]	5	1	3	4	2	2	1	3	2	1	1672	2	2	1	2300	3	1941	Biscuit25.bmp	Swirl10.bmp	Hand8.bmp	Hand10.bmp	Hand13.bmp	Hand17.bmp	Swirl10.bmp	27	1	1	1	1	PSYCHOLOGIE
FAUST_1[2014-06]	5	2	1	4	1	1	1	1	1	1	1195	2	1	0	2283	3	1832	STEINBOCK	schreiben	malen	schreiben	basteln	steinbock	lesen	27	1	1	1	1	PSYCHOLOGIE
FAUST_1[2014-06]	5	2	23	4	1	2	1	1	1	1	896	1	1	1	2735	4	900	MAJORAN	thriller	majoran	actionfilm	horrorfilm	majoran	western	27	1	1	1	1	PSYCHOLOGIE
FAUST_1[2014-06]	5	2	4	4	1	1	2	1	1	1	2983	2	1	0	1777	4	1030	EISEN	jacke	silber	gold	eisen	bronze	jacke	27	1	1	1	1	PSYCHOLOGIE
FAUST_1[2014-06]	5	2	22	4	1	2	2	1	1	1	1794	2	1	0	2889	4	799	BECHER	becher	könig	becher	kanne	karaffe	flasche	27	1	1	1	1	PSYCHOLOGIE
FAUST_1[2014-06]	5	2	32	4	1	1	1	1	1	1	4650	2	1	0	1805	4	1032	BLOCKHAUS	blockhaus	konzertsaal	zirkus	konzertsaal	oper	theater	27	1	1	1	1	PSYCHOLOGIE
FAUST_1[2014-06]	5	2	29	4	1	2	1	1	1	1	1263	1	2	0	2839	2	1255	LILIE	hammer	zange	säge	lilie	bohrer	lilie	27	1	1	1	1	PSYCHOLOGIE
FAUST_1[2014-06]	5	2	30	4	1	1	2	1	1	1	1071	2	2	1	1654	3	694	WEIDE	tanne	fluss	weide	birke	fluss	buche	27	1	1	1	1	PSYCHOLOGIE
FAUST_1[2014-06]	5	2	20	4	1	2	2	1	1	1	1147	1	1	1	2347	4	1151	NOMEN	nomen	adverb	adjektiv	mops	nomen	präposition	27	1	1	1	1	PSYCHOLOGIE
FAUST_1[2014-06]	5	2	27	4	1	1	1	1	1	1	1398	2	1	0	1841	4	977	GEPARD	gepard	wolle	flanell	leinen	flanell	seide	27	1	1	1	1	PSYCHOLOGIE
FAUST_1[2014-06]	5	2	15	4	1	2	1	1	1	1	2675	2	1	0	2386	4	1654	KUGELSCHREIBER	kamera	computer	kugelschreiber	laptop	mobiltelefon	kugelschreiber	27	1	1	1	1	PSYCHOLOGIE
FAUST_1[2014-06]	5	2	21	4	1	1	2	1	1	1	1097	2	2	1	1684	4	743	PORSCHE	porsche	bratwurst	peugeot	audi	bratwurst	volvo	27	1	1	1	1	PSYCHOLOGIE
FAUST_1[2014-06]	5	2	3	4	1	2	2	1	1	1	1173	1	1	1	1786	4	1457	MÜCKE	schwert	biene	hummel	mücke	ameise	mücke	27	1	1	1	1	PSYCHOLOGIE
FAUST_1[2014-06]	5	2	25	4	1	1	1	2	2	1	1217	2	2	1	1399	3	1042	REALSCHULE	stecknadel	nähnadel	gymnasium	stricknadel	nähnadel	sicherheitsnadel	27	1	1	1	1	PSYCHOLOGIE
FAUST_1[2014-06]	5	2	11	4	1	2	1	2	2	1	1407	2	2	1	2231	3	2927	MILLIMETER	tempel	kilometer	synagoge	kirche	kilometer	kapelle	27	1	1	1	1	PSYCHOLOGIE
FAUST_1[2014-06]	5	2	16	4	1	1	2	2	2	1	2724	2	2	1	1828	2	1482	KREIS	hexe	rechteck	quadrat	viereck	dreieck	hexe	27	1	1	1	1	PSYCHOLOGIE
FAUST_1[2014-06]	5	2	26	4	1	2	2	2	2	1	1776	1	1	1	1522	3	1347	MONOPOLY	schach	halma	tochter	backgammon	scrabble	schach	27	1	1	1	1	PSYCHOLOGIE
FAUST_1[2014-06]	5	2	12	4	1	1	1	2	1	0	1564	1	1	1	2234	2	1721	WIMPERNTUSCHE	fühlen	lidschatten	hören	riechen	schmecken	hören	27	1	1	1	1	PSYCHOLOGIE
FAUST_1[2014-06]	5	2	7	4	1	2	1	2	1	0	1868	2	2	1	1591	1	1790	MAKRELE	hering	bein	fuß	hering	kopf	hand	27	1	1	1	1	PSYCHOLOGIE
FAUST_1[2014-06]	5	2	31	4	1	1	2	2	1	0	1181	1	1	1	2707	2	1094	KLEBEBAND	lineal	dollar	büroklammer	brieföffner	dollar	locher	27	1	1	1	1	PSYCHOLOGIE
FAUST_1[2014-06]	5	2	10	4	1	2	2	2	1	0	2159	1	1	1	2286	2	1550	KANU	boot	afrika	schiff	yacht	boot	fähre	27	1	1	1	1	PSYCHOLOGIE
FAUST_1[2014-06]	5	2	28	4	1	1	1	2	2	1	994	2	2	1	1010	3	1197	NIERE	österreich	england	dänemark	schweiz	dänemark	herz	27	1	1	1	1	PSYCHOLOGIE
FAUST_1[2014-06]	5	2	5	4	1	2	1	2	2	1	1280	2	2	1	2219	2	1525	BACKBLECH	nudelholz	sonnenschein	nebel	nudelholz	schnee	hagel	27	1	1	1	1	PSYCHOLOGIE
FAUST_1[2014-06]	5	2	18	4	1	1	2	2	1	0	2007	2	2	1	2332	3	1373	WODKA	tequila	sekunde	gin	sekunde	whiskey	rum	27	1	1	1	1	PSYCHOLOGIE
FAUST_1[2014-06]	5	2	13	4	1	2	2	2	2	1	1788	2	1	0	2957	3	1573	MARZIPAN	lehrer	gummibärchen	karamell	lakritz	bonbons	gummibärchen	27	1	1	1	1	PSYCHOLOGIE
FAUST_1[2014-06]	5	2	14	4	1	1	1	3	2	1	2986	1	1	1	2773	3	1447	SATURN	birne	biologie	physik	mathematik	biologie	erdkunde	27	1	1	1	1	PSYCHOLOGIE
FAUST_1[2014-06]	5	2	9	4	1	2	1	3	2	1	1581	1	1	1	2330	3	1189	SAARLAND	vivaldi	gerste	weizen	vivaldi	hafer	roggen	27	1	1	1	1	PSYCHOLOGIE
FAUST_1[2014-06]	5	2	6	4	1	1	1	3	2	1	2087	1	1	1	3177	3	1097	RADIO	tomaten	karotten	gabel	bohnen	blumenkohl	bohnen	27	1	1	1	1	PSYCHOLOGIE
FAUST_1[2014-06]	5	2	17	4	1	2	1	3	2	1	1646	1	1	1	2533	3	1751	LILA	wasserstoff	ärger	scham	trauer	wasserstoff	freude	27	1	1	1	1	PSYCHOLOGIE
FAUST_1[2014-06]	5	2	2	4	1	1	1	3	2	1	1465	2	1	0	1043	3	2043	AMSEL	flöte	oboe	posaune	berlin	oboe	trompete	27	1	1	1	1	PSYCHOLOGIE
FAUST_1[2014-06]	5	2	24	4	1	2	1	3	2	1	1182	1	1	1	1881	2	1843	LENKRAD	schrank	haschisch	stuhl	regal	sofa	haschisch	27	1	1	1	1	PSYCHOLOGIE
FAUST_1[2014-06]	5	2	19	4	1	1	1	3	2	1	1625	2	2	1	2077	2	1594	SCHWIMMEN	walzer	bus	tango	chachacha	foxtrott	chachacha	27	1	1	1	1	PSYCHOLOGIE
FAUST_1[2014-06]	5	2	8	4	1	2	1	3	2	1	2941	2	2	1	2602	2	2144	RHEIN	petroleum	bleifrei	masern	diesel	kerosin	masern	27	1	1	1	1	PSYCHOLOGIE
FAUST_1[2014-06]	5	3	21	4	3	1	1	1	2	0	804	1	1	1	2266	3	1289	orifan_7.bmp	wig_12.bmp	orifan_7.bmp	wig_12.bmp	wig_6.bmp	wig_1.bmp	wig_7.bmp	27	1	1	1	1	PSYCHOLOGIE
FAUST_1[2014-06]	5	3	20	4	3	2	1	1	1	1	1131	-1	2	0	0	4	1458	scooter_10.bmp	scooter_10.bmp	speaker_15.bmp	scooter_10.bmp	speaker_4.bmp	speaker_6.bmp	speaker_10.bmp	27	1	1	1	1	PSYCHOLOGIE
FAUST_1[2014-06]	5	3	14	4	3	1	2	1	1	1	1266	1	1	1	2683	4	1080	glove_5.bmp	cat_4.bmp	glove_10.bmp	glove_12.bmp	glove_5.bmp	glove_15.bmp	cat_4.bmp	27	1	1	1	1	PSYCHOLOGIE
FAUST_1[2014-06]	5	3	12	4	3	2	2	1	1	1	1404	1	1	1	1603	4	1143	skateboard_15.bmp	skateboard_3.bmp	skateboard_15.bmp	carriage_3.bmp	skateboard_14.bmp	skateboard_11.bmp	skateboard_15.bmp	27	1	1	1	1	PSYCHOLOGIE
FAUST_1[2014-06]	5	3	27	4	3	1	1	1	1	1	1165	1	1	1	1992	4	1693	doorknob_7.bmp	watergun_9.bmp	watergun_8.bmp	watergun_15.bmp	watergun_7.bmp	doorknob_7.bmp	watergun_8.bmp	27	1	1	1	1	PSYCHOLOGIE
FAUST_1[2014-06]	5	3	15	4	3	2	1	1	1	1	970	1	1	1	1488	4	1224	doorknocker_14.bmp	doorknocker_14.bmp	chair_2.bmp	doorknocker_14.bmp	chair_5.bmp	chair_11.bmp	chair_3.bmp	27	1	1	1	1	PSYCHOLOGIE
FAUST_1[2014-06]	5	3	32	4	3	1	2	1	1	1	943	1	1	1	1197	2	1481	easteregg_16.bmp	easteregg_5.bmp	watch_6.bmp	easteregg_16.bmp	easteregg_17.bmp	watch_6.bmp	easteregg_9.bmp	27	1	1	1	1	PSYCHOLOGIE
FAUST_1[2014-06]	5	3	16	4	3	2	2	1	1	1	897	2	2	1	2661	4	945	hairbrush_7.bmp	hairbrush_12.bmp	hairbrush_15.bmp	hairbrush_7.bmp	coffee_14.bmp	hairbrush_16.bmp	hairbrush_7.bmp	27	1	1	1	1	PSYCHOLOGIE
FAUST_1[2014-06]	5	3	30	4	3	1	1	1	1	1	797	2	2	1	2553	3	1757	iceskates_14.bmp	bowlingpin_1.bmp	bowlingpin_4.bmp	bowlingpin_13.bmp	bowlingpin_1.bmp	iceskates_14.bmp	bowlingpin_11.bmp	27	1	1	1	1	PSYCHOLOGIE
FAUST_1[2014-06]	5	3	29	4	3	2	1	1	1	1	1093	1	1	1	3198	4	1221	saddle_4.bmp	saddle_4.bmp	ring_8.bmp	ring_15.bmp	saddle_4.bmp	ring_11.bmp	ring_12.bmp	27	1	1	1	1	PSYCHOLOGIE
FAUST_1[2014-06]	5	3	31	4	3	1	2	1	1	1	707	2	2	1	1240	4	837	camera_3.bmp	camera_9.bmp	camera_7.bmp	leatherman_14.bmp	camera_4.bmp	leatherman_14.bmp	camera_3.bmp	27	1	1	1	1	PSYCHOLOGIE
FAUST_1[2014-06]	5	3	6	4	3	2	2	1	1	1	1512	2	2	1	1517	4	936	birdhouse_11.bmp	birdhouse_9.bmp	birdhouse_6.bmp	birdhouse_11.bmp	sofa_12.bmp	birdhouse_11.bmp	birdhouse_7.bmp	27	1	1	1	1	PSYCHOLOGIE
FAUST_1[2014-06]	5	3	2	4	3	1	1	2	2	1	1265	2	2	1	1952	4	2238	babycrib_5.bmp	cake_14.bmp	babycrib_2.bmp	cake_1.bmp	cake_14.bmp	cake_3.bmp	cake_4.bmp	27	1	1	1	1	PSYCHOLOGIE
FAUST_1[2014-06]	5	3	22	4	3	2	1	2	2	1	3630	2	2	1	2382	4	1331	turtle_6.bmp	turtle_12.bmp	fan_15.bmp	fan_10.bmp	fan_17.bmp	turtle_12.bmp	fan_11.bmp	27	1	1	1	1	PSYCHOLOGIE
FAUST_1[2014-06]	5	3	23	4	3	1	2	2	2	1	1907	2	2	1	2351	3	856	highchair_15.bmp	highchair_10.bmp	highchair_4.bmp	highchair_3.bmp	tricycle_10.bmp	highchair_6.bmp	tricycle_10.bmp	27	1	1	1	1	PSYCHOLOGIE
FAUST_1[2014-06]	5	3	3	4	3	2	2	2	1	0	1410	1	1	1	2113	2	996	beanbagchair_15.bmp	beanbagchair_3.bmp	goggle_3.bmp	beanbagchair_14.bmp	beanbagchair_17.bmp	beanbagchair_12.bmp	beanbagchair_17.bmp	27	1	1	1	1	PSYCHOLOGIE
FAUST_1[2014-06]	5	3	19	4	3	1	1	2	2	1	1175	1	1	1	1443	4	3067	cheesegrater_5.bmp	laptop_10.bmp	cheesegrater_8.bmp	laptop_16.bmp	laptop_14.bmp	laptop_7.bmp	laptop_14.bmp	27	1	1	1	1	PSYCHOLOGIE
FAUST_1[2014-06]	5	3	26	4	3	2	1	2	2	1	1509	1	1	1	2694	2	1986	remote_14.bmp	remote_3.bmp	mic_2.bmp	remote_3.bmp	mic_5.bmp	mic_10.bmp	mic_3.bmp	27	1	1	1	1	PSYCHOLOGIE
FAUST_1[2014-06]	5	3	24	4	3	1	2	2	2	1	2118	2	1	0	2726	2	1010	abacus_6.bmp	abacus_7.bmp	abacus_4.bmp	trophy_14.bmp	abacus_15.bmp	trophy_14.bmp	abacus_2.bmp	27	1	1	1	1	PSYCHOLOGIE
FAUST_1[2014-06]	5	3	9	4	3	2	2	2	2	1	1718	2	2	1	2733	3	1521	garbagecan_13.bmp	garbagecan_17.bmp	garbagecan_8.bmp	garbagecan_2.bmp	garbagecan_10.bmp	garbagecan_2.bmp	glasses_8.bmp	27	1	1	1	1	PSYCHOLOGIE
FAUST_1[2014-06]	5	3	13	4	3	1	1	2	2	1	1592	2	2	1	1202	4	1416	windchime_10.bmp	rusdoll_1.bmp	rusdoll_6.bmp	windchime_15.bmp	rusdoll_5.bmp	rusdoll_6.bmp	rusdoll_8.bmp	27	1	1	1	1	PSYCHOLOGIE
FAUST_1[2014-06]	5	3	4	4	3	2	1	2	2	1	2651	2	2	1	2157	2	1204	guitar_14.bmp	guitar_10.bmp	socks_4.bmp	socks_10.bmp	socks_13.bmp	guitar_10.bmp	socks_15.bmp	27	1	1	1	1	PSYCHOLOGIE
FAUST_1[2014-06]	5	3	5	4	3	1	2	2	1	0	1333	1	2	0	2447	3	1477	shredder_6.bmp	shredder_15.bmp	powerstrip_14.bmp	shredder_7.bmp	shredder_5.bmp	shredder_1.bmp	powerstrip_14.bmp	27	1	1	1	1	PSYCHOLOGIE
FAUST_1[2014-06]	5	3	28	4	3	2	2	2	1	0	961	2	2	1	2621	2	1339	hairdryer_12.bmp	hairdryer_2.bmp	hairdryer_7.bmp	hairdryer_14.bmp	hairdryer_13.bmp	hairdryer_14.bmp	bagel_10.bmp	27	1	1	1	1	PSYCHOLOGIE
FAUST_1[2014-06]	5	3	10	4	3	1	1	3	2	1	977	1	1	1	1329	4	1711	videogamecontroller_13.bmp	lawnmower_8.bmp	lawnmower_13.bmp	lawnmower_3.bmp	lawnmower_13.bmp	lawnmower_17.bmp	rollerskates_5.bmp	27	1	1	1	1	PSYCHOLOGIE
FAUST_1[2014-06]	5	3	18	4	3	2	1	3	2	1	4199	1	1	1	1398	4	1285	circuitboard_16.bmp	sink_11.bmp	router_12.bmp	router_6.bmp	sink_11.bmp	router_5.bmp	router_16.bmp	27	1	1	1	1	PSYCHOLOGIE
FAUST_1[2014-06]	5	3	17	4	3	1	1	3	2	1	2268	2	2	1	2093	4	1442	vase_13.bmp	trunk_5.bmp	trunk_3.bmp	trunk_1.bmp	trunk_2.bmp	horseshoe_12.bmp	trunk_1.bmp	27	1	1	1	1	PSYCHOLOGIE
FAUST_1[2014-06]	5	3	1	4	3	2	1	3	2	1	1824	2	1	0	2182	4	1758	carabiner_9.bmp	hammer_17.bmp	jacket_11.bmp	hammer_15.bmp	jacket_11.bmp	hammer_6.bmp	hammer_8.bmp	27	1	1	1	1	PSYCHOLOGIE
FAUST_1[2014-06]	5	3	7	4	3	1	1	3	2	1	1002	1	1	1	2610	3	1530	printer_14.bmp	flashlight_12.bmp	flashlight_1.bmp	plant_2.bmp	flashlight_13.bmp	flashlight_1.bmp	flashlight_2.bmp	27	1	1	1	1	PSYCHOLOGIE
FAUST_1[2014-06]	5	3	25	4	3	2	1	3	2	1	890	2	2	1	2279	4	1424	parfait_13.bmp	backpack_6.bmp	shoe_15.bmp	backpack_12.bmp	shoe_15.bmp	backpack_10.bmp	backpack_13.bmp	27	1	1	1	1	PSYCHOLOGIE
FAUST_1[2014-06]	5	3	8	4	3	1	1	3	2	1	926	2	2	1	1739	4	1148	pasta_11.bmp	trumpet_5.bmp	trumpet_6.bmp	trumpet_17.bmp	trumpet_3.bmp	trumpet_5.bmp	cherubstatue_10.bmp	27	1	1	1	1	PSYCHOLOGIE
FAUST_1[2014-06]	5	3	11	4	3	2	1	3	2	1	978	2	2	1	1631	4	1580	cellphone_3.bmp	tv_7.bmp	tv_8.bmp	saltpeppershake_9.bmp	tv_4.bmp	saltpeppershake_9.bmp	tv_16.bmp	27	1	1	1	1	PSYCHOLOGIE
FAUST_1[2014-06]	5	2	13	4	2	1	1	1	1	1	1633	2	1	0	1673	4	1194	String2.bmp	Pen1.bmp	Pen17.bmp	Pen1.bmp	String2.bmp	Pen5.bmp	Pen10.bmp	27	1	1	1	1	PSYCHOLOGIE
FAUST_1[2014-06]	5	2	11	4	2	2	1	1	1	1	1009	1	1	1	2119	4	761	Man2.bmp	Varnish3.bmp	Varnish11.bmp	Man2.bmp	Varnish5.bmp	Varnish17.bmp	Man2.bmp	27	1	1	1	1	PSYCHOLOGIE
FAUST_1[2014-06]	5	2	16	4	2	1	2	1	1	1	1409	2	2	1	1451	2	947	Nut2.bmp	Nut18.bmp	Pear7.bmp	Nut21.bmp	Nut2.bmp	Nut11.bmp	Pear7.bmp	27	1	1	1	1	PSYCHOLOGIE
FAUST_1[2014-06]	5	2	12	4	2	2	2	1	1	1	1227	2	2	1	1720	4	801	Bag3.bmp	Bag3.bmp	Bag25.bmp	Bag5.bmp	Bag3.bmp	Holly11.bmp	Bag4.bmp	27	1	1	1	1	PSYCHOLOGIE
FAUST_1[2014-06]	5	2	14	4	2	1	1	1	1	1	893	2	1	0	1893	3	905	Stapler6.bmp	Stapler6.bmp	Biscuit20.bmp	Biscuit9.bmp	Biscuit25.bmp	Biscuit17.bmp	Biscuit25.bmp	27	1	1	1	1	PSYCHOLOGIE
FAUST_1[2014-06]	5	2	21	4	2	2	1	1	1	1	854	2	2	1	1459	4	1193	Chilli14.bmp	Chilli14.bmp	Daff21.bmp	Daff3.bmp	Daff22.bmp	Chilli14.bmp	Daff9.bmp	27	1	1	1	1	PSYCHOLOGIE
FAUST_1[2014-06]	5	2	8	4	2	1	2	1	1	1	1569	2	1	0	982	4	1283	Leaf22.bmp	Chocolate5.bmp	Leaf13.bmp	Leaf22.bmp	Leaf21.bmp	Chocolate5.bmp	Leaf10.bmp	27	1	1	1	1	PSYCHOLOGIE
FAUST_1[2014-06]	5	2	5	4	2	2	2	1	1	1	780	2	2	1	2861	4	1070	Keys5.bmp	Key20.bmp	Keys5.bmp	Keys8.bmp	Keys7.bmp	Keys6.bmp	Keys5.bmp	27	1	1	1	1	PSYCHOLOGIE
FAUST_1[2014-06]	5	2	15	4	2	1	1	2	1	0	826	1	1	1	1939	3	924	Candle10.bmp	Car12.bmp	Car21.bmp	Car13.bmp	Candle13.bmp	Car21.bmp	Car14.bmp	27	1	1	1	1	PSYCHOLOGIE
FAUST_1[2014-06]	5	2	20	4	2	2	1	2	1	0	2922	2	2	1	1742	3	922	Sweet10.bmp	Button18.bmp	Sweet18.bmp	Button10.bmp	Sweet18.bmp	Button20.bmp	Button3.bmp	27	1	1	1	1	PSYCHOLOGIE
FAUST_1[2014-06]	5	2	6	4	2	1	2	2	1	0	1406	2	1	0	2093	4	1837	Coins3.bmp	Coins10.bmp	Fudge15.bmp	Coins12.bmp	Coins8.bmp	Coins14.bmp	Fudge15.bmp	27	1	1	1	1	PSYCHOLOGIE
FAUST_1[2014-06]	5	2	3	4	2	2	2	2	1	0	1272	1	1	1	1576	4	1078	Tomato12.bmp	Tomato3.bmp	Tomato2.bmp	Feather12.bmp	Tomato18.bmp	Tomato3.bmp	Tomato5.bmp	27	1	1	1	1	PSYCHOLOGIE
FAUST_1[2014-06]	5	2	2	4	2	1	1	2	1	0	919	2	2	1	1119	4	1101	Jigsaw17.bmp	Mushroom14.bmp	Mushroom25.bmp	Mushroom7.bmp	Jigsaw14.bmp	Mushroom14.bmp	Mushroom18.bmp	27	1	1	1	1	PSYCHOLOGIE
FAUST_1[2014-06]	5	2	7	4	2	2	1	2	1	0	1244	2	2	1	1932	4	1025	Glass4.bmp	Glass16.bmp	Fork7.bmp	Fork14.bmp	Fork9.bmp	Glass16.bmp	Fork8.bmp	27	1	1	1	1	PSYCHOLOGIE
FAUST_1[2014-06]	5	2	22	4	2	1	2	2	2	1	1914	1	1	1	1497	4	1282	Flower17.bmp	Bracelet1.bmp	Flower18.bmp	Flower14.bmp	Flower13.bmp	Flower3.bmp	Bracelet1.bmp	27	1	1	1	1	PSYCHOLOGIE
FAUST_1[2014-06]	5	2	9	4	2	2	2	2	1	0	1592	2	2	1	2177	3	1293	Lipstick9.bmp	Lipstick3.bmp	Lipstick2.bmp	Ginger17.bmp	Lipstick15.bmp	Lipstick2.bmp	Lipstick7.bmp	27	1	1	1	1	PSYCHOLOGIE
FAUST_1[2014-06]	5	2	1	4	2	1	1	3	2	1	1304	2	2	1	2000	4	1632	Shell5.bmp	Onion19.bmp	Onion14.bmp	Onion18.bmp	Onion13.bmp	Cake16.bmp	Onion18.bmp	27	1	1	1	1	PSYCHOLOGIE
FAUST_1[2014-06]	5	2	19	4	2	2	1	3	2	1	1217	2	2	1	1930	4	1549	Plug18.bmp	Screw9.bmp	Screw10.bmp	Scissors1.bmp	Screw18.bmp	Scissors1.bmp	Screw13.bmp	27	1	1	1	1	PSYCHOLOGIE
FAUST_1[2014-06]	5	2	18	4	2	1	1	3	2	1	2046	2	1	0	1462	1	1261	Umbrella17.bmp	Strawberry21.bmp	Strawberry14.bmp	Strawberry3.bmp	Strawberry18.bmp	Strawberry3.bmp	Hand10.bmp	27	1	1	1	1	PSYCHOLOGIE
FAUST_1[2014-06]	5	2	17	4	2	2	1	3	2	1	1047	1	1	1	1344	4	1801	Apple5.bmp	Star19.bmp	Hanger14.bmp	Star17.bmp	Hanger14.bmp	Star7.bmp	Star1.bmp	27	1	1	1	1	PSYCHOLOGIE
FAUST_1[2014-06]	5	2	4	4	2	1	1	3	2	1	738	1	1	1	1093	4	1540	Swirl23.bmp	Brocolli4.bmp	Bun22.bmp	Brocolli9.bmp	Brocolli10.bmp	Brocolli14.bmp	Brocolli10.bmp	27	1	1	1	1	PSYCHOLOGIE
FAUST_1[2014-06]	5	2	10	4	2	2	1	3	2	1	1218	2	2	1	1234	4	800	Paperclip6.bmp	Toothbrush6.bmp	Present3.bmp	Toothbrush10.bmp	Present3.bmp	Toothbrush12.bmp	Toothbrush1.bmp	27	1	1	1	1	PSYCHOLOGIE
FAUST_1[2014-06]	5	3	4	4	1	1	1	1	2	0	2276	1	2	0	2144	3	2246	PETROLEUM	chemie	mathematik	petroleum	biologie	physik	biologie	27	1	1	1	1	PSYCHOLOGIE
FAUST_1[2014-06]	5	3	20	4	1	2	1	1	1	1	1026	2	2	1	1566	3	670	FREUDE	stuhl	regal	sofa	freude	schrank	freude	27	1	1	1	1	PSYCHOLOGIE
FAUST_1[2014-06]	5	3	9	4	1	1	2	1	1	1	1431	2	1	0	984	3	1432	BARACKE	karamell	hütte	baracke	karamell	scheune	blockhaus	27	1	1	1	1	PSYCHOLOGIE
FAUST_1[2014-06]	5	3	24	4	1	2	2	1	1	1	936	1	2	0	2748	4	993	BLEISTIFT	bleistift	kino	filzstift	füller	buntstift	bleistift	27	1	1	1	1	PSYCHOLOGIE
FAUST_1[2014-06]	5	3	27	4	1	1	1	1	1	1	910	2	2	1	1568	3	1120	LOCHER	locher	jungfrau	schütze	zwilling	jungfrau	steinbock	27	1	1	1	1	PSYCHOLOGIE
FAUST_1[2014-06]	5	3	31	4	1	2	1	1	1	1	1395	-1	2	0	0	4	802	BEETHOVEN	beethoven	mark	pfennig	beethoven	euro	cent	27	1	1	1	1	PSYCHOLOGIE
FAUST_1[2014-06]	5	3	19	4	1	1	2	1	1	1	1284	2	2	1	736	3	950	ÖSTERREICH	italien	england	österreich	küchenwaage	schweiz	küchenwaage	27	1	1	1	1	PSYCHOLOGIE
FAUST_1[2014-06]	5	3	23	4	1	2	2	1	1	1	1371	2	2	1	898	4	726	LUNGE	schiff	lunge	niere	herz	lunge	leber	27	1	1	1	1	PSYCHOLOGIE
FAUST_1[2014-06]	5	3	1	4	1	1	1	1	1	1	1232	2	2	1	1047	4	1425	GYMNASIUM	eisen	gymnasium	messing	gold	eisen	silber	27	1	1	1	1	PSYCHOLOGIE
FAUST_1[2014-06]	5	3	10	4	1	2	1	1	1	1	934	2	2	1	1041	3	722	KAJAL	biene	kajal	hummel	mücke	wespe	kajal	27	1	1	1	1	PSYCHOLOGIE
FAUST_1[2014-06]	5	3	17	4	1	1	2	1	2	0	7744	2	1	0	1302	3	1292	ROT	schwalbe	lila	gelb	rot	blau	schwalbe	27	1	1	1	1	PSYCHOLOGIE
FAUST_1[2014-06]	5	3	15	4	1	2	2	1	1	1	1178	2	2	1	1601	4	780	LEHRER	polizist	lehrer	pfarrer	lehrer	richter	basteln	27	1	1	1	1	PSYCHOLOGIE
FAUST_1[2014-06]	5	3	21	4	1	1	1	2	2	1	1720	2	2	1	1174	3	843	KÖNIG	drucker	computer	laptop	kamera	fürst	kamera	27	1	1	1	1	PSYCHOLOGIE
FAUST_1[2014-06]	5	3	26	4	1	2	1	2	2	1	940	2	2	1	1149	3	661	HESSEN	zange	bohrer	säge	sachsen	meißel	sachsen	27	1	1	1	1	PSYCHOLOGIE
FAUST_1[2014-06]	5	3	12	4	1	1	2	2	2	1	1110	2	1	0	513	2	1246	MÜNCHEN	bohnen	hamburg	berlin	stuttgart	hannover	bohnen	27	1	1	1	1	PSYCHOLOGIE
FAUST_1[2014-06]	5	3	25	4	1	2	2	2	2	1	989	2	1	0	2214	4	1059	BAUMWOLLE	seide	leinen	flanell	kupplung	wolle	seide	27	1	1	1	1	PSYCHOLOGIE
FAUST_1[2014-06]	5	3	13	4	1	1	1	2	2	1	1310	1	1	1	1485	3	1349	FÜHLEN	apfel	pflaume	erdbeere	apfel	birne	riechen	27	1	1	1	1	PSYCHOLOGIE
FAUST_1[2014-06]	5	3	18	4	1	2	1	2	2	1	1513	1	1	1	1208	4	1397	SATURN	venus	rose	venus	tulpe	nelke	veilchen	27	1	1	1	1	PSYCHOLOGIE
FAUST_1[2014-06]	5	3	32	4	1	1	2	2	1	0	1430	2	2	1	1465	2	756	METER	millimeter	hand	kilometer	meile	zentimeter	hand	27	1	1	1	1	PSYCHOLOGIE
FAUST_1[2014-06]	5	3	28	4	1	2	2	2	1	0	1121	2	2	1	1069	3	786	ROCK	teelöffel	jacke	hose	jacke	hemd	bluse	27	1	1	1	1	PSYCHOLOGIE
FAUST_1[2014-06]	5	3	5	4	1	1	1	2	2	1	900	1	1	1	2582	4	1563	WERWOLF	gin	whiskey	zombie	rum	gin	wodka	27	1	1	1	1	PSYCHOLOGIE
FAUST_1[2014-06]	5	3	3	4	1	2	1	2	2	1	901	2	2	1	2046	4	1413	CHACHACHA	rosmarin	foxtrott	oregano	foxtrott	thymian	koriander	27	1	1	1	1	PSYCHOLOGIE
FAUST_1[2014-06]	5	3	11	4	1	1	2	2	1	0	864	2	2	1	1394	2	724	RECHTECK	komödie	quadrat	komödie	kreis	viereck	dreieck	27	1	1	1	1	PSYCHOLOGIE
FAUST_1[2014-06]	5	3	30	4	1	2	2	2	1	0	1173	1	2	0	700	2	1399	SCHWERT	gewehr	pistole	bombe	verb	dolch	pistole	27	1	1	1	1	PSYCHOLOGIE
FAUST_1[2014-06]	5	3	16	4	1	1	1	3	2	1	966	2	1	0	1537	3	894	WEIZEN	karaffe	flasche	kanne	sicherheitsnadel	flasche	becher	27	1	1	1	1	PSYCHOLOGIE
FAUST_1[2014-06]	5	3	6	4	1	2	1	3	2	1	1037	2	2	1	1078	4	1308	TOCHTER	masern	pizza	hamburger	masern	pommes	döner	27	1	1	1	1	PSYCHOLOGIE
FAUST_1[2014-06]	5	3	14	4	1	1	1	3	2	1	1632	1	1	1	1777	2	1245	HELIUM	australien	asien	schäferhund	afrika	südamerika	asien	27	1	1	1	1	PSYCHOLOGIE
FAUST_1[2014-06]	5	3	29	4	1	2	1	3	2	1	785	2	2	1	1556	3	876	THUNFISCH	flöte	scrabble	flöte	schach	halma	backgammon	27	1	1	1	1	PSYCHOLOGIE
FAUST_1[2014-06]	5	3	7	4	1	1	1	3	2	1	1112	1	1	1	2087	3	1549	NEBEL	see	stunde	fluss	meer	ozean	meer	27	1	1	1	1	PSYCHOLOGIE
FAUST_1[2014-06]	5	3	8	4	1	2	1	3	2	1	1889	2	2	1	1188	4	1911	CANNABIS	eiche	skifahren	golf	eiche	schwimmen	tennis	27	1	1	1	1	PSYCHOLOGIE
FAUST_1[2014-06]	5	3	2	4	1	1	1	3	2	1	744	1	1	1	1646	4	975	TIGER	volvo	mercedes	volvo	peugeot	radio	audi	27	1	1	1	1	PSYCHOLOGIE
FAUST_1[2014-06]	5	3	22	4	1	2	1	3	2	1	2399	2	1	0	998	2	849	SYNAGOGE	taxi	straßenbahn	donau	zug	bus	donau	27	1	1	1	1	PSYCHOLOGIE
FAUST_1[2014-06]	5	4	7	4	3	1	1	1	2	0	1619	2	1	0	431	1	1340	lawnmower_3.bmp	speaker_4.bmp	speaker_15.bmp	speaker_6.bmp	lawnmower_3.bmp	speaker_17.bmp	speaker_4.bmp	27	1	1	1	1	PSYCHOLOGIE
FAUST_1[2014-06]	5	4	27	4	3	2	1	1	1	1	788	2	2	1	1771	4	928	highchair_10.bmp	highchair_10.bmp	cellphone_12.bmp	cellphone_4.bmp	cellphone_8.bmp	cellphone_11.bmp	highchair_10.bmp	27	1	1	1	1	PSYCHOLOGIE
FAUST_1[2014-06]	5	4	6	4	3	1	2	1	1	1	3839	1	1	1	1891	2	954	hairbrush_17.bmp	hairbrush_7.bmp	hairbrush_16.bmp	hairbrush_15.bmp	goggle_4.bmp	hairbrush_17.bmp	goggle_4.bmp	27	1	1	1	1	PSYCHOLOGIE
FAUST_1[2014-06]	5	4	20	4	3	2	2	1	1	1	834	2	2	1	1952	3	1561	videogamecontroller_3.bmp	videogamecontroller_3.bmp	hairdryer_14.bmp	videogamecontroller_13.bmp	videogamecontroller_3.bmp	videogamecontroller_2.bmp	videogamecontroller_5.bmp	27	1	1	1	1	PSYCHOLOGIE
FAUST_1[2014-06]	5	4	17	4	3	1	1	1	1	1	1128	2	1	0	1184	3	1290	watergun_3.bmp	watergun_3.bmp	powerstrip_14.bmp	powerstrip_10.bmp	powerstrip_7.bmp	powerstrip_14.bmp	powerstrip_8.bmp	27	1	1	1	1	PSYCHOLOGIE
FAUST_1[2014-06]	5	4	4	4	3	2	1	1	1	1	1461	2	2	1	1507	4	1151	jacket_11.bmp	shredder_15.bmp	shredder_1.bmp	jacket_11.bmp	shredder_5.bmp	jacket_11.bmp	shredder_6.bmp	27	1	1	1	1	PSYCHOLOGIE
FAUST_1[2014-06]	5	4	11	4	3	1	2	1	1	1	688	2	2	1	561	4	683	easteregg_14.bmp	easteregg_14.bmp	easteregg_9.bmp	hammer_6.bmp	easteregg_5.bmp	hammer_6.bmp	easteregg_16.bmp	27	1	1	1	1	PSYCHOLOGIE
FAUST_1[2014-06]	5	4	26	4	3	2	2	1	1	1	1123	2	1	0	1747	4	1140	circuitboard_16.bmp	circuitboard_13.bmp	circuitboard_4.bmp	circuitboard_16.bmp	guitar_7.bmp	circuitboard_2.bmp	circuitboard_16.bmp	27	1	1	1	1	PSYCHOLOGIE
FAUST_1[2014-06]	5	4	18	4	3	1	1	1	1	1	825	2	1	0	675	3	1234	flashlight_1.bmp	vase_5.bmp	vase_6.bmp	vase_1.bmp	vase_13.bmp	flashlight_1.bmp	vase_5.bmp	27	1	1	1	1	PSYCHOLOGIE
FAUST_1[2014-06]	5	4	25	4	3	2	1	1	1	1	925	2	1	0	957	4	1087	bagel_16.bmp	coffee_2.bmp	bagel_16.bmp	coffee_1.bmp	coffee_7.bmp	bagel_16.bmp	coffee_14.bmp	27	1	1	1	1	PSYCHOLOGIE
FAUST_1[2014-06]	5	4	21	4	3	1	2	1	1	1	1032	2	1	0	858	2	1792	abacus_2.bmp	tricycle_10.bmp	abacus_6.bmp	abacus_15.bmp	abacus_2.bmp	abacus_7.bmp	tricycle_10.bmp	27	1	1	1	1	PSYCHOLOGIE
FAUST_1[2014-06]	5	4	24	4	3	2	2	1	1	1	1250	2	2	1	1394	3	958	orifan_1.bmp	orifan_6.bmp	orifan_14.bmp	orifan_1.bmp	trophy_16.bmp	orifan_7.bmp	orifan_1.bmp	27	1	1	1	1	PSYCHOLOGIE
FAUST_1[2014-06]	5	4	1	4	3	1	1	2	2	1	1536	2	2	1	1630	3	882	sink_15.bmp	sink_11.bmp	turtle_12.bmp	turtle_6.bmp	turtle_11.bmp	turtle_7.bmp	turtle_11.bmp	27	1	1	1	1	PSYCHOLOGIE
FAUST_1[2014-06]	5	4	28	4	3	2	1	2	2	1	1075	2	2	1	960	3	1077	trunk_3.bmp	trunk_2.bmp	router_7.bmp	router_5.bmp	router_16.bmp	router_12.bmp	trunk_2.bmp	27	1	1	1	1	PSYCHOLOGIE
FAUST_1[2014-06]	5	4	31	4	3	1	2	2	1	0	810	2	2	1	422	4	831	doorknocker_14.bmp	doorknocker_5.bmp	cat_10.bmp	doorknocker_4.bmp	doorknocker_11.bmp	doorknocker_2.bmp	cat_10.bmp	27	1	1	1	1	PSYCHOLOGIE
FAUST_1[2014-06]	5	4	3	4	3	2	2	2	1	0	1691	2	2	1	1647	4	1229	skateboard_15.bmp	skateboard_11.bmp	carriage_9.bmp	skateboard_16.bmp	skateboard_3.bmp	skateboard_14.bmp	skateboard_3.bmp	27	1	1	1	1	PSYCHOLOGIE
FAUST_1[2014-06]	5	4	15	4	3	1	1	2	2	1	1937	2	2	1	458	3	1625	pasta_11.bmp	cherubstatue_5.bmp	cherubstatue_10.bmp	cherubstatue_11.bmp	cherubstatue_10.bmp	pasta_9.bmp	cherubstatue_12.bmp	27	1	1	1	1	PSYCHOLOGIE
FAUST_1[2014-06]	5	4	32	4	3	2	1	2	2	1	679	1	1	1	885	4	1267	parfait_13.bmp	parfait_11.bmp	glove_10.bmp	glove_5.bmp	glove_12.bmp	glove_15.bmp	parfait_11.bmp	27	1	1	1	1	PSYCHOLOGIE
FAUST_1[2014-06]	5	4	10	4	3	1	2	2	1	0	1427	2	1	0	685	4	1199	wig_12.bmp	plant_5.bmp	wig_6.bmp	wig_7.bmp	wig_1.bmp	wig_9.bmp	plant_5.bmp	27	1	1	1	1	PSYCHOLOGIE
FAUST_1[2014-06]	5	4	30	4	3	2	2	2	1	0	784	2	2	1	331	4	617	backpack_13.bmp	backpack_12.bmp	backpack_16.bmp	horseshoe_5.bmp	backpack_12.bmp	backpack_6.bmp	backpack_10.bmp	27	1	1	1	1	PSYCHOLOGIE
FAUST_1[2014-06]	5	4	9	4	3	1	1	2	2	1	1065	1	2	0	1381	2	1220	trumpet_3.bmp	socks_13.bmp	socks_4.bmp	trumpet_1.bmp	socks_12.bmp	socks_15.bmp	socks_12.bmp	27	1	1	1	1	PSYCHOLOGIE
FAUST_1[2014-06]	5	4	19	4	3	2	1	2	1	0	1059	1	2	0	668	2	2021	sofa_3.bmp	fan_17.bmp	fan_1.bmp	sofa_12.bmp	fan_11.bmp	sofa_12.bmp	fan_10.bmp	27	1	1	1	1	PSYCHOLOGIE
FAUST_1[2014-06]	5	4	23	4	3	1	2	2	2	1	834	2	1	0	638	2	1204	bowlingpin_11.bmp	babycrib_5.bmp	bowlingpin_3.bmp	babycrib_5.bmp	bowlingpin_1.bmp	bowlingpin_13.bmp	bowlingpin_4.bmp	27	1	1	1	1	PSYCHOLOGIE
FAUST_1[2014-06]	5	4	14	4	3	2	2	2	2	1	1198	1	2	0	1010	2	822	windchime_3.bmp	windchime_10.bmp	windchime_16.bmp	carabiner_6.bmp	windchime_15.bmp	windchime_6.bmp	windchime_15.bmp	27	1	1	1	1	PSYCHOLOGIE
FAUST_1[2014-06]	5	4	8	4	3	1	1	3	2	1	2191	2	2	1	719	4	1129	camera_9.bmp	printer_5.bmp	rusdoll_1.bmp	rusdoll_5.bmp	rusdoll_6.bmp	rusdoll_8.bmp	rusdoll_5.bmp	27	1	1	1	1	PSYCHOLOGIE
FAUST_1[2014-06]	5	4	22	4	3	2	1	3	2	1	874	2	2	1	1054	4	1101	saddle_3.bmp	garbagecan_13.bmp	iceskates_9.bmp	iceskates_16.bmp	iceskates_7.bmp	garbagecan_13.bmp	iceskates_14.bmp	27	1	1	1	1	PSYCHOLOGIE
FAUST_1[2014-06]	5	4	13	4	3	1	1	3	2	1	1296	2	2	1	902	3	1068	cheesegrater_11.bmp	remote_2.bmp	cake_14.bmp	cake_4.bmp	cake_5.bmp	cake_4.bmp	cake_1.bmp	27	1	1	1	1	PSYCHOLOGIE
FAUST_1[2014-06]	5	4	5	4	3	2	1	3	2	1	1317	2	1	0	1161	4	912	shoe_17.bmp	rollerskates_17.bmp	saltpeppershake_8.bmp	saltpeppershake_17.bmp	saltpeppershake_12.bmp	rollerskates_17.bmp	saltpeppershake_9.bmp	27	1	1	1	1	PSYCHOLOGIE
FAUST_1[2014-06]	5	4	29	4	3	1	1	3	1	0	1224	2	2	1	417	2	1120	chair_5.bmp	birdhouse_9.bmp	watch_6.bmp	watch_7.bmp	watch_3.bmp	watch_14.bmp	watch_7.bmp	27	1	1	1	1	PSYCHOLOGIE
FAUST_1[2014-06]	5	4	2	4	3	2	1	3	2	1	797	1	1	1	1156	4	1358	beanbagchair_15.bmp	laptop_7.bmp	glasses_8.bmp	glasses_13.bmp	laptop_7.bmp	glasses_6.bmp	glasses_15.bmp	27	1	1	1	1	PSYCHOLOGIE
FAUST_1[2014-06]	5	4	16	4	3	1	1	3	2	1	1112	2	1	0	555	4	1276	doorknob_10.bmp	ring_7.bmp	ring_11.bmp	ring_15.bmp	mic_10.bmp	ring_15.bmp	ring_12.bmp	27	1	1	1	1	PSYCHOLOGIE
FAUST_1[2014-06]	5	4	12	4	3	2	1	3	2	1	886	2	2	1	958	4	1460	scooter_4.bmp	tv_4.bmp	leatherman_14.bmp	tv_8.bmp	tv_16.bmp	leatherman_14.bmp	tv_7.bmp	27	1	1	1	1	PSYCHOLOGIE
