experiment	subject	block	trial	order	material	repeated	related	probetype	response	correct	rt	math_response	math_correctresponse	math_correct	math_rt	confidence	confidence_rt	probe	item1	item2	item3	item4	item5	item6	age	sex	handedness	color_vision	mother_tongue	occupation
FAUST_1[2014-06]	7	1	20	1	1	1	1	1	1	1	2273	2	2	1	2481	4	3366	HAMBURG	hamburg	trompete	posaune	oboe	flöte	trompete	21	1	1	1	1	PSYCHOLOGIE
FAUST_1[2014-06]	7	1	2	1	1	2	1	1	2	0	68	-1	2	0	0	2	4693	KONZERTSAAL	angst	ärger	konzertsaal	freude	konzertsaal	trauer	21	1	1	1	1	PSYCHOLOGIE
FAUST_1[2014-06]	7	1	1	1	1	1	2	1	2	0	2618	1	1	1	3378	3	2759	MAKRELE	backgammon	makrele	thunfisch	backgammon	hering	forelle	21	1	1	1	1	PSYCHOLOGIE
FAUST_1[2014-06]	7	1	25	1	1	2	2	1	1	1	2065	2	1	0	2244	4	1887	SCHWALBE	schwalbe	fink	taube	stricknadel	schwalbe	meise	21	1	1	1	1	PSYCHOLOGIE
FAUST_1[2014-06]	7	1	23	1	1	1	1	1	1	1	1506	-1	2	0	0	2	2477	HASCHISCH	haschisch	backblech	küchenwaage	nudelholz	küchenwaage	pfannenwender	21	1	1	1	1	PSYCHOLOGIE
FAUST_1[2014-06]	7	1	16	1	1	2	1	1	1	1	1440	1	1	1	2844	3	2231	TOCHTER	tochter	schäferhund	tochter	dackel	terrier	dogge	21	1	1	1	1	PSYCHOLOGIE
FAUST_1[2014-06]	7	1	31	1	1	1	2	1	1	1	1524	2	2	1	3003	4	1923	ELBE	donau	rhein	birne	elbe	main	birne	21	1	1	1	1	PSYCHOLOGIE
FAUST_1[2014-06]	7	1	7	1	1	2	2	1	1	1	2669	2	2	1	2659	3	2066	WEIZEN	hafer	weizen	scheune	gerste	weizen	roggen	21	1	1	1	1	PSYCHOLOGIE
FAUST_1[2014-06]	7	1	10	1	1	1	1	1	1	1	2015	1	1	1	3373	1	3466	WESPE	messer	wespe	löffel	teelöffel	brotmesser	messer	21	1	1	1	1	PSYCHOLOGIE
FAUST_1[2014-06]	7	1	12	1	1	2	1	1	1	1	2220	1	1	1	1541	4	2186	KAROTTEN	klebeband	locher	brieföffner	karotten	lineal	karotten	21	1	1	1	1	PSYCHOLOGIE
FAUST_1[2014-06]	7	1	26	1	1	1	2	1	1	1	1654	1	2	0	2976	4	1878	FLANELL	leinen	wolle	tempel	baumwolle	flanell	tempel	21	1	1	1	1	PSYCHOLOGIE
FAUST_1[2014-06]	7	1	4	1	1	2	2	1	1	1	1904	2	1	0	3406	1	1852	FÄHRE	boot	fähre	schiff	yacht	pfarrer	fähre	21	1	1	1	1	PSYCHOLOGIE
FAUST_1[2014-06]	7	1	8	1	1	1	1	2	2	1	2384	1	2	0	2579	3	1624	GYMNASIUM	messing	gold	hauptschule	eisen	messing	silber	21	1	1	1	1	PSYCHOLOGIE
FAUST_1[2014-06]	7	1	19	1	1	2	1	2	2	1	1308	1	1	1	2225	3	1971	NIERE	pfennig	dollar	herz	cent	herz	mark	21	1	1	1	1	PSYCHOLOGIE
FAUST_1[2014-06]	7	1	24	1	1	1	2	2	2	1	2956	1	2	0	2810	3	2380	PLUTO	jupiter	merkur	venus	petroleum	saturn	petroleum	21	1	1	1	1	PSYCHOLOGIE
FAUST_1[2014-06]	7	1	21	1	1	2	2	2	2	1	2738	1	1	1	2521	1	1976	GASPEDAL	handbremse	kupplung	lenkrad	handbremse	tag	rückspiegel	21	1	1	1	1	PSYCHOLOGIE
FAUST_1[2014-06]	7	1	11	1	1	1	1	2	2	1	2165	2	2	1	3288	3	2995	HAMBURGER	marzipan	gummibärchen	döner	karamell	lakritz	gummibärchen	21	1	1	1	1	PSYCHOLOGIE
FAUST_1[2014-06]	7	1	32	1	1	2	1	2	1	0	1454	2	2	1	2682	3	2041	SCHWERT	gewehr	regen	schnee	gewehr	sonnenschein	nebel	21	1	1	1	1	PSYCHOLOGIE
FAUST_1[2014-06]	7	1	29	1	1	1	2	2	1	0	2019	2	1	0	2898	1	1855	SÜDAMERIKA	panther	nordamerika	afrika	asien	australien	panther	21	1	1	1	1	PSYCHOLOGIE
FAUST_1[2014-06]	7	1	3	1	1	2	2	2	2	1	2107	2	2	1	3497	2	3906	GRÜN	lesen	gelb	rot	gelb	lila	blau	21	1	1	1	1	PSYCHOLOGIE
FAUST_1[2014-06]	7	1	5	1	1	1	1	2	2	1	2019	2	2	1	2575	4	2361	HORRORFILM	wassermann	thriller	schütze	zwilling	wassermann	jungfrau	21	1	1	1	1	PSYCHOLOGIE
FAUST_1[2014-06]	7	1	6	1	1	2	1	2	2	1	2061	2	2	1	3007	3	1667	KÖNIG	herzog	zentimeter	meter	herzog	meile	millimeter	21	1	1	1	1	PSYCHOLOGIE
FAUST_1[2014-06]	7	1	18	1	1	1	2	2	2	1	2584	1	1	1	2979	2	1624	DREIECK	quadrat	viereck	rechteck	buche	kreis	buche	21	1	1	1	1	PSYCHOLOGIE
FAUST_1[2014-06]	7	1	27	1	1	2	2	2	2	1	1542	1	1	1	2089	3	2714	DÄNEMARK	england	italien	österreich	radio	schweiz	england	21	1	1	1	1	PSYCHOLOGIE
FAUST_1[2014-06]	7	1	13	1	1	1	1	3	1	0	21	-1	1	0	0	1	3030	SAUERSTOFF	hemd	hose	jacke	sehen	rock	jacke	21	1	1	1	1	PSYCHOLOGIE
FAUST_1[2014-06]	7	1	28	1	1	2	1	3	2	1	1213	1	1	1	2436	4	2005	KUGELSCHREIBER	röteln	laptop	computer	drucker	röteln	kamera	21	1	1	1	1	PSYCHOLOGIE
FAUST_1[2014-06]	7	1	14	1	1	1	1	3	2	1	1900	2	2	1	3125	3	3966	ROUGE	porsche	audi	volvo	mercedes	majoran	volvo	21	1	1	1	1	PSYCHOLOGIE
FAUST_1[2014-06]	7	1	15	1	1	2	1	3	2	1	1506	2	2	1	2365	3	1593	MEER	rose	erdkunde	lilie	nelke	tulpe	erdkunde	21	1	1	1	1	PSYCHOLOGIE
FAUST_1[2014-06]	7	1	9	1	1	1	1	3	2	1	1926	2	2	1	2586	4	1838	BEIN	vivaldi	glas	karaffe	flasche	kanne	karaffe	21	1	1	1	1	PSYCHOLOGIE
FAUST_1[2014-06]	7	1	17	1	1	2	1	3	2	1	1586	2	2	1	2383	3	3052	WHISKEY	bus	fahrrad	bohrer	taxi	straßenbahn	bohrer	21	1	1	1	1	PSYCHOLOGIE
FAUST_1[2014-06]	7	1	22	1	1	1	1	3	1	0	1647	1	1	1	1655	2	2312	FUßBALL	rumba	hexe	vampir	werwolf	hexe	dämon	21	1	1	1	1	PSYCHOLOGIE
FAUST_1[2014-06]	7	1	30	1	1	2	1	3	2	1	2087	2	2	1	3148	3	2564	THÜRINGEN	tisch	präposition	tisch	verb	adjektiv	nomen	21	1	1	1	1	PSYCHOLOGIE
FAUST_1[2014-06]	7	2	19	1	2	1	1	1	1	1	1163	1	1	1	2552	4	1562	Feather12.bmp	String6.bmp	String2.bmp	String8.bmp	String9.bmp	String6.bmp	Feather12.bmp	21	1	1	1	1	PSYCHOLOGIE
FAUST_1[2014-06]	7	2	16	1	2	2	1	1	1	1	1543	1	1	1	2228	3	2341	Varnish14.bmp	Bun17.bmp	Varnish14.bmp	Bun19.bmp	Varnish14.bmp	Bun5.bmp	Bun22.bmp	21	1	1	1	1	PSYCHOLOGIE
FAUST_1[2014-06]	7	2	9	1	2	1	2	1	1	1	1394	1	2	0	2649	4	1309	Key11.bmp	Key11.bmp	Key20.bmp	Brocolli10.bmp	Key13.bmp	Key9.bmp	Brocolli10.bmp	21	1	1	1	1	PSYCHOLOGIE
FAUST_1[2014-06]	7	2	22	1	2	2	2	1	1	1	1473	2	2	1	2304	4	1576	Biscuit4.bmp	Keys8.bmp	Biscuit4.bmp	Biscuit25.bmp	Biscuit4.bmp	Biscuit9.bmp	Biscuit20.bmp	21	1	1	1	1	PSYCHOLOGIE
FAUST_1[2014-06]	7	2	10	1	2	1	1	1	1	1	1336	2	2	1	2744	3	1973	Umbrella17.bmp	Paperclip13.bmp	Paperclip14.bmp	Paperclip9.bmp	Umbrella17.bmp	Paperclip6.bmp	Paperclip14.bmp	21	1	1	1	1	PSYCHOLOGIE
FAUST_1[2014-06]	7	2	14	1	2	2	1	1	1	1	1208	2	2	1	2526	3	1462	Mushroom7.bmp	Holly11.bmp	Mushroom7.bmp	Holly17.bmp	Holly20.bmp	Mushroom7.bmp	Holly3.bmp	21	1	1	1	1	PSYCHOLOGIE
FAUST_1[2014-06]	7	2	7	1	2	1	2	1	1	1	1303	1	1	1	2377	4	1542	Ginger17.bmp	Ginger5.bmp	Present17.bmp	Ginger3.bmp	Ginger15.bmp	Ginger17.bmp	Present17.bmp	21	1	1	1	1	PSYCHOLOGIE
FAUST_1[2014-06]	7	2	4	1	2	2	2	1	1	1	1772	1	1	1	2647	4	1675	Fork14.bmp	Fork14.bmp	Fork9.bmp	Fork7.bmp	Fork8.bmp	Fork14.bmp	Toothbrush6.bmp	21	1	1	1	1	PSYCHOLOGIE
FAUST_1[2014-06]	7	2	18	1	2	1	1	2	1	0	1554	2	2	1	2379	4	2891	Plug18.bmp	Coins8.bmp	Coins14.bmp	Plug6.bmp	Coins10.bmp	Coins14.bmp	Coins12.bmp	21	1	1	1	1	PSYCHOLOGIE
FAUST_1[2014-06]	7	2	21	1	2	2	1	2	1	0	1855	2	2	1	2172	3	1541	Hanger12.bmp	Hanger2.bmp	Strawberry4.bmp	Hanger2.bmp	Strawberry3.bmp	Strawberry14.bmp	Strawberry18.bmp	21	1	1	1	1	PSYCHOLOGIE
FAUST_1[2014-06]	7	2	20	1	2	1	2	2	1	0	1474	2	2	1	1672	3	1597	Shell9.bmp	Leaf10.bmp	Shell18.bmp	Leaf10.bmp	Shell17.bmp	Shell5.bmp	Shell1.bmp	21	1	1	1	1	PSYCHOLOGIE
FAUST_1[2014-06]	7	2	8	1	2	2	2	2	2	1	2723	1	2	0	2528	1	2504	Man24.bmp	Man10.bmp	Man2.bmp	Man4.bmp	Man10.bmp	Man15.bmp	Chilli11.bmp	21	1	1	1	1	PSYCHOLOGIE
FAUST_1[2014-06]	7	2	12	1	2	1	1	2	1	0	1641	1	1	1	2496	4	2427	Star7.bmp	Button18.bmp	Button20.bmp	Button18.bmp	Star17.bmp	Button3.bmp	Button10.bmp	21	1	1	1	1	PSYCHOLOGIE
FAUST_1[2014-06]	7	2	5	1	2	2	1	2	1	0	1289	2	2	1	3271	3	1753	Stapler6.bmp	Stapler9.bmp	Scissors23.bmp	Scissors3.bmp	Scissors11.bmp	Scissors14.bmp	Stapler9.bmp	21	1	1	1	1	PSYCHOLOGIE
FAUST_1[2014-06]	7	2	17	1	2	1	2	2	1	0	1133	2	2	1	1888	4	1531	Candle1.bmp	Jigsaw18.bmp	Candle13.bmp	Candle17.bmp	Jigsaw18.bmp	Candle20.bmp	Candle10.bmp	21	1	1	1	1	PSYCHOLOGIE
FAUST_1[2014-06]	7	2	11	1	2	2	2	2	1	0	1547	1	1	1	2403	3	1963	Lipstick7.bmp	Lipstick15.bmp	Lipstick3.bmp	Bracelet2.bmp	Lipstick15.bmp	Lipstick2.bmp	Lipstick9.bmp	21	1	1	1	1	PSYCHOLOGIE
FAUST_1[2014-06]	7	2	6	1	2	1	1	3	2	1	1791	1	2	0	2724	3	1535	Onion18.bmp	Glass12.bmp	Glass19.bmp	Glass16.bmp	Glass3.bmp	Glass16.bmp	Flower13.bmp	21	1	1	1	1	PSYCHOLOGIE
FAUST_1[2014-06]	7	2	15	1	2	2	1	3	2	1	1424	1	1	1	2956	4	1819	Swirl10.bmp	Sweet22.bmp	Car13.bmp	Car7.bmp	Sweet22.bmp	Car12.bmp	Car21.bmp	21	1	1	1	1	PSYCHOLOGIE
FAUST_1[2014-06]	7	2	2	1	2	1	1	3	2	1	1378	1	1	1	3083	3	2539	Pen1.bmp	Bag21.bmp	Screw18.bmp	Bag3.bmp	Bag25.bmp	Bag4.bmp	Bag25.bmp	21	1	1	1	1	PSYCHOLOGIE
FAUST_1[2014-06]	7	2	3	1	2	2	1	3	2	1	1215	1	1	1	1773	4	1877	Hand17.bmp	Apple21.bmp	Pear4.bmp	Pear15.bmp	Pear7.bmp	Pear18.bmp	Apple21.bmp	21	1	1	1	1	PSYCHOLOGIE
FAUST_1[2014-06]	7	2	13	1	2	1	1	3	2	1	1770	1	1	1	2288	4	1935	Chocolate5.bmp	Tomato3.bmp	Tomato2.bmp	Tomato12.bmp	Tomato3.bmp	Tomato18.bmp	Cake24.bmp	21	1	1	1	1	PSYCHOLOGIE
FAUST_1[2014-06]	7	2	1	1	2	2	1	3	1	0	1915	1	1	1	2654	1	2566	Nut21.bmp	Daff21.bmp	Daff9.bmp	Fudge5.bmp	Daff3.bmp	Fudge5.bmp	Daff1.bmp	21	1	1	1	1	PSYCHOLOGIE
FAUST_1[2014-06]	7	3	31	1	3	1	1	1	1	1	1128	1	1	1	1945	3	2089	lawnmower_15.bmp	backpack_12.bmp	backpack_16.bmp	lawnmower_15.bmp	backpack_10.bmp	backpack_13.bmp	backpack_10.bmp	21	1	1	1	1	PSYCHOLOGIE
FAUST_1[2014-06]	7	3	21	1	3	2	1	1	1	1	1399	1	2	0	2664	3	1361	ring_15.bmp	ring_15.bmp	chair_2.bmp	chair_11.bmp	ring_15.bmp	chair_5.bmp	chair_3.bmp	21	1	1	1	1	PSYCHOLOGIE
FAUST_1[2014-06]	7	3	27	1	3	1	2	1	1	1	1588	2	1	0	2489	1	1483	plant_2.bmp	plant_13.bmp	plant_2.bmp	plant_8.bmp	flashlight_12.bmp	plant_14.bmp	flashlight_12.bmp	21	1	1	1	1	PSYCHOLOGIE
FAUST_1[2014-06]	7	3	18	1	3	2	2	1	1	1	1306	1	1	1	2635	4	1268	router_16.bmp	router_16.bmp	router_6.bmp	bowlingpin_1.bmp	router_12.bmp	router_16.bmp	router_7.bmp	21	1	1	1	1	PSYCHOLOGIE
FAUST_1[2014-06]	7	3	24	1	3	1	1	1	1	1	1331	2	2	1	1653	4	1681	saddle_15.bmp	mic_3.bmp	mic_5.bmp	mic_10.bmp	mic_12.bmp	saddle_15.bmp	mic_10.bmp	21	1	1	1	1	PSYCHOLOGIE
FAUST_1[2014-06]	7	3	6	1	3	2	1	1	1	1	1855	2	2	1	1975	3	1507	cherubstatue_6.bmp	cherubstatue_6.bmp	iceskates_16.bmp	iceskates_9.bmp	iceskates_7.bmp	cherubstatue_6.bmp	iceskates_14.bmp	21	1	1	1	1	PSYCHOLOGIE
FAUST_1[2014-06]	7	3	16	1	3	1	2	1	1	1	1531	2	1	0	2392	3	1620	fan_1.bmp	fan_10.bmp	fan_1.bmp	fan_17.bmp	socks_4.bmp	fan_11.bmp	socks_4.bmp	21	1	1	1	1	PSYCHOLOGIE
FAUST_1[2014-06]	7	3	23	1	3	2	2	1	1	1	1239	2	1	0	2492	4	1091	horseshoe_4.bmp	horseshoe_5.bmp	horseshoe_12.bmp	sink_6.bmp	horseshoe_4.bmp	horseshoe_6.bmp	horseshoe_4.bmp	21	1	1	1	1	PSYCHOLOGIE
FAUST_1[2014-06]	7	3	32	1	3	1	1	1	1	1	2084	2	2	1	1706	1	2564	vase_1.bmp	cellphone_4.bmp	cellphone_3.bmp	vase_1.bmp	cellphone_8.bmp	cellphone_12.bmp	cellphone_3.bmp	21	1	1	1	1	PSYCHOLOGIE
FAUST_1[2014-06]	7	3	13	1	3	2	1	1	2	0	2384	1	1	1	2276	1	1658	coffee_15.bmp	trophy_4.bmp	trophy_15.bmp	coffee_15.bmp	trophy_6.bmp	coffee_15.bmp	trophy_14.bmp	21	1	1	1	1	PSYCHOLOGIE
FAUST_1[2014-06]	7	3	5	1	3	1	2	1	1	1	1088	1	1	1	2738	4	1280	hammer_11.bmp	hammer_6.bmp	garbagecan_17.bmp	hammer_17.bmp	hammer_11.bmp	garbagecan_17.bmp	hammer_15.bmp	21	1	1	1	1	PSYCHOLOGIE
FAUST_1[2014-06]	7	3	3	1	3	2	2	1	1	1	1350	1	1	1	2561	3	2641	camera_9.bmp	babycrib_9.bmp	camera_9.bmp	camera_6.bmp	camera_3.bmp	camera_9.bmp	camera_4.bmp	21	1	1	1	1	PSYCHOLOGIE
FAUST_1[2014-06]	7	3	1	1	3	1	1	2	1	0	1900	1	1	1	2025	1	2585	cheesegrater_5.bmp	hairdryer_13.bmp	hairdryer_12.bmp	hairdryer_7.bmp	cheesegrater_11.bmp	hairdryer_12.bmp	hairdryer_14.bmp	21	1	1	1	1	PSYCHOLOGIE
FAUST_1[2014-06]	7	3	30	1	3	2	1	2	1	0	1247	2	1	0	2535	2	1528	hairbrush_7.bmp	laptop_16.bmp	hairbrush_12.bmp	laptop_14.bmp	laptop_15.bmp	hairbrush_12.bmp	laptop_7.bmp	21	1	1	1	1	PSYCHOLOGIE
FAUST_1[2014-06]	7	3	19	1	3	1	2	2	2	1	1695	1	1	1	1696	2	2241	shoe_7.bmp	circuitboard_2.bmp	shoe_13.bmp	circuitboard_2.bmp	shoe_9.bmp	shoe_17.bmp	shoe_15.bmp	21	1	1	1	1	PSYCHOLOGIE
FAUST_1[2014-06]	7	3	25	1	3	2	2	2	2	1	2877	2	2	1	1638	1	1569	goggle_1.bmp	windchime_3.bmp	goggle_4.bmp	goggle_13.bmp	goggle_3.bmp	goggle_4.bmp	goggle_9.bmp	21	1	1	1	1	PSYCHOLOGIE
FAUST_1[2014-06]	7	3	7	1	3	1	1	2	2	1	2122	1	1	1	1682	4	1730	doorknocker_14.bmp	leatherman_2.bmp	leatherman_10.bmp	leatherman_5.bmp	leatherman_2.bmp	leatherman_7.bmp	doorknocker_5.bmp	21	1	1	1	1	PSYCHOLOGIE
FAUST_1[2014-06]	7	3	9	1	3	2	1	2	2	1	1267	1	2	0	2517	3	1970	birdhouse_6.bmp	jacket_7.bmp	birdhouse_11.bmp	jacket_6.bmp	jacket_13.bmp	birdhouse_11.bmp	jacket_11.bmp	21	1	1	1	1	PSYCHOLOGIE
FAUST_1[2014-06]	7	3	28	1	3	1	2	2	2	1	1648	1	1	1	2383	3	1929	tv_4.bmp	tv_16.bmp	tv_5.bmp	tv_7.bmp	cat_4.bmp	tv_8.bmp	cat_4.bmp	21	1	1	1	1	PSYCHOLOGIE
FAUST_1[2014-06]	7	3	10	1	3	2	2	2	1	0	1779	2	1	0	2301	1	2502	saltpeppershake_8.bmp	pasta_9.bmp	saltpeppershake_2.bmp	saltpeppershake_17.bmp	saltpeppershake_9.bmp	saltpeppershake_12.bmp	saltpeppershake_17.bmp	21	1	1	1	1	PSYCHOLOGIE
FAUST_1[2014-06]	7	3	29	1	3	1	1	2	1	0	2415	2	2	1	2541	2	1914	carabiner_2.bmp	highchair_6.bmp	highchair_10.bmp	highchair_3.bmp	highchair_6.bmp	highchair_15.bmp	carabiner_9.bmp	21	1	1	1	1	PSYCHOLOGIE
FAUST_1[2014-06]	7	3	22	1	3	2	1	2	1	0	1295	1	1	1	2243	1	1726	beanbagchair_14.bmp	scooter_10.bmp	beanbagchair_3.bmp	scooter_8.bmp	beanbagchair_3.bmp	scooter_5.bmp	scooter_11.bmp	21	1	1	1	1	PSYCHOLOGIE
FAUST_1[2014-06]	7	3	11	1	3	1	2	2	1	0	1281	2	1	0	1781	3	1298	glasses_13.bmp	skateboard_16.bmp	glasses_8.bmp	glasses_6.bmp	skateboard_16.bmp	glasses_15.bmp	glasses_9.bmp	21	1	1	1	1	PSYCHOLOGIE
FAUST_1[2014-06]	7	3	15	1	3	2	2	2	1	0	2346	2	2	1	1656	2	2385	abacus_7.bmp	abacus_6.bmp	abacus_4.bmp	abacus_15.bmp	rusdoll_8.bmp	abacus_2.bmp	abacus_6.bmp	21	1	1	1	1	PSYCHOLOGIE
FAUST_1[2014-06]	7	3	8	1	3	1	1	3	2	1	1369	-1	2	0	0	4	1330	trumpet_17.bmp	cake_4.bmp	cake_14.bmp	videogamecontroller_5.bmp	cake_14.bmp	cake_3.bmp	cake_1.bmp	21	1	1	1	1	PSYCHOLOGIE
FAUST_1[2014-06]	7	3	12	1	3	2	1	3	2	1	1311	2	2	1	1934	3	1669	wig_9.bmp	tricycle_15.bmp	tricycle_8.bmp	rollerskates_8.bmp	tricycle_10.bmp	rollerskates_8.bmp	tricycle_5.bmp	21	1	1	1	1	PSYCHOLOGIE
FAUST_1[2014-06]	7	3	20	1	3	1	1	3	2	1	1131	1	1	1	2531	4	1242	sofa_3.bmp	bagel_12.bmp	bagel_10.bmp	bagel_16.bmp	bagel_4.bmp	turtle_12.bmp	bagel_12.bmp	21	1	1	1	1	PSYCHOLOGIE
FAUST_1[2014-06]	7	3	26	1	3	2	1	3	2	1	1926	2	2	1	3086	4	1848	printer_14.bmp	glove_5.bmp	remote_2.bmp	remote_14.bmp	remote_11.bmp	glove_5.bmp	remote_13.bmp	21	1	1	1	1	PSYCHOLOGIE
FAUST_1[2014-06]	7	3	14	1	3	1	1	3	2	1	1200	2	2	1	2815	4	1312	powerstrip_14.bmp	trunk_2.bmp	trunk_1.bmp	shredder_7.bmp	trunk_1.bmp	trunk_5.bmp	trunk_7.bmp	21	1	1	1	1	PSYCHOLOGIE
FAUST_1[2014-06]	7	3	17	1	3	2	1	3	2	1	1877	2	2	1	2512	2	2040	doorknob_14.bmp	carriage_14.bmp	carriage_9.bmp	carriage_12.bmp	guitar_7.bmp	carriage_3.bmp	guitar_7.bmp	21	1	1	1	1	PSYCHOLOGIE
FAUST_1[2014-06]	7	3	4	1	3	1	1	3	2	1	1401	1	1	1	2088	4	1745	watch_6.bmp	parfait_1.bmp	parfait_15.bmp	parfait_11.bmp	parfait_4.bmp	parfait_15.bmp	watergun_7.bmp	21	1	1	1	1	PSYCHOLOGIE
FAUST_1[2014-06]	7	3	2	1	3	2	1	3	2	1	1156	1	1	1	1420	4	1703	easteregg_16.bmp	speaker_6.bmp	orifan_7.bmp	speaker_6.bmp	orifan_17.bmp	orifan_14.bmp	orifan_6.bmp	21	1	1	1	1	PSYCHOLOGIE
FAUST_1[2014-06]	7	2	31	1	1	1	1	1	1	1	1293	2	2	1	3168	4	1330	BRAHMS	zwilling	brahms	wassermann	schütze	steinbock	zwilling	21	1	1	1	1	PSYCHOLOGIE
FAUST_1[2014-06]	7	2	19	1	1	2	1	1	1	1	1235	2	2	1	1668	4	1407	SOFA	mobiltelefon	drucker	computer	sofa	laptop	sofa	21	1	1	1	1	PSYCHOLOGIE
FAUST_1[2014-06]	7	2	8	1	1	1	2	1	2	0	1220	1	1	1	2047	2	2355	FUßBALL	golf	häkelnadel	skifahren	häkelnadel	schwimmen	fußball	21	1	1	1	1	PSYCHOLOGIE
FAUST_1[2014-06]	7	2	12	1	1	2	2	1	1	1	1149	2	2	1	2080	4	1364	RUM	kapelle	whiskey	tequila	rum	wodka	rum	21	1	1	1	1	PSYCHOLOGIE
FAUST_1[2014-06]	7	2	9	1	1	1	1	1	1	1	1366	2	2	1	2458	3	1829	BOMBE	bombe	forelle	lachs	hering	makrele	hering	21	1	1	1	1	PSYCHOLOGIE
FAUST_1[2014-06]	7	2	32	1	1	2	1	1	1	1	1097	2	2	1	1764	4	1370	KINO	kino	sohn	vater	tochter	onkel	kino	21	1	1	1	1	PSYCHOLOGIE
FAUST_1[2014-06]	7	2	3	1	1	1	2	1	1	1	1510	2	1	0	1804	3	1473	GLAS	karaffe	flasche	pfarrer	glas	kanne	pfarrer	21	1	1	1	1	PSYCHOLOGIE
FAUST_1[2014-06]	7	2	1	1	1	2	2	1	1	1	1286	2	2	1	2066	4	1443	THYMIAN	thymian	rosmarin	oregano	opium	koriander	thymian	21	1	1	1	1	PSYCHOLOGIE
FAUST_1[2014-06]	7	2	13	1	1	1	1	1	1	1	3286	1	1	1	1652	4	2073	WALZER	backgammon	monopoly	halma	walzer	scrabble	backgammon	21	1	1	1	1	PSYCHOLOGIE
FAUST_1[2014-06]	7	2	29	1	1	2	1	1	1	1	1136	2	2	1	2760	4	1077	BARACKE	zug	baracke	straßenbahn	taxi	baracke	fahrrad	21	1	1	1	1	PSYCHOLOGIE
FAUST_1[2014-06]	7	2	24	1	1	1	2	1	1	1	1344	2	1	0	2089	4	1233	FILZSTIFT	asien	buntstift	kugelschreiber	füller	asien	filzstift	21	1	1	1	1	PSYCHOLOGIE
FAUST_1[2014-06]	7	2	5	1	1	2	2	1	1	1	1511	2	2	1	1598	4	1257	MEIßEL	hammer	bohrer	klarinette	meißel	zange	meißel	21	1	1	1	1	PSYCHOLOGIE
FAUST_1[2014-06]	7	2	26	1	1	1	1	2	2	1	1922	2	2	1	1888	2	1775	STUTTGART	rechteck	dreieck	rechteck	berlin	viereck	quadrat	21	1	1	1	1	PSYCHOLOGIE
FAUST_1[2014-06]	7	2	15	1	1	2	1	2	2	1	1341	2	2	1	2149	3	1657	VOLVO	grün	porsche	gelb	lila	rot	porsche	21	1	1	1	1	PSYCHOLOGIE
FAUST_1[2014-06]	7	2	20	1	1	1	2	2	2	1	2047	1	1	1	1683	2	2768	SCHNEE	wolle	regen	hagel	wolle	sonnenschein	nebel	21	1	1	1	1	PSYCHOLOGIE
FAUST_1[2014-06]	7	2	23	1	1	2	2	2	2	1	1352	1	2	0	2572	3	1457	ZEITUNG	buch	internet	radio	see	radio	fernsehen	21	1	1	1	1	PSYCHOLOGIE
FAUST_1[2014-06]	7	2	6	1	1	1	1	2	1	0	2198	1	1	1	2142	1	1308	SEHEN	meile	hören	meter	kilometer	meile	zentimeter	21	1	1	1	1	PSYCHOLOGIE
FAUST_1[2014-06]	7	2	28	1	1	2	1	2	2	1	1156	1	1	1	2120	3	1568	ROGGEN	bein	hafer	fuß	hand	hafer	kopf	21	1	1	1	1	PSYCHOLOGIE
FAUST_1[2014-06]	7	2	11	1	1	1	2	2	2	1	1336	2	2	1	1520	3	3191	FREUDE	scham	niere	ärger	niere	angst	trauer	21	1	1	1	1	PSYCHOLOGIE
FAUST_1[2014-06]	7	2	21	1	1	2	2	2	1	0	1407	2	1	0	2508	1	1172	DÄNEMARK	österreich	schweiz	italien	messing	österreich	england	21	1	1	1	1	PSYCHOLOGIE
FAUST_1[2014-06]	7	2	25	1	1	1	1	2	2	1	1281	2	1	0	2452	3	1341	HELIUM	sauerstoff	ameise	hummel	biene	mücke	hummel	21	1	1	1	1	PSYCHOLOGIE
FAUST_1[2014-06]	7	2	4	1	1	2	1	2	2	1	2177	1	1	1	2390	1	1706	GEPARD	tiger	lidschatten	lippenstift	rouge	wimperntusche	tiger	21	1	1	1	1	PSYCHOLOGIE
FAUST_1[2014-06]	7	2	30	1	1	1	2	2	2	1	1815	2	2	1	2233	3	1443	BANANE	birne	pflaume	hamburger	erdbeere	hamburger	apfel	21	1	1	1	1	PSYCHOLOGIE
FAUST_1[2014-06]	7	2	14	1	1	2	2	2	2	1	1761	2	2	1	1813	3	1841	ADVERB	nomen	jacke	präposition	verb	präposition	adjektiv	21	1	1	1	1	PSYCHOLOGIE
FAUST_1[2014-06]	7	2	22	1	1	1	1	3	2	1	1531	2	2	1	2951	2	1910	DACKEL	werwolf	küchenwaage	hexe	zombie	vampir	zombie	21	1	1	1	1	PSYCHOLOGIE
FAUST_1[2014-06]	7	2	17	1	1	2	1	3	2	1	1624	2	2	1	1702	3	2075	ROSE	klebeband	schreiben	basteln	klebeband	zeichnen	lesen	21	1	1	1	1	PSYCHOLOGIE
FAUST_1[2014-06]	7	2	18	1	1	1	1	3	2	1	1576	1	2	0	2299	1	2062	ELBE	rückspiegel	kupplung	gaspedal	handbremse	messer	gaspedal	21	1	1	1	1	PSYCHOLOGIE
FAUST_1[2014-06]	7	2	27	1	1	2	1	3	2	1	1054	1	1	1	2347	3	1295	MATHEMATIK	komödie	karotten	blumenkohl	bohnen	komödie	spinat	21	1	1	1	1	PSYCHOLOGIE
FAUST_1[2014-06]	7	2	10	1	1	1	1	3	2	1	1462	2	2	1	2362	2	2657	MERKUR	grippe	mumps	masern	windpocken	amsel	masern	21	1	1	1	1	PSYCHOLOGIE
FAUST_1[2014-06]	7	2	7	1	1	2	1	3	2	1	1954	2	2	1	2340	2	1517	KAISER	sachsen	kerosin	benzin	sachsen	bleifrei	diesel	21	1	1	1	1	PSYCHOLOGIE
FAUST_1[2014-06]	7	2	16	1	1	1	1	3	2	1	2081	2	2	1	1778	3	1593	MINUTE	schiff	fähre	yacht	boot	karamell	boot	21	1	1	1	1	PSYCHOLOGIE
FAUST_1[2014-06]	7	2	2	1	1	2	1	3	2	1	1658	1	1	1	2617	3	2215	HAUPTSCHULE	buche	euro	mark	pfennig	dollar	buche	21	1	1	1	1	PSYCHOLOGIE
FAUST_1[2014-06]	7	3	4	1	2	1	1	1	1	1	1848	1	1	1	2055	3	1932	Toothbrush12.bmp	Scissors14.bmp	Scissors3.bmp	Scissors11.bmp	Scissors23.bmp	Toothbrush12.bmp	Scissors11.bmp	21	1	1	1	1	PSYCHOLOGIE
FAUST_1[2014-06]	7	3	7	1	2	2	1	1	1	1	1311	2	1	0	2345	4	1315	Mushroom25.bmp	Button14.bmp	Button20.bmp	Button10.bmp	Mushroom25.bmp	Button3.bmp	Mushroom25.bmp	21	1	1	1	1	PSYCHOLOGIE
FAUST_1[2014-06]	7	3	19	1	2	1	2	1	1	1	1105	2	1	0	2493	3	1573	Swirl23.bmp	Swirl10.bmp	Swirl23.bmp	Swirl13.bmp	Chocolate24.bmp	Swirl1.bmp	Chocolate24.bmp	21	1	1	1	1	PSYCHOLOGIE
FAUST_1[2014-06]	7	3	15	1	2	2	2	1	1	1	1183	1	1	1	1783	3	1140	Holly14.bmp	Holly14.bmp	Holly20.bmp	Holly11.bmp	Sweet10.bmp	Holly14.bmp	Holly17.bmp	21	1	1	1	1	PSYCHOLOGIE
FAUST_1[2014-06]	7	3	22	1	2	1	1	1	1	1	1341	2	1	0	2039	3	1295	String6.bmp	Pen17.bmp	Pen1.bmp	Pen20.bmp	Pen10.bmp	String6.bmp	Pen17.bmp	21	1	1	1	1	PSYCHOLOGIE
FAUST_1[2014-06]	7	3	21	1	2	2	1	1	1	1	1250	2	2	1	1959	3	3037	Leaf15.bmp	Present3.bmp	Leaf15.bmp	Present9.bmp	Present17.bmp	Present14.bmp	Leaf15.bmp	21	1	1	1	1	PSYCHOLOGIE
FAUST_1[2014-06]	7	3	5	1	2	1	2	1	1	1	1217	2	2	1	1460	4	1454	Ginger5.bmp	Ginger3.bmp	Jigsaw10.bmp	Ginger10.bmp	Jigsaw10.bmp	Ginger15.bmp	Ginger5.bmp	21	1	1	1	1	PSYCHOLOGIE
FAUST_1[2014-06]	7	3	12	1	2	2	2	1	1	1	2391	2	2	1	2457	3	2493	Plug18.bmp	Plug18.bmp	Plug9.bmp	Plug6.bmp	Star1.bmp	Plug18.bmp	Plug4.bmp	21	1	1	1	1	PSYCHOLOGIE
FAUST_1[2014-06]	7	3	14	1	2	1	1	2	2	1	1605	2	1	0	2586	4	1081	Man15.bmp	Glass4.bmp	Glass12.bmp	Man2.bmp	Glass19.bmp	Glass3.bmp	Glass4.bmp	21	1	1	1	1	PSYCHOLOGIE
FAUST_1[2014-06]	7	3	9	1	2	2	1	2	2	1	1262	2	2	1	1717	3	2305	Lipstick15.bmp	Keys7.bmp	Lipstick7.bmp	Keys9.bmp	Keys5.bmp	Lipstick7.bmp	Keys6.bmp	21	1	1	1	1	PSYCHOLOGIE
FAUST_1[2014-06]	7	3	20	1	2	1	2	2	1	0	1024	2	2	1	2822	3	1069	Flower3.bmp	Hand8.bmp	Flower17.bmp	Flower14.bmp	Flower18.bmp	Flower13.bmp	Hand8.bmp	21	1	1	1	1	PSYCHOLOGIE
FAUST_1[2014-06]	7	3	2	1	2	2	2	2	1	0	1233	2	2	1	2634	4	1484	Coins3.bmp	Candle1.bmp	Coins10.bmp	Coins12.bmp	Coins10.bmp	Coins8.bmp	Coins14.bmp	21	1	1	1	1	PSYCHOLOGIE
FAUST_1[2014-06]	7	3	13	1	2	1	1	2	1	0	1603	1	1	1	1441	3	2752	Pear18.bmp	Apple21.bmp	Pear16.bmp	Apple18.bmp	Apple10.bmp	Apple5.bmp	Apple18.bmp	21	1	1	1	1	PSYCHOLOGIE
FAUST_1[2014-06]	7	3	16	1	2	2	1	2	2	1	1856	2	1	0	2260	3	1186	Shell17.bmp	Fork17.bmp	Fork9.bmp	Shell5.bmp	Fork14.bmp	Fork7.bmp	Shell5.bmp	21	1	1	1	1	PSYCHOLOGIE
FAUST_1[2014-06]	7	3	18	1	2	1	2	2	2	1	2568	2	1	0	2494	3	3597	Screw10.bmp	Key11.bmp	Screw9.bmp	Key11.bmp	Screw16.bmp	Screw13.bmp	Screw18.bmp	21	1	1	1	1	PSYCHOLOGIE
FAUST_1[2014-06]	7	3	6	1	2	2	2	2	1	0	1181	2	2	1	1290	4	1482	Chilli11.bmp	Chilli12.bmp	Chilli14.bmp	Chilli19.bmp	Chilli14.bmp	Chilli22.bmp	Car21.bmp	21	1	1	1	1	PSYCHOLOGIE
FAUST_1[2014-06]	7	3	1	1	2	1	1	3	2	1	1990	2	2	1	2612	4	1470	Varnish5.bmp	Brocolli14.bmp	Brocolli10.bmp	Brocolli4.bmp	Onion14.bmp	Brocolli14.bmp	Brocolli19.bmp	21	1	1	1	1	PSYCHOLOGIE
FAUST_1[2014-06]	7	3	10	1	2	2	1	3	2	1	993	2	2	1	1666	4	1565	Feather2.bmp	Stapler7.bmp	Bracelet1.bmp	Stapler9.bmp	Stapler8.bmp	Bracelet1.bmp	Stapler10.bmp	21	1	1	1	1	PSYCHOLOGIE
FAUST_1[2014-06]	7	3	17	1	2	1	1	3	2	1	1129	1	1	1	1377	4	1253	Fudge8.bmp	Nut2.bmp	Nut19.bmp	Nut2.bmp	Nut11.bmp	Bun17.bmp	Nut21.bmp	21	1	1	1	1	PSYCHOLOGIE
FAUST_1[2014-06]	7	3	3	1	2	2	1	3	2	1	1025	2	2	1	2331	4	1574	Cake24.bmp	Tomato5.bmp	Tomato12.bmp	Bag25.bmp	Tomato2.bmp	Tomato18.bmp	Bag25.bmp	21	1	1	1	1	PSYCHOLOGIE
FAUST_1[2014-06]	7	3	8	1	2	1	1	3	2	1	1716	1	1	1	1486	4	1319	Umbrella21.bmp	Strawberry3.bmp	Paperclip6.bmp	Paperclip4.bmp	Paperclip13.bmp	Paperclip9.bmp	Paperclip4.bmp	21	1	1	1	1	PSYCHOLOGIE
FAUST_1[2014-06]	7	3	11	1	2	2	1	3	2	1	1100	2	1	0	2645	4	1538	Biscuit17.bmp	Daff3.bmp	Hanger14.bmp	Hanger7.bmp	Hanger12.bmp	Daff3.bmp	Hanger15.bmp	21	1	1	1	1	PSYCHOLOGIE
FAUST_1[2014-06]	7	4	10	1	3	1	1	1	1	1	1300	1	1	1	2656	4	1622	tv_5.bmp	watergun_15.bmp	watergun_9.bmp	watergun_3.bmp	watergun_8.bmp	tv_5.bmp	watergun_15.bmp	21	1	1	1	1	PSYCHOLOGIE
FAUST_1[2014-06]	7	4	32	1	3	2	1	1	1	1	1190	2	1	0	1998	3	2127	goggle_9.bmp	flashlight_13.bmp	flashlight_17.bmp	flashlight_2.bmp	goggle_9.bmp	flashlight_12.bmp	goggle_9.bmp	21	1	1	1	1	PSYCHOLOGIE
FAUST_1[2014-06]	7	4	5	1	3	1	2	1	1	1	1337	2	2	1	2564	3	1556	coffee_14.bmp	coffee_1.bmp	ring_8.bmp	coffee_7.bmp	ring_8.bmp	coffee_14.bmp	coffee_2.bmp	21	1	1	1	1	PSYCHOLOGIE
FAUST_1[2014-06]	7	4	23	1	3	2	2	1	1	1	1154	2	2	1	1858	3	1318	guitar_7.bmp	guitar_14.bmp	guitar_7.bmp	cat_9.bmp	guitar_8.bmp	guitar_7.bmp	guitar_10.bmp	21	1	1	1	1	PSYCHOLOGIE
FAUST_1[2014-06]	7	4	18	1	3	1	1	1	1	1	1291	2	1	0	2113	4	1297	rollerskates_17.bmp	doorknob_10.bmp	rollerskates_17.bmp	doorknob_2.bmp	doorknob_10.bmp	doorknob_17.bmp	doorknob_14.bmp	21	1	1	1	1	PSYCHOLOGIE
FAUST_1[2014-06]	7	4	1	1	3	2	1	1	1	1	1085	2	2	1	1682	4	851	easteregg_5.bmp	easteregg_5.bmp	trophy_15.bmp	trophy_16.bmp	easteregg_5.bmp	trophy_14.bmp	trophy_4.bmp	21	1	1	1	1	PSYCHOLOGIE
FAUST_1[2014-06]	7	4	2	1	3	1	2	1	1	1	1114	1	1	1	2588	3	1555	remote_13.bmp	remote_2.bmp	remote_14.bmp	rusdoll_6.bmp	remote_13.bmp	remote_11.bmp	rusdoll_6.bmp	21	1	1	1	1	PSYCHOLOGIE
FAUST_1[2014-06]	7	4	17	1	3	2	2	1	1	1	1518	2	1	0	2125	4	1333	bagel_10.bmp	bagel_16.bmp	bagel_10.bmp	bagel_4.bmp	bagel_12.bmp	bagel_10.bmp	chair_3.bmp	21	1	1	1	1	PSYCHOLOGIE
FAUST_1[2014-06]	7	4	11	1	3	1	1	1	1	1	1724	1	2	0	2529	3	1674	cherubstatue_6.bmp	doorknocker_14.bmp	doorknocker_4.bmp	doorknocker_5.bmp	doorknocker_11.bmp	cherubstatue_6.bmp	doorknocker_11.bmp	21	1	1	1	1	PSYCHOLOGIE
FAUST_1[2014-06]	7	4	30	1	3	2	1	1	1	1	1017	1	2	0	2594	4	1592	glove_10.bmp	glove_10.bmp	fan_15.bmp	fan_10.bmp	fan_17.bmp	fan_11.bmp	glove_10.bmp	21	1	1	1	1	PSYCHOLOGIE
FAUST_1[2014-06]	7	4	29	1	3	1	2	1	1	1	1050	1	2	0	2627	3	1238	hairdryer_2.bmp	shoe_15.bmp	hairdryer_2.bmp	hairdryer_14.bmp	hairdryer_13.bmp	shoe_15.bmp	hairdryer_12.bmp	21	1	1	1	1	PSYCHOLOGIE
FAUST_1[2014-06]	7	4	7	1	3	2	2	1	1	1	965	1	1	1	1555	4	1328	abacus_7.bmp	abacus_6.bmp	abacus_7.bmp	parfait_15.bmp	abacus_4.bmp	abacus_7.bmp	abacus_2.bmp	21	1	1	1	1	PSYCHOLOGIE
FAUST_1[2014-06]	7	4	14	1	3	1	1	2	2	1	1343	2	2	1	1199	4	1313	wig_7.bmp	hairbrush_12.bmp	wig_9.bmp	hairbrush_15.bmp	hairbrush_16.bmp	hairbrush_12.bmp	hairbrush_7.bmp	21	1	1	1	1	PSYCHOLOGIE
FAUST_1[2014-06]	7	4	31	1	3	2	1	2	2	1	3735	1	1	1	1898	3	1465	laptop_14.bmp	laptop_10.bmp	saddle_8.bmp	saddle_3.bmp	laptop_10.bmp	saddle_15.bmp	saddle_4.bmp	21	1	1	1	1	PSYCHOLOGIE
FAUST_1[2014-06]	7	4	27	1	3	1	2	2	1	0	1019	2	2	1	2821	3	2300	jacket_6.bmp	jacket_13.bmp	trumpet_3.bmp	jacket_11.bmp	trumpet_3.bmp	jacket_7.bmp	jacket_10.bmp	21	1	1	1	1	PSYCHOLOGIE
FAUST_1[2014-06]	7	4	26	1	3	2	2	2	1	0	1341	1	1	1	1752	3	1305	carriage_14.bmp	printer_14.bmp	carriage_12.bmp	carriage_2.bmp	carriage_9.bmp	carriage_3.bmp	carriage_9.bmp	21	1	1	1	1	PSYCHOLOGIE
FAUST_1[2014-06]	7	4	9	1	3	1	1	2	1	0	1404	2	1	0	1950	3	977	camera_9.bmp	tricycle_10.bmp	tricycle_5.bmp	camera_7.bmp	tricycle_2.bmp	tricycle_8.bmp	tricycle_2.bmp	21	1	1	1	1	PSYCHOLOGIE
FAUST_1[2014-06]	7	4	19	1	3	2	1	2	1	0	1488	2	1	0	2195	3	1051	iceskates_7.bmp	videogamecontroller_11.bmp	videogamecontroller_13.bmp	iceskates_9.bmp	videogamecontroller_2.bmp	videogamecontroller_3.bmp	iceskates_9.bmp	21	1	1	1	1	PSYCHOLOGIE
FAUST_1[2014-06]	7	4	24	1	3	1	2	2	1	0	1302	1	1	1	2832	1	2420	bowlingpin_4.bmp	bowlingpin_1.bmp	bowlingpin_13.bmp	bowlingpin_3.bmp	lawnmower_13.bmp	bowlingpin_11.bmp	lawnmower_13.bmp	21	1	1	1	1	PSYCHOLOGIE
FAUST_1[2014-06]	7	4	13	1	3	2	2	2	1	0	2900	2	1	0	1924	3	1303	windchime_10.bmp	windchime_15.bmp	beanbagchair_17.bmp	windchime_15.bmp	windchime_16.bmp	windchime_3.bmp	windchime_6.bmp	21	1	1	1	1	PSYCHOLOGIE
FAUST_1[2014-06]	7	4	25	1	3	1	1	2	2	1	2070	2	1	0	1959	4	1462	sink_11.bmp	plant_14.bmp	sink_1.bmp	plant_13.bmp	plant_14.bmp	plant_2.bmp	plant_8.bmp	21	1	1	1	1	PSYCHOLOGIE
FAUST_1[2014-06]	7	4	22	1	3	2	1	2	2	1	1121	1	1	1	2924	3	2223	cake_14.bmp	cake_5.bmp	leatherman_5.bmp	leatherman_14.bmp	leatherman_7.bmp	leatherman_2.bmp	cake_5.bmp	21	1	1	1	1	PSYCHOLOGIE
FAUST_1[2014-06]	7	4	8	1	3	1	2	2	1	0	1579	2	1	0	2276	3	1764	garbagecan_17.bmp	garbagecan_8.bmp	router_12.bmp	garbagecan_10.bmp	garbagecan_2.bmp	garbagecan_13.bmp	router_12.bmp	21	1	1	1	1	PSYCHOLOGIE
FAUST_1[2014-06]	7	4	20	1	3	2	2	2	1	0	1180	1	1	1	2928	3	1342	cheesegrater_8.bmp	cheesegrater_15.bmp	scooter_5.bmp	cheesegrater_14.bmp	cheesegrater_11.bmp	cheesegrater_5.bmp	cheesegrater_14.bmp	21	1	1	1	1	PSYCHOLOGIE
FAUST_1[2014-06]	7	4	6	1	3	1	1	3	1	0	1597	1	2	0	2589	3	1580	babycrib_6.bmp	highchair_4.bmp	highchair_6.bmp	highchair_10.bmp	highchair_3.bmp	orifan_17.bmp	highchair_4.bmp	21	1	1	1	1	PSYCHOLOGIE
FAUST_1[2014-06]	7	4	3	1	3	2	1	3	2	1	880	2	2	1	1840	4	1171	sofa_12.bmp	powerstrip_7.bmp	mic_12.bmp	mic_3.bmp	mic_5.bmp	mic_10.bmp	powerstrip_7.bmp	21	1	1	1	1	PSYCHOLOGIE
FAUST_1[2014-06]	7	4	28	1	3	1	1	3	2	1	918	2	2	1	1706	4	1598	hammer_11.bmp	vase_1.bmp	vase_5.bmp	vase_15.bmp	vase_13.bmp	vase_5.bmp	trunk_3.bmp	21	1	1	1	1	PSYCHOLOGIE
FAUST_1[2014-06]	7	4	16	1	3	2	1	3	1	0	1621	2	2	1	2527	1	1695	saltpeppershake_2.bmp	backpack_6.bmp	backpack_12.bmp	pasta_9.bmp	backpack_16.bmp	pasta_9.bmp	backpack_13.bmp	21	1	1	1	1	PSYCHOLOGIE
FAUST_1[2014-06]	7	4	15	1	3	1	1	3	1	0	1219	2	2	1	1923	1	2620	horseshoe_4.bmp	carabiner_6.bmp	carabiner_2.bmp	carabiner_5.bmp	carabiner_9.bmp	carabiner_5.bmp	circuitboard_2.bmp	21	1	1	1	1	PSYCHOLOGIE
FAUST_1[2014-06]	7	4	4	1	3	2	1	3	2	1	2760	2	1	0	2201	4	1630	cellphone_12.bmp	watch_14.bmp	watch_8.bmp	turtle_7.bmp	watch_3.bmp	watch_7.bmp	turtle_7.bmp	21	1	1	1	1	PSYCHOLOGIE
FAUST_1[2014-06]	7	4	21	1	3	1	1	3	2	1	1699	2	2	1	2488	4	1910	shredder_7.bmp	speaker_10.bmp	skateboard_3.bmp	skateboard_14.bmp	skateboard_11.bmp	skateboard_14.bmp	skateboard_16.bmp	21	1	1	1	1	PSYCHOLOGIE
FAUST_1[2014-06]	7	4	12	1	3	2	1	3	2	1	1118	1	2	0	1823	4	1076	glasses_13.bmp	socks_10.bmp	birdhouse_14.bmp	socks_12.bmp	birdhouse_14.bmp	socks_13.bmp	socks_4.bmp	21	1	1	1	1	PSYCHOLOGIE
