date	time	build	subject	expressions.conditionCS_A	expressions.LRpleas_acq	expressions.SameOppo	expressions.condition_Lpleas	expressions.condition_1pleas	trialcode	blockcode	blocknum	trialnum	windowcenter	inwindow	pretrialpause	posttrialpause	trialduration	trialtimeout	latency	response	expressions.correctedscore	correct	values.vis_performance	values.vis_rating_sum	values.vis_rating_mean	stimulusnumber1	stimulusitem1	stimulusonset1	stimulusnumber2	stimulusitem2	stimulusonset2	stimulusnumber3	stimulusitem3	stimulusonset3	stimulusnumber4	stimulusitem4	stimulusonset4	stimulusnumber5	stimulusitem5	stimulusonset5	stimulusnumber6	stimulusitem6	stimulusonset6	stimulusnumber7	stimulusitem7	stimulusonset7	stimulusnumber8	stimulusitem8	stimulusonset8	stimulusnumber9	stimulusitem9	stimulusonset9	stimulusnumber10	stimulusitem10	stimulusonset10	stimulusnumber11	stimulusitem11	stimulusonset11	stimulusnumber12	stimulusitem12	stimulusonset12	stimulusnumber13	stimulusitem13	stimulusonset13	stimulusnumber14	stimulusitem14	stimulusonset14	stimulusnumber15	stimulusitem15	stimulusonset15	stimulusnumber16	stimulusitem16	stimulusonset16	stimulusnumber17	stimulusitem17	stimulusonset17	stimulusnumber18	stimulusitem18	stimulusonset18
043018	16:57:47	5.0.10.0	22	CS_B	Lpleas_acq	Oppo	Lpleas	2pleas	acq_pleas_short	acq1_short	1	1	0	0	300	300	0	0	590	46	0	1	0	0	0	1	blank2r.bmp	0	1	+	0	8	C4r.bmp	500	1	blank2r.bmp	800	1	GKQX	800	1	blank2r.bmp	870	5	friedlich	870	0	0	0	0	0	0	0	0	0	0	0	0	0	0	0	0	0	0	0	0	0	0	0	0	0	0	0	0	0	0	0	0	0
043018	16:57:47	5.0.10.0	22	CS_B	Lpleas_acq	Oppo	Lpleas	2pleas	acq_pleas_short	acq1_short	1	2	0	0	300	300	0	0	688	46	0	1	0	0	0	1	blank2r.bmp	0	1	+	0	5	C1r.bmp	500	1	blank2r.bmp	800	1	GKQX	800	1	blank2r.bmp	870	3	freund	870	0	0	0	0	0	0	0	0	0	0	0	0	0	0	0	0	0	0	0	0	0	0	0	0	0	0	0	0	0	0	0	0	0
043018	16:57:47	5.0.10.0	22	CS_B	Lpleas_acq	Oppo	Lpleas	2pleas	acq_unple_short	acq1_short	1	3	0	0	300	300	0	0	1564	50	0	1	0	0	0	1	blank2r.bmp	0	1	+	0	1	B1r.bmp	500	1	blank2r.bmp	800	1	BMVZ	800	1	blank2r.bmp	870	2	neidisch	870	0	0	0	0	0	0	0	0	0	0	0	0	0	0	0	0	0	0	0	0	0	0	0	0	0	0	0	0	0	0	0	0	0
043018	16:57:47	5.0.10.0	22	CS_B	Lpleas_acq	Oppo	Lpleas	2pleas	acq_pleas_short	acq1_short	1	4	0	0	300	300	0	0	751	46	0	1	0	0	0	1	blank2r.bmp	0	1	+	0	7	C3r.bmp	500	1	blank2r.bmp	800	1	GKQX	800	1	blank2r.bmp	870	4	heiter	870	0	0	0	0	0	0	0	0	0	0	0	0	0	0	0	0	0	0	0	0	0	0	0	0	0	0	0	0	0	0	0	0	0
043018	16:57:47	5.0.10.0	22	CS_B	Lpleas_acq	Oppo	Lpleas	2pleas	acq_unple_short	acq1_short	1	5	0	0	300	300	0	0	622	50	0	1	0	0	0	1	blank2r.bmp	0	1	+	0	6	C2r.bmp	500	1	blank2r.bmp	800	1	BMVZ	800	1	blank2r.bmp	870	6	leiden	870	0	0	0	0	0	0	0	0	0	0	0	0	0	0	0	0	0	0	0	0	0	0	0	0	0	0	0	0	0	0	0	0	0
043018	16:57:47	5.0.10.0	22	CS_B	Lpleas_acq	Oppo	Lpleas	2pleas	acq_unple_short	acq1_short	1	6	0	0	300	300	0	0	689	50	0	1	0	0	0	1	blank2r.bmp	0	1	+	0	2	B2r.bmp	500	1	blank2r.bmp	800	1	BMVZ	800	1	blank2r.bmp	870	5	schlecht	870	0	0	0	0	0	0	0	0	0	0	0	0	0	0	0	0	0	0	0	0	0	0	0	0	0	0	0	0	0	0	0	0	0
043018	16:57:47	5.0.10.0	22	CS_B	Lpleas_acq	Oppo	Lpleas	2pleas	acq_unple_short	acq1_short	1	7	0	0	300	300	0	0	605	50	0	1	0	0	0	1	blank2r.bmp	0	1	+	0	3	B3r.bmp	500	1	blank2r.bmp	800	1	BMVZ	800	1	blank2r.bmp	870	3	töten	870	0	0	0	0	0	0	0	0	0	0	0	0	0	0	0	0	0	0	0	0	0	0	0	0	0	0	0	0	0	0	0	0	0
043018	16:57:47	5.0.10.0	22	CS_B	Lpleas_acq	Oppo	Lpleas	2pleas	acq_pleas_short	acq1_short	1	8	0	0	300	300	0	0	558	46	0	1	0	0	0	1	blank2r.bmp	0	1	+	0	4	B4r.bmp	500	1	blank2r.bmp	800	1	GKQX	800	1	blank2r.bmp	870	2	schön	870	0	0	0	0	0	0	0	0	0	0	0	0	0	0	0	0	0	0	0	0	0	0	0	0	0	0	0	0	0	0	0	0	0
043018	16:57:47	5.0.10.0	22	CS_B	Lpleas_acq	Oppo	Lpleas	2pleas	acq_pleas_short	acq1_short	1	9	0	0	300	300	0	0	522	46	0	1	0	0	0	1	blank2r.bmp	0	1	+	0	8	C4r.bmp	500	1	blank2r.bmp	800	1	GKQX	800	1	blank2r.bmp	870	6	froh	870	0	0	0	0	0	0	0	0	0	0	0	0	0	0	0	0	0	0	0	0	0	0	0	0	0	0	0	0	0	0	0	0	0
043018	16:57:47	5.0.10.0	22	CS_B	Lpleas_acq	Oppo	Lpleas	2pleas	acq_pleas_short	acq1_short	1	10	0	0	300	300	0	0	438	46	0	1	0	0	0	1	blank2r.bmp	0	1	+	0	1	B1r.bmp	500	1	blank2r.bmp	800	1	GKQX	800	1	blank2r.bmp	870	1	toll	870	0	0	0	0	0	0	0	0	0	0	0	0	0	0	0	0	0	0	0	0	0	0	0	0	0	0	0	0	0	0	0	0	0
043018	16:57:47	5.0.10.0	22	CS_B	Lpleas_acq	Oppo	Lpleas	2pleas	acq_pleas_short	acq1_short	1	11	0	0	300	300	0	0	494	46	0	1	0	0	0	1	blank2r.bmp	0	1	+	0	6	C2r.bmp	500	1	blank2r.bmp	800	1	GKQX	800	1	blank2r.bmp	870	1	toll	870	0	0	0	0	0	0	0	0	0	0	0	0	0	0	0	0	0	0	0	0	0	0	0	0	0	0	0	0	0	0	0	0	0
043018	16:57:47	5.0.10.0	22	CS_B	Lpleas_acq	Oppo	Lpleas	2pleas	acq_pleas_short	acq1_short	1	12	0	0	300	300	0	0	543	46	0	1	0	0	0	1	blank2r.bmp	0	1	+	0	2	B2r.bmp	500	1	blank2r.bmp	800	1	GKQX	800	1	blank2r.bmp	870	5	friedlich	870	0	0	0	0	0	0	0	0	0	0	0	0	0	0	0	0	0	0	0	0	0	0	0	0	0	0	0	0	0	0	0	0	0
043018	16:57:47	5.0.10.0	22	CS_B	Lpleas_acq	Oppo	Lpleas	2pleas	acq_unple_short	acq1_short	1	13	0	0	300	300	0	0	592	50	0	1	0	0	0	1	blank2r.bmp	0	1	+	0	4	B4r.bmp	500	1	blank2r.bmp	800	1	BMVZ	800	1	blank2r.bmp	870	1	unfair	870	0	0	0	0	0	0	0	0	0	0	0	0	0	0	0	0	0	0	0	0	0	0	0	0	0	0	0	0	0	0	0	0	0
043018	16:57:47	5.0.10.0	22	CS_B	Lpleas_acq	Oppo	Lpleas	2pleas	acq_unple_short	acq1_short	1	14	0	0	300	300	0	0	530	46	0	0	0	0	0	1	blank2r.bmp	0	1	+	0	5	C1r.bmp	500	1	blank2r.bmp	800	1	BMVZ	800	1	blank2r.bmp	870	4	elend	870	1	FEHLER	1429	0	0	0	0	0	0	0	0	0	0	0	0	0	0	0	0	0	0	0	0	0	0	0	0	0	0	0	0	0	0
043018	16:57:47	5.0.10.0	22	CS_B	Lpleas_acq	Oppo	Lpleas	2pleas	acq_unple_short	acq1_short	1	15	0	0	300	300	0	0	504	50	0	1	0	0	0	1	blank2r.bmp	0	1	+	0	7	C3r.bmp	500	1	blank2r.bmp	800	1	BMVZ	800	1	blank2r.bmp	870	3	töten	870	0	0	0	0	0	0	0	0	0	0	0	0	0	0	0	0	0	0	0	0	0	0	0	0	0	0	0	0	0	0	0	0	0
043018	16:57:47	5.0.10.0	22	CS_B	Lpleas_acq	Oppo	Lpleas	2pleas	acq_unple_short	acq1_short	1	16	0	0	300	300	0	0	618	50	0	1	0	0	0	1	blank2r.bmp	0	1	+	0	3	B3r.bmp	500	1	blank2r.bmp	800	1	BMVZ	800	1	blank2r.bmp	870	4	elend	870	0	0	0	0	0	0	0	0	0	0	0	0	0	0	0	0	0	0	0	0	0	0	0	0	0	0	0	0	0	0	0	0	0
043018	16:57:47	5.0.10.0	22	CS_B	Lpleas_acq	Oppo	Lpleas	2pleas	acq_pleas_short	acq1_short	1	17	0	0	300	300	0	0	379	50	0	0	0	0	0	1	blank2r.bmp	0	1	+	0	7	C3r.bmp	500	1	blank2r.bmp	800	1	GKQX	800	1	blank2r.bmp	870	6	froh	870	1	FEHLER	1279	0	0	0	0	0	0	0	0	0	0	0	0	0	0	0	0	0	0	0	0	0	0	0	0	0	0	0	0	0	0
043018	16:57:47	5.0.10.0	22	CS_B	Lpleas_acq	Oppo	Lpleas	2pleas	acq_pleas_short	acq1_short	1	18	0	0	300	300	0	0	537	46	0	1	0	0	0	1	blank2r.bmp	0	1	+	0	6	C2r.bmp	500	1	blank2r.bmp	800	1	GKQX	800	1	blank2r.bmp	870	3	freund	870	0	0	0	0	0	0	0	0	0	0	0	0	0	0	0	0	0	0	0	0	0	0	0	0	0	0	0	0	0	0	0	0	0
043018	16:57:47	5.0.10.0	22	CS_B	Lpleas_acq	Oppo	Lpleas	2pleas	acq_pleas_short	acq1_short	1	19	0	0	300	300	0	0	439	46	0	1	0	0	0	1	blank2r.bmp	0	1	+	0	5	C1r.bmp	500	1	blank2r.bmp	800	1	GKQX	800	1	blank2r.bmp	870	2	schön	870	0	0	0	0	0	0	0	0	0	0	0	0	0	0	0	0	0	0	0	0	0	0	0	0	0	0	0	0	0	0	0	0	0
043018	16:57:47	5.0.10.0	22	CS_B	Lpleas_acq	Oppo	Lpleas	2pleas	acq_unple_short	acq1_short	1	20	0	0	300	300	0	0	517	50	0	1	0	0	0	1	blank2r.bmp	0	1	+	0	4	B4r.bmp	500	1	blank2r.bmp	800	1	BMVZ	800	1	blank2r.bmp	870	1	unfair	870	0	0	0	0	0	0	0	0	0	0	0	0	0	0	0	0	0	0	0	0	0	0	0	0	0	0	0	0	0	0	0	0	0
043018	16:57:47	5.0.10.0	22	CS_B	Lpleas_acq	Oppo	Lpleas	2pleas	acq_unple_short	acq1_short	1	21	0	0	300	300	0	0	450	50	0	1	0	0	0	1	blank2r.bmp	0	1	+	0	3	B3r.bmp	500	1	blank2r.bmp	800	1	BMVZ	800	1	blank2r.bmp	870	2	neidisch	870	0	0	0	0	0	0	0	0	0	0	0	0	0	0	0	0	0	0	0	0	0	0	0	0	0	0	0	0	0	0	0	0	0
043018	16:57:47	5.0.10.0	22	CS_B	Lpleas_acq	Oppo	Lpleas	2pleas	acq_unple_short	acq1_short	1	22	0	0	300	300	0	0	489	50	0	1	0	0	0	1	blank2r.bmp	0	1	+	0	2	B2r.bmp	500	1	blank2r.bmp	800	1	BMVZ	800	1	blank2r.bmp	870	5	schlecht	870	0	0	0	0	0	0	0	0	0	0	0	0	0	0	0	0	0	0	0	0	0	0	0	0	0	0	0	0	0	0	0	0	0
043018	16:57:47	5.0.10.0	22	CS_B	Lpleas_acq	Oppo	Lpleas	2pleas	acq_unple_short	acq1_short	1	23	0	0	300	300	0	0	319	50	0	1	0	0	0	1	blank2r.bmp	0	1	+	0	1	B1r.bmp	500	1	blank2r.bmp	800	1	BMVZ	800	1	blank2r.bmp	870	6	leiden	870	0	0	0	0	0	0	0	0	0	0	0	0	0	0	0	0	0	0	0	0	0	0	0	0	0	0	0	0	0	0	0	0	0
043018	16:57:47	5.0.10.0	22	CS_B	Lpleas_acq	Oppo	Lpleas	2pleas	acq_pleas_short	acq1_short	1	24	0	0	300	300	0	0	590	46	0	1	0	0	0	1	blank2r.bmp	0	1	+	0	8	C4r.bmp	500	1	blank2r.bmp	800	1	GKQX	800	1	blank2r.bmp	870	4	heiter	870	0	0	0	0	0	0	0	0	0	0	0	0	0	0	0	0	0	0	0	0	0	0	0	0	0	0	0	0	0	0	0	0	0
043018	16:57:47	5.0.10.0	22	CS_B	Lpleas_acq	Oppo	Lpleas	2pleas	acq_unple_short	acq2_short	2	1	475	0	300	300	0	0	867	50	0	1	0	0	0	1	blank2r.bmp	0	1	+	0	1	B1r.bmp	500	1	blank2r.bmp	800	1	BMVZ	800	1	blank2r.bmp	870	1	unfair	870	1	!	1309	1	!	-1	0	0	0	0	0	0	0	0	0	0	0	0	0	0	0	0	0	0	0	0	0	0	0	0	0	0	0
043018	16:57:47	5.0.10.0	22	CS_B	Lpleas_acq	Oppo	Lpleas	2pleas	acq_pleas_short	acq2_short	2	2	475	1	300	300	0	0	434	46	0	1	0	0	0	1	blank2r.bmp	0	1	+	0	4	B4r.bmp	500	1	blank2r.bmp	800	1	GKQX	800	1	blank2r.bmp	870	4	heiter	870	1	!	1309	1	!	1329	0	0	0	0	0	0	0	0	0	0	0	0	0	0	0	0	0	0	0	0	0	0	0	0	0	0	0
043018	16:57:47	5.0.10.0	22	CS_B	Lpleas_acq	Oppo	Lpleas	2pleas	acq_pleas_short	acq2_short	2	3	475	0	300	300	0	0	377	46	0	1	0	0	0	1	blank2r.bmp	0	1	+	0	5	C1r.bmp	500	1	blank2r.bmp	800	1	GKQX	800	1	blank2r.bmp	870	2	schön	870	1	!	-1	1	!	-1	0	0	0	0	0	0	0	0	0	0	0	0	0	0	0	0	0	0	0	0	0	0	0	0	0	0	0
043018	16:57:47	5.0.10.0	22	CS_B	Lpleas_acq	Oppo	Lpleas	2pleas	acq_unple_short	acq2_short	2	4	475	0	300	300	0	0	660	50	0	1	0	0	0	1	blank2r.bmp	0	1	+	0	7	C3r.bmp	500	1	blank2r.bmp	800	1	BMVZ	800	1	blank2r.bmp	870	4	elend	870	1	!	1309	1	!	-1	0	0	0	0	0	0	0	0	0	0	0	0	0	0	0	0	0	0	0	0	0	0	0	0	0	0	0
043018	16:57:47	5.0.10.0	22	CS_B	Lpleas_acq	Oppo	Lpleas	2pleas	acq_unple_short	acq2_short	2	5	475	1	300	300	0	0	444	46	0	0	0	0	0	1	blank2r.bmp	0	1	+	0	8	C4r.bmp	500	1	blank2r.bmp	800	1	BMVZ	800	1	blank2r.bmp	870	3	töten	870	1	FEHLER	1659	1	!	1309	1	!	1339	0	0	0	0	0	0	0	0	0	0	0	0	0	0	0	0	0	0	0	0	0	0	0	0
043018	16:57:47	5.0.10.0	22	CS_B	Lpleas_acq	Oppo	Lpleas	2pleas	acq_pleas_short	acq2_short	2	6	475	1	300	300	0	0	497	46	0	1	0	0	0	1	blank2r.bmp	0	1	+	0	2	B2r.bmp	500	1	blank2r.bmp	800	1	GKQX	800	1	blank2r.bmp	870	5	friedlich	870	1	!	1309	1	!	1389	0	0	0	0	0	0	0	0	0	0	0	0	0	0	0	0	0	0	0	0	0	0	0	0	0	0	0
043018	16:57:47	5.0.10.0	22	CS_B	Lpleas_acq	Oppo	Lpleas	2pleas	acq_pleas_short	acq2_short	2	7	475	0	300	300	0	0	641	46	0	1	0	0	0	1	blank2r.bmp	0	1	+	0	6	C2r.bmp	500	1	blank2r.bmp	800	1	GKQX	800	1	blank2r.bmp	870	6	froh	870	1	!	1309	1	!	-1	0	0	0	0	0	0	0	0	0	0	0	0	0	0	0	0	0	0	0	0	0	0	0	0	0	0	0
043018	16:57:47	5.0.10.0	22	CS_B	Lpleas_acq	Oppo	Lpleas	2pleas	acq_unple_short	acq2_short	2	8	475	1	300	300	0	0	420	50	0	1	0	0	0	1	blank2r.bmp	0	1	+	0	3	B3r.bmp	500	1	blank2r.bmp	800	1	BMVZ	800	1	blank2r.bmp	870	5	schlecht	870	1	!	1309	1	!	1319	0	0	0	0	0	0	0	0	0	0	0	0	0	0	0	0	0	0	0	0	0	0	0	0	0	0	0
043018	16:57:47	5.0.10.0	22	CS_B	Lpleas_acq	Oppo	Lpleas	2pleas	acq_unple_short	acq2_short	2	9	475	0	300	300	0	0	601	50	0	1	0	0	0	1	blank2r.bmp	0	1	+	0	4	B4r.bmp	500	1	blank2r.bmp	800	1	BMVZ	800	1	blank2r.bmp	870	2	neidisch	870	1	!	1309	1	!	-1	0	0	0	0	0	0	0	0	0	0	0	0	0	0	0	0	0	0	0	0	0	0	0	0	0	0	0
043018	16:57:47	5.0.10.0	22	CS_B	Lpleas_acq	Oppo	Lpleas	2pleas	acq_pleas_short	acq2_short	2	10	475	0	300	300	0	0	306	46	0	1	0	0	0	1	blank2r.bmp	0	1	+	0	6	C2r.bmp	500	1	blank2r.bmp	800	1	GKQX	800	1	blank2r.bmp	870	1	toll	870	1	!	-1	1	!	-1	0	0	0	0	0	0	0	0	0	0	0	0	0	0	0	0	0	0	0	0	0	0	0	0	0	0	0
043018	16:57:47	5.0.10.0	22	CS_B	Lpleas_acq	Oppo	Lpleas	2pleas	acq_unple_short	acq2_short	2	11	475	0	300	300	0	0	339	46	0	0	0	0	0	1	blank2r.bmp	0	1	+	0	3	B3r.bmp	500	1	blank2r.bmp	800	1	BMVZ	800	1	blank2r.bmp	870	6	leiden	870	1	FEHLER	1549	1	!	-1	1	!	-1	0	0	0	0	0	0	0	0	0	0	0	0	0	0	0	0	0	0	0	0	0	0	0	0
043018	16:57:47	5.0.10.0	22	CS_B	Lpleas_acq	Oppo	Lpleas	2pleas	acq_unple_short	acq2_short	2	12	475	0	300	300	0	0	589	50	0	1	0	0	0	1	blank2r.bmp	0	1	+	0	2	B2r.bmp	500	1	blank2r.bmp	800	1	BMVZ	800	1	blank2r.bmp	870	3	töten	870	1	!	1309	1	!	-1	0	0	0	0	0	0	0	0	0	0	0	0	0	0	0	0	0	0	0	0	0	0	0	0	0	0	0
043018	16:57:47	5.0.10.0	22	CS_B	Lpleas_acq	Oppo	Lpleas	2pleas	acq_pleas_short	acq2_short	2	13	475	0	300	300	0	0	595	46	0	1	0	0	0	1	blank2r.bmp	0	1	+	0	8	C4r.bmp	500	1	blank2r.bmp	800	1	GKQX	800	1	blank2r.bmp	870	3	freund	870	1	!	1309	1	!	-1	0	0	0	0	0	0	0	0	0	0	0	0	0	0	0	0	0	0	0	0	0	0	0	0	0	0	0
043018	16:57:47	5.0.10.0	22	CS_B	Lpleas_acq	Oppo	Lpleas	2pleas	acq_pleas_short	acq2_short	2	14	475	0	300	300	0	0	550	46	0	1	0	0	0	1	blank2r.bmp	0	1	+	0	5	C1r.bmp	500	1	blank2r.bmp	800	1	GKQX	800	1	blank2r.bmp	870	5	friedlich	870	1	!	1309	1	!	-1	0	0	0	0	0	0	0	0	0	0	0	0	0	0	0	0	0	0	0	0	0	0	0	0	0	0	0
043018	16:57:47	5.0.10.0	22	CS_B	Lpleas_acq	Oppo	Lpleas	2pleas	acq_pleas_short	acq2_short	2	15	475	0	300	300	0	0	563	46	0	1	0	0	0	1	blank2r.bmp	0	1	+	0	1	B1r.bmp	500	1	blank2r.bmp	800	1	GKQX	800	1	blank2r.bmp	870	1	toll	870	1	!	1309	1	!	-1	0	0	0	0	0	0	0	0	0	0	0	0	0	0	0	0	0	0	0	0	0	0	0	0	0	0	0
043018	16:57:47	5.0.10.0	22	CS_B	Lpleas_acq	Oppo	Lpleas	2pleas	acq_unple_short	acq2_short	2	16	475	0	300	300	0	0	252	50	0	1	0	0	0	1	blank2r.bmp	0	1	+	0	7	C3r.bmp	500	1	blank2r.bmp	800	1	BMVZ	800	1	blank2r.bmp	870	1	unfair	870	1	!	-1	1	!	-1	0	0	0	0	0	0	0	0	0	0	0	0	0	0	0	0	0	0	0	0	0	0	0	0	0	0	0
043018	16:57:47	5.0.10.0	22	CS_B	Lpleas_acq	Oppo	Lpleas	2pleas	acq_unple_short	acq2_short	2	17	475	0	300	300	0	0	372	46	0	0	0	0	0	1	blank2r.bmp	0	1	+	0	5	C1r.bmp	500	1	blank2r.bmp	800	1	BMVZ	800	1	blank2r.bmp	870	5	schlecht	870	1	FEHLER	1579	1	!	-1	1	!	-1	0	0	0	0	0	0	0	0	0	0	0	0	0	0	0	0	0	0	0	0	0	0	0	0
043018	16:57:47	5.0.10.0	22	CS_B	Lpleas_acq	Oppo	Lpleas	2pleas	acq_unple_short	acq2_short	2	18	475	1	300	300	0	0	470	50	0	1	0	0	0	1	blank2r.bmp	0	1	+	0	2	B2r.bmp	500	1	blank2r.bmp	800	1	BMVZ	800	1	blank2r.bmp	870	6	leiden	870	1	!	1309	1	!	1369	0	0	0	0	0	0	0	0	0	0	0	0	0	0	0	0	0	0	0	0	0	0	0	0	0	0	0
043018	16:57:47	5.0.10.0	22	CS_B	Lpleas_acq	Oppo	Lpleas	2pleas	acq_pleas_short	acq2_short	2	19	475	0	300	300	0	0	551	46	0	1	0	0	0	1	blank2r.bmp	0	1	+	0	1	B1r.bmp	500	1	blank2r.bmp	800	1	GKQX	800	1	blank2r.bmp	870	3	freund	870	1	!	1309	1	!	-1	0	0	0	0	0	0	0	0	0	0	0	0	0	0	0	0	0	0	0	0	0	0	0	0	0	0	0
043018	16:57:47	5.0.10.0	22	CS_B	Lpleas_acq	Oppo	Lpleas	2pleas	acq_pleas_short	acq2_short	2	20	475	0	300	300	0	0	358	46	0	1	0	0	0	1	blank2r.bmp	0	1	+	0	8	C4r.bmp	500	1	blank2r.bmp	800	1	GKQX	800	1	blank2r.bmp	870	6	froh	870	1	!	-1	1	!	-1	0	0	0	0	0	0	0	0	0	0	0	0	0	0	0	0	0	0	0	0	0	0	0	0	0	0	0
043018	16:57:47	5.0.10.0	22	CS_B	Lpleas_acq	Oppo	Lpleas	2pleas	acq_unple_short	acq2_short	2	21	475	1	300	300	0	0	420	50	0	1	0	0	0	1	blank2r.bmp	0	1	+	0	4	B4r.bmp	500	1	blank2r.bmp	800	1	BMVZ	800	1	blank2r.bmp	870	2	neidisch	870	1	!	1309	1	!	1319	0	0	0	0	0	0	0	0	0	0	0	0	0	0	0	0	0	0	0	0	0	0	0	0	0	0	0
043018	16:57:47	5.0.10.0	22	CS_B	Lpleas_acq	Oppo	Lpleas	2pleas	acq_pleas_short	acq2_short	2	22	475	0	300	300	0	0	376	46	0	1	0	0	0	1	blank2r.bmp	0	1	+	0	3	B3r.bmp	500	1	blank2r.bmp	800	1	GKQX	800	1	blank2r.bmp	870	2	schön	870	1	!	-1	1	!	-1	0	0	0	0	0	0	0	0	0	0	0	0	0	0	0	0	0	0	0	0	0	0	0	0	0	0	0
043018	16:57:47	5.0.10.0	22	CS_B	Lpleas_acq	Oppo	Lpleas	2pleas	acq_unple_short	acq2_short	2	23	475	0	300	300	0	0	642	50	0	1	0	0	0	1	blank2r.bmp	0	1	+	0	6	C2r.bmp	500	1	blank2r.bmp	800	1	BMVZ	800	1	blank2r.bmp	870	4	elend	870	1	!	1309	1	!	-1	0	0	0	0	0	0	0	0	0	0	0	0	0	0	0	0	0	0	0	0	0	0	0	0	0	0	0
043018	16:57:47	5.0.10.0	22	CS_B	Lpleas_acq	Oppo	Lpleas	2pleas	acq_pleas_short	acq2_short	2	24	475	0	300	300	0	0	581	46	0	1	0	0	0	1	blank2r.bmp	0	1	+	0	7	C3r.bmp	500	1	blank2r.bmp	800	1	GKQX	800	1	blank2r.bmp	870	4	heiter	870	1	!	1309	1	!	-1	0	0	0	0	0	0	0	0	0	0	0	0	0	0	0	0	0	0	0	0	0	0	0	0	0	0	0
043018	16:57:47	5.0.10.0	22	CS_B	Lpleas_acq	Oppo	Lpleas	2pleas	acq_pleas_short	acq3_short	3	1	455	1	300	300	0	0	452	46	0	1	0	0	0	1	blank2r.bmp	0	1	+	0	1	B1r.bmp	500	1	blank2r.bmp	800	1	GKQX	800	1	blank2r.bmp	870	5	friedlich	870	1	!	1289	1	!	1349	0	0	0	0	0	0	0	0	0	0	0	0	0	0	0	0	0	0	0	0	0	0	0	0	0	0	0
043018	16:57:47	5.0.10.0	22	CS_B	Lpleas_acq	Oppo	Lpleas	2pleas	acq_unple_short	acq3_short	3	2	455	1	300	300	0	0	430	50	0	1	0	0	0	1	blank2r.bmp	0	1	+	0	8	C4r.bmp	500	1	blank2r.bmp	800	1	BMVZ	800	1	blank2r.bmp	870	1	unfair	870	1	!	1289	1	!	1329	0	0	0	0	0	0	0	0	0	0	0	0	0	0	0	0	0	0	0	0	0	0	0	0	0	0	0
043018	16:57:47	5.0.10.0	22	CS_B	Lpleas_acq	Oppo	Lpleas	2pleas	acq_unple_short	acq3_short	3	3	455	1	300	300	0	0	475	50	0	1	0	0	0	1	blank2r.bmp	0	1	+	0	3	B3r.bmp	500	1	blank2r.bmp	800	1	BMVZ	800	1	blank2r.bmp	870	5	schlecht	870	1	!	1289	1	!	1369	0	0	0	0	0	0	0	0	0	0	0	0	0	0	0	0	0	0	0	0	0	0	0	0	0	0	0
043018	16:57:47	5.0.10.0	22	CS_B	Lpleas_acq	Oppo	Lpleas	2pleas	acq_unple_short	acq3_short	3	4	455	1	300	300	0	0	422	50	0	1	0	0	0	1	blank2r.bmp	0	1	+	0	2	B2r.bmp	500	1	blank2r.bmp	800	1	BMVZ	800	1	blank2r.bmp	870	2	neidisch	870	1	!	1289	1	!	1319	0	0	0	0	0	0	0	0	0	0	0	0	0	0	0	0	0	0	0	0	0	0	0	0	0	0	0
043018	16:57:47	5.0.10.0	22	CS_B	Lpleas_acq	Oppo	Lpleas	2pleas	acq_unple_short	acq3_short	3	5	455	1	300	300	0	0	403	50	0	1	0	0	0	1	blank2r.bmp	0	1	+	0	6	C2r.bmp	500	1	blank2r.bmp	800	1	BMVZ	800	1	blank2r.bmp	870	3	töten	870	1	!	1289	1	!	1299	0	0	0	0	0	0	0	0	0	0	0	0	0	0	0	0	0	0	0	0	0	0	0	0	0	0	0
043018	16:57:47	5.0.10.0	22	CS_B	Lpleas_acq	Oppo	Lpleas	2pleas	acq_pleas_short	acq3_short	3	6	455	1	300	300	0	0	428	46	0	1	0	0	0	1	blank2r.bmp	0	1	+	0	5	C1r.bmp	500	1	blank2r.bmp	800	1	GKQX	800	1	blank2r.bmp	870	2	schön	870	1	!	1289	1	!	1319	0	0	0	0	0	0	0	0	0	0	0	0	0	0	0	0	0	0	0	0	0	0	0	0	0	0	0
043018	16:57:47	5.0.10.0	22	CS_B	Lpleas_acq	Oppo	Lpleas	2pleas	acq_unple_short	acq3_short	3	7	455	0	300	300	0	0	284	50	0	1	0	0	0	1	blank2r.bmp	0	1	+	0	7	C3r.bmp	500	1	blank2r.bmp	800	1	BMVZ	800	1	blank2r.bmp	870	6	leiden	870	1	!	-1	1	!	-1	0	0	0	0	0	0	0	0	0	0	0	0	0	0	0	0	0	0	0	0	0	0	0	0	0	0	0
043018	16:57:47	5.0.10.0	22	CS_B	Lpleas_acq	Oppo	Lpleas	2pleas	acq_pleas_short	acq3_short	3	8	455	0	300	300	0	0	568	46	0	1	0	0	0	1	blank2r.bmp	0	1	+	0	4	B4r.bmp	500	1	blank2r.bmp	800	1	GKQX	800	1	blank2r.bmp	870	6	froh	870	1	!	1289	1	!	-1	0	0	0	0	0	0	0	0	0	0	0	0	0	0	0	0	0	0	0	0	0	0	0	0	0	0	0
043018	16:57:47	5.0.10.0	22	CS_B	Lpleas_acq	Oppo	Lpleas	2pleas	acq_unple_short	acq3_short	3	9	455	1	300	300	0	0	432	50	0	1	0	0	0	1	blank2r.bmp	0	1	+	0	5	C1r.bmp	500	1	blank2r.bmp	800	1	BMVZ	800	1	blank2r.bmp	870	4	elend	870	1	!	1289	1	!	1329	0	0	0	0	0	0	0	0	0	0	0	0	0	0	0	0	0	0	0	0	0	0	0	0	0	0	0
043018	16:57:47	5.0.10.0	22	CS_B	Lpleas_acq	Oppo	Lpleas	2pleas	acq_pleas_short	acq3_short	3	10	455	1	300	300	0	0	400	46	0	1	0	0	0	1	blank2r.bmp	0	1	+	0	2	B2r.bmp	500	1	blank2r.bmp	800	1	GKQX	800	1	blank2r.bmp	870	4	heiter	870	1	!	1289	1	!	1299	0	0	0	0	0	0	0	0	0	0	0	0	0	0	0	0	0	0	0	0	0	0	0	0	0	0	0
043018	16:57:47	5.0.10.0	22	CS_B	Lpleas_acq	Oppo	Lpleas	2pleas	acq_pleas_short	acq3_short	3	11	455	0	300	300	0	0	366	50	0	0	0	0	0	1	blank2r.bmp	0	1	+	0	7	C3r.bmp	500	1	blank2r.bmp	800	1	GKQX	800	1	blank2r.bmp	870	1	toll	870	1	FEHLER	1569	1	!	-1	1	!	-1	0	0	0	0	0	0	0	0	0	0	0	0	0	0	0	0	0	0	0	0	0	0	0	0
043018	16:57:47	5.0.10.0	22	CS_B	Lpleas_acq	Oppo	Lpleas	2pleas	acq_pleas_short	acq3_short	3	12	455	0	300	300	0	0	530	46	0	1	0	0	0	1	blank2r.bmp	0	1	+	0	8	C4r.bmp	500	1	blank2r.bmp	800	1	GKQX	800	1	blank2r.bmp	870	3	freund	870	1	!	1289	1	!	-1	0	0	0	0	0	0	0	0	0	0	0	0	0	0	0	0	0	0	0	0	0	0	0	0	0	0	0
043018	16:57:47	5.0.10.0	22	CS_B	Lpleas_acq	Oppo	Lpleas	2pleas	acq_unple_short	acq3_short	3	13	455	1	300	300	0	0	455	50	0	1	0	0	0	1	blank2r.bmp	0	1	+	0	4	B4r.bmp	500	1	blank2r.bmp	800	1	BMVZ	800	1	blank2r.bmp	870	4	elend	870	1	!	1289	1	!	1349	0	0	0	0	0	0	0	0	0	0	0	0	0	0	0	0	0	0	0	0	0	0	0	0	0	0	0
043018	16:57:47	5.0.10.0	22	CS_B	Lpleas_acq	Oppo	Lpleas	2pleas	acq_pleas_short	acq3_short	3	14	455	0	300	300	0	0	382	46	0	1	0	0	0	1	blank2r.bmp	0	1	+	0	6	C2r.bmp	500	1	blank2r.bmp	800	1	GKQX	800	1	blank2r.bmp	870	2	schön	870	1	!	-1	1	!	-1	0	0	0	0	0	0	0	0	0	0	0	0	0	0	0	0	0	0	0	0	0	0	0	0	0	0	0
043018	16:57:47	5.0.10.0	22	CS_B	Lpleas_acq	Oppo	Lpleas	2pleas	acq_pleas_short	acq3_short	3	15	455	1	300	300	0	0	517	46	0	1	0	0	0	1	blank2r.bmp	0	1	+	0	1	B1r.bmp	500	1	blank2r.bmp	800	1	GKQX	800	1	blank2r.bmp	870	1	toll	870	1	!	1289	1	!	1409	0	0	0	0	0	0	0	0	0	0	0	0	0	0	0	0	0	0	0	0	0	0	0	0	0	0	0
043018	16:57:47	5.0.10.0	22	CS_B	Lpleas_acq	Oppo	Lpleas	2pleas	acq_unple_short	acq3_short	3	16	455	0	300	300	0	0	592	50	0	1	0	0	0	1	blank2r.bmp	0	1	+	0	3	B3r.bmp	500	1	blank2r.bmp	800	1	BMVZ	800	1	blank2r.bmp	870	1	unfair	870	1	!	1289	1	!	-1	0	0	0	0	0	0	0	0	0	0	0	0	0	0	0	0	0	0	0	0	0	0	0	0	0	0	0
043018	16:57:47	5.0.10.0	22	CS_B	Lpleas_acq	Oppo	Lpleas	2pleas	acq_unple_short	acq3_short	3	17	455	0	300	300	0	0	232	46	0	0	0	0	0	1	blank2r.bmp	0	1	+	0	7	C3r.bmp	500	1	blank2r.bmp	800	1	BMVZ	800	1	blank2r.bmp	870	5	schlecht	870	1	FEHLER	1439	1	!	-1	1	!	-1	0	0	0	0	0	0	0	0	0	0	0	0	0	0	0	0	0	0	0	0	0	0	0	0
043018	16:57:47	5.0.10.0	22	CS_B	Lpleas_acq	Oppo	Lpleas	2pleas	acq_unple_short	acq3_short	3	18	455	1	300	300	0	0	512	50	0	1	0	0	0	1	blank2r.bmp	0	1	+	0	5	C1r.bmp	500	1	blank2r.bmp	800	1	BMVZ	800	1	blank2r.bmp	870	2	neidisch	870	1	!	1289	1	!	1409	0	0	0	0	0	0	0	0	0	0	0	0	0	0	0	0	0	0	0	0	0	0	0	0	0	0	0
043018	16:57:47	5.0.10.0	22	CS_B	Lpleas_acq	Oppo	Lpleas	2pleas	acq_pleas_short	acq3_short	3	19	455	0	300	300	0	0	554	46	0	1	0	0	0	1	blank2r.bmp	0	1	+	0	2	B2r.bmp	500	1	blank2r.bmp	800	1	GKQX	800	1	blank2r.bmp	870	6	froh	870	1	!	1289	1	!	-1	0	0	0	0	0	0	0	0	0	0	0	0	0	0	0	0	0	0	0	0	0	0	0	0	0	0	0
043018	16:57:47	5.0.10.0	22	CS_B	Lpleas_acq	Oppo	Lpleas	2pleas	acq_unple_short	acq3_short	3	20	455	1	300	300	0	0	491	50	0	1	0	0	0	1	blank2r.bmp	0	1	+	0	3	B3r.bmp	500	1	blank2r.bmp	800	1	BMVZ	800	1	blank2r.bmp	870	3	töten	870	1	!	1289	1	!	1389	0	0	0	0	0	0	0	0	0	0	0	0	0	0	0	0	0	0	0	0	0	0	0	0	0	0	0
043018	16:57:47	5.0.10.0	22	CS_B	Lpleas_acq	Oppo	Lpleas	2pleas	acq_unple_short	acq3_short	3	21	455	0	300	300	0	0	361	50	0	1	0	0	0	1	blank2r.bmp	0	1	+	0	1	B1r.bmp	500	1	blank2r.bmp	800	1	BMVZ	800	1	blank2r.bmp	870	6	leiden	870	1	!	-1	1	!	-1	0	0	0	0	0	0	0	0	0	0	0	0	0	0	0	0	0	0	0	0	0	0	0	0	0	0	0
043018	16:57:47	5.0.10.0	22	CS_B	Lpleas_acq	Oppo	Lpleas	2pleas	acq_pleas_short	acq3_short	3	22	455	0	300	300	0	0	274	50	0	0	0	0	0	1	blank2r.bmp	0	1	+	0	6	C2r.bmp	500	1	blank2r.bmp	800	1	GKQX	800	1	blank2r.bmp	870	3	freund	870	1	FEHLER	1479	1	!	-1	1	!	-1	0	0	0	0	0	0	0	0	0	0	0	0	0	0	0	0	0	0	0	0	0	0	0	0
043018	16:57:47	5.0.10.0	22	CS_B	Lpleas_acq	Oppo	Lpleas	2pleas	acq_pleas_short	acq3_short	3	23	455	0	300	300	0	0	641	46	0	1	0	0	0	1	blank2r.bmp	0	1	+	0	4	B4r.bmp	500	1	blank2r.bmp	800	1	GKQX	800	1	blank2r.bmp	870	4	heiter	870	1	!	1289	1	!	-1	0	0	0	0	0	0	0	0	0	0	0	0	0	0	0	0	0	0	0	0	0	0	0	0	0	0	0
043018	16:57:47	5.0.10.0	22	CS_B	Lpleas_acq	Oppo	Lpleas	2pleas	acq_unple_short	acq3_short	3	24	455	1	300	300	0	0	445	50	0	1	0	0	0	1	blank2r.bmp	0	1	+	0	8	C4r.bmp	500	1	blank2r.bmp	800	1	BMVZ	800	1	blank2r.bmp	870	2	neidisch	870	1	!	1289	1	!	1339	0	0	0	0	0	0	0	0	0	0	0	0	0	0	0	0	0	0	0	0	0	0	0	0	0	0	0
043018	16:57:47	5.0.10.0	22	CS_B	Lpleas_acq	Oppo	Lpleas	2pleas	acq_pleas_short	acq3_short	3	25	455	0	300	300	0	0	368	46	0	1	0	0	0	1	blank2r.bmp	0	1	+	0	8	C4r.bmp	500	1	blank2r.bmp	800	1	GKQX	800	1	blank2r.bmp	870	5	friedlich	870	1	!	-1	1	!	-1	0	0	0	0	0	0	0	0	0	0	0	0	0	0	0	0	0	0	0	0	0	0	0	0	0	0	0
043018	16:57:47	5.0.10.0	22	CS_B	Lpleas_acq	Oppo	Lpleas	2pleas	acq_pleas_short	acq3_short	3	26	455	0	300	300	0	0	384	46	0	1	0	0	0	1	blank2r.bmp	0	1	+	0	6	C2r.bmp	500	1	blank2r.bmp	800	1	GKQX	800	1	blank2r.bmp	870	6	froh	870	1	!	-1	1	!	-1	0	0	0	0	0	0	0	0	0	0	0	0	0	0	0	0	0	0	0	0	0	0	0	0	0	0	0
043018	16:57:47	5.0.10.0	22	CS_B	Lpleas_acq	Oppo	Lpleas	2pleas	acq_pleas_short	acq3_short	3	27	455	1	300	300	0	0	515	46	0	1	0	0	0	1	blank2r.bmp	0	1	+	0	2	B2r.bmp	500	1	blank2r.bmp	800	1	GKQX	800	1	blank2r.bmp	870	3	freund	870	1	!	1289	1	!	1409	0	0	0	0	0	0	0	0	0	0	0	0	0	0	0	0	0	0	0	0	0	0	0	0	0	0	0
043018	16:57:47	5.0.10.0	22	CS_B	Lpleas_acq	Oppo	Lpleas	2pleas	acq_unple_short	acq3_short	3	28	455	0	300	300	0	0	355	50	0	1	0	0	0	1	blank2r.bmp	0	1	+	0	1	B1r.bmp	500	1	blank2r.bmp	800	1	BMVZ	800	1	blank2r.bmp	870	6	leiden	870	1	!	-1	1	!	-1	0	0	0	0	0	0	0	0	0	0	0	0	0	0	0	0	0	0	0	0	0	0	0	0	0	0	0
043018	16:57:47	5.0.10.0	22	CS_B	Lpleas_acq	Oppo	Lpleas	2pleas	acq_unple_short	acq3_short	3	29	455	0	300	300	0	0	343	46	0	0	0	0	0	1	blank2r.bmp	0	1	+	0	5	C1r.bmp	500	1	blank2r.bmp	800	1	BMVZ	800	1	blank2r.bmp	870	3	töten	870	1	FEHLER	1549	1	!	-1	1	!	-1	0	0	0	0	0	0	0	0	0	0	0	0	0	0	0	0	0	0	0	0	0	0	0	0
043018	16:57:47	5.0.10.0	22	CS_B	Lpleas_acq	Oppo	Lpleas	2pleas	acq_pleas_short	acq3_short	3	30	455	0	300	300	0	0	663	46	0	1	0	0	0	1	blank2r.bmp	0	1	+	0	7	C3r.bmp	500	1	blank2r.bmp	800	1	GKQX	800	1	blank2r.bmp	870	1	toll	870	1	!	1289	1	!	-1	0	0	0	0	0	0	0	0	0	0	0	0	0	0	0	0	0	0	0	0	0	0	0	0	0	0	0
043018	16:57:47	5.0.10.0	22	CS_B	Lpleas_acq	Oppo	Lpleas	2pleas	acq_pleas_short	acq3_short	3	31	455	0	300	300	0	0	324	46	0	1	0	0	0	1	blank2r.bmp	0	1	+	0	3	B3r.bmp	500	1	blank2r.bmp	800	1	GKQX	800	1	blank2r.bmp	870	2	schön	870	1	!	-1	1	!	-1	0	0	0	0	0	0	0	0	0	0	0	0	0	0	0	0	0	0	0	0	0	0	0	0	0	0	0
043018	16:57:47	5.0.10.0	22	CS_B	Lpleas_acq	Oppo	Lpleas	2pleas	acq_unple_short	acq3_short	3	32	455	0	300	300	0	0	537	50	0	1	0	0	0	1	blank2r.bmp	0	1	+	0	4	B4r.bmp	500	1	blank2r.bmp	800	1	BMVZ	800	1	blank2r.bmp	870	5	schlecht	870	1	!	1289	1	!	-1	0	0	0	0	0	0	0	0	0	0	0	0	0	0	0	0	0	0	0	0	0	0	0	0	0	0	0
043018	16:57:47	5.0.10.0	22	CS_B	Lpleas_acq	Oppo	Lpleas	2pleas	acq_pleas_short	acq3_short	3	33	455	0	300	300	0	0	2654	46	0	1	0	0	0	1	blank2r.bmp	0	1	+	0	5	C1r.bmp	500	1	blank2r.bmp	800	1	GKQX	800	1	blank2r.bmp	870	5	friedlich	870	1	!	1289	1	!	-1	0	0	0	0	0	0	0	0	0	0	0	0	0	0	0	0	0	0	0	0	0	0	0	0	0	0	0
043018	16:57:47	5.0.10.0	22	CS_B	Lpleas_acq	Oppo	Lpleas	2pleas	acq_pleas_short	acq3_short	3	34	455	0	300	300	0	0	653	46	0	1	0	0	0	1	blank2r.bmp	0	1	+	0	2	B2r.bmp	500	1	blank2r.bmp	800	1	GKQX	800	1	blank2r.bmp	870	4	heiter	870	1	!	1289	1	!	-1	0	0	0	0	0	0	0	0	0	0	0	0	0	0	0	0	0	0	0	0	0	0	0	0	0	0	0
043018	16:57:47	5.0.10.0	22	CS_B	Lpleas_acq	Oppo	Lpleas	2pleas	acq_pleas_short	acq3_short	3	35	455	0	300	300	0	0	384	46	0	1	0	0	0	1	blank2r.bmp	0	1	+	0	7	C3r.bmp	500	1	blank2r.bmp	800	1	GKQX	800	1	blank2r.bmp	870	3	freund	870	1	!	-1	1	!	-1	0	0	0	0	0	0	0	0	0	0	0	0	0	0	0	0	0	0	0	0	0	0	0	0	0	0	0
043018	16:57:47	5.0.10.0	22	CS_B	Lpleas_acq	Oppo	Lpleas	2pleas	acq_unple_short	acq3_short	3	36	455	0	300	300	0	0	319	50	0	1	0	0	0	1	blank2r.bmp	0	1	+	0	8	C4r.bmp	500	1	blank2r.bmp	800	1	BMVZ	800	1	blank2r.bmp	870	1	unfair	870	1	!	-1	1	!	-1	0	0	0	0	0	0	0	0	0	0	0	0	0	0	0	0	0	0	0	0	0	0	0	0	0	0	0
043018	16:57:47	5.0.10.0	22	CS_B	Lpleas_acq	Oppo	Lpleas	2pleas	acq_unple_short	acq3_short	3	37	455	0	300	300	0	0	579	50	0	1	0	0	0	1	blank2r.bmp	0	1	+	0	1	B1r.bmp	500	1	blank2r.bmp	800	1	BMVZ	800	1	blank2r.bmp	870	4	elend	870	1	!	1289	1	!	-1	0	0	0	0	0	0	0	0	0	0	0	0	0	0	0	0	0	0	0	0	0	0	0	0	0	0	0
043018	16:57:47	5.0.10.0	22	CS_B	Lpleas_acq	Oppo	Lpleas	2pleas	acq_pleas_short	acq3_short	3	38	455	1	300	300	0	0	485	46	0	1	0	0	0	1	blank2r.bmp	0	1	+	0	4	B4r.bmp	500	1	blank2r.bmp	800	1	GKQX	800	1	blank2r.bmp	870	6	froh	870	1	!	1289	1	!	1379	0	0	0	0	0	0	0	0	0	0	0	0	0	0	0	0	0	0	0	0	0	0	0	0	0	0	0
043018	16:57:47	5.0.10.0	22	CS_B	Lpleas_acq	Oppo	Lpleas	2pleas	acq_unple_short	acq3_short	3	39	455	0	300	300	0	0	574	50	0	1	0	0	0	1	blank2r.bmp	0	1	+	0	3	B3r.bmp	500	1	blank2r.bmp	800	1	BMVZ	800	1	blank2r.bmp	870	1	unfair	870	1	!	1289	1	!	-1	0	0	0	0	0	0	0	0	0	0	0	0	0	0	0	0	0	0	0	0	0	0	0	0	0	0	0
043018	16:57:47	5.0.10.0	22	CS_B	Lpleas_acq	Oppo	Lpleas	2pleas	acq_unple_short	acq3_short	3	40	455	1	300	300	0	0	478	50	0	1	0	0	0	1	blank2r.bmp	0	1	+	0	6	C2r.bmp	500	1	blank2r.bmp	800	1	BMVZ	800	1	blank2r.bmp	870	6	leiden	870	1	!	1289	1	!	1369	0	0	0	0	0	0	0	0	0	0	0	0	0	0	0	0	0	0	0	0	0	0	0	0	0	0	0
043018	16:57:47	5.0.10.0	22	CS_B	Lpleas_acq	Oppo	Lpleas	2pleas	acq_unple_short	acq3_short	3	41	455	1	300	300	0	0	520	50	0	1	0	0	0	1	blank2r.bmp	0	1	+	0	7	C3r.bmp	500	1	blank2r.bmp	800	1	BMVZ	800	1	blank2r.bmp	870	5	schlecht	870	1	!	1289	1	!	1419	0	0	0	0	0	0	0	0	0	0	0	0	0	0	0	0	0	0	0	0	0	0	0	0	0	0	0
043018	16:57:47	5.0.10.0	22	CS_B	Lpleas_acq	Oppo	Lpleas	2pleas	acq_unple_short	acq3_short	3	42	455	1	300	300	0	0	516	50	0	1	0	0	0	1	blank2r.bmp	0	1	+	0	3	B3r.bmp	500	1	blank2r.bmp	800	1	BMVZ	800	1	blank2r.bmp	870	3	töten	870	1	!	1289	1	!	1409	0	0	0	0	0	0	0	0	0	0	0	0	0	0	0	0	0	0	0	0	0	0	0	0	0	0	0
043018	16:57:47	5.0.10.0	22	CS_B	Lpleas_acq	Oppo	Lpleas	2pleas	acq_pleas_short	acq3_short	3	43	455	0	300	300	0	0	322	46	0	1	0	0	0	1	blank2r.bmp	0	1	+	0	4	B4r.bmp	500	1	blank2r.bmp	800	1	GKQX	800	1	blank2r.bmp	870	4	heiter	870	1	!	-1	1	!	-1	0	0	0	0	0	0	0	0	0	0	0	0	0	0	0	0	0	0	0	0	0	0	0	0	0	0	0
043018	16:57:47	5.0.10.0	22	CS_B	Lpleas_acq	Oppo	Lpleas	2pleas	acq_unple_short	acq3_short	3	44	455	0	300	300	0	0	530	50	0	1	0	0	0	1	blank2r.bmp	0	1	+	0	6	C2r.bmp	500	1	blank2r.bmp	800	1	BMVZ	800	1	blank2r.bmp	870	4	elend	870	1	!	1289	1	!	-1	0	0	0	0	0	0	0	0	0	0	0	0	0	0	0	0	0	0	0	0	0	0	0	0	0	0	0
043018	16:57:47	5.0.10.0	22	CS_B	Lpleas_acq	Oppo	Lpleas	2pleas	acq_pleas_short	acq3_short	3	45	455	1	300	300	0	0	410	46	0	1	0	0	0	1	blank2r.bmp	0	1	+	0	5	C1r.bmp	500	1	blank2r.bmp	800	1	GKQX	800	1	blank2r.bmp	870	2	schön	870	1	!	1289	1	!	1309	0	0	0	0	0	0	0	0	0	0	0	0	0	0	0	0	0	0	0	0	0	0	0	0	0	0	0
043018	16:57:47	5.0.10.0	22	CS_B	Lpleas_acq	Oppo	Lpleas	2pleas	acq_pleas_short	acq3_short	3	46	455	1	300	300	0	0	452	46	0	1	0	0	0	1	blank2r.bmp	0	1	+	0	8	C4r.bmp	500	1	blank2r.bmp	800	1	GKQX	800	1	blank2r.bmp	870	1	toll	870	1	!	1289	1	!	1349	0	0	0	0	0	0	0	0	0	0	0	0	0	0	0	0	0	0	0	0	0	0	0	0	0	0	0
043018	16:57:47	5.0.10.0	22	CS_B	Lpleas_acq	Oppo	Lpleas	2pleas	acq_pleas_short	acq3_short	3	47	455	0	300	300	0	0	574	46	0	1	0	0	0	1	blank2r.bmp	0	1	+	0	2	B2r.bmp	500	1	blank2r.bmp	800	1	GKQX	800	1	blank2r.bmp	870	5	friedlich	870	1	!	1289	1	!	-1	0	0	0	0	0	0	0	0	0	0	0	0	0	0	0	0	0	0	0	0	0	0	0	0	0	0	0
043018	16:57:47	5.0.10.0	22	CS_B	Lpleas_acq	Oppo	Lpleas	2pleas	acq_unple_short	acq3_short	3	48	455	0	300	300	0	0	311	50	0	1	0	0	0	1	blank2r.bmp	0	1	+	0	1	B1r.bmp	500	1	blank2r.bmp	800	1	BMVZ	800	1	blank2r.bmp	870	2	neidisch	870	1	!	-1	1	!	-1	0	0	0	0	0	0	0	0	0	0	0	0	0	0	0	0	0	0	0	0	0	0	0	0	0	0	0
043018	16:57:47	5.0.10.0	22	CS_B	Lpleas_acq	Oppo	Lpleas	2pleas	acq_unple_short	acq45_short	4	1	405	1	300	300	0	0	454	50	0	1	0	0	0	1	blank2r.bmp	0	1	+	0	3	B3r.bmp	500	1	blank2r.bmp	800	1	BMVZ	800	1	blank2r.bmp	870	4	elend	870	1	!	1239	1	!	1349	0	0	0	0	0	0	0	0	0	0	0	0	0	0	0	0	0	0	0	0	0	0	0	0	0	0	0
043018	16:57:47	5.0.10.0	22	CS_B	Lpleas_acq	Oppo	Lpleas	2pleas	acq_pleas_short	acq45_short	4	2	405	1	300	300	0	0	388	46	0	1	0	0	0	1	blank2r.bmp	0	1	+	0	5	C1r.bmp	500	1	blank2r.bmp	800	1	GKQX	800	1	blank2r.bmp	870	5	friedlich	870	1	!	1239	1	!	1279	0	0	0	0	0	0	0	0	0	0	0	0	0	0	0	0	0	0	0	0	0	0	0	0	0	0	0
043018	16:57:47	5.0.10.0	22	CS_B	Lpleas_acq	Oppo	Lpleas	2pleas	acq_unple_short	acq45_short	4	3	405	0	300	300	0	0	488	50	0	1	0	0	0	1	blank2r.bmp	0	1	+	0	6	C2r.bmp	500	1	blank2r.bmp	800	1	BMVZ	800	1	blank2r.bmp	870	3	töten	870	1	!	1239	1	!	-1	0	0	0	0	0	0	0	0	0	0	0	0	0	0	0	0	0	0	0	0	0	0	0	0	0	0	0
043018	16:57:47	5.0.10.0	22	CS_B	Lpleas_acq	Oppo	Lpleas	2pleas	acq_pleas_short	acq45_short	4	4	405	1	300	300	0	0	369	46	0	1	0	0	0	1	blank2r.bmp	0	1	+	0	7	C3r.bmp	500	1	blank2r.bmp	800	1	GKQX	800	1	blank2r.bmp	870	2	schön	870	1	!	1239	1	!	1269	0	0	0	0	0	0	0	0	0	0	0	0	0	0	0	0	0	0	0	0	0	0	0	0	0	0	0
043018	16:57:47	5.0.10.0	22	CS_B	Lpleas_acq	Oppo	Lpleas	2pleas	acq_pleas_short	acq45_short	4	5	405	1	300	300	0	0	350	50	0	0	0	0	0	1	blank2r.bmp	0	1	+	0	1	B1r.bmp	500	1	blank2r.bmp	800	1	GKQX	800	1	blank2r.bmp	870	1	toll	870	1	!	1239	1	!	1249	0	0	0	0	0	0	0	0	0	0	0	0	0	0	0	0	0	0	0	0	0	0	0	0	0	0	0
043018	16:57:47	5.0.10.0	22	CS_B	Lpleas_acq	Oppo	Lpleas	2pleas	acq_unple_short	acq45_short	4	6	405	1	300	300	0	0	353	50	0	1	0	0	0	1	blank2r.bmp	0	1	+	0	8	C4r.bmp	500	1	blank2r.bmp	800	1	BMVZ	800	1	blank2r.bmp	870	2	neidisch	870	1	!	1239	1	!	1249	0	0	0	0	0	0	0	0	0	0	0	0	0	0	0	0	0	0	0	0	0	0	0	0	0	0	0
043018	16:57:47	5.0.10.0	22	CS_B	Lpleas_acq	Oppo	Lpleas	2pleas	acq_unple_short	acq45_short	4	7	405	0	300	300	0	0	340	50	0	1	0	0	0	1	blank2r.bmp	0	1	+	0	4	B4r.bmp	500	1	blank2r.bmp	800	1	BMVZ	800	1	blank2r.bmp	870	6	leiden	870	1	!	-1	1	!	-1	0	0	0	0	0	0	0	0	0	0	0	0	0	0	0	0	0	0	0	0	0	0	0	0	0	0	0
043018	16:57:47	5.0.10.0	22	CS_B	Lpleas_acq	Oppo	Lpleas	2pleas	acq_unple_short	acq45_short	4	8	405	0	300	300	0	0	488	50	0	1	0	0	0	1	blank2r.bmp	0	1	+	0	2	B2r.bmp	500	1	blank2r.bmp	800	1	BMVZ	800	1	blank2r.bmp	870	5	schlecht	870	1	!	1239	1	!	-1	0	0	0	0	0	0	0	0	0	0	0	0	0	0	0	0	0	0	0	0	0	0	0	0	0	0	0
043018	16:57:47	5.0.10.0	22	CS_B	Lpleas_acq	Oppo	Lpleas	2pleas	acq_pleas_short	acq45_short	4	9	405	1	300	300	0	0	419	50	0	0	0	0	0	1	blank2r.bmp	0	1	+	0	4	B4r.bmp	500	1	blank2r.bmp	800	1	GKQX	800	1	blank2r.bmp	870	4	heiter	870	1	!	1239	1	!	1319	0	0	0	0	0	0	0	0	0	0	0	0	0	0	0	0	0	0	0	0	0	0	0	0	0	0	0
043018	16:57:47	5.0.10.0	22	CS_B	Lpleas_acq	Oppo	Lpleas	2pleas	acq_pleas_short	acq45_short	4	10	405	1	300	300	0	0	428	46	0	1	0	0	0	1	blank2r.bmp	0	1	+	0	3	B3r.bmp	500	1	blank2r.bmp	800	1	GKQX	800	1	blank2r.bmp	870	3	freund	870	1	!	1239	1	!	1319	0	0	0	0	0	0	0	0	0	0	0	0	0	0	0	0	0	0	0	0	0	0	0	0	0	0	0
043018	16:57:47	5.0.10.0	22	CS_B	Lpleas_acq	Oppo	Lpleas	2pleas	acq_unple_short	acq45_short	4	11	405	0	300	300	0	0	299	46	0	0	0	0	0	1	blank2r.bmp	0	1	+	0	7	C3r.bmp	500	1	blank2r.bmp	800	1	BMVZ	800	1	blank2r.bmp	870	1	unfair	870	1	!	-1	1	!	-1	0	0	0	0	0	0	0	0	0	0	0	0	0	0	0	0	0	0	0	0	0	0	0	0	0	0	0
043018	16:57:47	5.0.10.0	22	CS_B	Lpleas_acq	Oppo	Lpleas	2pleas	acq_unple_short	acq45_short	4	12	405	1	300	300	0	0	435	50	0	1	0	0	0	1	blank2r.bmp	0	1	+	0	8	C4r.bmp	500	1	blank2r.bmp	800	1	BMVZ	800	1	blank2r.bmp	870	4	elend	870	1	!	1239	1	!	1329	0	0	0	0	0	0	0	0	0	0	0	0	0	0	0	0	0	0	0	0	0	0	0	0	0	0	0
043018	16:57:47	5.0.10.0	22	CS_B	Lpleas_acq	Oppo	Lpleas	2pleas	acq_unple_short	acq45_short	4	13	405	1	300	300	0	0	358	50	0	1	0	0	0	1	blank2r.bmp	0	1	+	0	6	C2r.bmp	500	1	blank2r.bmp	800	1	BMVZ	800	1	blank2r.bmp	870	2	neidisch	870	1	!	1239	1	!	1249	0	0	0	0	0	0	0	0	0	0	0	0	0	0	0	0	0	0	0	0	0	0	0	0	0	0	0
043018	16:57:47	5.0.10.0	22	CS_B	Lpleas_acq	Oppo	Lpleas	2pleas	acq_pleas_short	acq45_short	4	14	405	0	300	300	0	0	500	46	0	1	0	0	0	1	blank2r.bmp	0	1	+	0	5	C1r.bmp	500	1	blank2r.bmp	800	1	GKQX	800	1	blank2r.bmp	870	6	froh	870	1	!	1239	1	!	-1	0	0	0	0	0	0	0	0	0	0	0	0	0	0	0	0	0	0	0	0	0	0	0	0	0	0	0
043018	16:57:47	5.0.10.0	22	CS_B	Lpleas_acq	Oppo	Lpleas	2pleas	acq_pleas_short	acq45_short	4	15	405	0	300	300	0	0	320	46	0	1	0	0	0	1	blank2r.bmp	0	1	+	0	1	B1r.bmp	500	1	blank2r.bmp	800	1	GKQX	800	1	blank2r.bmp	870	3	freund	870	1	!	-1	1	!	-1	0	0	0	0	0	0	0	0	0	0	0	0	0	0	0	0	0	0	0	0	0	0	0	0	0	0	0
043018	16:57:47	5.0.10.0	22	CS_B	Lpleas_acq	Oppo	Lpleas	2pleas	acq_pleas_short	acq45_short	4	16	405	0	300	300	0	0	518	46	0	1	0	0	0	1	blank2r.bmp	0	1	+	0	2	B2r.bmp	500	1	blank2r.bmp	800	1	GKQX	800	1	blank2r.bmp	870	5	friedlich	870	1	!	1239	1	!	-1	0	0	0	0	0	0	0	0	0	0	0	0	0	0	0	0	0	0	0	0	0	0	0	0	0	0	0
043018	16:57:47	5.0.10.0	22	CS_B	Lpleas_acq	Oppo	Lpleas	2pleas	acq_pleas_short	acq45_short	4	17	405	1	300	300	0	0	451	46	0	1	0	0	0	1	blank2r.bmp	0	1	+	0	6	C2r.bmp	500	1	blank2r.bmp	800	1	GKQX	800	1	blank2r.bmp	870	2	schön	870	1	!	1239	1	!	1349	0	0	0	0	0	0	0	0	0	0	0	0	0	0	0	0	0	0	0	0	0	0	0	0	0	0	0
043018	16:57:47	5.0.10.0	22	CS_B	Lpleas_acq	Oppo	Lpleas	2pleas	acq_unple_short	acq45_short	4	18	405	1	300	300	0	0	458	50	0	1	0	0	0	1	blank2r.bmp	0	1	+	0	4	B4r.bmp	500	1	blank2r.bmp	800	1	BMVZ	800	1	blank2r.bmp	870	3	töten	870	1	!	1239	1	!	1349	0	0	0	0	0	0	0	0	0	0	0	0	0	0	0	0	0	0	0	0	0	0	0	0	0	0	0
043018	16:57:47	5.0.10.0	22	CS_B	Lpleas_acq	Oppo	Lpleas	2pleas	acq_unple_short	acq45_short	4	19	405	0	300	300	0	0	312	46	0	0	0	0	0	1	blank2r.bmp	0	1	+	0	7	C3r.bmp	500	1	blank2r.bmp	800	1	BMVZ	800	1	blank2r.bmp	870	1	unfair	870	1	!	-1	1	!	-1	0	0	0	0	0	0	0	0	0	0	0	0	0	0	0	0	0	0	0	0	0	0	0	0	0	0	0
043018	16:57:47	5.0.10.0	22	CS_B	Lpleas_acq	Oppo	Lpleas	2pleas	acq_pleas_short	acq45_short	4	20	405	0	300	300	0	0	622	46	0	1	0	0	0	1	blank2r.bmp	0	1	+	0	1	B1r.bmp	500	1	blank2r.bmp	800	1	GKQX	800	1	blank2r.bmp	870	1	toll	870	1	!	1239	1	!	-1	0	0	0	0	0	0	0	0	0	0	0	0	0	0	0	0	0	0	0	0	0	0	0	0	0	0	0
043018	16:57:47	5.0.10.0	22	CS_B	Lpleas_acq	Oppo	Lpleas	2pleas	acq_pleas_short	acq45_short	4	21	405	1	300	300	0	0	362	50	0	0	0	0	0	1	blank2r.bmp	0	1	+	0	8	C4r.bmp	500	1	blank2r.bmp	800	1	GKQX	800	1	blank2r.bmp	870	4	heiter	870	1	!	1239	1	!	1259	0	0	0	0	0	0	0	0	0	0	0	0	0	0	0	0	0	0	0	0	0	0	0	0	0	0	0
043018	16:57:47	5.0.10.0	22	CS_B	Lpleas_acq	Oppo	Lpleas	2pleas	acq_pleas_short	acq45_short	4	22	405	1	300	300	0	0	356	46	0	1	0	0	0	1	blank2r.bmp	0	1	+	0	3	B3r.bmp	500	1	blank2r.bmp	800	1	GKQX	800	1	blank2r.bmp	870	6	froh	870	1	!	1239	1	!	1249	0	0	0	0	0	0	0	0	0	0	0	0	0	0	0	0	0	0	0	0	0	0	0	0	0	0	0
043018	16:57:47	5.0.10.0	22	CS_B	Lpleas_acq	Oppo	Lpleas	2pleas	acq_unple_short	acq45_short	4	23	405	0	300	300	0	0	489	50	0	1	0	0	0	1	blank2r.bmp	0	1	+	0	5	C1r.bmp	500	1	blank2r.bmp	800	1	BMVZ	800	1	blank2r.bmp	870	6	leiden	870	1	!	1239	1	!	-1	0	0	0	0	0	0	0	0	0	0	0	0	0	0	0	0	0	0	0	0	0	0	0	0	0	0	0
043018	16:57:47	5.0.10.0	22	CS_B	Lpleas_acq	Oppo	Lpleas	2pleas	acq_pleas_short	acq45_short	4	24	405	1	300	300	0	0	415	46	0	1	0	0	0	1	blank2r.bmp	0	1	+	0	2	B2r.bmp	500	1	blank2r.bmp	800	1	GKQX	800	1	blank2r.bmp	870	6	froh	870	1	!	1239	1	!	1309	0	0	0	0	0	0	0	0	0	0	0	0	0	0	0	0	0	0	0	0	0	0	0	0	0	0	0
043018	16:57:47	5.0.10.0	22	CS_B	Lpleas_acq	Oppo	Lpleas	2pleas	acq_unple_short	acq45_short	4	25	405	1	300	300	0	0	451	50	0	1	0	0	0	1	blank2r.bmp	0	1	+	0	2	B2r.bmp	500	1	blank2r.bmp	800	1	BMVZ	800	1	blank2r.bmp	870	5	schlecht	870	1	!	1239	1	!	1349	0	0	0	0	0	0	0	0	0	0	0	0	0	0	0	0	0	0	0	0	0	0	0	0	0	0	0
043018	16:57:47	5.0.10.0	22	CS_B	Lpleas_acq	Oppo	Lpleas	2pleas	acq_pleas_short	acq45_short	4	26	405	1	300	300	0	0	369	50	0	0	0	0	0	1	blank2r.bmp	0	1	+	0	6	C2r.bmp	500	1	blank2r.bmp	800	1	GKQX	800	1	blank2r.bmp	870	3	freund	870	1	!	1239	1	!	1269	0	0	0	0	0	0	0	0	0	0	0	0	0	0	0	0	0	0	0	0	0	0	0	0	0	0	0
043018	16:57:47	5.0.10.0	22	CS_B	Lpleas_acq	Oppo	Lpleas	2pleas	acq_pleas_short	acq45_short	4	27	405	0	300	300	0	0	259	46	0	1	0	0	0	1	blank2r.bmp	0	1	+	0	7	C3r.bmp	500	1	blank2r.bmp	800	1	GKQX	800	1	blank2r.bmp	870	2	schön	870	1	!	-1	1	!	-1	0	0	0	0	0	0	0	0	0	0	0	0	0	0	0	0	0	0	0	0	0	0	0	0	0	0	0
043018	16:57:47	5.0.10.0	22	CS_B	Lpleas_acq	Oppo	Lpleas	2pleas	acq_unple_short	acq45_short	4	28	405	1	300	300	0	0	384	46	0	0	0	0	0	1	blank2r.bmp	0	1	+	0	4	B4r.bmp	500	1	blank2r.bmp	800	1	BMVZ	800	1	blank2r.bmp	870	5	schlecht	870	1	!	1239	1	!	1279	0	0	0	0	0	0	0	0	0	0	0	0	0	0	0	0	0	0	0	0	0	0	0	0	0	0	0
043018	16:57:47	5.0.10.0	22	CS_B	Lpleas_acq	Oppo	Lpleas	2pleas	acq_unple_short	acq45_short	4	29	405	1	300	300	0	0	466	50	0	1	0	0	0	1	blank2r.bmp	0	1	+	0	3	B3r.bmp	500	1	blank2r.bmp	800	1	BMVZ	800	1	blank2r.bmp	870	4	elend	870	1	!	1239	1	!	1359	0	0	0	0	0	0	0	0	0	0	0	0	0	0	0	0	0	0	0	0	0	0	0	0	0	0	0
043018	16:57:47	5.0.10.0	22	CS_B	Lpleas_acq	Oppo	Lpleas	2pleas	acq_unple_short	acq45_short	4	30	405	1	300	300	0	0	352	50	0	1	0	0	0	1	blank2r.bmp	0	1	+	0	1	B1r.bmp	500	1	blank2r.bmp	800	1	BMVZ	800	1	blank2r.bmp	870	2	neidisch	870	1	!	1239	1	!	1249	0	0	0	0	0	0	0	0	0	0	0	0	0	0	0	0	0	0	0	0	0	0	0	0	0	0	0
043018	16:57:47	5.0.10.0	22	CS_B	Lpleas_acq	Oppo	Lpleas	2pleas	acq_pleas_short	acq45_short	4	31	405	1	300	300	0	0	351	46	0	1	0	0	0	1	blank2r.bmp	0	1	+	0	8	C4r.bmp	500	1	blank2r.bmp	800	1	GKQX	800	1	blank2r.bmp	870	1	toll	870	1	!	1239	1	!	1249	0	0	0	0	0	0	0	0	0	0	0	0	0	0	0	0	0	0	0	0	0	0	0	0	0	0	0
043018	16:57:47	5.0.10.0	22	CS_B	Lpleas_acq	Oppo	Lpleas	2pleas	acq_unple_short	acq45_short	4	32	405	1	300	300	0	0	448	50	0	1	0	0	0	1	blank2r.bmp	0	1	+	0	5	C1r.bmp	500	1	blank2r.bmp	800	1	BMVZ	800	1	blank2r.bmp	870	3	töten	870	1	!	1239	1	!	1339	0	0	0	0	0	0	0	0	0	0	0	0	0	0	0	0	0	0	0	0	0	0	0	0	0	0	0
043018	16:57:47	5.0.10.0	22	CS_B	Lpleas_acq	Oppo	Lpleas	2pleas	acq_unple_short	acq45_short	4	33	405	0	300	300	0	0	276	50	0	1	0	0	0	1	blank2r.bmp	0	1	+	0	8	C4r.bmp	500	1	blank2r.bmp	800	1	BMVZ	800	1	blank2r.bmp	870	1	unfair	870	1	!	-1	1	!	-1	0	0	0	0	0	0	0	0	0	0	0	0	0	0	0	0	0	0	0	0	0	0	0	0	0	0	0
043018	16:57:47	5.0.10.0	22	CS_B	Lpleas_acq	Oppo	Lpleas	2pleas	acq_pleas_short	acq45_short	4	34	405	1	300	300	0	0	421	46	0	1	0	0	0	1	blank2r.bmp	0	1	+	0	6	C2r.bmp	500	1	blank2r.bmp	800	1	GKQX	800	1	blank2r.bmp	870	5	friedlich	870	1	!	1239	1	!	1319	0	0	0	0	0	0	0	0	0	0	0	0	0	0	0	0	0	0	0	0	0	0	0	0	0	0	0
043018	16:57:47	5.0.10.0	22	CS_B	Lpleas_acq	Oppo	Lpleas	2pleas	acq_pleas_short	acq45_short	4	35	405	0	300	300	0	0	589	50	0	0	0	0	0	1	blank2r.bmp	0	1	+	0	1	B1r.bmp	500	1	blank2r.bmp	800	1	GKQX	800	1	blank2r.bmp	870	4	heiter	870	1	!	1239	1	!	-1	0	0	0	0	0	0	0	0	0	0	0	0	0	0	0	0	0	0	0	0	0	0	0	0	0	0	0
043018	16:57:47	5.0.10.0	22	CS_B	Lpleas_acq	Oppo	Lpleas	2pleas	acq_unple_short	acq45_short	4	36	405	1	300	300	0	0	416	46	0	0	0	0	0	1	blank2r.bmp	0	1	+	0	4	B4r.bmp	500	1	blank2r.bmp	800	1	BMVZ	800	1	blank2r.bmp	870	6	leiden	870	1	!	1239	1	!	1309	0	0	0	0	0	0	0	0	0	0	0	0	0	0	0	0	0	0	0	0	0	0	0	0	0	0	0
043018	16:57:47	5.0.10.0	22	CS_B	Lpleas_acq	Oppo	Lpleas	2pleas	acq_pleas_short	acq45_short	4	37	405	1	300	300	0	0	422	46	0	1	0	0	0	1	blank2r.bmp	0	1	+	0	2	B2r.bmp	500	1	blank2r.bmp	800	1	GKQX	800	1	blank2r.bmp	870	6	froh	870	1	!	1239	1	!	1319	0	0	0	0	0	0	0	0	0	0	0	0	0	0	0	0	0	0	0	0	0	0	0	0	0	0	0
043018	16:57:47	5.0.10.0	22	CS_B	Lpleas_acq	Oppo	Lpleas	2pleas	acq_unple_short	acq45_short	4	38	405	1	300	300	0	0	450	50	0	1	0	0	0	1	blank2r.bmp	0	1	+	0	7	C3r.bmp	500	1	blank2r.bmp	800	1	BMVZ	800	1	blank2r.bmp	870	1	unfair	870	1	!	1239	1	!	1349	0	0	0	0	0	0	0	0	0	0	0	0	0	0	0	0	0	0	0	0	0	0	0	0	0	0	0
043018	16:57:47	5.0.10.0	22	CS_B	Lpleas_acq	Oppo	Lpleas	2pleas	acq_pleas_short	acq45_short	4	39	405	1	300	300	0	0	414	46	0	1	0	0	0	1	blank2r.bmp	0	1	+	0	3	B3r.bmp	500	1	blank2r.bmp	800	1	GKQX	800	1	blank2r.bmp	870	5	friedlich	870	1	!	1239	1	!	1309	0	0	0	0	0	0	0	0	0	0	0	0	0	0	0	0	0	0	0	0	0	0	0	0	0	0	0
043018	16:57:47	5.0.10.0	22	CS_B	Lpleas_acq	Oppo	Lpleas	2pleas	acq_unple_short	acq45_short	4	40	405	1	300	300	0	0	439	50	0	1	0	0	0	1	blank2r.bmp	0	1	+	0	5	C1r.bmp	500	1	blank2r.bmp	800	1	BMVZ	800	1	blank2r.bmp	870	5	schlecht	870	1	!	1239	1	!	1339	0	0	0	0	0	0	0	0	0	0	0	0	0	0	0	0	0	0	0	0	0	0	0	0	0	0	0
043018	16:57:47	5.0.10.0	22	CS_B	Lpleas_acq	Oppo	Lpleas	2pleas	acq_pleas_short	acq45_short	4	41	405	0	300	300	0	0	521	46	0	1	0	0	0	1	blank2r.bmp	0	1	+	0	2	B2r.bmp	500	1	blank2r.bmp	800	1	GKQX	800	1	blank2r.bmp	870	1	toll	870	1	!	1239	1	!	-1	0	0	0	0	0	0	0	0	0	0	0	0	0	0	0	0	0	0	0	0	0	0	0	0	0	0	0
043018	16:57:47	5.0.10.0	22	CS_B	Lpleas_acq	Oppo	Lpleas	2pleas	acq_unple_short	acq45_short	4	42	405	0	300	300	0	0	513	50	0	1	0	0	0	1	blank2r.bmp	0	1	+	0	4	B4r.bmp	500	1	blank2r.bmp	800	1	BMVZ	800	1	blank2r.bmp	870	2	neidisch	870	1	!	1239	1	!	-1	0	0	0	0	0	0	0	0	0	0	0	0	0	0	0	0	0	0	0	0	0	0	0	0	0	0	0
043018	16:57:47	5.0.10.0	22	CS_B	Lpleas_acq	Oppo	Lpleas	2pleas	acq_unple_short	acq45_short	4	43	405	0	300	300	0	0	318	50	0	1	0	0	0	1	blank2r.bmp	0	1	+	0	7	C3r.bmp	500	1	blank2r.bmp	800	1	BMVZ	800	1	blank2r.bmp	870	6	leiden	870	1	!	-1	1	!	-1	0	0	0	0	0	0	0	0	0	0	0	0	0	0	0	0	0	0	0	0	0	0	0	0	0	0	0
043018	16:57:47	5.0.10.0	22	CS_B	Lpleas_acq	Oppo	Lpleas	2pleas	acq_pleas_short	acq45_short	4	44	405	0	300	300	0	0	550	46	0	1	0	0	0	1	blank2r.bmp	0	1	+	0	8	C4r.bmp	500	1	blank2r.bmp	800	1	GKQX	800	1	blank2r.bmp	870	4	heiter	870	1	!	1239	1	!	-1	0	0	0	0	0	0	0	0	0	0	0	0	0	0	0	0	0	0	0	0	0	0	0	0	0	0	0
043018	16:57:47	5.0.10.0	22	CS_B	Lpleas_acq	Oppo	Lpleas	2pleas	acq_pleas_short	acq45_short	4	45	405	0	300	300	0	0	338	50	0	0	0	0	0	1	blank2r.bmp	0	1	+	0	5	C1r.bmp	500	1	blank2r.bmp	800	1	GKQX	800	1	blank2r.bmp	870	3	freund	870	1	!	-1	1	!	-1	0	0	0	0	0	0	0	0	0	0	0	0	0	0	0	0	0	0	0	0	0	0	0	0	0	0	0
043018	16:57:47	5.0.10.0	22	CS_B	Lpleas_acq	Oppo	Lpleas	2pleas	acq_pleas_short	acq45_short	4	46	405	1	300	300	0	0	416	46	0	1	0	0	0	1	blank2r.bmp	0	1	+	0	6	C2r.bmp	500	1	blank2r.bmp	800	1	GKQX	800	1	blank2r.bmp	870	2	schön	870	1	!	1239	1	!	1309	0	0	0	0	0	0	0	0	0	0	0	0	0	0	0	0	0	0	0	0	0	0	0	0	0	0	0
043018	16:57:47	5.0.10.0	22	CS_B	Lpleas_acq	Oppo	Lpleas	2pleas	acq_unple_short	acq45_short	4	47	405	0	300	300	0	0	503	50	0	1	0	0	0	1	blank2r.bmp	0	1	+	0	1	B1r.bmp	500	1	blank2r.bmp	800	1	BMVZ	800	1	blank2r.bmp	870	4	elend	870	1	!	1239	1	!	-1	0	0	0	0	0	0	0	0	0	0	0	0	0	0	0	0	0	0	0	0	0	0	0	0	0	0	0
043018	16:57:47	5.0.10.0	22	CS_B	Lpleas_acq	Oppo	Lpleas	2pleas	acq_unple_short	acq45_short	4	48	405	1	300	300	0	0	429	50	0	1	0	0	0	1	blank2r.bmp	0	1	+	0	3	B3r.bmp	500	1	blank2r.bmp	800	1	BMVZ	800	1	blank2r.bmp	870	3	töten	870	1	!	1239	1	!	1319	0	0	0	0	0	0	0	0	0	0	0	0	0	0	0	0	0	0	0	0	0	0	0	0	0	0	0
043018	16:57:47	5.0.10.0	22	CS_B	Lpleas_acq	Oppo	Lpleas	2pleas	acq_unple_short	acq45_short	5	1	405	0	300	300	0	0	480	50	0	1	0	0	0	1	blank2r.bmp	0	1	+	0	5	C1r.bmp	500	1	blank2r.bmp	800	1	BMVZ	800	1	blank2r.bmp	870	6	leiden	870	1	!	1239	1	!	-1	0	0	0	0	0	0	0	0	0	0	0	0	0	0	0	0	0	0	0	0	0	0	0	0	0	0	0
043018	16:57:47	5.0.10.0	22	CS_B	Lpleas_acq	Oppo	Lpleas	2pleas	acq_unple_short	acq45_short	5	2	405	0	300	300	0	0	282	46	0	0	0	0	0	1	blank2r.bmp	0	1	+	0	7	C3r.bmp	500	1	blank2r.bmp	800	1	BMVZ	800	1	blank2r.bmp	870	5	schlecht	870	1	!	-1	1	!	-1	0	0	0	0	0	0	0	0	0	0	0	0	0	0	0	0	0	0	0	0	0	0	0	0	0	0	0
043018	16:57:47	5.0.10.0	22	CS_B	Lpleas_acq	Oppo	Lpleas	2pleas	acq_pleas_short	acq45_short	5	3	405	1	300	300	0	0	355	50	0	0	0	0	0	1	blank2r.bmp	0	1	+	0	3	B3r.bmp	500	1	blank2r.bmp	800	1	GKQX	800	1	blank2r.bmp	870	5	friedlich	870	1	!	1239	1	!	1249	0	0	0	0	0	0	0	0	0	0	0	0	0	0	0	0	0	0	0	0	0	0	0	0	0	0	0
043018	16:57:47	5.0.10.0	22	CS_B	Lpleas_acq	Oppo	Lpleas	2pleas	acq_pleas_short	acq45_short	5	4	405	1	300	300	0	0	412	46	0	1	0	0	0	1	blank2r.bmp	0	1	+	0	8	C4r.bmp	500	1	blank2r.bmp	800	1	GKQX	800	1	blank2r.bmp	870	6	froh	870	1	!	1239	1	!	1309	0	0	0	0	0	0	0	0	0	0	0	0	0	0	0	0	0	0	0	0	0	0	0	0	0	0	0
043018	16:57:47	5.0.10.0	22	CS_B	Lpleas_acq	Oppo	Lpleas	2pleas	acq_unple_short	acq45_short	5	5	405	0	300	300	0	0	300	46	0	0	0	0	0	1	blank2r.bmp	0	1	+	0	2	B2r.bmp	500	1	blank2r.bmp	800	1	BMVZ	800	1	blank2r.bmp	870	2	neidisch	870	1	!	-1	1	!	-1	0	0	0	0	0	0	0	0	0	0	0	0	0	0	0	0	0	0	0	0	0	0	0	0	0	0	0
043018	16:57:47	5.0.10.0	22	CS_B	Lpleas_acq	Oppo	Lpleas	2pleas	acq_unple_short	acq45_short	5	6	405	0	300	300	0	0	318	50	0	1	0	0	0	1	blank2r.bmp	0	1	+	0	6	C2r.bmp	500	1	blank2r.bmp	800	1	BMVZ	800	1	blank2r.bmp	870	4	elend	870	1	!	-1	1	!	-1	0	0	0	0	0	0	0	0	0	0	0	0	0	0	0	0	0	0	0	0	0	0	0	0	0	0	0
043018	16:57:47	5.0.10.0	22	CS_B	Lpleas_acq	Oppo	Lpleas	2pleas	acq_pleas_short	acq45_short	5	7	405	0	300	300	0	0	488	46	0	1	0	0	0	1	blank2r.bmp	0	1	+	0	1	B1r.bmp	500	1	blank2r.bmp	800	1	GKQX	800	1	blank2r.bmp	870	3	freund	870	1	!	1239	1	!	-1	0	0	0	0	0	0	0	0	0	0	0	0	0	0	0	0	0	0	0	0	0	0	0	0	0	0	0
043018	16:57:47	5.0.10.0	22	CS_B	Lpleas_acq	Oppo	Lpleas	2pleas	acq_pleas_short	acq45_short	5	8	405	0	300	300	0	0	269	50	0	0	0	0	0	1	blank2r.bmp	0	1	+	0	4	B4r.bmp	500	1	blank2r.bmp	800	1	GKQX	800	1	blank2r.bmp	870	4	heiter	870	1	!	-1	1	!	-1	0	0	0	0	0	0	0	0	0	0	0	0	0	0	0	0	0	0	0	0	0	0	0	0	0	0	0
043018	16:57:47	5.0.10.0	22	CS_B	Lpleas_acq	Oppo	Lpleas	2pleas	acq_unple_short	acq45_short	5	9	405	0	300	300	0	0	518	50	0	1	0	0	0	1	blank2r.bmp	0	1	+	0	8	C4r.bmp	500	1	blank2r.bmp	800	1	BMVZ	800	1	blank2r.bmp	870	3	töten	870	1	!	1239	1	!	-1	0	0	0	0	0	0	0	0	0	0	0	0	0	0	0	0	0	0	0	0	0	0	0	0	0	0	0
043018	16:57:47	5.0.10.0	22	CS_B	Lpleas_acq	Oppo	Lpleas	2pleas	acq_unple_short	acq45_short	5	10	405	0	300	300	0	0	259	46	0	0	0	0	0	1	blank2r.bmp	0	1	+	0	1	B1r.bmp	500	1	blank2r.bmp	800	1	BMVZ	800	1	blank2r.bmp	870	1	unfair	870	1	!	-1	1	!	-1	0	0	0	0	0	0	0	0	0	0	0	0	0	0	0	0	0	0	0	0	0	0	0	0	0	0	0
043018	16:57:47	5.0.10.0	22	CS_B	Lpleas_acq	Oppo	Lpleas	2pleas	acq_pleas_short	acq45_short	5	11	405	0	300	300	0	0	319	46	0	1	0	0	0	1	blank2r.bmp	0	1	+	0	2	B2r.bmp	500	1	blank2r.bmp	800	1	GKQX	800	1	blank2r.bmp	870	2	schön	870	1	!	-1	1	!	-1	0	0	0	0	0	0	0	0	0	0	0	0	0	0	0	0	0	0	0	0	0	0	0	0	0	0	0
043018	16:57:47	5.0.10.0	22	CS_B	Lpleas_acq	Oppo	Lpleas	2pleas	acq_pleas_short	acq45_short	5	12	405	0	300	300	0	0	523	46	0	1	0	0	0	1	blank2r.bmp	0	1	+	0	6	C2r.bmp	500	1	blank2r.bmp	800	1	GKQX	800	1	blank2r.bmp	870	1	toll	870	1	!	1239	1	!	-1	0	0	0	0	0	0	0	0	0	0	0	0	0	0	0	0	0	0	0	0	0	0	0	0	0	0	0
043018	16:57:47	5.0.10.0	22	CS_B	Lpleas_acq	Oppo	Lpleas	2pleas	acq_unple_short	acq45_short	5	13	405	0	300	300	0	0	285	50	0	1	0	0	0	1	blank2r.bmp	0	1	+	0	4	B4r.bmp	500	1	blank2r.bmp	800	1	BMVZ	800	1	blank2r.bmp	870	2	neidisch	870	1	!	-1	1	!	-1	0	0	0	0	0	0	0	0	0	0	0	0	0	0	0	0	0	0	0	0	0	0	0	0	0	0	0
043018	16:57:47	5.0.10.0	22	CS_B	Lpleas_acq	Oppo	Lpleas	2pleas	acq_unple_short	acq45_short	5	14	405	1	300	300	0	0	409	50	0	1	0	0	0	1	blank2r.bmp	0	1	+	0	3	B3r.bmp	500	1	blank2r.bmp	800	1	BMVZ	800	1	blank2r.bmp	870	5	schlecht	870	1	!	1239	1	!	1309	0	0	0	0	0	0	0	0	0	0	0	0	0	0	0	0	0	0	0	0	0	0	0	0	0	0	0
043018	16:57:47	5.0.10.0	22	CS_B	Lpleas_acq	Oppo	Lpleas	2pleas	acq_pleas_short	acq45_short	5	15	405	0	300	300	0	0	278	50	0	0	0	0	0	1	blank2r.bmp	0	1	+	0	5	C1r.bmp	500	1	blank2r.bmp	800	1	GKQX	800	1	blank2r.bmp	870	2	schön	870	1	!	-1	1	!	-1	0	0	0	0	0	0	0	0	0	0	0	0	0	0	0	0	0	0	0	0	0	0	0	0	0	0	0
043018	16:57:47	5.0.10.0	22	CS_B	Lpleas_acq	Oppo	Lpleas	2pleas	acq_pleas_short	acq45_short	5	16	405	1	300	300	0	0	429	50	0	0	0	0	0	1	blank2r.bmp	0	1	+	0	7	C3r.bmp	500	1	blank2r.bmp	800	1	GKQX	800	1	blank2r.bmp	870	1	toll	870	1	!	1239	1	!	1320	0	0	0	0	0	0	0	0	0	0	0	0	0	0	0	0	0	0	0	0	0	0	0	0	0	0	0
043018	16:57:47	5.0.10.0	22	CS_B	Lpleas_acq	Oppo	Lpleas	2pleas	acq_pleas_short	acq45_short	5	17	405	0	300	300	0	0	316	46	0	1	0	0	0	1	blank2r.bmp	0	1	+	0	7	C3r.bmp	500	1	blank2r.bmp	800	1	GKQX	800	1	blank2r.bmp	870	6	froh	870	1	!	-1	1	!	-1	0	0	0	0	0	0	0	0	0	0	0	0	0	0	0	0	0	0	0	0	0	0	0	0	0	0	0
043018	16:57:47	5.0.10.0	22	CS_B	Lpleas_acq	Oppo	Lpleas	2pleas	acq_unple_short	acq45_short	5	18	405	0	300	300	0	0	504	50	0	1	0	0	0	1	blank2r.bmp	0	1	+	0	6	C2r.bmp	500	1	blank2r.bmp	800	1	BMVZ	800	1	blank2r.bmp	870	3	töten	870	1	!	1239	1	!	-1	0	0	0	0	0	0	0	0	0	0	0	0	0	0	0	0	0	0	0	0	0	0	0	0	0	0	0
043018	16:57:47	5.0.10.0	22	CS_B	Lpleas_acq	Oppo	Lpleas	2pleas	acq_pleas_short	acq45_short	5	19	405	1	300	300	0	0	414	46	0	1	0	0	0	1	blank2r.bmp	0	1	+	0	8	C4r.bmp	500	1	blank2r.bmp	800	1	GKQX	800	1	blank2r.bmp	870	4	heiter	870	1	!	1239	1	!	1309	0	0	0	0	0	0	0	0	0	0	0	0	0	0	0	0	0	0	0	0	0	0	0	0	0	0	0
043018	16:57:47	5.0.10.0	22	CS_B	Lpleas_acq	Oppo	Lpleas	2pleas	acq_unple_short	acq45_short	5	20	405	0	300	300	0	0	261	50	0	1	0	0	0	1	blank2r.bmp	0	1	+	0	5	C1r.bmp	500	1	blank2r.bmp	800	1	BMVZ	800	1	blank2r.bmp	870	1	unfair	870	1	!	-1	1	!	-1	0	0	0	0	0	0	0	0	0	0	0	0	0	0	0	0	0	0	0	0	0	0	0	0	0	0	0
043018	16:57:47	5.0.10.0	22	CS_B	Lpleas_acq	Oppo	Lpleas	2pleas	acq_pleas_short	acq45_short	5	21	405	1	300	300	0	0	350	46	0	1	0	0	0	1	blank2r.bmp	0	1	+	0	1	B1r.bmp	500	1	blank2r.bmp	800	1	GKQX	800	1	blank2r.bmp	870	3	freund	870	1	!	1239	1	!	1249	0	0	0	0	0	0	0	0	0	0	0	0	0	0	0	0	0	0	0	0	0	0	0	0	0	0	0
043018	16:57:47	5.0.10.0	22	CS_B	Lpleas_acq	Oppo	Lpleas	2pleas	acq_unple_short	acq45_short	5	22	405	0	300	300	0	0	302	46	0	0	0	0	0	1	blank2r.bmp	0	1	+	0	2	B2r.bmp	500	1	blank2r.bmp	800	1	BMVZ	800	1	blank2r.bmp	870	6	leiden	870	1	!	-1	1	!	-1	0	0	0	0	0	0	0	0	0	0	0	0	0	0	0	0	0	0	0	0	0	0	0	0	0	0	0
043018	16:57:47	5.0.10.0	22	CS_B	Lpleas_acq	Oppo	Lpleas	2pleas	acq_pleas_short	acq45_short	5	23	405	0	300	300	0	0	567	46	0	1	0	0	0	1	blank2r.bmp	0	1	+	0	4	B4r.bmp	500	1	blank2r.bmp	800	1	GKQX	800	1	blank2r.bmp	870	5	friedlich	870	1	!	1239	1	!	-1	0	0	0	0	0	0	0	0	0	0	0	0	0	0	0	0	0	0	0	0	0	0	0	0	0	0	0
043018	16:57:47	5.0.10.0	22	CS_B	Lpleas_acq	Oppo	Lpleas	2pleas	acq_unple_short	acq45_short	5	24	405	0	300	300	0	0	305	50	0	1	0	0	0	1	blank2r.bmp	0	1	+	0	3	B3r.bmp	500	1	blank2r.bmp	800	1	BMVZ	800	1	blank2r.bmp	870	4	elend	870	1	!	-1	1	!	-1	0	0	0	0	0	0	0	0	0	0	0	0	0	0	0	0	0	0	0	0	0	0	0	0	0	0	0
043018	16:57:47	5.0.10.0	22	CS_B	Lpleas_acq	Oppo	Lpleas	2pleas	acq_pleas_short	acq45_short	5	25	405	0	300	300	0	0	329	46	0	1	0	0	0	1	blank2r.bmp	0	1	+	0	6	C2r.bmp	500	1	blank2r.bmp	800	1	GKQX	800	1	blank2r.bmp	870	1	toll	870	1	!	-1	1	!	-1	0	0	0	0	0	0	0	0	0	0	0	0	0	0	0	0	0	0	0	0	0	0	0	0	0	0	0
043018	16:57:47	5.0.10.0	22	CS_B	Lpleas_acq	Oppo	Lpleas	2pleas	acq_pleas_short	acq45_short	5	26	405	1	300	300	0	0	361	46	0	1	0	0	0	1	blank2r.bmp	0	1	+	0	4	B4r.bmp	500	1	blank2r.bmp	800	1	GKQX	800	1	blank2r.bmp	870	2	schön	870	1	!	1239	1	!	1259	0	0	0	0	0	0	0	0	0	0	0	0	0	0	0	0	0	0	0	0	0	0	0	0	0	0	0
043018	16:57:47	5.0.10.0	22	CS_B	Lpleas_acq	Oppo	Lpleas	2pleas	acq_unple_short	acq45_short	5	27	405	1	300	300	0	0	437	50	0	1	0	0	0	1	blank2r.bmp	0	1	+	0	3	B3r.bmp	500	1	blank2r.bmp	800	1	BMVZ	800	1	blank2r.bmp	870	3	töten	870	1	!	1239	1	!	1329	0	0	0	0	0	0	0	0	0	0	0	0	0	0	0	0	0	0	0	0	0	0	0	0	0	0	0
043018	16:57:47	5.0.10.0	22	CS_B	Lpleas_acq	Oppo	Lpleas	2pleas	acq_unple_short	acq45_short	5	28	405	0	300	300	0	0	555	50	0	1	0	0	0	1	blank2r.bmp	0	1	+	0	7	C3r.bmp	500	1	blank2r.bmp	800	1	BMVZ	800	1	blank2r.bmp	870	2	neidisch	870	1	!	1239	1	!	-1	0	0	0	0	0	0	0	0	0	0	0	0	0	0	0	0	0	0	0	0	0	0	0	0	0	0	0
043018	16:57:47	5.0.10.0	22	CS_B	Lpleas_acq	Oppo	Lpleas	2pleas	acq_pleas_short	acq45_short	5	29	405	0	300	300	0	0	302	50	0	0	0	0	0	1	blank2r.bmp	0	1	+	0	5	C1r.bmp	500	1	blank2r.bmp	800	1	GKQX	800	1	blank2r.bmp	870	4	heiter	870	1	!	-1	1	!	-1	0	0	0	0	0	0	0	0	0	0	0	0	0	0	0	0	0	0	0	0	0	0	0	0	0	0	0
043018	16:57:47	5.0.10.0	22	CS_B	Lpleas_acq	Oppo	Lpleas	2pleas	acq_unple_short	acq45_short	5	30	405	1	300	300	0	0	443	50	0	1	0	0	0	1	blank2r.bmp	0	1	+	0	8	C4r.bmp	500	1	blank2r.bmp	800	1	BMVZ	800	1	blank2r.bmp	870	1	unfair	870	1	!	1239	1	!	1339	0	0	0	0	0	0	0	0	0	0	0	0	0	0	0	0	0	0	0	0	0	0	0	0	0	0	0
043018	16:57:47	5.0.10.0	22	CS_B	Lpleas_acq	Oppo	Lpleas	2pleas	acq_unple_short	acq45_short	5	31	405	1	300	300	0	0	390	46	0	0	0	0	0	1	blank2r.bmp	0	1	+	0	1	B1r.bmp	500	1	blank2r.bmp	800	1	BMVZ	800	1	blank2r.bmp	870	4	elend	870	1	!	1239	1	!	1289	0	0	0	0	0	0	0	0	0	0	0	0	0	0	0	0	0	0	0	0	0	0	0	0	0	0	0
043018	16:57:47	5.0.10.0	22	CS_B	Lpleas_acq	Oppo	Lpleas	2pleas	acq_pleas_short	acq45_short	5	32	405	1	300	300	0	0	422	46	0	1	0	0	0	1	blank2r.bmp	0	1	+	0	2	B2r.bmp	500	1	blank2r.bmp	800	1	GKQX	800	1	blank2r.bmp	870	3	freund	870	1	!	1239	1	!	1319	0	0	0	0	0	0	0	0	0	0	0	0	0	0	0	0	0	0	0	0	0	0	0	0	0	0	0
043018	16:57:47	5.0.10.0	22	CS_B	Lpleas_acq	Oppo	Lpleas	2pleas	acq_pleas_short	acq45_short	5	33	405	1	300	300	0	0	350	46	0	1	0	0	0	1	blank2r.bmp	0	1	+	0	1	B1r.bmp	500	1	blank2r.bmp	800	1	GKQX	800	1	blank2r.bmp	870	5	friedlich	870	1	!	1239	1	!	1249	0	0	0	0	0	0	0	0	0	0	0	0	0	0	0	0	0	0	0	0	0	0	0	0	0	0	0
043018	16:57:47	5.0.10.0	22	CS_B	Lpleas_acq	Oppo	Lpleas	2pleas	acq_pleas_short	acq45_short	5	34	405	0	300	300	0	0	300	46	0	1	0	0	0	1	blank2r.bmp	0	1	+	0	4	B4r.bmp	500	1	blank2r.bmp	800	1	GKQX	800	1	blank2r.bmp	870	6	froh	870	1	!	-1	1	!	-1	0	0	0	0	0	0	0	0	0	0	0	0	0	0	0	0	0	0	0	0	0	0	0	0	0	0	0
043018	16:57:47	5.0.10.0	22	CS_B	Lpleas_acq	Oppo	Lpleas	2pleas	acq_unple_short	acq45_short	5	35	405	0	300	300	0	0	337	50	0	1	0	0	0	1	blank2r.bmp	0	1	+	0	5	C1r.bmp	500	1	blank2r.bmp	800	1	BMVZ	800	1	blank2r.bmp	870	5	schlecht	870	1	!	-1	1	!	-1	0	0	0	0	0	0	0	0	0	0	0	0	0	0	0	0	0	0	0	0	0	0	0	0	0	0	0
043018	16:57:47	5.0.10.0	22	CS_B	Lpleas_acq	Oppo	Lpleas	2pleas	acq_unple_short	acq45_short	5	36	405	0	300	300	0	0	257	50	0	1	0	0	0	1	blank2r.bmp	0	1	+	0	2	B2r.bmp	500	1	blank2r.bmp	800	1	BMVZ	800	1	blank2r.bmp	870	6	leiden	870	1	!	-1	1	!	-1	0	0	0	0	0	0	0	0	0	0	0	0	0	0	0	0	0	0	0	0	0	0	0	0	0	0	0
043018	16:57:47	5.0.10.0	22	CS_B	Lpleas_acq	Oppo	Lpleas	2pleas	acq_pleas_short	acq45_short	5	37	405	1	300	300	0	0	406	46	0	1	0	0	0	1	blank2r.bmp	0	1	+	0	3	B3r.bmp	500	1	blank2r.bmp	800	1	GKQX	800	1	blank2r.bmp	870	5	friedlich	870	1	!	1239	1	!	1299	0	0	0	0	0	0	0	0	0	0	0	0	0	0	0	0	0	0	0	0	0	0	0	0	0	0	0
043018	16:57:47	5.0.10.0	22	CS_B	Lpleas_acq	Oppo	Lpleas	2pleas	acq_unple_short	acq45_short	5	38	405	1	300	300	0	0	462	50	0	1	0	0	0	1	blank2r.bmp	0	1	+	0	6	C2r.bmp	500	1	blank2r.bmp	800	1	BMVZ	800	1	blank2r.bmp	870	2	neidisch	870	1	!	1239	1	!	1359	0	0	0	0	0	0	0	0	0	0	0	0	0	0	0	0	0	0	0	0	0	0	0	0	0	0	0
043018	16:57:47	5.0.10.0	22	CS_B	Lpleas_acq	Oppo	Lpleas	2pleas	acq_unple_short	acq45_short	5	39	405	1	300	300	0	0	378	50	0	1	0	0	0	1	blank2r.bmp	0	1	+	0	8	C4r.bmp	500	1	blank2r.bmp	800	1	BMVZ	800	1	blank2r.bmp	870	3	töten	870	1	!	1239	1	!	1269	0	0	0	0	0	0	0	0	0	0	0	0	0	0	0	0	0	0	0	0	0	0	0	0	0	0	0
043018	16:57:47	5.0.10.0	22	CS_B	Lpleas_acq	Oppo	Lpleas	2pleas	acq_pleas_short	acq45_short	5	40	405	1	300	300	0	0	421	46	0	1	0	0	0	1	blank2r.bmp	0	1	+	0	7	C3r.bmp	500	1	blank2r.bmp	800	1	GKQX	800	1	blank2r.bmp	870	3	freund	870	1	!	1239	1	!	1319	0	0	0	0	0	0	0	0	0	0	0	0	0	0	0	0	0	0	0	0	0	0	0	0	0	0	0
043018	16:57:47	5.0.10.0	22	CS_B	Lpleas_acq	Oppo	Lpleas	2pleas	acq_unple_short	acq45_short	5	41	405	0	300	300	0	0	327	50	0	1	0	0	0	1	blank2r.bmp	0	1	+	0	3	B3r.bmp	500	1	blank2r.bmp	800	1	BMVZ	800	1	blank2r.bmp	870	1	unfair	870	1	!	-1	1	!	-1	0	0	0	0	0	0	0	0	0	0	0	0	0	0	0	0	0	0	0	0	0	0	0	0	0	0	0
043018	16:57:47	5.0.10.0	22	CS_B	Lpleas_acq	Oppo	Lpleas	2pleas	acq_unple_short	acq45_short	5	42	405	1	300	300	0	0	447	50	0	1	0	0	0	1	blank2r.bmp	0	1	+	0	4	B4r.bmp	500	1	blank2r.bmp	800	1	BMVZ	800	1	blank2r.bmp	870	6	leiden	870	1	!	1239	1	!	1339	0	0	0	0	0	0	0	0	0	0	0	0	0	0	0	0	0	0	0	0	0	0	0	0	0	0	0
043018	16:57:47	5.0.10.0	22	CS_B	Lpleas_acq	Oppo	Lpleas	2pleas	acq_pleas_short	acq45_short	5	43	405	0	300	300	0	0	536	46	0	1	0	0	0	1	blank2r.bmp	0	1	+	0	1	B1r.bmp	500	1	blank2r.bmp	800	1	GKQX	800	1	blank2r.bmp	870	4	heiter	870	1	!	1239	1	!	-1	0	0	0	0	0	0	0	0	0	0	0	0	0	0	0	0	0	0	0	0	0	0	0	0	0	0	0
043018	16:57:47	5.0.10.0	22	CS_B	Lpleas_acq	Oppo	Lpleas	2pleas	acq_pleas_short	acq45_short	5	44	405	0	300	300	0	0	608	46	0	1	0	0	0	1	blank2r.bmp	0	1	+	0	8	C4r.bmp	500	1	blank2r.bmp	800	1	GKQX	800	1	blank2r.bmp	870	2	schön	870	1	!	1239	1	!	-1	0	0	0	0	0	0	0	0	0	0	0	0	0	0	0	0	0	0	0	0	0	0	0	0	0	0	0
043018	16:57:47	5.0.10.0	22	CS_B	Lpleas_acq	Oppo	Lpleas	2pleas	acq_pleas_short	acq45_short	5	45	405	1	300	300	0	0	421	46	0	1	0	0	0	1	blank2r.bmp	0	1	+	0	5	C1r.bmp	500	1	blank2r.bmp	800	1	GKQX	800	1	blank2r.bmp	870	6	froh	870	1	!	1239	1	!	1319	0	0	0	0	0	0	0	0	0	0	0	0	0	0	0	0	0	0	0	0	0	0	0	0	0	0	0
043018	16:57:47	5.0.10.0	22	CS_B	Lpleas_acq	Oppo	Lpleas	2pleas	acq_unple_short	acq45_short	5	46	405	0	300	300	0	0	270	50	0	1	0	0	0	1	blank2r.bmp	0	1	+	0	2	B2r.bmp	500	1	blank2r.bmp	800	1	BMVZ	800	1	blank2r.bmp	870	5	schlecht	870	1	!	-1	1	!	-1	0	0	0	0	0	0	0	0	0	0	0	0	0	0	0	0	0	0	0	0	0	0	0	0	0	0	0
043018	16:57:47	5.0.10.0	22	CS_B	Lpleas_acq	Oppo	Lpleas	2pleas	acq_unple_short	acq45_short	5	47	405	1	300	300	0	0	433	50	0	1	0	0	0	1	blank2r.bmp	0	1	+	0	6	C2r.bmp	500	1	blank2r.bmp	800	1	BMVZ	800	1	blank2r.bmp	870	4	elend	870	1	!	1239	1	!	1329	0	0	0	0	0	0	0	0	0	0	0	0	0	0	0	0	0	0	0	0	0	0	0	0	0	0	0
043018	16:57:47	5.0.10.0	22	CS_B	Lpleas_acq	Oppo	Lpleas	2pleas	acq_pleas_short	acq45_short	5	48	405	1	300	300	0	0	392	46	0	1	0	0	0	1	blank2r.bmp	0	1	+	0	7	C3r.bmp	500	1	blank2r.bmp	800	1	GKQX	800	1	blank2r.bmp	870	1	toll	870	1	!	1239	1	!	1289	0	0	0	0	0	0	0	0	0	0	0	0	0	0	0	0	0	0	0	0	0	0	0	0	0	0	0
043018	16:57:47	5.0.10.0	22	CS_B	Lpleas_acq	Oppo	Rpleas	2pleas	EvalRating_firsttwo	EvalRating_firsttwo	6	1	0	0	300	300	0	0	6145	line	-132,5	0	0	0	0	1	eraser	1	1	Wie angenehm oder unangenehm finden Sie die  Buchstabenkette VNXH?	1	1	leftborder	1	1	rightborder	1	1	line	1	1	Unangenehm	1	1	Angenehm	1	0	0	0	0	0	0	0	0	0	0	0	0	0	0	0	0	0	0	0	0	0	0	0	0	0	0	0	0	0	0	0	0	0
043018	16:57:47	5.0.10.0	22	CS_B	Lpleas_acq	Oppo	Rpleas	2pleas	blank_screen	EvalRating_firsttwo	6	3	0	0	300	300	0	0	0	0	-132,5	0	0	0	0	1	eraser	0	0	0	0	0	0	0	0	0	0	0	0	0	0	0	0	0	0	0	0	0	0	0	0	0	0	0	0	0	0	0	0	0	0	0	0	0	0	0	0	0	0	0	0	0	0	0	0	0	0	0	0
043018	16:57:47	5.0.10.0	22	CS_B	Lpleas_acq	Oppo	Rpleas	2pleas	EvalRating_firsttwo	EvalRating_firsttwo	6	4	0	0	300	300	0	0	6760	line	221,25	0	0	0	0	1	eraser	0	2	Wie angenehm oder unangenehm finden Sie die  Buchstabenkette MWDQ?	0	1	leftborder	0	1	rightborder	0	1	line	0	1	Unangenehm	0	1	Angenehm	0	0	0	0	0	0	0	0	0	0	0	0	0	0	0	0	0	0	0	0	0	0	0	0	0	0	0	0	0	0	0	0	0	0
043018	16:57:47	5.0.10.0	22	CS_B	Lpleas_acq	Oppo	Rpleas	2pleas	EvalRating_lastfour	EvalRating_lastfour	7	1	0	0	300	300	0	0	3499	line	-51,2499999999999928946	0	0	0	0	1	eraser	1	3	Wie angenehm oder unangenehm finden Sie die  Buchstabenkette JGZP?	1	1	leftborder	1	1	rightborder	1	1	line	1	1	Unangenehm	1	1	Angenehm	1	0	0	0	0	0	0	0	0	0	0	0	0	0	0	0	0	0	0	0	0	0	0	0	0	0	0	0	0	0	0	0	0	0
043018	16:57:47	5.0.10.0	22	CS_B	Lpleas_acq	Oppo	Rpleas	2pleas	blank_screen	EvalRating_lastfour	7	3	0	0	300	300	0	0	0	0	-51,2499999999999928946	0	0	0	0	1	eraser	0	0	0	0	0	0	0	0	0	0	0	0	0	0	0	0	0	0	0	0	0	0	0	0	0	0	0	0	0	0	0	0	0	0	0	0	0	0	0	0	0	0	0	0	0	0	0	0	0	0	0	0
043018	16:57:47	5.0.10.0	22	CS_B	Lpleas_acq	Oppo	Rpleas	2pleas	EvalRating_lastfour	EvalRating_lastfour	7	4	0	0	300	300	0	0	5306	line	197,5	0	0	0	0	1	eraser	0	1	Wie angenehm oder unangenehm finden Sie die  Buchstabenkette BMVZ?	0	1	leftborder	0	1	rightborder	0	1	line	0	1	Unangenehm	0	1	Angenehm	0	0	0	0	0	0	0	0	0	0	0	0	0	0	0	0	0	0	0	0	0	0	0	0	0	0	0	0	0	0	0	0	0	0
043018	16:57:47	5.0.10.0	22	CS_B	Lpleas_acq	Oppo	Rpleas	2pleas	blank_screen	EvalRating_lastfour	7	6	0	0	300	300	0	0	0	0	197,5	0	0	0	0	1	eraser	0	0	0	0	0	0	0	0	0	0	0	0	0	0	0	0	0	0	0	0	0	0	0	0	0	0	0	0	0	0	0	0	0	0	0	0	0	0	0	0	0	0	0	0	0	0	0	0	0	0	0	0
043018	16:57:47	5.0.10.0	22	CS_B	Lpleas_acq	Oppo	Rpleas	2pleas	EvalRating_lastfour	EvalRating_lastfour	7	7	0	0	300	300	0	0	3068	line	467,5	0	0	0	0	1	eraser	0	4	Wie angenehm oder unangenehm finden Sie die  Buchstabenkette KFBL?	0	1	leftborder	0	1	rightborder	0	1	line	0	1	Unangenehm	0	1	Angenehm	0	0	0	0	0	0	0	0	0	0	0	0	0	0	0	0	0	0	0	0	0	0	0	0	0	0	0	0	0	0	0	0	0	0
043018	16:57:47	5.0.10.0	22	CS_B	Lpleas_acq	Oppo	Rpleas	2pleas	blank_screen	EvalRating_lastfour	7	9	0	0	300	300	0	0	0	0	467,5	0	0	0	0	1	eraser	0	0	0	0	0	0	0	0	0	0	0	0	0	0	0	0	0	0	0	0	0	0	0	0	0	0	0	0	0	0	0	0	0	0	0	0	0	0	0	0	0	0	0	0	0	0	0	0	0	0	0	0
043018	16:57:47	5.0.10.0	22	CS_B	Lpleas_acq	Oppo	Rpleas	2pleas	EvalRating_lastfour	EvalRating_lastfour	7	10	0	0	300	300	0	0	2282	line	-313,75	0	0	0	0	1	eraser	1	2	Wie angenehm oder unangenehm finden Sie die  Buchstabenkette GKQX?	1	1	leftborder	1	1	rightborder	1	1	line	1	1	Unangenehm	1	1	Angenehm	1	0	0	0	0	0	0	0	0	0	0	0	0	0	0	0	0	0	0	0	0	0	0	0	0	0	0	0	0	0	0	0	0	0
043018	16:57:47	5.0.10.0	22	CS_B	Lpleas_acq	Oppo	Rpleas	2pleas	cond_unple_short_CS1	condtest_short_1	9	1	405	0	300	300	0	0	573	46	-313,75	1	0	0	0	1	blank2r.bmp	0	1	+	0	3	B3r.bmp	500	1	blank2r.bmp	800	1	BMVZ	800	1	blank2r.bmp	870	3	töten	870	1	!	1239	1	!	-1	0	0	0	0	0	0	0	0	0	0	0	0	0	0	0	0	0	0	0	0	0	0	0	0	0	0	0
043018	16:57:47	5.0.10.0	22	CS_B	Lpleas_acq	Oppo	Rpleas	2pleas	cond_pleas_short_CS1	condtest_short_1	9	2	405	1	300	300	0	0	374	46	-313,75	0	0	0	0	1	blank2r.bmp	0	1	+	0	2	B2r.bmp	500	1	blank2r.bmp	800	1	BMVZ	800	1	blank2r.bmp	870	6	froh	870	1	!	1239	1	!	1269	0	0	0	0	0	0	0	0	0	0	0	0	0	0	0	0	0	0	0	0	0	0	0	0	0	0	0
043018	16:57:47	5.0.10.0	22	CS_B	Lpleas_acq	Oppo	Rpleas	2pleas	cond_unple_short_CS2	condtest_short_1	9	3	405	0	300	300	0	0	480	46	-313,75	1	0	0	0	1	blank2r.bmp	0	1	+	0	5	C1r.bmp	500	1	blank2r.bmp	800	1	GKQX	800	1	blank2r.bmp	870	5	schlecht	870	1	!	1239	1	!	-1	0	0	0	0	0	0	0	0	0	0	0	0	0	0	0	0	0	0	0	0	0	0	0	0	0	0	0
043018	16:57:47	5.0.10.0	22	CS_B	Lpleas_acq	Oppo	Rpleas	2pleas	cond_pleas_short_CS1	condtest_short_1	9	4	405	1	300	300	0	0	387	50	-313,75	1	0	0	0	1	blank2r.bmp	0	1	+	0	6	C2r.bmp	500	1	blank2r.bmp	800	1	BMVZ	800	1	blank2r.bmp	870	5	friedlich	870	1	!	1239	1	!	1279	0	0	0	0	0	0	0	0	0	0	0	0	0	0	0	0	0	0	0	0	0	0	0	0	0	0	0
043018	16:57:47	5.0.10.0	22	CS_B	Lpleas_acq	Oppo	Rpleas	2pleas	cond_pleas_short_CS2	condtest_short_1	9	5	405	0	300	300	0	0	293	50	-313,75	1	0	0	0	1	blank2r.bmp	0	1	+	0	4	B4r.bmp	500	1	blank2r.bmp	800	1	GKQX	800	1	blank2r.bmp	870	4	heiter	870	1	!	-1	1	!	-1	0	0	0	0	0	0	0	0	0	0	0	0	0	0	0	0	0	0	0	0	0	0	0	0	0	0	0
043018	16:57:47	5.0.10.0	22	CS_B	Lpleas_acq	Oppo	Rpleas	2pleas	cond_pleas_short_CS1	condtest_short_1	9	6	405	0	300	300	0	0	287	50	-313,75	1	0	0	0	1	blank2r.bmp	0	1	+	0	1	B1r.bmp	500	1	blank2r.bmp	800	1	BMVZ	800	1	blank2r.bmp	870	2	schön	870	1	!	-1	1	!	-1	0	0	0	0	0	0	0	0	0	0	0	0	0	0	0	0	0	0	0	0	0	0	0	0	0	0	0
043018	16:57:47	5.0.10.0	22	CS_B	Lpleas_acq	Oppo	Rpleas	2pleas	cond_unple_short_CS2	condtest_short_1	9	7	405	0	300	300	0	0	290	50	-313,75	0	0	0	0	1	blank2r.bmp	0	1	+	0	8	C4r.bmp	500	1	blank2r.bmp	800	1	GKQX	800	1	blank2r.bmp	870	6	leiden	870	1	!	-1	1	!	-1	0	0	0	0	0	0	0	0	0	0	0	0	0	0	0	0	0	0	0	0	0	0	0	0	0	0	0
043018	16:57:47	5.0.10.0	22	CS_B	Lpleas_acq	Oppo	Rpleas	2pleas	cond_pleas_short_CS2	condtest_short_1	9	8	405	0	300	300	0	0	582	50	-313,75	1	0	0	0	1	blank2r.bmp	0	1	+	0	7	C3r.bmp	500	1	blank2r.bmp	800	1	GKQX	800	1	blank2r.bmp	870	1	toll	870	1	!	1239	1	!	-1	0	0	0	0	0	0	0	0	0	0	0	0	0	0	0	0	0	0	0	0	0	0	0	0	0	0	0
043018	16:57:47	5.0.10.0	22	CS_B	Lpleas_acq	Oppo	Rpleas	2pleas	cond_pleas_short_CS2	condtest_short_1	9	9	405	0	300	300	0	0	306	46	-313,75	0	0	0	0	1	blank2r.bmp	0	1	+	0	6	C2r.bmp	500	1	blank2r.bmp	800	1	GKQX	800	1	blank2r.bmp	870	3	freund	870	1	!	-1	1	!	-1	0	0	0	0	0	0	0	0	0	0	0	0	0	0	0	0	0	0	0	0	0	0	0	0	0	0	0
043018	16:57:47	5.0.10.0	22	CS_B	Lpleas_acq	Oppo	Rpleas	2pleas	cond_unple_short_CS2	condtest_short_1	9	10	405	0	300	300	0	0	554	46	-313,75	1	0	0	0	1	blank2r.bmp	0	1	+	0	5	C1r.bmp	500	1	blank2r.bmp	800	1	GKQX	800	1	blank2r.bmp	870	2	neidisch	870	1	!	1239	1	!	-1	0	0	0	0	0	0	0	0	0	0	0	0	0	0	0	0	0	0	0	0	0	0	0	0	0	0	0
043018	16:57:47	5.0.10.0	22	CS_B	Lpleas_acq	Oppo	Rpleas	2pleas	cond_unple_short_CS1	condtest_short_1	9	11	405	0	300	300	0	0	305	46	-313,75	1	0	0	0	1	blank2r.bmp	0	1	+	0	3	B3r.bmp	500	1	blank2r.bmp	800	1	BMVZ	800	1	blank2r.bmp	870	1	unfair	870	1	!	-1	1	!	-1	0	0	0	0	0	0	0	0	0	0	0	0	0	0	0	0	0	0	0	0	0	0	0	0	0	0	0
043018	16:57:47	5.0.10.0	22	CS_B	Lpleas_acq	Oppo	Rpleas	2pleas	cond_unple_short_CS1	condtest_short_1	9	12	405	0	300	300	0	0	288	50	-313,75	0	0	0	0	1	blank2r.bmp	0	1	+	0	1	B1r.bmp	500	1	blank2r.bmp	800	1	BMVZ	800	1	blank2r.bmp	870	4	elend	870	1	!	-1	1	!	-1	0	0	0	0	0	0	0	0	0	0	0	0	0	0	0	0	0	0	0	0	0	0	0	0	0	0	0
043018	16:57:47	5.0.10.0	22	CS_B	Lpleas_acq	Oppo	Rpleas	2pleas	cond_unple_short_CS2	condtest_short_2	10	1	405	1	300	300	0	0	395	46	-313,75	1	0	0	0	1	blank2r.bmp	0	1	+	0	2	B2r.bmp	500	1	blank2r.bmp	800	1	GKQX	800	1	blank2r.bmp	870	5	schlecht	870	1	!	1239	1	!	1289	0	0	0	0	0	0	0	0	0	0	0	0	0	0	0	0	0	0	0	0	0	0	0	0	0	0	0
043018	16:57:47	5.0.10.0	22	CS_B	Lpleas_acq	Oppo	Rpleas	2pleas	cond_pleas_short_CS1	condtest_short_2	10	2	405	1	300	300	0	0	350	46	-313,75	0	0	0	0	1	blank2r.bmp	0	1	+	0	8	C4r.bmp	500	1	blank2r.bmp	800	1	BMVZ	800	1	blank2r.bmp	870	4	heiter	870	1	!	1239	1	!	1249	0	0	0	0	0	0	0	0	0	0	0	0	0	0	0	0	0	0	0	0	0	0	0	0	0	0	0
043018	16:57:47	5.0.10.0	22	CS_B	Lpleas_acq	Oppo	Rpleas	2pleas	cond_unple_short_CS1	condtest_short_2	10	3	405	1	300	300	0	0	383	46	-313,75	1	0	0	0	1	blank2r.bmp	0	1	+	0	7	C3r.bmp	500	1	blank2r.bmp	800	1	BMVZ	800	1	blank2r.bmp	870	2	neidisch	870	1	!	1239	1	!	1279	0	0	0	0	0	0	0	0	0	0	0	0	0	0	0	0	0	0	0	0	0	0	0	0	0	0	0
043018	16:57:47	5.0.10.0	22	CS_B	Lpleas_acq	Oppo	Rpleas	2pleas	cond_unple_short_CS2	condtest_short_2	10	4	405	0	300	300	0	0	283	50	-313,75	0	0	0	0	1	blank2r.bmp	0	1	+	0	4	B4r.bmp	500	1	blank2r.bmp	800	1	GKQX	800	1	blank2r.bmp	870	3	töten	870	1	!	-1	1	!	-1	0	0	0	0	0	0	0	0	0	0	0	0	0	0	0	0	0	0	0	0	0	0	0	0	0	0	0
043018	16:57:47	5.0.10.0	22	CS_B	Lpleas_acq	Oppo	Rpleas	2pleas	cond_unple_short_CS1	condtest_short_2	10	5	405	1	300	300	0	0	414	46	-313,75	1	0	0	0	1	blank2r.bmp	0	1	+	0	8	C4r.bmp	500	1	blank2r.bmp	800	1	BMVZ	800	1	blank2r.bmp	870	6	leiden	870	1	!	1239	1	!	1309	0	0	0	0	0	0	0	0	0	0	0	0	0	0	0	0	0	0	0	0	0	0	0	0	0	0	0
043018	16:57:47	5.0.10.0	22	CS_B	Lpleas_acq	Oppo	Rpleas	2pleas	cond_pleas_short_CS2	condtest_short_2	10	6	405	0	300	300	0	0	304	46	-313,75	0	0	0	0	1	blank2r.bmp	0	1	+	0	6	C2r.bmp	500	1	blank2r.bmp	800	1	GKQX	800	1	blank2r.bmp	870	3	freund	870	1	!	-1	1	!	-1	0	0	0	0	0	0	0	0	0	0	0	0	0	0	0	0	0	0	0	0	0	0	0	0	0	0	0
043018	16:57:47	5.0.10.0	22	CS_B	Lpleas_acq	Oppo	Rpleas	2pleas	cond_unple_short_CS2	condtest_short_2	10	7	405	0	300	300	0	0	508	46	-313,75	1	0	0	0	1	blank2r.bmp	0	1	+	0	7	C3r.bmp	500	1	blank2r.bmp	800	1	GKQX	800	1	blank2r.bmp	870	1	unfair	870	1	!	1239	1	!	-1	0	0	0	0	0	0	0	0	0	0	0	0	0	0	0	0	0	0	0	0	0	0	0	0	0	0	0
043018	16:57:47	5.0.10.0	22	CS_B	Lpleas_acq	Oppo	Rpleas	2pleas	cond_unple_short_CS1	condtest_short_2	10	8	405	1	300	300	0	0	385	50	-313,75	0	0	0	0	1	blank2r.bmp	0	1	+	0	3	B3r.bmp	500	1	blank2r.bmp	800	1	BMVZ	800	1	blank2r.bmp	870	4	elend	870	1	!	1239	1	!	1279	0	0	0	0	0	0	0	0	0	0	0	0	0	0	0	0	0	0	0	0	0	0	0	0	0	0	0
043018	16:57:47	5.0.10.0	22	CS_B	Lpleas_acq	Oppo	Rpleas	2pleas	cond_pleas_short_CS2	condtest_short_2	10	9	405	0	300	300	0	0	513	50	-313,75	1	0	0	0	1	blank2r.bmp	0	1	+	0	4	B4r.bmp	500	1	blank2r.bmp	800	1	GKQX	800	1	blank2r.bmp	870	2	schön	870	1	!	1239	1	!	-1	0	0	0	0	0	0	0	0	0	0	0	0	0	0	0	0	0	0	0	0	0	0	0	0	0	0	0
043018	16:57:47	5.0.10.0	22	CS_B	Lpleas_acq	Oppo	Rpleas	2pleas	cond_unple_short_CS2	condtest_short_2	10	10	405	1	300	300	0	0	429	46	-313,75	1	0	0	0	1	blank2r.bmp	0	1	+	0	2	B2r.bmp	500	1	blank2r.bmp	800	1	GKQX	800	1	blank2r.bmp	870	6	leiden	870	1	!	1239	1	!	1319	0	0	0	0	0	0	0	0	0	0	0	0	0	0	0	0	0	0	0	0	0	0	0	0	0	0	0
043018	16:57:47	5.0.10.0	22	CS_B	Lpleas_acq	Oppo	Rpleas	2pleas	cond_unple_short_CS1	condtest_short_2	10	11	405	0	300	300	0	0	295	46	-313,75	1	0	0	0	1	blank2r.bmp	0	1	+	0	1	B1r.bmp	500	1	blank2r.bmp	800	1	BMVZ	800	1	blank2r.bmp	870	5	schlecht	870	1	!	-1	1	!	-1	0	0	0	0	0	0	0	0	0	0	0	0	0	0	0	0	0	0	0	0	0	0	0	0	0	0	0
043018	16:57:47	5.0.10.0	22	CS_B	Lpleas_acq	Oppo	Rpleas	2pleas	cond_unple_short_CS1	condtest_short_2	10	12	405	0	300	300	0	0	325	46	-313,75	1	0	0	0	1	blank2r.bmp	0	1	+	0	5	C1r.bmp	500	1	blank2r.bmp	800	1	BMVZ	800	1	blank2r.bmp	870	4	elend	870	1	!	-1	1	!	-1	0	0	0	0	0	0	0	0	0	0	0	0	0	0	0	0	0	0	0	0	0	0	0	0	0	0	0
043018	16:57:47	5.0.10.0	22	CS_B	Lpleas_acq	Oppo	Rpleas	2pleas	cond_unple_short_CS1	condtest_short_2	10	13	405	0	300	300	0	0	538	46	-313,75	1	0	0	0	1	blank2r.bmp	0	1	+	0	7	C3r.bmp	500	1	blank2r.bmp	800	1	BMVZ	800	1	blank2r.bmp	870	1	unfair	870	1	!	1239	1	!	-1	0	0	0	0	0	0	0	0	0	0	0	0	0	0	0	0	0	0	0	0	0	0	0	0	0	0	0
043018	16:57:47	5.0.10.0	22	CS_B	Lpleas_acq	Oppo	Rpleas	2pleas	cond_unple_short_CS1	condtest_short_2	10	14	405	0	300	300	0	0	317	46	-313,75	1	0	0	0	1	blank2r.bmp	0	1	+	0	2	B2r.bmp	500	1	blank2r.bmp	800	1	BMVZ	800	1	blank2r.bmp	870	2	neidisch	870	1	!	-1	1	!	-1	0	0	0	0	0	0	0	0	0	0	0	0	0	0	0	0	0	0	0	0	0	0	0	0	0	0	0
043018	16:57:47	5.0.10.0	22	CS_B	Lpleas_acq	Oppo	Rpleas	2pleas	cond_unple_short_CS2	condtest_short_2	10	15	405	1	300	300	0	0	405	46	-313,75	1	0	0	0	1	blank2r.bmp	0	1	+	0	8	C4r.bmp	500	1	blank2r.bmp	800	1	GKQX	800	1	blank2r.bmp	870	3	töten	870	1	!	1239	1	!	1299	0	0	0	0	0	0	0	0	0	0	0	0	0	0	0	0	0	0	0	0	0	0	0	0	0	0	0
043018	16:57:47	5.0.10.0	22	CS_B	Lpleas_acq	Oppo	Rpleas	2pleas	cond_unple_short_CS2	condtest_short_2	10	16	405	0	300	300	0	0	310	46	-313,75	1	0	0	0	1	blank2r.bmp	0	1	+	0	5	C1r.bmp	500	1	blank2r.bmp	800	1	GKQX	800	1	blank2r.bmp	870	3	töten	870	1	!	-1	1	!	-1	0	0	0	0	0	0	0	0	0	0	0	0	0	0	0	0	0	0	0	0	0	0	0	0	0	0	0
043018	16:57:47	5.0.10.0	22	CS_B	Lpleas_acq	Oppo	Rpleas	2pleas	cond_pleas_short_CS1	condtest_short_2	10	17	405	1	300	300	0	0	449	50	-313,75	1	0	0	0	1	blank2r.bmp	0	1	+	0	3	B3r.bmp	500	1	blank2r.bmp	800	1	BMVZ	800	1	blank2r.bmp	870	6	froh	870	1	!	1239	1	!	1349	0	0	0	0	0	0	0	0	0	0	0	0	0	0	0	0	0	0	0	0	0	0	0	0	0	0	0
043018	16:57:47	5.0.10.0	22	CS_B	Lpleas_acq	Oppo	Rpleas	2pleas	cond_pleas_short_CS2	condtest_short_2	10	18	405	1	300	300	0	0	415	50	-313,75	1	0	0	0	1	blank2r.bmp	0	1	+	0	4	B4r.bmp	500	1	blank2r.bmp	800	1	GKQX	800	1	blank2r.bmp	870	1	toll	870	1	!	1239	1	!	1309	0	0	0	0	0	0	0	0	0	0	0	0	0	0	0	0	0	0	0	0	0	0	0	0	0	0	0
043018	16:57:47	5.0.10.0	22	CS_B	Lpleas_acq	Oppo	Rpleas	2pleas	cond_pleas_short_CS1	condtest_short_2	10	19	405	1	300	300	0	0	428	50	-313,75	1	0	0	0	1	blank2r.bmp	0	1	+	0	1	B1r.bmp	500	1	blank2r.bmp	800	1	BMVZ	800	1	blank2r.bmp	870	5	friedlich	870	1	!	1239	1	!	1319	0	0	0	0	0	0	0	0	0	0	0	0	0	0	0	0	0	0	0	0	0	0	0	0	0	0	0
043018	16:57:47	5.0.10.0	22	CS_B	Lpleas_acq	Oppo	Rpleas	2pleas	cond_pleas_short_CS1	condtest_short_2	10	20	405	0	300	300	0	0	509	50	-313,75	1	0	0	0	1	blank2r.bmp	0	1	+	0	6	C2r.bmp	500	1	blank2r.bmp	800	1	BMVZ	800	1	blank2r.bmp	870	1	toll	870	1	!	1239	1	!	-1	0	0	0	0	0	0	0	0	0	0	0	0	0	0	0	0	0	0	0	0	0	0	0	0	0	0	0
043018	16:57:47	5.0.10.0	22	CS_B	Lpleas_acq	Oppo	Rpleas	2pleas	cond_unple_short_CS1	condtest_short_2	10	21	405	1	300	300	0	0	404	46	-313,75	1	0	0	0	1	blank2r.bmp	0	1	+	0	8	C4r.bmp	500	1	blank2r.bmp	800	1	BMVZ	800	1	blank2r.bmp	870	6	leiden	870	1	!	1239	1	!	1299	0	0	0	0	0	0	0	0	0	0	0	0	0	0	0	0	0	0	0	0	0	0	0	0	0	0	0
043018	16:57:47	5.0.10.0	22	CS_B	Lpleas_acq	Oppo	Rpleas	2pleas	cond_pleas_short_CS2	condtest_short_2	10	22	405	1	300	300	0	0	369	50	-313,75	1	0	0	0	1	blank2r.bmp	0	1	+	0	2	B2r.bmp	500	1	blank2r.bmp	800	1	GKQX	800	1	blank2r.bmp	870	6	froh	870	1	!	1239	1	!	1259	0	0	0	0	0	0	0	0	0	0	0	0	0	0	0	0	0	0	0	0	0	0	0	0	0	0	0
043018	16:57:47	5.0.10.0	22	CS_B	Lpleas_acq	Oppo	Rpleas	2pleas	cond_pleas_short_CS1	condtest_short_2	10	23	405	0	300	300	0	0	332	50	-313,75	1	0	0	0	1	blank2r.bmp	0	1	+	0	1	B1r.bmp	500	1	blank2r.bmp	800	1	BMVZ	800	1	blank2r.bmp	870	2	schön	870	1	!	-1	1	!	-1	0	0	0	0	0	0	0	0	0	0	0	0	0	0	0	0	0	0	0	0	0	0	0	0	0	0	0
043018	16:57:47	5.0.10.0	22	CS_B	Lpleas_acq	Oppo	Rpleas	2pleas	cond_pleas_short_CS1	condtest_short_2	10	24	405	1	300	300	0	0	375	46	-313,75	0	0	0	0	1	blank2r.bmp	0	1	+	0	3	B3r.bmp	500	1	blank2r.bmp	800	1	BMVZ	800	1	blank2r.bmp	870	4	heiter	870	1	!	1239	1	!	1269	0	0	0	0	0	0	0	0	0	0	0	0	0	0	0	0	0	0	0	0	0	0	0	0	0	0	0
043018	16:57:47	5.0.10.0	22	CS_B	Lpleas_acq	Oppo	Rpleas	2pleas	cond_pleas_short_CS2	condtest_short_2	10	25	405	0	300	300	0	0	291	50	-313,75	1	0	0	0	1	blank2r.bmp	0	1	+	0	6	C2r.bmp	500	1	blank2r.bmp	800	1	GKQX	800	1	blank2r.bmp	870	3	freund	870	1	!	-1	1	!	-1	0	0	0	0	0	0	0	0	0	0	0	0	0	0	0	0	0	0	0	0	0	0	0	0	0	0	0
043018	16:57:47	5.0.10.0	22	CS_B	Lpleas_acq	Oppo	Rpleas	2pleas	cond_pleas_short_CS2	condtest_short_2	10	26	405	1	300	300	0	0	414	50	-313,75	1	0	0	0	1	blank2r.bmp	0	1	+	0	7	C3r.bmp	500	1	blank2r.bmp	800	1	GKQX	800	1	blank2r.bmp	870	5	friedlich	870	1	!	1239	1	!	1309	0	0	0	0	0	0	0	0	0	0	0	0	0	0	0	0	0	0	0	0	0	0	0	0	0	0	0
043018	16:57:47	5.0.10.0	22	CS_B	Lpleas_acq	Oppo	Rpleas	2pleas	cond_pleas_short_CS1	condtest_short_2	10	27	405	0	300	300	0	0	310	50	-313,75	1	0	0	0	1	blank2r.bmp	0	1	+	0	5	C1r.bmp	500	1	blank2r.bmp	800	1	BMVZ	800	1	blank2r.bmp	870	6	froh	870	1	!	-1	1	!	-1	0	0	0	0	0	0	0	0	0	0	0	0	0	0	0	0	0	0	0	0	0	0	0	0	0	0	0
043018	16:57:47	5.0.10.0	22	CS_B	Lpleas_acq	Oppo	Rpleas	2pleas	cond_pleas_short_CS2	condtest_short_2	10	28	405	1	300	300	0	0	380	50	-313,75	1	0	0	0	1	blank2r.bmp	0	1	+	0	4	B4r.bmp	500	1	blank2r.bmp	800	1	GKQX	800	1	blank2r.bmp	870	4	heiter	870	1	!	1239	1	!	1279	0	0	0	0	0	0	0	0	0	0	0	0	0	0	0	0	0	0	0	0	0	0	0	0	0	0	0
043018	16:57:47	5.0.10.0	22	CS_B	Lpleas_acq	Oppo	Rpleas	2pleas	cond_pleas_short_CS1	condtest_short_2	10	29	405	0	300	300	0	0	326	50	-313,75	1	0	0	0	1	blank2r.bmp	0	1	+	0	7	C3r.bmp	500	1	blank2r.bmp	800	1	BMVZ	800	1	blank2r.bmp	870	1	toll	870	1	!	-1	1	!	-1	0	0	0	0	0	0	0	0	0	0	0	0	0	0	0	0	0	0	0	0	0	0	0	0	0	0	0
043018	16:57:47	5.0.10.0	22	CS_B	Lpleas_acq	Oppo	Rpleas	2pleas	cond_unple_short_CS2	condtest_short_2	10	30	405	0	300	300	0	0	335	50	-313,75	0	0	0	0	1	blank2r.bmp	0	1	+	0	3	B3r.bmp	500	1	blank2r.bmp	800	1	GKQX	800	1	blank2r.bmp	870	2	neidisch	870	1	!	-1	1	!	-1	0	0	0	0	0	0	0	0	0	0	0	0	0	0	0	0	0	0	0	0	0	0	0	0	0	0	0
043018	16:57:47	5.0.10.0	22	CS_B	Lpleas_acq	Oppo	Rpleas	2pleas	cond_pleas_short_CS2	condtest_short_2	10	31	405	0	300	300	0	0	318	50	-313,75	1	0	0	0	1	blank2r.bmp	0	1	+	0	1	B1r.bmp	500	1	blank2r.bmp	800	1	GKQX	800	1	blank2r.bmp	870	3	freund	870	1	!	-1	1	!	-1	0	0	0	0	0	0	0	0	0	0	0	0	0	0	0	0	0	0	0	0	0	0	0	0	0	0	0
043018	16:57:47	5.0.10.0	22	CS_B	Lpleas_acq	Oppo	Rpleas	2pleas	cond_pleas_short_CS1	condtest_short_2	10	32	405	1	300	300	0	0	405	50	-313,75	1	0	0	0	1	blank2r.bmp	0	1	+	0	8	C4r.bmp	500	1	blank2r.bmp	800	1	BMVZ	800	1	blank2r.bmp	870	2	schön	870	1	!	1239	1	!	1300	0	0	0	0	0	0	0	0	0	0	0	0	0	0	0	0	0	0	0	0	0	0	0	0	0	0	0
043018	16:57:47	5.0.10.0	22	CS_B	Lpleas_acq	Oppo	Rpleas	2pleas	cond_unple_short_CS2	condtest_short_2	10	33	405	1	300	300	0	0	448	46	-313,75	1	0	0	0	1	blank2r.bmp	0	1	+	0	2	B2r.bmp	500	1	blank2r.bmp	800	1	GKQX	800	1	blank2r.bmp	870	1	unfair	870	1	!	1239	1	!	1339	0	0	0	0	0	0	0	0	0	0	0	0	0	0	0	0	0	0	0	0	0	0	0	0	0	0	0
043018	16:57:47	5.0.10.0	22	CS_B	Lpleas_acq	Oppo	Rpleas	2pleas	cond_unple_short_CS2	condtest_short_2	10	34	405	0	300	300	0	0	551	46	-313,75	1	0	0	0	1	blank2r.bmp	0	1	+	0	4	B4r.bmp	500	1	blank2r.bmp	800	1	GKQX	800	1	blank2r.bmp	870	5	schlecht	870	1	!	1239	1	!	-1	0	0	0	0	0	0	0	0	0	0	0	0	0	0	0	0	0	0	0	0	0	0	0	0	0	0	0
043018	16:57:47	5.0.10.0	22	CS_B	Lpleas_acq	Oppo	Rpleas	2pleas	cond_unple_short_CS1	condtest_short_2	10	35	405	0	300	300	0	0	514	46	-313,75	1	0	0	0	1	blank2r.bmp	0	1	+	0	6	C2r.bmp	500	1	blank2r.bmp	800	1	BMVZ	800	1	blank2r.bmp	870	4	elend	870	1	!	1239	1	!	-1	0	0	0	0	0	0	0	0	0	0	0	0	0	0	0	0	0	0	0	0	0	0	0	0	0	0	0
043018	16:57:47	5.0.10.0	22	CS_B	Lpleas_acq	Oppo	Rpleas	2pleas	cond_pleas_short_CS2	condtest_short_2	10	36	405	1	300	300	0	0	415	50	-313,75	1	0	0	0	1	blank2r.bmp	0	1	+	0	5	C1r.bmp	500	1	blank2r.bmp	800	1	GKQX	800	1	blank2r.bmp	870	5	friedlich	870	1	!	1239	1	!	1309	0	0	0	0	0	0	0	0	0	0	0	0	0	0	0	0	0	0	0	0	0	0	0	0	0	0	0
043018	16:57:47	5.0.10.0	22	CS_B	Lpleas_acq	Oppo	Rpleas	2pleas	cond_pleas_short_CS1	condtest_short_3	11	1	405	0	300	300	0	0	592	50	-313,75	1	0	0	0	1	blank2r.bmp	0	1	+	0	5	C1r.bmp	500	1	blank2r.bmp	800	1	BMVZ	800	1	blank2r.bmp	870	5	friedlich	870	1	!	1239	1	!	-1	0	0	0	0	0	0	0	0	0	0	0	0	0	0	0	0	0	0	0	0	0	0	0	0	0	0	0
043018	16:57:47	5.0.10.0	22	CS_B	Lpleas_acq	Oppo	Rpleas	2pleas	cond_pleas_short_CS1	condtest_short_3	11	2	405	1	300	300	0	0	360	50	-313,75	1	0	0	0	1	blank2r.bmp	0	1	+	0	4	B4r.bmp	500	1	blank2r.bmp	800	1	BMVZ	800	1	blank2r.bmp	870	2	schön	870	1	!	1239	1	!	1259	0	0	0	0	0	0	0	0	0	0	0	0	0	0	0	0	0	0	0	0	0	0	0	0	0	0	0
043018	16:57:47	5.0.10.0	22	CS_B	Lpleas_acq	Oppo	Rpleas	2pleas	cond_pleas_short_CS2	condtest_short_3	11	3	405	1	300	300	0	0	395	50	-313,75	1	0	0	0	1	blank2r.bmp	0	1	+	0	7	C3r.bmp	500	1	blank2r.bmp	800	1	GKQX	800	1	blank2r.bmp	870	6	froh	870	1	!	1239	1	!	1289	0	0	0	0	0	0	0	0	0	0	0	0	0	0	0	0	0	0	0	0	0	0	0	0	0	0	0
043018	16:57:47	5.0.10.0	22	CS_B	Lpleas_acq	Oppo	Rpleas	2pleas	cond_unple_short_CS2	condtest_short_3	11	4	405	0	300	300	0	0	304	46	-313,75	1	0	0	0	1	blank2r.bmp	0	1	+	0	8	C4r.bmp	500	1	blank2r.bmp	800	1	GKQX	800	1	blank2r.bmp	870	2	neidisch	870	1	!	-1	1	!	-1	0	0	0	0	0	0	0	0	0	0	0	0	0	0	0	0	0	0	0	0	0	0	0	0	0	0	0
043018	16:57:47	5.0.10.0	22	CS_B	Lpleas_acq	Oppo	Rpleas	2pleas	cond_unple_short_CS2	condtest_short_3	11	5	405	0	300	300	0	0	327	50	-313,75	0	0	0	0	1	blank2r.bmp	0	1	+	0	3	B3r.bmp	500	1	blank2r.bmp	800	1	GKQX	800	1	blank2r.bmp	870	3	töten	870	1	!	-1	1	!	-1	0	0	0	0	0	0	0	0	0	0	0	0	0	0	0	0	0	0	0	0	0	0	0	0	0	0	0
043018	16:57:47	5.0.10.0	22	CS_B	Lpleas_acq	Oppo	Rpleas	2pleas	cond_unple_short_CS1	condtest_short_3	11	6	405	1	300	300	0	0	400	50	-313,75	0	0	0	0	1	blank2r.bmp	0	1	+	0	6	C2r.bmp	500	1	blank2r.bmp	800	1	BMVZ	800	1	blank2r.bmp	870	1	unfair	870	1	!	1239	1	!	1299	0	0	0	0	0	0	0	0	0	0	0	0	0	0	0	0	0	0	0	0	0	0	0	0	0	0	0
043018	16:57:47	5.0.10.0	22	CS_B	Lpleas_acq	Oppo	Rpleas	2pleas	cond_unple_short_CS1	condtest_short_3	11	7	405	1	300	300	0	0	392	46	-313,75	1	0	0	0	1	blank2r.bmp	0	1	+	0	1	B1r.bmp	500	1	blank2r.bmp	800	1	BMVZ	800	1	blank2r.bmp	870	5	schlecht	870	1	!	1239	1	!	1289	0	0	0	0	0	0	0	0	0	0	0	0	0	0	0	0	0	0	0	0	0	0	0	0	0	0	0
043018	16:57:47	5.0.10.0	22	CS_B	Lpleas_acq	Oppo	Rpleas	2pleas	cond_unple_short_CS1	condtest_short_3	11	8	405	1	300	300	0	0	412	46	-313,75	1	0	0	0	1	blank2r.bmp	0	1	+	0	2	B2r.bmp	500	1	blank2r.bmp	800	1	BMVZ	800	1	blank2r.bmp	870	4	elend	870	1	!	1239	1	!	1309	0	0	0	0	0	0	0	0	0	0	0	0	0	0	0	0	0	0	0	0	0	0	0	0	0	0	0
043018	16:57:47	5.0.10.0	22	CS_B	Lpleas_acq	Oppo	Rpleas	2pleas	cond_unple_short_CS2	condtest_short_3	11	9	405	1	300	300	0	0	441	46	-313,75	1	0	0	0	1	blank2r.bmp	0	1	+	0	6	C2r.bmp	500	1	blank2r.bmp	800	1	GKQX	800	1	blank2r.bmp	870	6	leiden	870	1	!	1239	1	!	1339	0	0	0	0	0	0	0	0	0	0	0	0	0	0	0	0	0	0	0	0	0	0	0	0	0	0	0
043018	16:57:47	5.0.10.0	22	CS_B	Lpleas_acq	Oppo	Rpleas	2pleas	cond_pleas_short_CS2	condtest_short_3	11	10	405	1	300	300	0	0	435	46	-313,75	0	0	0	0	1	blank2r.bmp	0	1	+	0	7	C3r.bmp	500	1	blank2r.bmp	800	1	GKQX	800	1	blank2r.bmp	870	4	heiter	870	1	!	1239	1	!	1329	0	0	0	0	0	0	0	0	0	0	0	0	0	0	0	0	0	0	0	0	0	0	0	0	0	0	0
043018	16:57:47	5.0.10.0	22	CS_B	Lpleas_acq	Oppo	Rpleas	2pleas	cond_unple_short_CS1	condtest_short_3	11	11	405	1	300	300	0	0	372	46	-313,75	1	0	0	0	1	blank2r.bmp	0	1	+	0	4	B4r.bmp	500	1	blank2r.bmp	800	1	BMVZ	800	1	blank2r.bmp	870	5	schlecht	870	1	!	1239	1	!	1269	0	0	0	0	0	0	0	0	0	0	0	0	0	0	0	0	0	0	0	0	0	0	0	0	0	0	0
043018	16:57:47	5.0.10.0	22	CS_B	Lpleas_acq	Oppo	Rpleas	2pleas	cond_unple_short_CS2	condtest_short_3	11	12	405	0	300	300	0	0	274	50	-313,75	0	0	0	0	1	blank2r.bmp	0	1	+	0	2	B2r.bmp	500	1	blank2r.bmp	800	1	GKQX	800	1	blank2r.bmp	870	2	neidisch	870	1	!	-1	1	!	-1	0	0	0	0	0	0	0	0	0	0	0	0	0	0	0	0	0	0	0	0	0	0	0	0	0	0	0
043018	16:57:47	5.0.10.0	22	CS_B	Lpleas_acq	Oppo	Rpleas	2pleas	cond_pleas_short_CS2	condtest_short_3	11	13	405	1	300	300	0	0	369	50	-313,75	1	0	0	0	1	blank2r.bmp	0	1	+	0	5	C1r.bmp	500	1	blank2r.bmp	800	1	GKQX	800	1	blank2r.bmp	870	1	toll	870	1	!	1239	1	!	1259	0	0	0	0	0	0	0	0	0	0	0	0	0	0	0	0	0	0	0	0	0	0	0	0	0	0	0
043018	16:57:47	5.0.10.0	22	CS_B	Lpleas_acq	Oppo	Rpleas	2pleas	cond_unple_short_CS1	condtest_short_3	11	14	405	0	300	300	0	0	327	46	-313,75	1	0	0	0	1	blank2r.bmp	0	1	+	0	8	C4r.bmp	500	1	blank2r.bmp	800	1	BMVZ	800	1	blank2r.bmp	870	3	töten	870	1	!	-1	1	!	-1	0	0	0	0	0	0	0	0	0	0	0	0	0	0	0	0	0	0	0	0	0	0	0	0	0	0	0
043018	16:57:47	5.0.10.0	22	CS_B	Lpleas_acq	Oppo	Rpleas	2pleas	cond_unple_short_CS2	condtest_short_3	11	15	405	0	300	300	0	0	257	46	-313,75	1	0	0	0	1	blank2r.bmp	0	1	+	0	3	B3r.bmp	500	1	blank2r.bmp	800	1	GKQX	800	1	blank2r.bmp	870	6	leiden	870	1	!	-1	1	!	-1	0	0	0	0	0	0	0	0	0	0	0	0	0	0	0	0	0	0	0	0	0	0	0	0	0	0	0
043018	16:57:47	5.0.10.0	22	CS_B	Lpleas_acq	Oppo	Rpleas	2pleas	cond_pleas_short_CS2	condtest_short_3	11	16	405	1	300	300	0	0	457	50	-313,75	1	0	0	0	1	blank2r.bmp	0	1	+	0	1	B1r.bmp	500	1	blank2r.bmp	800	1	GKQX	800	1	blank2r.bmp	870	3	freund	870	1	!	1239	1	!	1349	0	0	0	0	0	0	0	0	0	0	0	0	0	0	0	0	0	0	0	0	0	0	0	0	0	0	0
043018	16:57:47	5.0.10.0	22	CS_B	Lpleas_acq	Oppo	Rpleas	2pleas	cond_pleas_short_CS1	condtest_short_3	11	17	405	0	300	300	0	0	269	46	-313,75	0	0	0	0	1	blank2r.bmp	0	1	+	0	5	C1r.bmp	500	1	blank2r.bmp	800	1	BMVZ	800	1	blank2r.bmp	870	5	friedlich	870	1	!	-1	1	!	-1	0	0	0	0	0	0	0	0	0	0	0	0	0	0	0	0	0	0	0	0	0	0	0	0	0	0	0
043018	16:57:47	5.0.10.0	22	CS_B	Lpleas_acq	Oppo	Rpleas	2pleas	cond_unple_short_CS2	condtest_short_3	11	18	405	1	300	300	0	0	416	46	-313,75	1	0	0	0	1	blank2r.bmp	0	1	+	0	4	B4r.bmp	500	1	blank2r.bmp	800	1	GKQX	800	1	blank2r.bmp	870	4	elend	870	1	!	1239	1	!	1309	0	0	0	0	0	0	0	0	0	0	0	0	0	0	0	0	0	0	0	0	0	0	0	0	0	0	0
043018	16:57:47	5.0.10.0	22	CS_B	Lpleas_acq	Oppo	Rpleas	2pleas	cond_unple_short_CS1	condtest_short_3	11	19	405	1	300	300	0	0	420	46	-313,75	1	0	0	0	1	blank2r.bmp	0	1	+	0	2	B2r.bmp	500	1	blank2r.bmp	800	1	BMVZ	800	1	blank2r.bmp	870	1	unfair	870	1	!	1239	1	!	1319	0	0	0	0	0	0	0	0	0	0	0	0	0	0	0	0	0	0	0	0	0	0	0	0	0	0	0
043018	16:57:47	5.0.10.0	22	CS_B	Lpleas_acq	Oppo	Rpleas	2pleas	cond_pleas_short_CS1	condtest_short_3	11	20	405	0	300	300	0	0	249	46	-313,75	0	0	0	0	1	blank2r.bmp	0	1	+	0	6	C2r.bmp	500	1	blank2r.bmp	800	1	BMVZ	800	1	blank2r.bmp	870	4	heiter	870	1	!	-1	1	!	-1	0	0	0	0	0	0	0	0	0	0	0	0	0	0	0	0	0	0	0	0	0	0	0	0	0	0	0
043018	16:57:47	5.0.10.0	22	CS_B	Lpleas_acq	Oppo	Rpleas	2pleas	cond_unple_short_CS1	condtest_short_3	11	21	405	1	300	300	0	0	457	46	-313,75	1	0	0	0	1	blank2r.bmp	0	1	+	0	8	C4r.bmp	500	1	blank2r.bmp	800	1	BMVZ	800	1	blank2r.bmp	870	1	unfair	870	1	!	1239	1	!	1349	0	0	0	0	0	0	0	0	0	0	0	0	0	0	0	0	0	0	0	0	0	0	0	0	0	0	0
043018	16:57:47	5.0.10.0	22	CS_B	Lpleas_acq	Oppo	Rpleas	2pleas	cond_pleas_short_CS2	condtest_short_3	11	22	405	1	300	300	0	0	359	50	-313,75	1	0	0	0	1	blank2r.bmp	0	1	+	0	1	B1r.bmp	500	1	blank2r.bmp	800	1	GKQX	800	1	blank2r.bmp	870	1	toll	870	1	!	1239	1	!	1249	0	0	0	0	0	0	0	0	0	0	0	0	0	0	0	0	0	0	0	0	0	0	0	0	0	0	0
043018	16:57:47	5.0.10.0	22	CS_B	Lpleas_acq	Oppo	Rpleas	2pleas	cond_unple_short_CS1	condtest_short_3	11	23	405	1	300	300	0	0	405	46	-313,75	1	0	0	0	1	blank2r.bmp	0	1	+	0	3	B3r.bmp	500	1	blank2r.bmp	800	1	BMVZ	800	1	blank2r.bmp	870	4	elend	870	1	!	1239	1	!	1299	0	0	0	0	0	0	0	0	0	0	0	0	0	0	0	0	0	0	0	0	0	0	0	0	0	0	0
043018	16:57:47	5.0.10.0	22	CS_B	Lpleas_acq	Oppo	Rpleas	2pleas	cond_pleas_short_CS2	condtest_short_3	11	24	405	0	300	300	0	0	535	50	-313,75	1	0	0	0	1	blank2r.bmp	0	1	+	0	7	C3r.bmp	500	1	blank2r.bmp	800	1	GKQX	800	1	blank2r.bmp	870	6	froh	870	1	!	1239	1	!	-1	0	0	0	0	0	0	0	0	0	0	0	0	0	0	0	0	0	0	0	0	0	0	0	0	0	0	0
043018	16:57:47	5.0.10.0	22	CS_B	Lpleas_acq	Oppo	Rpleas	2pleas	cond_pleas_short_CS2	condtest_short_3	11	25	405	0	300	300	0	0	299	50	-313,75	1	0	0	0	1	blank2r.bmp	0	1	+	0	4	B4r.bmp	500	1	blank2r.bmp	800	1	GKQX	800	1	blank2r.bmp	870	3	freund	870	1	!	-1	1	!	-1	0	0	0	0	0	0	0	0	0	0	0	0	0	0	0	0	0	0	0	0	0	0	0	0	0	0	0
043018	16:57:47	5.0.10.0	22	CS_B	Lpleas_acq	Oppo	Rpleas	2pleas	cond_pleas_short_CS1	condtest_short_3	11	26	405	0	300	300	0	0	503	50	-313,75	1	0	0	0	1	blank2r.bmp	0	1	+	0	2	B2r.bmp	500	1	blank2r.bmp	800	1	BMVZ	800	1	blank2r.bmp	870	2	schön	870	1	!	1239	1	!	-1	0	0	0	0	0	0	0	0	0	0	0	0	0	0	0	0	0	0	0	0	0	0	0	0	0	0	0
043018	16:57:47	5.0.10.0	22	CS_B	Lpleas_acq	Oppo	Rpleas	2pleas	cond_unple_short_CS2	condtest_short_3	11	27	405	1	300	300	0	0	387	46	-313,75	1	0	0	0	1	blank2r.bmp	0	1	+	0	3	B3r.bmp	500	1	blank2r.bmp	800	1	GKQX	800	1	blank2r.bmp	870	2	neidisch	870	1	!	1239	1	!	1279	0	0	0	0	0	0	0	0	0	0	0	0	0	0	0	0	0	0	0	0	0	0	0	0	0	0	0
043018	16:57:47	5.0.10.0	22	CS_B	Lpleas_acq	Oppo	Rpleas	2pleas	cond_unple_short_CS2	condtest_short_3	11	28	405	0	300	300	0	0	549	46	-313,75	1	0	0	0	1	blank2r.bmp	0	1	+	0	1	B1r.bmp	500	1	blank2r.bmp	800	1	GKQX	800	1	blank2r.bmp	870	5	schlecht	870	1	!	1239	1	!	-1	0	0	0	0	0	0	0	0	0	0	0	0	0	0	0	0	0	0	0	0	0	0	0	0	0	0	0
043018	16:57:47	5.0.10.0	22	CS_B	Lpleas_acq	Oppo	Rpleas	2pleas	cond_unple_short_CS1	condtest_short_3	11	29	405	1	300	300	0	0	458	46	-313,75	1	0	0	0	1	blank2r.bmp	0	1	+	0	6	C2r.bmp	500	1	blank2r.bmp	800	1	BMVZ	800	1	blank2r.bmp	870	3	töten	870	1	!	1239	1	!	1349	0	0	0	0	0	0	0	0	0	0	0	0	0	0	0	0	0	0	0	0	0	0	0	0	0	0	0
043018	16:57:47	5.0.10.0	22	CS_B	Lpleas_acq	Oppo	Rpleas	2pleas	cond_unple_short_CS1	condtest_short_3	11	30	405	1	300	300	0	0	421	50	-313,75	0	0	0	0	1	blank2r.bmp	0	1	+	0	5	C1r.bmp	500	1	blank2r.bmp	800	1	BMVZ	800	1	blank2r.bmp	870	6	leiden	870	1	!	1239	1	!	1319	0	0	0	0	0	0	0	0	0	0	0	0	0	0	0	0	0	0	0	0	0	0	0	0	0	0	0
043018	16:57:47	5.0.10.0	22	CS_B	Lpleas_acq	Oppo	Rpleas	2pleas	cond_pleas_short_CS1	condtest_short_3	11	31	405	1	300	300	0	0	363	50	-313,75	1	0	0	0	1	blank2r.bmp	0	1	+	0	8	C4r.bmp	500	1	blank2r.bmp	800	1	BMVZ	800	1	blank2r.bmp	870	6	froh	870	1	!	1239	1	!	1259	0	0	0	0	0	0	0	0	0	0	0	0	0	0	0	0	0	0	0	0	0	0	0	0	0	0	0
043018	16:57:47	5.0.10.0	22	CS_B	Lpleas_acq	Oppo	Rpleas	2pleas	cond_unple_short_CS2	condtest_short_3	11	32	405	0	300	300	0	0	298	46	-313,75	1	0	0	0	1	blank2r.bmp	0	1	+	0	7	C3r.bmp	500	1	blank2r.bmp	800	1	GKQX	800	1	blank2r.bmp	870	1	unfair	870	1	!	-1	1	!	-1	0	0	0	0	0	0	0	0	0	0	0	0	0	0	0	0	0	0	0	0	0	0	0	0	0	0	0
043018	16:57:47	5.0.10.0	22	CS_B	Lpleas_acq	Oppo	Rpleas	2pleas	cond_pleas_short_CS2	condtest_short_3	11	33	405	0	300	300	0	0	489	46	-313,75	0	0	0	0	1	blank2r.bmp	0	1	+	0	3	B3r.bmp	500	1	blank2r.bmp	800	1	GKQX	800	1	blank2r.bmp	870	4	heiter	870	1	!	1239	1	!	-1	0	0	0	0	0	0	0	0	0	0	0	0	0	0	0	0	0	0	0	0	0	0	0	0	0	0	0
043018	16:57:47	5.0.10.0	22	CS_B	Lpleas_acq	Oppo	Rpleas	2pleas	cond_pleas_short_CS2	condtest_short_3	11	34	405	0	300	300	0	0	288	46	-313,75	0	0	0	0	1	blank2r.bmp	0	1	+	0	2	B2r.bmp	500	1	blank2r.bmp	800	1	GKQX	800	1	blank2r.bmp	870	1	toll	870	1	!	-1	1	!	-1	0	0	0	0	0	0	0	0	0	0	0	0	0	0	0	0	0	0	0	0	0	0	0	0	0	0	0
043018	16:57:47	5.0.10.0	22	CS_B	Lpleas_acq	Oppo	Rpleas	2pleas	cond_pleas_short_CS2	condtest_short_3	11	35	405	1	300	300	0	0	449	50	-313,75	1	0	0	0	1	blank2r.bmp	0	1	+	0	4	B4r.bmp	500	1	blank2r.bmp	800	1	GKQX	800	1	blank2r.bmp	870	5	friedlich	870	1	!	1239	1	!	1349	0	0	0	0	0	0	0	0	0	0	0	0	0	0	0	0	0	0	0	0	0	0	0	0	0	0	0
043018	16:57:47	5.0.10.0	22	CS_B	Lpleas_acq	Oppo	Rpleas	2pleas	cond_pleas_short_CS1	condtest_short_3	11	36	405	0	300	300	0	0	484	50	-313,75	1	0	0	0	1	blank2r.bmp	0	1	+	0	5	C1r.bmp	500	1	blank2r.bmp	800	1	BMVZ	800	1	blank2r.bmp	870	3	freund	870	1	!	1239	1	!	-1	0	0	0	0	0	0	0	0	0	0	0	0	0	0	0	0	0	0	0	0	0	0	0	0	0	0	0
043018	16:57:47	5.0.10.0	22	CS_B	Lpleas_acq	Oppo	Rpleas	2pleas	cond_pleas_short_CS1	condtest_short_3	11	37	405	0	300	300	0	0	297	50	-313,75	1	0	0	0	1	blank2r.bmp	0	1	+	0	7	C3r.bmp	500	1	blank2r.bmp	800	1	BMVZ	800	1	blank2r.bmp	870	2	schön	870	1	!	-1	1	!	-1	0	0	0	0	0	0	0	0	0	0	0	0	0	0	0	0	0	0	0	0	0	0	0	0	0	0	0
043018	16:57:47	5.0.10.0	22	CS_B	Lpleas_acq	Oppo	Rpleas	2pleas	cond_unple_short_CS2	condtest_short_3	11	38	405	0	300	300	0	0	337	50	-313,75	0	0	0	0	1	blank2r.bmp	0	1	+	0	8	C4r.bmp	500	1	blank2r.bmp	800	1	GKQX	800	1	blank2r.bmp	870	6	leiden	870	1	!	-1	1	!	-1	0	0	0	0	0	0	0	0	0	0	0	0	0	0	0	0	0	0	0	0	0	0	0	0	0	0	0
043018	16:57:47	5.0.10.0	22	CS_B	Lpleas_acq	Oppo	Rpleas	2pleas	cond_pleas_short_CS1	condtest_short_3	11	39	405	1	300	300	0	0	358	46	-313,75	0	0	0	0	1	blank2r.bmp	0	1	+	0	1	B1r.bmp	500	1	blank2r.bmp	800	1	BMVZ	800	1	blank2r.bmp	870	3	freund	870	1	!	1239	1	!	1249	0	0	0	0	0	0	0	0	0	0	0	0	0	0	0	0	0	0	0	0	0	0	0	0	0	0	0
043018	16:57:47	5.0.10.0	22	CS_B	Lpleas_acq	Oppo	Rpleas	2pleas	cond_unple_short_CS1	condtest_short_3	11	40	405	0	300	300	0	0	296	46	-313,75	1	0	0	0	1	blank2r.bmp	0	1	+	0	6	C2r.bmp	500	1	blank2r.bmp	800	1	BMVZ	800	1	blank2r.bmp	870	5	schlecht	870	1	!	-1	1	!	-1	0	0	0	0	0	0	0	0	0	0	0	0	0	0	0	0	0	0	0	0	0	0	0	0	0	0	0
043018	16:57:47	5.0.10.0	22	CS_B	Lpleas_acq	Oppo	Rpleas	2pleas	cond_unple_short_CS2	condtest_short_3	11	41	405	0	300	300	0	0	303	46	-313,75	1	0	0	0	1	blank2r.bmp	0	1	+	0	4	B4r.bmp	500	1	blank2r.bmp	800	1	GKQX	800	1	blank2r.bmp	870	4	elend	870	1	!	-1	1	!	-1	0	0	0	0	0	0	0	0	0	0	0	0	0	0	0	0	0	0	0	0	0	0	0	0	0	0	0
043018	16:57:47	5.0.10.0	22	CS_B	Lpleas_acq	Oppo	Rpleas	2pleas	cond_unple_short_CS1	condtest_short_3	11	42	405	1	300	300	0	0	431	46	-313,75	1	0	0	0	1	blank2r.bmp	0	1	+	0	8	C4r.bmp	500	1	blank2r.bmp	800	1	BMVZ	800	1	blank2r.bmp	870	3	töten	870	1	!	1239	1	!	1329	0	0	0	0	0	0	0	0	0	0	0	0	0	0	0	0	0	0	0	0	0	0	0	0	0	0	0
043018	16:57:47	5.0.10.0	22	CS_B	Lpleas_acq	Oppo	Rpleas	2pleas	cond_unple_short_CS2	condtest_short_3	11	43	405	1	300	300	0	0	366	46	-313,75	1	0	0	0	1	blank2r.bmp	0	1	+	0	5	C1r.bmp	500	1	blank2r.bmp	800	1	GKQX	800	1	blank2r.bmp	870	2	neidisch	870	1	!	1239	1	!	1259	0	0	0	0	0	0	0	0	0	0	0	0	0	0	0	0	0	0	0	0	0	0	0	0	0	0	0
043018	16:57:47	5.0.10.0	22	CS_B	Lpleas_acq	Oppo	Rpleas	2pleas	cond_pleas_short_CS1	condtest_short_3	11	44	405	0	300	300	0	0	338	46	-313,75	0	0	0	0	1	blank2r.bmp	0	1	+	0	7	C3r.bmp	500	1	blank2r.bmp	800	1	BMVZ	800	1	blank2r.bmp	870	4	heiter	870	1	!	-1	1	!	-1	0	0	0	0	0	0	0	0	0	0	0	0	0	0	0	0	0	0	0	0	0	0	0	0	0	0	0
043018	16:57:47	5.0.10.0	22	CS_B	Lpleas_acq	Oppo	Rpleas	2pleas	cond_pleas_short_CS2	condtest_short_3	11	45	405	1	300	300	0	0	364	50	-313,75	1	0	0	0	1	blank2r.bmp	0	1	+	0	2	B2r.bmp	500	1	blank2r.bmp	800	1	GKQX	800	1	blank2r.bmp	870	6	froh	870	1	!	1239	1	!	1259	0	0	0	0	0	0	0	0	0	0	0	0	0	0	0	0	0	0	0	0	0	0	0	0	0	0	0
043018	16:57:47	5.0.10.0	22	CS_B	Lpleas_acq	Oppo	Rpleas	2pleas	cond_pleas_short_CS1	condtest_short_3	11	46	405	1	300	300	0	0	394	50	-313,75	1	0	0	0	1	blank2r.bmp	0	1	+	0	3	B3r.bmp	500	1	blank2r.bmp	800	1	BMVZ	800	1	blank2r.bmp	870	1	toll	870	1	!	1239	1	!	1289	0	0	0	0	0	0	0	0	0	0	0	0	0	0	0	0	0	0	0	0	0	0	0	0	0	0	0
043018	16:57:47	5.0.10.0	22	CS_B	Lpleas_acq	Oppo	Rpleas	2pleas	cond_pleas_short_CS1	condtest_short_3	11	47	405	0	300	300	0	0	279	50	-313,75	1	0	0	0	1	blank2r.bmp	0	1	+	0	1	B1r.bmp	500	1	blank2r.bmp	800	1	BMVZ	800	1	blank2r.bmp	870	2	schön	870	1	!	-1	1	!	-1	0	0	0	0	0	0	0	0	0	0	0	0	0	0	0	0	0	0	0	0	0	0	0	0	0	0	0
043018	16:57:47	5.0.10.0	22	CS_B	Lpleas_acq	Oppo	Rpleas	2pleas	cond_pleas_short_CS2	condtest_short_3	11	48	405	0	300	300	0	0	300	50	-313,75	1	0	0	0	1	blank2r.bmp	0	1	+	0	6	C2r.bmp	500	1	blank2r.bmp	800	1	GKQX	800	1	blank2r.bmp	870	5	friedlich	870	1	!	-1	1	!	-1	0	0	0	0	0	0	0	0	0	0	0	0	0	0	0	0	0	0	0	0	0	0	0	0	0	0	0
043018	16:57:47	5.0.10.0	22	CS_A	Lpleas_acq	Oppo	Lpleas	2pleas	acq_pleas_long	acq1_long	12	1	0	0	300	300	0	0	442	50	-313,75	0	0	0	0	1	blank2r.bmp	0	1	+	0	5	C1r.bmp	500	1	blank2r.bmp	800	1	DHJF	800	1	blank2r.bmp	880	5	begabt	880	1	FEHLER	1349	0	0	0	0	0	0	0	0	0	0	0	0	0	0	0	0	0	0	0	0	0	0	0	0	0	0	0	0	0	0
043018	16:57:47	5.0.10.0	22	CS_A	Lpleas_acq	Oppo	Lpleas	2pleas	acq_pleas_long	acq1_long	12	2	0	0	300	300	0	0	526	46	-313,75	1	0	0	0	1	blank2r.bmp	0	1	+	0	1	B1r.bmp	500	1	blank2r.bmp	800	1	DHJF	800	1	blank2r.bmp	880	2	mutig	880	0	0	0	0	0	0	0	0	0	0	0	0	0	0	0	0	0	0	0	0	0	0	0	0	0	0	0	0	0	0	0	0	0
043018	16:57:47	5.0.10.0	22	CS_A	Lpleas_acq	Oppo	Lpleas	2pleas	acq_unple_long	acq1_long	12	3	0	0	300	300	0	0	569	50	-313,75	1	0	0	0	1	blank2r.bmp	0	1	+	0	7	C3r.bmp	500	1	blank2r.bmp	800	1	NPLW	800	1	blank2r.bmp	880	6	traurig	880	0	0	0	0	0	0	0	0	0	0	0	0	0	0	0	0	0	0	0	0	0	0	0	0	0	0	0	0	0	0	0	0	0
043018	16:57:47	5.0.10.0	22	CS_A	Lpleas_acq	Oppo	Lpleas	2pleas	acq_unple_long	acq1_long	12	4	0	0	300	300	0	0	417	50	-313,75	1	0	0	0	1	blank2r.bmp	0	1	+	0	6	C2r.bmp	500	1	blank2r.bmp	800	1	NPLW	800	1	blank2r.bmp	880	3	ärger	880	0	0	0	0	0	0	0	0	0	0	0	0	0	0	0	0	0	0	0	0	0	0	0	0	0	0	0	0	0	0	0	0	0
043018	16:57:47	5.0.10.0	22	CS_A	Lpleas_acq	Oppo	Lpleas	2pleas	acq_unple_long	acq1_long	12	5	0	0	300	300	0	0	427	50	-313,75	1	0	0	0	1	blank2r.bmp	0	1	+	0	2	B2r.bmp	500	1	blank2r.bmp	800	1	NPLW	800	1	blank2r.bmp	880	4	böse	880	0	0	0	0	0	0	0	0	0	0	0	0	0	0	0	0	0	0	0	0	0	0	0	0	0	0	0	0	0	0	0	0	0
043018	16:57:47	5.0.10.0	22	CS_A	Lpleas_acq	Oppo	Lpleas	2pleas	acq_unple_long	acq1_long	12	6	0	0	300	300	0	0	335	46	-313,75	0	0	0	0	1	blank2r.bmp	0	1	+	0	8	C4r.bmp	500	1	blank2r.bmp	800	1	NPLW	800	1	blank2r.bmp	880	5	kummer	880	1	FEHLER	1239	0	0	0	0	0	0	0	0	0	0	0	0	0	0	0	0	0	0	0	0	0	0	0	0	0	0	0	0	0	0
043018	16:57:47	5.0.10.0	22	CS_A	Lpleas_acq	Oppo	Lpleas	2pleas	acq_pleas_long	acq1_long	12	7	0	0	300	300	0	0	391	46	-313,75	1	0	0	0	1	blank2r.bmp	0	1	+	0	3	B3r.bmp	500	1	blank2r.bmp	800	1	DHJF	800	1	blank2r.bmp	880	1	gut	880	0	0	0	0	0	0	0	0	0	0	0	0	0	0	0	0	0	0	0	0	0	0	0	0	0	0	0	0	0	0	0	0	0
043018	16:57:47	5.0.10.0	22	CS_A	Lpleas_acq	Oppo	Lpleas	2pleas	acq_pleas_long	acq1_long	12	8	0	0	300	300	0	0	385	46	-313,75	1	0	0	0	1	blank2r.bmp	0	1	+	0	4	B4r.bmp	500	1	blank2r.bmp	800	1	DHJF	800	1	blank2r.bmp	880	4	treu	880	0	0	0	0	0	0	0	0	0	0	0	0	0	0	0	0	0	0	0	0	0	0	0	0	0	0	0	0	0	0	0	0	0
043018	16:57:47	5.0.10.0	22	CS_A	Lpleas_acq	Oppo	Lpleas	2pleas	acq_pleas_long	acq1_long	12	9	0	0	300	300	0	0	422	46	-313,75	1	0	0	0	1	blank2r.bmp	0	1	+	0	3	B3r.bmp	500	1	blank2r.bmp	800	1	DHJF	800	1	blank2r.bmp	880	6	kreativ	880	0	0	0	0	0	0	0	0	0	0	0	0	0	0	0	0	0	0	0	0	0	0	0	0	0	0	0	0	0	0	0	0	0
043018	16:57:47	5.0.10.0	22	CS_A	Lpleas_acq	Oppo	Lpleas	2pleas	acq_pleas_long	acq1_long	12	10	0	0	300	300	0	0	304	46	-313,75	1	0	0	0	1	blank2r.bmp	0	1	+	0	5	C1r.bmp	500	1	blank2r.bmp	800	1	DHJF	800	1	blank2r.bmp	880	3	kuss	880	0	0	0	0	0	0	0	0	0	0	0	0	0	0	0	0	0	0	0	0	0	0	0	0	0	0	0	0	0	0	0	0	0
043018	16:57:47	5.0.10.0	22	CS_A	Lpleas_acq	Oppo	Lpleas	2pleas	acq_pleas_long	acq1_long	12	11	0	0	300	300	0	0	390	46	-313,75	1	0	0	0	1	blank2r.bmp	0	1	+	0	7	C3r.bmp	500	1	blank2r.bmp	800	1	DHJF	800	1	blank2r.bmp	880	3	kuss	880	0	0	0	0	0	0	0	0	0	0	0	0	0	0	0	0	0	0	0	0	0	0	0	0	0	0	0	0	0	0	0	0	0
043018	16:57:47	5.0.10.0	22	CS_A	Lpleas_acq	Oppo	Lpleas	2pleas	acq_unple_long	acq1_long	12	12	0	0	300	300	0	0	346	46	-313,75	0	0	0	0	1	blank2r.bmp	0	1	+	0	4	B4r.bmp	500	1	blank2r.bmp	800	1	NPLW	800	1	blank2r.bmp	880	2	geizig	880	1	FEHLER	1249	0	0	0	0	0	0	0	0	0	0	0	0	0	0	0	0	0	0	0	0	0	0	0	0	0	0	0	0	0	0
043018	16:57:47	5.0.10.0	22	CS_A	Lpleas_acq	Oppo	Lpleas	2pleas	acq_unple_long	acq1_long	12	13	0	0	300	300	0	0	392	46	-313,75	0	0	0	0	1	blank2r.bmp	0	1	+	0	6	C2r.bmp	500	1	blank2r.bmp	800	1	NPLW	800	1	blank2r.bmp	880	1	grausam	880	1	FEHLER	1299	0	0	0	0	0	0	0	0	0	0	0	0	0	0	0	0	0	0	0	0	0	0	0	0	0	0	0	0	0	0
043018	16:57:47	5.0.10.0	22	CS_A	Lpleas_acq	Oppo	Lpleas	2pleas	acq_pleas_long	acq1_long	12	14	0	0	300	300	0	0	350	50	-313,75	0	0	0	0	1	blank2r.bmp	0	1	+	0	8	C4r.bmp	500	1	blank2r.bmp	800	1	DHJF	800	1	blank2r.bmp	880	1	gut	880	1	FEHLER	1259	0	0	0	0	0	0	0	0	0	0	0	0	0	0	0	0	0	0	0	0	0	0	0	0	0	0	0	0	0	0
043018	16:57:47	5.0.10.0	22	CS_A	Lpleas_acq	Oppo	Lpleas	2pleas	acq_unple_long	acq1_long	12	15	0	0	300	300	0	0	436	50	-313,75	1	0	0	0	1	blank2r.bmp	0	1	+	0	2	B2r.bmp	500	1	blank2r.bmp	800	1	NPLW	800	1	blank2r.bmp	880	1	grausam	880	0	0	0	0	0	0	0	0	0	0	0	0	0	0	0	0	0	0	0	0	0	0	0	0	0	0	0	0	0	0	0	0	0
043018	16:57:47	5.0.10.0	22	CS_A	Lpleas_acq	Oppo	Lpleas	2pleas	acq_unple_long	acq1_long	12	16	0	0	300	300	0	0	405	46	-313,75	0	0	0	0	1	blank2r.bmp	0	1	+	0	1	B1r.bmp	500	1	blank2r.bmp	800	1	NPLW	800	1	blank2r.bmp	880	3	ärger	880	1	FEHLER	1309	0	0	0	0	0	0	0	0	0	0	0	0	0	0	0	0	0	0	0	0	0	0	0	0	0	0	0	0	0	0
043018	16:57:47	5.0.10.0	22	CS_A	Lpleas_acq	Oppo	Lpleas	2pleas	acq_pleas_long	acq1_long	12	17	0	0	300	300	0	0	425	46	-313,75	1	0	0	0	1	blank2r.bmp	0	1	+	0	4	B4r.bmp	500	1	blank2r.bmp	800	1	DHJF	800	1	blank2r.bmp	880	5	begabt	880	0	0	0	0	0	0	0	0	0	0	0	0	0	0	0	0	0	0	0	0	0	0	0	0	0	0	0	0	0	0	0	0	0
043018	16:57:47	5.0.10.0	22	CS_A	Lpleas_acq	Oppo	Lpleas	2pleas	acq_unple_long	acq1_long	12	18	0	0	300	300	0	0	452	50	-313,75	1	0	0	0	1	blank2r.bmp	0	1	+	0	2	B2r.bmp	500	1	blank2r.bmp	800	1	NPLW	800	1	blank2r.bmp	880	6	traurig	880	0	0	0	0	0	0	0	0	0	0	0	0	0	0	0	0	0	0	0	0	0	0	0	0	0	0	0	0	0	0	0	0	0
043018	16:57:47	5.0.10.0	22	CS_A	Lpleas_acq	Oppo	Lpleas	2pleas	acq_unple_long	acq1_long	12	19	0	0	300	300	0	0	388	50	-313,75	1	0	0	0	1	blank2r.bmp	0	1	+	0	3	B3r.bmp	500	1	blank2r.bmp	800	1	NPLW	800	1	blank2r.bmp	880	4	böse	880	0	0	0	0	0	0	0	0	0	0	0	0	0	0	0	0	0	0	0	0	0	0	0	0	0	0	0	0	0	0	0	0	0
043018	16:57:47	5.0.10.0	22	CS_A	Lpleas_acq	Oppo	Lpleas	2pleas	acq_unple_long	acq1_long	12	20	0	0	300	300	0	0	287	50	-313,75	1	0	0	0	1	blank2r.bmp	0	1	+	0	7	C3r.bmp	500	1	blank2r.bmp	800	1	NPLW	800	1	blank2r.bmp	880	5	kummer	880	0	0	0	0	0	0	0	0	0	0	0	0	0	0	0	0	0	0	0	0	0	0	0	0	0	0	0	0	0	0	0	0	0
043018	16:57:47	5.0.10.0	22	CS_A	Lpleas_acq	Oppo	Lpleas	2pleas	acq_pleas_long	acq1_long	12	21	0	0	300	300	0	0	308	50	-313,75	0	0	0	0	1	blank2r.bmp	0	1	+	0	5	C1r.bmp	500	1	blank2r.bmp	800	1	DHJF	800	1	blank2r.bmp	880	6	kreativ	880	1	FEHLER	1209	0	0	0	0	0	0	0	0	0	0	0	0	0	0	0	0	0	0	0	0	0	0	0	0	0	0	0	0	0	0
043018	16:57:47	5.0.10.0	22	CS_A	Lpleas_acq	Oppo	Lpleas	2pleas	acq_unple_long	acq1_long	12	22	0	0	300	300	0	0	404	50	-313,75	1	0	0	0	1	blank2r.bmp	0	1	+	0	8	C4r.bmp	500	1	blank2r.bmp	800	1	NPLW	800	1	blank2r.bmp	880	2	geizig	880	0	0	0	0	0	0	0	0	0	0	0	0	0	0	0	0	0	0	0	0	0	0	0	0	0	0	0	0	0	0	0	0	0
043018	16:57:47	5.0.10.0	22	CS_A	Lpleas_acq	Oppo	Lpleas	2pleas	acq_pleas_long	acq1_long	12	23	0	0	300	300	0	0	429	50	-313,75	0	0	0	0	1	blank2r.bmp	0	1	+	0	1	B1r.bmp	500	1	blank2r.bmp	800	1	DHJF	800	1	blank2r.bmp	880	2	mutig	880	1	FEHLER	1339	0	0	0	0	0	0	0	0	0	0	0	0	0	0	0	0	0	0	0	0	0	0	0	0	0	0	0	0	0	0
043018	16:57:47	5.0.10.0	22	CS_A	Lpleas_acq	Oppo	Lpleas	2pleas	acq_pleas_long	acq1_long	12	24	0	0	300	300	0	0	445	46	-313,75	1	0	0	0	1	blank2r.bmp	0	1	+	0	6	C2r.bmp	500	1	blank2r.bmp	800	1	DHJF	800	1	blank2r.bmp	880	4	treu	880	0	0	0	0	0	0	0	0	0	0	0	0	0	0	0	0	0	0	0	0	0	0	0	0	0	0	0	0	0	0	0	0	0
043018	16:57:47	5.0.10.0	22	CS_A	Lpleas_acq	Oppo	Lpleas	2pleas	acq_pleas_long	acq2_long	13	1	475	0	300	300	0	0	336	46	-313,75	1	0	0	0	1	blank2r.bmp	0	1	+	0	8	C4r.bmp	500	1	blank2r.bmp	800	1	DHJF	800	1	blank2r.bmp	880	3	kuss	880	1	!	-1	1	!	-1	0	0	0	0	0	0	0	0	0	0	0	0	0	0	0	0	0	0	0	0	0	0	0	0	0	0	0
043018	16:57:47	5.0.10.0	22	CS_A	Lpleas_acq	Oppo	Lpleas	2pleas	acq_unple_long	acq2_long	13	2	475	1	300	300	0	0	488	50	-313,75	1	0	0	0	1	blank2r.bmp	0	1	+	0	4	B4r.bmp	500	1	blank2r.bmp	800	1	NPLW	800	1	blank2r.bmp	880	2	geizig	880	1	!	1319	1	!	1389	0	0	0	0	0	0	0	0	0	0	0	0	0	0	0	0	0	0	0	0	0	0	0	0	0	0	0
043018	16:57:47	5.0.10.0	22	CS_A	Lpleas_acq	Oppo	Lpleas	2pleas	acq_pleas_long	acq2_long	13	3	475	0	300	300	0	0	576	46	-313,75	1	0	0	0	1	blank2r.bmp	0	1	+	0	2	B2r.bmp	500	1	blank2r.bmp	800	1	DHJF	800	1	blank2r.bmp	880	5	begabt	880	1	!	1319	1	!	-1	0	0	0	0	0	0	0	0	0	0	0	0	0	0	0	0	0	0	0	0	0	0	0	0	0	0	0
