date	time	build	subject	expressions.conditionCS_A	expressions.LRpleas_acq	expressions.SameOppo	expressions.condition_Lpleas	expressions.condition_1pleas	trialcode	blockcode	blocknum	trialnum	windowcenter	inwindow	pretrialpause	posttrialpause	trialduration	trialtimeout	latency	response	expressions.correctedscore	correct	values.vis_performance	values.vis_rating_sum	values.vis_rating_mean	stimulusnumber1	stimulusitem1	stimulusonset1	stimulusnumber2	stimulusitem2	stimulusonset2	stimulusnumber3	stimulusitem3	stimulusonset3	stimulusnumber4	stimulusitem4	stimulusonset4	stimulusnumber5	stimulusitem5	stimulusonset5	stimulusnumber6	stimulusitem6	stimulusonset6	stimulusnumber7	stimulusitem7	stimulusonset7	stimulusnumber8	stimulusitem8	stimulusonset8	stimulusnumber9	stimulusitem9	stimulusonset9	stimulusnumber10	stimulusitem10	stimulusonset10	stimulusnumber11	stimulusitem11	stimulusonset11	stimulusnumber12	stimulusitem12	stimulusonset12	stimulusnumber13	stimulusitem13	stimulusonset13	stimulusnumber14	stimulusitem14	stimulusonset14	stimulusnumber15	stimulusitem15	stimulusonset15	stimulusnumber16	stimulusitem16	stimulusonset16	stimulusnumber17	stimulusitem17	stimulusonset17	stimulusnumber18	stimulusitem18	stimulusonset18
050418	10:02:30	5.0.10.0	61	CS_B	Lpleas_acq	Same	Lpleas	1pleas	acq_pleas_short	acq1_short	1	1	0	0	300	300	0	0	2008	46	0	1	0	0	0	1	blank2r.bmp	0	1	+	0	6	C2r.bmp	500	1	blank2r.bmp	800	1	BMVZ	800	1	blank2r.bmp	870	6	froh	870	0	0	0	0	0	0	0	0	0	0	0	0	0	0	0	0	0	0	0	0	0	0	0	0	0	0	0	0	0	0	0	0	0
050418	10:02:30	5.0.10.0	61	CS_B	Lpleas_acq	Same	Lpleas	1pleas	acq_unple_short	acq1_short	1	2	0	0	300	300	0	0	931	50	0	1	0	0	0	1	blank2r.bmp	0	1	+	0	7	C3r.bmp	500	1	blank2r.bmp	800	1	GKQX	800	1	blank2r.bmp	870	4	elend	870	0	0	0	0	0	0	0	0	0	0	0	0	0	0	0	0	0	0	0	0	0	0	0	0	0	0	0	0	0	0	0	0	0
050418	10:02:30	5.0.10.0	61	CS_B	Lpleas_acq	Same	Lpleas	1pleas	acq_pleas_short	acq1_short	1	3	0	0	300	300	0	0	996	46	0	1	0	0	0	1	blank2r.bmp	0	1	+	0	1	B1r.bmp	500	1	blank2r.bmp	800	1	BMVZ	800	1	blank2r.bmp	870	5	friedlich	870	0	0	0	0	0	0	0	0	0	0	0	0	0	0	0	0	0	0	0	0	0	0	0	0	0	0	0	0	0	0	0	0	0
050418	10:02:30	5.0.10.0	61	CS_B	Lpleas_acq	Same	Lpleas	1pleas	acq_pleas_short	acq1_short	1	4	0	0	300	300	0	0	849	46	0	1	0	0	0	1	blank2r.bmp	0	1	+	0	8	C4r.bmp	500	1	blank2r.bmp	800	1	BMVZ	800	1	blank2r.bmp	870	1	toll	870	0	0	0	0	0	0	0	0	0	0	0	0	0	0	0	0	0	0	0	0	0	0	0	0	0	0	0	0	0	0	0	0	0
050418	10:02:30	5.0.10.0	61	CS_B	Lpleas_acq	Same	Lpleas	1pleas	acq_unple_short	acq1_short	1	5	0	0	300	300	0	0	649	50	0	1	0	0	0	1	blank2r.bmp	0	1	+	0	3	B3r.bmp	500	1	blank2r.bmp	800	1	GKQX	800	1	blank2r.bmp	870	5	schlecht	870	0	0	0	0	0	0	0	0	0	0	0	0	0	0	0	0	0	0	0	0	0	0	0	0	0	0	0	0	0	0	0	0	0
050418	10:02:30	5.0.10.0	61	CS_B	Lpleas_acq	Same	Lpleas	1pleas	acq_unple_short	acq1_short	1	6	0	0	300	300	0	0	1087	50	0	1	0	0	0	1	blank2r.bmp	0	1	+	0	4	B4r.bmp	500	1	blank2r.bmp	800	1	GKQX	800	1	blank2r.bmp	870	2	neidisch	870	0	0	0	0	0	0	0	0	0	0	0	0	0	0	0	0	0	0	0	0	0	0	0	0	0	0	0	0	0	0	0	0	0
050418	10:02:30	5.0.10.0	61	CS_B	Lpleas_acq	Same	Lpleas	1pleas	acq_unple_short	acq1_short	1	7	0	0	300	300	0	0	614	50	0	1	0	0	0	1	blank2r.bmp	0	1	+	0	5	C1r.bmp	500	1	blank2r.bmp	800	1	GKQX	800	1	blank2r.bmp	870	1	unfair	870	0	0	0	0	0	0	0	0	0	0	0	0	0	0	0	0	0	0	0	0	0	0	0	0	0	0	0	0	0	0	0	0	0
050418	10:02:30	5.0.10.0	61	CS_B	Lpleas_acq	Same	Lpleas	1pleas	acq_pleas_short	acq1_short	1	8	0	0	300	300	0	0	656	46	0	1	0	0	0	1	blank2r.bmp	0	1	+	0	2	B2r.bmp	500	1	blank2r.bmp	800	1	BMVZ	800	1	blank2r.bmp	870	3	freund	870	0	0	0	0	0	0	0	0	0	0	0	0	0	0	0	0	0	0	0	0	0	0	0	0	0	0	0	0	0	0	0	0	0
050418	10:02:30	5.0.10.0	61	CS_B	Lpleas_acq	Same	Lpleas	1pleas	acq_unple_short	acq1_short	1	9	0	0	300	300	0	0	716	50	0	1	0	0	0	1	blank2r.bmp	0	1	+	0	5	C1r.bmp	500	1	blank2r.bmp	800	1	GKQX	800	1	blank2r.bmp	870	6	leiden	870	0	0	0	0	0	0	0	0	0	0	0	0	0	0	0	0	0	0	0	0	0	0	0	0	0	0	0	0	0	0	0	0	0
050418	10:02:30	5.0.10.0	61	CS_B	Lpleas_acq	Same	Lpleas	1pleas	acq_unple_short	acq1_short	1	10	0	0	300	300	0	0	621	50	0	1	0	0	0	1	blank2r.bmp	0	1	+	0	7	C3r.bmp	500	1	blank2r.bmp	800	1	GKQX	800	1	blank2r.bmp	870	3	töten	870	0	0	0	0	0	0	0	0	0	0	0	0	0	0	0	0	0	0	0	0	0	0	0	0	0	0	0	0	0	0	0	0	0
050418	10:02:30	5.0.10.0	61	CS_B	Lpleas_acq	Same	Lpleas	1pleas	acq_pleas_short	acq1_short	1	11	0	0	300	300	0	0	314	50	0	0	0	0	0	1	blank2r.bmp	0	1	+	0	6	C2r.bmp	500	1	blank2r.bmp	800	1	BMVZ	800	1	blank2r.bmp	870	2	schön	870	1	FEHLER	1209	0	0	0	0	0	0	0	0	0	0	0	0	0	0	0	0	0	0	0	0	0	0	0	0	0	0	0	0	0	0
050418	10:02:30	5.0.10.0	61	CS_B	Lpleas_acq	Same	Lpleas	1pleas	acq_unple_short	acq1_short	1	12	0	0	300	300	0	0	453	50	0	1	0	0	0	1	blank2r.bmp	0	1	+	0	2	B2r.bmp	500	1	blank2r.bmp	800	1	GKQX	800	1	blank2r.bmp	870	5	schlecht	870	0	0	0	0	0	0	0	0	0	0	0	0	0	0	0	0	0	0	0	0	0	0	0	0	0	0	0	0	0	0	0	0	0
050418	10:02:30	5.0.10.0	61	CS_B	Lpleas_acq	Same	Lpleas	1pleas	acq_pleas_short	acq1_short	1	13	0	0	300	300	0	0	705	46	0	1	0	0	0	1	blank2r.bmp	0	1	+	0	8	C4r.bmp	500	1	blank2r.bmp	800	1	BMVZ	800	1	blank2r.bmp	870	4	heiter	870	0	0	0	0	0	0	0	0	0	0	0	0	0	0	0	0	0	0	0	0	0	0	0	0	0	0	0	0	0	0	0	0	0
050418	10:02:30	5.0.10.0	61	CS_B	Lpleas_acq	Same	Lpleas	1pleas	acq_unple_short	acq1_short	1	14	0	0	300	300	0	0	610	50	0	1	0	0	0	1	blank2r.bmp	0	1	+	0	1	B1r.bmp	500	1	blank2r.bmp	800	1	GKQX	800	1	blank2r.bmp	870	4	elend	870	0	0	0	0	0	0	0	0	0	0	0	0	0	0	0	0	0	0	0	0	0	0	0	0	0	0	0	0	0	0	0	0	0
050418	10:02:30	5.0.10.0	61	CS_B	Lpleas_acq	Same	Lpleas	1pleas	acq_pleas_short	acq1_short	1	15	0	0	300	300	0	0	582	46	0	1	0	0	0	1	blank2r.bmp	0	1	+	0	4	B4r.bmp	500	1	blank2r.bmp	800	1	BMVZ	800	1	blank2r.bmp	870	2	schön	870	0	0	0	0	0	0	0	0	0	0	0	0	0	0	0	0	0	0	0	0	0	0	0	0	0	0	0	0	0	0	0	0	0
050418	10:02:30	5.0.10.0	61	CS_B	Lpleas_acq	Same	Lpleas	1pleas	acq_pleas_short	acq1_short	1	16	0	0	300	300	0	0	822	46	0	1	0	0	0	1	blank2r.bmp	0	1	+	0	3	B3r.bmp	500	1	blank2r.bmp	800	1	BMVZ	800	1	blank2r.bmp	870	5	friedlich	870	0	0	0	0	0	0	0	0	0	0	0	0	0	0	0	0	0	0	0	0	0	0	0	0	0	0	0	0	0	0	0	0	0
050418	10:02:30	5.0.10.0	61	CS_B	Lpleas_acq	Same	Lpleas	1pleas	acq_unple_short	acq1_short	1	17	0	0	300	300	0	0	595	50	0	1	0	0	0	1	blank2r.bmp	0	1	+	0	7	C3r.bmp	500	1	blank2r.bmp	800	1	GKQX	800	1	blank2r.bmp	870	3	töten	870	0	0	0	0	0	0	0	0	0	0	0	0	0	0	0	0	0	0	0	0	0	0	0	0	0	0	0	0	0	0	0	0	0
050418	10:02:30	5.0.10.0	61	CS_B	Lpleas_acq	Same	Lpleas	1pleas	acq_unple_short	acq1_short	1	18	0	0	300	300	0	0	858	50	0	1	0	0	0	1	blank2r.bmp	0	1	+	0	8	C4r.bmp	500	1	blank2r.bmp	800	1	GKQX	800	1	blank2r.bmp	870	6	leiden	870	0	0	0	0	0	0	0	0	0	0	0	0	0	0	0	0	0	0	0	0	0	0	0	0	0	0	0	0	0	0	0	0	0
050418	10:02:30	5.0.10.0	61	CS_B	Lpleas_acq	Same	Lpleas	1pleas	acq_pleas_short	acq1_short	1	19	0	0	300	300	0	0	614	46	0	1	0	0	0	1	blank2r.bmp	0	1	+	0	1	B1r.bmp	500	1	blank2r.bmp	800	1	BMVZ	800	1	blank2r.bmp	870	3	freund	870	0	0	0	0	0	0	0	0	0	0	0	0	0	0	0	0	0	0	0	0	0	0	0	0	0	0	0	0	0	0	0	0	0
050418	10:02:30	5.0.10.0	61	CS_B	Lpleas_acq	Same	Lpleas	1pleas	acq_pleas_short	acq1_short	1	20	0	0	300	300	0	0	702	46	0	1	0	0	0	1	blank2r.bmp	0	1	+	0	3	B3r.bmp	500	1	blank2r.bmp	800	1	BMVZ	800	1	blank2r.bmp	870	6	froh	870	0	0	0	0	0	0	0	0	0	0	0	0	0	0	0	0	0	0	0	0	0	0	0	0	0	0	0	0	0	0	0	0	0
050418	10:02:30	5.0.10.0	61	CS_B	Lpleas_acq	Same	Lpleas	1pleas	acq_pleas_short	acq1_short	1	21	0	0	300	300	0	0	2260	46	0	1	0	0	0	1	blank2r.bmp	0	1	+	0	6	C2r.bmp	500	1	blank2r.bmp	800	1	BMVZ	800	1	blank2r.bmp	870	4	heiter	870	0	0	0	0	0	0	0	0	0	0	0	0	0	0	0	0	0	0	0	0	0	0	0	0	0	0	0	0	0	0	0	0	0
050418	10:02:30	5.0.10.0	61	CS_B	Lpleas_acq	Same	Lpleas	1pleas	acq_unple_short	acq1_short	1	22	0	0	300	300	0	0	722	50	0	1	0	0	0	1	blank2r.bmp	0	1	+	0	4	B4r.bmp	500	1	blank2r.bmp	800	1	GKQX	800	1	blank2r.bmp	870	2	neidisch	870	0	0	0	0	0	0	0	0	0	0	0	0	0	0	0	0	0	0	0	0	0	0	0	0	0	0	0	0	0	0	0	0	0
050418	10:02:30	5.0.10.0	61	CS_B	Lpleas_acq	Same	Lpleas	1pleas	acq_pleas_short	acq1_short	1	23	0	0	300	300	0	0	2444	46	0	1	0	0	0	1	blank2r.bmp	0	1	+	0	5	C1r.bmp	500	1	blank2r.bmp	800	1	BMVZ	800	1	blank2r.bmp	870	1	toll	870	0	0	0	0	0	0	0	0	0	0	0	0	0	0	0	0	0	0	0	0	0	0	0	0	0	0	0	0	0	0	0	0	0
050418	10:02:30	5.0.10.0	61	CS_B	Lpleas_acq	Same	Lpleas	1pleas	acq_unple_short	acq1_short	1	24	0	0	300	300	0	0	697	50	0	1	0	0	0	1	blank2r.bmp	0	1	+	0	2	B2r.bmp	500	1	blank2r.bmp	800	1	GKQX	800	1	blank2r.bmp	870	1	unfair	870	0	0	0	0	0	0	0	0	0	0	0	0	0	0	0	0	0	0	0	0	0	0	0	0	0	0	0	0	0	0	0	0	0
050418	10:02:30	5.0.10.0	61	CS_B	Lpleas_acq	Same	Lpleas	1pleas	acq_pleas_short	acq2_short	2	1	475	0	300	300	0	0	11447	46	0	1	0	0	0	1	blank2r.bmp	0	1	+	0	5	C1r.bmp	500	1	blank2r.bmp	800	1	BMVZ	800	1	blank2r.bmp	870	2	schön	870	1	!	1309	1	!	-1	0	0	0	0	0	0	0	0	0	0	0	0	0	0	0	0	0	0	0	0	0	0	0	0	0	0	0
050418	10:02:30	5.0.10.0	61	CS_B	Lpleas_acq	Same	Lpleas	1pleas	acq_unple_short	acq2_short	2	2	475	0	300	300	0	0	3371	50	0	1	0	0	0	1	blank2r.bmp	0	1	+	0	7	C3r.bmp	500	1	blank2r.bmp	800	1	GKQX	800	1	blank2r.bmp	870	3	töten	870	1	!	1309	1	!	-1	0	0	0	0	0	0	0	0	0	0	0	0	0	0	0	0	0	0	0	0	0	0	0	0	0	0	0
050418	10:02:30	5.0.10.0	61	CS_B	Lpleas_acq	Same	Lpleas	1pleas	acq_pleas_short	acq2_short	2	3	475	0	300	300	0	0	4763	46	0	1	0	0	0	1	blank2r.bmp	0	1	+	0	3	B3r.bmp	500	1	blank2r.bmp	800	1	BMVZ	800	1	blank2r.bmp	870	1	toll	870	1	!	1309	1	!	-1	0	0	0	0	0	0	0	0	0	0	0	0	0	0	0	0	0	0	0	0	0	0	0	0	0	0	0
050418	10:02:30	5.0.10.0	61	CS_B	Lpleas_acq	Same	Lpleas	1pleas	acq_unple_short	acq2_short	2	4	475	0	300	300	0	0	571	50	0	1	0	0	0	1	blank2r.bmp	0	1	+	0	1	B1r.bmp	500	1	blank2r.bmp	800	1	GKQX	800	1	blank2r.bmp	870	1	unfair	870	1	!	1309	1	!	-1	0	0	0	0	0	0	0	0	0	0	0	0	0	0	0	0	0	0	0	0	0	0	0	0	0	0	0
050418	10:02:30	5.0.10.0	61	CS_B	Lpleas_acq	Same	Lpleas	1pleas	acq_unple_short	acq2_short	2	5	475	0	300	300	0	0	3667	50	0	1	0	0	0	1	blank2r.bmp	0	1	+	0	8	C4r.bmp	500	1	blank2r.bmp	800	1	GKQX	800	1	blank2r.bmp	870	5	schlecht	870	1	!	1309	1	!	-1	0	0	0	0	0	0	0	0	0	0	0	0	0	0	0	0	0	0	0	0	0	0	0	0	0	0	0
050418	10:02:30	5.0.10.0	61	CS_B	Lpleas_acq	Same	Lpleas	1pleas	acq_pleas_short	acq2_short	2	6	475	1	300	300	0	0	434	46	0	1	0	0	0	1	blank2r.bmp	0	1	+	0	2	B2r.bmp	500	1	blank2r.bmp	800	1	BMVZ	800	1	blank2r.bmp	870	6	froh	870	1	!	1309	1	!	1329	0	0	0	0	0	0	0	0	0	0	0	0	0	0	0	0	0	0	0	0	0	0	0	0	0	0	0
050418	10:02:30	5.0.10.0	61	CS_B	Lpleas_acq	Same	Lpleas	1pleas	acq_pleas_short	acq2_short	2	7	475	0	300	300	0	0	383	46	0	1	0	0	0	1	blank2r.bmp	0	1	+	0	6	C2r.bmp	500	1	blank2r.bmp	800	1	BMVZ	800	1	blank2r.bmp	870	5	friedlich	870	1	!	-1	1	!	-1	0	0	0	0	0	0	0	0	0	0	0	0	0	0	0	0	0	0	0	0	0	0	0	0	0	0	0
050418	10:02:30	5.0.10.0	61	CS_B	Lpleas_acq	Same	Lpleas	1pleas	acq_unple_short	acq2_short	2	8	475	1	300	300	0	0	470	50	0	1	0	0	0	1	blank2r.bmp	0	1	+	0	4	B4r.bmp	500	1	blank2r.bmp	800	1	GKQX	800	1	blank2r.bmp	870	6	leiden	870	1	!	1309	1	!	1369	0	0	0	0	0	0	0	0	0	0	0	0	0	0	0	0	0	0	0	0	0	0	0	0	0	0	0
050418	10:02:30	5.0.10.0	61	CS_B	Lpleas_acq	Same	Lpleas	1pleas	acq_unple_short	acq2_short	2	9	475	0	300	300	0	0	6111	50	0	1	0	0	0	1	blank2r.bmp	0	1	+	0	5	C1r.bmp	500	1	blank2r.bmp	800	1	GKQX	800	1	blank2r.bmp	870	2	neidisch	870	1	!	1309	1	!	-1	0	0	0	0	0	0	0	0	0	0	0	0	0	0	0	0	0	0	0	0	0	0	0	0	0	0	0
050418	10:02:30	5.0.10.0	61	CS_B	Lpleas_acq	Same	Lpleas	1pleas	acq_unple_short	acq2_short	2	10	475	0	300	300	0	0	626	50	0	1	0	0	0	1	blank2r.bmp	0	1	+	0	1	B1r.bmp	500	1	blank2r.bmp	800	1	GKQX	800	1	blank2r.bmp	870	4	elend	870	1	!	1309	1	!	-1	0	0	0	0	0	0	0	0	0	0	0	0	0	0	0	0	0	0	0	0	0	0	0	0	0	0	0
050418	10:02:30	5.0.10.0	61	CS_B	Lpleas_acq	Same	Lpleas	1pleas	acq_pleas_short	acq2_short	2	11	475	0	300	300	0	0	345	46	0	1	0	0	0	1	blank2r.bmp	0	1	+	0	3	B3r.bmp	500	1	blank2r.bmp	800	1	BMVZ	800	1	blank2r.bmp	870	3	freund	870	1	!	-1	1	!	-1	0	0	0	0	0	0	0	0	0	0	0	0	0	0	0	0	0	0	0	0	0	0	0	0	0	0	0
050418	10:02:30	5.0.10.0	61	CS_B	Lpleas_acq	Same	Lpleas	1pleas	acq_pleas_short	acq2_short	2	12	475	0	300	300	0	0	409	50	0	0	0	0	0	1	blank2r.bmp	0	1	+	0	2	B2r.bmp	500	1	blank2r.bmp	800	1	BMVZ	800	1	blank2r.bmp	870	4	heiter	870	1	FEHLER	1619	1	!	-1	1	!	-1	0	0	0	0	0	0	0	0	0	0	0	0	0	0	0	0	0	0	0	0	0	0	0	0
050418	10:02:30	5.0.10.0	61	CS_B	Lpleas_acq	Same	Lpleas	1pleas	acq_unple_short	acq2_short	2	13	475	0	300	300	0	0	291	46	0	0	0	0	0	1	blank2r.bmp	0	1	+	0	4	B4r.bmp	500	1	blank2r.bmp	800	1	GKQX	800	1	blank2r.bmp	870	1	unfair	870	1	FEHLER	1499	1	!	-1	1	!	-1	0	0	0	0	0	0	0	0	0	0	0	0	0	0	0	0	0	0	0	0	0	0	0	0
050418	10:02:30	5.0.10.0	61	CS_B	Lpleas_acq	Same	Lpleas	1pleas	acq_pleas_short	acq2_short	2	14	475	0	300	300	0	0	395	46	0	1	0	0	0	1	blank2r.bmp	0	1	+	0	7	C3r.bmp	500	1	blank2r.bmp	800	1	BMVZ	800	1	blank2r.bmp	870	6	froh	870	1	!	-1	1	!	-1	0	0	0	0	0	0	0	0	0	0	0	0	0	0	0	0	0	0	0	0	0	0	0	0	0	0	0
050418	10:02:30	5.0.10.0	61	CS_B	Lpleas_acq	Same	Lpleas	1pleas	acq_pleas_short	acq2_short	2	15	475	0	300	300	0	0	706	46	0	1	0	0	0	1	blank2r.bmp	0	1	+	0	6	C2r.bmp	500	1	blank2r.bmp	800	1	BMVZ	800	1	blank2r.bmp	870	5	friedlich	870	1	!	1309	1	!	-1	0	0	0	0	0	0	0	0	0	0	0	0	0	0	0	0	0	0	0	0	0	0	0	0	0	0	0
050418	10:02:30	5.0.10.0	61	CS_B	Lpleas_acq	Same	Lpleas	1pleas	acq_unple_short	acq2_short	2	16	475	0	300	300	0	0	410	46	0	0	0	0	0	1	blank2r.bmp	0	1	+	0	8	C4r.bmp	500	1	blank2r.bmp	800	1	GKQX	800	1	blank2r.bmp	870	6	leiden	870	1	FEHLER	1619	1	!	-1	1	!	-1	0	0	0	0	0	0	0	0	0	0	0	0	0	0	0	0	0	0	0	0	0	0	0	0
050418	10:02:30	5.0.10.0	61	CS_B	Lpleas_acq	Same	Lpleas	1pleas	acq_unple_short	acq2_short	2	17	475	0	300	300	0	0	704	50	0	1	0	0	0	1	blank2r.bmp	0	1	+	0	5	C1r.bmp	500	1	blank2r.bmp	800	1	GKQX	800	1	blank2r.bmp	870	5	schlecht	870	1	!	1309	1	!	-1	0	0	0	0	0	0	0	0	0	0	0	0	0	0	0	0	0	0	0	0	0	0	0	0	0	0	0
050418	10:02:30	5.0.10.0	61	CS_B	Lpleas_acq	Same	Lpleas	1pleas	acq_pleas_short	acq2_short	2	18	475	0	300	300	0	0	633	46	0	1	0	0	0	1	blank2r.bmp	0	1	+	0	6	C2r.bmp	500	1	blank2r.bmp	800	1	BMVZ	800	1	blank2r.bmp	870	4	heiter	870	1	!	1309	1	!	-1	0	0	0	0	0	0	0	0	0	0	0	0	0	0	0	0	0	0	0	0	0	0	0	0	0	0	0
050418	10:02:30	5.0.10.0	61	CS_B	Lpleas_acq	Same	Lpleas	1pleas	acq_unple_short	acq2_short	2	19	475	1	300	300	0	0	420	50	0	1	0	0	0	1	blank2r.bmp	0	1	+	0	3	B3r.bmp	500	1	blank2r.bmp	800	1	GKQX	800	1	blank2r.bmp	870	3	töten	870	1	!	1309	1	!	1319	0	0	0	0	0	0	0	0	0	0	0	0	0	0	0	0	0	0	0	0	0	0	0	0	0	0	0
050418	10:02:30	5.0.10.0	61	CS_B	Lpleas_acq	Same	Lpleas	1pleas	acq_unple_short	acq2_short	2	20	475	0	300	300	0	0	714	50	0	1	0	0	0	1	blank2r.bmp	0	1	+	0	8	C4r.bmp	500	1	blank2r.bmp	800	1	GKQX	800	1	blank2r.bmp	870	4	elend	870	1	!	1309	1	!	-1	0	0	0	0	0	0	0	0	0	0	0	0	0	0	0	0	0	0	0	0	0	0	0	0	0	0	0
050418	10:02:30	5.0.10.0	61	CS_B	Lpleas_acq	Same	Lpleas	1pleas	acq_pleas_short	acq2_short	2	21	475	0	300	300	0	0	334	46	0	1	0	0	0	1	blank2r.bmp	0	1	+	0	1	B1r.bmp	500	1	blank2r.bmp	800	1	BMVZ	800	1	blank2r.bmp	870	3	freund	870	1	!	-1	1	!	-1	0	0	0	0	0	0	0	0	0	0	0	0	0	0	0	0	0	0	0	0	0	0	0	0	0	0	0
050418	10:02:30	5.0.10.0	61	CS_B	Lpleas_acq	Same	Lpleas	1pleas	acq_unple_short	acq2_short	2	22	475	0	300	300	0	0	349	50	0	1	0	0	0	1	blank2r.bmp	0	1	+	0	2	B2r.bmp	500	1	blank2r.bmp	800	1	GKQX	800	1	blank2r.bmp	870	2	neidisch	870	1	!	-1	1	!	-1	0	0	0	0	0	0	0	0	0	0	0	0	0	0	0	0	0	0	0	0	0	0	0	0	0	0	0
050418	10:02:30	5.0.10.0	61	CS_B	Lpleas_acq	Same	Lpleas	1pleas	acq_pleas_short	acq2_short	2	23	475	0	300	300	0	0	709	46	0	1	0	0	0	1	blank2r.bmp	0	1	+	0	4	B4r.bmp	500	1	blank2r.bmp	800	1	BMVZ	800	1	blank2r.bmp	870	1	toll	870	1	!	1309	1	!	-1	0	0	0	0	0	0	0	0	0	0	0	0	0	0	0	0	0	0	0	0	0	0	0	0	0	0	0
050418	10:02:30	5.0.10.0	61	CS_B	Lpleas_acq	Same	Lpleas	1pleas	acq_pleas_short	acq2_short	2	24	475	0	300	300	0	0	354	50	0	0	0	0	0	1	blank2r.bmp	0	1	+	0	7	C3r.bmp	500	1	blank2r.bmp	800	1	BMVZ	800	1	blank2r.bmp	870	2	schön	870	1	FEHLER	1559	1	!	-1	1	!	-1	0	0	0	0	0	0	0	0	0	0	0	0	0	0	0	0	0	0	0	0	0	0	0	0
050418	10:02:30	5.0.10.0	61	CS_B	Lpleas_acq	Same	Lpleas	1pleas	acq_unple_short	acq3_short	3	1	455	0	300	300	0	0	534	46	0	0	0	0	0	1	blank2r.bmp	0	1	+	0	2	B2r.bmp	500	1	blank2r.bmp	800	1	GKQX	800	1	blank2r.bmp	870	6	leiden	870	1	FEHLER	1739	1	!	1289	1	!	-1	0	0	0	0	0	0	0	0	0	0	0	0	0	0	0	0	0	0	0	0	0	0	0	0
050418	10:02:30	5.0.10.0	61	CS_B	Lpleas_acq	Same	Lpleas	1pleas	acq_pleas_short	acq3_short	3	2	455	0	300	300	0	0	4238	46	0	1	0	0	0	1	blank2r.bmp	0	1	+	0	8	C4r.bmp	500	1	blank2r.bmp	800	1	BMVZ	800	1	blank2r.bmp	870	6	froh	870	1	!	1289	1	!	-1	0	0	0	0	0	0	0	0	0	0	0	0	0	0	0	0	0	0	0	0	0	0	0	0	0	0	0
050418	10:02:30	5.0.10.0	61	CS_B	Lpleas_acq	Same	Lpleas	1pleas	acq_unple_short	acq3_short	3	3	455	0	300	300	0	0	376	46	0	0	0	0	0	1	blank2r.bmp	0	1	+	0	7	C3r.bmp	500	1	blank2r.bmp	800	1	GKQX	800	1	blank2r.bmp	870	2	neidisch	870	1	FEHLER	1579	1	!	-1	1	!	-1	0	0	0	0	0	0	0	0	0	0	0	0	0	0	0	0	0	0	0	0	0	0	0	0
050418	10:02:30	5.0.10.0	61	CS_B	Lpleas_acq	Same	Lpleas	1pleas	acq_pleas_short	acq3_short	3	4	455	1	300	300	0	0	400	46	0	1	0	0	0	1	blank2r.bmp	0	1	+	0	6	C2r.bmp	500	1	blank2r.bmp	800	1	BMVZ	800	1	blank2r.bmp	870	4	heiter	870	1	!	1289	1	!	1299	0	0	0	0	0	0	0	0	0	0	0	0	0	0	0	0	0	0	0	0	0	0	0	0	0	0	0
050418	10:02:30	5.0.10.0	61	CS_B	Lpleas_acq	Same	Lpleas	1pleas	acq_unple_short	acq3_short	3	5	455	0	300	300	0	0	529	50	0	1	0	0	0	1	blank2r.bmp	0	1	+	0	1	B1r.bmp	500	1	blank2r.bmp	800	1	GKQX	800	1	blank2r.bmp	870	4	elend	870	1	!	1289	1	!	-1	0	0	0	0	0	0	0	0	0	0	0	0	0	0	0	0	0	0	0	0	0	0	0	0	0	0	0
050418	10:02:30	5.0.10.0	61	CS_B	Lpleas_acq	Same	Lpleas	1pleas	acq_pleas_short	acq3_short	3	6	455	1	300	300	0	0	499	46	0	1	0	0	0	1	blank2r.bmp	0	1	+	0	5	C1r.bmp	500	1	blank2r.bmp	800	1	BMVZ	800	1	blank2r.bmp	870	1	toll	870	1	!	1289	1	!	1389	0	0	0	0	0	0	0	0	0	0	0	0	0	0	0	0	0	0	0	0	0	0	0	0	0	0	0
050418	10:02:30	5.0.10.0	61	CS_B	Lpleas_acq	Same	Lpleas	1pleas	acq_unple_short	acq3_short	3	7	455	0	300	300	0	0	636	50	0	1	0	0	0	1	blank2r.bmp	0	1	+	0	3	B3r.bmp	500	1	blank2r.bmp	800	1	GKQX	800	1	blank2r.bmp	870	1	unfair	870	1	!	1289	1	!	-1	0	0	0	0	0	0	0	0	0	0	0	0	0	0	0	0	0	0	0	0	0	0	0	0	0	0	0
050418	10:02:30	5.0.10.0	61	CS_B	Lpleas_acq	Same	Lpleas	1pleas	acq_pleas_short	acq3_short	3	8	455	0	300	300	0	0	367	46	0	1	0	0	0	1	blank2r.bmp	0	1	+	0	4	B4r.bmp	500	1	blank2r.bmp	800	1	BMVZ	800	1	blank2r.bmp	870	3	freund	870	1	!	-1	1	!	-1	0	0	0	0	0	0	0	0	0	0	0	0	0	0	0	0	0	0	0	0	0	0	0	0	0	0	0
050418	10:02:30	5.0.10.0	61	CS_B	Lpleas_acq	Same	Lpleas	1pleas	acq_pleas_short	acq3_short	3	9	455	1	300	300	0	0	490	50	0	0	0	0	0	1	blank2r.bmp	0	1	+	0	7	C3r.bmp	500	1	blank2r.bmp	800	1	BMVZ	800	1	blank2r.bmp	870	5	friedlich	870	1	FEHLER	1709	1	!	1289	1	!	1389	0	0	0	0	0	0	0	0	0	0	0	0	0	0	0	0	0	0	0	0	0	0	0	0
050418	10:02:30	5.0.10.0	61	CS_B	Lpleas_acq	Same	Lpleas	1pleas	acq_unple_short	acq3_short	3	10	455	1	300	300	0	0	425	46	0	0	0	0	0	1	blank2r.bmp	0	1	+	0	2	B2r.bmp	500	1	blank2r.bmp	800	1	GKQX	800	1	blank2r.bmp	870	5	schlecht	870	1	FEHLER	1639	1	!	1289	1	!	1319	0	0	0	0	0	0	0	0	0	0	0	0	0	0	0	0	0	0	0	0	0	0	0	0
050418	10:02:30	5.0.10.0	61	CS_B	Lpleas_acq	Same	Lpleas	1pleas	acq_unple_short	acq3_short	3	11	455	0	300	300	0	0	602	50	0	1	0	0	0	1	blank2r.bmp	0	1	+	0	8	C4r.bmp	500	1	blank2r.bmp	800	1	GKQX	800	1	blank2r.bmp	870	3	töten	870	1	!	1289	1	!	-1	0	0	0	0	0	0	0	0	0	0	0	0	0	0	0	0	0	0	0	0	0	0	0	0	0	0	0
050418	10:02:30	5.0.10.0	61	CS_B	Lpleas_acq	Same	Lpleas	1pleas	acq_pleas_short	acq3_short	3	12	455	0	300	300	0	0	359	46	0	1	0	0	0	1	blank2r.bmp	0	1	+	0	3	B3r.bmp	500	1	blank2r.bmp	800	1	BMVZ	800	1	blank2r.bmp	870	2	schön	870	1	!	-1	1	!	-1	0	0	0	0	0	0	0	0	0	0	0	0	0	0	0	0	0	0	0	0	0	0	0	0	0	0	0
050418	10:02:30	5.0.10.0	61	CS_B	Lpleas_acq	Same	Lpleas	1pleas	acq_unple_short	acq3_short	3	13	455	0	300	300	0	0	380	50	0	1	0	0	0	1	blank2r.bmp	0	1	+	0	4	B4r.bmp	500	1	blank2r.bmp	800	1	GKQX	800	1	blank2r.bmp	870	6	leiden	870	1	!	-1	1	!	-1	0	0	0	0	0	0	0	0	0	0	0	0	0	0	0	0	0	0	0	0	0	0	0	0	0	0	0
050418	10:02:30	5.0.10.0	61	CS_B	Lpleas_acq	Same	Lpleas	1pleas	acq_pleas_short	acq3_short	3	14	455	1	300	300	0	0	400	46	0	1	0	0	0	1	blank2r.bmp	0	1	+	0	6	C2r.bmp	500	1	blank2r.bmp	800	1	BMVZ	800	1	blank2r.bmp	870	1	toll	870	1	!	1289	1	!	1299	0	0	0	0	0	0	0	0	0	0	0	0	0	0	0	0	0	0	0	0	0	0	0	0	0	0	0
050418	10:02:30	5.0.10.0	61	CS_B	Lpleas_acq	Same	Lpleas	1pleas	acq_pleas_short	acq3_short	3	15	455	0	300	300	0	0	552	46	0	1	0	0	0	1	blank2r.bmp	0	1	+	0	1	B1r.bmp	500	1	blank2r.bmp	800	1	BMVZ	800	1	blank2r.bmp	870	4	heiter	870	1	!	1289	1	!	-1	0	0	0	0	0	0	0	0	0	0	0	0	0	0	0	0	0	0	0	0	0	0	0	0	0	0	0
050418	10:02:30	5.0.10.0	61	CS_B	Lpleas_acq	Same	Lpleas	1pleas	acq_unple_short	acq3_short	3	16	455	0	300	300	0	0	314	46	0	0	0	0	0	1	blank2r.bmp	0	1	+	0	5	C1r.bmp	500	1	blank2r.bmp	800	1	GKQX	800	1	blank2r.bmp	870	1	unfair	870	1	FEHLER	1519	1	!	-1	1	!	-1	0	0	0	0	0	0	0	0	0	0	0	0	0	0	0	0	0	0	0	0	0	0	0	0
050418	10:02:30	5.0.10.0	61	CS_B	Lpleas_acq	Same	Lpleas	1pleas	acq_pleas_short	acq3_short	3	17	455	1	300	300	0	0	463	50	0	0	0	0	0	1	blank2r.bmp	0	1	+	0	3	B3r.bmp	500	1	blank2r.bmp	800	1	BMVZ	800	1	blank2r.bmp	870	2	schön	870	1	FEHLER	1679	1	!	1289	1	!	1359	0	0	0	0	0	0	0	0	0	0	0	0	0	0	0	0	0	0	0	0	0	0	0	0
050418	10:02:30	5.0.10.0	61	CS_B	Lpleas_acq	Same	Lpleas	1pleas	acq_unple_short	acq3_short	3	18	455	0	300	300	0	0	3675	50	0	1	0	0	0	1	blank2r.bmp	0	1	+	0	8	C4r.bmp	500	1	blank2r.bmp	800	1	GKQX	800	1	blank2r.bmp	870	5	schlecht	870	1	!	1289	1	!	-1	0	0	0	0	0	0	0	0	0	0	0	0	0	0	0	0	0	0	0	0	0	0	0	0	0	0	0
050418	10:02:30	5.0.10.0	61	CS_B	Lpleas_acq	Same	Lpleas	1pleas	acq_unple_short	acq3_short	3	19	455	0	300	300	0	0	333	46	0	0	0	0	0	1	blank2r.bmp	0	1	+	0	2	B2r.bmp	500	1	blank2r.bmp	800	1	GKQX	800	1	blank2r.bmp	870	4	elend	870	1	FEHLER	1539	1	!	-1	1	!	-1	0	0	0	0	0	0	0	0	0	0	0	0	0	0	0	0	0	0	0	0	0	0	0	0
050418	10:02:30	5.0.10.0	61	CS_B	Lpleas_acq	Same	Lpleas	1pleas	acq_unple_short	acq3_short	3	20	455	0	300	300	0	0	639	50	0	1	0	0	0	1	blank2r.bmp	0	1	+	0	7	C3r.bmp	500	1	blank2r.bmp	800	1	GKQX	800	1	blank2r.bmp	870	2	neidisch	870	1	!	1289	1	!	-1	0	0	0	0	0	0	0	0	0	0	0	0	0	0	0	0	0	0	0	0	0	0	0	0	0	0	0
050418	10:02:30	5.0.10.0	61	CS_B	Lpleas_acq	Same	Lpleas	1pleas	acq_pleas_short	acq3_short	3	21	455	0	300	300	0	0	1882	50	0	0	0	0	0	1	blank2r.bmp	0	1	+	0	6	C2r.bmp	500	1	blank2r.bmp	800	1	BMVZ	800	1	blank2r.bmp	870	3	freund	870	1	FEHLER	3089	1	!	1289	1	!	-1	0	0	0	0	0	0	0	0	0	0	0	0	0	0	0	0	0	0	0	0	0	0	0	0
050418	10:02:30	5.0.10.0	61	CS_B	Lpleas_acq	Same	Lpleas	1pleas	acq_unple_short	acq3_short	3	22	455	1	300	300	0	0	453	50	0	1	0	0	0	1	blank2r.bmp	0	1	+	0	1	B1r.bmp	500	1	blank2r.bmp	800	1	GKQX	800	1	blank2r.bmp	870	3	töten	870	1	!	1289	1	!	1349	0	0	0	0	0	0	0	0	0	0	0	0	0	0	0	0	0	0	0	0	0	0	0	0	0	0	0
050418	10:02:30	5.0.10.0	61	CS_B	Lpleas_acq	Same	Lpleas	1pleas	acq_unple_short	acq3_short	3	23	455	1	300	300	0	0	480	46	0	0	0	0	0	1	blank2r.bmp	0	1	+	0	4	B4r.bmp	500	1	blank2r.bmp	800	1	GKQX	800	1	blank2r.bmp	870	2	neidisch	870	1	FEHLER	1699	1	!	1289	1	!	1379	0	0	0	0	0	0	0	0	0	0	0	0	0	0	0	0	0	0	0	0	0	0	0	0
050418	10:02:30	5.0.10.0	61	CS_B	Lpleas_acq	Same	Lpleas	1pleas	acq_unple_short	acq3_short	3	24	455	1	300	300	0	0	464	50	0	1	0	0	0	1	blank2r.bmp	0	1	+	0	5	C1r.bmp	500	1	blank2r.bmp	800	1	GKQX	800	1	blank2r.bmp	870	6	leiden	870	1	!	1289	1	!	1359	0	0	0	0	0	0	0	0	0	0	0	0	0	0	0	0	0	0	0	0	0	0	0	0	0	0	0
050418	10:02:30	5.0.10.0	61	CS_B	Lpleas_acq	Same	Lpleas	1pleas	acq_unple_short	acq3_short	3	25	455	0	300	300	0	0	378	50	0	1	0	0	0	1	blank2r.bmp	0	1	+	0	6	C2r.bmp	500	1	blank2r.bmp	800	1	GKQX	800	1	blank2r.bmp	870	4	elend	870	1	!	-1	1	!	-1	0	0	0	0	0	0	0	0	0	0	0	0	0	0	0	0	0	0	0	0	0	0	0	0	0	0	0
050418	10:02:30	5.0.10.0	61	CS_B	Lpleas_acq	Same	Lpleas	1pleas	acq_pleas_short	acq3_short	3	26	455	1	300	300	0	0	435	46	0	1	0	0	0	1	blank2r.bmp	0	1	+	0	5	C1r.bmp	500	1	blank2r.bmp	800	1	BMVZ	800	1	blank2r.bmp	870	5	friedlich	870	1	!	1289	1	!	1329	0	0	0	0	0	0	0	0	0	0	0	0	0	0	0	0	0	0	0	0	0	0	0	0	0	0	0
050418	10:02:30	5.0.10.0	61	CS_B	Lpleas_acq	Same	Lpleas	1pleas	acq_pleas_short	acq3_short	3	27	455	0	300	300	0	0	355	46	0	1	0	0	0	1	blank2r.bmp	0	1	+	0	8	C4r.bmp	500	1	blank2r.bmp	800	1	BMVZ	800	1	blank2r.bmp	870	6	froh	870	1	!	-1	1	!	-1	0	0	0	0	0	0	0	0	0	0	0	0	0	0	0	0	0	0	0	0	0	0	0	0	0	0	0
050418	10:02:30	5.0.10.0	61	CS_B	Lpleas_acq	Same	Lpleas	1pleas	acq_unple_short	acq3_short	3	28	455	0	300	300	0	0	325	46	0	0	0	0	0	1	blank2r.bmp	0	1	+	0	7	C3r.bmp	500	1	blank2r.bmp	800	1	GKQX	800	1	blank2r.bmp	870	3	töten	870	1	FEHLER	1529	1	!	-1	1	!	-1	0	0	0	0	0	0	0	0	0	0	0	0	0	0	0	0	0	0	0	0	0	0	0	0
050418	10:02:30	5.0.10.0	61	CS_B	Lpleas_acq	Same	Lpleas	1pleas	acq_pleas_short	acq3_short	3	29	455	0	300	300	0	0	2529	46	0	1	0	0	0	1	blank2r.bmp	0	1	+	0	2	B2r.bmp	500	1	blank2r.bmp	800	1	BMVZ	800	1	blank2r.bmp	870	5	friedlich	870	1	!	1289	1	!	-1	0	0	0	0	0	0	0	0	0	0	0	0	0	0	0	0	0	0	0	0	0	0	0	0	0	0	0
050418	10:02:30	5.0.10.0	61	CS_B	Lpleas_acq	Same	Lpleas	1pleas	acq_pleas_short	acq3_short	3	30	455	0	300	300	0	0	376	46	0	1	0	0	0	1	blank2r.bmp	0	1	+	0	3	B3r.bmp	500	1	blank2r.bmp	800	1	BMVZ	800	1	blank2r.bmp	870	6	froh	870	1	!	-1	1	!	-1	0	0	0	0	0	0	0	0	0	0	0	0	0	0	0	0	0	0	0	0	0	0	0	0	0	0	0
050418	10:02:30	5.0.10.0	61	CS_B	Lpleas_acq	Same	Lpleas	1pleas	acq_pleas_short	acq3_short	3	31	455	0	300	300	0	0	600	46	0	1	0	0	0	1	blank2r.bmp	0	1	+	0	1	B1r.bmp	500	1	blank2r.bmp	800	1	BMVZ	800	1	blank2r.bmp	870	2	schön	870	1	!	1289	1	!	-1	0	0	0	0	0	0	0	0	0	0	0	0	0	0	0	0	0	0	0	0	0	0	0	0	0	0	0
050418	10:02:30	5.0.10.0	61	CS_B	Lpleas_acq	Same	Lpleas	1pleas	acq_pleas_short	acq3_short	3	32	455	1	300	300	0	0	467	46	0	1	0	0	0	1	blank2r.bmp	0	1	+	0	4	B4r.bmp	500	1	blank2r.bmp	800	1	BMVZ	800	1	blank2r.bmp	870	4	heiter	870	1	!	1289	1	!	1359	0	0	0	0	0	0	0	0	0	0	0	0	0	0	0	0	0	0	0	0	0	0	0	0	0	0	0
050418	10:02:30	5.0.10.0	61	CS_B	Lpleas_acq	Same	Lpleas	1pleas	acq_pleas_short	acq3_short	3	33	455	0	300	300	0	0	311	46	0	1	0	0	0	1	blank2r.bmp	0	1	+	0	2	B2r.bmp	500	1	blank2r.bmp	800	1	BMVZ	800	1	blank2r.bmp	870	1	toll	870	1	!	-1	1	!	-1	0	0	0	0	0	0	0	0	0	0	0	0	0	0	0	0	0	0	0	0	0	0	0	0	0	0	0
050418	10:02:30	5.0.10.0	61	CS_B	Lpleas_acq	Same	Lpleas	1pleas	acq_pleas_short	acq3_short	3	34	455	0	300	300	0	0	3538	46	0	1	0	0	0	1	blank2r.bmp	0	1	+	0	7	C3r.bmp	500	1	blank2r.bmp	800	1	BMVZ	800	1	blank2r.bmp	870	3	freund	870	1	!	1289	1	!	-1	0	0	0	0	0	0	0	0	0	0	0	0	0	0	0	0	0	0	0	0	0	0	0	0	0	0	0
050418	10:02:30	5.0.10.0	61	CS_B	Lpleas_acq	Same	Lpleas	1pleas	acq_pleas_short	acq3_short	3	35	455	0	300	300	0	0	377	46	0	1	0	0	0	1	blank2r.bmp	0	1	+	0	8	C4r.bmp	500	1	blank2r.bmp	800	1	BMVZ	800	1	blank2r.bmp	870	3	freund	870	1	!	-1	1	!	-1	0	0	0	0	0	0	0	0	0	0	0	0	0	0	0	0	0	0	0	0	0	0	0	0	0	0	0
050418	10:02:30	5.0.10.0	61	CS_B	Lpleas_acq	Same	Lpleas	1pleas	acq_pleas_short	acq3_short	3	36	455	0	300	300	0	0	305	50	0	0	0	0	0	1	blank2r.bmp	0	1	+	0	5	C1r.bmp	500	1	blank2r.bmp	800	1	BMVZ	800	1	blank2r.bmp	870	4	heiter	870	1	FEHLER	1509	1	!	-1	1	!	-1	0	0	0	0	0	0	0	0	0	0	0	0	0	0	0	0	0	0	0	0	0	0	0	0
050418	10:02:30	5.0.10.0	61	CS_B	Lpleas_acq	Same	Lpleas	1pleas	acq_unple_short	acq3_short	3	37	455	0	300	300	0	0	2160	50	0	1	0	0	0	1	blank2r.bmp	0	1	+	0	1	B1r.bmp	500	1	blank2r.bmp	800	1	GKQX	800	1	blank2r.bmp	870	1	unfair	870	1	!	1289	1	!	-1	0	0	0	0	0	0	0	0	0	0	0	0	0	0	0	0	0	0	0	0	0	0	0	0	0	0	0
050418	10:02:30	5.0.10.0	61	CS_B	Lpleas_acq	Same	Lpleas	1pleas	acq_pleas_short	acq3_short	3	38	455	0	300	300	0	0	301	50	0	0	0	0	0	1	blank2r.bmp	0	1	+	0	3	B3r.bmp	500	1	blank2r.bmp	800	1	BMVZ	800	1	blank2r.bmp	870	6	froh	870	1	FEHLER	1509	1	!	-1	1	!	-1	0	0	0	0	0	0	0	0	0	0	0	0	0	0	0	0	0	0	0	0	0	0	0	0
050418	10:02:30	5.0.10.0	61	CS_B	Lpleas_acq	Same	Lpleas	1pleas	acq_unple_short	acq3_short	3	39	455	0	300	300	0	0	1369	50	0	1	0	0	0	1	blank2r.bmp	0	1	+	0	6	C2r.bmp	500	1	blank2r.bmp	800	1	GKQX	800	1	blank2r.bmp	870	5	schlecht	870	1	!	1289	1	!	-1	0	0	0	0	0	0	0	0	0	0	0	0	0	0	0	0	0	0	0	0	0	0	0	0	0	0	0
050418	10:02:30	5.0.10.0	61	CS_B	Lpleas_acq	Same	Lpleas	1pleas	acq_unple_short	acq3_short	3	40	455	0	300	300	0	0	191	46	0	0	0	0	0	1	blank2r.bmp	0	1	+	0	4	B4r.bmp	500	1	blank2r.bmp	800	1	GKQX	800	1	blank2r.bmp	870	1	unfair	870	1	FEHLER	1399	1	!	-1	1	!	-1	0	0	0	0	0	0	0	0	0	0	0	0	0	0	0	0	0	0	0	0	0	0	0	0
050418	10:02:30	5.0.10.0	61	CS_B	Lpleas_acq	Same	Lpleas	1pleas	acq_pleas_short	acq3_short	3	41	455	0	300	300	0	0	1488	46	0	1	0	0	0	1	blank2r.bmp	0	1	+	0	4	B4r.bmp	500	1	blank2r.bmp	800	1	BMVZ	800	1	blank2r.bmp	870	1	toll	870	1	!	1289	1	!	-1	0	0	0	0	0	0	0	0	0	0	0	0	0	0	0	0	0	0	0	0	0	0	0	0	0	0	0
050418	10:02:30	5.0.10.0	61	CS_B	Lpleas_acq	Same	Lpleas	1pleas	acq_unple_short	acq3_short	3	42	455	0	300	300	0	0	128	46	0	0	0	0	0	1	blank2r.bmp	0	1	+	0	1	B1r.bmp	500	1	blank2r.bmp	800	1	GKQX	800	1	blank2r.bmp	870	4	elend	870	1	FEHLER	1329	1	!	-1	1	!	-1	0	0	0	0	0	0	0	0	0	0	0	0	0	0	0	0	0	0	0	0	0	0	0	0
050418	10:02:30	5.0.10.0	61	CS_B	Lpleas_acq	Same	Lpleas	1pleas	acq_pleas_short	acq3_short	3	43	455	0	300	300	0	0	4038	46	0	1	0	0	0	1	blank2r.bmp	0	1	+	0	6	C2r.bmp	500	1	blank2r.bmp	800	1	BMVZ	800	1	blank2r.bmp	870	2	schön	870	1	!	1289	1	!	-1	0	0	0	0	0	0	0	0	0	0	0	0	0	0	0	0	0	0	0	0	0	0	0	0	0	0	0
050418	10:02:30	5.0.10.0	61	CS_B	Lpleas_acq	Same	Lpleas	1pleas	acq_unple_short	acq3_short	3	44	455	0	300	300	0	0	1157	50	0	1	0	0	0	1	blank2r.bmp	0	1	+	0	2	B2r.bmp	500	1	blank2r.bmp	800	1	GKQX	800	1	blank2r.bmp	870	6	leiden	870	1	!	1289	1	!	-1	0	0	0	0	0	0	0	0	0	0	0	0	0	0	0	0	0	0	0	0	0	0	0	0	0	0	0
050418	10:02:30	5.0.10.0	61	CS_B	Lpleas_acq	Same	Lpleas	1pleas	acq_pleas_short	acq3_short	3	45	455	1	300	300	0	0	520	46	0	1	0	0	0	1	blank2r.bmp	0	1	+	0	3	B3r.bmp	500	1	blank2r.bmp	800	1	BMVZ	800	1	blank2r.bmp	870	5	friedlich	870	1	!	1289	1	!	1419	0	0	0	0	0	0	0	0	0	0	0	0	0	0	0	0	0	0	0	0	0	0	0	0	0	0	0
050418	10:02:30	5.0.10.0	61	CS_B	Lpleas_acq	Same	Lpleas	1pleas	acq_unple_short	acq3_short	3	46	455	1	300	300	0	0	489	50	0	1	0	0	0	1	blank2r.bmp	0	1	+	0	8	C4r.bmp	500	1	blank2r.bmp	800	1	GKQX	800	1	blank2r.bmp	870	2	neidisch	870	1	!	1289	1	!	1389	0	0	0	0	0	0	0	0	0	0	0	0	0	0	0	0	0	0	0	0	0	0	0	0	0	0	0
050418	10:02:30	5.0.10.0	61	CS_B	Lpleas_acq	Same	Lpleas	1pleas	acq_unple_short	acq3_short	3	47	455	0	300	300	0	0	373	46	0	0	0	0	0	1	blank2r.bmp	0	1	+	0	7	C3r.bmp	500	1	blank2r.bmp	800	1	GKQX	800	1	blank2r.bmp	870	3	töten	870	1	FEHLER	1579	1	!	-1	1	!	-1	0	0	0	0	0	0	0	0	0	0	0	0	0	0	0	0	0	0	0	0	0	0	0	0
050418	10:02:30	5.0.10.0	61	CS_B	Lpleas_acq	Same	Lpleas	1pleas	acq_unple_short	acq3_short	3	48	455	1	300	300	0	0	400	50	0	1	0	0	0	1	blank2r.bmp	0	1	+	0	5	C1r.bmp	500	1	blank2r.bmp	800	1	GKQX	800	1	blank2r.bmp	870	5	schlecht	870	1	!	1289	1	!	1299	0	0	0	0	0	0	0	0	0	0	0	0	0	0	0	0	0	0	0	0	0	0	0	0	0	0	0
050418	10:02:30	5.0.10.0	61	CS_B	Lpleas_acq	Same	Lpleas	1pleas	acq_unple_short	acq45_short	4	1	405	0	300	300	0	0	1718	50	0	1	0	0	0	1	blank2r.bmp	0	1	+	0	6	C2r.bmp	500	1	blank2r.bmp	800	1	GKQX	800	1	blank2r.bmp	870	3	töten	870	1	!	1239	1	!	-1	0	0	0	0	0	0	0	0	0	0	0	0	0	0	0	0	0	0	0	0	0	0	0	0	0	0	0
050418	10:02:30	5.0.10.0	61	CS_B	Lpleas_acq	Same	Lpleas	1pleas	acq_unple_short	acq45_short	4	2	405	1	300	300	0	0	391	50	0	1	0	0	0	1	blank2r.bmp	0	1	+	0	8	C4r.bmp	500	1	blank2r.bmp	800	1	GKQX	800	1	blank2r.bmp	870	2	neidisch	870	1	!	1239	1	!	1289	0	0	0	0	0	0	0	0	0	0	0	0	0	0	0	0	0	0	0	0	0	0	0	0	0	0	0
050418	10:02:30	5.0.10.0	61	CS_B	Lpleas_acq	Same	Lpleas	1pleas	acq_unple_short	acq45_short	4	3	405	0	300	300	0	0	578	50	0	1	0	0	0	1	blank2r.bmp	0	1	+	0	4	B4r.bmp	500	1	blank2r.bmp	800	1	GKQX	800	1	blank2r.bmp	870	4	elend	870	1	!	1240	1	!	-1	0	0	0	0	0	0	0	0	0	0	0	0	0	0	0	0	0	0	0	0	0	0	0	0	0	0	0
050418	10:02:30	5.0.10.0	61	CS_B	Lpleas_acq	Same	Lpleas	1pleas	acq_unple_short	acq45_short	4	4	405	1	300	300	0	0	426	50	0	1	0	0	0	1	blank2r.bmp	0	1	+	0	5	C1r.bmp	500	1	blank2r.bmp	800	1	GKQX	800	1	blank2r.bmp	870	1	unfair	870	1	!	1239	1	!	1319	0	0	0	0	0	0	0	0	0	0	0	0	0	0	0	0	0	0	0	0	0	0	0	0	0	0	0
050418	10:02:30	5.0.10.0	61	CS_B	Lpleas_acq	Same	Lpleas	1pleas	acq_pleas_short	acq45_short	4	5	405	0	300	300	0	0	480	46	0	1	0	0	0	1	blank2r.bmp	0	1	+	0	1	B1r.bmp	500	1	blank2r.bmp	800	1	BMVZ	800	1	blank2r.bmp	870	3	freund	870	1	!	1239	1	!	-1	0	0	0	0	0	0	0	0	0	0	0	0	0	0	0	0	0	0	0	0	0	0	0	0	0	0	0
050418	10:02:30	5.0.10.0	61	CS_B	Lpleas_acq	Same	Lpleas	1pleas	acq_unple_short	acq45_short	4	6	405	0	300	300	0	0	1715	50	0	1	0	0	0	1	blank2r.bmp	0	1	+	0	3	B3r.bmp	500	1	blank2r.bmp	800	1	GKQX	800	1	blank2r.bmp	870	6	leiden	870	1	!	1239	1	!	-1	0	0	0	0	0	0	0	0	0	0	0	0	0	0	0	0	0	0	0	0	0	0	0	0	0	0	0
050418	10:02:30	5.0.10.0	61	CS_B	Lpleas_acq	Same	Lpleas	1pleas	acq_unple_short	acq45_short	4	7	405	1	300	300	0	0	373	50	0	1	0	0	0	1	blank2r.bmp	0	1	+	0	7	C3r.bmp	500	1	blank2r.bmp	800	1	GKQX	800	1	blank2r.bmp	870	5	schlecht	870	1	!	1239	1	!	1269	0	0	0	0	0	0	0	0	0	0	0	0	0	0	0	0	0	0	0	0	0	0	0	0	0	0	0
050418	10:02:30	5.0.10.0	61	CS_B	Lpleas_acq	Same	Lpleas	1pleas	acq_pleas_short	acq45_short	4	8	405	1	300	300	0	0	443	46	0	1	0	0	0	1	blank2r.bmp	0	1	+	0	2	B2r.bmp	500	1	blank2r.bmp	800	1	BMVZ	800	1	blank2r.bmp	870	1	toll	870	1	!	1239	1	!	1339	0	0	0	0	0	0	0	0	0	0	0	0	0	0	0	0	0	0	0	0	0	0	0	0	0	0	0
050418	10:02:30	5.0.10.0	61	CS_B	Lpleas_acq	Same	Lpleas	1pleas	acq_pleas_short	acq45_short	4	9	405	1	300	300	0	0	375	46	0	1	0	0	0	1	blank2r.bmp	0	1	+	0	4	B4r.bmp	500	1	blank2r.bmp	800	1	BMVZ	800	1	blank2r.bmp	870	6	froh	870	1	!	1239	1	!	1269	0	0	0	0	0	0	0	0	0	0	0	0	0	0	0	0	0	0	0	0	0	0	0	0	0	0	0
050418	10:02:30	5.0.10.0	61	CS_B	Lpleas_acq	Same	Lpleas	1pleas	acq_pleas_short	acq45_short	4	10	405	1	300	300	0	0	455	46	0	1	0	0	0	1	blank2r.bmp	0	1	+	0	2	B2r.bmp	500	1	blank2r.bmp	800	1	BMVZ	800	1	blank2r.bmp	870	2	schön	870	1	!	1239	1	!	1349	0	0	0	0	0	0	0	0	0	0	0	0	0	0	0	0	0	0	0	0	0	0	0	0	0	0	0
050418	10:02:30	5.0.10.0	61	CS_B	Lpleas_acq	Same	Lpleas	1pleas	acq_pleas_short	acq45_short	4	11	405	0	300	300	0	0	486	46	0	1	0	0	0	1	blank2r.bmp	0	1	+	0	6	C2r.bmp	500	1	blank2r.bmp	800	1	BMVZ	800	1	blank2r.bmp	870	4	heiter	870	1	!	1239	1	!	-1	0	0	0	0	0	0	0	0	0	0	0	0	0	0	0	0	0	0	0	0	0	0	0	0	0	0	0
050418	10:02:30	5.0.10.0	61	CS_B	Lpleas_acq	Same	Lpleas	1pleas	acq_unple_short	acq45_short	4	12	405	0	300	300	0	0	615	50	0	1	0	0	0	1	blank2r.bmp	0	1	+	0	8	C4r.bmp	500	1	blank2r.bmp	800	1	GKQX	800	1	blank2r.bmp	870	6	leiden	870	1	!	1239	1	!	-1	0	0	0	0	0	0	0	0	0	0	0	0	0	0	0	0	0	0	0	0	0	0	0	0	0	0	0
050418	10:02:30	5.0.10.0	61	CS_B	Lpleas_acq	Same	Lpleas	1pleas	acq_pleas_short	acq45_short	4	13	405	0	300	300	0	0	3649	50	0	0	0	0	0	1	blank2r.bmp	0	1	+	0	7	C3r.bmp	500	1	blank2r.bmp	800	1	BMVZ	800	1	blank2r.bmp	870	5	friedlich	870	1	!	1239	1	!	-1	0	0	0	0	0	0	0	0	0	0	0	0	0	0	0	0	0	0	0	0	0	0	0	0	0	0	0
050418	10:02:30	5.0.10.0	61	CS_B	Lpleas_acq	Same	Lpleas	1pleas	acq_pleas_short	acq45_short	4	14	405	0	300	300	0	0	2399	46	0	1	0	0	0	1	blank2r.bmp	0	1	+	0	3	B3r.bmp	500	1	blank2r.bmp	800	1	BMVZ	800	1	blank2r.bmp	870	5	friedlich	870	1	!	1239	1	!	-1	0	0	0	0	0	0	0	0	0	0	0	0	0	0	0	0	0	0	0	0	0	0	0	0	0	0	0
050418	10:02:30	5.0.10.0	61	CS_B	Lpleas_acq	Same	Lpleas	1pleas	acq_pleas_short	acq45_short	4	15	405	0	300	300	0	0	327	50	0	0	0	0	0	1	blank2r.bmp	0	1	+	0	1	B1r.bmp	500	1	blank2r.bmp	800	1	BMVZ	800	1	blank2r.bmp	870	4	heiter	870	1	!	-1	1	!	-1	0	0	0	0	0	0	0	0	0	0	0	0	0	0	0	0	0	0	0	0	0	0	0	0	0	0	0
050418	10:02:30	5.0.10.0	61	CS_B	Lpleas_acq	Same	Lpleas	1pleas	acq_unple_short	acq45_short	4	16	405	0	300	300	0	0	3075	50	0	1	0	0	0	1	blank2r.bmp	0	1	+	0	5	C1r.bmp	500	1	blank2r.bmp	800	1	GKQX	800	1	blank2r.bmp	870	3	töten	870	1	!	1239	1	!	-1	0	0	0	0	0	0	0	0	0	0	0	0	0	0	0	0	0	0	0	0	0	0	0	0	0	0	0
050418	10:02:30	5.0.10.0	61	CS_B	Lpleas_acq	Same	Lpleas	1pleas	acq_unple_short	acq45_short	4	17	405	1	300	300	0	0	352	46	0	0	0	0	0	1	blank2r.bmp	0	1	+	0	6	C2r.bmp	500	1	blank2r.bmp	800	1	GKQX	800	1	blank2r.bmp	870	1	unfair	870	1	!	1239	1	!	1249	0	0	0	0	0	0	0	0	0	0	0	0	0	0	0	0	0	0	0	0	0	0	0	0	0	0	0
050418	10:02:30	5.0.10.0	61	CS_B	Lpleas_acq	Same	Lpleas	1pleas	acq_unple_short	acq45_short	4	18	405	0	300	300	0	0	659	50	0	1	0	0	0	1	blank2r.bmp	0	1	+	0	8	C4r.bmp	500	1	blank2r.bmp	800	1	GKQX	800	1	blank2r.bmp	870	5	schlecht	870	1	!	1239	1	!	-1	0	0	0	0	0	0	0	0	0	0	0	0	0	0	0	0	0	0	0	0	0	0	0	0	0	0	0
050418	10:02:30	5.0.10.0	61	CS_B	Lpleas_acq	Same	Lpleas	1pleas	acq_unple_short	acq45_short	4	19	405	0	300	300	0	0	2183	50	0	1	0	0	0	1	blank2r.bmp	0	1	+	0	4	B4r.bmp	500	1	blank2r.bmp	800	1	GKQX	800	1	blank2r.bmp	870	4	elend	870	1	!	1239	1	!	-1	0	0	0	0	0	0	0	0	0	0	0	0	0	0	0	0	0	0	0	0	0	0	0	0	0	0	0
050418	10:02:30	5.0.10.0	61	CS_B	Lpleas_acq	Same	Lpleas	1pleas	acq_unple_short	acq45_short	4	20	405	0	300	300	0	0	303	50	0	1	0	0	0	1	blank2r.bmp	0	1	+	0	5	C1r.bmp	500	1	blank2r.bmp	800	1	GKQX	800	1	blank2r.bmp	870	2	neidisch	870	1	!	-1	1	!	-1	0	0	0	0	0	0	0	0	0	0	0	0	0	0	0	0	0	0	0	0	0	0	0	0	0	0	0
050418	10:02:30	5.0.10.0	61	CS_B	Lpleas_acq	Same	Lpleas	1pleas	acq_unple_short	acq45_short	4	21	405	1	300	300	0	0	443	46	0	0	0	0	0	1	blank2r.bmp	0	1	+	0	3	B3r.bmp	500	1	blank2r.bmp	800	1	GKQX	800	1	blank2r.bmp	870	4	elend	870	1	!	1239	1	!	1339	0	0	0	0	0	0	0	0	0	0	0	0	0	0	0	0	0	0	0	0	0	0	0	0	0	0	0
050418	10:02:30	5.0.10.0	61	CS_B	Lpleas_acq	Same	Lpleas	1pleas	acq_pleas_short	acq45_short	4	22	405	1	300	300	0	0	350	50	0	0	0	0	0	1	blank2r.bmp	0	1	+	0	1	B1r.bmp	500	1	blank2r.bmp	800	1	BMVZ	800	1	blank2r.bmp	870	1	toll	870	1	!	1239	1	!	1249	0	0	0	0	0	0	0	0	0	0	0	0	0	0	0	0	0	0	0	0	0	0	0	0	0	0	0
050418	10:02:30	5.0.10.0	61	CS_B	Lpleas_acq	Same	Lpleas	1pleas	acq_pleas_short	acq45_short	4	23	405	0	300	300	0	0	3757	46	0	1	0	0	0	1	blank2r.bmp	0	1	+	0	2	B2r.bmp	500	1	blank2r.bmp	800	1	BMVZ	800	1	blank2r.bmp	870	6	froh	870	1	!	1239	1	!	-1	0	0	0	0	0	0	0	0	0	0	0	0	0	0	0	0	0	0	0	0	0	0	0	0	0	0	0
050418	10:02:30	5.0.10.0	61	CS_B	Lpleas_acq	Same	Lpleas	1pleas	acq_pleas_short	acq45_short	4	24	405	0	300	300	0	0	484	46	0	1	0	0	0	1	blank2r.bmp	0	1	+	0	7	C3r.bmp	500	1	blank2r.bmp	800	1	BMVZ	800	1	blank2r.bmp	870	3	freund	870	1	!	1239	1	!	-1	0	0	0	0	0	0	0	0	0	0	0	0	0	0	0	0	0	0	0	0	0	0	0	0	0	0	0
050418	10:02:30	5.0.10.0	61	CS_B	Lpleas_acq	Same	Lpleas	1pleas	acq_pleas_short	acq45_short	4	25	405	1	300	300	0	0	350	46	0	1	0	0	0	1	blank2r.bmp	0	1	+	0	3	B3r.bmp	500	1	blank2r.bmp	800	1	BMVZ	800	1	blank2r.bmp	870	2	schön	870	1	!	1239	1	!	1249	0	0	0	0	0	0	0	0	0	0	0	0	0	0	0	0	0	0	0	0	0	0	0	0	0	0	0
050418	10:02:30	5.0.10.0	61	CS_B	Lpleas_acq	Same	Lpleas	1pleas	acq_pleas_short	acq45_short	4	26	405	0	300	300	0	0	293	46	0	1	0	0	0	1	blank2r.bmp	0	1	+	0	6	C2r.bmp	500	1	blank2r.bmp	800	1	BMVZ	800	1	blank2r.bmp	870	2	schön	870	1	!	-1	1	!	-1	0	0	0	0	0	0	0	0	0	0	0	0	0	0	0	0	0	0	0	0	0	0	0	0	0	0	0
050418	10:02:30	5.0.10.0	61	CS_B	Lpleas_acq	Same	Lpleas	1pleas	acq_pleas_short	acq45_short	4	27	405	0	300	300	0	0	316	46	0	1	0	0	0	1	blank2r.bmp	0	1	+	0	1	B1r.bmp	500	1	blank2r.bmp	800	1	BMVZ	800	1	blank2r.bmp	870	3	freund	870	1	!	-1	1	!	-1	0	0	0	0	0	0	0	0	0	0	0	0	0	0	0	0	0	0	0	0	0	0	0	0	0	0	0
050418	10:02:30	5.0.10.0	61	CS_B	Lpleas_acq	Same	Lpleas	1pleas	acq_pleas_short	acq45_short	4	28	405	0	300	300	0	0	309	46	0	1	0	0	0	1	blank2r.bmp	0	1	+	0	7	C3r.bmp	500	1	blank2r.bmp	800	1	BMVZ	800	1	blank2r.bmp	870	6	froh	870	1	!	-1	1	!	-1	0	0	0	0	0	0	0	0	0	0	0	0	0	0	0	0	0	0	0	0	0	0	0	0	0	0	0
050418	10:02:30	5.0.10.0	61	CS_B	Lpleas_acq	Same	Lpleas	1pleas	acq_unple_short	acq45_short	4	29	405	1	300	300	0	0	467	50	0	1	0	0	0	1	blank2r.bmp	0	1	+	0	5	C1r.bmp	500	1	blank2r.bmp	800	1	GKQX	800	1	blank2r.bmp	870	5	schlecht	870	1	!	1239	1	!	1359	0	0	0	0	0	0	0	0	0	0	0	0	0	0	0	0	0	0	0	0	0	0	0	0	0	0	0
050418	10:02:30	5.0.10.0	61	CS_B	Lpleas_acq	Same	Lpleas	1pleas	acq_pleas_short	acq45_short	4	30	405	0	300	300	0	0	487	46	0	1	0	0	0	1	blank2r.bmp	0	1	+	0	2	B2r.bmp	500	1	blank2r.bmp	800	1	BMVZ	800	1	blank2r.bmp	870	5	friedlich	870	1	!	1239	1	!	-1	0	0	0	0	0	0	0	0	0	0	0	0	0	0	0	0	0	0	0	0	0	0	0	0	0	0	0
050418	10:02:30	5.0.10.0	61	CS_B	Lpleas_acq	Same	Lpleas	1pleas	acq_unple_short	acq45_short	4	31	405	1	300	300	0	0	461	50	0	1	0	0	0	1	blank2r.bmp	0	1	+	0	8	C4r.bmp	500	1	blank2r.bmp	800	1	GKQX	800	1	blank2r.bmp	870	2	neidisch	870	1	!	1239	1	!	1359	0	0	0	0	0	0	0	0	0	0	0	0	0	0	0	0	0	0	0	0	0	0	0	0	0	0	0
050418	10:02:30	5.0.10.0	61	CS_B	Lpleas_acq	Same	Lpleas	1pleas	acq_unple_short	acq45_short	4	32	405	1	300	300	0	0	400	46	0	0	0	0	0	1	blank2r.bmp	0	1	+	0	4	B4r.bmp	500	1	blank2r.bmp	800	1	GKQX	800	1	blank2r.bmp	870	6	leiden	870	1	!	1239	1	!	1299	0	0	0	0	0	0	0	0	0	0	0	0	0	0	0	0	0	0	0	0	0	0	0	0	0	0	0
050418	10:02:30	5.0.10.0	61	CS_B	Lpleas_acq	Same	Lpleas	1pleas	acq_unple_short	acq45_short	4	33	405	0	300	300	0	0	329	50	0	1	0	0	0	1	blank2r.bmp	0	1	+	0	3	B3r.bmp	500	1	blank2r.bmp	800	1	GKQX	800	1	blank2r.bmp	870	3	töten	870	1	!	-1	1	!	-1	0	0	0	0	0	0	0	0	0	0	0	0	0	0	0	0	0	0	0	0	0	0	0	0	0	0	0
050418	10:02:30	5.0.10.0	61	CS_B	Lpleas_acq	Same	Lpleas	1pleas	acq_pleas_short	acq45_short	4	34	405	0	300	300	0	0	307	50	0	0	0	0	0	1	blank2r.bmp	0	1	+	0	6	C2r.bmp	500	1	blank2r.bmp	800	1	BMVZ	800	1	blank2r.bmp	870	1	toll	870	1	!	-1	1	!	-1	0	0	0	0	0	0	0	0	0	0	0	0	0	0	0	0	0	0	0	0	0	0	0	0	0	0	0
050418	10:02:30	5.0.10.0	61	CS_B	Lpleas_acq	Same	Lpleas	1pleas	acq_pleas_short	acq45_short	4	35	405	1	300	300	0	0	381	46	0	1	0	0	0	1	blank2r.bmp	0	1	+	0	4	B4r.bmp	500	1	blank2r.bmp	800	1	BMVZ	800	1	blank2r.bmp	870	4	heiter	870	1	!	1239	1	!	1279	0	0	0	0	0	0	0	0	0	0	0	0	0	0	0	0	0	0	0	0	0	0	0	0	0	0	0
050418	10:02:30	5.0.10.0	61	CS_B	Lpleas_acq	Same	Lpleas	1pleas	acq_pleas_short	acq45_short	4	36	405	0	300	300	0	0	335	50	0	0	0	0	0	1	blank2r.bmp	0	1	+	0	2	B2r.bmp	500	1	blank2r.bmp	800	1	BMVZ	800	1	blank2r.bmp	870	2	schön	870	1	!	-1	1	!	-1	0	0	0	0	0	0	0	0	0	0	0	0	0	0	0	0	0	0	0	0	0	0	0	0	0	0	0
050418	10:02:30	5.0.10.0	61	CS_B	Lpleas_acq	Same	Lpleas	1pleas	acq_pleas_short	acq45_short	4	37	405	0	300	300	0	0	309	50	0	0	0	0	0	1	blank2r.bmp	0	1	+	0	5	C1r.bmp	500	1	blank2r.bmp	800	1	BMVZ	800	1	blank2r.bmp	870	1	toll	870	1	!	-1	1	!	-1	0	0	0	0	0	0	0	0	0	0	0	0	0	0	0	0	0	0	0	0	0	0	0	0	0	0	0
050418	10:02:30	5.0.10.0	61	CS_B	Lpleas_acq	Same	Lpleas	1pleas	acq_pleas_short	acq45_short	4	38	405	0	300	300	0	0	299	46	0	1	0	0	0	1	blank2r.bmp	0	1	+	0	7	C3r.bmp	500	1	blank2r.bmp	800	1	BMVZ	800	1	blank2r.bmp	870	3	freund	870	1	!	-1	1	!	-1	0	0	0	0	0	0	0	0	0	0	0	0	0	0	0	0	0	0	0	0	0	0	0	0	0	0	0
050418	10:02:30	5.0.10.0	61	CS_B	Lpleas_acq	Same	Lpleas	1pleas	acq_unple_short	acq45_short	4	39	405	0	300	300	0	0	293	46	0	0	0	0	0	1	blank2r.bmp	0	1	+	0	1	B1r.bmp	500	1	blank2r.bmp	800	1	GKQX	800	1	blank2r.bmp	870	1	unfair	870	1	!	-1	1	!	-1	0	0	0	0	0	0	0	0	0	0	0	0	0	0	0	0	0	0	0	0	0	0	0	0	0	0	0
050418	10:02:30	5.0.10.0	61	CS_B	Lpleas_acq	Same	Lpleas	1pleas	acq_unple_short	acq45_short	4	40	405	1	300	300	0	0	415	50	0	1	0	0	0	1	blank2r.bmp	0	1	+	0	8	C4r.bmp	500	1	blank2r.bmp	800	1	GKQX	800	1	blank2r.bmp	870	2	neidisch	870	1	!	1239	1	!	1309	0	0	0	0	0	0	0	0	0	0	0	0	0	0	0	0	0	0	0	0	0	0	0	0	0	0	0
050418	10:02:30	5.0.10.0	61	CS_B	Lpleas_acq	Same	Lpleas	1pleas	acq_unple_short	acq45_short	4	41	405	1	300	300	0	0	394	50	0	1	0	0	0	1	blank2r.bmp	0	1	+	0	6	C2r.bmp	500	1	blank2r.bmp	800	1	GKQX	800	1	blank2r.bmp	870	6	leiden	870	1	!	1239	1	!	1289	0	0	0	0	0	0	0	0	0	0	0	0	0	0	0	0	0	0	0	0	0	0	0	0	0	0	0
050418	10:02:30	5.0.10.0	61	CS_B	Lpleas_acq	Same	Lpleas	1pleas	acq_pleas_short	acq45_short	4	42	405	0	300	300	0	0	603	46	0	1	0	0	0	1	blank2r.bmp	0	1	+	0	3	B3r.bmp	500	1	blank2r.bmp	800	1	BMVZ	800	1	blank2r.bmp	870	4	heiter	870	1	!	1239	1	!	-1	0	0	0	0	0	0	0	0	0	0	0	0	0	0	0	0	0	0	0	0	0	0	0	0	0	0	0
050418	10:02:30	5.0.10.0	61	CS_B	Lpleas_acq	Same	Lpleas	1pleas	acq_unple_short	acq45_short	4	43	405	0	300	300	0	0	319	50	0	1	0	0	0	1	blank2r.bmp	0	1	+	0	4	B4r.bmp	500	1	blank2r.bmp	800	1	GKQX	800	1	blank2r.bmp	870	1	unfair	870	1	!	-1	1	!	-1	0	0	0	0	0	0	0	0	0	0	0	0	0	0	0	0	0	0	0	0	0	0	0	0	0	0	0
050418	10:02:30	5.0.10.0	61	CS_B	Lpleas_acq	Same	Lpleas	1pleas	acq_unple_short	acq45_short	4	44	405	0	300	300	0	0	1273	50	0	1	0	0	0	1	blank2r.bmp	0	1	+	0	2	B2r.bmp	500	1	blank2r.bmp	800	1	GKQX	800	1	blank2r.bmp	870	3	töten	870	1	!	1239	1	!	-1	0	0	0	0	0	0	0	0	0	0	0	0	0	0	0	0	0	0	0	0	0	0	0	0	0	0	0
050418	10:02:30	5.0.10.0	61	CS_B	Lpleas_acq	Same	Lpleas	1pleas	acq_pleas_short	acq45_short	4	45	405	0	300	300	0	0	295	50	0	0	0	0	0	1	blank2r.bmp	0	1	+	0	5	C1r.bmp	500	1	blank2r.bmp	800	1	BMVZ	800	1	blank2r.bmp	870	5	friedlich	870	1	!	-1	1	!	-1	0	0	0	0	0	0	0	0	0	0	0	0	0	0	0	0	0	0	0	0	0	0	0	0	0	0	0
050418	10:02:30	5.0.10.0	61	CS_B	Lpleas_acq	Same	Lpleas	1pleas	acq_pleas_short	acq45_short	4	46	405	0	300	300	0	0	1639	46	0	1	0	0	0	1	blank2r.bmp	0	1	+	0	1	B1r.bmp	500	1	blank2r.bmp	800	1	BMVZ	800	1	blank2r.bmp	870	6	froh	870	1	!	1239	1	!	-1	0	0	0	0	0	0	0	0	0	0	0	0	0	0	0	0	0	0	0	0	0	0	0	0	0	0	0
050418	10:02:30	5.0.10.0	61	CS_B	Lpleas_acq	Same	Lpleas	1pleas	acq_unple_short	acq45_short	4	47	405	0	300	300	0	0	579	50	0	1	0	0	0	1	blank2r.bmp	0	1	+	0	7	C3r.bmp	500	1	blank2r.bmp	800	1	GKQX	800	1	blank2r.bmp	870	5	schlecht	870	1	!	1239	1	!	-1	0	0	0	0	0	0	0	0	0	0	0	0	0	0	0	0	0	0	0	0	0	0	0	0	0	0	0
050418	10:02:30	5.0.10.0	61	CS_B	Lpleas_acq	Same	Lpleas	1pleas	acq_unple_short	acq45_short	4	48	405	0	300	300	0	0	309	50	0	1	0	0	0	1	blank2r.bmp	0	1	+	0	8	C4r.bmp	500	1	blank2r.bmp	800	1	GKQX	800	1	blank2r.bmp	870	4	elend	870	1	!	-1	1	!	-1	0	0	0	0	0	0	0	0	0	0	0	0	0	0	0	0	0	0	0	0	0	0	0	0	0	0	0
050418	10:02:30	5.0.10.0	61	CS_B	Lpleas_acq	Same	Lpleas	1pleas	acq_unple_short	acq45_short	5	1	405	0	300	300	0	0	484	50	0	1	0	0	0	1	blank2r.bmp	0	1	+	0	7	C3r.bmp	500	1	blank2r.bmp	800	1	GKQX	800	1	blank2r.bmp	870	3	töten	870	1	!	1239	1	!	-1	0	0	0	0	0	0	0	0	0	0	0	0	0	0	0	0	0	0	0	0	0	0	0	0	0	0	0
050418	10:02:30	5.0.10.0	61	CS_B	Lpleas_acq	Same	Lpleas	1pleas	acq_unple_short	acq45_short	5	2	405	1	300	300	0	0	388	50	0	1	0	0	0	1	blank2r.bmp	0	1	+	0	8	C4r.bmp	500	1	blank2r.bmp	800	1	GKQX	800	1	blank2r.bmp	870	2	neidisch	870	1	!	1239	1	!	1279	0	0	0	0	0	0	0	0	0	0	0	0	0	0	0	0	0	0	0	0	0	0	0	0	0	0	0
050418	10:02:30	5.0.10.0	61	CS_B	Lpleas_acq	Same	Lpleas	1pleas	acq_pleas_short	acq45_short	5	3	405	0	300	300	0	0	292	50	0	0	0	0	0	1	blank2r.bmp	0	1	+	0	3	B3r.bmp	500	1	blank2r.bmp	800	1	BMVZ	800	1	blank2r.bmp	870	3	freund	870	1	!	-1	1	!	-1	0	0	0	0	0	0	0	0	0	0	0	0	0	0	0	0	0	0	0	0	0	0	0	0	0	0	0
050418	10:02:30	5.0.10.0	61	CS_B	Lpleas_acq	Same	Lpleas	1pleas	acq_pleas_short	acq45_short	5	4	405	0	300	300	0	0	1092	46	0	1	0	0	0	1	blank2r.bmp	0	1	+	0	4	B4r.bmp	500	1	blank2r.bmp	800	1	BMVZ	800	1	blank2r.bmp	870	2	schön	870	1	!	1239	1	!	-1	0	0	0	0	0	0	0	0	0	0	0	0	0	0	0	0	0	0	0	0	0	0	0	0	0	0	0
050418	10:02:30	5.0.10.0	61	CS_B	Lpleas_acq	Same	Lpleas	1pleas	acq_unple_short	acq45_short	5	5	405	0	300	300	0	0	284	46	0	0	0	0	0	1	blank2r.bmp	0	1	+	0	5	C1r.bmp	500	1	blank2r.bmp	800	1	GKQX	800	1	blank2r.bmp	870	1	unfair	870	1	!	-1	1	!	-1	0	0	0	0	0	0	0	0	0	0	0	0	0	0	0	0	0	0	0	0	0	0	0	0	0	0	0
050418	10:02:30	5.0.10.0	61	CS_B	Lpleas_acq	Same	Lpleas	1pleas	acq_unple_short	acq45_short	5	6	405	0	300	300	0	0	328	50	0	1	0	0	0	1	blank2r.bmp	0	1	+	0	1	B1r.bmp	500	1	blank2r.bmp	800	1	GKQX	800	1	blank2r.bmp	870	6	leiden	870	1	!	-1	1	!	-1	0	0	0	0	0	0	0	0	0	0	0	0	0	0	0	0	0	0	0	0	0	0	0	0	0	0	0
050418	10:02:30	5.0.10.0	61	CS_B	Lpleas_acq	Same	Lpleas	1pleas	acq_pleas_short	acq45_short	5	7	405	0	300	300	0	0	270	50	0	0	0	0	0	1	blank2r.bmp	0	1	+	0	2	B2r.bmp	500	1	blank2r.bmp	800	1	BMVZ	800	1	blank2r.bmp	870	5	friedlich	870	1	!	-1	1	!	-1	0	0	0	0	0	0	0	0	0	0	0	0	0	0	0	0	0	0	0	0	0	0	0	0	0	0	0
050418	10:02:30	5.0.10.0	61	CS_B	Lpleas_acq	Same	Lpleas	1pleas	acq_pleas_short	acq45_short	5	8	405	0	300	300	0	0	291	46	0	1	0	0	0	1	blank2r.bmp	0	1	+	0	6	C2r.bmp	500	1	blank2r.bmp	800	1	BMVZ	800	1	blank2r.bmp	870	6	froh	870	1	!	-1	1	!	-1	0	0	0	0	0	0	0	0	0	0	0	0	0	0	0	0	0	0	0	0	0	0	0	0	0	0	0
050418	10:02:30	5.0.10.0	61	CS_B	Lpleas_acq	Same	Lpleas	1pleas	acq_unple_short	acq45_short	5	9	405	0	300	300	0	0	625	50	0	1	0	0	0	1	blank2r.bmp	0	1	+	0	1	B1r.bmp	500	1	blank2r.bmp	800	1	GKQX	800	1	blank2r.bmp	870	4	elend	870	1	!	1239	1	!	-1	0	0	0	0	0	0	0	0	0	0	0	0	0	0	0	0	0	0	0	0	0	0	0	0	0	0	0
050418	10:02:30	5.0.10.0	61	CS_B	Lpleas_acq	Same	Lpleas	1pleas	acq_pleas_short	acq45_short	5	10	405	0	300	300	0	0	826	46	0	1	0	0	0	1	blank2r.bmp	0	1	+	0	2	B2r.bmp	500	1	blank2r.bmp	800	1	BMVZ	800	1	blank2r.bmp	870	1	toll	870	1	!	1239	1	!	-1	0	0	0	0	0	0	0	0	0	0	0	0	0	0	0	0	0	0	0	0	0	0	0	0	0	0	0
050418	10:02:30	5.0.10.0	61	CS_B	Lpleas_acq	Same	Lpleas	1pleas	acq_pleas_short	acq45_short	5	11	405	0	300	300	0	0	281	50	0	0	0	0	0	1	blank2r.bmp	0	1	+	0	5	C1r.bmp	500	1	blank2r.bmp	800	1	BMVZ	800	1	blank2r.bmp	870	4	heiter	870	1	!	-1	1	!	-1	0	0	0	0	0	0	0	0	0	0	0	0	0	0	0	0	0	0	0	0	0	0	0	0	0	0	0
050418	10:02:30	5.0.10.0	61	CS_B	Lpleas_acq	Same	Lpleas	1pleas	acq_pleas_short	acq45_short	5	12	405	0	300	300	0	0	274	46	0	1	0	0	0	1	blank2r.bmp	0	1	+	0	7	C3r.bmp	500	1	blank2r.bmp	800	1	BMVZ	800	1	blank2r.bmp	870	6	froh	870	1	!	-1	1	!	-1	0	0	0	0	0	0	0	0	0	0	0	0	0	0	0	0	0	0	0	0	0	0	0	0	0	0	0
050418	10:02:30	5.0.10.0	61	CS_B	Lpleas_acq	Same	Lpleas	1pleas	acq_unple_short	acq45_short	5	13	405	0	300	300	0	0	335	50	0	1	0	0	0	1	blank2r.bmp	0	1	+	0	8	C4r.bmp	500	1	blank2r.bmp	800	1	GKQX	800	1	blank2r.bmp	870	5	schlecht	870	1	!	-1	1	!	-1	0	0	0	0	0	0	0	0	0	0	0	0	0	0	0	0	0	0	0	0	0	0	0	0	0	0	0
050418	10:02:30	5.0.10.0	61	CS_B	Lpleas_acq	Same	Lpleas	1pleas	acq_unple_short	acq45_short	5	14	405	1	300	300	0	0	434	50	0	1	0	0	0	1	blank2r.bmp	0	1	+	0	3	B3r.bmp	500	1	blank2r.bmp	800	1	GKQX	800	1	blank2r.bmp	870	4	elend	870	1	!	1239	1	!	1329	0	0	0	0	0	0	0	0	0	0	0	0	0	0	0	0	0	0	0	0	0	0	0	0	0	0	0
050418	10:02:30	5.0.10.0	61	CS_B	Lpleas_acq	Same	Lpleas	1pleas	acq_pleas_short	acq45_short	5	15	405	1	300	300	0	0	350	50	0	0	0	0	0	1	blank2r.bmp	0	1	+	0	6	C2r.bmp	500	1	blank2r.bmp	800	1	BMVZ	800	1	blank2r.bmp	870	1	toll	870	1	!	1239	1	!	1249	0	0	0	0	0	0	0	0	0	0	0	0	0	0	0	0	0	0	0	0	0	0	0	0	0	0	0
050418	10:02:30	5.0.10.0	61	CS_B	Lpleas_acq	Same	Lpleas	1pleas	acq_unple_short	acq45_short	5	16	405	0	300	300	0	0	305	46	0	0	0	0	0	1	blank2r.bmp	0	1	+	0	4	B4r.bmp	500	1	blank2r.bmp	800	1	GKQX	800	1	blank2r.bmp	870	5	schlecht	870	1	!	-1	1	!	-1	0	0	0	0	0	0	0	0	0	0	0	0	0	0	0	0	0	0	0	0	0	0	0	0	0	0	0
050418	10:02:30	5.0.10.0	61	CS_B	Lpleas_acq	Same	Lpleas	1pleas	acq_pleas_short	acq45_short	5	17	405	0	300	300	0	0	312	46	0	1	0	0	0	1	blank2r.bmp	0	1	+	0	4	B4r.bmp	500	1	blank2r.bmp	800	1	BMVZ	800	1	blank2r.bmp	870	2	schön	870	1	!	-1	1	!	-1	0	0	0	0	0	0	0	0	0	0	0	0	0	0	0	0	0	0	0	0	0	0	0	0	0	0	0
050418	10:02:30	5.0.10.0	61	CS_B	Lpleas_acq	Same	Lpleas	1pleas	acq_unple_short	acq45_short	5	18	405	0	300	300	0	0	319	46	0	0	0	0	0	1	blank2r.bmp	0	1	+	0	1	B1r.bmp	500	1	blank2r.bmp	800	1	GKQX	800	1	blank2r.bmp	870	1	unfair	870	1	!	-1	1	!	-1	0	0	0	0	0	0	0	0	0	0	0	0	0	0	0	0	0	0	0	0	0	0	0	0	0	0	0
050418	10:02:30	5.0.10.0	61	CS_B	Lpleas_acq	Same	Lpleas	1pleas	acq_pleas_short	acq45_short	5	19	405	0	300	300	0	0	655	46	0	1	0	0	0	1	blank2r.bmp	0	1	+	0	8	C4r.bmp	500	1	blank2r.bmp	800	1	BMVZ	800	1	blank2r.bmp	870	4	heiter	870	1	!	1239	1	!	-1	0	0	0	0	0	0	0	0	0	0	0	0	0	0	0	0	0	0	0	0	0	0	0	0	0	0	0
050418	10:02:30	5.0.10.0	61	CS_B	Lpleas_acq	Same	Lpleas	1pleas	acq_pleas_short	acq45_short	5	20	405	0	300	300	0	0	635	46	0	1	0	0	0	1	blank2r.bmp	0	1	+	0	6	C2r.bmp	500	1	blank2r.bmp	800	1	BMVZ	800	1	blank2r.bmp	870	5	friedlich	870	1	!	1239	1	!	-1	0	0	0	0	0	0	0	0	0	0	0	0	0	0	0	0	0	0	0	0	0	0	0	0	0	0	0
050418	10:02:30	5.0.10.0	61	CS_B	Lpleas_acq	Same	Lpleas	1pleas	acq_pleas_short	acq45_short	5	21	405	1	300	300	0	0	426	46	0	1	0	0	0	1	blank2r.bmp	0	1	+	0	5	C1r.bmp	500	1	blank2r.bmp	800	1	BMVZ	800	1	blank2r.bmp	870	3	freund	870	1	!	1239	1	!	1319	0	0	0	0	0	0	0	0	0	0	0	0	0	0	0	0	0	0	0	0	0	0	0	0	0	0	0
050418	10:02:30	5.0.10.0	61	CS_B	Lpleas_acq	Same	Lpleas	1pleas	acq_unple_short	acq45_short	5	22	405	1	300	300	0	0	424	50	0	1	0	0	0	1	blank2r.bmp	0	1	+	0	3	B3r.bmp	500	1	blank2r.bmp	800	1	GKQX	800	1	blank2r.bmp	870	2	neidisch	870	1	!	1239	1	!	1319	0	0	0	0	0	0	0	0	0	0	0	0	0	0	0	0	0	0	0	0	0	0	0	0	0	0	0
050418	10:02:30	5.0.10.0	61	CS_B	Lpleas_acq	Same	Lpleas	1pleas	acq_pleas_short	acq45_short	5	23	405	1	300	300	0	0	465	46	0	1	0	0	0	1	blank2r.bmp	0	1	+	0	2	B2r.bmp	500	1	blank2r.bmp	800	1	BMVZ	800	1	blank2r.bmp	870	4	heiter	870	1	!	1239	1	!	1359	0	0	0	0	0	0	0	0	0	0	0	0	0	0	0	0	0	0	0	0	0	0	0	0	0	0	0
050418	10:02:30	5.0.10.0	61	CS_B	Lpleas_acq	Same	Lpleas	1pleas	acq_unple_short	acq45_short	5	24	405	1	300	300	0	0	400	50	0	1	0	0	0	1	blank2r.bmp	0	1	+	0	7	C3r.bmp	500	1	blank2r.bmp	800	1	GKQX	800	1	blank2r.bmp	870	6	leiden	870	1	!	1239	1	!	1299	0	0	0	0	0	0	0	0	0	0	0	0	0	0	0	0	0	0	0	0	0	0	0	0	0	0	0
050418	10:02:30	5.0.10.0	61	CS_B	Lpleas_acq	Same	Lpleas	1pleas	acq_unple_short	acq45_short	5	25	405	1	300	300	0	0	350	46	0	0	0	0	0	1	blank2r.bmp	0	1	+	0	4	B4r.bmp	500	1	blank2r.bmp	800	1	GKQX	800	1	blank2r.bmp	870	3	töten	870	1	!	1239	1	!	1249	0	0	0	0	0	0	0	0	0	0	0	0	0	0	0	0	0	0	0	0	0	0	0	0	0	0	0
050418	10:02:30	5.0.10.0	61	CS_B	Lpleas_acq	Same	Lpleas	1pleas	acq_pleas_short	acq45_short	5	26	405	0	300	300	0	0	567	46	0	1	0	0	0	1	blank2r.bmp	0	1	+	0	6	C2r.bmp	500	1	blank2r.bmp	800	1	BMVZ	800	1	blank2r.bmp	870	3	freund	870	1	!	1239	1	!	-1	0	0	0	0	0	0	0	0	0	0	0	0	0	0	0	0	0	0	0	0	0	0	0	0	0	0	0
050418	10:02:30	5.0.10.0	61	CS_B	Lpleas_acq	Same	Lpleas	1pleas	acq_pleas_short	acq45_short	5	27	405	1	300	300	0	0	433	50	0	0	0	0	0	1	blank2r.bmp	0	1	+	0	7	C3r.bmp	500	1	blank2r.bmp	800	1	BMVZ	800	1	blank2r.bmp	870	5	friedlich	870	1	!	1239	1	!	1329	0	0	0	0	0	0	0	0	0	0	0	0	0	0	0	0	0	0	0	0	0	0	0	0	0	0	0
050418	10:02:30	5.0.10.0	61	CS_B	Lpleas_acq	Same	Lpleas	1pleas	acq_pleas_short	acq45_short	5	28	405	0	300	300	0	0	502	46	0	1	0	0	0	1	blank2r.bmp	0	1	+	0	1	B1r.bmp	500	1	blank2r.bmp	800	1	BMVZ	800	1	blank2r.bmp	870	1	toll	870	1	!	1239	1	!	-1	0	0	0	0	0	0	0	0	0	0	0	0	0	0	0	0	0	0	0	0	0	0	0	0	0	0	0
050418	10:02:30	5.0.10.0	61	CS_B	Lpleas_acq	Same	Lpleas	1pleas	acq_unple_short	acq45_short	5	29	405	1	300	300	0	0	401	50	0	1	0	0	0	1	blank2r.bmp	0	1	+	0	2	B2r.bmp	500	1	blank2r.bmp	800	1	GKQX	800	1	blank2r.bmp	870	1	unfair	870	1	!	1239	1	!	1299	0	0	0	0	0	0	0	0	0	0	0	0	0	0	0	0	0	0	0	0	0	0	0	0	0	0	0
050418	10:02:30	5.0.10.0	61	CS_B	Lpleas_acq	Same	Lpleas	1pleas	acq_unple_short	acq45_short	5	30	405	1	300	300	0	0	464	50	0	1	0	0	0	1	blank2r.bmp	0	1	+	0	3	B3r.bmp	500	1	blank2r.bmp	800	1	GKQX	800	1	blank2r.bmp	870	6	leiden	870	1	!	1239	1	!	1359	0	0	0	0	0	0	0	0	0	0	0	0	0	0	0	0	0	0	0	0	0	0	0	0	0	0	0
050418	10:02:30	5.0.10.0	61	CS_B	Lpleas_acq	Same	Lpleas	1pleas	acq_unple_short	acq45_short	5	31	405	1	300	300	0	0	386	50	0	1	0	0	0	1	blank2r.bmp	0	1	+	0	5	C1r.bmp	500	1	blank2r.bmp	800	1	GKQX	800	1	blank2r.bmp	870	4	elend	870	1	!	1239	1	!	1280	0	0	0	0	0	0	0	0	0	0	0	0	0	0	0	0	0	0	0	0	0	0	0	0	0	0	0
050418	10:02:30	5.0.10.0	61	CS_B	Lpleas_acq	Same	Lpleas	1pleas	acq_unple_short	acq45_short	5	32	405	0	300	300	0	0	328	50	0	1	0	0	0	1	blank2r.bmp	0	1	+	0	8	C4r.bmp	500	1	blank2r.bmp	800	1	GKQX	800	1	blank2r.bmp	870	5	schlecht	870	1	!	-1	1	!	-1	0	0	0	0	0	0	0	0	0	0	0	0	0	0	0	0	0	0	0	0	0	0	0	0	0	0	0
050418	10:02:30	5.0.10.0	61	CS_B	Lpleas_acq	Same	Lpleas	1pleas	acq_pleas_short	acq45_short	5	33	405	1	300	300	0	0	394	46	0	1	0	0	0	1	blank2r.bmp	0	1	+	0	6	C2r.bmp	500	1	blank2r.bmp	800	1	BMVZ	800	1	blank2r.bmp	870	6	froh	870	1	!	1239	1	!	1289	0	0	0	0	0	0	0	0	0	0	0	0	0	0	0	0	0	0	0	0	0	0	0	0	0	0	0
050418	10:02:30	5.0.10.0	61	CS_B	Lpleas_acq	Same	Lpleas	1pleas	acq_pleas_short	acq45_short	5	34	405	1	300	300	0	0	387	50	0	0	0	0	0	1	blank2r.bmp	0	1	+	0	7	C3r.bmp	500	1	blank2r.bmp	800	1	BMVZ	800	1	blank2r.bmp	870	2	schön	870	1	!	1239	1	!	1279	0	0	0	0	0	0	0	0	0	0	0	0	0	0	0	0	0	0	0	0	0	0	0	0	0	0	0
050418	10:02:30	5.0.10.0	61	CS_B	Lpleas_acq	Same	Lpleas	1pleas	acq_unple_short	acq45_short	5	35	405	0	300	300	0	0	516	50	0	1	0	0	0	1	blank2r.bmp	0	1	+	0	4	B4r.bmp	500	1	blank2r.bmp	800	1	GKQX	800	1	blank2r.bmp	870	3	töten	870	1	!	1239	1	!	-1	0	0	0	0	0	0	0	0	0	0	0	0	0	0	0	0	0	0	0	0	0	0	0	0	0	0	0
050418	10:02:30	5.0.10.0	61	CS_B	Lpleas_acq	Same	Lpleas	1pleas	acq_unple_short	acq45_short	5	36	405	1	300	300	0	0	405	50	0	1	0	0	0	1	blank2r.bmp	0	1	+	0	2	B2r.bmp	500	1	blank2r.bmp	800	1	GKQX	800	1	blank2r.bmp	870	2	neidisch	870	1	!	1239	1	!	1299	0	0	0	0	0	0	0	0	0	0	0	0	0	0	0	0	0	0	0	0	0	0	0	0	0	0	0
050418	10:02:30	5.0.10.0	61	CS_B	Lpleas_acq	Same	Lpleas	1pleas	acq_unple_short	acq45_short	5	37	405	1	300	300	0	0	396	50	0	1	0	0	0	1	blank2r.bmp	0	1	+	0	8	C4r.bmp	500	1	blank2r.bmp	800	1	GKQX	800	1	blank2r.bmp	870	6	leiden	870	1	!	1239	1	!	1289	0	0	0	0	0	0	0	0	0	0	0	0	0	0	0	0	0	0	0	0	0	0	0	0	0	0	0
050418	10:02:30	5.0.10.0	61	CS_B	Lpleas_acq	Same	Lpleas	1pleas	acq_pleas_short	acq45_short	5	38	405	0	300	300	0	0	489	46	0	1	0	0	0	1	blank2r.bmp	0	1	+	0	3	B3r.bmp	500	1	blank2r.bmp	800	1	BMVZ	800	1	blank2r.bmp	870	5	friedlich	870	1	!	1239	1	!	-1	0	0	0	0	0	0	0	0	0	0	0	0	0	0	0	0	0	0	0	0	0	0	0	0	0	0	0
050418	10:02:30	5.0.10.0	61	CS_B	Lpleas_acq	Same	Lpleas	1pleas	acq_pleas_short	acq45_short	5	39	405	1	300	300	0	0	354	46	0	1	0	0	0	1	blank2r.bmp	0	1	+	0	1	B1r.bmp	500	1	blank2r.bmp	800	1	BMVZ	800	1	blank2r.bmp	870	1	toll	870	1	!	1239	1	!	1249	0	0	0	0	0	0	0	0	0	0	0	0	0	0	0	0	0	0	0	0	0	0	0	0	0	0	0
050418	10:02:30	5.0.10.0	61	CS_B	Lpleas_acq	Same	Lpleas	1pleas	acq_pleas_short	acq45_short	5	40	405	0	300	300	0	0	285	46	0	1	0	0	0	1	blank2r.bmp	0	1	+	0	5	C1r.bmp	500	1	blank2r.bmp	800	1	BMVZ	800	1	blank2r.bmp	870	6	froh	870	1	!	-1	1	!	-1	0	0	0	0	0	0	0	0	0	0	0	0	0	0	0	0	0	0	0	0	0	0	0	0	0	0	0
050418	10:02:30	5.0.10.0	61	CS_B	Lpleas_acq	Same	Lpleas	1pleas	acq_pleas_short	acq45_short	5	41	405	0	300	300	0	0	315	46	0	1	0	0	0	1	blank2r.bmp	0	1	+	0	3	B3r.bmp	500	1	blank2r.bmp	800	1	BMVZ	800	1	blank2r.bmp	870	3	freund	870	1	!	-1	1	!	-1	0	0	0	0	0	0	0	0	0	0	0	0	0	0	0	0	0	0	0	0	0	0	0	0	0	0	0
050418	10:02:30	5.0.10.0	61	CS_B	Lpleas_acq	Same	Lpleas	1pleas	acq_unple_short	acq45_short	5	42	405	0	300	300	0	0	587	50	0	1	0	0	0	1	blank2r.bmp	0	1	+	0	5	C1r.bmp	500	1	blank2r.bmp	800	1	GKQX	800	1	blank2r.bmp	870	2	neidisch	870	1	!	1239	1	!	-1	0	0	0	0	0	0	0	0	0	0	0	0	0	0	0	0	0	0	0	0	0	0	0	0	0	0	0
050418	10:02:30	5.0.10.0	61	CS_B	Lpleas_acq	Same	Lpleas	1pleas	acq_unple_short	acq45_short	5	43	405	1	300	300	0	0	350	50	0	1	0	0	0	1	blank2r.bmp	0	1	+	0	1	B1r.bmp	500	1	blank2r.bmp	800	1	GKQX	800	1	blank2r.bmp	870	1	unfair	870	1	!	1239	1	!	1249	0	0	0	0	0	0	0	0	0	0	0	0	0	0	0	0	0	0	0	0	0	0	0	0	0	0	0
050418	10:02:30	5.0.10.0	61	CS_B	Lpleas_acq	Same	Lpleas	1pleas	acq_pleas_short	acq45_short	5	44	405	1	300	300	0	0	459	46	0	1	0	0	0	1	blank2r.bmp	0	1	+	0	7	C3r.bmp	500	1	blank2r.bmp	800	1	BMVZ	800	1	blank2r.bmp	870	2	schön	870	1	!	1239	1	!	1359	0	0	0	0	0	0	0	0	0	0	0	0	0	0	0	0	0	0	0	0	0	0	0	0	0	0	0
050418	10:02:30	5.0.10.0	61	CS_B	Lpleas_acq	Same	Lpleas	1pleas	acq_unple_short	acq45_short	5	45	405	0	300	300	0	0	613	50	0	1	0	0	0	1	blank2r.bmp	0	1	+	0	6	C2r.bmp	500	1	blank2r.bmp	800	1	GKQX	800	1	blank2r.bmp	870	3	töten	870	1	!	1239	1	!	-1	0	0	0	0	0	0	0	0	0	0	0	0	0	0	0	0	0	0	0	0	0	0	0	0	0	0	0
050418	10:02:30	5.0.10.0	61	CS_B	Lpleas_acq	Same	Lpleas	1pleas	acq_unple_short	acq45_short	5	46	405	1	300	300	0	0	422	46	0	0	0	0	0	1	blank2r.bmp	0	1	+	0	8	C4r.bmp	500	1	blank2r.bmp	800	1	GKQX	800	1	blank2r.bmp	870	4	elend	870	1	!	1239	1	!	1319	0	0	0	0	0	0	0	0	0	0	0	0	0	0	0	0	0	0	0	0	0	0	0	0	0	0	0
050418	10:02:30	5.0.10.0	61	CS_B	Lpleas_acq	Same	Lpleas	1pleas	acq_unple_short	acq45_short	5	47	405	0	300	300	0	0	745	50	0	1	0	0	0	1	blank2r.bmp	0	1	+	0	4	B4r.bmp	500	1	blank2r.bmp	800	1	GKQX	800	1	blank2r.bmp	870	5	schlecht	870	1	!	1239	1	!	-1	0	0	0	0	0	0	0	0	0	0	0	0	0	0	0	0	0	0	0	0	0	0	0	0	0	0	0
050418	10:02:30	5.0.10.0	61	CS_B	Lpleas_acq	Same	Lpleas	1pleas	acq_pleas_short	acq45_short	5	48	405	0	300	300	0	0	540	46	0	1	0	0	0	1	blank2r.bmp	0	1	+	0	2	B2r.bmp	500	1	blank2r.bmp	800	1	BMVZ	800	1	blank2r.bmp	870	4	heiter	870	1	!	1239	1	!	-1	0	0	0	0	0	0	0	0	0	0	0	0	0	0	0	0	0	0	0	0	0	0	0	0	0	0	0
050418	10:02:30	5.0.10.0	61	CS_B	Lpleas_acq	Same	Lpleas	1pleas	EvalRating_firsttwo	EvalRating_firsttwo	6	1	0	0	300	300	0	0	27353	line	346,25	0	0	0	0	1	eraser	0	2	Wie angenehm oder unangenehm finden Sie die  Buchstabenkette MWDQ?	0	1	leftborder	0	1	rightborder	0	1	line	0	1	Unangenehm	0	1	Angenehm	0	0	0	0	0	0	0	0	0	0	0	0	0	0	0	0	0	0	0	0	0	0	0	0	0	0	0	0	0	0	0	0	0	0
050418	10:02:30	5.0.10.0	61	CS_B	Lpleas_acq	Same	Lpleas	1pleas	blank_screen	EvalRating_firsttwo	6	3	0	0	300	300	0	0	0	0	346,25	0	0	0	0	1	eraser	0	0	0	0	0	0	0	0	0	0	0	0	0	0	0	0	0	0	0	0	0	0	0	0	0	0	0	0	0	0	0	0	0	0	0	0	0	0	0	0	0	0	0	0	0	0	0	0	0	0	0	0
050418	10:02:30	5.0.10.0	61	CS_B	Lpleas_acq	Same	Lpleas	1pleas	EvalRating_firsttwo	EvalRating_firsttwo	6	4	0	0	300	300	0	0	4709	line	88,75	0	0	0	0	1	eraser	0	1	Wie angenehm oder unangenehm finden Sie die  Buchstabenkette VNXH?	0	1	leftborder	0	1	rightborder	0	1	line	0	1	Unangenehm	0	1	Angenehm	0	0	0	0	0	0	0	0	0	0	0	0	0	0	0	0	0	0	0	0	0	0	0	0	0	0	0	0	0	0	0	0	0	0
050418	10:02:30	5.0.10.0	61	CS_B	Lpleas_acq	Same	Lpleas	1pleas	EvalRating_lastfour	EvalRating_lastfour	7	1	0	0	300	300	0	0	4671	line	47,5	0	0	0	0	1	eraser	1	3	Wie angenehm oder unangenehm finden Sie die  Buchstabenkette JGZP?	1	1	leftborder	1	1	rightborder	1	1	line	1	1	Unangenehm	1	1	Angenehm	1	0	0	0	0	0	0	0	0	0	0	0	0	0	0	0	0	0	0	0	0	0	0	0	0	0	0	0	0	0	0	0	0	0
050418	10:02:30	5.0.10.0	61	CS_B	Lpleas_acq	Same	Lpleas	1pleas	blank_screen	EvalRating_lastfour	7	3	0	0	300	300	0	0	0	0	47,5	0	0	0	0	1	eraser	0	0	0	0	0	0	0	0	0	0	0	0	0	0	0	0	0	0	0	0	0	0	0	0	0	0	0	0	0	0	0	0	0	0	0	0	0	0	0	0	0	0	0	0	0	0	0	0	0	0	0	0
050418	10:02:30	5.0.10.0	61	CS_B	Lpleas_acq	Same	Lpleas	1pleas	EvalRating_lastfour	EvalRating_lastfour	7	4	0	0	300	300	0	0	2090	line	-12,5	0	0	0	0	1	eraser	1	2	Wie angenehm oder unangenehm finden Sie die  Buchstabenkette GKQX?	1	1	leftborder	1	1	rightborder	1	1	line	1	1	Unangenehm	1	1	Angenehm	1	0	0	0	0	0	0	0	0	0	0	0	0	0	0	0	0	0	0	0	0	0	0	0	0	0	0	0	0	0	0	0	0	0
050418	10:02:30	5.0.10.0	61	CS_B	Lpleas_acq	Same	Lpleas	1pleas	blank_screen	EvalRating_lastfour	7	6	0	0	300	300	0	0	0	0	-12,5	0	0	0	0	1	eraser	0	0	0	0	0	0	0	0	0	0	0	0	0	0	0	0	0	0	0	0	0	0	0	0	0	0	0	0	0	0	0	0	0	0	0	0	0	0	0	0	0	0	0	0	0	0	0	0	0	0	0	0
050418	10:02:30	5.0.10.0	61	CS_B	Lpleas_acq	Same	Lpleas	1pleas	EvalRating_lastfour	EvalRating_lastfour	7	7	0	0	300	300	0	0	1180	line	222,5	0	0	0	0	1	eraser	1	1	Wie angenehm oder unangenehm finden Sie die  Buchstabenkette BMVZ?	1	1	leftborder	1	1	rightborder	1	1	line	1	1	Unangenehm	1	1	Angenehm	1	0	0	0	0	0	0	0	0	0	0	0	0	0	0	0	0	0	0	0	0	0	0	0	0	0	0	0	0	0	0	0	0	0
050418	10:02:30	5.0.10.0	61	CS_B	Lpleas_acq	Same	Lpleas	1pleas	blank_screen	EvalRating_lastfour	7	9	0	0	300	300	0	0	0	0	222,5	0	0	0	0	1	eraser	0	0	0	0	0	0	0	0	0	0	0	0	0	0	0	0	0	0	0	0	0	0	0	0	0	0	0	0	0	0	0	0	0	0	0	0	0	0	0	0	0	0	0	0	0	0	0	0	0	0	0	0
050418	10:02:30	5.0.10.0	61	CS_B	Lpleas_acq	Same	Lpleas	1pleas	EvalRating_lastfour	EvalRating_lastfour	7	10	0	0	300	300	0	0	1276	line	258,75	0	0	0	0	1	eraser	0	4	Wie angenehm oder unangenehm finden Sie die  Buchstabenkette KFBL?	0	1	leftborder	0	1	rightborder	0	1	line	0	1	Unangenehm	0	1	Angenehm	0	0	0	0	0	0	0	0	0	0	0	0	0	0	0	0	0	0	0	0	0	0	0	0	0	0	0	0	0	0	0	0	0	0
050418	10:02:30	5.0.10.0	61	CS_B	Lpleas_acq	Same	Lpleas	1pleas	cond_pleas_short_CS2	condtest_short_1	9	1	405	0	300	300	0	0	1164	46	258,75	1	0	0	0	1	blank2r.bmp	0	1	+	0	6	C2r.bmp	500	1	blank2r.bmp	800	1	GKQX	800	1	blank2r.bmp	870	4	heiter	870	1	!	1239	1	!	-1	0	0	0	0	0	0	0	0	0	0	0	0	0	0	0	0	0	0	0	0	0	0	0	0	0	0	0
050418	10:02:30	5.0.10.0	61	CS_B	Lpleas_acq	Same	Lpleas	1pleas	cond_unple_short_CS2	condtest_short_1	9	2	405	1	300	300	0	0	444	50	258,75	1	0	0	0	1	blank2r.bmp	0	1	+	0	5	C1r.bmp	500	1	blank2r.bmp	800	1	GKQX	800	1	blank2r.bmp	870	5	schlecht	870	1	!	1239	1	!	1339	0	0	0	0	0	0	0	0	0	0	0	0	0	0	0	0	0	0	0	0	0	0	0	0	0	0	0
050418	10:02:30	5.0.10.0	61	CS_B	Lpleas_acq	Same	Lpleas	1pleas	cond_pleas_short_CS2	condtest_short_1	9	3	405	1	300	300	0	0	407	46	258,75	1	0	0	0	1	blank2r.bmp	0	1	+	0	3	B3r.bmp	500	1	blank2r.bmp	800	1	GKQX	800	1	blank2r.bmp	870	2	schön	870	1	!	1239	1	!	1299	0	0	0	0	0	0	0	0	0	0	0	0	0	0	0	0	0	0	0	0	0	0	0	0	0	0	0
050418	10:02:30	5.0.10.0	61	CS_B	Lpleas_acq	Same	Lpleas	1pleas	cond_pleas_short_CS1	condtest_short_1	9	4	405	1	300	300	0	0	350	46	258,75	1	0	0	0	1	blank2r.bmp	0	1	+	0	2	B2r.bmp	500	1	blank2r.bmp	800	1	BMVZ	800	1	blank2r.bmp	870	1	toll	870	1	!	1239	1	!	1249	0	0	0	0	0	0	0	0	0	0	0	0	0	0	0	0	0	0	0	0	0	0	0	0	0	0	0
050418	10:02:30	5.0.10.0	61	CS_B	Lpleas_acq	Same	Lpleas	1pleas	cond_unple_short_CS1	condtest_short_1	9	5	405	0	300	300	0	0	326	46	258,75	0	0	0	0	1	blank2r.bmp	0	1	+	0	4	B4r.bmp	500	1	blank2r.bmp	800	1	BMVZ	800	1	blank2r.bmp	870	3	töten	870	1	!	-1	1	!	-1	0	0	0	0	0	0	0	0	0	0	0	0	0	0	0	0	0	0	0	0	0	0	0	0	0	0	0
050418	10:02:30	5.0.10.0	61	CS_B	Lpleas_acq	Same	Lpleas	1pleas	cond_pleas_short_CS1	condtest_short_1	9	6	405	0	300	300	0	0	1264	46	258,75	1	0	0	0	1	blank2r.bmp	0	1	+	0	7	C3r.bmp	500	1	blank2r.bmp	800	1	BMVZ	800	1	blank2r.bmp	870	5	friedlich	870	1	!	1239	1	!	-1	0	0	0	0	0	0	0	0	0	0	0	0	0	0	0	0	0	0	0	0	0	0	0	0	0	0	0
050418	10:02:30	5.0.10.0	61	CS_B	Lpleas_acq	Same	Lpleas	1pleas	cond_unple_short_CS2	condtest_short_1	9	7	405	1	300	300	0	0	428	46	258,75	0	0	0	0	1	blank2r.bmp	0	1	+	0	8	C4r.bmp	500	1	blank2r.bmp	800	1	GKQX	800	1	blank2r.bmp	870	6	leiden	870	1	!	1239	1	!	1319	0	0	0	0	0	0	0	0	0	0	0	0	0	0	0	0	0	0	0	0	0	0	0	0	0	0	0
050418	10:02:30	5.0.10.0	61	CS_B	Lpleas_acq	Same	Lpleas	1pleas	cond_unple_short_CS1	condtest_short_1	9	8	405	1	300	300	0	0	378	50	258,75	1	0	0	0	1	blank2r.bmp	0	1	+	0	1	B1r.bmp	500	1	blank2r.bmp	800	1	BMVZ	800	1	blank2r.bmp	870	2	neidisch	870	1	!	1239	1	!	1269	0	0	0	0	0	0	0	0	0	0	0	0	0	0	0	0	0	0	0	0	0	0	0	0	0	0	0
050418	10:02:30	5.0.10.0	61	CS_B	Lpleas_acq	Same	Lpleas	1pleas	cond_pleas_short_CS2	condtest_short_1	9	9	405	1	300	300	0	0	462	46	258,75	1	0	0	0	1	blank2r.bmp	0	1	+	0	8	C4r.bmp	500	1	blank2r.bmp	800	1	GKQX	800	1	blank2r.bmp	870	6	froh	870	1	!	1239	1	!	1359	0	0	0	0	0	0	0	0	0	0	0	0	0	0	0	0	0	0	0	0	0	0	0	0	0	0	0
050418	10:02:30	5.0.10.0	61	CS_B	Lpleas_acq	Same	Lpleas	1pleas	cond_unple_short_CS1	condtest_short_1	9	10	405	1	300	300	0	0	466	46	258,75	0	0	0	0	1	blank2r.bmp	0	1	+	0	3	B3r.bmp	500	1	blank2r.bmp	800	1	BMVZ	800	1	blank2r.bmp	870	4	elend	870	1	!	1239	1	!	1359	0	0	0	0	0	0	0	0	0	0	0	0	0	0	0	0	0	0	0	0	0	0	0	0	0	0	0
050418	10:02:30	5.0.10.0	61	CS_B	Lpleas_acq	Same	Lpleas	1pleas	cond_unple_short_CS2	condtest_short_1	9	11	405	0	300	300	0	0	578	50	258,75	1	0	0	0	1	blank2r.bmp	0	1	+	0	2	B2r.bmp	500	1	blank2r.bmp	800	1	GKQX	800	1	blank2r.bmp	870	1	unfair	870	1	!	1239	1	!	-1	0	0	0	0	0	0	0	0	0	0	0	0	0	0	0	0	0	0	0	0	0	0	0	0	0	0	0
050418	10:02:30	5.0.10.0	61	CS_B	Lpleas_acq	Same	Lpleas	1pleas	cond_pleas_short_CS1	condtest_short_1	9	12	405	1	300	300	0	0	451	46	258,75	1	0	0	0	1	blank2r.bmp	0	1	+	0	7	C3r.bmp	500	1	blank2r.bmp	800	1	BMVZ	800	1	blank2r.bmp	870	3	freund	870	1	!	1239	1	!	1349	0	0	0	0	0	0	0	0	0	0	0	0	0	0	0	0	0	0	0	0	0	0	0	0	0	0	0
050418	10:02:30	5.0.10.0	61	CS_B	Lpleas_acq	Same	Lpleas	1pleas	cond_pleas_short_CS1	condtest_short_2	10	1	405	0	300	300	0	0	520	50	258,75	0	0	0	0	1	blank2r.bmp	0	1	+	0	4	B4r.bmp	500	1	blank2r.bmp	800	1	BMVZ	800	1	blank2r.bmp	870	5	friedlich	870	1	!	1239	1	!	-1	0	0	0	0	0	0	0	0	0	0	0	0	0	0	0	0	0	0	0	0	0	0	0	0	0	0	0
050418	10:02:30	5.0.10.0	61	CS_B	Lpleas_acq	Same	Lpleas	1pleas	cond_unple_short_CS1	condtest_short_2	10	2	405	1	300	300	0	0	411	50	258,75	1	0	0	0	1	blank2r.bmp	0	1	+	0	5	C1r.bmp	500	1	blank2r.bmp	800	1	BMVZ	800	1	blank2r.bmp	870	1	unfair	870	1	!	1239	1	!	1309	0	0	0	0	0	0	0	0	0	0	0	0	0	0	0	0	0	0	0	0	0	0	0	0	0	0	0
050418	10:02:30	5.0.10.0	61	CS_B	Lpleas_acq	Same	Lpleas	1pleas	cond_unple_short_CS2	condtest_short_2	10	3	405	0	300	300	0	0	512	50	258,75	1	0	0	0	1	blank2r.bmp	0	1	+	0	6	C2r.bmp	500	1	blank2r.bmp	800	1	GKQX	800	1	blank2r.bmp	870	4	elend	870	1	!	1239	1	!	-1	0	0	0	0	0	0	0	0	0	0	0	0	0	0	0	0	0	0	0	0	0	0	0	0	0	0	0
050418	10:02:30	5.0.10.0	61	CS_B	Lpleas_acq	Same	Lpleas	1pleas	cond_pleas_short_CS2	condtest_short_2	10	4	405	1	300	300	0	0	350	50	258,75	0	0	0	0	1	blank2r.bmp	0	1	+	0	1	B1r.bmp	500	1	blank2r.bmp	800	1	GKQX	800	1	blank2r.bmp	870	1	toll	870	1	!	1239	1	!	1249	0	0	0	0	0	0	0	0	0	0	0	0	0	0	0	0	0	0	0	0	0	0	0	0	0	0	0
050418	10:02:30	5.0.10.0	61	CS_B	Lpleas_acq	Same	Lpleas	1pleas	cond_pleas_short_CS1	condtest_short_2	10	5	405	0	300	300	0	0	320	46	258,75	1	0	0	0	1	blank2r.bmp	0	1	+	0	4	B4r.bmp	500	1	blank2r.bmp	800	1	BMVZ	800	1	blank2r.bmp	870	2	schön	870	1	!	-1	1	!	-1	0	0	0	0	0	0	0	0	0	0	0	0	0	0	0	0	0	0	0	0	0	0	0	0	0	0	0
050418	10:02:30	5.0.10.0	61	CS_B	Lpleas_acq	Same	Lpleas	1pleas	cond_pleas_short_CS2	condtest_short_2	10	6	405	1	300	300	0	0	360	46	258,75	1	0	0	0	1	blank2r.bmp	0	1	+	0	1	B1r.bmp	500	1	blank2r.bmp	800	1	GKQX	800	1	blank2r.bmp	870	6	froh	870	1	!	1239	1	!	1259	0	0	0	0	0	0	0	0	0	0	0	0	0	0	0	0	0	0	0	0	0	0	0	0	0	0	0
050418	10:02:30	5.0.10.0	61	CS_B	Lpleas_acq	Same	Lpleas	1pleas	cond_pleas_short_CS2	condtest_short_2	10	7	405	1	300	300	0	0	379	46	258,75	1	0	0	0	1	blank2r.bmp	0	1	+	0	5	C1r.bmp	500	1	blank2r.bmp	800	1	GKQX	800	1	blank2r.bmp	870	3	freund	870	1	!	1239	1	!	1269	0	0	0	0	0	0	0	0	0	0	0	0	0	0	0	0	0	0	0	0	0	0	0	0	0	0	0
050418	10:02:30	5.0.10.0	61	CS_B	Lpleas_acq	Same	Lpleas	1pleas	cond_unple_short_CS1	condtest_short_2	10	8	405	0	300	300	0	0	480	50	258,75	1	0	0	0	1	blank2r.bmp	0	1	+	0	2	B2r.bmp	500	1	blank2r.bmp	800	1	BMVZ	800	1	blank2r.bmp	870	6	leiden	870	1	!	1239	1	!	-1	0	0	0	0	0	0	0	0	0	0	0	0	0	0	0	0	0	0	0	0	0	0	0	0	0	0	0
050418	10:02:30	5.0.10.0	61	CS_B	Lpleas_acq	Same	Lpleas	1pleas	cond_unple_short_CS2	condtest_short_2	10	9	405	1	300	300	0	0	412	50	258,75	1	0	0	0	1	blank2r.bmp	0	1	+	0	7	C3r.bmp	500	1	blank2r.bmp	800	1	GKQX	800	1	blank2r.bmp	870	3	töten	870	1	!	1239	1	!	1309	0	0	0	0	0	0	0	0	0	0	0	0	0	0	0	0	0	0	0	0	0	0	0	0	0	0	0
050418	10:02:30	5.0.10.0	61	CS_B	Lpleas_acq	Same	Lpleas	1pleas	cond_pleas_short_CS1	condtest_short_2	10	10	405	1	300	300	0	0	351	50	258,75	0	0	0	0	1	blank2r.bmp	0	1	+	0	6	C2r.bmp	500	1	blank2r.bmp	800	1	BMVZ	800	1	blank2r.bmp	870	4	heiter	870	1	!	1239	1	!	1249	0	0	0	0	0	0	0	0	0	0	0	0	0	0	0	0	0	0	0	0	0	0	0	0	0	0	0
050418	10:02:30	5.0.10.0	61	CS_B	Lpleas_acq	Same	Lpleas	1pleas	cond_pleas_short_CS2	condtest_short_2	10	11	405	0	300	300	0	0	480	46	258,75	1	0	0	0	1	blank2r.bmp	0	1	+	0	3	B3r.bmp	500	1	blank2r.bmp	800	1	GKQX	800	1	blank2r.bmp	870	1	toll	870	1	!	1239	1	!	-1	0	0	0	0	0	0	0	0	0	0	0	0	0	0	0	0	0	0	0	0	0	0	0	0	0	0	0
050418	10:02:30	5.0.10.0	61	CS_B	Lpleas_acq	Same	Lpleas	1pleas	cond_unple_short_CS1	condtest_short_2	10	12	405	1	300	300	0	0	442	50	258,75	1	0	0	0	1	blank2r.bmp	0	1	+	0	8	C4r.bmp	500	1	blank2r.bmp	800	1	BMVZ	800	1	blank2r.bmp	870	5	schlecht	870	1	!	1239	1	!	1339	0	0	0	0	0	0	0	0	0	0	0	0	0	0	0	0	0	0	0	0	0	0	0	0	0	0	0
050418	10:02:30	5.0.10.0	61	CS_B	Lpleas_acq	Same	Lpleas	1pleas	cond_pleas_short_CS1	condtest_short_2	10	13	405	0	300	300	0	0	495	46	258,75	1	0	0	0	1	blank2r.bmp	0	1	+	0	4	B4r.bmp	500	1	blank2r.bmp	800	1	BMVZ	800	1	blank2r.bmp	870	3	freund	870	1	!	1239	1	!	-1	0	0	0	0	0	0	0	0	0	0	0	0	0	0	0	0	0	0	0	0	0	0	0	0	0	0	0
050418	10:02:30	5.0.10.0	61	CS_B	Lpleas_acq	Same	Lpleas	1pleas	cond_pleas_short_CS2	condtest_short_2	10	14	405	1	300	300	0	0	421	46	258,75	1	0	0	0	1	blank2r.bmp	0	1	+	0	5	C1r.bmp	500	1	blank2r.bmp	800	1	GKQX	800	1	blank2r.bmp	870	6	froh	870	1	!	1239	1	!	1319	0	0	0	0	0	0	0	0	0	0	0	0	0	0	0	0	0	0	0	0	0	0	0	0	0	0	0
050418	10:02:30	5.0.10.0	61	CS_B	Lpleas_acq	Same	Lpleas	1pleas	cond_unple_short_CS2	condtest_short_2	10	15	405	0	300	300	0	0	497	50	258,75	1	0	0	0	1	blank2r.bmp	0	1	+	0	8	C4r.bmp	500	1	blank2r.bmp	800	1	GKQX	800	1	blank2r.bmp	870	2	neidisch	870	1	!	1239	1	!	-1	0	0	0	0	0	0	0	0	0	0	0	0	0	0	0	0	0	0	0	0	0	0	0	0	0	0	0
050418	10:02:30	5.0.10.0	61	CS_B	Lpleas_acq	Same	Lpleas	1pleas	cond_unple_short_CS2	condtest_short_2	10	16	405	1	300	300	0	0	350	50	258,75	1	0	0	0	1	blank2r.bmp	0	1	+	0	3	B3r.bmp	500	1	blank2r.bmp	800	1	GKQX	800	1	blank2r.bmp	870	3	töten	870	1	!	1239	1	!	1249	0	0	0	0	0	0	0	0	0	0	0	0	0	0	0	0	0	0	0	0	0	0	0	0	0	0	0
050418	10:02:30	5.0.10.0	61	CS_B	Lpleas_acq	Same	Lpleas	1pleas	cond_unple_short_CS1	condtest_short_2	10	17	405	1	300	300	0	0	435	46	258,75	0	0	0	0	1	blank2r.bmp	0	1	+	0	1	B1r.bmp	500	1	blank2r.bmp	800	1	BMVZ	800	1	blank2r.bmp	870	5	schlecht	870	1	!	1239	1	!	1329	0	0	0	0	0	0	0	0	0	0	0	0	0	0	0	0	0	0	0	0	0	0	0	0	0	0	0
050418	10:02:30	5.0.10.0	61	CS_B	Lpleas_acq	Same	Lpleas	1pleas	cond_unple_short_CS2	condtest_short_2	10	18	405	0	300	300	0	0	573	50	258,75	1	0	0	0	1	blank2r.bmp	0	1	+	0	2	B2r.bmp	500	1	blank2r.bmp	800	1	GKQX	800	1	blank2r.bmp	870	4	elend	870	1	!	1239	1	!	-1	0	0	0	0	0	0	0	0	0	0	0	0	0	0	0	0	0	0	0	0	0	0	0	0	0	0	0
050418	10:02:30	5.0.10.0	61	CS_B	Lpleas_acq	Same	Lpleas	1pleas	cond_unple_short_CS1	condtest_short_2	10	19	405	1	300	300	0	0	462	46	258,75	0	0	0	0	1	blank2r.bmp	0	1	+	0	6	C2r.bmp	500	1	blank2r.bmp	800	1	BMVZ	800	1	blank2r.bmp	870	1	unfair	870	1	!	1239	1	!	1359	0	0	0	0	0	0	0	0	0	0	0	0	0	0	0	0	0	0	0	0	0	0	0	0	0	0	0
050418	10:02:30	5.0.10.0	61	CS_B	Lpleas_acq	Same	Lpleas	1pleas	cond_pleas_short_CS2	condtest_short_2	10	20	405	0	300	300	0	0	531	46	258,75	1	0	0	0	1	blank2r.bmp	0	1	+	0	7	C3r.bmp	500	1	blank2r.bmp	800	1	GKQX	800	1	blank2r.bmp	870	4	heiter	870	1	!	1239	1	!	-1	0	0	0	0	0	0	0	0	0	0	0	0	0	0	0	0	0	0	0	0	0	0	0	0	0	0	0
050418	10:02:30	5.0.10.0	61	CS_B	Lpleas_acq	Same	Lpleas	1pleas	cond_unple_short_CS2	condtest_short_2	10	21	405	0	300	300	0	0	535	50	258,75	1	0	0	0	1	blank2r.bmp	0	1	+	0	4	B4r.bmp	500	1	blank2r.bmp	800	1	GKQX	800	1	blank2r.bmp	870	6	leiden	870	1	!	1239	1	!	-1	0	0	0	0	0	0	0	0	0	0	0	0	0	0	0	0	0	0	0	0	0	0	0	0	0	0	0
050418	10:02:30	5.0.10.0	61	CS_B	Lpleas_acq	Same	Lpleas	1pleas	cond_unple_short_CS1	condtest_short_2	10	22	405	1	300	300	0	0	438	50	258,75	1	0	0	0	1	blank2r.bmp	0	1	+	0	6	C2r.bmp	500	1	blank2r.bmp	800	1	BMVZ	800	1	blank2r.bmp	870	2	neidisch	870	1	!	1239	1	!	1329	0	0	0	0	0	0	0	0	0	0	0	0	0	0	0	0	0	0	0	0	0	0	0	0	0	0	0
050418	10:02:30	5.0.10.0	61	CS_B	Lpleas_acq	Same	Lpleas	1pleas	cond_pleas_short_CS1	condtest_short_2	10	23	405	0	300	300	0	0	252	50	258,75	0	0	0	0	1	blank2r.bmp	0	1	+	0	7	C3r.bmp	500	1	blank2r.bmp	800	1	BMVZ	800	1	blank2r.bmp	870	2	schön	870	1	!	-1	1	!	-1	0	0	0	0	0	0	0	0	0	0	0	0	0	0	0	0	0	0	0	0	0	0	0	0	0	0	0
050418	10:02:30	5.0.10.0	61	CS_B	Lpleas_acq	Same	Lpleas	1pleas	cond_unple_short_CS1	condtest_short_2	10	24	405	0	300	300	0	0	278	46	258,75	0	0	0	0	1	blank2r.bmp	0	1	+	0	1	B1r.bmp	500	1	blank2r.bmp	800	1	BMVZ	800	1	blank2r.bmp	870	3	töten	870	1	!	-1	1	!	-1	0	0	0	0	0	0	0	0	0	0	0	0	0	0	0	0	0	0	0	0	0	0	0	0	0	0	0
050418	10:02:30	5.0.10.0	61	CS_B	Lpleas_acq	Same	Lpleas	1pleas	cond_pleas_short_CS2	condtest_short_2	10	25	405	1	300	300	0	0	409	50	258,75	0	0	0	0	1	blank2r.bmp	0	1	+	0	5	C1r.bmp	500	1	blank2r.bmp	800	1	GKQX	800	1	blank2r.bmp	870	5	friedlich	870	1	!	1239	1	!	1309	0	0	0	0	0	0	0	0	0	0	0	0	0	0	0	0	0	0	0	0	0	0	0	0	0	0	0
050418	10:02:30	5.0.10.0	61	CS_B	Lpleas_acq	Same	Lpleas	1pleas	cond_unple_short_CS1	condtest_short_2	10	26	405	0	300	300	0	0	545	50	258,75	1	0	0	0	1	blank2r.bmp	0	1	+	0	3	B3r.bmp	500	1	blank2r.bmp	800	1	BMVZ	800	1	blank2r.bmp	870	2	neidisch	870	1	!	1239	1	!	-1	0	0	0	0	0	0	0	0	0	0	0	0	0	0	0	0	0	0	0	0	0	0	0	0	0	0	0
050418	10:02:30	5.0.10.0	61	CS_B	Lpleas_acq	Same	Lpleas	1pleas	cond_pleas_short_CS1	condtest_short_2	10	27	405	0	300	300	0	0	822	46	258,75	1	0	0	0	1	blank2r.bmp	0	1	+	0	2	B2r.bmp	500	1	blank2r.bmp	800	1	BMVZ	800	1	blank2r.bmp	870	5	friedlich	870	1	!	1239	1	!	-1	0	0	0	0	0	0	0	0	0	0	0	0	0	0	0	0	0	0	0	0	0	0	0	0	0	0	0
050418	10:02:30	5.0.10.0	61	CS_B	Lpleas_acq	Same	Lpleas	1pleas	cond_pleas_short_CS1	condtest_short_2	10	28	405	0	300	300	0	0	553	46	258,75	1	0	0	0	1	blank2r.bmp	0	1	+	0	8	C4r.bmp	500	1	blank2r.bmp	800	1	BMVZ	800	1	blank2r.bmp	870	1	toll	870	1	!	1239	1	!	-1	0	0	0	0	0	0	0	0	0	0	0	0	0	0	0	0	0	0	0	0	0	0	0	0	0	0	0
050418	10:02:30	5.0.10.0	61	CS_B	Lpleas_acq	Same	Lpleas	1pleas	cond_pleas_short_CS1	condtest_short_2	10	29	405	0	300	300	0	0	311	46	258,75	1	0	0	0	1	blank2r.bmp	0	1	+	0	4	B4r.bmp	500	1	blank2r.bmp	800	1	BMVZ	800	1	blank2r.bmp	870	3	freund	870	1	!	-1	1	!	-1	0	0	0	0	0	0	0	0	0	0	0	0	0	0	0	0	0	0	0	0	0	0	0	0	0	0	0
050418	10:02:30	5.0.10.0	61	CS_B	Lpleas_acq	Same	Lpleas	1pleas	cond_pleas_short_CS2	condtest_short_2	10	30	405	1	300	300	0	0	445	46	258,75	1	0	0	0	1	blank2r.bmp	0	1	+	0	6	C2r.bmp	500	1	blank2r.bmp	800	1	GKQX	800	1	blank2r.bmp	870	2	schön	870	1	!	1239	1	!	1339	0	0	0	0	0	0	0	0	0	0	0	0	0	0	0	0	0	0	0	0	0	0	0	0	0	0	0
050418	10:02:30	5.0.10.0	61	CS_B	Lpleas_acq	Same	Lpleas	1pleas	cond_unple_short_CS2	condtest_short_2	10	31	405	1	300	300	0	0	462	50	258,75	1	0	0	0	1	blank2r.bmp	0	1	+	0	1	B1r.bmp	500	1	blank2r.bmp	800	1	GKQX	800	1	blank2r.bmp	870	6	leiden	870	1	!	1239	1	!	1359	0	0	0	0	0	0	0	0	0	0	0	0	0	0	0	0	0	0	0	0	0	0	0	0	0	0	0
050418	10:02:30	5.0.10.0	61	CS_B	Lpleas_acq	Same	Lpleas	1pleas	cond_unple_short_CS2	condtest_short_2	10	32	405	0	300	300	0	0	1054	50	258,75	1	0	0	0	1	blank2r.bmp	0	1	+	0	5	C1r.bmp	500	1	blank2r.bmp	800	1	GKQX	800	1	blank2r.bmp	870	1	unfair	870	1	!	1239	1	!	-1	0	0	0	0	0	0	0	0	0	0	0	0	0	0	0	0	0	0	0	0	0	0	0	0	0	0	0
050418	10:02:30	5.0.10.0	61	CS_B	Lpleas_acq	Same	Lpleas	1pleas	cond_pleas_short_CS1	condtest_short_2	10	33	405	0	300	300	0	0	709	46	258,75	1	0	0	0	1	blank2r.bmp	0	1	+	0	8	C4r.bmp	500	1	blank2r.bmp	800	1	BMVZ	800	1	blank2r.bmp	870	4	heiter	870	1	!	1239	1	!	-1	0	0	0	0	0	0	0	0	0	0	0	0	0	0	0	0	0	0	0	0	0	0	0	0	0	0	0
050418	10:02:30	5.0.10.0	61	CS_B	Lpleas_acq	Same	Lpleas	1pleas	cond_unple_short_CS2	condtest_short_2	10	34	405	0	300	300	0	0	556	50	258,75	1	0	0	0	1	blank2r.bmp	0	1	+	0	7	C3r.bmp	500	1	blank2r.bmp	800	1	GKQX	800	1	blank2r.bmp	870	4	elend	870	1	!	1239	1	!	-1	0	0	0	0	0	0	0	0	0	0	0	0	0	0	0	0	0	0	0	0	0	0	0	0	0	0	0
050418	10:02:30	5.0.10.0	61	CS_B	Lpleas_acq	Same	Lpleas	1pleas	cond_pleas_short_CS2	condtest_short_2	10	35	405	0	300	300	0	0	1886	46	258,75	1	0	0	0	1	blank2r.bmp	0	1	+	0	2	B2r.bmp	500	1	blank2r.bmp	800	1	GKQX	800	1	blank2r.bmp	870	6	froh	870	1	!	1239	1	!	-1	0	0	0	0	0	0	0	0	0	0	0	0	0	0	0	0	0	0	0	0	0	0	0	0	0	0	0
050418	10:02:30	5.0.10.0	61	CS_B	Lpleas_acq	Same	Lpleas	1pleas	cond_unple_short_CS1	condtest_short_2	10	36	405	0	300	300	0	0	1734	50	258,75	1	0	0	0	1	blank2r.bmp	0	1	+	0	3	B3r.bmp	500	1	blank2r.bmp	800	1	BMVZ	800	1	blank2r.bmp	870	5	schlecht	870	1	!	1239	1	!	-1	0	0	0	0	0	0	0	0	0	0	0	0	0	0	0	0	0	0	0	0	0	0	0	0	0	0	0
050418	10:02:30	5.0.10.0	61	CS_B	Lpleas_acq	Same	Lpleas	1pleas	cond_pleas_short_CS1	condtest_short_3	11	1	405	0	300	300	0	0	1821	46	258,75	1	0	0	0	1	blank2r.bmp	0	1	+	0	3	B3r.bmp	500	1	blank2r.bmp	800	1	BMVZ	800	1	blank2r.bmp	870	4	heiter	870	1	!	1239	1	!	-1	0	0	0	0	0	0	0	0	0	0	0	0	0	0	0	0	0	0	0	0	0	0	0	0	0	0	0
050418	10:02:30	5.0.10.0	61	CS_B	Lpleas_acq	Same	Lpleas	1pleas	cond_unple_short_CS2	condtest_short_3	11	2	405	0	300	300	0	0	509	50	258,75	1	0	0	0	1	blank2r.bmp	0	1	+	0	5	C1r.bmp	500	1	blank2r.bmp	800	1	GKQX	800	1	blank2r.bmp	870	3	töten	870	1	!	1239	1	!	-1	0	0	0	0	0	0	0	0	0	0	0	0	0	0	0	0	0	0	0	0	0	0	0	0	0	0	0
050418	10:02:30	5.0.10.0	61	CS_B	Lpleas_acq	Same	Lpleas	1pleas	cond_unple_short_CS2	condtest_short_3	11	3	405	1	300	300	0	0	407	46	258,75	0	0	0	0	1	blank2r.bmp	0	1	+	0	7	C3r.bmp	500	1	blank2r.bmp	800	1	GKQX	800	1	blank2r.bmp	870	5	schlecht	870	1	!	1239	1	!	1299	0	0	0	0	0	0	0	0	0	0	0	0	0	0	0	0	0	0	0	0	0	0	0	0	0	0	0
050418	10:02:30	5.0.10.0	61	CS_B	Lpleas_acq	Same	Lpleas	1pleas	cond_pleas_short_CS2	condtest_short_3	11	4	405	1	300	300	0	0	459	46	258,75	1	0	0	0	1	blank2r.bmp	0	1	+	0	2	B2r.bmp	500	1	blank2r.bmp	800	1	GKQX	800	1	blank2r.bmp	870	3	freund	870	1	!	1239	1	!	1359	0	0	0	0	0	0	0	0	0	0	0	0	0	0	0	0	0	0	0	0	0	0	0	0	0	0	0
050418	10:02:30	5.0.10.0	61	CS_B	Lpleas_acq	Same	Lpleas	1pleas	cond_pleas_short_CS2	condtest_short_3	11	5	405	0	300	300	0	0	1147	46	258,75	1	0	0	0	1	blank2r.bmp	0	1	+	0	4	B4r.bmp	500	1	blank2r.bmp	800	1	GKQX	800	1	blank2r.bmp	870	6	froh	870	1	!	1239	1	!	-1	0	0	0	0	0	0	0	0	0	0	0	0	0	0	0	0	0	0	0	0	0	0	0	0	0	0	0
050418	10:02:30	5.0.10.0	61	CS_B	Lpleas_acq	Same	Lpleas	1pleas	cond_unple_short_CS1	condtest_short_3	11	6	405	1	300	300	0	0	443	50	258,75	1	0	0	0	1	blank2r.bmp	0	1	+	0	8	C4r.bmp	500	1	blank2r.bmp	800	1	BMVZ	800	1	blank2r.bmp	870	4	elend	870	1	!	1239	1	!	1339	0	0	0	0	0	0	0	0	0	0	0	0	0	0	0	0	0	0	0	0	0	0	0	0	0	0	0
050418	10:02:30	5.0.10.0	61	CS_B	Lpleas_acq	Same	Lpleas	1pleas	cond_unple_short_CS1	condtest_short_3	11	7	405	1	300	300	0	0	389	46	258,75	0	0	0	0	1	blank2r.bmp	0	1	+	0	6	C2r.bmp	500	1	blank2r.bmp	800	1	BMVZ	800	1	blank2r.bmp	870	2	neidisch	870	1	!	1239	1	!	1279	0	0	0	0	0	0	0	0	0	0	0	0	0	0	0	0	0	0	0	0	0	0	0	0	0	0	0
050418	10:02:30	5.0.10.0	61	CS_B	Lpleas_acq	Same	Lpleas	1pleas	cond_unple_short_CS2	condtest_short_3	11	8	405	0	300	300	0	0	709	50	258,75	1	0	0	0	1	blank2r.bmp	0	1	+	0	1	B1r.bmp	500	1	blank2r.bmp	800	1	GKQX	800	1	blank2r.bmp	870	6	leiden	870	1	!	1239	1	!	-1	0	0	0	0	0	0	0	0	0	0	0	0	0	0	0	0	0	0	0	0	0	0	0	0	0	0	0
050418	10:02:30	5.0.10.0	61	CS_B	Lpleas_acq	Same	Lpleas	1pleas	cond_unple_short_CS1	condtest_short_3	11	9	405	0	300	300	0	0	480	50	258,75	1	0	0	0	1	blank2r.bmp	0	1	+	0	7	C3r.bmp	500	1	blank2r.bmp	800	1	BMVZ	800	1	blank2r.bmp	870	1	unfair	870	1	!	1239	1	!	-1	0	0	0	0	0	0	0	0	0	0	0	0	0	0	0	0	0	0	0	0	0	0	0	0	0	0	0
050418	10:02:30	5.0.10.0	61	CS_B	Lpleas_acq	Same	Lpleas	1pleas	cond_unple_short_CS2	condtest_short_3	11	10	405	1	300	300	0	0	452	50	258,75	1	0	0	0	1	blank2r.bmp	0	1	+	0	3	B3r.bmp	500	1	blank2r.bmp	800	1	GKQX	800	1	blank2r.bmp	870	4	elend	870	1	!	1239	1	!	1349	0	0	0	0	0	0	0	0	0	0	0	0	0	0	0	0	0	0	0	0	0	0	0	0	0	0	0
050418	10:02:30	5.0.10.0	61	CS_B	Lpleas_acq	Same	Lpleas	1pleas	cond_pleas_short_CS2	condtest_short_3	11	11	405	0	300	300	0	0	495	46	258,75	1	0	0	0	1	blank2r.bmp	0	1	+	0	5	C1r.bmp	500	1	blank2r.bmp	800	1	GKQX	800	1	blank2r.bmp	870	2	schön	870	1	!	1239	1	!	-1	0	0	0	0	0	0	0	0	0	0	0	0	0	0	0	0	0	0	0	0	0	0	0	0	0	0	0
050418	10:02:30	5.0.10.0	61	CS_B	Lpleas_acq	Same	Lpleas	1pleas	cond_pleas_short_CS1	condtest_short_3	11	12	405	0	300	300	0	0	491	46	258,75	1	0	0	0	1	blank2r.bmp	0	1	+	0	4	B4r.bmp	500	1	blank2r.bmp	800	1	BMVZ	800	1	blank2r.bmp	870	1	toll	870	1	!	1239	1	!	-1	0	0	0	0	0	0	0	0	0	0	0	0	0	0	0	0	0	0	0	0	0	0	0	0	0	0	0
050418	10:02:30	5.0.10.0	61	CS_B	Lpleas_acq	Same	Lpleas	1pleas	cond_pleas_short_CS1	condtest_short_3	11	13	405	1	300	300	0	0	399	50	258,75	0	0	0	0	1	blank2r.bmp	0	1	+	0	8	C4r.bmp	500	1	blank2r.bmp	800	1	BMVZ	800	1	blank2r.bmp	870	5	friedlich	870	1	!	1239	1	!	1289	0	0	0	0	0	0	0	0	0	0	0	0	0	0	0	0	0	0	0	0	0	0	0	0	0	0	0
050418	10:02:30	5.0.10.0	61	CS_B	Lpleas_acq	Same	Lpleas	1pleas	cond_unple_short_CS2	condtest_short_3	11	14	405	0	300	300	0	0	1137	50	258,75	1	0	0	0	1	blank2r.bmp	0	1	+	0	2	B2r.bmp	500	1	blank2r.bmp	800	1	GKQX	800	1	blank2r.bmp	870	1	unfair	870	1	!	1239	1	!	-1	0	0	0	0	0	0	0	0	0	0	0	0	0	0	0	0	0	0	0	0	0	0	0	0	0	0	0
050418	10:02:30	5.0.10.0	61	CS_B	Lpleas_acq	Same	Lpleas	1pleas	cond_pleas_short_CS2	condtest_short_3	11	15	405	1	300	300	0	0	373	46	258,75	1	0	0	0	1	blank2r.bmp	0	1	+	0	6	C2r.bmp	500	1	blank2r.bmp	800	1	GKQX	800	1	blank2r.bmp	870	4	heiter	870	1	!	1239	1	!	1269	0	0	0	0	0	0	0	0	0	0	0	0	0	0	0	0	0	0	0	0	0	0	0	0	0	0	0
050418	10:02:30	5.0.10.0	61	CS_B	Lpleas_acq	Same	Lpleas	1pleas	cond_pleas_short_CS1	condtest_short_3	11	16	405	0	300	300	0	0	297	46	258,75	1	0	0	0	1	blank2r.bmp	0	1	+	0	1	B1r.bmp	500	1	blank2r.bmp	800	1	BMVZ	800	1	blank2r.bmp	870	6	froh	870	1	!	-1	1	!	-1	0	0	0	0	0	0	0	0	0	0	0	0	0	0	0	0	0	0	0	0	0	0	0	0	0	0	0
050418	10:02:30	5.0.10.0	61	CS_B	Lpleas_acq	Same	Lpleas	1pleas	cond_unple_short_CS1	condtest_short_3	11	17	405	0	300	300	0	0	821	46	258,75	0	0	0	0	1	blank2r.bmp	0	1	+	0	8	C4r.bmp	500	1	blank2r.bmp	800	1	BMVZ	800	1	blank2r.bmp	870	6	leiden	870	1	!	1239	1	!	-1	0	0	0	0	0	0	0	0	0	0	0	0	0	0	0	0	0	0	0	0	0	0	0	0	0	0	0
050418	10:02:30	5.0.10.0	61	CS_B	Lpleas_acq	Same	Lpleas	1pleas	cond_pleas_short_CS2	condtest_short_3	11	18	405	1	300	300	0	0	456	46	258,75	1	0	0	0	1	blank2r.bmp	0	1	+	0	4	B4r.bmp	500	1	blank2r.bmp	800	1	GKQX	800	1	blank2r.bmp	870	5	friedlich	870	1	!	1239	1	!	1349	0	0	0	0	0	0	0	0	0	0	0	0	0	0	0	0	0	0	0	0	0	0	0	0	0	0	0
050418	10:02:30	5.0.10.0	61	CS_B	Lpleas_acq	Same	Lpleas	1pleas	cond_unple_short_CS1	condtest_short_3	11	19	405	0	300	300	0	0	1382	50	258,75	1	0	0	0	1	blank2r.bmp	0	1	+	0	1	B1r.bmp	500	1	blank2r.bmp	800	1	BMVZ	800	1	blank2r.bmp	870	3	töten	870	1	!	1239	1	!	-1	0	0	0	0	0	0	0	0	0	0	0	0	0	0	0	0	0	0	0	0	0	0	0	0	0	0	0
050418	10:02:30	5.0.10.0	61	CS_B	Lpleas_acq	Same	Lpleas	1pleas	cond_unple_short_CS2	condtest_short_3	11	20	405	0	300	300	0	0	325	50	258,75	1	0	0	0	1	blank2r.bmp	0	1	+	0	3	B3r.bmp	500	1	blank2r.bmp	800	1	GKQX	800	1	blank2r.bmp	870	2	neidisch	870	1	!	-1	1	!	-1	0	0	0	0	0	0	0	0	0	0	0	0	0	0	0	0	0	0	0	0	0	0	0	0	0	0	0
050418	10:02:30	5.0.10.0	61	CS_B	Lpleas_acq	Same	Lpleas	1pleas	cond_pleas_short_CS1	condtest_short_3	11	21	405	0	300	300	0	0	310	50	258,75	0	0	0	0	1	blank2r.bmp	0	1	+	0	2	B2r.bmp	500	1	blank2r.bmp	800	1	BMVZ	800	1	blank2r.bmp	870	1	toll	870	1	!	-1	1	!	-1	0	0	0	0	0	0	0	0	0	0	0	0	0	0	0	0	0	0	0	0	0	0	0	0	0	0	0
050418	10:02:30	5.0.10.0	61	CS_B	Lpleas_acq	Same	Lpleas	1pleas	cond_pleas_short_CS2	condtest_short_3	11	22	405	0	300	300	0	0	1139	46	258,75	1	0	0	0	1	blank2r.bmp	0	1	+	0	7	C3r.bmp	500	1	blank2r.bmp	800	1	GKQX	800	1	blank2r.bmp	870	2	schön	870	1	!	1239	1	!	-1	0	0	0	0	0	0	0	0	0	0	0	0	0	0	0	0	0	0	0	0	0	0	0	0	0	0	0
050418	10:02:30	5.0.10.0	61	CS_B	Lpleas_acq	Same	Lpleas	1pleas	cond_unple_short_CS2	condtest_short_3	11	23	405	0	300	300	0	0	488	50	258,75	1	0	0	0	1	blank2r.bmp	0	1	+	0	5	C1r.bmp	500	1	blank2r.bmp	800	1	GKQX	800	1	blank2r.bmp	870	5	schlecht	870	1	!	1239	1	!	-1	0	0	0	0	0	0	0	0	0	0	0	0	0	0	0	0	0	0	0	0	0	0	0	0	0	0	0
050418	10:02:30	5.0.10.0	61	CS_B	Lpleas_acq	Same	Lpleas	1pleas	cond_unple_short_CS2	condtest_short_3	11	24	405	1	300	300	0	0	457	50	258,75	1	0	0	0	1	blank2r.bmp	0	1	+	0	6	C2r.bmp	500	1	blank2r.bmp	800	1	GKQX	800	1	blank2r.bmp	870	5	schlecht	870	1	!	1239	1	!	1349	0	0	0	0	0	0	0	0	0	0	0	0	0	0	0	0	0	0	0	0	0	0	0	0	0	0	0
050418	10:02:30	5.0.10.0	61	CS_B	Lpleas_acq	Same	Lpleas	1pleas	cond_pleas_short_CS2	condtest_short_3	11	25	405	1	300	300	0	0	431	46	258,75	1	0	0	0	1	blank2r.bmp	0	1	+	0	7	C3r.bmp	500	1	blank2r.bmp	800	1	GKQX	800	1	blank2r.bmp	870	3	freund	870	1	!	1239	1	!	1329	0	0	0	0	0	0	0	0	0	0	0	0	0	0	0	0	0	0	0	0	0	0	0	0	0	0	0
050418	10:02:30	5.0.10.0	61	CS_B	Lpleas_acq	Same	Lpleas	1pleas	cond_unple_short_CS1	condtest_short_3	11	26	405	0	300	300	0	0	513	50	258,75	1	0	0	0	1	blank2r.bmp	0	1	+	0	4	B4r.bmp	500	1	blank2r.bmp	800	1	BMVZ	800	1	blank2r.bmp	870	3	töten	870	1	!	1239	1	!	-1	0	0	0	0	0	0	0	0	0	0	0	0	0	0	0	0	0	0	0	0	0	0	0	0	0	0	0
050418	10:02:30	5.0.10.0	61	CS_B	Lpleas_acq	Same	Lpleas	1pleas	cond_pleas_short_CS2	condtest_short_3	11	27	405	1	300	300	0	0	371	46	258,75	1	0	0	0	1	blank2r.bmp	0	1	+	0	3	B3r.bmp	500	1	blank2r.bmp	800	1	GKQX	800	1	blank2r.bmp	870	6	froh	870	1	!	1239	1	!	1269	0	0	0	0	0	0	0	0	0	0	0	0	0	0	0	0	0	0	0	0	0	0	0	0	0	0	0
050418	10:02:30	5.0.10.0	61	CS_B	Lpleas_acq	Same	Lpleas	1pleas	cond_pleas_short_CS2	condtest_short_3	11	28	405	1	300	300	0	0	457	50	258,75	0	0	0	0	1	blank2r.bmp	0	1	+	0	2	B2r.bmp	500	1	blank2r.bmp	800	1	GKQX	800	1	blank2r.bmp	870	2	schön	870	1	!	1239	1	!	1349	0	0	0	0	0	0	0	0	0	0	0	0	0	0	0	0	0	0	0	0	0	0	0	0	0	0	0
050418	10:02:30	5.0.10.0	61	CS_B	Lpleas_acq	Same	Lpleas	1pleas	cond_pleas_short_CS1	condtest_short_3	11	29	405	0	300	300	0	0	548	46	258,75	1	0	0	0	1	blank2r.bmp	0	1	+	0	8	C4r.bmp	500	1	blank2r.bmp	800	1	BMVZ	800	1	blank2r.bmp	870	5	friedlich	870	1	!	1239	1	!	-1	0	0	0	0	0	0	0	0	0	0	0	0	0	0	0	0	0	0	0	0	0	0	0	0	0	0	0
050418	10:02:30	5.0.10.0	61	CS_B	Lpleas_acq	Same	Lpleas	1pleas	cond_unple_short_CS1	condtest_short_3	11	30	405	0	300	300	0	0	500	50	258,75	1	0	0	0	1	blank2r.bmp	0	1	+	0	5	C1r.bmp	500	1	blank2r.bmp	800	1	BMVZ	800	1	blank2r.bmp	870	4	elend	870	1	!	1239	1	!	-1	0	0	0	0	0	0	0	0	0	0	0	0	0	0	0	0	0	0	0	0	0	0	0	0	0	0	0
050418	10:02:30	5.0.10.0	61	CS_B	Lpleas_acq	Same	Lpleas	1pleas	cond_pleas_short_CS2	condtest_short_3	11	31	405	0	300	300	0	0	573	46	258,75	1	0	0	0	1	blank2r.bmp	0	1	+	0	1	B1r.bmp	500	1	blank2r.bmp	800	1	GKQX	800	1	blank2r.bmp	870	1	toll	870	1	!	1239	1	!	-1	0	0	0	0	0	0	0	0	0	0	0	0	0	0	0	0	0	0	0	0	0	0	0	0	0	0	0
050418	10:02:30	5.0.10.0	61	CS_B	Lpleas_acq	Same	Lpleas	1pleas	cond_pleas_short_CS1	condtest_short_3	11	32	405	1	300	300	0	0	384	50	258,75	0	0	0	0	1	blank2r.bmp	0	1	+	0	6	C2r.bmp	500	1	blank2r.bmp	800	1	BMVZ	800	1	blank2r.bmp	870	4	heiter	870	1	!	1239	1	!	1279	0	0	0	0	0	0	0	0	0	0	0	0	0	0	0	0	0	0	0	0	0	0	0	0	0	0	0
050418	10:02:30	5.0.10.0	61	CS_B	Lpleas_acq	Same	Lpleas	1pleas	cond_unple_short_CS2	condtest_short_3	11	33	405	0	300	300	0	0	791	50	258,75	1	0	0	0	1	blank2r.bmp	0	1	+	0	2	B2r.bmp	500	1	blank2r.bmp	800	1	GKQX	800	1	blank2r.bmp	870	6	leiden	870	1	!	1239	1	!	-1	0	0	0	0	0	0	0	0	0	0	0	0	0	0	0	0	0	0	0	0	0	0	0	0	0	0	0
050418	10:02:30	5.0.10.0	61	CS_B	Lpleas_acq	Same	Lpleas	1pleas	cond_pleas_short_CS1	condtest_short_3	11	34	405	1	300	300	0	0	447	46	258,75	1	0	0	0	1	blank2r.bmp	0	1	+	0	3	B3r.bmp	500	1	blank2r.bmp	800	1	BMVZ	800	1	blank2r.bmp	870	3	freund	870	1	!	1239	1	!	1339	0	0	0	0	0	0	0	0	0	0	0	0	0	0	0	0	0	0	0	0	0	0	0	0	0	0	0
050418	10:02:30	5.0.10.0	61	CS_B	Lpleas_acq	Same	Lpleas	1pleas	cond_pleas_short_CS1	condtest_short_3	11	35	405	0	300	300	0	0	323	46	258,75	1	0	0	0	1	blank2r.bmp	0	1	+	0	8	C4r.bmp	500	1	blank2r.bmp	800	1	BMVZ	800	1	blank2r.bmp	870	2	schön	870	1	!	-1	1	!	-1	0	0	0	0	0	0	0	0	0	0	0	0	0	0	0	0	0	0	0	0	0	0	0	0	0	0	0
050418	10:02:30	5.0.10.0	61	CS_B	Lpleas_acq	Same	Lpleas	1pleas	cond_unple_short_CS2	condtest_short_3	11	36	405	0	300	300	0	0	506	50	258,75	1	0	0	0	1	blank2r.bmp	0	1	+	0	7	C3r.bmp	500	1	blank2r.bmp	800	1	GKQX	800	1	blank2r.bmp	870	2	neidisch	870	1	!	1239	1	!	-1	0	0	0	0	0	0	0	0	0	0	0	0	0	0	0	0	0	0	0	0	0	0	0	0	0	0	0
050418	10:02:30	5.0.10.0	61	CS_B	Lpleas_acq	Same	Lpleas	1pleas	cond_unple_short_CS2	condtest_short_3	11	37	405	0	300	300	0	0	316	50	258,75	1	0	0	0	1	blank2r.bmp	0	1	+	0	4	B4r.bmp	500	1	blank2r.bmp	800	1	GKQX	800	1	blank2r.bmp	870	1	unfair	870	1	!	-1	1	!	-1	0	0	0	0	0	0	0	0	0	0	0	0	0	0	0	0	0	0	0	0	0	0	0	0	0	0	0
050418	10:02:30	5.0.10.0	61	CS_B	Lpleas_acq	Same	Lpleas	1pleas	cond_unple_short_CS1	condtest_short_3	11	38	405	0	300	300	0	0	1302	50	258,75	1	0	0	0	1	blank2r.bmp	0	1	+	0	5	C1r.bmp	500	1	blank2r.bmp	800	1	BMVZ	800	1	blank2r.bmp	870	5	schlecht	870	1	!	1239	1	!	-1	0	0	0	0	0	0	0	0	0	0	0	0	0	0	0	0	0	0	0	0	0	0	0	0	0	0	0
050418	10:02:30	5.0.10.0	61	CS_B	Lpleas_acq	Same	Lpleas	1pleas	cond_unple_short_CS2	condtest_short_3	11	39	405	1	300	300	0	0	391	46	258,75	0	0	0	0	1	blank2r.bmp	0	1	+	0	6	C2r.bmp	500	1	blank2r.bmp	800	1	GKQX	800	1	blank2r.bmp	870	4	elend	870	1	!	1239	1	!	1289	0	0	0	0	0	0	0	0	0	0	0	0	0	0	0	0	0	0	0	0	0	0	0	0	0	0	0
050418	10:02:30	5.0.10.0	61	CS_B	Lpleas_acq	Same	Lpleas	1pleas	cond_pleas_short_CS1	condtest_short_3	11	40	405	1	300	300	0	0	430	46	258,75	1	0	0	0	1	blank2r.bmp	0	1	+	0	1	B1r.bmp	500	1	blank2r.bmp	800	1	BMVZ	800	1	blank2r.bmp	870	4	heiter	870	1	!	1239	1	!	1329	0	0	0	0	0	0	0	0	0	0	0	0	0	0	0	0	0	0	0	0	0	0	0	0	0	0	0
050418	10:02:30	5.0.10.0	61	CS_B	Lpleas_acq	Same	Lpleas	1pleas	cond_pleas_short_CS2	condtest_short_3	11	41	405	0	300	300	0	0	293	46	258,75	1	0	0	0	1	blank2r.bmp	0	1	+	0	5	C1r.bmp	500	1	blank2r.bmp	800	1	GKQX	800	1	blank2r.bmp	870	5	friedlich	870	1	!	-1	1	!	-1	0	0	0	0	0	0	0	0	0	0	0	0	0	0	0	0	0	0	0	0	0	0	0	0	0	0	0
050418	10:02:30	5.0.10.0	61	CS_B	Lpleas_acq	Same	Lpleas	1pleas	cond_pleas_short_CS1	condtest_short_3	11	42	405	0	300	300	0	0	321	46	258,75	1	0	0	0	1	blank2r.bmp	0	1	+	0	6	C2r.bmp	500	1	blank2r.bmp	800	1	BMVZ	800	1	blank2r.bmp	870	1	toll	870	1	!	-1	1	!	-1	0	0	0	0	0	0	0	0	0	0	0	0	0	0	0	0	0	0	0	0	0	0	0	0	0	0	0
050418	10:02:30	5.0.10.0	61	CS_B	Lpleas_acq	Same	Lpleas	1pleas	cond_unple_short_CS1	condtest_short_3	11	43	405	0	300	300	0	0	276	46	258,75	0	0	0	0	1	blank2r.bmp	0	1	+	0	1	B1r.bmp	500	1	blank2r.bmp	800	1	BMVZ	800	1	blank2r.bmp	870	2	neidisch	870	1	!	-1	1	!	-1	0	0	0	0	0	0	0	0	0	0	0	0	0	0	0	0	0	0	0	0	0	0	0	0	0	0	0
050418	10:02:30	5.0.10.0	61	CS_B	Lpleas_acq	Same	Lpleas	1pleas	cond_unple_short_CS1	condtest_short_3	11	44	405	1	300	300	0	0	393	50	258,75	1	0	0	0	1	blank2r.bmp	0	1	+	0	4	B4r.bmp	500	1	blank2r.bmp	800	1	BMVZ	800	1	blank2r.bmp	870	3	töten	870	1	!	1239	1	!	1289	0	0	0	0	0	0	0	0	0	0	0	0	0	0	0	0	0	0	0	0	0	0	0	0	0	0	0
050418	10:02:30	5.0.10.0	61	CS_B	Lpleas_acq	Same	Lpleas	1pleas	cond_pleas_short_CS2	condtest_short_3	11	45	405	1	300	300	0	0	419	46	258,75	1	0	0	0	1	blank2r.bmp	0	1	+	0	2	B2r.bmp	500	1	blank2r.bmp	800	1	GKQX	800	1	blank2r.bmp	870	6	froh	870	1	!	1239	1	!	1319	0	0	0	0	0	0	0	0	0	0	0	0	0	0	0	0	0	0	0	0	0	0	0	0	0	0	0
050418	10:02:30	5.0.10.0	61	CS_B	Lpleas_acq	Same	Lpleas	1pleas	cond_pleas_short_CS1	condtest_short_3	11	46	405	0	300	300	0	0	303	46	258,75	1	0	0	0	1	blank2r.bmp	0	1	+	0	7	C3r.bmp	500	1	blank2r.bmp	800	1	BMVZ	800	1	blank2r.bmp	870	3	freund	870	1	!	-1	1	!	-1	0	0	0	0	0	0	0	0	0	0	0	0	0	0	0	0	0	0	0	0	0	0	0	0	0	0	0
050418	10:02:30	5.0.10.0	61	CS_B	Lpleas_acq	Same	Lpleas	1pleas	cond_unple_short_CS1	condtest_short_3	11	47	405	0	300	300	0	0	319	46	258,75	0	0	0	0	1	blank2r.bmp	0	1	+	0	8	C4r.bmp	500	1	blank2r.bmp	800	1	BMVZ	800	1	blank2r.bmp	870	6	leiden	870	1	!	-1	1	!	-1	0	0	0	0	0	0	0	0	0	0	0	0	0	0	0	0	0	0	0	0	0	0	0	0	0	0	0
050418	10:02:30	5.0.10.0	61	CS_B	Lpleas_acq	Same	Lpleas	1pleas	cond_unple_short_CS1	condtest_short_3	11	48	405	0	300	300	0	0	1201	50	258,75	1	0	0	0	1	blank2r.bmp	0	1	+	0	3	B3r.bmp	500	1	blank2r.bmp	800	1	BMVZ	800	1	blank2r.bmp	870	1	unfair	870	1	!	1239	1	!	-1	0	0	0	0	0	0	0	0	0	0	0	0	0	0	0	0	0	0	0	0	0	0	0	0	0	0	0
050418	10:02:30	5.0.10.0	61	CS_A	Lpleas_acq	Same	Lpleas	1pleas	acq_pleas_long	acq1_long	12	1	0	0	300	300	0	0	584	50	258,75	0	0	0	0	1	blank2r.bmp	0	1	+	0	1	B1r.bmp	500	1	blank2r.bmp	800	1	NPLW	800	1	blank2r.bmp	880	4	treu	880	1	FEHLER	1489	0	0	0	0	0	0	0	0	0	0	0	0	0	0	0	0	0	0	0	0	0	0	0	0	0	0	0	0	0	0
050418	10:02:30	5.0.10.0	61	CS_A	Lpleas_acq	Same	Lpleas	1pleas	acq_unple_long	acq1_long	12	2	0	0	300	300	0	0	676	50	258,75	1	0	0	0	1	blank2r.bmp	0	1	+	0	2	B2r.bmp	500	1	blank2r.bmp	800	1	DHJF	800	1	blank2r.bmp	880	6	traurig	880	0	0	0	0	0	0	0	0	0	0	0	0	0	0	0	0	0	0	0	0	0	0	0	0	0	0	0	0	0	0	0	0	0
050418	10:02:30	5.0.10.0	61	CS_A	Lpleas_acq	Same	Lpleas	1pleas	acq_unple_long	acq1_long	12	3	0	0	300	300	0	0	371	46	258,75	0	0	0	0	1	blank2r.bmp	0	1	+	0	5	C1r.bmp	500	1	blank2r.bmp	800	1	DHJF	800	1	blank2r.bmp	880	4	böse	880	1	FEHLER	1279	0	0	0	0	0	0	0	0	0	0	0	0	0	0	0	0	0	0	0	0	0	0	0	0	0	0	0	0	0	0
050418	10:02:30	5.0.10.0	61	CS_A	Lpleas_acq	Same	Lpleas	1pleas	acq_unple_long	acq1_long	12	4	0	0	300	300	0	0	683	50	258,75	1	0	0	0	1	blank2r.bmp	0	1	+	0	4	B4r.bmp	500	1	blank2r.bmp	800	1	DHJF	800	1	blank2r.bmp	880	1	grausam	880	0	0	0	0	0	0	0	0	0	0	0	0	0	0	0	0	0	0	0	0	0	0	0	0	0	0	0	0	0	0	0	0	0
050418	10:02:30	5.0.10.0	61	CS_A	Lpleas_acq	Same	Lpleas	1pleas	acq_pleas_long	acq1_long	12	5	0	0	300	300	0	0	347	50	258,75	0	0	0	0	1	blank2r.bmp	0	1	+	0	6	C2r.bmp	500	1	blank2r.bmp	800	1	NPLW	800	1	blank2r.bmp	880	1	gut	880	1	FEHLER	1249	0	0	0	0	0	0	0	0	0	0	0	0	0	0	0	0	0	0	0	0	0	0	0	0	0	0	0	0	0	0
050418	10:02:30	5.0.10.0	61	CS_A	Lpleas_acq	Same	Lpleas	1pleas	acq_pleas_long	acq1_long	12	6	0	0	300	300	0	0	608	46	258,75	1	0	0	0	1	blank2r.bmp	0	1	+	0	8	C4r.bmp	500	1	blank2r.bmp	800	1	NPLW	800	1	blank2r.bmp	880	5	begabt	880	0	0	0	0	0	0	0	0	0	0	0	0	0	0	0	0	0	0	0	0	0	0	0	0	0	0	0	0	0	0	0	0	0
050418	10:02:30	5.0.10.0	61	CS_A	Lpleas_acq	Same	Lpleas	1pleas	acq_unple_long	acq1_long	12	7	0	0	300	300	0	0	748	50	258,75	1	0	0	0	1	blank2r.bmp	0	1	+	0	7	C3r.bmp	500	1	blank2r.bmp	800	1	DHJF	800	1	blank2r.bmp	880	3	ärger	880	0	0	0	0	0	0	0	0	0	0	0	0	0	0	0	0	0	0	0	0	0	0	0	0	0	0	0	0	0	0	0	0	0
050418	10:02:30	5.0.10.0	61	CS_A	Lpleas_acq	Same	Lpleas	1pleas	acq_pleas_long	acq1_long	12	8	0	0	300	300	0	0	668	46	258,75	1	0	0	0	1	blank2r.bmp	0	1	+	0	3	B3r.bmp	500	1	blank2r.bmp	800	1	NPLW	800	1	blank2r.bmp	880	6	kreativ	880	0	0	0	0	0	0	0	0	0	0	0	0	0	0	0	0	0	0	0	0	0	0	0	0	0	0	0	0	0	0	0	0	0
050418	10:02:30	5.0.10.0	61	CS_A	Lpleas_acq	Same	Lpleas	1pleas	acq_unple_long	acq1_long	12	9	0	0	300	300	0	0	695	50	258,75	1	0	0	0	1	blank2r.bmp	0	1	+	0	2	B2r.bmp	500	1	blank2r.bmp	800	1	DHJF	800	1	blank2r.bmp	880	5	kummer	880	0	0	0	0	0	0	0	0	0	0	0	0	0	0	0	0	0	0	0	0	0	0	0	0	0	0	0	0	0	0	0	0	0
050418	10:02:30	5.0.10.0	61	CS_A	Lpleas_acq	Same	Lpleas	1pleas	acq_unple_long	acq1_long	12	10	0	0	300	300	0	0	511	50	258,75	1	0	0	0	1	blank2r.bmp	0	1	+	0	6	C2r.bmp	500	1	blank2r.bmp	800	1	DHJF	800	1	blank2r.bmp	880	2	geizig	880	0	0	0	0	0	0	0	0	0	0	0	0	0	0	0	0	0	0	0	0	0	0	0	0	0	0	0	0	0	0	0	0	0
050418	10:02:30	5.0.10.0	61	CS_A	Lpleas_acq	Same	Lpleas	1pleas	acq_pleas_long	acq1_long	12	11	0	0	300	300	0	0	676	46	258,75	1	0	0	0	1	blank2r.bmp	0	1	+	0	3	B3r.bmp	500	1	blank2r.bmp	800	1	NPLW	800	1	blank2r.bmp	880	3	kuss	880	0	0	0	0	0	0	0	0	0	0	0	0	0	0	0	0	0	0	0	0	0	0	0	0	0	0	0	0	0	0	0	0	0
050418	10:02:30	5.0.10.0	61	CS_A	Lpleas_acq	Same	Lpleas	1pleas	acq_pleas_long	acq1_long	12	12	0	0	300	300	0	0	696	46	258,75	1	0	0	0	1	blank2r.bmp	0	1	+	0	7	C3r.bmp	500	1	blank2r.bmp	800	1	NPLW	800	1	blank2r.bmp	880	2	mutig	880	0	0	0	0	0	0	0	0	0	0	0	0	0	0	0	0	0	0	0	0	0	0	0	0	0	0	0	0	0	0	0	0	0
050418	10:02:30	5.0.10.0	61	CS_A	Lpleas_acq	Same	Lpleas	1pleas	acq_unple_long	acq1_long	12	13	0	0	300	300	0	0	612	50	258,75	1	0	0	0	1	blank2r.bmp	0	1	+	0	8	C4r.bmp	500	1	blank2r.bmp	800	1	DHJF	800	1	blank2r.bmp	880	4	böse	880	0	0	0	0	0	0	0	0	0	0	0	0	0	0	0	0	0	0	0	0	0	0	0	0	0	0	0	0	0	0	0	0	0
050418	10:02:30	5.0.10.0	61	CS_A	Lpleas_acq	Same	Lpleas	1pleas	acq_pleas_long	acq1_long	12	14	0	0	300	300	0	0	561	46	258,75	1	0	0	0	1	blank2r.bmp	0	1	+	0	4	B4r.bmp	500	1	blank2r.bmp	800	1	NPLW	800	1	blank2r.bmp	880	1	gut	880	0	0	0	0	0	0	0	0	0	0	0	0	0	0	0	0	0	0	0	0	0	0	0	0	0	0	0	0	0	0	0	0	0
050418	10:02:30	5.0.10.0	61	CS_A	Lpleas_acq	Same	Lpleas	1pleas	acq_pleas_long	acq1_long	12	15	0	0	300	300	0	0	646	46	258,75	1	0	0	0	1	blank2r.bmp	0	1	+	0	5	C1r.bmp	500	1	blank2r.bmp	800	1	NPLW	800	1	blank2r.bmp	880	3	kuss	880	0	0	0	0	0	0	0	0	0	0	0	0	0	0	0	0	0	0	0	0	0	0	0	0	0	0	0	0	0	0	0	0	0
050418	10:02:30	5.0.10.0	61	CS_A	Lpleas_acq	Same	Lpleas	1pleas	acq_unple_long	acq1_long	12	16	0	0	300	300	0	0	550	50	258,75	1	0	0	0	1	blank2r.bmp	0	1	+	0	1	B1r.bmp	500	1	blank2r.bmp	800	1	DHJF	800	1	blank2r.bmp	880	2	geizig	880	0	0	0	0	0	0	0	0	0	0	0	0	0	0	0	0	0	0	0	0	0	0	0	0	0	0	0	0	0	0	0	0	0
050418	10:02:30	5.0.10.0	61	CS_A	Lpleas_acq	Same	Lpleas	1pleas	acq_unple_long	acq1_long	12	17	0	0	300	300	0	0	611	50	258,75	1	0	0	0	1	blank2r.bmp	0	1	+	0	4	B4r.bmp	500	1	blank2r.bmp	800	1	DHJF	800	1	blank2r.bmp	880	3	ärger	880	0	0	0	0	0	0	0	0	0	0	0	0	0	0	0	0	0	0	0	0	0	0	0	0	0	0	0	0	0	0	0	0	0
050418	10:02:30	5.0.10.0	61	CS_A	Lpleas_acq	Same	Lpleas	1pleas	acq_pleas_long	acq1_long	12	18	0	0	300	300	0	0	655	46	258,75	1	0	0	0	1	blank2r.bmp	0	1	+	0	2	B2r.bmp	500	1	blank2r.bmp	800	1	NPLW	800	1	blank2r.bmp	880	6	kreativ	880	0	0	0	0	0	0	0	0	0	0	0	0	0	0	0	0	0	0	0	0	0	0	0	0	0	0	0	0	0	0	0	0	0
050418	10:02:30	5.0.10.0	61	CS_A	Lpleas_acq	Same	Lpleas	1pleas	acq_unple_long	acq1_long	12	19	0	0	300	300	0	0	592	50	258,75	1	0	0	0	1	blank2r.bmp	0	1	+	0	3	B3r.bmp	500	1	blank2r.bmp	800	1	DHJF	800	1	blank2r.bmp	880	1	grausam	880	0	0	0	0	0	0	0	0	0	0	0	0	0	0	0	0	0	0	0	0	0	0	0	0	0	0	0	0	0	0	0	0	0
050418	10:02:30	5.0.10.0	61	CS_A	Lpleas_acq	Same	Lpleas	1pleas	acq_pleas_long	acq1_long	12	20	0	0	300	300	0	0	559	46	258,75	1	0	0	0	1	blank2r.bmp	0	1	+	0	6	C2r.bmp	500	1	blank2r.bmp	800	1	NPLW	800	1	blank2r.bmp	880	5	begabt	880	0	0	0	0	0	0	0	0	0	0	0	0	0	0	0	0	0	0	0	0	0	0	0	0	0	0	0	0	0	0	0	0	0
050418	10:02:30	5.0.10.0	61	CS_A	Lpleas_acq	Same	Lpleas	1pleas	acq_pleas_long	acq1_long	12	21	0	0	300	300	0	0	643	46	258,75	1	0	0	0	1	blank2r.bmp	0	1	+	0	8	C4r.bmp	500	1	blank2r.bmp	800	1	NPLW	800	1	blank2r.bmp	880	2	mutig	880	0	0	0	0	0	0	0	0	0	0	0	0	0	0	0	0	0	0	0	0	0	0	0	0	0	0	0	0	0	0	0	0	0
050418	10:02:30	5.0.10.0	61	CS_A	Lpleas_acq	Same	Lpleas	1pleas	acq_unple_long	acq1_long	12	22	0	0	300	300	0	0	1101	50	258,75	1	0	0	0	1	blank2r.bmp	0	1	+	0	7	C3r.bmp	500	1	blank2r.bmp	800	1	DHJF	800	1	blank2r.bmp	880	5	kummer	880	0	0	0	0	0	0	0	0	0	0	0	0	0	0	0	0	0	0	0	0	0	0	0	0	0	0	0	0	0	0	0	0	0
050418	10:02:30	5.0.10.0	61	CS_A	Lpleas_acq	Same	Lpleas	1pleas	acq_pleas_long	acq1_long	12	23	0	0	300	300	0	0	592	46	258,75	1	0	0	0	1	blank2r.bmp	0	1	+	0	5	C1r.bmp	500	1	blank2r.bmp	800	1	NPLW	800	1	blank2r.bmp	880	4	treu	880	0	0	0	0	0	0	0	0	0	0	0	0	0	0	0	0	0	0	0	0	0	0	0	0	0	0	0	0	0	0	0	0	0
050418	10:02:30	5.0.10.0	61	CS_A	Lpleas_acq	Same	Lpleas	1pleas	acq_unple_long	acq1_long	12	24	0	0	300	300	0	0	1358	46	258,75	0	0	0	0	1	blank2r.bmp	0	1	+	0	1	B1r.bmp	500	1	blank2r.bmp	800	1	DHJF	800	1	blank2r.bmp	880	6	traurig	880	1	FEHLER	2259	0	0	0	0	0	0	0	0	0	0	0	0	0	0	0	0	0	0	0	0	0	0	0	0	0	0	0	0	0	0
050418	10:02:30	5.0.10.0	61	CS_A	Lpleas_acq	Same	Lpleas	1pleas	acq_unple_long	acq2_long	13	1	475	0	300	300	0	0	1379	50	258,75	1	0	0	0	1	blank2r.bmp	0	1	+	0	2	B2r.bmp	500	1	blank2r.bmp	800	1	DHJF	800	1	blank2r.bmp	880	1	grausam	880	1	!	1319	1	!	-1	0	0	0	0	0	0	0	0	0	0	0	0	0	0	0	0	0	0	0	0	0	0	0	0	0	0	0
050418	10:02:30	5.0.10.0	61	CS_A	Lpleas_acq	Same	Lpleas	1pleas	acq_pleas_long	acq2_long	13	2	475	0	300	300	0	0	4124	46	258,75	1	0	0	0	1	blank2r.bmp	0	1	+	0	5	C1r.bmp	500	1	blank2r.bmp	800	1	NPLW	800	1	blank2r.bmp	880	3	kuss	880	1	!	1319	1	!	-1	0	0	0	0	0	0	0	0	0	0	0	0	0	0	0	0	0	0	0	0	0	0	0	0	0	0	0
050418	10:02:30	5.0.10.0	61	CS_A	Lpleas_acq	Same	Lpleas	1pleas	acq_pleas_long	acq2_long	13	3	475	0	300	300	0	0	306	46	258,75	1	0	0	0	1	blank2r.bmp	0	1	+	0	7	C3r.bmp	500	1	blank2r.bmp	800	1	NPLW	800	1	blank2r.bmp	880	4	treu	880	1	!	-1	1	!	-1	0	0	0	0	0	0	0	0	0	0	0	0	0	0	0	0	0	0	0	0	0	0	0	0	0	0	0
050418	10:02:30	5.0.10.0	61	CS_A	Lpleas_acq	Same	Lpleas	1pleas	acq_unple_long	acq2_long	13	4	475	1	300	300	0	0	449	50	258,75	1	0	0	0	1	blank2r.bmp	0	1	+	0	8	C4r.bmp	500	1	blank2r.bmp	800	1	DHJF	800	1	blank2r.bmp	880	5	kummer	880	1	!	1319	1	!	1349	0	0	0	0	0	0	0	0	0	0	0	0	0	0	0	0	0	0	0	0	0	0	0	0	0	0	0
