date	time	build	subject	expressions.associated	expressions.LRpleas_acq	expressions.SameOppo	expressions.condition_Lpleas	expressions.ABmasked	expressions.conditionCS_A	expressions.condition_1pleas	trialcode	blockcode	blocknum	trialnum	windowcenter	inwindow	pretrialpause	posttrialpause	trialduration	trialtimeout	latency	response	expressions.correctedscore	correct	values.vis_performance	values.vis_rating_sum	values.vis_rating_mean	stimulusnumber1	stimulusitem1	stimulusonset1	stimulusnumber2	stimulusitem2	stimulusonset2	stimulusnumber3	stimulusitem3	stimulusonset3	stimulusnumber4	stimulusitem4	stimulusonset4	stimulusnumber5	stimulusitem5	stimulusonset5	stimulusnumber6	stimulusitem6	stimulusonset6	stimulusnumber7	stimulusitem7	stimulusonset7	stimulusnumber8	stimulusitem8	stimulusonset8	stimulusnumber9	stimulusitem9	stimulusonset9	stimulusnumber10	stimulusitem10	stimulusonset10	stimulusnumber11	stimulusitem11	stimulusonset11	stimulusnumber12	stimulusitem12	stimulusonset12	stimulusnumber13	stimulusitem13	stimulusonset13	stimulusnumber14	stimulusitem14	stimulusonset14	stimulusnumber15	stimulusitem15	stimulusonset15	stimulusnumber16	stimulusitem16	stimulusonset16	stimulusnumber17	stimulusitem17	stimulusonset17	stimulusnumber18	stimulusitem18	stimulusonset18
062018	14:10:15	5.0.12.0	46	notassociated	Rpleas_acq	Same	Rpleas	Amasked	CS_A	2pleas	acq_unple_masked	acq1_masked	1	1	0	0	300	300	0	0	1173	46	0	1	0	0	0	1	blank2r.bmp	0	1	+	0	3	B3r.bmp	492	1	blank2r.bmp	786	1	HLST	786	1	blank2r.bmp	866	5	gegner	866	0	0	0	0	0	0	0	0	0	0	0	0	0	0	0	0	0	0	0	0	0	0	0	0	0	0	0	0	0	0	0	0	0
062018	14:10:15	5.0.12.0	46	notassociated	Rpleas_acq	Same	Rpleas	Amasked	CS_A	2pleas	acq_unple_masked	acq1_masked	1	2	0	0	300	300	0	0	897	46	0	1	0	0	0	1	blank2r.bmp	0	1	+	0	6	C2r.bmp	492	1	blank2r.bmp	786	1	HLST	786	1	blank2r.bmp	866	3	zwang	866	0	0	0	0	0	0	0	0	0	0	0	0	0	0	0	0	0	0	0	0	0	0	0	0	0	0	0	0	0	0	0	0	0
062018	14:10:15	5.0.12.0	46	notassociated	Rpleas_acq	Same	Rpleas	Amasked	CS_A	2pleas	acq_unple_masked	acq1_masked	1	3	0	0	300	300	0	0	996	46	0	1	0	0	0	1	blank2r.bmp	0	1	+	0	4	B4r.bmp	492	1	blank2r.bmp	786	1	HLST	786	1	blank2r.bmp	866	4	wunde	866	0	0	0	0	0	0	0	0	0	0	0	0	0	0	0	0	0	0	0	0	0	0	0	0	0	0	0	0	0	0	0	0	0
062018	14:10:15	5.0.12.0	46	notassociated	Rpleas_acq	Same	Rpleas	Amasked	CS_A	2pleas	acq_pleas_masked	acq1_masked	1	4	0	0	300	300	0	0	812	50	0	1	0	0	0	1	blank2r.bmp	0	1	+	0	8	C4r.bmp	492	1	blank2r.bmp	786	1	DJMR	786	1	blank2r.bmp	866	3	erfinder	866	0	0	0	0	0	0	0	0	0	0	0	0	0	0	0	0	0	0	0	0	0	0	0	0	0	0	0	0	0	0	0	0	0
062018	14:10:15	5.0.12.0	46	notassociated	Rpleas_acq	Same	Rpleas	Amasked	CS_A	2pleas	acq_pleas_masked	acq1_masked	1	5	0	0	300	300	0	0	733	50	0	1	0	0	0	1	blank2r.bmp	0	1	+	0	1	B1r.bmp	492	1	blank2r.bmp	786	1	DJMR	786	1	blank2r.bmp	866	5	frieden	866	0	0	0	0	0	0	0	0	0	0	0	0	0	0	0	0	0	0	0	0	0	0	0	0	0	0	0	0	0	0	0	0	0
062018	14:10:15	5.0.12.0	46	notassociated	Rpleas_acq	Same	Rpleas	Amasked	CS_A	2pleas	acq_pleas_masked	acq1_masked	1	6	0	0	300	300	0	0	479	50	0	1	0	0	0	1	blank2r.bmp	0	1	+	0	2	B2r.bmp	492	1	blank2r.bmp	786	1	DJMR	786	1	blank2r.bmp	866	1	jugend	866	0	0	0	0	0	0	0	0	0	0	0	0	0	0	0	0	0	0	0	0	0	0	0	0	0	0	0	0	0	0	0	0	0
062018	14:10:15	5.0.12.0	46	notassociated	Rpleas_acq	Same	Rpleas	Amasked	CS_A	2pleas	acq_unple_masked	acq1_masked	1	7	0	0	300	300	0	0	894	46	0	1	0	0	0	1	blank2r.bmp	0	1	+	0	5	C1r.bmp	492	1	blank2r.bmp	786	1	HLST	786	1	blank2r.bmp	866	6	narr	866	0	0	0	0	0	0	0	0	0	0	0	0	0	0	0	0	0	0	0	0	0	0	0	0	0	0	0	0	0	0	0	0	0
062018	14:10:15	5.0.12.0	46	notassociated	Rpleas_acq	Same	Rpleas	Amasked	CS_A	2pleas	acq_pleas_masked	acq1_masked	1	8	0	0	300	300	0	0	561	50	0	1	0	0	0	1	blank2r.bmp	0	1	+	0	7	C3r.bmp	492	1	blank2r.bmp	786	1	DJMR	786	1	blank2r.bmp	866	4	mama	866	0	0	0	0	0	0	0	0	0	0	0	0	0	0	0	0	0	0	0	0	0	0	0	0	0	0	0	0	0	0	0	0	0
062018	14:10:15	5.0.12.0	46	notassociated	Rpleas_acq	Same	Rpleas	Amasked	CS_A	2pleas	acq_unple_masked	acq1_masked	1	9	0	0	300	300	0	0	1344	46	0	1	0	0	0	1	blank2r.bmp	0	1	+	0	8	C4r.bmp	492	1	blank2r.bmp	786	1	HLST	786	1	blank2r.bmp	866	2	armee	866	0	0	0	0	0	0	0	0	0	0	0	0	0	0	0	0	0	0	0	0	0	0	0	0	0	0	0	0	0	0	0	0	0
062018	14:10:15	5.0.12.0	46	notassociated	Rpleas_acq	Same	Rpleas	Amasked	CS_A	2pleas	acq_unple_masked	acq1_masked	1	10	0	0	300	300	0	0	608	50	0	0	0	0	0	1	blank2r.bmp	0	1	+	0	3	B3r.bmp	492	1	blank2r.bmp	786	1	HLST	786	1	blank2r.bmp	866	1	geiz	866	1	FEHLER	1502	0	0	0	0	0	0	0	0	0	0	0	0	0	0	0	0	0	0	0	0	0	0	0	0	0	0	0	0	0	0
062018	14:10:15	5.0.12.0	46	notassociated	Rpleas_acq	Same	Rpleas	Amasked	CS_A	2pleas	acq_pleas_masked	acq1_masked	1	11	0	0	300	300	0	0	679	46	0	0	0	0	0	1	blank2r.bmp	0	1	+	0	7	C3r.bmp	492	1	blank2r.bmp	786	1	DJMR	786	1	blank2r.bmp	866	2	wein	866	1	FEHLER	1573	0	0	0	0	0	0	0	0	0	0	0	0	0	0	0	0	0	0	0	0	0	0	0	0	0	0	0	0	0	0
062018	14:10:15	5.0.12.0	46	notassociated	Rpleas_acq	Same	Rpleas	Amasked	CS_A	2pleas	acq_pleas_masked	acq1_masked	1	12	0	0	300	300	0	0	652	50	0	1	0	0	0	1	blank2r.bmp	0	1	+	0	4	B4r.bmp	492	1	blank2r.bmp	786	1	DJMR	786	1	blank2r.bmp	866	6	meer	866	0	0	0	0	0	0	0	0	0	0	0	0	0	0	0	0	0	0	0	0	0	0	0	0	0	0	0	0	0	0	0	0	0
062018	14:10:15	5.0.12.0	46	notassociated	Rpleas_acq	Same	Rpleas	Amasked	CS_A	2pleas	acq_pleas_masked	acq1_masked	1	13	0	0	300	300	0	0	766	50	0	1	0	0	0	1	blank2r.bmp	0	1	+	0	6	C2r.bmp	492	1	blank2r.bmp	786	1	DJMR	786	1	blank2r.bmp	866	1	jugend	866	0	0	0	0	0	0	0	0	0	0	0	0	0	0	0	0	0	0	0	0	0	0	0	0	0	0	0	0	0	0	0	0	0
062018	14:10:15	5.0.12.0	46	notassociated	Rpleas_acq	Same	Rpleas	Amasked	CS_A	2pleas	acq_unple_masked	acq1_masked	1	14	0	0	300	300	0	0	566	46	0	1	0	0	0	1	blank2r.bmp	0	1	+	0	5	C1r.bmp	492	1	blank2r.bmp	786	1	HLST	786	1	blank2r.bmp	866	2	armee	866	0	0	0	0	0	0	0	0	0	0	0	0	0	0	0	0	0	0	0	0	0	0	0	0	0	0	0	0	0	0	0	0	0
062018	14:10:15	5.0.12.0	46	notassociated	Rpleas_acq	Same	Rpleas	Amasked	CS_A	2pleas	acq_pleas_masked	acq1_masked	1	15	0	0	300	300	0	0	632	46	0	0	0	0	0	1	blank2r.bmp	0	1	+	0	2	B2r.bmp	492	1	blank2r.bmp	786	1	DJMR	786	1	blank2r.bmp	866	2	wein	866	1	FEHLER	1526	0	0	0	0	0	0	0	0	0	0	0	0	0	0	0	0	0	0	0	0	0	0	0	0	0	0	0	0	0	0
062018	14:10:15	5.0.12.0	46	notassociated	Rpleas_acq	Same	Rpleas	Amasked	CS_A	2pleas	acq_unple_masked	acq1_masked	1	16	0	0	300	300	0	0	709	46	0	1	0	0	0	1	blank2r.bmp	0	1	+	0	1	B1r.bmp	492	1	blank2r.bmp	786	1	HLST	786	1	blank2r.bmp	866	6	narr	866	0	0	0	0	0	0	0	0	0	0	0	0	0	0	0	0	0	0	0	0	0	0	0	0	0	0	0	0	0	0	0	0	0
062018	14:10:15	5.0.12.0	46	notassociated	Rpleas_acq	Same	Rpleas	Amasked	CS_A	2pleas	acq_unple_masked	acq1_masked	1	17	0	0	300	300	0	0	719	46	0	1	0	0	0	1	blank2r.bmp	0	1	+	0	2	B2r.bmp	492	1	blank2r.bmp	786	1	HLST	786	1	blank2r.bmp	866	5	gegner	866	0	0	0	0	0	0	0	0	0	0	0	0	0	0	0	0	0	0	0	0	0	0	0	0	0	0	0	0	0	0	0	0	0
062018	14:10:15	5.0.12.0	46	notassociated	Rpleas_acq	Same	Rpleas	Amasked	CS_A	2pleas	acq_unple_masked	acq1_masked	1	18	0	0	300	300	0	0	847	46	0	1	0	0	0	1	blank2r.bmp	0	1	+	0	4	B4r.bmp	492	1	blank2r.bmp	786	1	HLST	786	1	blank2r.bmp	866	1	geiz	866	0	0	0	0	0	0	0	0	0	0	0	0	0	0	0	0	0	0	0	0	0	0	0	0	0	0	0	0	0	0	0	0	0
062018	14:10:15	5.0.12.0	46	notassociated	Rpleas_acq	Same	Rpleas	Amasked	CS_A	2pleas	acq_pleas_masked	acq1_masked	1	19	0	0	300	300	0	0	554	50	0	1	0	0	0	1	blank2r.bmp	0	1	+	0	5	C1r.bmp	492	1	blank2r.bmp	786	1	DJMR	786	1	blank2r.bmp	866	4	mama	866	0	0	0	0	0	0	0	0	0	0	0	0	0	0	0	0	0	0	0	0	0	0	0	0	0	0	0	0	0	0	0	0	0
062018	14:10:15	5.0.12.0	46	notassociated	Rpleas_acq	Same	Rpleas	Amasked	CS_A	2pleas	acq_pleas_masked	acq1_masked	1	20	0	0	300	300	0	0	695	46	0	0	0	0	0	1	blank2r.bmp	0	1	+	0	6	C2r.bmp	492	1	blank2r.bmp	786	1	DJMR	786	1	blank2r.bmp	866	5	frieden	866	1	FEHLER	1588	0	0	0	0	0	0	0	0	0	0	0	0	0	0	0	0	0	0	0	0	0	0	0	0	0	0	0	0	0	0
062018	14:10:15	5.0.12.0	46	notassociated	Rpleas_acq	Same	Rpleas	Amasked	CS_A	2pleas	acq_unple_masked	acq1_masked	1	21	0	0	300	300	0	0	734	46	0	1	0	0	0	1	blank2r.bmp	0	1	+	0	7	C3r.bmp	492	1	blank2r.bmp	786	1	HLST	786	1	blank2r.bmp	866	4	wunde	866	0	0	0	0	0	0	0	0	0	0	0	0	0	0	0	0	0	0	0	0	0	0	0	0	0	0	0	0	0	0	0	0	0
062018	14:10:15	5.0.12.0	46	notassociated	Rpleas_acq	Same	Rpleas	Amasked	CS_A	2pleas	acq_unple_masked	acq1_masked	1	22	0	0	300	300	0	0	577	46	0	1	0	0	0	1	blank2r.bmp	0	1	+	0	3	B3r.bmp	492	1	blank2r.bmp	786	1	HLST	786	1	blank2r.bmp	866	3	zwang	866	0	0	0	0	0	0	0	0	0	0	0	0	0	0	0	0	0	0	0	0	0	0	0	0	0	0	0	0	0	0	0	0	0
062018	14:10:15	5.0.12.0	46	notassociated	Rpleas_acq	Same	Rpleas	Amasked	CS_A	2pleas	acq_pleas_masked	acq1_masked	1	23	0	0	300	300	0	0	515	50	0	1	0	0	0	1	blank2r.bmp	0	1	+	0	8	C4r.bmp	492	1	blank2r.bmp	786	1	DJMR	786	1	blank2r.bmp	866	6	meer	866	0	0	0	0	0	0	0	0	0	0	0	0	0	0	0	0	0	0	0	0	0	0	0	0	0	0	0	0	0	0	0	0	0
062018	14:10:15	5.0.12.0	46	notassociated	Rpleas_acq	Same	Rpleas	Amasked	CS_A	2pleas	acq_pleas_masked	acq1_masked	1	24	0	0	300	300	0	0	711	50	0	1	0	0	0	1	blank2r.bmp	0	1	+	0	1	B1r.bmp	492	1	blank2r.bmp	786	1	DJMR	786	1	blank2r.bmp	866	3	erfinder	866	0	0	0	0	0	0	0	0	0	0	0	0	0	0	0	0	0	0	0	0	0	0	0	0	0	0	0	0	0	0	0	0	0
062018	14:10:15	5.0.12.0	46	notassociated	Rpleas_acq	Same	Rpleas	Amasked	CS_A	2pleas	acq_unple_masked	acq2_masked	2	1	480	0	300	300	0	0	2434	46	0	1	0	0	0	1	blank2r.bmp	0	1	+	0	7	C3r.bmp	492	1	blank2r.bmp	786	1	HLST	786	1	blank2r.bmp	866	6	narr	866	1	!	1307	1	!	-1	0	0	0	0	0	0	0	0	0	0	0	0	0	0	0	0	0	0	0	0	0	0	0	0	0	0	0
062018	14:10:15	5.0.12.0	46	notassociated	Rpleas_acq	Same	Rpleas	Amasked	CS_A	2pleas	acq_pleas_masked	acq2_masked	2	2	480	0	300	300	0	0	587	50	0	1	0	0	0	1	blank2r.bmp	0	1	+	0	3	B3r.bmp	492	1	blank2r.bmp	786	1	DJMR	786	1	blank2r.bmp	866	3	erfinder	866	1	!	1307	1	!	-1	0	0	0	0	0	0	0	0	0	0	0	0	0	0	0	0	0	0	0	0	0	0	0	0	0	0	0
062018	14:10:15	5.0.12.0	46	notassociated	Rpleas_acq	Same	Rpleas	Amasked	CS_A	2pleas	acq_unple_masked	acq2_masked	2	3	480	0	300	300	0	0	572	50	0	0	0	0	0	1	blank2r.bmp	0	1	+	0	2	B2r.bmp	492	1	blank2r.bmp	786	1	HLST	786	1	blank2r.bmp	866	5	gegner	866	1	FEHLER	1759	1	!	1307	1	!	-1	0	0	0	0	0	0	0	0	0	0	0	0	0	0	0	0	0	0	0	0	0	0	0	0
062018	14:10:15	5.0.12.0	46	notassociated	Rpleas_acq	Same	Rpleas	Amasked	CS_A	2pleas	acq_unple_masked	acq2_masked	2	4	480	0	300	300	0	0	393	46	0	1	0	0	0	1	blank2r.bmp	0	1	+	0	5	C1r.bmp	492	1	blank2r.bmp	786	1	HLST	786	1	blank2r.bmp	866	3	zwang	866	1	!	-1	1	!	-1	0	0	0	0	0	0	0	0	0	0	0	0	0	0	0	0	0	0	0	0	0	0	0	0	0	0	0
062018	14:10:15	5.0.12.0	46	notassociated	Rpleas_acq	Same	Rpleas	Amasked	CS_A	2pleas	acq_pleas_masked	acq2_masked	2	5	480	0	300	300	0	0	689	46	0	0	0	0	0	1	blank2r.bmp	0	1	+	0	6	C2r.bmp	492	1	blank2r.bmp	786	1	DJMR	786	1	blank2r.bmp	866	2	wein	866	1	FEHLER	1876	1	!	1307	1	!	-1	0	0	0	0	0	0	0	0	0	0	0	0	0	0	0	0	0	0	0	0	0	0	0	0
062018	14:10:15	5.0.12.0	46	notassociated	Rpleas_acq	Same	Rpleas	Amasked	CS_A	2pleas	acq_pleas_masked	acq2_masked	2	6	480	0	300	300	0	0	679	50	0	1	0	0	0	1	blank2r.bmp	0	1	+	0	8	C4r.bmp	492	1	blank2r.bmp	786	1	DJMR	786	1	blank2r.bmp	866	1	jugend	866	1	!	1307	1	!	-1	0	0	0	0	0	0	0	0	0	0	0	0	0	0	0	0	0	0	0	0	0	0	0	0	0	0	0
062018	14:10:15	5.0.12.0	46	notassociated	Rpleas_acq	Same	Rpleas	Amasked	CS_A	2pleas	acq_pleas_masked	acq2_masked	2	7	480	1	300	300	0	0	459	50	0	1	0	0	0	1	blank2r.bmp	0	1	+	0	4	B4r.bmp	492	1	blank2r.bmp	786	1	DJMR	786	1	blank2r.bmp	866	4	mama	866	1	!	1307	1	!	1352	0	0	0	0	0	0	0	0	0	0	0	0	0	0	0	0	0	0	0	0	0	0	0	0	0	0	0
062018	14:10:15	5.0.12.0	46	notassociated	Rpleas_acq	Same	Rpleas	Amasked	CS_A	2pleas	acq_unple_masked	acq2_masked	2	8	480	0	300	300	0	0	624	46	0	1	0	0	0	1	blank2r.bmp	0	1	+	0	1	B1r.bmp	492	1	blank2r.bmp	786	1	HLST	786	1	blank2r.bmp	866	1	geiz	866	1	!	1307	1	!	-1	0	0	0	0	0	0	0	0	0	0	0	0	0	0	0	0	0	0	0	0	0	0	0	0	0	0	0
062018	14:10:15	5.0.12.0	46	notassociated	Rpleas_acq	Same	Rpleas	Amasked	CS_A	2pleas	acq_unple_masked	acq2_masked	2	9	480	1	300	300	0	0	469	50	0	0	0	0	0	1	blank2r.bmp	0	1	+	0	1	B1r.bmp	492	1	blank2r.bmp	786	1	HLST	786	1	blank2r.bmp	866	2	armee	866	1	FEHLER	1657	1	!	1307	1	!	1363	0	0	0	0	0	0	0	0	0	0	0	0	0	0	0	0	0	0	0	0	0	0	0	0
062018	14:10:15	5.0.12.0	46	notassociated	Rpleas_acq	Same	Rpleas	Amasked	CS_A	2pleas	acq_unple_masked	acq2_masked	2	10	480	1	300	300	0	0	445	46	0	1	0	0	0	1	blank2r.bmp	0	1	+	0	2	B2r.bmp	492	1	blank2r.bmp	786	1	HLST	786	1	blank2r.bmp	866	4	wunde	866	1	!	1307	1	!	1339	0	0	0	0	0	0	0	0	0	0	0	0	0	0	0	0	0	0	0	0	0	0	0	0	0	0	0
062018	14:10:15	5.0.12.0	46	notassociated	Rpleas_acq	Same	Rpleas	Amasked	CS_A	2pleas	acq_unple_masked	acq2_masked	2	11	480	0	300	300	0	0	560	50	0	0	0	0	0	1	blank2r.bmp	0	1	+	0	3	B3r.bmp	492	1	blank2r.bmp	786	1	HLST	786	1	blank2r.bmp	866	5	gegner	866	1	FEHLER	1747	1	!	1307	1	!	-1	0	0	0	0	0	0	0	0	0	0	0	0	0	0	0	0	0	0	0	0	0	0	0	0
062018	14:10:15	5.0.12.0	46	notassociated	Rpleas_acq	Same	Rpleas	Amasked	CS_A	2pleas	acq_pleas_masked	acq2_masked	2	12	480	1	300	300	0	0	507	50	0	1	0	0	0	1	blank2r.bmp	0	1	+	0	6	C2r.bmp	492	1	blank2r.bmp	786	1	DJMR	786	1	blank2r.bmp	866	6	meer	866	1	!	1307	1	!	1401	0	0	0	0	0	0	0	0	0	0	0	0	0	0	0	0	0	0	0	0	0	0	0	0	0	0	0
062018	14:10:15	5.0.12.0	46	notassociated	Rpleas_acq	Same	Rpleas	Amasked	CS_A	2pleas	acq_pleas_masked	acq2_masked	2	13	480	1	300	300	0	0	539	50	0	1	0	0	0	1	blank2r.bmp	0	1	+	0	8	C4r.bmp	492	1	blank2r.bmp	786	1	DJMR	786	1	blank2r.bmp	866	5	frieden	866	1	!	1307	1	!	1433	0	0	0	0	0	0	0	0	0	0	0	0	0	0	0	0	0	0	0	0	0	0	0	0	0	0	0
062018	14:10:15	5.0.12.0	46	notassociated	Rpleas_acq	Same	Rpleas	Amasked	CS_A	2pleas	acq_pleas_masked	acq2_masked	2	14	480	1	300	300	0	0	465	50	0	1	0	0	0	1	blank2r.bmp	0	1	+	0	4	B4r.bmp	492	1	blank2r.bmp	786	1	DJMR	786	1	blank2r.bmp	866	6	meer	866	1	!	1307	1	!	1358	0	0	0	0	0	0	0	0	0	0	0	0	0	0	0	0	0	0	0	0	0	0	0	0	0	0	0
062018	14:10:15	5.0.12.0	46	notassociated	Rpleas_acq	Same	Rpleas	Amasked	CS_A	2pleas	acq_pleas_masked	acq2_masked	2	15	480	1	300	300	0	0	520	50	0	1	0	0	0	1	blank2r.bmp	0	1	+	0	5	C1r.bmp	492	1	blank2r.bmp	786	1	DJMR	786	1	blank2r.bmp	866	5	frieden	866	1	!	1307	1	!	1414	0	0	0	0	0	0	0	0	0	0	0	0	0	0	0	0	0	0	0	0	0	0	0	0	0	0	0
062018	14:10:15	5.0.12.0	46	notassociated	Rpleas_acq	Same	Rpleas	Amasked	CS_A	2pleas	acq_unple_masked	acq2_masked	2	16	480	1	300	300	0	0	427	46	0	1	0	0	0	1	blank2r.bmp	0	1	+	0	7	C3r.bmp	492	1	blank2r.bmp	786	1	HLST	786	1	blank2r.bmp	866	1	geiz	866	1	!	1307	1	!	1321	0	0	0	0	0	0	0	0	0	0	0	0	0	0	0	0	0	0	0	0	0	0	0	0	0	0	0
062018	14:10:15	5.0.12.0	46	notassociated	Rpleas_acq	Same	Rpleas	Amasked	CS_A	2pleas	acq_pleas_masked	acq2_masked	2	17	480	1	300	300	0	0	443	50	0	1	0	0	0	1	blank2r.bmp	0	1	+	0	2	B2r.bmp	492	1	blank2r.bmp	786	1	DJMR	786	1	blank2r.bmp	866	2	wein	866	1	!	1307	1	!	1337	0	0	0	0	0	0	0	0	0	0	0	0	0	0	0	0	0	0	0	0	0	0	0	0	0	0	0
062018	14:10:15	5.0.12.0	46	notassociated	Rpleas_acq	Same	Rpleas	Amasked	CS_A	2pleas	acq_unple_masked	acq2_masked	2	18	480	1	300	300	0	0	414	46	0	1	0	0	0	1	blank2r.bmp	0	1	+	0	4	B4r.bmp	492	1	blank2r.bmp	786	1	HLST	786	1	blank2r.bmp	866	4	wunde	866	1	!	1307	1	!	1307	0	0	0	0	0	0	0	0	0	0	0	0	0	0	0	0	0	0	0	0	0	0	0	0	0	0	0
062018	14:10:15	5.0.12.0	46	notassociated	Rpleas_acq	Same	Rpleas	Amasked	CS_A	2pleas	acq_unple_masked	acq2_masked	2	19	480	1	300	300	0	0	523	46	0	1	0	0	0	1	blank2r.bmp	0	1	+	0	6	C2r.bmp	492	1	blank2r.bmp	786	1	HLST	786	1	blank2r.bmp	866	6	narr	866	1	!	1307	1	!	1416	0	0	0	0	0	0	0	0	0	0	0	0	0	0	0	0	0	0	0	0	0	0	0	0	0	0	0
062018	14:10:15	5.0.12.0	46	notassociated	Rpleas_acq	Same	Rpleas	Amasked	CS_A	2pleas	acq_pleas_masked	acq2_masked	2	20	480	1	300	300	0	0	525	50	0	1	0	0	0	1	blank2r.bmp	0	1	+	0	7	C3r.bmp	492	1	blank2r.bmp	786	1	DJMR	786	1	blank2r.bmp	866	4	mama	866	1	!	1307	1	!	1419	0	0	0	0	0	0	0	0	0	0	0	0	0	0	0	0	0	0	0	0	0	0	0	0	0	0	0
062018	14:10:15	5.0.12.0	46	notassociated	Rpleas_acq	Same	Rpleas	Amasked	CS_A	2pleas	acq_unple_masked	acq2_masked	2	21	480	1	300	300	0	0	483	46	0	1	0	0	0	1	blank2r.bmp	0	1	+	0	3	B3r.bmp	492	1	blank2r.bmp	786	1	HLST	786	1	blank2r.bmp	866	2	armee	866	1	!	1307	1	!	1377	0	0	0	0	0	0	0	0	0	0	0	0	0	0	0	0	0	0	0	0	0	0	0	0	0	0	0
062018	14:10:15	5.0.12.0	46	notassociated	Rpleas_acq	Same	Rpleas	Amasked	CS_A	2pleas	acq_pleas_masked	acq2_masked	2	22	480	1	300	300	0	0	494	46	0	0	0	0	0	1	blank2r.bmp	0	1	+	0	8	C4r.bmp	492	1	blank2r.bmp	786	1	DJMR	786	1	blank2r.bmp	866	3	erfinder	866	1	FEHLER	1681	1	!	1307	1	!	1387	0	0	0	0	0	0	0	0	0	0	0	0	0	0	0	0	0	0	0	0	0	0	0	0
062018	14:10:15	5.0.12.0	46	notassociated	Rpleas_acq	Same	Rpleas	Amasked	CS_A	2pleas	acq_pleas_masked	acq2_masked	2	23	480	1	300	300	0	0	491	50	0	1	0	0	0	1	blank2r.bmp	0	1	+	0	5	C1r.bmp	492	1	blank2r.bmp	786	1	DJMR	786	1	blank2r.bmp	866	1	jugend	866	1	!	1307	1	!	1385	0	0	0	0	0	0	0	0	0	0	0	0	0	0	0	0	0	0	0	0	0	0	0	0	0	0	0
062018	14:10:15	5.0.12.0	46	notassociated	Rpleas_acq	Same	Rpleas	Amasked	CS_A	2pleas	acq_unple_masked	acq2_masked	2	24	480	1	300	300	0	0	470	46	0	1	0	0	0	1	blank2r.bmp	0	1	+	0	1	B1r.bmp	492	1	blank2r.bmp	786	1	HLST	786	1	blank2r.bmp	866	3	zwang	866	1	!	1307	1	!	1363	0	0	0	0	0	0	0	0	0	0	0	0	0	0	0	0	0	0	0	0	0	0	0	0	0	0	0
062018	14:10:15	5.0.12.0	46	notassociated	Rpleas_acq	Same	Rpleas	Amasked	CS_A	2pleas	acq_unple_masked	acq3_masked	3	1	453	0	300	300	0	0	599	46	0	1	0	0	0	1	blank2r.bmp	0	1	+	0	4	B4r.bmp	492	1	blank2r.bmp	786	1	HLST	786	1	blank2r.bmp	866	5	gegner	866	1	!	1280	1	!	-1	0	0	0	0	0	0	0	0	0	0	0	0	0	0	0	0	0	0	0	0	0	0	0	0	0	0	0
062018	14:10:15	5.0.12.0	46	notassociated	Rpleas_acq	Same	Rpleas	Amasked	CS_A	2pleas	acq_unple_masked	acq3_masked	3	2	453	0	300	300	0	0	664	46	0	1	0	0	0	1	blank2r.bmp	0	1	+	0	3	B3r.bmp	492	1	blank2r.bmp	786	1	HLST	786	1	blank2r.bmp	866	2	armee	866	1	!	1280	1	!	-1	0	0	0	0	0	0	0	0	0	0	0	0	0	0	0	0	0	0	0	0	0	0	0	0	0	0	0
062018	14:10:15	5.0.12.0	46	notassociated	Rpleas_acq	Same	Rpleas	Amasked	CS_A	2pleas	acq_unple_masked	acq3_masked	3	3	453	0	300	300	0	0	549	46	0	1	0	0	0	1	blank2r.bmp	0	1	+	0	7	C3r.bmp	492	1	blank2r.bmp	786	1	HLST	786	1	blank2r.bmp	866	1	geiz	866	1	!	1280	1	!	-1	0	0	0	0	0	0	0	0	0	0	0	0	0	0	0	0	0	0	0	0	0	0	0	0	0	0	0
062018	14:10:15	5.0.12.0	46	notassociated	Rpleas_acq	Same	Rpleas	Amasked	CS_A	2pleas	acq_pleas_masked	acq3_masked	3	4	453	1	300	300	0	0	414	50	0	1	0	0	0	1	blank2r.bmp	0	1	+	0	8	C4r.bmp	492	1	blank2r.bmp	786	1	DJMR	786	1	blank2r.bmp	866	4	mama	866	1	!	1280	1	!	1307	0	0	0	0	0	0	0	0	0	0	0	0	0	0	0	0	0	0	0	0	0	0	0	0	0	0	0
062018	14:10:15	5.0.12.0	46	notassociated	Rpleas_acq	Same	Rpleas	Amasked	CS_A	2pleas	acq_unple_masked	acq3_masked	3	5	453	0	300	300	0	0	539	46	0	1	0	0	0	1	blank2r.bmp	0	1	+	0	1	B1r.bmp	492	1	blank2r.bmp	786	1	HLST	786	1	blank2r.bmp	866	4	wunde	866	1	!	1280	1	!	-1	0	0	0	0	0	0	0	0	0	0	0	0	0	0	0	0	0	0	0	0	0	0	0	0	0	0	0
062018	14:10:15	5.0.12.0	46	notassociated	Rpleas_acq	Same	Rpleas	Amasked	CS_A	2pleas	acq_pleas_masked	acq3_masked	3	6	453	1	300	300	0	0	464	50	0	1	0	0	0	1	blank2r.bmp	0	1	+	0	6	C2r.bmp	492	1	blank2r.bmp	786	1	DJMR	786	1	blank2r.bmp	866	1	jugend	866	1	!	1280	1	!	1358	0	0	0	0	0	0	0	0	0	0	0	0	0	0	0	0	0	0	0	0	0	0	0	0	0	0	0
062018	14:10:15	5.0.12.0	46	notassociated	Rpleas_acq	Same	Rpleas	Amasked	CS_A	2pleas	acq_pleas_masked	acq3_masked	3	7	453	0	300	300	0	0	376	46	0	0	0	0	0	1	blank2r.bmp	0	1	+	0	2	B2r.bmp	492	1	blank2r.bmp	786	1	DJMR	786	1	blank2r.bmp	866	6	meer	866	1	FEHLER	1563	1	!	-1	1	!	-1	0	0	0	0	0	0	0	0	0	0	0	0	0	0	0	0	0	0	0	0	0	0	0	0
062018	14:10:15	5.0.12.0	46	notassociated	Rpleas_acq	Same	Rpleas	Amasked	CS_A	2pleas	acq_pleas_masked	acq3_masked	3	8	453	0	300	300	0	0	525	46	0	0	0	0	0	1	blank2r.bmp	0	1	+	0	5	C1r.bmp	492	1	blank2r.bmp	786	1	DJMR	786	1	blank2r.bmp	866	3	erfinder	866	1	FEHLER	1712	1	!	1280	1	!	-1	0	0	0	0	0	0	0	0	0	0	0	0	0	0	0	0	0	0	0	0	0	0	0	0
062018	14:10:15	5.0.12.0	46	notassociated	Rpleas_acq	Same	Rpleas	Amasked	CS_A	2pleas	acq_unple_masked	acq3_masked	3	9	453	1	300	300	0	0	448	46	0	1	0	0	0	1	blank2r.bmp	0	1	+	0	5	C1r.bmp	492	1	blank2r.bmp	786	1	HLST	786	1	blank2r.bmp	866	6	narr	866	1	!	1280	1	!	1342	0	0	0	0	0	0	0	0	0	0	0	0	0	0	0	0	0	0	0	0	0	0	0	0	0	0	0
062018	14:10:15	5.0.12.0	46	notassociated	Rpleas_acq	Same	Rpleas	Amasked	CS_A	2pleas	acq_pleas_masked	acq3_masked	3	10	453	1	300	300	0	0	499	50	0	1	0	0	0	1	blank2r.bmp	0	1	+	0	7	C3r.bmp	492	1	blank2r.bmp	786	1	DJMR	786	1	blank2r.bmp	866	5	frieden	866	1	!	1280	1	!	1392	0	0	0	0	0	0	0	0	0	0	0	0	0	0	0	0	0	0	0	0	0	0	0	0	0	0	0
062018	14:10:15	5.0.12.0	46	notassociated	Rpleas_acq	Same	Rpleas	Amasked	CS_A	2pleas	acq_unple_masked	acq3_masked	3	11	453	0	300	300	0	0	560	46	0	1	0	0	0	1	blank2r.bmp	0	1	+	0	8	C4r.bmp	492	1	blank2r.bmp	786	1	HLST	786	1	blank2r.bmp	866	3	zwang	866	1	!	1280	1	!	-1	0	0	0	0	0	0	0	0	0	0	0	0	0	0	0	0	0	0	0	0	0	0	0	0	0	0	0
062018	14:10:15	5.0.12.0	46	notassociated	Rpleas_acq	Same	Rpleas	Amasked	CS_A	2pleas	acq_pleas_masked	acq3_masked	3	12	453	1	300	300	0	0	443	46	0	0	0	0	0	1	blank2r.bmp	0	1	+	0	4	B4r.bmp	492	1	blank2r.bmp	786	1	DJMR	786	1	blank2r.bmp	866	2	wein	866	1	FEHLER	1630	1	!	1280	1	!	1337	0	0	0	0	0	0	0	0	0	0	0	0	0	0	0	0	0	0	0	0	0	0	0	0
062018	14:10:15	5.0.12.0	46	notassociated	Rpleas_acq	Same	Rpleas	Amasked	CS_A	2pleas	acq_pleas_masked	acq3_masked	3	13	453	1	300	300	0	0	413	50	0	1	0	0	0	1	blank2r.bmp	0	1	+	0	6	C2r.bmp	492	1	blank2r.bmp	786	1	DJMR	786	1	blank2r.bmp	866	6	meer	866	1	!	1280	1	!	1307	0	0	0	0	0	0	0	0	0	0	0	0	0	0	0	0	0	0	0	0	0	0	0	0	0	0	0
062018	14:10:15	5.0.12.0	46	notassociated	Rpleas_acq	Same	Rpleas	Amasked	CS_A	2pleas	acq_unple_masked	acq3_masked	3	14	453	0	300	300	0	0	522	50	0	0	0	0	0	1	blank2r.bmp	0	1	+	0	3	B3r.bmp	492	1	blank2r.bmp	786	1	HLST	786	1	blank2r.bmp	866	1	geiz	866	1	FEHLER	1710	1	!	1280	1	!	-1	0	0	0	0	0	0	0	0	0	0	0	0	0	0	0	0	0	0	0	0	0	0	0	0
062018	14:10:15	5.0.12.0	46	notassociated	Rpleas_acq	Same	Rpleas	Amasked	CS_A	2pleas	acq_unple_masked	acq3_masked	3	15	453	1	300	300	0	0	426	46	0	1	0	0	0	1	blank2r.bmp	0	1	+	0	2	B2r.bmp	492	1	blank2r.bmp	786	1	HLST	786	1	blank2r.bmp	866	6	narr	866	1	!	1280	1	!	1320	0	0	0	0	0	0	0	0	0	0	0	0	0	0	0	0	0	0	0	0	0	0	0	0	0	0	0
062018	14:10:15	5.0.12.0	46	notassociated	Rpleas_acq	Same	Rpleas	Amasked	CS_A	2pleas	acq_pleas_masked	acq3_masked	3	16	453	1	300	300	0	0	458	50	0	1	0	0	0	1	blank2r.bmp	0	1	+	0	1	B1r.bmp	492	1	blank2r.bmp	786	1	DJMR	786	1	blank2r.bmp	866	2	wein	866	1	!	1280	1	!	1352	0	0	0	0	0	0	0	0	0	0	0	0	0	0	0	0	0	0	0	0	0	0	0	0	0	0	0
062018	14:10:15	5.0.12.0	46	notassociated	Rpleas_acq	Same	Rpleas	Amasked	CS_A	2pleas	acq_unple_masked	acq3_masked	3	17	453	0	300	300	0	0	546	46	0	1	0	0	0	1	blank2r.bmp	0	1	+	0	8	C4r.bmp	492	1	blank2r.bmp	786	1	HLST	786	1	blank2r.bmp	866	3	zwang	866	1	!	1280	1	!	-1	0	0	0	0	0	0	0	0	0	0	0	0	0	0	0	0	0	0	0	0	0	0	0	0	0	0	0
062018	14:10:15	5.0.12.0	46	notassociated	Rpleas_acq	Same	Rpleas	Amasked	CS_A	2pleas	acq_pleas_masked	acq3_masked	3	18	453	1	300	300	0	0	474	50	0	1	0	0	0	1	blank2r.bmp	0	1	+	0	1	B1r.bmp	492	1	blank2r.bmp	786	1	DJMR	786	1	blank2r.bmp	866	5	frieden	866	1	!	1280	1	!	1368	0	0	0	0	0	0	0	0	0	0	0	0	0	0	0	0	0	0	0	0	0	0	0	0	0	0	0
062018	14:10:15	5.0.12.0	46	notassociated	Rpleas_acq	Same	Rpleas	Amasked	CS_A	2pleas	acq_unple_masked	acq3_masked	3	19	453	1	300	300	0	0	437	46	0	1	0	0	0	1	blank2r.bmp	0	1	+	0	6	C2r.bmp	492	1	blank2r.bmp	786	1	HLST	786	1	blank2r.bmp	866	5	gegner	866	1	!	1280	1	!	1331	0	0	0	0	0	0	0	0	0	0	0	0	0	0	0	0	0	0	0	0	0	0	0	0	0	0	0
062018	14:10:15	5.0.12.0	46	notassociated	Rpleas_acq	Same	Rpleas	Amasked	CS_A	2pleas	acq_unple_masked	acq3_masked	3	20	453	1	300	300	0	0	453	46	0	1	0	0	0	1	blank2r.bmp	0	1	+	0	4	B4r.bmp	492	1	blank2r.bmp	786	1	HLST	786	1	blank2r.bmp	866	2	armee	866	1	!	1280	1	!	1347	0	0	0	0	0	0	0	0	0	0	0	0	0	0	0	0	0	0	0	0	0	0	0	0	0	0	0
062018	14:10:15	5.0.12.0	46	notassociated	Rpleas_acq	Same	Rpleas	Amasked	CS_A	2pleas	acq_unple_masked	acq3_masked	3	21	453	1	300	300	0	0	474	46	0	1	0	0	0	1	blank2r.bmp	0	1	+	0	5	C1r.bmp	492	1	blank2r.bmp	786	1	HLST	786	1	blank2r.bmp	866	4	wunde	866	1	!	1280	1	!	1368	0	0	0	0	0	0	0	0	0	0	0	0	0	0	0	0	0	0	0	0	0	0	0	0	0	0	0
062018	14:10:15	5.0.12.0	46	notassociated	Rpleas_acq	Same	Rpleas	Amasked	CS_A	2pleas	acq_unple_masked	acq3_masked	3	22	453	1	300	300	0	0	498	46	0	1	0	0	0	1	blank2r.bmp	0	1	+	0	2	B2r.bmp	492	1	blank2r.bmp	786	1	HLST	786	1	blank2r.bmp	866	6	narr	866	1	!	1280	1	!	1392	0	0	0	0	0	0	0	0	0	0	0	0	0	0	0	0	0	0	0	0	0	0	0	0	0	0	0
062018	14:10:15	5.0.12.0	46	notassociated	Rpleas_acq	Same	Rpleas	Amasked	CS_A	2pleas	acq_pleas_masked	acq3_masked	3	23	453	1	300	300	0	0	447	50	0	1	0	0	0	1	blank2r.bmp	0	1	+	0	7	C3r.bmp	492	1	blank2r.bmp	786	1	DJMR	786	1	blank2r.bmp	866	1	jugend	866	1	!	1280	1	!	1341	0	0	0	0	0	0	0	0	0	0	0	0	0	0	0	0	0	0	0	0	0	0	0	0	0	0	0
062018	14:10:15	5.0.12.0	46	notassociated	Rpleas_acq	Same	Rpleas	Amasked	CS_A	2pleas	acq_pleas_masked	acq3_masked	3	24	453	1	300	300	0	0	469	46	0	0	0	0	0	1	blank2r.bmp	0	1	+	0	3	B3r.bmp	492	1	blank2r.bmp	786	1	DJMR	786	1	blank2r.bmp	866	3	erfinder	866	1	FEHLER	1656	1	!	1280	1	!	1362	0	0	0	0	0	0	0	0	0	0	0	0	0	0	0	0	0	0	0	0	0	0	0	0
062018	14:10:15	5.0.12.0	46	notassociated	Rpleas_acq	Same	Rpleas	Amasked	CS_A	2pleas	acq_pleas_masked	acq3_masked	3	25	453	1	300	300	0	0	493	50	0	1	0	0	0	1	blank2r.bmp	0	1	+	0	6	C2r.bmp	492	1	blank2r.bmp	786	1	DJMR	786	1	blank2r.bmp	866	4	mama	866	1	!	1280	1	!	1386	0	0	0	0	0	0	0	0	0	0	0	0	0	0	0	0	0	0	0	0	0	0	0	0	0	0	0
062018	14:10:15	5.0.12.0	46	notassociated	Rpleas_acq	Same	Rpleas	Amasked	CS_A	2pleas	acq_unple_masked	acq3_masked	3	26	453	1	300	300	0	0	474	46	0	1	0	0	0	1	blank2r.bmp	0	1	+	0	1	B1r.bmp	492	1	blank2r.bmp	786	1	HLST	786	1	blank2r.bmp	866	2	armee	866	1	!	1280	1	!	1368	0	0	0	0	0	0	0	0	0	0	0	0	0	0	0	0	0	0	0	0	0	0	0	0	0	0	0
062018	14:10:15	5.0.12.0	46	notassociated	Rpleas_acq	Same	Rpleas	Amasked	CS_A	2pleas	acq_unple_masked	acq3_masked	3	27	453	0	300	300	0	0	594	50	0	0	0	0	0	1	blank2r.bmp	0	1	+	0	8	C4r.bmp	492	1	blank2r.bmp	786	1	HLST	786	1	blank2r.bmp	866	1	geiz	866	1	FEHLER	1781	1	!	1280	1	!	-1	0	0	0	0	0	0	0	0	0	0	0	0	0	0	0	0	0	0	0	0	0	0	0	0
062018	14:10:15	5.0.12.0	46	notassociated	Rpleas_acq	Same	Rpleas	Amasked	CS_A	2pleas	acq_pleas_masked	acq3_masked	3	28	453	1	300	300	0	0	514	50	0	1	0	0	0	1	blank2r.bmp	0	1	+	0	4	B4r.bmp	492	1	blank2r.bmp	786	1	DJMR	786	1	blank2r.bmp	866	1	jugend	866	1	!	1280	1	!	1408	0	0	0	0	0	0	0	0	0	0	0	0	0	0	0	0	0	0	0	0	0	0	0	0	0	0	0
062018	14:10:15	5.0.12.0	46	notassociated	Rpleas_acq	Same	Rpleas	Amasked	CS_A	2pleas	acq_unple_masked	acq3_masked	3	29	453	1	300	300	0	0	469	46	0	1	0	0	0	1	blank2r.bmp	0	1	+	0	7	C3r.bmp	492	1	blank2r.bmp	786	1	HLST	786	1	blank2r.bmp	866	5	gegner	866	1	!	1280	1	!	1363	0	0	0	0	0	0	0	0	0	0	0	0	0	0	0	0	0	0	0	0	0	0	0	0	0	0	0
062018	14:10:15	5.0.12.0	46	notassociated	Rpleas_acq	Same	Rpleas	Amasked	CS_A	2pleas	acq_pleas_masked	acq3_masked	3	30	453	1	300	300	0	0	490	50	0	1	0	0	0	1	blank2r.bmp	0	1	+	0	2	B2r.bmp	492	1	blank2r.bmp	786	1	DJMR	786	1	blank2r.bmp	866	5	frieden	866	1	!	1280	1	!	1384	0	0	0	0	0	0	0	0	0	0	0	0	0	0	0	0	0	0	0	0	0	0	0	0	0	0	0
062018	14:10:15	5.0.12.0	46	notassociated	Rpleas_acq	Same	Rpleas	Amasked	CS_A	2pleas	acq_pleas_masked	acq3_masked	3	31	453	1	300	300	0	0	472	50	0	1	0	0	0	1	blank2r.bmp	0	1	+	0	3	B3r.bmp	492	1	blank2r.bmp	786	1	DJMR	786	1	blank2r.bmp	866	6	meer	866	1	!	1280	1	!	1365	0	0	0	0	0	0	0	0	0	0	0	0	0	0	0	0	0	0	0	0	0	0	0	0	0	0	0
062018	14:10:15	5.0.12.0	46	notassociated	Rpleas_acq	Same	Rpleas	Amasked	CS_A	2pleas	acq_pleas_masked	acq3_masked	3	32	453	1	300	300	0	0	466	50	0	1	0	0	0	1	blank2r.bmp	0	1	+	0	5	C1r.bmp	492	1	blank2r.bmp	786	1	DJMR	786	1	blank2r.bmp	866	4	mama	866	1	!	1280	1	!	1360	0	0	0	0	0	0	0	0	0	0	0	0	0	0	0	0	0	0	0	0	0	0	0	0	0	0	0
062018	14:10:15	5.0.12.0	46	notassociated	Rpleas_acq	Same	Rpleas	Amasked	CS_A	2pleas	acq_unple_masked	acq45_masked	4	1	400	0	300	300	0	0	658	50	0	0	0	0	0	1	blank2r.bmp	0	1	+	0	2	B2r.bmp	492	1	blank2r.bmp	786	1	HLST	786	1	blank2r.bmp	866	3	zwang	866	1	!	1227	1	!	-1	0	0	0	0	0	0	0	0	0	0	0	0	0	0	0	0	0	0	0	0	0	0	0	0	0	0	0
062018	14:10:15	5.0.12.0	46	notassociated	Rpleas_acq	Same	Rpleas	Amasked	CS_A	2pleas	acq_pleas_masked	acq45_masked	4	2	400	1	300	300	0	0	432	46	0	0	0	0	0	1	blank2r.bmp	0	1	+	0	7	C3r.bmp	492	1	blank2r.bmp	786	1	DJMR	786	1	blank2r.bmp	866	2	wein	866	1	!	1227	1	!	1325	0	0	0	0	0	0	0	0	0	0	0	0	0	0	0	0	0	0	0	0	0	0	0	0	0	0	0
062018	14:10:15	5.0.12.0	46	notassociated	Rpleas_acq	Same	Rpleas	Amasked	CS_A	2pleas	acq_pleas_masked	acq45_masked	4	3	400	1	300	300	0	0	466	50	0	1	0	0	0	1	blank2r.bmp	0	1	+	0	5	C1r.bmp	492	1	blank2r.bmp	786	1	DJMR	786	1	blank2r.bmp	866	3	erfinder	866	1	!	1227	1	!	1360	0	0	0	0	0	0	0	0	0	0	0	0	0	0	0	0	0	0	0	0	0	0	0	0	0	0	0
062018	14:10:15	5.0.12.0	46	notassociated	Rpleas_acq	Same	Rpleas	Amasked	CS_A	2pleas	acq_unple_masked	acq45_masked	4	4	400	1	300	300	0	0	455	46	0	1	0	0	0	1	blank2r.bmp	0	1	+	0	3	B3r.bmp	492	1	blank2r.bmp	786	1	HLST	786	1	blank2r.bmp	866	4	wunde	866	1	!	1227	1	!	1349	0	0	0	0	0	0	0	0	0	0	0	0	0	0	0	0	0	0	0	0	0	0	0	0	0	0	0
062018	14:10:15	5.0.12.0	46	notassociated	Rpleas_acq	Same	Rpleas	Amasked	CS_A	2pleas	acq_unple_masked	acq45_masked	4	5	400	0	300	300	0	0	508	46	0	1	0	0	0	1	blank2r.bmp	0	1	+	0	8	C4r.bmp	492	1	blank2r.bmp	786	1	HLST	786	1	blank2r.bmp	866	6	narr	866	1	!	1227	1	!	-1	0	0	0	0	0	0	0	0	0	0	0	0	0	0	0	0	0	0	0	0	0	0	0	0	0	0	0
062018	14:10:15	5.0.12.0	46	notassociated	Rpleas_acq	Same	Rpleas	Amasked	CS_A	2pleas	acq_pleas_masked	acq45_masked	4	6	400	1	300	300	0	0	346	50	0	1	0	0	0	1	blank2r.bmp	0	1	+	0	4	B4r.bmp	492	1	blank2r.bmp	786	1	DJMR	786	1	blank2r.bmp	866	6	meer	866	1	!	1227	1	!	1239	0	0	0	0	0	0	0	0	0	0	0	0	0	0	0	0	0	0	0	0	0	0	0	0	0	0	0
062018	14:10:15	5.0.12.0	46	notassociated	Rpleas_acq	Same	Rpleas	Amasked	CS_A	2pleas	acq_pleas_masked	acq45_masked	4	7	400	1	300	300	0	0	457	50	0	1	0	0	0	1	blank2r.bmp	0	1	+	0	6	C2r.bmp	492	1	blank2r.bmp	786	1	DJMR	786	1	blank2r.bmp	866	4	mama	866	1	!	1227	1	!	1351	0	0	0	0	0	0	0	0	0	0	0	0	0	0	0	0	0	0	0	0	0	0	0	0	0	0	0
062018	14:10:15	5.0.12.0	46	notassociated	Rpleas_acq	Same	Rpleas	Amasked	CS_A	2pleas	acq_pleas_masked	acq45_masked	4	8	400	1	300	300	0	0	383	46	0	0	0	0	0	1	blank2r.bmp	0	1	+	0	1	B1r.bmp	492	1	blank2r.bmp	786	1	DJMR	786	1	blank2r.bmp	866	5	frieden	866	1	!	1227	1	!	1276	0	0	0	0	0	0	0	0	0	0	0	0	0	0	0	0	0	0	0	0	0	0	0	0	0	0	0
062018	14:10:15	5.0.12.0	46	notassociated	Rpleas_acq	Same	Rpleas	Amasked	CS_A	2pleas	acq_unple_masked	acq45_masked	4	9	400	0	300	300	0	0	470	46	0	1	0	0	0	1	blank2r.bmp	0	1	+	0	5	C1r.bmp	492	1	blank2r.bmp	786	1	HLST	786	1	blank2r.bmp	866	2	armee	866	1	!	1227	1	!	-1	0	0	0	0	0	0	0	0	0	0	0	0	0	0	0	0	0	0	0	0	0	0	0	0	0	0	0
062018	14:10:15	5.0.12.0	46	notassociated	Rpleas_acq	Same	Rpleas	Amasked	CS_A	2pleas	acq_pleas_masked	acq45_masked	4	10	400	1	300	300	0	0	446	50	0	1	0	0	0	1	blank2r.bmp	0	1	+	0	6	C2r.bmp	492	1	blank2r.bmp	786	1	DJMR	786	1	blank2r.bmp	866	1	jugend	866	1	!	1227	1	!	1340	0	0	0	0	0	0	0	0	0	0	0	0	0	0	0	0	0	0	0	0	0	0	0	0	0	0	0
062018	14:10:15	5.0.12.0	46	notassociated	Rpleas_acq	Same	Rpleas	Amasked	CS_A	2pleas	acq_pleas_masked	acq45_masked	4	11	400	0	300	300	0	0	545	50	0	1	0	0	0	1	blank2r.bmp	0	1	+	0	3	B3r.bmp	492	1	blank2r.bmp	786	1	DJMR	786	1	blank2r.bmp	866	3	erfinder	866	1	!	1227	1	!	-1	0	0	0	0	0	0	0	0	0	0	0	0	0	0	0	0	0	0	0	0	0	0	0	0	0	0	0
062018	14:10:15	5.0.12.0	46	notassociated	Rpleas_acq	Same	Rpleas	Amasked	CS_A	2pleas	acq_unple_masked	acq45_masked	4	12	400	1	300	300	0	0	409	46	0	1	0	0	0	1	blank2r.bmp	0	1	+	0	2	B2r.bmp	492	1	blank2r.bmp	786	1	HLST	786	1	blank2r.bmp	866	1	geiz	866	1	!	1227	1	!	1303	0	0	0	0	0	0	0	0	0	0	0	0	0	0	0	0	0	0	0	0	0	0	0	0	0	0	0
062018	14:10:15	5.0.12.0	46	notassociated	Rpleas_acq	Same	Rpleas	Amasked	CS_A	2pleas	acq_unple_masked	acq45_masked	4	13	400	1	300	300	0	0	403	50	0	0	0	0	0	1	blank2r.bmp	0	1	+	0	8	C4r.bmp	492	1	blank2r.bmp	786	1	HLST	786	1	blank2r.bmp	866	5	gegner	866	1	!	1227	1	!	1297	0	0	0	0	0	0	0	0	0	0	0	0	0	0	0	0	0	0	0	0	0	0	0	0	0	0	0
062018	14:10:15	5.0.12.0	46	notassociated	Rpleas_acq	Same	Rpleas	Amasked	CS_A	2pleas	acq_pleas_masked	acq45_masked	4	14	400	0	300	300	0	0	528	50	0	1	0	0	0	1	blank2r.bmp	0	1	+	0	1	B1r.bmp	492	1	blank2r.bmp	786	1	DJMR	786	1	blank2r.bmp	866	2	wein	866	1	!	1227	1	!	-1	0	0	0	0	0	0	0	0	0	0	0	0	0	0	0	0	0	0	0	0	0	0	0	0	0	0	0
062018	14:10:15	5.0.12.0	46	notassociated	Rpleas_acq	Same	Rpleas	Amasked	CS_A	2pleas	acq_unple_masked	acq45_masked	4	15	400	1	300	300	0	0	435	46	0	1	0	0	0	1	blank2r.bmp	0	1	+	0	4	B4r.bmp	492	1	blank2r.bmp	786	1	HLST	786	1	blank2r.bmp	866	4	wunde	866	1	!	1227	1	!	1329	0	0	0	0	0	0	0	0	0	0	0	0	0	0	0	0	0	0	0	0	0	0	0	0	0	0	0
062018	14:10:15	5.0.12.0	46	notassociated	Rpleas_acq	Same	Rpleas	Amasked	CS_A	2pleas	acq_unple_masked	acq45_masked	4	16	400	0	300	300	0	0	470	50	0	0	0	0	0	1	blank2r.bmp	0	1	+	0	7	C3r.bmp	492	1	blank2r.bmp	786	1	HLST	786	1	blank2r.bmp	866	3	zwang	866	1	!	1227	1	!	-1	0	0	0	0	0	0	0	0	0	0	0	0	0	0	0	0	0	0	0	0	0	0	0	0	0	0	0
062018	14:10:15	5.0.12.0	46	notassociated	Rpleas_acq	Same	Rpleas	Amasked	CS_A	2pleas	acq_unple_masked	acq45_masked	4	17	400	1	300	300	0	0	414	46	0	1	0	0	0	1	blank2r.bmp	0	1	+	0	7	C3r.bmp	492	1	blank2r.bmp	786	1	HLST	786	1	blank2r.bmp	866	5	gegner	866	1	!	1227	1	!	1307	0	0	0	0	0	0	0	0	0	0	0	0	0	0	0	0	0	0	0	0	0	0	0	0	0	0	0
062018	14:10:15	5.0.12.0	46	notassociated	Rpleas_acq	Same	Rpleas	Amasked	CS_A	2pleas	acq_pleas_masked	acq45_masked	4	18	400	1	300	300	0	0	379	50	0	1	0	0	0	1	blank2r.bmp	0	1	+	0	2	B2r.bmp	492	1	blank2r.bmp	786	1	DJMR	786	1	blank2r.bmp	866	4	mama	866	1	!	1227	1	!	1272	0	0	0	0	0	0	0	0	0	0	0	0	0	0	0	0	0	0	0	0	0	0	0	0	0	0	0
062018	14:10:15	5.0.12.0	46	notassociated	Rpleas_acq	Same	Rpleas	Amasked	CS_A	2pleas	acq_unple_masked	acq45_masked	4	19	400	1	300	300	0	0	416	46	0	1	0	0	0	1	blank2r.bmp	0	1	+	0	6	C2r.bmp	492	1	blank2r.bmp	786	1	HLST	786	1	blank2r.bmp	866	4	wunde	866	1	!	1227	1	!	1309	0	0	0	0	0	0	0	0	0	0	0	0	0	0	0	0	0	0	0	0	0	0	0	0	0	0	0
062018	14:10:15	5.0.12.0	46	notassociated	Rpleas_acq	Same	Rpleas	Amasked	CS_A	2pleas	acq_unple_masked	acq45_masked	4	20	400	1	300	300	0	0	413	46	0	1	0	0	0	1	blank2r.bmp	0	1	+	0	8	C4r.bmp	492	1	blank2r.bmp	786	1	HLST	786	1	blank2r.bmp	866	6	narr	866	1	!	1227	1	!	1306	0	0	0	0	0	0	0	0	0	0	0	0	0	0	0	0	0	0	0	0	0	0	0	0	0	0	0
062018	14:10:15	5.0.12.0	46	notassociated	Rpleas_acq	Same	Rpleas	Amasked	CS_A	2pleas	acq_pleas_masked	acq45_masked	4	21	400	1	300	300	0	0	423	50	0	1	0	0	0	1	blank2r.bmp	0	1	+	0	4	B4r.bmp	492	1	blank2r.bmp	786	1	DJMR	786	1	blank2r.bmp	866	5	frieden	866	1	!	1227	1	!	1317	0	0	0	0	0	0	0	0	0	0	0	0	0	0	0	0	0	0	0	0	0	0	0	0	0	0	0
062018	14:10:15	5.0.12.0	46	notassociated	Rpleas_acq	Same	Rpleas	Amasked	CS_A	2pleas	acq_unple_masked	acq45_masked	4	22	400	1	300	300	0	0	391	46	0	1	0	0	0	1	blank2r.bmp	0	1	+	0	3	B3r.bmp	492	1	blank2r.bmp	786	1	HLST	786	1	blank2r.bmp	866	2	armee	866	1	!	1227	1	!	1285	0	0	0	0	0	0	0	0	0	0	0	0	0	0	0	0	0	0	0	0	0	0	0	0	0	0	0
062018	14:10:15	5.0.12.0	46	notassociated	Rpleas_acq	Same	Rpleas	Amasked	CS_A	2pleas	acq_unple_masked	acq45_masked	4	23	400	1	300	300	0	0	415	46	0	1	0	0	0	1	blank2r.bmp	0	1	+	0	1	B1r.bmp	492	1	blank2r.bmp	786	1	HLST	786	1	blank2r.bmp	866	3	zwang	866	1	!	1227	1	!	1308	0	0	0	0	0	0	0	0	0	0	0	0	0	0	0	0	0	0	0	0	0	0	0	0	0	0	0
062018	14:10:15	5.0.12.0	46	notassociated	Rpleas_acq	Same	Rpleas	Amasked	CS_A	2pleas	acq_unple_masked	acq45_masked	4	24	400	1	300	300	0	0	428	50	0	0	0	0	0	1	blank2r.bmp	0	1	+	0	5	C1r.bmp	492	1	blank2r.bmp	786	1	HLST	786	1	blank2r.bmp	866	1	geiz	866	1	!	1227	1	!	1321	0	0	0	0	0	0	0	0	0	0	0	0	0	0	0	0	0	0	0	0	0	0	0	0	0	0	0
062018	14:10:15	5.0.12.0	46	notassociated	Rpleas_acq	Same	Rpleas	Amasked	CS_A	2pleas	acq_unple_masked	acq45_masked	4	25	400	1	300	300	0	0	395	46	0	1	0	0	0	1	blank2r.bmp	0	1	+	0	5	C1r.bmp	492	1	blank2r.bmp	786	1	HLST	786	1	blank2r.bmp	866	1	geiz	866	1	!	1227	1	!	1289	0	0	0	0	0	0	0	0	0	0	0	0	0	0	0	0	0	0	0	0	0	0	0	0	0	0	0
062018	14:10:15	5.0.12.0	46	notassociated	Rpleas_acq	Same	Rpleas	Amasked	CS_A	2pleas	acq_pleas_masked	acq45_masked	4	26	400	0	300	300	0	0	534	50	0	1	0	0	0	1	blank2r.bmp	0	1	+	0	6	C2r.bmp	492	1	blank2r.bmp	786	1	DJMR	786	1	blank2r.bmp	866	1	jugend	866	1	!	1227	1	!	-1	0	0	0	0	0	0	0	0	0	0	0	0	0	0	0	0	0	0	0	0	0	0	0	0	0	0	0
062018	14:10:15	5.0.12.0	46	notassociated	Rpleas_acq	Same	Rpleas	Amasked	CS_A	2pleas	acq_pleas_masked	acq45_masked	4	27	400	1	300	300	0	0	457	46	0	0	0	0	0	1	blank2r.bmp	0	1	+	0	8	C4r.bmp	492	1	blank2r.bmp	786	1	DJMR	786	1	blank2r.bmp	866	3	erfinder	866	1	!	1227	1	!	1350	0	0	0	0	0	0	0	0	0	0	0	0	0	0	0	0	0	0	0	0	0	0	0	0	0	0	0
062018	14:10:15	5.0.12.0	46	notassociated	Rpleas_acq	Same	Rpleas	Amasked	CS_A	2pleas	acq_pleas_masked	acq45_masked	4	28	400	0	300	300	0	0	638	46	0	0	0	0	0	1	blank2r.bmp	0	1	+	0	4	B4r.bmp	492	1	blank2r.bmp	786	1	DJMR	786	1	blank2r.bmp	866	2	wein	866	1	!	1227	1	!	-1	0	0	0	0	0	0	0	0	0	0	0	0	0	0	0	0	0	0	0	0	0	0	0	0	0	0	0
062018	14:10:15	5.0.12.0	46	notassociated	Rpleas_acq	Same	Rpleas	Amasked	CS_A	2pleas	acq_pleas_masked	acq45_masked	4	29	400	1	300	300	0	0	425	50	0	1	0	0	0	1	blank2r.bmp	0	1	+	0	7	C3r.bmp	492	1	blank2r.bmp	786	1	DJMR	786	1	blank2r.bmp	866	6	meer	866	1	!	1227	1	!	1319	0	0	0	0	0	0	0	0	0	0	0	0	0	0	0	0	0	0	0	0	0	0	0	0	0	0	0
062018	14:10:15	5.0.12.0	46	notassociated	Rpleas_acq	Same	Rpleas	Amasked	CS_A	2pleas	acq_pleas_masked	acq45_masked	4	30	400	1	300	300	0	0	342	50	0	1	0	0	0	1	blank2r.bmp	0	1	+	0	3	B3r.bmp	492	1	blank2r.bmp	786	1	DJMR	786	1	blank2r.bmp	866	4	mama	866	1	!	1227	1	!	1236	0	0	0	0	0	0	0	0	0	0	0	0	0	0	0	0	0	0	0	0	0	0	0	0	0	0	0
062018	14:10:15	5.0.12.0	46	notassociated	Rpleas_acq	Same	Rpleas	Amasked	CS_A	2pleas	acq_unple_masked	acq45_masked	4	31	400	1	300	300	0	0	454	46	0	1	0	0	0	1	blank2r.bmp	0	1	+	0	1	B1r.bmp	492	1	blank2r.bmp	786	1	HLST	786	1	blank2r.bmp	866	5	gegner	866	1	!	1227	1	!	1347	0	0	0	0	0	0	0	0	0	0	0	0	0	0	0	0	0	0	0	0	0	0	0	0	0	0	0
062018	14:10:15	5.0.12.0	46	notassociated	Rpleas_acq	Same	Rpleas	Amasked	CS_A	2pleas	acq_pleas_masked	acq45_masked	4	32	400	1	300	300	0	0	395	50	0	1	0	0	0	1	blank2r.bmp	0	1	+	0	2	B2r.bmp	492	1	blank2r.bmp	786	1	DJMR	786	1	blank2r.bmp	866	5	frieden	866	1	!	1227	1	!	1289	0	0	0	0	0	0	0	0	0	0	0	0	0	0	0	0	0	0	0	0	0	0	0	0	0	0	0
062018	14:10:15	5.0.12.0	46	notassociated	Rpleas_acq	Same	Rpleas	Amasked	CS_A	2pleas	acq_pleas_masked	acq45_masked	5	1	400	1	300	300	0	0	431	50	0	1	0	0	0	1	blank2r.bmp	0	1	+	0	7	C3r.bmp	492	1	blank2r.bmp	786	1	DJMR	786	1	blank2r.bmp	866	1	jugend	866	1	!	1227	1	!	1325	0	0	0	0	0	0	0	0	0	0	0	0	0	0	0	0	0	0	0	0	0	0	0	0	0	0	0
062018	14:10:15	5.0.12.0	46	notassociated	Rpleas_acq	Same	Rpleas	Amasked	CS_A	2pleas	acq_unple_masked	acq45_masked	5	2	400	1	300	300	0	0	463	46	0	1	0	0	0	1	blank2r.bmp	0	1	+	0	5	C1r.bmp	492	1	blank2r.bmp	786	1	HLST	786	1	blank2r.bmp	866	6	narr	866	1	!	1227	1	!	1357	0	0	0	0	0	0	0	0	0	0	0	0	0	0	0	0	0	0	0	0	0	0	0	0	0	0	0
062018	14:10:15	5.0.12.0	46	notassociated	Rpleas_acq	Same	Rpleas	Amasked	CS_A	2pleas	acq_pleas_masked	acq45_masked	5	3	400	0	300	300	0	0	647	46	0	0	0	0	0	1	blank2r.bmp	0	1	+	0	4	B4r.bmp	492	1	blank2r.bmp	786	1	DJMR	786	1	blank2r.bmp	866	2	wein	866	1	!	1227	1	!	-1	0	0	0	0	0	0	0	0	0	0	0	0	0	0	0	0	0	0	0	0	0	0	0	0	0	0	0
062018	14:10:15	5.0.12.0	46	notassociated	Rpleas_acq	Same	Rpleas	Amasked	CS_A	2pleas	acq_pleas_masked	acq45_masked	5	4	400	1	300	300	0	0	357	50	0	1	0	0	0	1	blank2r.bmp	0	1	+	0	3	B3r.bmp	492	1	blank2r.bmp	786	1	DJMR	786	1	blank2r.bmp	866	6	meer	866	1	!	1227	1	!	1250	0	0	0	0	0	0	0	0	0	0	0	0	0	0	0	0	0	0	0	0	0	0	0	0	0	0	0
062018	14:10:15	5.0.12.0	46	notassociated	Rpleas_acq	Same	Rpleas	Amasked	CS_A	2pleas	acq_pleas_masked	acq45_masked	5	5	400	1	300	300	0	0	372	46	0	0	0	0	0	1	blank2r.bmp	0	1	+	0	1	B1r.bmp	492	1	blank2r.bmp	786	1	DJMR	786	1	blank2r.bmp	866	3	erfinder	866	1	!	1227	1	!	1266	0	0	0	0	0	0	0	0	0	0	0	0	0	0	0	0	0	0	0	0	0	0	0	0	0	0	0
062018	14:10:15	5.0.12.0	46	notassociated	Rpleas_acq	Same	Rpleas	Amasked	CS_A	2pleas	acq_pleas_masked	acq45_masked	5	6	400	1	300	300	0	0	393	46	0	0	0	0	0	1	blank2r.bmp	0	1	+	0	8	C4r.bmp	492	1	blank2r.bmp	786	1	DJMR	786	1	blank2r.bmp	866	6	meer	866	1	!	1227	1	!	1287	0	0	0	0	0	0	0	0	0	0	0	0	0	0	0	0	0	0	0	0	0	0	0	0	0	0	0
062018	14:10:15	5.0.12.0	46	notassociated	Rpleas_acq	Same	Rpleas	Amasked	CS_A	2pleas	acq_pleas_masked	acq45_masked	5	7	400	1	300	300	0	0	433	50	0	1	0	0	0	1	blank2r.bmp	0	1	+	0	6	C2r.bmp	492	1	blank2r.bmp	786	1	DJMR	786	1	blank2r.bmp	866	1	jugend	866	1	!	1227	1	!	1327	0	0	0	0	0	0	0	0	0	0	0	0	0	0	0	0	0	0	0	0	0	0	0	0	0	0	0
062018	14:10:15	5.0.12.0	46	notassociated	Rpleas_acq	Same	Rpleas	Amasked	CS_A	2pleas	acq_unple_masked	acq45_masked	5	8	400	1	300	300	0	0	403	46	0	1	0	0	0	1	blank2r.bmp	0	1	+	0	2	B2r.bmp	492	1	blank2r.bmp	786	1	HLST	786	1	blank2r.bmp	866	3	zwang	866	1	!	1227	1	!	1297	0	0	0	0	0	0	0	0	0	0	0	0	0	0	0	0	0	0	0	0	0	0	0	0	0	0	0
062018	14:10:15	5.0.12.0	46	notassociated	Rpleas_acq	Same	Rpleas	Amasked	CS_A	2pleas	acq_unple_masked	acq45_masked	5	9	400	1	300	300	0	0	430	50	0	0	0	0	0	1	blank2r.bmp	0	1	+	0	8	C4r.bmp	492	1	blank2r.bmp	786	1	HLST	786	1	blank2r.bmp	866	2	armee	866	1	!	1227	1	!	1323	0	0	0	0	0	0	0	0	0	0	0	0	0	0	0	0	0	0	0	0	0	0	0	0	0	0	0
062018	14:10:15	5.0.12.0	46	notassociated	Rpleas_acq	Same	Rpleas	Amasked	CS_A	2pleas	acq_unple_masked	acq45_masked	5	10	400	1	300	300	0	0	446	46	0	1	0	0	0	1	blank2r.bmp	0	1	+	0	6	C2r.bmp	492	1	blank2r.bmp	786	1	HLST	786	1	blank2r.bmp	866	4	wunde	866	1	!	1227	1	!	1339	0	0	0	0	0	0	0	0	0	0	0	0	0	0	0	0	0	0	0	0	0	0	0	0	0	0	0
062018	14:10:15	5.0.12.0	46	notassociated	Rpleas_acq	Same	Rpleas	Amasked	CS_A	2pleas	acq_pleas_masked	acq45_masked	5	11	400	1	300	300	0	0	432	50	0	1	0	0	0	1	blank2r.bmp	0	1	+	0	2	B2r.bmp	492	1	blank2r.bmp	786	1	DJMR	786	1	blank2r.bmp	866	5	frieden	866	1	!	1227	1	!	1326	0	0	0	0	0	0	0	0	0	0	0	0	0	0	0	0	0	0	0	0	0	0	0	0	0	0	0
062018	14:10:15	5.0.12.0	46	notassociated	Rpleas_acq	Same	Rpleas	Amasked	CS_A	2pleas	acq_unple_masked	acq45_masked	5	12	400	0	300	300	0	0	515	46	0	1	0	0	0	1	blank2r.bmp	0	1	+	0	1	B1r.bmp	492	1	blank2r.bmp	786	1	HLST	786	1	blank2r.bmp	866	4	wunde	866	1	!	1227	1	!	-1	0	0	0	0	0	0	0	0	0	0	0	0	0	0	0	0	0	0	0	0	0	0	0	0	0	0	0
062018	14:10:15	5.0.12.0	46	notassociated	Rpleas_acq	Same	Rpleas	Amasked	CS_A	2pleas	acq_unple_masked	acq45_masked	5	13	400	1	300	300	0	0	419	50	0	0	0	0	0	1	blank2r.bmp	0	1	+	0	5	C1r.bmp	492	1	blank2r.bmp	786	1	HLST	786	1	blank2r.bmp	866	1	geiz	866	1	!	1227	1	!	1312	0	0	0	0	0	0	0	0	0	0	0	0	0	0	0	0	0	0	0	0	0	0	0	0	0	0	0
062018	14:10:15	5.0.12.0	46	notassociated	Rpleas_acq	Same	Rpleas	Amasked	CS_A	2pleas	acq_unple_masked	acq45_masked	5	14	400	1	300	300	0	0	416	46	0	1	0	0	0	1	blank2r.bmp	0	1	+	0	3	B3r.bmp	492	1	blank2r.bmp	786	1	HLST	786	1	blank2r.bmp	866	5	gegner	866	1	!	1227	1	!	1309	0	0	0	0	0	0	0	0	0	0	0	0	0	0	0	0	0	0	0	0	0	0	0	0	0	0	0
062018	14:10:15	5.0.12.0	46	notassociated	Rpleas_acq	Same	Rpleas	Amasked	CS_A	2pleas	acq_pleas_masked	acq45_masked	5	15	400	0	300	300	0	0	477	50	0	1	0	0	0	1	blank2r.bmp	0	1	+	0	4	B4r.bmp	492	1	blank2r.bmp	786	1	DJMR	786	1	blank2r.bmp	866	2	wein	866	1	!	1227	1	!	-1	0	0	0	0	0	0	0	0	0	0	0	0	0	0	0	0	0	0	0	0	0	0	0	0	0	0	0
062018	14:10:15	5.0.12.0	46	notassociated	Rpleas_acq	Same	Rpleas	Amasked	CS_A	2pleas	acq_unple_masked	acq45_masked	5	16	400	1	300	300	0	0	392	46	0	1	0	0	0	1	blank2r.bmp	0	1	+	0	7	C3r.bmp	492	1	blank2r.bmp	786	1	HLST	786	1	blank2r.bmp	866	6	narr	866	1	!	1227	1	!	1285	0	0	0	0	0	0	0	0	0	0	0	0	0	0	0	0	0	0	0	0	0	0	0	0	0	0	0
062018	14:10:15	5.0.12.0	46	notassociated	Rpleas_acq	Same	Rpleas	Amasked	CS_A	2pleas	acq_pleas_masked	acq45_masked	5	17	400	1	300	300	0	0	447	50	0	1	0	0	0	1	blank2r.bmp	0	1	+	0	6	C2r.bmp	492	1	blank2r.bmp	786	1	DJMR	786	1	blank2r.bmp	866	4	mama	866	1	!	1227	1	!	1341	0	0	0	0	0	0	0	0	0	0	0	0	0	0	0	0	0	0	0	0	0	0	0	0	0	0	0
062018	14:10:15	5.0.12.0	46	notassociated	Rpleas_acq	Same	Rpleas	Amasked	CS_A	2pleas	acq_pleas_masked	acq45_masked	5	18	400	1	300	300	0	0	402	46	0	0	0	0	0	1	blank2r.bmp	0	1	+	0	8	C4r.bmp	492	1	blank2r.bmp	786	1	DJMR	786	1	blank2r.bmp	866	3	erfinder	866	1	!	1227	1	!	1295	0	0	0	0	0	0	0	0	0	0	0	0	0	0	0	0	0	0	0	0	0	0	0	0	0	0	0
062018	14:10:15	5.0.12.0	46	notassociated	Rpleas_acq	Same	Rpleas	Amasked	CS_A	2pleas	acq_unple_masked	acq45_masked	5	19	400	1	300	300	0	0	444	46	0	1	0	0	0	1	blank2r.bmp	0	1	+	0	4	B4r.bmp	492	1	blank2r.bmp	786	1	HLST	786	1	blank2r.bmp	866	2	armee	866	1	!	1227	1	!	1338	0	0	0	0	0	0	0	0	0	0	0	0	0	0	0	0	0	0	0	0	0	0	0	0	0	0	0
062018	14:10:15	5.0.12.0	46	notassociated	Rpleas_acq	Same	Rpleas	Amasked	CS_A	2pleas	acq_unple_masked	acq45_masked	5	20	400	1	300	300	0	0	431	46	0	1	0	0	0	1	blank2r.bmp	0	1	+	0	1	B1r.bmp	492	1	blank2r.bmp	786	1	HLST	786	1	blank2r.bmp	866	3	zwang	866	1	!	1227	1	!	1324	0	0	0	0	0	0	0	0	0	0	0	0	0	0	0	0	0	0	0	0	0	0	0	0	0	0	0
062018	14:10:15	5.0.12.0	46	notassociated	Rpleas_acq	Same	Rpleas	Amasked	CS_A	2pleas	acq_pleas_masked	acq45_masked	5	21	400	1	300	300	0	0	398	46	0	0	0	0	0	1	blank2r.bmp	0	1	+	0	3	B3r.bmp	492	1	blank2r.bmp	786	1	DJMR	786	1	blank2r.bmp	866	2	wein	866	1	!	1227	1	!	1292	0	0	0	0	0	0	0	0	0	0	0	0	0	0	0	0	0	0	0	0	0	0	0	0	0	0	0
062018	14:10:15	5.0.12.0	46	notassociated	Rpleas_acq	Same	Rpleas	Amasked	CS_A	2pleas	acq_unple_masked	acq45_masked	5	22	400	1	300	300	0	0	441	46	0	1	0	0	0	1	blank2r.bmp	0	1	+	0	5	C1r.bmp	492	1	blank2r.bmp	786	1	HLST	786	1	blank2r.bmp	866	2	armee	866	1	!	1227	1	!	1334	0	0	0	0	0	0	0	0	0	0	0	0	0	0	0	0	0	0	0	0	0	0	0	0	0	0	0
062018	14:10:15	5.0.12.0	46	notassociated	Rpleas_acq	Same	Rpleas	Amasked	CS_A	2pleas	acq_pleas_masked	acq45_masked	5	23	400	1	300	300	0	0	425	50	0	1	0	0	0	1	blank2r.bmp	0	1	+	0	2	B2r.bmp	492	1	blank2r.bmp	786	1	DJMR	786	1	blank2r.bmp	866	5	frieden	866	1	!	1227	1	!	1318	0	0	0	0	0	0	0	0	0	0	0	0	0	0	0	0	0	0	0	0	0	0	0	0	0	0	0
062018	14:10:15	5.0.12.0	46	notassociated	Rpleas_acq	Same	Rpleas	Amasked	CS_A	2pleas	acq_pleas_masked	acq45_masked	5	24	400	0	300	300	0	0	472	50	0	1	0	0	0	1	blank2r.bmp	0	1	+	0	7	C3r.bmp	492	1	blank2r.bmp	786	1	DJMR	786	1	blank2r.bmp	866	4	mama	866	1	!	1227	1	!	-1	0	0	0	0	0	0	0	0	0	0	0	0	0	0	0	0	0	0	0	0	0	0	0	0	0	0	0
062018	14:10:15	5.0.12.0	46	notassociated	Rpleas_acq	Same	Rpleas	Amasked	CS_A	2pleas	acq_unple_masked	acq45_masked	5	25	400	1	300	300	0	0	448	46	0	1	0	0	0	1	blank2r.bmp	0	1	+	0	8	C4r.bmp	492	1	blank2r.bmp	786	1	HLST	786	1	blank2r.bmp	866	5	gegner	866	1	!	1227	1	!	1342	0	0	0	0	0	0	0	0	0	0	0	0	0	0	0	0	0	0	0	0	0	0	0	0	0	0	0
062018	14:10:15	5.0.12.0	46	notassociated	Rpleas_acq	Same	Rpleas	Amasked	CS_A	2pleas	acq_unple_masked	acq45_masked	5	26	400	1	300	300	0	0	387	46	0	1	0	0	0	1	blank2r.bmp	0	1	+	0	7	C3r.bmp	492	1	blank2r.bmp	786	1	HLST	786	1	blank2r.bmp	866	4	wunde	866	1	!	1227	1	!	1280	0	0	0	0	0	0	0	0	0	0	0	0	0	0	0	0	0	0	0	0	0	0	0	0	0	0	0
062018	14:10:15	5.0.12.0	46	notassociated	Rpleas_acq	Same	Rpleas	Amasked	CS_A	2pleas	acq_unple_masked	acq45_masked	5	27	400	1	300	300	0	0	424	46	0	1	0	0	0	1	blank2r.bmp	0	1	+	0	4	B4r.bmp	492	1	blank2r.bmp	786	1	HLST	786	1	blank2r.bmp	866	6	narr	866	1	!	1227	1	!	1317	0	0	0	0	0	0	0	0	0	0	0	0	0	0	0	0	0	0	0	0	0	0	0	0	0	0	0
062018	14:10:15	5.0.12.0	46	notassociated	Rpleas_acq	Same	Rpleas	Amasked	CS_A	2pleas	acq_pleas_masked	acq45_masked	5	28	400	1	300	300	0	0	407	50	0	1	0	0	0	1	blank2r.bmp	0	1	+	0	3	B3r.bmp	492	1	blank2r.bmp	786	1	DJMR	786	1	blank2r.bmp	866	6	meer	866	1	!	1227	1	!	1301	0	0	0	0	0	0	0	0	0	0	0	0	0	0	0	0	0	0	0	0	0	0	0	0	0	0	0
062018	14:10:15	5.0.12.0	46	notassociated	Rpleas_acq	Same	Rpleas	Amasked	CS_A	2pleas	acq_pleas_masked	acq45_masked	5	29	400	1	300	300	0	0	450	50	0	1	0	0	0	1	blank2r.bmp	0	1	+	0	5	C1r.bmp	492	1	blank2r.bmp	786	1	DJMR	786	1	blank2r.bmp	866	1	jugend	866	1	!	1227	1	!	1343	0	0	0	0	0	0	0	0	0	0	0	0	0	0	0	0	0	0	0	0	0	0	0	0	0	0	0
062018	14:10:15	5.0.12.0	46	notassociated	Rpleas_acq	Same	Rpleas	Amasked	CS_A	2pleas	acq_pleas_masked	acq45_masked	5	30	400	1	300	300	0	0	407	46	0	0	0	0	0	1	blank2r.bmp	0	1	+	0	1	B1r.bmp	492	1	blank2r.bmp	786	1	DJMR	786	1	blank2r.bmp	866	3	erfinder	866	1	!	1227	1	!	1301	0	0	0	0	0	0	0	0	0	0	0	0	0	0	0	0	0	0	0	0	0	0	0	0	0	0	0
062018	14:10:15	5.0.12.0	46	notassociated	Rpleas_acq	Same	Rpleas	Amasked	CS_A	2pleas	acq_unple_masked	acq45_masked	5	31	400	0	300	300	0	0	497	46	0	1	0	0	0	1	blank2r.bmp	0	1	+	0	2	B2r.bmp	492	1	blank2r.bmp	786	1	HLST	786	1	blank2r.bmp	866	1	geiz	866	1	!	1227	1	!	-1	0	0	0	0	0	0	0	0	0	0	0	0	0	0	0	0	0	0	0	0	0	0	0	0	0	0	0
062018	14:10:15	5.0.12.0	46	notassociated	Rpleas_acq	Same	Rpleas	Amasked	CS_A	2pleas	acq_unple_masked	acq45_masked	5	32	400	0	300	300	0	0	495	46	0	1	0	0	0	1	blank2r.bmp	0	1	+	0	6	C2r.bmp	492	1	blank2r.bmp	786	1	HLST	786	1	blank2r.bmp	866	3	zwang	866	1	!	1227	1	!	-1	0	0	0	0	0	0	0	0	0	0	0	0	0	0	0	0	0	0	0	0	0	0	0	0	0	0	0
062018	14:10:15	5.0.12.0	46	notassociated	Rpleas_acq	Same	Rpleas	Amasked	CS_A	2pleas	cond_US_unple_123_masked_CS2	condtest_masked_1	6	1	400	0	300	300	0	0	599	50	0	0	0	0	0	1	blank2r.bmp	0	1	+	0	7	C3r.bmp	492	1	blank2r.bmp	786	1	DJMR	786	1	blank2r.bmp	866	1	geiz	866	1	!	1227	1	!	-1	0	0	0	0	0	0	0	0	0	0	0	0	0	0	0	0	0	0	0	0	0	0	0	0	0	0	0
062018	14:10:15	5.0.12.0	46	notassociated	Rpleas_acq	Same	Rpleas	Amasked	CS_A	2pleas	cond_new_pleas_456_masked_CS1	condtest_masked_1	6	2	400	0	300	300	0	0	490	50	0	1	0	0	0	1	blank2r.bmp	0	1	+	0	2	B2r.bmp	492	1	blank2r.bmp	786	1	HLST	786	1	blank2r.bmp	866	1	gewinn	866	1	!	1227	1	!	-1	0	0	0	0	0	0	0	0	0	0	0	0	0	0	0	0	0	0	0	0	0	0	0	0	0	0	0
062018	14:10:15	5.0.12.0	46	notassociated	Rpleas_acq	Same	Rpleas	Amasked	CS_A	2pleas	cond_new_pleas_456_masked_CS2	condtest_masked_1	6	3	400	1	300	300	0	0	391	46	0	0	0	0	0	1	blank2r.bmp	0	1	+	0	5	C1r.bmp	492	1	blank2r.bmp	786	1	DJMR	786	1	blank2r.bmp	866	3	auge	866	1	!	1227	1	!	1285	0	0	0	0	0	0	0	0	0	0	0	0	0	0	0	0	0	0	0	0	0	0	0	0	0	0	0
062018	14:10:15	5.0.12.0	46	notassociated	Rpleas_acq	Same	Rpleas	Amasked	CS_A	2pleas	cond_US_pleas_123_masked_CS1	condtest_masked_1	6	4	400	1	300	300	0	0	431	50	0	1	0	0	0	1	blank2r.bmp	0	1	+	0	4	B4r.bmp	492	1	blank2r.bmp	786	1	HLST	786	1	blank2r.bmp	866	3	erfinder	866	1	!	1227	1	!	1324	0	0	0	0	0	0	0	0	0	0	0	0	0	0	0	0	0	0	0	0	0	0	0	0	0	0	0
062018	14:10:15	5.0.12.0	46	notassociated	Rpleas_acq	Same	Rpleas	Amasked	CS_A	2pleas	cond_US_pleas_123_masked_CS2	condtest_masked_1	6	5	400	1	300	300	0	0	417	50	0	1	0	0	0	1	blank2r.bmp	0	1	+	0	8	C4r.bmp	492	1	blank2r.bmp	786	1	DJMR	786	1	blank2r.bmp	866	1	jugend	866	1	!	1227	1	!	1311	0	0	0	0	0	0	0	0	0	0	0	0	0	0	0	0	0	0	0	0	0	0	0	0	0	0	0
062018	14:10:15	5.0.12.0	46	notassociated	Rpleas_acq	Same	Rpleas	Amasked	CS_A	2pleas	cond_new_unple_456_masked_CS2	condtest_masked_1	6	6	400	1	300	300	0	0	431	46	0	1	0	0	0	1	blank2r.bmp	0	1	+	0	3	B3r.bmp	492	1	blank2r.bmp	786	1	DJMR	786	1	blank2r.bmp	866	3	wurm	866	1	!	1227	1	!	1324	0	0	0	0	0	0	0	0	0	0	0	0	0	0	0	0	0	0	0	0	0	0	0	0	0	0	0
062018	14:10:15	5.0.12.0	46	notassociated	Rpleas_acq	Same	Rpleas	Amasked	CS_A	2pleas	cond_US_unple_123_masked_CS1	condtest_masked_1	6	7	400	1	300	300	0	0	401	50	0	0	0	0	0	1	blank2r.bmp	0	1	+	0	1	B1r.bmp	492	1	blank2r.bmp	786	1	HLST	786	1	blank2r.bmp	866	3	zwang	866	1	!	1227	1	!	1295	0	0	0	0	0	0	0	0	0	0	0	0	0	0	0	0	0	0	0	0	0	0	0	0	0	0	0
062018	14:10:15	5.0.12.0	46	notassociated	Rpleas_acq	Same	Rpleas	Amasked	CS_A	2pleas	cond_new_unple_456_masked_CS1	condtest_masked_1	6	8	400	0	300	300	0	0	507	50	0	0	0	0	0	1	blank2r.bmp	0	1	+	0	6	C2r.bmp	492	1	blank2r.bmp	786	1	HLST	786	1	blank2r.bmp	866	2	mager	866	1	!	1227	1	!	-1	0	0	0	0	0	0	0	0	0	0	0	0	0	0	0	0	0	0	0	0	0	0	0	0	0	0	0
062018	14:10:15	5.0.12.0	46	notassociated	Rpleas_acq	Same	Rpleas	Amasked	CS_A	2pleas	cond_US_unple_123_masked_CS2	condtest_masked_2	7	1	400	0	300	300	0	0	524	50	0	0	0	0	0	1	blank2r.bmp	0	1	+	0	3	B3r.bmp	492	1	blank2r.bmp	786	1	DJMR	786	1	blank2r.bmp	866	2	armee	866	1	!	1227	1	!	-1	0	0	0	0	0	0	0	0	0	0	0	0	0	0	0	0	0	0	0	0	0	0	0	0	0	0	0
062018	14:10:15	5.0.12.0	46	notassociated	Rpleas_acq	Same	Rpleas	Amasked	CS_A	2pleas	cond_new_unple_456_masked_CS1	condtest_masked_2	7	2	400	0	300	300	0	0	526	46	0	1	0	0	0	1	blank2r.bmp	0	1	+	0	2	B2r.bmp	492	1	blank2r.bmp	786	1	HLST	786	1	blank2r.bmp	866	1	weigern	866	1	!	1227	1	!	-1	0	0	0	0	0	0	0	0	0	0	0	0	0	0	0	0	0	0	0	0	0	0	0	0	0	0	0
062018	14:10:15	5.0.12.0	46	notassociated	Rpleas_acq	Same	Rpleas	Amasked	CS_A	2pleas	cond_new_unple_456_masked_CS1	condtest_masked_2	7	3	400	1	300	300	0	0	369	46	0	1	0	0	0	1	blank2r.bmp	0	1	+	0	6	C2r.bmp	492	1	blank2r.bmp	786	1	HLST	786	1	blank2r.bmp	866	3	wurm	866	1	!	1227	1	!	1263	0	0	0	0	0	0	0	0	0	0	0	0	0	0	0	0	0	0	0	0	0	0	0	0	0	0	0
062018	14:10:15	5.0.12.0	46	notassociated	Rpleas_acq	Same	Rpleas	Amasked	CS_A	2pleas	cond_US_unple_123_masked_CS1	condtest_masked_2	7	4	400	0	300	300	0	0	486	46	0	1	0	0	0	1	blank2r.bmp	0	1	+	0	1	B1r.bmp	492	1	blank2r.bmp	786	1	HLST	786	1	blank2r.bmp	866	1	geiz	866	1	!	1227	1	!	-1	0	0	0	0	0	0	0	0	0	0	0	0	0	0	0	0	0	0	0	0	0	0	0	0	0	0	0
062018	14:10:15	5.0.12.0	46	notassociated	Rpleas_acq	Same	Rpleas	Amasked	CS_A	2pleas	cond_US_pleas_123_masked_CS1	condtest_masked_2	7	5	400	1	300	300	0	0	401	50	0	1	0	0	0	1	blank2r.bmp	0	1	+	0	7	C3r.bmp	492	1	blank2r.bmp	786	1	HLST	786	1	blank2r.bmp	866	2	wein	866	1	!	1227	1	!	1294	0	0	0	0	0	0	0	0	0	0	0	0	0	0	0	0	0	0	0	0	0	0	0	0	0	0	0
062018	14:10:15	5.0.12.0	46	notassociated	Rpleas_acq	Same	Rpleas	Amasked	CS_A	2pleas	cond_US_unple_123_masked_CS2	condtest_masked_2	7	6	400	1	300	300	0	0	379	46	0	1	0	0	0	1	blank2r.bmp	0	1	+	0	4	B4r.bmp	492	1	blank2r.bmp	786	1	DJMR	786	1	blank2r.bmp	866	3	zwang	866	1	!	1227	1	!	1273	0	0	0	0	0	0	0	0	0	0	0	0	0	0	0	0	0	0	0	0	0	0	0	0	0	0	0
062018	14:10:15	5.0.12.0	46	notassociated	Rpleas_acq	Same	Rpleas	Amasked	CS_A	2pleas	cond_US_pleas_123_masked_CS2	condtest_masked_2	7	7	400	1	300	300	0	0	416	50	0	1	0	0	0	1	blank2r.bmp	0	1	+	0	5	C1r.bmp	492	1	blank2r.bmp	786	1	DJMR	786	1	blank2r.bmp	866	1	jugend	866	1	!	1227	1	!	1310	0	0	0	0	0	0	0	0	0	0	0	0	0	0	0	0	0	0	0	0	0	0	0	0	0	0	0
062018	14:10:15	5.0.12.0	46	notassociated	Rpleas_acq	Same	Rpleas	Amasked	CS_A	2pleas	cond_US_pleas_123_masked_CS2	condtest_masked_2	7	8	400	1	300	300	0	0	429	50	0	1	0	0	0	1	blank2r.bmp	0	1	+	0	8	C4r.bmp	492	1	blank2r.bmp	786	1	DJMR	786	1	blank2r.bmp	866	3	erfinder	866	1	!	1227	1	!	1323	0	0	0	0	0	0	0	0	0	0	0	0	0	0	0	0	0	0	0	0	0	0	0	0	0	0	0
062018	14:10:15	5.0.12.0	46	notassociated	Rpleas_acq	Same	Rpleas	Amasked	CS_A	2pleas	cond_new_unple_456_masked_CS1	condtest_masked_2	7	9	400	1	300	300	0	0	429	46	0	1	0	0	0	1	blank2r.bmp	0	1	+	0	7	C3r.bmp	492	1	blank2r.bmp	786	1	HLST	786	1	blank2r.bmp	866	1	weigern	866	1	!	1227	1	!	1323	0	0	0	0	0	0	0	0	0	0	0	0	0	0	0	0	0	0	0	0	0	0	0	0	0	0	0
062018	14:10:15	5.0.12.0	46	notassociated	Rpleas_acq	Same	Rpleas	Amasked	CS_A	2pleas	cond_new_pleas_456_masked_CS2	condtest_masked_2	7	10	400	0	300	300	0	0	525	46	0	0	0	0	0	1	blank2r.bmp	0	1	+	0	8	C4r.bmp	492	1	blank2r.bmp	786	1	DJMR	786	1	blank2r.bmp	866	2	erinnerung	866	1	!	1227	1	!	-1	0	0	0	0	0	0	0	0	0	0	0	0	0	0	0	0	0	0	0	0	0	0	0	0	0	0	0
062018	14:10:15	5.0.12.0	46	notassociated	Rpleas_acq	Same	Rpleas	Amasked	CS_A	2pleas	cond_new_pleas_456_masked_CS2	condtest_masked_2	7	11	400	0	300	300	0	0	495	50	0	1	0	0	0	1	blank2r.bmp	0	1	+	0	4	B4r.bmp	492	1	blank2r.bmp	786	1	DJMR	786	1	blank2r.bmp	866	1	gewinn	866	1	!	1227	1	!	-1	0	0	0	0	0	0	0	0	0	0	0	0	0	0	0	0	0	0	0	0	0	0	0	0	0	0	0
062018	14:10:15	5.0.12.0	46	notassociated	Rpleas_acq	Same	Rpleas	Amasked	CS_A	2pleas	cond_new_pleas_456_masked_CS1	condtest_masked_2	7	12	400	0	300	300	0	0	301	50	0	1	0	0	0	1	blank2r.bmp	0	1	+	0	6	C2r.bmp	492	1	blank2r.bmp	786	1	HLST	786	1	blank2r.bmp	866	3	auge	866	1	!	-1	1	!	-1	0	0	0	0	0	0	0	0	0	0	0	0	0	0	0	0	0	0	0	0	0	0	0	0	0	0	0
062018	14:10:15	5.0.12.0	46	notassociated	Rpleas_acq	Same	Rpleas	Amasked	CS_A	2pleas	cond_new_unple_456_masked_CS2	condtest_masked_2	7	13	400	1	300	300	0	0	354	50	0	0	0	0	0	1	blank2r.bmp	0	1	+	0	5	C1r.bmp	492	1	blank2r.bmp	786	1	DJMR	786	1	blank2r.bmp	866	2	mager	866	1	!	1227	1	!	1247	0	0	0	0	0	0	0	0	0	0	0	0	0	0	0	0	0	0	0	0	0	0	0	0	0	0	0
062018	14:10:15	5.0.12.0	46	notassociated	Rpleas_acq	Same	Rpleas	Amasked	CS_A	2pleas	cond_new_pleas_456_masked_CS1	condtest_masked_2	7	14	400	1	300	300	0	0	388	46	0	0	0	0	0	1	blank2r.bmp	0	1	+	0	3	B3r.bmp	492	1	blank2r.bmp	786	1	HLST	786	1	blank2r.bmp	866	2	erinnerung	866	1	!	1227	1	!	1281	0	0	0	0	0	0	0	0	0	0	0	0	0	0	0	0	0	0	0	0	0	0	0	0	0	0	0
062018	14:10:15	5.0.12.0	46	notassociated	Rpleas_acq	Same	Rpleas	Amasked	CS_A	2pleas	cond_new_pleas_456_masked_CS2	condtest_masked_2	7	15	400	1	300	300	0	0	395	46	0	0	0	0	0	1	blank2r.bmp	0	1	+	0	2	B2r.bmp	492	1	blank2r.bmp	786	1	DJMR	786	1	blank2r.bmp	866	1	gewinn	866	1	!	1227	1	!	1289	0	0	0	0	0	0	0	0	0	0	0	0	0	0	0	0	0	0	0	0	0	0	0	0	0	0	0
062018	14:10:15	5.0.12.0	46	notassociated	Rpleas_acq	Same	Rpleas	Amasked	CS_A	2pleas	cond_US_pleas_123_masked_CS2	condtest_masked_2	7	16	400	1	300	300	0	0	454	50	0	1	0	0	0	1	blank2r.bmp	0	1	+	0	1	B1r.bmp	492	1	blank2r.bmp	786	1	DJMR	786	1	blank2r.bmp	866	2	wein	866	1	!	1227	1	!	1347	0	0	0	0	0	0	0	0	0	0	0	0	0	0	0	0	0	0	0	0	0	0	0	0	0	0	0
062018	14:10:15	5.0.12.0	46	notassociated	Rpleas_acq	Same	Rpleas	Amasked	CS_A	2pleas	cond_new_pleas_456_masked_CS1	condtest_masked_2	7	17	400	1	300	300	0	0	459	50	0	1	0	0	0	1	blank2r.bmp	0	1	+	0	5	C1r.bmp	492	1	blank2r.bmp	786	1	HLST	786	1	blank2r.bmp	866	3	auge	866	1	!	1227	1	!	1353	0	0	0	0	0	0	0	0	0	0	0	0	0	0	0	0	0	0	0	0	0	0	0	0	0	0	0
062018	14:10:15	5.0.12.0	46	notassociated	Rpleas_acq	Same	Rpleas	Amasked	CS_A	2pleas	cond_US_unple_123_masked_CS1	condtest_masked_2	7	18	400	1	300	300	0	0	432	50	0	0	0	0	0	1	blank2r.bmp	0	1	+	0	1	B1r.bmp	492	1	blank2r.bmp	786	1	HLST	786	1	blank2r.bmp	866	2	armee	866	1	!	1227	1	!	1326	0	0	0	0	0	0	0	0	0	0	0	0	0	0	0	0	0	0	0	0	0	0	0	0	0	0	0
062018	14:10:15	5.0.12.0	46	notassociated	Rpleas_acq	Same	Rpleas	Amasked	CS_A	2pleas	cond_US_pleas_123_masked_CS1	condtest_masked_2	7	19	400	1	300	300	0	0	384	50	0	1	0	0	0	1	blank2r.bmp	0	1	+	0	8	C4r.bmp	492	1	blank2r.bmp	786	1	HLST	786	1	blank2r.bmp	866	1	jugend	866	1	!	1227	1	!	1278	0	0	0	0	0	0	0	0	0	0	0	0	0	0	0	0	0	0	0	0	0	0	0	0	0	0	0
062018	14:10:15	5.0.12.0	46	notassociated	Rpleas_acq	Same	Rpleas	Amasked	CS_A	2pleas	cond_US_pleas_123_masked_CS1	condtest_masked_2	7	20	400	0	300	300	0	0	296	46	0	0	0	0	0	1	blank2r.bmp	0	1	+	0	7	C3r.bmp	492	1	blank2r.bmp	786	1	HLST	786	1	blank2r.bmp	866	2	wein	866	1	!	-1	1	!	-1	0	0	0	0	0	0	0	0	0	0	0	0	0	0	0	0	0	0	0	0	0	0	0	0	0	0	0
062018	14:10:15	5.0.12.0	46	notassociated	Rpleas_acq	Same	Rpleas	Amasked	CS_A	2pleas	cond_US_unple_123_masked_CS2	condtest_masked_2	7	21	400	0	300	300	0	0	476	50	0	0	0	0	0	1	blank2r.bmp	0	1	+	0	2	B2r.bmp	492	1	blank2r.bmp	786	1	DJMR	786	1	blank2r.bmp	866	1	geiz	866	1	!	1227	1	!	-1	0	0	0	0	0	0	0	0	0	0	0	0	0	0	0	0	0	0	0	0	0	0	0	0	0	0	0
062018	14:10:15	5.0.12.0	46	notassociated	Rpleas_acq	Same	Rpleas	Amasked	CS_A	2pleas	cond_US_unple_123_masked_CS1	condtest_masked_2	7	22	400	1	300	300	0	0	423	50	0	0	0	0	0	1	blank2r.bmp	0	1	+	0	4	B4r.bmp	492	1	blank2r.bmp	786	1	HLST	786	1	blank2r.bmp	866	2	armee	866	1	!	1227	1	!	1317	0	0	0	0	0	0	0	0	0	0	0	0	0	0	0	0	0	0	0	0	0	0	0	0	0	0	0
062018	14:10:15	5.0.12.0	46	notassociated	Rpleas_acq	Same	Rpleas	Amasked	CS_A	2pleas	cond_US_unple_123_masked_CS2	condtest_masked_2	7	23	400	1	300	300	0	0	356	46	0	1	0	0	0	1	blank2r.bmp	0	1	+	0	3	B3r.bmp	492	1	blank2r.bmp	786	1	DJMR	786	1	blank2r.bmp	866	3	zwang	866	1	!	1227	1	!	1250	0	0	0	0	0	0	0	0	0	0	0	0	0	0	0	0	0	0	0	0	0	0	0	0	0	0	0
062018	14:10:15	5.0.12.0	46	notassociated	Rpleas_acq	Same	Rpleas	Amasked	CS_A	2pleas	cond_new_pleas_456_masked_CS1	condtest_masked_2	7	24	400	0	300	300	0	0	470	50	0	1	0	0	0	1	blank2r.bmp	0	1	+	0	6	C2r.bmp	492	1	blank2r.bmp	786	1	HLST	786	1	blank2r.bmp	866	2	erinnerung	866	1	!	1227	1	!	-1	0	0	0	0	0	0	0	0	0	0	0	0	0	0	0	0	0	0	0	0	0	0	0	0	0	0	0
062018	14:10:15	5.0.12.0	46	notassociated	Rpleas_acq	Same	Rpleas	Amasked	CS_A	2pleas	cond_US_pleas_123_masked_CS1	condtest_masked_2	7	25	400	0	300	300	0	0	318	46	0	0	0	0	0	1	blank2r.bmp	0	1	+	0	5	C1r.bmp	492	1	blank2r.bmp	786	1	HLST	786	1	blank2r.bmp	866	3	erfinder	866	1	!	-1	1	!	-1	0	0	0	0	0	0	0	0	0	0	0	0	0	0	0	0	0	0	0	0	0	0	0	0	0	0	0
062018	14:10:15	5.0.12.0	46	notassociated	Rpleas_acq	Same	Rpleas	Amasked	CS_A	2pleas	cond_new_unple_456_masked_CS1	condtest_masked_2	7	26	400	0	300	300	0	0	486	50	0	0	0	0	0	1	blank2r.bmp	0	1	+	0	4	B4r.bmp	492	1	blank2r.bmp	786	1	HLST	786	1	blank2r.bmp	866	1	weigern	866	1	!	1227	1	!	-1	0	0	0	0	0	0	0	0	0	0	0	0	0	0	0	0	0	0	0	0	0	0	0	0	0	0	0
062018	14:10:15	5.0.12.0	46	notassociated	Rpleas_acq	Same	Rpleas	Amasked	CS_A	2pleas	cond_new_unple_456_masked_CS2	condtest_masked_2	7	27	400	0	300	300	0	0	480	50	0	0	0	0	0	1	blank2r.bmp	0	1	+	0	6	C2r.bmp	492	1	blank2r.bmp	786	1	DJMR	786	1	blank2r.bmp	866	2	mager	866	1	!	1227	1	!	-1	0	0	0	0	0	0	0	0	0	0	0	0	0	0	0	0	0	0	0	0	0	0	0	0	0	0	0
062018	14:10:15	5.0.12.0	46	notassociated	Rpleas_acq	Same	Rpleas	Amasked	CS_A	2pleas	cond_US_unple_123_masked_CS2	condtest_masked_2	7	28	400	0	300	300	0	0	315	46	0	1	0	0	0	1	blank2r.bmp	0	1	+	0	8	C4r.bmp	492	1	blank2r.bmp	786	1	DJMR	786	1	blank2r.bmp	866	3	zwang	866	1	!	-1	1	!	-1	0	0	0	0	0	0	0	0	0	0	0	0	0	0	0	0	0	0	0	0	0	0	0	0	0	0	0
062018	14:10:15	5.0.12.0	46	notassociated	Rpleas_acq	Same	Rpleas	Amasked	CS_A	2pleas	cond_US_pleas_123_masked_CS1	condtest_masked_2	7	29	400	1	300	300	0	0	450	46	0	0	0	0	0	1	blank2r.bmp	0	1	+	0	1	B1r.bmp	492	1	blank2r.bmp	786	1	HLST	786	1	blank2r.bmp	866	3	erfinder	866	1	!	1227	1	!	1344	0	0	0	0	0	0	0	0	0	0	0	0	0	0	0	0	0	0	0	0	0	0	0	0	0	0	0
062018	14:10:15	5.0.12.0	46	notassociated	Rpleas_acq	Same	Rpleas	Amasked	CS_A	2pleas	cond_new_unple_456_masked_CS2	condtest_masked_2	7	30	400	0	300	300	0	0	597	46	0	1	0	0	0	1	blank2r.bmp	0	1	+	0	2	B2r.bmp	492	1	blank2r.bmp	786	1	DJMR	786	1	blank2r.bmp	866	3	wurm	866	1	!	1227	1	!	-1	0	0	0	0	0	0	0	0	0	0	0	0	0	0	0	0	0	0	0	0	0	0	0	0	0	0	0
062018	14:10:15	5.0.12.0	46	notassociated	Rpleas_acq	Same	Rpleas	Amasked	CS_A	2pleas	cond_US_unple_123_masked_CS1	condtest_masked_2	7	31	400	0	300	300	0	0	277	46	0	1	0	0	0	1	blank2r.bmp	0	1	+	0	7	C3r.bmp	492	1	blank2r.bmp	786	1	HLST	786	1	blank2r.bmp	866	2	armee	866	1	!	-1	1	!	-1	0	0	0	0	0	0	0	0	0	0	0	0	0	0	0	0	0	0	0	0	0	0	0	0	0	0	0
062018	14:10:15	5.0.12.0	46	notassociated	Rpleas_acq	Same	Rpleas	Amasked	CS_A	2pleas	cond_new_pleas_456_masked_CS2	condtest_masked_2	7	32	400	0	300	300	0	0	487	50	0	1	0	0	0	1	blank2r.bmp	0	1	+	0	3	B3r.bmp	492	1	blank2r.bmp	786	1	DJMR	786	1	blank2r.bmp	866	2	erinnerung	866	1	!	1227	1	!	-1	0	0	0	0	0	0	0	0	0	0	0	0	0	0	0	0	0	0	0	0	0	0	0	0	0	0	0
062018	14:10:15	5.0.12.0	46	notassociated	Rpleas_acq	Same	Rpleas	Amasked	CS_A	2pleas	cond_new_unple_456_masked_CS2	condtest_masked_2	7	33	400	1	300	300	0	0	466	46	0	1	0	0	0	1	blank2r.bmp	0	1	+	0	4	B4r.bmp	492	1	blank2r.bmp	786	1	DJMR	786	1	blank2r.bmp	866	3	wurm	866	1	!	1227	1	!	1359	0	0	0	0	0	0	0	0	0	0	0	0	0	0	0	0	0	0	0	0	0	0	0	0	0	0	0
062018	14:10:15	5.0.12.0	46	notassociated	Rpleas_acq	Same	Rpleas	Amasked	CS_A	2pleas	cond_US_pleas_123_masked_CS2	condtest_masked_2	7	34	400	0	300	300	0	0	490	50	0	1	0	0	0	1	blank2r.bmp	0	1	+	0	3	B3r.bmp	492	1	blank2r.bmp	786	1	DJMR	786	1	blank2r.bmp	866	1	jugend	866	1	!	1227	1	!	-1	0	0	0	0	0	0	0	0	0	0	0	0	0	0	0	0	0	0	0	0	0	0	0	0	0	0	0
062018	14:10:15	5.0.12.0	46	notassociated	Rpleas_acq	Same	Rpleas	Amasked	CS_A	2pleas	cond_new_unple_456_masked_CS1	condtest_masked_2	7	35	400	1	300	300	0	0	340	50	0	0	0	0	0	1	blank2r.bmp	0	1	+	0	8	C4r.bmp	492	1	blank2r.bmp	786	1	HLST	786	1	blank2r.bmp	866	1	weigern	866	1	!	1227	1	!	1234	0	0	0	0	0	0	0	0	0	0	0	0	0	0	0	0	0	0	0	0	0	0	0	0	0	0	0
062018	14:10:15	5.0.12.0	46	notassociated	Rpleas_acq	Same	Rpleas	Amasked	CS_A	2pleas	cond_US_unple_123_masked_CS1	condtest_masked_2	7	36	400	1	300	300	0	0	372	46	0	1	0	0	0	1	blank2r.bmp	0	1	+	0	1	B1r.bmp	492	1	blank2r.bmp	786	1	HLST	786	1	blank2r.bmp	866	1	geiz	866	1	!	1227	1	!	1266	0	0	0	0	0	0	0	0	0	0	0	0	0	0	0	0	0	0	0	0	0	0	0	0	0	0	0
062018	14:10:15	5.0.12.0	46	notassociated	Rpleas_acq	Same	Rpleas	Amasked	CS_A	2pleas	cond_US_pleas_123_masked_CS2	condtest_masked_2	7	37	400	1	300	300	0	0	409	46	0	0	0	0	0	1	blank2r.bmp	0	1	+	0	7	C3r.bmp	492	1	blank2r.bmp	786	1	DJMR	786	1	blank2r.bmp	866	2	wein	866	1	!	1227	1	!	1302	0	0	0	0	0	0	0	0	0	0	0	0	0	0	0	0	0	0	0	0	0	0	0	0	0	0	0
062018	14:10:15	5.0.12.0	46	notassociated	Rpleas_acq	Same	Rpleas	Amasked	CS_A	2pleas	cond_new_unple_456_masked_CS2	condtest_masked_2	7	38	400	0	300	300	0	0	550	46	0	1	0	0	0	1	blank2r.bmp	0	1	+	0	5	C1r.bmp	492	1	blank2r.bmp	786	1	DJMR	786	1	blank2r.bmp	866	2	mager	866	1	!	1227	1	!	-1	0	0	0	0	0	0	0	0	0	0	0	0	0	0	0	0	0	0	0	0	0	0	0	0	0	0	0
062018	14:10:15	5.0.12.0	46	notassociated	Rpleas_acq	Same	Rpleas	Amasked	CS_A	2pleas	cond_new_pleas_456_masked_CS2	condtest_masked_2	7	39	400	0	300	300	0	0	526	50	0	1	0	0	0	1	blank2r.bmp	0	1	+	0	6	C2r.bmp	492	1	blank2r.bmp	786	1	DJMR	786	1	blank2r.bmp	866	3	auge	866	1	!	1227	1	!	-1	0	0	0	0	0	0	0	0	0	0	0	0	0	0	0	0	0	0	0	0	0	0	0	0	0	0	0
062018	14:10:15	5.0.12.0	46	notassociated	Rpleas_acq	Same	Rpleas	Amasked	CS_A	2pleas	cond_new_pleas_456_masked_CS1	condtest_masked_2	7	40	400	1	300	300	0	0	337	50	0	1	0	0	0	1	blank2r.bmp	0	1	+	0	2	B2r.bmp	492	1	blank2r.bmp	786	1	HLST	786	1	blank2r.bmp	866	1	gewinn	866	1	!	1227	1	!	1231	0	0	0	0	0	0	0	0	0	0	0	0	0	0	0	0	0	0	0	0	0	0	0	0	0	0	0
062018	14:10:15	5.0.12.0	46	notassociated	Rpleas_acq	Same	Rpleas	Amasked	CS_A	2pleas	cond_new_unple_123_masked_CS1	condtest_masked_3	8	1	400	0	300	300	0	0	666	46	0	1	0	0	0	1	blank2r.bmp	0	1	+	0	5	C1r.bmp	492	1	blank2r.bmp	786	1	HLST	786	1	blank2r.bmp	866	1	umweg	866	1	!	1227	1	!	-1	0	0	0	0	0	0	0	0	0	0	0	0	0	0	0	0	0	0	0	0	0	0	0	0	0	0	0
062018	14:10:15	5.0.12.0	46	notassociated	Rpleas_acq	Same	Rpleas	Amasked	CS_A	2pleas	cond_US_pleas_456_masked_CS1	condtest_masked_3	8	2	400	0	300	300	0	0	328	50	0	1	0	0	0	1	blank2r.bmp	0	1	+	0	8	C4r.bmp	492	1	blank2r.bmp	786	1	HLST	786	1	blank2r.bmp	866	3	meer	866	1	!	-1	1	!	-1	0	0	0	0	0	0	0	0	0	0	0	0	0	0	0	0	0	0	0	0	0	0	0	0	0	0	0
062018	14:10:15	5.0.12.0	46	notassociated	Rpleas_acq	Same	Rpleas	Amasked	CS_A	2pleas	cond_new_unple_123_masked_CS2	condtest_masked_3	8	3	400	0	300	300	0	0	580	46	0	1	0	0	0	1	blank2r.bmp	0	1	+	0	1	B1r.bmp	492	1	blank2r.bmp	786	1	DJMR	786	1	blank2r.bmp	866	3	wunde	866	1	!	1227	1	!	-1	0	0	0	0	0	0	0	0	0	0	0	0	0	0	0	0	0	0	0	0	0	0	0	0	0	0	0
062018	14:10:15	5.0.12.0	46	notassociated	Rpleas_acq	Same	Rpleas	Amasked	CS_A	2pleas	cond_new_unple_123_masked_CS1	condtest_masked_3	8	4	400	1	300	300	0	0	466	50	0	0	0	0	0	1	blank2r.bmp	0	1	+	0	7	C3r.bmp	492	1	blank2r.bmp	786	1	HLST	786	1	blank2r.bmp	866	2	verirren	866	1	!	1227	1	!	1360	0	0	0	0	0	0	0	0	0	0	0	0	0	0	0	0	0	0	0	0	0	0	0	0	0	0	0
062018	14:10:15	5.0.12.0	46	notassociated	Rpleas_acq	Same	Rpleas	Amasked	CS_A	2pleas	cond_new_unple_123_masked_CS1	condtest_masked_3	8	5	400	0	300	300	0	0	330	46	0	1	0	0	0	1	blank2r.bmp	0	1	+	0	6	C2r.bmp	492	1	blank2r.bmp	786	1	HLST	786	1	blank2r.bmp	866	2	verirren	866	1	!	-1	1	!	-1	0	0	0	0	0	0	0	0	0	0	0	0	0	0	0	0	0	0	0	0	0	0	0	0	0	0	0
062018	14:10:15	5.0.12.0	46	notassociated	Rpleas_acq	Same	Rpleas	Amasked	CS_A	2pleas	cond_US_unple_456_masked_CS1	condtest_masked_3	8	6	400	0	300	300	0	0	516	46	0	1	0	0	0	1	blank2r.bmp	0	1	+	0	2	B2r.bmp	492	1	blank2r.bmp	786	1	HLST	786	1	blank2r.bmp	866	1	wunde	866	1	!	1227	1	!	-1	0	0	0	0	0	0	0	0	0	0	0	0	0	0	0	0	0	0	0	0	0	0	0	0	0	0	0
062018	14:10:15	5.0.12.0	46	notassociated	Rpleas_acq	Same	Rpleas	Amasked	CS_A	2pleas	cond_US_unple_456_masked_CS1	condtest_masked_3	8	7	400	0	300	300	0	0	484	46	0	1	0	0	0	1	blank2r.bmp	0	1	+	0	4	B4r.bmp	492	1	blank2r.bmp	786	1	HLST	786	1	blank2r.bmp	866	2	gegner	866	1	!	1227	1	!	-1	0	0	0	0	0	0	0	0	0	0	0	0	0	0	0	0	0	0	0	0	0	0	0	0	0	0	0
062018	14:10:15	5.0.12.0	46	notassociated	Rpleas_acq	Same	Rpleas	Amasked	CS_A	2pleas	cond_US_unple_456_masked_CS2	condtest_masked_3	8	8	400	0	300	300	0	0	191	46	0	1	0	0	0	1	blank2r.bmp	0	1	+	0	3	B3r.bmp	492	1	blank2r.bmp	786	1	DJMR	786	1	blank2r.bmp	866	3	narr	866	1	!	-1	1	!	-1	0	0	0	0	0	0	0	0	0	0	0	0	0	0	0	0	0	0	0	0	0	0	0	0	0	0	0
062018	14:10:15	5.0.12.0	46	notassociated	Rpleas_acq	Same	Rpleas	Amasked	CS_A	2pleas	cond_new_unple_123_masked_CS2	condtest_masked_3	8	9	400	1	300	300	0	0	382	46	0	1	0	0	0	1	blank2r.bmp	0	1	+	0	8	C4r.bmp	492	1	blank2r.bmp	786	1	DJMR	786	1	blank2r.bmp	866	1	umweg	866	1	!	1227	1	!	1275	0	0	0	0	0	0	0	0	0	0	0	0	0	0	0	0	0	0	0	0	0	0	0	0	0	0	0
062018	14:10:15	5.0.12.0	46	notassociated	Rpleas_acq	Same	Rpleas	Amasked	CS_A	2pleas	cond_new_pleas_123_masked_CS1	condtest_masked_3	8	10	400	0	300	300	0	0	531	46	0	0	0	0	0	1	blank2r.bmp	0	1	+	0	5	C1r.bmp	492	1	blank2r.bmp	786	1	HLST	786	1	blank2r.bmp	866	1	geige	866	1	!	1227	1	!	-1	0	0	0	0	0	0	0	0	0	0	0	0	0	0	0	0	0	0	0	0	0	0	0	0	0	0	0
062018	14:10:15	5.0.12.0	46	notassociated	Rpleas_acq	Same	Rpleas	Amasked	CS_A	2pleas	cond_US_unple_456_masked_CS2	condtest_masked_3	8	11	400	1	300	300	0	0	456	50	0	0	0	0	0	1	blank2r.bmp	0	1	+	0	6	C2r.bmp	492	1	blank2r.bmp	786	1	DJMR	786	1	blank2r.bmp	866	1	wunde	866	1	!	1227	1	!	1350	0	0	0	0	0	0	0	0	0	0	0	0	0	0	0	0	0	0	0	0	0	0	0	0	0	0	0
062018	14:10:15	5.0.12.0	46	notassociated	Rpleas_acq	Same	Rpleas	Amasked	CS_A	2pleas	cond_new_pleas_123_masked_CS1	condtest_masked_3	8	12	400	1	300	300	0	0	363	46	0	0	0	0	0	1	blank2r.bmp	0	1	+	0	4	B4r.bmp	492	1	blank2r.bmp	786	1	HLST	786	1	blank2r.bmp	866	2	fair	866	1	!	1227	1	!	1256	0	0	0	0	0	0	0	0	0	0	0	0	0	0	0	0	0	0	0	0	0	0	0	0	0	0	0
062018	14:10:15	5.0.12.0	46	notassociated	Rpleas_acq	Same	Rpleas	Amasked	CS_A	2pleas	cond_new_pleas_123_masked_CS1	condtest_masked_3	8	13	400	1	300	300	0	0	381	46	0	0	0	0	0	1	blank2r.bmp	0	1	+	0	3	B3r.bmp	492	1	blank2r.bmp	786	1	HLST	786	1	blank2r.bmp	866	3	energie	866	1	!	1227	1	!	1275	0	0	0	0	0	0	0	0	0	0	0	0	0	0	0	0	0	0	0	0	0	0	0	0	0	0	0
062018	14:10:15	5.0.12.0	46	notassociated	Rpleas_acq	Same	Rpleas	Amasked	CS_A	2pleas	cond_new_unple_123_masked_CS2	condtest_masked_3	8	14	400	0	300	300	0	0	322	50	0	0	0	0	0	1	blank2r.bmp	0	1	+	0	7	C3r.bmp	492	1	blank2r.bmp	786	1	DJMR	786	1	blank2r.bmp	866	3	wunde	866	1	!	-1	1	!	-1	0	0	0	0	0	0	0	0	0	0	0	0	0	0	0	0	0	0	0	0	0	0	0	0	0	0	0
062018	14:10:15	5.0.12.0	46	notassociated	Rpleas_acq	Same	Rpleas	Amasked	CS_A	2pleas	cond_US_pleas_456_masked_CS1	condtest_masked_3	8	15	400	0	300	300	0	0	316	46	0	0	0	0	0	1	blank2r.bmp	0	1	+	0	1	B1r.bmp	492	1	blank2r.bmp	786	1	HLST	786	1	blank2r.bmp	866	2	frieden	866	1	!	-1	1	!	-1	0	0	0	0	0	0	0	0	0	0	0	0	0	0	0	0	0	0	0	0	0	0	0	0	0	0	0
062018	14:10:15	5.0.12.0	46	notassociated	Rpleas_acq	Same	Rpleas	Amasked	CS_A	2pleas	cond_new_pleas_123_masked_CS2	condtest_masked_3	8	16	400	1	300	300	0	0	390	50	0	1	0	0	0	1	blank2r.bmp	0	1	+	0	2	B2r.bmp	492	1	blank2r.bmp	786	1	DJMR	786	1	blank2r.bmp	866	2	fair	866	1	!	1227	1	!	1284	0	0	0	0	0	0	0	0	0	0	0	0	0	0	0	0	0	0	0	0	0	0	0	0	0	0	0
062018	14:10:15	5.0.12.0	46	notassociated	Rpleas_acq	Same	Rpleas	Amasked	CS_A	2pleas	cond_new_pleas_123_masked_CS1	condtest_masked_3	8	17	400	1	300	300	0	0	462	50	0	1	0	0	0	1	blank2r.bmp	0	1	+	0	2	B2r.bmp	492	1	blank2r.bmp	786	1	HLST	786	1	blank2r.bmp	866	1	geige	866	1	!	1227	1	!	1355	0	0	0	0	0	0	0	0	0	0	0	0	0	0	0	0	0	0	0	0	0	0	0	0	0	0	0
062018	14:10:15	5.0.12.0	46	notassociated	Rpleas_acq	Same	Rpleas	Amasked	CS_A	2pleas	cond_new_unple_123_masked_CS1	condtest_masked_3	8	18	400	0	300	300	0	0	547	50	0	0	0	0	0	1	blank2r.bmp	0	1	+	0	4	B4r.bmp	492	1	blank2r.bmp	786	1	HLST	786	1	blank2r.bmp	866	1	umweg	866	1	!	1227	1	!	-1	0	0	0	0	0	0	0	0	0	0	0	0	0	0	0	0	0	0	0	0	0	0	0	0	0	0	0
062018	14:10:15	5.0.12.0	46	notassociated	Rpleas_acq	Same	Rpleas	Amasked	CS_A	2pleas	cond_US_unple_456_masked_CS1	condtest_masked_3	8	19	400	1	300	300	0	0	363	50	0	0	0	0	0	1	blank2r.bmp	0	1	+	0	7	C3r.bmp	492	1	blank2r.bmp	786	1	HLST	786	1	blank2r.bmp	866	2	gegner	866	1	!	1227	1	!	1257	0	0	0	0	0	0	0	0	0	0	0	0	0	0	0	0	0	0	0	0	0	0	0	0	0	0	0
062018	14:10:15	5.0.12.0	46	notassociated	Rpleas_acq	Same	Rpleas	Amasked	CS_A	2pleas	cond_US_unple_456_masked_CS1	condtest_masked_3	8	20	400	1	300	300	0	0	349	46	0	1	0	0	0	1	blank2r.bmp	0	1	+	0	3	B3r.bmp	492	1	blank2r.bmp	786	1	HLST	786	1	blank2r.bmp	866	3	narr	866	1	!	1227	1	!	1243	0	0	0	0	0	0	0	0	0	0	0	0	0	0	0	0	0	0	0	0	0	0	0	0	0	0	0
062018	14:10:15	5.0.12.0	46	notassociated	Rpleas_acq	Same	Rpleas	Amasked	CS_A	2pleas	cond_US_pleas_456_masked_CS2	condtest_masked_3	8	21	400	1	300	300	0	0	394	50	0	1	0	0	0	1	blank2r.bmp	0	1	+	0	1	B1r.bmp	492	1	blank2r.bmp	786	1	DJMR	786	1	blank2r.bmp	866	1	mama	866	1	!	1227	1	!	1288	0	0	0	0	0	0	0	0	0	0	0	0	0	0	0	0	0	0	0	0	0	0	0	0	0	0	0
062018	14:10:15	5.0.12.0	46	notassociated	Rpleas_acq	Same	Rpleas	Amasked	CS_A	2pleas	cond_US_unple_456_masked_CS2	condtest_masked_3	8	22	400	0	300	300	0	0	322	46	0	1	0	0	0	1	blank2r.bmp	0	1	+	0	5	C1r.bmp	492	1	blank2r.bmp	786	1	DJMR	786	1	blank2r.bmp	866	1	wunde	866	1	!	-1	1	!	-1	0	0	0	0	0	0	0	0	0	0	0	0	0	0	0	0	0	0	0	0	0	0	0	0	0	0	0
062018	14:10:15	5.0.12.0	46	notassociated	Rpleas_acq	Same	Rpleas	Amasked	CS_A	2pleas	cond_new_pleas_123_masked_CS2	condtest_masked_3	8	23	400	1	300	300	0	0	428	50	0	1	0	0	0	1	blank2r.bmp	0	1	+	0	6	C2r.bmp	492	1	blank2r.bmp	786	1	DJMR	786	1	blank2r.bmp	866	3	energie	866	1	!	1227	1	!	1322	0	0	0	0	0	0	0	0	0	0	0	0	0	0	0	0	0	0	0	0	0	0	0	0	0	0	0
062018	14:10:15	5.0.12.0	46	notassociated	Rpleas_acq	Same	Rpleas	Amasked	CS_A	2pleas	cond_US_unple_456_masked_CS1	condtest_masked_3	8	24	400	1	300	300	0	0	396	46	0	1	0	0	0	1	blank2r.bmp	0	1	+	0	8	C4r.bmp	492	1	blank2r.bmp	786	1	HLST	786	1	blank2r.bmp	866	2	gegner	866	1	!	1227	1	!	1289	0	0	0	0	0	0	0	0	0	0	0	0	0	0	0	0	0	0	0	0	0	0	0	0	0	0	0
062018	14:10:15	5.0.12.0	46	notassociated	Rpleas_acq	Same	Rpleas	Amasked	CS_A	2pleas	cond_new_unple_123_masked_CS2	condtest_masked_3	8	25	400	1	300	300	0	0	435	46	0	1	0	0	0	1	blank2r.bmp	0	1	+	0	2	B2r.bmp	492	1	blank2r.bmp	786	1	DJMR	786	1	blank2r.bmp	866	3	wunde	866	1	!	1227	1	!	1329	0	0	0	0	0	0	0	0	0	0	0	0	0	0	0	0	0	0	0	0	0	0	0	0	0	0	0
062018	14:10:15	5.0.12.0	46	notassociated	Rpleas_acq	Same	Rpleas	Amasked	CS_A	2pleas	cond_new_unple_123_masked_CS1	condtest_masked_3	8	26	400	0	300	300	0	0	566	46	0	1	0	0	0	1	blank2r.bmp	0	1	+	0	3	B3r.bmp	492	1	blank2r.bmp	786	1	HLST	786	1	blank2r.bmp	866	2	verirren	866	1	!	1227	1	!	-1	0	0	0	0	0	0	0	0	0	0	0	0	0	0	0	0	0	0	0	0	0	0	0	0	0	0	0
062018	14:10:15	5.0.12.0	46	notassociated	Rpleas_acq	Same	Rpleas	Amasked	CS_A	2pleas	cond_US_pleas_456_masked_CS2	condtest_masked_3	8	27	400	1	300	300	0	0	337	50	0	1	0	0	0	1	blank2r.bmp	0	1	+	0	6	C2r.bmp	492	1	blank2r.bmp	786	1	DJMR	786	1	blank2r.bmp	866	1	mama	866	1	!	1227	1	!	1230	0	0	0	0	0	0	0	0	0	0	0	0	0	0	0	0	0	0	0	0	0	0	0	0	0	0	0
062018	14:10:15	5.0.12.0	46	notassociated	Rpleas_acq	Same	Rpleas	Amasked	CS_A	2pleas	cond_US_pleas_456_masked_CS2	condtest_masked_3	8	28	400	1	300	300	0	0	462	46	0	0	0	0	0	1	blank2r.bmp	0	1	+	0	5	C1r.bmp	492	1	blank2r.bmp	786	1	DJMR	786	1	blank2r.bmp	866	3	meer	866	1	!	1227	1	!	1355	0	0	0	0	0	0	0	0	0	0	0	0	0	0	0	0	0	0	0	0	0	0	0	0	0	0	0
062018	14:10:15	5.0.12.0	46	notassociated	Rpleas_acq	Same	Rpleas	Amasked	CS_A	2pleas	cond_new_pleas_123_masked_CS1	condtest_masked_3	8	29	400	1	300	300	0	0	435	46	0	0	0	0	0	1	blank2r.bmp	0	1	+	0	8	C4r.bmp	492	1	blank2r.bmp	786	1	HLST	786	1	blank2r.bmp	866	3	energie	866	1	!	1227	1	!	1328	0	0	0	0	0	0	0	0	0	0	0	0	0	0	0	0	0	0	0	0	0	0	0	0	0	0	0
062018	14:10:15	5.0.12.0	46	notassociated	Rpleas_acq	Same	Rpleas	Amasked	CS_A	2pleas	cond_US_pleas_456_masked_CS1	condtest_masked_3	8	30	400	1	300	300	0	0	405	50	0	1	0	0	0	1	blank2r.bmp	0	1	+	0	1	B1r.bmp	492	1	blank2r.bmp	786	1	HLST	786	1	blank2r.bmp	866	2	frieden	866	1	!	1227	1	!	1299	0	0	0	0	0	0	0	0	0	0	0	0	0	0	0	0	0	0	0	0	0	0	0	0	0	0	0
062018	14:10:15	5.0.12.0	46	notassociated	Rpleas_acq	Same	Rpleas	Amasked	CS_A	2pleas	cond_new_unple_123_masked_CS2	condtest_masked_3	8	31	400	1	300	300	0	0	368	50	0	0	0	0	0	1	blank2r.bmp	0	1	+	0	7	C3r.bmp	492	1	blank2r.bmp	786	1	DJMR	786	1	blank2r.bmp	866	3	wunde	866	1	!	1227	1	!	1262	0	0	0	0	0	0	0	0	0	0	0	0	0	0	0	0	0	0	0	0	0	0	0	0	0	0	0
062018	14:10:15	5.0.12.0	46	notassociated	Rpleas_acq	Same	Rpleas	Amasked	CS_A	2pleas	cond_new_pleas_123_masked_CS2	condtest_masked_3	8	32	400	0	300	300	0	0	309	46	0	0	0	0	0	1	blank2r.bmp	0	1	+	0	4	B4r.bmp	492	1	blank2r.bmp	786	1	DJMR	786	1	blank2r.bmp	866	2	fair	866	1	!	-1	1	!	-1	0	0	0	0	0	0	0	0	0	0	0	0	0	0	0	0	0	0	0	0	0	0	0	0	0	0	0
062018	14:10:15	5.0.12.0	46	notassociated	Rpleas_acq	Same	Rpleas	Amasked	CS_A	2pleas	cond_US_unple_456_masked_CS2	condtest_masked_3	8	33	400	1	300	300	0	0	396	50	0	0	0	0	0	1	blank2r.bmp	0	1	+	0	7	C3r.bmp	492	1	blank2r.bmp	786	1	DJMR	786	1	blank2r.bmp	866	3	narr	866	1	!	1227	1	!	1290	0	0	0	0	0	0	0	0	0	0	0	0	0	0	0	0	0	0	0	0	0	0	0	0	0	0	0
062018	14:10:15	5.0.12.0	46	notassociated	Rpleas_acq	Same	Rpleas	Amasked	CS_A	2pleas	cond_new_pleas_123_masked_CS2	condtest_masked_3	8	34	400	1	300	300	0	0	374	46	0	0	0	0	0	1	blank2r.bmp	0	1	+	0	2	B2r.bmp	492	1	blank2r.bmp	786	1	DJMR	786	1	blank2r.bmp	866	1	geige	866	1	!	1227	1	!	1268	0	0	0	0	0	0	0	0	0	0	0	0	0	0	0	0	0	0	0	0	0	0	0	0	0	0	0
062018	14:10:15	5.0.12.0	46	notassociated	Rpleas_acq	Same	Rpleas	Amasked	CS_A	2pleas	cond_US_pleas_456_masked_CS1	condtest_masked_3	8	35	400	1	300	300	0	0	443	50	0	1	0	0	0	1	blank2r.bmp	0	1	+	0	5	C1r.bmp	492	1	blank2r.bmp	786	1	HLST	786	1	blank2r.bmp	866	1	mama	866	1	!	1227	1	!	1337	0	0	0	0	0	0	0	0	0	0	0	0	0	0	0	0	0	0	0	0	0	0	0	0	0	0	0
062018	14:10:15	5.0.12.0	46	notassociated	Rpleas_acq	Same	Rpleas	Amasked	CS_A	2pleas	cond_US_unple_456_masked_CS1	condtest_masked_3	8	36	400	1	300	300	0	0	433	46	0	1	0	0	0	1	blank2r.bmp	0	1	+	0	6	C2r.bmp	492	1	blank2r.bmp	786	1	HLST	786	1	blank2r.bmp	866	3	narr	866	1	!	1227	1	!	1326	0	0	0	0	0	0	0	0	0	0	0	0	0	0	0	0	0	0	0	0	0	0	0	0	0	0	0
062018	14:10:15	5.0.12.0	46	notassociated	Rpleas_acq	Same	Rpleas	Amasked	CS_A	2pleas	cond_US_pleas_456_masked_CS2	condtest_masked_3	8	37	400	1	300	300	0	0	448	50	0	1	0	0	0	1	blank2r.bmp	0	1	+	0	3	B3r.bmp	492	1	blank2r.bmp	786	1	DJMR	786	1	blank2r.bmp	866	2	frieden	866	1	!	1227	1	!	1342	0	0	0	0	0	0	0	0	0	0	0	0	0	0	0	0	0	0	0	0	0	0	0	0	0	0	0
062018	14:10:15	5.0.12.0	46	notassociated	Rpleas_acq	Same	Rpleas	Amasked	CS_A	2pleas	cond_US_pleas_456_masked_CS2	condtest_masked_3	8	38	400	1	300	300	0	0	438	50	0	1	0	0	0	1	blank2r.bmp	0	1	+	0	4	B4r.bmp	492	1	blank2r.bmp	786	1	DJMR	786	1	blank2r.bmp	866	3	meer	866	1	!	1227	1	!	1331	0	0	0	0	0	0	0	0	0	0	0	0	0	0	0	0	0	0	0	0	0	0	0	0	0	0	0
062018	14:10:15	5.0.12.0	46	notassociated	Rpleas_acq	Same	Rpleas	Amasked	CS_A	2pleas	cond_new_pleas_123_masked_CS2	condtest_masked_3	8	39	400	1	300	300	0	0	405	46	0	0	0	0	0	1	blank2r.bmp	0	1	+	0	8	C4r.bmp	492	1	blank2r.bmp	786	1	DJMR	786	1	blank2r.bmp	866	1	geige	866	1	!	1227	1	!	1299	0	0	0	0	0	0	0	0	0	0	0	0	0	0	0	0	0	0	0	0	0	0	0	0	0	0	0
062018	14:10:15	5.0.12.0	46	notassociated	Rpleas_acq	Same	Rpleas	Amasked	CS_A	2pleas	cond_US_pleas_456_masked_CS2	condtest_masked_3	8	40	400	1	300	300	0	0	403	46	0	0	0	0	0	1	blank2r.bmp	0	1	+	0	1	B1r.bmp	492	1	blank2r.bmp	786	1	DJMR	786	1	blank2r.bmp	866	2	frieden	866	1	!	1227	1	!	1296	0	0	0	0	0	0	0	0	0	0	0	0	0	0	0	0	0	0	0	0	0	0	0	0	0	0	0
062018	14:10:15	5.0.12.0	46	notassociated	Rpleas_acq	Same	Rpleas	Amasked	CS_A	2pleas	cond_new_unple_123_masked_CS1	condtest_masked_3	8	41	400	0	300	300	0	0	557	46	0	1	0	0	0	1	blank2r.bmp	0	1	+	0	7	C3r.bmp	492	1	blank2r.bmp	786	1	HLST	786	1	blank2r.bmp	866	1	umweg	866	1	!	1227	1	!	-1	0	0	0	0	0	0	0	0	0	0	0	0	0	0	0	0	0	0	0	0	0	0	0	0	0	0	0
062018	14:10:15	5.0.12.0	46	notassociated	Rpleas_acq	Same	Rpleas	Amasked	CS_A	2pleas	cond_US_pleas_456_masked_CS1	condtest_masked_3	8	42	400	1	300	300	0	0	408	50	0	1	0	0	0	1	blank2r.bmp	0	1	+	0	6	C2r.bmp	492	1	blank2r.bmp	786	1	HLST	786	1	blank2r.bmp	866	1	mama	866	1	!	1227	1	!	1302	0	0	0	0	0	0	0	0	0	0	0	0	0	0	0	0	0	0	0	0	0	0	0	0	0	0	0
062018	14:10:15	5.0.12.0	46	notassociated	Rpleas_acq	Same	Rpleas	Amasked	CS_A	2pleas	cond_new_pleas_123_masked_CS2	condtest_masked_3	8	43	400	1	300	300	0	0	402	50	0	1	0	0	0	1	blank2r.bmp	0	1	+	0	1	B1r.bmp	492	1	blank2r.bmp	786	1	DJMR	786	1	blank2r.bmp	866	3	energie	866	1	!	1227	1	!	1296	0	0	0	0	0	0	0	0	0	0	0	0	0	0	0	0	0	0	0	0	0	0	0	0	0	0	0
062018	14:10:15	5.0.12.0	46	notassociated	Rpleas_acq	Same	Rpleas	Amasked	CS_A	2pleas	cond_US_pleas_456_masked_CS1	condtest_masked_3	8	44	400	1	300	300	0	0	349	50	0	1	0	0	0	1	blank2r.bmp	0	1	+	0	4	B4r.bmp	492	1	blank2r.bmp	786	1	HLST	786	1	blank2r.bmp	866	3	meer	866	1	!	1227	1	!	1242	0	0	0	0	0	0	0	0	0	0	0	0	0	0	0	0	0	0	0	0	0	0	0	0	0	0	0
062018	14:10:15	5.0.12.0	46	notassociated	Rpleas_acq	Same	Rpleas	Amasked	CS_A	2pleas	cond_new_unple_123_masked_CS2	condtest_masked_3	8	45	400	1	300	300	0	0	396	46	0	1	0	0	0	1	blank2r.bmp	0	1	+	0	8	C4r.bmp	492	1	blank2r.bmp	786	1	DJMR	786	1	blank2r.bmp	866	2	verirren	866	1	!	1227	1	!	1290	0	0	0	0	0	0	0	0	0	0	0	0	0	0	0	0	0	0	0	0	0	0	0	0	0	0	0
062018	14:10:15	5.0.12.0	46	notassociated	Rpleas_acq	Same	Rpleas	Amasked	CS_A	2pleas	cond_new_pleas_123_masked_CS1	condtest_masked_3	8	46	400	0	300	300	0	0	518	46	0	0	0	0	0	1	blank2r.bmp	0	1	+	0	5	C1r.bmp	492	1	blank2r.bmp	786	1	HLST	786	1	blank2r.bmp	866	2	fair	866	1	!	1227	1	!	-1	0	0	0	0	0	0	0	0	0	0	0	0	0	0	0	0	0	0	0	0	0	0	0	0	0	0	0
062018	14:10:15	5.0.12.0	46	notassociated	Rpleas_acq	Same	Rpleas	Amasked	CS_A	2pleas	cond_US_unple_456_masked_CS2	condtest_masked_3	8	47	400	1	300	300	0	0	359	50	0	0	0	0	0	1	blank2r.bmp	0	1	+	0	3	B3r.bmp	492	1	blank2r.bmp	786	1	DJMR	786	1	blank2r.bmp	866	1	wunde	866	1	!	1227	1	!	1252	0	0	0	0	0	0	0	0	0	0	0	0	0	0	0	0	0	0	0	0	0	0	0	0	0	0	0
062018	14:10:15	5.0.12.0	46	notassociated	Rpleas_acq	Same	Rpleas	Amasked	CS_A	2pleas	cond_US_unple_456_masked_CS2	condtest_masked_3	8	48	400	0	300	300	0	0	505	46	0	1	0	0	0	1	blank2r.bmp	0	1	+	0	2	B2r.bmp	492	1	blank2r.bmp	786	1	DJMR	786	1	blank2r.bmp	866	2	gegner	866	1	!	1227	1	!	-1	0	0	0	0	0	0	0	0	0	0	0	0	0	0	0	0	0	0	0	0	0	0	0	0	0	0	0
062018	14:10:15	5.0.12.0	46	notassociated	Rpleas_acq	Same	Rpleas	Amasked	CS_A	2pleas	cond_new_unple_456_masked_CS1	condtest_masked_4	9	1	400	0	300	300	0	0	467	46	0	1	0	0	0	1	blank2r.bmp	0	1	+	0	2	B2r.bmp	492	1	blank2r.bmp	786	1	HLST	786	1	blank2r.bmp	866	3	wurm	866	1	!	1227	1	!	-1	0	0	0	0	0	0	0	0	0	0	0	0	0	0	0	0	0	0	0	0	0	0	0	0	0	0	0
062018	14:10:15	5.0.12.0	46	notassociated	Rpleas_acq	Same	Rpleas	Amasked	CS_A	2pleas	cond_US_pleas_123_masked_CS2	condtest_masked_4	9	2	400	0	300	300	0	0	299	46	0	0	0	0	0	1	blank2r.bmp	0	1	+	0	1	B1r.bmp	492	1	blank2r.bmp	786	1	DJMR	786	1	blank2r.bmp	866	1	jugend	866	1	!	-1	1	!	-1	0	0	0	0	0	0	0	0	0	0	0	0	0	0	0	0	0	0	0	0	0	0	0	0	0	0	0
062018	14:10:15	5.0.12.0	46	notassociated	Rpleas_acq	Same	Rpleas	Amasked	CS_A	2pleas	cond_new_unple_456_masked_CS1	condtest_masked_4	9	3	400	1	300	300	0	0	352	50	0	0	0	0	0	1	blank2r.bmp	0	1	+	0	5	C1r.bmp	492	1	blank2r.bmp	786	1	HLST	786	1	blank2r.bmp	866	1	weigern	866	1	!	1227	1	!	1245	0	0	0	0	0	0	0	0	0	0	0	0	0	0	0	0	0	0	0	0	0	0	0	0	0	0	0
062018	14:10:15	5.0.12.0	46	notassociated	Rpleas_acq	Same	Rpleas	Amasked	CS_A	2pleas	cond_new_unple_456_masked_CS2	condtest_masked_4	9	4	400	1	300	300	0	0	386	46	0	1	0	0	0	1	blank2r.bmp	0	1	+	0	4	B4r.bmp	492	1	blank2r.bmp	786	1	DJMR	786	1	blank2r.bmp	866	2	mager	866	1	!	1227	1	!	1279	0	0	0	0	0	0	0	0	0	0	0	0	0	0	0	0	0	0	0	0	0	0	0	0	0	0	0
062018	14:10:15	5.0.12.0	46	notassociated	Rpleas_acq	Same	Rpleas	Amasked	CS_A	2pleas	cond_new_unple_456_masked_CS1	condtest_masked_4	9	5	400	1	300	300	0	0	393	46	0	1	0	0	0	1	blank2r.bmp	0	1	+	0	7	C3r.bmp	492	1	blank2r.bmp	786	1	HLST	786	1	blank2r.bmp	866	1	weigern	866	1	!	1227	1	!	1287	0	0	0	0	0	0	0	0	0	0	0	0	0	0	0	0	0	0	0	0	0	0	0	0	0	0	0
062018	14:10:15	5.0.12.0	46	notassociated	Rpleas_acq	Same	Rpleas	Amasked	CS_A	2pleas	cond_US_unple_123_masked_CS2	condtest_masked_4	9	6	400	1	300	300	0	0	417	46	0	1	0	0	0	1	blank2r.bmp	0	1	+	0	3	B3r.bmp	492	1	blank2r.bmp	786	1	DJMR	786	1	blank2r.bmp	866	1	geiz	866	1	!	1227	1	!	1311	0	0	0	0	0	0	0	0	0	0	0	0	0	0	0	0	0	0	0	0	0	0	0	0	0	0	0
062018	14:10:15	5.0.12.0	46	notassociated	Rpleas_acq	Same	Rpleas	Amasked	CS_A	2pleas	cond_new_unple_456_masked_CS2	condtest_masked_4	9	7	400	1	300	300	0	0	382	50	0	0	0	0	0	1	blank2r.bmp	0	1	+	0	8	C4r.bmp	492	1	blank2r.bmp	786	1	DJMR	786	1	blank2r.bmp	866	2	mager	866	1	!	1227	1	!	1276	0	0	0	0	0	0	0	0	0	0	0	0	0	0	0	0	0	0	0	0	0	0	0	0	0	0	0
062018	14:10:15	5.0.12.0	46	notassociated	Rpleas_acq	Same	Rpleas	Amasked	CS_A	2pleas	cond_new_pleas_456_masked_CS1	condtest_masked_4	9	8	400	1	300	300	0	0	419	50	0	1	0	0	0	1	blank2r.bmp	0	1	+	0	6	C2r.bmp	492	1	blank2r.bmp	786	1	HLST	786	1	blank2r.bmp	866	1	gewinn	866	1	!	1227	1	!	1313	0	0	0	0	0	0	0	0	0	0	0	0	0	0	0	0	0	0	0	0	0	0	0	0	0	0	0
062018	14:10:15	5.0.12.0	46	notassociated	Rpleas_acq	Same	Rpleas	Amasked	CS_A	2pleas	cond_new_unple_456_masked_CS2	condtest_masked_4	9	9	400	1	300	300	0	0	416	46	0	1	0	0	0	1	blank2r.bmp	0	1	+	0	5	C1r.bmp	492	1	blank2r.bmp	786	1	DJMR	786	1	blank2r.bmp	866	3	wurm	866	1	!	1227	1	!	1310	0	0	0	0	0	0	0	0	0	0	0	0	0	0	0	0	0	0	0	0	0	0	0	0	0	0	0
062018	14:10:15	5.0.12.0	46	notassociated	Rpleas_acq	Same	Rpleas	Amasked	CS_A	2pleas	cond_new_pleas_456_masked_CS1	condtest_masked_4	9	10	400	1	300	300	0	0	413	50	0	1	0	0	0	1	blank2r.bmp	0	1	+	0	4	B4r.bmp	492	1	blank2r.bmp	786	1	HLST	786	1	blank2r.bmp	866	2	erinnerung	866	1	!	1227	1	!	1307	0	0	0	0	0	0	0	0	0	0	0	0	0	0	0	0	0	0	0	0	0	0	0	0	0	0	0
062018	14:10:15	5.0.12.0	46	notassociated	Rpleas_acq	Same	Rpleas	Amasked	CS_A	2pleas	cond_US_pleas_123_masked_CS2	condtest_masked_4	9	11	400	0	300	300	0	0	314	46	0	0	0	0	0	1	blank2r.bmp	0	1	+	0	3	B3r.bmp	492	1	blank2r.bmp	786	1	DJMR	786	1	blank2r.bmp	866	2	wein	866	1	!	-1	1	!	-1	0	0	0	0	0	0	0	0	0	0	0	0	0	0	0	0	0	0	0	0	0	0	0	0	0	0	0
062018	14:10:15	5.0.12.0	46	notassociated	Rpleas_acq	Same	Rpleas	Amasked	CS_A	2pleas	cond_US_unple_123_masked_CS2	condtest_masked_4	9	12	400	0	300	300	0	0	482	50	0	0	0	0	0	1	blank2r.bmp	0	1	+	0	2	B2r.bmp	492	1	blank2r.bmp	786	1	DJMR	786	1	blank2r.bmp	866	2	armee	866	1	!	1227	1	!	-1	0	0	0	0	0	0	0	0	0	0	0	0	0	0	0	0	0	0	0	0	0	0	0	0	0	0	0
062018	14:10:15	5.0.12.0	46	notassociated	Rpleas_acq	Same	Rpleas	Amasked	CS_A	2pleas	cond_US_unple_123_masked_CS1	condtest_masked_4	9	13	400	0	300	300	0	0	524	46	0	1	0	0	0	1	blank2r.bmp	0	1	+	0	1	B1r.bmp	492	1	blank2r.bmp	786	1	HLST	786	1	blank2r.bmp	866	3	zwang	866	1	!	1227	1	!	-1	0	0	0	0	0	0	0	0	0	0	0	0	0	0	0	0	0	0	0	0	0	0	0	0	0	0	0
062018	14:10:15	5.0.12.0	46	notassociated	Rpleas_acq	Same	Rpleas	Amasked	CS_A	2pleas	cond_US_unple_123_masked_CS1	condtest_masked_4	9	14	400	0	300	300	0	0	271	46	0	1	0	0	0	1	blank2r.bmp	0	1	+	0	6	C2r.bmp	492	1	blank2r.bmp	786	1	HLST	786	1	blank2r.bmp	866	1	geiz	866	1	!	-1	1	!	-1	0	0	0	0	0	0	0	0	0	0	0	0	0	0	0	0	0	0	0	0	0	0	0	0	0	0	0
062018	14:10:15	5.0.12.0	46	notassociated	Rpleas_acq	Same	Rpleas	Amasked	CS_A	2pleas	cond_new_unple_456_masked_CS2	condtest_masked_4	9	15	400	0	300	300	0	0	561	46	0	1	0	0	0	1	blank2r.bmp	0	1	+	0	7	C3r.bmp	492	1	blank2r.bmp	786	1	DJMR	786	1	blank2r.bmp	866	2	mager	866	1	!	1227	1	!	-1	0	0	0	0	0	0	0	0	0	0	0	0	0	0	0	0	0	0	0	0	0	0	0	0	0	0	0
062018	14:10:15	5.0.12.0	46	notassociated	Rpleas_acq	Same	Rpleas	Amasked	CS_A	2pleas	cond_new_pleas_456_masked_CS2	condtest_masked_4	9	16	400	1	300	300	0	0	457	50	0	1	0	0	0	1	blank2r.bmp	0	1	+	0	8	C4r.bmp	492	1	blank2r.bmp	786	1	DJMR	786	1	blank2r.bmp	866	3	auge	866	1	!	1227	1	!	1351	0	0	0	0	0	0	0	0	0	0	0	0	0	0	0	0	0	0	0	0	0	0	0	0	0	0	0
062018	14:10:15	5.0.12.0	46	notassociated	Rpleas_acq	Same	Rpleas	Amasked	CS_A	2pleas	cond_US_pleas_123_masked_CS2	condtest_masked_4	9	17	400	0	300	300	0	0	526	46	0	0	0	0	0	1	blank2r.bmp	0	1	+	0	8	C4r.bmp	492	1	blank2r.bmp	786	1	DJMR	786	1	blank2r.bmp	866	3	erfinder	866	1	!	1227	1	!	-1	0	0	0	0	0	0	0	0	0	0	0	0	0	0	0	0	0	0	0	0	0	0	0	0	0	0	0
062018	14:10:15	5.0.12.0	46	notassociated	Rpleas_acq	Same	Rpleas	Amasked	CS_A	2pleas	cond_US_pleas_123_masked_CS1	condtest_masked_4	9	18	400	1	300	300	0	0	404	50	0	1	0	0	0	1	blank2r.bmp	0	1	+	0	2	B2r.bmp	492	1	blank2r.bmp	786	1	HLST	786	1	blank2r.bmp	866	1	jugend	866	1	!	1227	1	!	1298	0	0	0	0	0	0	0	0	0	0	0	0	0	0	0	0	0	0	0	0	0	0	0	0	0	0	0
062018	14:10:15	5.0.12.0	46	notassociated	Rpleas_acq	Same	Rpleas	Amasked	CS_A	2pleas	cond_US_unple_123_masked_CS2	condtest_masked_4	9	19	400	1	300	300	0	0	382	46	0	1	0	0	0	1	blank2r.bmp	0	1	+	0	6	C2r.bmp	492	1	blank2r.bmp	786	1	DJMR	786	1	blank2r.bmp	866	3	zwang	866	1	!	1227	1	!	1276	0	0	0	0	0	0	0	0	0	0	0	0	0	0	0	0	0	0	0	0	0	0	0	0	0	0	0
062018	14:10:15	5.0.12.0	46	notassociated	Rpleas_acq	Same	Rpleas	Amasked	CS_A	2pleas	cond_new_unple_456_masked_CS2	condtest_masked_4	9	20	400	0	300	300	0	0	499	46	0	1	0	0	0	1	blank2r.bmp	0	1	+	0	1	B1r.bmp	492	1	blank2r.bmp	786	1	DJMR	786	1	blank2r.bmp	866	1	weigern	866	1	!	1227	1	!	-1	0	0	0	0	0	0	0	0	0	0	0	0	0	0	0	0	0	0	0	0	0	0	0	0	0	0	0
062018	14:10:15	5.0.12.0	46	notassociated	Rpleas_acq	Same	Rpleas	Amasked	CS_A	2pleas	cond_new_unple_456_masked_CS1	condtest_masked_4	9	21	400	0	300	300	0	0	321	46	0	1	0	0	0	1	blank2r.bmp	0	1	+	0	3	B3r.bmp	492	1	blank2r.bmp	786	1	HLST	786	1	blank2r.bmp	866	3	wurm	866	1	!	-1	1	!	-1	0	0	0	0	0	0	0	0	0	0	0	0	0	0	0	0	0	0	0	0	0	0	0	0	0	0	0
062018	14:10:15	5.0.12.0	46	notassociated	Rpleas_acq	Same	Rpleas	Amasked	CS_A	2pleas	cond_US_pleas_123_masked_CS2	condtest_masked_4	9	22	400	0	300	300	0	0	488	50	0	1	0	0	0	1	blank2r.bmp	0	1	+	0	4	B4r.bmp	492	1	blank2r.bmp	786	1	DJMR	786	1	blank2r.bmp	866	3	erfinder	866	1	!	1227	1	!	-1	0	0	0	0	0	0	0	0	0	0	0	0	0	0	0	0	0	0	0	0	0	0	0	0	0	0	0
062018	14:10:15	5.0.12.0	46	notassociated	Rpleas_acq	Same	Rpleas	Amasked	CS_A	2pleas	cond_new_pleas_456_masked_CS2	condtest_masked_4	9	23	400	0	300	300	0	0	243	46	0	0	0	0	0	1	blank2r.bmp	0	1	+	0	7	C3r.bmp	492	1	blank2r.bmp	786	1	DJMR	786	1	blank2r.bmp	866	1	gewinn	866	1	!	-1	1	!	-1	0	0	0	0	0	0	0	0	0	0	0	0	0	0	0	0	0	0	0	0	0	0	0	0	0	0	0
062018	14:10:15	5.0.12.0	46	notassociated	Rpleas_acq	Same	Rpleas	Amasked	CS_A	2pleas	cond_US_pleas_123_masked_CS1	condtest_masked_4	9	24	400	0	300	300	0	0	556	50	0	1	0	0	0	1	blank2r.bmp	0	1	+	0	5	C1r.bmp	492	1	blank2r.bmp	786	1	HLST	786	1	blank2r.bmp	866	2	wein	866	1	!	1227	1	!	-1	0	0	0	0	0	0	0	0	0	0	0	0	0	0	0	0	0	0	0	0	0	0	0	0	0	0	0
062018	14:10:15	5.0.12.0	46	notassociated	Rpleas_acq	Same	Rpleas	Amasked	CS_A	2pleas	cond_US_unple_123_masked_CS1	condtest_masked_4	9	25	400	0	300	300	0	0	567	46	0	1	0	0	0	1	blank2r.bmp	0	1	+	0	8	C4r.bmp	492	1	blank2r.bmp	786	1	HLST	786	1	blank2r.bmp	866	2	armee	866	1	!	1227	1	!	-1	0	0	0	0	0	0	0	0	0	0	0	0	0	0	0	0	0	0	0	0	0	0	0	0	0	0	0
062018	14:10:15	5.0.12.0	46	notassociated	Rpleas_acq	Same	Rpleas	Amasked	CS_A	2pleas	cond_US_pleas_123_masked_CS1	condtest_masked_4	9	26	400	1	300	300	0	0	405	46	0	0	0	0	0	1	blank2r.bmp	0	1	+	0	6	C2r.bmp	492	1	blank2r.bmp	786	1	HLST	786	1	blank2r.bmp	866	3	erfinder	866	1	!	1227	1	!	1299	0	0	0	0	0	0	0	0	0	0	0	0	0	0	0	0	0	0	0	0	0	0	0	0	0	0	0
062018	14:10:15	5.0.12.0	46	notassociated	Rpleas_acq	Same	Rpleas	Amasked	CS_A	2pleas	cond_new_pleas_456_masked_CS1	condtest_masked_4	9	27	400	1	300	300	0	0	399	50	0	1	0	0	0	1	blank2r.bmp	0	1	+	0	5	C1r.bmp	492	1	blank2r.bmp	786	1	HLST	786	1	blank2r.bmp	866	2	erinnerung	866	1	!	1227	1	!	1293	0	0	0	0	0	0	0	0	0	0	0	0	0	0	0	0	0	0	0	0	0	0	0	0	0	0	0
062018	14:10:15	5.0.12.0	46	notassociated	Rpleas_acq	Same	Rpleas	Amasked	CS_A	2pleas	cond_new_pleas_456_masked_CS2	condtest_masked_4	9	28	400	0	300	300	0	0	474	50	0	1	0	0	0	1	blank2r.bmp	0	1	+	0	2	B2r.bmp	492	1	blank2r.bmp	786	1	DJMR	786	1	blank2r.bmp	866	3	auge	866	1	!	1227	1	!	-1	0	0	0	0	0	0	0	0	0	0	0	0	0	0	0	0	0	0	0	0	0	0	0	0	0	0	0
062018	14:10:15	5.0.12.0	46	notassociated	Rpleas_acq	Same	Rpleas	Amasked	CS_A	2pleas	cond_US_unple_123_masked_CS2	condtest_masked_4	9	29	400	1	300	300	0	0	402	50	0	0	0	0	0	1	blank2r.bmp	0	1	+	0	4	B4r.bmp	492	1	blank2r.bmp	786	1	DJMR	786	1	blank2r.bmp	866	1	geiz	866	1	!	1227	1	!	1296	0	0	0	0	0	0	0	0	0	0	0	0	0	0	0	0	0	0	0	0	0	0	0	0	0	0	0
062018	14:10:15	5.0.12.0	46	notassociated	Rpleas_acq	Same	Rpleas	Amasked	CS_A	2pleas	cond_new_pleas_456_masked_CS1	condtest_masked_4	9	30	400	0	300	300	0	0	476	50	0	1	0	0	0	1	blank2r.bmp	0	1	+	0	1	B1r.bmp	492	1	blank2r.bmp	786	1	HLST	786	1	blank2r.bmp	866	3	auge	866	1	!	1227	1	!	-1	0	0	0	0	0	0	0	0	0	0	0	0	0	0	0	0	0	0	0	0	0	0	0	0	0	0	0
062018	14:10:15	5.0.12.0	46	notassociated	Rpleas_acq	Same	Rpleas	Amasked	CS_A	2pleas	cond_new_unple_456_masked_CS1	condtest_masked_4	9	31	400	0	300	300	0	0	308	50	0	0	0	0	0	1	blank2r.bmp	0	1	+	0	7	C3r.bmp	492	1	blank2r.bmp	786	1	HLST	786	1	blank2r.bmp	866	2	mager	866	1	!	-1	1	!	-1	0	0	0	0	0	0	0	0	0	0	0	0	0	0	0	0	0	0	0	0	0	0	0	0	0	0	0
062018	14:10:15	5.0.12.0	46	notassociated	Rpleas_acq	Same	Rpleas	Amasked	CS_A	2pleas	cond_US_pleas_123_masked_CS1	condtest_masked_4	9	32	400	0	300	300	0	0	507	50	0	1	0	0	0	1	blank2r.bmp	0	1	+	0	3	B3r.bmp	492	1	blank2r.bmp	786	1	HLST	786	1	blank2r.bmp	866	1	jugend	866	1	!	1227	1	!	-1	0	0	0	0	0	0	0	0	0	0	0	0	0	0	0	0	0	0	0	0	0	0	0	0	0	0	0
062018	14:10:15	5.0.12.0	46	notassociated	Rpleas_acq	Same	Rpleas	Amasked	CS_A	2pleas	cond_US_unple_123_masked_CS1	condtest_masked_4	9	33	400	1	300	300	0	0	427	50	0	0	0	0	0	1	blank2r.bmp	0	1	+	0	3	B3r.bmp	492	1	blank2r.bmp	786	1	HLST	786	1	blank2r.bmp	866	2	armee	866	1	!	1227	1	!	1321	0	0	0	0	0	0	0	0	0	0	0	0	0	0	0	0	0	0	0	0	0	0	0	0	0	0	0
062018	14:10:15	5.0.12.0	46	notassociated	Rpleas_acq	Same	Rpleas	Amasked	CS_A	2pleas	cond_US_unple_123_masked_CS1	condtest_masked_4	9	34	400	1	300	300	0	0	396	46	0	1	0	0	0	1	blank2r.bmp	0	1	+	0	6	C2r.bmp	492	1	blank2r.bmp	786	1	HLST	786	1	blank2r.bmp	866	3	zwang	866	1	!	1227	1	!	1289	0	0	0	0	0	0	0	0	0	0	0	0	0	0	0	0	0	0	0	0	0	0	0	0	0	0	0
062018	14:10:15	5.0.12.0	46	notassociated	Rpleas_acq	Same	Rpleas	Amasked	CS_A	2pleas	cond_US_unple_123_masked_CS2	condtest_masked_4	9	35	400	0	300	300	0	0	531	46	0	1	0	0	0	1	blank2r.bmp	0	1	+	0	4	B4r.bmp	492	1	blank2r.bmp	786	1	DJMR	786	1	blank2r.bmp	866	1	geiz	866	1	!	1227	1	!	-1	0	0	0	0	0	0	0	0	0	0	0	0	0	0	0	0	0	0	0	0	0	0	0	0	0	0	0
062018	14:10:15	5.0.12.0	46	notassociated	Rpleas_acq	Same	Rpleas	Amasked	CS_A	2pleas	cond_new_pleas_456_masked_CS2	condtest_masked_4	9	36	400	0	300	300	0	0	520	50	0	1	0	0	0	1	blank2r.bmp	0	1	+	0	1	B1r.bmp	492	1	blank2r.bmp	786	1	DJMR	786	1	blank2r.bmp	866	2	erinnerung	866	1	!	1227	1	!	-1	0	0	0	0	0	0	0	0	0	0	0	0	0	0	0	0	0	0	0	0	0	0	0	0	0	0	0
062018	14:10:15	5.0.12.0	46	notassociated	Rpleas_acq	Same	Rpleas	Amasked	CS_A	2pleas	cond_US_unple_123_masked_CS1	condtest_masked_4	9	37	400	0	300	300	0	0	155	46	0	1	0	0	0	1	blank2r.bmp	0	1	+	0	7	C3r.bmp	492	1	blank2r.bmp	786	1	HLST	786	1	blank2r.bmp	866	3	zwang	866	1	!	-1	1	!	-1	0	0	0	0	0	0	0	0	0	0	0	0	0	0	0	0	0	0	0	0	0	0	0	0	0	0	0
062018	14:10:15	5.0.12.0	46	notassociated	Rpleas_acq	Same	Rpleas	Amasked	CS_A	2pleas	cond_US_pleas_123_masked_CS1	condtest_masked_4	9	38	400	0	300	300	0	0	309	50	0	1	0	0	0	1	blank2r.bmp	0	1	+	0	2	B2r.bmp	492	1	blank2r.bmp	786	1	HLST	786	1	blank2r.bmp	866	2	wein	866	1	!	-1	1	!	-1	0	0	0	0	0	0	0	0	0	0	0	0	0	0	0	0	0	0	0	0	0	0	0	0	0	0	0
062018	14:10:15	5.0.12.0	46	notassociated	Rpleas_acq	Same	Rpleas	Amasked	CS_A	2pleas	cond_new_pleas_456_masked_CS1	condtest_masked_4	9	39	400	1	300	300	0	0	428	46	0	0	0	0	0	1	blank2r.bmp	0	1	+	0	5	C1r.bmp	492	1	blank2r.bmp	786	1	HLST	786	1	blank2r.bmp	866	1	gewinn	866	1	!	1227	1	!	1322	0	0	0	0	0	0	0	0	0	0	0	0	0	0	0	0	0	0	0	0	0	0	0	0	0	0	0
062018	14:10:15	5.0.12.0	46	notassociated	Rpleas_acq	Same	Rpleas	Amasked	CS_A	2pleas	cond_US_unple_123_masked_CS2	condtest_masked_4	9	40	400	0	300	300	0	0	585	46	0	1	0	0	0	1	blank2r.bmp	0	1	+	0	8	C4r.bmp	492	1	blank2r.bmp	786	1	DJMR	786	1	blank2r.bmp	866	2	armee	866	1	!	1227	1	!	-1	0	0	0	0	0	0	0	0	0	0	0	0	0	0	0	0	0	0	0	0	0	0	0	0	0	0	0
062018	14:10:15	5.0.12.0	46	notassociated	Rpleas_acq	Same	Rpleas	Amasked	CS_A	2pleas	cond_new_pleas_456_masked_CS1	condtest_masked_4	9	41	400	1	300	300	0	0	426	50	0	1	0	0	0	1	blank2r.bmp	0	1	+	0	2	B2r.bmp	492	1	blank2r.bmp	786	1	HLST	786	1	blank2r.bmp	866	2	erinnerung	866	1	!	1227	1	!	1319	0	0	0	0	0	0	0	0	0	0	0	0	0	0	0	0	0	0	0	0	0	0	0	0	0	0	0
062018	14:10:15	5.0.12.0	46	notassociated	Rpleas_acq	Same	Rpleas	Amasked	CS_A	2pleas	cond_new_unple_456_masked_CS2	condtest_masked_4	9	42	400	1	300	300	0	0	425	50	0	0	0	0	0	1	blank2r.bmp	0	1	+	0	7	C3r.bmp	492	1	blank2r.bmp	786	1	DJMR	786	1	blank2r.bmp	866	3	wurm	866	1	!	1227	1	!	1319	0	0	0	0	0	0	0	0	0	0	0	0	0	0	0	0	0	0	0	0	0	0	0	0	0	0	0
062018	14:10:15	5.0.12.0	46	notassociated	Rpleas_acq	Same	Rpleas	Amasked	CS_A	2pleas	cond_US_pleas_123_masked_CS2	condtest_masked_4	9	43	400	1	300	300	0	0	422	46	0	0	0	0	0	1	blank2r.bmp	0	1	+	0	1	B1r.bmp	492	1	blank2r.bmp	786	1	DJMR	786	1	blank2r.bmp	866	3	erfinder	866	1	!	1227	1	!	1316	0	0	0	0	0	0	0	0	0	0	0	0	0	0	0	0	0	0	0	0	0	0	0	0	0	0	0
062018	14:10:15	5.0.12.0	46	notassociated	Rpleas_acq	Same	Rpleas	Amasked	CS_A	2pleas	cond_US_pleas_123_masked_CS2	condtest_masked_4	9	44	400	1	300	300	0	0	454	46	0	0	0	0	0	1	blank2r.bmp	0	1	+	0	8	C4r.bmp	492	1	blank2r.bmp	786	1	DJMR	786	1	blank2r.bmp	866	1	jugend	866	1	!	1227	1	!	1348	0	0	0	0	0	0	0	0	0	0	0	0	0	0	0	0	0	0	0	0	0	0	0	0	0	0	0
062018	14:10:15	5.0.12.0	46	notassociated	Rpleas_acq	Same	Rpleas	Amasked	CS_A	2pleas	cond_new_pleas_456_masked_CS2	condtest_masked_4	9	45	400	1	300	300	0	0	363	50	0	1	0	0	0	1	blank2r.bmp	0	1	+	0	3	B3r.bmp	492	1	blank2r.bmp	786	1	DJMR	786	1	blank2r.bmp	866	3	auge	866	1	!	1227	1	!	1257	0	0	0	0	0	0	0	0	0	0	0	0	0	0	0	0	0	0	0	0	0	0	0	0	0	0	0
062018	14:10:15	5.0.12.0	46	notassociated	Rpleas_acq	Same	Rpleas	Amasked	CS_A	2pleas	cond_new_pleas_456_masked_CS2	condtest_masked_4	9	46	400	1	300	300	0	0	462	50	0	1	0	0	0	1	blank2r.bmp	0	1	+	0	6	C2r.bmp	492	1	blank2r.bmp	786	1	DJMR	786	1	blank2r.bmp	866	1	gewinn	866	1	!	1227	1	!	1355	0	0	0	0	0	0	0	0	0	0	0	0	0	0	0	0	0	0	0	0	0	0	0	0	0	0	0
062018	14:10:15	5.0.12.0	46	notassociated	Rpleas_acq	Same	Rpleas	Amasked	CS_A	2pleas	cond_new_unple_456_masked_CS1	condtest_masked_4	9	47	400	1	300	300	0	0	419	46	0	1	0	0	0	1	blank2r.bmp	0	1	+	0	5	C1r.bmp	492	1	blank2r.bmp	786	1	HLST	786	1	blank2r.bmp	866	1	weigern	866	1	!	1227	1	!	1313	0	0	0	0	0	0	0	0	0	0	0	0	0	0	0	0	0	0	0	0	0	0	0	0	0	0	0
062018	14:10:15	5.0.12.0	46	notassociated	Rpleas_acq	Same	Rpleas	Amasked	CS_A	2pleas	cond_US_pleas_123_masked_CS1	condtest_masked_4	9	48	400	1	300	300	0	0	435	50	0	1	0	0	0	1	blank2r.bmp	0	1	+	0	4	B4r.bmp	492	1	blank2r.bmp	786	1	HLST	786	1	blank2r.bmp	866	2	wein	866	1	!	1227	1	!	1328	0	0	0	0	0	0	0	0	0	0	0	0	0	0	0	0	0	0	0	0	0	0	0	0	0	0	0
062018	14:10:15	5.0.12.0	46	notassociated	Rpleas_acq	Same	Rpleas	Amasked	CS_A	2pleas	cond_US_pleas_456_masked_CS1	condtest_masked_5	10	1	400	1	300	300	0	0	410	50	0	1	0	0	0	1	blank2r.bmp	0	1	+	0	8	C4r.bmp	492	1	blank2r.bmp	786	1	HLST	786	1	blank2r.bmp	866	1	mama	866	1	!	1227	1	!	1304	0	0	0	0	0	0	0	0	0	0	0	0	0	0	0	0	0	0	0	0	0	0	0	0	0	0	0
062018	14:10:15	5.0.12.0	46	notassociated	Rpleas_acq	Same	Rpleas	Amasked	CS_A	2pleas	cond_US_pleas_456_masked_CS1	condtest_masked_5	10	2	400	1	300	300	0	0	357	46	0	0	0	0	0	1	blank2r.bmp	0	1	+	0	2	B2r.bmp	492	1	blank2r.bmp	786	1	HLST	786	1	blank2r.bmp	866	2	frieden	866	1	!	1227	1	!	1251	0	0	0	0	0	0	0	0	0	0	0	0	0	0	0	0	0	0	0	0	0	0	0	0	0	0	0
062018	14:10:15	5.0.12.0	46	notassociated	Rpleas_acq	Same	Rpleas	Amasked	CS_A	2pleas	cond_US_unple_456_masked_CS1	condtest_masked_5	10	3	400	1	300	300	0	0	423	50	0	0	0	0	0	1	blank2r.bmp	0	1	+	0	1	B1r.bmp	492	1	blank2r.bmp	786	1	HLST	786	1	blank2r.bmp	866	1	wunde	866	1	!	1227	1	!	1317	0	0	0	0	0	0	0	0	0	0	0	0	0	0	0	0	0	0	0	0	0	0	0	0	0	0	0
062018	14:10:15	5.0.12.0	46	notassociated	Rpleas_acq	Same	Rpleas	Amasked	CS_A	2pleas	cond_new_pleas_123_masked_CS2	condtest_masked_5	10	4	400	0	300	300	0	0	468	50	0	1	0	0	0	1	blank2r.bmp	0	1	+	0	5	C1r.bmp	492	1	blank2r.bmp	786	1	DJMR	786	1	blank2r.bmp	866	3	energie	866	1	!	1227	1	!	-1	0	0	0	0	0	0	0	0	0	0	0	0	0	0	0	0	0	0	0	0	0	0	0	0	0	0	0
062018	14:10:15	5.0.12.0	46	notassociated	Rpleas_acq	Same	Rpleas	Amasked	CS_A	2pleas	cond_US_pleas_456_masked_CS2	condtest_masked_5	10	5	400	1	300	300	0	0	364	50	0	1	0	0	0	1	blank2r.bmp	0	1	+	0	6	C2r.bmp	492	1	blank2r.bmp	786	1	DJMR	786	1	blank2r.bmp	866	3	meer	866	1	!	1227	1	!	1258	0	0	0	0	0	0	0	0	0	0	0	0	0	0	0	0	0	0	0	0	0	0	0	0	0	0	0
062018	14:10:15	5.0.12.0	46	notassociated	Rpleas_acq	Same	Rpleas	Amasked	CS_A	2pleas	cond_new_unple_123_masked_CS1	condtest_masked_5	10	6	400	1	300	300	0	0	414	50	0	0	0	0	0	1	blank2r.bmp	0	1	+	0	3	B3r.bmp	492	1	blank2r.bmp	786	1	HLST	786	1	blank2r.bmp	866	1	umweg	866	1	!	1227	1	!	1308	0	0	0	0	0	0	0	0	0	0	0	0	0	0	0	0	0	0	0	0	0	0	0	0	0	0	0
062018	14:10:15	5.0.12.0	46	notassociated	Rpleas_acq	Same	Rpleas	Amasked	CS_A	2pleas	cond_new_pleas_123_masked_CS1	condtest_masked_5	10	7	400	1	300	300	0	0	395	50	0	1	0	0	0	1	blank2r.bmp	0	1	+	0	7	C3r.bmp	492	1	blank2r.bmp	786	1	HLST	786	1	blank2r.bmp	866	2	fair	866	1	!	1227	1	!	1289	0	0	0	0	0	0	0	0	0	0	0	0	0	0	0	0	0	0	0	0	0	0	0	0	0	0	0
062018	14:10:15	5.0.12.0	46	notassociated	Rpleas_acq	Same	Rpleas	Amasked	CS_A	2pleas	cond_new_unple_123_masked_CS1	condtest_masked_5	10	8	400	1	300	300	0	0	355	46	0	1	0	0	0	1	blank2r.bmp	0	1	+	0	4	B4r.bmp	492	1	blank2r.bmp	786	1	HLST	786	1	blank2r.bmp	866	3	wunde	866	1	!	1227	1	!	1249	0	0	0	0	0	0	0	0	0	0	0	0	0	0	0	0	0	0	0	0	0	0	0	0	0	0	0
062018	14:10:15	5.0.12.0	46	notassociated	Rpleas_acq	Same	Rpleas	Amasked	CS_A	2pleas	cond_US_pleas_456_masked_CS2	condtest_masked_5	10	9	400	1	300	300	0	0	437	46	0	0	0	0	0	1	blank2r.bmp	0	1	+	0	7	C3r.bmp	492	1	blank2r.bmp	786	1	DJMR	786	1	blank2r.bmp	866	2	frieden	866	1	!	1227	1	!	1331	0	0	0	0	0	0	0	0	0	0	0	0	0	0	0	0	0	0	0	0	0	0	0	0	0	0	0
062018	14:10:15	5.0.12.0	46	notassociated	Rpleas_acq	Same	Rpleas	Amasked	CS_A	2pleas	cond_US_pleas_456_masked_CS1	condtest_masked_5	10	10	400	1	300	300	0	0	373	50	0	1	0	0	0	1	blank2r.bmp	0	1	+	0	8	C4r.bmp	492	1	blank2r.bmp	786	1	HLST	786	1	blank2r.bmp	866	1	mama	866	1	!	1227	1	!	1267	0	0	0	0	0	0	0	0	0	0	0	0	0	0	0	0	0	0	0	0	0	0	0	0	0	0	0
