date	time	build	subject	expressions.associated	expressions.LRpleas_acq	expressions.SameOppo	expressions.condition_Lpleas	expressions.ABmasked	expressions.conditionCS_A	expressions.condition_1pleas	trialcode	blockcode	blocknum	trialnum	windowcenter	inwindow	pretrialpause	posttrialpause	trialduration	trialtimeout	latency	response	expressions.correctedscore	correct	values.vis_performance	values.vis_rating_sum	values.vis_rating_mean	stimulusnumber1	stimulusitem1	stimulusonset1	stimulusnumber2	stimulusitem2	stimulusonset2	stimulusnumber3	stimulusitem3	stimulusonset3	stimulusnumber4	stimulusitem4	stimulusonset4	stimulusnumber5	stimulusitem5	stimulusonset5	stimulusnumber6	stimulusitem6	stimulusonset6	stimulusnumber7	stimulusitem7	stimulusonset7	stimulusnumber8	stimulusitem8	stimulusonset8	stimulusnumber9	stimulusitem9	stimulusonset9	stimulusnumber10	stimulusitem10	stimulusonset10	stimulusnumber11	stimulusitem11	stimulusonset11	stimulusnumber12	stimulusitem12	stimulusonset12	stimulusnumber13	stimulusitem13	stimulusonset13	stimulusnumber14	stimulusitem14	stimulusonset14	stimulusnumber15	stimulusitem15	stimulusonset15	stimulusnumber16	stimulusitem16	stimulusonset16	stimulusnumber17	stimulusitem17	stimulusonset17	stimulusnumber18	stimulusitem18	stimulusonset18
062618	16:40:44	5.0.12.0	108	associated	Rpleas_acq	Same	Rpleas	Amasked	CS_A	2pleas	acq_pleas_masked	acq1_masked	1	1	0	0	300	300	0	0	652	46	0	0	0	0	0	1	blank2r.bmp	0	1	+	0	8	C4r.bmp	492	1	blank2r.bmp	786	1	DJMR	786	1	blank2r.bmp	866	5	jugend	866	1	FEHLER	1546	0	0	0	0	0	0	0	0	0	0	0	0	0	0	0	0	0	0	0	0	0	0	0	0	0	0	0	0	0	0
062618	16:40:44	5.0.12.0	108	associated	Rpleas_acq	Same	Rpleas	Amasked	CS_A	2pleas	acq_unple_masked	acq1_masked	1	2	0	0	300	300	0	0	478	46	0	1	0	0	0	1	blank2r.bmp	0	1	+	0	7	C3r.bmp	492	1	blank2r.bmp	786	1	HLST	786	1	blank2r.bmp	866	1	armee	866	0	0	0	0	0	0	0	0	0	0	0	0	0	0	0	0	0	0	0	0	0	0	0	0	0	0	0	0	0	0	0	0	0
062618	16:40:44	5.0.12.0	108	associated	Rpleas_acq	Same	Rpleas	Amasked	CS_A	2pleas	acq_pleas_masked	acq1_masked	1	3	0	0	300	300	0	0	491	46	0	0	0	0	0	1	blank2r.bmp	0	1	+	0	6	C2r.bmp	492	1	blank2r.bmp	786	1	DJMR	786	1	blank2r.bmp	866	6	erfinder	866	1	FEHLER	1385	0	0	0	0	0	0	0	0	0	0	0	0	0	0	0	0	0	0	0	0	0	0	0	0	0	0	0	0	0	0
062618	16:40:44	5.0.12.0	108	associated	Rpleas_acq	Same	Rpleas	Amasked	CS_A	2pleas	acq_pleas_masked	acq1_masked	1	4	0	0	300	300	0	0	434	50	0	1	0	0	0	1	blank2r.bmp	0	1	+	0	4	B4r.bmp	492	1	blank2r.bmp	786	1	DJMR	786	1	blank2r.bmp	866	4	mama	866	0	0	0	0	0	0	0	0	0	0	0	0	0	0	0	0	0	0	0	0	0	0	0	0	0	0	0	0	0	0	0	0	0
062618	16:40:44	5.0.12.0	108	associated	Rpleas_acq	Same	Rpleas	Amasked	CS_A	2pleas	acq_unple_masked	acq1_masked	1	5	0	0	300	300	0	0	406	46	0	1	0	0	0	1	blank2r.bmp	0	1	+	0	1	B1r.bmp	492	1	blank2r.bmp	786	1	HLST	786	1	blank2r.bmp	866	4	zwang	866	0	0	0	0	0	0	0	0	0	0	0	0	0	0	0	0	0	0	0	0	0	0	0	0	0	0	0	0	0	0	0	0	0
062618	16:40:44	5.0.12.0	108	associated	Rpleas_acq	Same	Rpleas	Amasked	CS_A	2pleas	acq_unple_masked	acq1_masked	1	6	0	0	300	300	0	0	621	46	0	1	0	0	0	1	blank2r.bmp	0	1	+	0	2	B2r.bmp	492	1	blank2r.bmp	786	1	HLST	786	1	blank2r.bmp	866	2	wunde	866	0	0	0	0	0	0	0	0	0	0	0	0	0	0	0	0	0	0	0	0	0	0	0	0	0	0	0	0	0	0	0	0	0
062618	16:40:44	5.0.12.0	108	associated	Rpleas_acq	Same	Rpleas	Amasked	CS_A	2pleas	acq_unple_masked	acq1_masked	1	7	0	0	300	300	0	0	673	46	0	1	0	0	0	1	blank2r.bmp	0	1	+	0	3	B3r.bmp	492	1	blank2r.bmp	786	1	HLST	786	1	blank2r.bmp	866	6	geiz	866	0	0	0	0	0	0	0	0	0	0	0	0	0	0	0	0	0	0	0	0	0	0	0	0	0	0	0	0	0	0	0	0	0
062618	16:40:44	5.0.12.0	108	associated	Rpleas_acq	Same	Rpleas	Amasked	CS_A	2pleas	acq_pleas_masked	acq1_masked	1	8	0	0	300	300	0	0	697	46	0	0	0	0	0	1	blank2r.bmp	0	1	+	0	5	C1r.bmp	492	1	blank2r.bmp	786	1	DJMR	786	1	blank2r.bmp	866	1	wein	866	1	FEHLER	1591	0	0	0	0	0	0	0	0	0	0	0	0	0	0	0	0	0	0	0	0	0	0	0	0	0	0	0	0	0	0
062618	16:40:44	5.0.12.0	108	associated	Rpleas_acq	Same	Rpleas	Amasked	CS_A	2pleas	acq_pleas_masked	acq1_masked	1	9	0	0	300	300	0	0	419	46	0	0	0	0	0	1	blank2r.bmp	0	1	+	0	5	C1r.bmp	492	1	blank2r.bmp	786	1	DJMR	786	1	blank2r.bmp	866	3	frieden	866	1	FEHLER	1313	0	0	0	0	0	0	0	0	0	0	0	0	0	0	0	0	0	0	0	0	0	0	0	0	0	0	0	0	0	0
062618	16:40:44	5.0.12.0	108	associated	Rpleas_acq	Same	Rpleas	Amasked	CS_A	2pleas	acq_unple_masked	acq1_masked	1	10	0	0	300	300	0	0	453	50	0	0	0	0	0	1	blank2r.bmp	0	1	+	0	8	C4r.bmp	492	1	blank2r.bmp	786	1	HLST	786	1	blank2r.bmp	866	5	gegner	866	1	FEHLER	1347	0	0	0	0	0	0	0	0	0	0	0	0	0	0	0	0	0	0	0	0	0	0	0	0	0	0	0	0	0	0
062618	16:40:44	5.0.12.0	108	associated	Rpleas_acq	Same	Rpleas	Amasked	CS_A	2pleas	acq_pleas_masked	acq1_masked	1	11	0	0	300	300	0	0	1155	50	0	1	0	0	0	1	blank2r.bmp	0	1	+	0	6	C2r.bmp	492	1	blank2r.bmp	786	1	DJMR	786	1	blank2r.bmp	866	2	meer	866	0	0	0	0	0	0	0	0	0	0	0	0	0	0	0	0	0	0	0	0	0	0	0	0	0	0	0	0	0	0	0	0	0
062618	16:40:44	5.0.12.0	108	associated	Rpleas_acq	Same	Rpleas	Amasked	CS_A	2pleas	acq_pleas_masked	acq1_masked	1	12	0	0	300	300	0	0	741	50	0	1	0	0	0	1	blank2r.bmp	0	1	+	0	2	B2r.bmp	492	1	blank2r.bmp	786	1	DJMR	786	1	blank2r.bmp	866	3	frieden	866	0	0	0	0	0	0	0	0	0	0	0	0	0	0	0	0	0	0	0	0	0	0	0	0	0	0	0	0	0	0	0	0	0
062618	16:40:44	5.0.12.0	108	associated	Rpleas_acq	Same	Rpleas	Amasked	CS_A	2pleas	acq_unple_masked	acq1_masked	1	13	0	0	300	300	0	0	567	50	0	0	0	0	0	1	blank2r.bmp	0	1	+	0	4	B4r.bmp	492	1	blank2r.bmp	786	1	HLST	786	1	blank2r.bmp	866	3	narr	866	1	FEHLER	1461	0	0	0	0	0	0	0	0	0	0	0	0	0	0	0	0	0	0	0	0	0	0	0	0	0	0	0	0	0	0
062618	16:40:44	5.0.12.0	108	associated	Rpleas_acq	Same	Rpleas	Amasked	CS_A	2pleas	acq_unple_masked	acq1_masked	1	14	0	0	300	300	0	0	559	46	0	1	0	0	0	1	blank2r.bmp	0	1	+	0	3	B3r.bmp	492	1	blank2r.bmp	786	1	HLST	786	1	blank2r.bmp	866	6	geiz	866	0	0	0	0	0	0	0	0	0	0	0	0	0	0	0	0	0	0	0	0	0	0	0	0	0	0	0	0	0	0	0	0	0
062618	16:40:44	5.0.12.0	108	associated	Rpleas_acq	Same	Rpleas	Amasked	CS_A	2pleas	acq_unple_masked	acq1_masked	1	15	0	0	300	300	0	0	526	46	0	1	0	0	0	1	blank2r.bmp	0	1	+	0	1	B1r.bmp	492	1	blank2r.bmp	786	1	HLST	786	1	blank2r.bmp	866	5	gegner	866	0	0	0	0	0	0	0	0	0	0	0	0	0	0	0	0	0	0	0	0	0	0	0	0	0	0	0	0	0	0	0	0	0
062618	16:40:44	5.0.12.0	108	associated	Rpleas_acq	Same	Rpleas	Amasked	CS_A	2pleas	acq_pleas_masked	acq1_masked	1	16	0	0	300	300	0	0	421	50	0	1	0	0	0	1	blank2r.bmp	0	1	+	0	7	C3r.bmp	492	1	blank2r.bmp	786	1	DJMR	786	1	blank2r.bmp	866	4	mama	866	0	0	0	0	0	0	0	0	0	0	0	0	0	0	0	0	0	0	0	0	0	0	0	0	0	0	0	0	0	0	0	0	0
062618	16:40:44	5.0.12.0	108	associated	Rpleas_acq	Same	Rpleas	Amasked	CS_A	2pleas	acq_unple_masked	acq1_masked	1	17	0	0	300	300	0	0	534	46	0	1	0	0	0	1	blank2r.bmp	0	1	+	0	6	C2r.bmp	492	1	blank2r.bmp	786	1	HLST	786	1	blank2r.bmp	866	3	narr	866	0	0	0	0	0	0	0	0	0	0	0	0	0	0	0	0	0	0	0	0	0	0	0	0	0	0	0	0	0	0	0	0	0
062618	16:40:44	5.0.12.0	108	associated	Rpleas_acq	Same	Rpleas	Amasked	CS_A	2pleas	acq_unple_masked	acq1_masked	1	18	0	0	300	300	0	0	533	46	0	1	0	0	0	1	blank2r.bmp	0	1	+	0	4	B4r.bmp	492	1	blank2r.bmp	786	1	HLST	786	1	blank2r.bmp	866	2	wunde	866	0	0	0	0	0	0	0	0	0	0	0	0	0	0	0	0	0	0	0	0	0	0	0	0	0	0	0	0	0	0	0	0	0
062618	16:40:44	5.0.12.0	108	associated	Rpleas_acq	Same	Rpleas	Amasked	CS_A	2pleas	acq_pleas_masked	acq1_masked	1	19	0	0	300	300	0	0	591	46	0	0	0	0	0	1	blank2r.bmp	0	1	+	0	8	C4r.bmp	492	1	blank2r.bmp	786	1	DJMR	786	1	blank2r.bmp	866	5	jugend	866	1	FEHLER	1485	0	0	0	0	0	0	0	0	0	0	0	0	0	0	0	0	0	0	0	0	0	0	0	0	0	0	0	0	0	0
062618	16:40:44	5.0.12.0	108	associated	Rpleas_acq	Same	Rpleas	Amasked	CS_A	2pleas	acq_pleas_masked	acq1_masked	1	20	0	0	300	300	0	0	572	50	0	1	0	0	0	1	blank2r.bmp	0	1	+	0	3	B3r.bmp	492	1	blank2r.bmp	786	1	DJMR	786	1	blank2r.bmp	866	2	meer	866	0	0	0	0	0	0	0	0	0	0	0	0	0	0	0	0	0	0	0	0	0	0	0	0	0	0	0	0	0	0	0	0	0
062618	16:40:44	5.0.12.0	108	associated	Rpleas_acq	Same	Rpleas	Amasked	CS_A	2pleas	acq_pleas_masked	acq1_masked	1	21	0	0	300	300	0	0	539	46	0	0	0	0	0	1	blank2r.bmp	0	1	+	0	2	B2r.bmp	492	1	blank2r.bmp	786	1	DJMR	786	1	blank2r.bmp	866	1	wein	866	1	FEHLER	1433	0	0	0	0	0	0	0	0	0	0	0	0	0	0	0	0	0	0	0	0	0	0	0	0	0	0	0	0	0	0
062618	16:40:44	5.0.12.0	108	associated	Rpleas_acq	Same	Rpleas	Amasked	CS_A	2pleas	acq_pleas_masked	acq1_masked	1	22	0	0	300	300	0	0	581	50	0	1	0	0	0	1	blank2r.bmp	0	1	+	0	1	B1r.bmp	492	1	blank2r.bmp	786	1	DJMR	786	1	blank2r.bmp	866	6	erfinder	866	0	0	0	0	0	0	0	0	0	0	0	0	0	0	0	0	0	0	0	0	0	0	0	0	0	0	0	0	0	0	0	0	0
062618	16:40:44	5.0.12.0	108	associated	Rpleas_acq	Same	Rpleas	Amasked	CS_A	2pleas	acq_unple_masked	acq1_masked	1	23	0	0	300	300	0	0	546	46	0	1	0	0	0	1	blank2r.bmp	0	1	+	0	5	C1r.bmp	492	1	blank2r.bmp	786	1	HLST	786	1	blank2r.bmp	866	1	armee	866	0	0	0	0	0	0	0	0	0	0	0	0	0	0	0	0	0	0	0	0	0	0	0	0	0	0	0	0	0	0	0	0	0
062618	16:40:44	5.0.12.0	108	associated	Rpleas_acq	Same	Rpleas	Amasked	CS_A	2pleas	acq_unple_masked	acq1_masked	1	24	0	0	300	300	0	0	523	46	0	1	0	0	0	1	blank2r.bmp	0	1	+	0	7	C3r.bmp	492	1	blank2r.bmp	786	1	HLST	786	1	blank2r.bmp	866	4	zwang	866	0	0	0	0	0	0	0	0	0	0	0	0	0	0	0	0	0	0	0	0	0	0	0	0	0	0	0	0	0	0	0	0	0
062618	16:40:44	5.0.12.0	108	associated	Rpleas_acq	Same	Rpleas	Amasked	CS_A	2pleas	acq_pleas_masked	acq2_masked	2	1	480	0	300	300	0	0	826	50	0	1	0	0	0	1	blank2r.bmp	0	1	+	0	1	B1r.bmp	492	1	blank2r.bmp	786	1	DJMR	786	1	blank2r.bmp	866	2	meer	866	1	!	1307	1	!	-1	0	0	0	0	0	0	0	0	0	0	0	0	0	0	0	0	0	0	0	0	0	0	0	0	0	0	0
062618	16:40:44	5.0.12.0	108	associated	Rpleas_acq	Same	Rpleas	Amasked	CS_A	2pleas	acq_pleas_masked	acq2_masked	2	2	480	0	300	300	0	0	587	50	0	1	0	0	0	1	blank2r.bmp	0	1	+	0	7	C3r.bmp	492	1	blank2r.bmp	786	1	DJMR	786	1	blank2r.bmp	866	3	frieden	866	1	!	1307	1	!	-1	0	0	0	0	0	0	0	0	0	0	0	0	0	0	0	0	0	0	0	0	0	0	0	0	0	0	0
062618	16:40:44	5.0.12.0	108	associated	Rpleas_acq	Same	Rpleas	Amasked	CS_A	2pleas	acq_unple_masked	acq2_masked	2	3	480	0	300	300	0	0	548	46	0	1	0	0	0	1	blank2r.bmp	0	1	+	0	8	C4r.bmp	492	1	blank2r.bmp	786	1	HLST	786	1	blank2r.bmp	866	6	geiz	866	1	!	1307	1	!	-1	0	0	0	0	0	0	0	0	0	0	0	0	0	0	0	0	0	0	0	0	0	0	0	0	0	0	0
062618	16:40:44	5.0.12.0	108	associated	Rpleas_acq	Same	Rpleas	Amasked	CS_A	2pleas	acq_unple_masked	acq2_masked	2	4	480	0	300	300	0	0	636	46	0	1	0	0	0	1	blank2r.bmp	0	1	+	0	2	B2r.bmp	492	1	blank2r.bmp	786	1	HLST	786	1	blank2r.bmp	866	3	narr	866	1	!	1307	1	!	-1	0	0	0	0	0	0	0	0	0	0	0	0	0	0	0	0	0	0	0	0	0	0	0	0	0	0	0
062618	16:40:44	5.0.12.0	108	associated	Rpleas_acq	Same	Rpleas	Amasked	CS_A	2pleas	acq_pleas_masked	acq2_masked	2	5	480	0	300	300	0	0	727	50	0	1	0	0	0	1	blank2r.bmp	0	1	+	0	5	C1r.bmp	492	1	blank2r.bmp	786	1	DJMR	786	1	blank2r.bmp	866	4	mama	866	1	!	1307	1	!	-1	0	0	0	0	0	0	0	0	0	0	0	0	0	0	0	0	0	0	0	0	0	0	0	0	0	0	0
062618	16:40:44	5.0.12.0	108	associated	Rpleas_acq	Same	Rpleas	Amasked	CS_A	2pleas	acq_unple_masked	acq2_masked	2	6	480	0	300	300	0	0	301	46	0	1	0	0	0	1	blank2r.bmp	0	1	+	0	6	C2r.bmp	492	1	blank2r.bmp	786	1	HLST	786	1	blank2r.bmp	866	5	gegner	866	1	!	-1	1	!	-1	0	0	0	0	0	0	0	0	0	0	0	0	0	0	0	0	0	0	0	0	0	0	0	0	0	0	0
062618	16:40:44	5.0.12.0	108	associated	Rpleas_acq	Same	Rpleas	Amasked	CS_A	2pleas	acq_pleas_masked	acq2_masked	2	7	480	1	300	300	0	0	509	50	0	1	0	0	0	1	blank2r.bmp	0	1	+	0	3	B3r.bmp	492	1	blank2r.bmp	786	1	DJMR	786	1	blank2r.bmp	866	5	jugend	866	1	!	1307	1	!	1403	0	0	0	0	0	0	0	0	0	0	0	0	0	0	0	0	0	0	0	0	0	0	0	0	0	0	0
062618	16:40:44	5.0.12.0	108	associated	Rpleas_acq	Same	Rpleas	Amasked	CS_A	2pleas	acq_unple_masked	acq2_masked	2	8	480	0	300	300	0	0	317	46	0	1	0	0	0	1	blank2r.bmp	0	1	+	0	4	B4r.bmp	492	1	blank2r.bmp	786	1	HLST	786	1	blank2r.bmp	866	4	zwang	866	1	!	-1	1	!	-1	0	0	0	0	0	0	0	0	0	0	0	0	0	0	0	0	0	0	0	0	0	0	0	0	0	0	0
062618	16:40:44	5.0.12.0	108	associated	Rpleas_acq	Same	Rpleas	Amasked	CS_A	2pleas	acq_pleas_masked	acq2_masked	2	9	480	0	300	300	0	0	756	50	0	1	0	0	0	1	blank2r.bmp	0	1	+	0	7	C3r.bmp	492	1	blank2r.bmp	786	1	DJMR	786	1	blank2r.bmp	866	6	erfinder	866	1	!	1307	1	!	-1	0	0	0	0	0	0	0	0	0	0	0	0	0	0	0	0	0	0	0	0	0	0	0	0	0	0	0
062618	16:40:44	5.0.12.0	108	associated	Rpleas_acq	Same	Rpleas	Amasked	CS_A	2pleas	acq_unple_masked	acq2_masked	2	10	480	0	300	300	0	0	269	46	0	1	0	0	0	1	blank2r.bmp	0	1	+	0	4	B4r.bmp	492	1	blank2r.bmp	786	1	HLST	786	1	blank2r.bmp	866	2	wunde	866	1	!	-1	1	!	-1	0	0	0	0	0	0	0	0	0	0	0	0	0	0	0	0	0	0	0	0	0	0	0	0	0	0	0
062618	16:40:44	5.0.12.0	108	associated	Rpleas_acq	Same	Rpleas	Amasked	CS_A	2pleas	acq_pleas_masked	acq2_masked	2	11	480	0	300	300	0	0	756	50	0	1	0	0	0	1	blank2r.bmp	0	1	+	0	5	C1r.bmp	492	1	blank2r.bmp	786	1	DJMR	786	1	blank2r.bmp	866	1	wein	866	1	!	1307	1	!	-1	0	0	0	0	0	0	0	0	0	0	0	0	0	0	0	0	0	0	0	0	0	0	0	0	0	0	0
062618	16:40:44	5.0.12.0	108	associated	Rpleas_acq	Same	Rpleas	Amasked	CS_A	2pleas	acq_unple_masked	acq2_masked	2	12	480	0	300	300	0	0	637	46	0	1	0	0	0	1	blank2r.bmp	0	1	+	0	1	B1r.bmp	492	1	blank2r.bmp	786	1	HLST	786	1	blank2r.bmp	866	1	armee	866	1	!	1307	1	!	-1	0	0	0	0	0	0	0	0	0	0	0	0	0	0	0	0	0	0	0	0	0	0	0	0	0	0	0
062618	16:40:44	5.0.12.0	108	associated	Rpleas_acq	Same	Rpleas	Amasked	CS_A	2pleas	acq_pleas_masked	acq2_masked	2	13	480	0	300	300	0	0	641	50	0	1	0	0	0	1	blank2r.bmp	0	1	+	0	6	C2r.bmp	492	1	blank2r.bmp	786	1	DJMR	786	1	blank2r.bmp	866	3	frieden	866	1	!	1307	1	!	-1	0	0	0	0	0	0	0	0	0	0	0	0	0	0	0	0	0	0	0	0	0	0	0	0	0	0	0
062618	16:40:44	5.0.12.0	108	associated	Rpleas_acq	Same	Rpleas	Amasked	CS_A	2pleas	acq_unple_masked	acq2_masked	2	14	480	0	300	300	0	0	388	46	0	1	0	0	0	1	blank2r.bmp	0	1	+	0	3	B3r.bmp	492	1	blank2r.bmp	786	1	HLST	786	1	blank2r.bmp	866	5	gegner	866	1	!	-1	1	!	-1	0	0	0	0	0	0	0	0	0	0	0	0	0	0	0	0	0	0	0	0	0	0	0	0	0	0	0
062618	16:40:44	5.0.12.0	108	associated	Rpleas_acq	Same	Rpleas	Amasked	CS_A	2pleas	acq_pleas_masked	acq2_masked	2	15	480	0	300	300	0	0	603	46	0	0	0	0	0	1	blank2r.bmp	0	1	+	0	2	B2r.bmp	492	1	blank2r.bmp	786	1	DJMR	786	1	blank2r.bmp	866	1	wein	866	1	FEHLER	1791	1	!	1307	1	!	-1	0	0	0	0	0	0	0	0	0	0	0	0	0	0	0	0	0	0	0	0	0	0	0	0
062618	16:40:44	5.0.12.0	108	associated	Rpleas_acq	Same	Rpleas	Amasked	CS_A	2pleas	acq_unple_masked	acq2_masked	2	16	480	0	300	300	0	0	398	50	0	0	0	0	0	1	blank2r.bmp	0	1	+	0	8	C4r.bmp	492	1	blank2r.bmp	786	1	HLST	786	1	blank2r.bmp	866	1	armee	866	1	FEHLER	1586	1	!	-1	1	!	-1	0	0	0	0	0	0	0	0	0	0	0	0	0	0	0	0	0	0	0	0	0	0	0	0
062618	16:40:44	5.0.12.0	108	associated	Rpleas_acq	Same	Rpleas	Amasked	CS_A	2pleas	acq_pleas_masked	acq2_masked	2	17	480	0	300	300	0	0	550	46	0	0	0	0	0	1	blank2r.bmp	0	1	+	0	2	B2r.bmp	492	1	blank2r.bmp	786	1	DJMR	786	1	blank2r.bmp	866	5	jugend	866	1	FEHLER	1737	1	!	1307	1	!	-1	0	0	0	0	0	0	0	0	0	0	0	0	0	0	0	0	0	0	0	0	0	0	0	0
062618	16:40:44	5.0.12.0	108	associated	Rpleas_acq	Same	Rpleas	Amasked	CS_A	2pleas	acq_pleas_masked	acq2_masked	2	18	480	1	300	300	0	0	518	50	0	1	0	0	0	1	blank2r.bmp	0	1	+	0	5	C1r.bmp	492	1	blank2r.bmp	786	1	DJMR	786	1	blank2r.bmp	866	6	erfinder	866	1	!	1307	1	!	1412	0	0	0	0	0	0	0	0	0	0	0	0	0	0	0	0	0	0	0	0	0	0	0	0	0	0	0
062618	16:40:44	5.0.12.0	108	associated	Rpleas_acq	Same	Rpleas	Amasked	CS_A	2pleas	acq_unple_masked	acq2_masked	2	19	480	0	300	300	0	0	679	46	0	1	0	0	0	1	blank2r.bmp	0	1	+	0	7	C3r.bmp	492	1	blank2r.bmp	786	1	HLST	786	1	blank2r.bmp	866	6	geiz	866	1	!	1307	1	!	-1	0	0	0	0	0	0	0	0	0	0	0	0	0	0	0	0	0	0	0	0	0	0	0	0	0	0	0
062618	16:40:44	5.0.12.0	108	associated	Rpleas_acq	Same	Rpleas	Amasked	CS_A	2pleas	acq_unple_masked	acq2_masked	2	20	480	1	300	300	0	0	458	46	0	1	0	0	0	1	blank2r.bmp	0	1	+	0	8	C4r.bmp	492	1	blank2r.bmp	786	1	HLST	786	1	blank2r.bmp	866	3	narr	866	1	!	1307	1	!	1351	0	0	0	0	0	0	0	0	0	0	0	0	0	0	0	0	0	0	0	0	0	0	0	0	0	0	0
062618	16:40:44	5.0.12.0	108	associated	Rpleas_acq	Same	Rpleas	Amasked	CS_A	2pleas	acq_pleas_masked	acq2_masked	2	21	480	0	300	300	0	0	322	50	0	1	0	0	0	1	blank2r.bmp	0	1	+	0	4	B4r.bmp	492	1	blank2r.bmp	786	1	DJMR	786	1	blank2r.bmp	866	4	mama	866	1	!	-1	1	!	-1	0	0	0	0	0	0	0	0	0	0	0	0	0	0	0	0	0	0	0	0	0	0	0	0	0	0	0
062618	16:40:44	5.0.12.0	108	associated	Rpleas_acq	Same	Rpleas	Amasked	CS_A	2pleas	acq_unple_masked	acq2_masked	2	22	480	0	300	300	0	0	612	46	0	1	0	0	0	1	blank2r.bmp	0	1	+	0	1	B1r.bmp	492	1	blank2r.bmp	786	1	HLST	786	1	blank2r.bmp	866	2	wunde	866	1	!	1307	1	!	-1	0	0	0	0	0	0	0	0	0	0	0	0	0	0	0	0	0	0	0	0	0	0	0	0	0	0	0
062618	16:40:44	5.0.12.0	108	associated	Rpleas_acq	Same	Rpleas	Amasked	CS_A	2pleas	acq_pleas_masked	acq2_masked	2	23	480	0	300	300	0	0	351	46	0	0	0	0	0	1	blank2r.bmp	0	1	+	0	3	B3r.bmp	492	1	blank2r.bmp	786	1	DJMR	786	1	blank2r.bmp	866	2	meer	866	1	FEHLER	1538	1	!	-1	1	!	-1	0	0	0	0	0	0	0	0	0	0	0	0	0	0	0	0	0	0	0	0	0	0	0	0
062618	16:40:44	5.0.12.0	108	associated	Rpleas_acq	Same	Rpleas	Amasked	CS_A	2pleas	acq_unple_masked	acq2_masked	2	24	480	0	300	300	0	0	374	50	0	0	0	0	0	1	blank2r.bmp	0	1	+	0	6	C2r.bmp	492	1	blank2r.bmp	786	1	HLST	786	1	blank2r.bmp	866	4	zwang	866	1	FEHLER	1562	1	!	-1	1	!	-1	0	0	0	0	0	0	0	0	0	0	0	0	0	0	0	0	0	0	0	0	0	0	0	0
062618	16:40:44	5.0.12.0	108	associated	Rpleas_acq	Same	Rpleas	Amasked	CS_A	2pleas	acq_pleas_masked	acq3_masked	3	1	453	1	300	300	0	0	513	46	0	0	0	0	0	1	blank2r.bmp	0	1	+	0	8	C4r.bmp	492	1	blank2r.bmp	786	1	DJMR	786	1	blank2r.bmp	866	3	frieden	866	1	FEHLER	1701	1	!	1280	1	!	1407	0	0	0	0	0	0	0	0	0	0	0	0	0	0	0	0	0	0	0	0	0	0	0	0
062618	16:40:44	5.0.12.0	108	associated	Rpleas_acq	Same	Rpleas	Amasked	CS_A	2pleas	acq_pleas_masked	acq3_masked	3	2	453	0	300	300	0	0	628	50	0	1	0	0	0	1	blank2r.bmp	0	1	+	0	6	C2r.bmp	492	1	blank2r.bmp	786	1	DJMR	786	1	blank2r.bmp	866	2	meer	866	1	!	1280	1	!	-1	0	0	0	0	0	0	0	0	0	0	0	0	0	0	0	0	0	0	0	0	0	0	0	0	0	0	0
062618	16:40:44	5.0.12.0	108	associated	Rpleas_acq	Same	Rpleas	Amasked	CS_A	2pleas	acq_unple_masked	acq3_masked	3	3	453	0	300	300	0	0	692	50	0	0	0	0	0	1	blank2r.bmp	0	1	+	0	4	B4r.bmp	492	1	blank2r.bmp	786	1	HLST	786	1	blank2r.bmp	866	5	gegner	866	1	FEHLER	1880	1	!	1280	1	!	-1	0	0	0	0	0	0	0	0	0	0	0	0	0	0	0	0	0	0	0	0	0	0	0	0
062618	16:40:44	5.0.12.0	108	associated	Rpleas_acq	Same	Rpleas	Amasked	CS_A	2pleas	acq_unple_masked	acq3_masked	3	4	453	1	300	300	0	0	427	46	0	1	0	0	0	1	blank2r.bmp	0	1	+	0	2	B2r.bmp	492	1	blank2r.bmp	786	1	HLST	786	1	blank2r.bmp	866	3	narr	866	1	!	1280	1	!	1320	0	0	0	0	0	0	0	0	0	0	0	0	0	0	0	0	0	0	0	0	0	0	0	0	0	0	0
062618	16:40:44	5.0.12.0	108	associated	Rpleas_acq	Same	Rpleas	Amasked	CS_A	2pleas	acq_pleas_masked	acq3_masked	3	5	453	1	300	300	0	0	395	46	0	0	0	0	0	1	blank2r.bmp	0	1	+	0	1	B1r.bmp	492	1	blank2r.bmp	786	1	DJMR	786	1	blank2r.bmp	866	6	erfinder	866	1	FEHLER	1582	1	!	1280	1	!	1288	0	0	0	0	0	0	0	0	0	0	0	0	0	0	0	0	0	0	0	0	0	0	0	0
062618	16:40:44	5.0.12.0	108	associated	Rpleas_acq	Same	Rpleas	Amasked	CS_A	2pleas	acq_pleas_masked	acq3_masked	3	6	453	0	300	300	0	0	338	50	0	1	0	0	0	1	blank2r.bmp	0	1	+	0	7	C3r.bmp	492	1	blank2r.bmp	786	1	DJMR	786	1	blank2r.bmp	866	4	mama	866	1	!	-1	1	!	-1	0	0	0	0	0	0	0	0	0	0	0	0	0	0	0	0	0	0	0	0	0	0	0	0	0	0	0
062618	16:40:44	5.0.12.0	108	associated	Rpleas_acq	Same	Rpleas	Amasked	CS_A	2pleas	acq_pleas_masked	acq3_masked	3	7	453	1	300	300	0	0	471	46	0	0	0	0	0	1	blank2r.bmp	0	1	+	0	5	C1r.bmp	492	1	blank2r.bmp	786	1	DJMR	786	1	blank2r.bmp	866	1	wein	866	1	FEHLER	1658	1	!	1280	1	!	1365	0	0	0	0	0	0	0	0	0	0	0	0	0	0	0	0	0	0	0	0	0	0	0	0
062618	16:40:44	5.0.12.0	108	associated	Rpleas_acq	Same	Rpleas	Amasked	CS_A	2pleas	acq_pleas_masked	acq3_masked	3	8	453	0	300	300	0	0	607	50	0	1	0	0	0	1	blank2r.bmp	0	1	+	0	3	B3r.bmp	492	1	blank2r.bmp	786	1	DJMR	786	1	blank2r.bmp	866	5	jugend	866	1	!	1280	1	!	-1	0	0	0	0	0	0	0	0	0	0	0	0	0	0	0	0	0	0	0	0	0	0	0	0	0	0	0
062618	16:40:44	5.0.12.0	108	associated	Rpleas_acq	Same	Rpleas	Amasked	CS_A	2pleas	acq_pleas_masked	acq3_masked	3	9	453	0	300	300	0	0	354	50	0	1	0	0	0	1	blank2r.bmp	0	1	+	0	1	B1r.bmp	492	1	blank2r.bmp	786	1	DJMR	786	1	blank2r.bmp	866	4	mama	866	1	!	-1	1	!	-1	0	0	0	0	0	0	0	0	0	0	0	0	0	0	0	0	0	0	0	0	0	0	0	0	0	0	0
062618	16:40:44	5.0.12.0	108	associated	Rpleas_acq	Same	Rpleas	Amasked	CS_A	2pleas	acq_unple_masked	acq3_masked	3	10	453	0	300	300	0	0	556	46	0	1	0	0	0	1	blank2r.bmp	0	1	+	0	3	B3r.bmp	492	1	blank2r.bmp	786	1	HLST	786	1	blank2r.bmp	866	1	armee	866	1	!	1280	1	!	-1	0	0	0	0	0	0	0	0	0	0	0	0	0	0	0	0	0	0	0	0	0	0	0	0	0	0	0
062618	16:40:44	5.0.12.0	108	associated	Rpleas_acq	Same	Rpleas	Amasked	CS_A	2pleas	acq_unple_masked	acq3_masked	3	11	453	0	300	300	0	0	583	46	0	1	0	0	0	1	blank2r.bmp	0	1	+	0	8	C4r.bmp	492	1	blank2r.bmp	786	1	HLST	786	1	blank2r.bmp	866	4	zwang	866	1	!	1280	1	!	-1	0	0	0	0	0	0	0	0	0	0	0	0	0	0	0	0	0	0	0	0	0	0	0	0	0	0	0
062618	16:40:44	5.0.12.0	108	associated	Rpleas_acq	Same	Rpleas	Amasked	CS_A	2pleas	acq_unple_masked	acq3_masked	3	12	453	0	300	300	0	0	319	46	0	1	0	0	0	1	blank2r.bmp	0	1	+	0	4	B4r.bmp	492	1	blank2r.bmp	786	1	HLST	786	1	blank2r.bmp	866	2	wunde	866	1	!	-1	1	!	-1	0	0	0	0	0	0	0	0	0	0	0	0	0	0	0	0	0	0	0	0	0	0	0	0	0	0	0
062618	16:40:44	5.0.12.0	108	associated	Rpleas_acq	Same	Rpleas	Amasked	CS_A	2pleas	acq_pleas_masked	acq3_masked	3	13	453	0	300	300	0	0	543	46	0	0	0	0	0	1	blank2r.bmp	0	1	+	0	5	C1r.bmp	492	1	blank2r.bmp	786	1	DJMR	786	1	blank2r.bmp	866	5	jugend	866	1	FEHLER	1730	1	!	1280	1	!	-1	0	0	0	0	0	0	0	0	0	0	0	0	0	0	0	0	0	0	0	0	0	0	0	0
062618	16:40:44	5.0.12.0	108	associated	Rpleas_acq	Same	Rpleas	Amasked	CS_A	2pleas	acq_unple_masked	acq3_masked	3	14	453	0	300	300	0	0	287	50	0	0	0	0	0	1	blank2r.bmp	0	1	+	0	7	C3r.bmp	492	1	blank2r.bmp	786	1	HLST	786	1	blank2r.bmp	866	6	geiz	866	1	FEHLER	1474	1	!	-1	1	!	-1	0	0	0	0	0	0	0	0	0	0	0	0	0	0	0	0	0	0	0	0	0	0	0	0
062618	16:40:44	5.0.12.0	108	associated	Rpleas_acq	Same	Rpleas	Amasked	CS_A	2pleas	acq_unple_masked	acq3_masked	3	15	453	1	300	300	0	0	473	46	0	1	0	0	0	1	blank2r.bmp	0	1	+	0	2	B2r.bmp	492	1	blank2r.bmp	786	1	HLST	786	1	blank2r.bmp	866	2	wunde	866	1	!	1280	1	!	1367	0	0	0	0	0	0	0	0	0	0	0	0	0	0	0	0	0	0	0	0	0	0	0	0	0	0	0
062618	16:40:44	5.0.12.0	108	associated	Rpleas_acq	Same	Rpleas	Amasked	CS_A	2pleas	acq_unple_masked	acq3_masked	3	16	453	0	300	300	0	0	585	46	0	1	0	0	0	1	blank2r.bmp	0	1	+	0	6	C2r.bmp	492	1	blank2r.bmp	786	1	HLST	786	1	blank2r.bmp	866	1	armee	866	1	!	1280	1	!	-1	0	0	0	0	0	0	0	0	0	0	0	0	0	0	0	0	0	0	0	0	0	0	0	0	0	0	0
062618	16:40:44	5.0.12.0	108	associated	Rpleas_acq	Same	Rpleas	Amasked	CS_A	2pleas	acq_unple_masked	acq3_masked	3	17	453	0	300	300	0	0	633	46	0	1	0	0	0	1	blank2r.bmp	0	1	+	0	3	B3r.bmp	492	1	blank2r.bmp	786	1	HLST	786	1	blank2r.bmp	866	5	gegner	866	1	!	1280	1	!	-1	0	0	0	0	0	0	0	0	0	0	0	0	0	0	0	0	0	0	0	0	0	0	0	0	0	0	0
062618	16:40:44	5.0.12.0	108	associated	Rpleas_acq	Same	Rpleas	Amasked	CS_A	2pleas	acq_pleas_masked	acq3_masked	3	18	453	0	300	300	0	0	324	46	0	0	0	0	0	1	blank2r.bmp	0	1	+	0	8	C4r.bmp	492	1	blank2r.bmp	786	1	DJMR	786	1	blank2r.bmp	866	6	erfinder	866	1	FEHLER	1512	1	!	-1	1	!	-1	0	0	0	0	0	0	0	0	0	0	0	0	0	0	0	0	0	0	0	0	0	0	0	0
062618	16:40:44	5.0.12.0	108	associated	Rpleas_acq	Same	Rpleas	Amasked	CS_A	2pleas	acq_unple_masked	acq3_masked	3	19	453	1	300	300	0	0	455	46	0	1	0	0	0	1	blank2r.bmp	0	1	+	0	6	C2r.bmp	492	1	blank2r.bmp	786	1	HLST	786	1	blank2r.bmp	866	3	narr	866	1	!	1280	1	!	1348	0	0	0	0	0	0	0	0	0	0	0	0	0	0	0	0	0	0	0	0	0	0	0	0	0	0	0
062618	16:40:44	5.0.12.0	108	associated	Rpleas_acq	Same	Rpleas	Amasked	CS_A	2pleas	acq_pleas_masked	acq3_masked	3	20	453	1	300	300	0	0	508	46	0	0	0	0	0	1	blank2r.bmp	0	1	+	0	7	C3r.bmp	492	1	blank2r.bmp	786	1	DJMR	786	1	blank2r.bmp	866	2	meer	866	1	FEHLER	1695	1	!	1280	1	!	1401	0	0	0	0	0	0	0	0	0	0	0	0	0	0	0	0	0	0	0	0	0	0	0	0
062618	16:40:44	5.0.12.0	108	associated	Rpleas_acq	Same	Rpleas	Amasked	CS_A	2pleas	acq_unple_masked	acq3_masked	3	21	453	0	300	300	0	0	532	46	0	1	0	0	0	1	blank2r.bmp	0	1	+	0	5	C1r.bmp	492	1	blank2r.bmp	786	1	HLST	786	1	blank2r.bmp	866	6	geiz	866	1	!	1280	1	!	-1	0	0	0	0	0	0	0	0	0	0	0	0	0	0	0	0	0	0	0	0	0	0	0	0	0	0	0
062618	16:40:44	5.0.12.0	108	associated	Rpleas_acq	Same	Rpleas	Amasked	CS_A	2pleas	acq_unple_masked	acq3_masked	3	22	453	0	300	300	0	0	385	50	0	0	0	0	0	1	blank2r.bmp	0	1	+	0	4	B4r.bmp	492	1	blank2r.bmp	786	1	HLST	786	1	blank2r.bmp	866	4	zwang	866	1	FEHLER	1572	1	!	-1	1	!	-1	0	0	0	0	0	0	0	0	0	0	0	0	0	0	0	0	0	0	0	0	0	0	0	0
062618	16:40:44	5.0.12.0	108	associated	Rpleas_acq	Same	Rpleas	Amasked	CS_A	2pleas	acq_pleas_masked	acq3_masked	3	23	453	0	300	300	0	0	601	46	0	0	0	0	0	1	blank2r.bmp	0	1	+	0	2	B2r.bmp	492	1	blank2r.bmp	786	1	DJMR	786	1	blank2r.bmp	866	1	wein	866	1	FEHLER	1788	1	!	1280	1	!	-1	0	0	0	0	0	0	0	0	0	0	0	0	0	0	0	0	0	0	0	0	0	0	0	0
062618	16:40:44	5.0.12.0	108	associated	Rpleas_acq	Same	Rpleas	Amasked	CS_A	2pleas	acq_pleas_masked	acq3_masked	3	24	453	0	300	300	0	0	377	50	0	1	0	0	0	1	blank2r.bmp	0	1	+	0	1	B1r.bmp	492	1	blank2r.bmp	786	1	DJMR	786	1	blank2r.bmp	866	3	frieden	866	1	!	-1	1	!	-1	0	0	0	0	0	0	0	0	0	0	0	0	0	0	0	0	0	0	0	0	0	0	0	0	0	0	0
062618	16:40:44	5.0.12.0	108	associated	Rpleas_acq	Same	Rpleas	Amasked	CS_A	2pleas	acq_unple_masked	acq3_masked	3	25	453	0	300	300	0	0	566	46	0	1	0	0	0	1	blank2r.bmp	0	1	+	0	8	C4r.bmp	492	1	blank2r.bmp	786	1	HLST	786	1	blank2r.bmp	866	3	narr	866	1	!	1280	1	!	-1	0	0	0	0	0	0	0	0	0	0	0	0	0	0	0	0	0	0	0	0	0	0	0	0	0	0	0
062618	16:40:44	5.0.12.0	108	associated	Rpleas_acq	Same	Rpleas	Amasked	CS_A	2pleas	acq_pleas_masked	acq3_masked	3	26	453	1	300	300	0	0	449	50	0	1	0	0	0	1	blank2r.bmp	0	1	+	0	3	B3r.bmp	492	1	blank2r.bmp	786	1	DJMR	786	1	blank2r.bmp	866	6	erfinder	866	1	!	1280	1	!	1343	0	0	0	0	0	0	0	0	0	0	0	0	0	0	0	0	0	0	0	0	0	0	0	0	0	0	0
062618	16:40:44	5.0.12.0	108	associated	Rpleas_acq	Same	Rpleas	Amasked	CS_A	2pleas	acq_unple_masked	acq3_masked	3	27	453	0	300	300	0	0	614	46	0	1	0	0	0	1	blank2r.bmp	0	1	+	0	6	C2r.bmp	492	1	blank2r.bmp	786	1	HLST	786	1	blank2r.bmp	866	6	geiz	866	1	!	1280	1	!	-1	0	0	0	0	0	0	0	0	0	0	0	0	0	0	0	0	0	0	0	0	0	0	0	0	0	0	0
062618	16:40:44	5.0.12.0	108	associated	Rpleas_acq	Same	Rpleas	Amasked	CS_A	2pleas	acq_pleas_masked	acq3_masked	3	28	453	0	300	300	0	0	380	50	0	1	0	0	0	1	blank2r.bmp	0	1	+	0	5	C1r.bmp	492	1	blank2r.bmp	786	1	DJMR	786	1	blank2r.bmp	866	5	jugend	866	1	!	-1	1	!	-1	0	0	0	0	0	0	0	0	0	0	0	0	0	0	0	0	0	0	0	0	0	0	0	0	0	0	0
062618	16:40:44	5.0.12.0	108	associated	Rpleas_acq	Same	Rpleas	Amasked	CS_A	2pleas	acq_pleas_masked	acq3_masked	3	29	453	0	300	300	0	0	657	50	0	1	0	0	0	1	blank2r.bmp	0	1	+	0	7	C3r.bmp	492	1	blank2r.bmp	786	1	DJMR	786	1	blank2r.bmp	866	4	mama	866	1	!	1280	1	!	-1	0	0	0	0	0	0	0	0	0	0	0	0	0	0	0	0	0	0	0	0	0	0	0	0	0	0	0
062618	16:40:44	5.0.12.0	108	associated	Rpleas_acq	Same	Rpleas	Amasked	CS_A	2pleas	acq_pleas_masked	acq3_masked	3	30	453	1	300	300	0	0	519	46	0	0	0	0	0	1	blank2r.bmp	0	1	+	0	2	B2r.bmp	492	1	blank2r.bmp	786	1	DJMR	786	1	blank2r.bmp	866	1	wein	866	1	FEHLER	1707	1	!	1280	1	!	1413	0	0	0	0	0	0	0	0	0	0	0	0	0	0	0	0	0	0	0	0	0	0	0	0
062618	16:40:44	5.0.12.0	108	associated	Rpleas_acq	Same	Rpleas	Amasked	CS_A	2pleas	acq_unple_masked	acq3_masked	3	31	453	0	300	300	0	0	594	50	0	0	0	0	0	1	blank2r.bmp	0	1	+	0	1	B1r.bmp	492	1	blank2r.bmp	786	1	HLST	786	1	blank2r.bmp	866	1	armee	866	1	FEHLER	1781	1	!	1280	1	!	-1	0	0	0	0	0	0	0	0	0	0	0	0	0	0	0	0	0	0	0	0	0	0	0	0
062618	16:40:44	5.0.12.0	108	associated	Rpleas_acq	Same	Rpleas	Amasked	CS_A	2pleas	acq_unple_masked	acq3_masked	3	32	453	0	300	300	0	0	314	46	0	1	0	0	0	1	blank2r.bmp	0	1	+	0	4	B4r.bmp	492	1	blank2r.bmp	786	1	HLST	786	1	blank2r.bmp	866	2	wunde	866	1	!	-1	1	!	-1	0	0	0	0	0	0	0	0	0	0	0	0	0	0	0	0	0	0	0	0	0	0	0	0	0	0	0
062618	16:40:44	5.0.12.0	108	associated	Rpleas_acq	Same	Rpleas	Amasked	CS_A	2pleas	acq_unple_masked	acq45_masked	4	1	400	1	300	300	0	0	411	46	0	1	0	0	0	1	blank2r.bmp	0	1	+	0	7	C3r.bmp	492	1	blank2r.bmp	786	1	HLST	786	1	blank2r.bmp	866	5	gegner	866	1	!	1227	1	!	1304	0	0	0	0	0	0	0	0	0	0	0	0	0	0	0	0	0	0	0	0	0	0	0	0	0	0	0
062618	16:40:44	5.0.12.0	108	associated	Rpleas_acq	Same	Rpleas	Amasked	CS_A	2pleas	acq_pleas_masked	acq45_masked	4	2	400	1	300	300	0	0	384	50	0	1	0	0	0	1	blank2r.bmp	0	1	+	0	6	C2r.bmp	492	1	blank2r.bmp	786	1	DJMR	786	1	blank2r.bmp	866	3	frieden	866	1	!	1227	1	!	1278	0	0	0	0	0	0	0	0	0	0	0	0	0	0	0	0	0	0	0	0	0	0	0	0	0	0	0
062618	16:40:44	5.0.12.0	108	associated	Rpleas_acq	Same	Rpleas	Amasked	CS_A	2pleas	acq_pleas_masked	acq45_masked	4	3	400	0	300	300	0	0	559	50	0	1	0	0	0	1	blank2r.bmp	0	1	+	0	3	B3r.bmp	492	1	blank2r.bmp	786	1	DJMR	786	1	blank2r.bmp	866	2	meer	866	1	!	1227	1	!	-1	0	0	0	0	0	0	0	0	0	0	0	0	0	0	0	0	0	0	0	0	0	0	0	0	0	0	0
062618	16:40:44	5.0.12.0	108	associated	Rpleas_acq	Same	Rpleas	Amasked	CS_A	2pleas	acq_unple_masked	acq45_masked	4	4	400	0	300	300	0	0	506	46	0	1	0	0	0	1	blank2r.bmp	0	1	+	0	4	B4r.bmp	492	1	blank2r.bmp	786	1	HLST	786	1	blank2r.bmp	866	4	zwang	866	1	!	1227	1	!	-1	0	0	0	0	0	0	0	0	0	0	0	0	0	0	0	0	0	0	0	0	0	0	0	0	0	0	0
062618	16:40:44	5.0.12.0	108	associated	Rpleas_acq	Same	Rpleas	Amasked	CS_A	2pleas	acq_unple_masked	acq45_masked	4	5	400	0	300	300	0	0	512	46	0	1	0	0	0	1	blank2r.bmp	0	1	+	0	8	C4r.bmp	492	1	blank2r.bmp	786	1	HLST	786	1	blank2r.bmp	866	1	armee	866	1	!	1227	1	!	-1	0	0	0	0	0	0	0	0	0	0	0	0	0	0	0	0	0	0	0	0	0	0	0	0	0	0	0
062618	16:40:44	5.0.12.0	108	associated	Rpleas_acq	Same	Rpleas	Amasked	CS_A	2pleas	acq_pleas_masked	acq45_masked	4	6	400	0	300	300	0	0	328	50	0	1	0	0	0	1	blank2r.bmp	0	1	+	0	2	B2r.bmp	492	1	blank2r.bmp	786	1	DJMR	786	1	blank2r.bmp	866	2	meer	866	1	!	-1	1	!	-1	0	0	0	0	0	0	0	0	0	0	0	0	0	0	0	0	0	0	0	0	0	0	0	0	0	0	0
062618	16:40:44	5.0.12.0	108	associated	Rpleas_acq	Same	Rpleas	Amasked	CS_A	2pleas	acq_unple_masked	acq45_masked	4	7	400	0	300	300	0	0	554	46	0	1	0	0	0	1	blank2r.bmp	0	1	+	0	5	C1r.bmp	492	1	blank2r.bmp	786	1	HLST	786	1	blank2r.bmp	866	5	gegner	866	1	!	1227	1	!	-1	0	0	0	0	0	0	0	0	0	0	0	0	0	0	0	0	0	0	0	0	0	0	0	0	0	0	0
062618	16:40:44	5.0.12.0	108	associated	Rpleas_acq	Same	Rpleas	Amasked	CS_A	2pleas	acq_pleas_masked	acq45_masked	4	8	400	0	300	300	0	0	517	50	0	1	0	0	0	1	blank2r.bmp	0	1	+	0	1	B1r.bmp	492	1	blank2r.bmp	786	1	DJMR	786	1	blank2r.bmp	866	1	wein	866	1	!	1227	1	!	-1	0	0	0	0	0	0	0	0	0	0	0	0	0	0	0	0	0	0	0	0	0	0	0	0	0	0	0
062618	16:40:44	5.0.12.0	108	associated	Rpleas_acq	Same	Rpleas	Amasked	CS_A	2pleas	acq_unple_masked	acq45_masked	4	9	400	0	300	300	0	0	277	46	0	1	0	0	0	1	blank2r.bmp	0	1	+	0	3	B3r.bmp	492	1	blank2r.bmp	786	1	HLST	786	1	blank2r.bmp	866	2	wunde	866	1	!	-1	1	!	-1	0	0	0	0	0	0	0	0	0	0	0	0	0	0	0	0	0	0	0	0	0	0	0	0	0	0	0
062618	16:40:44	5.0.12.0	108	associated	Rpleas_acq	Same	Rpleas	Amasked	CS_A	2pleas	acq_pleas_masked	acq45_masked	4	10	400	1	300	300	0	0	420	50	0	1	0	0	0	1	blank2r.bmp	0	1	+	0	8	C4r.bmp	492	1	blank2r.bmp	786	1	DJMR	786	1	blank2r.bmp	866	4	mama	866	1	!	1227	1	!	1314	0	0	0	0	0	0	0	0	0	0	0	0	0	0	0	0	0	0	0	0	0	0	0	0	0	0	0
062618	16:40:44	5.0.12.0	108	associated	Rpleas_acq	Same	Rpleas	Amasked	CS_A	2pleas	acq_pleas_masked	acq45_masked	4	11	400	1	300	300	0	0	345	46	0	0	0	0	0	1	blank2r.bmp	0	1	+	0	5	C1r.bmp	492	1	blank2r.bmp	786	1	DJMR	786	1	blank2r.bmp	866	3	frieden	866	1	!	1227	1	!	1239	0	0	0	0	0	0	0	0	0	0	0	0	0	0	0	0	0	0	0	0	0	0	0	0	0	0	0
062618	16:40:44	5.0.12.0	108	associated	Rpleas_acq	Same	Rpleas	Amasked	CS_A	2pleas	acq_unple_masked	acq45_masked	4	12	400	1	300	300	0	0	417	50	0	0	0	0	0	1	blank2r.bmp	0	1	+	0	1	B1r.bmp	492	1	blank2r.bmp	786	1	HLST	786	1	blank2r.bmp	866	3	narr	866	1	!	1227	1	!	1310	0	0	0	0	0	0	0	0	0	0	0	0	0	0	0	0	0	0	0	0	0	0	0	0	0	0	0
062618	16:40:44	5.0.12.0	108	associated	Rpleas_acq	Same	Rpleas	Amasked	CS_A	2pleas	acq_pleas_masked	acq45_masked	4	13	400	1	300	300	0	0	366	46	0	0	0	0	0	1	blank2r.bmp	0	1	+	0	7	C3r.bmp	492	1	blank2r.bmp	786	1	DJMR	786	1	blank2r.bmp	866	6	erfinder	866	1	!	1227	1	!	1259	0	0	0	0	0	0	0	0	0	0	0	0	0	0	0	0	0	0	0	0	0	0	0	0	0	0	0
062618	16:40:44	5.0.12.0	108	associated	Rpleas_acq	Same	Rpleas	Amasked	CS_A	2pleas	acq_unple_masked	acq45_masked	4	14	400	1	300	300	0	0	392	46	0	1	0	0	0	1	blank2r.bmp	0	1	+	0	4	B4r.bmp	492	1	blank2r.bmp	786	1	HLST	786	1	blank2r.bmp	866	4	zwang	866	1	!	1227	1	!	1286	0	0	0	0	0	0	0	0	0	0	0	0	0	0	0	0	0	0	0	0	0	0	0	0	0	0	0
062618	16:40:44	5.0.12.0	108	associated	Rpleas_acq	Same	Rpleas	Amasked	CS_A	2pleas	acq_unple_masked	acq45_masked	4	15	400	0	300	300	0	0	552	50	0	0	0	0	0	1	blank2r.bmp	0	1	+	0	6	C2r.bmp	492	1	blank2r.bmp	786	1	HLST	786	1	blank2r.bmp	866	6	geiz	866	1	!	1227	1	!	-1	0	0	0	0	0	0	0	0	0	0	0	0	0	0	0	0	0	0	0	0	0	0	0	0	0	0	0
062618	16:40:44	5.0.12.0	108	associated	Rpleas_acq	Same	Rpleas	Amasked	CS_A	2pleas	acq_pleas_masked	acq45_masked	4	16	400	0	300	300	0	0	520	50	0	1	0	0	0	1	blank2r.bmp	0	1	+	0	2	B2r.bmp	492	1	blank2r.bmp	786	1	DJMR	786	1	blank2r.bmp	866	5	jugend	866	1	!	1227	1	!	-1	0	0	0	0	0	0	0	0	0	0	0	0	0	0	0	0	0	0	0	0	0	0	0	0	0	0	0
062618	16:40:44	5.0.12.0	108	associated	Rpleas_acq	Same	Rpleas	Amasked	CS_A	2pleas	acq_unple_masked	acq45_masked	4	17	400	0	300	300	0	0	499	46	0	1	0	0	0	1	blank2r.bmp	0	1	+	0	4	B4r.bmp	492	1	blank2r.bmp	786	1	HLST	786	1	blank2r.bmp	866	5	gegner	866	1	!	1227	1	!	-1	0	0	0	0	0	0	0	0	0	0	0	0	0	0	0	0	0	0	0	0	0	0	0	0	0	0	0
062618	16:40:44	5.0.12.0	108	associated	Rpleas_acq	Same	Rpleas	Amasked	CS_A	2pleas	acq_pleas_masked	acq45_masked	4	18	400	1	300	300	0	0	347	46	0	0	0	0	0	1	blank2r.bmp	0	1	+	0	5	C1r.bmp	492	1	blank2r.bmp	786	1	DJMR	786	1	blank2r.bmp	866	2	meer	866	1	!	1227	1	!	1240	0	0	0	0	0	0	0	0	0	0	0	0	0	0	0	0	0	0	0	0	0	0	0	0	0	0	0
062618	16:40:44	5.0.12.0	108	associated	Rpleas_acq	Same	Rpleas	Amasked	CS_A	2pleas	acq_unple_masked	acq45_masked	4	19	400	1	300	300	0	0	354	50	0	0	0	0	0	1	blank2r.bmp	0	1	+	0	7	C3r.bmp	492	1	blank2r.bmp	786	1	HLST	786	1	blank2r.bmp	866	2	wunde	866	1	!	1227	1	!	1248	0	0	0	0	0	0	0	0	0	0	0	0	0	0	0	0	0	0	0	0	0	0	0	0	0	0	0
062618	16:40:44	5.0.12.0	108	associated	Rpleas_acq	Same	Rpleas	Amasked	CS_A	2pleas	acq_pleas_masked	acq45_masked	4	20	400	1	300	300	0	0	362	46	0	0	0	0	0	1	blank2r.bmp	0	1	+	0	6	C2r.bmp	492	1	blank2r.bmp	786	1	DJMR	786	1	blank2r.bmp	866	3	frieden	866	1	!	1227	1	!	1255	0	0	0	0	0	0	0	0	0	0	0	0	0	0	0	0	0	0	0	0	0	0	0	0	0	0	0
062618	16:40:44	5.0.12.0	108	associated	Rpleas_acq	Same	Rpleas	Amasked	CS_A	2pleas	acq_unple_masked	acq45_masked	4	21	400	1	300	300	0	0	428	50	0	0	0	0	0	1	blank2r.bmp	0	1	+	0	1	B1r.bmp	492	1	blank2r.bmp	786	1	HLST	786	1	blank2r.bmp	866	4	zwang	866	1	!	1227	1	!	1322	0	0	0	0	0	0	0	0	0	0	0	0	0	0	0	0	0	0	0	0	0	0	0	0	0	0	0
062618	16:40:44	5.0.12.0	108	associated	Rpleas_acq	Same	Rpleas	Amasked	CS_A	2pleas	acq_pleas_masked	acq45_masked	4	22	400	0	300	300	0	0	684	50	0	1	0	0	0	1	blank2r.bmp	0	1	+	0	2	B2r.bmp	492	1	blank2r.bmp	786	1	DJMR	786	1	blank2r.bmp	866	1	wein	866	1	!	1227	1	!	-1	0	0	0	0	0	0	0	0	0	0	0	0	0	0	0	0	0	0	0	0	0	0	0	0	0	0	0
062618	16:40:44	5.0.12.0	108	associated	Rpleas_acq	Same	Rpleas	Amasked	CS_A	2pleas	acq_pleas_masked	acq45_masked	4	23	400	0	300	300	0	0	327	46	0	0	0	0	0	1	blank2r.bmp	0	1	+	0	8	C4r.bmp	492	1	blank2r.bmp	786	1	DJMR	786	1	blank2r.bmp	866	6	erfinder	866	1	!	-1	1	!	-1	0	0	0	0	0	0	0	0	0	0	0	0	0	0	0	0	0	0	0	0	0	0	0	0	0	0	0
062618	16:40:44	5.0.12.0	108	associated	Rpleas_acq	Same	Rpleas	Amasked	CS_A	2pleas	acq_pleas_masked	acq45_masked	4	24	400	0	300	300	0	0	524	46	0	0	0	0	0	1	blank2r.bmp	0	1	+	0	3	B3r.bmp	492	1	blank2r.bmp	786	1	DJMR	786	1	blank2r.bmp	866	5	jugend	866	1	!	1227	1	!	-1	0	0	0	0	0	0	0	0	0	0	0	0	0	0	0	0	0	0	0	0	0	0	0	0	0	0	0
062618	16:40:44	5.0.12.0	108	associated	Rpleas_acq	Same	Rpleas	Amasked	CS_A	2pleas	acq_pleas_masked	acq45_masked	4	25	400	0	300	300	0	0	303	50	0	1	0	0	0	1	blank2r.bmp	0	1	+	0	1	B1r.bmp	492	1	blank2r.bmp	786	1	DJMR	786	1	blank2r.bmp	866	4	mama	866	1	!	-1	1	!	-1	0	0	0	0	0	0	0	0	0	0	0	0	0	0	0	0	0	0	0	0	0	0	0	0	0	0	0
062618	16:40:44	5.0.12.0	108	associated	Rpleas_acq	Same	Rpleas	Amasked	CS_A	2pleas	acq_pleas_masked	acq45_masked	4	26	400	1	300	300	0	0	403	50	0	1	0	0	0	1	blank2r.bmp	0	1	+	0	3	B3r.bmp	492	1	blank2r.bmp	786	1	DJMR	786	1	blank2r.bmp	866	5	jugend	866	1	!	1227	1	!	1297	0	0	0	0	0	0	0	0	0	0	0	0	0	0	0	0	0	0	0	0	0	0	0	0	0	0	0
062618	16:40:44	5.0.12.0	108	associated	Rpleas_acq	Same	Rpleas	Amasked	CS_A	2pleas	acq_unple_masked	acq45_masked	4	27	400	0	300	300	0	0	488	46	0	1	0	0	0	1	blank2r.bmp	0	1	+	0	6	C2r.bmp	492	1	blank2r.bmp	786	1	HLST	786	1	blank2r.bmp	866	3	narr	866	1	!	1227	1	!	-1	0	0	0	0	0	0	0	0	0	0	0	0	0	0	0	0	0	0	0	0	0	0	0	0	0	0	0
062618	16:40:44	5.0.12.0	108	associated	Rpleas_acq	Same	Rpleas	Amasked	CS_A	2pleas	acq_unple_masked	acq45_masked	4	28	400	1	300	300	0	0	398	46	0	1	0	0	0	1	blank2r.bmp	0	1	+	0	8	C4r.bmp	492	1	blank2r.bmp	786	1	HLST	786	1	blank2r.bmp	866	6	geiz	866	1	!	1227	1	!	1292	0	0	0	0	0	0	0	0	0	0	0	0	0	0	0	0	0	0	0	0	0	0	0	0	0	0	0
062618	16:40:44	5.0.12.0	108	associated	Rpleas_acq	Same	Rpleas	Amasked	CS_A	2pleas	acq_unple_masked	acq45_masked	4	29	400	1	300	300	0	0	424	46	0	1	0	0	0	1	blank2r.bmp	0	1	+	0	5	C1r.bmp	492	1	blank2r.bmp	786	1	HLST	786	1	blank2r.bmp	866	1	armee	866	1	!	1227	1	!	1318	0	0	0	0	0	0	0	0	0	0	0	0	0	0	0	0	0	0	0	0	0	0	0	0	0	0	0
062618	16:40:44	5.0.12.0	108	associated	Rpleas_acq	Same	Rpleas	Amasked	CS_A	2pleas	acq_pleas_masked	acq45_masked	4	30	400	0	300	300	0	0	533	50	0	1	0	0	0	1	blank2r.bmp	0	1	+	0	7	C3r.bmp	492	1	blank2r.bmp	786	1	DJMR	786	1	blank2r.bmp	866	1	wein	866	1	!	1227	1	!	-1	0	0	0	0	0	0	0	0	0	0	0	0	0	0	0	0	0	0	0	0	0	0	0	0	0	0	0
062618	16:40:44	5.0.12.0	108	associated	Rpleas_acq	Same	Rpleas	Amasked	CS_A	2pleas	acq_unple_masked	acq45_masked	4	31	400	0	300	300	0	0	275	46	0	1	0	0	0	1	blank2r.bmp	0	1	+	0	2	B2r.bmp	492	1	blank2r.bmp	786	1	HLST	786	1	blank2r.bmp	866	2	wunde	866	1	!	-1	1	!	-1	0	0	0	0	0	0	0	0	0	0	0	0	0	0	0	0	0	0	0	0	0	0	0	0	0	0	0
062618	16:40:44	5.0.12.0	108	associated	Rpleas_acq	Same	Rpleas	Amasked	CS_A	2pleas	acq_unple_masked	acq45_masked	4	32	400	0	300	300	0	0	541	46	0	1	0	0	0	1	blank2r.bmp	0	1	+	0	4	B4r.bmp	492	1	blank2r.bmp	786	1	HLST	786	1	blank2r.bmp	866	1	armee	866	1	!	1227	1	!	-1	0	0	0	0	0	0	0	0	0	0	0	0	0	0	0	0	0	0	0	0	0	0	0	0	0	0	0
062618	16:40:44	5.0.12.0	108	associated	Rpleas_acq	Same	Rpleas	Amasked	CS_A	2pleas	acq_unple_masked	acq45_masked	5	1	400	0	300	300	0	0	315	50	0	0	0	0	0	1	blank2r.bmp	0	1	+	0	1	B1r.bmp	492	1	blank2r.bmp	786	1	HLST	786	1	blank2r.bmp	866	4	zwang	866	1	!	-1	1	!	-1	0	0	0	0	0	0	0	0	0	0	0	0	0	0	0	0	0	0	0	0	0	0	0	0	0	0	0
062618	16:40:44	5.0.12.0	108	associated	Rpleas_acq	Same	Rpleas	Amasked	CS_A	2pleas	acq_unple_masked	acq45_masked	5	2	400	1	300	300	0	0	413	46	0	1	0	0	0	1	blank2r.bmp	0	1	+	0	8	C4r.bmp	492	1	blank2r.bmp	786	1	HLST	786	1	blank2r.bmp	866	6	geiz	866	1	!	1227	1	!	1307	0	0	0	0	0	0	0	0	0	0	0	0	0	0	0	0	0	0	0	0	0	0	0	0	0	0	0
062618	16:40:44	5.0.12.0	108	associated	Rpleas_acq	Same	Rpleas	Amasked	CS_A	2pleas	acq_unple_masked	acq45_masked	5	3	400	0	300	300	0	0	490	46	0	1	0	0	0	1	blank2r.bmp	0	1	+	0	7	C3r.bmp	492	1	blank2r.bmp	786	1	HLST	786	1	blank2r.bmp	866	3	narr	866	1	!	1227	1	!	-1	0	0	0	0	0	0	0	0	0	0	0	0	0	0	0	0	0	0	0	0	0	0	0	0	0	0	0
062618	16:40:44	5.0.12.0	108	associated	Rpleas_acq	Same	Rpleas	Amasked	CS_A	2pleas	acq_unple_masked	acq45_masked	5	4	400	0	300	300	0	0	333	46	0	1	0	0	0	1	blank2r.bmp	0	1	+	0	3	B3r.bmp	492	1	blank2r.bmp	786	1	HLST	786	1	blank2r.bmp	866	5	gegner	866	1	!	-1	1	!	-1	0	0	0	0	0	0	0	0	0	0	0	0	0	0	0	0	0	0	0	0	0	0	0	0	0	0	0
062618	16:40:44	5.0.12.0	108	associated	Rpleas_acq	Same	Rpleas	Amasked	CS_A	2pleas	acq_pleas_masked	acq45_masked	5	5	400	0	300	300	0	0	551	50	0	1	0	0	0	1	blank2r.bmp	0	1	+	0	2	B2r.bmp	492	1	blank2r.bmp	786	1	DJMR	786	1	blank2r.bmp	866	4	mama	866	1	!	1227	1	!	-1	0	0	0	0	0	0	0	0	0	0	0	0	0	0	0	0	0	0	0	0	0	0	0	0	0	0	0
062618	16:40:44	5.0.12.0	108	associated	Rpleas_acq	Same	Rpleas	Amasked	CS_A	2pleas	acq_pleas_masked	acq45_masked	5	6	400	1	300	300	0	0	407	50	0	1	0	0	0	1	blank2r.bmp	0	1	+	0	4	B4r.bmp	492	1	blank2r.bmp	786	1	DJMR	786	1	blank2r.bmp	866	6	erfinder	866	1	!	1227	1	!	1301	0	0	0	0	0	0	0	0	0	0	0	0	0	0	0	0	0	0	0	0	0	0	0	0	0	0	0
062618	16:40:44	5.0.12.0	108	associated	Rpleas_acq	Same	Rpleas	Amasked	CS_A	2pleas	acq_pleas_masked	acq45_masked	5	7	400	0	300	300	0	0	297	46	0	0	0	0	0	1	blank2r.bmp	0	1	+	0	5	C1r.bmp	492	1	blank2r.bmp	786	1	DJMR	786	1	blank2r.bmp	866	2	meer	866	1	!	-1	1	!	-1	0	0	0	0	0	0	0	0	0	0	0	0	0	0	0	0	0	0	0	0	0	0	0	0	0	0	0
062618	16:40:44	5.0.12.0	108	associated	Rpleas_acq	Same	Rpleas	Amasked	CS_A	2pleas	acq_unple_masked	acq45_masked	5	8	400	0	300	300	0	0	566	46	0	1	0	0	0	1	blank2r.bmp	0	1	+	0	6	C2r.bmp	492	1	blank2r.bmp	786	1	HLST	786	1	blank2r.bmp	866	6	geiz	866	1	!	1227	1	!	-1	0	0	0	0	0	0	0	0	0	0	0	0	0	0	0	0	0	0	0	0	0	0	0	0	0	0	0
062618	16:40:44	5.0.12.0	108	associated	Rpleas_acq	Same	Rpleas	Amasked	CS_A	2pleas	acq_pleas_masked	acq45_masked	5	9	400	1	300	300	0	0	369	50	0	1	0	0	0	1	blank2r.bmp	0	1	+	0	8	C4r.bmp	492	1	blank2r.bmp	786	1	DJMR	786	1	blank2r.bmp	866	3	frieden	866	1	!	1227	1	!	1263	0	0	0	0	0	0	0	0	0	0	0	0	0	0	0	0	0	0	0	0	0	0	0	0	0	0	0
062618	16:40:44	5.0.12.0	108	associated	Rpleas_acq	Same	Rpleas	Amasked	CS_A	2pleas	acq_pleas_masked	acq45_masked	5	10	400	1	300	300	0	0	395	46	0	0	0	0	0	1	blank2r.bmp	0	1	+	0	4	B4r.bmp	492	1	blank2r.bmp	786	1	DJMR	786	1	blank2r.bmp	866	4	mama	866	1	!	1227	1	!	1289	0	0	0	0	0	0	0	0	0	0	0	0	0	0	0	0	0	0	0	0	0	0	0	0	0	0	0
062618	16:40:44	5.0.12.0	108	associated	Rpleas_acq	Same	Rpleas	Amasked	CS_A	2pleas	acq_pleas_masked	acq45_masked	5	11	400	1	300	300	0	0	387	50	0	1	0	0	0	1	blank2r.bmp	0	1	+	0	2	B2r.bmp	492	1	blank2r.bmp	786	1	DJMR	786	1	blank2r.bmp	866	3	frieden	866	1	!	1227	1	!	1280	0	0	0	0	0	0	0	0	0	0	0	0	0	0	0	0	0	0	0	0	0	0	0	0	0	0	0
062618	16:40:44	5.0.12.0	108	associated	Rpleas_acq	Same	Rpleas	Amasked	CS_A	2pleas	acq_unple_masked	acq45_masked	5	12	400	1	300	300	0	0	442	46	0	1	0	0	0	1	blank2r.bmp	0	1	+	0	5	C1r.bmp	492	1	blank2r.bmp	786	1	HLST	786	1	blank2r.bmp	866	2	wunde	866	1	!	1227	1	!	1336	0	0	0	0	0	0	0	0	0	0	0	0	0	0	0	0	0	0	0	0	0	0	0	0	0	0	0
062618	16:40:44	5.0.12.0	108	associated	Rpleas_acq	Same	Rpleas	Amasked	CS_A	2pleas	acq_unple_masked	acq45_masked	5	13	400	1	300	300	0	0	453	46	0	1	0	0	0	1	blank2r.bmp	0	1	+	0	3	B3r.bmp	492	1	blank2r.bmp	786	1	HLST	786	1	blank2r.bmp	866	1	armee	866	1	!	1227	1	!	1347	0	0	0	0	0	0	0	0	0	0	0	0	0	0	0	0	0	0	0	0	0	0	0	0	0	0	0
062618	16:40:44	5.0.12.0	108	associated	Rpleas_acq	Same	Rpleas	Amasked	CS_A	2pleas	acq_unple_masked	acq45_masked	5	14	400	1	300	300	0	0	376	46	0	1	0	0	0	1	blank2r.bmp	0	1	+	0	7	C3r.bmp	492	1	blank2r.bmp	786	1	HLST	786	1	blank2r.bmp	866	5	gegner	866	1	!	1227	1	!	1269	0	0	0	0	0	0	0	0	0	0	0	0	0	0	0	0	0	0	0	0	0	0	0	0	0	0	0
062618	16:40:44	5.0.12.0	108	associated	Rpleas_acq	Same	Rpleas	Amasked	CS_A	2pleas	acq_pleas_masked	acq45_masked	5	15	400	0	300	300	0	0	477	50	0	1	0	0	0	1	blank2r.bmp	0	1	+	0	6	C2r.bmp	492	1	blank2r.bmp	786	1	DJMR	786	1	blank2r.bmp	866	5	jugend	866	1	!	1227	1	!	-1	0	0	0	0	0	0	0	0	0	0	0	0	0	0	0	0	0	0	0	0	0	0	0	0	0	0	0
062618	16:40:44	5.0.12.0	108	associated	Rpleas_acq	Same	Rpleas	Amasked	CS_A	2pleas	acq_pleas_masked	acq45_masked	5	16	400	1	300	300	0	0	348	50	0	1	0	0	0	1	blank2r.bmp	0	1	+	0	1	B1r.bmp	492	1	blank2r.bmp	786	1	DJMR	786	1	blank2r.bmp	866	1	wein	866	1	!	1227	1	!	1242	0	0	0	0	0	0	0	0	0	0	0	0	0	0	0	0	0	0	0	0	0	0	0	0	0	0	0
062618	16:40:44	5.0.12.0	108	associated	Rpleas_acq	Same	Rpleas	Amasked	CS_A	2pleas	acq_pleas_masked	acq45_masked	5	17	400	1	300	300	0	0	388	46	0	0	0	0	0	1	blank2r.bmp	0	1	+	0	3	B3r.bmp	492	1	blank2r.bmp	786	1	DJMR	786	1	blank2r.bmp	866	6	erfinder	866	1	!	1227	1	!	1281	0	0	0	0	0	0	0	0	0	0	0	0	0	0	0	0	0	0	0	0	0	0	0	0	0	0	0
062618	16:40:44	5.0.12.0	108	associated	Rpleas_acq	Same	Rpleas	Amasked	CS_A	2pleas	acq_pleas_masked	acq45_masked	5	18	400	0	300	300	0	0	483	46	0	0	0	0	0	1	blank2r.bmp	0	1	+	0	5	C1r.bmp	492	1	blank2r.bmp	786	1	DJMR	786	1	blank2r.bmp	866	2	meer	866	1	!	1227	1	!	-1	0	0	0	0	0	0	0	0	0	0	0	0	0	0	0	0	0	0	0	0	0	0	0	0	0	0	0
062618	16:40:44	5.0.12.0	108	associated	Rpleas_acq	Same	Rpleas	Amasked	CS_A	2pleas	acq_unple_masked	acq45_masked	5	19	400	0	300	300	0	0	502	46	0	1	0	0	0	1	blank2r.bmp	0	1	+	0	7	C3r.bmp	492	1	blank2r.bmp	786	1	HLST	786	1	blank2r.bmp	866	3	narr	866	1	!	1227	1	!	-1	0	0	0	0	0	0	0	0	0	0	0	0	0	0	0	0	0	0	0	0	0	0	0	0	0	0	0
062618	16:40:44	5.0.12.0	108	associated	Rpleas_acq	Same	Rpleas	Amasked	CS_A	2pleas	acq_unple_masked	acq45_masked	5	20	400	0	300	300	0	0	499	46	0	1	0	0	0	1	blank2r.bmp	0	1	+	0	2	B2r.bmp	492	1	blank2r.bmp	786	1	HLST	786	1	blank2r.bmp	866	4	zwang	866	1	!	1227	1	!	-1	0	0	0	0	0	0	0	0	0	0	0	0	0	0	0	0	0	0	0	0	0	0	0	0	0	0	0
062618	16:40:44	5.0.12.0	108	associated	Rpleas_acq	Same	Rpleas	Amasked	CS_A	2pleas	acq_pleas_masked	acq45_masked	5	21	400	1	300	300	0	0	465	46	0	0	0	0	0	1	blank2r.bmp	0	1	+	0	1	B1r.bmp	492	1	blank2r.bmp	786	1	DJMR	786	1	blank2r.bmp	866	2	meer	866	1	!	1227	1	!	1359	0	0	0	0	0	0	0	0	0	0	0	0	0	0	0	0	0	0	0	0	0	0	0	0	0	0	0
062618	16:40:44	5.0.12.0	108	associated	Rpleas_acq	Same	Rpleas	Amasked	CS_A	2pleas	acq_pleas_masked	acq45_masked	5	22	400	0	300	300	0	0	473	46	0	0	0	0	0	1	blank2r.bmp	0	1	+	0	6	C2r.bmp	492	1	blank2r.bmp	786	1	DJMR	786	1	blank2r.bmp	866	4	mama	866	1	!	1227	1	!	-1	0	0	0	0	0	0	0	0	0	0	0	0	0	0	0	0	0	0	0	0	0	0	0	0	0	0	0
062618	16:40:44	5.0.12.0	108	associated	Rpleas_acq	Same	Rpleas	Amasked	CS_A	2pleas	acq_pleas_masked	acq45_masked	5	23	400	0	300	300	0	0	561	50	0	1	0	0	0	1	blank2r.bmp	0	1	+	0	8	C4r.bmp	492	1	blank2r.bmp	786	1	DJMR	786	1	blank2r.bmp	866	1	wein	866	1	!	1227	1	!	-1	0	0	0	0	0	0	0	0	0	0	0	0	0	0	0	0	0	0	0	0	0	0	0	0	0	0	0
062618	16:40:44	5.0.12.0	108	associated	Rpleas_acq	Same	Rpleas	Amasked	CS_A	2pleas	acq_unple_masked	acq45_masked	5	24	400	0	300	300	0	0	292	46	0	1	0	0	0	1	blank2r.bmp	0	1	+	0	4	B4r.bmp	492	1	blank2r.bmp	786	1	HLST	786	1	blank2r.bmp	866	2	wunde	866	1	!	-1	1	!	-1	0	0	0	0	0	0	0	0	0	0	0	0	0	0	0	0	0	0	0	0	0	0	0	0	0	0	0
062618	16:40:44	5.0.12.0	108	associated	Rpleas_acq	Same	Rpleas	Amasked	CS_A	2pleas	acq_unple_masked	acq45_masked	5	25	400	0	300	300	0	0	288	50	0	0	0	0	0	1	blank2r.bmp	0	1	+	0	5	C1r.bmp	492	1	blank2r.bmp	786	1	HLST	786	1	blank2r.bmp	866	1	armee	866	1	!	-1	1	!	-1	0	0	0	0	0	0	0	0	0	0	0	0	0	0	0	0	0	0	0	0	0	0	0	0	0	0	0
062618	16:40:44	5.0.12.0	108	associated	Rpleas_acq	Same	Rpleas	Amasked	CS_A	2pleas	acq_unple_masked	acq45_masked	5	26	400	0	300	300	0	0	650	46	0	1	0	0	0	1	blank2r.bmp	0	1	+	0	2	B2r.bmp	492	1	blank2r.bmp	786	1	HLST	786	1	blank2r.bmp	866	4	zwang	866	1	!	1227	1	!	-1	0	0	0	0	0	0	0	0	0	0	0	0	0	0	0	0	0	0	0	0	0	0	0	0	0	0	0
062618	16:40:44	5.0.12.0	108	associated	Rpleas_acq	Same	Rpleas	Amasked	CS_A	2pleas	acq_unple_masked	acq45_masked	5	27	400	0	300	300	0	0	528	50	0	0	0	0	0	1	blank2r.bmp	0	1	+	0	4	B4r.bmp	492	1	blank2r.bmp	786	1	HLST	786	1	blank2r.bmp	866	6	geiz	866	1	!	1227	1	!	-1	0	0	0	0	0	0	0	0	0	0	0	0	0	0	0	0	0	0	0	0	0	0	0	0	0	0	0
062618	16:40:44	5.0.12.0	108	associated	Rpleas_acq	Same	Rpleas	Amasked	CS_A	2pleas	acq_pleas_masked	acq45_masked	5	28	400	1	300	300	0	0	342	46	0	0	0	0	0	1	blank2r.bmp	0	1	+	0	7	C3r.bmp	492	1	blank2r.bmp	786	1	DJMR	786	1	blank2r.bmp	866	5	jugend	866	1	!	1227	1	!	1235	0	0	0	0	0	0	0	0	0	0	0	0	0	0	0	0	0	0	0	0	0	0	0	0	0	0	0
062618	16:40:44	5.0.12.0	108	associated	Rpleas_acq	Same	Rpleas	Amasked	CS_A	2pleas	acq_unple_masked	acq45_masked	5	29	400	0	300	300	0	0	483	46	0	1	0	0	0	1	blank2r.bmp	0	1	+	0	6	C2r.bmp	492	1	blank2r.bmp	786	1	HLST	786	1	blank2r.bmp	866	5	gegner	866	1	!	1227	1	!	-1	0	0	0	0	0	0	0	0	0	0	0	0	0	0	0	0	0	0	0	0	0	0	0	0	0	0	0
062618	16:40:44	5.0.12.0	108	associated	Rpleas_acq	Same	Rpleas	Amasked	CS_A	2pleas	acq_pleas_masked	acq45_masked	5	30	400	1	300	300	0	0	421	46	0	0	0	0	0	1	blank2r.bmp	0	1	+	0	1	B1r.bmp	492	1	blank2r.bmp	786	1	DJMR	786	1	blank2r.bmp	866	3	frieden	866	1	!	1227	1	!	1315	0	0	0	0	0	0	0	0	0	0	0	0	0	0	0	0	0	0	0	0	0	0	0	0	0	0	0
062618	16:40:44	5.0.12.0	108	associated	Rpleas_acq	Same	Rpleas	Amasked	CS_A	2pleas	acq_unple_masked	acq45_masked	5	31	400	0	300	300	0	0	570	46	0	1	0	0	0	1	blank2r.bmp	0	1	+	0	3	B3r.bmp	492	1	blank2r.bmp	786	1	HLST	786	1	blank2r.bmp	866	3	narr	866	1	!	1227	1	!	-1	0	0	0	0	0	0	0	0	0	0	0	0	0	0	0	0	0	0	0	0	0	0	0	0	0	0	0
062618	16:40:44	5.0.12.0	108	associated	Rpleas_acq	Same	Rpleas	Amasked	CS_A	2pleas	acq_pleas_masked	acq45_masked	5	32	400	1	300	300	0	0	445	50	0	1	0	0	0	1	blank2r.bmp	0	1	+	0	8	C4r.bmp	492	1	blank2r.bmp	786	1	DJMR	786	1	blank2r.bmp	866	6	erfinder	866	1	!	1227	1	!	1339	0	0	0	0	0	0	0	0	0	0	0	0	0	0	0	0	0	0	0	0	0	0	0	0	0	0	0
062618	16:40:44	5.0.12.0	108	associated	Rpleas_acq	Same	Rpleas	Amasked	CS_A	2pleas	AMP_CSunple	AMP1	6	1	0	0	300	300	0	0	6474	46	0	1	0	0	0	1	blank2r.bmp	0	1	HLST	0	1	blank2r.bmp	79	31	pic31.bmp	79	1	whitenoise.bmp	186	0	0	0	0	0	0	0	0	0	0	0	0	0	0	0	0	0	0	0	0	0	0	0	0	0	0	0	0	0	0	0	0	0	0	0	0	0	0	0
062618	16:40:44	5.0.12.0	108	associated	Rpleas_acq	Same	Rpleas	Amasked	CS_A	2pleas	AMP_CSunple	AMP1	6	2	0	0	300	300	0	0	1543	46	0	1	0	0	0	1	blank2r.bmp	0	1	HLST	0	1	blank2r.bmp	79	65	pic65.bmp	79	1	whitenoise.bmp	186	0	0	0	0	0	0	0	0	0	0	0	0	0	0	0	0	0	0	0	0	0	0	0	0	0	0	0	0	0	0	0	0	0	0	0	0	0	0	0
062618	16:40:44	5.0.12.0	108	associated	Rpleas_acq	Same	Rpleas	Amasked	CS_A	2pleas	AMP_CSpleas	AMP1	6	3	0	0	300	300	0	0	3914	46	0	0	0	0	0	1	blank2r.bmp	0	1	DJMR	0	1	blank2r.bmp	79	54	pic54.bmp	79	1	whitenoise.bmp	186	0	0	0	0	0	0	0	0	0	0	0	0	0	0	0	0	0	0	0	0	0	0	0	0	0	0	0	0	0	0	0	0	0	0	0	0	0	0	0
062618	16:40:44	5.0.12.0	108	associated	Rpleas_acq	Same	Rpleas	Amasked	CS_A	2pleas	AMP_CSpleas	AMP1	6	4	0	0	300	300	0	0	1752	46	0	0	0	0	0	1	blank2r.bmp	0	1	DJMR	0	1	blank2r.bmp	79	43	pic43.bmp	79	1	whitenoise.bmp	186	0	0	0	0	0	0	0	0	0	0	0	0	0	0	0	0	0	0	0	0	0	0	0	0	0	0	0	0	0	0	0	0	0	0	0	0	0	0	0
062618	16:40:44	5.0.12.0	108	associated	Rpleas_acq	Same	Rpleas	Amasked	CS_A	2pleas	AMP_CSpleas	AMP1	6	5	0	0	300	300	0	0	1209	46	0	0	0	0	0	1	blank2r.bmp	0	1	DJMR	0	1	blank2r.bmp	79	16	pic16.bmp	79	1	whitenoise.bmp	186	0	0	0	0	0	0	0	0	0	0	0	0	0	0	0	0	0	0	0	0	0	0	0	0	0	0	0	0	0	0	0	0	0	0	0	0	0	0	0
062618	16:40:44	5.0.12.0	108	associated	Rpleas_acq	Same	Rpleas	Amasked	CS_A	2pleas	AMP_CSpleas	AMP1	6	6	0	0	300	300	0	0	1344	46	0	0	0	0	0	1	blank2r.bmp	0	1	DJMR	0	1	blank2r.bmp	79	57	pic57.bmp	79	1	whitenoise.bmp	186	0	0	0	0	0	0	0	0	0	0	0	0	0	0	0	0	0	0	0	0	0	0	0	0	0	0	0	0	0	0	0	0	0	0	0	0	0	0	0
062618	16:40:44	5.0.12.0	108	associated	Rpleas_acq	Same	Rpleas	Amasked	CS_A	2pleas	AMP_CSunple	AMP1	6	7	0	0	300	300	0	0	893	50	0	0	0	0	0	1	blank2r.bmp	0	1	HLST	0	1	blank2r.bmp	79	79	pic79.bmp	79	1	whitenoise.bmp	186	0	0	0	0	0	0	0	0	0	0	0	0	0	0	0	0	0	0	0	0	0	0	0	0	0	0	0	0	0	0	0	0	0	0	0	0	0	0	0
062618	16:40:44	5.0.12.0	108	associated	Rpleas_acq	Same	Rpleas	Amasked	CS_A	2pleas	AMP_CSunple	AMP1	6	8	0	0	300	300	0	0	918	50	0	0	0	0	0	1	blank2r.bmp	0	1	HLST	0	1	blank2r.bmp	79	67	pic67.bmp	79	1	whitenoise.bmp	186	0	0	0	0	0	0	0	0	0	0	0	0	0	0	0	0	0	0	0	0	0	0	0	0	0	0	0	0	0	0	0	0	0	0	0	0	0	0	0
062618	16:40:44	5.0.12.0	108	associated	Rpleas_acq	Same	Rpleas	Amasked	CS_A	2pleas	AMP_CSunple	AMP1	6	9	0	0	300	300	0	0	924	50	0	0	0	0	0	1	blank2r.bmp	0	1	HLST	0	1	blank2r.bmp	79	9	pic9.bmp	79	1	whitenoise.bmp	186	0	0	0	0	0	0	0	0	0	0	0	0	0	0	0	0	0	0	0	0	0	0	0	0	0	0	0	0	0	0	0	0	0	0	0	0	0	0	0
062618	16:40:44	5.0.12.0	108	associated	Rpleas_acq	Same	Rpleas	Amasked	CS_A	2pleas	AMP_CSpleas	AMP1	6	10	0	0	300	300	0	0	1122	46	0	0	0	0	0	1	blank2r.bmp	0	1	DJMR	0	1	blank2r.bmp	79	69	pic69.bmp	79	1	whitenoise.bmp	186	0	0	0	0	0	0	0	0	0	0	0	0	0	0	0	0	0	0	0	0	0	0	0	0	0	0	0	0	0	0	0	0	0	0	0	0	0	0	0
062618	16:40:44	5.0.12.0	108	associated	Rpleas_acq	Same	Rpleas	Amasked	CS_A	2pleas	AMP_CSunple	AMP1	6	11	0	0	300	300	0	0	806	46	0	1	0	0	0	1	blank2r.bmp	0	1	HLST	0	1	blank2r.bmp	79	28	pic28.bmp	79	1	whitenoise.bmp	186	0	0	0	0	0	0	0	0	0	0	0	0	0	0	0	0	0	0	0	0	0	0	0	0	0	0	0	0	0	0	0	0	0	0	0	0	0	0	0
062618	16:40:44	5.0.12.0	108	associated	Rpleas_acq	Same	Rpleas	Amasked	CS_A	2pleas	AMP_CSpleas	AMP1	6	12	0	0	300	300	0	0	700	50	0	1	0	0	0	1	blank2r.bmp	0	1	DJMR	0	1	blank2r.bmp	79	98	pic98.bmp	79	1	whitenoise.bmp	186	0	0	0	0	0	0	0	0	0	0	0	0	0	0	0	0	0	0	0	0	0	0	0	0	0	0	0	0	0	0	0	0	0	0	0	0	0	0	0
062618	16:40:44	5.0.12.0	108	associated	Rpleas_acq	Same	Rpleas	Amasked	CS_A	2pleas	AMP_CSpleas	AMP1	6	13	0	0	300	300	0	0	916	50	0	1	0	0	0	1	blank2r.bmp	0	1	DJMR	0	1	blank2r.bmp	79	11	pic11.bmp	79	1	whitenoise.bmp	186	0	0	0	0	0	0	0	0	0	0	0	0	0	0	0	0	0	0	0	0	0	0	0	0	0	0	0	0	0	0	0	0	0	0	0	0	0	0	0
062618	16:40:44	5.0.12.0	108	associated	Rpleas_acq	Same	Rpleas	Amasked	CS_A	2pleas	AMP_CSunple	AMP1	6	14	0	0	300	300	0	0	618	46	0	1	0	0	0	1	blank2r.bmp	0	1	HLST	0	1	blank2r.bmp	79	8	pic8.bmp	79	1	whitenoise.bmp	186	0	0	0	0	0	0	0	0	0	0	0	0	0	0	0	0	0	0	0	0	0	0	0	0	0	0	0	0	0	0	0	0	0	0	0	0	0	0	0
062618	16:40:44	5.0.12.0	108	associated	Rpleas_acq	Same	Rpleas	Amasked	CS_A	2pleas	AMP_CSunple	AMP1	6	15	0	0	300	300	0	0	1497	46	0	1	0	0	0	1	blank2r.bmp	0	1	HLST	0	1	blank2r.bmp	79	94	pic94.bmp	79	1	whitenoise.bmp	186	0	0	0	0	0	0	0	0	0	0	0	0	0	0	0	0	0	0	0	0	0	0	0	0	0	0	0	0	0	0	0	0	0	0	0	0	0	0	0
062618	16:40:44	5.0.12.0	108	associated	Rpleas_acq	Same	Rpleas	Amasked	CS_A	2pleas	AMP_CSpleas	AMP1	6	16	0	0	300	300	0	0	780	46	0	0	0	0	0	1	blank2r.bmp	0	1	DJMR	0	1	blank2r.bmp	79	15	pic15.bmp	79	1	whitenoise.bmp	186	0	0	0	0	0	0	0	0	0	0	0	0	0	0	0	0	0	0	0	0	0	0	0	0	0	0	0	0	0	0	0	0	0	0	0	0	0	0	0
062618	16:40:44	5.0.12.0	108	associated	Rpleas_acq	Same	Rpleas	Amasked	CS_A	2pleas	AMP_CSpleas	AMP1	6	17	0	0	300	300	0	0	1156	46	0	0	0	0	0	1	blank2r.bmp	0	1	DJMR	0	1	blank2r.bmp	79	58	pic58.bmp	79	1	whitenoise.bmp	186	0	0	0	0	0	0	0	0	0	0	0	0	0	0	0	0	0	0	0	0	0	0	0	0	0	0	0	0	0	0	0	0	0	0	0	0	0	0	0
062618	16:40:44	5.0.12.0	108	associated	Rpleas_acq	Same	Rpleas	Amasked	CS_A	2pleas	AMP_CSunple	AMP1	6	18	0	0	300	300	0	0	921	50	0	0	0	0	0	1	blank2r.bmp	0	1	HLST	0	1	blank2r.bmp	79	3	pic3.bmp	79	1	whitenoise.bmp	186	0	0	0	0	0	0	0	0	0	0	0	0	0	0	0	0	0	0	0	0	0	0	0	0	0	0	0	0	0	0	0	0	0	0	0	0	0	0	0
062618	16:40:44	5.0.12.0	108	associated	Rpleas_acq	Same	Rpleas	Amasked	CS_A	2pleas	AMP_CSunple	AMP1	6	19	0	0	300	300	0	0	732	50	0	0	0	0	0	1	blank2r.bmp	0	1	HLST	0	1	blank2r.bmp	79	46	pic46.bmp	79	1	whitenoise.bmp	186	0	0	0	0	0	0	0	0	0	0	0	0	0	0	0	0	0	0	0	0	0	0	0	0	0	0	0	0	0	0	0	0	0	0	0	0	0	0	0
062618	16:40:44	5.0.12.0	108	associated	Rpleas_acq	Same	Rpleas	Amasked	CS_A	2pleas	AMP_CSunple	AMP1	6	20	0	0	300	300	0	0	865	50	0	0	0	0	0	1	blank2r.bmp	0	1	HLST	0	1	blank2r.bmp	79	70	pic70.bmp	79	1	whitenoise.bmp	186	0	0	0	0	0	0	0	0	0	0	0	0	0	0	0	0	0	0	0	0	0	0	0	0	0	0	0	0	0	0	0	0	0	0	0	0	0	0	0
062618	16:40:44	5.0.12.0	108	associated	Rpleas_acq	Same	Rpleas	Amasked	CS_A	2pleas	AMP_CSpleas	AMP1	6	21	0	0	300	300	0	0	845	50	0	1	0	0	0	1	blank2r.bmp	0	1	DJMR	0	1	blank2r.bmp	79	97	pic97.bmp	79	1	whitenoise.bmp	186	0	0	0	0	0	0	0	0	0	0	0	0	0	0	0	0	0	0	0	0	0	0	0	0	0	0	0	0	0	0	0	0	0	0	0	0	0	0	0
062618	16:40:44	5.0.12.0	108	associated	Rpleas_acq	Same	Rpleas	Amasked	CS_A	2pleas	AMP_CSunple	AMP1	6	22	0	0	300	300	0	0	1410	46	0	1	0	0	0	1	blank2r.bmp	0	1	HLST	0	1	blank2r.bmp	79	2	pic2.bmp	79	1	whitenoise.bmp	186	0	0	0	0	0	0	0	0	0	0	0	0	0	0	0	0	0	0	0	0	0	0	0	0	0	0	0	0	0	0	0	0	0	0	0	0	0	0	0
062618	16:40:44	5.0.12.0	108	associated	Rpleas_acq	Same	Rpleas	Amasked	CS_A	2pleas	AMP_CSunple	AMP1	6	23	0	0	300	300	0	0	746	50	0	0	0	0	0	1	blank2r.bmp	0	1	HLST	0	1	blank2r.bmp	79	82	pic82.bmp	79	1	whitenoise.bmp	186	0	0	0	0	0	0	0	0	0	0	0	0	0	0	0	0	0	0	0	0	0	0	0	0	0	0	0	0	0	0	0	0	0	0	0	0	0	0	0
062618	16:40:44	5.0.12.0	108	associated	Rpleas_acq	Same	Rpleas	Amasked	CS_A	2pleas	AMP_CSunple	AMP1	6	24	0	0	300	300	0	0	1557	50	0	0	0	0	0	1	blank2r.bmp	0	1	HLST	0	1	blank2r.bmp	79	74	pic74.bmp	79	1	whitenoise.bmp	186	0	0	0	0	0	0	0	0	0	0	0	0	0	0	0	0	0	0	0	0	0	0	0	0	0	0	0	0	0	0	0	0	0	0	0	0	0	0	0
062618	16:40:44	5.0.12.0	108	associated	Rpleas_acq	Same	Rpleas	Amasked	CS_A	2pleas	AMP_CSpleas	AMP1	6	25	0	0	300	300	0	0	750	46	0	0	0	0	0	1	blank2r.bmp	0	1	DJMR	0	1	blank2r.bmp	79	24	pic24.bmp	79	1	whitenoise.bmp	186	0	0	0	0	0	0	0	0	0	0	0	0	0	0	0	0	0	0	0	0	0	0	0	0	0	0	0	0	0	0	0	0	0	0	0	0	0	0	0
062618	16:40:44	5.0.12.0	108	associated	Rpleas_acq	Same	Rpleas	Amasked	CS_A	2pleas	AMP_CSunple	AMP1	6	26	0	0	300	300	0	0	864	50	0	0	0	0	0	1	blank2r.bmp	0	1	HLST	0	1	blank2r.bmp	79	60	pic60.bmp	79	1	whitenoise.bmp	186	0	0	0	0	0	0	0	0	0	0	0	0	0	0	0	0	0	0	0	0	0	0	0	0	0	0	0	0	0	0	0	0	0	0	0	0	0	0	0
062618	16:40:44	5.0.12.0	108	associated	Rpleas_acq	Same	Rpleas	Amasked	CS_A	2pleas	AMP_CSunple	AMP1	6	27	0	0	300	300	0	0	891	46	0	1	0	0	0	1	blank2r.bmp	0	1	HLST	0	1	blank2r.bmp	79	30	pic30.bmp	79	1	whitenoise.bmp	186	0	0	0	0	0	0	0	0	0	0	0	0	0	0	0	0	0	0	0	0	0	0	0	0	0	0	0	0	0	0	0	0	0	0	0	0	0	0	0
062618	16:40:44	5.0.12.0	108	associated	Rpleas_acq	Same	Rpleas	Amasked	CS_A	2pleas	AMP_CSpleas	AMP1	6	28	0	0	300	300	0	0	889	50	0	1	0	0	0	1	blank2r.bmp	0	1	DJMR	0	1	blank2r.bmp	79	99	pic99.bmp	79	1	whitenoise.bmp	186	0	0	0	0	0	0	0	0	0	0	0	0	0	0	0	0	0	0	0	0	0	0	0	0	0	0	0	0	0	0	0	0	0	0	0	0	0	0	0
062618	16:40:44	5.0.12.0	108	associated	Rpleas_acq	Same	Rpleas	Amasked	CS_A	2pleas	AMP_CSpleas	AMP1	6	29	0	0	300	300	0	0	1183	46	0	0	0	0	0	1	blank2r.bmp	0	1	DJMR	0	1	blank2r.bmp	79	84	pic84.bmp	79	1	whitenoise.bmp	186	0	0	0	0	0	0	0	0	0	0	0	0	0	0	0	0	0	0	0	0	0	0	0	0	0	0	0	0	0	0	0	0	0	0	0	0	0	0	0
062618	16:40:44	5.0.12.0	108	associated	Rpleas_acq	Same	Rpleas	Amasked	CS_A	2pleas	AMP_CSpleas	AMP1	6	30	0	0	300	300	0	0	881	50	0	1	0	0	0	1	blank2r.bmp	0	1	DJMR	0	1	blank2r.bmp	79	23	pic23.bmp	79	1	whitenoise.bmp	186	0	0	0	0	0	0	0	0	0	0	0	0	0	0	0	0	0	0	0	0	0	0	0	0	0	0	0	0	0	0	0	0	0	0	0	0	0	0	0
062618	16:40:44	5.0.12.0	108	associated	Rpleas_acq	Same	Rpleas	Amasked	CS_A	2pleas	AMP_CSpleas	AMP1	6	31	0	0	300	300	0	0	767	46	0	0	0	0	0	1	blank2r.bmp	0	1	DJMR	0	1	blank2r.bmp	79	44	pic44.bmp	79	1	whitenoise.bmp	186	0	0	0	0	0	0	0	0	0	0	0	0	0	0	0	0	0	0	0	0	0	0	0	0	0	0	0	0	0	0	0	0	0	0	0	0	0	0	0
062618	16:40:44	5.0.12.0	108	associated	Rpleas_acq	Same	Rpleas	Amasked	CS_A	2pleas	AMP_CSunple	AMP1	6	32	0	0	300	300	0	0	876	46	0	1	0	0	0	1	blank2r.bmp	0	1	HLST	0	1	blank2r.bmp	79	42	pic42.bmp	79	1	whitenoise.bmp	186	0	0	0	0	0	0	0	0	0	0	0	0	0	0	0	0	0	0	0	0	0	0	0	0	0	0	0	0	0	0	0	0	0	0	0	0	0	0	0
062618	16:40:44	5.0.12.0	108	associated	Rpleas_acq	Same	Rpleas	Amasked	CS_A	2pleas	AMP_CSpleas	AMP1	6	33	0	0	300	300	0	0	706	50	0	1	0	0	0	1	blank2r.bmp	0	1	DJMR	0	1	blank2r.bmp	79	73	pic73.bmp	79	1	whitenoise.bmp	186	0	0	0	0	0	0	0	0	0	0	0	0	0	0	0	0	0	0	0	0	0	0	0	0	0	0	0	0	0	0	0	0	0	0	0	0	0	0	0
062618	16:40:44	5.0.12.0	108	associated	Rpleas_acq	Same	Rpleas	Amasked	CS_A	2pleas	AMP_CSpleas	AMP1	6	34	0	0	300	300	0	0	1010	50	0	1	0	0	0	1	blank2r.bmp	0	1	DJMR	0	1	blank2r.bmp	79	93	pic93.bmp	79	1	whitenoise.bmp	186	0	0	0	0	0	0	0	0	0	0	0	0	0	0	0	0	0	0	0	0	0	0	0	0	0	0	0	0	0	0	0	0	0	0	0	0	0	0	0
062618	16:40:44	5.0.12.0	108	associated	Rpleas_acq	Same	Rpleas	Amasked	CS_A	2pleas	AMP_CSunple	AMP1	6	35	0	0	300	300	0	0	1009	50	0	0	0	0	0	1	blank2r.bmp	0	1	HLST	0	1	blank2r.bmp	79	68	pic68.bmp	79	1	whitenoise.bmp	186	0	0	0	0	0	0	0	0	0	0	0	0	0	0	0	0	0	0	0	0	0	0	0	0	0	0	0	0	0	0	0	0	0	0	0	0	0	0	0
062618	16:40:44	5.0.12.0	108	associated	Rpleas_acq	Same	Rpleas	Amasked	CS_A	2pleas	AMP_CSunple	AMP1	6	36	0	0	300	300	0	0	983	50	0	0	0	0	0	1	blank2r.bmp	0	1	HLST	0	1	blank2r.bmp	79	88	pic88.bmp	79	1	whitenoise.bmp	186	0	0	0	0	0	0	0	0	0	0	0	0	0	0	0	0	0	0	0	0	0	0	0	0	0	0	0	0	0	0	0	0	0	0	0	0	0	0	0
062618	16:40:44	5.0.12.0	108	associated	Rpleas_acq	Same	Rpleas	Amasked	CS_A	2pleas	AMP_CSunple	AMP1	6	37	0	0	300	300	0	0	584	46	0	1	0	0	0	1	blank2r.bmp	0	1	HLST	0	1	blank2r.bmp	79	56	pic56.bmp	79	1	whitenoise.bmp	186	0	0	0	0	0	0	0	0	0	0	0	0	0	0	0	0	0	0	0	0	0	0	0	0	0	0	0	0	0	0	0	0	0	0	0	0	0	0	0
062618	16:40:44	5.0.12.0	108	associated	Rpleas_acq	Same	Rpleas	Amasked	CS_A	2pleas	AMP_CSpleas	AMP1	6	38	0	0	300	300	0	0	1392	50	0	1	0	0	0	1	blank2r.bmp	0	1	DJMR	0	1	blank2r.bmp	79	95	pic95.bmp	79	1	whitenoise.bmp	186	0	0	0	0	0	0	0	0	0	0	0	0	0	0	0	0	0	0	0	0	0	0	0	0	0	0	0	0	0	0	0	0	0	0	0	0	0	0	0
062618	16:40:44	5.0.12.0	108	associated	Rpleas_acq	Same	Rpleas	Amasked	CS_A	2pleas	AMP_CSpleas	AMP1	6	39	0	0	300	300	0	0	925	46	0	0	0	0	0	1	blank2r.bmp	0	1	DJMR	0	1	blank2r.bmp	79	78	pic78.bmp	79	1	whitenoise.bmp	186	0	0	0	0	0	0	0	0	0	0	0	0	0	0	0	0	0	0	0	0	0	0	0	0	0	0	0	0	0	0	0	0	0	0	0	0	0	0	0
062618	16:40:44	5.0.12.0	108	associated	Rpleas_acq	Same	Rpleas	Amasked	CS_A	2pleas	AMP_CSunple	AMP1	6	40	0	0	300	300	0	0	1627	46	0	1	0	0	0	1	blank2r.bmp	0	1	HLST	0	1	blank2r.bmp	79	41	pic41.bmp	79	1	whitenoise.bmp	186	0	0	0	0	0	0	0	0	0	0	0	0	0	0	0	0	0	0	0	0	0	0	0	0	0	0	0	0	0	0	0	0	0	0	0	0	0	0	0
062618	16:40:44	5.0.12.0	108	associated	Rpleas_acq	Same	Rpleas	Amasked	CS_A	2pleas	AMP_CSunple	AMP1	6	41	0	0	300	300	0	0	793	50	0	0	0	0	0	1	blank2r.bmp	0	1	HLST	0	1	blank2r.bmp	79	22	pic22.bmp	79	1	whitenoise.bmp	186	0	0	0	0	0	0	0	0	0	0	0	0	0	0	0	0	0	0	0	0	0	0	0	0	0	0	0	0	0	0	0	0	0	0	0	0	0	0	0
062618	16:40:44	5.0.12.0	108	associated	Rpleas_acq	Same	Rpleas	Amasked	CS_A	2pleas	AMP_CSpleas	AMP1	6	42	0	0	300	300	0	0	998	46	0	0	0	0	0	1	blank2r.bmp	0	1	DJMR	0	1	blank2r.bmp	79	50	pic50.bmp	79	1	whitenoise.bmp	186	0	0	0	0	0	0	0	0	0	0	0	0	0	0	0	0	0	0	0	0	0	0	0	0	0	0	0	0	0	0	0	0	0	0	0	0	0	0	0
062618	16:40:44	5.0.12.0	108	associated	Rpleas_acq	Same	Rpleas	Amasked	CS_A	2pleas	AMP_CSunple	AMP1	6	43	0	0	300	300	0	0	1365	50	0	0	0	0	0	1	blank2r.bmp	0	1	HLST	0	1	blank2r.bmp	79	87	pic87.bmp	79	1	whitenoise.bmp	186	0	0	0	0	0	0	0	0	0	0	0	0	0	0	0	0	0	0	0	0	0	0	0	0	0	0	0	0	0	0	0	0	0	0	0	0	0	0	0
062618	16:40:44	5.0.12.0	108	associated	Rpleas_acq	Same	Rpleas	Amasked	CS_A	2pleas	AMP_CSunple	AMP1	6	44	0	0	300	300	0	0	756	50	0	0	0	0	0	1	blank2r.bmp	0	1	HLST	0	1	blank2r.bmp	79	29	pic29.bmp	79	1	whitenoise.bmp	186	0	0	0	0	0	0	0	0	0	0	0	0	0	0	0	0	0	0	0	0	0	0	0	0	0	0	0	0	0	0	0	0	0	0	0	0	0	0	0
062618	16:40:44	5.0.12.0	108	associated	Rpleas_acq	Same	Rpleas	Amasked	CS_A	2pleas	AMP_CSpleas	AMP1	6	45	0	0	300	300	0	0	791	50	0	1	0	0	0	1	blank2r.bmp	0	1	DJMR	0	1	blank2r.bmp	79	35	pic35.bmp	79	1	whitenoise.bmp	186	0	0	0	0	0	0	0	0	0	0	0	0	0	0	0	0	0	0	0	0	0	0	0	0	0	0	0	0	0	0	0	0	0	0	0	0	0	0	0
062618	16:40:44	5.0.12.0	108	associated	Rpleas_acq	Same	Rpleas	Amasked	CS_A	2pleas	AMP_CSpleas	AMP1	6	46	0	0	300	300	0	0	1024	50	0	1	0	0	0	1	blank2r.bmp	0	1	DJMR	0	1	blank2r.bmp	79	37	pic37.bmp	79	1	whitenoise.bmp	186	0	0	0	0	0	0	0	0	0	0	0	0	0	0	0	0	0	0	0	0	0	0	0	0	0	0	0	0	0	0	0	0	0	0	0	0	0	0	0
062618	16:40:44	5.0.12.0	108	associated	Rpleas_acq	Same	Rpleas	Amasked	CS_A	2pleas	AMP_CSpleas	AMP1	6	47	0	0	300	300	0	0	507	46	0	0	0	0	0	1	blank2r.bmp	0	1	DJMR	0	1	blank2r.bmp	79	63	pic63.bmp	79	1	whitenoise.bmp	186	0	0	0	0	0	0	0	0	0	0	0	0	0	0	0	0	0	0	0	0	0	0	0	0	0	0	0	0	0	0	0	0	0	0	0	0	0	0	0
062618	16:40:44	5.0.12.0	108	associated	Rpleas_acq	Same	Rpleas	Amasked	CS_A	2pleas	AMP_CSpleas	AMP1	6	48	0	0	300	300	0	0	819	46	0	0	0	0	0	1	blank2r.bmp	0	1	DJMR	0	1	blank2r.bmp	79	19	pic19.bmp	79	1	whitenoise.bmp	186	0	0	0	0	0	0	0	0	0	0	0	0	0	0	0	0	0	0	0	0	0	0	0	0	0	0	0	0	0	0	0	0	0	0	0	0	0	0	0
062618	16:40:44	5.0.12.0	108	associated	Rpleas_acq	Same	Rpleas	Amasked	CS_A	2pleas	AMP_CSunple	AMP1	6	49	0	0	300	300	0	0	627	50	0	0	0	0	0	1	blank2r.bmp	0	1	HLST	0	1	blank2r.bmp	79	36	pic36.bmp	79	1	whitenoise.bmp	186	0	0	0	0	0	0	0	0	0	0	0	0	0	0	0	0	0	0	0	0	0	0	0	0	0	0	0	0	0	0	0	0	0	0	0	0	0	0	0
062618	16:40:44	5.0.12.0	108	associated	Rpleas_acq	Same	Rpleas	Amasked	CS_A	2pleas	AMP_CSpleas	AMP1	6	50	0	0	300	300	0	0	661	50	0	1	0	0	0	1	blank2r.bmp	0	1	DJMR	0	1	blank2r.bmp	79	32	pic32.bmp	79	1	whitenoise.bmp	186	0	0	0	0	0	0	0	0	0	0	0	0	0	0	0	0	0	0	0	0	0	0	0	0	0	0	0	0	0	0	0	0	0	0	0	0	0	0	0
062618	16:40:44	5.0.12.0	108	associated	Rpleas_acq	Same	Rpleas	Amasked	CS_A	2pleas	AMP_CSunple	AMP2	7	1	0	0	300	300	0	0	1611	46	0	1	0	0	0	1	blank2r.bmp	0	1	HLST	0	1	blank2r.bmp	79	80	pic80.bmp	79	1	whitenoise.bmp	186	0	0	0	0	0	0	0	0	0	0	0	0	0	0	0	0	0	0	0	0	0	0	0	0	0	0	0	0	0	0	0	0	0	0	0	0	0	0	0
062618	16:40:44	5.0.12.0	108	associated	Rpleas_acq	Same	Rpleas	Amasked	CS_A	2pleas	AMP_CSunple	AMP2	7	2	0	0	300	300	0	0	572	50	0	0	0	0	0	1	blank2r.bmp	0	1	HLST	0	1	blank2r.bmp	79	39	pic39.bmp	79	1	whitenoise.bmp	186	0	0	0	0	0	0	0	0	0	0	0	0	0	0	0	0	0	0	0	0	0	0	0	0	0	0	0	0	0	0	0	0	0	0	0	0	0	0	0
062618	16:40:44	5.0.12.0	108	associated	Rpleas_acq	Same	Rpleas	Amasked	CS_A	2pleas	AMP_CSpleas	AMP2	7	3	0	0	300	300	0	0	867	50	0	1	0	0	0	1	blank2r.bmp	0	1	DJMR	0	1	blank2r.bmp	79	86	pic86.bmp	79	1	whitenoise.bmp	186	0	0	0	0	0	0	0	0	0	0	0	0	0	0	0	0	0	0	0	0	0	0	0	0	0	0	0	0	0	0	0	0	0	0	0	0	0	0	0
062618	16:40:44	5.0.12.0	108	associated	Rpleas_acq	Same	Rpleas	Amasked	CS_A	2pleas	AMP_CSpleas	AMP2	7	4	0	0	300	300	0	0	710	46	0	0	0	0	0	1	blank2r.bmp	0	1	DJMR	0	1	blank2r.bmp	79	61	pic61.bmp	79	1	whitenoise.bmp	186	0	0	0	0	0	0	0	0	0	0	0	0	0	0	0	0	0	0	0	0	0	0	0	0	0	0	0	0	0	0	0	0	0	0	0	0	0	0	0
062618	16:40:44	5.0.12.0	108	associated	Rpleas_acq	Same	Rpleas	Amasked	CS_A	2pleas	AMP_CSpleas	AMP2	7	5	0	0	300	300	0	0	721	50	0	1	0	0	0	1	blank2r.bmp	0	1	DJMR	0	1	blank2r.bmp	79	72	pic72.bmp	79	1	whitenoise.bmp	186	0	0	0	0	0	0	0	0	0	0	0	0	0	0	0	0	0	0	0	0	0	0	0	0	0	0	0	0	0	0	0	0	0	0	0	0	0	0	0
062618	16:40:44	5.0.12.0	108	associated	Rpleas_acq	Same	Rpleas	Amasked	CS_A	2pleas	AMP_CSunple	AMP2	7	6	0	0	300	300	0	0	782	50	0	0	0	0	0	1	blank2r.bmp	0	1	HLST	0	1	blank2r.bmp	79	13	pic13.bmp	79	1	whitenoise.bmp	186	0	0	0	0	0	0	0	0	0	0	0	0	0	0	0	0	0	0	0	0	0	0	0	0	0	0	0	0	0	0	0	0	0	0	0	0	0	0	0
062618	16:40:44	5.0.12.0	108	associated	Rpleas_acq	Same	Rpleas	Amasked	CS_A	2pleas	AMP_CSunple	AMP2	7	7	0	0	300	300	0	0	1279	46	0	1	0	0	0	1	blank2r.bmp	0	1	HLST	0	1	blank2r.bmp	79	51	pic51.bmp	79	1	whitenoise.bmp	186	0	0	0	0	0	0	0	0	0	0	0	0	0	0	0	0	0	0	0	0	0	0	0	0	0	0	0	0	0	0	0	0	0	0	0	0	0	0	0
062618	16:40:44	5.0.12.0	108	associated	Rpleas_acq	Same	Rpleas	Amasked	CS_A	2pleas	AMP_CSunple	AMP2	7	8	0	0	300	300	0	0	475	50	0	0	0	0	0	1	blank2r.bmp	0	1	HLST	0	1	blank2r.bmp	79	77	pic77.bmp	79	1	whitenoise.bmp	186	0	0	0	0	0	0	0	0	0	0	0	0	0	0	0	0	0	0	0	0	0	0	0	0	0	0	0	0	0	0	0	0	0	0	0	0	0	0	0
062618	16:40:44	5.0.12.0	108	associated	Rpleas_acq	Same	Rpleas	Amasked	CS_A	2pleas	AMP_CSpleas	AMP2	7	9	0	0	300	300	0	0	997	46	0	0	0	0	0	1	blank2r.bmp	0	1	DJMR	0	1	blank2r.bmp	79	7	pic7.bmp	79	1	whitenoise.bmp	186	0	0	0	0	0	0	0	0	0	0	0	0	0	0	0	0	0	0	0	0	0	0	0	0	0	0	0	0	0	0	0	0	0	0	0	0	0	0	0
062618	16:40:44	5.0.12.0	108	associated	Rpleas_acq	Same	Rpleas	Amasked	CS_A	2pleas	AMP_CSunple	AMP2	7	10	0	0	300	300	0	0	761	46	0	1	0	0	0	1	blank2r.bmp	0	1	HLST	0	1	blank2r.bmp	79	34	pic34.bmp	79	1	whitenoise.bmp	186	0	0	0	0	0	0	0	0	0	0	0	0	0	0	0	0	0	0	0	0	0	0	0	0	0	0	0	0	0	0	0	0	0	0	0	0	0	0	0
062618	16:40:44	5.0.12.0	108	associated	Rpleas_acq	Same	Rpleas	Amasked	CS_A	2pleas	AMP_CSunple	AMP2	7	11	0	0	300	300	0	0	742	50	0	0	0	0	0	1	blank2r.bmp	0	1	HLST	0	1	blank2r.bmp	79	12	pic12.bmp	79	1	whitenoise.bmp	186	0	0	0	0	0	0	0	0	0	0	0	0	0	0	0	0	0	0	0	0	0	0	0	0	0	0	0	0	0	0	0	0	0	0	0	0	0	0	0
062618	16:40:44	5.0.12.0	108	associated	Rpleas_acq	Same	Rpleas	Amasked	CS_A	2pleas	AMP_CSunple	AMP2	7	12	0	0	300	300	0	0	657	50	0	0	0	0	0	1	blank2r.bmp	0	1	HLST	0	1	blank2r.bmp	79	92	pic92.bmp	79	1	whitenoise.bmp	186	0	0	0	0	0	0	0	0	0	0	0	0	0	0	0	0	0	0	0	0	0	0	0	0	0	0	0	0	0	0	0	0	0	0	0	0	0	0	0
062618	16:40:44	5.0.12.0	108	associated	Rpleas_acq	Same	Rpleas	Amasked	CS_A	2pleas	AMP_CSunple	AMP2	7	13	0	0	300	300	0	0	577	46	0	1	0	0	0	1	blank2r.bmp	0	1	HLST	0	1	blank2r.bmp	79	89	pic89.bmp	79	1	whitenoise.bmp	186	0	0	0	0	0	0	0	0	0	0	0	0	0	0	0	0	0	0	0	0	0	0	0	0	0	0	0	0	0	0	0	0	0	0	0	0	0	0	0
062618	16:40:44	5.0.12.0	108	associated	Rpleas_acq	Same	Rpleas	Amasked	CS_A	2pleas	AMP_CSunple	AMP2	7	14	0	0	300	300	0	0	632	50	0	0	0	0	0	1	blank2r.bmp	0	1	HLST	0	1	blank2r.bmp	79	38	pic38.bmp	79	1	whitenoise.bmp	186	0	0	0	0	0	0	0	0	0	0	0	0	0	0	0	0	0	0	0	0	0	0	0	0	0	0	0	0	0	0	0	0	0	0	0	0	0	0	0
062618	16:40:44	5.0.12.0	108	associated	Rpleas_acq	Same	Rpleas	Amasked	CS_A	2pleas	AMP_CSunple	AMP2	7	15	0	0	300	300	0	0	595	50	0	0	0	0	0	1	blank2r.bmp	0	1	HLST	0	1	blank2r.bmp	79	83	pic83.bmp	79	1	whitenoise.bmp	186	0	0	0	0	0	0	0	0	0	0	0	0	0	0	0	0	0	0	0	0	0	0	0	0	0	0	0	0	0	0	0	0	0	0	0	0	0	0	0
062618	16:40:44	5.0.12.0	108	associated	Rpleas_acq	Same	Rpleas	Amasked	CS_A	2pleas	AMP_CSpleas	AMP2	7	16	0	0	300	300	0	0	776	50	0	1	0	0	0	1	blank2r.bmp	0	1	DJMR	0	1	blank2r.bmp	79	6	pic6.bmp	79	1	whitenoise.bmp	186	0	0	0	0	0	0	0	0	0	0	0	0	0	0	0	0	0	0	0	0	0	0	0	0	0	0	0	0	0	0	0	0	0	0	0	0	0	0	0
062618	16:40:44	5.0.12.0	108	associated	Rpleas_acq	Same	Rpleas	Amasked	CS_A	2pleas	AMP_CSunple	AMP2	7	17	0	0	300	300	0	0	552	46	0	1	0	0	0	1	blank2r.bmp	0	1	HLST	0	1	blank2r.bmp	79	1	pic1.bmp	79	1	whitenoise.bmp	186	0	0	0	0	0	0	0	0	0	0	0	0	0	0	0	0	0	0	0	0	0	0	0	0	0	0	0	0	0	0	0	0	0	0	0	0	0	0	0
062618	16:40:44	5.0.12.0	108	associated	Rpleas_acq	Same	Rpleas	Amasked	CS_A	2pleas	AMP_CSpleas	AMP2	7	18	0	0	300	300	0	0	850	46	0	0	0	0	0	1	blank2r.bmp	0	1	DJMR	0	1	blank2r.bmp	79	62	pic62.bmp	79	1	whitenoise.bmp	186	0	0	0	0	0	0	0	0	0	0	0	0	0	0	0	0	0	0	0	0	0	0	0	0	0	0	0	0	0	0	0	0	0	0	0	0	0	0	0
062618	16:40:44	5.0.12.0	108	associated	Rpleas_acq	Same	Rpleas	Amasked	CS_A	2pleas	AMP_CSpleas	AMP2	7	19	0	0	300	300	0	0	707	50	0	1	0	0	0	1	blank2r.bmp	0	1	DJMR	0	1	blank2r.bmp	79	71	pic71.bmp	79	1	whitenoise.bmp	186	0	0	0	0	0	0	0	0	0	0	0	0	0	0	0	0	0	0	0	0	0	0	0	0	0	0	0	0	0	0	0	0	0	0	0	0	0	0	0
062618	16:40:44	5.0.12.0	108	associated	Rpleas_acq	Same	Rpleas	Amasked	CS_A	2pleas	AMP_CSpleas	AMP2	7	20	0	0	300	300	0	0	707	50	0	1	0	0	0	1	blank2r.bmp	0	1	DJMR	0	1	blank2r.bmp	79	75	pic75.bmp	79	1	whitenoise.bmp	186	0	0	0	0	0	0	0	0	0	0	0	0	0	0	0	0	0	0	0	0	0	0	0	0	0	0	0	0	0	0	0	0	0	0	0	0	0	0	0
062618	16:40:44	5.0.12.0	108	associated	Rpleas_acq	Same	Rpleas	Amasked	CS_A	2pleas	AMP_CSpleas	AMP2	7	21	0	0	300	300	0	0	613	46	0	0	0	0	0	1	blank2r.bmp	0	1	DJMR	0	1	blank2r.bmp	79	14	pic14.bmp	79	1	whitenoise.bmp	186	0	0	0	0	0	0	0	0	0	0	0	0	0	0	0	0	0	0	0	0	0	0	0	0	0	0	0	0	0	0	0	0	0	0	0	0	0	0	0
062618	16:40:44	5.0.12.0	108	associated	Rpleas_acq	Same	Rpleas	Amasked	CS_A	2pleas	AMP_CSunple	AMP2	7	22	0	0	300	300	0	0	565	50	0	0	0	0	0	1	blank2r.bmp	0	1	HLST	0	1	blank2r.bmp	79	27	pic27.bmp	79	1	whitenoise.bmp	186	0	0	0	0	0	0	0	0	0	0	0	0	0	0	0	0	0	0	0	0	0	0	0	0	0	0	0	0	0	0	0	0	0	0	0	0	0	0	0
062618	16:40:44	5.0.12.0	108	associated	Rpleas_acq	Same	Rpleas	Amasked	CS_A	2pleas	AMP_CSpleas	AMP2	7	23	0	0	300	300	0	0	538	50	0	1	0	0	0	1	blank2r.bmp	0	1	DJMR	0	1	blank2r.bmp	79	40	pic40.bmp	79	1	whitenoise.bmp	186	0	0	0	0	0	0	0	0	0	0	0	0	0	0	0	0	0	0	0	0	0	0	0	0	0	0	0	0	0	0	0	0	0	0	0	0	0	0	0
062618	16:40:44	5.0.12.0	108	associated	Rpleas_acq	Same	Rpleas	Amasked	CS_A	2pleas	AMP_CSpleas	AMP2	7	24	0	0	300	300	0	0	673	50	0	1	0	0	0	1	blank2r.bmp	0	1	DJMR	0	1	blank2r.bmp	79	47	pic47.bmp	79	1	whitenoise.bmp	186	0	0	0	0	0	0	0	0	0	0	0	0	0	0	0	0	0	0	0	0	0	0	0	0	0	0	0	0	0	0	0	0	0	0	0	0	0	0	0
062618	16:40:44	5.0.12.0	108	associated	Rpleas_acq	Same	Rpleas	Amasked	CS_A	2pleas	AMP_CSunple	AMP2	7	25	0	0	300	300	0	0	532	50	0	0	0	0	0	1	blank2r.bmp	0	1	HLST	0	1	blank2r.bmp	79	55	pic55.bmp	79	1	whitenoise.bmp	186	0	0	0	0	0	0	0	0	0	0	0	0	0	0	0	0	0	0	0	0	0	0	0	0	0	0	0	0	0	0	0	0	0	0	0	0	0	0	0
062618	16:40:44	5.0.12.0	108	associated	Rpleas_acq	Same	Rpleas	Amasked	CS_A	2pleas	AMP_CSunple	AMP2	7	26	0	0	300	300	0	0	675	46	0	1	0	0	0	1	blank2r.bmp	0	1	HLST	0	1	blank2r.bmp	79	4	pic4.bmp	79	1	whitenoise.bmp	186	0	0	0	0	0	0	0	0	0	0	0	0	0	0	0	0	0	0	0	0	0	0	0	0	0	0	0	0	0	0	0	0	0	0	0	0	0	0	0
062618	16:40:44	5.0.12.0	108	associated	Rpleas_acq	Same	Rpleas	Amasked	CS_A	2pleas	AMP_CSpleas	AMP2	7	27	0	0	300	300	0	0	478	50	0	1	0	0	0	1	blank2r.bmp	0	1	DJMR	0	1	blank2r.bmp	79	17	pic17.bmp	79	1	whitenoise.bmp	186	0	0	0	0	0	0	0	0	0	0	0	0	0	0	0	0	0	0	0	0	0	0	0	0	0	0	0	0	0	0	0	0	0	0	0	0	0	0	0
062618	16:40:44	5.0.12.0	108	associated	Rpleas_acq	Same	Rpleas	Amasked	CS_A	2pleas	AMP_CSunple	AMP2	7	28	0	0	300	300	0	0	543	46	0	1	0	0	0	1	blank2r.bmp	0	1	HLST	0	1	blank2r.bmp	79	48	pic48.bmp	79	1	whitenoise.bmp	186	0	0	0	0	0	0	0	0	0	0	0	0	0	0	0	0	0	0	0	0	0	0	0	0	0	0	0	0	0	0	0	0	0	0	0	0	0	0	0
062618	16:40:44	5.0.12.0	108	associated	Rpleas_acq	Same	Rpleas	Amasked	CS_A	2pleas	AMP_CSpleas	AMP2	7	29	0	0	300	300	0	0	599	46	0	0	0	0	0	1	blank2r.bmp	0	1	DJMR	0	1	blank2r.bmp	79	81	pic81.bmp	79	1	whitenoise.bmp	186	0	0	0	0	0	0	0	0	0	0	0	0	0	0	0	0	0	0	0	0	0	0	0	0	0	0	0	0	0	0	0	0	0	0	0	0	0	0	0
062618	16:40:44	5.0.12.0	108	associated	Rpleas_acq	Same	Rpleas	Amasked	CS_A	2pleas	AMP_CSunple	AMP2	7	30	0	0	300	300	0	0	444	50	0	0	0	0	0	1	blank2r.bmp	0	1	HLST	0	1	blank2r.bmp	79	5	pic5.bmp	79	1	whitenoise.bmp	186	0	0	0	0	0	0	0	0	0	0	0	0	0	0	0	0	0	0	0	0	0	0	0	0	0	0	0	0	0	0	0	0	0	0	0	0	0	0	0
062618	16:40:44	5.0.12.0	108	associated	Rpleas_acq	Same	Rpleas	Amasked	CS_A	2pleas	AMP_CSpleas	AMP2	7	31	0	0	300	300	0	0	469	46	0	0	0	0	0	1	blank2r.bmp	0	1	DJMR	0	1	blank2r.bmp	79	53	pic53.bmp	79	1	whitenoise.bmp	186	0	0	0	0	0	0	0	0	0	0	0	0	0	0	0	0	0	0	0	0	0	0	0	0	0	0	0	0	0	0	0	0	0	0	0	0	0	0	0
062618	16:40:44	5.0.12.0	108	associated	Rpleas_acq	Same	Rpleas	Amasked	CS_A	2pleas	AMP_CSunple	AMP2	7	32	0	0	300	300	0	0	501	50	0	0	0	0	0	1	blank2r.bmp	0	1	HLST	0	1	blank2r.bmp	79	26	pic26.bmp	79	1	whitenoise.bmp	186	0	0	0	0	0	0	0	0	0	0	0	0	0	0	0	0	0	0	0	0	0	0	0	0	0	0	0	0	0	0	0	0	0	0	0	0	0	0	0
062618	16:40:44	5.0.12.0	108	associated	Rpleas_acq	Same	Rpleas	Amasked	CS_A	2pleas	AMP_CSunple	AMP2	7	33	0	0	300	300	0	0	636	50	0	0	0	0	0	1	blank2r.bmp	0	1	HLST	0	1	blank2r.bmp	79	10	pic10.bmp	79	1	whitenoise.bmp	186	0	0	0	0	0	0	0	0	0	0	0	0	0	0	0	0	0	0	0	0	0	0	0	0	0	0	0	0	0	0	0	0	0	0	0	0	0	0	0
062618	16:40:44	5.0.12.0	108	associated	Rpleas_acq	Same	Rpleas	Amasked	CS_A	2pleas	AMP_CSunple	AMP2	7	34	0	0	300	300	0	0	2177	50	0	0	0	0	0	1	blank2r.bmp	0	1	HLST	0	1	blank2r.bmp	79	96	pic96.bmp	79	1	whitenoise.bmp	186	0	0	0	0	0	0	0	0	0	0	0	0	0	0	0	0	0	0	0	0	0	0	0	0	0	0	0	0	0	0	0	0	0	0	0	0	0	0	0
062618	16:40:44	5.0.12.0	108	associated	Rpleas_acq	Same	Rpleas	Amasked	CS_A	2pleas	AMP_CSpleas	AMP2	7	35	0	0	300	300	0	0	510	46	0	0	0	0	0	1	blank2r.bmp	0	1	DJMR	0	1	blank2r.bmp	79	45	pic45.bmp	79	1	whitenoise.bmp	186	0	0	0	0	0	0	0	0	0	0	0	0	0	0	0	0	0	0	0	0	0	0	0	0	0	0	0	0	0	0	0	0	0	0	0	0	0	0	0
062618	16:40:44	5.0.12.0	108	associated	Rpleas_acq	Same	Rpleas	Amasked	CS_A	2pleas	AMP_CSunple	AMP2	7	36	0	0	300	300	0	0	656	50	0	0	0	0	0	1	blank2r.bmp	0	1	HLST	0	1	blank2r.bmp	79	21	pic21.bmp	79	1	whitenoise.bmp	186	0	0	0	0	0	0	0	0	0	0	0	0	0	0	0	0	0	0	0	0	0	0	0	0	0	0	0	0	0	0	0	0	0	0	0	0	0	0	0
062618	16:40:44	5.0.12.0	108	associated	Rpleas_acq	Same	Rpleas	Amasked	CS_A	2pleas	AMP_CSunple	AMP2	7	37	0	0	300	300	0	0	517	46	0	1	0	0	0	1	blank2r.bmp	0	1	HLST	0	1	blank2r.bmp	79	20	pic20.bmp	79	1	whitenoise.bmp	186	0	0	0	0	0	0	0	0	0	0	0	0	0	0	0	0	0	0	0	0	0	0	0	0	0	0	0	0	0	0	0	0	0	0	0	0	0	0	0
062618	16:40:44	5.0.12.0	108	associated	Rpleas_acq	Same	Rpleas	Amasked	CS_A	2pleas	AMP_CSunple	AMP2	7	38	0	0	300	300	0	0	567	50	0	0	0	0	0	1	blank2r.bmp	0	1	HLST	0	1	blank2r.bmp	79	85	pic85.bmp	79	1	whitenoise.bmp	186	0	0	0	0	0	0	0	0	0	0	0	0	0	0	0	0	0	0	0	0	0	0	0	0	0	0	0	0	0	0	0	0	0	0	0	0	0	0	0
062618	16:40:44	5.0.12.0	108	associated	Rpleas_acq	Same	Rpleas	Amasked	CS_A	2pleas	AMP_CSunple	AMP2	7	39	0	0	300	300	0	0	572	50	0	0	0	0	0	1	blank2r.bmp	0	1	HLST	0	1	blank2r.bmp	79	33	pic33.bmp	79	1	whitenoise.bmp	186	0	0	0	0	0	0	0	0	0	0	0	0	0	0	0	0	0	0	0	0	0	0	0	0	0	0	0	0	0	0	0	0	0	0	0	0	0	0	0
062618	16:40:44	5.0.12.0	108	associated	Rpleas_acq	Same	Rpleas	Amasked	CS_A	2pleas	AMP_CSpleas	AMP2	7	40	0	0	300	300	0	0	553	46	0	0	0	0	0	1	blank2r.bmp	0	1	DJMR	0	1	blank2r.bmp	79	64	pic64.bmp	79	1	whitenoise.bmp	186	0	0	0	0	0	0	0	0	0	0	0	0	0	0	0	0	0	0	0	0	0	0	0	0	0	0	0	0	0	0	0	0	0	0	0	0	0	0	0
062618	16:40:44	5.0.12.0	108	associated	Rpleas_acq	Same	Rpleas	Amasked	CS_A	2pleas	AMP_CSpleas	AMP2	7	41	0	0	300	300	0	0	571	50	0	1	0	0	0	1	blank2r.bmp	0	1	DJMR	0	1	blank2r.bmp	79	91	pic91.bmp	79	1	whitenoise.bmp	186	0	0	0	0	0	0	0	0	0	0	0	0	0	0	0	0	0	0	0	0	0	0	0	0	0	0	0	0	0	0	0	0	0	0	0	0	0	0	0
062618	16:40:44	5.0.12.0	108	associated	Rpleas_acq	Same	Rpleas	Amasked	CS_A	2pleas	AMP_CSpleas	AMP2	7	42	0	0	300	300	0	0	944	46	0	0	0	0	0	1	blank2r.bmp	0	1	DJMR	0	1	blank2r.bmp	79	66	pic66.bmp	79	1	whitenoise.bmp	186	0	0	0	0	0	0	0	0	0	0	0	0	0	0	0	0	0	0	0	0	0	0	0	0	0	0	0	0	0	0	0	0	0	0	0	0	0	0	0
062618	16:40:44	5.0.12.0	108	associated	Rpleas_acq	Same	Rpleas	Amasked	CS_A	2pleas	AMP_CSpleas	AMP2	7	43	0	0	300	300	0	0	539	50	0	1	0	0	0	1	blank2r.bmp	0	1	DJMR	0	1	blank2r.bmp	79	100	pic100.bmp	79	1	whitenoise.bmp	186	0	0	0	0	0	0	0	0	0	0	0	0	0	0	0	0	0	0	0	0	0	0	0	0	0	0	0	0	0	0	0	0	0	0	0	0	0	0	0
062618	16:40:44	5.0.12.0	108	associated	Rpleas_acq	Same	Rpleas	Amasked	CS_A	2pleas	AMP_CSpleas	AMP2	7	44	0	0	300	300	0	0	717	50	0	1	0	0	0	1	blank2r.bmp	0	1	DJMR	0	1	blank2r.bmp	79	25	pic25.bmp	79	1	whitenoise.bmp	186	0	0	0	0	0	0	0	0	0	0	0	0	0	0	0	0	0	0	0	0	0	0	0	0	0	0	0	0	0	0	0	0	0	0	0	0	0	0	0
062618	16:40:44	5.0.12.0	108	associated	Rpleas_acq	Same	Rpleas	Amasked	CS_A	2pleas	AMP_CSpleas	AMP2	7	45	0	0	300	300	0	0	1352	46	0	0	0	0	0	1	blank2r.bmp	0	1	DJMR	0	1	blank2r.bmp	79	59	pic59.bmp	79	1	whitenoise.bmp	186	0	0	0	0	0	0	0	0	0	0	0	0	0	0	0	0	0	0	0	0	0	0	0	0	0	0	0	0	0	0	0	0	0	0	0	0	0	0	0
062618	16:40:44	5.0.12.0	108	associated	Rpleas_acq	Same	Rpleas	Amasked	CS_A	2pleas	AMP_CSpleas	AMP2	7	46	0	0	300	300	0	0	421	46	0	0	0	0	0	1	blank2r.bmp	0	1	DJMR	0	1	blank2r.bmp	79	52	pic52.bmp	79	1	whitenoise.bmp	186	0	0	0	0	0	0	0	0	0	0	0	0	0	0	0	0	0	0	0	0	0	0	0	0	0	0	0	0	0	0	0	0	0	0	0	0	0	0	0
062618	16:40:44	5.0.12.0	108	associated	Rpleas_acq	Same	Rpleas	Amasked	CS_A	2pleas	AMP_CSpleas	AMP2	7	47	0	0	300	300	0	0	764	46	0	0	0	0	0	1	blank2r.bmp	0	1	DJMR	0	1	blank2r.bmp	79	76	pic76.bmp	79	1	whitenoise.bmp	186	0	0	0	0	0	0	0	0	0	0	0	0	0	0	0	0	0	0	0	0	0	0	0	0	0	0	0	0	0	0	0	0	0	0	0	0	0	0	0
062618	16:40:44	5.0.12.0	108	associated	Rpleas_acq	Same	Rpleas	Amasked	CS_A	2pleas	AMP_CSunple	AMP2	7	48	0	0	300	300	0	0	586	50	0	0	0	0	0	1	blank2r.bmp	0	1	HLST	0	1	blank2r.bmp	79	18	pic18.bmp	79	1	whitenoise.bmp	186	0	0	0	0	0	0	0	0	0	0	0	0	0	0	0	0	0	0	0	0	0	0	0	0	0	0	0	0	0	0	0	0	0	0	0	0	0	0	0
062618	16:40:44	5.0.12.0	108	associated	Rpleas_acq	Same	Rpleas	Amasked	CS_A	2pleas	AMP_CSpleas	AMP2	7	49	0	0	300	300	0	0	521	50	0	1	0	0	0	1	blank2r.bmp	0	1	DJMR	0	1	blank2r.bmp	79	90	pic90.bmp	79	1	whitenoise.bmp	186	0	0	0	0	0	0	0	0	0	0	0	0	0	0	0	0	0	0	0	0	0	0	0	0	0	0	0	0	0	0	0	0	0	0	0	0	0	0	0
062618	16:40:44	5.0.12.0	108	associated	Rpleas_acq	Same	Rpleas	Amasked	CS_A	2pleas	AMP_CSpleas	AMP2	7	50	0	0	300	300	0	0	654	46	0	0	0	0	0	1	blank2r.bmp	0	1	DJMR	0	1	blank2r.bmp	79	49	pic49.bmp	79	1	whitenoise.bmp	186	0	0	0	0	0	0	0	0	0	0	0	0	0	0	0	0	0	0	0	0	0	0	0	0	0	0	0	0	0	0	0	0	0	0	0	0	0	0	0
062618	16:40:44	5.0.12.0	108	associated	Rpleas_acq	Same	Rpleas	Amasked	CS_A	2pleas	EvalRating_firsttwo	EvalRating_firsttwo	8	1	0	0	300	300	0	0	6906	line	-292,5	0	0	0	0	1	eraser	0	1	Wie angenehm oder unangenehm finden Sie die  Buchstabenkette ZMXH?	0	1	leftborder	0	1	rightborder	0	1	line	0	1	Unangenehm	0	1	Angenehm	0	0	0	0	0	0	0	0	0	0	0	0	0	0	0	0	0	0	0	0	0	0	0	0	0	0	0	0	0	0	0	0	0	0
062618	16:40:44	5.0.12.0	108	associated	Rpleas_acq	Same	Rpleas	Amasked	CS_A	2pleas	EvalRating_lastfour	EvalRating_lastfour	9	1	0	0	300	300	0	0	7398	line	-291,25	0	0	0	0	1	eraser	0	3	Wie angenehm oder unangenehm finden Sie die  Buchstabenkette LRGC?	0	1	leftborder	0	1	rightborder	0	1	line	0	1	Unangenehm	0	1	Angenehm	0	0	0	0	0	0	0	0	0	0	0	0	0	0	0	0	0	0	0	0	0	0	0	0	0	0	0	0	0	0	0	0	0	0
062618	16:40:44	5.0.12.0	108	associated	Rpleas_acq	Same	Rpleas	Amasked	CS_A	2pleas	blank_screen	EvalRating_lastfour	9	3	0	0	300	300	0	0	0	0	-291,25	0	0	0	0	1	eraser	0	0	0	0	0	0	0	0	0	0	0	0	0	0	0	0	0	0	0	0	0	0	0	0	0	0	0	0	0	0	0	0	0	0	0	0	0	0	0	0	0	0	0	0	0	0	0	0	0	0	0	0
062618	16:40:44	5.0.12.0	108	associated	Rpleas_acq	Same	Rpleas	Amasked	CS_A	2pleas	EvalRating_lastfour	EvalRating_lastfour	9	4	0	0	300	300	0	0	5195	line	46,25	0	0	0	0	1	eraser	0	1	Wie angenehm oder unangenehm finden Sie die  Buchstabenkette HLST?	0	1	leftborder	0	1	rightborder	0	1	line	0	1	Unangenehm	0	1	Angenehm	0	0	0	0	0	0	0	0	0	0	0	0	0	0	0	0	0	0	0	0	0	0	0	0	0	0	0	0	0	0	0	0	0	0
062618	16:40:44	5.0.12.0	108	associated	Rpleas_acq	Same	Rpleas	Amasked	CS_A	2pleas	blank_screen	EvalRating_lastfour	9	6	0	0	300	300	0	0	0	0	46,25	0	0	0	0	1	eraser	0	0	0	0	0	0	0	0	0	0	0	0	0	0	0	0	0	0	0	0	0	0	0	0	0	0	0	0	0	0	0	0	0	0	0	0	0	0	0	0	0	0	0	0	0	0	0	0	0	0	0	0
062618	16:40:44	5.0.12.0	108	associated	Rpleas_acq	Same	Rpleas	Amasked	CS_A	2pleas	EvalRating_lastfour	EvalRating_lastfour	9	7	0	0	300	300	0	0	3424	line	117,5	0	0	0	0	1	eraser	0	2	Wie angenehm oder unangenehm finden Sie die  Buchstabenkette DJMR?	0	1	leftborder	0	1	rightborder	0	1	line	0	1	Unangenehm	0	1	Angenehm	0	0	0	0	0	0	0	0	0	0	0	0	0	0	0	0	0	0	0	0	0	0	0	0	0	0	0	0	0	0	0	0	0	0
062618	16:40:44	5.0.12.0	108	associated	Rpleas_acq	Same	Rpleas	Amasked	CS_A	2pleas	cond_new_pleas_456_masked_CS2	condtest_masked_1	10	1	400	0	300	300	0	0	768	46	117,5	0	0	0	0	1	blank2r.bmp	0	1	+	0	6	C2r.bmp	492	1	blank2r.bmp	786	1	DJMR	786	1	blank2r.bmp	866	2	reife	866	1	!	1227	1	!	-1	0	0	0	0	0	0	0	0	0	0	0	0	0	0	0	0	0	0	0	0	0	0	0	0	0	0	0
062618	16:40:44	5.0.12.0	108	associated	Rpleas_acq	Same	Rpleas	Amasked	CS_A	2pleas	cond_US_pleas_123_masked_CS1	condtest_masked_1	10	2	400	1	300	300	0	0	436	50	117,5	1	0	0	0	1	blank2r.bmp	0	1	+	0	1	B1r.bmp	492	1	blank2r.bmp	786	1	HLST	786	1	blank2r.bmp	866	3	frieden	866	1	!	1227	1	!	1330	0	0	0	0	0	0	0	0	0	0	0	0	0	0	0	0	0	0	0	0	0	0	0	0	0	0	0
062618	16:40:44	5.0.12.0	108	associated	Rpleas_acq	Same	Rpleas	Amasked	CS_A	2pleas	cond_new_pleas_456_masked_CS1	condtest_masked_1	10	3	400	0	300	300	0	0	534	50	117,5	1	0	0	0	1	blank2r.bmp	0	1	+	0	7	C3r.bmp	492	1	blank2r.bmp	786	1	HLST	786	1	blank2r.bmp	866	3	genie	866	1	!	1227	1	!	-1	0	0	0	0	0	0	0	0	0	0	0	0	0	0	0	0	0	0	0	0	0	0	0	0	0	0	0
062618	16:40:44	5.0.12.0	108	associated	Rpleas_acq	Same	Rpleas	Amasked	CS_A	2pleas	cond_new_unple_456_masked_CS2	condtest_masked_1	10	4	400	1	300	300	0	0	425	46	117,5	1	0	0	0	1	blank2r.bmp	0	1	+	0	4	B4r.bmp	492	1	blank2r.bmp	786	1	DJMR	786	1	blank2r.bmp	866	1	einengen	866	1	!	1227	1	!	1319	0	0	0	0	0	0	0	0	0	0	0	0	0	0	0	0	0	0	0	0	0	0	0	0	0	0	0
062618	16:40:44	5.0.12.0	108	associated	Rpleas_acq	Same	Rpleas	Amasked	CS_A	2pleas	cond_US_unple_123_masked_CS2	condtest_masked_1	10	5	400	0	300	300	0	0	473	46	117,5	1	0	0	0	1	blank2r.bmp	0	1	+	0	2	B2r.bmp	492	1	blank2r.bmp	786	1	DJMR	786	1	blank2r.bmp	866	3	narr	866	1	!	1227	1	!	-1	0	0	0	0	0	0	0	0	0	0	0	0	0	0	0	0	0	0	0	0	0	0	0	0	0	0	0
062618	16:40:44	5.0.12.0	108	associated	Rpleas_acq	Same	Rpleas	Amasked	CS_A	2pleas	cond_new_unple_456_masked_CS1	condtest_masked_1	10	6	400	0	300	300	0	0	556	46	117,5	1	0	0	0	1	blank2r.bmp	0	1	+	0	3	B3r.bmp	492	1	blank2r.bmp	786	1	HLST	786	1	blank2r.bmp	866	2	feind	866	1	!	1227	1	!	-1	0	0	0	0	0	0	0	0	0	0	0	0	0	0	0	0	0	0	0	0	0	0	0	0	0	0	0
062618	16:40:44	5.0.12.0	108	associated	Rpleas_acq	Same	Rpleas	Amasked	CS_A	2pleas	cond_US_pleas_123_masked_CS2	condtest_masked_1	10	7	400	1	300	300	0	0	343	50	117,5	1	0	0	0	1	blank2r.bmp	0	1	+	0	8	C4r.bmp	492	1	blank2r.bmp	786	1	DJMR	786	1	blank2r.bmp	866	2	meer	866	1	!	1227	1	!	1236	0	0	0	0	0	0	0	0	0	0	0	0	0	0	0	0	0	0	0	0	0	0	0	0	0	0	0
062618	16:40:44	5.0.12.0	108	associated	Rpleas_acq	Same	Rpleas	Amasked	CS_A	2pleas	cond_US_unple_123_masked_CS1	condtest_masked_1	10	8	400	0	300	300	0	0	467	46	117,5	1	0	0	0	1	blank2r.bmp	0	1	+	0	5	C1r.bmp	492	1	blank2r.bmp	786	1	HLST	786	1	blank2r.bmp	866	1	armee	866	1	!	1227	1	!	-1	0	0	0	0	0	0	0	0	0	0	0	0	0	0	0	0	0	0	0	0	0	0	0	0	0	0	0
062618	16:40:44	5.0.12.0	108	associated	Rpleas_acq	Same	Rpleas	Amasked	CS_A	2pleas	cond_new_pleas_456_masked_CS2	condtest_masked_2	11	1	400	1	300	300	0	0	402	46	117,5	0	0	0	0	1	blank2r.bmp	0	1	+	0	5	C1r.bmp	492	1	blank2r.bmp	786	1	DJMR	786	1	blank2r.bmp	866	1	umarmen	866	1	!	1227	1	!	1296	0	0	0	0	0	0	0	0	0	0	0	0	0	0	0	0	0	0	0	0	0	0	0	0	0	0	0
062618	16:40:44	5.0.12.0	108	associated	Rpleas_acq	Same	Rpleas	Amasked	CS_A	2pleas	cond_US_unple_123_masked_CS1	condtest_masked_2	11	2	400	0	300	300	0	0	661	46	117,5	1	0	0	0	1	blank2r.bmp	0	1	+	0	7	C3r.bmp	492	1	blank2r.bmp	786	1	HLST	786	1	blank2r.bmp	866	2	wunde	866	1	!	1227	1	!	-1	0	0	0	0	0	0	0	0	0	0	0	0	0	0	0	0	0	0	0	0	0	0	0	0	0	0	0
062618	16:40:44	5.0.12.0	108	associated	Rpleas_acq	Same	Rpleas	Amasked	CS_A	2pleas	cond_new_pleas_456_masked_CS1	condtest_masked_2	11	3	400	0	300	300	0	0	515	46	117,5	0	0	0	0	1	blank2r.bmp	0	1	+	0	6	C2r.bmp	492	1	blank2r.bmp	786	1	HLST	786	1	blank2r.bmp	866	1	umarmen	866	1	!	1227	1	!	-1	0	0	0	0	0	0	0	0	0	0	0	0	0	0	0	0	0	0	0	0	0	0	0	0	0	0	0
062618	16:40:44	5.0.12.0	108	associated	Rpleas_acq	Same	Rpleas	Amasked	CS_A	2pleas	cond_new_unple_456_masked_CS2	condtest_masked_2	11	4	400	0	300	300	0	0	579	46	117,5	1	0	0	0	1	blank2r.bmp	0	1	+	0	3	B3r.bmp	492	1	blank2r.bmp	786	1	DJMR	786	1	blank2r.bmp	866	3	neid	866	1	!	1227	1	!	-1	0	0	0	0	0	0	0	0	0	0	0	0	0	0	0	0	0	0	0	0	0	0	0	0	0	0	0
062618	16:40:44	5.0.12.0	108	associated	Rpleas_acq	Same	Rpleas	Amasked	CS_A	2pleas	cond_US_unple_123_masked_CS2	condtest_masked_2	11	5	400	1	300	300	0	0	427	50	117,5	0	0	0	0	1	blank2r.bmp	0	1	+	0	4	B4r.bmp	492	1	blank2r.bmp	786	1	DJMR	786	1	blank2r.bmp	866	2	wunde	866	1	!	1227	1	!	1321	0	0	0	0	0	0	0	0	0	0	0	0	0	0	0	0	0	0	0	0	0	0	0	0	0	0	0
062618	16:40:44	5.0.12.0	108	associated	Rpleas_acq	Same	Rpleas	Amasked	CS_A	2pleas	cond_US_unple_123_masked_CS2	condtest_masked_2	11	6	400	1	300	300	0	0	459	50	117,5	0	0	0	0	1	blank2r.bmp	0	1	+	0	1	B1r.bmp	492	1	blank2r.bmp	786	1	DJMR	786	1	blank2r.bmp	866	1	armee	866	1	!	1227	1	!	1352	0	0	0	0	0	0	0	0	0	0	0	0	0	0	0	0	0	0	0	0	0	0	0	0	0	0	0
062618	16:40:44	5.0.12.0	108	associated	Rpleas_acq	Same	Rpleas	Amasked	CS_A	2pleas	cond_US_pleas_123_masked_CS2	condtest_masked_2	11	7	400	1	300	300	0	0	376	46	117,5	0	0	0	0	1	blank2r.bmp	0	1	+	0	2	B2r.bmp	492	1	blank2r.bmp	786	1	DJMR	786	1	blank2r.bmp	866	1	wein	866	1	!	1227	1	!	1270	0	0	0	0	0	0	0	0	0	0	0	0	0	0	0	0	0	0	0	0	0	0	0	0	0	0	0
062618	16:40:44	5.0.12.0	108	associated	Rpleas_acq	Same	Rpleas	Amasked	CS_A	2pleas	cond_US_pleas_123_masked_CS1	condtest_masked_2	11	8	400	0	300	300	0	0	469	46	117,5	0	0	0	0	1	blank2r.bmp	0	1	+	0	8	C4r.bmp	492	1	blank2r.bmp	786	1	HLST	786	1	blank2r.bmp	866	2	meer	866	1	!	1227	1	!	-1	0	0	0	0	0	0	0	0	0	0	0	0	0	0	0	0	0	0	0	0	0	0	0	0	0	0	0
062618	16:40:44	5.0.12.0	108	associated	Rpleas_acq	Same	Rpleas	Amasked	CS_A	2pleas	cond_new_unple_456_masked_CS1	condtest_masked_2	11	9	400	1	300	300	0	0	373	50	117,5	0	0	0	0	1	blank2r.bmp	0	1	+	0	7	C3r.bmp	492	1	blank2r.bmp	786	1	HLST	786	1	blank2r.bmp	866	1	einengen	866	1	!	1227	1	!	1267	0	0	0	0	0	0	0	0	0	0	0	0	0	0	0	0	0	0	0	0	0	0	0	0	0	0	0
062618	16:40:44	5.0.12.0	108	associated	Rpleas_acq	Same	Rpleas	Amasked	CS_A	2pleas	cond_US_pleas_123_masked_CS2	condtest_masked_2	11	10	400	0	300	300	0	0	666	46	117,5	0	0	0	0	1	blank2r.bmp	0	1	+	0	6	C2r.bmp	492	1	blank2r.bmp	786	1	DJMR	786	1	blank2r.bmp	866	1	wein	866	1	!	1227	1	!	-1	0	0	0	0	0	0	0	0	0	0	0	0	0	0	0	0	0	0	0	0	0	0	0	0	0	0	0
062618	16:40:44	5.0.12.0	108	associated	Rpleas_acq	Same	Rpleas	Amasked	CS_A	2pleas	cond_US_pleas_123_masked_CS1	condtest_masked_2	11	11	400	0	300	300	0	0	5018	50	117,5	1	0	0	0	1	blank2r.bmp	0	1	+	0	8	C4r.bmp	492	1	blank2r.bmp	786	1	HLST	786	1	blank2r.bmp	866	3	frieden	866	1	!	1227	1	!	-1	0	0	0	0	0	0	0	0	0	0	0	0	0	0	0	0	0	0	0	0	0	0	0	0	0	0	0
062618	16:40:44	5.0.12.0	108	associated	Rpleas_acq	Same	Rpleas	Amasked	CS_A	2pleas	cond_new_pleas_456_masked_CS1	condtest_masked_2	11	12	400	0	300	300	0	0	635	50	117,5	1	0	0	0	1	blank2r.bmp	0	1	+	0	1	B1r.bmp	492	1	blank2r.bmp	786	1	HLST	786	1	blank2r.bmp	866	3	genie	866	1	!	1227	1	!	-1	0	0	0	0	0	0	0	0	0	0	0	0	0	0	0	0	0	0	0	0	0	0	0	0	0	0	0
062618	16:40:44	5.0.12.0	108	associated	Rpleas_acq	Same	Rpleas	Amasked	CS_A	2pleas	cond_US_pleas_123_masked_CS1	condtest_masked_2	11	13	400	1	300	300	0	0	435	46	117,5	0	0	0	0	1	blank2r.bmp	0	1	+	0	2	B2r.bmp	492	1	blank2r.bmp	786	1	HLST	786	1	blank2r.bmp	866	2	meer	866	1	!	1227	1	!	1329	0	0	0	0	0	0	0	0	0	0	0	0	0	0	0	0	0	0	0	0	0	0	0	0	0	0	0
062618	16:40:44	5.0.12.0	108	associated	Rpleas_acq	Same	Rpleas	Amasked	CS_A	2pleas	cond_US_pleas_123_masked_CS2	condtest_masked_2	11	14	400	0	300	300	0	0	542	50	117,5	1	0	0	0	1	blank2r.bmp	0	1	+	0	3	B3r.bmp	492	1	blank2r.bmp	786	1	DJMR	786	1	blank2r.bmp	866	1	wein	866	1	!	1227	1	!	-1	0	0	0	0	0	0	0	0	0	0	0	0	0	0	0	0	0	0	0	0	0	0	0	0	0	0	0
062618	16:40:44	5.0.12.0	108	associated	Rpleas_acq	Same	Rpleas	Amasked	CS_A	2pleas	cond_new_pleas_456_masked_CS1	condtest_masked_2	11	15	400	0	300	300	0	0	523	50	117,5	1	0	0	0	1	blank2r.bmp	0	1	+	0	4	B4r.bmp	492	1	blank2r.bmp	786	1	HLST	786	1	blank2r.bmp	866	2	reife	866	1	!	1227	1	!	-1	0	0	0	0	0	0	0	0	0	0	0	0	0	0	0	0	0	0	0	0	0	0	0	0	0	0	0
062618	16:40:44	5.0.12.0	108	associated	Rpleas_acq	Same	Rpleas	Amasked	CS_A	2pleas	cond_new_unple_456_masked_CS2	condtest_masked_2	11	16	400	0	300	300	0	0	470	46	117,5	1	0	0	0	1	blank2r.bmp	0	1	+	0	5	C1r.bmp	492	1	blank2r.bmp	786	1	DJMR	786	1	blank2r.bmp	866	3	neid	866	1	!	1227	1	!	-1	0	0	0	0	0	0	0	0	0	0	0	0	0	0	0	0	0	0	0	0	0	0	0	0	0	0	0
062618	16:40:44	5.0.12.0	108	associated	Rpleas_acq	Same	Rpleas	Amasked	CS_A	2pleas	cond_US_unple_123_masked_CS1	condtest_masked_2	11	17	400	1	300	300	0	0	390	46	117,5	1	0	0	0	1	blank2r.bmp	0	1	+	0	1	B1r.bmp	492	1	blank2r.bmp	786	1	HLST	786	1	blank2r.bmp	866	3	narr	866	1	!	1227	1	!	1284	0	0	0	0	0	0	0	0	0	0	0	0	0	0	0	0	0	0	0	0	0	0	0	0	0	0	0
062618	16:40:44	5.0.12.0	108	associated	Rpleas_acq	Same	Rpleas	Amasked	CS_A	2pleas	cond_new_unple_456_masked_CS1	condtest_masked_2	11	18	400	0	300	300	0	0	478	46	117,5	1	0	0	0	1	blank2r.bmp	0	1	+	0	3	B3r.bmp	492	1	blank2r.bmp	786	1	HLST	786	1	blank2r.bmp	866	2	feind	866	1	!	1227	1	!	-1	0	0	0	0	0	0	0	0	0	0	0	0	0	0	0	0	0	0	0	0	0	0	0	0	0	0	0
062618	16:40:44	5.0.12.0	108	associated	Rpleas_acq	Same	Rpleas	Amasked	CS_A	2pleas	cond_new_pleas_456_masked_CS2	condtest_masked_2	11	19	400	0	300	300	0	0	304	46	117,5	0	0	0	0	1	blank2r.bmp	0	1	+	0	2	B2r.bmp	492	1	blank2r.bmp	786	1	DJMR	786	1	blank2r.bmp	866	1	umarmen	866	1	!	-1	1	!	-1	0	0	0	0	0	0	0	0	0	0	0	0	0	0	0	0	0	0	0	0	0	0	0	0	0	0	0
062618	16:40:44	5.0.12.0	108	associated	Rpleas_acq	Same	Rpleas	Amasked	CS_A	2pleas	cond_new_unple_456_masked_CS1	condtest_masked_2	11	20	400	0	300	300	0	0	472	50	117,5	0	0	0	0	1	blank2r.bmp	0	1	+	0	5	C1r.bmp	492	1	blank2r.bmp	786	1	HLST	786	1	blank2r.bmp	866	3	neid	866	1	!	1227	1	!	-1	0	0	0	0	0	0	0	0	0	0	0	0	0	0	0	0	0	0	0	0	0	0	0	0	0	0	0
062618	16:40:44	5.0.12.0	108	associated	Rpleas_acq	Same	Rpleas	Amasked	CS_A	2pleas	cond_US_pleas_123_masked_CS2	condtest_masked_2	11	21	400	0	300	300	0	0	328	46	117,5	0	0	0	0	1	blank2r.bmp	0	1	+	0	7	C3r.bmp	492	1	blank2r.bmp	786	1	DJMR	786	1	blank2r.bmp	866	3	frieden	866	1	!	-1	1	!	-1	0	0	0	0	0	0	0	0	0	0	0	0	0	0	0	0	0	0	0	0	0	0	0	0	0	0	0
062618	16:40:44	5.0.12.0	108	associated	Rpleas_acq	Same	Rpleas	Amasked	CS_A	2pleas	cond_US_unple_123_masked_CS2	condtest_masked_2	11	22	400	0	300	300	0	0	1826	46	117,5	1	0	0	0	1	blank2r.bmp	0	1	+	0	6	C2r.bmp	492	1	blank2r.bmp	786	1	DJMR	786	1	blank2r.bmp	866	3	narr	866	1	!	1227	1	!	-1	0	0	0	0	0	0	0	0	0	0	0	0	0	0	0	0	0	0	0	0	0	0	0	0	0	0	0
062618	16:40:44	5.0.12.0	108	associated	Rpleas_acq	Same	Rpleas	Amasked	CS_A	2pleas	cond_US_unple_123_masked_CS1	condtest_masked_2	11	23	400	0	300	300	0	0	526	46	117,5	1	0	0	0	1	blank2r.bmp	0	1	+	0	4	B4r.bmp	492	1	blank2r.bmp	786	1	HLST	786	1	blank2r.bmp	866	1	armee	866	1	!	1227	1	!	-1	0	0	0	0	0	0	0	0	0	0	0	0	0	0	0	0	0	0	0	0	0	0	0	0	0	0	0
062618	16:40:44	5.0.12.0	108	associated	Rpleas_acq	Same	Rpleas	Amasked	CS_A	2pleas	cond_new_pleas_456_masked_CS2	condtest_masked_2	11	24	400	1	300	300	0	0	449	46	117,5	0	0	0	0	1	blank2r.bmp	0	1	+	0	8	C4r.bmp	492	1	blank2r.bmp	786	1	DJMR	786	1	blank2r.bmp	866	2	reife	866	1	!	1227	1	!	1343	0	0	0	0	0	0	0	0	0	0	0	0	0	0	0	0	0	0	0	0	0	0	0	0	0	0	0
062618	16:40:44	5.0.12.0	108	associated	Rpleas_acq	Same	Rpleas	Amasked	CS_A	2pleas	cond_new_unple_456_masked_CS1	condtest_masked_2	11	25	400	0	300	300	0	0	742	50	117,5	0	0	0	0	1	blank2r.bmp	0	1	+	0	5	C1r.bmp	492	1	blank2r.bmp	786	1	HLST	786	1	blank2r.bmp	866	1	einengen	866	1	!	1227	1	!	-1	0	0	0	0	0	0	0	0	0	0	0	0	0	0	0	0	0	0	0	0	0	0	0	0	0	0	0
062618	16:40:44	5.0.12.0	108	associated	Rpleas_acq	Same	Rpleas	Amasked	CS_A	2pleas	cond_US_unple_123_masked_CS1	condtest_masked_2	11	26	400	0	300	300	0	0	711	46	117,5	1	0	0	0	1	blank2r.bmp	0	1	+	0	3	B3r.bmp	492	1	blank2r.bmp	786	1	HLST	786	1	blank2r.bmp	866	2	wunde	866	1	!	1227	1	!	-1	0	0	0	0	0	0	0	0	0	0	0	0	0	0	0	0	0	0	0	0	0	0	0	0	0	0	0
062618	16:40:44	5.0.12.0	108	associated	Rpleas_acq	Same	Rpleas	Amasked	CS_A	2pleas	cond_new_unple_456_masked_CS2	condtest_masked_2	11	27	400	1	300	300	0	0	424	46	117,5	1	0	0	0	1	blank2r.bmp	0	1	+	0	1	B1r.bmp	492	1	blank2r.bmp	786	1	DJMR	786	1	blank2r.bmp	866	2	feind	866	1	!	1227	1	!	1318	0	0	0	0	0	0	0	0	0	0	0	0	0	0	0	0	0	0	0	0	0	0	0	0	0	0	0
062618	16:40:44	5.0.12.0	108	associated	Rpleas_acq	Same	Rpleas	Amasked	CS_A	2pleas	cond_new_pleas_456_masked_CS2	condtest_masked_2	11	28	400	1	300	300	0	0	376	46	117,5	0	0	0	0	1	blank2r.bmp	0	1	+	0	6	C2r.bmp	492	1	blank2r.bmp	786	1	DJMR	786	1	blank2r.bmp	866	3	genie	866	1	!	1227	1	!	1270	0	0	0	0	0	0	0	0	0	0	0	0	0	0	0	0	0	0	0	0	0	0	0	0	0	0	0
062618	16:40:44	5.0.12.0	108	associated	Rpleas_acq	Same	Rpleas	Amasked	CS_A	2pleas	cond_new_pleas_456_masked_CS1	condtest_masked_2	11	29	400	0	300	300	0	0	530	50	117,5	1	0	0	0	1	blank2r.bmp	0	1	+	0	7	C3r.bmp	492	1	blank2r.bmp	786	1	HLST	786	1	blank2r.bmp	866	3	genie	866	1	!	1227	1	!	-1	0	0	0	0	0	0	0	0	0	0	0	0	0	0	0	0	0	0	0	0	0	0	0	0	0	0	0
062618	16:40:44	5.0.12.0	108	associated	Rpleas_acq	Same	Rpleas	Amasked	CS_A	2pleas	cond_US_unple_123_masked_CS1	condtest_masked_2	11	30	400	0	300	300	0	0	496	46	117,5	1	0	0	0	1	blank2r.bmp	0	1	+	0	2	B2r.bmp	492	1	blank2r.bmp	786	1	HLST	786	1	blank2r.bmp	866	2	wunde	866	1	!	1227	1	!	-1	0	0	0	0	0	0	0	0	0	0	0	0	0	0	0	0	0	0	0	0	0	0	0	0	0	0	0
062618	16:40:44	5.0.12.0	108	associated	Rpleas_acq	Same	Rpleas	Amasked	CS_A	2pleas	cond_new_unple_456_masked_CS2	condtest_masked_2	11	31	400	0	300	300	0	0	525	46	117,5	1	0	0	0	1	blank2r.bmp	0	1	+	0	4	B4r.bmp	492	1	blank2r.bmp	786	1	DJMR	786	1	blank2r.bmp	866	2	feind	866	1	!	1227	1	!	-1	0	0	0	0	0	0	0	0	0	0	0	0	0	0	0	0	0	0	0	0	0	0	0	0	0	0	0
062618	16:40:44	5.0.12.0	108	associated	Rpleas_acq	Same	Rpleas	Amasked	CS_A	2pleas	cond_US_pleas_123_masked_CS1	condtest_masked_2	11	32	400	0	300	300	0	0	504	50	117,5	1	0	0	0	1	blank2r.bmp	0	1	+	0	8	C4r.bmp	492	1	blank2r.bmp	786	1	HLST	786	1	blank2r.bmp	866	2	meer	866	1	!	1227	1	!	-1	0	0	0	0	0	0	0	0	0	0	0	0	0	0	0	0	0	0	0	0	0	0	0	0	0	0	0
062618	16:40:44	5.0.12.0	108	associated	Rpleas_acq	Same	Rpleas	Amasked	CS_A	2pleas	cond_new_unple_456_masked_CS1	condtest_masked_2	11	33	400	1	300	300	0	0	405	46	117,5	1	0	0	0	1	blank2r.bmp	0	1	+	0	2	B2r.bmp	492	1	blank2r.bmp	786	1	HLST	786	1	blank2r.bmp	866	1	einengen	866	1	!	1227	1	!	1299	0	0	0	0	0	0	0	0	0	0	0	0	0	0	0	0	0	0	0	0	0	0	0	0	0	0	0
062618	16:40:44	5.0.12.0	108	associated	Rpleas_acq	Same	Rpleas	Amasked	CS_A	2pleas	cond_US_pleas_123_masked_CS2	condtest_masked_2	11	34	400	0	300	300	0	0	471	46	117,5	0	0	0	0	1	blank2r.bmp	0	1	+	0	8	C4r.bmp	492	1	blank2r.bmp	786	1	DJMR	786	1	blank2r.bmp	866	3	frieden	866	1	!	1227	1	!	-1	0	0	0	0	0	0	0	0	0	0	0	0	0	0	0	0	0	0	0	0	0	0	0	0	0	0	0
062618	16:40:44	5.0.12.0	108	associated	Rpleas_acq	Same	Rpleas	Amasked	CS_A	2pleas	cond_new_pleas_456_masked_CS2	condtest_masked_2	11	35	400	0	300	300	0	0	591	50	117,5	1	0	0	0	1	blank2r.bmp	0	1	+	0	5	C1r.bmp	492	1	blank2r.bmp	786	1	DJMR	786	1	blank2r.bmp	866	2	reife	866	1	!	1227	1	!	-1	0	0	0	0	0	0	0	0	0	0	0	0	0	0	0	0	0	0	0	0	0	0	0	0	0	0	0
062618	16:40:44	5.0.12.0	108	associated	Rpleas_acq	Same	Rpleas	Amasked	CS_A	2pleas	cond_new_unple_456_masked_CS2	condtest_masked_2	11	36	400	0	300	300	0	0	552	46	117,5	1	0	0	0	1	blank2r.bmp	0	1	+	0	3	B3r.bmp	492	1	blank2r.bmp	786	1	DJMR	786	1	blank2r.bmp	866	3	neid	866	1	!	1227	1	!	-1	0	0	0	0	0	0	0	0	0	0	0	0	0	0	0	0	0	0	0	0	0	0	0	0	0	0	0
062618	16:40:44	5.0.12.0	108	associated	Rpleas_acq	Same	Rpleas	Amasked	CS_A	2pleas	cond_US_pleas_123_masked_CS1	condtest_masked_2	11	37	400	0	300	300	0	0	576	50	117,5	1	0	0	0	1	blank2r.bmp	0	1	+	0	7	C3r.bmp	492	1	blank2r.bmp	786	1	HLST	786	1	blank2r.bmp	866	1	wein	866	1	!	1227	1	!	-1	0	0	0	0	0	0	0	0	0	0	0	0	0	0	0	0	0	0	0	0	0	0	0	0	0	0	0
062618	16:40:44	5.0.12.0	108	associated	Rpleas_acq	Same	Rpleas	Amasked	CS_A	2pleas	cond_new_pleas_456_masked_CS1	condtest_masked_2	11	38	400	0	300	300	0	0	534	46	117,5	0	0	0	0	1	blank2r.bmp	0	1	+	0	4	B4r.bmp	492	1	blank2r.bmp	786	1	HLST	786	1	blank2r.bmp	866	1	umarmen	866	1	!	1227	1	!	-1	0	0	0	0	0	0	0	0	0	0	0	0	0	0	0	0	0	0	0	0	0	0	0	0	0	0	0
062618	16:40:44	5.0.12.0	108	associated	Rpleas_acq	Same	Rpleas	Amasked	CS_A	2pleas	cond_US_unple_123_masked_CS2	condtest_masked_2	11	39	400	0	300	300	0	0	819	50	117,5	0	0	0	0	1	blank2r.bmp	0	1	+	0	1	B1r.bmp	492	1	blank2r.bmp	786	1	DJMR	786	1	blank2r.bmp	866	3	narr	866	1	!	1227	1	!	-1	0	0	0	0	0	0	0	0	0	0	0	0	0	0	0	0	0	0	0	0	0	0	0	0	0	0	0
062618	16:40:44	5.0.12.0	108	associated	Rpleas_acq	Same	Rpleas	Amasked	CS_A	2pleas	cond_US_unple_123_masked_CS2	condtest_masked_2	11	40	400	0	300	300	0	0	508	46	117,5	1	0	0	0	1	blank2r.bmp	0	1	+	0	6	C2r.bmp	492	1	blank2r.bmp	786	1	DJMR	786	1	blank2r.bmp	866	1	armee	866	1	!	1227	1	!	-1	0	0	0	0	0	0	0	0	0	0	0	0	0	0	0	0	0	0	0	0	0	0	0	0	0	0	0
062618	16:40:44	5.0.12.0	108	associated	Rpleas_acq	Same	Rpleas	Amasked	CS_A	2pleas	cond_US_unple_456_masked_CS1	condtest_masked_3	12	1	400	0	300	300	0	0	761	46	117,5	1	0	0	0	1	blank2r.bmp	0	1	+	0	2	B2r.bmp	492	1	blank2r.bmp	786	1	HLST	786	1	blank2r.bmp	866	3	geiz	866	1	!	1227	1	!	-1	0	0	0	0	0	0	0	0	0	0	0	0	0	0	0	0	0	0	0	0	0	0	0	0	0	0	0
062618	16:40:44	5.0.12.0	108	associated	Rpleas_acq	Same	Rpleas	Amasked	CS_A	2pleas	cond_US_pleas_456_masked_CS1	condtest_masked_3	12	2	400	0	300	300	0	0	612	50	117,5	1	0	0	0	1	blank2r.bmp	0	1	+	0	1	B1r.bmp	492	1	blank2r.bmp	786	1	HLST	786	1	blank2r.bmp	866	3	erfinder	866	1	!	1227	1	!	-1	0	0	0	0	0	0	0	0	0	0	0	0	0	0	0	0	0	0	0	0	0	0	0	0	0	0	0
062618	16:40:44	5.0.12.0	108	associated	Rpleas_acq	Same	Rpleas	Amasked	CS_A	2pleas	cond_US_pleas_456_masked_CS1	condtest_masked_3	12	3	400	0	300	300	0	0	578	50	117,5	1	0	0	0	1	blank2r.bmp	0	1	+	0	6	C2r.bmp	492	1	blank2r.bmp	786	1	HLST	786	1	blank2r.bmp	866	1	mama	866	1	!	1227	1	!	-1	0	0	0	0	0	0	0	0	0	0	0	0	0	0	0	0	0	0	0	0	0	0	0	0	0	0	0
062618	16:40:44	5.0.12.0	108	associated	Rpleas_acq	Same	Rpleas	Amasked	CS_A	2pleas	cond_new_pleas_123_masked_CS1	condtest_masked_3	12	4	400	1	300	300	0	0	424	50	117,5	1	0	0	0	1	blank2r.bmp	0	1	+	0	7	C3r.bmp	492	1	blank2r.bmp	786	1	HLST	786	1	blank2r.bmp	866	2	wind	866	1	!	1227	1	!	1317	0	0	0	0	0	0	0	0	0	0	0	0	0	0	0	0	0	0	0	0	0	0	0	0	0	0	0
062618	16:40:44	5.0.12.0	108	associated	Rpleas_acq	Same	Rpleas	Amasked	CS_A	2pleas	cond_US_unple_456_masked_CS1	condtest_masked_3	12	5	400	0	300	300	0	0	173	46	117,5	1	0	0	0	1	blank2r.bmp	0	1	+	0	3	B3r.bmp	492	1	blank2r.bmp	786	1	HLST	786	1	blank2r.bmp	866	2	gegner	866	1	!	-1	1	!	-1	0	0	0	0	0	0	0	0	0	0	0	0	0	0	0	0	0	0	0	0	0	0	0	0	0	0	0
062618	16:40:44	5.0.12.0	108	associated	Rpleas_acq	Same	Rpleas	Amasked	CS_A	2pleas	cond_new_unple_123_masked_CS2	condtest_masked_3	12	6	400	1	300	300	0	0	425	46	117,5	1	0	0	0	1	blank2r.bmp	0	1	+	0	5	C1r.bmp	492	1	blank2r.bmp	786	1	DJMR	786	1	blank2r.bmp	866	1	waffe	866	1	!	1227	1	!	1319	0	0	0	0	0	0	0	0	0	0	0	0	0	0	0	0	0	0	0	0	0	0	0	0	0	0	0
062618	16:40:44	5.0.12.0	108	associated	Rpleas_acq	Same	Rpleas	Amasked	CS_A	2pleas	cond_new_pleas_123_masked_CS2	condtest_masked_3	12	7	400	1	300	300	0	0	342	50	117,5	1	0	0	0	1	blank2r.bmp	0	1	+	0	4	B4r.bmp	492	1	blank2r.bmp	786	1	DJMR	786	1	blank2r.bmp	866	1	genu	866	1	!	1227	1	!	1236	0	0	0	0	0	0	0	0	0	0	0	0	0	0	0	0	0	0	0	0	0	0	0	0	0	0	0
062618	16:40:44	5.0.12.0	108	associated	Rpleas_acq	Same	Rpleas	Amasked	CS_A	2pleas	cond_new_unple_123_masked_CS2	condtest_masked_3	12	8	400	1	300	300	0	0	430	50	117,5	0	0	0	0	1	blank2r.bmp	0	1	+	0	8	C4r.bmp	492	1	blank2r.bmp	786	1	DJMR	786	1	blank2r.bmp	866	2	reien	866	1	!	1227	1	!	1323	0	0	0	0	0	0	0	0	0	0	0	0	0	0	0	0	0	0	0	0	0	0	0	0	0	0	0
062618	16:40:44	5.0.12.0	108	associated	Rpleas_acq	Same	Rpleas	Amasked	CS_A	2pleas	cond_new_unple_123_masked_CS2	condtest_masked_3	12	9	400	1	300	300	0	0	413	50	117,5	0	0	0	0	1	blank2r.bmp	0	1	+	0	7	C3r.bmp	492	1	blank2r.bmp	786	1	DJMR	786	1	blank2r.bmp	866	3	dumm	866	1	!	1227	1	!	1307	0	0	0	0	0	0	0	0	0	0	0	0	0	0	0	0	0	0	0	0	0	0	0	0	0	0	0
062618	16:40:44	5.0.12.0	108	associated	Rpleas_acq	Same	Rpleas	Amasked	CS_A	2pleas	cond_US_unple_456_masked_CS1	condtest_masked_3	12	10	400	0	300	300	0	0	304	46	117,5	1	0	0	0	1	blank2r.bmp	0	1	+	0	1	B1r.bmp	492	1	blank2r.bmp	786	1	HLST	786	1	blank2r.bmp	866	1	zwang	866	1	!	-1	1	!	-1	0	0	0	0	0	0	0	0	0	0	0	0	0	0	0	0	0	0	0	0	0	0	0	0	0	0	0
062618	16:40:44	5.0.12.0	108	associated	Rpleas_acq	Same	Rpleas	Amasked	CS_A	2pleas	cond_US_unple_456_masked_CS2	condtest_masked_3	12	11	400	1	300	300	0	0	421	46	117,5	1	0	0	0	1	blank2r.bmp	0	1	+	0	4	B4r.bmp	492	1	blank2r.bmp	786	1	DJMR	786	1	blank2r.bmp	866	1	zwang	866	1	!	1227	1	!	1314	0	0	0	0	0	0	0	0	0	0	0	0	0	0	0	0	0	0	0	0	0	0	0	0	0	0	0
062618	16:40:44	5.0.12.0	108	associated	Rpleas_acq	Same	Rpleas	Amasked	CS_A	2pleas	cond_US_unple_456_masked_CS2	condtest_masked_3	12	12	400	1	300	300	0	0	356	46	117,5	1	0	0	0	1	blank2r.bmp	0	1	+	0	5	C1r.bmp	492	1	blank2r.bmp	786	1	DJMR	786	1	blank2r.bmp	866	3	geiz	866	1	!	1227	1	!	1250	0	0	0	0	0	0	0	0	0	0	0	0	0	0	0	0	0	0	0	0	0	0	0	0	0	0	0
062618	16:40:44	5.0.12.0	108	associated	Rpleas_acq	Same	Rpleas	Amasked	CS_A	2pleas	cond_US_pleas_456_masked_CS1	condtest_masked_3	12	13	400	1	300	300	0	0	367	50	117,5	1	0	0	0	1	blank2r.bmp	0	1	+	0	2	B2r.bmp	492	1	blank2r.bmp	786	1	HLST	786	1	blank2r.bmp	866	2	jugend	866	1	!	1227	1	!	1260	0	0	0	0	0	0	0	0	0	0	0	0	0	0	0	0	0	0	0	0	0	0	0	0	0	0	0
