date	time	build	subject	expressions.associated	expressions.LRpleas_acq	expressions.SameOppo	expressions.condition_Lpleas	expressions.ABmasked	expressions.conditionCS_A	expressions.condition_1pleas	trialcode	blockcode	blocknum	trialnum	windowcenter	inwindow	pretrialpause	posttrialpause	trialduration	trialtimeout	latency	response	expressions.correctedscore	correct	values.vis_performance	values.vis_rating_sum	values.vis_rating_mean	stimulusnumber1	stimulusitem1	stimulusonset1	stimulusnumber2	stimulusitem2	stimulusonset2	stimulusnumber3	stimulusitem3	stimulusonset3	stimulusnumber4	stimulusitem4	stimulusonset4	stimulusnumber5	stimulusitem5	stimulusonset5	stimulusnumber6	stimulusitem6	stimulusonset6	stimulusnumber7	stimulusitem7	stimulusonset7	stimulusnumber8	stimulusitem8	stimulusonset8	stimulusnumber9	stimulusitem9	stimulusonset9	stimulusnumber10	stimulusitem10	stimulusonset10	stimulusnumber11	stimulusitem11	stimulusonset11	stimulusnumber12	stimulusitem12	stimulusonset12	stimulusnumber13	stimulusitem13	stimulusonset13	stimulusnumber14	stimulusitem14	stimulusonset14	stimulusnumber15	stimulusitem15	stimulusonset15	stimulusnumber16	stimulusitem16	stimulusonset16	stimulusnumber17	stimulusitem17	stimulusonset17	stimulusnumber18	stimulusitem18	stimulusonset18
062118	14:58:26	5.0.12.0	70	notassociated	Rpleas_acq	Same	Rpleas	Amasked	CS_A	1pleas	acq_unple_masked	acq1_masked	1	1	0	0	300	300	0	0	1404	46	0	1	0	0	0	1	blank2r.bmp	0	1	+	0	4	B4r.bmp	492	1	blank2r.bmp	786	1	DJMR	786	1	blank2r.bmp	866	4	geiz	866	0	0	0	0	0	0	0	0	0	0	0	0	0	0	0	0	0	0	0	0	0	0	0	0	0	0	0	0	0	0	0	0	0
062118	14:58:26	5.0.12.0	70	notassociated	Rpleas_acq	Same	Rpleas	Amasked	CS_A	1pleas	acq_unple_masked	acq1_masked	1	2	0	0	300	300	0	0	1262	46	0	1	0	0	0	1	blank2r.bmp	0	1	+	0	7	C3r.bmp	492	1	blank2r.bmp	786	1	DJMR	786	1	blank2r.bmp	866	1	gegner	866	0	0	0	0	0	0	0	0	0	0	0	0	0	0	0	0	0	0	0	0	0	0	0	0	0	0	0	0	0	0	0	0	0
062118	14:58:26	5.0.12.0	70	notassociated	Rpleas_acq	Same	Rpleas	Amasked	CS_A	1pleas	acq_pleas_masked	acq1_masked	1	3	0	0	300	300	0	0	1163	50	0	1	0	0	0	1	blank2r.bmp	0	1	+	0	5	C1r.bmp	492	1	blank2r.bmp	786	1	HLST	786	1	blank2r.bmp	866	2	erfinder	866	0	0	0	0	0	0	0	0	0	0	0	0	0	0	0	0	0	0	0	0	0	0	0	0	0	0	0	0	0	0	0	0	0
062118	14:58:26	5.0.12.0	70	notassociated	Rpleas_acq	Same	Rpleas	Amasked	CS_A	1pleas	acq_pleas_masked	acq1_masked	1	4	0	0	300	300	0	0	756	50	0	1	0	0	0	1	blank2r.bmp	0	1	+	0	1	B1r.bmp	492	1	blank2r.bmp	786	1	HLST	786	1	blank2r.bmp	866	5	meer	866	0	0	0	0	0	0	0	0	0	0	0	0	0	0	0	0	0	0	0	0	0	0	0	0	0	0	0	0	0	0	0	0	0
062118	14:58:26	5.0.12.0	70	notassociated	Rpleas_acq	Same	Rpleas	Amasked	CS_A	1pleas	acq_unple_masked	acq1_masked	1	5	0	0	300	300	0	0	761	46	0	1	0	0	0	1	blank2r.bmp	0	1	+	0	2	B2r.bmp	492	1	blank2r.bmp	786	1	DJMR	786	1	blank2r.bmp	866	3	wunde	866	0	0	0	0	0	0	0	0	0	0	0	0	0	0	0	0	0	0	0	0	0	0	0	0	0	0	0	0	0	0	0	0	0
062118	14:58:26	5.0.12.0	70	notassociated	Rpleas_acq	Same	Rpleas	Amasked	CS_A	1pleas	acq_pleas_masked	acq1_masked	1	6	0	0	300	300	0	0	945	50	0	1	0	0	0	1	blank2r.bmp	0	1	+	0	6	C2r.bmp	492	1	blank2r.bmp	786	1	HLST	786	1	blank2r.bmp	866	4	frieden	866	0	0	0	0	0	0	0	0	0	0	0	0	0	0	0	0	0	0	0	0	0	0	0	0	0	0	0	0	0	0	0	0	0
062118	14:58:26	5.0.12.0	70	notassociated	Rpleas_acq	Same	Rpleas	Amasked	CS_A	1pleas	acq_pleas_masked	acq1_masked	1	7	0	0	300	300	0	0	741	50	0	1	0	0	0	1	blank2r.bmp	0	1	+	0	3	B3r.bmp	492	1	blank2r.bmp	786	1	HLST	786	1	blank2r.bmp	866	3	mama	866	0	0	0	0	0	0	0	0	0	0	0	0	0	0	0	0	0	0	0	0	0	0	0	0	0	0	0	0	0	0	0	0	0
062118	14:58:26	5.0.12.0	70	notassociated	Rpleas_acq	Same	Rpleas	Amasked	CS_A	1pleas	acq_unple_masked	acq1_masked	1	8	0	0	300	300	0	0	783	46	0	1	0	0	0	1	blank2r.bmp	0	1	+	0	8	C4r.bmp	492	1	blank2r.bmp	786	1	DJMR	786	1	blank2r.bmp	866	6	narr	866	0	0	0	0	0	0	0	0	0	0	0	0	0	0	0	0	0	0	0	0	0	0	0	0	0	0	0	0	0	0	0	0	0
062118	14:58:26	5.0.12.0	70	notassociated	Rpleas_acq	Same	Rpleas	Amasked	CS_A	1pleas	acq_pleas_masked	acq1_masked	1	9	0	0	300	300	0	0	884	50	0	1	0	0	0	1	blank2r.bmp	0	1	+	0	7	C3r.bmp	492	1	blank2r.bmp	786	1	HLST	786	1	blank2r.bmp	866	1	jugend	866	0	0	0	0	0	0	0	0	0	0	0	0	0	0	0	0	0	0	0	0	0	0	0	0	0	0	0	0	0	0	0	0	0
062118	14:58:26	5.0.12.0	70	notassociated	Rpleas_acq	Same	Rpleas	Amasked	CS_A	1pleas	acq_unple_masked	acq1_masked	1	10	0	0	300	300	0	0	1301	46	0	1	0	0	0	1	blank2r.bmp	0	1	+	0	3	B3r.bmp	492	1	blank2r.bmp	786	1	DJMR	786	1	blank2r.bmp	866	5	armee	866	0	0	0	0	0	0	0	0	0	0	0	0	0	0	0	0	0	0	0	0	0	0	0	0	0	0	0	0	0	0	0	0	0
062118	14:58:26	5.0.12.0	70	notassociated	Rpleas_acq	Same	Rpleas	Amasked	CS_A	1pleas	acq_unple_masked	acq1_masked	1	11	0	0	300	300	0	0	737	46	0	1	0	0	0	1	blank2r.bmp	0	1	+	0	5	C1r.bmp	492	1	blank2r.bmp	786	1	DJMR	786	1	blank2r.bmp	866	2	zwang	866	0	0	0	0	0	0	0	0	0	0	0	0	0	0	0	0	0	0	0	0	0	0	0	0	0	0	0	0	0	0	0	0	0
062118	14:58:26	5.0.12.0	70	notassociated	Rpleas_acq	Same	Rpleas	Amasked	CS_A	1pleas	acq_unple_masked	acq1_masked	1	12	0	0	300	300	0	0	564	46	0	1	0	0	0	1	blank2r.bmp	0	1	+	0	4	B4r.bmp	492	1	blank2r.bmp	786	1	DJMR	786	1	blank2r.bmp	866	2	zwang	866	0	0	0	0	0	0	0	0	0	0	0	0	0	0	0	0	0	0	0	0	0	0	0	0	0	0	0	0	0	0	0	0	0
062118	14:58:26	5.0.12.0	70	notassociated	Rpleas_acq	Same	Rpleas	Amasked	CS_A	1pleas	acq_pleas_masked	acq1_masked	1	13	0	0	300	300	0	0	941	50	0	1	0	0	0	1	blank2r.bmp	0	1	+	0	1	B1r.bmp	492	1	blank2r.bmp	786	1	HLST	786	1	blank2r.bmp	866	6	wein	866	0	0	0	0	0	0	0	0	0	0	0	0	0	0	0	0	0	0	0	0	0	0	0	0	0	0	0	0	0	0	0	0	0
062118	14:58:26	5.0.12.0	70	notassociated	Rpleas_acq	Same	Rpleas	Amasked	CS_A	1pleas	acq_pleas_masked	acq1_masked	1	14	0	0	300	300	0	0	771	50	0	1	0	0	0	1	blank2r.bmp	0	1	+	0	6	C2r.bmp	492	1	blank2r.bmp	786	1	HLST	786	1	blank2r.bmp	866	1	jugend	866	0	0	0	0	0	0	0	0	0	0	0	0	0	0	0	0	0	0	0	0	0	0	0	0	0	0	0	0	0	0	0	0	0
062118	14:58:26	5.0.12.0	70	notassociated	Rpleas_acq	Same	Rpleas	Amasked	CS_A	1pleas	acq_unple_masked	acq1_masked	1	15	0	0	300	300	0	0	574	46	0	1	0	0	0	1	blank2r.bmp	0	1	+	0	2	B2r.bmp	492	1	blank2r.bmp	786	1	DJMR	786	1	blank2r.bmp	866	5	armee	866	0	0	0	0	0	0	0	0	0	0	0	0	0	0	0	0	0	0	0	0	0	0	0	0	0	0	0	0	0	0	0	0	0
062118	14:58:26	5.0.12.0	70	notassociated	Rpleas_acq	Same	Rpleas	Amasked	CS_A	1pleas	acq_pleas_masked	acq1_masked	1	16	0	0	300	300	0	0	613	50	0	1	0	0	0	1	blank2r.bmp	0	1	+	0	8	C4r.bmp	492	1	blank2r.bmp	786	1	HLST	786	1	blank2r.bmp	866	6	wein	866	0	0	0	0	0	0	0	0	0	0	0	0	0	0	0	0	0	0	0	0	0	0	0	0	0	0	0	0	0	0	0	0	0
062118	14:58:26	5.0.12.0	70	notassociated	Rpleas_acq	Same	Rpleas	Amasked	CS_A	1pleas	acq_unple_masked	acq1_masked	1	17	0	0	300	300	0	0	623	46	0	1	0	0	0	1	blank2r.bmp	0	1	+	0	7	C3r.bmp	492	1	blank2r.bmp	786	1	DJMR	786	1	blank2r.bmp	866	1	gegner	866	0	0	0	0	0	0	0	0	0	0	0	0	0	0	0	0	0	0	0	0	0	0	0	0	0	0	0	0	0	0	0	0	0
062118	14:58:26	5.0.12.0	70	notassociated	Rpleas_acq	Same	Rpleas	Amasked	CS_A	1pleas	acq_pleas_masked	acq1_masked	1	18	0	0	300	300	0	0	876	50	0	1	0	0	0	1	blank2r.bmp	0	1	+	0	8	C4r.bmp	492	1	blank2r.bmp	786	1	HLST	786	1	blank2r.bmp	866	2	erfinder	866	0	0	0	0	0	0	0	0	0	0	0	0	0	0	0	0	0	0	0	0	0	0	0	0	0	0	0	0	0	0	0	0	0
062118	14:58:26	5.0.12.0	70	notassociated	Rpleas_acq	Same	Rpleas	Amasked	CS_A	1pleas	acq_pleas_masked	acq1_masked	1	19	0	0	300	300	0	0	554	50	0	1	0	0	0	1	blank2r.bmp	0	1	+	0	1	B1r.bmp	492	1	blank2r.bmp	786	1	HLST	786	1	blank2r.bmp	866	5	meer	866	0	0	0	0	0	0	0	0	0	0	0	0	0	0	0	0	0	0	0	0	0	0	0	0	0	0	0	0	0	0	0	0	0
062118	14:58:26	5.0.12.0	70	notassociated	Rpleas_acq	Same	Rpleas	Amasked	CS_A	1pleas	acq_pleas_masked	acq1_masked	1	20	0	0	300	300	0	0	630	50	0	1	0	0	0	1	blank2r.bmp	0	1	+	0	3	B3r.bmp	492	1	blank2r.bmp	786	1	HLST	786	1	blank2r.bmp	866	4	frieden	866	0	0	0	0	0	0	0	0	0	0	0	0	0	0	0	0	0	0	0	0	0	0	0	0	0	0	0	0	0	0	0	0	0
062118	14:58:26	5.0.12.0	70	notassociated	Rpleas_acq	Same	Rpleas	Amasked	CS_A	1pleas	acq_pleas_masked	acq1_masked	1	21	0	0	300	300	0	0	443	50	0	1	0	0	0	1	blank2r.bmp	0	1	+	0	6	C2r.bmp	492	1	blank2r.bmp	786	1	HLST	786	1	blank2r.bmp	866	3	mama	866	0	0	0	0	0	0	0	0	0	0	0	0	0	0	0	0	0	0	0	0	0	0	0	0	0	0	0	0	0	0	0	0	0
062118	14:58:26	5.0.12.0	70	notassociated	Rpleas_acq	Same	Rpleas	Amasked	CS_A	1pleas	acq_unple_masked	acq1_masked	1	22	0	0	300	300	0	0	791	46	0	1	0	0	0	1	blank2r.bmp	0	1	+	0	4	B4r.bmp	492	1	blank2r.bmp	786	1	DJMR	786	1	blank2r.bmp	866	3	wunde	866	0	0	0	0	0	0	0	0	0	0	0	0	0	0	0	0	0	0	0	0	0	0	0	0	0	0	0	0	0	0	0	0	0
062118	14:58:26	5.0.12.0	70	notassociated	Rpleas_acq	Same	Rpleas	Amasked	CS_A	1pleas	acq_unple_masked	acq1_masked	1	23	0	0	300	300	0	0	893	46	0	1	0	0	0	1	blank2r.bmp	0	1	+	0	5	C1r.bmp	492	1	blank2r.bmp	786	1	DJMR	786	1	blank2r.bmp	866	6	narr	866	0	0	0	0	0	0	0	0	0	0	0	0	0	0	0	0	0	0	0	0	0	0	0	0	0	0	0	0	0	0	0	0	0
062118	14:58:26	5.0.12.0	70	notassociated	Rpleas_acq	Same	Rpleas	Amasked	CS_A	1pleas	acq_unple_masked	acq1_masked	1	24	0	0	300	300	0	0	624	46	0	1	0	0	0	1	blank2r.bmp	0	1	+	0	2	B2r.bmp	492	1	blank2r.bmp	786	1	DJMR	786	1	blank2r.bmp	866	4	geiz	866	0	0	0	0	0	0	0	0	0	0	0	0	0	0	0	0	0	0	0	0	0	0	0	0	0	0	0	0	0	0	0	0	0
062118	14:58:26	5.0.12.0	70	notassociated	Rpleas_acq	Same	Rpleas	Amasked	CS_A	1pleas	acq_unple_masked	acq2_masked	2	1	480	0	300	300	0	0	9419	46	0	1	0	0	0	1	blank2r.bmp	0	1	+	0	7	C3r.bmp	492	1	blank2r.bmp	786	1	DJMR	786	1	blank2r.bmp	866	5	armee	866	1	!	1307	1	!	-1	0	0	0	0	0	0	0	0	0	0	0	0	0	0	0	0	0	0	0	0	0	0	0	0	0	0	0
062118	14:58:26	5.0.12.0	70	notassociated	Rpleas_acq	Same	Rpleas	Amasked	CS_A	1pleas	acq_unple_masked	acq2_masked	2	2	480	0	300	300	0	0	608	46	0	1	0	0	0	1	blank2r.bmp	0	1	+	0	2	B2r.bmp	492	1	blank2r.bmp	786	1	DJMR	786	1	blank2r.bmp	866	6	narr	866	1	!	1307	1	!	-1	0	0	0	0	0	0	0	0	0	0	0	0	0	0	0	0	0	0	0	0	0	0	0	0	0	0	0
062118	14:58:26	5.0.12.0	70	notassociated	Rpleas_acq	Same	Rpleas	Amasked	CS_A	1pleas	acq_pleas_masked	acq2_masked	2	3	480	1	300	300	0	0	451	46	0	0	0	0	0	1	blank2r.bmp	0	1	+	0	8	C4r.bmp	492	1	blank2r.bmp	786	1	HLST	786	1	blank2r.bmp	866	4	frieden	866	1	FEHLER	1639	1	!	1307	1	!	1345	0	0	0	0	0	0	0	0	0	0	0	0	0	0	0	0	0	0	0	0	0	0	0	0
062118	14:58:26	5.0.12.0	70	notassociated	Rpleas_acq	Same	Rpleas	Amasked	CS_A	1pleas	acq_unple_masked	acq2_masked	2	4	480	1	300	300	0	0	448	50	0	0	0	0	0	1	blank2r.bmp	0	1	+	0	3	B3r.bmp	492	1	blank2r.bmp	786	1	DJMR	786	1	blank2r.bmp	866	4	geiz	866	1	FEHLER	1636	1	!	1307	1	!	1342	0	0	0	0	0	0	0	0	0	0	0	0	0	0	0	0	0	0	0	0	0	0	0	0
062118	14:58:26	5.0.12.0	70	notassociated	Rpleas_acq	Same	Rpleas	Amasked	CS_A	1pleas	acq_pleas_masked	acq2_masked	2	5	480	1	300	300	0	0	518	50	0	1	0	0	0	1	blank2r.bmp	0	1	+	0	5	C1r.bmp	492	1	blank2r.bmp	786	1	HLST	786	1	blank2r.bmp	866	5	meer	866	1	!	1307	1	!	1411	0	0	0	0	0	0	0	0	0	0	0	0	0	0	0	0	0	0	0	0	0	0	0	0	0	0	0
062118	14:58:26	5.0.12.0	70	notassociated	Rpleas_acq	Same	Rpleas	Amasked	CS_A	1pleas	acq_pleas_masked	acq2_masked	2	6	480	1	300	300	0	0	528	50	0	1	0	0	0	1	blank2r.bmp	0	1	+	0	6	C2r.bmp	492	1	blank2r.bmp	786	1	HLST	786	1	blank2r.bmp	866	1	jugend	866	1	!	1307	1	!	1422	0	0	0	0	0	0	0	0	0	0	0	0	0	0	0	0	0	0	0	0	0	0	0	0	0	0	0
062118	14:58:26	5.0.12.0	70	notassociated	Rpleas_acq	Same	Rpleas	Amasked	CS_A	1pleas	acq_unple_masked	acq2_masked	2	7	480	1	300	300	0	0	518	46	0	1	0	0	0	1	blank2r.bmp	0	1	+	0	1	B1r.bmp	492	1	blank2r.bmp	786	1	DJMR	786	1	blank2r.bmp	866	2	zwang	866	1	!	1307	1	!	1412	0	0	0	0	0	0	0	0	0	0	0	0	0	0	0	0	0	0	0	0	0	0	0	0	0	0	0
062118	14:58:26	5.0.12.0	70	notassociated	Rpleas_acq	Same	Rpleas	Amasked	CS_A	1pleas	acq_pleas_masked	acq2_masked	2	8	480	0	300	300	0	0	382	50	0	1	0	0	0	1	blank2r.bmp	0	1	+	0	4	B4r.bmp	492	1	blank2r.bmp	786	1	HLST	786	1	blank2r.bmp	866	3	mama	866	1	!	-1	1	!	-1	0	0	0	0	0	0	0	0	0	0	0	0	0	0	0	0	0	0	0	0	0	0	0	0	0	0	0
062118	14:58:26	5.0.12.0	70	notassociated	Rpleas_acq	Same	Rpleas	Amasked	CS_A	1pleas	acq_pleas_masked	acq2_masked	2	9	480	0	300	300	0	0	755	50	0	1	0	0	0	1	blank2r.bmp	0	1	+	0	8	C4r.bmp	492	1	blank2r.bmp	786	1	HLST	786	1	blank2r.bmp	866	2	erfinder	866	1	!	1307	1	!	-1	0	0	0	0	0	0	0	0	0	0	0	0	0	0	0	0	0	0	0	0	0	0	0	0	0	0	0
062118	14:58:26	5.0.12.0	70	notassociated	Rpleas_acq	Same	Rpleas	Amasked	CS_A	1pleas	acq_unple_masked	acq2_masked	2	10	480	1	300	300	0	0	428	50	0	0	0	0	0	1	blank2r.bmp	0	1	+	0	1	B1r.bmp	492	1	blank2r.bmp	786	1	DJMR	786	1	blank2r.bmp	866	1	gegner	866	1	FEHLER	1615	1	!	1307	1	!	1322	0	0	0	0	0	0	0	0	0	0	0	0	0	0	0	0	0	0	0	0	0	0	0	0
062118	14:58:26	5.0.12.0	70	notassociated	Rpleas_acq	Same	Rpleas	Amasked	CS_A	1pleas	acq_pleas_masked	acq2_masked	2	11	480	0	300	300	0	0	556	50	0	1	0	0	0	1	blank2r.bmp	0	1	+	0	3	B3r.bmp	492	1	blank2r.bmp	786	1	HLST	786	1	blank2r.bmp	866	6	wein	866	1	!	1307	1	!	-1	0	0	0	0	0	0	0	0	0	0	0	0	0	0	0	0	0	0	0	0	0	0	0	0	0	0	0
062118	14:58:26	5.0.12.0	70	notassociated	Rpleas_acq	Same	Rpleas	Amasked	CS_A	1pleas	acq_pleas_masked	acq2_masked	2	12	480	1	300	300	0	0	516	46	0	0	0	0	0	1	blank2r.bmp	0	1	+	0	4	B4r.bmp	492	1	blank2r.bmp	786	1	HLST	786	1	blank2r.bmp	866	4	frieden	866	1	FEHLER	1703	1	!	1307	1	!	1410	0	0	0	0	0	0	0	0	0	0	0	0	0	0	0	0	0	0	0	0	0	0	0	0
062118	14:58:26	5.0.12.0	70	notassociated	Rpleas_acq	Same	Rpleas	Amasked	CS_A	1pleas	acq_unple_masked	acq2_masked	2	13	480	1	300	300	0	0	519	50	0	0	0	0	0	1	blank2r.bmp	0	1	+	0	7	C3r.bmp	492	1	blank2r.bmp	786	1	DJMR	786	1	blank2r.bmp	866	3	wunde	866	1	FEHLER	1706	1	!	1307	1	!	1412	0	0	0	0	0	0	0	0	0	0	0	0	0	0	0	0	0	0	0	0	0	0	0	0
062118	14:58:26	5.0.12.0	70	notassociated	Rpleas_acq	Same	Rpleas	Amasked	CS_A	1pleas	acq_pleas_masked	acq2_masked	2	14	480	1	300	300	0	0	447	50	0	1	0	0	0	1	blank2r.bmp	0	1	+	0	5	C1r.bmp	492	1	blank2r.bmp	786	1	HLST	786	1	blank2r.bmp	866	6	wein	866	1	!	1307	1	!	1340	0	0	0	0	0	0	0	0	0	0	0	0	0	0	0	0	0	0	0	0	0	0	0	0	0	0	0
062118	14:58:26	5.0.12.0	70	notassociated	Rpleas_acq	Same	Rpleas	Amasked	CS_A	1pleas	acq_unple_masked	acq2_masked	2	15	480	1	300	300	0	0	473	50	0	0	0	0	0	1	blank2r.bmp	0	1	+	0	2	B2r.bmp	492	1	blank2r.bmp	786	1	DJMR	786	1	blank2r.bmp	866	4	geiz	866	1	FEHLER	1661	1	!	1307	1	!	1367	0	0	0	0	0	0	0	0	0	0	0	0	0	0	0	0	0	0	0	0	0	0	0	0
062118	14:58:26	5.0.12.0	70	notassociated	Rpleas_acq	Same	Rpleas	Amasked	CS_A	1pleas	acq_unple_masked	acq2_masked	2	16	480	0	300	300	0	0	633	46	0	1	0	0	0	1	blank2r.bmp	0	1	+	0	6	C2r.bmp	492	1	blank2r.bmp	786	1	DJMR	786	1	blank2r.bmp	866	5	armee	866	1	!	1307	1	!	-1	0	0	0	0	0	0	0	0	0	0	0	0	0	0	0	0	0	0	0	0	0	0	0	0	0	0	0
062118	14:58:26	5.0.12.0	70	notassociated	Rpleas_acq	Same	Rpleas	Amasked	CS_A	1pleas	acq_unple_masked	acq2_masked	2	17	480	1	300	300	0	0	492	50	0	0	0	0	0	1	blank2r.bmp	0	1	+	0	4	B4r.bmp	492	1	blank2r.bmp	786	1	DJMR	786	1	blank2r.bmp	866	2	zwang	866	1	FEHLER	1680	1	!	1307	1	!	1386	0	0	0	0	0	0	0	0	0	0	0	0	0	0	0	0	0	0	0	0	0	0	0	0
062118	14:58:26	5.0.12.0	70	notassociated	Rpleas_acq	Same	Rpleas	Amasked	CS_A	1pleas	acq_unple_masked	acq2_masked	2	18	480	0	300	300	0	0	594	46	0	1	0	0	0	1	blank2r.bmp	0	1	+	0	2	B2r.bmp	492	1	blank2r.bmp	786	1	DJMR	786	1	blank2r.bmp	866	6	narr	866	1	!	1307	1	!	-1	0	0	0	0	0	0	0	0	0	0	0	0	0	0	0	0	0	0	0	0	0	0	0	0	0	0	0
062118	14:58:26	5.0.12.0	70	notassociated	Rpleas_acq	Same	Rpleas	Amasked	CS_A	1pleas	acq_unple_masked	acq2_masked	2	19	480	1	300	300	0	0	466	46	0	1	0	0	0	1	blank2r.bmp	0	1	+	0	6	C2r.bmp	492	1	blank2r.bmp	786	1	DJMR	786	1	blank2r.bmp	866	3	wunde	866	1	!	1307	1	!	1360	0	0	0	0	0	0	0	0	0	0	0	0	0	0	0	0	0	0	0	0	0	0	0	0	0	0	0
062118	14:58:26	5.0.12.0	70	notassociated	Rpleas_acq	Same	Rpleas	Amasked	CS_A	1pleas	acq_pleas_masked	acq2_masked	2	20	480	1	300	300	0	0	442	50	0	1	0	0	0	1	blank2r.bmp	0	1	+	0	1	B1r.bmp	492	1	blank2r.bmp	786	1	HLST	786	1	blank2r.bmp	866	1	jugend	866	1	!	1307	1	!	1336	0	0	0	0	0	0	0	0	0	0	0	0	0	0	0	0	0	0	0	0	0	0	0	0	0	0	0
062118	14:58:26	5.0.12.0	70	notassociated	Rpleas_acq	Same	Rpleas	Amasked	CS_A	1pleas	acq_pleas_masked	acq2_masked	2	21	480	1	300	300	0	0	453	50	0	1	0	0	0	1	blank2r.bmp	0	1	+	0	5	C1r.bmp	492	1	blank2r.bmp	786	1	HLST	786	1	blank2r.bmp	866	2	erfinder	866	1	!	1307	1	!	1346	0	0	0	0	0	0	0	0	0	0	0	0	0	0	0	0	0	0	0	0	0	0	0	0	0	0	0
062118	14:58:26	5.0.12.0	70	notassociated	Rpleas_acq	Same	Rpleas	Amasked	CS_A	1pleas	acq_unple_masked	acq2_masked	2	22	480	1	300	300	0	0	535	46	0	1	0	0	0	1	blank2r.bmp	0	1	+	0	8	C4r.bmp	492	1	blank2r.bmp	786	1	DJMR	786	1	blank2r.bmp	866	1	gegner	866	1	!	1307	1	!	1429	0	0	0	0	0	0	0	0	0	0	0	0	0	0	0	0	0	0	0	0	0	0	0	0	0	0	0
062118	14:58:26	5.0.12.0	70	notassociated	Rpleas_acq	Same	Rpleas	Amasked	CS_A	1pleas	acq_pleas_masked	acq2_masked	2	23	480	1	300	300	0	0	445	50	0	1	0	0	0	1	blank2r.bmp	0	1	+	0	7	C3r.bmp	492	1	blank2r.bmp	786	1	HLST	786	1	blank2r.bmp	866	3	mama	866	1	!	1307	1	!	1338	0	0	0	0	0	0	0	0	0	0	0	0	0	0	0	0	0	0	0	0	0	0	0	0	0	0	0
062118	14:58:26	5.0.12.0	70	notassociated	Rpleas_acq	Same	Rpleas	Amasked	CS_A	1pleas	acq_pleas_masked	acq2_masked	2	24	480	0	300	300	0	0	386	46	0	0	0	0	0	1	blank2r.bmp	0	1	+	0	3	B3r.bmp	492	1	blank2r.bmp	786	1	HLST	786	1	blank2r.bmp	866	5	meer	866	1	FEHLER	1573	1	!	-1	1	!	-1	0	0	0	0	0	0	0	0	0	0	0	0	0	0	0	0	0	0	0	0	0	0	0	0
062118	14:58:26	5.0.12.0	70	notassociated	Rpleas_acq	Same	Rpleas	Amasked	CS_A	1pleas	acq_unple_masked	acq3_masked	3	1	453	0	300	300	0	0	620	46	0	1	0	0	0	1	blank2r.bmp	0	1	+	0	5	C1r.bmp	492	1	blank2r.bmp	786	1	DJMR	786	1	blank2r.bmp	866	2	zwang	866	1	!	1280	1	!	-1	0	0	0	0	0	0	0	0	0	0	0	0	0	0	0	0	0	0	0	0	0	0	0	0	0	0	0
062118	14:58:26	5.0.12.0	70	notassociated	Rpleas_acq	Same	Rpleas	Amasked	CS_A	1pleas	acq_unple_masked	acq3_masked	3	2	453	0	300	300	0	0	386	46	0	1	0	0	0	1	blank2r.bmp	0	1	+	0	1	B1r.bmp	492	1	blank2r.bmp	786	1	DJMR	786	1	blank2r.bmp	866	6	narr	866	1	!	-1	1	!	-1	0	0	0	0	0	0	0	0	0	0	0	0	0	0	0	0	0	0	0	0	0	0	0	0	0	0	0
062118	14:58:26	5.0.12.0	70	notassociated	Rpleas_acq	Same	Rpleas	Amasked	CS_A	1pleas	acq_unple_masked	acq3_masked	3	3	453	0	300	300	0	0	905	46	0	1	0	0	0	1	blank2r.bmp	0	1	+	0	3	B3r.bmp	492	1	blank2r.bmp	786	1	DJMR	786	1	blank2r.bmp	866	4	geiz	866	1	!	1280	1	!	-1	0	0	0	0	0	0	0	0	0	0	0	0	0	0	0	0	0	0	0	0	0	0	0	0	0	0	0
062118	14:58:26	5.0.12.0	70	notassociated	Rpleas_acq	Same	Rpleas	Amasked	CS_A	1pleas	acq_pleas_masked	acq3_masked	3	4	453	1	300	300	0	0	451	50	0	1	0	0	0	1	blank2r.bmp	0	1	+	0	2	B2r.bmp	492	1	blank2r.bmp	786	1	HLST	786	1	blank2r.bmp	866	4	frieden	866	1	!	1280	1	!	1344	0	0	0	0	0	0	0	0	0	0	0	0	0	0	0	0	0	0	0	0	0	0	0	0	0	0	0
062118	14:58:26	5.0.12.0	70	notassociated	Rpleas_acq	Same	Rpleas	Amasked	CS_A	1pleas	acq_pleas_masked	acq3_masked	3	5	453	1	300	300	0	0	461	50	0	1	0	0	0	1	blank2r.bmp	0	1	+	0	7	C3r.bmp	492	1	blank2r.bmp	786	1	HLST	786	1	blank2r.bmp	866	1	jugend	866	1	!	1280	1	!	1355	0	0	0	0	0	0	0	0	0	0	0	0	0	0	0	0	0	0	0	0	0	0	0	0	0	0	0
062118	14:58:26	5.0.12.0	70	notassociated	Rpleas_acq	Same	Rpleas	Amasked	CS_A	1pleas	acq_unple_masked	acq3_masked	3	6	453	0	300	300	0	0	547	46	0	1	0	0	0	1	blank2r.bmp	0	1	+	0	8	C4r.bmp	492	1	blank2r.bmp	786	1	DJMR	786	1	blank2r.bmp	866	3	wunde	866	1	!	1280	1	!	-1	0	0	0	0	0	0	0	0	0	0	0	0	0	0	0	0	0	0	0	0	0	0	0	0	0	0	0
062118	14:58:26	5.0.12.0	70	notassociated	Rpleas_acq	Same	Rpleas	Amasked	CS_A	1pleas	acq_unple_masked	acq3_masked	3	7	453	0	300	300	0	0	539	46	0	1	0	0	0	1	blank2r.bmp	0	1	+	0	6	C2r.bmp	492	1	blank2r.bmp	786	1	DJMR	786	1	blank2r.bmp	866	1	gegner	866	1	!	1280	1	!	-1	0	0	0	0	0	0	0	0	0	0	0	0	0	0	0	0	0	0	0	0	0	0	0	0	0	0	0
062118	14:58:26	5.0.12.0	70	notassociated	Rpleas_acq	Same	Rpleas	Amasked	CS_A	1pleas	acq_unple_masked	acq3_masked	3	8	453	0	300	300	0	0	323	46	0	1	0	0	0	1	blank2r.bmp	0	1	+	0	4	B4r.bmp	492	1	blank2r.bmp	786	1	DJMR	786	1	blank2r.bmp	866	5	armee	866	1	!	-1	1	!	-1	0	0	0	0	0	0	0	0	0	0	0	0	0	0	0	0	0	0	0	0	0	0	0	0	0	0	0
062118	14:58:26	5.0.12.0	70	notassociated	Rpleas_acq	Same	Rpleas	Amasked	CS_A	1pleas	acq_pleas_masked	acq3_masked	3	9	453	0	300	300	0	0	709	50	0	1	0	0	0	1	blank2r.bmp	0	1	+	0	1	B1r.bmp	492	1	blank2r.bmp	786	1	HLST	786	1	blank2r.bmp	866	6	wein	866	1	!	1280	1	!	-1	0	0	0	0	0	0	0	0	0	0	0	0	0	0	0	0	0	0	0	0	0	0	0	0	0	0	0
062118	14:58:26	5.0.12.0	70	notassociated	Rpleas_acq	Same	Rpleas	Amasked	CS_A	1pleas	acq_pleas_masked	acq3_masked	3	10	453	0	300	300	0	0	630	50	0	1	0	0	0	1	blank2r.bmp	0	1	+	0	2	B2r.bmp	492	1	blank2r.bmp	786	1	HLST	786	1	blank2r.bmp	866	3	mama	866	1	!	1280	1	!	-1	0	0	0	0	0	0	0	0	0	0	0	0	0	0	0	0	0	0	0	0	0	0	0	0	0	0	0
062118	14:58:26	5.0.12.0	70	notassociated	Rpleas_acq	Same	Rpleas	Amasked	CS_A	1pleas	acq_pleas_masked	acq3_masked	3	11	453	0	300	300	0	0	374	46	0	0	0	0	0	1	blank2r.bmp	0	1	+	0	6	C2r.bmp	492	1	blank2r.bmp	786	1	HLST	786	1	blank2r.bmp	866	2	erfinder	866	1	FEHLER	1562	1	!	-1	1	!	-1	0	0	0	0	0	0	0	0	0	0	0	0	0	0	0	0	0	0	0	0	0	0	0	0
062118	14:58:26	5.0.12.0	70	notassociated	Rpleas_acq	Same	Rpleas	Amasked	CS_A	1pleas	acq_unple_masked	acq3_masked	3	12	453	1	300	300	0	0	459	46	0	1	0	0	0	1	blank2r.bmp	0	1	+	0	3	B3r.bmp	492	1	blank2r.bmp	786	1	DJMR	786	1	blank2r.bmp	866	3	wunde	866	1	!	1280	1	!	1353	0	0	0	0	0	0	0	0	0	0	0	0	0	0	0	0	0	0	0	0	0	0	0	0	0	0	0
062118	14:58:26	5.0.12.0	70	notassociated	Rpleas_acq	Same	Rpleas	Amasked	CS_A	1pleas	acq_pleas_masked	acq3_masked	3	13	453	1	300	300	0	0	432	50	0	1	0	0	0	1	blank2r.bmp	0	1	+	0	8	C4r.bmp	492	1	blank2r.bmp	786	1	HLST	786	1	blank2r.bmp	866	5	meer	866	1	!	1280	1	!	1326	0	0	0	0	0	0	0	0	0	0	0	0	0	0	0	0	0	0	0	0	0	0	0	0	0	0	0
062118	14:58:26	5.0.12.0	70	notassociated	Rpleas_acq	Same	Rpleas	Amasked	CS_A	1pleas	acq_pleas_masked	acq3_masked	3	14	453	1	300	300	0	0	395	50	0	1	0	0	0	1	blank2r.bmp	0	1	+	0	5	C1r.bmp	492	1	blank2r.bmp	786	1	HLST	786	1	blank2r.bmp	866	1	jugend	866	1	!	1280	1	!	1289	0	0	0	0	0	0	0	0	0	0	0	0	0	0	0	0	0	0	0	0	0	0	0	0	0	0	0
062118	14:58:26	5.0.12.0	70	notassociated	Rpleas_acq	Same	Rpleas	Amasked	CS_A	1pleas	acq_unple_masked	acq3_masked	3	15	453	0	300	300	0	0	645	46	0	1	0	0	0	1	blank2r.bmp	0	1	+	0	7	C3r.bmp	492	1	blank2r.bmp	786	1	DJMR	786	1	blank2r.bmp	866	1	gegner	866	1	!	1280	1	!	-1	0	0	0	0	0	0	0	0	0	0	0	0	0	0	0	0	0	0	0	0	0	0	0	0	0	0	0
062118	14:58:26	5.0.12.0	70	notassociated	Rpleas_acq	Same	Rpleas	Amasked	CS_A	1pleas	acq_pleas_masked	acq3_masked	3	16	453	0	300	300	0	0	315	46	0	0	0	0	0	1	blank2r.bmp	0	1	+	0	4	B4r.bmp	492	1	blank2r.bmp	786	1	HLST	786	1	blank2r.bmp	866	5	meer	866	1	FEHLER	1503	1	!	-1	1	!	-1	0	0	0	0	0	0	0	0	0	0	0	0	0	0	0	0	0	0	0	0	0	0	0	0
062118	14:58:26	5.0.12.0	70	notassociated	Rpleas_acq	Same	Rpleas	Amasked	CS_A	1pleas	acq_unple_masked	acq3_masked	3	17	453	1	300	300	0	0	483	50	0	0	0	0	0	1	blank2r.bmp	0	1	+	0	6	C2r.bmp	492	1	blank2r.bmp	786	1	DJMR	786	1	blank2r.bmp	866	4	geiz	866	1	FEHLER	1670	1	!	1280	1	!	1376	0	0	0	0	0	0	0	0	0	0	0	0	0	0	0	0	0	0	0	0	0	0	0	0
062118	14:58:26	5.0.12.0	70	notassociated	Rpleas_acq	Same	Rpleas	Amasked	CS_A	1pleas	acq_pleas_masked	acq3_masked	3	18	453	1	300	300	0	0	517	50	0	1	0	0	0	1	blank2r.bmp	0	1	+	0	4	B4r.bmp	492	1	blank2r.bmp	786	1	HLST	786	1	blank2r.bmp	866	2	erfinder	866	1	!	1280	1	!	1411	0	0	0	0	0	0	0	0	0	0	0	0	0	0	0	0	0	0	0	0	0	0	0	0	0	0	0
062118	14:58:26	5.0.12.0	70	notassociated	Rpleas_acq	Same	Rpleas	Amasked	CS_A	1pleas	acq_unple_masked	acq3_masked	3	19	453	1	300	300	0	0	518	46	0	1	0	0	0	1	blank2r.bmp	0	1	+	0	1	B1r.bmp	492	1	blank2r.bmp	786	1	DJMR	786	1	blank2r.bmp	866	6	narr	866	1	!	1280	1	!	1411	0	0	0	0	0	0	0	0	0	0	0	0	0	0	0	0	0	0	0	0	0	0	0	0	0	0	0
062118	14:58:26	5.0.12.0	70	notassociated	Rpleas_acq	Same	Rpleas	Amasked	CS_A	1pleas	acq_pleas_masked	acq3_masked	3	20	453	1	300	300	0	0	456	50	0	1	0	0	0	1	blank2r.bmp	0	1	+	0	3	B3r.bmp	492	1	blank2r.bmp	786	1	HLST	786	1	blank2r.bmp	866	4	frieden	866	1	!	1280	1	!	1350	0	0	0	0	0	0	0	0	0	0	0	0	0	0	0	0	0	0	0	0	0	0	0	0	0	0	0
062118	14:58:26	5.0.12.0	70	notassociated	Rpleas_acq	Same	Rpleas	Amasked	CS_A	1pleas	acq_pleas_masked	acq3_masked	3	21	453	1	300	300	0	0	413	50	0	1	0	0	0	1	blank2r.bmp	0	1	+	0	7	C3r.bmp	492	1	blank2r.bmp	786	1	HLST	786	1	blank2r.bmp	866	3	mama	866	1	!	1280	1	!	1307	0	0	0	0	0	0	0	0	0	0	0	0	0	0	0	0	0	0	0	0	0	0	0	0	0	0	0
062118	14:58:26	5.0.12.0	70	notassociated	Rpleas_acq	Same	Rpleas	Amasked	CS_A	1pleas	acq_pleas_masked	acq3_masked	3	22	453	1	300	300	0	0	443	50	0	1	0	0	0	1	blank2r.bmp	0	1	+	0	5	C1r.bmp	492	1	blank2r.bmp	786	1	HLST	786	1	blank2r.bmp	866	6	wein	866	1	!	1280	1	!	1336	0	0	0	0	0	0	0	0	0	0	0	0	0	0	0	0	0	0	0	0	0	0	0	0	0	0	0
062118	14:58:26	5.0.12.0	70	notassociated	Rpleas_acq	Same	Rpleas	Amasked	CS_A	1pleas	acq_pleas_masked	acq3_masked	3	23	453	1	300	300	0	0	517	50	0	1	0	0	0	1	blank2r.bmp	0	1	+	0	2	B2r.bmp	492	1	blank2r.bmp	786	1	HLST	786	1	blank2r.bmp	866	2	erfinder	866	1	!	1280	1	!	1411	0	0	0	0	0	0	0	0	0	0	0	0	0	0	0	0	0	0	0	0	0	0	0	0	0	0	0
062118	14:58:26	5.0.12.0	70	notassociated	Rpleas_acq	Same	Rpleas	Amasked	CS_A	1pleas	acq_unple_masked	acq3_masked	3	24	453	0	300	300	0	0	381	50	0	0	0	0	0	1	blank2r.bmp	0	1	+	0	8	C4r.bmp	492	1	blank2r.bmp	786	1	DJMR	786	1	blank2r.bmp	866	5	armee	866	1	FEHLER	1568	1	!	-1	1	!	-1	0	0	0	0	0	0	0	0	0	0	0	0	0	0	0	0	0	0	0	0	0	0	0	0
062118	14:58:26	5.0.12.0	70	notassociated	Rpleas_acq	Same	Rpleas	Amasked	CS_A	1pleas	acq_unple_masked	acq3_masked	3	25	453	0	300	300	0	0	530	46	0	1	0	0	0	1	blank2r.bmp	0	1	+	0	7	C3r.bmp	492	1	blank2r.bmp	786	1	DJMR	786	1	blank2r.bmp	866	2	zwang	866	1	!	1280	1	!	-1	0	0	0	0	0	0	0	0	0	0	0	0	0	0	0	0	0	0	0	0	0	0	0	0	0	0	0
062118	14:58:26	5.0.12.0	70	notassociated	Rpleas_acq	Same	Rpleas	Amasked	CS_A	1pleas	acq_pleas_masked	acq3_masked	3	26	453	1	300	300	0	0	445	50	0	1	0	0	0	1	blank2r.bmp	0	1	+	0	2	B2r.bmp	492	1	blank2r.bmp	786	1	HLST	786	1	blank2r.bmp	866	5	meer	866	1	!	1280	1	!	1338	0	0	0	0	0	0	0	0	0	0	0	0	0	0	0	0	0	0	0	0	0	0	0	0	0	0	0
062118	14:58:26	5.0.12.0	70	notassociated	Rpleas_acq	Same	Rpleas	Amasked	CS_A	1pleas	acq_unple_masked	acq3_masked	3	27	453	0	300	300	0	0	687	46	0	1	0	0	0	1	blank2r.bmp	0	1	+	0	5	C1r.bmp	492	1	blank2r.bmp	786	1	DJMR	786	1	blank2r.bmp	866	5	armee	866	1	!	1280	1	!	-1	0	0	0	0	0	0	0	0	0	0	0	0	0	0	0	0	0	0	0	0	0	0	0	0	0	0	0
062118	14:58:26	5.0.12.0	70	notassociated	Rpleas_acq	Same	Rpleas	Amasked	CS_A	1pleas	acq_pleas_masked	acq3_masked	3	28	453	1	300	300	0	0	435	50	0	1	0	0	0	1	blank2r.bmp	0	1	+	0	6	C2r.bmp	492	1	blank2r.bmp	786	1	HLST	786	1	blank2r.bmp	866	3	mama	866	1	!	1280	1	!	1328	0	0	0	0	0	0	0	0	0	0	0	0	0	0	0	0	0	0	0	0	0	0	0	0	0	0	0
062118	14:58:26	5.0.12.0	70	notassociated	Rpleas_acq	Same	Rpleas	Amasked	CS_A	1pleas	acq_unple_masked	acq3_masked	3	29	453	1	300	300	0	0	445	46	0	1	0	0	0	1	blank2r.bmp	0	1	+	0	8	C4r.bmp	492	1	blank2r.bmp	786	1	DJMR	786	1	blank2r.bmp	866	4	geiz	866	1	!	1280	1	!	1339	0	0	0	0	0	0	0	0	0	0	0	0	0	0	0	0	0	0	0	0	0	0	0	0	0	0	0
062118	14:58:26	5.0.12.0	70	notassociated	Rpleas_acq	Same	Rpleas	Amasked	CS_A	1pleas	acq_unple_masked	acq3_masked	3	30	453	1	300	300	0	0	443	46	0	1	0	0	0	1	blank2r.bmp	0	1	+	0	1	B1r.bmp	492	1	blank2r.bmp	786	1	DJMR	786	1	blank2r.bmp	866	6	narr	866	1	!	1280	1	!	1336	0	0	0	0	0	0	0	0	0	0	0	0	0	0	0	0	0	0	0	0	0	0	0	0	0	0	0
062118	14:58:26	5.0.12.0	70	notassociated	Rpleas_acq	Same	Rpleas	Amasked	CS_A	1pleas	acq_pleas_masked	acq3_masked	3	31	453	0	300	300	0	0	581	50	0	1	0	0	0	1	blank2r.bmp	0	1	+	0	3	B3r.bmp	492	1	blank2r.bmp	786	1	HLST	786	1	blank2r.bmp	866	6	wein	866	1	!	1280	1	!	-1	0	0	0	0	0	0	0	0	0	0	0	0	0	0	0	0	0	0	0	0	0	0	0	0	0	0	0
062118	14:58:26	5.0.12.0	70	notassociated	Rpleas_acq	Same	Rpleas	Amasked	CS_A	1pleas	acq_unple_masked	acq3_masked	3	32	453	1	300	300	0	0	469	46	0	1	0	0	0	1	blank2r.bmp	0	1	+	0	4	B4r.bmp	492	1	blank2r.bmp	786	1	DJMR	786	1	blank2r.bmp	866	2	zwang	866	1	!	1280	1	!	1363	0	0	0	0	0	0	0	0	0	0	0	0	0	0	0	0	0	0	0	0	0	0	0	0	0	0	0
062118	14:58:26	5.0.12.0	70	notassociated	Rpleas_acq	Same	Rpleas	Amasked	CS_A	1pleas	acq_unple_masked	acq45_masked	4	1	400	0	300	300	0	0	560	46	0	1	0	0	0	1	blank2r.bmp	0	1	+	0	4	B4r.bmp	492	1	blank2r.bmp	786	1	DJMR	786	1	blank2r.bmp	866	3	wunde	866	1	!	1227	1	!	-1	0	0	0	0	0	0	0	0	0	0	0	0	0	0	0	0	0	0	0	0	0	0	0	0	0	0	0
062118	14:58:26	5.0.12.0	70	notassociated	Rpleas_acq	Same	Rpleas	Amasked	CS_A	1pleas	acq_unple_masked	acq45_masked	4	2	400	0	300	300	0	0	731	46	0	1	0	0	0	1	blank2r.bmp	0	1	+	0	2	B2r.bmp	492	1	blank2r.bmp	786	1	DJMR	786	1	blank2r.bmp	866	1	gegner	866	1	!	1227	1	!	-1	0	0	0	0	0	0	0	0	0	0	0	0	0	0	0	0	0	0	0	0	0	0	0	0	0	0	0
062118	14:58:26	5.0.12.0	70	notassociated	Rpleas_acq	Same	Rpleas	Amasked	CS_A	1pleas	acq_unple_masked	acq45_masked	4	3	400	0	300	300	0	0	497	46	0	1	0	0	0	1	blank2r.bmp	0	1	+	0	5	C1r.bmp	492	1	blank2r.bmp	786	1	DJMR	786	1	blank2r.bmp	866	4	geiz	866	1	!	1227	1	!	-1	0	0	0	0	0	0	0	0	0	0	0	0	0	0	0	0	0	0	0	0	0	0	0	0	0	0	0
062118	14:58:26	5.0.12.0	70	notassociated	Rpleas_acq	Same	Rpleas	Amasked	CS_A	1pleas	acq_pleas_masked	acq45_masked	4	4	400	0	300	300	0	0	550	50	0	1	0	0	0	1	blank2r.bmp	0	1	+	0	6	C2r.bmp	492	1	blank2r.bmp	786	1	HLST	786	1	blank2r.bmp	866	1	jugend	866	1	!	1227	1	!	-1	0	0	0	0	0	0	0	0	0	0	0	0	0	0	0	0	0	0	0	0	0	0	0	0	0	0	0
062118	14:58:26	5.0.12.0	70	notassociated	Rpleas_acq	Same	Rpleas	Amasked	CS_A	1pleas	acq_unple_masked	acq45_masked	4	5	400	0	300	300	0	0	310	50	0	0	0	0	0	1	blank2r.bmp	0	1	+	0	7	C3r.bmp	492	1	blank2r.bmp	786	1	DJMR	786	1	blank2r.bmp	866	3	wunde	866	1	!	-1	1	!	-1	0	0	0	0	0	0	0	0	0	0	0	0	0	0	0	0	0	0	0	0	0	0	0	0	0	0	0
062118	14:58:26	5.0.12.0	70	notassociated	Rpleas_acq	Same	Rpleas	Amasked	CS_A	1pleas	acq_pleas_masked	acq45_masked	4	6	400	0	300	300	0	0	614	46	0	0	0	0	0	1	blank2r.bmp	0	1	+	0	3	B3r.bmp	492	1	blank2r.bmp	786	1	HLST	786	1	blank2r.bmp	866	4	frieden	866	1	!	1227	1	!	-1	0	0	0	0	0	0	0	0	0	0	0	0	0	0	0	0	0	0	0	0	0	0	0	0	0	0	0
062118	14:58:26	5.0.12.0	70	notassociated	Rpleas_acq	Same	Rpleas	Amasked	CS_A	1pleas	acq_pleas_masked	acq45_masked	4	7	400	0	300	300	0	0	481	46	0	0	0	0	0	1	blank2r.bmp	0	1	+	0	1	B1r.bmp	492	1	blank2r.bmp	786	1	HLST	786	1	blank2r.bmp	866	4	frieden	866	1	!	1227	1	!	-1	0	0	0	0	0	0	0	0	0	0	0	0	0	0	0	0	0	0	0	0	0	0	0	0	0	0	0
062118	14:58:26	5.0.12.0	70	notassociated	Rpleas_acq	Same	Rpleas	Amasked	CS_A	1pleas	acq_pleas_masked	acq45_masked	4	8	400	0	300	300	0	0	473	50	0	1	0	0	0	1	blank2r.bmp	0	1	+	0	8	C4r.bmp	492	1	blank2r.bmp	786	1	HLST	786	1	blank2r.bmp	866	1	jugend	866	1	!	1227	1	!	-1	0	0	0	0	0	0	0	0	0	0	0	0	0	0	0	0	0	0	0	0	0	0	0	0	0	0	0
062118	14:58:26	5.0.12.0	70	notassociated	Rpleas_acq	Same	Rpleas	Amasked	CS_A	1pleas	acq_pleas_masked	acq45_masked	4	9	400	1	300	300	0	0	449	50	0	1	0	0	0	1	blank2r.bmp	0	1	+	0	5	C1r.bmp	492	1	blank2r.bmp	786	1	HLST	786	1	blank2r.bmp	866	6	wein	866	1	!	1227	1	!	1342	0	0	0	0	0	0	0	0	0	0	0	0	0	0	0	0	0	0	0	0	0	0	0	0	0	0	0
062118	14:58:26	5.0.12.0	70	notassociated	Rpleas_acq	Same	Rpleas	Amasked	CS_A	1pleas	acq_unple_masked	acq45_masked	4	10	400	0	300	300	0	0	526	46	0	1	0	0	0	1	blank2r.bmp	0	1	+	0	4	B4r.bmp	492	1	blank2r.bmp	786	1	DJMR	786	1	blank2r.bmp	866	6	narr	866	1	!	1227	1	!	-1	0	0	0	0	0	0	0	0	0	0	0	0	0	0	0	0	0	0	0	0	0	0	0	0	0	0	0
062118	14:58:26	5.0.12.0	70	notassociated	Rpleas_acq	Same	Rpleas	Amasked	CS_A	1pleas	acq_pleas_masked	acq45_masked	4	11	400	1	300	300	0	0	444	50	0	1	0	0	0	1	blank2r.bmp	0	1	+	0	6	C2r.bmp	492	1	blank2r.bmp	786	1	HLST	786	1	blank2r.bmp	866	5	meer	866	1	!	1227	1	!	1337	0	0	0	0	0	0	0	0	0	0	0	0	0	0	0	0	0	0	0	0	0	0	0	0	0	0	0
062118	14:58:26	5.0.12.0	70	notassociated	Rpleas_acq	Same	Rpleas	Amasked	CS_A	1pleas	acq_unple_masked	acq45_masked	4	12	400	1	300	300	0	0	406	50	0	0	0	0	0	1	blank2r.bmp	0	1	+	0	8	C4r.bmp	492	1	blank2r.bmp	786	1	DJMR	786	1	blank2r.bmp	866	1	gegner	866	1	!	1227	1	!	1300	0	0	0	0	0	0	0	0	0	0	0	0	0	0	0	0	0	0	0	0	0	0	0	0	0	0	0
062118	14:58:26	5.0.12.0	70	notassociated	Rpleas_acq	Same	Rpleas	Amasked	CS_A	1pleas	acq_pleas_masked	acq45_masked	4	13	400	0	300	300	0	0	475	50	0	1	0	0	0	1	blank2r.bmp	0	1	+	0	7	C3r.bmp	492	1	blank2r.bmp	786	1	HLST	786	1	blank2r.bmp	866	3	mama	866	1	!	1227	1	!	-1	0	0	0	0	0	0	0	0	0	0	0	0	0	0	0	0	0	0	0	0	0	0	0	0	0	0	0
062118	14:58:26	5.0.12.0	70	notassociated	Rpleas_acq	Same	Rpleas	Amasked	CS_A	1pleas	acq_unple_masked	acq45_masked	4	14	400	1	300	300	0	0	390	50	0	0	0	0	0	1	blank2r.bmp	0	1	+	0	1	B1r.bmp	492	1	blank2r.bmp	786	1	DJMR	786	1	blank2r.bmp	866	2	zwang	866	1	!	1227	1	!	1283	0	0	0	0	0	0	0	0	0	0	0	0	0	0	0	0	0	0	0	0	0	0	0	0	0	0	0
062118	14:58:26	5.0.12.0	70	notassociated	Rpleas_acq	Same	Rpleas	Amasked	CS_A	1pleas	acq_unple_masked	acq45_masked	4	15	400	1	300	300	0	0	381	46	0	1	0	0	0	1	blank2r.bmp	0	1	+	0	2	B2r.bmp	492	1	blank2r.bmp	786	1	DJMR	786	1	blank2r.bmp	866	5	armee	866	1	!	1227	1	!	1275	0	0	0	0	0	0	0	0	0	0	0	0	0	0	0	0	0	0	0	0	0	0	0	0	0	0	0
062118	14:58:26	5.0.12.0	70	notassociated	Rpleas_acq	Same	Rpleas	Amasked	CS_A	1pleas	acq_pleas_masked	acq45_masked	4	16	400	0	300	300	0	0	485	50	0	1	0	0	0	1	blank2r.bmp	0	1	+	0	3	B3r.bmp	492	1	blank2r.bmp	786	1	HLST	786	1	blank2r.bmp	866	2	erfinder	866	1	!	1227	1	!	-1	0	0	0	0	0	0	0	0	0	0	0	0	0	0	0	0	0	0	0	0	0	0	0	0	0	0	0
062118	14:58:26	5.0.12.0	70	notassociated	Rpleas_acq	Same	Rpleas	Amasked	CS_A	1pleas	acq_pleas_masked	acq45_masked	4	17	400	1	300	300	0	0	392	46	0	0	0	0	0	1	blank2r.bmp	0	1	+	0	8	C4r.bmp	492	1	blank2r.bmp	786	1	HLST	786	1	blank2r.bmp	866	6	wein	866	1	!	1227	1	!	1285	0	0	0	0	0	0	0	0	0	0	0	0	0	0	0	0	0	0	0	0	0	0	0	0	0	0	0
062118	14:58:26	5.0.12.0	70	notassociated	Rpleas_acq	Same	Rpleas	Amasked	CS_A	1pleas	acq_pleas_masked	acq45_masked	4	18	400	1	300	300	0	0	416	50	0	1	0	0	0	1	blank2r.bmp	0	1	+	0	4	B4r.bmp	492	1	blank2r.bmp	786	1	HLST	786	1	blank2r.bmp	866	5	meer	866	1	!	1227	1	!	1309	0	0	0	0	0	0	0	0	0	0	0	0	0	0	0	0	0	0	0	0	0	0	0	0	0	0	0
062118	14:58:26	5.0.12.0	70	notassociated	Rpleas_acq	Same	Rpleas	Amasked	CS_A	1pleas	acq_unple_masked	acq45_masked	4	19	400	0	300	300	0	0	500	46	0	1	0	0	0	1	blank2r.bmp	0	1	+	0	2	B2r.bmp	492	1	blank2r.bmp	786	1	DJMR	786	1	blank2r.bmp	866	4	geiz	866	1	!	1227	1	!	-1	0	0	0	0	0	0	0	0	0	0	0	0	0	0	0	0	0	0	0	0	0	0	0	0	0	0	0
062118	14:58:26	5.0.12.0	70	notassociated	Rpleas_acq	Same	Rpleas	Amasked	CS_A	1pleas	acq_unple_masked	acq45_masked	4	20	400	1	300	300	0	0	362	50	0	0	0	0	0	1	blank2r.bmp	0	1	+	0	5	C1r.bmp	492	1	blank2r.bmp	786	1	DJMR	786	1	blank2r.bmp	866	3	wunde	866	1	!	1227	1	!	1256	0	0	0	0	0	0	0	0	0	0	0	0	0	0	0	0	0	0	0	0	0	0	0	0	0	0	0
062118	14:58:26	5.0.12.0	70	notassociated	Rpleas_acq	Same	Rpleas	Amasked	CS_A	1pleas	acq_pleas_masked	acq45_masked	4	21	400	1	300	300	0	0	452	50	0	1	0	0	0	1	blank2r.bmp	0	1	+	0	7	C3r.bmp	492	1	blank2r.bmp	786	1	HLST	786	1	blank2r.bmp	866	2	erfinder	866	1	!	1227	1	!	1346	0	0	0	0	0	0	0	0	0	0	0	0	0	0	0	0	0	0	0	0	0	0	0	0	0	0	0
062118	14:58:26	5.0.12.0	70	notassociated	Rpleas_acq	Same	Rpleas	Amasked	CS_A	1pleas	acq_pleas_masked	acq45_masked	4	22	400	1	300	300	0	0	401	46	0	0	0	0	0	1	blank2r.bmp	0	1	+	0	3	B3r.bmp	492	1	blank2r.bmp	786	1	HLST	786	1	blank2r.bmp	866	1	jugend	866	1	!	1227	1	!	1295	0	0	0	0	0	0	0	0	0	0	0	0	0	0	0	0	0	0	0	0	0	0	0	0	0	0	0
062118	14:58:26	5.0.12.0	70	notassociated	Rpleas_acq	Same	Rpleas	Amasked	CS_A	1pleas	acq_unple_masked	acq45_masked	4	23	400	0	300	300	0	0	476	50	0	0	0	0	0	1	blank2r.bmp	0	1	+	0	6	C2r.bmp	492	1	blank2r.bmp	786	1	DJMR	786	1	blank2r.bmp	866	1	gegner	866	1	!	1227	1	!	-1	0	0	0	0	0	0	0	0	0	0	0	0	0	0	0	0	0	0	0	0	0	0	0	0	0	0	0
062118	14:58:26	5.0.12.0	70	notassociated	Rpleas_acq	Same	Rpleas	Amasked	CS_A	1pleas	acq_pleas_masked	acq45_masked	4	24	400	1	300	300	0	0	460	50	0	1	0	0	0	1	blank2r.bmp	0	1	+	0	1	B1r.bmp	492	1	blank2r.bmp	786	1	HLST	786	1	blank2r.bmp	866	3	mama	866	1	!	1227	1	!	1354	0	0	0	0	0	0	0	0	0	0	0	0	0	0	0	0	0	0	0	0	0	0	0	0	0	0	0
062118	14:58:26	5.0.12.0	70	notassociated	Rpleas_acq	Same	Rpleas	Amasked	CS_A	1pleas	acq_unple_masked	acq45_masked	4	25	400	1	300	300	0	0	361	46	0	1	0	0	0	1	blank2r.bmp	0	1	+	0	5	C1r.bmp	492	1	blank2r.bmp	786	1	DJMR	786	1	blank2r.bmp	866	2	zwang	866	1	!	1227	1	!	1255	0	0	0	0	0	0	0	0	0	0	0	0	0	0	0	0	0	0	0	0	0	0	0	0	0	0	0
062118	14:58:26	5.0.12.0	70	notassociated	Rpleas_acq	Same	Rpleas	Amasked	CS_A	1pleas	acq_unple_masked	acq45_masked	4	26	400	1	300	300	0	0	464	50	0	0	0	0	0	1	blank2r.bmp	0	1	+	0	6	C2r.bmp	492	1	blank2r.bmp	786	1	DJMR	786	1	blank2r.bmp	866	5	armee	866	1	!	1227	1	!	1358	0	0	0	0	0	0	0	0	0	0	0	0	0	0	0	0	0	0	0	0	0	0	0	0	0	0	0
062118	14:58:26	5.0.12.0	70	notassociated	Rpleas_acq	Same	Rpleas	Amasked	CS_A	1pleas	acq_unple_masked	acq45_masked	4	27	400	0	300	300	0	0	486	46	0	1	0	0	0	1	blank2r.bmp	0	1	+	0	3	B3r.bmp	492	1	blank2r.bmp	786	1	DJMR	786	1	blank2r.bmp	866	6	narr	866	1	!	1227	1	!	-1	0	0	0	0	0	0	0	0	0	0	0	0	0	0	0	0	0	0	0	0	0	0	0	0	0	0	0
062118	14:58:26	5.0.12.0	70	notassociated	Rpleas_acq	Same	Rpleas	Amasked	CS_A	1pleas	acq_unple_masked	acq45_masked	4	28	400	1	300	300	0	0	448	46	0	1	0	0	0	1	blank2r.bmp	0	1	+	0	7	C3r.bmp	492	1	blank2r.bmp	786	1	DJMR	786	1	blank2r.bmp	866	1	gegner	866	1	!	1227	1	!	1342	0	0	0	0	0	0	0	0	0	0	0	0	0	0	0	0	0	0	0	0	0	0	0	0	0	0	0
062118	14:58:26	5.0.12.0	70	notassociated	Rpleas_acq	Same	Rpleas	Amasked	CS_A	1pleas	acq_pleas_masked	acq45_masked	4	29	400	1	300	300	0	0	390	50	0	1	0	0	0	1	blank2r.bmp	0	1	+	0	4	B4r.bmp	492	1	blank2r.bmp	786	1	HLST	786	1	blank2r.bmp	866	4	frieden	866	1	!	1227	1	!	1283	0	0	0	0	0	0	0	0	0	0	0	0	0	0	0	0	0	0	0	0	0	0	0	0	0	0	0
062118	14:58:26	5.0.12.0	70	notassociated	Rpleas_acq	Same	Rpleas	Amasked	CS_A	1pleas	acq_unple_masked	acq45_masked	4	30	400	1	300	300	0	0	365	46	0	1	0	0	0	1	blank2r.bmp	0	1	+	0	1	B1r.bmp	492	1	blank2r.bmp	786	1	DJMR	786	1	blank2r.bmp	866	3	wunde	866	1	!	1227	1	!	1259	0	0	0	0	0	0	0	0	0	0	0	0	0	0	0	0	0	0	0	0	0	0	0	0	0	0	0
062118	14:58:26	5.0.12.0	70	notassociated	Rpleas_acq	Same	Rpleas	Amasked	CS_A	1pleas	acq_pleas_masked	acq45_masked	4	31	400	0	300	300	0	0	471	50	0	1	0	0	0	1	blank2r.bmp	0	1	+	0	8	C4r.bmp	492	1	blank2r.bmp	786	1	HLST	786	1	blank2r.bmp	866	2	erfinder	866	1	!	1227	1	!	-1	0	0	0	0	0	0	0	0	0	0	0	0	0	0	0	0	0	0	0	0	0	0	0	0	0	0	0
062118	14:58:26	5.0.12.0	70	notassociated	Rpleas_acq	Same	Rpleas	Amasked	CS_A	1pleas	acq_pleas_masked	acq45_masked	4	32	400	1	300	300	0	0	407	50	0	1	0	0	0	1	blank2r.bmp	0	1	+	0	2	B2r.bmp	492	1	blank2r.bmp	786	1	HLST	786	1	blank2r.bmp	866	6	wein	866	1	!	1227	1	!	1301	0	0	0	0	0	0	0	0	0	0	0	0	0	0	0	0	0	0	0	0	0	0	0	0	0	0	0
062118	14:58:26	5.0.12.0	70	notassociated	Rpleas_acq	Same	Rpleas	Amasked	CS_A	1pleas	acq_pleas_masked	acq45_masked	5	1	400	1	300	300	0	0	429	50	0	1	0	0	0	1	blank2r.bmp	0	1	+	0	3	B3r.bmp	492	1	blank2r.bmp	786	1	HLST	786	1	blank2r.bmp	866	3	mama	866	1	!	1227	1	!	1323	0	0	0	0	0	0	0	0	0	0	0	0	0	0	0	0	0	0	0	0	0	0	0	0	0	0	0
062118	14:58:26	5.0.12.0	70	notassociated	Rpleas_acq	Same	Rpleas	Amasked	CS_A	1pleas	acq_unple_masked	acq45_masked	5	2	400	0	300	300	0	0	480	46	0	1	0	0	0	1	blank2r.bmp	0	1	+	0	1	B1r.bmp	492	1	blank2r.bmp	786	1	DJMR	786	1	blank2r.bmp	866	2	zwang	866	1	!	1227	1	!	-1	0	0	0	0	0	0	0	0	0	0	0	0	0	0	0	0	0	0	0	0	0	0	0	0	0	0	0
062118	14:58:26	5.0.12.0	70	notassociated	Rpleas_acq	Same	Rpleas	Amasked	CS_A	1pleas	acq_pleas_masked	acq45_masked	5	3	400	1	300	300	0	0	354	50	0	1	0	0	0	1	blank2r.bmp	0	1	+	0	8	C4r.bmp	492	1	blank2r.bmp	786	1	HLST	786	1	blank2r.bmp	866	5	meer	866	1	!	1227	1	!	1248	0	0	0	0	0	0	0	0	0	0	0	0	0	0	0	0	0	0	0	0	0	0	0	0	0	0	0
062118	14:58:26	5.0.12.0	70	notassociated	Rpleas_acq	Same	Rpleas	Amasked	CS_A	1pleas	acq_unple_masked	acq45_masked	5	4	400	1	300	300	0	0	338	46	0	1	0	0	0	1	blank2r.bmp	0	1	+	0	7	C3r.bmp	492	1	blank2r.bmp	786	1	DJMR	786	1	blank2r.bmp	866	6	narr	866	1	!	1227	1	!	1232	0	0	0	0	0	0	0	0	0	0	0	0	0	0	0	0	0	0	0	0	0	0	0	0	0	0	0
062118	14:58:26	5.0.12.0	70	notassociated	Rpleas_acq	Same	Rpleas	Amasked	CS_A	1pleas	acq_unple_masked	acq45_masked	5	5	400	1	300	300	0	0	439	46	0	1	0	0	0	1	blank2r.bmp	0	1	+	0	6	C2r.bmp	492	1	blank2r.bmp	786	1	DJMR	786	1	blank2r.bmp	866	4	geiz	866	1	!	1227	1	!	1332	0	0	0	0	0	0	0	0	0	0	0	0	0	0	0	0	0	0	0	0	0	0	0	0	0	0	0
062118	14:58:26	5.0.12.0	70	notassociated	Rpleas_acq	Same	Rpleas	Amasked	CS_A	1pleas	acq_pleas_masked	acq45_masked	5	6	400	1	300	300	0	0	463	46	0	0	0	0	0	1	blank2r.bmp	0	1	+	0	2	B2r.bmp	492	1	blank2r.bmp	786	1	HLST	786	1	blank2r.bmp	866	1	jugend	866	1	!	1227	1	!	1356	0	0	0	0	0	0	0	0	0	0	0	0	0	0	0	0	0	0	0	0	0	0	0	0	0	0	0
062118	14:58:26	5.0.12.0	70	notassociated	Rpleas_acq	Same	Rpleas	Amasked	CS_A	1pleas	acq_pleas_masked	acq45_masked	5	7	400	1	300	300	0	0	404	50	0	1	0	0	0	1	blank2r.bmp	0	1	+	0	5	C1r.bmp	492	1	blank2r.bmp	786	1	HLST	786	1	blank2r.bmp	866	4	frieden	866	1	!	1227	1	!	1298	0	0	0	0	0	0	0	0	0	0	0	0	0	0	0	0	0	0	0	0	0	0	0	0	0	0	0
062118	14:58:26	5.0.12.0	70	notassociated	Rpleas_acq	Same	Rpleas	Amasked	CS_A	1pleas	acq_unple_masked	acq45_masked	5	8	400	0	300	300	0	0	510	46	0	1	0	0	0	1	blank2r.bmp	0	1	+	0	4	B4r.bmp	492	1	blank2r.bmp	786	1	DJMR	786	1	blank2r.bmp	866	5	armee	866	1	!	1227	1	!	-1	0	0	0	0	0	0	0	0	0	0	0	0	0	0	0	0	0	0	0	0	0	0	0	0	0	0	0
062118	14:58:26	5.0.12.0	70	notassociated	Rpleas_acq	Same	Rpleas	Amasked	CS_A	1pleas	acq_unple_masked	acq45_masked	5	9	400	1	300	300	0	0	417	50	0	0	0	0	0	1	blank2r.bmp	0	1	+	0	7	C3r.bmp	492	1	blank2r.bmp	786	1	DJMR	786	1	blank2r.bmp	866	1	gegner	866	1	!	1227	1	!	1311	0	0	0	0	0	0	0	0	0	0	0	0	0	0	0	0	0	0	0	0	0	0	0	0	0	0	0
062118	14:58:26	5.0.12.0	70	notassociated	Rpleas_acq	Same	Rpleas	Amasked	CS_A	1pleas	acq_pleas_masked	acq45_masked	5	10	400	1	300	300	0	0	390	50	0	1	0	0	0	1	blank2r.bmp	0	1	+	0	3	B3r.bmp	492	1	blank2r.bmp	786	1	HLST	786	1	blank2r.bmp	866	5	meer	866	1	!	1227	1	!	1284	0	0	0	0	0	0	0	0	0	0	0	0	0	0	0	0	0	0	0	0	0	0	0	0	0	0	0
062118	14:58:26	5.0.12.0	70	notassociated	Rpleas_acq	Same	Rpleas	Amasked	CS_A	1pleas	acq_pleas_masked	acq45_masked	5	11	400	0	300	300	0	0	526	50	0	1	0	0	0	1	blank2r.bmp	0	1	+	0	4	B4r.bmp	492	1	blank2r.bmp	786	1	HLST	786	1	blank2r.bmp	866	3	mama	866	1	!	1227	1	!	-1	0	0	0	0	0	0	0	0	0	0	0	0	0	0	0	0	0	0	0	0	0	0	0	0	0	0	0
062118	14:58:26	5.0.12.0	70	notassociated	Rpleas_acq	Same	Rpleas	Amasked	CS_A	1pleas	acq_pleas_masked	acq45_masked	5	12	400	1	300	300	0	0	355	46	0	0	0	0	0	1	blank2r.bmp	0	1	+	0	5	C1r.bmp	492	1	blank2r.bmp	786	1	HLST	786	1	blank2r.bmp	866	2	erfinder	866	1	!	1227	1	!	1249	0	0	0	0	0	0	0	0	0	0	0	0	0	0	0	0	0	0	0	0	0	0	0	0	0	0	0
062118	14:58:26	5.0.12.0	70	notassociated	Rpleas_acq	Same	Rpleas	Amasked	CS_A	1pleas	acq_unple_masked	acq45_masked	5	13	400	1	300	300	0	0	427	46	0	1	0	0	0	1	blank2r.bmp	0	1	+	0	2	B2r.bmp	492	1	blank2r.bmp	786	1	DJMR	786	1	blank2r.bmp	866	6	narr	866	1	!	1227	1	!	1320	0	0	0	0	0	0	0	0	0	0	0	0	0	0	0	0	0	0	0	0	0	0	0	0	0	0	0
062118	14:58:26	5.0.12.0	70	notassociated	Rpleas_acq	Same	Rpleas	Amasked	CS_A	1pleas	acq_pleas_masked	acq45_masked	5	14	400	1	300	300	0	0	435	50	0	1	0	0	0	1	blank2r.bmp	0	1	+	0	1	B1r.bmp	492	1	blank2r.bmp	786	1	HLST	786	1	blank2r.bmp	866	1	jugend	866	1	!	1227	1	!	1328	0	0	0	0	0	0	0	0	0	0	0	0	0	0	0	0	0	0	0	0	0	0	0	0	0	0	0
062118	14:58:26	5.0.12.0	70	notassociated	Rpleas_acq	Same	Rpleas	Amasked	CS_A	1pleas	acq_unple_masked	acq45_masked	5	15	400	1	300	300	0	0	379	46	0	1	0	0	0	1	blank2r.bmp	0	1	+	0	6	C2r.bmp	492	1	blank2r.bmp	786	1	DJMR	786	1	blank2r.bmp	866	3	wunde	866	1	!	1227	1	!	1272	0	0	0	0	0	0	0	0	0	0	0	0	0	0	0	0	0	0	0	0	0	0	0	0	0	0	0
062118	14:58:26	5.0.12.0	70	notassociated	Rpleas_acq	Same	Rpleas	Amasked	CS_A	1pleas	acq_unple_masked	acq45_masked	5	16	400	0	300	300	0	0	479	46	0	1	0	0	0	1	blank2r.bmp	0	1	+	0	8	C4r.bmp	492	1	blank2r.bmp	786	1	DJMR	786	1	blank2r.bmp	866	5	armee	866	1	!	1227	1	!	-1	0	0	0	0	0	0	0	0	0	0	0	0	0	0	0	0	0	0	0	0	0	0	0	0	0	0	0
062118	14:58:26	5.0.12.0	70	notassociated	Rpleas_acq	Same	Rpleas	Amasked	CS_A	1pleas	acq_unple_masked	acq45_masked	5	17	400	0	300	300	0	0	490	46	0	1	0	0	0	1	blank2r.bmp	0	1	+	0	4	B4r.bmp	492	1	blank2r.bmp	786	1	DJMR	786	1	blank2r.bmp	866	4	geiz	866	1	!	1227	1	!	-1	0	0	0	0	0	0	0	0	0	0	0	0	0	0	0	0	0	0	0	0	0	0	0	0	0	0	0
062118	14:58:26	5.0.12.0	70	notassociated	Rpleas_acq	Same	Rpleas	Amasked	CS_A	1pleas	acq_unple_masked	acq45_masked	5	18	400	0	300	300	0	0	469	46	0	1	0	0	0	1	blank2r.bmp	0	1	+	0	6	C2r.bmp	492	1	blank2r.bmp	786	1	DJMR	786	1	blank2r.bmp	866	2	zwang	866	1	!	1227	1	!	-1	0	0	0	0	0	0	0	0	0	0	0	0	0	0	0	0	0	0	0	0	0	0	0	0	0	0	0
062118	14:58:26	5.0.12.0	70	notassociated	Rpleas_acq	Same	Rpleas	Amasked	CS_A	1pleas	acq_pleas_masked	acq45_masked	5	19	400	1	300	300	0	0	453	46	0	0	0	0	0	1	blank2r.bmp	0	1	+	0	8	C4r.bmp	492	1	blank2r.bmp	786	1	HLST	786	1	blank2r.bmp	866	4	frieden	866	1	!	1227	1	!	1346	0	0	0	0	0	0	0	0	0	0	0	0	0	0	0	0	0	0	0	0	0	0	0	0	0	0	0
062118	14:58:26	5.0.12.0	70	notassociated	Rpleas_acq	Same	Rpleas	Amasked	CS_A	1pleas	acq_unple_masked	acq45_masked	5	20	400	1	300	300	0	0	410	46	0	1	0	0	0	1	blank2r.bmp	0	1	+	0	3	B3r.bmp	492	1	blank2r.bmp	786	1	DJMR	786	1	blank2r.bmp	866	3	wunde	866	1	!	1227	1	!	1303	0	0	0	0	0	0	0	0	0	0	0	0	0	0	0	0	0	0	0	0	0	0	0	0	0	0	0
062118	14:58:26	5.0.12.0	70	notassociated	Rpleas_acq	Same	Rpleas	Amasked	CS_A	1pleas	acq_pleas_masked	acq45_masked	5	21	400	1	300	300	0	0	444	46	0	0	0	0	0	1	blank2r.bmp	0	1	+	0	2	B2r.bmp	492	1	blank2r.bmp	786	1	HLST	786	1	blank2r.bmp	866	6	wein	866	1	!	1227	1	!	1338	0	0	0	0	0	0	0	0	0	0	0	0	0	0	0	0	0	0	0	0	0	0	0	0	0	0	0
062118	14:58:26	5.0.12.0	70	notassociated	Rpleas_acq	Same	Rpleas	Amasked	CS_A	1pleas	acq_unple_masked	acq45_masked	5	22	400	1	300	300	0	0	407	46	0	1	0	0	0	1	blank2r.bmp	0	1	+	0	1	B1r.bmp	492	1	blank2r.bmp	786	1	DJMR	786	1	blank2r.bmp	866	5	armee	866	1	!	1227	1	!	1300	0	0	0	0	0	0	0	0	0	0	0	0	0	0	0	0	0	0	0	0	0	0	0	0	0	0	0
062118	14:58:26	5.0.12.0	70	notassociated	Rpleas_acq	Same	Rpleas	Amasked	CS_A	1pleas	acq_pleas_masked	acq45_masked	5	23	400	1	300	300	0	0	361	50	0	1	0	0	0	1	blank2r.bmp	0	1	+	0	7	C3r.bmp	492	1	blank2r.bmp	786	1	HLST	786	1	blank2r.bmp	866	1	jugend	866	1	!	1227	1	!	1255	0	0	0	0	0	0	0	0	0	0	0	0	0	0	0	0	0	0	0	0	0	0	0	0	0	0	0
062118	14:58:26	5.0.12.0	70	notassociated	Rpleas_acq	Same	Rpleas	Amasked	CS_A	1pleas	acq_pleas_masked	acq45_masked	5	24	400	1	300	300	0	0	451	46	0	0	0	0	0	1	blank2r.bmp	0	1	+	0	5	C1r.bmp	492	1	blank2r.bmp	786	1	HLST	786	1	blank2r.bmp	866	2	erfinder	866	1	!	1227	1	!	1345	0	0	0	0	0	0	0	0	0	0	0	0	0	0	0	0	0	0	0	0	0	0	0	0	0	0	0
062118	14:58:26	5.0.12.0	70	notassociated	Rpleas_acq	Same	Rpleas	Amasked	CS_A	1pleas	acq_pleas_masked	acq45_masked	5	25	400	1	300	300	0	0	454	50	0	1	0	0	0	1	blank2r.bmp	0	1	+	0	7	C3r.bmp	492	1	blank2r.bmp	786	1	HLST	786	1	blank2r.bmp	866	3	mama	866	1	!	1227	1	!	1347	0	0	0	0	0	0	0	0	0	0	0	0	0	0	0	0	0	0	0	0	0	0	0	0	0	0	0
062118	14:58:26	5.0.12.0	70	notassociated	Rpleas_acq	Same	Rpleas	Amasked	CS_A	1pleas	acq_pleas_masked	acq45_masked	5	26	400	1	300	300	0	0	387	50	0	1	0	0	0	1	blank2r.bmp	0	1	+	0	4	B4r.bmp	492	1	blank2r.bmp	786	1	HLST	786	1	blank2r.bmp	866	5	meer	866	1	!	1227	1	!	1281	0	0	0	0	0	0	0	0	0	0	0	0	0	0	0	0	0	0	0	0	0	0	0	0	0	0	0
062118	14:58:26	5.0.12.0	70	notassociated	Rpleas_acq	Same	Rpleas	Amasked	CS_A	1pleas	acq_unple_masked	acq45_masked	5	27	400	1	300	300	0	0	467	46	0	1	0	0	0	1	blank2r.bmp	0	1	+	0	2	B2r.bmp	492	1	blank2r.bmp	786	1	DJMR	786	1	blank2r.bmp	866	2	zwang	866	1	!	1227	1	!	1360	0	0	0	0	0	0	0	0	0	0	0	0	0	0	0	0	0	0	0	0	0	0	0	0	0	0	0
062118	14:58:26	5.0.12.0	70	notassociated	Rpleas_acq	Same	Rpleas	Amasked	CS_A	1pleas	acq_pleas_masked	acq45_masked	5	28	400	1	300	300	0	0	371	50	0	1	0	0	0	1	blank2r.bmp	0	1	+	0	5	C1r.bmp	492	1	blank2r.bmp	786	1	HLST	786	1	blank2r.bmp	866	4	frieden	866	1	!	1227	1	!	1264	0	0	0	0	0	0	0	0	0	0	0	0	0	0	0	0	0	0	0	0	0	0	0	0	0	0	0
062118	14:58:26	5.0.12.0	70	notassociated	Rpleas_acq	Same	Rpleas	Amasked	CS_A	1pleas	acq_pleas_masked	acq45_masked	5	29	400	1	300	300	0	0	400	50	0	1	0	0	0	1	blank2r.bmp	0	1	+	0	6	C2r.bmp	492	1	blank2r.bmp	786	1	HLST	786	1	blank2r.bmp	866	6	wein	866	1	!	1227	1	!	1293	0	0	0	0	0	0	0	0	0	0	0	0	0	0	0	0	0	0	0	0	0	0	0	0	0	0	0
062118	14:58:26	5.0.12.0	70	notassociated	Rpleas_acq	Same	Rpleas	Amasked	CS_A	1pleas	acq_unple_masked	acq45_masked	5	30	400	0	300	300	0	0	538	46	0	1	0	0	0	1	blank2r.bmp	0	1	+	0	1	B1r.bmp	492	1	blank2r.bmp	786	1	DJMR	786	1	blank2r.bmp	866	4	geiz	866	1	!	1227	1	!	-1	0	0	0	0	0	0	0	0	0	0	0	0	0	0	0	0	0	0	0	0	0	0	0	0	0	0	0
062118	14:58:26	5.0.12.0	70	notassociated	Rpleas_acq	Same	Rpleas	Amasked	CS_A	1pleas	acq_unple_masked	acq45_masked	5	31	400	1	300	300	0	0	368	46	0	1	0	0	0	1	blank2r.bmp	0	1	+	0	3	B3r.bmp	492	1	blank2r.bmp	786	1	DJMR	786	1	blank2r.bmp	866	1	gegner	866	1	!	1227	1	!	1261	0	0	0	0	0	0	0	0	0	0	0	0	0	0	0	0	0	0	0	0	0	0	0	0	0	0	0
062118	14:58:26	5.0.12.0	70	notassociated	Rpleas_acq	Same	Rpleas	Amasked	CS_A	1pleas	acq_unple_masked	acq45_masked	5	32	400	1	300	300	0	0	410	46	0	1	0	0	0	1	blank2r.bmp	0	1	+	0	8	C4r.bmp	492	1	blank2r.bmp	786	1	DJMR	786	1	blank2r.bmp	866	6	narr	866	1	!	1227	1	!	1303	0	0	0	0	0	0	0	0	0	0	0	0	0	0	0	0	0	0	0	0	0	0	0	0	0	0	0
062118	14:58:26	5.0.12.0	70	notassociated	Rpleas_acq	Same	Rpleas	Amasked	CS_A	1pleas	cond_new_pleas_456_masked_CS1	condtest_masked_1	6	1	400	0	300	300	0	0	691	50	0	1	0	0	0	1	blank2r.bmp	0	1	+	0	7	C3r.bmp	492	1	blank2r.bmp	786	1	HLST	786	1	blank2r.bmp	866	1	erinnerung	866	1	!	1227	1	!	-1	0	0	0	0	0	0	0	0	0	0	0	0	0	0	0	0	0	0	0	0	0	0	0	0	0	0	0
062118	14:58:26	5.0.12.0	70	notassociated	Rpleas_acq	Same	Rpleas	Amasked	CS_A	1pleas	cond_US_pleas_123_masked_CS1	condtest_masked_1	6	2	400	1	300	300	0	0	377	46	0	0	0	0	0	1	blank2r.bmp	0	1	+	0	1	B1r.bmp	492	1	blank2r.bmp	786	1	HLST	786	1	blank2r.bmp	866	1	jugend	866	1	!	1227	1	!	1270	0	0	0	0	0	0	0	0	0	0	0	0	0	0	0	0	0	0	0	0	0	0	0	0	0	0	0
062118	14:58:26	5.0.12.0	70	notassociated	Rpleas_acq	Same	Rpleas	Amasked	CS_A	1pleas	cond_US_unple_123_masked_CS1	condtest_masked_1	6	3	400	0	300	300	0	0	470	50	0	0	0	0	0	1	blank2r.bmp	0	1	+	0	6	C2r.bmp	492	1	blank2r.bmp	786	1	HLST	786	1	blank2r.bmp	866	3	wunde	866	1	!	1227	1	!	-1	0	0	0	0	0	0	0	0	0	0	0	0	0	0	0	0	0	0	0	0	0	0	0	0	0	0	0
062118	14:58:26	5.0.12.0	70	notassociated	Rpleas_acq	Same	Rpleas	Amasked	CS_A	1pleas	cond_new_pleas_456_masked_CS2	condtest_masked_1	6	4	400	1	300	300	0	0	430	50	0	1	0	0	0	1	blank2r.bmp	0	1	+	0	3	B3r.bmp	492	1	blank2r.bmp	786	1	DJMR	786	1	blank2r.bmp	866	3	fair	866	1	!	1227	1	!	1323	0	0	0	0	0	0	0	0	0	0	0	0	0	0	0	0	0	0	0	0	0	0	0	0	0	0	0
062118	14:58:26	5.0.12.0	70	notassociated	Rpleas_acq	Same	Rpleas	Amasked	CS_A	1pleas	cond_new_unple_456_masked_CS1	condtest_masked_1	6	5	400	0	300	300	0	0	2656	50	0	0	0	0	0	1	blank2r.bmp	0	1	+	0	4	B4r.bmp	492	1	blank2r.bmp	786	1	HLST	786	1	blank2r.bmp	866	1	umweg	866	1	!	1227	1	!	-1	0	0	0	0	0	0	0	0	0	0	0	0	0	0	0	0	0	0	0	0	0	0	0	0	0	0	0
062118	14:58:26	5.0.12.0	70	notassociated	Rpleas_acq	Same	Rpleas	Amasked	CS_A	1pleas	cond_new_unple_456_masked_CS2	condtest_masked_1	6	6	400	1	300	300	0	0	464	46	0	1	0	0	0	1	blank2r.bmp	0	1	+	0	2	B2r.bmp	492	1	blank2r.bmp	786	1	DJMR	786	1	blank2r.bmp	866	2	verirren	866	1	!	1227	1	!	1358	0	0	0	0	0	0	0	0	0	0	0	0	0	0	0	0	0	0	0	0	0	0	0	0	0	0	0
062118	14:58:26	5.0.12.0	70	notassociated	Rpleas_acq	Same	Rpleas	Amasked	CS_A	1pleas	cond_US_pleas_123_masked_CS2	condtest_masked_1	6	7	400	0	300	300	0	0	328	46	0	0	0	0	0	1	blank2r.bmp	0	1	+	0	5	C1r.bmp	492	1	blank2r.bmp	786	1	DJMR	786	1	blank2r.bmp	866	2	erfinder	866	1	!	-1	1	!	-1	0	0	0	0	0	0	0	0	0	0	0	0	0	0	0	0	0	0	0	0	0	0	0	0	0	0	0
062118	14:58:26	5.0.12.0	70	notassociated	Rpleas_acq	Same	Rpleas	Amasked	CS_A	1pleas	cond_US_unple_123_masked_CS2	condtest_masked_1	6	8	400	0	300	300	0	0	490	46	0	1	0	0	0	1	blank2r.bmp	0	1	+	0	8	C4r.bmp	492	1	blank2r.bmp	786	1	DJMR	786	1	blank2r.bmp	866	2	zwang	866	1	!	1227	1	!	-1	0	0	0	0	0	0	0	0	0	0	0	0	0	0	0	0	0	0	0	0	0	0	0	0	0	0	0
062118	14:58:26	5.0.12.0	70	notassociated	Rpleas_acq	Same	Rpleas	Amasked	CS_A	1pleas	cond_new_pleas_456_masked_CS1	condtest_masked_2	7	1	400	1	300	300	0	0	422	50	0	1	0	0	0	1	blank2r.bmp	0	1	+	0	6	C2r.bmp	492	1	blank2r.bmp	786	1	HLST	786	1	blank2r.bmp	866	2	auge	866	1	!	1227	1	!	1316	0	0	0	0	0	0	0	0	0	0	0	0	0	0	0	0	0	0	0	0	0	0	0	0	0	0	0
062118	14:58:26	5.0.12.0	70	notassociated	Rpleas_acq	Same	Rpleas	Amasked	CS_A	1pleas	cond_new_pleas_456_masked_CS2	condtest_masked_2	7	2	400	1	300	300	0	0	438	46	0	0	0	0	0	1	blank2r.bmp	0	1	+	0	7	C3r.bmp	492	1	blank2r.bmp	786	1	DJMR	786	1	blank2r.bmp	866	1	erinnerung	866	1	!	1227	1	!	1332	0	0	0	0	0	0	0	0	0	0	0	0	0	0	0	0	0	0	0	0	0	0	0	0	0	0	0
062118	14:58:26	5.0.12.0	70	notassociated	Rpleas_acq	Same	Rpleas	Amasked	CS_A	1pleas	cond_new_pleas_456_masked_CS2	condtest_masked_2	7	3	400	1	300	300	0	0	358	50	0	1	0	0	0	1	blank2r.bmp	0	1	+	0	1	B1r.bmp	492	1	blank2r.bmp	786	1	DJMR	786	1	blank2r.bmp	866	2	auge	866	1	!	1227	1	!	1252	0	0	0	0	0	0	0	0	0	0	0	0	0	0	0	0	0	0	0	0	0	0	0	0	0	0	0
062118	14:58:26	5.0.12.0	70	notassociated	Rpleas_acq	Same	Rpleas	Amasked	CS_A	1pleas	cond_US_pleas_123_masked_CS1	condtest_masked_2	7	4	400	1	300	300	0	0	432	50	0	1	0	0	0	1	blank2r.bmp	0	1	+	0	5	C1r.bmp	492	1	blank2r.bmp	786	1	HLST	786	1	blank2r.bmp	866	3	mama	866	1	!	1227	1	!	1326	0	0	0	0	0	0	0	0	0	0	0	0	0	0	0	0	0	0	0	0	0	0	0	0	0	0	0
062118	14:58:26	5.0.12.0	70	notassociated	Rpleas_acq	Same	Rpleas	Amasked	CS_A	1pleas	cond_new_unple_456_masked_CS1	condtest_masked_2	7	5	400	1	300	300	0	0	395	46	0	1	0	0	0	1	blank2r.bmp	0	1	+	0	2	B2r.bmp	492	1	blank2r.bmp	786	1	HLST	786	1	blank2r.bmp	866	3	wurm	866	1	!	1227	1	!	1289	0	0	0	0	0	0	0	0	0	0	0	0	0	0	0	0	0	0	0	0	0	0	0	0	0	0	0
062118	14:58:26	5.0.12.0	70	notassociated	Rpleas_acq	Same	Rpleas	Amasked	CS_A	1pleas	cond_new_pleas_456_masked_CS1	condtest_masked_2	7	6	400	0	300	300	0	0	477	50	0	1	0	0	0	1	blank2r.bmp	0	1	+	0	8	C4r.bmp	492	1	blank2r.bmp	786	1	HLST	786	1	blank2r.bmp	866	3	fair	866	1	!	1227	1	!	-1	0	0	0	0	0	0	0	0	0	0	0	0	0	0	0	0	0	0	0	0	0	0	0	0	0	0	0
062118	14:58:26	5.0.12.0	70	notassociated	Rpleas_acq	Same	Rpleas	Amasked	CS_A	1pleas	cond_US_unple_123_masked_CS1	condtest_masked_2	7	7	400	1	300	300	0	0	384	46	0	1	0	0	0	1	blank2r.bmp	0	1	+	0	3	B3r.bmp	492	1	blank2r.bmp	786	1	HLST	786	1	blank2r.bmp	866	1	gegner	866	1	!	1227	1	!	1278	0	0	0	0	0	0	0	0	0	0	0	0	0	0	0	0	0	0	0	0	0	0	0	0	0	0	0
062118	14:58:26	5.0.12.0	70	notassociated	Rpleas_acq	Same	Rpleas	Amasked	CS_A	1pleas	cond_new_unple_456_masked_CS1	condtest_masked_2	7	8	400	1	300	300	0	0	431	50	0	0	0	0	0	1	blank2r.bmp	0	1	+	0	4	B4r.bmp	492	1	blank2r.bmp	786	1	HLST	786	1	blank2r.bmp	866	3	wurm	866	1	!	1227	1	!	1325	0	0	0	0	0	0	0	0	0	0	0	0	0	0	0	0	0	0	0	0	0	0	0	0	0	0	0
062118	14:58:26	5.0.12.0	70	notassociated	Rpleas_acq	Same	Rpleas	Amasked	CS_A	1pleas	cond_US_unple_123_masked_CS2	condtest_masked_2	7	9	400	1	300	300	0	0	423	50	0	0	0	0	0	1	blank2r.bmp	0	1	+	0	2	B2r.bmp	492	1	blank2r.bmp	786	1	DJMR	786	1	blank2r.bmp	866	3	wunde	866	1	!	1227	1	!	1317	0	0	0	0	0	0	0	0	0	0	0	0	0	0	0	0	0	0	0	0	0	0	0	0	0	0	0
062118	14:58:26	5.0.12.0	70	notassociated	Rpleas_acq	Same	Rpleas	Amasked	CS_A	1pleas	cond_new_unple_456_masked_CS2	condtest_masked_2	7	10	400	0	300	300	0	0	471	50	0	0	0	0	0	1	blank2r.bmp	0	1	+	0	1	B1r.bmp	492	1	blank2r.bmp	786	1	DJMR	786	1	blank2r.bmp	866	2	verirren	866	1	!	1227	1	!	-1	0	0	0	0	0	0	0	0	0	0	0	0	0	0	0	0	0	0	0	0	0	0	0	0	0	0	0
062118	14:58:26	5.0.12.0	70	notassociated	Rpleas_acq	Same	Rpleas	Amasked	CS_A	1pleas	cond_US_pleas_123_masked_CS1	condtest_masked_2	7	11	400	1	300	300	0	0	399	46	0	0	0	0	0	1	blank2r.bmp	0	1	+	0	3	B3r.bmp	492	1	blank2r.bmp	786	1	HLST	786	1	blank2r.bmp	866	3	mama	866	1	!	1227	1	!	1293	0	0	0	0	0	0	0	0	0	0	0	0	0	0	0	0	0	0	0	0	0	0	0	0	0	0	0
062118	14:58:26	5.0.12.0	70	notassociated	Rpleas_acq	Same	Rpleas	Amasked	CS_A	1pleas	cond_US_unple_123_masked_CS1	condtest_masked_2	7	12	400	1	300	300	0	0	345	46	0	1	0	0	0	1	blank2r.bmp	0	1	+	0	6	C2r.bmp	492	1	blank2r.bmp	786	1	HLST	786	1	blank2r.bmp	866	2	zwang	866	1	!	1227	1	!	1239	0	0	0	0	0	0	0	0	0	0	0	0	0	0	0	0	0	0	0	0	0	0	0	0	0	0	0
062118	14:58:26	5.0.12.0	70	notassociated	Rpleas_acq	Same	Rpleas	Amasked	CS_A	1pleas	cond_new_pleas_456_masked_CS2	condtest_masked_2	7	13	400	1	300	300	0	0	438	50	0	1	0	0	0	1	blank2r.bmp	0	1	+	0	7	C3r.bmp	492	1	blank2r.bmp	786	1	DJMR	786	1	blank2r.bmp	866	1	erinnerung	866	1	!	1227	1	!	1332	0	0	0	0	0	0	0	0	0	0	0	0	0	0	0	0	0	0	0	0	0	0	0	0	0	0	0
062118	14:58:26	5.0.12.0	70	notassociated	Rpleas_acq	Same	Rpleas	Amasked	CS_A	1pleas	cond_US_pleas_123_masked_CS2	condtest_masked_2	7	14	400	1	300	300	0	0	369	46	0	0	0	0	0	1	blank2r.bmp	0	1	+	0	8	C4r.bmp	492	1	blank2r.bmp	786	1	DJMR	786	1	blank2r.bmp	866	1	jugend	866	1	!	1227	1	!	1262	0	0	0	0	0	0	0	0	0	0	0	0	0	0	0	0	0	0	0	0	0	0	0	0	0	0	0
062118	14:58:26	5.0.12.0	70	notassociated	Rpleas_acq	Same	Rpleas	Amasked	CS_A	1pleas	cond_new_unple_456_masked_CS2	condtest_masked_2	7	15	400	1	300	300	0	0	462	46	0	1	0	0	0	1	blank2r.bmp	0	1	+	0	5	C1r.bmp	492	1	blank2r.bmp	786	1	DJMR	786	1	blank2r.bmp	866	1	umweg	866	1	!	1227	1	!	1355	0	0	0	0	0	0	0	0	0	0	0	0	0	0	0	0	0	0	0	0	0	0	0	0	0	0	0
062118	14:58:26	5.0.12.0	70	notassociated	Rpleas_acq	Same	Rpleas	Amasked	CS_A	1pleas	cond_new_unple_456_masked_CS2	condtest_masked_2	7	16	400	1	300	300	0	0	374	50	0	0	0	0	0	1	blank2r.bmp	0	1	+	0	4	B4r.bmp	492	1	blank2r.bmp	786	1	DJMR	786	1	blank2r.bmp	866	1	umweg	866	1	!	1227	1	!	1267	0	0	0	0	0	0	0	0	0	0	0	0	0	0	0	0	0	0	0	0	0	0	0	0	0	0	0
062118	14:58:26	5.0.12.0	70	notassociated	Rpleas_acq	Same	Rpleas	Amasked	CS_A	1pleas	cond_new_pleas_456_masked_CS2	condtest_masked_2	7	17	400	0	300	300	0	0	474	50	0	1	0	0	0	1	blank2r.bmp	0	1	+	0	7	C3r.bmp	492	1	blank2r.bmp	786	1	DJMR	786	1	blank2r.bmp	866	2	auge	866	1	!	1227	1	!	-1	0	0	0	0	0	0	0	0	0	0	0	0	0	0	0	0	0	0	0	0	0	0	0	0	0	0	0
062118	14:58:26	5.0.12.0	70	notassociated	Rpleas_acq	Same	Rpleas	Amasked	CS_A	1pleas	cond_new_pleas_456_masked_CS1	condtest_masked_2	7	18	400	0	300	300	0	0	317	50	0	1	0	0	0	1	blank2r.bmp	0	1	+	0	1	B1r.bmp	492	1	blank2r.bmp	786	1	HLST	786	1	blank2r.bmp	866	3	fair	866	1	!	-1	1	!	-1	0	0	0	0	0	0	0	0	0	0	0	0	0	0	0	0	0	0	0	0	0	0	0	0	0	0	0
062118	14:58:26	5.0.12.0	70	notassociated	Rpleas_acq	Same	Rpleas	Amasked	CS_A	1pleas	cond_US_unple_123_masked_CS1	condtest_masked_2	7	19	400	1	300	300	0	0	367	46	0	1	0	0	0	1	blank2r.bmp	0	1	+	0	3	B3r.bmp	492	1	blank2r.bmp	786	1	HLST	786	1	blank2r.bmp	866	1	gegner	866	1	!	1227	1	!	1261	0	0	0	0	0	0	0	0	0	0	0	0	0	0	0	0	0	0	0	0	0	0	0	0	0	0	0
062118	14:58:26	5.0.12.0	70	notassociated	Rpleas_acq	Same	Rpleas	Amasked	CS_A	1pleas	cond_US_unple_123_masked_CS2	condtest_masked_2	7	20	400	0	300	300	0	0	321	50	0	0	0	0	0	1	blank2r.bmp	0	1	+	0	6	C2r.bmp	492	1	blank2r.bmp	786	1	DJMR	786	1	blank2r.bmp	866	3	wunde	866	1	!	-1	1	!	-1	0	0	0	0	0	0	0	0	0	0	0	0	0	0	0	0	0	0	0	0	0	0	0	0	0	0	0
062118	14:58:26	5.0.12.0	70	notassociated	Rpleas_acq	Same	Rpleas	Amasked	CS_A	1pleas	cond_US_pleas_123_masked_CS1	condtest_masked_2	7	21	400	1	300	300	0	0	379	46	0	0	0	0	0	1	blank2r.bmp	0	1	+	0	8	C4r.bmp	492	1	blank2r.bmp	786	1	HLST	786	1	blank2r.bmp	866	2	erfinder	866	1	!	1227	1	!	1273	0	0	0	0	0	0	0	0	0	0	0	0	0	0	0	0	0	0	0	0	0	0	0	0	0	0	0
062118	14:58:26	5.0.12.0	70	notassociated	Rpleas_acq	Same	Rpleas	Amasked	CS_A	1pleas	cond_US_pleas_123_masked_CS2	condtest_masked_2	7	22	400	1	300	300	0	0	336	50	0	1	0	0	0	1	blank2r.bmp	0	1	+	0	4	B4r.bmp	492	1	blank2r.bmp	786	1	DJMR	786	1	blank2r.bmp	866	1	jugend	866	1	!	1227	1	!	1230	0	0	0	0	0	0	0	0	0	0	0	0	0	0	0	0	0	0	0	0	0	0	0	0	0	0	0
062118	14:58:26	5.0.12.0	70	notassociated	Rpleas_acq	Same	Rpleas	Amasked	CS_A	1pleas	cond_new_unple_456_masked_CS1	condtest_masked_2	7	23	400	0	300	300	0	0	325	50	0	0	0	0	0	1	blank2r.bmp	0	1	+	0	2	B2r.bmp	492	1	blank2r.bmp	786	1	HLST	786	1	blank2r.bmp	866	2	verirren	866	1	!	-1	1	!	-1	0	0	0	0	0	0	0	0	0	0	0	0	0	0	0	0	0	0	0	0	0	0	0	0	0	0	0
062118	14:58:26	5.0.12.0	70	notassociated	Rpleas_acq	Same	Rpleas	Amasked	CS_A	1pleas	cond_US_pleas_123_masked_CS1	condtest_masked_2	7	24	400	0	300	300	0	0	319	50	0	1	0	0	0	1	blank2r.bmp	0	1	+	0	5	C1r.bmp	492	1	blank2r.bmp	786	1	HLST	786	1	blank2r.bmp	866	3	mama	866	1	!	-1	1	!	-1	0	0	0	0	0	0	0	0	0	0	0	0	0	0	0	0	0	0	0	0	0	0	0	0	0	0	0
062118	14:58:26	5.0.12.0	70	notassociated	Rpleas_acq	Same	Rpleas	Amasked	CS_A	1pleas	cond_new_pleas_456_masked_CS1	condtest_masked_2	7	25	400	1	300	300	0	0	409	46	0	0	0	0	0	1	blank2r.bmp	0	1	+	0	6	C2r.bmp	492	1	blank2r.bmp	786	1	HLST	786	1	blank2r.bmp	866	3	fair	866	1	!	1227	1	!	1303	0	0	0	0	0	0	0	0	0	0	0	0	0	0	0	0	0	0	0	0	0	0	0	0	0	0	0
062118	14:58:26	5.0.12.0	70	notassociated	Rpleas_acq	Same	Rpleas	Amasked	CS_A	1pleas	cond_US_pleas_123_masked_CS2	condtest_masked_2	7	26	400	1	300	300	0	0	364	50	0	1	0	0	0	1	blank2r.bmp	0	1	+	0	3	B3r.bmp	492	1	blank2r.bmp	786	1	DJMR	786	1	blank2r.bmp	866	2	erfinder	866	1	!	1227	1	!	1257	0	0	0	0	0	0	0	0	0	0	0	0	0	0	0	0	0	0	0	0	0	0	0	0	0	0	0
062118	14:58:26	5.0.12.0	70	notassociated	Rpleas_acq	Same	Rpleas	Amasked	CS_A	1pleas	cond_new_pleas_456_masked_CS2	condtest_masked_2	7	27	400	1	300	300	0	0	390	46	0	0	0	0	0	1	blank2r.bmp	0	1	+	0	7	C3r.bmp	492	1	blank2r.bmp	786	1	DJMR	786	1	blank2r.bmp	866	1	erinnerung	866	1	!	1227	1	!	1284	0	0	0	0	0	0	0	0	0	0	0	0	0	0	0	0	0	0	0	0	0	0	0	0	0	0	0
062118	14:58:26	5.0.12.0	70	notassociated	Rpleas_acq	Same	Rpleas	Amasked	CS_A	1pleas	cond_new_unple_456_masked_CS2	condtest_masked_2	7	28	400	1	300	300	0	0	406	50	0	0	0	0	0	1	blank2r.bmp	0	1	+	0	5	C1r.bmp	492	1	blank2r.bmp	786	1	DJMR	786	1	blank2r.bmp	866	3	wurm	866	1	!	1227	1	!	1299	0	0	0	0	0	0	0	0	0	0	0	0	0	0	0	0	0	0	0	0	0	0	0	0	0	0	0
062118	14:58:26	5.0.12.0	70	notassociated	Rpleas_acq	Same	Rpleas	Amasked	CS_A	1pleas	cond_US_unple_123_masked_CS2	condtest_masked_2	7	29	400	0	300	300	0	0	328	50	0	0	0	0	0	1	blank2r.bmp	0	1	+	0	2	B2r.bmp	492	1	blank2r.bmp	786	1	DJMR	786	1	blank2r.bmp	866	1	gegner	866	1	!	-1	1	!	-1	0	0	0	0	0	0	0	0	0	0	0	0	0	0	0	0	0	0	0	0	0	0	0	0	0	0	0
062118	14:58:26	5.0.12.0	70	notassociated	Rpleas_acq	Same	Rpleas	Amasked	CS_A	1pleas	cond_US_pleas_123_masked_CS1	condtest_masked_2	7	30	400	1	300	300	0	0	354	50	0	1	0	0	0	1	blank2r.bmp	0	1	+	0	8	C4r.bmp	492	1	blank2r.bmp	786	1	HLST	786	1	blank2r.bmp	866	2	erfinder	866	1	!	1227	1	!	1248	0	0	0	0	0	0	0	0	0	0	0	0	0	0	0	0	0	0	0	0	0	0	0	0	0	0	0
062118	14:58:26	5.0.12.0	70	notassociated	Rpleas_acq	Same	Rpleas	Amasked	CS_A	1pleas	cond_US_pleas_123_masked_CS2	condtest_masked_2	7	31	400	1	300	300	0	0	450	50	0	1	0	0	0	1	blank2r.bmp	0	1	+	0	4	B4r.bmp	492	1	blank2r.bmp	786	1	DJMR	786	1	blank2r.bmp	866	3	mama	866	1	!	1227	1	!	1343	0	0	0	0	0	0	0	0	0	0	0	0	0	0	0	0	0	0	0	0	0	0	0	0	0	0	0
062118	14:58:26	5.0.12.0	70	notassociated	Rpleas_acq	Same	Rpleas	Amasked	CS_A	1pleas	cond_US_pleas_123_masked_CS2	condtest_masked_2	7	32	400	1	300	300	0	0	367	46	0	0	0	0	0	1	blank2r.bmp	0	1	+	0	1	B1r.bmp	492	1	blank2r.bmp	786	1	DJMR	786	1	blank2r.bmp	866	1	jugend	866	1	!	1227	1	!	1260	0	0	0	0	0	0	0	0	0	0	0	0	0	0	0	0	0	0	0	0	0	0	0	0	0	0	0
062118	14:58:26	5.0.12.0	70	notassociated	Rpleas_acq	Same	Rpleas	Amasked	CS_A	1pleas	cond_US_unple_123_masked_CS2	condtest_masked_2	7	33	400	0	300	300	0	0	604	46	0	1	0	0	0	1	blank2r.bmp	0	1	+	0	8	C4r.bmp	492	1	blank2r.bmp	786	1	DJMR	786	1	blank2r.bmp	866	2	zwang	866	1	!	1227	1	!	-1	0	0	0	0	0	0	0	0	0	0	0	0	0	0	0	0	0	0	0	0	0	0	0	0	0	0	0
062118	14:58:26	5.0.12.0	70	notassociated	Rpleas_acq	Same	Rpleas	Amasked	CS_A	1pleas	cond_US_unple_123_masked_CS2	condtest_masked_2	7	34	400	0	300	300	0	0	583	46	0	1	0	0	0	1	blank2r.bmp	0	1	+	0	6	C2r.bmp	492	1	blank2r.bmp	786	1	DJMR	786	1	blank2r.bmp	866	1	gegner	866	1	!	1227	1	!	-1	0	0	0	0	0	0	0	0	0	0	0	0	0	0	0	0	0	0	0	0	0	0	0	0	0	0	0
062118	14:58:26	5.0.12.0	70	notassociated	Rpleas_acq	Same	Rpleas	Amasked	CS_A	1pleas	cond_US_unple_123_masked_CS1	condtest_masked_2	7	35	400	1	300	300	0	0	460	50	0	0	0	0	0	1	blank2r.bmp	0	1	+	0	4	B4r.bmp	492	1	blank2r.bmp	786	1	HLST	786	1	blank2r.bmp	866	3	wunde	866	1	!	1227	1	!	1354	0	0	0	0	0	0	0	0	0	0	0	0	0	0	0	0	0	0	0	0	0	0	0	0	0	0	0
062118	14:58:26	5.0.12.0	70	notassociated	Rpleas_acq	Same	Rpleas	Amasked	CS_A	1pleas	cond_new_unple_456_masked_CS1	condtest_masked_2	7	36	400	0	300	300	0	0	498	46	0	1	0	0	0	1	blank2r.bmp	0	1	+	0	2	B2r.bmp	492	1	blank2r.bmp	786	1	HLST	786	1	blank2r.bmp	866	3	wurm	866	1	!	1227	1	!	-1	0	0	0	0	0	0	0	0	0	0	0	0	0	0	0	0	0	0	0	0	0	0	0	0	0	0	0
062118	14:58:26	5.0.12.0	70	notassociated	Rpleas_acq	Same	Rpleas	Amasked	CS_A	1pleas	cond_new_unple_456_masked_CS1	condtest_masked_2	7	37	400	1	300	300	0	0	415	46	0	1	0	0	0	1	blank2r.bmp	0	1	+	0	7	C3r.bmp	492	1	blank2r.bmp	786	1	HLST	786	1	blank2r.bmp	866	2	verirren	866	1	!	1227	1	!	1309	0	0	0	0	0	0	0	0	0	0	0	0	0	0	0	0	0	0	0	0	0	0	0	0	0	0	0
062118	14:58:26	5.0.12.0	70	notassociated	Rpleas_acq	Same	Rpleas	Amasked	CS_A	1pleas	cond_new_pleas_456_masked_CS1	condtest_masked_2	7	38	400	1	300	300	0	0	455	50	0	1	0	0	0	1	blank2r.bmp	0	1	+	0	5	C1r.bmp	492	1	blank2r.bmp	786	1	HLST	786	1	blank2r.bmp	866	2	auge	866	1	!	1227	1	!	1349	0	0	0	0	0	0	0	0	0	0	0	0	0	0	0	0	0	0	0	0	0	0	0	0	0	0	0
062118	14:58:26	5.0.12.0	70	notassociated	Rpleas_acq	Same	Rpleas	Amasked	CS_A	1pleas	cond_US_unple_123_masked_CS1	condtest_masked_2	7	39	400	1	300	300	0	0	420	46	0	1	0	0	0	1	blank2r.bmp	0	1	+	0	3	B3r.bmp	492	1	blank2r.bmp	786	1	HLST	786	1	blank2r.bmp	866	2	zwang	866	1	!	1227	1	!	1314	0	0	0	0	0	0	0	0	0	0	0	0	0	0	0	0	0	0	0	0	0	0	0	0	0	0	0
062118	14:58:26	5.0.12.0	70	notassociated	Rpleas_acq	Same	Rpleas	Amasked	CS_A	1pleas	cond_new_unple_456_masked_CS2	condtest_masked_2	7	40	400	0	300	300	0	0	532	46	0	1	0	0	0	1	blank2r.bmp	0	1	+	0	1	B1r.bmp	492	1	blank2r.bmp	786	1	DJMR	786	1	blank2r.bmp	866	1	umweg	866	1	!	1227	1	!	-1	0	0	0	0	0	0	0	0	0	0	0	0	0	0	0	0	0	0	0	0	0	0	0	0	0	0	0
062118	14:58:26	5.0.12.0	70	notassociated	Rpleas_acq	Same	Rpleas	Amasked	CS_A	1pleas	cond_US_unple_456_masked_CS2	condtest_masked_3	8	1	400	0	300	300	0	0	536	46	0	1	0	0	0	1	blank2r.bmp	0	1	+	0	1	B1r.bmp	492	1	blank2r.bmp	786	1	DJMR	786	1	blank2r.bmp	866	3	narr	866	1	!	1227	1	!	-1	0	0	0	0	0	0	0	0	0	0	0	0	0	0	0	0	0	0	0	0	0	0	0	0	0	0	0
062118	14:58:26	5.0.12.0	70	notassociated	Rpleas_acq	Same	Rpleas	Amasked	CS_A	1pleas	cond_US_unple_456_masked_CS2	condtest_masked_3	8	2	400	0	300	300	0	0	286	46	0	1	0	0	0	1	blank2r.bmp	0	1	+	0	4	B4r.bmp	492	1	blank2r.bmp	786	1	DJMR	786	1	blank2r.bmp	866	1	geiz	866	1	!	-1	1	!	-1	0	0	0	0	0	0	0	0	0	0	0	0	0	0	0	0	0	0	0	0	0	0	0	0	0	0	0
062118	14:58:26	5.0.12.0	70	notassociated	Rpleas_acq	Same	Rpleas	Amasked	CS_A	1pleas	cond_new_pleas_123_masked_CS2	condtest_masked_3	8	3	400	1	300	300	0	0	368	46	0	0	0	0	0	1	blank2r.bmp	0	1	+	0	3	B3r.bmp	492	1	blank2r.bmp	786	1	DJMR	786	1	blank2r.bmp	866	3	gewinn	866	1	!	1227	1	!	1261	0	0	0	0	0	0	0	0	0	0	0	0	0	0	0	0	0	0	0	0	0	0	0	0	0	0	0
062118	14:58:26	5.0.12.0	70	notassociated	Rpleas_acq	Same	Rpleas	Amasked	CS_A	1pleas	cond_US_pleas_456_masked_CS1	condtest_masked_3	8	4	400	0	300	300	0	0	501	46	0	0	0	0	0	1	blank2r.bmp	0	1	+	0	8	C4r.bmp	492	1	blank2r.bmp	786	1	HLST	786	1	blank2r.bmp	866	1	frieden	866	1	!	1227	1	!	-1	0	0	0	0	0	0	0	0	0	0	0	0	0	0	0	0	0	0	0	0	0	0	0	0	0	0	0
062118	14:58:26	5.0.12.0	70	notassociated	Rpleas_acq	Same	Rpleas	Amasked	CS_A	1pleas	cond_new_unple_123_masked_CS2	condtest_masked_3	8	5	400	0	300	300	0	0	714	46	0	1	0	0	0	1	blank2r.bmp	0	1	+	0	2	B2r.bmp	492	1	blank2r.bmp	786	1	DJMR	786	1	blank2r.bmp	866	1	mager	866	1	!	1227	1	!	-1	0	0	0	0	0	0	0	0	0	0	0	0	0	0	0	0	0	0	0	0	0	0	0	0	0	0	0
062118	14:58:26	5.0.12.0	70	notassociated	Rpleas_acq	Same	Rpleas	Amasked	CS_A	1pleas	cond_new_pleas_123_masked_CS2	condtest_masked_3	8	6	400	0	300	300	0	0	325	46	0	0	0	0	0	1	blank2r.bmp	0	1	+	0	5	C1r.bmp	492	1	blank2r.bmp	786	1	DJMR	786	1	blank2r.bmp	866	1	geige	866	1	!	-1	1	!	-1	0	0	0	0	0	0	0	0	0	0	0	0	0	0	0	0	0	0	0	0	0	0	0	0	0	0	0
062118	14:58:26	5.0.12.0	70	notassociated	Rpleas_acq	Same	Rpleas	Amasked	CS_A	1pleas	cond_new_pleas_123_masked_CS1	condtest_masked_3	8	7	400	1	300	300	0	0	448	46	0	0	0	0	0	1	blank2r.bmp	0	1	+	0	6	C2r.bmp	492	1	blank2r.bmp	786	1	HLST	786	1	blank2r.bmp	866	2	energie	866	1	!	1227	1	!	1341	0	0	0	0	0	0	0	0	0	0	0	0	0	0	0	0	0	0	0	0	0	0	0	0	0	0	0
062118	14:58:26	5.0.12.0	70	notassociated	Rpleas_acq	Same	Rpleas	Amasked	CS_A	1pleas	cond_US_pleas_456_masked_CS1	condtest_masked_3	8	8	400	1	300	300	0	0	445	50	0	1	0	0	0	1	blank2r.bmp	0	1	+	0	7	C3r.bmp	492	1	blank2r.bmp	786	1	HLST	786	1	blank2r.bmp	866	3	wein	866	1	!	1227	1	!	1338	0	0	0	0	0	0	0	0	0	0	0	0	0	0	0	0	0	0	0	0	0	0	0	0	0	0	0
062118	14:58:26	5.0.12.0	70	notassociated	Rpleas_acq	Same	Rpleas	Amasked	CS_A	1pleas	cond_US_pleas_456_masked_CS2	condtest_masked_3	8	9	400	0	300	300	0	0	330	50	0	1	0	0	0	1	blank2r.bmp	0	1	+	0	5	C1r.bmp	492	1	blank2r.bmp	786	1	DJMR	786	1	blank2r.bmp	866	2	meer	866	1	!	-1	1	!	-1	0	0	0	0	0	0	0	0	0	0	0	0	0	0	0	0	0	0	0	0	0	0	0	0	0	0	0
062118	14:58:26	5.0.12.0	70	notassociated	Rpleas_acq	Same	Rpleas	Amasked	CS_A	1pleas	cond_new_pleas_123_masked_CS1	condtest_masked_3	8	10	400	0	300	300	0	0	327	50	0	1	0	0	0	1	blank2r.bmp	0	1	+	0	1	B1r.bmp	492	1	blank2r.bmp	786	1	HLST	786	1	blank2r.bmp	866	1	geige	866	1	!	-1	1	!	-1	0	0	0	0	0	0	0	0	0	0	0	0	0	0	0	0	0	0	0	0	0	0	0	0	0	0	0
062118	14:58:26	5.0.12.0	70	notassociated	Rpleas_acq	Same	Rpleas	Amasked	CS_A	1pleas	cond_new_unple_123_masked_CS2	condtest_masked_3	8	11	400	1	300	300	0	0	409	50	0	0	0	0	0	1	blank2r.bmp	0	1	+	0	4	B4r.bmp	492	1	blank2r.bmp	786	1	DJMR	786	1	blank2r.bmp	866	3	weigern	866	1	!	1227	1	!	1302	0	0	0	0	0	0	0	0	0	0	0	0	0	0	0	0	0	0	0	0	0	0	0	0	0	0	0
062118	14:58:26	5.0.12.0	70	notassociated	Rpleas_acq	Same	Rpleas	Amasked	CS_A	1pleas	cond_US_pleas_456_masked_CS1	condtest_masked_3	8	12	400	1	300	300	0	0	350	50	0	1	0	0	0	1	blank2r.bmp	0	1	+	0	2	B2r.bmp	492	1	blank2r.bmp	786	1	HLST	786	1	blank2r.bmp	866	2	meer	866	1	!	1227	1	!	1244	0	0	0	0	0	0	0	0	0	0	0	0	0	0	0	0	0	0	0	0	0	0	0	0	0	0	0
062118	14:58:26	5.0.12.0	70	notassociated	Rpleas_acq	Same	Rpleas	Amasked	CS_A	1pleas	cond_US_pleas_456_masked_CS2	condtest_masked_3	8	13	400	1	300	300	0	0	389	50	0	1	0	0	0	1	blank2r.bmp	0	1	+	0	3	B3r.bmp	492	1	blank2r.bmp	786	1	DJMR	786	1	blank2r.bmp	866	3	wein	866	1	!	1227	1	!	1283	0	0	0	0	0	0	0	0	0	0	0	0	0	0	0	0	0	0	0	0	0	0	0	0	0	0	0
062118	14:58:26	5.0.12.0	70	notassociated	Rpleas_acq	Same	Rpleas	Amasked	CS_A	1pleas	cond_US_unple_456_masked_CS1	condtest_masked_3	8	14	400	0	300	300	0	0	501	50	0	0	0	0	0	1	blank2r.bmp	0	1	+	0	7	C3r.bmp	492	1	blank2r.bmp	786	1	HLST	786	1	blank2r.bmp	866	2	armee	866	1	!	1227	1	!	-1	0	0	0	0	0	0	0	0	0	0	0	0	0	0	0	0	0	0	0	0	0	0	0	0	0	0	0
062118	14:58:26	5.0.12.0	70	notassociated	Rpleas_acq	Same	Rpleas	Amasked	CS_A	1pleas	cond_US_pleas_456_masked_CS1	condtest_masked_3	8	15	400	1	300	300	0	0	429	46	0	0	0	0	0	1	blank2r.bmp	0	1	+	0	8	C4r.bmp	492	1	blank2r.bmp	786	1	HLST	786	1	blank2r.bmp	866	1	frieden	866	1	!	1227	1	!	1323	0	0	0	0	0	0	0	0	0	0	0	0	0	0	0	0	0	0	0	0	0	0	0	0	0	0	0
062118	14:58:26	5.0.12.0	70	notassociated	Rpleas_acq	Same	Rpleas	Amasked	CS_A	1pleas	cond_new_unple_123_masked_CS2	condtest_masked_3	8	16	400	1	300	300	0	0	421	50	0	0	0	0	0	1	blank2r.bmp	0	1	+	0	6	C2r.bmp	492	1	blank2r.bmp	786	1	DJMR	786	1	blank2r.bmp	866	2	wunde	866	1	!	1227	1	!	1315	0	0	0	0	0	0	0	0	0	0	0	0	0	0	0	0	0	0	0	0	0	0	0	0	0	0	0
062118	14:58:26	5.0.12.0	70	notassociated	Rpleas_acq	Same	Rpleas	Amasked	CS_A	1pleas	cond_US_pleas_456_masked_CS1	condtest_masked_3	8	17	400	1	300	300	0	0	402	50	0	1	0	0	0	1	blank2r.bmp	0	1	+	0	2	B2r.bmp	492	1	blank2r.bmp	786	1	HLST	786	1	blank2r.bmp	866	3	wein	866	1	!	1227	1	!	1296	0	0	0	0	0	0	0	0	0	0	0	0	0	0	0	0	0	0	0	0	0	0	0	0	0	0	0
062118	14:58:26	5.0.12.0	70	notassociated	Rpleas_acq	Same	Rpleas	Amasked	CS_A	1pleas	cond_new_unple_123_masked_CS1	condtest_masked_3	8	18	400	1	300	300	0	0	452	50	0	0	0	0	0	1	blank2r.bmp	0	1	+	0	3	B3r.bmp	492	1	blank2r.bmp	786	1	HLST	786	1	blank2r.bmp	866	1	mager	866	1	!	1227	1	!	1346	0	0	0	0	0	0	0	0	0	0	0	0	0	0	0	0	0	0	0	0	0	0	0	0	0	0	0
062118	14:58:26	5.0.12.0	70	notassociated	Rpleas_acq	Same	Rpleas	Amasked	CS_A	1pleas	cond_new_unple_123_masked_CS1	condtest_masked_3	8	19	400	0	300	300	0	0	687	46	0	1	0	0	0	1	blank2r.bmp	0	1	+	0	6	C2r.bmp	492	1	blank2r.bmp	786	1	HLST	786	1	blank2r.bmp	866	2	wunde	866	1	!	1227	1	!	-1	0	0	0	0	0	0	0	0	0	0	0	0	0	0	0	0	0	0	0	0	0	0	0	0	0	0	0
062118	14:58:26	5.0.12.0	70	notassociated	Rpleas_acq	Same	Rpleas	Amasked	CS_A	1pleas	cond_US_unple_456_masked_CS1	condtest_masked_3	8	20	400	1	300	300	0	0	445	46	0	1	0	0	0	1	blank2r.bmp	0	1	+	0	8	C4r.bmp	492	1	blank2r.bmp	786	1	HLST	786	1	blank2r.bmp	866	1	geiz	866	1	!	1227	1	!	1339	0	0	0	0	0	0	0	0	0	0	0	0	0	0	0	0	0	0	0	0	0	0	0	0	0	0	0
062118	14:58:26	5.0.12.0	70	notassociated	Rpleas_acq	Same	Rpleas	Amasked	CS_A	1pleas	cond_new_pleas_123_masked_CS2	condtest_masked_3	8	21	400	0	300	300	0	0	504	46	0	0	0	0	0	1	blank2r.bmp	0	1	+	0	5	C1r.bmp	492	1	blank2r.bmp	786	1	DJMR	786	1	blank2r.bmp	866	3	gewinn	866	1	!	1227	1	!	-1	0	0	0	0	0	0	0	0	0	0	0	0	0	0	0	0	0	0	0	0	0	0	0	0	0	0	0
062118	14:58:26	5.0.12.0	70	notassociated	Rpleas_acq	Same	Rpleas	Amasked	CS_A	1pleas	cond_US_unple_456_masked_CS2	condtest_masked_3	8	22	400	1	300	300	0	0	416	50	0	0	0	0	0	1	blank2r.bmp	0	1	+	0	7	C3r.bmp	492	1	blank2r.bmp	786	1	DJMR	786	1	blank2r.bmp	866	3	narr	866	1	!	1227	1	!	1309	0	0	0	0	0	0	0	0	0	0	0	0	0	0	0	0	0	0	0	0	0	0	0	0	0	0	0
062118	14:58:26	5.0.12.0	70	notassociated	Rpleas_acq	Same	Rpleas	Amasked	CS_A	1pleas	cond_US_unple_456_masked_CS1	condtest_masked_3	8	23	400	1	300	300	0	0	453	50	0	0	0	0	0	1	blank2r.bmp	0	1	+	0	4	B4r.bmp	492	1	blank2r.bmp	786	1	HLST	786	1	blank2r.bmp	866	2	armee	866	1	!	1227	1	!	1346	0	0	0	0	0	0	0	0	0	0	0	0	0	0	0	0	0	0	0	0	0	0	0	0	0	0	0
062118	14:58:26	5.0.12.0	70	notassociated	Rpleas_acq	Same	Rpleas	Amasked	CS_A	1pleas	cond_new_unple_123_masked_CS2	condtest_masked_3	8	24	400	0	300	300	0	0	1346	46	0	1	0	0	0	1	blank2r.bmp	0	1	+	0	1	B1r.bmp	492	1	blank2r.bmp	786	1	DJMR	786	1	blank2r.bmp	866	3	weigern	866	1	!	1227	1	!	-1	0	0	0	0	0	0	0	0	0	0	0	0	0	0	0	0	0	0	0	0	0	0	0	0	0	0	0
062118	14:58:26	5.0.12.0	70	notassociated	Rpleas_acq	Same	Rpleas	Amasked	CS_A	1pleas	cond_new_pleas_123_masked_CS2	condtest_masked_3	8	25	400	0	300	300	0	0	528	46	0	0	0	0	0	1	blank2r.bmp	0	1	+	0	7	C3r.bmp	492	1	blank2r.bmp	786	1	DJMR	786	1	blank2r.bmp	866	2	energie	866	1	!	1227	1	!	-1	0	0	0	0	0	0	0	0	0	0	0	0	0	0	0	0	0	0	0	0	0	0	0	0	0	0	0
062118	14:58:26	5.0.12.0	70	notassociated	Rpleas_acq	Same	Rpleas	Amasked	CS_A	1pleas	cond_new_pleas_123_masked_CS1	condtest_masked_3	8	26	400	1	300	300	0	0	435	50	0	1	0	0	0	1	blank2r.bmp	0	1	+	0	8	C4r.bmp	492	1	blank2r.bmp	786	1	HLST	786	1	blank2r.bmp	866	3	gewinn	866	1	!	1227	1	!	1328	0	0	0	0	0	0	0	0	0	0	0	0	0	0	0	0	0	0	0	0	0	0	0	0	0	0	0
062118	14:58:26	5.0.12.0	70	notassociated	Rpleas_acq	Same	Rpleas	Amasked	CS_A	1pleas	cond_new_pleas_123_masked_CS2	condtest_masked_3	8	27	400	0	300	300	0	0	333	50	0	1	0	0	0	1	blank2r.bmp	0	1	+	0	1	B1r.bmp	492	1	blank2r.bmp	786	1	DJMR	786	1	blank2r.bmp	866	1	geige	866	1	!	-1	1	!	-1	0	0	0	0	0	0	0	0	0	0	0	0	0	0	0	0	0	0	0	0	0	0	0	0	0	0	0
062118	14:58:26	5.0.12.0	70	notassociated	Rpleas_acq	Same	Rpleas	Amasked	CS_A	1pleas	cond_new_pleas_123_masked_CS1	condtest_masked_3	8	28	400	0	300	300	0	0	522	50	0	1	0	0	0	1	blank2r.bmp	0	1	+	0	4	B4r.bmp	492	1	blank2r.bmp	786	1	HLST	786	1	blank2r.bmp	866	2	energie	866	1	!	1227	1	!	-1	0	0	0	0	0	0	0	0	0	0	0	0	0	0	0	0	0	0	0	0	0	0	0	0	0	0	0
062118	14:58:26	5.0.12.0	70	notassociated	Rpleas_acq	Same	Rpleas	Amasked	CS_A	1pleas	cond_US_pleas_456_masked_CS2	condtest_masked_3	8	29	400	1	300	300	0	0	405	50	0	1	0	0	0	1	blank2r.bmp	0	1	+	0	5	C1r.bmp	492	1	blank2r.bmp	786	1	DJMR	786	1	blank2r.bmp	866	2	meer	866	1	!	1227	1	!	1298	0	0	0	0	0	0	0	0	0	0	0	0	0	0	0	0	0	0	0	0	0	0	0	0	0	0	0
062118	14:58:26	5.0.12.0	70	notassociated	Rpleas_acq	Same	Rpleas	Amasked	CS_A	1pleas	cond_new_pleas_123_masked_CS2	condtest_masked_3	8	30	400	1	300	300	0	0	447	50	0	1	0	0	0	1	blank2r.bmp	0	1	+	0	2	B2r.bmp	492	1	blank2r.bmp	786	1	DJMR	786	1	blank2r.bmp	866	1	geige	866	1	!	1227	1	!	1341	0	0	0	0	0	0	0	0	0	0	0	0	0	0	0	0	0	0	0	0	0	0	0	0	0	0	0
062118	14:58:26	5.0.12.0	70	notassociated	Rpleas_acq	Same	Rpleas	Amasked	CS_A	1pleas	cond_new_unple_123_masked_CS2	condtest_masked_3	8	31	400	0	300	300	0	0	604	46	0	1	0	0	0	1	blank2r.bmp	0	1	+	0	6	C2r.bmp	492	1	blank2r.bmp	786	1	DJMR	786	1	blank2r.bmp	866	3	weigern	866	1	!	1227	1	!	-1	0	0	0	0	0	0	0	0	0	0	0	0	0	0	0	0	0	0	0	0	0	0	0	0	0	0	0
062118	14:58:26	5.0.12.0	70	notassociated	Rpleas_acq	Same	Rpleas	Amasked	CS_A	1pleas	cond_new_unple_123_masked_CS1	condtest_masked_3	8	32	400	0	300	300	0	0	679	46	0	1	0	0	0	1	blank2r.bmp	0	1	+	0	3	B3r.bmp	492	1	blank2r.bmp	786	1	HLST	786	1	blank2r.bmp	866	2	wunde	866	1	!	1227	1	!	-1	0	0	0	0	0	0	0	0	0	0	0	0	0	0	0	0	0	0	0	0	0	0	0	0	0	0	0
062118	14:58:26	5.0.12.0	70	notassociated	Rpleas_acq	Same	Rpleas	Amasked	CS_A	1pleas	cond_US_pleas_456_masked_CS2	condtest_masked_3	8	33	400	1	300	300	0	0	416	50	0	1	0	0	0	1	blank2r.bmp	0	1	+	0	7	C3r.bmp	492	1	blank2r.bmp	786	1	DJMR	786	1	blank2r.bmp	866	1	frieden	866	1	!	1227	1	!	1310	0	0	0	0	0	0	0	0	0	0	0	0	0	0	0	0	0	0	0	0	0	0	0	0	0	0	0
062118	14:58:26	5.0.12.0	70	notassociated	Rpleas_acq	Same	Rpleas	Amasked	CS_A	1pleas	cond_US_pleas_456_masked_CS2	condtest_masked_3	8	34	400	1	300	300	0	0	466	50	0	1	0	0	0	1	blank2r.bmp	0	1	+	0	5	C1r.bmp	492	1	blank2r.bmp	786	1	DJMR	786	1	blank2r.bmp	866	1	frieden	866	1	!	1227	1	!	1360	0	0	0	0	0	0	0	0	0	0	0	0	0	0	0	0	0	0	0	0	0	0	0	0	0	0	0
062118	14:58:26	5.0.12.0	70	notassociated	Rpleas_acq	Same	Rpleas	Amasked	CS_A	1pleas	cond_new_pleas_123_masked_CS1	condtest_masked_3	8	35	400	0	300	300	0	0	480	50	0	1	0	0	0	1	blank2r.bmp	0	1	+	0	6	C2r.bmp	492	1	blank2r.bmp	786	1	HLST	786	1	blank2r.bmp	866	2	energie	866	1	!	1227	1	!	-1	0	0	0	0	0	0	0	0	0	0	0	0	0	0	0	0	0	0	0	0	0	0	0	0	0	0	0
062118	14:58:26	5.0.12.0	70	notassociated	Rpleas_acq	Same	Rpleas	Amasked	CS_A	1pleas	cond_US_unple_456_masked_CS2	condtest_masked_3	8	36	400	0	300	300	0	0	538	46	0	1	0	0	0	1	blank2r.bmp	0	1	+	0	2	B2r.bmp	492	1	blank2r.bmp	786	1	DJMR	786	1	blank2r.bmp	866	1	geiz	866	1	!	1227	1	!	-1	0	0	0	0	0	0	0	0	0	0	0	0	0	0	0	0	0	0	0	0	0	0	0	0	0	0	0
062118	14:58:26	5.0.12.0	70	notassociated	Rpleas_acq	Same	Rpleas	Amasked	CS_A	1pleas	cond_new_unple_123_masked_CS1	condtest_masked_3	8	37	400	0	300	300	0	0	488	46	0	1	0	0	0	1	blank2r.bmp	0	1	+	0	1	B1r.bmp	492	1	blank2r.bmp	786	1	HLST	786	1	blank2r.bmp	866	1	mager	866	1	!	1227	1	!	-1	0	0	0	0	0	0	0	0	0	0	0	0	0	0	0	0	0	0	0	0	0	0	0	0	0	0	0
062118	14:58:26	5.0.12.0	70	notassociated	Rpleas_acq	Same	Rpleas	Amasked	CS_A	1pleas	cond_US_unple_456_masked_CS1	condtest_masked_3	8	38	400	0	300	300	0	0	515	46	0	1	0	0	0	1	blank2r.bmp	0	1	+	0	4	B4r.bmp	492	1	blank2r.bmp	786	1	HLST	786	1	blank2r.bmp	866	3	narr	866	1	!	1227	1	!	-1	0	0	0	0	0	0	0	0	0	0	0	0	0	0	0	0	0	0	0	0	0	0	0	0	0	0	0
062118	14:58:26	5.0.12.0	70	notassociated	Rpleas_acq	Same	Rpleas	Amasked	CS_A	1pleas	cond_US_pleas_456_masked_CS2	condtest_masked_3	8	39	400	1	300	300	0	0	466	50	0	1	0	0	0	1	blank2r.bmp	0	1	+	0	8	C4r.bmp	492	1	blank2r.bmp	786	1	DJMR	786	1	blank2r.bmp	866	3	wein	866	1	!	1227	1	!	1360	0	0	0	0	0	0	0	0	0	0	0	0	0	0	0	0	0	0	0	0	0	0	0	0	0	0	0
062118	14:58:26	5.0.12.0	70	notassociated	Rpleas_acq	Same	Rpleas	Amasked	CS_A	1pleas	cond_US_unple_456_masked_CS2	condtest_masked_3	8	40	400	0	300	300	0	0	498	50	0	0	0	0	0	1	blank2r.bmp	0	1	+	0	3	B3r.bmp	492	1	blank2r.bmp	786	1	DJMR	786	1	blank2r.bmp	866	2	armee	866	1	!	1227	1	!	-1	0	0	0	0	0	0	0	0	0	0	0	0	0	0	0	0	0	0	0	0	0	0	0	0	0	0	0
062118	14:58:26	5.0.12.0	70	notassociated	Rpleas_acq	Same	Rpleas	Amasked	CS_A	1pleas	cond_US_unple_456_masked_CS1	condtest_masked_3	8	41	400	1	300	300	0	0	378	50	0	0	0	0	0	1	blank2r.bmp	0	1	+	0	5	C1r.bmp	492	1	blank2r.bmp	786	1	HLST	786	1	blank2r.bmp	866	1	geiz	866	1	!	1227	1	!	1272	0	0	0	0	0	0	0	0	0	0	0	0	0	0	0	0	0	0	0	0	0	0	0	0	0	0	0
062118	14:58:26	5.0.12.0	70	notassociated	Rpleas_acq	Same	Rpleas	Amasked	CS_A	1pleas	cond_US_unple_456_masked_CS2	condtest_masked_3	8	42	400	1	300	300	0	0	386	46	0	1	0	0	0	1	blank2r.bmp	0	1	+	0	2	B2r.bmp	492	1	blank2r.bmp	786	1	DJMR	786	1	blank2r.bmp	866	3	narr	866	1	!	1227	1	!	1280	0	0	0	0	0	0	0	0	0	0	0	0	0	0	0	0	0	0	0	0	0	0	0	0	0	0	0
062118	14:58:26	5.0.12.0	70	notassociated	Rpleas_acq	Same	Rpleas	Amasked	CS_A	1pleas	cond_US_pleas_456_masked_CS1	condtest_masked_3	8	43	400	0	300	300	0	0	482	50	0	1	0	0	0	1	blank2r.bmp	0	1	+	0	4	B4r.bmp	492	1	blank2r.bmp	786	1	HLST	786	1	blank2r.bmp	866	2	meer	866	1	!	1227	1	!	-1	0	0	0	0	0	0	0	0	0	0	0	0	0	0	0	0	0	0	0	0	0	0	0	0	0	0	0
062118	14:58:26	5.0.12.0	70	notassociated	Rpleas_acq	Same	Rpleas	Amasked	CS_A	1pleas	cond_new_unple_123_masked_CS1	condtest_masked_3	8	44	400	1	300	300	0	0	420	46	0	1	0	0	0	1	blank2r.bmp	0	1	+	0	1	B1r.bmp	492	1	blank2r.bmp	786	1	HLST	786	1	blank2r.bmp	866	2	wunde	866	1	!	1227	1	!	1314	0	0	0	0	0	0	0	0	0	0	0	0	0	0	0	0	0	0	0	0	0	0	0	0	0	0	0
062118	14:58:26	5.0.12.0	70	notassociated	Rpleas_acq	Same	Rpleas	Amasked	CS_A	1pleas	cond_US_unple_456_masked_CS1	condtest_masked_3	8	45	400	1	300	300	0	0	377	50	0	0	0	0	0	1	blank2r.bmp	0	1	+	0	6	C2r.bmp	492	1	blank2r.bmp	786	1	HLST	786	1	blank2r.bmp	866	2	armee	866	1	!	1227	1	!	1271	0	0	0	0	0	0	0	0	0	0	0	0	0	0	0	0	0	0	0	0	0	0	0	0	0	0	0
062118	14:58:26	5.0.12.0	70	notassociated	Rpleas_acq	Same	Rpleas	Amasked	CS_A	1pleas	cond_new_pleas_123_masked_CS1	condtest_masked_3	8	46	400	1	300	300	0	0	398	50	0	1	0	0	0	1	blank2r.bmp	0	1	+	0	8	C4r.bmp	492	1	blank2r.bmp	786	1	HLST	786	1	blank2r.bmp	866	3	gewinn	866	1	!	1227	1	!	1292	0	0	0	0	0	0	0	0	0	0	0	0	0	0	0	0	0	0	0	0	0	0	0	0	0	0	0
062118	14:58:26	5.0.12.0	70	notassociated	Rpleas_acq	Same	Rpleas	Amasked	CS_A	1pleas	cond_new_unple_123_masked_CS2	condtest_masked_3	8	47	400	0	300	300	0	0	513	50	0	0	0	0	0	1	blank2r.bmp	0	1	+	0	3	B3r.bmp	492	1	blank2r.bmp	786	1	DJMR	786	1	blank2r.bmp	866	1	mager	866	1	!	1227	1	!	-1	0	0	0	0	0	0	0	0	0	0	0	0	0	0	0	0	0	0	0	0	0	0	0	0	0	0	0
062118	14:58:26	5.0.12.0	70	notassociated	Rpleas_acq	Same	Rpleas	Amasked	CS_A	1pleas	cond_new_unple_123_masked_CS1	condtest_masked_3	8	48	400	0	300	300	0	0	516	50	0	0	0	0	0	1	blank2r.bmp	0	1	+	0	7	C3r.bmp	492	1	blank2r.bmp	786	1	HLST	786	1	blank2r.bmp	866	3	weigern	866	1	!	1227	1	!	-1	0	0	0	0	0	0	0	0	0	0	0	0	0	0	0	0	0	0	0	0	0	0	0	0	0	0	0
062118	14:58:26	5.0.12.0	70	notassociated	Rpleas_acq	Same	Rpleas	Amasked	CS_A	1pleas	cond_new_unple_456_masked_CS1	condtest_masked_4	9	1	400	0	300	300	0	0	504	50	0	0	0	0	0	1	blank2r.bmp	0	1	+	0	8	C4r.bmp	492	1	blank2r.bmp	786	1	HLST	786	1	blank2r.bmp	866	3	wurm	866	1	!	1227	1	!	-1	0	0	0	0	0	0	0	0	0	0	0	0	0	0	0	0	0	0	0	0	0	0	0	0	0	0	0
062118	14:58:26	5.0.12.0	70	notassociated	Rpleas_acq	Same	Rpleas	Amasked	CS_A	1pleas	cond_new_unple_456_masked_CS1	condtest_masked_4	9	2	400	0	300	300	0	0	672	46	0	1	0	0	0	1	blank2r.bmp	0	1	+	0	5	C1r.bmp	492	1	blank2r.bmp	786	1	HLST	786	1	blank2r.bmp	866	1	umweg	866	1	!	1227	1	!	-1	0	0	0	0	0	0	0	0	0	0	0	0	0	0	0	0	0	0	0	0	0	0	0	0	0	0	0
062118	14:58:26	5.0.12.0	70	notassociated	Rpleas_acq	Same	Rpleas	Amasked	CS_A	1pleas	cond_US_unple_123_masked_CS2	condtest_masked_4	9	3	400	0	300	300	0	0	529	46	0	1	0	0	0	1	blank2r.bmp	0	1	+	0	1	B1r.bmp	492	1	blank2r.bmp	786	1	DJMR	786	1	blank2r.bmp	866	1	gegner	866	1	!	1227	1	!	-1	0	0	0	0	0	0	0	0	0	0	0	0	0	0	0	0	0	0	0	0	0	0	0	0	0	0	0
062118	14:58:26	5.0.12.0	70	notassociated	Rpleas_acq	Same	Rpleas	Amasked	CS_A	1pleas	cond_US_pleas_123_masked_CS1	condtest_masked_4	9	4	400	1	300	300	0	0	391	46	0	0	0	0	0	1	blank2r.bmp	0	1	+	0	4	B4r.bmp	492	1	blank2r.bmp	786	1	HLST	786	1	blank2r.bmp	866	1	jugend	866	1	!	1227	1	!	1284	0	0	0	0	0	0	0	0	0	0	0	0	0	0	0	0	0	0	0	0	0	0	0	0	0	0	0
062118	14:58:26	5.0.12.0	70	notassociated	Rpleas_acq	Same	Rpleas	Amasked	CS_A	1pleas	cond_US_pleas_123_masked_CS2	condtest_masked_4	9	5	400	0	300	300	0	0	486	50	0	1	0	0	0	1	blank2r.bmp	0	1	+	0	3	B3r.bmp	492	1	blank2r.bmp	786	1	DJMR	786	1	blank2r.bmp	866	3	mama	866	1	!	1227	1	!	-1	0	0	0	0	0	0	0	0	0	0	0	0	0	0	0	0	0	0	0	0	0	0	0	0	0	0	0
062118	14:58:26	5.0.12.0	70	notassociated	Rpleas_acq	Same	Rpleas	Amasked	CS_A	1pleas	cond_US_unple_123_masked_CS2	condtest_masked_4	9	6	400	0	300	300	0	0	585	46	0	1	0	0	0	1	blank2r.bmp	0	1	+	0	7	C3r.bmp	492	1	blank2r.bmp	786	1	DJMR	786	1	blank2r.bmp	866	3	wunde	866	1	!	1227	1	!	-1	0	0	0	0	0	0	0	0	0	0	0	0	0	0	0	0	0	0	0	0	0	0	0	0	0	0	0
062118	14:58:26	5.0.12.0	70	notassociated	Rpleas_acq	Same	Rpleas	Amasked	CS_A	1pleas	cond_US_unple_123_masked_CS2	condtest_masked_4	9	7	400	0	300	300	0	0	567	46	0	1	0	0	0	1	blank2r.bmp	0	1	+	0	2	B2r.bmp	492	1	blank2r.bmp	786	1	DJMR	786	1	blank2r.bmp	866	2	zwang	866	1	!	1227	1	!	-1	0	0	0	0	0	0	0	0	0	0	0	0	0	0	0	0	0	0	0	0	0	0	0	0	0	0	0
062118	14:58:26	5.0.12.0	70	notassociated	Rpleas_acq	Same	Rpleas	Amasked	CS_A	1pleas	cond_new_unple_456_masked_CS1	condtest_masked_4	9	8	400	1	300	300	0	0	338	46	0	1	0	0	0	1	blank2r.bmp	0	1	+	0	6	C2r.bmp	492	1	blank2r.bmp	786	1	HLST	786	1	blank2r.bmp	866	2	verirren	866	1	!	1227	1	!	1232	0	0	0	0	0	0	0	0	0	0	0	0	0	0	0	0	0	0	0	0	0	0	0	0	0	0	0
062118	14:58:26	5.0.12.0	70	notassociated	Rpleas_acq	Same	Rpleas	Amasked	CS_A	1pleas	cond_US_unple_123_masked_CS1	condtest_masked_4	9	9	400	1	300	300	0	0	417	46	0	1	0	0	0	1	blank2r.bmp	0	1	+	0	5	C1r.bmp	492	1	blank2r.bmp	786	1	HLST	786	1	blank2r.bmp	866	1	gegner	866	1	!	1227	1	!	1311	0	0	0	0	0	0	0	0	0	0	0	0	0	0	0	0	0	0	0	0	0	0	0	0	0	0	0
062118	14:58:26	5.0.12.0	70	notassociated	Rpleas_acq	Same	Rpleas	Amasked	CS_A	1pleas	cond_US_unple_123_masked_CS1	condtest_masked_4	9	10	400	0	300	300	0	0	526	46	0	1	0	0	0	1	blank2r.bmp	0	1	+	0	2	B2r.bmp	492	1	blank2r.bmp	786	1	HLST	786	1	blank2r.bmp	866	3	wunde	866	1	!	1227	1	!	-1	0	0	0	0	0	0	0	0	0	0	0	0	0	0	0	0	0	0	0	0	0	0	0	0	0	0	0
062118	14:58:26	5.0.12.0	70	notassociated	Rpleas_acq	Same	Rpleas	Amasked	CS_A	1pleas	cond_new_unple_456_masked_CS2	condtest_masked_4	9	11	400	1	300	300	0	0	396	46	0	1	0	0	0	1	blank2r.bmp	0	1	+	0	3	B3r.bmp	492	1	blank2r.bmp	786	1	DJMR	786	1	blank2r.bmp	866	3	wurm	866	1	!	1227	1	!	1289	0	0	0	0	0	0	0	0	0	0	0	0	0	0	0	0	0	0	0	0	0	0	0	0	0	0	0
062118	14:58:26	5.0.12.0	70	notassociated	Rpleas_acq	Same	Rpleas	Amasked	CS_A	1pleas	cond_US_unple_123_masked_CS1	condtest_masked_4	9	12	400	1	300	300	0	0	462	46	0	1	0	0	0	1	blank2r.bmp	0	1	+	0	7	C3r.bmp	492	1	blank2r.bmp	786	1	HLST	786	1	blank2r.bmp	866	2	zwang	866	1	!	1227	1	!	1356	0	0	0	0	0	0	0	0	0	0	0	0	0	0	0	0	0	0	0	0	0	0	0	0	0	0	0
062118	14:58:26	5.0.12.0	70	notassociated	Rpleas_acq	Same	Rpleas	Amasked	CS_A	1pleas	cond_new_unple_456_masked_CS1	condtest_masked_4	9	13	400	0	300	300	0	0	478	46	0	1	0	0	0	1	blank2r.bmp	0	1	+	0	1	B1r.bmp	492	1	blank2r.bmp	786	1	HLST	786	1	blank2r.bmp	866	2	verirren	866	1	!	1227	1	!	-1	0	0	0	0	0	0	0	0	0	0	0	0	0	0	0	0	0	0	0	0	0	0	0	0	0	0	0
062118	14:58:26	5.0.12.0	70	notassociated	Rpleas_acq	Same	Rpleas	Amasked	CS_A	1pleas	cond_new_pleas_456_masked_CS1	condtest_masked_4	9	14	400	1	300	300	0	0	441	50	0	1	0	0	0	1	blank2r.bmp	0	1	+	0	4	B4r.bmp	492	1	blank2r.bmp	786	1	HLST	786	1	blank2r.bmp	866	1	erinnerung	866	1	!	1227	1	!	1334	0	0	0	0	0	0	0	0	0	0	0	0	0	0	0	0	0	0	0	0	0	0	0	0	0	0	0
062118	14:58:26	5.0.12.0	70	notassociated	Rpleas_acq	Same	Rpleas	Amasked	CS_A	1pleas	cond_US_pleas_123_masked_CS1	condtest_masked_4	9	15	400	0	300	300	0	0	472	50	0	1	0	0	0	1	blank2r.bmp	0	1	+	0	8	C4r.bmp	492	1	blank2r.bmp	786	1	HLST	786	1	blank2r.bmp	866	2	erfinder	866	1	!	1227	1	!	-1	0	0	0	0	0	0	0	0	0	0	0	0	0	0	0	0	0	0	0	0	0	0	0	0	0	0	0
062118	14:58:26	5.0.12.0	70	notassociated	Rpleas_acq	Same	Rpleas	Amasked	CS_A	1pleas	cond_new_unple_456_masked_CS2	condtest_masked_4	9	16	400	0	300	300	0	0	488	46	0	1	0	0	0	1	blank2r.bmp	0	1	+	0	6	C2r.bmp	492	1	blank2r.bmp	786	1	DJMR	786	1	blank2r.bmp	866	1	umweg	866	1	!	1227	1	!	-1	0	0	0	0	0	0	0	0	0	0	0	0	0	0	0	0	0	0	0	0	0	0	0	0	0	0	0
062118	14:58:26	5.0.12.0	70	notassociated	Rpleas_acq	Same	Rpleas	Amasked	CS_A	1pleas	cond_new_pleas_456_masked_CS1	condtest_masked_4	9	17	400	1	300	300	0	0	403	46	0	0	0	0	0	1	blank2r.bmp	0	1	+	0	6	C2r.bmp	492	1	blank2r.bmp	786	1	HLST	786	1	blank2r.bmp	866	3	fair	866	1	!	1227	1	!	1297	0	0	0	0	0	0	0	0	0	0	0	0	0	0	0	0	0	0	0	0	0	0	0	0	0	0	0
062118	14:58:26	5.0.12.0	70	notassociated	Rpleas_acq	Same	Rpleas	Amasked	CS_A	1pleas	cond_new_unple_456_masked_CS2	condtest_masked_4	9	18	400	0	300	300	0	0	632	46	0	1	0	0	0	1	blank2r.bmp	0	1	+	0	2	B2r.bmp	492	1	blank2r.bmp	786	1	DJMR	786	1	blank2r.bmp	866	3	wurm	866	1	!	1227	1	!	-1	0	0	0	0	0	0	0	0	0	0	0	0	0	0	0	0	0	0	0	0	0	0	0	0	0	0	0
062118	14:58:26	5.0.12.0	70	notassociated	Rpleas_acq	Same	Rpleas	Amasked	CS_A	1pleas	cond_new_unple_456_masked_CS1	condtest_masked_4	9	19	400	1	300	300	0	0	465	50	0	0	0	0	0	1	blank2r.bmp	0	1	+	0	4	B4r.bmp	492	1	blank2r.bmp	786	1	HLST	786	1	blank2r.bmp	866	1	umweg	866	1	!	1227	1	!	1358	0	0	0	0	0	0	0	0	0	0	0	0	0	0	0	0	0	0	0	0	0	0	0	0	0	0	0
062118	14:58:26	5.0.12.0	70	notassociated	Rpleas_acq	Same	Rpleas	Amasked	CS_A	1pleas	cond_new_pleas_456_masked_CS1	condtest_masked_4	9	20	400	1	300	300	0	0	366	50	0	1	0	0	0	1	blank2r.bmp	0	1	+	0	8	C4r.bmp	492	1	blank2r.bmp	786	1	HLST	786	1	blank2r.bmp	866	2	auge	866	1	!	1227	1	!	1260	0	0	0	0	0	0	0	0	0	0	0	0	0	0	0	0	0	0	0	0	0	0	0	0	0	0	0
062118	14:58:26	5.0.12.0	70	notassociated	Rpleas_acq	Same	Rpleas	Amasked	CS_A	1pleas	cond_US_unple_123_masked_CS2	condtest_masked_4	9	21	400	0	300	300	0	0	472	46	0	1	0	0	0	1	blank2r.bmp	0	1	+	0	1	B1r.bmp	492	1	blank2r.bmp	786	1	DJMR	786	1	blank2r.bmp	866	3	wunde	866	1	!	1227	1	!	-1	0	0	0	0	0	0	0	0	0	0	0	0	0	0	0	0	0	0	0	0	0	0	0	0	0	0	0
062118	14:58:26	5.0.12.0	70	notassociated	Rpleas_acq	Same	Rpleas	Amasked	CS_A	1pleas	cond_US_unple_123_masked_CS1	condtest_masked_4	9	22	400	0	300	300	0	0	488	46	0	1	0	0	0	1	blank2r.bmp	0	1	+	0	3	B3r.bmp	492	1	blank2r.bmp	786	1	HLST	786	1	blank2r.bmp	866	2	zwang	866	1	!	1227	1	!	-1	0	0	0	0	0	0	0	0	0	0	0	0	0	0	0	0	0	0	0	0	0	0	0	0	0	0	0
062118	14:58:26	5.0.12.0	70	notassociated	Rpleas_acq	Same	Rpleas	Amasked	CS_A	1pleas	cond_US_unple_123_masked_CS1	condtest_masked_4	9	23	400	0	300	300	0	0	822	46	0	1	0	0	0	1	blank2r.bmp	0	1	+	0	5	C1r.bmp	492	1	blank2r.bmp	786	1	HLST	786	1	blank2r.bmp	866	1	gegner	866	1	!	1227	1	!	-1	0	0	0	0	0	0	0	0	0	0	0	0	0	0	0	0	0	0	0	0	0	0	0	0	0	0	0
062118	14:58:26	5.0.12.0	70	notassociated	Rpleas_acq	Same	Rpleas	Amasked	CS_A	1pleas	cond_new_pleas_456_masked_CS2	condtest_masked_4	9	24	400	0	300	300	0	0	479	50	0	1	0	0	0	1	blank2r.bmp	0	1	+	0	7	C3r.bmp	492	1	blank2r.bmp	786	1	DJMR	786	1	blank2r.bmp	866	2	auge	866	1	!	1227	1	!	-1	0	0	0	0	0	0	0	0	0	0	0	0	0	0	0	0	0	0	0	0	0	0	0	0	0	0	0
062118	14:58:26	5.0.12.0	70	notassociated	Rpleas_acq	Same	Rpleas	Amasked	CS_A	1pleas	cond_new_pleas_456_masked_CS2	condtest_masked_4	9	25	400	1	300	300	0	0	369	50	0	1	0	0	0	1	blank2r.bmp	0	1	+	0	4	B4r.bmp	492	1	blank2r.bmp	786	1	DJMR	786	1	blank2r.bmp	866	3	fair	866	1	!	1227	1	!	1263	0	0	0	0	0	0	0	0	0	0	0	0	0	0	0	0	0	0	0	0	0	0	0	0	0	0	0
062118	14:58:26	5.0.12.0	70	notassociated	Rpleas_acq	Same	Rpleas	Amasked	CS_A	1pleas	cond_new_unple_456_masked_CS2	condtest_masked_4	9	26	400	0	300	300	0	0	478	46	0	1	0	0	0	1	blank2r.bmp	0	1	+	0	6	C2r.bmp	492	1	blank2r.bmp	786	1	DJMR	786	1	blank2r.bmp	866	2	verirren	866	1	!	1227	1	!	-1	0	0	0	0	0	0	0	0	0	0	0	0	0	0	0	0	0	0	0	0	0	0	0	0	0	0	0
062118	14:58:26	5.0.12.0	70	notassociated	Rpleas_acq	Same	Rpleas	Amasked	CS_A	1pleas	cond_US_unple_123_masked_CS2	condtest_masked_4	9	27	400	1	300	300	0	0	337	46	0	1	0	0	0	1	blank2r.bmp	0	1	+	0	8	C4r.bmp	492	1	blank2r.bmp	786	1	DJMR	786	1	blank2r.bmp	866	3	wunde	866	1	!	1227	1	!	1230	0	0	0	0	0	0	0	0	0	0	0	0	0	0	0	0	0	0	0	0	0	0	0	0	0	0	0
062118	14:58:26	5.0.12.0	70	notassociated	Rpleas_acq	Same	Rpleas	Amasked	CS_A	1pleas	cond_new_pleas_456_masked_CS2	condtest_masked_4	9	28	400	1	300	300	0	0	398	46	0	0	0	0	0	1	blank2r.bmp	0	1	+	0	2	B2r.bmp	492	1	blank2r.bmp	786	1	DJMR	786	1	blank2r.bmp	866	1	erinnerung	866	1	!	1227	1	!	1291	0	0	0	0	0	0	0	0	0	0	0	0	0	0	0	0	0	0	0	0	0	0	0	0	0	0	0
062118	14:58:26	5.0.12.0	70	notassociated	Rpleas_acq	Same	Rpleas	Amasked	CS_A	1pleas	cond_US_unple_123_masked_CS2	condtest_masked_4	9	29	400	1	300	300	0	0	429	46	0	1	0	0	0	1	blank2r.bmp	0	1	+	0	3	B3r.bmp	492	1	blank2r.bmp	786	1	DJMR	786	1	blank2r.bmp	866	1	gegner	866	1	!	1227	1	!	1323	0	0	0	0	0	0	0	0	0	0	0	0	0	0	0	0	0	0	0	0	0	0	0	0	0	0	0
062118	14:58:26	5.0.12.0	70	notassociated	Rpleas_acq	Same	Rpleas	Amasked	CS_A	1pleas	cond_US_unple_123_masked_CS1	condtest_masked_4	9	30	400	0	300	300	0	0	573	46	0	1	0	0	0	1	blank2r.bmp	0	1	+	0	7	C3r.bmp	492	1	blank2r.bmp	786	1	HLST	786	1	blank2r.bmp	866	2	zwang	866	1	!	1227	1	!	-1	0	0	0	0	0	0	0	0	0	0	0	0	0	0	0	0	0	0	0	0	0	0	0	0	0	0	0
062118	14:58:26	5.0.12.0	70	notassociated	Rpleas_acq	Same	Rpleas	Amasked	CS_A	1pleas	cond_new_pleas_456_masked_CS1	condtest_masked_4	9	31	400	1	300	300	0	0	459	50	0	1	0	0	0	1	blank2r.bmp	0	1	+	0	5	C1r.bmp	492	1	blank2r.bmp	786	1	HLST	786	1	blank2r.bmp	866	3	fair	866	1	!	1227	1	!	1352	0	0	0	0	0	0	0	0	0	0	0	0	0	0	0	0	0	0	0	0	0	0	0	0	0	0	0
062118	14:58:26	5.0.12.0	70	notassociated	Rpleas_acq	Same	Rpleas	Amasked	CS_A	1pleas	cond_US_pleas_123_masked_CS2	condtest_masked_4	9	32	400	1	300	300	0	0	400	46	0	0	0	0	0	1	blank2r.bmp	0	1	+	0	1	B1r.bmp	492	1	blank2r.bmp	786	1	DJMR	786	1	blank2r.bmp	866	1	jugend	866	1	!	1227	1	!	1294	0	0	0	0	0	0	0	0	0	0	0	0	0	0	0	0	0	0	0	0	0	0	0	0	0	0	0
062118	14:58:26	5.0.12.0	70	notassociated	Rpleas_acq	Same	Rpleas	Amasked	CS_A	1pleas	cond_new_pleas_456_masked_CS2	condtest_masked_4	9	33	400	0	300	300	0	0	498	50	0	1	0	0	0	1	blank2r.bmp	0	1	+	0	6	C2r.bmp	492	1	blank2r.bmp	786	1	DJMR	786	1	blank2r.bmp	866	2	auge	866	1	!	1227	1	!	-1	0	0	0	0	0	0	0	0	0	0	0	0	0	0	0	0	0	0	0	0	0	0	0	0	0	0	0
062118	14:58:26	5.0.12.0	70	notassociated	Rpleas_acq	Same	Rpleas	Amasked	CS_A	1pleas	cond_US_pleas_123_masked_CS2	condtest_masked_4	9	34	400	1	300	300	0	0	456	46	0	0	0	0	0	1	blank2r.bmp	0	1	+	0	3	B3r.bmp	492	1	blank2r.bmp	786	1	DJMR	786	1	blank2r.bmp	866	2	erfinder	866	1	!	1227	1	!	1350	0	0	0	0	0	0	0	0	0	0	0	0	0	0	0	0	0	0	0	0	0	0	0	0	0	0	0
062118	14:58:26	5.0.12.0	70	notassociated	Rpleas_acq	Same	Rpleas	Amasked	CS_A	1pleas	cond_US_pleas_123_masked_CS1	condtest_masked_4	9	35	400	0	300	300	0	0	325	46	0	0	0	0	0	1	blank2r.bmp	0	1	+	0	1	B1r.bmp	492	1	blank2r.bmp	786	1	HLST	786	1	blank2r.bmp	866	3	mama	866	1	!	-1	1	!	-1	0	0	0	0	0	0	0	0	0	0	0	0	0	0	0	0	0	0	0	0	0	0	0	0	0	0	0
062118	14:58:26	5.0.12.0	70	notassociated	Rpleas_acq	Same	Rpleas	Amasked	CS_A	1pleas	cond_new_pleas_456_masked_CS2	condtest_masked_4	9	36	400	0	300	300	0	0	495	50	0	1	0	0	0	1	blank2r.bmp	0	1	+	0	8	C4r.bmp	492	1	blank2r.bmp	786	1	DJMR	786	1	blank2r.bmp	866	1	erinnerung	866	1	!	1227	1	!	-1	0	0	0	0	0	0	0	0	0	0	0	0	0	0	0	0	0	0	0	0	0	0	0	0	0	0	0
062118	14:58:26	5.0.12.0	70	notassociated	Rpleas_acq	Same	Rpleas	Amasked	CS_A	1pleas	cond_US_pleas_123_masked_CS2	condtest_masked_4	9	37	400	1	300	300	0	0	364	50	0	1	0	0	0	1	blank2r.bmp	0	1	+	0	4	B4r.bmp	492	1	blank2r.bmp	786	1	DJMR	786	1	blank2r.bmp	866	1	jugend	866	1	!	1227	1	!	1258	0	0	0	0	0	0	0	0	0	0	0	0	0	0	0	0	0	0	0	0	0	0	0	0	0	0	0
062118	14:58:26	5.0.12.0	70	notassociated	Rpleas_acq	Same	Rpleas	Amasked	CS_A	1pleas	cond_new_unple_456_masked_CS2	condtest_masked_4	9	38	400	0	300	300	0	0	495	46	0	1	0	0	0	1	blank2r.bmp	0	1	+	0	2	B2r.bmp	492	1	blank2r.bmp	786	1	DJMR	786	1	blank2r.bmp	866	2	verirren	866	1	!	1227	1	!	-1	0	0	0	0	0	0	0	0	0	0	0	0	0	0	0	0	0	0	0	0	0	0	0	0	0	0	0
062118	14:58:26	5.0.12.0	70	notassociated	Rpleas_acq	Same	Rpleas	Amasked	CS_A	1pleas	cond_new_unple_456_masked_CS2	condtest_masked_4	9	39	400	1	300	300	0	0	428	46	0	1	0	0	0	1	blank2r.bmp	0	1	+	0	7	C3r.bmp	492	1	blank2r.bmp	786	1	DJMR	786	1	blank2r.bmp	866	1	umweg	866	1	!	1227	1	!	1322	0	0	0	0	0	0	0	0	0	0	0	0	0	0	0	0	0	0	0	0	0	0	0	0	0	0	0
062118	14:58:26	5.0.12.0	70	notassociated	Rpleas_acq	Same	Rpleas	Amasked	CS_A	1pleas	cond_new_pleas_456_masked_CS1	condtest_masked_4	9	40	400	1	300	300	0	0	388	46	0	0	0	0	0	1	blank2r.bmp	0	1	+	0	5	C1r.bmp	492	1	blank2r.bmp	786	1	HLST	786	1	blank2r.bmp	866	1	erinnerung	866	1	!	1227	1	!	1281	0	0	0	0	0	0	0	0	0	0	0	0	0	0	0	0	0	0	0	0	0	0	0	0	0	0	0
062118	14:58:26	5.0.12.0	70	notassociated	Rpleas_acq	Same	Rpleas	Amasked	CS_A	1pleas	cond_new_pleas_456_masked_CS2	condtest_masked_4	9	41	400	1	300	300	0	0	435	50	0	1	0	0	0	1	blank2r.bmp	0	1	+	0	1	B1r.bmp	492	1	blank2r.bmp	786	1	DJMR	786	1	blank2r.bmp	866	3	fair	866	1	!	1227	1	!	1329	0	0	0	0	0	0	0	0	0	0	0	0	0	0	0	0	0	0	0	0	0	0	0	0	0	0	0
062118	14:58:26	5.0.12.0	70	notassociated	Rpleas_acq	Same	Rpleas	Amasked	CS_A	1pleas	cond_US_pleas_123_masked_CS2	condtest_masked_4	9	42	400	1	300	300	0	0	379	50	0	1	0	0	0	1	blank2r.bmp	0	1	+	0	7	C3r.bmp	492	1	blank2r.bmp	786	1	DJMR	786	1	blank2r.bmp	866	3	mama	866	1	!	1227	1	!	1273	0	0	0	0	0	0	0	0	0	0	0	0	0	0	0	0	0	0	0	0	0	0	0	0	0	0	0
062118	14:58:26	5.0.12.0	70	notassociated	Rpleas_acq	Same	Rpleas	Amasked	CS_A	1pleas	cond_US_pleas_123_masked_CS1	condtest_masked_4	9	43	400	1	300	300	0	0	464	50	0	1	0	0	0	1	blank2r.bmp	0	1	+	0	2	B2r.bmp	492	1	blank2r.bmp	786	1	HLST	786	1	blank2r.bmp	866	2	erfinder	866	1	!	1227	1	!	1358	0	0	0	0	0	0	0	0	0	0	0	0	0	0	0	0	0	0	0	0	0	0	0	0	0	0	0
062118	14:58:26	5.0.12.0	70	notassociated	Rpleas_acq	Same	Rpleas	Amasked	CS_A	1pleas	cond_new_unple_456_masked_CS1	condtest_masked_4	9	44	400	0	300	300	0	0	488	46	0	1	0	0	0	1	blank2r.bmp	0	1	+	0	8	C4r.bmp	492	1	blank2r.bmp	786	1	HLST	786	1	blank2r.bmp	866	3	wurm	866	1	!	1227	1	!	-1	0	0	0	0	0	0	0	0	0	0	0	0	0	0	0	0	0	0	0	0	0	0	0	0	0	0	0
062118	14:58:26	5.0.12.0	70	notassociated	Rpleas_acq	Same	Rpleas	Amasked	CS_A	1pleas	cond_US_pleas_123_masked_CS2	condtest_masked_4	9	45	400	1	300	300	0	0	459	50	0	1	0	0	0	1	blank2r.bmp	0	1	+	0	3	B3r.bmp	492	1	blank2r.bmp	786	1	DJMR	786	1	blank2r.bmp	866	2	erfinder	866	1	!	1227	1	!	1352	0	0	0	0	0	0	0	0	0	0	0	0	0	0	0	0	0	0	0	0	0	0	0	0	0	0	0
062118	14:58:26	5.0.12.0	70	notassociated	Rpleas_acq	Same	Rpleas	Amasked	CS_A	1pleas	cond_new_pleas_456_masked_CS1	condtest_masked_4	9	46	400	1	300	300	0	0	360	50	0	1	0	0	0	1	blank2r.bmp	0	1	+	0	4	B4r.bmp	492	1	blank2r.bmp	786	1	HLST	786	1	blank2r.bmp	866	2	auge	866	1	!	1227	1	!	1254	0	0	0	0	0	0	0	0	0	0	0	0	0	0	0	0	0	0	0	0	0	0	0	0	0	0	0
062118	14:58:26	5.0.12.0	70	notassociated	Rpleas_acq	Same	Rpleas	Amasked	CS_A	1pleas	cond_US_pleas_123_masked_CS1	condtest_masked_4	9	47	400	1	300	300	0	0	346	46	0	0	0	0	0	1	blank2r.bmp	0	1	+	0	6	C2r.bmp	492	1	blank2r.bmp	786	1	HLST	786	1	blank2r.bmp	866	3	mama	866	1	!	1227	1	!	1240	0	0	0	0	0	0	0	0	0	0	0	0	0	0	0	0	0	0	0	0	0	0	0	0	0	0	0
062118	14:58:26	5.0.12.0	70	notassociated	Rpleas_acq	Same	Rpleas	Amasked	CS_A	1pleas	cond_US_pleas_123_masked_CS1	condtest_masked_4	9	48	400	0	300	300	0	0	506	50	0	1	0	0	0	1	blank2r.bmp	0	1	+	0	5	C1r.bmp	492	1	blank2r.bmp	786	1	HLST	786	1	blank2r.bmp	866	1	jugend	866	1	!	1227	1	!	-1	0	0	0	0	0	0	0	0	0	0	0	0	0	0	0	0	0	0	0	0	0	0	0	0	0	0	0
062118	14:58:26	5.0.12.0	70	notassociated	Rpleas_acq	Same	Rpleas	Amasked	CS_A	1pleas	cond_US_unple_456_masked_CS1	condtest_masked_5	10	1	400	0	300	300	0	0	478	50	0	0	0	0	0	1	blank2r.bmp	0	1	+	0	2	B2r.bmp	492	1	blank2r.bmp	786	1	HLST	786	1	blank2r.bmp	866	3	narr	866	1	!	1227	1	!	-1	0	0	0	0	0	0	0	0	0	0	0	0	0	0	0	0	0	0	0	0	0	0	0	0	0	0	0
062118	14:58:26	5.0.12.0	70	notassociated	Rpleas_acq	Same	Rpleas	Amasked	CS_A	1pleas	cond_US_pleas_456_masked_CS1	condtest_masked_5	10	2	400	1	300	300	0	0	337	50	0	1	0	0	0	1	blank2r.bmp	0	1	+	0	6	C2r.bmp	492	1	blank2r.bmp	786	1	HLST	786	1	blank2r.bmp	866	3	wein	866	1	!	1227	1	!	1231	0	0	0	0	0	0	0	0	0	0	0	0	0	0	0	0	0	0	0	0	0	0	0	0	0	0	0
062118	14:58:26	5.0.12.0	70	notassociated	Rpleas_acq	Same	Rpleas	Amasked	CS_A	1pleas	cond_US_unple_456_masked_CS2	condtest_masked_5	10	3	400	1	300	300	0	0	393	50	0	0	0	0	0	1	blank2r.bmp	0	1	+	0	7	C3r.bmp	492	1	blank2r.bmp	786	1	DJMR	786	1	blank2r.bmp	866	1	geiz	866	1	!	1227	1	!	1286	0	0	0	0	0	0	0	0	0	0	0	0	0	0	0	0	0	0	0	0	0	0	0	0	0	0	0
062118	14:58:26	5.0.12.0	70	notassociated	Rpleas_acq	Same	Rpleas	Amasked	CS_A	1pleas	cond_new_unple_123_masked_CS2	condtest_masked_5	10	4	400	0	300	300	0	0	467	50	0	0	0	0	0	1	blank2r.bmp	0	1	+	0	1	B1r.bmp	492	1	blank2r.bmp	786	1	DJMR	786	1	blank2r.bmp	866	3	weigern	866	1	!	1227	1	!	-1	0	0	0	0	0	0	0	0	0	0	0	0	0	0	0	0	0	0	0	0	0	0	0	0	0	0	0
062118	14:58:26	5.0.12.0	70	notassociated	Rpleas_acq	Same	Rpleas	Amasked	CS_A	1pleas	cond_new_unple_123_masked_CS1	condtest_masked_5	10	5	400	1	300	300	0	0	411	46	0	1	0	0	0	1	blank2r.bmp	0	1	+	0	4	B4r.bmp	492	1	blank2r.bmp	786	1	HLST	786	1	blank2r.bmp	866	2	wunde	866	1	!	1227	1	!	1305	0	0	0	0	0	0	0	0	0	0	0	0	0	0	0	0	0	0	0	0	0	0	0	0	0	0	0
062118	14:58:26	5.0.12.0	70	notassociated	Rpleas_acq	Same	Rpleas	Amasked	CS_A	1pleas	cond_new_unple_123_masked_CS2	condtest_masked_5	10	6	400	0	300	300	0	0	600	46	0	1	0	0	0	1	blank2r.bmp	0	1	+	0	8	C4r.bmp	492	1	blank2r.bmp	786	1	DJMR	786	1	blank2r.bmp	866	1	mager	866	1	!	1227	1	!	-1	0	0	0	0	0	0	0	0	0	0	0	0	0	0	0	0	0	0	0	0	0	0	0	0	0	0	0
062118	14:58:26	5.0.12.0	70	notassociated	Rpleas_acq	Same	Rpleas	Amasked	CS_A	1pleas	cond_US_unple_456_masked_CS1	condtest_masked_5	10	7	400	0	300	300	0	0	512	50	0	0	0	0	0	1	blank2r.bmp	0	1	+	0	3	B3r.bmp	492	1	blank2r.bmp	786	1	HLST	786	1	blank2r.bmp	866	2	armee	866	1	!	1227	1	!	-1	0	0	0	0	0	0	0	0	0	0	0	0	0	0	0	0	0	0	0	0	0	0	0	0	0	0	0
062118	14:58:26	5.0.12.0	70	notassociated	Rpleas_acq	Same	Rpleas	Amasked	CS_A	1pleas	cond_new_pleas_123_masked_CS2	condtest_masked_5	10	8	400	1	300	300	0	0	387	46	0	0	0	0	0	1	blank2r.bmp	0	1	+	0	5	C1r.bmp	492	1	blank2r.bmp	786	1	DJMR	786	1	blank2r.bmp	866	1	geige	866	1	!	1227	1	!	1281	0	0	0	0	0	0	0	0	0	0	0	0	0	0	0	0	0	0	0	0	0	0	0	0	0	0	0
062118	14:58:26	5.0.12.0	70	notassociated	Rpleas_acq	Same	Rpleas	Amasked	CS_A	1pleas	cond_new_pleas_123_masked_CS1	condtest_masked_5	10	9	400	1	300	300	0	0	427	46	0	0	0	0	0	1	blank2r.bmp	0	1	+	0	8	C4r.bmp	492	1	blank2r.bmp	786	1	HLST	786	1	blank2r.bmp	866	2	energie	866	1	!	1227	1	!	1320	0	0	0	0	0	0	0	0	0	0	0	0	0	0	0	0	0	0	0	0	0	0	0	0	0	0	0
062118	14:58:26	5.0.12.0	70	notassociated	Rpleas_acq	Same	Rpleas	Amasked	CS_A	1pleas	cond_new_unple_123_masked_CS1	condtest_masked_5	10	10	400	1	300	300	0	0	339	50	0	0	0	0	0	1	blank2r.bmp	0	1	+	0	3	B3r.bmp	492	1	blank2r.bmp	786	1	HLST	786	1	blank2r.bmp	866	1	mager	866	1	!	1227	1	!	1232	0	0	0	0	0	0	0	0	0	0	0	0	0	0	0	0	0	0	0	0	0	0	0	0	0	0	0
