date	time	build	subject	expressions.associated	expressions.LRpleas_acq	expressions.SameOppo	expressions.condition_Lpleas	expressions.ABmasked	expressions.conditionCS_A	expressions.condition_1pleas	trialcode	blockcode	blocknum	trialnum	windowcenter	inwindow	pretrialpause	posttrialpause	trialduration	trialtimeout	latency	response	expressions.correctedscore	correct	values.vis_performance	values.vis_rating_sum	values.vis_rating_mean	stimulusnumber1	stimulusitem1	stimulusonset1	stimulusnumber2	stimulusitem2	stimulusonset2	stimulusnumber3	stimulusitem3	stimulusonset3	stimulusnumber4	stimulusitem4	stimulusonset4	stimulusnumber5	stimulusitem5	stimulusonset5	stimulusnumber6	stimulusitem6	stimulusonset6	stimulusnumber7	stimulusitem7	stimulusonset7	stimulusnumber8	stimulusitem8	stimulusonset8	stimulusnumber9	stimulusitem9	stimulusonset9	stimulusnumber10	stimulusitem10	stimulusonset10	stimulusnumber11	stimulusitem11	stimulusonset11	stimulusnumber12	stimulusitem12	stimulusonset12	stimulusnumber13	stimulusitem13	stimulusonset13	stimulusnumber14	stimulusitem14	stimulusonset14	stimulusnumber15	stimulusitem15	stimulusonset15	stimulusnumber16	stimulusitem16	stimulusonset16	stimulusnumber17	stimulusitem17	stimulusonset17	stimulusnumber18	stimulusitem18	stimulusonset18
062018	17:04:48	5.0.12.0	56	associated	Rpleas_acq	Oppo	Rpleas	Bmasked	CS_B	2pleas	acq_pleas_masked	acq1_masked	1	1	0	0	300	300	0	0	1334	50	0	1	0	0	0	1	blank2r.bmp	0	1	+	0	7	C3r.bmp	492	1	blank2r.bmp	786	1	GFVZ	786	1	blank2r.bmp	866	5	bett	866	0	0	0	0	0	0	0	0	0	0	0	0	0	0	0	0	0	0	0	0	0	0	0	0	0	0	0	0	0	0	0	0	0
062018	17:04:48	5.0.12.0	56	associated	Rpleas_acq	Oppo	Rpleas	Bmasked	CS_B	2pleas	acq_pleas_masked	acq1_masked	1	2	0	0	300	300	0	0	688	50	0	1	0	0	0	1	blank2r.bmp	0	1	+	0	3	B3r.bmp	492	1	blank2r.bmp	786	1	GFVZ	786	1	blank2r.bmp	866	4	sonne	866	0	0	0	0	0	0	0	0	0	0	0	0	0	0	0	0	0	0	0	0	0	0	0	0	0	0	0	0	0	0	0	0	0
062018	17:04:48	5.0.12.0	56	associated	Rpleas_acq	Oppo	Rpleas	Bmasked	CS_B	2pleas	acq_pleas_masked	acq1_masked	1	3	0	0	300	300	0	0	727	50	0	1	0	0	0	1	blank2r.bmp	0	1	+	0	6	C2r.bmp	492	1	blank2r.bmp	786	1	GFVZ	786	1	blank2r.bmp	866	6	knospe	866	0	0	0	0	0	0	0	0	0	0	0	0	0	0	0	0	0	0	0	0	0	0	0	0	0	0	0	0	0	0	0	0	0
062018	17:04:48	5.0.12.0	56	associated	Rpleas_acq	Oppo	Rpleas	Bmasked	CS_B	2pleas	acq_pleas_masked	acq1_masked	1	4	0	0	300	300	0	0	535	50	0	1	0	0	0	1	blank2r.bmp	0	1	+	0	2	B2r.bmp	492	1	blank2r.bmp	786	1	GFVZ	786	1	blank2r.bmp	866	1	lippe	866	0	0	0	0	0	0	0	0	0	0	0	0	0	0	0	0	0	0	0	0	0	0	0	0	0	0	0	0	0	0	0	0	0
062018	17:04:48	5.0.12.0	56	associated	Rpleas_acq	Oppo	Rpleas	Bmasked	CS_B	2pleas	acq_unple_masked	acq1_masked	1	5	0	0	300	300	0	0	593	46	0	1	0	0	0	1	blank2r.bmp	0	1	+	0	5	C1r.bmp	492	1	blank2r.bmp	786	1	BXCP	786	1	blank2r.bmp	866	4	leiche	866	0	0	0	0	0	0	0	0	0	0	0	0	0	0	0	0	0	0	0	0	0	0	0	0	0	0	0	0	0	0	0	0	0
062018	17:04:48	5.0.12.0	56	associated	Rpleas_acq	Oppo	Rpleas	Bmasked	CS_B	2pleas	acq_unple_masked	acq1_masked	1	6	0	0	300	300	0	0	502	46	0	1	0	0	0	1	blank2r.bmp	0	1	+	0	1	B1r.bmp	492	1	blank2r.bmp	786	1	BXCP	786	1	blank2r.bmp	866	1	pest	866	0	0	0	0	0	0	0	0	0	0	0	0	0	0	0	0	0	0	0	0	0	0	0	0	0	0	0	0	0	0	0	0	0
062018	17:04:48	5.0.12.0	56	associated	Rpleas_acq	Oppo	Rpleas	Bmasked	CS_B	2pleas	acq_unple_masked	acq1_masked	1	7	0	0	300	300	0	0	472	46	0	1	0	0	0	1	blank2r.bmp	0	1	+	0	4	B4r.bmp	492	1	blank2r.bmp	786	1	BXCP	786	1	blank2r.bmp	866	5	pleite	866	0	0	0	0	0	0	0	0	0	0	0	0	0	0	0	0	0	0	0	0	0	0	0	0	0	0	0	0	0	0	0	0	0
062018	17:04:48	5.0.12.0	56	associated	Rpleas_acq	Oppo	Rpleas	Bmasked	CS_B	2pleas	acq_unple_masked	acq1_masked	1	8	0	0	300	300	0	0	564	46	0	1	0	0	0	1	blank2r.bmp	0	1	+	0	8	C4r.bmp	492	1	blank2r.bmp	786	1	BXCP	786	1	blank2r.bmp	866	2	übel	866	0	0	0	0	0	0	0	0	0	0	0	0	0	0	0	0	0	0	0	0	0	0	0	0	0	0	0	0	0	0	0	0	0
062018	17:04:48	5.0.12.0	56	associated	Rpleas_acq	Oppo	Rpleas	Bmasked	CS_B	2pleas	acq_unple_masked	acq1_masked	1	9	0	0	300	300	0	0	528	46	0	1	0	0	0	1	blank2r.bmp	0	1	+	0	2	B2r.bmp	492	1	blank2r.bmp	786	1	BXCP	786	1	blank2r.bmp	866	6	toxisch	866	0	0	0	0	0	0	0	0	0	0	0	0	0	0	0	0	0	0	0	0	0	0	0	0	0	0	0	0	0	0	0	0	0
062018	17:04:48	5.0.12.0	56	associated	Rpleas_acq	Oppo	Rpleas	Bmasked	CS_B	2pleas	acq_unple_masked	acq1_masked	1	10	0	0	300	300	0	0	506	46	0	1	0	0	0	1	blank2r.bmp	0	1	+	0	7	C3r.bmp	492	1	blank2r.bmp	786	1	BXCP	786	1	blank2r.bmp	866	3	pistole	866	0	0	0	0	0	0	0	0	0	0	0	0	0	0	0	0	0	0	0	0	0	0	0	0	0	0	0	0	0	0	0	0	0
062018	17:04:48	5.0.12.0	56	associated	Rpleas_acq	Oppo	Rpleas	Bmasked	CS_B	2pleas	acq_pleas_masked	acq1_masked	1	11	0	0	300	300	0	0	542	50	0	1	0	0	0	1	blank2r.bmp	0	1	+	0	3	B3r.bmp	492	1	blank2r.bmp	786	1	GFVZ	786	1	blank2r.bmp	866	2	liebe	866	0	0	0	0	0	0	0	0	0	0	0	0	0	0	0	0	0	0	0	0	0	0	0	0	0	0	0	0	0	0	0	0	0
062018	17:04:48	5.0.12.0	56	associated	Rpleas_acq	Oppo	Rpleas	Bmasked	CS_B	2pleas	acq_pleas_masked	acq1_masked	1	12	0	0	300	300	0	0	520	50	0	1	0	0	0	1	blank2r.bmp	0	1	+	0	1	B1r.bmp	492	1	blank2r.bmp	786	1	GFVZ	786	1	blank2r.bmp	866	3	leben	866	0	0	0	0	0	0	0	0	0	0	0	0	0	0	0	0	0	0	0	0	0	0	0	0	0	0	0	0	0	0	0	0	0
062018	17:04:48	5.0.12.0	56	associated	Rpleas_acq	Oppo	Rpleas	Bmasked	CS_B	2pleas	acq_pleas_masked	acq1_masked	1	13	0	0	300	300	0	0	413	50	0	1	0	0	0	1	blank2r.bmp	0	1	+	0	5	C1r.bmp	492	1	blank2r.bmp	786	1	GFVZ	786	1	blank2r.bmp	866	3	leben	866	0	0	0	0	0	0	0	0	0	0	0	0	0	0	0	0	0	0	0	0	0	0	0	0	0	0	0	0	0	0	0	0	0
062018	17:04:48	5.0.12.0	56	associated	Rpleas_acq	Oppo	Rpleas	Bmasked	CS_B	2pleas	acq_pleas_masked	acq1_masked	1	14	0	0	300	300	0	0	443	50	0	1	0	0	0	1	blank2r.bmp	0	1	+	0	4	B4r.bmp	492	1	blank2r.bmp	786	1	GFVZ	786	1	blank2r.bmp	866	6	knospe	866	0	0	0	0	0	0	0	0	0	0	0	0	0	0	0	0	0	0	0	0	0	0	0	0	0	0	0	0	0	0	0	0	0
062018	17:04:48	5.0.12.0	56	associated	Rpleas_acq	Oppo	Rpleas	Bmasked	CS_B	2pleas	acq_unple_masked	acq1_masked	1	15	0	0	300	300	0	0	530	46	0	1	0	0	0	1	blank2r.bmp	0	1	+	0	8	C4r.bmp	492	1	blank2r.bmp	786	1	BXCP	786	1	blank2r.bmp	866	2	übel	866	0	0	0	0	0	0	0	0	0	0	0	0	0	0	0	0	0	0	0	0	0	0	0	0	0	0	0	0	0	0	0	0	0
062018	17:04:48	5.0.12.0	56	associated	Rpleas_acq	Oppo	Rpleas	Bmasked	CS_B	2pleas	acq_unple_masked	acq1_masked	1	16	0	0	300	300	0	0	441	46	0	1	0	0	0	1	blank2r.bmp	0	1	+	0	6	C2r.bmp	492	1	blank2r.bmp	786	1	BXCP	786	1	blank2r.bmp	866	4	leiche	866	0	0	0	0	0	0	0	0	0	0	0	0	0	0	0	0	0	0	0	0	0	0	0	0	0	0	0	0	0	0	0	0	0
062018	17:04:48	5.0.12.0	56	associated	Rpleas_acq	Oppo	Rpleas	Bmasked	CS_B	2pleas	acq_pleas_masked	acq1_masked	1	17	0	0	300	300	0	0	512	50	0	1	0	0	0	1	blank2r.bmp	0	1	+	0	8	C4r.bmp	492	1	blank2r.bmp	786	1	GFVZ	786	1	blank2r.bmp	866	1	lippe	866	0	0	0	0	0	0	0	0	0	0	0	0	0	0	0	0	0	0	0	0	0	0	0	0	0	0	0	0	0	0	0	0	0
062018	17:04:48	5.0.12.0	56	associated	Rpleas_acq	Oppo	Rpleas	Bmasked	CS_B	2pleas	acq_unple_masked	acq1_masked	1	18	0	0	300	300	0	0	484	46	0	1	0	0	0	1	blank2r.bmp	0	1	+	0	4	B4r.bmp	492	1	blank2r.bmp	786	1	BXCP	786	1	blank2r.bmp	866	6	toxisch	866	0	0	0	0	0	0	0	0	0	0	0	0	0	0	0	0	0	0	0	0	0	0	0	0	0	0	0	0	0	0	0	0	0
062018	17:04:48	5.0.12.0	56	associated	Rpleas_acq	Oppo	Rpleas	Bmasked	CS_B	2pleas	acq_pleas_masked	acq1_masked	1	19	0	0	300	300	0	0	435	50	0	1	0	0	0	1	blank2r.bmp	0	1	+	0	7	C3r.bmp	492	1	blank2r.bmp	786	1	GFVZ	786	1	blank2r.bmp	866	5	bett	866	0	0	0	0	0	0	0	0	0	0	0	0	0	0	0	0	0	0	0	0	0	0	0	0	0	0	0	0	0	0	0	0	0
062018	17:04:48	5.0.12.0	56	associated	Rpleas_acq	Oppo	Rpleas	Bmasked	CS_B	2pleas	acq_unple_masked	acq1_masked	1	20	0	0	300	300	0	0	471	50	0	0	0	0	0	1	blank2r.bmp	0	1	+	0	1	B1r.bmp	492	1	blank2r.bmp	786	1	BXCP	786	1	blank2r.bmp	866	3	pistole	866	1	FEHLER	1365	0	0	0	0	0	0	0	0	0	0	0	0	0	0	0	0	0	0	0	0	0	0	0	0	0	0	0	0	0	0
062018	17:04:48	5.0.12.0	56	associated	Rpleas_acq	Oppo	Rpleas	Bmasked	CS_B	2pleas	acq_pleas_masked	acq1_masked	1	21	0	0	300	300	0	0	451	50	0	1	0	0	0	1	blank2r.bmp	0	1	+	0	3	B3r.bmp	492	1	blank2r.bmp	786	1	GFVZ	786	1	blank2r.bmp	866	4	sonne	866	0	0	0	0	0	0	0	0	0	0	0	0	0	0	0	0	0	0	0	0	0	0	0	0	0	0	0	0	0	0	0	0	0
062018	17:04:48	5.0.12.0	56	associated	Rpleas_acq	Oppo	Rpleas	Bmasked	CS_B	2pleas	acq_pleas_masked	acq1_masked	1	22	0	0	300	300	0	0	378	50	0	1	0	0	0	1	blank2r.bmp	0	1	+	0	2	B2r.bmp	492	1	blank2r.bmp	786	1	GFVZ	786	1	blank2r.bmp	866	2	liebe	866	0	0	0	0	0	0	0	0	0	0	0	0	0	0	0	0	0	0	0	0	0	0	0	0	0	0	0	0	0	0	0	0	0
062018	17:04:48	5.0.12.0	56	associated	Rpleas_acq	Oppo	Rpleas	Bmasked	CS_B	2pleas	acq_unple_masked	acq1_masked	1	23	0	0	300	300	0	0	403	50	0	0	0	0	0	1	blank2r.bmp	0	1	+	0	6	C2r.bmp	492	1	blank2r.bmp	786	1	BXCP	786	1	blank2r.bmp	866	1	pest	866	1	FEHLER	1297	0	0	0	0	0	0	0	0	0	0	0	0	0	0	0	0	0	0	0	0	0	0	0	0	0	0	0	0	0	0
062018	17:04:48	5.0.12.0	56	associated	Rpleas_acq	Oppo	Rpleas	Bmasked	CS_B	2pleas	acq_unple_masked	acq1_masked	1	24	0	0	300	300	0	0	482	46	0	1	0	0	0	1	blank2r.bmp	0	1	+	0	5	C1r.bmp	492	1	blank2r.bmp	786	1	BXCP	786	1	blank2r.bmp	866	5	pleite	866	0	0	0	0	0	0	0	0	0	0	0	0	0	0	0	0	0	0	0	0	0	0	0	0	0	0	0	0	0	0	0	0	0
062018	17:04:48	5.0.12.0	56	associated	Rpleas_acq	Oppo	Rpleas	Bmasked	CS_B	2pleas	acq_unple_masked	acq2_masked	2	1	480	0	300	300	0	0	3251	46	0	1	0	0	0	1	blank2r.bmp	0	1	+	0	5	C1r.bmp	492	1	blank2r.bmp	786	1	BXCP	786	1	blank2r.bmp	866	3	pistole	866	1	!	1307	1	!	-1	0	0	0	0	0	0	0	0	0	0	0	0	0	0	0	0	0	0	0	0	0	0	0	0	0	0	0
062018	17:04:48	5.0.12.0	56	associated	Rpleas_acq	Oppo	Rpleas	Bmasked	CS_B	2pleas	acq_pleas_masked	acq2_masked	2	2	480	0	300	300	0	0	645	50	0	1	0	0	0	1	blank2r.bmp	0	1	+	0	1	B1r.bmp	492	1	blank2r.bmp	786	1	GFVZ	786	1	blank2r.bmp	866	3	leben	866	1	!	1307	1	!	-1	0	0	0	0	0	0	0	0	0	0	0	0	0	0	0	0	0	0	0	0	0	0	0	0	0	0	0
062018	17:04:48	5.0.12.0	56	associated	Rpleas_acq	Oppo	Rpleas	Bmasked	CS_B	2pleas	acq_pleas_masked	acq2_masked	2	3	480	0	300	300	0	0	592	50	0	1	0	0	0	1	blank2r.bmp	0	1	+	0	3	B3r.bmp	492	1	blank2r.bmp	786	1	GFVZ	786	1	blank2r.bmp	866	4	sonne	866	1	!	1307	1	!	-1	0	0	0	0	0	0	0	0	0	0	0	0	0	0	0	0	0	0	0	0	0	0	0	0	0	0	0
062018	17:04:48	5.0.12.0	56	associated	Rpleas_acq	Oppo	Rpleas	Bmasked	CS_B	2pleas	acq_unple_masked	acq2_masked	2	4	480	1	300	300	0	0	433	46	0	1	0	0	0	1	blank2r.bmp	0	1	+	0	8	C4r.bmp	492	1	blank2r.bmp	786	1	BXCP	786	1	blank2r.bmp	866	4	leiche	866	1	!	1307	1	!	1326	0	0	0	0	0	0	0	0	0	0	0	0	0	0	0	0	0	0	0	0	0	0	0	0	0	0	0
062018	17:04:48	5.0.12.0	56	associated	Rpleas_acq	Oppo	Rpleas	Bmasked	CS_B	2pleas	acq_unple_masked	acq2_masked	2	5	480	0	300	300	0	0	403	46	0	1	0	0	0	1	blank2r.bmp	0	1	+	0	7	C3r.bmp	492	1	blank2r.bmp	786	1	BXCP	786	1	blank2r.bmp	866	1	pest	866	1	!	-1	1	!	-1	0	0	0	0	0	0	0	0	0	0	0	0	0	0	0	0	0	0	0	0	0	0	0	0	0	0	0
062018	17:04:48	5.0.12.0	56	associated	Rpleas_acq	Oppo	Rpleas	Bmasked	CS_B	2pleas	acq_unple_masked	acq2_masked	2	6	480	0	300	300	0	0	686	46	0	1	0	0	0	1	blank2r.bmp	0	1	+	0	4	B4r.bmp	492	1	blank2r.bmp	786	1	BXCP	786	1	blank2r.bmp	866	5	pleite	866	1	!	1307	1	!	-1	0	0	0	0	0	0	0	0	0	0	0	0	0	0	0	0	0	0	0	0	0	0	0	0	0	0	0
062018	17:04:48	5.0.12.0	56	associated	Rpleas_acq	Oppo	Rpleas	Bmasked	CS_B	2pleas	acq_pleas_masked	acq2_masked	2	7	480	1	300	300	0	0	417	50	0	1	0	0	0	1	blank2r.bmp	0	1	+	0	6	C2r.bmp	492	1	blank2r.bmp	786	1	GFVZ	786	1	blank2r.bmp	866	2	liebe	866	1	!	1307	1	!	1311	0	0	0	0	0	0	0	0	0	0	0	0	0	0	0	0	0	0	0	0	0	0	0	0	0	0	0
062018	17:04:48	5.0.12.0	56	associated	Rpleas_acq	Oppo	Rpleas	Bmasked	CS_B	2pleas	acq_pleas_masked	acq2_masked	2	8	480	1	300	300	0	0	545	50	0	1	0	0	0	1	blank2r.bmp	0	1	+	0	2	B2r.bmp	492	1	blank2r.bmp	786	1	GFVZ	786	1	blank2r.bmp	866	6	knospe	866	1	!	1307	1	!	1439	0	0	0	0	0	0	0	0	0	0	0	0	0	0	0	0	0	0	0	0	0	0	0	0	0	0	0
062018	17:04:48	5.0.12.0	56	associated	Rpleas_acq	Oppo	Rpleas	Bmasked	CS_B	2pleas	acq_pleas_masked	acq2_masked	2	9	480	1	300	300	0	0	486	46	0	0	0	0	0	1	blank2r.bmp	0	1	+	0	1	B1r.bmp	492	1	blank2r.bmp	786	1	GFVZ	786	1	blank2r.bmp	866	5	bett	866	1	FEHLER	1674	1	!	1307	1	!	1380	0	0	0	0	0	0	0	0	0	0	0	0	0	0	0	0	0	0	0	0	0	0	0	0
062018	17:04:48	5.0.12.0	56	associated	Rpleas_acq	Oppo	Rpleas	Bmasked	CS_B	2pleas	acq_unple_masked	acq2_masked	2	10	480	1	300	300	0	0	529	46	0	1	0	0	0	1	blank2r.bmp	0	1	+	0	8	C4r.bmp	492	1	blank2r.bmp	786	1	BXCP	786	1	blank2r.bmp	866	6	toxisch	866	1	!	1307	1	!	1423	0	0	0	0	0	0	0	0	0	0	0	0	0	0	0	0	0	0	0	0	0	0	0	0	0	0	0
062018	17:04:48	5.0.12.0	56	associated	Rpleas_acq	Oppo	Rpleas	Bmasked	CS_B	2pleas	acq_unple_masked	acq2_masked	2	11	480	0	300	300	0	0	358	50	0	0	0	0	0	1	blank2r.bmp	0	1	+	0	7	C3r.bmp	492	1	blank2r.bmp	786	1	BXCP	786	1	blank2r.bmp	866	2	übel	866	1	FEHLER	1546	1	!	-1	1	!	-1	0	0	0	0	0	0	0	0	0	0	0	0	0	0	0	0	0	0	0	0	0	0	0	0
062018	17:04:48	5.0.12.0	56	associated	Rpleas_acq	Oppo	Rpleas	Bmasked	CS_B	2pleas	acq_pleas_masked	acq2_masked	2	12	480	1	300	300	0	0	489	50	0	1	0	0	0	1	blank2r.bmp	0	1	+	0	4	B4r.bmp	492	1	blank2r.bmp	786	1	GFVZ	786	1	blank2r.bmp	866	1	lippe	866	1	!	1307	1	!	1382	0	0	0	0	0	0	0	0	0	0	0	0	0	0	0	0	0	0	0	0	0	0	0	0	0	0	0
062018	17:04:48	5.0.12.0	56	associated	Rpleas_acq	Oppo	Rpleas	Bmasked	CS_B	2pleas	acq_pleas_masked	acq2_masked	2	13	480	1	300	300	0	0	454	50	0	1	0	0	0	1	blank2r.bmp	0	1	+	0	3	B3r.bmp	492	1	blank2r.bmp	786	1	GFVZ	786	1	blank2r.bmp	866	5	bett	866	1	!	1307	1	!	1348	0	0	0	0	0	0	0	0	0	0	0	0	0	0	0	0	0	0	0	0	0	0	0	0	0	0	0
062018	17:04:48	5.0.12.0	56	associated	Rpleas_acq	Oppo	Rpleas	Bmasked	CS_B	2pleas	acq_pleas_masked	acq2_masked	2	14	480	1	300	300	0	0	427	50	0	1	0	0	0	1	blank2r.bmp	0	1	+	0	5	C1r.bmp	492	1	blank2r.bmp	786	1	GFVZ	786	1	blank2r.bmp	866	1	lippe	866	1	!	1307	1	!	1321	0	0	0	0	0	0	0	0	0	0	0	0	0	0	0	0	0	0	0	0	0	0	0	0	0	0	0
062018	17:04:48	5.0.12.0	56	associated	Rpleas_acq	Oppo	Rpleas	Bmasked	CS_B	2pleas	acq_unple_masked	acq2_masked	2	15	480	0	300	300	0	0	555	46	0	1	0	0	0	1	blank2r.bmp	0	1	+	0	6	C2r.bmp	492	1	blank2r.bmp	786	1	BXCP	786	1	blank2r.bmp	866	4	leiche	866	1	!	1307	1	!	-1	0	0	0	0	0	0	0	0	0	0	0	0	0	0	0	0	0	0	0	0	0	0	0	0	0	0	0
062018	17:04:48	5.0.12.0	56	associated	Rpleas_acq	Oppo	Rpleas	Bmasked	CS_B	2pleas	acq_unple_masked	acq2_masked	2	16	480	1	300	300	0	0	483	46	0	1	0	0	0	1	blank2r.bmp	0	1	+	0	2	B2r.bmp	492	1	blank2r.bmp	786	1	BXCP	786	1	blank2r.bmp	866	3	pistole	866	1	!	1307	1	!	1377	0	0	0	0	0	0	0	0	0	0	0	0	0	0	0	0	0	0	0	0	0	0	0	0	0	0	0
062018	17:04:48	5.0.12.0	56	associated	Rpleas_acq	Oppo	Rpleas	Bmasked	CS_B	2pleas	acq_unple_masked	acq2_masked	2	17	480	1	300	300	0	0	462	50	0	0	0	0	0	1	blank2r.bmp	0	1	+	0	6	C2r.bmp	492	1	blank2r.bmp	786	1	BXCP	786	1	blank2r.bmp	866	2	übel	866	1	FEHLER	1649	1	!	1307	1	!	1356	0	0	0	0	0	0	0	0	0	0	0	0	0	0	0	0	0	0	0	0	0	0	0	0
062018	17:04:48	5.0.12.0	56	associated	Rpleas_acq	Oppo	Rpleas	Bmasked	CS_B	2pleas	acq_unple_masked	acq2_masked	2	18	480	1	300	300	0	0	470	46	0	1	0	0	0	1	blank2r.bmp	0	1	+	0	4	B4r.bmp	492	1	blank2r.bmp	786	1	BXCP	786	1	blank2r.bmp	866	5	pleite	866	1	!	1307	1	!	1363	0	0	0	0	0	0	0	0	0	0	0	0	0	0	0	0	0	0	0	0	0	0	0	0	0	0	0
062018	17:04:48	5.0.12.0	56	associated	Rpleas_acq	Oppo	Rpleas	Bmasked	CS_B	2pleas	acq_pleas_masked	acq2_masked	2	19	480	1	300	300	0	0	510	50	0	1	0	0	0	1	blank2r.bmp	0	1	+	0	7	C3r.bmp	492	1	blank2r.bmp	786	1	GFVZ	786	1	blank2r.bmp	866	3	leben	866	1	!	1307	1	!	1404	0	0	0	0	0	0	0	0	0	0	0	0	0	0	0	0	0	0	0	0	0	0	0	0	0	0	0
062018	17:04:48	5.0.12.0	56	associated	Rpleas_acq	Oppo	Rpleas	Bmasked	CS_B	2pleas	acq_unple_masked	acq2_masked	2	20	480	1	300	300	0	0	494	46	0	1	0	0	0	1	blank2r.bmp	0	1	+	0	5	C1r.bmp	492	1	blank2r.bmp	786	1	BXCP	786	1	blank2r.bmp	866	1	pest	866	1	!	1307	1	!	1388	0	0	0	0	0	0	0	0	0	0	0	0	0	0	0	0	0	0	0	0	0	0	0	0	0	0	0
062018	17:04:48	5.0.12.0	56	associated	Rpleas_acq	Oppo	Rpleas	Bmasked	CS_B	2pleas	acq_pleas_masked	acq2_masked	2	21	480	1	300	300	0	0	457	50	0	1	0	0	0	1	blank2r.bmp	0	1	+	0	8	C4r.bmp	492	1	blank2r.bmp	786	1	GFVZ	786	1	blank2r.bmp	866	4	sonne	866	1	!	1307	1	!	1350	0	0	0	0	0	0	0	0	0	0	0	0	0	0	0	0	0	0	0	0	0	0	0	0	0	0	0
062018	17:04:48	5.0.12.0	56	associated	Rpleas_acq	Oppo	Rpleas	Bmasked	CS_B	2pleas	acq_unple_masked	acq2_masked	2	22	480	1	300	300	0	0	414	46	0	1	0	0	0	1	blank2r.bmp	0	1	+	0	1	B1r.bmp	492	1	blank2r.bmp	786	1	BXCP	786	1	blank2r.bmp	866	6	toxisch	866	1	!	1307	1	!	1308	0	0	0	0	0	0	0	0	0	0	0	0	0	0	0	0	0	0	0	0	0	0	0	0	0	0	0
062018	17:04:48	5.0.12.0	56	associated	Rpleas_acq	Oppo	Rpleas	Bmasked	CS_B	2pleas	acq_pleas_masked	acq2_masked	2	23	480	1	300	300	0	0	504	50	0	1	0	0	0	1	blank2r.bmp	0	1	+	0	2	B2r.bmp	492	1	blank2r.bmp	786	1	GFVZ	786	1	blank2r.bmp	866	6	knospe	866	1	!	1307	1	!	1398	0	0	0	0	0	0	0	0	0	0	0	0	0	0	0	0	0	0	0	0	0	0	0	0	0	0	0
062018	17:04:48	5.0.12.0	56	associated	Rpleas_acq	Oppo	Rpleas	Bmasked	CS_B	2pleas	acq_pleas_masked	acq2_masked	2	24	480	1	300	300	0	0	424	50	0	1	0	0	0	1	blank2r.bmp	0	1	+	0	3	B3r.bmp	492	1	blank2r.bmp	786	1	GFVZ	786	1	blank2r.bmp	866	2	liebe	866	1	!	1307	1	!	1318	0	0	0	0	0	0	0	0	0	0	0	0	0	0	0	0	0	0	0	0	0	0	0	0	0	0	0
062018	17:04:48	5.0.12.0	56	associated	Rpleas_acq	Oppo	Rpleas	Bmasked	CS_B	2pleas	acq_unple_masked	acq3_masked	3	1	453	1	300	300	0	0	498	46	0	1	0	0	0	1	blank2r.bmp	0	1	+	0	8	C4r.bmp	492	1	blank2r.bmp	786	1	BXCP	786	1	blank2r.bmp	866	4	leiche	866	1	!	1280	1	!	1391	0	0	0	0	0	0	0	0	0	0	0	0	0	0	0	0	0	0	0	0	0	0	0	0	0	0	0
062018	17:04:48	5.0.12.0	56	associated	Rpleas_acq	Oppo	Rpleas	Bmasked	CS_B	2pleas	acq_unple_masked	acq3_masked	3	2	453	1	300	300	0	0	415	46	0	1	0	0	0	1	blank2r.bmp	0	1	+	0	3	B3r.bmp	492	1	blank2r.bmp	786	1	BXCP	786	1	blank2r.bmp	866	6	toxisch	866	1	!	1280	1	!	1309	0	0	0	0	0	0	0	0	0	0	0	0	0	0	0	0	0	0	0	0	0	0	0	0	0	0	0
062018	17:04:48	5.0.12.0	56	associated	Rpleas_acq	Oppo	Rpleas	Bmasked	CS_B	2pleas	acq_pleas_masked	acq3_masked	3	3	453	1	300	300	0	0	457	50	0	1	0	0	0	1	blank2r.bmp	0	1	+	0	5	C1r.bmp	492	1	blank2r.bmp	786	1	GFVZ	786	1	blank2r.bmp	866	1	lippe	866	1	!	1280	1	!	1351	0	0	0	0	0	0	0	0	0	0	0	0	0	0	0	0	0	0	0	0	0	0	0	0	0	0	0
062018	17:04:48	5.0.12.0	56	associated	Rpleas_acq	Oppo	Rpleas	Bmasked	CS_B	2pleas	acq_pleas_masked	acq3_masked	3	4	453	1	300	300	0	0	431	46	0	0	0	0	0	1	blank2r.bmp	0	1	+	0	1	B1r.bmp	492	1	blank2r.bmp	786	1	GFVZ	786	1	blank2r.bmp	866	6	knospe	866	1	FEHLER	1618	1	!	1280	1	!	1324	0	0	0	0	0	0	0	0	0	0	0	0	0	0	0	0	0	0	0	0	0	0	0	0
062018	17:04:48	5.0.12.0	56	associated	Rpleas_acq	Oppo	Rpleas	Bmasked	CS_B	2pleas	acq_unple_masked	acq3_masked	3	5	453	1	300	300	0	0	462	50	0	0	0	0	0	1	blank2r.bmp	0	1	+	0	4	B4r.bmp	492	1	blank2r.bmp	786	1	BXCP	786	1	blank2r.bmp	866	5	pleite	866	1	FEHLER	1650	1	!	1280	1	!	1356	0	0	0	0	0	0	0	0	0	0	0	0	0	0	0	0	0	0	0	0	0	0	0	0
062018	17:04:48	5.0.12.0	56	associated	Rpleas_acq	Oppo	Rpleas	Bmasked	CS_B	2pleas	acq_unple_masked	acq3_masked	3	6	453	1	300	300	0	0	388	46	0	1	0	0	0	1	blank2r.bmp	0	1	+	0	2	B2r.bmp	492	1	blank2r.bmp	786	1	BXCP	786	1	blank2r.bmp	866	1	pest	866	1	!	1280	1	!	1281	0	0	0	0	0	0	0	0	0	0	0	0	0	0	0	0	0	0	0	0	0	0	0	0	0	0	0
062018	17:04:48	5.0.12.0	56	associated	Rpleas_acq	Oppo	Rpleas	Bmasked	CS_B	2pleas	acq_unple_masked	acq3_masked	3	7	453	1	300	300	0	0	425	46	0	1	0	0	0	1	blank2r.bmp	0	1	+	0	6	C2r.bmp	492	1	blank2r.bmp	786	1	BXCP	786	1	blank2r.bmp	866	2	übel	866	1	!	1280	1	!	1318	0	0	0	0	0	0	0	0	0	0	0	0	0	0	0	0	0	0	0	0	0	0	0	0	0	0	0
062018	17:04:48	5.0.12.0	56	associated	Rpleas_acq	Oppo	Rpleas	Bmasked	CS_B	2pleas	acq_pleas_masked	acq3_masked	3	8	453	1	300	300	0	0	456	50	0	1	0	0	0	1	blank2r.bmp	0	1	+	0	7	C3r.bmp	492	1	blank2r.bmp	786	1	GFVZ	786	1	blank2r.bmp	866	3	leben	866	1	!	1280	1	!	1350	0	0	0	0	0	0	0	0	0	0	0	0	0	0	0	0	0	0	0	0	0	0	0	0	0	0	0
062018	17:04:48	5.0.12.0	56	associated	Rpleas_acq	Oppo	Rpleas	Bmasked	CS_B	2pleas	acq_pleas_masked	acq3_masked	3	9	453	1	300	300	0	0	480	50	0	1	0	0	0	1	blank2r.bmp	0	1	+	0	8	C4r.bmp	492	1	blank2r.bmp	786	1	GFVZ	786	1	blank2r.bmp	866	4	sonne	866	1	!	1280	1	!	1374	0	0	0	0	0	0	0	0	0	0	0	0	0	0	0	0	0	0	0	0	0	0	0	0	0	0	0
062018	17:04:48	5.0.12.0	56	associated	Rpleas_acq	Oppo	Rpleas	Bmasked	CS_B	2pleas	acq_unple_masked	acq3_masked	3	10	453	0	300	300	0	0	379	46	0	1	0	0	0	1	blank2r.bmp	0	1	+	0	4	B4r.bmp	492	1	blank2r.bmp	786	1	BXCP	786	1	blank2r.bmp	866	3	pistole	866	1	!	-1	1	!	-1	0	0	0	0	0	0	0	0	0	0	0	0	0	0	0	0	0	0	0	0	0	0	0	0	0	0	0
062018	17:04:48	5.0.12.0	56	associated	Rpleas_acq	Oppo	Rpleas	Bmasked	CS_B	2pleas	acq_unple_masked	acq3_masked	3	11	453	0	300	300	0	0	579	46	0	1	0	0	0	1	blank2r.bmp	0	1	+	0	5	C1r.bmp	492	1	blank2r.bmp	786	1	BXCP	786	1	blank2r.bmp	866	3	pistole	866	1	!	1280	1	!	-1	0	0	0	0	0	0	0	0	0	0	0	0	0	0	0	0	0	0	0	0	0	0	0	0	0	0	0
062018	17:04:48	5.0.12.0	56	associated	Rpleas_acq	Oppo	Rpleas	Bmasked	CS_B	2pleas	acq_unple_masked	acq3_masked	3	12	453	0	300	300	0	0	352	46	0	1	0	0	0	1	blank2r.bmp	0	1	+	0	3	B3r.bmp	492	1	blank2r.bmp	786	1	BXCP	786	1	blank2r.bmp	866	6	toxisch	866	1	!	-1	1	!	-1	0	0	0	0	0	0	0	0	0	0	0	0	0	0	0	0	0	0	0	0	0	0	0	0	0	0	0
062018	17:04:48	5.0.12.0	56	associated	Rpleas_acq	Oppo	Rpleas	Bmasked	CS_B	2pleas	acq_pleas_masked	acq3_masked	3	13	453	1	300	300	0	0	451	50	0	1	0	0	0	1	blank2r.bmp	0	1	+	0	7	C3r.bmp	492	1	blank2r.bmp	786	1	GFVZ	786	1	blank2r.bmp	866	5	bett	866	1	!	1280	1	!	1344	0	0	0	0	0	0	0	0	0	0	0	0	0	0	0	0	0	0	0	0	0	0	0	0	0	0	0
062018	17:04:48	5.0.12.0	56	associated	Rpleas_acq	Oppo	Rpleas	Bmasked	CS_B	2pleas	acq_pleas_masked	acq3_masked	3	14	453	1	300	300	0	0	501	50	0	1	0	0	0	1	blank2r.bmp	0	1	+	0	1	B1r.bmp	492	1	blank2r.bmp	786	1	GFVZ	786	1	blank2r.bmp	866	2	liebe	866	1	!	1280	1	!	1395	0	0	0	0	0	0	0	0	0	0	0	0	0	0	0	0	0	0	0	0	0	0	0	0	0	0	0
062018	17:04:48	5.0.12.0	56	associated	Rpleas_acq	Oppo	Rpleas	Bmasked	CS_B	2pleas	acq_pleas_masked	acq3_masked	3	15	453	0	300	300	0	0	306	46	0	0	0	0	0	1	blank2r.bmp	0	1	+	0	6	C2r.bmp	492	1	blank2r.bmp	786	1	GFVZ	786	1	blank2r.bmp	866	6	knospe	866	1	FEHLER	1494	1	!	-1	1	!	-1	0	0	0	0	0	0	0	0	0	0	0	0	0	0	0	0	0	0	0	0	0	0	0	0
062018	17:04:48	5.0.12.0	56	associated	Rpleas_acq	Oppo	Rpleas	Bmasked	CS_B	2pleas	acq_pleas_masked	acq3_masked	3	16	453	1	300	300	0	0	487	50	0	1	0	0	0	1	blank2r.bmp	0	1	+	0	2	B2r.bmp	492	1	blank2r.bmp	786	1	GFVZ	786	1	blank2r.bmp	866	2	liebe	866	1	!	1280	1	!	1381	0	0	0	0	0	0	0	0	0	0	0	0	0	0	0	0	0	0	0	0	0	0	0	0	0	0	0
062018	17:04:48	5.0.12.0	56	associated	Rpleas_acq	Oppo	Rpleas	Bmasked	CS_B	2pleas	acq_unple_masked	acq3_masked	3	17	453	1	300	300	0	0	436	46	0	1	0	0	0	1	blank2r.bmp	0	1	+	0	1	B1r.bmp	492	1	blank2r.bmp	786	1	BXCP	786	1	blank2r.bmp	866	2	übel	866	1	!	1280	1	!	1330	0	0	0	0	0	0	0	0	0	0	0	0	0	0	0	0	0	0	0	0	0	0	0	0	0	0	0
062018	17:04:48	5.0.12.0	56	associated	Rpleas_acq	Oppo	Rpleas	Bmasked	CS_B	2pleas	acq_unple_masked	acq3_masked	3	18	453	1	300	300	0	0	468	46	0	1	0	0	0	1	blank2r.bmp	0	1	+	0	6	C2r.bmp	492	1	blank2r.bmp	786	1	BXCP	786	1	blank2r.bmp	866	5	pleite	866	1	!	1280	1	!	1362	0	0	0	0	0	0	0	0	0	0	0	0	0	0	0	0	0	0	0	0	0	0	0	0	0	0	0
062018	17:04:48	5.0.12.0	56	associated	Rpleas_acq	Oppo	Rpleas	Bmasked	CS_B	2pleas	acq_pleas_masked	acq3_masked	3	19	453	1	300	300	0	0	492	50	0	1	0	0	0	1	blank2r.bmp	0	1	+	0	2	B2r.bmp	492	1	blank2r.bmp	786	1	GFVZ	786	1	blank2r.bmp	866	5	bett	866	1	!	1280	1	!	1386	0	0	0	0	0	0	0	0	0	0	0	0	0	0	0	0	0	0	0	0	0	0	0	0	0	0	0
062018	17:04:48	5.0.12.0	56	associated	Rpleas_acq	Oppo	Rpleas	Bmasked	CS_B	2pleas	acq_pleas_masked	acq3_masked	3	20	453	0	300	300	0	0	567	50	0	1	0	0	0	1	blank2r.bmp	0	1	+	0	8	C4r.bmp	492	1	blank2r.bmp	786	1	GFVZ	786	1	blank2r.bmp	866	3	leben	866	1	!	1280	1	!	-1	0	0	0	0	0	0	0	0	0	0	0	0	0	0	0	0	0	0	0	0	0	0	0	0	0	0	0
062018	17:04:48	5.0.12.0	56	associated	Rpleas_acq	Oppo	Rpleas	Bmasked	CS_B	2pleas	acq_unple_masked	acq3_masked	3	21	453	1	300	300	0	0	450	46	0	1	0	0	0	1	blank2r.bmp	0	1	+	0	7	C3r.bmp	492	1	blank2r.bmp	786	1	BXCP	786	1	blank2r.bmp	866	4	leiche	866	1	!	1280	1	!	1344	0	0	0	0	0	0	0	0	0	0	0	0	0	0	0	0	0	0	0	0	0	0	0	0	0	0	0
062018	17:04:48	5.0.12.0	56	associated	Rpleas_acq	Oppo	Rpleas	Bmasked	CS_B	2pleas	acq_unple_masked	acq3_masked	3	22	453	1	300	300	0	0	407	46	0	1	0	0	0	1	blank2r.bmp	0	1	+	0	4	B4r.bmp	492	1	blank2r.bmp	786	1	BXCP	786	1	blank2r.bmp	866	1	pest	866	1	!	1280	1	!	1301	0	0	0	0	0	0	0	0	0	0	0	0	0	0	0	0	0	0	0	0	0	0	0	0	0	0	0
062018	17:04:48	5.0.12.0	56	associated	Rpleas_acq	Oppo	Rpleas	Bmasked	CS_B	2pleas	acq_pleas_masked	acq3_masked	3	23	453	1	300	300	0	0	417	50	0	1	0	0	0	1	blank2r.bmp	0	1	+	0	5	C1r.bmp	492	1	blank2r.bmp	786	1	GFVZ	786	1	blank2r.bmp	866	4	sonne	866	1	!	1280	1	!	1311	0	0	0	0	0	0	0	0	0	0	0	0	0	0	0	0	0	0	0	0	0	0	0	0	0	0	0
062018	17:04:48	5.0.12.0	56	associated	Rpleas_acq	Oppo	Rpleas	Bmasked	CS_B	2pleas	acq_unple_masked	acq3_masked	3	24	453	0	300	300	0	0	527	46	0	1	0	0	0	1	blank2r.bmp	0	1	+	0	3	B3r.bmp	492	1	blank2r.bmp	786	1	BXCP	786	1	blank2r.bmp	866	2	übel	866	1	!	1280	1	!	-1	0	0	0	0	0	0	0	0	0	0	0	0	0	0	0	0	0	0	0	0	0	0	0	0	0	0	0
062018	17:04:48	5.0.12.0	56	associated	Rpleas_acq	Oppo	Rpleas	Bmasked	CS_B	2pleas	acq_pleas_masked	acq3_masked	3	25	453	1	300	300	0	0	449	50	0	1	0	0	0	1	blank2r.bmp	0	1	+	0	5	C1r.bmp	492	1	blank2r.bmp	786	1	GFVZ	786	1	blank2r.bmp	866	1	lippe	866	1	!	1280	1	!	1343	0	0	0	0	0	0	0	0	0	0	0	0	0	0	0	0	0	0	0	0	0	0	0	0	0	0	0
062018	17:04:48	5.0.12.0	56	associated	Rpleas_acq	Oppo	Rpleas	Bmasked	CS_B	2pleas	acq_pleas_masked	acq3_masked	3	26	453	1	300	300	0	0	518	50	0	1	0	0	0	1	blank2r.bmp	0	1	+	0	3	B3r.bmp	492	1	blank2r.bmp	786	1	GFVZ	786	1	blank2r.bmp	866	1	lippe	866	1	!	1280	1	!	1412	0	0	0	0	0	0	0	0	0	0	0	0	0	0	0	0	0	0	0	0	0	0	0	0	0	0	0
062018	17:04:48	5.0.12.0	56	associated	Rpleas_acq	Oppo	Rpleas	Bmasked	CS_B	2pleas	acq_unple_masked	acq3_masked	3	27	453	1	300	300	0	0	441	46	0	1	0	0	0	1	blank2r.bmp	0	1	+	0	2	B2r.bmp	492	1	blank2r.bmp	786	1	BXCP	786	1	blank2r.bmp	866	3	pistole	866	1	!	1280	1	!	1335	0	0	0	0	0	0	0	0	0	0	0	0	0	0	0	0	0	0	0	0	0	0	0	0	0	0	0
062018	17:04:48	5.0.12.0	56	associated	Rpleas_acq	Oppo	Rpleas	Bmasked	CS_B	2pleas	acq_pleas_masked	acq3_masked	3	28	453	1	300	300	0	0	460	50	0	1	0	0	0	1	blank2r.bmp	0	1	+	0	1	B1r.bmp	492	1	blank2r.bmp	786	1	GFVZ	786	1	blank2r.bmp	866	6	knospe	866	1	!	1280	1	!	1354	0	0	0	0	0	0	0	0	0	0	0	0	0	0	0	0	0	0	0	0	0	0	0	0	0	0	0
062018	17:04:48	5.0.12.0	56	associated	Rpleas_acq	Oppo	Rpleas	Bmasked	CS_B	2pleas	acq_pleas_masked	acq3_masked	3	29	453	1	300	300	0	0	420	50	0	1	0	0	0	1	blank2r.bmp	0	1	+	0	8	C4r.bmp	492	1	blank2r.bmp	786	1	GFVZ	786	1	blank2r.bmp	866	2	liebe	866	1	!	1280	1	!	1314	0	0	0	0	0	0	0	0	0	0	0	0	0	0	0	0	0	0	0	0	0	0	0	0	0	0	0
062018	17:04:48	5.0.12.0	56	associated	Rpleas_acq	Oppo	Rpleas	Bmasked	CS_B	2pleas	acq_pleas_masked	acq3_masked	3	30	453	0	300	300	0	0	369	50	0	1	0	0	0	1	blank2r.bmp	0	1	+	0	6	C2r.bmp	492	1	blank2r.bmp	786	1	GFVZ	786	1	blank2r.bmp	866	3	leben	866	1	!	-1	1	!	-1	0	0	0	0	0	0	0	0	0	0	0	0	0	0	0	0	0	0	0	0	0	0	0	0	0	0	0
062018	17:04:48	5.0.12.0	56	associated	Rpleas_acq	Oppo	Rpleas	Bmasked	CS_B	2pleas	acq_unple_masked	acq3_masked	3	31	453	1	300	300	0	0	454	46	0	1	0	0	0	1	blank2r.bmp	0	1	+	0	4	B4r.bmp	492	1	blank2r.bmp	786	1	BXCP	786	1	blank2r.bmp	866	1	pest	866	1	!	1280	1	!	1347	0	0	0	0	0	0	0	0	0	0	0	0	0	0	0	0	0	0	0	0	0	0	0	0	0	0	0
062018	17:04:48	5.0.12.0	56	associated	Rpleas_acq	Oppo	Rpleas	Bmasked	CS_B	2pleas	acq_unple_masked	acq3_masked	3	32	453	1	300	300	0	0	507	50	0	0	0	0	0	1	blank2r.bmp	0	1	+	0	7	C3r.bmp	492	1	blank2r.bmp	786	1	BXCP	786	1	blank2r.bmp	866	5	pleite	866	1	FEHLER	1694	1	!	1280	1	!	1401	0	0	0	0	0	0	0	0	0	0	0	0	0	0	0	0	0	0	0	0	0	0	0	0
062018	17:04:48	5.0.12.0	56	associated	Rpleas_acq	Oppo	Rpleas	Bmasked	CS_B	2pleas	acq_pleas_masked	acq45_masked	4	1	400	1	300	300	0	0	416	50	0	1	0	0	0	1	blank2r.bmp	0	1	+	0	1	B1r.bmp	492	1	blank2r.bmp	786	1	GFVZ	786	1	blank2r.bmp	866	4	sonne	866	1	!	1227	1	!	1309	0	0	0	0	0	0	0	0	0	0	0	0	0	0	0	0	0	0	0	0	0	0	0	0	0	0	0
062018	17:04:48	5.0.12.0	56	associated	Rpleas_acq	Oppo	Rpleas	Bmasked	CS_B	2pleas	acq_unple_masked	acq45_masked	4	2	400	0	300	300	0	0	303	46	0	1	0	0	0	1	blank2r.bmp	0	1	+	0	8	C4r.bmp	492	1	blank2r.bmp	786	1	BXCP	786	1	blank2r.bmp	866	4	leiche	866	1	!	-1	1	!	-1	0	0	0	0	0	0	0	0	0	0	0	0	0	0	0	0	0	0	0	0	0	0	0	0	0	0	0
062018	17:04:48	5.0.12.0	56	associated	Rpleas_acq	Oppo	Rpleas	Bmasked	CS_B	2pleas	acq_pleas_masked	acq45_masked	4	3	400	0	300	300	0	0	535	50	0	1	0	0	0	1	blank2r.bmp	0	1	+	0	4	B4r.bmp	492	1	blank2r.bmp	786	1	GFVZ	786	1	blank2r.bmp	866	5	bett	866	1	!	1227	1	!	-1	0	0	0	0	0	0	0	0	0	0	0	0	0	0	0	0	0	0	0	0	0	0	0	0	0	0	0
062018	17:04:48	5.0.12.0	56	associated	Rpleas_acq	Oppo	Rpleas	Bmasked	CS_B	2pleas	acq_pleas_masked	acq45_masked	4	4	400	1	300	300	0	0	396	50	0	1	0	0	0	1	blank2r.bmp	0	1	+	0	7	C3r.bmp	492	1	blank2r.bmp	786	1	GFVZ	786	1	blank2r.bmp	866	2	liebe	866	1	!	1227	1	!	1290	0	0	0	0	0	0	0	0	0	0	0	0	0	0	0	0	0	0	0	0	0	0	0	0	0	0	0
062018	17:04:48	5.0.12.0	56	associated	Rpleas_acq	Oppo	Rpleas	Bmasked	CS_B	2pleas	acq_unple_masked	acq45_masked	4	5	400	1	300	300	0	0	436	46	0	1	0	0	0	1	blank2r.bmp	0	1	+	0	6	C2r.bmp	492	1	blank2r.bmp	786	1	BXCP	786	1	blank2r.bmp	866	6	toxisch	866	1	!	1227	1	!	1329	0	0	0	0	0	0	0	0	0	0	0	0	0	0	0	0	0	0	0	0	0	0	0	0	0	0	0
062018	17:04:48	5.0.12.0	56	associated	Rpleas_acq	Oppo	Rpleas	Bmasked	CS_B	2pleas	acq_pleas_masked	acq45_masked	4	6	400	1	300	300	0	0	420	50	0	1	0	0	0	1	blank2r.bmp	0	1	+	0	2	B2r.bmp	492	1	blank2r.bmp	786	1	GFVZ	786	1	blank2r.bmp	866	1	lippe	866	1	!	1227	1	!	1313	0	0	0	0	0	0	0	0	0	0	0	0	0	0	0	0	0	0	0	0	0	0	0	0	0	0	0
062018	17:04:48	5.0.12.0	56	associated	Rpleas_acq	Oppo	Rpleas	Bmasked	CS_B	2pleas	acq_pleas_masked	acq45_masked	4	7	400	0	300	300	0	0	513	50	0	1	0	0	0	1	blank2r.bmp	0	1	+	0	3	B3r.bmp	492	1	blank2r.bmp	786	1	GFVZ	786	1	blank2r.bmp	866	4	sonne	866	1	!	1227	1	!	-1	0	0	0	0	0	0	0	0	0	0	0	0	0	0	0	0	0	0	0	0	0	0	0	0	0	0	0
062018	17:04:48	5.0.12.0	56	associated	Rpleas_acq	Oppo	Rpleas	Bmasked	CS_B	2pleas	acq_unple_masked	acq45_masked	4	8	400	1	300	300	0	0	403	46	0	1	0	0	0	1	blank2r.bmp	0	1	+	0	5	C1r.bmp	492	1	blank2r.bmp	786	1	BXCP	786	1	blank2r.bmp	866	1	pest	866	1	!	1227	1	!	1297	0	0	0	0	0	0	0	0	0	0	0	0	0	0	0	0	0	0	0	0	0	0	0	0	0	0	0
062018	17:04:48	5.0.12.0	56	associated	Rpleas_acq	Oppo	Rpleas	Bmasked	CS_B	2pleas	acq_pleas_masked	acq45_masked	4	9	400	1	300	300	0	0	430	50	0	1	0	0	0	1	blank2r.bmp	0	1	+	0	3	B3r.bmp	492	1	blank2r.bmp	786	1	GFVZ	786	1	blank2r.bmp	866	3	leben	866	1	!	1227	1	!	1324	0	0	0	0	0	0	0	0	0	0	0	0	0	0	0	0	0	0	0	0	0	0	0	0	0	0	0
062018	17:04:48	5.0.12.0	56	associated	Rpleas_acq	Oppo	Rpleas	Bmasked	CS_B	2pleas	acq_unple_masked	acq45_masked	4	10	400	0	300	300	0	0	494	46	0	1	0	0	0	1	blank2r.bmp	0	1	+	0	7	C3r.bmp	492	1	blank2r.bmp	786	1	BXCP	786	1	blank2r.bmp	866	6	toxisch	866	1	!	1227	1	!	-1	0	0	0	0	0	0	0	0	0	0	0	0	0	0	0	0	0	0	0	0	0	0	0	0	0	0	0
062018	17:04:48	5.0.12.0	56	associated	Rpleas_acq	Oppo	Rpleas	Bmasked	CS_B	2pleas	acq_unple_masked	acq45_masked	4	11	400	0	300	300	0	0	235	50	0	0	0	0	0	1	blank2r.bmp	0	1	+	0	8	C4r.bmp	492	1	blank2r.bmp	786	1	BXCP	786	1	blank2r.bmp	866	3	pistole	866	1	!	-1	1	!	-1	0	0	0	0	0	0	0	0	0	0	0	0	0	0	0	0	0	0	0	0	0	0	0	0	0	0	0
062018	17:04:48	5.0.12.0	56	associated	Rpleas_acq	Oppo	Rpleas	Bmasked	CS_B	2pleas	acq_pleas_masked	acq45_masked	4	12	400	1	300	300	0	0	354	46	0	0	0	0	0	1	blank2r.bmp	0	1	+	0	2	B2r.bmp	492	1	blank2r.bmp	786	1	GFVZ	786	1	blank2r.bmp	866	5	bett	866	1	!	1227	1	!	1248	0	0	0	0	0	0	0	0	0	0	0	0	0	0	0	0	0	0	0	0	0	0	0	0	0	0	0
062018	17:04:48	5.0.12.0	56	associated	Rpleas_acq	Oppo	Rpleas	Bmasked	CS_B	2pleas	acq_pleas_masked	acq45_masked	4	13	400	1	300	300	0	0	420	46	0	0	0	0	0	1	blank2r.bmp	0	1	+	0	4	B4r.bmp	492	1	blank2r.bmp	786	1	GFVZ	786	1	blank2r.bmp	866	6	knospe	866	1	!	1227	1	!	1314	0	0	0	0	0	0	0	0	0	0	0	0	0	0	0	0	0	0	0	0	0	0	0	0	0	0	0
062018	17:04:48	5.0.12.0	56	associated	Rpleas_acq	Oppo	Rpleas	Bmasked	CS_B	2pleas	acq_unple_masked	acq45_masked	4	14	400	0	300	300	0	0	513	46	0	1	0	0	0	1	blank2r.bmp	0	1	+	0	5	C1r.bmp	492	1	blank2r.bmp	786	1	BXCP	786	1	blank2r.bmp	866	2	übel	866	1	!	1227	1	!	-1	0	0	0	0	0	0	0	0	0	0	0	0	0	0	0	0	0	0	0	0	0	0	0	0	0	0	0
062018	17:04:48	5.0.12.0	56	associated	Rpleas_acq	Oppo	Rpleas	Bmasked	CS_B	2pleas	acq_unple_masked	acq45_masked	4	15	400	1	300	300	0	0	369	46	0	1	0	0	0	1	blank2r.bmp	0	1	+	0	1	B1r.bmp	492	1	blank2r.bmp	786	1	BXCP	786	1	blank2r.bmp	866	5	pleite	866	1	!	1227	1	!	1263	0	0	0	0	0	0	0	0	0	0	0	0	0	0	0	0	0	0	0	0	0	0	0	0	0	0	0
062018	17:04:48	5.0.12.0	56	associated	Rpleas_acq	Oppo	Rpleas	Bmasked	CS_B	2pleas	acq_unple_masked	acq45_masked	4	16	400	1	300	300	0	0	420	46	0	1	0	0	0	1	blank2r.bmp	0	1	+	0	6	C2r.bmp	492	1	blank2r.bmp	786	1	BXCP	786	1	blank2r.bmp	866	4	leiche	866	1	!	1227	1	!	1313	0	0	0	0	0	0	0	0	0	0	0	0	0	0	0	0	0	0	0	0	0	0	0	0	0	0	0
062018	17:04:48	5.0.12.0	56	associated	Rpleas_acq	Oppo	Rpleas	Bmasked	CS_B	2pleas	acq_pleas_masked	acq45_masked	4	17	400	0	300	300	0	0	481	50	0	1	0	0	0	1	blank2r.bmp	0	1	+	0	2	B2r.bmp	492	1	blank2r.bmp	786	1	GFVZ	786	1	blank2r.bmp	866	5	bett	866	1	!	1227	1	!	-1	0	0	0	0	0	0	0	0	0	0	0	0	0	0	0	0	0	0	0	0	0	0	0	0	0	0	0
062018	17:04:48	5.0.12.0	56	associated	Rpleas_acq	Oppo	Rpleas	Bmasked	CS_B	2pleas	acq_unple_masked	acq45_masked	4	18	400	1	300	300	0	0	409	46	0	1	0	0	0	1	blank2r.bmp	0	1	+	0	4	B4r.bmp	492	1	blank2r.bmp	786	1	BXCP	786	1	blank2r.bmp	866	2	übel	866	1	!	1227	1	!	1303	0	0	0	0	0	0	0	0	0	0	0	0	0	0	0	0	0	0	0	0	0	0	0	0	0	0	0
062018	17:04:48	5.0.12.0	56	associated	Rpleas_acq	Oppo	Rpleas	Bmasked	CS_B	2pleas	acq_unple_masked	acq45_masked	4	19	400	1	300	300	0	0	374	46	0	1	0	0	0	1	blank2r.bmp	0	1	+	0	8	C4r.bmp	492	1	blank2r.bmp	786	1	BXCP	786	1	blank2r.bmp	866	4	leiche	866	1	!	1227	1	!	1267	0	0	0	0	0	0	0	0	0	0	0	0	0	0	0	0	0	0	0	0	0	0	0	0	0	0	0
062018	17:04:48	5.0.12.0	56	associated	Rpleas_acq	Oppo	Rpleas	Bmasked	CS_B	2pleas	acq_pleas_masked	acq45_masked	4	20	400	1	300	300	0	0	360	50	0	1	0	0	0	1	blank2r.bmp	0	1	+	0	3	B3r.bmp	492	1	blank2r.bmp	786	1	GFVZ	786	1	blank2r.bmp	866	4	sonne	866	1	!	1227	1	!	1254	0	0	0	0	0	0	0	0	0	0	0	0	0	0	0	0	0	0	0	0	0	0	0	0	0	0	0
062018	17:04:48	5.0.12.0	56	associated	Rpleas_acq	Oppo	Rpleas	Bmasked	CS_B	2pleas	acq_unple_masked	acq45_masked	4	21	400	1	300	300	0	0	458	46	0	1	0	0	0	1	blank2r.bmp	0	1	+	0	5	C1r.bmp	492	1	blank2r.bmp	786	1	BXCP	786	1	blank2r.bmp	866	6	toxisch	866	1	!	1227	1	!	1352	0	0	0	0	0	0	0	0	0	0	0	0	0	0	0	0	0	0	0	0	0	0	0	0	0	0	0
062018	17:04:48	5.0.12.0	56	associated	Rpleas_acq	Oppo	Rpleas	Bmasked	CS_B	2pleas	acq_unple_masked	acq45_masked	4	22	400	0	300	300	0	0	480	46	0	1	0	0	0	1	blank2r.bmp	0	1	+	0	1	B1r.bmp	492	1	blank2r.bmp	786	1	BXCP	786	1	blank2r.bmp	866	3	pistole	866	1	!	1227	1	!	-1	0	0	0	0	0	0	0	0	0	0	0	0	0	0	0	0	0	0	0	0	0	0	0	0	0	0	0
062018	17:04:48	5.0.12.0	56	associated	Rpleas_acq	Oppo	Rpleas	Bmasked	CS_B	2pleas	acq_pleas_masked	acq45_masked	4	23	400	0	300	300	0	0	474	50	0	1	0	0	0	1	blank2r.bmp	0	1	+	0	6	C2r.bmp	492	1	blank2r.bmp	786	1	GFVZ	786	1	blank2r.bmp	866	2	liebe	866	1	!	1227	1	!	-1	0	0	0	0	0	0	0	0	0	0	0	0	0	0	0	0	0	0	0	0	0	0	0	0	0	0	0
062018	17:04:48	5.0.12.0	56	associated	Rpleas_acq	Oppo	Rpleas	Bmasked	CS_B	2pleas	acq_unple_masked	acq45_masked	4	24	400	1	300	300	0	0	354	46	0	1	0	0	0	1	blank2r.bmp	0	1	+	0	7	C3r.bmp	492	1	blank2r.bmp	786	1	BXCP	786	1	blank2r.bmp	866	5	pleite	866	1	!	1227	1	!	1248	0	0	0	0	0	0	0	0	0	0	0	0	0	0	0	0	0	0	0	0	0	0	0	0	0	0	0
062018	17:04:48	5.0.12.0	56	associated	Rpleas_acq	Oppo	Rpleas	Bmasked	CS_B	2pleas	acq_pleas_masked	acq45_masked	4	25	400	1	300	300	0	0	450	50	0	1	0	0	0	1	blank2r.bmp	0	1	+	0	4	B4r.bmp	492	1	blank2r.bmp	786	1	GFVZ	786	1	blank2r.bmp	866	3	leben	866	1	!	1227	1	!	1343	0	0	0	0	0	0	0	0	0	0	0	0	0	0	0	0	0	0	0	0	0	0	0	0	0	0	0
062018	17:04:48	5.0.12.0	56	associated	Rpleas_acq	Oppo	Rpleas	Bmasked	CS_B	2pleas	acq_unple_masked	acq45_masked	4	26	400	1	300	300	0	0	388	46	0	1	0	0	0	1	blank2r.bmp	0	1	+	0	1	B1r.bmp	492	1	blank2r.bmp	786	1	BXCP	786	1	blank2r.bmp	866	1	pest	866	1	!	1227	1	!	1282	0	0	0	0	0	0	0	0	0	0	0	0	0	0	0	0	0	0	0	0	0	0	0	0	0	0	0
062018	17:04:48	5.0.12.0	56	associated	Rpleas_acq	Oppo	Rpleas	Bmasked	CS_B	2pleas	acq_pleas_masked	acq45_masked	4	27	400	0	300	300	0	0	492	50	0	1	0	0	0	1	blank2r.bmp	0	1	+	0	2	B2r.bmp	492	1	blank2r.bmp	786	1	GFVZ	786	1	blank2r.bmp	866	6	knospe	866	1	!	1227	1	!	-1	0	0	0	0	0	0	0	0	0	0	0	0	0	0	0	0	0	0	0	0	0	0	0	0	0	0	0
062018	17:04:48	5.0.12.0	56	associated	Rpleas_acq	Oppo	Rpleas	Bmasked	CS_B	2pleas	acq_unple_masked	acq45_masked	4	28	400	1	300	300	0	0	406	46	0	1	0	0	0	1	blank2r.bmp	0	1	+	0	8	C4r.bmp	492	1	blank2r.bmp	786	1	BXCP	786	1	blank2r.bmp	866	6	toxisch	866	1	!	1227	1	!	1300	0	0	0	0	0	0	0	0	0	0	0	0	0	0	0	0	0	0	0	0	0	0	0	0	0	0	0
062018	17:04:48	5.0.12.0	56	associated	Rpleas_acq	Oppo	Rpleas	Bmasked	CS_B	2pleas	acq_pleas_masked	acq45_masked	4	29	400	0	300	300	0	0	513	50	0	1	0	0	0	1	blank2r.bmp	0	1	+	0	7	C3r.bmp	492	1	blank2r.bmp	786	1	GFVZ	786	1	blank2r.bmp	866	1	lippe	866	1	!	1227	1	!	-1	0	0	0	0	0	0	0	0	0	0	0	0	0	0	0	0	0	0	0	0	0	0	0	0	0	0	0
062018	17:04:48	5.0.12.0	56	associated	Rpleas_acq	Oppo	Rpleas	Bmasked	CS_B	2pleas	acq_unple_masked	acq45_masked	4	30	400	1	300	300	0	0	404	46	0	1	0	0	0	1	blank2r.bmp	0	1	+	0	3	B3r.bmp	492	1	blank2r.bmp	786	1	BXCP	786	1	blank2r.bmp	866	5	pleite	866	1	!	1227	1	!	1297	0	0	0	0	0	0	0	0	0	0	0	0	0	0	0	0	0	0	0	0	0	0	0	0	0	0	0
062018	17:04:48	5.0.12.0	56	associated	Rpleas_acq	Oppo	Rpleas	Bmasked	CS_B	2pleas	acq_pleas_masked	acq45_masked	4	31	400	1	300	300	0	0	430	50	0	1	0	0	0	1	blank2r.bmp	0	1	+	0	5	C1r.bmp	492	1	blank2r.bmp	786	1	GFVZ	786	1	blank2r.bmp	866	2	liebe	866	1	!	1227	1	!	1324	0	0	0	0	0	0	0	0	0	0	0	0	0	0	0	0	0	0	0	0	0	0	0	0	0	0	0
062018	17:04:48	5.0.12.0	56	associated	Rpleas_acq	Oppo	Rpleas	Bmasked	CS_B	2pleas	acq_pleas_masked	acq45_masked	4	32	400	0	300	300	0	0	497	50	0	1	0	0	0	1	blank2r.bmp	0	1	+	0	6	C2r.bmp	492	1	blank2r.bmp	786	1	GFVZ	786	1	blank2r.bmp	866	4	sonne	866	1	!	1227	1	!	-1	0	0	0	0	0	0	0	0	0	0	0	0	0	0	0	0	0	0	0	0	0	0	0	0	0	0	0
062018	17:04:48	5.0.12.0	56	associated	Rpleas_acq	Oppo	Rpleas	Bmasked	CS_B	2pleas	acq_pleas_masked	acq45_masked	5	1	400	1	300	300	0	0	419	50	0	1	0	0	0	1	blank2r.bmp	0	1	+	0	1	B1r.bmp	492	1	blank2r.bmp	786	1	GFVZ	786	1	blank2r.bmp	866	5	bett	866	1	!	1227	1	!	1313	0	0	0	0	0	0	0	0	0	0	0	0	0	0	0	0	0	0	0	0	0	0	0	0	0	0	0
062018	17:04:48	5.0.12.0	56	associated	Rpleas_acq	Oppo	Rpleas	Bmasked	CS_B	2pleas	acq_pleas_masked	acq45_masked	5	2	400	1	300	300	0	0	400	50	0	1	0	0	0	1	blank2r.bmp	0	1	+	0	6	C2r.bmp	492	1	blank2r.bmp	786	1	GFVZ	786	1	blank2r.bmp	866	6	knospe	866	1	!	1227	1	!	1294	0	0	0	0	0	0	0	0	0	0	0	0	0	0	0	0	0	0	0	0	0	0	0	0	0	0	0
062018	17:04:48	5.0.12.0	56	associated	Rpleas_acq	Oppo	Rpleas	Bmasked	CS_B	2pleas	acq_pleas_masked	acq45_masked	5	3	400	1	300	300	0	0	347	50	0	1	0	0	0	1	blank2r.bmp	0	1	+	0	8	C4r.bmp	492	1	blank2r.bmp	786	1	GFVZ	786	1	blank2r.bmp	866	1	lippe	866	1	!	1227	1	!	1240	0	0	0	0	0	0	0	0	0	0	0	0	0	0	0	0	0	0	0	0	0	0	0	0	0	0	0
062018	17:04:48	5.0.12.0	56	associated	Rpleas_acq	Oppo	Rpleas	Bmasked	CS_B	2pleas	acq_unple_masked	acq45_masked	5	4	400	1	300	300	0	0	394	50	0	0	0	0	0	1	blank2r.bmp	0	1	+	0	3	B3r.bmp	492	1	blank2r.bmp	786	1	BXCP	786	1	blank2r.bmp	866	1	pest	866	1	!	1227	1	!	1288	0	0	0	0	0	0	0	0	0	0	0	0	0	0	0	0	0	0	0	0	0	0	0	0	0	0	0
062018	17:04:48	5.0.12.0	56	associated	Rpleas_acq	Oppo	Rpleas	Bmasked	CS_B	2pleas	acq_unple_masked	acq45_masked	5	5	400	1	300	300	0	0	418	46	0	1	0	0	0	1	blank2r.bmp	0	1	+	0	2	B2r.bmp	492	1	blank2r.bmp	786	1	BXCP	786	1	blank2r.bmp	866	3	pistole	866	1	!	1227	1	!	1312	0	0	0	0	0	0	0	0	0	0	0	0	0	0	0	0	0	0	0	0	0	0	0	0	0	0	0
062018	17:04:48	5.0.12.0	56	associated	Rpleas_acq	Oppo	Rpleas	Bmasked	CS_B	2pleas	acq_unple_masked	acq45_masked	5	6	400	1	300	300	0	0	399	46	0	1	0	0	0	1	blank2r.bmp	0	1	+	0	7	C3r.bmp	492	1	blank2r.bmp	786	1	BXCP	786	1	blank2r.bmp	866	4	leiche	866	1	!	1227	1	!	1293	0	0	0	0	0	0	0	0	0	0	0	0	0	0	0	0	0	0	0	0	0	0	0	0	0	0	0
062018	17:04:48	5.0.12.0	56	associated	Rpleas_acq	Oppo	Rpleas	Bmasked	CS_B	2pleas	acq_pleas_masked	acq45_masked	5	7	400	1	300	300	0	0	359	46	0	0	0	0	0	1	blank2r.bmp	0	1	+	0	4	B4r.bmp	492	1	blank2r.bmp	786	1	GFVZ	786	1	blank2r.bmp	866	3	leben	866	1	!	1227	1	!	1252	0	0	0	0	0	0	0	0	0	0	0	0	0	0	0	0	0	0	0	0	0	0	0	0	0	0	0
062018	17:04:48	5.0.12.0	56	associated	Rpleas_acq	Oppo	Rpleas	Bmasked	CS_B	2pleas	acq_unple_masked	acq45_masked	5	8	400	1	300	300	0	0	393	50	0	0	0	0	0	1	blank2r.bmp	0	1	+	0	5	C1r.bmp	492	1	blank2r.bmp	786	1	BXCP	786	1	blank2r.bmp	866	2	übel	866	1	!	1227	1	!	1287	0	0	0	0	0	0	0	0	0	0	0	0	0	0	0	0	0	0	0	0	0	0	0	0	0	0	0
062018	17:04:48	5.0.12.0	56	associated	Rpleas_acq	Oppo	Rpleas	Bmasked	CS_B	2pleas	acq_pleas_masked	acq45_masked	5	9	400	0	300	300	0	0	497	50	0	1	0	0	0	1	blank2r.bmp	0	1	+	0	7	C3r.bmp	492	1	blank2r.bmp	786	1	GFVZ	786	1	blank2r.bmp	866	5	bett	866	1	!	1227	1	!	-1	0	0	0	0	0	0	0	0	0	0	0	0	0	0	0	0	0	0	0	0	0	0	0	0	0	0	0
062018	17:04:48	5.0.12.0	56	associated	Rpleas_acq	Oppo	Rpleas	Bmasked	CS_B	2pleas	acq_pleas_masked	acq45_masked	5	10	400	1	300	300	0	0	350	46	0	0	0	0	0	1	blank2r.bmp	0	1	+	0	3	B3r.bmp	492	1	blank2r.bmp	786	1	GFVZ	786	1	blank2r.bmp	866	3	leben	866	1	!	1227	1	!	1244	0	0	0	0	0	0	0	0	0	0	0	0	0	0	0	0	0	0	0	0	0	0	0	0	0	0	0
062018	17:04:48	5.0.12.0	56	associated	Rpleas_acq	Oppo	Rpleas	Bmasked	CS_B	2pleas	acq_pleas_masked	acq45_masked	5	11	400	1	300	300	0	0	382	46	0	0	0	0	0	1	blank2r.bmp	0	1	+	0	5	C1r.bmp	492	1	blank2r.bmp	786	1	GFVZ	786	1	blank2r.bmp	866	6	knospe	866	1	!	1227	1	!	1275	0	0	0	0	0	0	0	0	0	0	0	0	0	0	0	0	0	0	0	0	0	0	0	0	0	0	0
062018	17:04:48	5.0.12.0	56	associated	Rpleas_acq	Oppo	Rpleas	Bmasked	CS_B	2pleas	acq_pleas_masked	acq45_masked	5	12	400	0	300	300	0	0	469	46	0	0	0	0	0	1	blank2r.bmp	0	1	+	0	2	B2r.bmp	492	1	blank2r.bmp	786	1	GFVZ	786	1	blank2r.bmp	866	2	liebe	866	1	!	1227	1	!	-1	0	0	0	0	0	0	0	0	0	0	0	0	0	0	0	0	0	0	0	0	0	0	0	0	0	0	0
062018	17:04:48	5.0.12.0	56	associated	Rpleas_acq	Oppo	Rpleas	Bmasked	CS_B	2pleas	acq_unple_masked	acq45_masked	5	13	400	0	300	300	0	0	493	50	0	0	0	0	0	1	blank2r.bmp	0	1	+	0	6	C2r.bmp	492	1	blank2r.bmp	786	1	BXCP	786	1	blank2r.bmp	866	2	übel	866	1	!	1227	1	!	-1	0	0	0	0	0	0	0	0	0	0	0	0	0	0	0	0	0	0	0	0	0	0	0	0	0	0	0
062018	17:04:48	5.0.12.0	56	associated	Rpleas_acq	Oppo	Rpleas	Bmasked	CS_B	2pleas	acq_unple_masked	acq45_masked	5	14	400	1	300	300	0	0	410	46	0	1	0	0	0	1	blank2r.bmp	0	1	+	0	1	B1r.bmp	492	1	blank2r.bmp	786	1	BXCP	786	1	blank2r.bmp	866	5	pleite	866	1	!	1227	1	!	1304	0	0	0	0	0	0	0	0	0	0	0	0	0	0	0	0	0	0	0	0	0	0	0	0	0	0	0
062018	17:04:48	5.0.12.0	56	associated	Rpleas_acq	Oppo	Rpleas	Bmasked	CS_B	2pleas	acq_unple_masked	acq45_masked	5	15	400	1	300	300	0	0	405	46	0	1	0	0	0	1	blank2r.bmp	0	1	+	0	4	B4r.bmp	492	1	blank2r.bmp	786	1	BXCP	786	1	blank2r.bmp	866	3	pistole	866	1	!	1227	1	!	1298	0	0	0	0	0	0	0	0	0	0	0	0	0	0	0	0	0	0	0	0	0	0	0	0	0	0	0
062018	17:04:48	5.0.12.0	56	associated	Rpleas_acq	Oppo	Rpleas	Bmasked	CS_B	2pleas	acq_unple_masked	acq45_masked	5	16	400	1	300	300	0	0	415	46	0	1	0	0	0	1	blank2r.bmp	0	1	+	0	8	C4r.bmp	492	1	blank2r.bmp	786	1	BXCP	786	1	blank2r.bmp	866	6	toxisch	866	1	!	1227	1	!	1309	0	0	0	0	0	0	0	0	0	0	0	0	0	0	0	0	0	0	0	0	0	0	0	0	0	0	0
062018	17:04:48	5.0.12.0	56	associated	Rpleas_acq	Oppo	Rpleas	Bmasked	CS_B	2pleas	acq_unple_masked	acq45_masked	5	17	400	1	300	300	0	0	348	46	0	1	0	0	0	1	blank2r.bmp	0	1	+	0	5	C1r.bmp	492	1	blank2r.bmp	786	1	BXCP	786	1	blank2r.bmp	866	1	pest	866	1	!	1227	1	!	1242	0	0	0	0	0	0	0	0	0	0	0	0	0	0	0	0	0	0	0	0	0	0	0	0	0	0	0
062018	17:04:48	5.0.12.0	56	associated	Rpleas_acq	Oppo	Rpleas	Bmasked	CS_B	2pleas	acq_unple_masked	acq45_masked	5	18	400	1	300	300	0	0	428	46	0	1	0	0	0	1	blank2r.bmp	0	1	+	0	8	C4r.bmp	492	1	blank2r.bmp	786	1	BXCP	786	1	blank2r.bmp	866	4	leiche	866	1	!	1227	1	!	1321	0	0	0	0	0	0	0	0	0	0	0	0	0	0	0	0	0	0	0	0	0	0	0	0	0	0	0
062018	17:04:48	5.0.12.0	56	associated	Rpleas_acq	Oppo	Rpleas	Bmasked	CS_B	2pleas	acq_unple_masked	acq45_masked	5	19	400	1	300	300	0	0	427	46	0	1	0	0	0	1	blank2r.bmp	0	1	+	0	7	C3r.bmp	492	1	blank2r.bmp	786	1	BXCP	786	1	blank2r.bmp	866	4	leiche	866	1	!	1227	1	!	1321	0	0	0	0	0	0	0	0	0	0	0	0	0	0	0	0	0	0	0	0	0	0	0	0	0	0	0
062018	17:04:48	5.0.12.0	56	associated	Rpleas_acq	Oppo	Rpleas	Bmasked	CS_B	2pleas	acq_pleas_masked	acq45_masked	5	20	400	1	300	300	0	0	427	46	0	0	0	0	0	1	blank2r.bmp	0	1	+	0	2	B2r.bmp	492	1	blank2r.bmp	786	1	GFVZ	786	1	blank2r.bmp	866	1	lippe	866	1	!	1227	1	!	1321	0	0	0	0	0	0	0	0	0	0	0	0	0	0	0	0	0	0	0	0	0	0	0	0	0	0	0
062018	17:04:48	5.0.12.0	56	associated	Rpleas_acq	Oppo	Rpleas	Bmasked	CS_B	2pleas	acq_unple_masked	acq45_masked	5	21	400	0	300	300	0	0	491	46	0	1	0	0	0	1	blank2r.bmp	0	1	+	0	6	C2r.bmp	492	1	blank2r.bmp	786	1	BXCP	786	1	blank2r.bmp	866	1	pest	866	1	!	1227	1	!	-1	0	0	0	0	0	0	0	0	0	0	0	0	0	0	0	0	0	0	0	0	0	0	0	0	0	0	0
062018	17:04:48	5.0.12.0	56	associated	Rpleas_acq	Oppo	Rpleas	Bmasked	CS_B	2pleas	acq_unple_masked	acq45_masked	5	22	400	1	300	300	0	0	424	46	0	1	0	0	0	1	blank2r.bmp	0	1	+	0	3	B3r.bmp	492	1	blank2r.bmp	786	1	BXCP	786	1	blank2r.bmp	866	6	toxisch	866	1	!	1227	1	!	1318	0	0	0	0	0	0	0	0	0	0	0	0	0	0	0	0	0	0	0	0	0	0	0	0	0	0	0
062018	17:04:48	5.0.12.0	56	associated	Rpleas_acq	Oppo	Rpleas	Bmasked	CS_B	2pleas	acq_pleas_masked	acq45_masked	5	23	400	1	300	300	0	0	358	50	0	1	0	0	0	1	blank2r.bmp	0	1	+	0	1	B1r.bmp	492	1	blank2r.bmp	786	1	GFVZ	786	1	blank2r.bmp	866	4	sonne	866	1	!	1227	1	!	1251	0	0	0	0	0	0	0	0	0	0	0	0	0	0	0	0	0	0	0	0	0	0	0	0	0	0	0
062018	17:04:48	5.0.12.0	56	associated	Rpleas_acq	Oppo	Rpleas	Bmasked	CS_B	2pleas	acq_pleas_masked	acq45_masked	5	24	400	1	300	300	0	0	456	50	0	1	0	0	0	1	blank2r.bmp	0	1	+	0	4	B4r.bmp	492	1	blank2r.bmp	786	1	GFVZ	786	1	blank2r.bmp	866	5	bett	866	1	!	1227	1	!	1349	0	0	0	0	0	0	0	0	0	0	0	0	0	0	0	0	0	0	0	0	0	0	0	0	0	0	0
062018	17:04:48	5.0.12.0	56	associated	Rpleas_acq	Oppo	Rpleas	Bmasked	CS_B	2pleas	acq_pleas_masked	acq45_masked	5	25	400	1	300	300	0	0	413	50	0	1	0	0	0	1	blank2r.bmp	0	1	+	0	4	B4r.bmp	492	1	blank2r.bmp	786	1	GFVZ	786	1	blank2r.bmp	866	3	leben	866	1	!	1227	1	!	1307	0	0	0	0	0	0	0	0	0	0	0	0	0	0	0	0	0	0	0	0	0	0	0	0	0	0	0
062018	17:04:48	5.0.12.0	56	associated	Rpleas_acq	Oppo	Rpleas	Bmasked	CS_B	2pleas	acq_unple_masked	acq45_masked	5	26	400	1	300	300	0	0	426	46	0	1	0	0	0	1	blank2r.bmp	0	1	+	0	8	C4r.bmp	492	1	blank2r.bmp	786	1	BXCP	786	1	blank2r.bmp	866	2	übel	866	1	!	1227	1	!	1320	0	0	0	0	0	0	0	0	0	0	0	0	0	0	0	0	0	0	0	0	0	0	0	0	0	0	0
062018	17:04:48	5.0.12.0	56	associated	Rpleas_acq	Oppo	Rpleas	Bmasked	CS_B	2pleas	acq_unple_masked	acq45_masked	5	27	400	1	300	300	0	0	343	46	0	1	0	0	0	1	blank2r.bmp	0	1	+	0	6	C2r.bmp	492	1	blank2r.bmp	786	1	BXCP	786	1	blank2r.bmp	866	3	pistole	866	1	!	1227	1	!	1237	0	0	0	0	0	0	0	0	0	0	0	0	0	0	0	0	0	0	0	0	0	0	0	0	0	0	0
062018	17:04:48	5.0.12.0	56	associated	Rpleas_acq	Oppo	Rpleas	Bmasked	CS_B	2pleas	acq_pleas_masked	acq45_masked	5	28	400	1	300	300	0	0	359	46	0	0	0	0	0	1	blank2r.bmp	0	1	+	0	1	B1r.bmp	492	1	blank2r.bmp	786	1	GFVZ	786	1	blank2r.bmp	866	2	liebe	866	1	!	1227	1	!	1253	0	0	0	0	0	0	0	0	0	0	0	0	0	0	0	0	0	0	0	0	0	0	0	0	0	0	0
062018	17:04:48	5.0.12.0	56	associated	Rpleas_acq	Oppo	Rpleas	Bmasked	CS_B	2pleas	acq_pleas_masked	acq45_masked	5	29	400	0	300	300	0	0	489	50	0	1	0	0	0	1	blank2r.bmp	0	1	+	0	3	B3r.bmp	492	1	blank2r.bmp	786	1	GFVZ	786	1	blank2r.bmp	866	1	lippe	866	1	!	1227	1	!	-1	0	0	0	0	0	0	0	0	0	0	0	0	0	0	0	0	0	0	0	0	0	0	0	0	0	0	0
062018	17:04:48	5.0.12.0	56	associated	Rpleas_acq	Oppo	Rpleas	Bmasked	CS_B	2pleas	acq_pleas_masked	acq45_masked	5	30	400	0	300	300	0	0	518	50	0	1	0	0	0	1	blank2r.bmp	0	1	+	0	7	C3r.bmp	492	1	blank2r.bmp	786	1	GFVZ	786	1	blank2r.bmp	866	6	knospe	866	1	!	1227	1	!	-1	0	0	0	0	0	0	0	0	0	0	0	0	0	0	0	0	0	0	0	0	0	0	0	0	0	0	0
062018	17:04:48	5.0.12.0	56	associated	Rpleas_acq	Oppo	Rpleas	Bmasked	CS_B	2pleas	acq_unple_masked	acq45_masked	5	31	400	0	300	300	0	0	502	46	0	1	0	0	0	1	blank2r.bmp	0	1	+	0	2	B2r.bmp	492	1	blank2r.bmp	786	1	BXCP	786	1	blank2r.bmp	866	5	pleite	866	1	!	1227	1	!	-1	0	0	0	0	0	0	0	0	0	0	0	0	0	0	0	0	0	0	0	0	0	0	0	0	0	0	0
062018	17:04:48	5.0.12.0	56	associated	Rpleas_acq	Oppo	Rpleas	Bmasked	CS_B	2pleas	acq_pleas_masked	acq45_masked	5	32	400	1	300	300	0	0	438	50	0	1	0	0	0	1	blank2r.bmp	0	1	+	0	5	C1r.bmp	492	1	blank2r.bmp	786	1	GFVZ	786	1	blank2r.bmp	866	4	sonne	866	1	!	1227	1	!	1332	0	0	0	0	0	0	0	0	0	0	0	0	0	0	0	0	0	0	0	0	0	0	0	0	0	0	0
062018	17:04:48	5.0.12.0	56	associated	Rpleas_acq	Oppo	Lpleas	Bmasked	CS_B	2pleas	AMP_CSunple	AMP1	6	1	0	0	300	300	0	0	1818	46	0	0	0	0	0	1	blank2r.bmp	0	1	BXCP	0	1	blank2r.bmp	79	58	pic58.bmp	79	1	whitenoise.bmp	186	0	0	0	0	0	0	0	0	0	0	0	0	0	0	0	0	0	0	0	0	0	0	0	0	0	0	0	0	0	0	0	0	0	0	0	0	0	0	0
062018	17:04:48	5.0.12.0	56	associated	Rpleas_acq	Oppo	Lpleas	Bmasked	CS_B	2pleas	AMP_CSunple	AMP1	6	2	0	0	300	300	0	0	1661	46	0	0	0	0	0	1	blank2r.bmp	0	1	BXCP	0	1	blank2r.bmp	79	64	pic64.bmp	79	1	whitenoise.bmp	186	0	0	0	0	0	0	0	0	0	0	0	0	0	0	0	0	0	0	0	0	0	0	0	0	0	0	0	0	0	0	0	0	0	0	0	0	0	0	0
062018	17:04:48	5.0.12.0	56	associated	Rpleas_acq	Oppo	Lpleas	Bmasked	CS_B	2pleas	AMP_CSunple	AMP1	6	3	0	0	300	300	0	0	963	50	0	1	0	0	0	1	blank2r.bmp	0	1	BXCP	0	1	blank2r.bmp	79	83	pic83.bmp	79	1	whitenoise.bmp	186	0	0	0	0	0	0	0	0	0	0	0	0	0	0	0	0	0	0	0	0	0	0	0	0	0	0	0	0	0	0	0	0	0	0	0	0	0	0	0
062018	17:04:48	5.0.12.0	56	associated	Rpleas_acq	Oppo	Lpleas	Bmasked	CS_B	2pleas	AMP_CSpleas	AMP1	6	4	0	0	300	300	0	0	570	46	0	1	0	0	0	1	blank2r.bmp	0	1	GFVZ	0	1	blank2r.bmp	79	67	pic67.bmp	79	1	whitenoise.bmp	186	0	0	0	0	0	0	0	0	0	0	0	0	0	0	0	0	0	0	0	0	0	0	0	0	0	0	0	0	0	0	0	0	0	0	0	0	0	0	0
062018	17:04:48	5.0.12.0	56	associated	Rpleas_acq	Oppo	Lpleas	Bmasked	CS_B	2pleas	AMP_CSunple	AMP1	6	5	0	0	300	300	0	0	751	46	0	0	0	0	0	1	blank2r.bmp	0	1	BXCP	0	1	blank2r.bmp	79	22	pic22.bmp	79	1	whitenoise.bmp	186	0	0	0	0	0	0	0	0	0	0	0	0	0	0	0	0	0	0	0	0	0	0	0	0	0	0	0	0	0	0	0	0	0	0	0	0	0	0	0
062018	17:04:48	5.0.12.0	56	associated	Rpleas_acq	Oppo	Lpleas	Bmasked	CS_B	2pleas	AMP_CSpleas	AMP1	6	6	0	0	300	300	0	0	1207	46	0	1	0	0	0	1	blank2r.bmp	0	1	GFVZ	0	1	blank2r.bmp	79	42	pic42.bmp	79	1	whitenoise.bmp	186	0	0	0	0	0	0	0	0	0	0	0	0	0	0	0	0	0	0	0	0	0	0	0	0	0	0	0	0	0	0	0	0	0	0	0	0	0	0	0
062018	17:04:48	5.0.12.0	56	associated	Rpleas_acq	Oppo	Lpleas	Bmasked	CS_B	2pleas	AMP_CSpleas	AMP1	6	7	0	0	300	300	0	0	592	46	0	1	0	0	0	1	blank2r.bmp	0	1	GFVZ	0	1	blank2r.bmp	79	17	pic17.bmp	79	1	whitenoise.bmp	186	0	0	0	0	0	0	0	0	0	0	0	0	0	0	0	0	0	0	0	0	0	0	0	0	0	0	0	0	0	0	0	0	0	0	0	0	0	0	0
062018	17:04:48	5.0.12.0	56	associated	Rpleas_acq	Oppo	Lpleas	Bmasked	CS_B	2pleas	AMP_CSpleas	AMP1	6	8	0	0	300	300	0	0	555	50	0	0	0	0	0	1	blank2r.bmp	0	1	GFVZ	0	1	blank2r.bmp	79	7	pic7.bmp	79	1	whitenoise.bmp	186	0	0	0	0	0	0	0	0	0	0	0	0	0	0	0	0	0	0	0	0	0	0	0	0	0	0	0	0	0	0	0	0	0	0	0	0	0	0	0
062018	17:04:48	5.0.12.0	56	associated	Rpleas_acq	Oppo	Lpleas	Bmasked	CS_B	2pleas	AMP_CSpleas	AMP1	6	9	0	0	300	300	0	0	557	46	0	1	0	0	0	1	blank2r.bmp	0	1	GFVZ	0	1	blank2r.bmp	79	15	pic15.bmp	79	1	whitenoise.bmp	186	0	0	0	0	0	0	0	0	0	0	0	0	0	0	0	0	0	0	0	0	0	0	0	0	0	0	0	0	0	0	0	0	0	0	0	0	0	0	0
062018	17:04:48	5.0.12.0	56	associated	Rpleas_acq	Oppo	Lpleas	Bmasked	CS_B	2pleas	AMP_CSunple	AMP1	6	10	0	0	300	300	0	0	767	46	0	0	0	0	0	1	blank2r.bmp	0	1	BXCP	0	1	blank2r.bmp	79	50	pic50.bmp	79	1	whitenoise.bmp	186	0	0	0	0	0	0	0	0	0	0	0	0	0	0	0	0	0	0	0	0	0	0	0	0	0	0	0	0	0	0	0	0	0	0	0	0	0	0	0
062018	17:04:48	5.0.12.0	56	associated	Rpleas_acq	Oppo	Lpleas	Bmasked	CS_B	2pleas	AMP_CSunple	AMP1	6	11	0	0	300	300	0	0	799	46	0	0	0	0	0	1	blank2r.bmp	0	1	BXCP	0	1	blank2r.bmp	79	31	pic31.bmp	79	1	whitenoise.bmp	186	0	0	0	0	0	0	0	0	0	0	0	0	0	0	0	0	0	0	0	0	0	0	0	0	0	0	0	0	0	0	0	0	0	0	0	0	0	0	0
062018	17:04:48	5.0.12.0	56	associated	Rpleas_acq	Oppo	Lpleas	Bmasked	CS_B	2pleas	AMP_CSpleas	AMP1	6	12	0	0	300	300	0	0	706	46	0	1	0	0	0	1	blank2r.bmp	0	1	GFVZ	0	1	blank2r.bmp	79	95	pic95.bmp	79	1	whitenoise.bmp	186	0	0	0	0	0	0	0	0	0	0	0	0	0	0	0	0	0	0	0	0	0	0	0	0	0	0	0	0	0	0	0	0	0	0	0	0	0	0	0
062018	17:04:48	5.0.12.0	56	associated	Rpleas_acq	Oppo	Lpleas	Bmasked	CS_B	2pleas	AMP_CSpleas	AMP1	6	13	0	0	300	300	0	0	533	46	0	1	0	0	0	1	blank2r.bmp	0	1	GFVZ	0	1	blank2r.bmp	79	97	pic97.bmp	79	1	whitenoise.bmp	186	0	0	0	0	0	0	0	0	0	0	0	0	0	0	0	0	0	0	0	0	0	0	0	0	0	0	0	0	0	0	0	0	0	0	0	0	0	0	0
062018	17:04:48	5.0.12.0	56	associated	Rpleas_acq	Oppo	Lpleas	Bmasked	CS_B	2pleas	AMP_CSunple	AMP1	6	14	0	0	300	300	0	0	692	46	0	0	0	0	0	1	blank2r.bmp	0	1	BXCP	0	1	blank2r.bmp	79	73	pic73.bmp	79	1	whitenoise.bmp	186	0	0	0	0	0	0	0	0	0	0	0	0	0	0	0	0	0	0	0	0	0	0	0	0	0	0	0	0	0	0	0	0	0	0	0	0	0	0	0
062018	17:04:48	5.0.12.0	56	associated	Rpleas_acq	Oppo	Lpleas	Bmasked	CS_B	2pleas	AMP_CSpleas	AMP1	6	15	0	0	300	300	0	0	497	46	0	1	0	0	0	1	blank2r.bmp	0	1	GFVZ	0	1	blank2r.bmp	79	49	pic49.bmp	79	1	whitenoise.bmp	186	0	0	0	0	0	0	0	0	0	0	0	0	0	0	0	0	0	0	0	0	0	0	0	0	0	0	0	0	0	0	0	0	0	0	0	0	0	0	0
062018	17:04:48	5.0.12.0	56	associated	Rpleas_acq	Oppo	Lpleas	Bmasked	CS_B	2pleas	AMP_CSpleas	AMP1	6	16	0	0	300	300	0	0	505	46	0	1	0	0	0	1	blank2r.bmp	0	1	GFVZ	0	1	blank2r.bmp	79	52	pic52.bmp	79	1	whitenoise.bmp	186	0	0	0	0	0	0	0	0	0	0	0	0	0	0	0	0	0	0	0	0	0	0	0	0	0	0	0	0	0	0	0	0	0	0	0	0	0	0	0
062018	17:04:48	5.0.12.0	56	associated	Rpleas_acq	Oppo	Lpleas	Bmasked	CS_B	2pleas	AMP_CSunple	AMP1	6	17	0	0	300	300	0	0	512	46	0	0	0	0	0	1	blank2r.bmp	0	1	BXCP	0	1	blank2r.bmp	79	8	pic8.bmp	79	1	whitenoise.bmp	186	0	0	0	0	0	0	0	0	0	0	0	0	0	0	0	0	0	0	0	0	0	0	0	0	0	0	0	0	0	0	0	0	0	0	0	0	0	0	0
062018	17:04:48	5.0.12.0	56	associated	Rpleas_acq	Oppo	Lpleas	Bmasked	CS_B	2pleas	AMP_CSunple	AMP1	6	18	0	0	300	300	0	0	458	46	0	0	0	0	0	1	blank2r.bmp	0	1	BXCP	0	1	blank2r.bmp	79	27	pic27.bmp	79	1	whitenoise.bmp	186	0	0	0	0	0	0	0	0	0	0	0	0	0	0	0	0	0	0	0	0	0	0	0	0	0	0	0	0	0	0	0	0	0	0	0	0	0	0	0
062018	17:04:48	5.0.12.0	56	associated	Rpleas_acq	Oppo	Lpleas	Bmasked	CS_B	2pleas	AMP_CSunple	AMP1	6	19	0	0	300	300	0	0	521	46	0	0	0	0	0	1	blank2r.bmp	0	1	BXCP	0	1	blank2r.bmp	79	68	pic68.bmp	79	1	whitenoise.bmp	186	0	0	0	0	0	0	0	0	0	0	0	0	0	0	0	0	0	0	0	0	0	0	0	0	0	0	0	0	0	0	0	0	0	0	0	0	0	0	0
062018	17:04:48	5.0.12.0	56	associated	Rpleas_acq	Oppo	Lpleas	Bmasked	CS_B	2pleas	AMP_CSpleas	AMP1	6	20	0	0	300	300	0	0	659	50	0	0	0	0	0	1	blank2r.bmp	0	1	GFVZ	0	1	blank2r.bmp	79	5	pic5.bmp	79	1	whitenoise.bmp	186	0	0	0	0	0	0	0	0	0	0	0	0	0	0	0	0	0	0	0	0	0	0	0	0	0	0	0	0	0	0	0	0	0	0	0	0	0	0	0
062018	17:04:48	5.0.12.0	56	associated	Rpleas_acq	Oppo	Lpleas	Bmasked	CS_B	2pleas	AMP_CSunple	AMP1	6	21	0	0	300	300	0	0	539	46	0	0	0	0	0	1	blank2r.bmp	0	1	BXCP	0	1	blank2r.bmp	79	34	pic34.bmp	79	1	whitenoise.bmp	186	0	0	0	0	0	0	0	0	0	0	0	0	0	0	0	0	0	0	0	0	0	0	0	0	0	0	0	0	0	0	0	0	0	0	0	0	0	0	0
062018	17:04:48	5.0.12.0	56	associated	Rpleas_acq	Oppo	Lpleas	Bmasked	CS_B	2pleas	AMP_CSunple	AMP1	6	22	0	0	300	300	0	0	522	46	0	0	0	0	0	1	blank2r.bmp	0	1	BXCP	0	1	blank2r.bmp	79	18	pic18.bmp	79	1	whitenoise.bmp	186	0	0	0	0	0	0	0	0	0	0	0	0	0	0	0	0	0	0	0	0	0	0	0	0	0	0	0	0	0	0	0	0	0	0	0	0	0	0	0
062018	17:04:48	5.0.12.0	56	associated	Rpleas_acq	Oppo	Lpleas	Bmasked	CS_B	2pleas	AMP_CSpleas	AMP1	6	23	0	0	300	300	0	0	487	46	0	1	0	0	0	1	blank2r.bmp	0	1	GFVZ	0	1	blank2r.bmp	79	24	pic24.bmp	79	1	whitenoise.bmp	186	0	0	0	0	0	0	0	0	0	0	0	0	0	0	0	0	0	0	0	0	0	0	0	0	0	0	0	0	0	0	0	0	0	0	0	0	0	0	0
062018	17:04:48	5.0.12.0	56	associated	Rpleas_acq	Oppo	Lpleas	Bmasked	CS_B	2pleas	AMP_CSunple	AMP1	6	24	0	0	300	300	0	0	444	46	0	0	0	0	0	1	blank2r.bmp	0	1	BXCP	0	1	blank2r.bmp	79	1	pic1.bmp	79	1	whitenoise.bmp	186	0	0	0	0	0	0	0	0	0	0	0	0	0	0	0	0	0	0	0	0	0	0	0	0	0	0	0	0	0	0	0	0	0	0	0	0	0	0	0
062018	17:04:48	5.0.12.0	56	associated	Rpleas_acq	Oppo	Lpleas	Bmasked	CS_B	2pleas	AMP_CSunple	AMP1	6	25	0	0	300	300	0	0	552	46	0	0	0	0	0	1	blank2r.bmp	0	1	BXCP	0	1	blank2r.bmp	79	63	pic63.bmp	79	1	whitenoise.bmp	186	0	0	0	0	0	0	0	0	0	0	0	0	0	0	0	0	0	0	0	0	0	0	0	0	0	0	0	0	0	0	0	0	0	0	0	0	0	0	0
062018	17:04:48	5.0.12.0	56	associated	Rpleas_acq	Oppo	Lpleas	Bmasked	CS_B	2pleas	AMP_CSunple	AMP1	6	26	0	0	300	300	0	0	442	46	0	0	0	0	0	1	blank2r.bmp	0	1	BXCP	0	1	blank2r.bmp	79	61	pic61.bmp	79	1	whitenoise.bmp	186	0	0	0	0	0	0	0	0	0	0	0	0	0	0	0	0	0	0	0	0	0	0	0	0	0	0	0	0	0	0	0	0	0	0	0	0	0	0	0
062018	17:04:48	5.0.12.0	56	associated	Rpleas_acq	Oppo	Lpleas	Bmasked	CS_B	2pleas	AMP_CSpleas	AMP1	6	27	0	0	300	300	0	0	502	50	0	0	0	0	0	1	blank2r.bmp	0	1	GFVZ	0	1	blank2r.bmp	79	46	pic46.bmp	79	1	whitenoise.bmp	186	0	0	0	0	0	0	0	0	0	0	0	0	0	0	0	0	0	0	0	0	0	0	0	0	0	0	0	0	0	0	0	0	0	0	0	0	0	0	0
062018	17:04:48	5.0.12.0	56	associated	Rpleas_acq	Oppo	Lpleas	Bmasked	CS_B	2pleas	AMP_CSpleas	AMP1	6	28	0	0	300	300	0	0	574	46	0	1	0	0	0	1	blank2r.bmp	0	1	GFVZ	0	1	blank2r.bmp	79	29	pic29.bmp	79	1	whitenoise.bmp	186	0	0	0	0	0	0	0	0	0	0	0	0	0	0	0	0	0	0	0	0	0	0	0	0	0	0	0	0	0	0	0	0	0	0	0	0	0	0	0
062018	17:04:48	5.0.12.0	56	associated	Rpleas_acq	Oppo	Lpleas	Bmasked	CS_B	2pleas	AMP_CSpleas	AMP1	6	29	0	0	300	300	0	0	434	46	0	1	0	0	0	1	blank2r.bmp	0	1	GFVZ	0	1	blank2r.bmp	79	16	pic16.bmp	79	1	whitenoise.bmp	186	0	0	0	0	0	0	0	0	0	0	0	0	0	0	0	0	0	0	0	0	0	0	0	0	0	0	0	0	0	0	0	0	0	0	0	0	0	0	0
062018	17:04:48	5.0.12.0	56	associated	Rpleas_acq	Oppo	Lpleas	Bmasked	CS_B	2pleas	AMP_CSunple	AMP1	6	30	0	0	300	300	0	0	540	46	0	0	0	0	0	1	blank2r.bmp	0	1	BXCP	0	1	blank2r.bmp	79	74	pic74.bmp	79	1	whitenoise.bmp	186	0	0	0	0	0	0	0	0	0	0	0	0	0	0	0	0	0	0	0	0	0	0	0	0	0	0	0	0	0	0	0	0	0	0	0	0	0	0	0
062018	17:04:48	5.0.12.0	56	associated	Rpleas_acq	Oppo	Lpleas	Bmasked	CS_B	2pleas	AMP_CSpleas	AMP1	6	31	0	0	300	300	0	0	636	50	0	0	0	0	0	1	blank2r.bmp	0	1	GFVZ	0	1	blank2r.bmp	79	32	pic32.bmp	79	1	whitenoise.bmp	186	0	0	0	0	0	0	0	0	0	0	0	0	0	0	0	0	0	0	0	0	0	0	0	0	0	0	0	0	0	0	0	0	0	0	0	0	0	0	0
062018	17:04:48	5.0.12.0	56	associated	Rpleas_acq	Oppo	Lpleas	Bmasked	CS_B	2pleas	AMP_CSpleas	AMP1	6	32	0	0	300	300	0	0	465	46	0	1	0	0	0	1	blank2r.bmp	0	1	GFVZ	0	1	blank2r.bmp	79	92	pic92.bmp	79	1	whitenoise.bmp	186	0	0	0	0	0	0	0	0	0	0	0	0	0	0	0	0	0	0	0	0	0	0	0	0	0	0	0	0	0	0	0	0	0	0	0	0	0	0	0
062018	17:04:48	5.0.12.0	56	associated	Rpleas_acq	Oppo	Lpleas	Bmasked	CS_B	2pleas	AMP_CSunple	AMP1	6	33	0	0	300	300	0	0	770	50	0	1	0	0	0	1	blank2r.bmp	0	1	BXCP	0	1	blank2r.bmp	79	43	pic43.bmp	79	1	whitenoise.bmp	186	0	0	0	0	0	0	0	0	0	0	0	0	0	0	0	0	0	0	0	0	0	0	0	0	0	0	0	0	0	0	0	0	0	0	0	0	0	0	0
062018	17:04:48	5.0.12.0	56	associated	Rpleas_acq	Oppo	Lpleas	Bmasked	CS_B	2pleas	AMP_CSunple	AMP1	6	34	0	0	300	300	0	0	384	46	0	0	0	0	0	1	blank2r.bmp	0	1	BXCP	0	1	blank2r.bmp	79	96	pic96.bmp	79	1	whitenoise.bmp	186	0	0	0	0	0	0	0	0	0	0	0	0	0	0	0	0	0	0	0	0	0	0	0	0	0	0	0	0	0	0	0	0	0	0	0	0	0	0	0
062018	17:04:48	5.0.12.0	56	associated	Rpleas_acq	Oppo	Lpleas	Bmasked	CS_B	2pleas	AMP_CSunple	AMP1	6	35	0	0	300	300	0	0	463	46	0	0	0	0	0	1	blank2r.bmp	0	1	BXCP	0	1	blank2r.bmp	79	60	pic60.bmp	79	1	whitenoise.bmp	186	0	0	0	0	0	0	0	0	0	0	0	0	0	0	0	0	0	0	0	0	0	0	0	0	0	0	0	0	0	0	0	0	0	0	0	0	0	0	0
062018	17:04:48	5.0.12.0	56	associated	Rpleas_acq	Oppo	Lpleas	Bmasked	CS_B	2pleas	AMP_CSunple	AMP1	6	36	0	0	300	300	0	0	318	50	0	1	0	0	0	1	blank2r.bmp	0	1	BXCP	0	1	blank2r.bmp	79	3	pic3.bmp	79	1	whitenoise.bmp	186	0	0	0	0	0	0	0	0	0	0	0	0	0	0	0	0	0	0	0	0	0	0	0	0	0	0	0	0	0	0	0	0	0	0	0	0	0	0	0
062018	17:04:48	5.0.12.0	56	associated	Rpleas_acq	Oppo	Lpleas	Bmasked	CS_B	2pleas	AMP_CSpleas	AMP1	6	37	0	0	300	300	0	0	274	46	0	1	0	0	0	1	blank2r.bmp	0	1	GFVZ	0	1	blank2r.bmp	79	12	pic12.bmp	79	1	whitenoise.bmp	186	0	0	0	0	0	0	0	0	0	0	0	0	0	0	0	0	0	0	0	0	0	0	0	0	0	0	0	0	0	0	0	0	0	0	0	0	0	0	0
062018	17:04:48	5.0.12.0	56	associated	Rpleas_acq	Oppo	Lpleas	Bmasked	CS_B	2pleas	AMP_CSpleas	AMP1	6	38	0	0	300	300	0	0	238	46	0	1	0	0	0	1	blank2r.bmp	0	1	GFVZ	0	1	blank2r.bmp	79	44	pic44.bmp	79	1	whitenoise.bmp	186	0	0	0	0	0	0	0	0	0	0	0	0	0	0	0	0	0	0	0	0	0	0	0	0	0	0	0	0	0	0	0	0	0	0	0	0	0	0	0
062018	17:04:48	5.0.12.0	56	associated	Rpleas_acq	Oppo	Lpleas	Bmasked	CS_B	2pleas	AMP_CSunple	AMP1	6	39	0	0	300	300	0	0	287	50	0	1	0	0	0	1	blank2r.bmp	0	1	BXCP	0	1	blank2r.bmp	79	2	pic2.bmp	79	1	whitenoise.bmp	186	0	0	0	0	0	0	0	0	0	0	0	0	0	0	0	0	0	0	0	0	0	0	0	0	0	0	0	0	0	0	0	0	0	0	0	0	0	0	0
062018	17:04:48	5.0.12.0	56	associated	Rpleas_acq	Oppo	Lpleas	Bmasked	CS_B	2pleas	AMP_CSunple	AMP1	6	40	0	0	300	300	0	0	475	46	0	0	0	0	0	1	blank2r.bmp	0	1	BXCP	0	1	blank2r.bmp	79	82	pic82.bmp	79	1	whitenoise.bmp	186	0	0	0	0	0	0	0	0	0	0	0	0	0	0	0	0	0	0	0	0	0	0	0	0	0	0	0	0	0	0	0	0	0	0	0	0	0	0	0
062018	17:04:48	5.0.12.0	56	associated	Rpleas_acq	Oppo	Lpleas	Bmasked	CS_B	2pleas	AMP_CSunple	AMP1	6	41	0	0	300	300	0	0	572	46	0	0	0	0	0	1	blank2r.bmp	0	1	BXCP	0	1	blank2r.bmp	79	79	pic79.bmp	79	1	whitenoise.bmp	186	0	0	0	0	0	0	0	0	0	0	0	0	0	0	0	0	0	0	0	0	0	0	0	0	0	0	0	0	0	0	0	0	0	0	0	0	0	0	0
062018	17:04:48	5.0.12.0	56	associated	Rpleas_acq	Oppo	Lpleas	Bmasked	CS_B	2pleas	AMP_CSpleas	AMP1	6	42	0	0	300	300	0	0	593	46	0	1	0	0	0	1	blank2r.bmp	0	1	GFVZ	0	1	blank2r.bmp	79	25	pic25.bmp	79	1	whitenoise.bmp	186	0	0	0	0	0	0	0	0	0	0	0	0	0	0	0	0	0	0	0	0	0	0	0	0	0	0	0	0	0	0	0	0	0	0	0	0	0	0	0
062018	17:04:48	5.0.12.0	56	associated	Rpleas_acq	Oppo	Lpleas	Bmasked	CS_B	2pleas	AMP_CSpleas	AMP1	6	43	0	0	300	300	0	0	459	46	0	1	0	0	0	1	blank2r.bmp	0	1	GFVZ	0	1	blank2r.bmp	79	81	pic81.bmp	79	1	whitenoise.bmp	186	0	0	0	0	0	0	0	0	0	0	0	0	0	0	0	0	0	0	0	0	0	0	0	0	0	0	0	0	0	0	0	0	0	0	0	0	0	0	0
062018	17:04:48	5.0.12.0	56	associated	Rpleas_acq	Oppo	Lpleas	Bmasked	CS_B	2pleas	AMP_CSpleas	AMP1	6	44	0	0	300	300	0	0	443	46	0	1	0	0	0	1	blank2r.bmp	0	1	GFVZ	0	1	blank2r.bmp	79	57	pic57.bmp	79	1	whitenoise.bmp	186	0	0	0	0	0	0	0	0	0	0	0	0	0	0	0	0	0	0	0	0	0	0	0	0	0	0	0	0	0	0	0	0	0	0	0	0	0	0	0
062018	17:04:48	5.0.12.0	56	associated	Rpleas_acq	Oppo	Lpleas	Bmasked	CS_B	2pleas	AMP_CSpleas	AMP1	6	45	0	0	300	300	0	0	420	50	0	0	0	0	0	1	blank2r.bmp	0	1	GFVZ	0	1	blank2r.bmp	79	45	pic45.bmp	79	1	whitenoise.bmp	186	0	0	0	0	0	0	0	0	0	0	0	0	0	0	0	0	0	0	0	0	0	0	0	0	0	0	0	0	0	0	0	0	0	0	0	0	0	0	0
062018	17:04:48	5.0.12.0	56	associated	Rpleas_acq	Oppo	Lpleas	Bmasked	CS_B	2pleas	AMP_CSpleas	AMP1	6	46	0	0	300	300	0	0	523	46	0	1	0	0	0	1	blank2r.bmp	0	1	GFVZ	0	1	blank2r.bmp	79	47	pic47.bmp	79	1	whitenoise.bmp	186	0	0	0	0	0	0	0	0	0	0	0	0	0	0	0	0	0	0	0	0	0	0	0	0	0	0	0	0	0	0	0	0	0	0	0	0	0	0	0
062018	17:04:48	5.0.12.0	56	associated	Rpleas_acq	Oppo	Lpleas	Bmasked	CS_B	2pleas	AMP_CSunple	AMP1	6	47	0	0	300	300	0	0	533	50	0	1	0	0	0	1	blank2r.bmp	0	1	BXCP	0	1	blank2r.bmp	79	72	pic72.bmp	79	1	whitenoise.bmp	186	0	0	0	0	0	0	0	0	0	0	0	0	0	0	0	0	0	0	0	0	0	0	0	0	0	0	0	0	0	0	0	0	0	0	0	0	0	0	0
062018	17:04:48	5.0.12.0	56	associated	Rpleas_acq	Oppo	Lpleas	Bmasked	CS_B	2pleas	AMP_CSpleas	AMP1	6	48	0	0	300	300	0	0	450	46	0	1	0	0	0	1	blank2r.bmp	0	1	GFVZ	0	1	blank2r.bmp	79	19	pic19.bmp	79	1	whitenoise.bmp	186	0	0	0	0	0	0	0	0	0	0	0	0	0	0	0	0	0	0	0	0	0	0	0	0	0	0	0	0	0	0	0	0	0	0	0	0	0	0	0
062018	17:04:48	5.0.12.0	56	associated	Rpleas_acq	Oppo	Lpleas	Bmasked	CS_B	2pleas	AMP_CSunple	AMP1	6	49	0	0	300	300	0	0	686	46	0	0	0	0	0	1	blank2r.bmp	0	1	BXCP	0	1	blank2r.bmp	79	99	pic99.bmp	79	1	whitenoise.bmp	186	0	0	0	0	0	0	0	0	0	0	0	0	0	0	0	0	0	0	0	0	0	0	0	0	0	0	0	0	0	0	0	0	0	0	0	0	0	0	0
062018	17:04:48	5.0.12.0	56	associated	Rpleas_acq	Oppo	Lpleas	Bmasked	CS_B	2pleas	AMP_CSpleas	AMP1	6	50	0	0	300	300	0	0	603	46	0	1	0	0	0	1	blank2r.bmp	0	1	GFVZ	0	1	blank2r.bmp	79	9	pic9.bmp	79	1	whitenoise.bmp	186	0	0	0	0	0	0	0	0	0	0	0	0	0	0	0	0	0	0	0	0	0	0	0	0	0	0	0	0	0	0	0	0	0	0	0	0	0	0	0
062018	17:04:48	5.0.12.0	56	associated	Rpleas_acq	Oppo	Lpleas	Bmasked	CS_B	2pleas	AMP_CSunple	AMP2	7	1	0	0	300	300	0	0	361	46	0	0	0	0	0	1	blank2r.bmp	0	1	BXCP	0	1	blank2r.bmp	79	48	pic48.bmp	79	1	whitenoise.bmp	186	0	0	0	0	0	0	0	0	0	0	0	0	0	0	0	0	0	0	0	0	0	0	0	0	0	0	0	0	0	0	0	0	0	0	0	0	0	0	0
062018	17:04:48	5.0.12.0	56	associated	Rpleas_acq	Oppo	Lpleas	Bmasked	CS_B	2pleas	AMP_CSunple	AMP2	7	2	0	0	300	300	0	0	421	46	0	0	0	0	0	1	blank2r.bmp	0	1	BXCP	0	1	blank2r.bmp	79	6	pic6.bmp	79	1	whitenoise.bmp	186	0	0	0	0	0	0	0	0	0	0	0	0	0	0	0	0	0	0	0	0	0	0	0	0	0	0	0	0	0	0	0	0	0	0	0	0	0	0	0
062018	17:04:48	5.0.12.0	56	associated	Rpleas_acq	Oppo	Lpleas	Bmasked	CS_B	2pleas	AMP_CSunple	AMP2	7	3	0	0	300	300	0	0	300	50	0	1	0	0	0	1	blank2r.bmp	0	1	BXCP	0	1	blank2r.bmp	79	65	pic65.bmp	79	1	whitenoise.bmp	186	0	0	0	0	0	0	0	0	0	0	0	0	0	0	0	0	0	0	0	0	0	0	0	0	0	0	0	0	0	0	0	0	0	0	0	0	0	0	0
062018	17:04:48	5.0.12.0	56	associated	Rpleas_acq	Oppo	Lpleas	Bmasked	CS_B	2pleas	AMP_CSunple	AMP2	7	4	0	0	300	300	0	0	584	50	0	1	0	0	0	1	blank2r.bmp	0	1	BXCP	0	1	blank2r.bmp	79	71	pic71.bmp	79	1	whitenoise.bmp	186	0	0	0	0	0	0	0	0	0	0	0	0	0	0	0	0	0	0	0	0	0	0	0	0	0	0	0	0	0	0	0	0	0	0	0	0	0	0	0
062018	17:04:48	5.0.12.0	56	associated	Rpleas_acq	Oppo	Lpleas	Bmasked	CS_B	2pleas	AMP_CSpleas	AMP2	7	5	0	0	300	300	0	0	450	46	0	1	0	0	0	1	blank2r.bmp	0	1	GFVZ	0	1	blank2r.bmp	79	33	pic33.bmp	79	1	whitenoise.bmp	186	0	0	0	0	0	0	0	0	0	0	0	0	0	0	0	0	0	0	0	0	0	0	0	0	0	0	0	0	0	0	0	0	0	0	0	0	0	0	0
062018	17:04:48	5.0.12.0	56	associated	Rpleas_acq	Oppo	Lpleas	Bmasked	CS_B	2pleas	AMP_CSunple	AMP2	7	6	0	0	300	300	0	0	449	46	0	0	0	0	0	1	blank2r.bmp	0	1	BXCP	0	1	blank2r.bmp	79	75	pic75.bmp	79	1	whitenoise.bmp	186	0	0	0	0	0	0	0	0	0	0	0	0	0	0	0	0	0	0	0	0	0	0	0	0	0	0	0	0	0	0	0	0	0	0	0	0	0	0	0
062018	17:04:48	5.0.12.0	56	associated	Rpleas_acq	Oppo	Lpleas	Bmasked	CS_B	2pleas	AMP_CSpleas	AMP2	7	7	0	0	300	300	0	0	384	46	0	1	0	0	0	1	blank2r.bmp	0	1	GFVZ	0	1	blank2r.bmp	79	26	pic26.bmp	79	1	whitenoise.bmp	186	0	0	0	0	0	0	0	0	0	0	0	0	0	0	0	0	0	0	0	0	0	0	0	0	0	0	0	0	0	0	0	0	0	0	0	0	0	0	0
062018	17:04:48	5.0.12.0	56	associated	Rpleas_acq	Oppo	Lpleas	Bmasked	CS_B	2pleas	AMP_CSpleas	AMP2	7	8	0	0	300	300	0	0	353	46	0	1	0	0	0	1	blank2r.bmp	0	1	GFVZ	0	1	blank2r.bmp	79	41	pic41.bmp	79	1	whitenoise.bmp	186	0	0	0	0	0	0	0	0	0	0	0	0	0	0	0	0	0	0	0	0	0	0	0	0	0	0	0	0	0	0	0	0	0	0	0	0	0	0	0
062018	17:04:48	5.0.12.0	56	associated	Rpleas_acq	Oppo	Lpleas	Bmasked	CS_B	2pleas	AMP_CSunple	AMP2	7	9	0	0	300	300	0	0	347	46	0	0	0	0	0	1	blank2r.bmp	0	1	BXCP	0	1	blank2r.bmp	79	13	pic13.bmp	79	1	whitenoise.bmp	186	0	0	0	0	0	0	0	0	0	0	0	0	0	0	0	0	0	0	0	0	0	0	0	0	0	0	0	0	0	0	0	0	0	0	0	0	0	0	0
062018	17:04:48	5.0.12.0	56	associated	Rpleas_acq	Oppo	Lpleas	Bmasked	CS_B	2pleas	AMP_CSpleas	AMP2	7	10	0	0	300	300	0	0	290	46	0	1	0	0	0	1	blank2r.bmp	0	1	GFVZ	0	1	blank2r.bmp	79	80	pic80.bmp	79	1	whitenoise.bmp	186	0	0	0	0	0	0	0	0	0	0	0	0	0	0	0	0	0	0	0	0	0	0	0	0	0	0	0	0	0	0	0	0	0	0	0	0	0	0	0
062018	17:04:48	5.0.12.0	56	associated	Rpleas_acq	Oppo	Lpleas	Bmasked	CS_B	2pleas	AMP_CSpleas	AMP2	7	11	0	0	300	300	0	0	285	46	0	1	0	0	0	1	blank2r.bmp	0	1	GFVZ	0	1	blank2r.bmp	79	70	pic70.bmp	79	1	whitenoise.bmp	186	0	0	0	0	0	0	0	0	0	0	0	0	0	0	0	0	0	0	0	0	0	0	0	0	0	0	0	0	0	0	0	0	0	0	0	0	0	0	0
062018	17:04:48	5.0.12.0	56	associated	Rpleas_acq	Oppo	Lpleas	Bmasked	CS_B	2pleas	AMP_CSunple	AMP2	7	12	0	0	300	300	0	0	297	46	0	0	0	0	0	1	blank2r.bmp	0	1	BXCP	0	1	blank2r.bmp	79	53	pic53.bmp	79	1	whitenoise.bmp	186	0	0	0	0	0	0	0	0	0	0	0	0	0	0	0	0	0	0	0	0	0	0	0	0	0	0	0	0	0	0	0	0	0	0	0	0	0	0	0
062018	17:04:48	5.0.12.0	56	associated	Rpleas_acq	Oppo	Lpleas	Bmasked	CS_B	2pleas	AMP_CSunple	AMP2	7	13	0	0	300	300	0	0	325	46	0	0	0	0	0	1	blank2r.bmp	0	1	BXCP	0	1	blank2r.bmp	79	10	pic10.bmp	79	1	whitenoise.bmp	186	0	0	0	0	0	0	0	0	0	0	0	0	0	0	0	0	0	0	0	0	0	0	0	0	0	0	0	0	0	0	0	0	0	0	0	0	0	0	0
062018	17:04:48	5.0.12.0	56	associated	Rpleas_acq	Oppo	Lpleas	Bmasked	CS_B	2pleas	AMP_CSunple	AMP2	7	14	0	0	300	300	0	0	297	46	0	0	0	0	0	1	blank2r.bmp	0	1	BXCP	0	1	blank2r.bmp	79	69	pic69.bmp	79	1	whitenoise.bmp	186	0	0	0	0	0	0	0	0	0	0	0	0	0	0	0	0	0	0	0	0	0	0	0	0	0	0	0	0	0	0	0	0	0	0	0	0	0	0	0
062018	17:04:48	5.0.12.0	56	associated	Rpleas_acq	Oppo	Lpleas	Bmasked	CS_B	2pleas	AMP_CSpleas	AMP2	7	15	0	0	300	300	0	0	231	46	0	1	0	0	0	1	blank2r.bmp	0	1	GFVZ	0	1	blank2r.bmp	79	21	pic21.bmp	79	1	whitenoise.bmp	186	0	0	0	0	0	0	0	0	0	0	0	0	0	0	0	0	0	0	0	0	0	0	0	0	0	0	0	0	0	0	0	0	0	0	0	0	0	0	0
062018	17:04:48	5.0.12.0	56	associated	Rpleas_acq	Oppo	Lpleas	Bmasked	CS_B	2pleas	AMP_CSpleas	AMP2	7	16	0	0	300	300	0	0	326	46	0	1	0	0	0	1	blank2r.bmp	0	1	GFVZ	0	1	blank2r.bmp	79	38	pic38.bmp	79	1	whitenoise.bmp	186	0	0	0	0	0	0	0	0	0	0	0	0	0	0	0	0	0	0	0	0	0	0	0	0	0	0	0	0	0	0	0	0	0	0	0	0	0	0	0
062018	17:04:48	5.0.12.0	56	associated	Rpleas_acq	Oppo	Lpleas	Bmasked	CS_B	2pleas	AMP_CSunple	AMP2	7	17	0	0	300	300	0	0	378	46	0	0	0	0	0	1	blank2r.bmp	0	1	BXCP	0	1	blank2r.bmp	79	91	pic91.bmp	79	1	whitenoise.bmp	186	0	0	0	0	0	0	0	0	0	0	0	0	0	0	0	0	0	0	0	0	0	0	0	0	0	0	0	0	0	0	0	0	0	0	0	0	0	0	0
062018	17:04:48	5.0.12.0	56	associated	Rpleas_acq	Oppo	Lpleas	Bmasked	CS_B	2pleas	AMP_CSunple	AMP2	7	18	0	0	300	300	0	0	313	46	0	0	0	0	0	1	blank2r.bmp	0	1	BXCP	0	1	blank2r.bmp	79	14	pic14.bmp	79	1	whitenoise.bmp	186	0	0	0	0	0	0	0	0	0	0	0	0	0	0	0	0	0	0	0	0	0	0	0	0	0	0	0	0	0	0	0	0	0	0	0	0	0	0	0
062018	17:04:48	5.0.12.0	56	associated	Rpleas_acq	Oppo	Lpleas	Bmasked	CS_B	2pleas	AMP_CSpleas	AMP2	7	19	0	0	300	300	0	0	394	46	0	1	0	0	0	1	blank2r.bmp	0	1	GFVZ	0	1	blank2r.bmp	79	11	pic11.bmp	79	1	whitenoise.bmp	186	0	0	0	0	0	0	0	0	0	0	0	0	0	0	0	0	0	0	0	0	0	0	0	0	0	0	0	0	0	0	0	0	0	0	0	0	0	0	0
062018	17:04:48	5.0.12.0	56	associated	Rpleas_acq	Oppo	Lpleas	Bmasked	CS_B	2pleas	AMP_CSunple	AMP2	7	20	0	0	300	300	0	0	364	46	0	0	0	0	0	1	blank2r.bmp	0	1	BXCP	0	1	blank2r.bmp	79	37	pic37.bmp	79	1	whitenoise.bmp	186	0	0	0	0	0	0	0	0	0	0	0	0	0	0	0	0	0	0	0	0	0	0	0	0	0	0	0	0	0	0	0	0	0	0	0	0	0	0	0
062018	17:04:48	5.0.12.0	56	associated	Rpleas_acq	Oppo	Lpleas	Bmasked	CS_B	2pleas	AMP_CSpleas	AMP2	7	21	0	0	300	300	0	0	280	50	0	0	0	0	0	1	blank2r.bmp	0	1	GFVZ	0	1	blank2r.bmp	79	55	pic55.bmp	79	1	whitenoise.bmp	186	0	0	0	0	0	0	0	0	0	0	0	0	0	0	0	0	0	0	0	0	0	0	0	0	0	0	0	0	0	0	0	0	0	0	0	0	0	0	0
062018	17:04:48	5.0.12.0	56	associated	Rpleas_acq	Oppo	Lpleas	Bmasked	CS_B	2pleas	AMP_CSunple	AMP2	7	22	0	0	300	300	0	0	385	46	0	0	0	0	0	1	blank2r.bmp	0	1	BXCP	0	1	blank2r.bmp	79	56	pic56.bmp	79	1	whitenoise.bmp	186	0	0	0	0	0	0	0	0	0	0	0	0	0	0	0	0	0	0	0	0	0	0	0	0	0	0	0	0	0	0	0	0	0	0	0	0	0	0	0
062018	17:04:48	5.0.12.0	56	associated	Rpleas_acq	Oppo	Lpleas	Bmasked	CS_B	2pleas	AMP_CSunple	AMP2	7	23	0	0	300	300	0	0	560	46	0	0	0	0	0	1	blank2r.bmp	0	1	BXCP	0	1	blank2r.bmp	79	84	pic84.bmp	79	1	whitenoise.bmp	186	0	0	0	0	0	0	0	0	0	0	0	0	0	0	0	0	0	0	0	0	0	0	0	0	0	0	0	0	0	0	0	0	0	0	0	0	0	0	0
062018	17:04:48	5.0.12.0	56	associated	Rpleas_acq	Oppo	Lpleas	Bmasked	CS_B	2pleas	AMP_CSunple	AMP2	7	24	0	0	300	300	0	0	626	50	0	1	0	0	0	1	blank2r.bmp	0	1	BXCP	0	1	blank2r.bmp	79	51	pic51.bmp	79	1	whitenoise.bmp	186	0	0	0	0	0	0	0	0	0	0	0	0	0	0	0	0	0	0	0	0	0	0	0	0	0	0	0	0	0	0	0	0	0	0	0	0	0	0	0
062018	17:04:48	5.0.12.0	56	associated	Rpleas_acq	Oppo	Lpleas	Bmasked	CS_B	2pleas	AMP_CSpleas	AMP2	7	25	0	0	300	300	0	0	292	46	0	1	0	0	0	1	blank2r.bmp	0	1	GFVZ	0	1	blank2r.bmp	79	94	pic94.bmp	79	1	whitenoise.bmp	186	0	0	0	0	0	0	0	0	0	0	0	0	0	0	0	0	0	0	0	0	0	0	0	0	0	0	0	0	0	0	0	0	0	0	0	0	0	0	0
062018	17:04:48	5.0.12.0	56	associated	Rpleas_acq	Oppo	Lpleas	Bmasked	CS_B	2pleas	AMP_CSpleas	AMP2	7	26	0	0	300	300	0	0	448	46	0	1	0	0	0	1	blank2r.bmp	0	1	GFVZ	0	1	blank2r.bmp	79	85	pic85.bmp	79	1	whitenoise.bmp	186	0	0	0	0	0	0	0	0	0	0	0	0	0	0	0	0	0	0	0	0	0	0	0	0	0	0	0	0	0	0	0	0	0	0	0	0	0	0	0
062018	17:04:48	5.0.12.0	56	associated	Rpleas_acq	Oppo	Lpleas	Bmasked	CS_B	2pleas	AMP_CSpleas	AMP2	7	27	0	0	300	300	0	0	668	50	0	0	0	0	0	1	blank2r.bmp	0	1	GFVZ	0	1	blank2r.bmp	79	59	pic59.bmp	79	1	whitenoise.bmp	186	0	0	0	0	0	0	0	0	0	0	0	0	0	0	0	0	0	0	0	0	0	0	0	0	0	0	0	0	0	0	0	0	0	0	0	0	0	0	0
062018	17:04:48	5.0.12.0	56	associated	Rpleas_acq	Oppo	Lpleas	Bmasked	CS_B	2pleas	AMP_CSunple	AMP2	7	28	0	0	300	300	0	0	551	46	0	0	0	0	0	1	blank2r.bmp	0	1	BXCP	0	1	blank2r.bmp	79	54	pic54.bmp	79	1	whitenoise.bmp	186	0	0	0	0	0	0	0	0	0	0	0	0	0	0	0	0	0	0	0	0	0	0	0	0	0	0	0	0	0	0	0	0	0	0	0	0	0	0	0
062018	17:04:48	5.0.12.0	56	associated	Rpleas_acq	Oppo	Lpleas	Bmasked	CS_B	2pleas	AMP_CSunple	AMP2	7	29	0	0	300	300	0	0	425	50	0	1	0	0	0	1	blank2r.bmp	0	1	BXCP	0	1	blank2r.bmp	79	28	pic28.bmp	79	1	whitenoise.bmp	186	0	0	0	0	0	0	0	0	0	0	0	0	0	0	0	0	0	0	0	0	0	0	0	0	0	0	0	0	0	0	0	0	0	0	0	0	0	0	0
062018	17:04:48	5.0.12.0	56	associated	Rpleas_acq	Oppo	Lpleas	Bmasked	CS_B	2pleas	AMP_CSunple	AMP2	7	30	0	0	300	300	0	0	594	50	0	1	0	0	0	1	blank2r.bmp	0	1	BXCP	0	1	blank2r.bmp	79	77	pic77.bmp	79	1	whitenoise.bmp	186	0	0	0	0	0	0	0	0	0	0	0	0	0	0	0	0	0	0	0	0	0	0	0	0	0	0	0	0	0	0	0	0	0	0	0	0	0	0	0
062018	17:04:48	5.0.12.0	56	associated	Rpleas_acq	Oppo	Lpleas	Bmasked	CS_B	2pleas	AMP_CSpleas	AMP2	7	31	0	0	300	300	0	0	477	46	0	1	0	0	0	1	blank2r.bmp	0	1	GFVZ	0	1	blank2r.bmp	79	30	pic30.bmp	79	1	whitenoise.bmp	186	0	0	0	0	0	0	0	0	0	0	0	0	0	0	0	0	0	0	0	0	0	0	0	0	0	0	0	0	0	0	0	0	0	0	0	0	0	0	0
062018	17:04:48	5.0.12.0	56	associated	Rpleas_acq	Oppo	Lpleas	Bmasked	CS_B	2pleas	AMP_CSpleas	AMP2	7	32	0	0	300	300	0	0	479	46	0	1	0	0	0	1	blank2r.bmp	0	1	GFVZ	0	1	blank2r.bmp	79	66	pic66.bmp	79	1	whitenoise.bmp	186	0	0	0	0	0	0	0	0	0	0	0	0	0	0	0	0	0	0	0	0	0	0	0	0	0	0	0	0	0	0	0	0	0	0	0	0	0	0	0
062018	17:04:48	5.0.12.0	56	associated	Rpleas_acq	Oppo	Lpleas	Bmasked	CS_B	2pleas	AMP_CSpleas	AMP2	7	33	0	0	300	300	0	0	256	50	0	0	0	0	0	1	blank2r.bmp	0	1	GFVZ	0	1	blank2r.bmp	79	93	pic93.bmp	79	1	whitenoise.bmp	186	0	0	0	0	0	0	0	0	0	0	0	0	0	0	0	0	0	0	0	0	0	0	0	0	0	0	0	0	0	0	0	0	0	0	0	0	0	0	0
062018	17:04:48	5.0.12.0	56	associated	Rpleas_acq	Oppo	Lpleas	Bmasked	CS_B	2pleas	AMP_CSunple	AMP2	7	34	0	0	300	300	0	0	455	46	0	0	0	0	0	1	blank2r.bmp	0	1	BXCP	0	1	blank2r.bmp	79	88	pic88.bmp	79	1	whitenoise.bmp	186	0	0	0	0	0	0	0	0	0	0	0	0	0	0	0	0	0	0	0	0	0	0	0	0	0	0	0	0	0	0	0	0	0	0	0	0	0	0	0
062018	17:04:48	5.0.12.0	56	associated	Rpleas_acq	Oppo	Lpleas	Bmasked	CS_B	2pleas	AMP_CSpleas	AMP2	7	35	0	0	300	300	0	0	422	46	0	1	0	0	0	1	blank2r.bmp	0	1	GFVZ	0	1	blank2r.bmp	79	90	pic90.bmp	79	1	whitenoise.bmp	186	0	0	0	0	0	0	0	0	0	0	0	0	0	0	0	0	0	0	0	0	0	0	0	0	0	0	0	0	0	0	0	0	0	0	0	0	0	0	0
062018	17:04:48	5.0.12.0	56	associated	Rpleas_acq	Oppo	Lpleas	Bmasked	CS_B	2pleas	AMP_CSpleas	AMP2	7	36	0	0	300	300	0	0	320	46	0	1	0	0	0	1	blank2r.bmp	0	1	GFVZ	0	1	blank2r.bmp	79	89	pic89.bmp	79	1	whitenoise.bmp	186	0	0	0	0	0	0	0	0	0	0	0	0	0	0	0	0	0	0	0	0	0	0	0	0	0	0	0	0	0	0	0	0	0	0	0	0	0	0	0
062018	17:04:48	5.0.12.0	56	associated	Rpleas_acq	Oppo	Lpleas	Bmasked	CS_B	2pleas	AMP_CSpleas	AMP2	7	37	0	0	300	300	0	0	273	50	0	0	0	0	0	1	blank2r.bmp	0	1	GFVZ	0	1	blank2r.bmp	79	100	pic100.bmp	79	1	whitenoise.bmp	186	0	0	0	0	0	0	0	0	0	0	0	0	0	0	0	0	0	0	0	0	0	0	0	0	0	0	0	0	0	0	0	0	0	0	0	0	0	0	0
062018	17:04:48	5.0.12.0	56	associated	Rpleas_acq	Oppo	Lpleas	Bmasked	CS_B	2pleas	AMP_CSunple	AMP2	7	38	0	0	300	300	0	0	378	46	0	0	0	0	0	1	blank2r.bmp	0	1	BXCP	0	1	blank2r.bmp	79	78	pic78.bmp	79	1	whitenoise.bmp	186	0	0	0	0	0	0	0	0	0	0	0	0	0	0	0	0	0	0	0	0	0	0	0	0	0	0	0	0	0	0	0	0	0	0	0	0	0	0	0
062018	17:04:48	5.0.12.0	56	associated	Rpleas_acq	Oppo	Lpleas	Bmasked	CS_B	2pleas	AMP_CSunple	AMP2	7	39	0	0	300	300	0	0	441	46	0	0	0	0	0	1	blank2r.bmp	0	1	BXCP	0	1	blank2r.bmp	79	40	pic40.bmp	79	1	whitenoise.bmp	186	0	0	0	0	0	0	0	0	0	0	0	0	0	0	0	0	0	0	0	0	0	0	0	0	0	0	0	0	0	0	0	0	0	0	0	0	0	0	0
062018	17:04:48	5.0.12.0	56	associated	Rpleas_acq	Oppo	Lpleas	Bmasked	CS_B	2pleas	AMP_CSunple	AMP2	7	40	0	0	300	300	0	0	613	46	0	0	0	0	0	1	blank2r.bmp	0	1	BXCP	0	1	blank2r.bmp	79	35	pic35.bmp	79	1	whitenoise.bmp	186	0	0	0	0	0	0	0	0	0	0	0	0	0	0	0	0	0	0	0	0	0	0	0	0	0	0	0	0	0	0	0	0	0	0	0	0	0	0	0
062018	17:04:48	5.0.12.0	56	associated	Rpleas_acq	Oppo	Lpleas	Bmasked	CS_B	2pleas	AMP_CSpleas	AMP2	7	41	0	0	300	300	0	0	562	50	0	0	0	0	0	1	blank2r.bmp	0	1	GFVZ	0	1	blank2r.bmp	79	76	pic76.bmp	79	1	whitenoise.bmp	186	0	0	0	0	0	0	0	0	0	0	0	0	0	0	0	0	0	0	0	0	0	0	0	0	0	0	0	0	0	0	0	0	0	0	0	0	0	0	0
062018	17:04:48	5.0.12.0	56	associated	Rpleas_acq	Oppo	Lpleas	Bmasked	CS_B	2pleas	AMP_CSunple	AMP2	7	42	0	0	300	300	0	0	244	46	0	0	0	0	0	1	blank2r.bmp	0	1	BXCP	0	1	blank2r.bmp	79	23	pic23.bmp	79	1	whitenoise.bmp	186	0	0	0	0	0	0	0	0	0	0	0	0	0	0	0	0	0	0	0	0	0	0	0	0	0	0	0	0	0	0	0	0	0	0	0	0	0	0	0
062018	17:04:48	5.0.12.0	56	associated	Rpleas_acq	Oppo	Lpleas	Bmasked	CS_B	2pleas	AMP_CSpleas	AMP2	7	43	0	0	300	300	0	0	360	46	0	1	0	0	0	1	blank2r.bmp	0	1	GFVZ	0	1	blank2r.bmp	79	36	pic36.bmp	79	1	whitenoise.bmp	186	0	0	0	0	0	0	0	0	0	0	0	0	0	0	0	0	0	0	0	0	0	0	0	0	0	0	0	0	0	0	0	0	0	0	0	0	0	0	0
062018	17:04:48	5.0.12.0	56	associated	Rpleas_acq	Oppo	Lpleas	Bmasked	CS_B	2pleas	AMP_CSpleas	AMP2	7	44	0	0	300	300	0	0	324	46	0	1	0	0	0	1	blank2r.bmp	0	1	GFVZ	0	1	blank2r.bmp	79	62	pic62.bmp	79	1	whitenoise.bmp	186	0	0	0	0	0	0	0	0	0	0	0	0	0	0	0	0	0	0	0	0	0	0	0	0	0	0	0	0	0	0	0	0	0	0	0	0	0	0	0
062018	17:04:48	5.0.12.0	56	associated	Rpleas_acq	Oppo	Lpleas	Bmasked	CS_B	2pleas	AMP_CSunple	AMP2	7	45	0	0	300	300	0	0	328	46	0	0	0	0	0	1	blank2r.bmp	0	1	BXCP	0	1	blank2r.bmp	79	20	pic20.bmp	79	1	whitenoise.bmp	186	0	0	0	0	0	0	0	0	0	0	0	0	0	0	0	0	0	0	0	0	0	0	0	0	0	0	0	0	0	0	0	0	0	0	0	0	0	0	0
062018	17:04:48	5.0.12.0	56	associated	Rpleas_acq	Oppo	Lpleas	Bmasked	CS_B	2pleas	AMP_CSpleas	AMP2	7	46	0	0	300	300	0	0	303	50	0	0	0	0	0	1	blank2r.bmp	0	1	GFVZ	0	1	blank2r.bmp	79	4	pic4.bmp	79	1	whitenoise.bmp	186	0	0	0	0	0	0	0	0	0	0	0	0	0	0	0	0	0	0	0	0	0	0	0	0	0	0	0	0	0	0	0	0	0	0	0	0	0	0	0
062018	17:04:48	5.0.12.0	56	associated	Rpleas_acq	Oppo	Lpleas	Bmasked	CS_B	2pleas	AMP_CSpleas	AMP2	7	47	0	0	300	300	0	0	269	46	0	1	0	0	0	1	blank2r.bmp	0	1	GFVZ	0	1	blank2r.bmp	79	86	pic86.bmp	79	1	whitenoise.bmp	186	0	0	0	0	0	0	0	0	0	0	0	0	0	0	0	0	0	0	0	0	0	0	0	0	0	0	0	0	0	0	0	0	0	0	0	0	0	0	0
062018	17:04:48	5.0.12.0	56	associated	Rpleas_acq	Oppo	Lpleas	Bmasked	CS_B	2pleas	AMP_CSpleas	AMP2	7	48	0	0	300	300	0	0	167	50	0	0	0	0	0	1	blank2r.bmp	0	1	GFVZ	0	1	blank2r.bmp	79	98	pic98.bmp	79	1	whitenoise.bmp	186	0	0	0	0	0	0	0	0	0	0	0	0	0	0	0	0	0	0	0	0	0	0	0	0	0	0	0	0	0	0	0	0	0	0	0	0	0	0	0
062018	17:04:48	5.0.12.0	56	associated	Rpleas_acq	Oppo	Lpleas	Bmasked	CS_B	2pleas	AMP_CSunple	AMP2	7	49	0	0	300	300	0	0	122	46	0	0	0	0	0	1	blank2r.bmp	0	1	BXCP	0	1	blank2r.bmp	79	39	pic39.bmp	79	1	whitenoise.bmp	186	0	0	0	0	0	0	0	0	0	0	0	0	0	0	0	0	0	0	0	0	0	0	0	0	0	0	0	0	0	0	0	0	0	0	0	0	0	0	0
062018	17:04:48	5.0.12.0	56	associated	Rpleas_acq	Oppo	Lpleas	Bmasked	CS_B	2pleas	AMP_CSpleas	AMP2	7	50	0	0	300	300	0	0	181	46	0	1	0	0	0	1	blank2r.bmp	0	1	GFVZ	0	1	blank2r.bmp	79	87	pic87.bmp	79	1	whitenoise.bmp	186	0	0	0	0	0	0	0	0	0	0	0	0	0	0	0	0	0	0	0	0	0	0	0	0	0	0	0	0	0	0	0	0	0	0	0	0	0	0	0
062018	17:04:48	5.0.12.0	56	associated	Rpleas_acq	Oppo	Lpleas	Bmasked	CS_B	2pleas	EvalRating_firsttwo	EvalRating_firsttwo	8	1	0	0	300	300	0	0	2921	line	-171,25	0	0	0	0	1	eraser	0	1	Wie angenehm oder unangenehm finden Sie die  Buchstabenkette PSFD?	0	1	leftborder	0	1	rightborder	0	1	line	0	1	Unangenehm	0	1	Angenehm	0	0	0	0	0	0	0	0	0	0	0	0	0	0	0	0	0	0	0	0	0	0	0	0	0	0	0	0	0	0	0	0	0	0
062018	17:04:48	5.0.12.0	56	associated	Rpleas_acq	Oppo	Lpleas	Bmasked	CS_B	2pleas	EvalRating_lastfour	EvalRating_lastfour	9	1	0	0	300	300	0	0	3326	line	232,5000000000000284217	0	0	0	0	1	eraser	0	2	Wie angenehm oder unangenehm finden Sie die  Buchstabenkette GFVZ?	0	1	leftborder	0	1	rightborder	0	1	line	0	1	Unangenehm	0	1	Angenehm	0	0	0	0	0	0	0	0	0	0	0	0	0	0	0	0	0	0	0	0	0	0	0	0	0	0	0	0	0	0	0	0	0	0
062018	17:04:48	5.0.12.0	56	associated	Rpleas_acq	Oppo	Lpleas	Bmasked	CS_B	2pleas	blank_screen	EvalRating_lastfour	9	3	0	0	300	300	0	0	0	0	232,5000000000000284217	0	0	0	0	1	eraser	0	0	0	0	0	0	0	0	0	0	0	0	0	0	0	0	0	0	0	0	0	0	0	0	0	0	0	0	0	0	0	0	0	0	0	0	0	0	0	0	0	0	0	0	0	0	0	0	0	0	0	0
062018	17:04:48	5.0.12.0	56	associated	Rpleas_acq	Oppo	Lpleas	Bmasked	CS_B	2pleas	EvalRating_lastfour	EvalRating_lastfour	9	4	0	0	300	300	0	0	2221	line	20	0	0	0	0	1	eraser	0	1	Wie angenehm oder unangenehm finden Sie die  Buchstabenkette BXCP?	0	1	leftborder	0	1	rightborder	0	1	line	0	1	Unangenehm	0	1	Angenehm	0	0	0	0	0	0	0	0	0	0	0	0	0	0	0	0	0	0	0	0	0	0	0	0	0	0	0	0	0	0	0	0	0	0
062018	17:04:48	5.0.12.0	56	associated	Rpleas_acq	Oppo	Lpleas	Bmasked	CS_B	2pleas	blank_screen	EvalRating_lastfour	9	6	0	0	300	300	0	0	0	0	20	0	0	0	0	1	eraser	0	0	0	0	0	0	0	0	0	0	0	0	0	0	0	0	0	0	0	0	0	0	0	0	0	0	0	0	0	0	0	0	0	0	0	0	0	0	0	0	0	0	0	0	0	0	0	0	0	0	0	0
062018	17:04:48	5.0.12.0	56	associated	Rpleas_acq	Oppo	Lpleas	Bmasked	CS_B	2pleas	EvalRating_lastfour	EvalRating_lastfour	9	7	0	0	300	300	0	0	1586	line	380	0	0	0	0	1	eraser	0	3	Wie angenehm oder unangenehm finden Sie die  Buchstabenkette JTBV?	0	1	leftborder	0	1	rightborder	0	1	line	0	1	Unangenehm	0	1	Angenehm	0	0	0	0	0	0	0	0	0	0	0	0	0	0	0	0	0	0	0	0	0	0	0	0	0	0	0	0	0	0	0	0	0	0
062018	17:04:48	5.0.12.0	56	associated	Rpleas_acq	Oppo	Lpleas	Bmasked	CS_B	2pleas	cond_US_unple_123_masked_CS2	condtest_masked_1	10	1	400	0	300	300	0	0	562	50	380	1	0	0	0	1	blank2r.bmp	0	1	+	0	1	B1r.bmp	492	1	blank2r.bmp	786	1	GFVZ	786	1	blank2r.bmp	866	3	pistole	866	1	!	1227	1	!	-1	0	0	0	0	0	0	0	0	0	0	0	0	0	0	0	0	0	0	0	0	0	0	0	0	0	0	0
062018	17:04:48	5.0.12.0	56	associated	Rpleas_acq	Oppo	Lpleas	Bmasked	CS_B	2pleas	cond_new_pleas_456_masked_CS1	condtest_masked_1	10	2	400	1	300	300	0	0	413	46	380	1	0	0	0	1	blank2r.bmp	0	1	+	0	2	B2r.bmp	492	1	blank2r.bmp	786	1	BXCP	786	1	blank2r.bmp	866	2	kissen	866	1	!	1227	1	!	1307	0	0	0	0	0	0	0	0	0	0	0	0	0	0	0	0	0	0	0	0	0	0	0	0	0	0	0
062018	17:04:48	5.0.12.0	56	associated	Rpleas_acq	Oppo	Lpleas	Bmasked	CS_B	2pleas	cond_US_pleas_123_masked_CS1	condtest_masked_1	10	3	400	0	300	300	0	0	506	46	380	1	0	0	0	1	blank2r.bmp	0	1	+	0	8	C4r.bmp	492	1	blank2r.bmp	786	1	BXCP	786	1	blank2r.bmp	866	1	lippe	866	1	!	1227	1	!	-1	0	0	0	0	0	0	0	0	0	0	0	0	0	0	0	0	0	0	0	0	0	0	0	0	0	0	0
062018	17:04:48	5.0.12.0	56	associated	Rpleas_acq	Oppo	Lpleas	Bmasked	CS_B	2pleas	cond_new_unple_456_masked_CS2	condtest_masked_1	10	4	400	0	300	300	0	0	490	50	380	1	0	0	0	1	blank2r.bmp	0	1	+	0	5	C1r.bmp	492	1	blank2r.bmp	786	1	GFVZ	786	1	blank2r.bmp	866	1	stinken	866	1	!	1227	1	!	-1	0	0	0	0	0	0	0	0	0	0	0	0	0	0	0	0	0	0	0	0	0	0	0	0	0	0	0
062018	17:04:48	5.0.12.0	56	associated	Rpleas_acq	Oppo	Lpleas	Bmasked	CS_B	2pleas	cond_US_pleas_123_masked_CS2	condtest_masked_1	10	5	400	0	300	300	0	0	469	46	380	1	0	0	0	1	blank2r.bmp	0	1	+	0	7	C3r.bmp	492	1	blank2r.bmp	786	1	GFVZ	786	1	blank2r.bmp	866	2	liebe	866	1	!	1227	1	!	-1	0	0	0	0	0	0	0	0	0	0	0	0	0	0	0	0	0	0	0	0	0	0	0	0	0	0	0
062018	17:04:48	5.0.12.0	56	associated	Rpleas_acq	Oppo	Lpleas	Bmasked	CS_B	2pleas	cond_new_pleas_456_masked_CS2	condtest_masked_1	10	6	400	0	300	300	0	0	333	46	380	1	0	0	0	1	blank2r.bmp	0	1	+	0	4	B4r.bmp	492	1	blank2r.bmp	786	1	GFVZ	786	1	blank2r.bmp	866	3	blüte	866	1	!	-1	1	!	-1	0	0	0	0	0	0	0	0	0	0	0	0	0	0	0	0	0	0	0	0	0	0	0	0	0	0	0
062018	17:04:48	5.0.12.0	56	associated	Rpleas_acq	Oppo	Lpleas	Bmasked	CS_B	2pleas	cond_US_unple_123_masked_CS1	condtest_masked_1	10	7	400	0	300	300	0	0	519	50	380	1	0	0	0	1	blank2r.bmp	0	1	+	0	3	B3r.bmp	492	1	blank2r.bmp	786	1	BXCP	786	1	blank2r.bmp	866	2	übel	866	1	!	1227	1	!	-1	0	0	0	0	0	0	0	0	0	0	0	0	0	0	0	0	0	0	0	0	0	0	0	0	0	0	0
062018	17:04:48	5.0.12.0	56	associated	Rpleas_acq	Oppo	Lpleas	Bmasked	CS_B	2pleas	cond_new_unple_456_masked_CS1	condtest_masked_1	10	8	400	1	300	300	0	0	346	50	380	1	0	0	0	1	blank2r.bmp	0	1	+	0	6	C2r.bmp	492	1	blank2r.bmp	786	1	BXCP	786	1	blank2r.bmp	866	2	pech	866	1	!	1227	1	!	1239	0	0	0	0	0	0	0	0	0	0	0	0	0	0	0	0	0	0	0	0	0	0	0	0	0	0	0
062018	17:04:48	5.0.12.0	56	associated	Rpleas_acq	Oppo	Lpleas	Bmasked	CS_B	2pleas	cond_new_unple_456_masked_CS2	condtest_masked_2	11	1	400	0	300	300	0	0	279	46	380	0	0	0	0	1	blank2r.bmp	0	1	+	0	4	B4r.bmp	492	1	blank2r.bmp	786	1	GFVZ	786	1	blank2r.bmp	866	3	schock	866	1	!	-1	1	!	-1	0	0	0	0	0	0	0	0	0	0	0	0	0	0	0	0	0	0	0	0	0	0	0	0	0	0	0
062018	17:04:48	5.0.12.0	56	associated	Rpleas_acq	Oppo	Lpleas	Bmasked	CS_B	2pleas	cond_new_pleas_456_masked_CS2	condtest_masked_2	11	2	400	1	300	300	0	0	377	50	380	0	0	0	0	1	blank2r.bmp	0	1	+	0	2	B2r.bmp	492	1	blank2r.bmp	786	1	GFVZ	786	1	blank2r.bmp	866	1	licht	866	1	!	1227	1	!	1271	0	0	0	0	0	0	0	0	0	0	0	0	0	0	0	0	0	0	0	0	0	0	0	0	0	0	0
062018	17:04:48	5.0.12.0	56	associated	Rpleas_acq	Oppo	Lpleas	Bmasked	CS_B	2pleas	cond_new_unple_456_masked_CS1	condtest_masked_2	11	3	400	0	300	300	0	0	478	50	380	1	0	0	0	1	blank2r.bmp	0	1	+	0	1	B1r.bmp	492	1	blank2r.bmp	786	1	BXCP	786	1	blank2r.bmp	866	2	pech	866	1	!	1227	1	!	-1	0	0	0	0	0	0	0	0	0	0	0	0	0	0	0	0	0	0	0	0	0	0	0	0	0	0	0
062018	17:04:48	5.0.12.0	56	associated	Rpleas_acq	Oppo	Lpleas	Bmasked	CS_B	2pleas	cond_new_unple_456_masked_CS2	condtest_masked_2	11	4	400	1	300	300	0	0	457	50	380	1	0	0	0	1	blank2r.bmp	0	1	+	0	6	C2r.bmp	492	1	blank2r.bmp	786	1	GFVZ	786	1	blank2r.bmp	866	1	stinken	866	1	!	1227	1	!	1350	0	0	0	0	0	0	0	0	0	0	0	0	0	0	0	0	0	0	0	0	0	0	0	0	0	0	0
062018	17:04:48	5.0.12.0	56	associated	Rpleas_acq	Oppo	Lpleas	Bmasked	CS_B	2pleas	cond_US_pleas_123_masked_CS2	condtest_masked_2	11	5	400	0	300	300	0	0	494	46	380	1	0	0	0	1	blank2r.bmp	0	1	+	0	5	C1r.bmp	492	1	blank2r.bmp	786	1	GFVZ	786	1	blank2r.bmp	866	3	leben	866	1	!	1227	1	!	-1	0	0	0	0	0	0	0	0	0	0	0	0	0	0	0	0	0	0	0	0	0	0	0	0	0	0	0
062018	17:04:48	5.0.12.0	56	associated	Rpleas_acq	Oppo	Lpleas	Bmasked	CS_B	2pleas	cond_new_pleas_456_masked_CS2	condtest_masked_2	11	6	400	1	300	300	0	0	379	46	380	1	0	0	0	1	blank2r.bmp	0	1	+	0	7	C3r.bmp	492	1	blank2r.bmp	786	1	GFVZ	786	1	blank2r.bmp	866	2	kissen	866	1	!	1227	1	!	1273	0	0	0	0	0	0	0	0	0	0	0	0	0	0	0	0	0	0	0	0	0	0	0	0	0	0	0
062018	17:04:48	5.0.12.0	56	associated	Rpleas_acq	Oppo	Lpleas	Bmasked	CS_B	2pleas	cond_new_pleas_456_masked_CS1	condtest_masked_2	11	7	400	1	300	300	0	0	432	46	380	1	0	0	0	1	blank2r.bmp	0	1	+	0	8	C4r.bmp	492	1	blank2r.bmp	786	1	BXCP	786	1	blank2r.bmp	866	1	licht	866	1	!	1227	1	!	1326	0	0	0	0	0	0	0	0	0	0	0	0	0	0	0	0	0	0	0	0	0	0	0	0	0	0	0
062018	17:04:48	5.0.12.0	56	associated	Rpleas_acq	Oppo	Lpleas	Bmasked	CS_B	2pleas	cond_US_pleas_123_masked_CS1	condtest_masked_2	11	8	400	1	300	300	0	0	336	46	380	1	0	0	0	1	blank2r.bmp	0	1	+	0	3	B3r.bmp	492	1	blank2r.bmp	786	1	BXCP	786	1	blank2r.bmp	866	2	liebe	866	1	!	1227	1	!	1230	0	0	0	0	0	0	0	0	0	0	0	0	0	0	0	0	0	0	0	0	0	0	0	0	0	0	0
062018	17:04:48	5.0.12.0	56	associated	Rpleas_acq	Oppo	Lpleas	Bmasked	CS_B	2pleas	cond_US_pleas_123_masked_CS1	condtest_masked_2	11	9	400	1	300	300	0	0	429	46	380	1	0	0	0	1	blank2r.bmp	0	1	+	0	2	B2r.bmp	492	1	blank2r.bmp	786	1	BXCP	786	1	blank2r.bmp	866	3	leben	866	1	!	1227	1	!	1323	0	0	0	0	0	0	0	0	0	0	0	0	0	0	0	0	0	0	0	0	0	0	0	0	0	0	0
062018	17:04:48	5.0.12.0	56	associated	Rpleas_acq	Oppo	Lpleas	Bmasked	CS_B	2pleas	cond_new_unple_456_masked_CS1	condtest_masked_2	11	10	400	1	300	300	0	0	397	46	380	0	0	0	0	1	blank2r.bmp	0	1	+	0	1	B1r.bmp	492	1	blank2r.bmp	786	1	BXCP	786	1	blank2r.bmp	866	3	schock	866	1	!	1227	1	!	1290	0	0	0	0	0	0	0	0	0	0	0	0	0	0	0	0	0	0	0	0	0	0	0	0	0	0	0
062018	17:04:48	5.0.12.0	56	associated	Rpleas_acq	Oppo	Lpleas	Bmasked	CS_B	2pleas	cond_US_pleas_123_masked_CS2	condtest_masked_2	11	11	400	0	300	300	0	0	308	46	380	1	0	0	0	1	blank2r.bmp	0	1	+	0	6	C2r.bmp	492	1	blank2r.bmp	786	1	GFVZ	786	1	blank2r.bmp	866	1	lippe	866	1	!	-1	1	!	-1	0	0	0	0	0	0	0	0	0	0	0	0	0	0	0	0	0	0	0	0	0	0	0	0	0	0	0
062018	17:04:48	5.0.12.0	56	associated	Rpleas_acq	Oppo	Lpleas	Bmasked	CS_B	2pleas	cond_US_unple_123_masked_CS1	condtest_masked_2	11	12	400	1	300	300	0	0	444	46	380	0	0	0	0	1	blank2r.bmp	0	1	+	0	3	B3r.bmp	492	1	blank2r.bmp	786	1	BXCP	786	1	blank2r.bmp	866	1	pest	866	1	!	1227	1	!	1338	0	0	0	0	0	0	0	0	0	0	0	0	0	0	0	0	0	0	0	0	0	0	0	0	0	0	0
062018	17:04:48	5.0.12.0	56	associated	Rpleas_acq	Oppo	Lpleas	Bmasked	CS_B	2pleas	cond_new_unple_456_masked_CS1	condtest_masked_2	11	13	400	1	300	300	0	0	350	50	380	1	0	0	0	1	blank2r.bmp	0	1	+	0	8	C4r.bmp	492	1	blank2r.bmp	786	1	BXCP	786	1	blank2r.bmp	866	2	pech	866	1	!	1227	1	!	1244	0	0	0	0	0	0	0	0	0	0	0	0	0	0	0	0	0	0	0	0	0	0	0	0	0	0	0
062018	17:04:48	5.0.12.0	56	associated	Rpleas_acq	Oppo	Lpleas	Bmasked	CS_B	2pleas	cond_new_unple_456_masked_CS2	condtest_masked_2	11	14	400	0	300	300	0	0	496	50	380	1	0	0	0	1	blank2r.bmp	0	1	+	0	7	C3r.bmp	492	1	blank2r.bmp	786	1	GFVZ	786	1	blank2r.bmp	866	1	stinken	866	1	!	1227	1	!	-1	0	0	0	0	0	0	0	0	0	0	0	0	0	0	0	0	0	0	0	0	0	0	0	0	0	0	0
062018	17:04:48	5.0.12.0	56	associated	Rpleas_acq	Oppo	Lpleas	Bmasked	CS_B	2pleas	cond_US_unple_123_masked_CS1	condtest_masked_2	11	15	400	0	300	300	0	0	478	50	380	1	0	0	0	1	blank2r.bmp	0	1	+	0	4	B4r.bmp	492	1	blank2r.bmp	786	1	BXCP	786	1	blank2r.bmp	866	2	übel	866	1	!	1227	1	!	-1	0	0	0	0	0	0	0	0	0	0	0	0	0	0	0	0	0	0	0	0	0	0	0	0	0	0	0
062018	17:04:48	5.0.12.0	56	associated	Rpleas_acq	Oppo	Lpleas	Bmasked	CS_B	2pleas	cond_US_pleas_123_masked_CS1	condtest_masked_2	11	16	400	1	300	300	0	0	361	50	380	0	0	0	0	1	blank2r.bmp	0	1	+	0	5	C1r.bmp	492	1	blank2r.bmp	786	1	BXCP	786	1	blank2r.bmp	866	2	liebe	866	1	!	1227	1	!	1254	0	0	0	0	0	0	0	0	0	0	0	0	0	0	0	0	0	0	0	0	0	0	0	0	0	0	0
062018	17:04:48	5.0.12.0	56	associated	Rpleas_acq	Oppo	Lpleas	Bmasked	CS_B	2pleas	cond_new_pleas_456_masked_CS2	condtest_masked_2	11	17	400	1	300	300	0	0	411	46	380	1	0	0	0	1	blank2r.bmp	0	1	+	0	7	C3r.bmp	492	1	blank2r.bmp	786	1	GFVZ	786	1	blank2r.bmp	866	3	blüte	866	1	!	1227	1	!	1304	0	0	0	0	0	0	0	0	0	0	0	0	0	0	0	0	0	0	0	0	0	0	0	0	0	0	0
062018	17:04:48	5.0.12.0	56	associated	Rpleas_acq	Oppo	Lpleas	Bmasked	CS_B	2pleas	cond_US_pleas_123_masked_CS2	condtest_masked_2	11	18	400	1	300	300	0	0	440	46	380	1	0	0	0	1	blank2r.bmp	0	1	+	0	5	C1r.bmp	492	1	blank2r.bmp	786	1	GFVZ	786	1	blank2r.bmp	866	3	leben	866	1	!	1227	1	!	1334	0	0	0	0	0	0	0	0	0	0	0	0	0	0	0	0	0	0	0	0	0	0	0	0	0	0	0
062018	17:04:48	5.0.12.0	56	associated	Rpleas_acq	Oppo	Lpleas	Bmasked	CS_B	2pleas	cond_new_unple_456_masked_CS2	condtest_masked_2	11	19	400	1	300	300	0	0	410	50	380	1	0	0	0	1	blank2r.bmp	0	1	+	0	1	B1r.bmp	492	1	blank2r.bmp	786	1	GFVZ	786	1	blank2r.bmp	866	3	schock	866	1	!	1227	1	!	1304	0	0	0	0	0	0	0	0	0	0	0	0	0	0	0	0	0	0	0	0	0	0	0	0	0	0	0
062018	17:04:48	5.0.12.0	56	associated	Rpleas_acq	Oppo	Lpleas	Bmasked	CS_B	2pleas	cond_US_unple_123_masked_CS2	condtest_masked_2	11	20	400	0	300	300	0	0	311	46	380	0	0	0	0	1	blank2r.bmp	0	1	+	0	2	B2r.bmp	492	1	blank2r.bmp	786	1	GFVZ	786	1	blank2r.bmp	866	1	pest	866	1	!	-1	1	!	-1	0	0	0	0	0	0	0	0	0	0	0	0	0	0	0	0	0	0	0	0	0	0	0	0	0	0	0
062018	17:04:48	5.0.12.0	56	associated	Rpleas_acq	Oppo	Lpleas	Bmasked	CS_B	2pleas	cond_new_pleas_456_masked_CS2	condtest_masked_2	11	21	400	1	300	300	0	0	463	46	380	1	0	0	0	1	blank2r.bmp	0	1	+	0	6	C2r.bmp	492	1	blank2r.bmp	786	1	GFVZ	786	1	blank2r.bmp	866	2	kissen	866	1	!	1227	1	!	1357	0	0	0	0	0	0	0	0	0	0	0	0	0	0	0	0	0	0	0	0	0	0	0	0	0	0	0
062018	17:04:48	5.0.12.0	56	associated	Rpleas_acq	Oppo	Lpleas	Bmasked	CS_B	2pleas	cond_new_pleas_456_masked_CS1	condtest_masked_2	11	22	400	1	300	300	0	0	423	46	380	1	0	0	0	1	blank2r.bmp	0	1	+	0	8	C4r.bmp	492	1	blank2r.bmp	786	1	BXCP	786	1	blank2r.bmp	866	3	blüte	866	1	!	1227	1	!	1316	0	0	0	0	0	0	0	0	0	0	0	0	0	0	0	0	0	0	0	0	0	0	0	0	0	0	0
062018	17:04:48	5.0.12.0	56	associated	Rpleas_acq	Oppo	Lpleas	Bmasked	CS_B	2pleas	cond_US_unple_123_masked_CS2	condtest_masked_2	11	23	400	1	300	300	0	0	420	50	380	1	0	0	0	1	blank2r.bmp	0	1	+	0	4	B4r.bmp	492	1	blank2r.bmp	786	1	GFVZ	786	1	blank2r.bmp	866	3	pistole	866	1	!	1227	1	!	1313	0	0	0	0	0	0	0	0	0	0	0	0	0	0	0	0	0	0	0	0	0	0	0	0	0	0	0
062018	17:04:48	5.0.12.0	56	associated	Rpleas_acq	Oppo	Lpleas	Bmasked	CS_B	2pleas	cond_US_pleas_123_masked_CS2	condtest_masked_2	11	24	400	1	300	300	0	0	435	46	380	1	0	0	0	1	blank2r.bmp	0	1	+	0	3	B3r.bmp	492	1	blank2r.bmp	786	1	GFVZ	786	1	blank2r.bmp	866	1	lippe	866	1	!	1227	1	!	1329	0	0	0	0	0	0	0	0	0	0	0	0	0	0	0	0	0	0	0	0	0	0	0	0	0	0	0
062018	17:04:48	5.0.12.0	56	associated	Rpleas_acq	Oppo	Lpleas	Bmasked	CS_B	2pleas	cond_US_pleas_123_masked_CS1	condtest_masked_2	11	25	400	1	300	300	0	0	419	46	380	1	0	0	0	1	blank2r.bmp	0	1	+	0	4	B4r.bmp	492	1	blank2r.bmp	786	1	BXCP	786	1	blank2r.bmp	866	2	liebe	866	1	!	1227	1	!	1313	0	0	0	0	0	0	0	0	0	0	0	0	0	0	0	0	0	0	0	0	0	0	0	0	0	0	0
062018	17:04:48	5.0.12.0	56	associated	Rpleas_acq	Oppo	Lpleas	Bmasked	CS_B	2pleas	cond_new_pleas_456_masked_CS1	condtest_masked_2	11	26	400	1	300	300	0	0	435	46	380	1	0	0	0	1	blank2r.bmp	0	1	+	0	3	B3r.bmp	492	1	blank2r.bmp	786	1	BXCP	786	1	blank2r.bmp	866	1	licht	866	1	!	1227	1	!	1329	0	0	0	0	0	0	0	0	0	0	0	0	0	0	0	0	0	0	0	0	0	0	0	0	0	0	0
062018	17:04:48	5.0.12.0	56	associated	Rpleas_acq	Oppo	Lpleas	Bmasked	CS_B	2pleas	cond_US_unple_123_masked_CS2	condtest_masked_2	11	27	400	1	300	300	0	0	451	50	380	1	0	0	0	1	blank2r.bmp	0	1	+	0	6	C2r.bmp	492	1	blank2r.bmp	786	1	GFVZ	786	1	blank2r.bmp	866	1	pest	866	1	!	1227	1	!	1345	0	0	0	0	0	0	0	0	0	0	0	0	0	0	0	0	0	0	0	0	0	0	0	0	0	0	0
062018	17:04:48	5.0.12.0	56	associated	Rpleas_acq	Oppo	Lpleas	Bmasked	CS_B	2pleas	cond_new_unple_456_masked_CS2	condtest_masked_2	11	28	400	0	300	300	0	0	520	50	380	1	0	0	0	1	blank2r.bmp	0	1	+	0	2	B2r.bmp	492	1	blank2r.bmp	786	1	GFVZ	786	1	blank2r.bmp	866	3	schock	866	1	!	1227	1	!	-1	0	0	0	0	0	0	0	0	0	0	0	0	0	0	0	0	0	0	0	0	0	0	0	0	0	0	0
062018	17:04:48	5.0.12.0	56	associated	Rpleas_acq	Oppo	Lpleas	Bmasked	CS_B	2pleas	cond_US_pleas_123_masked_CS1	condtest_masked_2	11	29	400	1	300	300	0	0	376	46	380	1	0	0	0	1	blank2r.bmp	0	1	+	0	5	C1r.bmp	492	1	blank2r.bmp	786	1	BXCP	786	1	blank2r.bmp	866	1	lippe	866	1	!	1227	1	!	1270	0	0	0	0	0	0	0	0	0	0	0	0	0	0	0	0	0	0	0	0	0	0	0	0	0	0	0
062018	17:04:48	5.0.12.0	56	associated	Rpleas_acq	Oppo	Lpleas	Bmasked	CS_B	2pleas	cond_US_unple_123_masked_CS1	condtest_masked_2	11	30	400	1	300	300	0	0	429	50	380	1	0	0	0	1	blank2r.bmp	0	1	+	0	1	B1r.bmp	492	1	blank2r.bmp	786	1	BXCP	786	1	blank2r.bmp	866	3	pistole	866	1	!	1227	1	!	1323	0	0	0	0	0	0	0	0	0	0	0	0	0	0	0	0	0	0	0	0	0	0	0	0	0	0	0
062018	17:04:48	5.0.12.0	56	associated	Rpleas_acq	Oppo	Lpleas	Bmasked	CS_B	2pleas	cond_US_unple_123_masked_CS1	condtest_masked_2	11	31	400	1	300	300	0	0	349	46	380	0	0	0	0	1	blank2r.bmp	0	1	+	0	7	C3r.bmp	492	1	blank2r.bmp	786	1	BXCP	786	1	blank2r.bmp	866	2	übel	866	1	!	1227	1	!	1243	0	0	0	0	0	0	0	0	0	0	0	0	0	0	0	0	0	0	0	0	0	0	0	0	0	0	0
062018	17:04:48	5.0.12.0	56	associated	Rpleas_acq	Oppo	Lpleas	Bmasked	CS_B	2pleas	cond_US_unple_123_masked_CS2	condtest_masked_2	11	32	400	1	300	300	0	0	444	50	380	1	0	0	0	1	blank2r.bmp	0	1	+	0	8	C4r.bmp	492	1	blank2r.bmp	786	1	GFVZ	786	1	blank2r.bmp	866	3	pistole	866	1	!	1227	1	!	1338	0	0	0	0	0	0	0	0	0	0	0	0	0	0	0	0	0	0	0	0	0	0	0	0	0	0	0
062018	17:04:48	5.0.12.0	56	associated	Rpleas_acq	Oppo	Lpleas	Bmasked	CS_B	2pleas	cond_new_unple_456_masked_CS1	condtest_masked_2	11	33	400	0	300	300	0	0	479	50	380	1	0	0	0	1	blank2r.bmp	0	1	+	0	4	B4r.bmp	492	1	blank2r.bmp	786	1	BXCP	786	1	blank2r.bmp	866	1	stinken	866	1	!	1227	1	!	-1	0	0	0	0	0	0	0	0	0	0	0	0	0	0	0	0	0	0	0	0	0	0	0	0	0	0	0
062018	17:04:48	5.0.12.0	56	associated	Rpleas_acq	Oppo	Lpleas	Bmasked	CS_B	2pleas	cond_US_unple_123_masked_CS1	condtest_masked_2	11	34	400	1	300	300	0	0	442	50	380	1	0	0	0	1	blank2r.bmp	0	1	+	0	2	B2r.bmp	492	1	blank2r.bmp	786	1	BXCP	786	1	blank2r.bmp	866	1	pest	866	1	!	1227	1	!	1335	0	0	0	0	0	0	0	0	0	0	0	0	0	0	0	0	0	0	0	0	0	0	0	0	0	0	0
062018	17:04:48	5.0.12.0	56	associated	Rpleas_acq	Oppo	Lpleas	Bmasked	CS_B	2pleas	cond_new_pleas_456_masked_CS1	condtest_masked_2	11	35	400	0	300	300	0	0	492	46	380	1	0	0	0	1	blank2r.bmp	0	1	+	0	3	B3r.bmp	492	1	blank2r.bmp	786	1	BXCP	786	1	blank2r.bmp	866	3	blüte	866	1	!	1227	1	!	-1	0	0	0	0	0	0	0	0	0	0	0	0	0	0	0	0	0	0	0	0	0	0	0	0	0	0	0
062018	17:04:48	5.0.12.0	56	associated	Rpleas_acq	Oppo	Lpleas	Bmasked	CS_B	2pleas	cond_US_unple_123_masked_CS2	condtest_masked_2	11	36	400	1	300	300	0	0	345	46	380	0	0	0	0	1	blank2r.bmp	0	1	+	0	8	C4r.bmp	492	1	blank2r.bmp	786	1	GFVZ	786	1	blank2r.bmp	866	2	übel	866	1	!	1227	1	!	1239	0	0	0	0	0	0	0	0	0	0	0	0	0	0	0	0	0	0	0	0	0	0	0	0	0	0	0
062018	17:04:48	5.0.12.0	56	associated	Rpleas_acq	Oppo	Lpleas	Bmasked	CS_B	2pleas	cond_new_pleas_456_masked_CS2	condtest_masked_2	11	37	400	1	300	300	0	0	454	46	380	1	0	0	0	1	blank2r.bmp	0	1	+	0	6	C2r.bmp	492	1	blank2r.bmp	786	1	GFVZ	786	1	blank2r.bmp	866	2	kissen	866	1	!	1227	1	!	1348	0	0	0	0	0	0	0	0	0	0	0	0	0	0	0	0	0	0	0	0	0	0	0	0	0	0	0
062018	17:04:48	5.0.12.0	56	associated	Rpleas_acq	Oppo	Lpleas	Bmasked	CS_B	2pleas	cond_new_unple_456_masked_CS1	condtest_masked_2	11	38	400	1	300	300	0	0	364	50	380	1	0	0	0	1	blank2r.bmp	0	1	+	0	5	C1r.bmp	492	1	blank2r.bmp	786	1	BXCP	786	1	blank2r.bmp	866	2	pech	866	1	!	1227	1	!	1257	0	0	0	0	0	0	0	0	0	0	0	0	0	0	0	0	0	0	0	0	0	0	0	0	0	0	0
062018	17:04:48	5.0.12.0	56	associated	Rpleas_acq	Oppo	Lpleas	Bmasked	CS_B	2pleas	cond_US_pleas_123_masked_CS2	condtest_masked_2	11	39	400	1	300	300	0	0	382	50	380	0	0	0	0	1	blank2r.bmp	0	1	+	0	1	B1r.bmp	492	1	blank2r.bmp	786	1	GFVZ	786	1	blank2r.bmp	866	3	leben	866	1	!	1227	1	!	1275	0	0	0	0	0	0	0	0	0	0	0	0	0	0	0	0	0	0	0	0	0	0	0	0	0	0	0
062018	17:04:48	5.0.12.0	56	associated	Rpleas_acq	Oppo	Lpleas	Bmasked	CS_B	2pleas	cond_new_pleas_456_masked_CS1	condtest_masked_2	11	40	400	1	300	300	0	0	421	46	380	1	0	0	0	1	blank2r.bmp	0	1	+	0	7	C3r.bmp	492	1	blank2r.bmp	786	1	BXCP	786	1	blank2r.bmp	866	1	licht	866	1	!	1227	1	!	1315	0	0	0	0	0	0	0	0	0	0	0	0	0	0	0	0	0	0	0	0	0	0	0	0	0	0	0
062018	17:04:48	5.0.12.0	56	associated	Rpleas_acq	Oppo	Lpleas	Bmasked	CS_B	2pleas	cond_new_pleas_123_masked_CS2	condtest_masked_3	12	1	400	1	300	300	0	0	364	46	380	1	0	0	0	1	blank2r.bmp	0	1	+	0	7	C3r.bmp	492	1	blank2r.bmp	786	1	GFVZ	786	1	blank2r.bmp	866	1	küssen	866	1	!	1227	1	!	1257	0	0	0	0	0	0	0	0	0	0	0	0	0	0	0	0	0	0	0	0	0	0	0	0	0	0	0
062018	17:04:48	5.0.12.0	56	associated	Rpleas_acq	Oppo	Lpleas	Bmasked	CS_B	2pleas	cond_US_pleas_456_masked_CS2	condtest_masked_3	12	2	400	1	300	300	0	0	334	46	380	1	0	0	0	1	blank2r.bmp	0	1	+	0	3	B3r.bmp	492	1	blank2r.bmp	786	1	GFVZ	786	1	blank2r.bmp	866	3	knospe	866	1	!	1227	1	!	1228	0	0	0	0	0	0	0	0	0	0	0	0	0	0	0	0	0	0	0	0	0	0	0	0	0	0	0
062018	17:04:48	5.0.12.0	56	associated	Rpleas_acq	Oppo	Lpleas	Bmasked	CS_B	2pleas	cond_new_unple_123_masked_CS2	condtest_masked_3	12	3	400	0	300	300	0	0	331	46	380	0	0	0	0	1	blank2r.bmp	0	1	+	0	5	C1r.bmp	492	1	blank2r.bmp	786	1	GFVZ	786	1	blank2r.bmp	866	3	töten	866	1	!	-1	1	!	-1	0	0	0	0	0	0	0	0	0	0	0	0	0	0	0	0	0	0	0	0	0	0	0	0	0	0	0
062018	17:04:48	5.0.12.0	56	associated	Rpleas_acq	Oppo	Lpleas	Bmasked	CS_B	2pleas	cond_US_pleas_456_masked_CS1	condtest_masked_3	12	4	400	1	300	300	0	0	437	50	380	0	0	0	0	1	blank2r.bmp	0	1	+	0	4	B4r.bmp	492	1	blank2r.bmp	786	1	BXCP	786	1	blank2r.bmp	866	2	bett	866	1	!	1227	1	!	1331	0	0	0	0	0	0	0	0	0	0	0	0	0	0	0	0	0	0	0	0	0	0	0	0	0	0	0
062018	17:04:48	5.0.12.0	56	associated	Rpleas_acq	Oppo	Lpleas	Bmasked	CS_B	2pleas	cond_new_pleas_123_masked_CS2	condtest_masked_3	12	5	400	0	300	300	0	0	487	46	380	1	0	0	0	1	blank2r.bmp	0	1	+	0	6	C2r.bmp	492	1	blank2r.bmp	786	1	GFVZ	786	1	blank2r.bmp	866	3	schön	866	1	!	1227	1	!	-1	0	0	0	0	0	0	0	0	0	0	0	0	0	0	0	0	0	0	0	0	0	0	0	0	0	0	0
062018	17:04:48	5.0.12.0	56	associated	Rpleas_acq	Oppo	Lpleas	Bmasked	CS_B	2pleas	cond_US_unple_456_masked_CS2	condtest_masked_3	12	6	400	1	300	300	0	0	434	50	380	1	0	0	0	1	blank2r.bmp	0	1	+	0	2	B2r.bmp	492	1	blank2r.bmp	786	1	GFVZ	786	1	blank2r.bmp	866	3	toxisch	866	1	!	1227	1	!	1328	0	0	0	0	0	0	0	0	0	0	0	0	0	0	0	0	0	0	0	0	0	0	0	0	0	0	0
062018	17:04:48	5.0.12.0	56	associated	Rpleas_acq	Oppo	Lpleas	Bmasked	CS_B	2pleas	cond_new_unple_123_masked_CS2	condtest_masked_3	12	7	400	1	300	300	0	0	421	50	380	1	0	0	0	1	blank2r.bmp	0	1	+	0	1	B1r.bmp	492	1	blank2r.bmp	786	1	GFVZ	786	1	blank2r.bmp	866	2	böse	866	1	!	1227	1	!	1314	0	0	0	0	0	0	0	0	0	0	0	0	0	0	0	0	0	0	0	0	0	0	0	0	0	0	0
062018	17:04:48	5.0.12.0	56	associated	Rpleas_acq	Oppo	Lpleas	Bmasked	CS_B	2pleas	cond_US_unple_456_masked_CS1	condtest_masked_3	12	8	400	0	300	300	0	0	530	50	380	1	0	0	0	1	blank2r.bmp	0	1	+	0	8	C4r.bmp	492	1	blank2r.bmp	786	1	BXCP	786	1	blank2r.bmp	866	1	leiche	866	1	!	1227	1	!	-1	0	0	0	0	0	0	0	0	0	0	0	0	0	0	0	0	0	0	0	0	0	0	0	0	0	0	0
062018	17:04:48	5.0.12.0	56	associated	Rpleas_acq	Oppo	Lpleas	Bmasked	CS_B	2pleas	cond_US_pleas_456_masked_CS2	condtest_masked_3	12	9	400	1	300	300	0	0	359	46	380	1	0	0	0	1	blank2r.bmp	0	1	+	0	3	B3r.bmp	492	1	blank2r.bmp	786	1	GFVZ	786	1	blank2r.bmp	866	1	sonne	866	1	!	1227	1	!	1253	0	0	0	0	0	0	0	0	0	0	0	0	0	0	0	0	0	0	0	0	0	0	0	0	0	0	0
062018	17:04:48	5.0.12.0	56	associated	Rpleas_acq	Oppo	Lpleas	Bmasked	CS_B	2pleas	cond_US_unple_456_masked_CS1	condtest_masked_3	12	10	400	1	300	300	0	0	423	46	380	0	0	0	0	1	blank2r.bmp	0	1	+	0	5	C1r.bmp	492	1	blank2r.bmp	786	1	BXCP	786	1	blank2r.bmp	866	2	pleite	866	1	!	1227	1	!	1316	0	0	0	0	0	0	0	0	0	0	0	0	0	0	0	0	0	0	0	0	0	0	0	0	0	0	0
062018	17:04:48	5.0.12.0	56	associated	Rpleas_acq	Oppo	Lpleas	Bmasked	CS_B	2pleas	cond_new_pleas_123_masked_CS1	condtest_masked_3	12	11	400	0	300	300	0	0	487	46	380	1	0	0	0	1	blank2r.bmp	0	1	+	0	6	C2r.bmp	492	1	blank2r.bmp	786	1	BXCP	786	1	blank2r.bmp	866	2	sex	866	1	!	1227	1	!	-1	0	0	0	0	0	0	0	0	0	0	0	0	0	0	0	0	0	0	0	0	0	0	0	0	0	0	0
062018	17:04:48	5.0.12.0	56	associated	Rpleas_acq	Oppo	Lpleas	Bmasked	CS_B	2pleas	cond_US_pleas_456_masked_CS2	condtest_masked_3	12	12	400	0	300	300	0	0	481	46	380	1	0	0	0	1	blank2r.bmp	0	1	+	0	4	B4r.bmp	492	1	blank2r.bmp	786	1	GFVZ	786	1	blank2r.bmp	866	2	bett	866	1	!	1227	1	!	-1	0	0	0	0	0	0	0	0	0	0	0	0	0	0	0	0	0	0	0	0	0	0	0	0	0	0	0
062018	17:04:48	5.0.12.0	56	associated	Rpleas_acq	Oppo	Lpleas	Bmasked	CS_B	2pleas	cond_new_unple_123_masked_CS2	condtest_masked_3	12	13	400	0	300	300	0	0	588	50	380	1	0	0	0	1	blank2r.bmp	0	1	+	0	2	B2r.bmp	492	1	blank2r.bmp	786	1	GFVZ	786	1	blank2r.bmp	866	1	tote	866	1	!	1227	1	!	-1	0	0	0	0	0	0	0	0	0	0	0	0	0	0	0	0	0	0	0	0	0	0	0	0	0	0	0
062018	17:04:48	5.0.12.0	56	associated	Rpleas_acq	Oppo	Lpleas	Bmasked	CS_B	2pleas	cond_US_unple_456_masked_CS1	condtest_masked_3	12	14	400	0	300	300	0	0	508	50	380	1	0	0	0	1	blank2r.bmp	0	1	+	0	1	B1r.bmp	492	1	blank2r.bmp	786	1	BXCP	786	1	blank2r.bmp	866	3	toxisch	866	1	!	1227	1	!	-1	0	0	0	0	0	0	0	0	0	0	0	0	0	0	0	0	0	0	0	0	0	0	0	0	0	0	0
