date	time	build	subject	expressions.associated	expressions.LRpleas_acq	expressions.SameOppo	expressions.condition_Lpleas	expressions.ABmasked	expressions.conditionCS_A	expressions.condition_1pleas	trialcode	blockcode	blocknum	trialnum	windowcenter	inwindow	pretrialpause	posttrialpause	trialduration	trialtimeout	latency	response	expressions.correctedscore	correct	values.vis_performance	values.vis_rating_sum	values.vis_rating_mean	stimulusnumber1	stimulusitem1	stimulusonset1	stimulusnumber2	stimulusitem2	stimulusonset2	stimulusnumber3	stimulusitem3	stimulusonset3	stimulusnumber4	stimulusitem4	stimulusonset4	stimulusnumber5	stimulusitem5	stimulusonset5	stimulusnumber6	stimulusitem6	stimulusonset6	stimulusnumber7	stimulusitem7	stimulusonset7	stimulusnumber8	stimulusitem8	stimulusonset8	stimulusnumber9	stimulusitem9	stimulusonset9	stimulusnumber10	stimulusitem10	stimulusonset10	stimulusnumber11	stimulusitem11	stimulusonset11	stimulusnumber12	stimulusitem12	stimulusonset12	stimulusnumber13	stimulusitem13	stimulusonset13	stimulusnumber14	stimulusitem14	stimulusonset14	stimulusnumber15	stimulusitem15	stimulusonset15	stimulusnumber16	stimulusitem16	stimulusonset16	stimulusnumber17	stimulusitem17	stimulusonset17	stimulusnumber18	stimulusitem18	stimulusonset18
062118	11:08:17	5.0.12.0	65	associated	Rpleas_acq	Same	Rpleas	Amasked	CS_A	2pleas	acq_pleas_masked	acq1_masked	1	1	0	0	300	300	0	0	1810	50	0	1	0	0	0	1	blank2r.bmp	0	1	+	0	3	B3r.bmp	492	1	blank2r.bmp	786	1	DJMR	786	1	blank2r.bmp	866	5	jugend	866	0	0	0	0	0	0	0	0	0	0	0	0	0	0	0	0	0	0	0	0	0	0	0	0	0	0	0	0	0	0	0	0	0
062118	11:08:17	5.0.12.0	65	associated	Rpleas_acq	Same	Rpleas	Amasked	CS_A	2pleas	acq_unple_masked	acq1_masked	1	2	0	0	300	300	0	0	880	46	0	1	0	0	0	1	blank2r.bmp	0	1	+	0	1	B1r.bmp	492	1	blank2r.bmp	786	1	HLST	786	1	blank2r.bmp	866	2	zwang	866	0	0	0	0	0	0	0	0	0	0	0	0	0	0	0	0	0	0	0	0	0	0	0	0	0	0	0	0	0	0	0	0	0
062118	11:08:17	5.0.12.0	65	associated	Rpleas_acq	Same	Rpleas	Amasked	CS_A	2pleas	acq_unple_masked	acq1_masked	1	3	0	0	300	300	0	0	769	46	0	1	0	0	0	1	blank2r.bmp	0	1	+	0	7	C3r.bmp	492	1	blank2r.bmp	786	1	HLST	786	1	blank2r.bmp	866	5	gegner	866	0	0	0	0	0	0	0	0	0	0	0	0	0	0	0	0	0	0	0	0	0	0	0	0	0	0	0	0	0	0	0	0	0
062118	11:08:17	5.0.12.0	65	associated	Rpleas_acq	Same	Rpleas	Amasked	CS_A	2pleas	acq_unple_masked	acq1_masked	1	4	0	0	300	300	0	0	539	46	0	1	0	0	0	1	blank2r.bmp	0	1	+	0	5	C1r.bmp	492	1	blank2r.bmp	786	1	HLST	786	1	blank2r.bmp	866	1	wunde	866	0	0	0	0	0	0	0	0	0	0	0	0	0	0	0	0	0	0	0	0	0	0	0	0	0	0	0	0	0	0	0	0	0
062118	11:08:17	5.0.12.0	65	associated	Rpleas_acq	Same	Rpleas	Amasked	CS_A	2pleas	acq_pleas_masked	acq1_masked	1	5	0	0	300	300	0	0	789	46	0	0	0	0	0	1	blank2r.bmp	0	1	+	0	6	C2r.bmp	492	1	blank2r.bmp	786	1	DJMR	786	1	blank2r.bmp	866	4	mama	866	1	FEHLER	1683	0	0	0	0	0	0	0	0	0	0	0	0	0	0	0	0	0	0	0	0	0	0	0	0	0	0	0	0	0	0
062118	11:08:17	5.0.12.0	65	associated	Rpleas_acq	Same	Rpleas	Amasked	CS_A	2pleas	acq_pleas_masked	acq1_masked	1	6	0	0	300	300	0	0	818	50	0	1	0	0	0	1	blank2r.bmp	0	1	+	0	4	B4r.bmp	492	1	blank2r.bmp	786	1	DJMR	786	1	blank2r.bmp	866	1	frieden	866	0	0	0	0	0	0	0	0	0	0	0	0	0	0	0	0	0	0	0	0	0	0	0	0	0	0	0	0	0	0	0	0	0
062118	11:08:17	5.0.12.0	65	associated	Rpleas_acq	Same	Rpleas	Amasked	CS_A	2pleas	acq_unple_masked	acq1_masked	1	7	0	0	300	300	0	0	821	46	0	1	0	0	0	1	blank2r.bmp	0	1	+	0	8	C4r.bmp	492	1	blank2r.bmp	786	1	HLST	786	1	blank2r.bmp	866	6	armee	866	0	0	0	0	0	0	0	0	0	0	0	0	0	0	0	0	0	0	0	0	0	0	0	0	0	0	0	0	0	0	0	0	0
062118	11:08:17	5.0.12.0	65	associated	Rpleas_acq	Same	Rpleas	Amasked	CS_A	2pleas	acq_pleas_masked	acq1_masked	1	8	0	0	300	300	0	0	667	46	0	0	0	0	0	1	blank2r.bmp	0	1	+	0	2	B2r.bmp	492	1	blank2r.bmp	786	1	DJMR	786	1	blank2r.bmp	866	6	wein	866	1	FEHLER	1561	0	0	0	0	0	0	0	0	0	0	0	0	0	0	0	0	0	0	0	0	0	0	0	0	0	0	0	0	0	0
062118	11:08:17	5.0.12.0	65	associated	Rpleas_acq	Same	Rpleas	Amasked	CS_A	2pleas	acq_pleas_masked	acq1_masked	1	9	0	0	300	300	0	0	1504	50	0	1	0	0	0	1	blank2r.bmp	0	1	+	0	4	B4r.bmp	492	1	blank2r.bmp	786	1	DJMR	786	1	blank2r.bmp	866	3	erfinder	866	0	0	0	0	0	0	0	0	0	0	0	0	0	0	0	0	0	0	0	0	0	0	0	0	0	0	0	0	0	0	0	0	0
062118	11:08:17	5.0.12.0	65	associated	Rpleas_acq	Same	Rpleas	Amasked	CS_A	2pleas	acq_pleas_masked	acq1_masked	1	10	0	0	300	300	0	0	560	50	0	1	0	0	0	1	blank2r.bmp	0	1	+	0	5	C1r.bmp	492	1	blank2r.bmp	786	1	DJMR	786	1	blank2r.bmp	866	2	meer	866	0	0	0	0	0	0	0	0	0	0	0	0	0	0	0	0	0	0	0	0	0	0	0	0	0	0	0	0	0	0	0	0	0
062118	11:08:17	5.0.12.0	65	associated	Rpleas_acq	Same	Rpleas	Amasked	CS_A	2pleas	acq_pleas_masked	acq1_masked	1	11	0	0	300	300	0	0	572	46	0	0	0	0	0	1	blank2r.bmp	0	1	+	0	6	C2r.bmp	492	1	blank2r.bmp	786	1	DJMR	786	1	blank2r.bmp	866	4	mama	866	1	FEHLER	1466	0	0	0	0	0	0	0	0	0	0	0	0	0	0	0	0	0	0	0	0	0	0	0	0	0	0	0	0	0	0
062118	11:08:17	5.0.12.0	65	associated	Rpleas_acq	Same	Rpleas	Amasked	CS_A	2pleas	acq_unple_masked	acq1_masked	1	12	0	0	300	300	0	0	939	46	0	1	0	0	0	1	blank2r.bmp	0	1	+	0	1	B1r.bmp	492	1	blank2r.bmp	786	1	HLST	786	1	blank2r.bmp	866	4	geiz	866	0	0	0	0	0	0	0	0	0	0	0	0	0	0	0	0	0	0	0	0	0	0	0	0	0	0	0	0	0	0	0	0	0
062118	11:08:17	5.0.12.0	65	associated	Rpleas_acq	Same	Rpleas	Amasked	CS_A	2pleas	acq_unple_masked	acq1_masked	1	13	0	0	300	300	0	0	726	46	0	1	0	0	0	1	blank2r.bmp	0	1	+	0	8	C4r.bmp	492	1	blank2r.bmp	786	1	HLST	786	1	blank2r.bmp	866	3	narr	866	0	0	0	0	0	0	0	0	0	0	0	0	0	0	0	0	0	0	0	0	0	0	0	0	0	0	0	0	0	0	0	0	0
062118	11:08:17	5.0.12.0	65	associated	Rpleas_acq	Same	Rpleas	Amasked	CS_A	2pleas	acq_unple_masked	acq1_masked	1	14	0	0	300	300	0	0	569	46	0	1	0	0	0	1	blank2r.bmp	0	1	+	0	7	C3r.bmp	492	1	blank2r.bmp	786	1	HLST	786	1	blank2r.bmp	866	5	gegner	866	0	0	0	0	0	0	0	0	0	0	0	0	0	0	0	0	0	0	0	0	0	0	0	0	0	0	0	0	0	0	0	0	0
062118	11:08:17	5.0.12.0	65	associated	Rpleas_acq	Same	Rpleas	Amasked	CS_A	2pleas	acq_unple_masked	acq1_masked	1	15	0	0	300	300	0	0	584	46	0	1	0	0	0	1	blank2r.bmp	0	1	+	0	3	B3r.bmp	492	1	blank2r.bmp	786	1	HLST	786	1	blank2r.bmp	866	1	wunde	866	0	0	0	0	0	0	0	0	0	0	0	0	0	0	0	0	0	0	0	0	0	0	0	0	0	0	0	0	0	0	0	0	0
062118	11:08:17	5.0.12.0	65	associated	Rpleas_acq	Same	Rpleas	Amasked	CS_A	2pleas	acq_pleas_masked	acq1_masked	1	16	0	0	300	300	0	0	618	50	0	1	0	0	0	1	blank2r.bmp	0	1	+	0	2	B2r.bmp	492	1	blank2r.bmp	786	1	DJMR	786	1	blank2r.bmp	866	2	meer	866	0	0	0	0	0	0	0	0	0	0	0	0	0	0	0	0	0	0	0	0	0	0	0	0	0	0	0	0	0	0	0	0	0
062118	11:08:17	5.0.12.0	65	associated	Rpleas_acq	Same	Rpleas	Amasked	CS_A	2pleas	acq_unple_masked	acq1_masked	1	17	0	0	300	300	0	0	644	46	0	1	0	0	0	1	blank2r.bmp	0	1	+	0	6	C2r.bmp	492	1	blank2r.bmp	786	1	HLST	786	1	blank2r.bmp	866	2	zwang	866	0	0	0	0	0	0	0	0	0	0	0	0	0	0	0	0	0	0	0	0	0	0	0	0	0	0	0	0	0	0	0	0	0
062118	11:08:17	5.0.12.0	65	associated	Rpleas_acq	Same	Rpleas	Amasked	CS_A	2pleas	acq_pleas_masked	acq1_masked	1	18	0	0	300	300	0	0	644	50	0	1	0	0	0	1	blank2r.bmp	0	1	+	0	3	B3r.bmp	492	1	blank2r.bmp	786	1	DJMR	786	1	blank2r.bmp	866	3	erfinder	866	0	0	0	0	0	0	0	0	0	0	0	0	0	0	0	0	0	0	0	0	0	0	0	0	0	0	0	0	0	0	0	0	0
062118	11:08:17	5.0.12.0	65	associated	Rpleas_acq	Same	Rpleas	Amasked	CS_A	2pleas	acq_unple_masked	acq1_masked	1	19	0	0	300	300	0	0	595	46	0	1	0	0	0	1	blank2r.bmp	0	1	+	0	4	B4r.bmp	492	1	blank2r.bmp	786	1	HLST	786	1	blank2r.bmp	866	3	narr	866	0	0	0	0	0	0	0	0	0	0	0	0	0	0	0	0	0	0	0	0	0	0	0	0	0	0	0	0	0	0	0	0	0
062118	11:08:17	5.0.12.0	65	associated	Rpleas_acq	Same	Rpleas	Amasked	CS_A	2pleas	acq_unple_masked	acq1_masked	1	20	0	0	300	300	0	0	1099	50	0	0	0	0	0	1	blank2r.bmp	0	1	+	0	1	B1r.bmp	492	1	blank2r.bmp	786	1	HLST	786	1	blank2r.bmp	866	4	geiz	866	1	FEHLER	1993	0	0	0	0	0	0	0	0	0	0	0	0	0	0	0	0	0	0	0	0	0	0	0	0	0	0	0	0	0	0
062118	11:08:17	5.0.12.0	65	associated	Rpleas_acq	Same	Rpleas	Amasked	CS_A	2pleas	acq_pleas_masked	acq1_masked	1	21	0	0	300	300	0	0	854	50	0	1	0	0	0	1	blank2r.bmp	0	1	+	0	5	C1r.bmp	492	1	blank2r.bmp	786	1	DJMR	786	1	blank2r.bmp	866	5	jugend	866	0	0	0	0	0	0	0	0	0	0	0	0	0	0	0	0	0	0	0	0	0	0	0	0	0	0	0	0	0	0	0	0	0
062118	11:08:17	5.0.12.0	65	associated	Rpleas_acq	Same	Rpleas	Amasked	CS_A	2pleas	acq_unple_masked	acq1_masked	1	22	0	0	300	300	0	0	785	46	0	1	0	0	0	1	blank2r.bmp	0	1	+	0	7	C3r.bmp	492	1	blank2r.bmp	786	1	HLST	786	1	blank2r.bmp	866	6	armee	866	0	0	0	0	0	0	0	0	0	0	0	0	0	0	0	0	0	0	0	0	0	0	0	0	0	0	0	0	0	0	0	0	0
062118	11:08:17	5.0.12.0	65	associated	Rpleas_acq	Same	Rpleas	Amasked	CS_A	2pleas	acq_pleas_masked	acq1_masked	1	23	0	0	300	300	0	0	876	50	0	1	0	0	0	1	blank2r.bmp	0	1	+	0	8	C4r.bmp	492	1	blank2r.bmp	786	1	DJMR	786	1	blank2r.bmp	866	1	frieden	866	0	0	0	0	0	0	0	0	0	0	0	0	0	0	0	0	0	0	0	0	0	0	0	0	0	0	0	0	0	0	0	0	0
062118	11:08:17	5.0.12.0	65	associated	Rpleas_acq	Same	Rpleas	Amasked	CS_A	2pleas	acq_pleas_masked	acq1_masked	1	24	0	0	300	300	0	0	796	50	0	1	0	0	0	1	blank2r.bmp	0	1	+	0	2	B2r.bmp	492	1	blank2r.bmp	786	1	DJMR	786	1	blank2r.bmp	866	6	wein	866	0	0	0	0	0	0	0	0	0	0	0	0	0	0	0	0	0	0	0	0	0	0	0	0	0	0	0	0	0	0	0	0	0
062118	11:08:17	5.0.12.0	65	associated	Rpleas_acq	Same	Rpleas	Amasked	CS_A	2pleas	acq_unple_masked	acq2_masked	2	1	480	0	300	300	0	0	1260	46	0	1	0	0	0	1	blank2r.bmp	0	1	+	0	4	B4r.bmp	492	1	blank2r.bmp	786	1	HLST	786	1	blank2r.bmp	866	1	wunde	866	1	!	1307	1	!	-1	0	0	0	0	0	0	0	0	0	0	0	0	0	0	0	0	0	0	0	0	0	0	0	0	0	0	0
062118	11:08:17	5.0.12.0	65	associated	Rpleas_acq	Same	Rpleas	Amasked	CS_A	2pleas	acq_pleas_masked	acq2_masked	2	2	480	0	300	300	0	0	647	50	0	1	0	0	0	1	blank2r.bmp	0	1	+	0	6	C2r.bmp	492	1	blank2r.bmp	786	1	DJMR	786	1	blank2r.bmp	866	2	meer	866	1	!	1307	1	!	-1	0	0	0	0	0	0	0	0	0	0	0	0	0	0	0	0	0	0	0	0	0	0	0	0	0	0	0
062118	11:08:17	5.0.12.0	65	associated	Rpleas_acq	Same	Rpleas	Amasked	CS_A	2pleas	acq_pleas_masked	acq2_masked	2	3	480	0	300	300	0	0	3138	46	0	0	0	0	0	1	blank2r.bmp	0	1	+	0	5	C1r.bmp	492	1	blank2r.bmp	786	1	DJMR	786	1	blank2r.bmp	866	6	wein	866	1	FEHLER	4325	1	!	1307	1	!	-1	0	0	0	0	0	0	0	0	0	0	0	0	0	0	0	0	0	0	0	0	0	0	0	0
062118	11:08:17	5.0.12.0	65	associated	Rpleas_acq	Same	Rpleas	Amasked	CS_A	2pleas	acq_unple_masked	acq2_masked	2	4	480	0	300	300	0	0	571	46	0	1	0	0	0	1	blank2r.bmp	0	1	+	0	2	B2r.bmp	492	1	blank2r.bmp	786	1	HLST	786	1	blank2r.bmp	866	5	gegner	866	1	!	1307	1	!	-1	0	0	0	0	0	0	0	0	0	0	0	0	0	0	0	0	0	0	0	0	0	0	0	0	0	0	0
062118	11:08:17	5.0.12.0	65	associated	Rpleas_acq	Same	Rpleas	Amasked	CS_A	2pleas	acq_pleas_masked	acq2_masked	2	5	480	1	300	300	0	0	489	46	0	0	0	0	0	1	blank2r.bmp	0	1	+	0	3	B3r.bmp	492	1	blank2r.bmp	786	1	DJMR	786	1	blank2r.bmp	866	4	mama	866	1	FEHLER	1676	1	!	1307	1	!	1383	0	0	0	0	0	0	0	0	0	0	0	0	0	0	0	0	0	0	0	0	0	0	0	0
062118	11:08:17	5.0.12.0	65	associated	Rpleas_acq	Same	Rpleas	Amasked	CS_A	2pleas	acq_pleas_masked	acq2_masked	2	6	480	1	300	300	0	0	454	46	0	0	0	0	0	1	blank2r.bmp	0	1	+	0	7	C3r.bmp	492	1	blank2r.bmp	786	1	DJMR	786	1	blank2r.bmp	866	5	jugend	866	1	FEHLER	1642	1	!	1307	1	!	1348	0	0	0	0	0	0	0	0	0	0	0	0	0	0	0	0	0	0	0	0	0	0	0	0
062118	11:08:17	5.0.12.0	65	associated	Rpleas_acq	Same	Rpleas	Amasked	CS_A	2pleas	acq_unple_masked	acq2_masked	2	7	480	0	300	300	0	0	412	50	0	0	0	0	0	1	blank2r.bmp	0	1	+	0	8	C4r.bmp	492	1	blank2r.bmp	786	1	HLST	786	1	blank2r.bmp	866	3	narr	866	1	FEHLER	1599	1	!	-1	1	!	-1	0	0	0	0	0	0	0	0	0	0	0	0	0	0	0	0	0	0	0	0	0	0	0	0
062118	11:08:17	5.0.12.0	65	associated	Rpleas_acq	Same	Rpleas	Amasked	CS_A	2pleas	acq_unple_masked	acq2_masked	2	8	480	0	300	300	0	0	633	46	0	1	0	0	0	1	blank2r.bmp	0	1	+	0	1	B1r.bmp	492	1	blank2r.bmp	786	1	HLST	786	1	blank2r.bmp	866	2	zwang	866	1	!	1307	1	!	-1	0	0	0	0	0	0	0	0	0	0	0	0	0	0	0	0	0	0	0	0	0	0	0	0	0	0	0
062118	11:08:17	5.0.12.0	65	associated	Rpleas_acq	Same	Rpleas	Amasked	CS_A	2pleas	acq_unple_masked	acq2_masked	2	9	480	0	300	300	0	0	628	50	0	0	0	0	0	1	blank2r.bmp	0	1	+	0	3	B3r.bmp	492	1	blank2r.bmp	786	1	HLST	786	1	blank2r.bmp	866	4	geiz	866	1	FEHLER	1815	1	!	1307	1	!	-1	0	0	0	0	0	0	0	0	0	0	0	0	0	0	0	0	0	0	0	0	0	0	0	0
062118	11:08:17	5.0.12.0	65	associated	Rpleas_acq	Same	Rpleas	Amasked	CS_A	2pleas	acq_unple_masked	acq2_masked	2	10	480	1	300	300	0	0	442	46	0	1	0	0	0	1	blank2r.bmp	0	1	+	0	6	C2r.bmp	492	1	blank2r.bmp	786	1	HLST	786	1	blank2r.bmp	866	6	armee	866	1	!	1307	1	!	1335	0	0	0	0	0	0	0	0	0	0	0	0	0	0	0	0	0	0	0	0	0	0	0	0	0	0	0
062118	11:08:17	5.0.12.0	65	associated	Rpleas_acq	Same	Rpleas	Amasked	CS_A	2pleas	acq_pleas_masked	acq2_masked	2	11	480	0	300	300	0	0	572	50	0	1	0	0	0	1	blank2r.bmp	0	1	+	0	5	C1r.bmp	492	1	blank2r.bmp	786	1	DJMR	786	1	blank2r.bmp	866	3	erfinder	866	1	!	1307	1	!	-1	0	0	0	0	0	0	0	0	0	0	0	0	0	0	0	0	0	0	0	0	0	0	0	0	0	0	0
062118	11:08:17	5.0.12.0	65	associated	Rpleas_acq	Same	Rpleas	Amasked	CS_A	2pleas	acq_unple_masked	acq2_masked	2	12	480	1	300	300	0	0	490	46	0	1	0	0	0	1	blank2r.bmp	0	1	+	0	2	B2r.bmp	492	1	blank2r.bmp	786	1	HLST	786	1	blank2r.bmp	866	4	geiz	866	1	!	1307	1	!	1383	0	0	0	0	0	0	0	0	0	0	0	0	0	0	0	0	0	0	0	0	0	0	0	0	0	0	0
062118	11:08:17	5.0.12.0	65	associated	Rpleas_acq	Same	Rpleas	Amasked	CS_A	2pleas	acq_pleas_masked	acq2_masked	2	13	480	1	300	300	0	0	500	50	0	1	0	0	0	1	blank2r.bmp	0	1	+	0	8	C4r.bmp	492	1	blank2r.bmp	786	1	DJMR	786	1	blank2r.bmp	866	1	frieden	866	1	!	1307	1	!	1394	0	0	0	0	0	0	0	0	0	0	0	0	0	0	0	0	0	0	0	0	0	0	0	0	0	0	0
062118	11:08:17	5.0.12.0	65	associated	Rpleas_acq	Same	Rpleas	Amasked	CS_A	2pleas	acq_unple_masked	acq2_masked	2	14	480	0	300	300	0	0	626	46	0	1	0	0	0	1	blank2r.bmp	0	1	+	0	1	B1r.bmp	492	1	blank2r.bmp	786	1	HLST	786	1	blank2r.bmp	866	1	wunde	866	1	!	1307	1	!	-1	0	0	0	0	0	0	0	0	0	0	0	0	0	0	0	0	0	0	0	0	0	0	0	0	0	0	0
062118	11:08:17	5.0.12.0	65	associated	Rpleas_acq	Same	Rpleas	Amasked	CS_A	2pleas	acq_pleas_masked	acq2_masked	2	15	480	0	300	300	0	0	666	50	0	1	0	0	0	1	blank2r.bmp	0	1	+	0	7	C3r.bmp	492	1	blank2r.bmp	786	1	DJMR	786	1	blank2r.bmp	866	4	mama	866	1	!	1307	1	!	-1	0	0	0	0	0	0	0	0	0	0	0	0	0	0	0	0	0	0	0	0	0	0	0	0	0	0	0
062118	11:08:17	5.0.12.0	65	associated	Rpleas_acq	Same	Rpleas	Amasked	CS_A	2pleas	acq_pleas_masked	acq2_masked	2	16	480	1	300	300	0	0	475	46	0	0	0	0	0	1	blank2r.bmp	0	1	+	0	4	B4r.bmp	492	1	blank2r.bmp	786	1	DJMR	786	1	blank2r.bmp	866	2	meer	866	1	FEHLER	1663	1	!	1307	1	!	1369	0	0	0	0	0	0	0	0	0	0	0	0	0	0	0	0	0	0	0	0	0	0	0	0
062118	11:08:17	5.0.12.0	65	associated	Rpleas_acq	Same	Rpleas	Amasked	CS_A	2pleas	acq_unple_masked	acq2_masked	2	17	480	0	300	300	0	0	339	50	0	0	0	0	0	1	blank2r.bmp	0	1	+	0	4	B4r.bmp	492	1	blank2r.bmp	786	1	HLST	786	1	blank2r.bmp	866	6	armee	866	1	FEHLER	1526	1	!	-1	1	!	-1	0	0	0	0	0	0	0	0	0	0	0	0	0	0	0	0	0	0	0	0	0	0	0	0
062118	11:08:17	5.0.12.0	65	associated	Rpleas_acq	Same	Rpleas	Amasked	CS_A	2pleas	acq_pleas_masked	acq2_masked	2	18	480	1	300	300	0	0	530	50	0	1	0	0	0	1	blank2r.bmp	0	1	+	0	1	B1r.bmp	492	1	blank2r.bmp	786	1	DJMR	786	1	blank2r.bmp	866	6	wein	866	1	!	1307	1	!	1424	0	0	0	0	0	0	0	0	0	0	0	0	0	0	0	0	0	0	0	0	0	0	0	0	0	0	0
062118	11:08:17	5.0.12.0	65	associated	Rpleas_acq	Same	Rpleas	Amasked	CS_A	2pleas	acq_pleas_masked	acq2_masked	2	19	480	1	300	300	0	0	437	50	0	1	0	0	0	1	blank2r.bmp	0	1	+	0	8	C4r.bmp	492	1	blank2r.bmp	786	1	DJMR	786	1	blank2r.bmp	866	5	jugend	866	1	!	1307	1	!	1331	0	0	0	0	0	0	0	0	0	0	0	0	0	0	0	0	0	0	0	0	0	0	0	0	0	0	0
062118	11:08:17	5.0.12.0	65	associated	Rpleas_acq	Same	Rpleas	Amasked	CS_A	2pleas	acq_pleas_masked	acq2_masked	2	20	480	0	300	300	0	0	344	46	0	0	0	0	0	1	blank2r.bmp	0	1	+	0	7	C3r.bmp	492	1	blank2r.bmp	786	1	DJMR	786	1	blank2r.bmp	866	3	erfinder	866	1	FEHLER	1531	1	!	-1	1	!	-1	0	0	0	0	0	0	0	0	0	0	0	0	0	0	0	0	0	0	0	0	0	0	0	0
062118	11:08:17	5.0.12.0	65	associated	Rpleas_acq	Same	Rpleas	Amasked	CS_A	2pleas	acq_unple_masked	acq2_masked	2	21	480	1	300	300	0	0	533	50	0	0	0	0	0	1	blank2r.bmp	0	1	+	0	2	B2r.bmp	492	1	blank2r.bmp	786	1	HLST	786	1	blank2r.bmp	866	2	zwang	866	1	FEHLER	1720	1	!	1307	1	!	1426	0	0	0	0	0	0	0	0	0	0	0	0	0	0	0	0	0	0	0	0	0	0	0	0
062118	11:08:17	5.0.12.0	65	associated	Rpleas_acq	Same	Rpleas	Amasked	CS_A	2pleas	acq_pleas_masked	acq2_masked	2	22	480	1	300	300	0	0	538	50	0	1	0	0	0	1	blank2r.bmp	0	1	+	0	3	B3r.bmp	492	1	blank2r.bmp	786	1	DJMR	786	1	blank2r.bmp	866	1	frieden	866	1	!	1307	1	!	1432	0	0	0	0	0	0	0	0	0	0	0	0	0	0	0	0	0	0	0	0	0	0	0	0	0	0	0
062118	11:08:17	5.0.12.0	65	associated	Rpleas_acq	Same	Rpleas	Amasked	CS_A	2pleas	acq_unple_masked	acq2_masked	2	23	480	0	300	300	0	0	640	46	0	1	0	0	0	1	blank2r.bmp	0	1	+	0	5	C1r.bmp	492	1	blank2r.bmp	786	1	HLST	786	1	blank2r.bmp	866	3	narr	866	1	!	1307	1	!	-1	0	0	0	0	0	0	0	0	0	0	0	0	0	0	0	0	0	0	0	0	0	0	0	0	0	0	0
062118	11:08:17	5.0.12.0	65	associated	Rpleas_acq	Same	Rpleas	Amasked	CS_A	2pleas	acq_unple_masked	acq2_masked	2	24	480	1	300	300	0	0	520	50	0	0	0	0	0	1	blank2r.bmp	0	1	+	0	6	C2r.bmp	492	1	blank2r.bmp	786	1	HLST	786	1	blank2r.bmp	866	5	gegner	866	1	FEHLER	1707	1	!	1307	1	!	1414	0	0	0	0	0	0	0	0	0	0	0	0	0	0	0	0	0	0	0	0	0	0	0	0
062118	11:08:17	5.0.12.0	65	associated	Rpleas_acq	Same	Rpleas	Amasked	CS_A	2pleas	acq_pleas_masked	acq3_masked	3	1	453	0	300	300	0	0	647	50	0	1	0	0	0	1	blank2r.bmp	0	1	+	0	7	C3r.bmp	492	1	blank2r.bmp	786	1	DJMR	786	1	blank2r.bmp	866	5	jugend	866	1	!	1280	1	!	-1	0	0	0	0	0	0	0	0	0	0	0	0	0	0	0	0	0	0	0	0	0	0	0	0	0	0	0
062118	11:08:17	5.0.12.0	65	associated	Rpleas_acq	Same	Rpleas	Amasked	CS_A	2pleas	acq_unple_masked	acq3_masked	3	2	453	1	300	300	0	0	466	46	0	1	0	0	0	1	blank2r.bmp	0	1	+	0	5	C1r.bmp	492	1	blank2r.bmp	786	1	HLST	786	1	blank2r.bmp	866	6	armee	866	1	!	1280	1	!	1359	0	0	0	0	0	0	0	0	0	0	0	0	0	0	0	0	0	0	0	0	0	0	0	0	0	0	0
062118	11:08:17	5.0.12.0	65	associated	Rpleas_acq	Same	Rpleas	Amasked	CS_A	2pleas	acq_pleas_masked	acq3_masked	3	3	453	0	300	300	0	0	682	46	0	0	0	0	0	1	blank2r.bmp	0	1	+	0	2	B2r.bmp	492	1	blank2r.bmp	786	1	DJMR	786	1	blank2r.bmp	866	4	mama	866	1	FEHLER	1869	1	!	1280	1	!	-1	0	0	0	0	0	0	0	0	0	0	0	0	0	0	0	0	0	0	0	0	0	0	0	0
062118	11:08:17	5.0.12.0	65	associated	Rpleas_acq	Same	Rpleas	Amasked	CS_A	2pleas	acq_pleas_masked	acq3_masked	3	4	453	0	300	300	0	0	541	50	0	1	0	0	0	1	blank2r.bmp	0	1	+	0	6	C2r.bmp	492	1	blank2r.bmp	786	1	DJMR	786	1	blank2r.bmp	866	6	wein	866	1	!	1280	1	!	-1	0	0	0	0	0	0	0	0	0	0	0	0	0	0	0	0	0	0	0	0	0	0	0	0	0	0	0
062118	11:08:17	5.0.12.0	65	associated	Rpleas_acq	Same	Rpleas	Amasked	CS_A	2pleas	acq_unple_masked	acq3_masked	3	5	453	1	300	300	0	0	389	50	0	0	0	0	0	1	blank2r.bmp	0	1	+	0	1	B1r.bmp	492	1	blank2r.bmp	786	1	HLST	786	1	blank2r.bmp	866	3	narr	866	1	FEHLER	1577	1	!	1280	1	!	1283	0	0	0	0	0	0	0	0	0	0	0	0	0	0	0	0	0	0	0	0	0	0	0	0
062118	11:08:17	5.0.12.0	65	associated	Rpleas_acq	Same	Rpleas	Amasked	CS_A	2pleas	acq_pleas_masked	acq3_masked	3	6	453	1	300	300	0	0	413	46	0	0	0	0	0	1	blank2r.bmp	0	1	+	0	8	C4r.bmp	492	1	blank2r.bmp	786	1	DJMR	786	1	blank2r.bmp	866	3	erfinder	866	1	FEHLER	1600	1	!	1280	1	!	1307	0	0	0	0	0	0	0	0	0	0	0	0	0	0	0	0	0	0	0	0	0	0	0	0
062118	11:08:17	5.0.12.0	65	associated	Rpleas_acq	Same	Rpleas	Amasked	CS_A	2pleas	acq_pleas_masked	acq3_masked	3	7	453	0	300	300	0	0	2346	50	0	1	0	0	0	1	blank2r.bmp	0	1	+	0	3	B3r.bmp	492	1	blank2r.bmp	786	1	DJMR	786	1	blank2r.bmp	866	1	frieden	866	1	!	1280	1	!	-1	0	0	0	0	0	0	0	0	0	0	0	0	0	0	0	0	0	0	0	0	0	0	0	0	0	0	0
062118	11:08:17	5.0.12.0	65	associated	Rpleas_acq	Same	Rpleas	Amasked	CS_A	2pleas	acq_unple_masked	acq3_masked	3	8	453	0	300	300	0	0	561	46	0	1	0	0	0	1	blank2r.bmp	0	1	+	0	4	B4r.bmp	492	1	blank2r.bmp	786	1	HLST	786	1	blank2r.bmp	866	1	wunde	866	1	!	1280	1	!	-1	0	0	0	0	0	0	0	0	0	0	0	0	0	0	0	0	0	0	0	0	0	0	0	0	0	0	0
062118	11:08:17	5.0.12.0	65	associated	Rpleas_acq	Same	Rpleas	Amasked	CS_A	2pleas	acq_pleas_masked	acq3_masked	3	9	453	1	300	300	0	0	476	50	0	1	0	0	0	1	blank2r.bmp	0	1	+	0	8	C4r.bmp	492	1	blank2r.bmp	786	1	DJMR	786	1	blank2r.bmp	866	2	meer	866	1	!	1280	1	!	1369	0	0	0	0	0	0	0	0	0	0	0	0	0	0	0	0	0	0	0	0	0	0	0	0	0	0	0
062118	11:08:17	5.0.12.0	65	associated	Rpleas_acq	Same	Rpleas	Amasked	CS_A	2pleas	acq_unple_masked	acq3_masked	3	10	453	1	300	300	0	0	390	50	0	0	0	0	0	1	blank2r.bmp	0	1	+	0	7	C3r.bmp	492	1	blank2r.bmp	786	1	HLST	786	1	blank2r.bmp	866	4	geiz	866	1	FEHLER	1578	1	!	1280	1	!	1284	0	0	0	0	0	0	0	0	0	0	0	0	0	0	0	0	0	0	0	0	0	0	0	0
062118	11:08:17	5.0.12.0	65	associated	Rpleas_acq	Same	Rpleas	Amasked	CS_A	2pleas	acq_pleas_masked	acq3_masked	3	11	453	0	300	300	0	0	334	46	0	0	0	0	0	1	blank2r.bmp	0	1	+	0	3	B3r.bmp	492	1	blank2r.bmp	786	1	DJMR	786	1	blank2r.bmp	866	6	wein	866	1	FEHLER	1521	1	!	-1	1	!	-1	0	0	0	0	0	0	0	0	0	0	0	0	0	0	0	0	0	0	0	0	0	0	0	0
062118	11:08:17	5.0.12.0	65	associated	Rpleas_acq	Same	Rpleas	Amasked	CS_A	2pleas	acq_pleas_masked	acq3_masked	3	12	453	1	300	300	0	0	472	50	0	1	0	0	0	1	blank2r.bmp	0	1	+	0	6	C2r.bmp	492	1	blank2r.bmp	786	1	DJMR	786	1	blank2r.bmp	866	3	erfinder	866	1	!	1280	1	!	1366	0	0	0	0	0	0	0	0	0	0	0	0	0	0	0	0	0	0	0	0	0	0	0	0	0	0	0
062118	11:08:17	5.0.12.0	65	associated	Rpleas_acq	Same	Rpleas	Amasked	CS_A	2pleas	acq_unple_masked	acq3_masked	3	13	453	1	300	300	0	0	432	50	0	0	0	0	0	1	blank2r.bmp	0	1	+	0	4	B4r.bmp	492	1	blank2r.bmp	786	1	HLST	786	1	blank2r.bmp	866	5	gegner	866	1	FEHLER	1619	1	!	1280	1	!	1326	0	0	0	0	0	0	0	0	0	0	0	0	0	0	0	0	0	0	0	0	0	0	0	0
062118	11:08:17	5.0.12.0	65	associated	Rpleas_acq	Same	Rpleas	Amasked	CS_A	2pleas	acq_unple_masked	acq3_masked	3	14	453	0	300	300	0	0	384	46	0	1	0	0	0	1	blank2r.bmp	0	1	+	0	2	B2r.bmp	492	1	blank2r.bmp	786	1	HLST	786	1	blank2r.bmp	866	2	zwang	866	1	!	-1	1	!	-1	0	0	0	0	0	0	0	0	0	0	0	0	0	0	0	0	0	0	0	0	0	0	0	0	0	0	0
062118	11:08:17	5.0.12.0	65	associated	Rpleas_acq	Same	Rpleas	Amasked	CS_A	2pleas	acq_unple_masked	acq3_masked	3	15	453	1	300	300	0	0	407	50	0	0	0	0	0	1	blank2r.bmp	0	1	+	0	5	C1r.bmp	492	1	blank2r.bmp	786	1	HLST	786	1	blank2r.bmp	866	5	gegner	866	1	FEHLER	1595	1	!	1280	1	!	1301	0	0	0	0	0	0	0	0	0	0	0	0	0	0	0	0	0	0	0	0	0	0	0	0
062118	11:08:17	5.0.12.0	65	associated	Rpleas_acq	Same	Rpleas	Amasked	CS_A	2pleas	acq_unple_masked	acq3_masked	3	16	453	1	300	300	0	0	418	46	0	1	0	0	0	1	blank2r.bmp	0	1	+	0	1	B1r.bmp	492	1	blank2r.bmp	786	1	HLST	786	1	blank2r.bmp	866	4	geiz	866	1	!	1280	1	!	1311	0	0	0	0	0	0	0	0	0	0	0	0	0	0	0	0	0	0	0	0	0	0	0	0	0	0	0
062118	11:08:17	5.0.12.0	65	associated	Rpleas_acq	Same	Rpleas	Amasked	CS_A	2pleas	acq_unple_masked	acq3_masked	3	17	453	1	300	300	0	0	463	46	0	1	0	0	0	1	blank2r.bmp	0	1	+	0	2	B2r.bmp	492	1	blank2r.bmp	786	1	HLST	786	1	blank2r.bmp	866	3	narr	866	1	!	1280	1	!	1356	0	0	0	0	0	0	0	0	0	0	0	0	0	0	0	0	0	0	0	0	0	0	0	0	0	0	0
062118	11:08:17	5.0.12.0	65	associated	Rpleas_acq	Same	Rpleas	Amasked	CS_A	2pleas	acq_unple_masked	acq3_masked	3	18	453	0	300	300	0	0	596	46	0	1	0	0	0	1	blank2r.bmp	0	1	+	0	4	B4r.bmp	492	1	blank2r.bmp	786	1	HLST	786	1	blank2r.bmp	866	1	wunde	866	1	!	1280	1	!	-1	0	0	0	0	0	0	0	0	0	0	0	0	0	0	0	0	0	0	0	0	0	0	0	0	0	0	0
062118	11:08:17	5.0.12.0	65	associated	Rpleas_acq	Same	Rpleas	Amasked	CS_A	2pleas	acq_pleas_masked	acq3_masked	3	19	453	1	300	300	0	0	516	46	0	0	0	0	0	1	blank2r.bmp	0	1	+	0	8	C4r.bmp	492	1	blank2r.bmp	786	1	DJMR	786	1	blank2r.bmp	866	2	meer	866	1	FEHLER	1704	1	!	1280	1	!	1410	0	0	0	0	0	0	0	0	0	0	0	0	0	0	0	0	0	0	0	0	0	0	0	0
062118	11:08:17	5.0.12.0	65	associated	Rpleas_acq	Same	Rpleas	Amasked	CS_A	2pleas	acq_pleas_masked	acq3_masked	3	20	453	1	300	300	0	0	487	50	0	1	0	0	0	1	blank2r.bmp	0	1	+	0	7	C3r.bmp	492	1	blank2r.bmp	786	1	DJMR	786	1	blank2r.bmp	866	4	mama	866	1	!	1280	1	!	1381	0	0	0	0	0	0	0	0	0	0	0	0	0	0	0	0	0	0	0	0	0	0	0	0	0	0	0
062118	11:08:17	5.0.12.0	65	associated	Rpleas_acq	Same	Rpleas	Amasked	CS_A	2pleas	acq_pleas_masked	acq3_masked	3	21	453	1	300	300	0	0	498	50	0	1	0	0	0	1	blank2r.bmp	0	1	+	0	1	B1r.bmp	492	1	blank2r.bmp	786	1	DJMR	786	1	blank2r.bmp	866	5	jugend	866	1	!	1280	1	!	1391	0	0	0	0	0	0	0	0	0	0	0	0	0	0	0	0	0	0	0	0	0	0	0	0	0	0	0
062118	11:08:17	5.0.12.0	65	associated	Rpleas_acq	Same	Rpleas	Amasked	CS_A	2pleas	acq_unple_masked	acq3_masked	3	22	453	1	300	300	0	0	415	50	0	0	0	0	0	1	blank2r.bmp	0	1	+	0	5	C1r.bmp	492	1	blank2r.bmp	786	1	HLST	786	1	blank2r.bmp	866	2	zwang	866	1	FEHLER	1603	1	!	1280	1	!	1309	0	0	0	0	0	0	0	0	0	0	0	0	0	0	0	0	0	0	0	0	0	0	0	0
062118	11:08:17	5.0.12.0	65	associated	Rpleas_acq	Same	Rpleas	Amasked	CS_A	2pleas	acq_unple_masked	acq3_masked	3	23	453	0	300	300	0	0	714	46	0	1	0	0	0	1	blank2r.bmp	0	1	+	0	3	B3r.bmp	492	1	blank2r.bmp	786	1	HLST	786	1	blank2r.bmp	866	6	armee	866	1	!	1280	1	!	-1	0	0	0	0	0	0	0	0	0	0	0	0	0	0	0	0	0	0	0	0	0	0	0	0	0	0	0
062118	11:08:17	5.0.12.0	65	associated	Rpleas_acq	Same	Rpleas	Amasked	CS_A	2pleas	acq_pleas_masked	acq3_masked	3	24	453	0	300	300	0	0	562	50	0	1	0	0	0	1	blank2r.bmp	0	1	+	0	6	C2r.bmp	492	1	blank2r.bmp	786	1	DJMR	786	1	blank2r.bmp	866	1	frieden	866	1	!	1280	1	!	-1	0	0	0	0	0	0	0	0	0	0	0	0	0	0	0	0	0	0	0	0	0	0	0	0	0	0	0
062118	11:08:17	5.0.12.0	65	associated	Rpleas_acq	Same	Rpleas	Amasked	CS_A	2pleas	acq_unple_masked	acq3_masked	3	25	453	1	300	300	0	0	509	46	0	1	0	0	0	1	blank2r.bmp	0	1	+	0	1	B1r.bmp	492	1	blank2r.bmp	786	1	HLST	786	1	blank2r.bmp	866	2	zwang	866	1	!	1280	1	!	1403	0	0	0	0	0	0	0	0	0	0	0	0	0	0	0	0	0	0	0	0	0	0	0	0	0	0	0
062118	11:08:17	5.0.12.0	65	associated	Rpleas_acq	Same	Rpleas	Amasked	CS_A	2pleas	acq_pleas_masked	acq3_masked	3	26	453	1	300	300	0	0	509	50	0	1	0	0	0	1	blank2r.bmp	0	1	+	0	5	C1r.bmp	492	1	blank2r.bmp	786	1	DJMR	786	1	blank2r.bmp	866	3	erfinder	866	1	!	1280	1	!	1403	0	0	0	0	0	0	0	0	0	0	0	0	0	0	0	0	0	0	0	0	0	0	0	0	0	0	0
062118	11:08:17	5.0.12.0	65	associated	Rpleas_acq	Same	Rpleas	Amasked	CS_A	2pleas	acq_unple_masked	acq3_masked	3	27	453	0	300	300	0	0	1211	46	0	1	0	0	0	1	blank2r.bmp	0	1	+	0	8	C4r.bmp	492	1	blank2r.bmp	786	1	HLST	786	1	blank2r.bmp	866	5	gegner	866	1	!	1280	1	!	-1	0	0	0	0	0	0	0	0	0	0	0	0	0	0	0	0	0	0	0	0	0	0	0	0	0	0	0
062118	11:08:17	5.0.12.0	65	associated	Rpleas_acq	Same	Rpleas	Amasked	CS_A	2pleas	acq_unple_masked	acq3_masked	3	28	453	1	300	300	0	0	427	46	0	1	0	0	0	1	blank2r.bmp	0	1	+	0	4	B4r.bmp	492	1	blank2r.bmp	786	1	HLST	786	1	blank2r.bmp	866	1	wunde	866	1	!	1280	1	!	1320	0	0	0	0	0	0	0	0	0	0	0	0	0	0	0	0	0	0	0	0	0	0	0	0	0	0	0
062118	11:08:17	5.0.12.0	65	associated	Rpleas_acq	Same	Rpleas	Amasked	CS_A	2pleas	acq_pleas_masked	acq3_masked	3	29	453	1	300	300	0	0	506	46	0	0	0	0	0	1	blank2r.bmp	0	1	+	0	2	B2r.bmp	492	1	blank2r.bmp	786	1	DJMR	786	1	blank2r.bmp	866	4	mama	866	1	FEHLER	1694	1	!	1280	1	!	1400	0	0	0	0	0	0	0	0	0	0	0	0	0	0	0	0	0	0	0	0	0	0	0	0
062118	11:08:17	5.0.12.0	65	associated	Rpleas_acq	Same	Rpleas	Amasked	CS_A	2pleas	acq_pleas_masked	acq3_masked	3	30	453	1	300	300	0	0	440	50	0	1	0	0	0	1	blank2r.bmp	0	1	+	0	7	C3r.bmp	492	1	blank2r.bmp	786	1	DJMR	786	1	blank2r.bmp	866	6	wein	866	1	!	1280	1	!	1333	0	0	0	0	0	0	0	0	0	0	0	0	0	0	0	0	0	0	0	0	0	0	0	0	0	0	0
062118	11:08:17	5.0.12.0	65	associated	Rpleas_acq	Same	Rpleas	Amasked	CS_A	2pleas	acq_unple_masked	acq3_masked	3	31	453	1	300	300	0	0	426	50	0	0	0	0	0	1	blank2r.bmp	0	1	+	0	6	C2r.bmp	492	1	blank2r.bmp	786	1	HLST	786	1	blank2r.bmp	866	4	geiz	866	1	FEHLER	1614	1	!	1280	1	!	1320	0	0	0	0	0	0	0	0	0	0	0	0	0	0	0	0	0	0	0	0	0	0	0	0
062118	11:08:17	5.0.12.0	65	associated	Rpleas_acq	Same	Rpleas	Amasked	CS_A	2pleas	acq_pleas_masked	acq3_masked	3	32	453	0	300	300	0	0	727	50	0	1	0	0	0	1	blank2r.bmp	0	1	+	0	3	B3r.bmp	492	1	blank2r.bmp	786	1	DJMR	786	1	blank2r.bmp	866	1	frieden	866	1	!	1280	1	!	-1	0	0	0	0	0	0	0	0	0	0	0	0	0	0	0	0	0	0	0	0	0	0	0	0	0	0	0
062118	11:08:17	5.0.12.0	65	associated	Rpleas_acq	Same	Rpleas	Amasked	CS_A	2pleas	acq_unple_masked	acq45_masked	4	1	400	1	300	300	0	0	381	46	0	1	0	0	0	1	blank2r.bmp	0	1	+	0	8	C4r.bmp	492	1	blank2r.bmp	786	1	HLST	786	1	blank2r.bmp	866	6	armee	866	1	!	1227	1	!	1275	0	0	0	0	0	0	0	0	0	0	0	0	0	0	0	0	0	0	0	0	0	0	0	0	0	0	0
062118	11:08:17	5.0.12.0	65	associated	Rpleas_acq	Same	Rpleas	Amasked	CS_A	2pleas	acq_unple_masked	acq45_masked	4	2	400	1	300	300	0	0	434	46	0	1	0	0	0	1	blank2r.bmp	0	1	+	0	1	B1r.bmp	492	1	blank2r.bmp	786	1	HLST	786	1	blank2r.bmp	866	3	narr	866	1	!	1227	1	!	1328	0	0	0	0	0	0	0	0	0	0	0	0	0	0	0	0	0	0	0	0	0	0	0	0	0	0	0
062118	11:08:17	5.0.12.0	65	associated	Rpleas_acq	Same	Rpleas	Amasked	CS_A	2pleas	acq_pleas_masked	acq45_masked	4	3	400	1	300	300	0	0	357	50	0	1	0	0	0	1	blank2r.bmp	0	1	+	0	5	C1r.bmp	492	1	blank2r.bmp	786	1	DJMR	786	1	blank2r.bmp	866	5	jugend	866	1	!	1227	1	!	1250	0	0	0	0	0	0	0	0	0	0	0	0	0	0	0	0	0	0	0	0	0	0	0	0	0	0	0
062118	11:08:17	5.0.12.0	65	associated	Rpleas_acq	Same	Rpleas	Amasked	CS_A	2pleas	acq_unple_masked	acq45_masked	4	4	400	0	300	300	0	0	468	46	0	1	0	0	0	1	blank2r.bmp	0	1	+	0	7	C3r.bmp	492	1	blank2r.bmp	786	1	HLST	786	1	blank2r.bmp	866	3	narr	866	1	!	1227	1	!	-1	0	0	0	0	0	0	0	0	0	0	0	0	0	0	0	0	0	0	0	0	0	0	0	0	0	0	0
062118	11:08:17	5.0.12.0	65	associated	Rpleas_acq	Same	Rpleas	Amasked	CS_A	2pleas	acq_pleas_masked	acq45_masked	4	5	400	1	300	300	0	0	364	46	0	0	0	0	0	1	blank2r.bmp	0	1	+	0	6	C2r.bmp	492	1	blank2r.bmp	786	1	DJMR	786	1	blank2r.bmp	866	2	meer	866	1	!	1227	1	!	1258	0	0	0	0	0	0	0	0	0	0	0	0	0	0	0	0	0	0	0	0	0	0	0	0	0	0	0
062118	11:08:17	5.0.12.0	65	associated	Rpleas_acq	Same	Rpleas	Amasked	CS_A	2pleas	acq_unple_masked	acq45_masked	4	6	400	1	300	300	0	0	462	46	0	1	0	0	0	1	blank2r.bmp	0	1	+	0	2	B2r.bmp	492	1	blank2r.bmp	786	1	HLST	786	1	blank2r.bmp	866	2	zwang	866	1	!	1227	1	!	1356	0	0	0	0	0	0	0	0	0	0	0	0	0	0	0	0	0	0	0	0	0	0	0	0	0	0	0
062118	11:08:17	5.0.12.0	65	associated	Rpleas_acq	Same	Rpleas	Amasked	CS_A	2pleas	acq_unple_masked	acq45_masked	4	7	400	0	300	300	0	0	326	50	0	0	0	0	0	1	blank2r.bmp	0	1	+	0	3	B3r.bmp	492	1	blank2r.bmp	786	1	HLST	786	1	blank2r.bmp	866	4	geiz	866	1	!	-1	1	!	-1	0	0	0	0	0	0	0	0	0	0	0	0	0	0	0	0	0	0	0	0	0	0	0	0	0	0	0
062118	11:08:17	5.0.12.0	65	associated	Rpleas_acq	Same	Rpleas	Amasked	CS_A	2pleas	acq_pleas_masked	acq45_masked	4	8	400	1	300	300	0	0	432	46	0	0	0	0	0	1	blank2r.bmp	0	1	+	0	4	B4r.bmp	492	1	blank2r.bmp	786	1	DJMR	786	1	blank2r.bmp	866	3	erfinder	866	1	!	1227	1	!	1326	0	0	0	0	0	0	0	0	0	0	0	0	0	0	0	0	0	0	0	0	0	0	0	0	0	0	0
062118	11:08:17	5.0.12.0	65	associated	Rpleas_acq	Same	Rpleas	Amasked	CS_A	2pleas	acq_pleas_masked	acq45_masked	4	9	400	0	300	300	0	0	608	46	0	0	0	0	0	1	blank2r.bmp	0	1	+	0	6	C2r.bmp	492	1	blank2r.bmp	786	1	DJMR	786	1	blank2r.bmp	866	2	meer	866	1	!	1227	1	!	-1	0	0	0	0	0	0	0	0	0	0	0	0	0	0	0	0	0	0	0	0	0	0	0	0	0	0	0
062118	11:08:17	5.0.12.0	65	associated	Rpleas_acq	Same	Rpleas	Amasked	CS_A	2pleas	acq_pleas_masked	acq45_masked	4	10	400	1	300	300	0	0	435	50	0	1	0	0	0	1	blank2r.bmp	0	1	+	0	2	B2r.bmp	492	1	blank2r.bmp	786	1	DJMR	786	1	blank2r.bmp	866	6	wein	866	1	!	1227	1	!	1329	0	0	0	0	0	0	0	0	0	0	0	0	0	0	0	0	0	0	0	0	0	0	0	0	0	0	0
062118	11:08:17	5.0.12.0	65	associated	Rpleas_acq	Same	Rpleas	Amasked	CS_A	2pleas	acq_pleas_masked	acq45_masked	4	11	400	1	300	300	0	0	454	46	0	0	0	0	0	1	blank2r.bmp	0	1	+	0	7	C3r.bmp	492	1	blank2r.bmp	786	1	DJMR	786	1	blank2r.bmp	866	5	jugend	866	1	!	1227	1	!	1347	0	0	0	0	0	0	0	0	0	0	0	0	0	0	0	0	0	0	0	0	0	0	0	0	0	0	0
062118	11:08:17	5.0.12.0	65	associated	Rpleas_acq	Same	Rpleas	Amasked	CS_A	2pleas	acq_unple_masked	acq45_masked	4	12	400	0	300	300	0	0	472	46	0	1	0	0	0	1	blank2r.bmp	0	1	+	0	4	B4r.bmp	492	1	blank2r.bmp	786	1	HLST	786	1	blank2r.bmp	866	1	wunde	866	1	!	1227	1	!	-1	0	0	0	0	0	0	0	0	0	0	0	0	0	0	0	0	0	0	0	0	0	0	0	0	0	0	0
062118	11:08:17	5.0.12.0	65	associated	Rpleas_acq	Same	Rpleas	Amasked	CS_A	2pleas	acq_unple_masked	acq45_masked	4	13	400	1	300	300	0	0	336	50	0	0	0	0	0	1	blank2r.bmp	0	1	+	0	1	B1r.bmp	492	1	blank2r.bmp	786	1	HLST	786	1	blank2r.bmp	866	6	armee	866	1	!	1227	1	!	1230	0	0	0	0	0	0	0	0	0	0	0	0	0	0	0	0	0	0	0	0	0	0	0	0	0	0	0
062118	11:08:17	5.0.12.0	65	associated	Rpleas_acq	Same	Rpleas	Amasked	CS_A	2pleas	acq_unple_masked	acq45_masked	4	14	400	0	300	300	0	0	493	46	0	1	0	0	0	1	blank2r.bmp	0	1	+	0	3	B3r.bmp	492	1	blank2r.bmp	786	1	HLST	786	1	blank2r.bmp	866	5	gegner	866	1	!	1227	1	!	-1	0	0	0	0	0	0	0	0	0	0	0	0	0	0	0	0	0	0	0	0	0	0	0	0	0	0	0
062118	11:08:17	5.0.12.0	65	associated	Rpleas_acq	Same	Rpleas	Amasked	CS_A	2pleas	acq_pleas_masked	acq45_masked	4	15	400	1	300	300	0	0	442	50	0	1	0	0	0	1	blank2r.bmp	0	1	+	0	5	C1r.bmp	492	1	blank2r.bmp	786	1	DJMR	786	1	blank2r.bmp	866	1	frieden	866	1	!	1227	1	!	1336	0	0	0	0	0	0	0	0	0	0	0	0	0	0	0	0	0	0	0	0	0	0	0	0	0	0	0
062118	11:08:17	5.0.12.0	65	associated	Rpleas_acq	Same	Rpleas	Amasked	CS_A	2pleas	acq_pleas_masked	acq45_masked	4	16	400	0	300	300	0	0	474	46	0	0	0	0	0	1	blank2r.bmp	0	1	+	0	8	C4r.bmp	492	1	blank2r.bmp	786	1	DJMR	786	1	blank2r.bmp	866	4	mama	866	1	!	1227	1	!	-1	0	0	0	0	0	0	0	0	0	0	0	0	0	0	0	0	0	0	0	0	0	0	0	0	0	0	0
062118	11:08:17	5.0.12.0	65	associated	Rpleas_acq	Same	Rpleas	Amasked	CS_A	2pleas	acq_unple_masked	acq45_masked	4	17	400	1	300	300	0	0	370	46	0	1	0	0	0	1	blank2r.bmp	0	1	+	0	4	B4r.bmp	492	1	blank2r.bmp	786	1	HLST	786	1	blank2r.bmp	866	6	armee	866	1	!	1227	1	!	1264	0	0	0	0	0	0	0	0	0	0	0	0	0	0	0	0	0	0	0	0	0	0	0	0	0	0	0
062118	11:08:17	5.0.12.0	65	associated	Rpleas_acq	Same	Rpleas	Amasked	CS_A	2pleas	acq_unple_masked	acq45_masked	4	18	400	0	300	300	0	0	1060	46	0	1	0	0	0	1	blank2r.bmp	0	1	+	0	3	B3r.bmp	492	1	blank2r.bmp	786	1	HLST	786	1	blank2r.bmp	866	3	narr	866	1	!	1227	1	!	-1	0	0	0	0	0	0	0	0	0	0	0	0	0	0	0	0	0	0	0	0	0	0	0	0	0	0	0
062118	11:08:17	5.0.12.0	65	associated	Rpleas_acq	Same	Rpleas	Amasked	CS_A	2pleas	acq_pleas_masked	acq45_masked	4	19	400	0	300	300	0	0	326	50	0	1	0	0	0	1	blank2r.bmp	0	1	+	0	1	B1r.bmp	492	1	blank2r.bmp	786	1	DJMR	786	1	blank2r.bmp	866	4	mama	866	1	!	-1	1	!	-1	0	0	0	0	0	0	0	0	0	0	0	0	0	0	0	0	0	0	0	0	0	0	0	0	0	0	0
062118	11:08:17	5.0.12.0	65	associated	Rpleas_acq	Same	Rpleas	Amasked	CS_A	2pleas	acq_pleas_masked	acq45_masked	4	20	400	1	300	300	0	0	385	46	0	0	0	0	0	1	blank2r.bmp	0	1	+	0	8	C4r.bmp	492	1	blank2r.bmp	786	1	DJMR	786	1	blank2r.bmp	866	2	meer	866	1	!	1227	1	!	1278	0	0	0	0	0	0	0	0	0	0	0	0	0	0	0	0	0	0	0	0	0	0	0	0	0	0	0
062118	11:08:17	5.0.12.0	65	associated	Rpleas_acq	Same	Rpleas	Amasked	CS_A	2pleas	acq_unple_masked	acq45_masked	4	21	400	0	300	300	0	0	504	50	0	0	0	0	0	1	blank2r.bmp	0	1	+	0	6	C2r.bmp	492	1	blank2r.bmp	786	1	HLST	786	1	blank2r.bmp	866	4	geiz	866	1	!	1227	1	!	-1	0	0	0	0	0	0	0	0	0	0	0	0	0	0	0	0	0	0	0	0	0	0	0	0	0	0	0
062118	11:08:17	5.0.12.0	65	associated	Rpleas_acq	Same	Rpleas	Amasked	CS_A	2pleas	acq_pleas_masked	acq45_masked	4	22	400	0	300	300	0	0	629	50	0	1	0	0	0	1	blank2r.bmp	0	1	+	0	5	C1r.bmp	492	1	blank2r.bmp	786	1	DJMR	786	1	blank2r.bmp	866	6	wein	866	1	!	1227	1	!	-1	0	0	0	0	0	0	0	0	0	0	0	0	0	0	0	0	0	0	0	0	0	0	0	0	0	0	0
062118	11:08:17	5.0.12.0	65	associated	Rpleas_acq	Same	Rpleas	Amasked	CS_A	2pleas	acq_unple_masked	acq45_masked	4	23	400	0	300	300	0	0	478	46	0	1	0	0	0	1	blank2r.bmp	0	1	+	0	2	B2r.bmp	492	1	blank2r.bmp	786	1	HLST	786	1	blank2r.bmp	866	2	zwang	866	1	!	1227	1	!	-1	0	0	0	0	0	0	0	0	0	0	0	0	0	0	0	0	0	0	0	0	0	0	0	0	0	0	0
062118	11:08:17	5.0.12.0	65	associated	Rpleas_acq	Same	Rpleas	Amasked	CS_A	2pleas	acq_unple_masked	acq45_masked	4	24	400	0	300	300	0	0	473	50	0	0	0	0	0	1	blank2r.bmp	0	1	+	0	7	C3r.bmp	492	1	blank2r.bmp	786	1	HLST	786	1	blank2r.bmp	866	1	wunde	866	1	!	1227	1	!	-1	0	0	0	0	0	0	0	0	0	0	0	0	0	0	0	0	0	0	0	0	0	0	0	0	0	0	0
062118	11:08:17	5.0.12.0	65	associated	Rpleas_acq	Same	Rpleas	Amasked	CS_A	2pleas	acq_unple_masked	acq45_masked	4	25	400	1	300	300	0	0	465	46	0	1	0	0	0	1	blank2r.bmp	0	1	+	0	8	C4r.bmp	492	1	blank2r.bmp	786	1	HLST	786	1	blank2r.bmp	866	5	gegner	866	1	!	1227	1	!	1358	0	0	0	0	0	0	0	0	0	0	0	0	0	0	0	0	0	0	0	0	0	0	0	0	0	0	0
062118	11:08:17	5.0.12.0	65	associated	Rpleas_acq	Same	Rpleas	Amasked	CS_A	2pleas	acq_unple_masked	acq45_masked	4	26	400	0	300	300	0	0	328	50	0	0	0	0	0	1	blank2r.bmp	0	1	+	0	2	B2r.bmp	492	1	blank2r.bmp	786	1	HLST	786	1	blank2r.bmp	866	3	narr	866	1	!	-1	1	!	-1	0	0	0	0	0	0	0	0	0	0	0	0	0	0	0	0	0	0	0	0	0	0	0	0	0	0	0
062118	11:08:17	5.0.12.0	65	associated	Rpleas_acq	Same	Rpleas	Amasked	CS_A	2pleas	acq_pleas_masked	acq45_masked	4	27	400	1	300	300	0	0	419	46	0	0	0	0	0	1	blank2r.bmp	0	1	+	0	1	B1r.bmp	492	1	blank2r.bmp	786	1	DJMR	786	1	blank2r.bmp	866	5	jugend	866	1	!	1227	1	!	1312	0	0	0	0	0	0	0	0	0	0	0	0	0	0	0	0	0	0	0	0	0	0	0	0	0	0	0
062118	11:08:17	5.0.12.0	65	associated	Rpleas_acq	Same	Rpleas	Amasked	CS_A	2pleas	acq_unple_masked	acq45_masked	4	28	400	1	300	300	0	0	464	46	0	1	0	0	0	1	blank2r.bmp	0	1	+	0	3	B3r.bmp	492	1	blank2r.bmp	786	1	HLST	786	1	blank2r.bmp	866	1	wunde	866	1	!	1227	1	!	1357	0	0	0	0	0	0	0	0	0	0	0	0	0	0	0	0	0	0	0	0	0	0	0	0	0	0	0
062118	11:08:17	5.0.12.0	65	associated	Rpleas_acq	Same	Rpleas	Amasked	CS_A	2pleas	acq_pleas_masked	acq45_masked	4	29	400	1	300	300	0	0	389	46	0	0	0	0	0	1	blank2r.bmp	0	1	+	0	4	B4r.bmp	492	1	blank2r.bmp	786	1	DJMR	786	1	blank2r.bmp	866	3	erfinder	866	1	!	1227	1	!	1283	0	0	0	0	0	0	0	0	0	0	0	0	0	0	0	0	0	0	0	0	0	0	0	0	0	0	0
062118	11:08:17	5.0.12.0	65	associated	Rpleas_acq	Same	Rpleas	Amasked	CS_A	2pleas	acq_pleas_masked	acq45_masked	4	30	400	1	300	300	0	0	397	50	0	1	0	0	0	1	blank2r.bmp	0	1	+	0	6	C2r.bmp	492	1	blank2r.bmp	786	1	DJMR	786	1	blank2r.bmp	866	1	frieden	866	1	!	1227	1	!	1290	0	0	0	0	0	0	0	0	0	0	0	0	0	0	0	0	0	0	0	0	0	0	0	0	0	0	0
062118	11:08:17	5.0.12.0	65	associated	Rpleas_acq	Same	Rpleas	Amasked	CS_A	2pleas	acq_pleas_masked	acq45_masked	4	31	400	1	300	300	0	0	404	50	0	1	0	0	0	1	blank2r.bmp	0	1	+	0	7	C3r.bmp	492	1	blank2r.bmp	786	1	DJMR	786	1	blank2r.bmp	866	1	frieden	866	1	!	1227	1	!	1298	0	0	0	0	0	0	0	0	0	0	0	0	0	0	0	0	0	0	0	0	0	0	0	0	0	0	0
062118	11:08:17	5.0.12.0	65	associated	Rpleas_acq	Same	Rpleas	Amasked	CS_A	2pleas	acq_pleas_masked	acq45_masked	4	32	400	1	300	300	0	0	367	50	0	1	0	0	0	1	blank2r.bmp	0	1	+	0	5	C1r.bmp	492	1	blank2r.bmp	786	1	DJMR	786	1	blank2r.bmp	866	4	mama	866	1	!	1227	1	!	1260	0	0	0	0	0	0	0	0	0	0	0	0	0	0	0	0	0	0	0	0	0	0	0	0	0	0	0
062118	11:08:17	5.0.12.0	65	associated	Rpleas_acq	Same	Rpleas	Amasked	CS_A	2pleas	acq_pleas_masked	acq45_masked	5	1	400	1	300	300	0	0	363	50	0	1	0	0	0	1	blank2r.bmp	0	1	+	0	3	B3r.bmp	492	1	blank2r.bmp	786	1	DJMR	786	1	blank2r.bmp	866	2	meer	866	1	!	1227	1	!	1257	0	0	0	0	0	0	0	0	0	0	0	0	0	0	0	0	0	0	0	0	0	0	0	0	0	0	0
062118	11:08:17	5.0.12.0	65	associated	Rpleas_acq	Same	Rpleas	Amasked	CS_A	2pleas	acq_pleas_masked	acq45_masked	5	2	400	1	300	300	0	0	365	50	0	1	0	0	0	1	blank2r.bmp	0	1	+	0	6	C2r.bmp	492	1	blank2r.bmp	786	1	DJMR	786	1	blank2r.bmp	866	6	wein	866	1	!	1227	1	!	1259	0	0	0	0	0	0	0	0	0	0	0	0	0	0	0	0	0	0	0	0	0	0	0	0	0	0	0
062118	11:08:17	5.0.12.0	65	associated	Rpleas_acq	Same	Rpleas	Amasked	CS_A	2pleas	acq_unple_masked	acq45_masked	5	3	400	0	300	300	0	0	271	46	0	1	0	0	0	1	blank2r.bmp	0	1	+	0	1	B1r.bmp	492	1	blank2r.bmp	786	1	HLST	786	1	blank2r.bmp	866	5	gegner	866	1	!	-1	1	!	-1	0	0	0	0	0	0	0	0	0	0	0	0	0	0	0	0	0	0	0	0	0	0	0	0	0	0	0
062118	11:08:17	5.0.12.0	65	associated	Rpleas_acq	Same	Rpleas	Amasked	CS_A	2pleas	acq_pleas_masked	acq45_masked	5	4	400	1	300	300	0	0	367	50	0	1	0	0	0	1	blank2r.bmp	0	1	+	0	8	C4r.bmp	492	1	blank2r.bmp	786	1	DJMR	786	1	blank2r.bmp	866	3	erfinder	866	1	!	1227	1	!	1260	0	0	0	0	0	0	0	0	0	0	0	0	0	0	0	0	0	0	0	0	0	0	0	0	0	0	0
062118	11:08:17	5.0.12.0	65	associated	Rpleas_acq	Same	Rpleas	Amasked	CS_A	2pleas	acq_pleas_masked	acq45_masked	5	5	400	1	300	300	0	0	449	46	0	0	0	0	0	1	blank2r.bmp	0	1	+	0	2	B2r.bmp	492	1	blank2r.bmp	786	1	DJMR	786	1	blank2r.bmp	866	5	jugend	866	1	!	1227	1	!	1342	0	0	0	0	0	0	0	0	0	0	0	0	0	0	0	0	0	0	0	0	0	0	0	0	0	0	0
062118	11:08:17	5.0.12.0	65	associated	Rpleas_acq	Same	Rpleas	Amasked	CS_A	2pleas	acq_unple_masked	acq45_masked	5	6	400	0	300	300	0	0	550	46	0	1	0	0	0	1	blank2r.bmp	0	1	+	0	7	C3r.bmp	492	1	blank2r.bmp	786	1	HLST	786	1	blank2r.bmp	866	2	zwang	866	1	!	1227	1	!	-1	0	0	0	0	0	0	0	0	0	0	0	0	0	0	0	0	0	0	0	0	0	0	0	0	0	0	0
062118	11:08:17	5.0.12.0	65	associated	Rpleas_acq	Same	Rpleas	Amasked	CS_A	2pleas	acq_unple_masked	acq45_masked	5	7	400	1	300	300	0	0	414	50	0	0	0	0	0	1	blank2r.bmp	0	1	+	0	4	B4r.bmp	492	1	blank2r.bmp	786	1	HLST	786	1	blank2r.bmp	866	6	armee	866	1	!	1227	1	!	1308	0	0	0	0	0	0	0	0	0	0	0	0	0	0	0	0	0	0	0	0	0	0	0	0	0	0	0
062118	11:08:17	5.0.12.0	65	associated	Rpleas_acq	Same	Rpleas	Amasked	CS_A	2pleas	acq_pleas_masked	acq45_masked	5	8	400	0	300	300	0	0	331	46	0	0	0	0	0	1	blank2r.bmp	0	1	+	0	5	C1r.bmp	492	1	blank2r.bmp	786	1	DJMR	786	1	blank2r.bmp	866	5	jugend	866	1	!	-1	1	!	-1	0	0	0	0	0	0	0	0	0	0	0	0	0	0	0	0	0	0	0	0	0	0	0	0	0	0	0
062118	11:08:17	5.0.12.0	65	associated	Rpleas_acq	Same	Rpleas	Amasked	CS_A	2pleas	acq_pleas_masked	acq45_masked	5	9	400	1	300	300	0	0	373	50	0	1	0	0	0	1	blank2r.bmp	0	1	+	0	4	B4r.bmp	492	1	blank2r.bmp	786	1	DJMR	786	1	blank2r.bmp	866	3	erfinder	866	1	!	1227	1	!	1267	0	0	0	0	0	0	0	0	0	0	0	0	0	0	0	0	0	0	0	0	0	0	0	0	0	0	0
062118	11:08:17	5.0.12.0	65	associated	Rpleas_acq	Same	Rpleas	Amasked	CS_A	2pleas	acq_unple_masked	acq45_masked	5	10	400	1	300	300	0	0	458	50	0	0	0	0	0	1	blank2r.bmp	0	1	+	0	8	C4r.bmp	492	1	blank2r.bmp	786	1	HLST	786	1	blank2r.bmp	866	4	geiz	866	1	!	1227	1	!	1352	0	0	0	0	0	0	0	0	0	0	0	0	0	0	0	0	0	0	0	0	0	0	0	0	0	0	0
062118	11:08:17	5.0.12.0	65	associated	Rpleas_acq	Same	Rpleas	Amasked	CS_A	2pleas	acq_unple_masked	acq45_masked	5	11	400	1	300	300	0	0	384	46	0	1	0	0	0	1	blank2r.bmp	0	1	+	0	7	C3r.bmp	492	1	blank2r.bmp	786	1	HLST	786	1	blank2r.bmp	866	4	geiz	866	1	!	1227	1	!	1277	0	0	0	0	0	0	0	0	0	0	0	0	0	0	0	0	0	0	0	0	0	0	0	0	0	0	0
062118	11:08:17	5.0.12.0	65	associated	Rpleas_acq	Same	Rpleas	Amasked	CS_A	2pleas	acq_unple_masked	acq45_masked	5	12	400	0	300	300	0	0	487	46	0	1	0	0	0	1	blank2r.bmp	0	1	+	0	5	C1r.bmp	492	1	blank2r.bmp	786	1	HLST	786	1	blank2r.bmp	866	2	zwang	866	1	!	1227	1	!	-1	0	0	0	0	0	0	0	0	0	0	0	0	0	0	0	0	0	0	0	0	0	0	0	0	0	0	0
062118	11:08:17	5.0.12.0	65	associated	Rpleas_acq	Same	Rpleas	Amasked	CS_A	2pleas	acq_pleas_masked	acq45_masked	5	13	400	1	300	300	0	0	386	50	0	1	0	0	0	1	blank2r.bmp	0	1	+	0	2	B2r.bmp	492	1	blank2r.bmp	786	1	DJMR	786	1	blank2r.bmp	866	6	wein	866	1	!	1227	1	!	1279	0	0	0	0	0	0	0	0	0	0	0	0	0	0	0	0	0	0	0	0	0	0	0	0	0	0	0
062118	11:08:17	5.0.12.0	65	associated	Rpleas_acq	Same	Rpleas	Amasked	CS_A	2pleas	acq_unple_masked	acq45_masked	5	14	400	0	300	300	0	0	505	50	0	0	0	0	0	1	blank2r.bmp	0	1	+	0	1	B1r.bmp	492	1	blank2r.bmp	786	1	HLST	786	1	blank2r.bmp	866	1	wunde	866	1	!	1227	1	!	-1	0	0	0	0	0	0	0	0	0	0	0	0	0	0	0	0	0	0	0	0	0	0	0	0	0	0	0
062118	11:08:17	5.0.12.0	65	associated	Rpleas_acq	Same	Rpleas	Amasked	CS_A	2pleas	acq_pleas_masked	acq45_masked	5	15	400	0	300	300	0	0	263	46	0	0	0	0	0	1	blank2r.bmp	0	1	+	0	6	C2r.bmp	492	1	blank2r.bmp	786	1	DJMR	786	1	blank2r.bmp	866	1	frieden	866	1	!	-1	1	!	-1	0	0	0	0	0	0	0	0	0	0	0	0	0	0	0	0	0	0	0	0	0	0	0	0	0	0	0
062118	11:08:17	5.0.12.0	65	associated	Rpleas_acq	Same	Rpleas	Amasked	CS_A	2pleas	acq_unple_masked	acq45_masked	5	16	400	0	300	300	0	0	326	50	0	0	0	0	0	1	blank2r.bmp	0	1	+	0	3	B3r.bmp	492	1	blank2r.bmp	786	1	HLST	786	1	blank2r.bmp	866	6	armee	866	1	!	-1	1	!	-1	0	0	0	0	0	0	0	0	0	0	0	0	0	0	0	0	0	0	0	0	0	0	0	0	0	0	0
062118	11:08:17	5.0.12.0	65	associated	Rpleas_acq	Same	Rpleas	Amasked	CS_A	2pleas	acq_unple_masked	acq45_masked	5	17	400	1	300	300	0	0	336	46	0	1	0	0	0	1	blank2r.bmp	0	1	+	0	4	B4r.bmp	492	1	blank2r.bmp	786	1	HLST	786	1	blank2r.bmp	866	3	narr	866	1	!	1227	1	!	1230	0	0	0	0	0	0	0	0	0	0	0	0	0	0	0	0	0	0	0	0	0	0	0	0	0	0	0
062118	11:08:17	5.0.12.0	65	associated	Rpleas_acq	Same	Rpleas	Amasked	CS_A	2pleas	acq_pleas_masked	acq45_masked	5	18	400	1	300	300	0	0	365	46	0	0	0	0	0	1	blank2r.bmp	0	1	+	0	3	B3r.bmp	492	1	blank2r.bmp	786	1	DJMR	786	1	blank2r.bmp	866	2	meer	866	1	!	1227	1	!	1259	0	0	0	0	0	0	0	0	0	0	0	0	0	0	0	0	0	0	0	0	0	0	0	0	0	0	0
062118	11:08:17	5.0.12.0	65	associated	Rpleas_acq	Same	Rpleas	Amasked	CS_A	2pleas	acq_unple_masked	acq45_masked	5	19	400	0	300	300	0	0	546	46	0	1	0	0	0	1	blank2r.bmp	0	1	+	0	5	C1r.bmp	492	1	blank2r.bmp	786	1	HLST	786	1	blank2r.bmp	866	5	gegner	866	1	!	1227	1	!	-1	0	0	0	0	0	0	0	0	0	0	0	0	0	0	0	0	0	0	0	0	0	0	0	0	0	0	0
062118	11:08:17	5.0.12.0	65	associated	Rpleas_acq	Same	Rpleas	Amasked	CS_A	2pleas	acq_pleas_masked	acq45_masked	5	20	400	0	300	300	0	0	311	46	0	0	0	0	0	1	blank2r.bmp	0	1	+	0	1	B1r.bmp	492	1	blank2r.bmp	786	1	DJMR	786	1	blank2r.bmp	866	4	mama	866	1	!	-1	1	!	-1	0	0	0	0	0	0	0	0	0	0	0	0	0	0	0	0	0	0	0	0	0	0	0	0	0	0	0
062118	11:08:17	5.0.12.0	65	associated	Rpleas_acq	Same	Rpleas	Amasked	CS_A	2pleas	acq_pleas_masked	acq45_masked	5	21	400	1	300	300	0	0	370	50	0	1	0	0	0	1	blank2r.bmp	0	1	+	0	6	C2r.bmp	492	1	blank2r.bmp	786	1	DJMR	786	1	blank2r.bmp	866	2	meer	866	1	!	1227	1	!	1263	0	0	0	0	0	0	0	0	0	0	0	0	0	0	0	0	0	0	0	0	0	0	0	0	0	0	0
062118	11:08:17	5.0.12.0	65	associated	Rpleas_acq	Same	Rpleas	Amasked	CS_A	2pleas	acq_pleas_masked	acq45_masked	5	22	400	1	300	300	0	0	452	50	0	1	0	0	0	1	blank2r.bmp	0	1	+	0	2	B2r.bmp	492	1	blank2r.bmp	786	1	DJMR	786	1	blank2r.bmp	866	5	jugend	866	1	!	1227	1	!	1345	0	0	0	0	0	0	0	0	0	0	0	0	0	0	0	0	0	0	0	0	0	0	0	0	0	0	0
062118	11:08:17	5.0.12.0	65	associated	Rpleas_acq	Same	Rpleas	Amasked	CS_A	2pleas	acq_unple_masked	acq45_masked	5	23	400	0	300	300	0	0	329	50	0	0	0	0	0	1	blank2r.bmp	0	1	+	0	8	C4r.bmp	492	1	blank2r.bmp	786	1	HLST	786	1	blank2r.bmp	866	3	narr	866	1	!	-1	1	!	-1	0	0	0	0	0	0	0	0	0	0	0	0	0	0	0	0	0	0	0	0	0	0	0	0	0	0	0
062118	11:08:17	5.0.12.0	65	associated	Rpleas_acq	Same	Rpleas	Amasked	CS_A	2pleas	acq_unple_masked	acq45_masked	5	24	400	0	300	300	0	0	470	46	0	1	0	0	0	1	blank2r.bmp	0	1	+	0	7	C3r.bmp	492	1	blank2r.bmp	786	1	HLST	786	1	blank2r.bmp	866	4	geiz	866	1	!	1227	1	!	-1	0	0	0	0	0	0	0	0	0	0	0	0	0	0	0	0	0	0	0	0	0	0	0	0	0	0	0
062118	11:08:17	5.0.12.0	65	associated	Rpleas_acq	Same	Rpleas	Amasked	CS_A	2pleas	acq_unple_masked	acq45_masked	5	25	400	0	300	300	0	0	480	46	0	1	0	0	0	1	blank2r.bmp	0	1	+	0	7	C3r.bmp	492	1	blank2r.bmp	786	1	HLST	786	1	blank2r.bmp	866	6	armee	866	1	!	1227	1	!	-1	0	0	0	0	0	0	0	0	0	0	0	0	0	0	0	0	0	0	0	0	0	0	0	0	0	0	0
062118	11:08:17	5.0.12.0	65	associated	Rpleas_acq	Same	Rpleas	Amasked	CS_A	2pleas	acq_unple_masked	acq45_masked	5	26	400	1	300	300	0	0	395	50	0	0	0	0	0	1	blank2r.bmp	0	1	+	0	3	B3r.bmp	492	1	blank2r.bmp	786	1	HLST	786	1	blank2r.bmp	866	5	gegner	866	1	!	1227	1	!	1289	0	0	0	0	0	0	0	0	0	0	0	0	0	0	0	0	0	0	0	0	0	0	0	0	0	0	0
062118	11:08:17	5.0.12.0	65	associated	Rpleas_acq	Same	Rpleas	Amasked	CS_A	2pleas	acq_pleas_masked	acq45_masked	5	27	400	1	300	300	0	0	453	46	0	0	0	0	0	1	blank2r.bmp	0	1	+	0	1	B1r.bmp	492	1	blank2r.bmp	786	1	DJMR	786	1	blank2r.bmp	866	4	mama	866	1	!	1227	1	!	1347	0	0	0	0	0	0	0	0	0	0	0	0	0	0	0	0	0	0	0	0	0	0	0	0	0	0	0
062118	11:08:17	5.0.12.0	65	associated	Rpleas_acq	Same	Rpleas	Amasked	CS_A	2pleas	acq_pleas_masked	acq45_masked	5	28	400	1	300	300	0	0	443	46	0	0	0	0	0	1	blank2r.bmp	0	1	+	0	4	B4r.bmp	492	1	blank2r.bmp	786	1	DJMR	786	1	blank2r.bmp	866	6	wein	866	1	!	1227	1	!	1336	0	0	0	0	0	0	0	0	0	0	0	0	0	0	0	0	0	0	0	0	0	0	0	0	0	0	0
062118	11:08:17	5.0.12.0	65	associated	Rpleas_acq	Same	Rpleas	Amasked	CS_A	2pleas	acq_unple_masked	acq45_masked	5	29	400	0	300	300	0	0	477	46	0	1	0	0	0	1	blank2r.bmp	0	1	+	0	6	C2r.bmp	492	1	blank2r.bmp	786	1	HLST	786	1	blank2r.bmp	866	2	zwang	866	1	!	1227	1	!	-1	0	0	0	0	0	0	0	0	0	0	0	0	0	0	0	0	0	0	0	0	0	0	0	0	0	0	0
062118	11:08:17	5.0.12.0	65	associated	Rpleas_acq	Same	Rpleas	Amasked	CS_A	2pleas	acq_pleas_masked	acq45_masked	5	30	400	1	300	300	0	0	437	46	0	0	0	0	0	1	blank2r.bmp	0	1	+	0	2	B2r.bmp	492	1	blank2r.bmp	786	1	DJMR	786	1	blank2r.bmp	866	1	frieden	866	1	!	1227	1	!	1331	0	0	0	0	0	0	0	0	0	0	0	0	0	0	0	0	0	0	0	0	0	0	0	0	0	0	0
062118	11:08:17	5.0.12.0	65	associated	Rpleas_acq	Same	Rpleas	Amasked	CS_A	2pleas	acq_pleas_masked	acq45_masked	5	31	400	0	300	300	0	0	2680	50	0	1	0	0	0	1	blank2r.bmp	0	1	+	0	8	C4r.bmp	492	1	blank2r.bmp	786	1	DJMR	786	1	blank2r.bmp	866	3	erfinder	866	1	!	1227	1	!	-1	0	0	0	0	0	0	0	0	0	0	0	0	0	0	0	0	0	0	0	0	0	0	0	0	0	0	0
062118	11:08:17	5.0.12.0	65	associated	Rpleas_acq	Same	Rpleas	Amasked	CS_A	2pleas	acq_unple_masked	acq45_masked	5	32	400	0	300	300	0	0	1314	46	0	1	0	0	0	1	blank2r.bmp	0	1	+	0	5	C1r.bmp	492	1	blank2r.bmp	786	1	HLST	786	1	blank2r.bmp	866	1	wunde	866	1	!	1227	1	!	-1	0	0	0	0	0	0	0	0	0	0	0	0	0	0	0	0	0	0	0	0	0	0	0	0	0	0	0
062118	11:08:17	5.0.12.0	65	associated	Rpleas_acq	Same	Rpleas	Amasked	CS_A	2pleas	cond_new_unple_456_masked_CS2	condtest_masked_1	6	1	400	0	300	300	0	0	483	46	0	1	0	0	0	1	blank2r.bmp	0	1	+	0	1	B1r.bmp	492	1	blank2r.bmp	786	1	DJMR	786	1	blank2r.bmp	866	3	waffe	866	1	!	1227	1	!	-1	0	0	0	0	0	0	0	0	0	0	0	0	0	0	0	0	0	0	0	0	0	0	0	0	0	0	0
062118	11:08:17	5.0.12.0	65	associated	Rpleas_acq	Same	Rpleas	Amasked	CS_A	2pleas	cond_new_unple_456_masked_CS1	condtest_masked_1	6	2	400	1	300	300	0	0	413	46	0	1	0	0	0	1	blank2r.bmp	0	1	+	0	3	B3r.bmp	492	1	blank2r.bmp	786	1	HLST	786	1	blank2r.bmp	866	1	neid	866	1	!	1227	1	!	1307	0	0	0	0	0	0	0	0	0	0	0	0	0	0	0	0	0	0	0	0	0	0	0	0	0	0	0
062118	11:08:17	5.0.12.0	65	associated	Rpleas_acq	Same	Rpleas	Amasked	CS_A	2pleas	cond_US_unple_123_masked_CS2	condtest_masked_1	6	3	400	1	300	300	0	0	442	46	0	1	0	0	0	1	blank2r.bmp	0	1	+	0	5	C1r.bmp	492	1	blank2r.bmp	786	1	DJMR	786	1	blank2r.bmp	866	1	wunde	866	1	!	1227	1	!	1336	0	0	0	0	0	0	0	0	0	0	0	0	0	0	0	0	0	0	0	0	0	0	0	0	0	0	0
062118	11:08:17	5.0.12.0	65	associated	Rpleas_acq	Same	Rpleas	Amasked	CS_A	2pleas	cond_US_unple_123_masked_CS1	condtest_masked_1	6	4	400	1	300	300	0	0	461	46	0	1	0	0	0	1	blank2r.bmp	0	1	+	0	4	B4r.bmp	492	1	blank2r.bmp	786	1	HLST	786	1	blank2r.bmp	866	2	zwang	866	1	!	1227	1	!	1355	0	0	0	0	0	0	0	0	0	0	0	0	0	0	0	0	0	0	0	0	0	0	0	0	0	0	0
062118	11:08:17	5.0.12.0	65	associated	Rpleas_acq	Same	Rpleas	Amasked	CS_A	2pleas	cond_new_pleas_456_masked_CS1	condtest_masked_1	6	5	400	1	300	300	0	0	453	50	0	1	0	0	0	1	blank2r.bmp	0	1	+	0	7	C3r.bmp	492	1	blank2r.bmp	786	1	HLST	786	1	blank2r.bmp	866	1	umarmen	866	1	!	1227	1	!	1346	0	0	0	0	0	0	0	0	0	0	0	0	0	0	0	0	0	0	0	0	0	0	0	0	0	0	0
062118	11:08:17	5.0.12.0	65	associated	Rpleas_acq	Same	Rpleas	Amasked	CS_A	2pleas	cond_US_pleas_123_masked_CS2	condtest_masked_1	6	6	400	1	300	300	0	0	391	46	0	0	0	0	0	1	blank2r.bmp	0	1	+	0	8	C4r.bmp	492	1	blank2r.bmp	786	1	DJMR	786	1	blank2r.bmp	866	1	frieden	866	1	!	1227	1	!	1285	0	0	0	0	0	0	0	0	0	0	0	0	0	0	0	0	0	0	0	0	0	0	0	0	0	0	0
062118	11:08:17	5.0.12.0	65	associated	Rpleas_acq	Same	Rpleas	Amasked	CS_A	2pleas	cond_new_pleas_456_masked_CS2	condtest_masked_1	6	7	400	1	300	300	0	0	431	46	0	0	0	0	0	1	blank2r.bmp	0	1	+	0	2	B2r.bmp	492	1	blank2r.bmp	786	1	DJMR	786	1	blank2r.bmp	866	3	genuß	866	1	!	1227	1	!	1325	0	0	0	0	0	0	0	0	0	0	0	0	0	0	0	0	0	0	0	0	0	0	0	0	0	0	0
062118	11:08:17	5.0.12.0	65	associated	Rpleas_acq	Same	Rpleas	Amasked	CS_A	2pleas	cond_US_pleas_123_masked_CS1	condtest_masked_1	6	8	400	0	300	300	0	0	255	50	0	1	0	0	0	1	blank2r.bmp	0	1	+	0	6	C2r.bmp	492	1	blank2r.bmp	786	1	HLST	786	1	blank2r.bmp	866	3	erfinder	866	1	!	-1	1	!	-1	0	0	0	0	0	0	0	0	0	0	0	0	0	0	0	0	0	0	0	0	0	0	0	0	0	0	0
062118	11:08:17	5.0.12.0	65	associated	Rpleas_acq	Same	Rpleas	Amasked	CS_A	2pleas	cond_new_unple_456_masked_CS2	condtest_masked_2	7	1	400	1	300	300	0	0	357	46	0	1	0	0	0	1	blank2r.bmp	0	1	+	0	3	B3r.bmp	492	1	blank2r.bmp	786	1	DJMR	786	1	blank2r.bmp	866	2	feind	866	1	!	1227	1	!	1251	0	0	0	0	0	0	0	0	0	0	0	0	0	0	0	0	0	0	0	0	0	0	0	0	0	0	0
062118	11:08:17	5.0.12.0	65	associated	Rpleas_acq	Same	Rpleas	Amasked	CS_A	2pleas	cond_new_pleas_456_masked_CS1	condtest_masked_2	7	2	400	1	300	300	0	0	391	46	0	0	0	0	0	1	blank2r.bmp	0	1	+	0	2	B2r.bmp	492	1	blank2r.bmp	786	1	HLST	786	1	blank2r.bmp	866	2	reife	866	1	!	1227	1	!	1285	0	0	0	0	0	0	0	0	0	0	0	0	0	0	0	0	0	0	0	0	0	0	0	0	0	0	0
062118	11:08:17	5.0.12.0	65	associated	Rpleas_acq	Same	Rpleas	Amasked	CS_A	2pleas	cond_US_unple_123_masked_CS1	condtest_masked_2	7	3	400	1	300	300	0	0	367	50	0	0	0	0	0	1	blank2r.bmp	0	1	+	0	8	C4r.bmp	492	1	blank2r.bmp	786	1	HLST	786	1	blank2r.bmp	866	3	narr	866	1	!	1227	1	!	1261	0	0	0	0	0	0	0	0	0	0	0	0	0	0	0	0	0	0	0	0	0	0	0	0	0	0	0
062118	11:08:17	5.0.12.0	65	associated	Rpleas_acq	Same	Rpleas	Amasked	CS_A	2pleas	cond_new_unple_456_masked_CS2	condtest_masked_2	7	4	400	1	300	300	0	0	353	46	0	1	0	0	0	1	blank2r.bmp	0	1	+	0	5	C1r.bmp	492	1	blank2r.bmp	786	1	DJMR	786	1	blank2r.bmp	866	2	feind	866	1	!	1227	1	!	1247	0	0	0	0	0	0	0	0	0	0	0	0	0	0	0	0	0	0	0	0	0	0	0	0	0	0	0
062118	11:08:17	5.0.12.0	65	associated	Rpleas_acq	Same	Rpleas	Amasked	CS_A	2pleas	cond_US_pleas_123_masked_CS2	condtest_masked_2	7	5	400	1	300	300	0	0	401	46	0	0	0	0	0	1	blank2r.bmp	0	1	+	0	6	C2r.bmp	492	1	blank2r.bmp	786	1	DJMR	786	1	blank2r.bmp	866	2	meer	866	1	!	1227	1	!	1294	0	0	0	0	0	0	0	0	0	0	0	0	0	0	0	0	0	0	0	0	0	0	0	0	0	0	0
062118	11:08:17	5.0.12.0	65	associated	Rpleas_acq	Same	Rpleas	Amasked	CS_A	2pleas	cond_US_pleas_123_masked_CS1	condtest_masked_2	7	6	400	1	300	300	0	0	363	50	0	1	0	0	0	1	blank2r.bmp	0	1	+	0	7	C3r.bmp	492	1	blank2r.bmp	786	1	HLST	786	1	blank2r.bmp	866	3	erfinder	866	1	!	1227	1	!	1257	0	0	0	0	0	0	0	0	0	0	0	0	0	0	0	0	0	0	0	0	0	0	0	0	0	0	0
062118	11:08:17	5.0.12.0	65	associated	Rpleas_acq	Same	Rpleas	Amasked	CS_A	2pleas	cond_new_unple_456_masked_CS1	condtest_masked_2	7	7	400	1	300	300	0	0	429	46	0	1	0	0	0	1	blank2r.bmp	0	1	+	0	1	B1r.bmp	492	1	blank2r.bmp	786	1	HLST	786	1	blank2r.bmp	866	3	waffe	866	1	!	1227	1	!	1323	0	0	0	0	0	0	0	0	0	0	0	0	0	0	0	0	0	0	0	0	0	0	0	0	0	0	0
062118	11:08:17	5.0.12.0	65	associated	Rpleas_acq	Same	Rpleas	Amasked	CS_A	2pleas	cond_US_unple_123_masked_CS2	condtest_masked_2	7	8	400	0	300	300	0	0	493	46	0	1	0	0	0	1	blank2r.bmp	0	1	+	0	4	B4r.bmp	492	1	blank2r.bmp	786	1	DJMR	786	1	blank2r.bmp	866	1	wunde	866	1	!	1227	1	!	-1	0	0	0	0	0	0	0	0	0	0	0	0	0	0	0	0	0	0	0	0	0	0	0	0	0	0	0
062118	11:08:17	5.0.12.0	65	associated	Rpleas_acq	Same	Rpleas	Amasked	CS_A	2pleas	cond_US_unple_123_masked_CS1	condtest_masked_2	7	9	400	0	300	300	0	0	314	46	0	1	0	0	0	1	blank2r.bmp	0	1	+	0	3	B3r.bmp	492	1	blank2r.bmp	786	1	HLST	786	1	blank2r.bmp	866	3	narr	866	1	!	-1	1	!	-1	0	0	0	0	0	0	0	0	0	0	0	0	0	0	0	0	0	0	0	0	0	0	0	0	0	0	0
062118	11:08:17	5.0.12.0	65	associated	Rpleas_acq	Same	Rpleas	Amasked	CS_A	2pleas	cond_US_unple_123_masked_CS2	condtest_masked_2	7	10	400	0	300	300	0	0	242	46	0	1	0	0	0	1	blank2r.bmp	0	1	+	0	6	C2r.bmp	492	1	blank2r.bmp	786	1	DJMR	786	1	blank2r.bmp	866	2	zwang	866	1	!	-1	1	!	-1	0	0	0	0	0	0	0	0	0	0	0	0	0	0	0	0	0	0	0	0	0	0	0	0	0	0	0
062118	11:08:17	5.0.12.0	65	associated	Rpleas_acq	Same	Rpleas	Amasked	CS_A	2pleas	cond_new_unple_456_masked_CS2	condtest_masked_2	7	11	400	0	300	300	0	0	492	46	0	1	0	0	0	1	blank2r.bmp	0	1	+	0	2	B2r.bmp	492	1	blank2r.bmp	786	1	DJMR	786	1	blank2r.bmp	866	1	neid	866	1	!	1227	1	!	-1	0	0	0	0	0	0	0	0	0	0	0	0	0	0	0	0	0	0	0	0	0	0	0	0	0	0	0
062118	11:08:17	5.0.12.0	65	associated	Rpleas_acq	Same	Rpleas	Amasked	CS_A	2pleas	cond_US_pleas_123_masked_CS1	condtest_masked_2	7	12	400	0	300	300	0	0	630	50	0	1	0	0	0	1	blank2r.bmp	0	1	+	0	4	B4r.bmp	492	1	blank2r.bmp	786	1	HLST	786	1	blank2r.bmp	866	1	frieden	866	1	!	1227	1	!	-1	0	0	0	0	0	0	0	0	0	0	0	0	0	0	0	0	0	0	0	0	0	0	0	0	0	0	0
062118	11:08:17	5.0.12.0	65	associated	Rpleas_acq	Same	Rpleas	Amasked	CS_A	2pleas	cond_US_pleas_123_masked_CS1	condtest_masked_2	7	13	400	1	300	300	0	0	335	50	0	1	0	0	0	1	blank2r.bmp	0	1	+	0	7	C3r.bmp	492	1	blank2r.bmp	786	1	HLST	786	1	blank2r.bmp	866	2	meer	866	1	!	1227	1	!	1228	0	0	0	0	0	0	0	0	0	0	0	0	0	0	0	0	0	0	0	0	0	0	0	0	0	0	0
062118	11:08:17	5.0.12.0	65	associated	Rpleas_acq	Same	Rpleas	Amasked	CS_A	2pleas	cond_new_unple_456_masked_CS1	condtest_masked_2	7	14	400	0	300	300	0	0	316	46	0	1	0	0	0	1	blank2r.bmp	0	1	+	0	8	C4r.bmp	492	1	blank2r.bmp	786	1	HLST	786	1	blank2r.bmp	866	3	waffe	866	1	!	-1	1	!	-1	0	0	0	0	0	0	0	0	0	0	0	0	0	0	0	0	0	0	0	0	0	0	0	0	0	0	0
062118	11:08:17	5.0.12.0	65	associated	Rpleas_acq	Same	Rpleas	Amasked	CS_A	2pleas	cond_new_unple_456_masked_CS1	condtest_masked_2	7	15	400	1	300	300	0	0	374	50	0	0	0	0	0	1	blank2r.bmp	0	1	+	0	1	B1r.bmp	492	1	blank2r.bmp	786	1	HLST	786	1	blank2r.bmp	866	2	feind	866	1	!	1227	1	!	1267	0	0	0	0	0	0	0	0	0	0	0	0	0	0	0	0	0	0	0	0	0	0	0	0	0	0	0
062118	11:08:17	5.0.12.0	65	associated	Rpleas_acq	Same	Rpleas	Amasked	CS_A	2pleas	cond_US_unple_123_masked_CS2	condtest_masked_2	7	16	400	0	300	300	0	0	280	46	0	1	0	0	0	1	blank2r.bmp	0	1	+	0	5	C1r.bmp	492	1	blank2r.bmp	786	1	DJMR	786	1	blank2r.bmp	866	3	narr	866	1	!	-1	1	!	-1	0	0	0	0	0	0	0	0	0	0	0	0	0	0	0	0	0	0	0	0	0	0	0	0	0	0	0
062118	11:08:17	5.0.12.0	65	associated	Rpleas_acq	Same	Rpleas	Amasked	CS_A	2pleas	cond_new_pleas_456_masked_CS2	condtest_masked_2	7	17	400	0	300	300	0	0	538	50	0	1	0	0	0	1	blank2r.bmp	0	1	+	0	1	B1r.bmp	492	1	blank2r.bmp	786	1	DJMR	786	1	blank2r.bmp	866	2	reife	866	1	!	1227	1	!	-1	0	0	0	0	0	0	0	0	0	0	0	0	0	0	0	0	0	0	0	0	0	0	0	0	0	0	0
062118	11:08:17	5.0.12.0	65	associated	Rpleas_acq	Same	Rpleas	Amasked	CS_A	2pleas	cond_US_unple_123_masked_CS1	condtest_masked_2	7	18	400	1	300	300	0	0	351	46	0	1	0	0	0	1	blank2r.bmp	0	1	+	0	2	B2r.bmp	492	1	blank2r.bmp	786	1	HLST	786	1	blank2r.bmp	866	1	wunde	866	1	!	1227	1	!	1245	0	0	0	0	0	0	0	0	0	0	0	0	0	0	0	0	0	0	0	0	0	0	0	0	0	0	0
062118	11:08:17	5.0.12.0	65	associated	Rpleas_acq	Same	Rpleas	Amasked	CS_A	2pleas	cond_new_pleas_456_masked_CS1	condtest_masked_2	7	19	400	0	300	300	0	0	482	50	0	1	0	0	0	1	blank2r.bmp	0	1	+	0	4	B4r.bmp	492	1	blank2r.bmp	786	1	HLST	786	1	blank2r.bmp	866	1	umarmen	866	1	!	1227	1	!	-1	0	0	0	0	0	0	0	0	0	0	0	0	0	0	0	0	0	0	0	0	0	0	0	0	0	0	0
062118	11:08:17	5.0.12.0	65	associated	Rpleas_acq	Same	Rpleas	Amasked	CS_A	2pleas	cond_US_unple_123_masked_CS1	condtest_masked_2	7	20	400	0	300	300	0	0	476	46	0	1	0	0	0	1	blank2r.bmp	0	1	+	0	5	C1r.bmp	492	1	blank2r.bmp	786	1	HLST	786	1	blank2r.bmp	866	2	zwang	866	1	!	1227	1	!	-1	0	0	0	0	0	0	0	0	0	0	0	0	0	0	0	0	0	0	0	0	0	0	0	0	0	0	0
062118	11:08:17	5.0.12.0	65	associated	Rpleas_acq	Same	Rpleas	Amasked	CS_A	2pleas	cond_new_unple_456_masked_CS1	condtest_masked_2	7	21	400	0	300	300	0	0	631	46	0	1	0	0	0	1	blank2r.bmp	0	1	+	0	6	C2r.bmp	492	1	blank2r.bmp	786	1	HLST	786	1	blank2r.bmp	866	1	neid	866	1	!	1227	1	!	-1	0	0	0	0	0	0	0	0	0	0	0	0	0	0	0	0	0	0	0	0	0	0	0	0	0	0	0
062118	11:08:17	5.0.12.0	65	associated	Rpleas_acq	Same	Rpleas	Amasked	CS_A	2pleas	cond_US_unple_123_masked_CS2	condtest_masked_2	7	22	400	1	300	300	0	0	354	46	0	1	0	0	0	1	blank2r.bmp	0	1	+	0	3	B3r.bmp	492	1	blank2r.bmp	786	1	DJMR	786	1	blank2r.bmp	866	1	wunde	866	1	!	1227	1	!	1248	0	0	0	0	0	0	0	0	0	0	0	0	0	0	0	0	0	0	0	0	0	0	0	0	0	0	0
062118	11:08:17	5.0.12.0	65	associated	Rpleas_acq	Same	Rpleas	Amasked	CS_A	2pleas	cond_new_unple_456_masked_CS2	condtest_masked_2	7	23	400	0	300	300	0	0	290	46	0	1	0	0	0	1	blank2r.bmp	0	1	+	0	8	C4r.bmp	492	1	blank2r.bmp	786	1	DJMR	786	1	blank2r.bmp	866	2	feind	866	1	!	-1	1	!	-1	0	0	0	0	0	0	0	0	0	0	0	0	0	0	0	0	0	0	0	0	0	0	0	0	0	0	0
062118	11:08:17	5.0.12.0	65	associated	Rpleas_acq	Same	Rpleas	Amasked	CS_A	2pleas	cond_US_pleas_123_masked_CS1	condtest_masked_2	7	24	400	1	300	300	0	0	436	46	0	0	0	0	0	1	blank2r.bmp	0	1	+	0	7	C3r.bmp	492	1	blank2r.bmp	786	1	HLST	786	1	blank2r.bmp	866	1	frieden	866	1	!	1227	1	!	1329	0	0	0	0	0	0	0	0	0	0	0	0	0	0	0	0	0	0	0	0	0	0	0	0	0	0	0
062118	11:08:17	5.0.12.0	65	associated	Rpleas_acq	Same	Rpleas	Amasked	CS_A	2pleas	cond_US_pleas_123_masked_CS2	condtest_masked_2	7	25	400	1	300	300	0	0	342	50	0	1	0	0	0	1	blank2r.bmp	0	1	+	0	6	C2r.bmp	492	1	blank2r.bmp	786	1	DJMR	786	1	blank2r.bmp	866	2	meer	866	1	!	1227	1	!	1236	0	0	0	0	0	0	0	0	0	0	0	0	0	0	0	0	0	0	0	0	0	0	0	0	0	0	0
062118	11:08:17	5.0.12.0	65	associated	Rpleas_acq	Same	Rpleas	Amasked	CS_A	2pleas	cond_new_pleas_456_masked_CS2	condtest_masked_2	7	26	400	0	300	300	0	0	307	46	0	0	0	0	0	1	blank2r.bmp	0	1	+	0	1	B1r.bmp	492	1	blank2r.bmp	786	1	DJMR	786	1	blank2r.bmp	866	3	genuß	866	1	!	-1	1	!	-1	0	0	0	0	0	0	0	0	0	0	0	0	0	0	0	0	0	0	0	0	0	0	0	0	0	0	0
062118	11:08:17	5.0.12.0	65	associated	Rpleas_acq	Same	Rpleas	Amasked	CS_A	2pleas	cond_US_pleas_123_masked_CS1	condtest_masked_2	7	27	400	0	300	300	0	0	266	46	0	0	0	0	0	1	blank2r.bmp	0	1	+	0	3	B3r.bmp	492	1	blank2r.bmp	786	1	HLST	786	1	blank2r.bmp	866	3	erfinder	866	1	!	-1	1	!	-1	0	0	0	0	0	0	0	0	0	0	0	0	0	0	0	0	0	0	0	0	0	0	0	0	0	0	0
062118	11:08:17	5.0.12.0	65	associated	Rpleas_acq	Same	Rpleas	Amasked	CS_A	2pleas	cond_new_pleas_456_masked_CS2	condtest_masked_2	7	28	400	0	300	300	0	0	313	50	0	1	0	0	0	1	blank2r.bmp	0	1	+	0	8	C4r.bmp	492	1	blank2r.bmp	786	1	DJMR	786	1	blank2r.bmp	866	1	umarmen	866	1	!	-1	1	!	-1	0	0	0	0	0	0	0	0	0	0	0	0	0	0	0	0	0	0	0	0	0	0	0	0	0	0	0
062118	11:08:17	5.0.12.0	65	associated	Rpleas_acq	Same	Rpleas	Amasked	CS_A	2pleas	cond_US_unple_123_masked_CS1	condtest_masked_2	7	29	400	1	300	300	0	0	337	50	0	0	0	0	0	1	blank2r.bmp	0	1	+	0	7	C3r.bmp	492	1	blank2r.bmp	786	1	HLST	786	1	blank2r.bmp	866	2	zwang	866	1	!	1227	1	!	1230	0	0	0	0	0	0	0	0	0	0	0	0	0	0	0	0	0	0	0	0	0	0	0	0	0	0	0
062118	11:08:17	5.0.12.0	65	associated	Rpleas_acq	Same	Rpleas	Amasked	CS_A	2pleas	cond_US_pleas_123_masked_CS2	condtest_masked_2	7	30	400	0	300	300	0	0	320	50	0	1	0	0	0	1	blank2r.bmp	0	1	+	0	2	B2r.bmp	492	1	blank2r.bmp	786	1	DJMR	786	1	blank2r.bmp	866	3	erfinder	866	1	!	-1	1	!	-1	0	0	0	0	0	0	0	0	0	0	0	0	0	0	0	0	0	0	0	0	0	0	0	0	0	0	0
062118	11:08:17	5.0.12.0	65	associated	Rpleas_acq	Same	Rpleas	Amasked	CS_A	2pleas	cond_new_unple_456_masked_CS2	condtest_masked_2	7	31	400	0	300	300	0	0	330	50	0	0	0	0	0	1	blank2r.bmp	0	1	+	0	4	B4r.bmp	492	1	blank2r.bmp	786	1	DJMR	786	1	blank2r.bmp	866	1	neid	866	1	!	-1	1	!	-1	0	0	0	0	0	0	0	0	0	0	0	0	0	0	0	0	0	0	0	0	0	0	0	0	0	0	0
062118	11:08:17	5.0.12.0	65	associated	Rpleas_acq	Same	Rpleas	Amasked	CS_A	2pleas	cond_new_pleas_456_masked_CS1	condtest_masked_2	7	32	400	0	300	300	0	0	164	46	0	0	0	0	0	1	blank2r.bmp	0	1	+	0	5	C1r.bmp	492	1	blank2r.bmp	786	1	HLST	786	1	blank2r.bmp	866	3	genuß	866	1	!	-1	1	!	-1	0	0	0	0	0	0	0	0	0	0	0	0	0	0	0	0	0	0	0	0	0	0	0	0	0	0	0
062118	11:08:17	5.0.12.0	65	associated	Rpleas_acq	Same	Rpleas	Amasked	CS_A	2pleas	cond_US_pleas_123_masked_CS2	condtest_masked_2	7	33	400	1	300	300	0	0	334	46	0	0	0	0	0	1	blank2r.bmp	0	1	+	0	2	B2r.bmp	492	1	blank2r.bmp	786	1	DJMR	786	1	blank2r.bmp	866	1	frieden	866	1	!	1227	1	!	1228	0	0	0	0	0	0	0	0	0	0	0	0	0	0	0	0	0	0	0	0	0	0	0	0	0	0	0
062118	11:08:17	5.0.12.0	65	associated	Rpleas_acq	Same	Rpleas	Amasked	CS_A	2pleas	cond_new_pleas_456_masked_CS1	condtest_masked_2	7	34	400	0	300	300	0	0	299	50	0	1	0	0	0	1	blank2r.bmp	0	1	+	0	6	C2r.bmp	492	1	blank2r.bmp	786	1	HLST	786	1	blank2r.bmp	866	2	reife	866	1	!	-1	1	!	-1	0	0	0	0	0	0	0	0	0	0	0	0	0	0	0	0	0	0	0	0	0	0	0	0	0	0	0
062118	11:08:17	5.0.12.0	65	associated	Rpleas_acq	Same	Rpleas	Amasked	CS_A	2pleas	cond_new_pleas_456_masked_CS1	condtest_masked_2	7	35	400	0	300	300	0	0	239	50	0	1	0	0	0	1	blank2r.bmp	0	1	+	0	7	C3r.bmp	492	1	blank2r.bmp	786	1	HLST	786	1	blank2r.bmp	866	3	genuß	866	1	!	-1	1	!	-1	0	0	0	0	0	0	0	0	0	0	0	0	0	0	0	0	0	0	0	0	0	0	0	0	0	0	0
062118	11:08:17	5.0.12.0	65	associated	Rpleas_acq	Same	Rpleas	Amasked	CS_A	2pleas	cond_US_pleas_123_masked_CS2	condtest_masked_2	7	36	400	0	300	300	0	0	327	50	0	1	0	0	0	1	blank2r.bmp	0	1	+	0	5	C1r.bmp	492	1	blank2r.bmp	786	1	DJMR	786	1	blank2r.bmp	866	2	meer	866	1	!	-1	1	!	-1	0	0	0	0	0	0	0	0	0	0	0	0	0	0	0	0	0	0	0	0	0	0	0	0	0	0	0
062118	11:08:17	5.0.12.0	65	associated	Rpleas_acq	Same	Rpleas	Amasked	CS_A	2pleas	cond_new_pleas_456_masked_CS2	condtest_masked_2	7	37	400	0	300	300	0	0	209	46	0	0	0	0	0	1	blank2r.bmp	0	1	+	0	4	B4r.bmp	492	1	blank2r.bmp	786	1	DJMR	786	1	blank2r.bmp	866	2	reife	866	1	!	-1	1	!	-1	0	0	0	0	0	0	0	0	0	0	0	0	0	0	0	0	0	0	0	0	0	0	0	0	0	0	0
062118	11:08:17	5.0.12.0	65	associated	Rpleas_acq	Same	Rpleas	Amasked	CS_A	2pleas	cond_US_unple_123_masked_CS2	condtest_masked_2	7	38	400	0	300	300	0	0	309	50	0	0	0	0	0	1	blank2r.bmp	0	1	+	0	8	C4r.bmp	492	1	blank2r.bmp	786	1	DJMR	786	1	blank2r.bmp	866	3	narr	866	1	!	-1	1	!	-1	0	0	0	0	0	0	0	0	0	0	0	0	0	0	0	0	0	0	0	0	0	0	0	0	0	0	0
062118	11:08:17	5.0.12.0	65	associated	Rpleas_acq	Same	Rpleas	Amasked	CS_A	2pleas	cond_new_unple_456_masked_CS1	condtest_masked_2	7	39	400	0	300	300	0	0	3404	50	0	0	0	0	0	1	blank2r.bmp	0	1	+	0	1	B1r.bmp	492	1	blank2r.bmp	786	1	HLST	786	1	blank2r.bmp	866	3	waffe	866	1	!	1227	1	!	-1	0	0	0	0	0	0	0	0	0	0	0	0	0	0	0	0	0	0	0	0	0	0	0	0	0	0	0
062118	11:08:17	5.0.12.0	65	associated	Rpleas_acq	Same	Rpleas	Amasked	CS_A	2pleas	cond_new_pleas_456_masked_CS2	condtest_masked_2	7	40	400	0	300	300	0	0	476	50	0	1	0	0	0	1	blank2r.bmp	0	1	+	0	3	B3r.bmp	492	1	blank2r.bmp	786	1	DJMR	786	1	blank2r.bmp	866	1	umarmen	866	1	!	1227	1	!	-1	0	0	0	0	0	0	0	0	0	0	0	0	0	0	0	0	0	0	0	0	0	0	0	0	0	0	0
062118	11:08:17	5.0.12.0	65	associated	Rpleas_acq	Same	Rpleas	Amasked	CS_A	2pleas	cond_US_pleas_456_masked_CS1	condtest_masked_3	8	1	400	1	300	300	0	0	377	46	0	0	0	0	0	1	blank2r.bmp	0	1	+	0	1	B1r.bmp	492	1	blank2r.bmp	786	1	HLST	786	1	blank2r.bmp	866	2	jugend	866	1	!	1227	1	!	1270	0	0	0	0	0	0	0	0	0	0	0	0	0	0	0	0	0	0	0	0	0	0	0	0	0	0	0
062118	11:08:17	5.0.12.0	65	associated	Rpleas_acq	Same	Rpleas	Amasked	CS_A	2pleas	cond_US_pleas_456_masked_CS2	condtest_masked_3	8	2	400	0	300	300	0	0	318	50	0	1	0	0	0	1	blank2r.bmp	0	1	+	0	3	B3r.bmp	492	1	blank2r.bmp	786	1	DJMR	786	1	blank2r.bmp	866	1	mama	866	1	!	-1	1	!	-1	0	0	0	0	0	0	0	0	0	0	0	0	0	0	0	0	0	0	0	0	0	0	0	0	0	0	0
062118	11:08:17	5.0.12.0	65	associated	Rpleas_acq	Same	Rpleas	Amasked	CS_A	2pleas	cond_US_pleas_456_masked_CS1	condtest_masked_3	8	3	400	1	300	300	0	0	373	46	0	0	0	0	0	1	blank2r.bmp	0	1	+	0	2	B2r.bmp	492	1	blank2r.bmp	786	1	HLST	786	1	blank2r.bmp	866	3	wein	866	1	!	1227	1	!	1267	0	0	0	0	0	0	0	0	0	0	0	0	0	0	0	0	0	0	0	0	0	0	0	0	0	0	0
062118	11:08:17	5.0.12.0	65	associated	Rpleas_acq	Same	Rpleas	Amasked	CS_A	2pleas	cond_new_unple_123_masked_CS2	condtest_masked_3	8	4	400	0	300	300	0	0	282	50	0	0	0	0	0	1	blank2r.bmp	0	1	+	0	8	C4r.bmp	492	1	blank2r.bmp	786	1	DJMR	786	1	blank2r.bmp	866	1	reißen	866	1	!	-1	1	!	-1	0	0	0	0	0	0	0	0	0	0	0	0	0	0	0	0	0	0	0	0	0	0	0	0	0	0	0
062118	11:08:17	5.0.12.0	65	associated	Rpleas_acq	Same	Rpleas	Amasked	CS_A	2pleas	cond_new_pleas_123_masked_CS2	condtest_masked_3	8	5	400	1	300	300	0	0	364	46	0	0	0	0	0	1	blank2r.bmp	0	1	+	0	6	C2r.bmp	492	1	blank2r.bmp	786	1	DJMR	786	1	blank2r.bmp	866	3	genie	866	1	!	1227	1	!	1257	0	0	0	0	0	0	0	0	0	0	0	0	0	0	0	0	0	0	0	0	0	0	0	0	0	0	0
062118	11:08:17	5.0.12.0	65	associated	Rpleas_acq	Same	Rpleas	Amasked	CS_A	2pleas	cond_new_unple_123_masked_CS2	condtest_masked_3	8	6	400	0	300	300	0	0	289	50	0	0	0	0	0	1	blank2r.bmp	0	1	+	0	7	C3r.bmp	492	1	blank2r.bmp	786	1	DJMR	786	1	blank2r.bmp	866	2	einengen	866	1	!	-1	1	!	-1	0	0	0	0	0	0	0	0	0	0	0	0	0	0	0	0	0	0	0	0	0	0	0	0	0	0	0
062118	11:08:17	5.0.12.0	65	associated	Rpleas_acq	Same	Rpleas	Amasked	CS_A	2pleas	cond_new_pleas_123_masked_CS1	condtest_masked_3	8	7	400	1	300	300	0	0	389	50	0	1	0	0	0	1	blank2r.bmp	0	1	+	0	5	C1r.bmp	492	1	blank2r.bmp	786	1	HLST	786	1	blank2r.bmp	866	2	wind	866	1	!	1227	1	!	1283	0	0	0	0	0	0	0	0	0	0	0	0	0	0	0	0	0	0	0	0	0	0	0	0	0	0	0
062118	11:08:17	5.0.12.0	65	associated	Rpleas_acq	Same	Rpleas	Amasked	CS_A	2pleas	cond_US_unple_456_masked_CS2	condtest_masked_3	8	8	400	1	300	300	0	0	461	46	0	1	0	0	0	1	blank2r.bmp	0	1	+	0	4	B4r.bmp	492	1	blank2r.bmp	786	1	DJMR	786	1	blank2r.bmp	866	1	geiz	866	1	!	1227	1	!	1355	0	0	0	0	0	0	0	0	0	0	0	0	0	0	0	0	0	0	0	0	0	0	0	0	0	0	0
062118	11:08:17	5.0.12.0	65	associated	Rpleas_acq	Same	Rpleas	Amasked	CS_A	2pleas	cond_US_pleas_456_masked_CS1	condtest_masked_3	8	9	400	1	300	300	0	0	434	50	0	1	0	0	0	1	blank2r.bmp	0	1	+	0	7	C3r.bmp	492	1	blank2r.bmp	786	1	HLST	786	1	blank2r.bmp	866	3	wein	866	1	!	1227	1	!	1328	0	0	0	0	0	0	0	0	0	0	0	0	0	0	0	0	0	0	0	0	0	0	0	0	0	0	0
062118	11:08:17	5.0.12.0	65	associated	Rpleas_acq	Same	Rpleas	Amasked	CS_A	2pleas	cond_US_pleas_456_masked_CS1	condtest_masked_3	8	10	400	0	300	300	0	0	610	50	0	1	0	0	0	1	blank2r.bmp	0	1	+	0	3	B3r.bmp	492	1	blank2r.bmp	786	1	HLST	786	1	blank2r.bmp	866	2	jugend	866	1	!	1227	1	!	-1	0	0	0	0	0	0	0	0	0	0	0	0	0	0	0	0	0	0	0	0	0	0	0	0	0	0	0
062118	11:08:17	5.0.12.0	65	associated	Rpleas_acq	Same	Rpleas	Amasked	CS_A	2pleas	cond_US_unple_456_masked_CS1	condtest_masked_3	8	11	400	0	300	300	0	0	229	50	0	0	0	0	0	1	blank2r.bmp	0	1	+	0	5	C1r.bmp	492	1	blank2r.bmp	786	1	HLST	786	1	blank2r.bmp	866	2	gegner	866	1	!	-1	1	!	-1	0	0	0	0	0	0	0	0	0	0	0	0	0	0	0	0	0	0	0	0	0	0	0	0	0	0	0
062118	11:08:17	5.0.12.0	65	associated	Rpleas_acq	Same	Rpleas	Amasked	CS_A	2pleas	cond_new_unple_123_masked_CS1	condtest_masked_3	8	12	400	0	300	300	0	0	282	46	0	1	0	0	0	1	blank2r.bmp	0	1	+	0	4	B4r.bmp	492	1	blank2r.bmp	786	1	HLST	786	1	blank2r.bmp	866	3	dumm	866	1	!	-1	1	!	-1	0	0	0	0	0	0	0	0	0	0	0	0	0	0	0	0	0	0	0	0	0	0	0	0	0	0	0
062118	11:08:17	5.0.12.0	65	associated	Rpleas_acq	Same	Rpleas	Amasked	CS_A	2pleas	cond_new_unple_123_masked_CS2	condtest_masked_3	8	13	400	0	300	300	0	0	715	46	0	1	0	0	0	1	blank2r.bmp	0	1	+	0	6	C2r.bmp	492	1	blank2r.bmp	786	1	DJMR	786	1	blank2r.bmp	866	3	dumm	866	1	!	1227	1	!	-1	0	0	0	0	0	0	0	0	0	0	0	0	0	0	0	0	0	0	0	0	0	0	0	0	0	0	0
062118	11:08:17	5.0.12.0	65	associated	Rpleas_acq	Same	Rpleas	Amasked	CS_A	2pleas	cond_US_pleas_456_masked_CS2	condtest_masked_3	8	14	400	1	300	300	0	0	407	46	0	0	0	0	0	1	blank2r.bmp	0	1	+	0	8	C4r.bmp	492	1	blank2r.bmp	786	1	DJMR	786	1	blank2r.bmp	866	1	mama	866	1	!	1227	1	!	1301	0	0	0	0	0	0	0	0	0	0	0	0	0	0	0	0	0	0	0	0	0	0	0	0	0	0	0
062118	11:08:17	5.0.12.0	65	associated	Rpleas_acq	Same	Rpleas	Amasked	CS_A	2pleas	cond_new_pleas_123_masked_CS1	condtest_masked_3	8	15	400	0	300	300	0	0	305	50	0	1	0	0	0	1	blank2r.bmp	0	1	+	0	2	B2r.bmp	492	1	blank2r.bmp	786	1	HLST	786	1	blank2r.bmp	866	1	freude	866	1	!	-1	1	!	-1	0	0	0	0	0	0	0	0	0	0	0	0	0	0	0	0	0	0	0	0	0	0	0	0	0	0	0
062118	11:08:17	5.0.12.0	65	associated	Rpleas_acq	Same	Rpleas	Amasked	CS_A	2pleas	cond_new_unple_123_masked_CS1	condtest_masked_3	8	16	400	0	300	300	0	0	630	46	0	1	0	0	0	1	blank2r.bmp	0	1	+	0	1	B1r.bmp	492	1	blank2r.bmp	786	1	HLST	786	1	blank2r.bmp	866	1	reißen	866	1	!	1227	1	!	-1	0	0	0	0	0	0	0	0	0	0	0	0	0	0	0	0	0	0	0	0	0	0	0	0	0	0	0
062118	11:08:17	5.0.12.0	65	associated	Rpleas_acq	Same	Rpleas	Amasked	CS_A	2pleas	cond_new_unple_123_masked_CS1	condtest_masked_3	8	17	400	0	300	300	0	0	319	50	0	0	0	0	0	1	blank2r.bmp	0	1	+	0	3	B3r.bmp	492	1	blank2r.bmp	786	1	HLST	786	1	blank2r.bmp	866	2	einengen	866	1	!	-1	1	!	-1	0	0	0	0	0	0	0	0	0	0	0	0	0	0	0	0	0	0	0	0	0	0	0	0	0	0	0
062118	11:08:17	5.0.12.0	65	associated	Rpleas_acq	Same	Rpleas	Amasked	CS_A	2pleas	cond_new_unple_123_masked_CS2	condtest_masked_3	8	18	400	0	300	300	0	0	249	46	0	1	0	0	0	1	blank2r.bmp	0	1	+	0	5	C1r.bmp	492	1	blank2r.bmp	786	1	DJMR	786	1	blank2r.bmp	866	3	dumm	866	1	!	-1	1	!	-1	0	0	0	0	0	0	0	0	0	0	0	0	0	0	0	0	0	0	0	0	0	0	0	0	0	0	0
062118	11:08:17	5.0.12.0	65	associated	Rpleas_acq	Same	Rpleas	Amasked	CS_A	2pleas	cond_US_unple_456_masked_CS1	condtest_masked_3	8	19	400	0	300	300	0	0	485	46	0	1	0	0	0	1	blank2r.bmp	0	1	+	0	6	C2r.bmp	492	1	blank2r.bmp	786	1	HLST	786	1	blank2r.bmp	866	3	armee	866	1	!	1227	1	!	-1	0	0	0	0	0	0	0	0	0	0	0	0	0	0	0	0	0	0	0	0	0	0	0	0	0	0	0
062118	11:08:17	5.0.12.0	65	associated	Rpleas_acq	Same	Rpleas	Amasked	CS_A	2pleas	cond_new_pleas_123_masked_CS2	condtest_masked_3	8	20	400	1	300	300	0	0	416	46	0	0	0	0	0	1	blank2r.bmp	0	1	+	0	7	C3r.bmp	492	1	blank2r.bmp	786	1	DJMR	786	1	blank2r.bmp	866	2	wind	866	1	!	1227	1	!	1309	0	0	0	0	0	0	0	0	0	0	0	0	0	0	0	0	0	0	0	0	0	0	0	0	0	0	0
062118	11:08:17	5.0.12.0	65	associated	Rpleas_acq	Same	Rpleas	Amasked	CS_A	2pleas	cond_US_unple_456_masked_CS2	condtest_masked_3	8	21	400	0	300	300	0	0	317	46	0	1	0	0	0	1	blank2r.bmp	0	1	+	0	8	C4r.bmp	492	1	blank2r.bmp	786	1	DJMR	786	1	blank2r.bmp	866	1	geiz	866	1	!	-1	1	!	-1	0	0	0	0	0	0	0	0	0	0	0	0	0	0	0	0	0	0	0	0	0	0	0	0	0	0	0
062118	11:08:17	5.0.12.0	65	associated	Rpleas_acq	Same	Rpleas	Amasked	CS_A	2pleas	cond_new_pleas_123_masked_CS2	condtest_masked_3	8	22	400	0	300	300	0	0	324	46	0	0	0	0	0	1	blank2r.bmp	0	1	+	0	1	B1r.bmp	492	1	blank2r.bmp	786	1	DJMR	786	1	blank2r.bmp	866	1	freude	866	1	!	-1	1	!	-1	0	0	0	0	0	0	0	0	0	0	0	0	0	0	0	0	0	0	0	0	0	0	0	0	0	0	0
062118	11:08:17	5.0.12.0	65	associated	Rpleas_acq	Same	Rpleas	Amasked	CS_A	2pleas	cond_US_unple_456_masked_CS1	condtest_masked_3	8	23	400	0	300	300	0	0	289	50	0	0	0	0	0	1	blank2r.bmp	0	1	+	0	2	B2r.bmp	492	1	blank2r.bmp	786	1	HLST	786	1	blank2r.bmp	866	3	armee	866	1	!	-1	1	!	-1	0	0	0	0	0	0	0	0	0	0	0	0	0	0	0	0	0	0	0	0	0	0	0	0	0	0	0
062118	11:08:17	5.0.12.0	65	associated	Rpleas_acq	Same	Rpleas	Amasked	CS_A	2pleas	cond_US_pleas_456_masked_CS2	condtest_masked_3	8	24	400	0	300	300	0	0	294	46	0	0	0	0	0	1	blank2r.bmp	0	1	+	0	4	B4r.bmp	492	1	blank2r.bmp	786	1	DJMR	786	1	blank2r.bmp	866	1	mama	866	1	!	-1	1	!	-1	0	0	0	0	0	0	0	0	0	0	0	0	0	0	0	0	0	0	0	0	0	0	0	0	0	0	0
062118	11:08:17	5.0.12.0	65	associated	Rpleas_acq	Same	Rpleas	Amasked	CS_A	2pleas	cond_US_unple_456_masked_CS1	condtest_masked_3	8	25	400	1	300	300	0	0	346	50	0	0	0	0	0	1	blank2r.bmp	0	1	+	0	5	C1r.bmp	492	1	blank2r.bmp	786	1	HLST	786	1	blank2r.bmp	866	2	gegner	866	1	!	1227	1	!	1240	0	0	0	0	0	0	0	0	0	0	0	0	0	0	0	0	0	0	0	0	0	0	0	0	0	0	0
062118	11:08:17	5.0.12.0	65	associated	Rpleas_acq	Same	Rpleas	Amasked	CS_A	2pleas	cond_US_unple_456_masked_CS1	condtest_masked_3	8	26	400	0	300	300	0	0	266	46	0	1	0	0	0	1	blank2r.bmp	0	1	+	0	4	B4r.bmp	492	1	blank2r.bmp	786	1	HLST	786	1	blank2r.bmp	866	1	geiz	866	1	!	-1	1	!	-1	0	0	0	0	0	0	0	0	0	0	0	0	0	0	0	0	0	0	0	0	0	0	0	0	0	0	0
062118	11:08:17	5.0.12.0	65	associated	Rpleas_acq	Same	Rpleas	Amasked	CS_A	2pleas	cond_new_unple_123_masked_CS2	condtest_masked_3	8	27	400	1	300	300	0	0	409	50	0	0	0	0	0	1	blank2r.bmp	0	1	+	0	1	B1r.bmp	492	1	blank2r.bmp	786	1	DJMR	786	1	blank2r.bmp	866	2	einengen	866	1	!	1227	1	!	1303	0	0	0	0	0	0	0	0	0	0	0	0	0	0	0	0	0	0	0	0	0	0	0	0	0	0	0
062118	11:08:17	5.0.12.0	65	associated	Rpleas_acq	Same	Rpleas	Amasked	CS_A	2pleas	cond_US_unple_456_masked_CS2	condtest_masked_3	8	28	400	1	300	300	0	0	404	50	0	0	0	0	0	1	blank2r.bmp	0	1	+	0	7	C3r.bmp	492	1	blank2r.bmp	786	1	DJMR	786	1	blank2r.bmp	866	2	gegner	866	1	!	1227	1	!	1297	0	0	0	0	0	0	0	0	0	0	0	0	0	0	0	0	0	0	0	0	0	0	0	0	0	0	0
062118	11:08:17	5.0.12.0	65	associated	Rpleas_acq	Same	Rpleas	Amasked	CS_A	2pleas	cond_US_unple_456_masked_CS2	condtest_masked_3	8	29	400	0	300	300	0	0	254	46	0	1	0	0	0	1	blank2r.bmp	0	1	+	0	8	C4r.bmp	492	1	blank2r.bmp	786	1	DJMR	786	1	blank2r.bmp	866	3	armee	866	1	!	-1	1	!	-1	0	0	0	0	0	0	0	0	0	0	0	0	0	0	0	0	0	0	0	0	0	0	0	0	0	0	0
062118	11:08:17	5.0.12.0	65	associated	Rpleas_acq	Same	Rpleas	Amasked	CS_A	2pleas	cond_US_pleas_456_masked_CS2	condtest_masked_3	8	30	400	0	300	300	0	0	314	50	0	1	0	0	0	1	blank2r.bmp	0	1	+	0	2	B2r.bmp	492	1	blank2r.bmp	786	1	DJMR	786	1	blank2r.bmp	866	2	jugend	866	1	!	-1	1	!	-1	0	0	0	0	0	0	0	0	0	0	0	0	0	0	0	0	0	0	0	0	0	0	0	0	0	0	0
062118	11:08:17	5.0.12.0	65	associated	Rpleas_acq	Same	Rpleas	Amasked	CS_A	2pleas	cond_new_pleas_123_masked_CS2	condtest_masked_3	8	31	400	1	300	300	0	0	338	46	0	0	0	0	0	1	blank2r.bmp	0	1	+	0	3	B3r.bmp	492	1	blank2r.bmp	786	1	DJMR	786	1	blank2r.bmp	866	3	genie	866	1	!	1227	1	!	1231	0	0	0	0	0	0	0	0	0	0	0	0	0	0	0	0	0	0	0	0	0	0	0	0	0	0	0
062118	11:08:17	5.0.12.0	65	associated	Rpleas_acq	Same	Rpleas	Amasked	CS_A	2pleas	cond_new_pleas_123_masked_CS1	condtest_masked_3	8	32	400	1	300	300	0	0	383	50	0	1	0	0	0	1	blank2r.bmp	0	1	+	0	6	C2r.bmp	492	1	blank2r.bmp	786	1	HLST	786	1	blank2r.bmp	866	3	genie	866	1	!	1227	1	!	1276	0	0	0	0	0	0	0	0	0	0	0	0	0	0	0	0	0	0	0	0	0	0	0	0	0	0	0
062118	11:08:17	5.0.12.0	65	associated	Rpleas_acq	Same	Rpleas	Amasked	CS_A	2pleas	cond_new_pleas_123_masked_CS1	condtest_masked_3	8	33	400	0	300	300	0	0	307	46	0	0	0	0	0	1	blank2r.bmp	0	1	+	0	4	B4r.bmp	492	1	blank2r.bmp	786	1	HLST	786	1	blank2r.bmp	866	2	wind	866	1	!	-1	1	!	-1	0	0	0	0	0	0	0	0	0	0	0	0	0	0	0	0	0	0	0	0	0	0	0	0	0	0	0
062118	11:08:17	5.0.12.0	65	associated	Rpleas_acq	Same	Rpleas	Amasked	CS_A	2pleas	cond_new_pleas_123_masked_CS2	condtest_masked_3	8	34	400	1	300	300	0	0	376	46	0	0	0	0	0	1	blank2r.bmp	0	1	+	0	3	B3r.bmp	492	1	blank2r.bmp	786	1	DJMR	786	1	blank2r.bmp	866	1	freude	866	1	!	1227	1	!	1270	0	0	0	0	0	0	0	0	0	0	0	0	0	0	0	0	0	0	0	0	0	0	0	0	0	0	0
062118	11:08:17	5.0.12.0	65	associated	Rpleas_acq	Same	Rpleas	Amasked	CS_A	2pleas	cond_US_unple_456_masked_CS1	condtest_masked_3	8	35	400	0	300	300	0	0	477	46	0	1	0	0	0	1	blank2r.bmp	0	1	+	0	8	C4r.bmp	492	1	blank2r.bmp	786	1	HLST	786	1	blank2r.bmp	866	3	armee	866	1	!	1227	1	!	-1	0	0	0	0	0	0	0	0	0	0	0	0	0	0	0	0	0	0	0	0	0	0	0	0	0	0	0
062118	11:08:17	5.0.12.0	65	associated	Rpleas_acq	Same	Rpleas	Amasked	CS_A	2pleas	cond_new_unple_123_masked_CS1	condtest_masked_3	8	36	400	0	300	300	0	0	261	50	0	0	0	0	0	1	blank2r.bmp	0	1	+	0	6	C2r.bmp	492	1	blank2r.bmp	786	1	HLST	786	1	blank2r.bmp	866	1	reißen	866	1	!	-1	1	!	-1	0	0	0	0	0	0	0	0	0	0	0	0	0	0	0	0	0	0	0	0	0	0	0	0	0	0	0
062118	11:08:17	5.0.12.0	65	associated	Rpleas_acq	Same	Rpleas	Amasked	CS_A	2pleas	cond_new_unple_123_masked_CS1	condtest_masked_3	8	37	400	0	300	300	0	0	484	46	0	1	0	0	0	1	blank2r.bmp	0	1	+	0	1	B1r.bmp	492	1	blank2r.bmp	786	1	HLST	786	1	blank2r.bmp	866	2	einengen	866	1	!	1227	1	!	-1	0	0	0	0	0	0	0	0	0	0	0	0	0	0	0	0	0	0	0	0	0	0	0	0	0	0	0
062118	11:08:17	5.0.12.0	65	associated	Rpleas_acq	Same	Rpleas	Amasked	CS_A	2pleas	cond_new_unple_123_masked_CS2	condtest_masked_3	8	38	400	0	300	300	0	0	495	46	0	1	0	0	0	1	blank2r.bmp	0	1	+	0	5	C1r.bmp	492	1	blank2r.bmp	786	1	DJMR	786	1	blank2r.bmp	866	3	dumm	866	1	!	1227	1	!	-1	0	0	0	0	0	0	0	0	0	0	0	0	0	0	0	0	0	0	0	0	0	0	0	0	0	0	0
062118	11:08:17	5.0.12.0	65	associated	Rpleas_acq	Same	Rpleas	Amasked	CS_A	2pleas	cond_US_pleas_456_masked_CS2	condtest_masked_3	8	39	400	1	300	300	0	0	396	46	0	0	0	0	0	1	blank2r.bmp	0	1	+	0	7	C3r.bmp	492	1	blank2r.bmp	786	1	DJMR	786	1	blank2r.bmp	866	3	wein	866	1	!	1227	1	!	1290	0	0	0	0	0	0	0	0	0	0	0	0	0	0	0	0	0	0	0	0	0	0	0	0	0	0	0
062118	11:08:17	5.0.12.0	65	associated	Rpleas_acq	Same	Rpleas	Amasked	CS_A	2pleas	cond_new_pleas_123_masked_CS2	condtest_masked_3	8	40	400	1	300	300	0	0	420	46	0	0	0	0	0	1	blank2r.bmp	0	1	+	0	2	B2r.bmp	492	1	blank2r.bmp	786	1	DJMR	786	1	blank2r.bmp	866	2	wind	866	1	!	1227	1	!	1314	0	0	0	0	0	0	0	0	0	0	0	0	0	0	0	0	0	0	0	0	0	0	0	0	0	0	0
062118	11:08:17	5.0.12.0	65	associated	Rpleas_acq	Same	Rpleas	Amasked	CS_A	2pleas	cond_new_unple_123_masked_CS1	condtest_masked_3	8	41	400	1	300	300	0	0	385	50	0	0	0	0	0	1	blank2r.bmp	0	1	+	0	3	B3r.bmp	492	1	blank2r.bmp	786	1	HLST	786	1	blank2r.bmp	866	1	reißen	866	1	!	1227	1	!	1279	0	0	0	0	0	0	0	0	0	0	0	0	0	0	0	0	0	0	0	0	0	0	0	0	0	0	0
062118	11:08:17	5.0.12.0	65	associated	Rpleas_acq	Same	Rpleas	Amasked	CS_A	2pleas	cond_new_pleas_123_masked_CS1	condtest_masked_3	8	42	400	1	300	300	0	0	390	46	0	0	0	0	0	1	blank2r.bmp	0	1	+	0	8	C4r.bmp	492	1	blank2r.bmp	786	1	HLST	786	1	blank2r.bmp	866	3	genie	866	1	!	1227	1	!	1284	0	0	0	0	0	0	0	0	0	0	0	0	0	0	0	0	0	0	0	0	0	0	0	0	0	0	0
062118	11:08:17	5.0.12.0	65	associated	Rpleas_acq	Same	Rpleas	Amasked	CS_A	2pleas	cond_US_pleas_456_masked_CS1	condtest_masked_3	8	43	400	0	300	300	0	0	494	50	0	1	0	0	0	1	blank2r.bmp	0	1	+	0	1	B1r.bmp	492	1	blank2r.bmp	786	1	HLST	786	1	blank2r.bmp	866	3	wein	866	1	!	1227	1	!	-1	0	0	0	0	0	0	0	0	0	0	0	0	0	0	0	0	0	0	0	0	0	0	0	0	0	0	0
062118	11:08:17	5.0.12.0	65	associated	Rpleas_acq	Same	Rpleas	Amasked	CS_A	2pleas	cond_US_pleas_456_masked_CS2	condtest_masked_3	8	44	400	1	300	300	0	0	408	46	0	0	0	0	0	1	blank2r.bmp	0	1	+	0	4	B4r.bmp	492	1	blank2r.bmp	786	1	DJMR	786	1	blank2r.bmp	866	1	mama	866	1	!	1227	1	!	1302	0	0	0	0	0	0	0	0	0	0	0	0	0	0	0	0	0	0	0	0	0	0	0	0	0	0	0
062118	11:08:17	5.0.12.0	65	associated	Rpleas_acq	Same	Rpleas	Amasked	CS_A	2pleas	cond_US_unple_456_masked_CS2	condtest_masked_3	8	45	400	1	300	300	0	0	421	46	0	1	0	0	0	1	blank2r.bmp	0	1	+	0	7	C3r.bmp	492	1	blank2r.bmp	786	1	DJMR	786	1	blank2r.bmp	866	2	gegner	866	1	!	1227	1	!	1315	0	0	0	0	0	0	0	0	0	0	0	0	0	0	0	0	0	0	0	0	0	0	0	0	0	0	0
062118	11:08:17	5.0.12.0	65	associated	Rpleas_acq	Same	Rpleas	Amasked	CS_A	2pleas	cond_US_unple_456_masked_CS2	condtest_masked_3	8	46	400	1	300	300	0	0	386	46	0	1	0	0	0	1	blank2r.bmp	0	1	+	0	2	B2r.bmp	492	1	blank2r.bmp	786	1	DJMR	786	1	blank2r.bmp	866	1	geiz	866	1	!	1227	1	!	1280	0	0	0	0	0	0	0	0	0	0	0	0	0	0	0	0	0	0	0	0	0	0	0	0	0	0	0
062118	11:08:17	5.0.12.0	65	associated	Rpleas_acq	Same	Rpleas	Amasked	CS_A	2pleas	cond_new_pleas_123_masked_CS1	condtest_masked_3	8	47	400	0	300	300	0	0	506	50	0	1	0	0	0	1	blank2r.bmp	0	1	+	0	5	C1r.bmp	492	1	blank2r.bmp	786	1	HLST	786	1	blank2r.bmp	866	1	freude	866	1	!	1227	1	!	-1	0	0	0	0	0	0	0	0	0	0	0	0	0	0	0	0	0	0	0	0	0	0	0	0	0	0	0
062118	11:08:17	5.0.12.0	65	associated	Rpleas_acq	Same	Rpleas	Amasked	CS_A	2pleas	cond_US_pleas_456_masked_CS1	condtest_masked_3	8	48	400	1	300	300	0	0	423	50	0	1	0	0	0	1	blank2r.bmp	0	1	+	0	6	C2r.bmp	492	1	blank2r.bmp	786	1	HLST	786	1	blank2r.bmp	866	2	jugend	866	1	!	1227	1	!	1317	0	0	0	0	0	0	0	0	0	0	0	0	0	0	0	0	0	0	0	0	0	0	0	0	0	0	0
062118	11:08:17	5.0.12.0	65	associated	Rpleas_acq	Same	Rpleas	Amasked	CS_A	2pleas	cond_US_unple_123_masked_CS2	condtest_masked_4	9	1	400	0	300	300	0	0	521	50	0	0	0	0	0	1	blank2r.bmp	0	1	+	0	7	C3r.bmp	492	1	blank2r.bmp	786	1	DJMR	786	1	blank2r.bmp	866	3	narr	866	1	!	1227	1	!	-1	0	0	0	0	0	0	0	0	0	0	0	0	0	0	0	0	0	0	0	0	0	0	0	0	0	0	0
062118	11:08:17	5.0.12.0	65	associated	Rpleas_acq	Same	Rpleas	Amasked	CS_A	2pleas	cond_new_unple_456_masked_CS1	condtest_masked_4	9	2	400	0	300	300	0	0	217	46	0	1	0	0	0	1	blank2r.bmp	0	1	+	0	8	C4r.bmp	492	1	blank2r.bmp	786	1	HLST	786	1	blank2r.bmp	866	2	feind	866	1	!	-1	1	!	-1	0	0	0	0	0	0	0	0	0	0	0	0	0	0	0	0	0	0	0	0	0	0	0	0	0	0	0
062118	11:08:17	5.0.12.0	65	associated	Rpleas_acq	Same	Rpleas	Amasked	CS_A	2pleas	cond_new_pleas_456_masked_CS2	condtest_masked_4	9	3	400	1	300	300	0	0	384	50	0	1	0	0	0	1	blank2r.bmp	0	1	+	0	4	B4r.bmp	492	1	blank2r.bmp	786	1	DJMR	786	1	blank2r.bmp	866	2	reife	866	1	!	1227	1	!	1278	0	0	0	0	0	0	0	0	0	0	0	0	0	0	0	0	0	0	0	0	0	0	0	0	0	0	0
062118	11:08:17	5.0.12.0	65	associated	Rpleas_acq	Same	Rpleas	Amasked	CS_A	2pleas	cond_US_pleas_123_masked_CS1	condtest_masked_4	9	4	400	0	300	300	0	0	472	50	0	1	0	0	0	1	blank2r.bmp	0	1	+	0	2	B2r.bmp	492	1	blank2r.bmp	786	1	HLST	786	1	blank2r.bmp	866	2	meer	866	1	!	1227	1	!	-1	0	0	0	0	0	0	0	0	0	0	0	0	0	0	0	0	0	0	0	0	0	0	0	0	0	0	0
062118	11:08:17	5.0.12.0	65	associated	Rpleas_acq	Same	Rpleas	Amasked	CS_A	2pleas	cond_US_unple_123_masked_CS2	condtest_masked_4	9	5	400	1	300	300	0	0	387	46	0	1	0	0	0	1	blank2r.bmp	0	1	+	0	1	B1r.bmp	492	1	blank2r.bmp	786	1	DJMR	786	1	blank2r.bmp	866	2	zwang	866	1	!	1227	1	!	1280	0	0	0	0	0	0	0	0	0	0	0	0	0	0	0	0	0	0	0	0	0	0	0	0	0	0	0
062118	11:08:17	5.0.12.0	65	associated	Rpleas_acq	Same	Rpleas	Amasked	CS_A	2pleas	cond_US_pleas_123_masked_CS1	condtest_masked_4	9	6	400	0	300	300	0	0	330	46	0	0	0	0	0	1	blank2r.bmp	0	1	+	0	3	B3r.bmp	492	1	blank2r.bmp	786	1	HLST	786	1	blank2r.bmp	866	3	erfinder	866	1	!	-1	1	!	-1	0	0	0	0	0	0	0	0	0	0	0	0	0	0	0	0	0	0	0	0	0	0	0	0	0	0	0
062118	11:08:17	5.0.12.0	65	associated	Rpleas_acq	Same	Rpleas	Amasked	CS_A	2pleas	cond_new_unple_456_masked_CS1	condtest_masked_4	9	7	400	0	300	300	0	0	292	50	0	0	0	0	0	1	blank2r.bmp	0	1	+	0	5	C1r.bmp	492	1	blank2r.bmp	786	1	HLST	786	1	blank2r.bmp	866	1	neid	866	1	!	-1	1	!	-1	0	0	0	0	0	0	0	0	0	0	0	0	0	0	0	0	0	0	0	0	0	0	0	0	0	0	0
062118	11:08:17	5.0.12.0	65	associated	Rpleas_acq	Same	Rpleas	Amasked	CS_A	2pleas	cond_new_pleas_456_masked_CS1	condtest_masked_4	9	8	400	0	300	300	0	0	313	46	0	0	0	0	0	1	blank2r.bmp	0	1	+	0	6	C2r.bmp	492	1	blank2r.bmp	786	1	HLST	786	1	blank2r.bmp	866	1	umarmen	866	1	!	-1	1	!	-1	0	0	0	0	0	0	0	0	0	0	0	0	0	0	0	0	0	0	0	0	0	0	0	0	0	0	0
062118	11:08:17	5.0.12.0	65	associated	Rpleas_acq	Same	Rpleas	Amasked	CS_A	2pleas	cond_new_unple_456_masked_CS2	condtest_masked_4	9	9	400	1	300	300	0	0	385	50	0	0	0	0	0	1	blank2r.bmp	0	1	+	0	1	B1r.bmp	492	1	blank2r.bmp	786	1	DJMR	786	1	blank2r.bmp	866	3	waffe	866	1	!	1227	1	!	1278	0	0	0	0	0	0	0	0	0	0	0	0	0	0	0	0	0	0	0	0	0	0	0	0	0	0	0
062118	11:08:17	5.0.12.0	65	associated	Rpleas_acq	Same	Rpleas	Amasked	CS_A	2pleas	cond_US_unple_123_masked_CS1	condtest_masked_4	9	10	400	1	300	300	0	0	408	50	0	0	0	0	0	1	blank2r.bmp	0	1	+	0	5	C1r.bmp	492	1	blank2r.bmp	786	1	HLST	786	1	blank2r.bmp	866	1	wunde	866	1	!	1227	1	!	1302	0	0	0	0	0	0	0	0	0	0	0	0	0	0	0	0	0	0	0	0	0	0	0	0	0	0	0
062118	11:08:17	5.0.12.0	65	associated	Rpleas_acq	Same	Rpleas	Amasked	CS_A	2pleas	cond_US_unple_123_masked_CS2	condtest_masked_4	9	11	400	0	300	300	0	0	323	46	0	1	0	0	0	1	blank2r.bmp	0	1	+	0	8	C4r.bmp	492	1	blank2r.bmp	786	1	DJMR	786	1	blank2r.bmp	866	3	narr	866	1	!	-1	1	!	-1	0	0	0	0	0	0	0	0	0	0	0	0	0	0	0	0	0	0	0	0	0	0	0	0	0	0	0
062118	11:08:17	5.0.12.0	65	associated	Rpleas_acq	Same	Rpleas	Amasked	CS_A	2pleas	cond_US_unple_123_masked_CS2	condtest_masked_4	9	12	400	1	300	300	0	0	413	46	0	1	0	0	0	1	blank2r.bmp	0	1	+	0	4	B4r.bmp	492	1	blank2r.bmp	786	1	DJMR	786	1	blank2r.bmp	866	1	wunde	866	1	!	1227	1	!	1306	0	0	0	0	0	0	0	0	0	0	0	0	0	0	0	0	0	0	0	0	0	0	0	0	0	0	0
062118	11:08:17	5.0.12.0	65	associated	Rpleas_acq	Same	Rpleas	Amasked	CS_A	2pleas	cond_new_pleas_456_masked_CS1	condtest_masked_4	9	13	400	1	300	300	0	0	394	46	0	0	0	0	0	1	blank2r.bmp	0	1	+	0	7	C3r.bmp	492	1	blank2r.bmp	786	1	HLST	786	1	blank2r.bmp	866	3	genuß	866	1	!	1227	1	!	1287	0	0	0	0	0	0	0	0	0	0	0	0	0	0	0	0	0	0	0	0	0	0	0	0	0	0	0
062118	11:08:17	5.0.12.0	65	associated	Rpleas_acq	Same	Rpleas	Amasked	CS_A	2pleas	cond_new_pleas_456_masked_CS2	condtest_masked_4	9	14	400	1	300	300	0	0	337	46	0	0	0	0	0	1	blank2r.bmp	0	1	+	0	2	B2r.bmp	492	1	blank2r.bmp	786	1	DJMR	786	1	blank2r.bmp	866	3	genuß	866	1	!	1227	1	!	1231	0	0	0	0	0	0	0	0	0	0	0	0	0	0	0	0	0	0	0	0	0	0	0	0	0	0	0
062118	11:08:17	5.0.12.0	65	associated	Rpleas_acq	Same	Rpleas	Amasked	CS_A	2pleas	cond_new_unple_456_masked_CS2	condtest_masked_4	9	15	400	0	300	300	0	0	318	50	0	0	0	0	0	1	blank2r.bmp	0	1	+	0	6	C2r.bmp	492	1	blank2r.bmp	786	1	DJMR	786	1	blank2r.bmp	866	2	feind	866	1	!	-1	1	!	-1	0	0	0	0	0	0	0	0	0	0	0	0	0	0	0	0	0	0	0	0	0	0	0	0	0	0	0
062118	11:08:17	5.0.12.0	65	associated	Rpleas_acq	Same	Rpleas	Amasked	CS_A	2pleas	cond_US_pleas_123_masked_CS1	condtest_masked_4	9	16	400	0	300	300	0	0	472	46	0	0	0	0	0	1	blank2r.bmp	0	1	+	0	3	B3r.bmp	492	1	blank2r.bmp	786	1	HLST	786	1	blank2r.bmp	866	1	frieden	866	1	!	1227	1	!	-1	0	0	0	0	0	0	0	0	0	0	0	0	0	0	0	0	0	0	0	0	0	0	0	0	0	0	0
062118	11:08:17	5.0.12.0	65	associated	Rpleas_acq	Same	Rpleas	Amasked	CS_A	2pleas	cond_new_pleas_456_masked_CS1	condtest_masked_4	9	17	400	0	300	300	0	0	627	50	0	1	0	0	0	1	blank2r.bmp	0	1	+	0	2	B2r.bmp	492	1	blank2r.bmp	786	1	HLST	786	1	blank2r.bmp	866	1	umarmen	866	1	!	1227	1	!	-1	0	0	0	0	0	0	0	0	0	0	0	0	0	0	0	0	0	0	0	0	0	0	0	0	0	0	0
062118	11:08:17	5.0.12.0	65	associated	Rpleas_acq	Same	Rpleas	Amasked	CS_A	2pleas	cond_new_pleas_456_masked_CS2	condtest_masked_4	9	18	400	0	300	300	0	0	601	50	0	1	0	0	0	1	blank2r.bmp	0	1	+	0	1	B1r.bmp	492	1	blank2r.bmp	786	1	DJMR	786	1	blank2r.bmp	866	2	reife	866	1	!	1227	1	!	-1	0	0	0	0	0	0	0	0	0	0	0	0	0	0	0	0	0	0	0	0	0	0	0	0	0	0	0
062118	11:08:17	5.0.12.0	65	associated	Rpleas_acq	Same	Rpleas	Amasked	CS_A	2pleas	cond_new_pleas_456_masked_CS2	condtest_masked_4	9	19	400	1	300	300	0	0	460	50	0	1	0	0	0	1	blank2r.bmp	0	1	+	0	7	C3r.bmp	492	1	blank2r.bmp	786	1	DJMR	786	1	blank2r.bmp	866	1	umarmen	866	1	!	1227	1	!	1353	0	0	0	0	0	0	0	0	0	0	0	0	0	0	0	0	0	0	0	0	0	0	0	0	0	0	0
062118	11:08:17	5.0.12.0	65	associated	Rpleas_acq	Same	Rpleas	Amasked	CS_A	2pleas	cond_new_pleas_456_masked_CS2	condtest_masked_4	9	20	400	1	300	300	0	0	388	46	0	0	0	0	0	1	blank2r.bmp	0	1	+	0	4	B4r.bmp	492	1	blank2r.bmp	786	1	DJMR	786	1	blank2r.bmp	866	2	reife	866	1	!	1227	1	!	1281	0	0	0	0	0	0	0	0	0	0	0	0	0	0	0	0	0	0	0	0	0	0	0	0	0	0	0
062118	11:08:17	5.0.12.0	65	associated	Rpleas_acq	Same	Rpleas	Amasked	CS_A	2pleas	cond_US_pleas_123_masked_CS2	condtest_masked_4	9	21	400	0	300	300	0	0	603	46	0	0	0	0	0	1	blank2r.bmp	0	1	+	0	5	C1r.bmp	492	1	blank2r.bmp	786	1	DJMR	786	1	blank2r.bmp	866	2	meer	866	1	!	1227	1	!	-1	0	0	0	0	0	0	0	0	0	0	0	0	0	0	0	0	0	0	0	0	0	0	0	0	0	0	0
062118	11:08:17	5.0.12.0	65	associated	Rpleas_acq	Same	Rpleas	Amasked	CS_A	2pleas	cond_US_pleas_123_masked_CS2	condtest_masked_4	9	22	400	0	300	300	0	0	591	50	0	1	0	0	0	1	blank2r.bmp	0	1	+	0	8	C4r.bmp	492	1	blank2r.bmp	786	1	DJMR	786	1	blank2r.bmp	866	3	erfinder	866	1	!	1227	1	!	-1	0	0	0	0	0	0	0	0	0	0	0	0	0	0	0	0	0	0	0	0	0	0	0	0	0	0	0
062118	11:08:17	5.0.12.0	65	associated	Rpleas_acq	Same	Rpleas	Amasked	CS_A	2pleas	cond_US_unple_123_masked_CS1	condtest_masked_4	9	23	400	0	300	300	0	0	479	46	0	1	0	0	0	1	blank2r.bmp	0	1	+	0	3	B3r.bmp	492	1	blank2r.bmp	786	1	HLST	786	1	blank2r.bmp	866	2	zwang	866	1	!	1227	1	!	-1	0	0	0	0	0	0	0	0	0	0	0	0	0	0	0	0	0	0	0	0	0	0	0	0	0	0	0
062118	11:08:17	5.0.12.0	65	associated	Rpleas_acq	Same	Rpleas	Amasked	CS_A	2pleas	cond_new_unple_456_masked_CS1	condtest_masked_4	9	24	400	1	300	300	0	0	359	50	0	0	0	0	0	1	blank2r.bmp	0	1	+	0	6	C2r.bmp	492	1	blank2r.bmp	786	1	HLST	786	1	blank2r.bmp	866	1	neid	866	1	!	1227	1	!	1252	0	0	0	0	0	0	0	0	0	0	0	0	0	0	0	0	0	0	0	0	0	0	0	0	0	0	0
062118	11:08:17	5.0.12.0	65	associated	Rpleas_acq	Same	Rpleas	Amasked	CS_A	2pleas	cond_US_pleas_123_masked_CS2	condtest_masked_4	9	25	400	1	300	300	0	0	457	46	0	0	0	0	0	1	blank2r.bmp	0	1	+	0	6	C2r.bmp	492	1	blank2r.bmp	786	1	DJMR	786	1	blank2r.bmp	866	1	frieden	866	1	!	1227	1	!	1351	0	0	0	0	0	0	0	0	0	0	0	0	0	0	0	0	0	0	0	0	0	0	0	0	0	0	0
062118	11:08:17	5.0.12.0	65	associated	Rpleas_acq	Same	Rpleas	Amasked	CS_A	2pleas	cond_US_pleas_123_masked_CS1	condtest_masked_4	9	26	400	0	300	300	0	0	558	50	0	1	0	0	0	1	blank2r.bmp	0	1	+	0	2	B2r.bmp	492	1	blank2r.bmp	786	1	HLST	786	1	blank2r.bmp	866	3	erfinder	866	1	!	1227	1	!	-1	0	0	0	0	0	0	0	0	0	0	0	0	0	0	0	0	0	0	0	0	0	0	0	0	0	0	0
062118	11:08:17	5.0.12.0	65	associated	Rpleas_acq	Same	Rpleas	Amasked	CS_A	2pleas	cond_US_unple_123_masked_CS1	condtest_masked_4	9	27	400	0	300	300	0	0	585	46	0	1	0	0	0	1	blank2r.bmp	0	1	+	0	5	C1r.bmp	492	1	blank2r.bmp	786	1	HLST	786	1	blank2r.bmp	866	1	wunde	866	1	!	1227	1	!	-1	0	0	0	0	0	0	0	0	0	0	0	0	0	0	0	0	0	0	0	0	0	0	0	0	0	0	0
062118	11:08:17	5.0.12.0	65	associated	Rpleas_acq	Same	Rpleas	Amasked	CS_A	2pleas	cond_US_unple_123_masked_CS1	condtest_masked_4	9	28	400	1	300	300	0	0	378	46	0	1	0	0	0	1	blank2r.bmp	0	1	+	0	3	B3r.bmp	492	1	blank2r.bmp	786	1	HLST	786	1	blank2r.bmp	866	3	narr	866	1	!	1227	1	!	1271	0	0	0	0	0	0	0	0	0	0	0	0	0	0	0	0	0	0	0	0	0	0	0	0	0	0	0
062118	11:08:17	5.0.12.0	65	associated	Rpleas_acq	Same	Rpleas	Amasked	CS_A	2pleas	cond_new_unple_456_masked_CS2	condtest_masked_4	9	29	400	0	300	300	0	0	766	46	0	1	0	0	0	1	blank2r.bmp	0	1	+	0	1	B1r.bmp	492	1	blank2r.bmp	786	1	DJMR	786	1	blank2r.bmp	866	3	waffe	866	1	!	1227	1	!	-1	0	0	0	0	0	0	0	0	0	0	0	0	0	0	0	0	0	0	0	0	0	0	0	0	0	0	0
062118	11:08:17	5.0.12.0	65	associated	Rpleas_acq	Same	Rpleas	Amasked	CS_A	2pleas	cond_US_unple_123_masked_CS1	condtest_masked_4	9	30	400	1	300	300	0	0	386	46	0	1	0	0	0	1	blank2r.bmp	0	1	+	0	4	B4r.bmp	492	1	blank2r.bmp	786	1	HLST	786	1	blank2r.bmp	866	2	zwang	866	1	!	1227	1	!	1280	0	0	0	0	0	0	0	0	0	0	0	0	0	0	0	0	0	0	0	0	0	0	0	0	0	0	0
062118	11:08:17	5.0.12.0	65	associated	Rpleas_acq	Same	Rpleas	Amasked	CS_A	2pleas	cond_US_pleas_123_masked_CS1	condtest_masked_4	9	31	400	1	300	300	0	0	458	50	0	1	0	0	0	1	blank2r.bmp	0	1	+	0	7	C3r.bmp	492	1	blank2r.bmp	786	1	HLST	786	1	blank2r.bmp	866	1	frieden	866	1	!	1227	1	!	1351	0	0	0	0	0	0	0	0	0	0	0	0	0	0	0	0	0	0	0	0	0	0	0	0	0	0	0
062118	11:08:17	5.0.12.0	65	associated	Rpleas_acq	Same	Rpleas	Amasked	CS_A	2pleas	cond_new_unple_456_masked_CS2	condtest_masked_4	9	32	400	1	300	300	0	0	447	46	0	1	0	0	0	1	blank2r.bmp	0	1	+	0	8	C4r.bmp	492	1	blank2r.bmp	786	1	DJMR	786	1	blank2r.bmp	866	1	neid	866	1	!	1227	1	!	1341	0	0	0	0	0	0	0	0	0	0	0	0	0	0	0	0	0	0	0	0	0	0	0	0	0	0	0
062118	11:08:17	5.0.12.0	65	associated	Rpleas_acq	Same	Rpleas	Amasked	CS_A	2pleas	cond_new_pleas_456_masked_CS2	condtest_masked_4	9	33	400	1	300	300	0	0	388	46	0	0	0	0	0	1	blank2r.bmp	0	1	+	0	6	C2r.bmp	492	1	blank2r.bmp	786	1	DJMR	786	1	blank2r.bmp	866	3	genuß	866	1	!	1227	1	!	1282	0	0	0	0	0	0	0	0	0	0	0	0	0	0	0	0	0	0	0	0	0	0	0	0	0	0	0
062118	11:08:17	5.0.12.0	65	associated	Rpleas_acq	Same	Rpleas	Amasked	CS_A	2pleas	cond_US_pleas_123_masked_CS2	condtest_masked_4	9	34	400	0	300	300	0	0	492	50	0	1	0	0	0	1	blank2r.bmp	0	1	+	0	2	B2r.bmp	492	1	blank2r.bmp	786	1	DJMR	786	1	blank2r.bmp	866	2	meer	866	1	!	1227	1	!	-1	0	0	0	0	0	0	0	0	0	0	0	0	0	0	0	0	0	0	0	0	0	0	0	0	0	0	0
062118	11:08:17	5.0.12.0	65	associated	Rpleas_acq	Same	Rpleas	Amasked	CS_A	2pleas	cond_US_pleas_123_masked_CS2	condtest_masked_4	9	35	400	0	300	300	0	0	489	46	0	0	0	0	0	1	blank2r.bmp	0	1	+	0	3	B3r.bmp	492	1	blank2r.bmp	786	1	DJMR	786	1	blank2r.bmp	866	3	erfinder	866	1	!	1227	1	!	-1	0	0	0	0	0	0	0	0	0	0	0	0	0	0	0	0	0	0	0	0	0	0	0	0	0	0	0
062118	11:08:17	5.0.12.0	65	associated	Rpleas_acq	Same	Rpleas	Amasked	CS_A	2pleas	cond_US_pleas_123_masked_CS1	condtest_masked_4	9	36	400	1	300	300	0	0	436	50	0	1	0	0	0	1	blank2r.bmp	0	1	+	0	7	C3r.bmp	492	1	blank2r.bmp	786	1	HLST	786	1	blank2r.bmp	866	2	meer	866	1	!	1227	1	!	1330	0	0	0	0	0	0	0	0	0	0	0	0	0	0	0	0	0	0	0	0	0	0	0	0	0	0	0
062118	11:08:17	5.0.12.0	65	associated	Rpleas_acq	Same	Rpleas	Amasked	CS_A	2pleas	cond_US_unple_123_masked_CS1	condtest_masked_4	9	37	400	1	300	300	0	0	452	50	0	0	0	0	0	1	blank2r.bmp	0	1	+	0	8	C4r.bmp	492	1	blank2r.bmp	786	1	HLST	786	1	blank2r.bmp	866	1	wunde	866	1	!	1227	1	!	1345	0	0	0	0	0	0	0	0	0	0	0	0	0	0	0	0	0	0	0	0	0	0	0	0	0	0	0
062118	11:08:17	5.0.12.0	65	associated	Rpleas_acq	Same	Rpleas	Amasked	CS_A	2pleas	cond_new_pleas_456_masked_CS1	condtest_masked_4	9	38	400	1	300	300	0	0	409	46	0	0	0	0	0	1	blank2r.bmp	0	1	+	0	4	B4r.bmp	492	1	blank2r.bmp	786	1	HLST	786	1	blank2r.bmp	866	3	genuß	866	1	!	1227	1	!	1303	0	0	0	0	0	0	0	0	0	0	0	0	0	0	0	0	0	0	0	0	0	0	0	0	0	0	0
062118	11:08:17	5.0.12.0	65	associated	Rpleas_acq	Same	Rpleas	Amasked	CS_A	2pleas	cond_new_unple_456_masked_CS1	condtest_masked_4	9	39	400	0	300	300	0	0	931	46	0	1	0	0	0	1	blank2r.bmp	0	1	+	0	1	B1r.bmp	492	1	blank2r.bmp	786	1	HLST	786	1	blank2r.bmp	866	2	feind	866	1	!	1227	1	!	-1	0	0	0	0	0	0	0	0	0	0	0	0	0	0	0	0	0	0	0	0	0	0	0	0	0	0	0
062118	11:08:17	5.0.12.0	65	associated	Rpleas_acq	Same	Rpleas	Amasked	CS_A	2pleas	cond_US_unple_123_masked_CS2	condtest_masked_4	9	40	400	0	300	300	0	0	312	50	0	0	0	0	0	1	blank2r.bmp	0	1	+	0	5	C1r.bmp	492	1	blank2r.bmp	786	1	DJMR	786	1	blank2r.bmp	866	2	zwang	866	1	!	-1	1	!	-1	0	0	0	0	0	0	0	0	0	0	0	0	0	0	0	0	0	0	0	0	0	0	0	0	0	0	0
062118	11:08:17	5.0.12.0	65	associated	Rpleas_acq	Same	Rpleas	Amasked	CS_A	2pleas	cond_new_unple_456_masked_CS1	condtest_masked_4	9	41	400	1	300	300	0	0	354	50	0	0	0	0	0	1	blank2r.bmp	0	1	+	0	4	B4r.bmp	492	1	blank2r.bmp	786	1	HLST	786	1	blank2r.bmp	866	3	waffe	866	1	!	1227	1	!	1248	0	0	0	0	0	0	0	0	0	0	0	0	0	0	0	0	0	0	0	0	0	0	0	0	0	0	0
062118	11:08:17	5.0.12.0	65	associated	Rpleas_acq	Same	Rpleas	Amasked	CS_A	2pleas	cond_new_pleas_456_masked_CS1	condtest_masked_4	9	42	400	1	300	300	0	0	401	50	0	1	0	0	0	1	blank2r.bmp	0	1	+	0	3	B3r.bmp	492	1	blank2r.bmp	786	1	HLST	786	1	blank2r.bmp	866	1	umarmen	866	1	!	1227	1	!	1295	0	0	0	0	0	0	0	0	0	0	0	0	0	0	0	0	0	0	0	0	0	0	0	0	0	0	0
062118	11:08:17	5.0.12.0	65	associated	Rpleas_acq	Same	Rpleas	Amasked	CS_A	2pleas	cond_US_unple_123_masked_CS2	condtest_masked_4	9	43	400	1	300	300	0	0	393	50	0	0	0	0	0	1	blank2r.bmp	0	1	+	0	1	B1r.bmp	492	1	blank2r.bmp	786	1	DJMR	786	1	blank2r.bmp	866	3	narr	866	1	!	1227	1	!	1286	0	0	0	0	0	0	0	0	0	0	0	0	0	0	0	0	0	0	0	0	0	0	0	0	0	0	0
062118	11:08:17	5.0.12.0	65	associated	Rpleas_acq	Same	Rpleas	Amasked	CS_A	2pleas	cond_new_pleas_456_masked_CS1	condtest_masked_4	9	44	400	0	300	300	0	0	560	46	0	0	0	0	0	1	blank2r.bmp	0	1	+	0	5	C1r.bmp	492	1	blank2r.bmp	786	1	HLST	786	1	blank2r.bmp	866	2	reife	866	1	!	1227	1	!	-1	0	0	0	0	0	0	0	0	0	0	0	0	0	0	0	0	0	0	0	0	0	0	0	0	0	0	0
062118	11:08:17	5.0.12.0	65	associated	Rpleas_acq	Same	Rpleas	Amasked	CS_A	2pleas	cond_US_pleas_123_masked_CS2	condtest_masked_4	9	45	400	0	300	300	0	0	491	50	0	1	0	0	0	1	blank2r.bmp	0	1	+	0	8	C4r.bmp	492	1	blank2r.bmp	786	1	DJMR	786	1	blank2r.bmp	866	1	frieden	866	1	!	1227	1	!	-1	0	0	0	0	0	0	0	0	0	0	0	0	0	0	0	0	0	0	0	0	0	0	0	0	0	0	0
062118	11:08:17	5.0.12.0	65	associated	Rpleas_acq	Same	Rpleas	Amasked	CS_A	2pleas	cond_new_unple_456_masked_CS2	condtest_masked_4	9	46	400	1	300	300	0	0	438	50	0	0	0	0	0	1	blank2r.bmp	0	1	+	0	6	C2r.bmp	492	1	blank2r.bmp	786	1	DJMR	786	1	blank2r.bmp	866	2	feind	866	1	!	1227	1	!	1332	0	0	0	0	0	0	0	0	0	0	0	0	0	0	0	0	0	0	0	0	0	0	0	0	0	0	0
062118	11:08:17	5.0.12.0	65	associated	Rpleas_acq	Same	Rpleas	Amasked	CS_A	2pleas	cond_new_unple_456_masked_CS2	condtest_masked_4	9	47	400	1	300	300	0	0	425	46	0	1	0	0	0	1	blank2r.bmp	0	1	+	0	2	B2r.bmp	492	1	blank2r.bmp	786	1	DJMR	786	1	blank2r.bmp	866	3	waffe	866	1	!	1227	1	!	1318	0	0	0	0	0	0	0	0	0	0	0	0	0	0	0	0	0	0	0	0	0	0	0	0	0	0	0
062118	11:08:17	5.0.12.0	65	associated	Rpleas_acq	Same	Rpleas	Amasked	CS_A	2pleas	cond_new_unple_456_masked_CS1	condtest_masked_4	9	48	400	0	300	300	0	0	518	50	0	0	0	0	0	1	blank2r.bmp	0	1	+	0	7	C3r.bmp	492	1	blank2r.bmp	786	1	HLST	786	1	blank2r.bmp	866	1	neid	866	1	!	1227	1	!	-1	0	0	0	0	0	0	0	0	0	0	0	0	0	0	0	0	0	0	0	0	0	0	0	0	0	0	0
062118	11:08:17	5.0.12.0	65	associated	Rpleas_acq	Same	Rpleas	Amasked	CS_A	2pleas	cond_new_unple_123_masked_CS1	condtest_masked_5	10	1	400	0	300	300	0	0	552	50	0	0	0	0	0	1	blank2r.bmp	0	1	+	0	3	B3r.bmp	492	1	blank2r.bmp	786	1	HLST	786	1	blank2r.bmp	866	1	reißen	866	1	!	1227	1	!	-1	0	0	0	0	0	0	0	0	0	0	0	0	0	0	0	0	0	0	0	0	0	0	0	0	0	0	0
062118	11:08:17	5.0.12.0	65	associated	Rpleas_acq	Same	Rpleas	Amasked	CS_A	2pleas	cond_new_unple_123_masked_CS2	condtest_masked_5	10	2	400	0	300	300	0	0	515	50	0	0	0	0	0	1	blank2r.bmp	0	1	+	0	7	C3r.bmp	492	1	blank2r.bmp	786	1	DJMR	786	1	blank2r.bmp	866	2	einengen	866	1	!	1227	1	!	-1	0	0	0	0	0	0	0	0	0	0	0	0	0	0	0	0	0	0	0	0	0	0	0	0	0	0	0
062118	11:08:17	5.0.12.0	65	associated	Rpleas_acq	Same	Rpleas	Amasked	CS_A	2pleas	cond_new_unple_123_masked_CS2	condtest_masked_5	10	3	400	1	300	300	0	0	436	46	0	1	0	0	0	1	blank2r.bmp	0	1	+	0	8	C4r.bmp	492	1	blank2r.bmp	786	1	DJMR	786	1	blank2r.bmp	866	3	dumm	866	1	!	1227	1	!	1329	0	0	0	0	0	0	0	0	0	0	0	0	0	0	0	0	0	0	0	0	0	0	0	0	0	0	0
062118	11:08:17	5.0.12.0	65	associated	Rpleas_acq	Same	Rpleas	Amasked	CS_A	2pleas	cond_US_unple_456_masked_CS1	condtest_masked_5	10	4	400	1	300	300	0	0	390	46	0	1	0	0	0	1	blank2r.bmp	0	1	+	0	4	B4r.bmp	492	1	blank2r.bmp	786	1	HLST	786	1	blank2r.bmp	866	1	geiz	866	1	!	1227	1	!	1284	0	0	0	0	0	0	0	0	0	0	0	0	0	0	0	0	0	0	0	0	0	0	0	0	0	0	0
062118	11:08:17	5.0.12.0	65	associated	Rpleas_acq	Same	Rpleas	Amasked	CS_A	2pleas	cond_US_pleas_456_masked_CS2	condtest_masked_5	10	5	400	1	300	300	0	0	350	46	0	0	0	0	0	1	blank2r.bmp	0	1	+	0	6	C2r.bmp	492	1	blank2r.bmp	786	1	DJMR	786	1	blank2r.bmp	866	2	jugend	866	1	!	1227	1	!	1243	0	0	0	0	0	0	0	0	0	0	0	0	0	0	0	0	0	0	0	0	0	0	0	0	0	0	0
062118	11:08:17	5.0.12.0	65	associated	Rpleas_acq	Same	Rpleas	Amasked	CS_A	2pleas	cond_US_pleas_456_masked_CS1	condtest_masked_5	10	6	400	0	300	300	0	0	589	50	0	1	0	0	0	1	blank2r.bmp	0	1	+	0	1	B1r.bmp	492	1	blank2r.bmp	786	1	HLST	786	1	blank2r.bmp	866	3	wein	866	1	!	1227	1	!	-1	0	0	0	0	0	0	0	0	0	0	0	0	0	0	0	0	0	0	0	0	0	0	0	0	0	0	0
062118	11:08:17	5.0.12.0	65	associated	Rpleas_acq	Same	Rpleas	Amasked	CS_A	2pleas	cond_new_pleas_123_masked_CS1	condtest_masked_5	10	7	400	1	300	300	0	0	443	46	0	0	0	0	0	1	blank2r.bmp	0	1	+	0	2	B2r.bmp	492	1	blank2r.bmp	786	1	HLST	786	1	blank2r.bmp	866	1	freude	866	1	!	1227	1	!	1336	0	0	0	0	0	0	0	0	0	0	0	0	0	0	0	0	0	0	0	0	0	0	0	0	0	0	0
062118	11:08:17	5.0.12.0	65	associated	Rpleas_acq	Same	Rpleas	Amasked	CS_A	2pleas	cond_US_pleas_456_masked_CS2	condtest_masked_5	10	8	400	1	300	300	0	0	365	50	0	1	0	0	0	1	blank2r.bmp	0	1	+	0	5	C1r.bmp	492	1	blank2r.bmp	786	1	DJMR	786	1	blank2r.bmp	866	1	mama	866	1	!	1227	1	!	1259	0	0	0	0	0	0	0	0	0	0	0	0	0	0	0	0	0	0	0	0	0	0	0	0	0	0	0
062118	11:08:17	5.0.12.0	65	associated	Rpleas_acq	Same	Rpleas	Amasked	CS_A	2pleas	cond_new_unple_123_masked_CS2	condtest_masked_5	10	9	400	0	300	300	0	0	496	46	0	1	0	0	0	1	blank2r.bmp	0	1	+	0	7	C3r.bmp	492	1	blank2r.bmp	786	1	DJMR	786	1	blank2r.bmp	866	1	reißen	866	1	!	1227	1	!	-1	0	0	0	0	0	0	0	0	0	0	0	0	0	0	0	0	0	0	0	0	0	0	0	0	0	0	0
062118	11:08:17	5.0.12.0	65	associated	Rpleas_acq	Same	Rpleas	Amasked	CS_A	2pleas	cond_new_unple_123_masked_CS1	condtest_masked_5	10	10	400	0	300	300	0	0	509	46	0	1	0	0	0	1	blank2r.bmp	0	1	+	0	5	C1r.bmp	492	1	blank2r.bmp	786	1	HLST	786	1	blank2r.bmp	866	3	dumm	866	1	!	1227	1	!	-1	0	0	0	0	0	0	0	0	0	0	0	0	0	0	0	0	0	0	0	0	0	0	0	0	0	0	0
062118	11:08:17	5.0.12.0	65	associated	Rpleas_acq	Same	Rpleas	Amasked	CS_A	2pleas	cond_new_pleas_123_masked_CS2	condtest_masked_5	10	11	400	0	300	300	0	0	653	50	0	1	0	0	0	1	blank2r.bmp	0	1	+	0	8	C4r.bmp	492	1	blank2r.bmp	786	1	DJMR	786	1	blank2r.bmp	866	2	wind	866	1	!	1227	1	!	-1	0	0	0	0	0	0	0	0	0	0	0	0	0	0	0	0	0	0	0	0	0	0	0	0	0	0	0
062118	11:08:17	5.0.12.0	65	associated	Rpleas_acq	Same	Rpleas	Amasked	CS_A	2pleas	cond_new_unple_123_masked_CS1	condtest_masked_5	10	12	400	0	300	300	0	0	619	46	0	1	0	0	0	1	blank2r.bmp	0	1	+	0	4	B4r.bmp	492	1	blank2r.bmp	786	1	HLST	786	1	blank2r.bmp	866	2	einengen	866	1	!	1227	1	!	-1	0	0	0	0	0	0	0	0	0	0	0	0	0	0	0	0	0	0	0	0	0	0	0	0	0	0	0
062118	11:08:17	5.0.12.0	65	associated	Rpleas_acq	Same	Rpleas	Amasked	CS_A	2pleas	cond_US_unple_456_masked_CS2	condtest_masked_5	10	13	400	0	300	300	0	0	689	46	0	1	0	0	0	1	blank2r.bmp	0	1	+	0	3	B3r.bmp	492	1	blank2r.bmp	786	1	DJMR	786	1	blank2r.bmp	866	3	armee	866	1	!	1227	1	!	-1	0	0	0	0	0	0	0	0	0	0	0	0	0	0	0	0	0	0	0	0	0	0	0	0	0	0	0
