date	time	build	subject	expressions.associated	expressions.LRpleas_acq	expressions.SameOppo	expressions.condition_Lpleas	expressions.ABmasked	expressions.conditionCS_A	expressions.condition_1pleas	trialcode	blockcode	blocknum	trialnum	windowcenter	inwindow	pretrialpause	posttrialpause	trialduration	trialtimeout	latency	response	expressions.correctedscore	correct	values.vis_performance	values.vis_rating_sum	values.vis_rating_mean	stimulusnumber1	stimulusitem1	stimulusonset1	stimulusnumber2	stimulusitem2	stimulusonset2	stimulusnumber3	stimulusitem3	stimulusonset3	stimulusnumber4	stimulusitem4	stimulusonset4	stimulusnumber5	stimulusitem5	stimulusonset5	stimulusnumber6	stimulusitem6	stimulusonset6	stimulusnumber7	stimulusitem7	stimulusonset7	stimulusnumber8	stimulusitem8	stimulusonset8	stimulusnumber9	stimulusitem9	stimulusonset9	stimulusnumber10	stimulusitem10	stimulusonset10	stimulusnumber11	stimulusitem11	stimulusonset11	stimulusnumber12	stimulusitem12	stimulusonset12	stimulusnumber13	stimulusitem13	stimulusonset13	stimulusnumber14	stimulusitem14	stimulusonset14	stimulusnumber15	stimulusitem15	stimulusonset15	stimulusnumber16	stimulusitem16	stimulusonset16	stimulusnumber17	stimulusitem17	stimulusonset17	stimulusnumber18	stimulusitem18	stimulusonset18
062518	14:01:03	5.0.12.0	92	associated	Rpleas_acq	Same	Rpleas	Bmasked	CS_B	2pleas	acq_pleas_masked	acq1_masked	1	1	0	0	300	300	0	0	1115	50	0	1	0	0	0	1	blank2r.bmp	0	1	+	0	2	B2r.bmp	492	1	blank2r.bmp	786	1	GFVZ	786	1	blank2r.bmp	866	4	liebe	866	0	0	0	0	0	0	0	0	0	0	0	0	0	0	0	0	0	0	0	0	0	0	0	0	0	0	0	0	0	0	0	0	0
062518	14:01:03	5.0.12.0	92	associated	Rpleas_acq	Same	Rpleas	Bmasked	CS_B	2pleas	acq_unple_masked	acq1_masked	1	2	0	0	300	300	0	0	924	46	0	1	0	0	0	1	blank2r.bmp	0	1	+	0	7	C3r.bmp	492	1	blank2r.bmp	786	1	BXCP	786	1	blank2r.bmp	866	4	übel	866	0	0	0	0	0	0	0	0	0	0	0	0	0	0	0	0	0	0	0	0	0	0	0	0	0	0	0	0	0	0	0	0	0
062518	14:01:03	5.0.12.0	92	associated	Rpleas_acq	Same	Rpleas	Bmasked	CS_B	2pleas	acq_unple_masked	acq1_masked	1	3	0	0	300	300	0	0	615	46	0	1	0	0	0	1	blank2r.bmp	0	1	+	0	5	C1r.bmp	492	1	blank2r.bmp	786	1	BXCP	786	1	blank2r.bmp	866	6	toxisch	866	0	0	0	0	0	0	0	0	0	0	0	0	0	0	0	0	0	0	0	0	0	0	0	0	0	0	0	0	0	0	0	0	0
062518	14:01:03	5.0.12.0	92	associated	Rpleas_acq	Same	Rpleas	Bmasked	CS_B	2pleas	acq_pleas_masked	acq1_masked	1	4	0	0	300	300	0	0	881	50	0	1	0	0	0	1	blank2r.bmp	0	1	+	0	3	B3r.bmp	492	1	blank2r.bmp	786	1	GFVZ	786	1	blank2r.bmp	866	3	bett	866	0	0	0	0	0	0	0	0	0	0	0	0	0	0	0	0	0	0	0	0	0	0	0	0	0	0	0	0	0	0	0	0	0
062518	14:01:03	5.0.12.0	92	associated	Rpleas_acq	Same	Rpleas	Bmasked	CS_B	2pleas	acq_unple_masked	acq1_masked	1	5	0	0	300	300	0	0	658	46	0	1	0	0	0	1	blank2r.bmp	0	1	+	0	4	B4r.bmp	492	1	blank2r.bmp	786	1	BXCP	786	1	blank2r.bmp	866	3	pest	866	0	0	0	0	0	0	0	0	0	0	0	0	0	0	0	0	0	0	0	0	0	0	0	0	0	0	0	0	0	0	0	0	0
062518	14:01:03	5.0.12.0	92	associated	Rpleas_acq	Same	Rpleas	Bmasked	CS_B	2pleas	acq_unple_masked	acq1_masked	1	6	0	0	300	300	0	0	692	46	0	1	0	0	0	1	blank2r.bmp	0	1	+	0	6	C2r.bmp	492	1	blank2r.bmp	786	1	BXCP	786	1	blank2r.bmp	866	2	pleite	866	0	0	0	0	0	0	0	0	0	0	0	0	0	0	0	0	0	0	0	0	0	0	0	0	0	0	0	0	0	0	0	0	0
062518	14:01:03	5.0.12.0	92	associated	Rpleas_acq	Same	Rpleas	Bmasked	CS_B	2pleas	acq_pleas_masked	acq1_masked	1	7	0	0	300	300	0	0	702	50	0	1	0	0	0	1	blank2r.bmp	0	1	+	0	1	B1r.bmp	492	1	blank2r.bmp	786	1	GFVZ	786	1	blank2r.bmp	866	6	sonne	866	0	0	0	0	0	0	0	0	0	0	0	0	0	0	0	0	0	0	0	0	0	0	0	0	0	0	0	0	0	0	0	0	0
062518	14:01:03	5.0.12.0	92	associated	Rpleas_acq	Same	Rpleas	Bmasked	CS_B	2pleas	acq_pleas_masked	acq1_masked	1	8	0	0	300	300	0	0	841	50	0	1	0	0	0	1	blank2r.bmp	0	1	+	0	8	C4r.bmp	492	1	blank2r.bmp	786	1	GFVZ	786	1	blank2r.bmp	866	1	knospe	866	0	0	0	0	0	0	0	0	0	0	0	0	0	0	0	0	0	0	0	0	0	0	0	0	0	0	0	0	0	0	0	0	0
062518	14:01:03	5.0.12.0	92	associated	Rpleas_acq	Same	Rpleas	Bmasked	CS_B	2pleas	acq_pleas_masked	acq1_masked	1	9	0	0	300	300	0	0	545	50	0	1	0	0	0	1	blank2r.bmp	0	1	+	0	1	B1r.bmp	492	1	blank2r.bmp	786	1	GFVZ	786	1	blank2r.bmp	866	5	lippe	866	0	0	0	0	0	0	0	0	0	0	0	0	0	0	0	0	0	0	0	0	0	0	0	0	0	0	0	0	0	0	0	0	0
062518	14:01:03	5.0.12.0	92	associated	Rpleas_acq	Same	Rpleas	Bmasked	CS_B	2pleas	acq_pleas_masked	acq1_masked	1	10	0	0	300	300	0	0	670	50	0	1	0	0	0	1	blank2r.bmp	0	1	+	0	5	C1r.bmp	492	1	blank2r.bmp	786	1	GFVZ	786	1	blank2r.bmp	866	2	leben	866	0	0	0	0	0	0	0	0	0	0	0	0	0	0	0	0	0	0	0	0	0	0	0	0	0	0	0	0	0	0	0	0	0
062518	14:01:03	5.0.12.0	92	associated	Rpleas_acq	Same	Rpleas	Bmasked	CS_B	2pleas	acq_unple_masked	acq1_masked	1	11	0	0	300	300	0	0	674	46	0	1	0	0	0	1	blank2r.bmp	0	1	+	0	6	C2r.bmp	492	1	blank2r.bmp	786	1	BXCP	786	1	blank2r.bmp	866	1	pistole	866	0	0	0	0	0	0	0	0	0	0	0	0	0	0	0	0	0	0	0	0	0	0	0	0	0	0	0	0	0	0	0	0	0
062518	14:01:03	5.0.12.0	92	associated	Rpleas_acq	Same	Rpleas	Bmasked	CS_B	2pleas	acq_unple_masked	acq1_masked	1	12	0	0	300	300	0	0	746	46	0	1	0	0	0	1	blank2r.bmp	0	1	+	0	2	B2r.bmp	492	1	blank2r.bmp	786	1	BXCP	786	1	blank2r.bmp	866	5	leiche	866	0	0	0	0	0	0	0	0	0	0	0	0	0	0	0	0	0	0	0	0	0	0	0	0	0	0	0	0	0	0	0	0	0
062518	14:01:03	5.0.12.0	92	associated	Rpleas_acq	Same	Rpleas	Bmasked	CS_B	2pleas	acq_unple_masked	acq1_masked	1	13	0	0	300	300	0	0	589	46	0	1	0	0	0	1	blank2r.bmp	0	1	+	0	3	B3r.bmp	492	1	blank2r.bmp	786	1	BXCP	786	1	blank2r.bmp	866	3	pest	866	0	0	0	0	0	0	0	0	0	0	0	0	0	0	0	0	0	0	0	0	0	0	0	0	0	0	0	0	0	0	0	0	0
062518	14:01:03	5.0.12.0	92	associated	Rpleas_acq	Same	Rpleas	Bmasked	CS_B	2pleas	acq_pleas_masked	acq1_masked	1	14	0	0	300	300	0	0	513	50	0	1	0	0	0	1	blank2r.bmp	0	1	+	0	7	C3r.bmp	492	1	blank2r.bmp	786	1	GFVZ	786	1	blank2r.bmp	866	4	liebe	866	0	0	0	0	0	0	0	0	0	0	0	0	0	0	0	0	0	0	0	0	0	0	0	0	0	0	0	0	0	0	0	0	0
062518	14:01:03	5.0.12.0	92	associated	Rpleas_acq	Same	Rpleas	Bmasked	CS_B	2pleas	acq_pleas_masked	acq1_masked	1	15	0	0	300	300	0	0	646	50	0	1	0	0	0	1	blank2r.bmp	0	1	+	0	8	C4r.bmp	492	1	blank2r.bmp	786	1	GFVZ	786	1	blank2r.bmp	866	5	lippe	866	0	0	0	0	0	0	0	0	0	0	0	0	0	0	0	0	0	0	0	0	0	0	0	0	0	0	0	0	0	0	0	0	0
062518	14:01:03	5.0.12.0	92	associated	Rpleas_acq	Same	Rpleas	Bmasked	CS_B	2pleas	acq_unple_masked	acq1_masked	1	16	0	0	300	300	0	0	645	46	0	1	0	0	0	1	blank2r.bmp	0	1	+	0	4	B4r.bmp	492	1	blank2r.bmp	786	1	BXCP	786	1	blank2r.bmp	866	5	leiche	866	0	0	0	0	0	0	0	0	0	0	0	0	0	0	0	0	0	0	0	0	0	0	0	0	0	0	0	0	0	0	0	0	0
062518	14:01:03	5.0.12.0	92	associated	Rpleas_acq	Same	Rpleas	Bmasked	CS_B	2pleas	acq_unple_masked	acq1_masked	1	17	0	0	300	300	0	0	599	46	0	1	0	0	0	1	blank2r.bmp	0	1	+	0	6	C2r.bmp	492	1	blank2r.bmp	786	1	BXCP	786	1	blank2r.bmp	866	6	toxisch	866	0	0	0	0	0	0	0	0	0	0	0	0	0	0	0	0	0	0	0	0	0	0	0	0	0	0	0	0	0	0	0	0	0
062518	14:01:03	5.0.12.0	92	associated	Rpleas_acq	Same	Rpleas	Bmasked	CS_B	2pleas	acq_pleas_masked	acq1_masked	1	18	0	0	300	300	0	0	671	50	0	1	0	0	0	1	blank2r.bmp	0	1	+	0	1	B1r.bmp	492	1	blank2r.bmp	786	1	GFVZ	786	1	blank2r.bmp	866	1	knospe	866	0	0	0	0	0	0	0	0	0	0	0	0	0	0	0	0	0	0	0	0	0	0	0	0	0	0	0	0	0	0	0	0	0
062518	14:01:03	5.0.12.0	92	associated	Rpleas_acq	Same	Rpleas	Bmasked	CS_B	2pleas	acq_unple_masked	acq1_masked	1	19	0	0	300	300	0	0	660	46	0	1	0	0	0	1	blank2r.bmp	0	1	+	0	7	C3r.bmp	492	1	blank2r.bmp	786	1	BXCP	786	1	blank2r.bmp	866	2	pleite	866	0	0	0	0	0	0	0	0	0	0	0	0	0	0	0	0	0	0	0	0	0	0	0	0	0	0	0	0	0	0	0	0	0
062518	14:01:03	5.0.12.0	92	associated	Rpleas_acq	Same	Rpleas	Bmasked	CS_B	2pleas	acq_unple_masked	acq1_masked	1	20	0	0	300	300	0	0	537	46	0	1	0	0	0	1	blank2r.bmp	0	1	+	0	8	C4r.bmp	492	1	blank2r.bmp	786	1	BXCP	786	1	blank2r.bmp	866	4	übel	866	0	0	0	0	0	0	0	0	0	0	0	0	0	0	0	0	0	0	0	0	0	0	0	0	0	0	0	0	0	0	0	0	0
062518	14:01:03	5.0.12.0	92	associated	Rpleas_acq	Same	Rpleas	Bmasked	CS_B	2pleas	acq_pleas_masked	acq1_masked	1	21	0	0	300	300	0	0	498	50	0	1	0	0	0	1	blank2r.bmp	0	1	+	0	2	B2r.bmp	492	1	blank2r.bmp	786	1	GFVZ	786	1	blank2r.bmp	866	6	sonne	866	0	0	0	0	0	0	0	0	0	0	0	0	0	0	0	0	0	0	0	0	0	0	0	0	0	0	0	0	0	0	0	0	0
062518	14:01:03	5.0.12.0	92	associated	Rpleas_acq	Same	Rpleas	Bmasked	CS_B	2pleas	acq_pleas_masked	acq1_masked	1	22	0	0	300	300	0	0	692	50	0	1	0	0	0	1	blank2r.bmp	0	1	+	0	4	B4r.bmp	492	1	blank2r.bmp	786	1	GFVZ	786	1	blank2r.bmp	866	3	bett	866	0	0	0	0	0	0	0	0	0	0	0	0	0	0	0	0	0	0	0	0	0	0	0	0	0	0	0	0	0	0	0	0	0
062518	14:01:03	5.0.12.0	92	associated	Rpleas_acq	Same	Rpleas	Bmasked	CS_B	2pleas	acq_pleas_masked	acq1_masked	1	23	0	0	300	300	0	0	559	50	0	1	0	0	0	1	blank2r.bmp	0	1	+	0	5	C1r.bmp	492	1	blank2r.bmp	786	1	GFVZ	786	1	blank2r.bmp	866	2	leben	866	0	0	0	0	0	0	0	0	0	0	0	0	0	0	0	0	0	0	0	0	0	0	0	0	0	0	0	0	0	0	0	0	0
062518	14:01:03	5.0.12.0	92	associated	Rpleas_acq	Same	Rpleas	Bmasked	CS_B	2pleas	acq_unple_masked	acq1_masked	1	24	0	0	300	300	0	0	638	46	0	1	0	0	0	1	blank2r.bmp	0	1	+	0	3	B3r.bmp	492	1	blank2r.bmp	786	1	BXCP	786	1	blank2r.bmp	866	1	pistole	866	0	0	0	0	0	0	0	0	0	0	0	0	0	0	0	0	0	0	0	0	0	0	0	0	0	0	0	0	0	0	0	0	0
062518	14:01:03	5.0.12.0	92	associated	Rpleas_acq	Same	Rpleas	Bmasked	CS_B	2pleas	acq_pleas_masked	acq2_masked	2	1	480	0	300	300	0	0	563	50	0	1	0	0	0	1	blank2r.bmp	0	1	+	0	6	C2r.bmp	492	1	blank2r.bmp	786	1	GFVZ	786	1	blank2r.bmp	866	1	knospe	866	1	!	1307	1	!	-1	0	0	0	0	0	0	0	0	0	0	0	0	0	0	0	0	0	0	0	0	0	0	0	0	0	0	0
062518	14:01:03	5.0.12.0	92	associated	Rpleas_acq	Same	Rpleas	Bmasked	CS_B	2pleas	acq_pleas_masked	acq2_masked	2	2	480	0	300	300	0	0	590	50	0	1	0	0	0	1	blank2r.bmp	0	1	+	0	5	C1r.bmp	492	1	blank2r.bmp	786	1	GFVZ	786	1	blank2r.bmp	866	2	leben	866	1	!	1307	1	!	-1	0	0	0	0	0	0	0	0	0	0	0	0	0	0	0	0	0	0	0	0	0	0	0	0	0	0	0
062518	14:01:03	5.0.12.0	92	associated	Rpleas_acq	Same	Rpleas	Bmasked	CS_B	2pleas	acq_unple_masked	acq2_masked	2	3	480	1	300	300	0	0	543	46	0	1	0	0	0	1	blank2r.bmp	0	1	+	0	8	C4r.bmp	492	1	blank2r.bmp	786	1	BXCP	786	1	blank2r.bmp	866	4	übel	866	1	!	1307	1	!	1436	0	0	0	0	0	0	0	0	0	0	0	0	0	0	0	0	0	0	0	0	0	0	0	0	0	0	0
062518	14:01:03	5.0.12.0	92	associated	Rpleas_acq	Same	Rpleas	Bmasked	CS_B	2pleas	acq_unple_masked	acq2_masked	2	4	480	1	300	300	0	0	484	46	0	1	0	0	0	1	blank2r.bmp	0	1	+	0	2	B2r.bmp	492	1	blank2r.bmp	786	1	BXCP	786	1	blank2r.bmp	866	1	pistole	866	1	!	1307	1	!	1378	0	0	0	0	0	0	0	0	0	0	0	0	0	0	0	0	0	0	0	0	0	0	0	0	0	0	0
062518	14:01:03	5.0.12.0	92	associated	Rpleas_acq	Same	Rpleas	Bmasked	CS_B	2pleas	acq_pleas_masked	acq2_masked	2	5	480	1	300	300	0	0	415	50	0	1	0	0	0	1	blank2r.bmp	0	1	+	0	7	C3r.bmp	492	1	blank2r.bmp	786	1	GFVZ	786	1	blank2r.bmp	866	6	sonne	866	1	!	1307	1	!	1308	0	0	0	0	0	0	0	0	0	0	0	0	0	0	0	0	0	0	0	0	0	0	0	0	0	0	0
062518	14:01:03	5.0.12.0	92	associated	Rpleas_acq	Same	Rpleas	Bmasked	CS_B	2pleas	acq_pleas_masked	acq2_masked	2	6	480	1	300	300	0	0	444	50	0	1	0	0	0	1	blank2r.bmp	0	1	+	0	3	B3r.bmp	492	1	blank2r.bmp	786	1	GFVZ	786	1	blank2r.bmp	866	4	liebe	866	1	!	1307	1	!	1337	0	0	0	0	0	0	0	0	0	0	0	0	0	0	0	0	0	0	0	0	0	0	0	0	0	0	0
062518	14:01:03	5.0.12.0	92	associated	Rpleas_acq	Same	Rpleas	Bmasked	CS_B	2pleas	acq_unple_masked	acq2_masked	2	7	480	1	300	300	0	0	478	46	0	1	0	0	0	1	blank2r.bmp	0	1	+	0	4	B4r.bmp	492	1	blank2r.bmp	786	1	BXCP	786	1	blank2r.bmp	866	6	toxisch	866	1	!	1307	1	!	1372	0	0	0	0	0	0	0	0	0	0	0	0	0	0	0	0	0	0	0	0	0	0	0	0	0	0	0
062518	14:01:03	5.0.12.0	92	associated	Rpleas_acq	Same	Rpleas	Bmasked	CS_B	2pleas	acq_unple_masked	acq2_masked	2	8	480	0	300	300	0	0	566	46	0	1	0	0	0	1	blank2r.bmp	0	1	+	0	1	B1r.bmp	492	1	blank2r.bmp	786	1	BXCP	786	1	blank2r.bmp	866	5	leiche	866	1	!	1307	1	!	-1	0	0	0	0	0	0	0	0	0	0	0	0	0	0	0	0	0	0	0	0	0	0	0	0	0	0	0
062518	14:01:03	5.0.12.0	92	associated	Rpleas_acq	Same	Rpleas	Bmasked	CS_B	2pleas	acq_unple_masked	acq2_masked	2	9	480	1	300	300	0	0	433	50	0	0	0	0	0	1	blank2r.bmp	0	1	+	0	3	B3r.bmp	492	1	blank2r.bmp	786	1	BXCP	786	1	blank2r.bmp	866	3	pest	866	1	FEHLER	1621	1	!	1307	1	!	1327	0	0	0	0	0	0	0	0	0	0	0	0	0	0	0	0	0	0	0	0	0	0	0	0
062518	14:01:03	5.0.12.0	92	associated	Rpleas_acq	Same	Rpleas	Bmasked	CS_B	2pleas	acq_pleas_masked	acq2_masked	2	10	480	1	300	300	0	0	468	46	0	0	0	0	0	1	blank2r.bmp	0	1	+	0	7	C3r.bmp	492	1	blank2r.bmp	786	1	GFVZ	786	1	blank2r.bmp	866	5	lippe	866	1	FEHLER	1655	1	!	1307	1	!	1361	0	0	0	0	0	0	0	0	0	0	0	0	0	0	0	0	0	0	0	0	0	0	0	0
062518	14:01:03	5.0.12.0	92	associated	Rpleas_acq	Same	Rpleas	Bmasked	CS_B	2pleas	acq_unple_masked	acq2_masked	2	11	480	0	300	300	0	0	572	46	0	1	0	0	0	1	blank2r.bmp	0	1	+	0	4	B4r.bmp	492	1	blank2r.bmp	786	1	BXCP	786	1	blank2r.bmp	866	2	pleite	866	1	!	1307	1	!	-1	0	0	0	0	0	0	0	0	0	0	0	0	0	0	0	0	0	0	0	0	0	0	0	0	0	0	0
062518	14:01:03	5.0.12.0	92	associated	Rpleas_acq	Same	Rpleas	Bmasked	CS_B	2pleas	acq_unple_masked	acq2_masked	2	12	480	0	300	300	0	0	393	46	0	1	0	0	0	1	blank2r.bmp	0	1	+	0	6	C2r.bmp	492	1	blank2r.bmp	786	1	BXCP	786	1	blank2r.bmp	866	2	pleite	866	1	!	-1	1	!	-1	0	0	0	0	0	0	0	0	0	0	0	0	0	0	0	0	0	0	0	0	0	0	0	0	0	0	0
062518	14:01:03	5.0.12.0	92	associated	Rpleas_acq	Same	Rpleas	Bmasked	CS_B	2pleas	acq_pleas_masked	acq2_masked	2	13	480	1	300	300	0	0	513	50	0	1	0	0	0	1	blank2r.bmp	0	1	+	0	5	C1r.bmp	492	1	blank2r.bmp	786	1	GFVZ	786	1	blank2r.bmp	866	3	bett	866	1	!	1307	1	!	1407	0	0	0	0	0	0	0	0	0	0	0	0	0	0	0	0	0	0	0	0	0	0	0	0	0	0	0
062518	14:01:03	5.0.12.0	92	associated	Rpleas_acq	Same	Rpleas	Bmasked	CS_B	2pleas	acq_pleas_masked	acq2_masked	2	14	480	0	300	300	0	0	561	50	0	1	0	0	0	1	blank2r.bmp	0	1	+	0	2	B2r.bmp	492	1	blank2r.bmp	786	1	GFVZ	786	1	blank2r.bmp	866	1	knospe	866	1	!	1307	1	!	-1	0	0	0	0	0	0	0	0	0	0	0	0	0	0	0	0	0	0	0	0	0	0	0	0	0	0	0
062518	14:01:03	5.0.12.0	92	associated	Rpleas_acq	Same	Rpleas	Bmasked	CS_B	2pleas	acq_pleas_masked	acq2_masked	2	15	480	0	300	300	0	0	4412	50	0	1	0	0	0	1	blank2r.bmp	0	1	+	0	1	B1r.bmp	492	1	blank2r.bmp	786	1	GFVZ	786	1	blank2r.bmp	866	2	leben	866	1	!	1307	1	!	-1	0	0	0	0	0	0	0	0	0	0	0	0	0	0	0	0	0	0	0	0	0	0	0	0	0	0	0
062518	14:01:03	5.0.12.0	92	associated	Rpleas_acq	Same	Rpleas	Bmasked	CS_B	2pleas	acq_unple_masked	acq2_masked	2	16	480	1	300	300	0	0	522	46	0	1	0	0	0	1	blank2r.bmp	0	1	+	0	8	C4r.bmp	492	1	blank2r.bmp	786	1	BXCP	786	1	blank2r.bmp	866	1	pistole	866	1	!	1307	1	!	1416	0	0	0	0	0	0	0	0	0	0	0	0	0	0	0	0	0	0	0	0	0	0	0	0	0	0	0
062518	14:01:03	5.0.12.0	92	associated	Rpleas_acq	Same	Rpleas	Bmasked	CS_B	2pleas	acq_pleas_masked	acq2_masked	2	17	480	1	300	300	0	0	445	50	0	1	0	0	0	1	blank2r.bmp	0	1	+	0	6	C2r.bmp	492	1	blank2r.bmp	786	1	GFVZ	786	1	blank2r.bmp	866	4	liebe	866	1	!	1307	1	!	1338	0	0	0	0	0	0	0	0	0	0	0	0	0	0	0	0	0	0	0	0	0	0	0	0	0	0	0
062518	14:01:03	5.0.12.0	92	associated	Rpleas_acq	Same	Rpleas	Bmasked	CS_B	2pleas	acq_unple_masked	acq2_masked	2	18	480	1	300	300	0	0	511	46	0	1	0	0	0	1	blank2r.bmp	0	1	+	0	4	B4r.bmp	492	1	blank2r.bmp	786	1	BXCP	786	1	blank2r.bmp	866	6	toxisch	866	1	!	1307	1	!	1405	0	0	0	0	0	0	0	0	0	0	0	0	0	0	0	0	0	0	0	0	0	0	0	0	0	0	0
062518	14:01:03	5.0.12.0	92	associated	Rpleas_acq	Same	Rpleas	Bmasked	CS_B	2pleas	acq_pleas_masked	acq2_masked	2	19	480	1	300	300	0	0	431	50	0	1	0	0	0	1	blank2r.bmp	0	1	+	0	5	C1r.bmp	492	1	blank2r.bmp	786	1	GFVZ	786	1	blank2r.bmp	866	6	sonne	866	1	!	1307	1	!	1325	0	0	0	0	0	0	0	0	0	0	0	0	0	0	0	0	0	0	0	0	0	0	0	0	0	0	0
062518	14:01:03	5.0.12.0	92	associated	Rpleas_acq	Same	Rpleas	Bmasked	CS_B	2pleas	acq_unple_masked	acq2_masked	2	20	480	0	300	300	0	0	591	46	0	1	0	0	0	1	blank2r.bmp	0	1	+	0	1	B1r.bmp	492	1	blank2r.bmp	786	1	BXCP	786	1	blank2r.bmp	866	5	leiche	866	1	!	1307	1	!	-1	0	0	0	0	0	0	0	0	0	0	0	0	0	0	0	0	0	0	0	0	0	0	0	0	0	0	0
062518	14:01:03	5.0.12.0	92	associated	Rpleas_acq	Same	Rpleas	Bmasked	CS_B	2pleas	acq_unple_masked	acq2_masked	2	21	480	1	300	300	0	0	480	46	0	1	0	0	0	1	blank2r.bmp	0	1	+	0	7	C3r.bmp	492	1	blank2r.bmp	786	1	BXCP	786	1	blank2r.bmp	866	4	übel	866	1	!	1307	1	!	1373	0	0	0	0	0	0	0	0	0	0	0	0	0	0	0	0	0	0	0	0	0	0	0	0	0	0	0
062518	14:01:03	5.0.12.0	92	associated	Rpleas_acq	Same	Rpleas	Bmasked	CS_B	2pleas	acq_unple_masked	acq2_masked	2	22	480	0	300	300	0	0	551	50	0	0	0	0	0	1	blank2r.bmp	0	1	+	0	8	C4r.bmp	492	1	blank2r.bmp	786	1	BXCP	786	1	blank2r.bmp	866	3	pest	866	1	FEHLER	1739	1	!	1307	1	!	-1	0	0	0	0	0	0	0	0	0	0	0	0	0	0	0	0	0	0	0	0	0	0	0	0
062518	14:01:03	5.0.12.0	92	associated	Rpleas_acq	Same	Rpleas	Bmasked	CS_B	2pleas	acq_pleas_masked	acq2_masked	2	23	480	1	300	300	0	0	496	50	0	1	0	0	0	1	blank2r.bmp	0	1	+	0	2	B2r.bmp	492	1	blank2r.bmp	786	1	GFVZ	786	1	blank2r.bmp	866	3	bett	866	1	!	1307	1	!	1389	0	0	0	0	0	0	0	0	0	0	0	0	0	0	0	0	0	0	0	0	0	0	0	0	0	0	0
062518	14:01:03	5.0.12.0	92	associated	Rpleas_acq	Same	Rpleas	Bmasked	CS_B	2pleas	acq_pleas_masked	acq2_masked	2	24	480	1	300	300	0	0	429	50	0	1	0	0	0	1	blank2r.bmp	0	1	+	0	3	B3r.bmp	492	1	blank2r.bmp	786	1	GFVZ	786	1	blank2r.bmp	866	5	lippe	866	1	!	1307	1	!	1323	0	0	0	0	0	0	0	0	0	0	0	0	0	0	0	0	0	0	0	0	0	0	0	0	0	0	0
062518	14:01:03	5.0.12.0	92	associated	Rpleas_acq	Same	Rpleas	Bmasked	CS_B	2pleas	acq_pleas_masked	acq3_masked	3	1	453	1	300	300	0	0	459	50	0	1	0	0	0	1	blank2r.bmp	0	1	+	0	5	C1r.bmp	492	1	blank2r.bmp	786	1	GFVZ	786	1	blank2r.bmp	866	2	leben	866	1	!	1280	1	!	1352	0	0	0	0	0	0	0	0	0	0	0	0	0	0	0	0	0	0	0	0	0	0	0	0	0	0	0
062518	14:01:03	5.0.12.0	92	associated	Rpleas_acq	Same	Rpleas	Bmasked	CS_B	2pleas	acq_unple_masked	acq3_masked	3	2	453	1	300	300	0	0	448	46	0	1	0	0	0	1	blank2r.bmp	0	1	+	0	3	B3r.bmp	492	1	blank2r.bmp	786	1	BXCP	786	1	blank2r.bmp	866	6	toxisch	866	1	!	1280	1	!	1342	0	0	0	0	0	0	0	0	0	0	0	0	0	0	0	0	0	0	0	0	0	0	0	0	0	0	0
062518	14:01:03	5.0.12.0	92	associated	Rpleas_acq	Same	Rpleas	Bmasked	CS_B	2pleas	acq_unple_masked	acq3_masked	3	3	453	0	300	300	0	0	357	46	0	1	0	0	0	1	blank2r.bmp	0	1	+	0	4	B4r.bmp	492	1	blank2r.bmp	786	1	BXCP	786	1	blank2r.bmp	866	3	pest	866	1	!	-1	1	!	-1	0	0	0	0	0	0	0	0	0	0	0	0	0	0	0	0	0	0	0	0	0	0	0	0	0	0	0
062518	14:01:03	5.0.12.0	92	associated	Rpleas_acq	Same	Rpleas	Bmasked	CS_B	2pleas	acq_pleas_masked	acq3_masked	3	4	453	1	300	300	0	0	421	50	0	1	0	0	0	1	blank2r.bmp	0	1	+	0	1	B1r.bmp	492	1	blank2r.bmp	786	1	GFVZ	786	1	blank2r.bmp	866	6	sonne	866	1	!	1280	1	!	1314	0	0	0	0	0	0	0	0	0	0	0	0	0	0	0	0	0	0	0	0	0	0	0	0	0	0	0
062518	14:01:03	5.0.12.0	92	associated	Rpleas_acq	Same	Rpleas	Bmasked	CS_B	2pleas	acq_pleas_masked	acq3_masked	3	5	453	0	300	300	0	0	357	50	0	1	0	0	0	1	blank2r.bmp	0	1	+	0	2	B2r.bmp	492	1	blank2r.bmp	786	1	GFVZ	786	1	blank2r.bmp	866	4	liebe	866	1	!	-1	1	!	-1	0	0	0	0	0	0	0	0	0	0	0	0	0	0	0	0	0	0	0	0	0	0	0	0	0	0	0
062518	14:01:03	5.0.12.0	92	associated	Rpleas_acq	Same	Rpleas	Bmasked	CS_B	2pleas	acq_pleas_masked	acq3_masked	3	6	453	1	300	300	0	0	519	50	0	1	0	0	0	1	blank2r.bmp	0	1	+	0	7	C3r.bmp	492	1	blank2r.bmp	786	1	GFVZ	786	1	blank2r.bmp	866	1	knospe	866	1	!	1280	1	!	1412	0	0	0	0	0	0	0	0	0	0	0	0	0	0	0	0	0	0	0	0	0	0	0	0	0	0	0
062518	14:01:03	5.0.12.0	92	associated	Rpleas_acq	Same	Rpleas	Bmasked	CS_B	2pleas	acq_unple_masked	acq3_masked	3	7	453	0	300	300	0	0	569	46	0	1	0	0	0	1	blank2r.bmp	0	1	+	0	8	C4r.bmp	492	1	blank2r.bmp	786	1	BXCP	786	1	blank2r.bmp	866	1	pistole	866	1	!	1280	1	!	-1	0	0	0	0	0	0	0	0	0	0	0	0	0	0	0	0	0	0	0	0	0	0	0	0	0	0	0
062518	14:01:03	5.0.12.0	92	associated	Rpleas_acq	Same	Rpleas	Bmasked	CS_B	2pleas	acq_unple_masked	acq3_masked	3	8	453	1	300	300	0	0	517	46	0	1	0	0	0	1	blank2r.bmp	0	1	+	0	6	C2r.bmp	492	1	blank2r.bmp	786	1	BXCP	786	1	blank2r.bmp	866	2	pleite	866	1	!	1280	1	!	1410	0	0	0	0	0	0	0	0	0	0	0	0	0	0	0	0	0	0	0	0	0	0	0	0	0	0	0
062518	14:01:03	5.0.12.0	92	associated	Rpleas_acq	Same	Rpleas	Bmasked	CS_B	2pleas	acq_pleas_masked	acq3_masked	3	9	453	0	300	300	0	0	567	50	0	1	0	0	0	1	blank2r.bmp	0	1	+	0	8	C4r.bmp	492	1	blank2r.bmp	786	1	GFVZ	786	1	blank2r.bmp	866	3	bett	866	1	!	1280	1	!	-1	0	0	0	0	0	0	0	0	0	0	0	0	0	0	0	0	0	0	0	0	0	0	0	0	0	0	0
062518	14:01:03	5.0.12.0	92	associated	Rpleas_acq	Same	Rpleas	Bmasked	CS_B	2pleas	acq_pleas_masked	acq3_masked	3	10	453	1	300	300	0	0	389	50	0	1	0	0	0	1	blank2r.bmp	0	1	+	0	7	C3r.bmp	492	1	blank2r.bmp	786	1	GFVZ	786	1	blank2r.bmp	866	5	lippe	866	1	!	1280	1	!	1283	0	0	0	0	0	0	0	0	0	0	0	0	0	0	0	0	0	0	0	0	0	0	0	0	0	0	0
062518	14:01:03	5.0.12.0	92	associated	Rpleas_acq	Same	Rpleas	Bmasked	CS_B	2pleas	acq_unple_masked	acq3_masked	3	11	453	0	300	300	0	0	524	46	0	1	0	0	0	1	blank2r.bmp	0	1	+	0	4	B4r.bmp	492	1	blank2r.bmp	786	1	BXCP	786	1	blank2r.bmp	866	5	leiche	866	1	!	1280	1	!	-1	0	0	0	0	0	0	0	0	0	0	0	0	0	0	0	0	0	0	0	0	0	0	0	0	0	0	0
062518	14:01:03	5.0.12.0	92	associated	Rpleas_acq	Same	Rpleas	Bmasked	CS_B	2pleas	acq_unple_masked	acq3_masked	3	12	453	1	300	300	0	0	447	46	0	1	0	0	0	1	blank2r.bmp	0	1	+	0	6	C2r.bmp	492	1	blank2r.bmp	786	1	BXCP	786	1	blank2r.bmp	866	4	übel	866	1	!	1280	1	!	1341	0	0	0	0	0	0	0	0	0	0	0	0	0	0	0	0	0	0	0	0	0	0	0	0	0	0	0
062518	14:01:03	5.0.12.0	92	associated	Rpleas_acq	Same	Rpleas	Bmasked	CS_B	2pleas	acq_pleas_masked	acq3_masked	3	13	453	1	300	300	0	0	498	46	0	0	0	0	0	1	blank2r.bmp	0	1	+	0	1	B1r.bmp	492	1	blank2r.bmp	786	1	GFVZ	786	1	blank2r.bmp	866	3	bett	866	1	FEHLER	1685	1	!	1280	1	!	1391	0	0	0	0	0	0	0	0	0	0	0	0	0	0	0	0	0	0	0	0	0	0	0	0
062518	14:01:03	5.0.12.0	92	associated	Rpleas_acq	Same	Rpleas	Bmasked	CS_B	2pleas	acq_pleas_masked	acq3_masked	3	14	453	1	300	300	0	0	511	50	0	1	0	0	0	1	blank2r.bmp	0	1	+	0	5	C1r.bmp	492	1	blank2r.bmp	786	1	GFVZ	786	1	blank2r.bmp	866	2	leben	866	1	!	1280	1	!	1405	0	0	0	0	0	0	0	0	0	0	0	0	0	0	0	0	0	0	0	0	0	0	0	0	0	0	0
062518	14:01:03	5.0.12.0	92	associated	Rpleas_acq	Same	Rpleas	Bmasked	CS_B	2pleas	acq_unple_masked	acq3_masked	3	15	453	1	300	300	0	0	498	46	0	1	0	0	0	1	blank2r.bmp	0	1	+	0	3	B3r.bmp	492	1	blank2r.bmp	786	1	BXCP	786	1	blank2r.bmp	866	6	toxisch	866	1	!	1280	1	!	1392	0	0	0	0	0	0	0	0	0	0	0	0	0	0	0	0	0	0	0	0	0	0	0	0	0	0	0
062518	14:01:03	5.0.12.0	92	associated	Rpleas_acq	Same	Rpleas	Bmasked	CS_B	2pleas	acq_unple_masked	acq3_masked	3	16	453	1	300	300	0	0	479	46	0	1	0	0	0	1	blank2r.bmp	0	1	+	0	2	B2r.bmp	492	1	blank2r.bmp	786	1	BXCP	786	1	blank2r.bmp	866	1	pistole	866	1	!	1280	1	!	1373	0	0	0	0	0	0	0	0	0	0	0	0	0	0	0	0	0	0	0	0	0	0	0	0	0	0	0
062518	14:01:03	5.0.12.0	92	associated	Rpleas_acq	Same	Rpleas	Bmasked	CS_B	2pleas	acq_pleas_masked	acq3_masked	3	17	453	1	300	300	0	0	490	50	0	1	0	0	0	1	blank2r.bmp	0	1	+	0	7	C3r.bmp	492	1	blank2r.bmp	786	1	GFVZ	786	1	blank2r.bmp	866	5	lippe	866	1	!	1280	1	!	1384	0	0	0	0	0	0	0	0	0	0	0	0	0	0	0	0	0	0	0	0	0	0	0	0	0	0	0
062518	14:01:03	5.0.12.0	92	associated	Rpleas_acq	Same	Rpleas	Bmasked	CS_B	2pleas	acq_unple_masked	acq3_masked	3	18	453	0	300	300	0	0	551	46	0	1	0	0	0	1	blank2r.bmp	0	1	+	0	6	C2r.bmp	492	1	blank2r.bmp	786	1	BXCP	786	1	blank2r.bmp	866	4	übel	866	1	!	1280	1	!	-1	0	0	0	0	0	0	0	0	0	0	0	0	0	0	0	0	0	0	0	0	0	0	0	0	0	0	0
062518	14:01:03	5.0.12.0	92	associated	Rpleas_acq	Same	Rpleas	Bmasked	CS_B	2pleas	acq_unple_masked	acq3_masked	3	19	453	1	300	300	0	0	432	46	0	1	0	0	0	1	blank2r.bmp	0	1	+	0	5	C1r.bmp	492	1	blank2r.bmp	786	1	BXCP	786	1	blank2r.bmp	866	3	pest	866	1	!	1280	1	!	1325	0	0	0	0	0	0	0	0	0	0	0	0	0	0	0	0	0	0	0	0	0	0	0	0	0	0	0
062518	14:01:03	5.0.12.0	92	associated	Rpleas_acq	Same	Rpleas	Bmasked	CS_B	2pleas	acq_pleas_masked	acq3_masked	3	20	453	1	300	300	0	0	495	50	0	1	0	0	0	1	blank2r.bmp	0	1	+	0	8	C4r.bmp	492	1	blank2r.bmp	786	1	GFVZ	786	1	blank2r.bmp	866	4	liebe	866	1	!	1280	1	!	1389	0	0	0	0	0	0	0	0	0	0	0	0	0	0	0	0	0	0	0	0	0	0	0	0	0	0	0
062518	14:01:03	5.0.12.0	92	associated	Rpleas_acq	Same	Rpleas	Bmasked	CS_B	2pleas	acq_pleas_masked	acq3_masked	3	21	453	1	300	300	0	0	413	50	0	1	0	0	0	1	blank2r.bmp	0	1	+	0	4	B4r.bmp	492	1	blank2r.bmp	786	1	GFVZ	786	1	blank2r.bmp	866	6	sonne	866	1	!	1280	1	!	1307	0	0	0	0	0	0	0	0	0	0	0	0	0	0	0	0	0	0	0	0	0	0	0	0	0	0	0
062518	14:01:03	5.0.12.0	92	associated	Rpleas_acq	Same	Rpleas	Bmasked	CS_B	2pleas	acq_pleas_masked	acq3_masked	3	22	453	1	300	300	0	0	394	46	0	0	0	0	0	1	blank2r.bmp	0	1	+	0	3	B3r.bmp	492	1	blank2r.bmp	786	1	GFVZ	786	1	blank2r.bmp	866	1	knospe	866	1	FEHLER	1581	1	!	1280	1	!	1287	0	0	0	0	0	0	0	0	0	0	0	0	0	0	0	0	0	0	0	0	0	0	0	0
062518	14:01:03	5.0.12.0	92	associated	Rpleas_acq	Same	Rpleas	Bmasked	CS_B	2pleas	acq_unple_masked	acq3_masked	3	23	453	1	300	300	0	0	465	46	0	1	0	0	0	1	blank2r.bmp	0	1	+	0	1	B1r.bmp	492	1	blank2r.bmp	786	1	BXCP	786	1	blank2r.bmp	866	5	leiche	866	1	!	1280	1	!	1359	0	0	0	0	0	0	0	0	0	0	0	0	0	0	0	0	0	0	0	0	0	0	0	0	0	0	0
062518	14:01:03	5.0.12.0	92	associated	Rpleas_acq	Same	Rpleas	Bmasked	CS_B	2pleas	acq_unple_masked	acq3_masked	3	24	453	0	300	300	0	0	569	46	0	1	0	0	0	1	blank2r.bmp	0	1	+	0	2	B2r.bmp	492	1	blank2r.bmp	786	1	BXCP	786	1	blank2r.bmp	866	2	pleite	866	1	!	1280	1	!	-1	0	0	0	0	0	0	0	0	0	0	0	0	0	0	0	0	0	0	0	0	0	0	0	0	0	0	0
062518	14:01:03	5.0.12.0	92	associated	Rpleas_acq	Same	Rpleas	Bmasked	CS_B	2pleas	acq_unple_masked	acq3_masked	3	25	453	1	300	300	0	0	471	50	0	0	0	0	0	1	blank2r.bmp	0	1	+	0	1	B1r.bmp	492	1	blank2r.bmp	786	1	BXCP	786	1	blank2r.bmp	866	3	pest	866	1	FEHLER	1659	1	!	1280	1	!	1365	0	0	0	0	0	0	0	0	0	0	0	0	0	0	0	0	0	0	0	0	0	0	0	0
062518	14:01:03	5.0.12.0	92	associated	Rpleas_acq	Same	Rpleas	Bmasked	CS_B	2pleas	acq_pleas_masked	acq3_masked	3	26	453	1	300	300	0	0	463	50	0	1	0	0	0	1	blank2r.bmp	0	1	+	0	3	B3r.bmp	492	1	blank2r.bmp	786	1	GFVZ	786	1	blank2r.bmp	866	4	liebe	866	1	!	1280	1	!	1357	0	0	0	0	0	0	0	0	0	0	0	0	0	0	0	0	0	0	0	0	0	0	0	0	0	0	0
062518	14:01:03	5.0.12.0	92	associated	Rpleas_acq	Same	Rpleas	Bmasked	CS_B	2pleas	acq_pleas_masked	acq3_masked	3	27	453	1	300	300	0	0	455	50	0	1	0	0	0	1	blank2r.bmp	0	1	+	0	8	C4r.bmp	492	1	blank2r.bmp	786	1	GFVZ	786	1	blank2r.bmp	866	6	sonne	866	1	!	1280	1	!	1349	0	0	0	0	0	0	0	0	0	0	0	0	0	0	0	0	0	0	0	0	0	0	0	0	0	0	0
062518	14:01:03	5.0.12.0	92	associated	Rpleas_acq	Same	Rpleas	Bmasked	CS_B	2pleas	acq_unple_masked	acq3_masked	3	28	453	0	300	300	0	0	2364	46	0	1	0	0	0	1	blank2r.bmp	0	1	+	0	5	C1r.bmp	492	1	blank2r.bmp	786	1	BXCP	786	1	blank2r.bmp	866	2	pleite	866	1	!	1280	1	!	-1	0	0	0	0	0	0	0	0	0	0	0	0	0	0	0	0	0	0	0	0	0	0	0	0	0	0	0
062518	14:01:03	5.0.12.0	92	associated	Rpleas_acq	Same	Rpleas	Bmasked	CS_B	2pleas	acq_unple_masked	acq3_masked	3	29	453	1	300	300	0	0	456	46	0	1	0	0	0	1	blank2r.bmp	0	1	+	0	2	B2r.bmp	492	1	blank2r.bmp	786	1	BXCP	786	1	blank2r.bmp	866	1	pistole	866	1	!	1280	1	!	1350	0	0	0	0	0	0	0	0	0	0	0	0	0	0	0	0	0	0	0	0	0	0	0	0	0	0	0
062518	14:01:03	5.0.12.0	92	associated	Rpleas_acq	Same	Rpleas	Bmasked	CS_B	2pleas	acq_unple_masked	acq3_masked	3	30	453	1	300	300	0	0	459	46	0	1	0	0	0	1	blank2r.bmp	0	1	+	0	7	C3r.bmp	492	1	blank2r.bmp	786	1	BXCP	786	1	blank2r.bmp	866	6	toxisch	866	1	!	1280	1	!	1352	0	0	0	0	0	0	0	0	0	0	0	0	0	0	0	0	0	0	0	0	0	0	0	0	0	0	0
062518	14:01:03	5.0.12.0	92	associated	Rpleas_acq	Same	Rpleas	Bmasked	CS_B	2pleas	acq_pleas_masked	acq3_masked	3	31	453	1	300	300	0	0	496	50	0	1	0	0	0	1	blank2r.bmp	0	1	+	0	4	B4r.bmp	492	1	blank2r.bmp	786	1	GFVZ	786	1	blank2r.bmp	866	2	leben	866	1	!	1280	1	!	1390	0	0	0	0	0	0	0	0	0	0	0	0	0	0	0	0	0	0	0	0	0	0	0	0	0	0	0
062518	14:01:03	5.0.12.0	92	associated	Rpleas_acq	Same	Rpleas	Bmasked	CS_B	2pleas	acq_pleas_masked	acq3_masked	3	32	453	1	300	300	0	0	462	50	0	1	0	0	0	1	blank2r.bmp	0	1	+	0	6	C2r.bmp	492	1	blank2r.bmp	786	1	GFVZ	786	1	blank2r.bmp	866	5	lippe	866	1	!	1280	1	!	1355	0	0	0	0	0	0	0	0	0	0	0	0	0	0	0	0	0	0	0	0	0	0	0	0	0	0	0
062518	14:01:03	5.0.12.0	92	associated	Rpleas_acq	Same	Rpleas	Bmasked	CS_B	2pleas	acq_unple_masked	acq45_masked	4	1	400	0	300	300	0	0	526	46	0	1	0	0	0	1	blank2r.bmp	0	1	+	0	7	C3r.bmp	492	1	blank2r.bmp	786	1	BXCP	786	1	blank2r.bmp	866	4	übel	866	1	!	1227	1	!	-1	0	0	0	0	0	0	0	0	0	0	0	0	0	0	0	0	0	0	0	0	0	0	0	0	0	0	0
062518	14:01:03	5.0.12.0	92	associated	Rpleas_acq	Same	Rpleas	Bmasked	CS_B	2pleas	acq_unple_masked	acq45_masked	4	2	400	0	300	300	0	0	467	46	0	1	0	0	0	1	blank2r.bmp	0	1	+	0	4	B4r.bmp	492	1	blank2r.bmp	786	1	BXCP	786	1	blank2r.bmp	866	5	leiche	866	1	!	1227	1	!	-1	0	0	0	0	0	0	0	0	0	0	0	0	0	0	0	0	0	0	0	0	0	0	0	0	0	0	0
062518	14:01:03	5.0.12.0	92	associated	Rpleas_acq	Same	Rpleas	Bmasked	CS_B	2pleas	acq_unple_masked	acq45_masked	4	3	400	0	300	300	0	0	331	46	0	1	0	0	0	1	blank2r.bmp	0	1	+	0	5	C1r.bmp	492	1	blank2r.bmp	786	1	BXCP	786	1	blank2r.bmp	866	3	pest	866	1	!	-1	1	!	-1	0	0	0	0	0	0	0	0	0	0	0	0	0	0	0	0	0	0	0	0	0	0	0	0	0	0	0
062518	14:01:03	5.0.12.0	92	associated	Rpleas_acq	Same	Rpleas	Bmasked	CS_B	2pleas	acq_unple_masked	acq45_masked	4	4	400	1	300	300	0	0	437	46	0	1	0	0	0	1	blank2r.bmp	0	1	+	0	8	C4r.bmp	492	1	blank2r.bmp	786	1	BXCP	786	1	blank2r.bmp	866	2	pleite	866	1	!	1227	1	!	1331	0	0	0	0	0	0	0	0	0	0	0	0	0	0	0	0	0	0	0	0	0	0	0	0	0	0	0
062518	14:01:03	5.0.12.0	92	associated	Rpleas_acq	Same	Rpleas	Bmasked	CS_B	2pleas	acq_pleas_masked	acq45_masked	4	5	400	1	300	300	0	0	344	46	0	0	0	0	0	1	blank2r.bmp	0	1	+	0	6	C2r.bmp	492	1	blank2r.bmp	786	1	GFVZ	786	1	blank2r.bmp	866	3	bett	866	1	!	1227	1	!	1237	0	0	0	0	0	0	0	0	0	0	0	0	0	0	0	0	0	0	0	0	0	0	0	0	0	0	0
062518	14:01:03	5.0.12.0	92	associated	Rpleas_acq	Same	Rpleas	Bmasked	CS_B	2pleas	acq_pleas_masked	acq45_masked	4	6	400	0	300	300	0	0	12404	50	0	1	0	0	0	1	blank2r.bmp	0	1	+	0	3	B3r.bmp	492	1	blank2r.bmp	786	1	GFVZ	786	1	blank2r.bmp	866	1	knospe	866	1	!	1227	1	!	-1	0	0	0	0	0	0	0	0	0	0	0	0	0	0	0	0	0	0	0	0	0	0	0	0	0	0	0
062518	14:01:03	5.0.12.0	92	associated	Rpleas_acq	Same	Rpleas	Bmasked	CS_B	2pleas	acq_unple_masked	acq45_masked	4	7	400	0	300	300	0	0	3969	46	0	1	0	0	0	1	blank2r.bmp	0	1	+	0	2	B2r.bmp	492	1	blank2r.bmp	786	1	BXCP	786	1	blank2r.bmp	866	1	pistole	866	1	!	1227	1	!	-1	0	0	0	0	0	0	0	0	0	0	0	0	0	0	0	0	0	0	0	0	0	0	0	0	0	0	0
062518	14:01:03	5.0.12.0	92	associated	Rpleas_acq	Same	Rpleas	Bmasked	CS_B	2pleas	acq_unple_masked	acq45_masked	4	8	400	0	300	300	0	0	499	46	0	1	0	0	0	1	blank2r.bmp	0	1	+	0	1	B1r.bmp	492	1	blank2r.bmp	786	1	BXCP	786	1	blank2r.bmp	866	5	leiche	866	1	!	1227	1	!	-1	0	0	0	0	0	0	0	0	0	0	0	0	0	0	0	0	0	0	0	0	0	0	0	0	0	0	0
062518	14:01:03	5.0.12.0	92	associated	Rpleas_acq	Same	Rpleas	Bmasked	CS_B	2pleas	acq_pleas_masked	acq45_masked	4	9	400	0	300	300	0	0	481	50	0	1	0	0	0	1	blank2r.bmp	0	1	+	0	3	B3r.bmp	492	1	blank2r.bmp	786	1	GFVZ	786	1	blank2r.bmp	866	5	lippe	866	1	!	1227	1	!	-1	0	0	0	0	0	0	0	0	0	0	0	0	0	0	0	0	0	0	0	0	0	0	0	0	0	0	0
062518	14:01:03	5.0.12.0	92	associated	Rpleas_acq	Same	Rpleas	Bmasked	CS_B	2pleas	acq_unple_masked	acq45_masked	4	10	400	1	300	300	0	0	425	46	0	1	0	0	0	1	blank2r.bmp	0	1	+	0	5	C1r.bmp	492	1	blank2r.bmp	786	1	BXCP	786	1	blank2r.bmp	866	4	übel	866	1	!	1227	1	!	1318	0	0	0	0	0	0	0	0	0	0	0	0	0	0	0	0	0	0	0	0	0	0	0	0	0	0	0
062518	14:01:03	5.0.12.0	92	associated	Rpleas_acq	Same	Rpleas	Bmasked	CS_B	2pleas	acq_pleas_masked	acq45_masked	4	11	400	0	300	300	0	0	2056	46	0	0	0	0	0	1	blank2r.bmp	0	1	+	0	1	B1r.bmp	492	1	blank2r.bmp	786	1	GFVZ	786	1	blank2r.bmp	866	2	leben	866	1	!	1227	1	!	-1	0	0	0	0	0	0	0	0	0	0	0	0	0	0	0	0	0	0	0	0	0	0	0	0	0	0	0
062518	14:01:03	5.0.12.0	92	associated	Rpleas_acq	Same	Rpleas	Bmasked	CS_B	2pleas	acq_pleas_masked	acq45_masked	4	12	400	1	300	300	0	0	451	46	0	0	0	0	0	1	blank2r.bmp	0	1	+	0	4	B4r.bmp	492	1	blank2r.bmp	786	1	GFVZ	786	1	blank2r.bmp	866	1	knospe	866	1	!	1227	1	!	1345	0	0	0	0	0	0	0	0	0	0	0	0	0	0	0	0	0	0	0	0	0	0	0	0	0	0	0
062518	14:01:03	5.0.12.0	92	associated	Rpleas_acq	Same	Rpleas	Bmasked	CS_B	2pleas	acq_pleas_masked	acq45_masked	4	13	400	0	300	300	0	0	489	50	0	1	0	0	0	1	blank2r.bmp	0	1	+	0	7	C3r.bmp	492	1	blank2r.bmp	786	1	GFVZ	786	1	blank2r.bmp	866	4	liebe	866	1	!	1227	1	!	-1	0	0	0	0	0	0	0	0	0	0	0	0	0	0	0	0	0	0	0	0	0	0	0	0	0	0	0
062518	14:01:03	5.0.12.0	92	associated	Rpleas_acq	Same	Rpleas	Bmasked	CS_B	2pleas	acq_pleas_masked	acq45_masked	4	14	400	0	300	300	0	0	2211	50	0	1	0	0	0	1	blank2r.bmp	0	1	+	0	2	B2r.bmp	492	1	blank2r.bmp	786	1	GFVZ	786	1	blank2r.bmp	866	3	bett	866	1	!	1227	1	!	-1	0	0	0	0	0	0	0	0	0	0	0	0	0	0	0	0	0	0	0	0	0	0	0	0	0	0	0
062518	14:01:03	5.0.12.0	92	associated	Rpleas_acq	Same	Rpleas	Bmasked	CS_B	2pleas	acq_pleas_masked	acq45_masked	4	15	400	0	300	300	0	0	481	50	0	1	0	0	0	1	blank2r.bmp	0	1	+	0	6	C2r.bmp	492	1	blank2r.bmp	786	1	GFVZ	786	1	blank2r.bmp	866	6	sonne	866	1	!	1227	1	!	-1	0	0	0	0	0	0	0	0	0	0	0	0	0	0	0	0	0	0	0	0	0	0	0	0	0	0	0
062518	14:01:03	5.0.12.0	92	associated	Rpleas_acq	Same	Rpleas	Bmasked	CS_B	2pleas	acq_unple_masked	acq45_masked	4	16	400	1	300	300	0	0	460	46	0	1	0	0	0	1	blank2r.bmp	0	1	+	0	8	C4r.bmp	492	1	blank2r.bmp	786	1	BXCP	786	1	blank2r.bmp	866	6	toxisch	866	1	!	1227	1	!	1354	0	0	0	0	0	0	0	0	0	0	0	0	0	0	0	0	0	0	0	0	0	0	0	0	0	0	0
062518	14:01:03	5.0.12.0	92	associated	Rpleas_acq	Same	Rpleas	Bmasked	CS_B	2pleas	acq_unple_masked	acq45_masked	4	17	400	0	300	300	0	0	532	46	0	1	0	0	0	1	blank2r.bmp	0	1	+	0	5	C1r.bmp	492	1	blank2r.bmp	786	1	BXCP	786	1	blank2r.bmp	866	3	pest	866	1	!	1227	1	!	-1	0	0	0	0	0	0	0	0	0	0	0	0	0	0	0	0	0	0	0	0	0	0	0	0	0	0	0
062518	14:01:03	5.0.12.0	92	associated	Rpleas_acq	Same	Rpleas	Bmasked	CS_B	2pleas	acq_unple_masked	acq45_masked	4	18	400	1	300	300	0	0	407	46	0	1	0	0	0	1	blank2r.bmp	0	1	+	0	6	C2r.bmp	492	1	blank2r.bmp	786	1	BXCP	786	1	blank2r.bmp	866	5	leiche	866	1	!	1227	1	!	1300	0	0	0	0	0	0	0	0	0	0	0	0	0	0	0	0	0	0	0	0	0	0	0	0	0	0	0
062518	14:01:03	5.0.12.0	92	associated	Rpleas_acq	Same	Rpleas	Bmasked	CS_B	2pleas	acq_unple_masked	acq45_masked	4	19	400	1	300	300	0	0	337	46	0	1	0	0	0	1	blank2r.bmp	0	1	+	0	8	C4r.bmp	492	1	blank2r.bmp	786	1	BXCP	786	1	blank2r.bmp	866	6	toxisch	866	1	!	1227	1	!	1231	0	0	0	0	0	0	0	0	0	0	0	0	0	0	0	0	0	0	0	0	0	0	0	0	0	0	0
062518	14:01:03	5.0.12.0	92	associated	Rpleas_acq	Same	Rpleas	Bmasked	CS_B	2pleas	acq_pleas_masked	acq45_masked	4	20	400	1	300	300	0	0	446	50	0	1	0	0	0	1	blank2r.bmp	0	1	+	0	3	B3r.bmp	492	1	blank2r.bmp	786	1	GFVZ	786	1	blank2r.bmp	866	5	lippe	866	1	!	1227	1	!	1340	0	0	0	0	0	0	0	0	0	0	0	0	0	0	0	0	0	0	0	0	0	0	0	0	0	0	0
062518	14:01:03	5.0.12.0	92	associated	Rpleas_acq	Same	Rpleas	Bmasked	CS_B	2pleas	acq_pleas_masked	acq45_masked	4	21	400	1	300	300	0	0	387	50	0	1	0	0	0	1	blank2r.bmp	0	1	+	0	1	B1r.bmp	492	1	blank2r.bmp	786	1	GFVZ	786	1	blank2r.bmp	866	6	sonne	866	1	!	1227	1	!	1281	0	0	0	0	0	0	0	0	0	0	0	0	0	0	0	0	0	0	0	0	0	0	0	0	0	0	0
062518	14:01:03	5.0.12.0	92	associated	Rpleas_acq	Same	Rpleas	Bmasked	CS_B	2pleas	acq_unple_masked	acq45_masked	4	22	400	0	300	300	0	0	491	46	0	1	0	0	0	1	blank2r.bmp	0	1	+	0	2	B2r.bmp	492	1	blank2r.bmp	786	1	BXCP	786	1	blank2r.bmp	866	1	pistole	866	1	!	1227	1	!	-1	0	0	0	0	0	0	0	0	0	0	0	0	0	0	0	0	0	0	0	0	0	0	0	0	0	0	0
062518	14:01:03	5.0.12.0	92	associated	Rpleas_acq	Same	Rpleas	Bmasked	CS_B	2pleas	acq_unple_masked	acq45_masked	4	23	400	0	300	300	0	0	616	46	0	1	0	0	0	1	blank2r.bmp	0	1	+	0	4	B4r.bmp	492	1	blank2r.bmp	786	1	BXCP	786	1	blank2r.bmp	866	2	pleite	866	1	!	1227	1	!	-1	0	0	0	0	0	0	0	0	0	0	0	0	0	0	0	0	0	0	0	0	0	0	0	0	0	0	0
062518	14:01:03	5.0.12.0	92	associated	Rpleas_acq	Same	Rpleas	Bmasked	CS_B	2pleas	acq_pleas_masked	acq45_masked	4	24	400	0	300	300	0	0	510	50	0	1	0	0	0	1	blank2r.bmp	0	1	+	0	7	C3r.bmp	492	1	blank2r.bmp	786	1	GFVZ	786	1	blank2r.bmp	866	1	knospe	866	1	!	1227	1	!	-1	0	0	0	0	0	0	0	0	0	0	0	0	0	0	0	0	0	0	0	0	0	0	0	0	0	0	0
062518	14:01:03	5.0.12.0	92	associated	Rpleas_acq	Same	Rpleas	Bmasked	CS_B	2pleas	acq_pleas_masked	acq45_masked	4	25	400	0	300	300	0	0	478	50	0	1	0	0	0	1	blank2r.bmp	0	1	+	0	6	C2r.bmp	492	1	blank2r.bmp	786	1	GFVZ	786	1	blank2r.bmp	866	3	bett	866	1	!	1227	1	!	-1	0	0	0	0	0	0	0	0	0	0	0	0	0	0	0	0	0	0	0	0	0	0	0	0	0	0	0
062518	14:01:03	5.0.12.0	92	associated	Rpleas_acq	Same	Rpleas	Bmasked	CS_B	2pleas	acq_pleas_masked	acq45_masked	4	26	400	1	300	300	0	0	361	50	0	1	0	0	0	1	blank2r.bmp	0	1	+	0	3	B3r.bmp	492	1	blank2r.bmp	786	1	GFVZ	786	1	blank2r.bmp	866	4	liebe	866	1	!	1227	1	!	1254	0	0	0	0	0	0	0	0	0	0	0	0	0	0	0	0	0	0	0	0	0	0	0	0	0	0	0
062518	14:01:03	5.0.12.0	92	associated	Rpleas_acq	Same	Rpleas	Bmasked	CS_B	2pleas	acq_unple_masked	acq45_masked	4	27	400	1	300	300	0	0	440	46	0	1	0	0	0	1	blank2r.bmp	0	1	+	0	1	B1r.bmp	492	1	blank2r.bmp	786	1	BXCP	786	1	blank2r.bmp	866	4	übel	866	1	!	1227	1	!	1334	0	0	0	0	0	0	0	0	0	0	0	0	0	0	0	0	0	0	0	0	0	0	0	0	0	0	0
062518	14:01:03	5.0.12.0	92	associated	Rpleas_acq	Same	Rpleas	Bmasked	CS_B	2pleas	acq_pleas_masked	acq45_masked	4	28	400	0	300	300	0	0	475	50	0	1	0	0	0	1	blank2r.bmp	0	1	+	0	5	C1r.bmp	492	1	blank2r.bmp	786	1	GFVZ	786	1	blank2r.bmp	866	2	leben	866	1	!	1227	1	!	-1	0	0	0	0	0	0	0	0	0	0	0	0	0	0	0	0	0	0	0	0	0	0	0	0	0	0	0
062518	14:01:03	5.0.12.0	92	associated	Rpleas_acq	Same	Rpleas	Bmasked	CS_B	2pleas	acq_pleas_masked	acq45_masked	4	29	400	1	300	300	0	0	371	50	0	1	0	0	0	1	blank2r.bmp	0	1	+	0	4	B4r.bmp	492	1	blank2r.bmp	786	1	GFVZ	786	1	blank2r.bmp	866	5	lippe	866	1	!	1227	1	!	1264	0	0	0	0	0	0	0	0	0	0	0	0	0	0	0	0	0	0	0	0	0	0	0	0	0	0	0
062518	14:01:03	5.0.12.0	92	associated	Rpleas_acq	Same	Rpleas	Bmasked	CS_B	2pleas	acq_pleas_masked	acq45_masked	4	30	400	1	300	300	0	0	456	50	0	1	0	0	0	1	blank2r.bmp	0	1	+	0	7	C3r.bmp	492	1	blank2r.bmp	786	1	GFVZ	786	1	blank2r.bmp	866	3	bett	866	1	!	1227	1	!	1349	0	0	0	0	0	0	0	0	0	0	0	0	0	0	0	0	0	0	0	0	0	0	0	0	0	0	0
062518	14:01:03	5.0.12.0	92	associated	Rpleas_acq	Same	Rpleas	Bmasked	CS_B	2pleas	acq_unple_masked	acq45_masked	4	31	400	0	300	300	0	0	493	46	0	1	0	0	0	1	blank2r.bmp	0	1	+	0	2	B2r.bmp	492	1	blank2r.bmp	786	1	BXCP	786	1	blank2r.bmp	866	5	leiche	866	1	!	1227	1	!	-1	0	0	0	0	0	0	0	0	0	0	0	0	0	0	0	0	0	0	0	0	0	0	0	0	0	0	0
062518	14:01:03	5.0.12.0	92	associated	Rpleas_acq	Same	Rpleas	Bmasked	CS_B	2pleas	acq_unple_masked	acq45_masked	4	32	400	1	300	300	0	0	410	46	0	1	0	0	0	1	blank2r.bmp	0	1	+	0	8	C4r.bmp	492	1	blank2r.bmp	786	1	BXCP	786	1	blank2r.bmp	866	6	toxisch	866	1	!	1227	1	!	1304	0	0	0	0	0	0	0	0	0	0	0	0	0	0	0	0	0	0	0	0	0	0	0	0	0	0	0
062518	14:01:03	5.0.12.0	92	associated	Rpleas_acq	Same	Rpleas	Bmasked	CS_B	2pleas	acq_unple_masked	acq45_masked	5	1	400	1	300	300	0	0	390	46	0	1	0	0	0	1	blank2r.bmp	0	1	+	0	3	B3r.bmp	492	1	blank2r.bmp	786	1	BXCP	786	1	blank2r.bmp	866	4	übel	866	1	!	1227	1	!	1284	0	0	0	0	0	0	0	0	0	0	0	0	0	0	0	0	0	0	0	0	0	0	0	0	0	0	0
062518	14:01:03	5.0.12.0	92	associated	Rpleas_acq	Same	Rpleas	Bmasked	CS_B	2pleas	acq_unple_masked	acq45_masked	5	2	400	1	300	300	0	0	366	46	0	1	0	0	0	1	blank2r.bmp	0	1	+	0	7	C3r.bmp	492	1	blank2r.bmp	786	1	BXCP	786	1	blank2r.bmp	866	1	pistole	866	1	!	1227	1	!	1260	0	0	0	0	0	0	0	0	0	0	0	0	0	0	0	0	0	0	0	0	0	0	0	0	0	0	0
062518	14:01:03	5.0.12.0	92	associated	Rpleas_acq	Same	Rpleas	Bmasked	CS_B	2pleas	acq_pleas_masked	acq45_masked	5	3	400	1	300	300	0	0	339	50	0	1	0	0	0	1	blank2r.bmp	0	1	+	0	8	C4r.bmp	492	1	blank2r.bmp	786	1	GFVZ	786	1	blank2r.bmp	866	4	liebe	866	1	!	1227	1	!	1233	0	0	0	0	0	0	0	0	0	0	0	0	0	0	0	0	0	0	0	0	0	0	0	0	0	0	0
062518	14:01:03	5.0.12.0	92	associated	Rpleas_acq	Same	Rpleas	Bmasked	CS_B	2pleas	acq_pleas_masked	acq45_masked	5	4	400	1	300	300	0	0	352	50	0	1	0	0	0	1	blank2r.bmp	0	1	+	0	4	B4r.bmp	492	1	blank2r.bmp	786	1	GFVZ	786	1	blank2r.bmp	866	2	leben	866	1	!	1227	1	!	1246	0	0	0	0	0	0	0	0	0	0	0	0	0	0	0	0	0	0	0	0	0	0	0	0	0	0	0
062518	14:01:03	5.0.12.0	92	associated	Rpleas_acq	Same	Rpleas	Bmasked	CS_B	2pleas	acq_pleas_masked	acq45_masked	5	5	400	1	300	300	0	0	386	50	0	1	0	0	0	1	blank2r.bmp	0	1	+	0	5	C1r.bmp	492	1	blank2r.bmp	786	1	GFVZ	786	1	blank2r.bmp	866	1	knospe	866	1	!	1227	1	!	1280	0	0	0	0	0	0	0	0	0	0	0	0	0	0	0	0	0	0	0	0	0	0	0	0	0	0	0
062518	14:01:03	5.0.12.0	92	associated	Rpleas_acq	Same	Rpleas	Bmasked	CS_B	2pleas	acq_unple_masked	acq45_masked	5	6	400	0	300	300	0	0	330	46	0	1	0	0	0	1	blank2r.bmp	0	1	+	0	6	C2r.bmp	492	1	blank2r.bmp	786	1	BXCP	786	1	blank2r.bmp	866	2	pleite	866	1	!	-1	1	!	-1	0	0	0	0	0	0	0	0	0	0	0	0	0	0	0	0	0	0	0	0	0	0	0	0	0	0	0
062518	14:01:03	5.0.12.0	92	associated	Rpleas_acq	Same	Rpleas	Bmasked	CS_B	2pleas	acq_unple_masked	acq45_masked	5	7	400	1	300	300	0	0	340	46	0	1	0	0	0	1	blank2r.bmp	0	1	+	0	1	B1r.bmp	492	1	blank2r.bmp	786	1	BXCP	786	1	blank2r.bmp	866	3	pest	866	1	!	1227	1	!	1233	0	0	0	0	0	0	0	0	0	0	0	0	0	0	0	0	0	0	0	0	0	0	0	0	0	0	0
062518	14:01:03	5.0.12.0	92	associated	Rpleas_acq	Same	Rpleas	Bmasked	CS_B	2pleas	acq_pleas_masked	acq45_masked	5	8	400	0	300	300	0	0	323	46	0	0	0	0	0	1	blank2r.bmp	0	1	+	0	2	B2r.bmp	492	1	blank2r.bmp	786	1	GFVZ	786	1	blank2r.bmp	866	6	sonne	866	1	!	-1	1	!	-1	0	0	0	0	0	0	0	0	0	0	0	0	0	0	0	0	0	0	0	0	0	0	0	0	0	0	0
062518	14:01:03	5.0.12.0	92	associated	Rpleas_acq	Same	Rpleas	Bmasked	CS_B	2pleas	acq_pleas_masked	acq45_masked	5	9	400	1	300	300	0	0	349	50	0	1	0	0	0	1	blank2r.bmp	0	1	+	0	7	C3r.bmp	492	1	blank2r.bmp	786	1	GFVZ	786	1	blank2r.bmp	866	6	sonne	866	1	!	1227	1	!	1243	0	0	0	0	0	0	0	0	0	0	0	0	0	0	0	0	0	0	0	0	0	0	0	0	0	0	0
062518	14:01:03	5.0.12.0	92	associated	Rpleas_acq	Same	Rpleas	Bmasked	CS_B	2pleas	acq_unple_masked	acq45_masked	5	10	400	1	300	300	0	0	442	46	0	1	0	0	0	1	blank2r.bmp	0	1	+	0	3	B3r.bmp	492	1	blank2r.bmp	786	1	BXCP	786	1	blank2r.bmp	866	3	pest	866	1	!	1227	1	!	1336	0	0	0	0	0	0	0	0	0	0	0	0	0	0	0	0	0	0	0	0	0	0	0	0	0	0	0
062518	14:01:03	5.0.12.0	92	associated	Rpleas_acq	Same	Rpleas	Bmasked	CS_B	2pleas	acq_unple_masked	acq45_masked	5	11	400	0	300	300	0	0	493	46	0	1	0	0	0	1	blank2r.bmp	0	1	+	0	1	B1r.bmp	492	1	blank2r.bmp	786	1	BXCP	786	1	blank2r.bmp	866	5	leiche	866	1	!	1227	1	!	-1	0	0	0	0	0	0	0	0	0	0	0	0	0	0	0	0	0	0	0	0	0	0	0	0	0	0	0
062518	14:01:03	5.0.12.0	92	associated	Rpleas_acq	Same	Rpleas	Bmasked	CS_B	2pleas	acq_pleas_masked	acq45_masked	5	12	400	1	300	300	0	0	362	46	0	0	0	0	0	1	blank2r.bmp	0	1	+	0	5	C1r.bmp	492	1	blank2r.bmp	786	1	GFVZ	786	1	blank2r.bmp	866	2	leben	866	1	!	1227	1	!	1256	0	0	0	0	0	0	0	0	0	0	0	0	0	0	0	0	0	0	0	0	0	0	0	0	0	0	0
062518	14:01:03	5.0.12.0	92	associated	Rpleas_acq	Same	Rpleas	Bmasked	CS_B	2pleas	acq_unple_masked	acq45_masked	5	13	400	1	300	300	0	0	444	46	0	1	0	0	0	1	blank2r.bmp	0	1	+	0	6	C2r.bmp	492	1	blank2r.bmp	786	1	BXCP	786	1	blank2r.bmp	866	1	pistole	866	1	!	1227	1	!	1338	0	0	0	0	0	0	0	0	0	0	0	0	0	0	0	0	0	0	0	0	0	0	0	0	0	0	0
062518	14:01:03	5.0.12.0	92	associated	Rpleas_acq	Same	Rpleas	Bmasked	CS_B	2pleas	acq_unple_masked	acq45_masked	5	14	400	0	300	300	0	0	514	50	0	0	0	0	0	1	blank2r.bmp	0	1	+	0	4	B4r.bmp	492	1	blank2r.bmp	786	1	BXCP	786	1	blank2r.bmp	866	4	übel	866	1	!	1227	1	!	-1	0	0	0	0	0	0	0	0	0	0	0	0	0	0	0	0	0	0	0	0	0	0	0	0	0	0	0
062518	14:01:03	5.0.12.0	92	associated	Rpleas_acq	Same	Rpleas	Bmasked	CS_B	2pleas	acq_pleas_masked	acq45_masked	5	15	400	1	300	300	0	0	354	46	0	0	0	0	0	1	blank2r.bmp	0	1	+	0	8	C4r.bmp	492	1	blank2r.bmp	786	1	GFVZ	786	1	blank2r.bmp	866	4	liebe	866	1	!	1227	1	!	1247	0	0	0	0	0	0	0	0	0	0	0	0	0	0	0	0	0	0	0	0	0	0	0	0	0	0	0
062518	14:01:03	5.0.12.0	92	associated	Rpleas_acq	Same	Rpleas	Bmasked	CS_B	2pleas	acq_pleas_masked	acq45_masked	5	16	400	1	300	300	0	0	436	50	0	1	0	0	0	1	blank2r.bmp	0	1	+	0	2	B2r.bmp	492	1	blank2r.bmp	786	1	GFVZ	786	1	blank2r.bmp	866	3	bett	866	1	!	1227	1	!	1329	0	0	0	0	0	0	0	0	0	0	0	0	0	0	0	0	0	0	0	0	0	0	0	0	0	0	0
062518	14:01:03	5.0.12.0	92	associated	Rpleas_acq	Same	Rpleas	Bmasked	CS_B	2pleas	acq_pleas_masked	acq45_masked	5	17	400	0	300	300	0	0	500	50	0	1	0	0	0	1	blank2r.bmp	0	1	+	0	8	C4r.bmp	492	1	blank2r.bmp	786	1	GFVZ	786	1	blank2r.bmp	866	1	knospe	866	1	!	1227	1	!	-1	0	0	0	0	0	0	0	0	0	0	0	0	0	0	0	0	0	0	0	0	0	0	0	0	0	0	0
062518	14:01:03	5.0.12.0	92	associated	Rpleas_acq	Same	Rpleas	Bmasked	CS_B	2pleas	acq_pleas_masked	acq45_masked	5	18	400	1	300	300	0	0	388	50	0	1	0	0	0	1	blank2r.bmp	0	1	+	0	2	B2r.bmp	492	1	blank2r.bmp	786	1	GFVZ	786	1	blank2r.bmp	866	5	lippe	866	1	!	1227	1	!	1282	0	0	0	0	0	0	0	0	0	0	0	0	0	0	0	0	0	0	0	0	0	0	0	0	0	0	0
062518	14:01:03	5.0.12.0	92	associated	Rpleas_acq	Same	Rpleas	Bmasked	CS_B	2pleas	acq_unple_masked	acq45_masked	5	19	400	0	300	300	0	0	507	46	0	1	0	0	0	1	blank2r.bmp	0	1	+	0	3	B3r.bmp	492	1	blank2r.bmp	786	1	BXCP	786	1	blank2r.bmp	866	6	toxisch	866	1	!	1227	1	!	-1	0	0	0	0	0	0	0	0	0	0	0	0	0	0	0	0	0	0	0	0	0	0	0	0	0	0	0
062518	14:01:03	5.0.12.0	92	associated	Rpleas_acq	Same	Rpleas	Bmasked	CS_B	2pleas	acq_unple_masked	acq45_masked	5	20	400	0	300	300	0	0	331	46	0	1	0	0	0	1	blank2r.bmp	0	1	+	0	4	B4r.bmp	492	1	blank2r.bmp	786	1	BXCP	786	1	blank2r.bmp	866	2	pleite	866	1	!	-1	1	!	-1	0	0	0	0	0	0	0	0	0	0	0	0	0	0	0	0	0	0	0	0	0	0	0	0	0	0	0
062518	14:01:03	5.0.12.0	92	associated	Rpleas_acq	Same	Rpleas	Bmasked	CS_B	2pleas	acq_pleas_masked	acq45_masked	5	21	400	1	300	300	0	0	341	46	0	0	0	0	0	1	blank2r.bmp	0	1	+	0	5	C1r.bmp	492	1	blank2r.bmp	786	1	GFVZ	786	1	blank2r.bmp	866	5	lippe	866	1	!	1227	1	!	1235	0	0	0	0	0	0	0	0	0	0	0	0	0	0	0	0	0	0	0	0	0	0	0	0	0	0	0
062518	14:01:03	5.0.12.0	92	associated	Rpleas_acq	Same	Rpleas	Bmasked	CS_B	2pleas	acq_unple_masked	acq45_masked	5	22	400	1	300	300	0	0	405	46	0	1	0	0	0	1	blank2r.bmp	0	1	+	0	6	C2r.bmp	492	1	blank2r.bmp	786	1	BXCP	786	1	blank2r.bmp	866	3	pest	866	1	!	1227	1	!	1299	0	0	0	0	0	0	0	0	0	0	0	0	0	0	0	0	0	0	0	0	0	0	0	0	0	0	0
062518	14:01:03	5.0.12.0	92	associated	Rpleas_acq	Same	Rpleas	Bmasked	CS_B	2pleas	acq_unple_masked	acq45_masked	5	23	400	1	300	300	0	0	447	46	0	1	0	0	0	1	blank2r.bmp	0	1	+	0	1	B1r.bmp	492	1	blank2r.bmp	786	1	BXCP	786	1	blank2r.bmp	866	6	toxisch	866	1	!	1227	1	!	1341	0	0	0	0	0	0	0	0	0	0	0	0	0	0	0	0	0	0	0	0	0	0	0	0	0	0	0
062518	14:01:03	5.0.12.0	92	associated	Rpleas_acq	Same	Rpleas	Bmasked	CS_B	2pleas	acq_pleas_masked	acq45_masked	5	24	400	1	300	300	0	0	357	46	0	0	0	0	0	1	blank2r.bmp	0	1	+	0	7	C3r.bmp	492	1	blank2r.bmp	786	1	GFVZ	786	1	blank2r.bmp	866	1	knospe	866	1	!	1227	1	!	1251	0	0	0	0	0	0	0	0	0	0	0	0	0	0	0	0	0	0	0	0	0	0	0	0	0	0	0
062518	14:01:03	5.0.12.0	92	associated	Rpleas_acq	Same	Rpleas	Bmasked	CS_B	2pleas	acq_unple_masked	acq45_masked	5	25	400	0	300	300	0	0	1719	46	0	1	0	0	0	1	blank2r.bmp	0	1	+	0	8	C4r.bmp	492	1	blank2r.bmp	786	1	BXCP	786	1	blank2r.bmp	866	2	pleite	866	1	!	1227	1	!	-1	0	0	0	0	0	0	0	0	0	0	0	0	0	0	0	0	0	0	0	0	0	0	0	0	0	0	0
062518	14:01:03	5.0.12.0	92	associated	Rpleas_acq	Same	Rpleas	Bmasked	CS_B	2pleas	acq_unple_masked	acq45_masked	5	26	400	1	300	300	0	0	353	50	0	0	0	0	0	1	blank2r.bmp	0	1	+	0	7	C3r.bmp	492	1	blank2r.bmp	786	1	BXCP	786	1	blank2r.bmp	866	5	leiche	866	1	!	1227	1	!	1246	0	0	0	0	0	0	0	0	0	0	0	0	0	0	0	0	0	0	0	0	0	0	0	0	0	0	0
062518	14:01:03	5.0.12.0	92	associated	Rpleas_acq	Same	Rpleas	Bmasked	CS_B	2pleas	acq_pleas_masked	acq45_masked	5	27	400	1	300	300	0	0	384	46	0	0	0	0	0	1	blank2r.bmp	0	1	+	0	1	B1r.bmp	492	1	blank2r.bmp	786	1	GFVZ	786	1	blank2r.bmp	866	6	sonne	866	1	!	1227	1	!	1278	0	0	0	0	0	0	0	0	0	0	0	0	0	0	0	0	0	0	0	0	0	0	0	0	0	0	0
062518	14:01:03	5.0.12.0	92	associated	Rpleas_acq	Same	Rpleas	Bmasked	CS_B	2pleas	acq_unple_masked	acq45_masked	5	28	400	1	300	300	0	0	437	46	0	1	0	0	0	1	blank2r.bmp	0	1	+	0	2	B2r.bmp	492	1	blank2r.bmp	786	1	BXCP	786	1	blank2r.bmp	866	4	übel	866	1	!	1227	1	!	1331	0	0	0	0	0	0	0	0	0	0	0	0	0	0	0	0	0	0	0	0	0	0	0	0	0	0	0
062518	14:01:03	5.0.12.0	92	associated	Rpleas_acq	Same	Rpleas	Bmasked	CS_B	2pleas	acq_unple_masked	acq45_masked	5	29	400	0	300	300	0	0	520	46	0	1	0	0	0	1	blank2r.bmp	0	1	+	0	4	B4r.bmp	492	1	blank2r.bmp	786	1	BXCP	786	1	blank2r.bmp	866	1	pistole	866	1	!	1227	1	!	-1	0	0	0	0	0	0	0	0	0	0	0	0	0	0	0	0	0	0	0	0	0	0	0	0	0	0	0
062518	14:01:03	5.0.12.0	92	associated	Rpleas_acq	Same	Rpleas	Bmasked	CS_B	2pleas	acq_pleas_masked	acq45_masked	5	30	400	1	300	300	0	0	362	50	0	1	0	0	0	1	blank2r.bmp	0	1	+	0	3	B3r.bmp	492	1	blank2r.bmp	786	1	GFVZ	786	1	blank2r.bmp	866	4	liebe	866	1	!	1227	1	!	1256	0	0	0	0	0	0	0	0	0	0	0	0	0	0	0	0	0	0	0	0	0	0	0	0	0	0	0
062518	14:01:03	5.0.12.0	92	associated	Rpleas_acq	Same	Rpleas	Bmasked	CS_B	2pleas	acq_pleas_masked	acq45_masked	5	31	400	0	300	300	0	0	477	50	0	1	0	0	0	1	blank2r.bmp	0	1	+	0	6	C2r.bmp	492	1	blank2r.bmp	786	1	GFVZ	786	1	blank2r.bmp	866	2	leben	866	1	!	1227	1	!	-1	0	0	0	0	0	0	0	0	0	0	0	0	0	0	0	0	0	0	0	0	0	0	0	0	0	0	0
062518	14:01:03	5.0.12.0	92	associated	Rpleas_acq	Same	Rpleas	Bmasked	CS_B	2pleas	acq_pleas_masked	acq45_masked	5	32	400	1	300	300	0	0	455	46	0	0	0	0	0	1	blank2r.bmp	0	1	+	0	5	C1r.bmp	492	1	blank2r.bmp	786	1	GFVZ	786	1	blank2r.bmp	866	3	bett	866	1	!	1227	1	!	1349	0	0	0	0	0	0	0	0	0	0	0	0	0	0	0	0	0	0	0	0	0	0	0	0	0	0	0
062518	14:01:03	5.0.12.0	92	associated	Rpleas_acq	Same	Rpleas	Bmasked	CS_B	2pleas	AMP_CSpleas	AMP1	6	1	0	0	300	300	0	0	1026	50	0	1	0	0	0	1	blank2r.bmp	0	1	GFVZ	0	1	blank2r.bmp	79	44	pic44.bmp	79	1	whitenoise.bmp	186	0	0	0	0	0	0	0	0	0	0	0	0	0	0	0	0	0	0	0	0	0	0	0	0	0	0	0	0	0	0	0	0	0	0	0	0	0	0	0
062518	14:01:03	5.0.12.0	92	associated	Rpleas_acq	Same	Rpleas	Bmasked	CS_B	2pleas	AMP_CSunple	AMP1	6	2	0	0	300	300	0	0	675	50	0	0	0	0	0	1	blank2r.bmp	0	1	BXCP	0	1	blank2r.bmp	79	27	pic27.bmp	79	1	whitenoise.bmp	186	0	0	0	0	0	0	0	0	0	0	0	0	0	0	0	0	0	0	0	0	0	0	0	0	0	0	0	0	0	0	0	0	0	0	0	0	0	0	0
062518	14:01:03	5.0.12.0	92	associated	Rpleas_acq	Same	Rpleas	Bmasked	CS_B	2pleas	AMP_CSunple	AMP1	6	3	0	0	300	300	0	0	512	46	0	1	0	0	0	1	blank2r.bmp	0	1	BXCP	0	1	blank2r.bmp	79	29	pic29.bmp	79	1	whitenoise.bmp	186	0	0	0	0	0	0	0	0	0	0	0	0	0	0	0	0	0	0	0	0	0	0	0	0	0	0	0	0	0	0	0	0	0	0	0	0	0	0	0
062518	14:01:03	5.0.12.0	92	associated	Rpleas_acq	Same	Rpleas	Bmasked	CS_B	2pleas	AMP_CSunple	AMP1	6	4	0	0	300	300	0	0	714	46	0	1	0	0	0	1	blank2r.bmp	0	1	BXCP	0	1	blank2r.bmp	79	66	pic66.bmp	79	1	whitenoise.bmp	186	0	0	0	0	0	0	0	0	0	0	0	0	0	0	0	0	0	0	0	0	0	0	0	0	0	0	0	0	0	0	0	0	0	0	0	0	0	0	0
062518	14:01:03	5.0.12.0	92	associated	Rpleas_acq	Same	Rpleas	Bmasked	CS_B	2pleas	AMP_CSunple	AMP1	6	5	0	0	300	300	0	0	541	46	0	1	0	0	0	1	blank2r.bmp	0	1	BXCP	0	1	blank2r.bmp	79	4	pic4.bmp	79	1	whitenoise.bmp	186	0	0	0	0	0	0	0	0	0	0	0	0	0	0	0	0	0	0	0	0	0	0	0	0	0	0	0	0	0	0	0	0	0	0	0	0	0	0	0
062518	14:01:03	5.0.12.0	92	associated	Rpleas_acq	Same	Rpleas	Bmasked	CS_B	2pleas	AMP_CSunple	AMP1	6	6	0	0	300	300	0	0	492	46	0	1	0	0	0	1	blank2r.bmp	0	1	BXCP	0	1	blank2r.bmp	79	87	pic87.bmp	79	1	whitenoise.bmp	186	0	0	0	0	0	0	0	0	0	0	0	0	0	0	0	0	0	0	0	0	0	0	0	0	0	0	0	0	0	0	0	0	0	0	0	0	0	0	0
062518	14:01:03	5.0.12.0	92	associated	Rpleas_acq	Same	Rpleas	Bmasked	CS_B	2pleas	AMP_CSpleas	AMP1	6	7	0	0	300	300	0	0	433	50	0	1	0	0	0	1	blank2r.bmp	0	1	GFVZ	0	1	blank2r.bmp	79	60	pic60.bmp	79	1	whitenoise.bmp	186	0	0	0	0	0	0	0	0	0	0	0	0	0	0	0	0	0	0	0	0	0	0	0	0	0	0	0	0	0	0	0	0	0	0	0	0	0	0	0
062518	14:01:03	5.0.12.0	92	associated	Rpleas_acq	Same	Rpleas	Bmasked	CS_B	2pleas	AMP_CSunple	AMP1	6	8	0	0	300	300	0	0	411	50	0	0	0	0	0	1	blank2r.bmp	0	1	BXCP	0	1	blank2r.bmp	79	79	pic79.bmp	79	1	whitenoise.bmp	186	0	0	0	0	0	0	0	0	0	0	0	0	0	0	0	0	0	0	0	0	0	0	0	0	0	0	0	0	0	0	0	0	0	0	0	0	0	0	0
062518	14:01:03	5.0.12.0	92	associated	Rpleas_acq	Same	Rpleas	Bmasked	CS_B	2pleas	AMP_CSunple	AMP1	6	9	0	0	300	300	0	0	607	50	0	0	0	0	0	1	blank2r.bmp	0	1	BXCP	0	1	blank2r.bmp	79	23	pic23.bmp	79	1	whitenoise.bmp	186	0	0	0	0	0	0	0	0	0	0	0	0	0	0	0	0	0	0	0	0	0	0	0	0	0	0	0	0	0	0	0	0	0	0	0	0	0	0	0
062518	14:01:03	5.0.12.0	92	associated	Rpleas_acq	Same	Rpleas	Bmasked	CS_B	2pleas	AMP_CSunple	AMP1	6	10	0	0	300	300	0	0	446	50	0	0	0	0	0	1	blank2r.bmp	0	1	BXCP	0	1	blank2r.bmp	79	95	pic95.bmp	79	1	whitenoise.bmp	186	0	0	0	0	0	0	0	0	0	0	0	0	0	0	0	0	0	0	0	0	0	0	0	0	0	0	0	0	0	0	0	0	0	0	0	0	0	0	0
062518	14:01:03	5.0.12.0	92	associated	Rpleas_acq	Same	Rpleas	Bmasked	CS_B	2pleas	AMP_CSpleas	AMP1	6	11	0	0	300	300	0	0	829	50	0	1	0	0	0	1	blank2r.bmp	0	1	GFVZ	0	1	blank2r.bmp	79	32	pic32.bmp	79	1	whitenoise.bmp	186	0	0	0	0	0	0	0	0	0	0	0	0	0	0	0	0	0	0	0	0	0	0	0	0	0	0	0	0	0	0	0	0	0	0	0	0	0	0	0
062518	14:01:03	5.0.12.0	92	associated	Rpleas_acq	Same	Rpleas	Bmasked	CS_B	2pleas	AMP_CSunple	AMP1	6	12	0	0	300	300	0	0	393	46	0	1	0	0	0	1	blank2r.bmp	0	1	BXCP	0	1	blank2r.bmp	79	73	pic73.bmp	79	1	whitenoise.bmp	186	0	0	0	0	0	0	0	0	0	0	0	0	0	0	0	0	0	0	0	0	0	0	0	0	0	0	0	0	0	0	0	0	0	0	0	0	0	0	0
062518	14:01:03	5.0.12.0	92	associated	Rpleas_acq	Same	Rpleas	Bmasked	CS_B	2pleas	AMP_CSpleas	AMP1	6	13	0	0	300	300	0	0	522	50	0	1	0	0	0	1	blank2r.bmp	0	1	GFVZ	0	1	blank2r.bmp	79	51	pic51.bmp	79	1	whitenoise.bmp	186	0	0	0	0	0	0	0	0	0	0	0	0	0	0	0	0	0	0	0	0	0	0	0	0	0	0	0	0	0	0	0	0	0	0	0	0	0	0	0
062518	14:01:03	5.0.12.0	92	associated	Rpleas_acq	Same	Rpleas	Bmasked	CS_B	2pleas	AMP_CSpleas	AMP1	6	14	0	0	300	300	0	0	423	46	0	0	0	0	0	1	blank2r.bmp	0	1	GFVZ	0	1	blank2r.bmp	79	45	pic45.bmp	79	1	whitenoise.bmp	186	0	0	0	0	0	0	0	0	0	0	0	0	0	0	0	0	0	0	0	0	0	0	0	0	0	0	0	0	0	0	0	0	0	0	0	0	0	0	0
062518	14:01:03	5.0.12.0	92	associated	Rpleas_acq	Same	Rpleas	Bmasked	CS_B	2pleas	AMP_CSpleas	AMP1	6	15	0	0	300	300	0	0	174	46	0	0	0	0	0	1	blank2r.bmp	0	1	GFVZ	0	1	blank2r.bmp	79	80	pic80.bmp	79	1	whitenoise.bmp	186	0	0	0	0	0	0	0	0	0	0	0	0	0	0	0	0	0	0	0	0	0	0	0	0	0	0	0	0	0	0	0	0	0	0	0	0	0	0	0
062518	14:01:03	5.0.12.0	92	associated	Rpleas_acq	Same	Rpleas	Bmasked	CS_B	2pleas	AMP_CSpleas	AMP1	6	16	0	0	300	300	0	0	164	46	0	0	0	0	0	1	blank2r.bmp	0	1	GFVZ	0	1	blank2r.bmp	79	42	pic42.bmp	79	1	whitenoise.bmp	186	0	0	0	0	0	0	0	0	0	0	0	0	0	0	0	0	0	0	0	0	0	0	0	0	0	0	0	0	0	0	0	0	0	0	0	0	0	0	0
062518	14:01:03	5.0.12.0	92	associated	Rpleas_acq	Same	Rpleas	Bmasked	CS_B	2pleas	AMP_CSunple	AMP1	6	17	0	0	300	300	0	0	104	50	0	0	0	0	0	1	blank2r.bmp	0	1	BXCP	0	1	blank2r.bmp	79	46	pic46.bmp	79	1	whitenoise.bmp	186	0	0	0	0	0	0	0	0	0	0	0	0	0	0	0	0	0	0	0	0	0	0	0	0	0	0	0	0	0	0	0	0	0	0	0	0	0	0	0
062518	14:01:03	5.0.12.0	92	associated	Rpleas_acq	Same	Rpleas	Bmasked	CS_B	2pleas	AMP_CSpleas	AMP1	6	18	0	0	300	300	0	0	160	50	0	1	0	0	0	1	blank2r.bmp	0	1	GFVZ	0	1	blank2r.bmp	79	59	pic59.bmp	79	1	whitenoise.bmp	186	0	0	0	0	0	0	0	0	0	0	0	0	0	0	0	0	0	0	0	0	0	0	0	0	0	0	0	0	0	0	0	0	0	0	0	0	0	0	0
062518	14:01:03	5.0.12.0	92	associated	Rpleas_acq	Same	Rpleas	Bmasked	CS_B	2pleas	AMP_CSunple	AMP1	6	19	0	0	300	300	0	0	481	50	0	0	0	0	0	1	blank2r.bmp	0	1	BXCP	0	1	blank2r.bmp	79	20	pic20.bmp	79	1	whitenoise.bmp	186	0	0	0	0	0	0	0	0	0	0	0	0	0	0	0	0	0	0	0	0	0	0	0	0	0	0	0	0	0	0	0	0	0	0	0	0	0	0	0
062518	14:01:03	5.0.12.0	92	associated	Rpleas_acq	Same	Rpleas	Bmasked	CS_B	2pleas	AMP_CSunple	AMP1	6	20	0	0	300	300	0	0	290	50	0	0	0	0	0	1	blank2r.bmp	0	1	BXCP	0	1	blank2r.bmp	79	35	pic35.bmp	79	1	whitenoise.bmp	186	0	0	0	0	0	0	0	0	0	0	0	0	0	0	0	0	0	0	0	0	0	0	0	0	0	0	0	0	0	0	0	0	0	0	0	0	0	0	0
062518	14:01:03	5.0.12.0	92	associated	Rpleas_acq	Same	Rpleas	Bmasked	CS_B	2pleas	AMP_CSpleas	AMP1	6	21	0	0	300	300	0	0	398	50	0	1	0	0	0	1	blank2r.bmp	0	1	GFVZ	0	1	blank2r.bmp	79	5	pic5.bmp	79	1	whitenoise.bmp	186	0	0	0	0	0	0	0	0	0	0	0	0	0	0	0	0	0	0	0	0	0	0	0	0	0	0	0	0	0	0	0	0	0	0	0	0	0	0	0
062518	14:01:03	5.0.12.0	92	associated	Rpleas_acq	Same	Rpleas	Bmasked	CS_B	2pleas	AMP_CSpleas	AMP1	6	22	0	0	300	300	0	0	243	50	0	1	0	0	0	1	blank2r.bmp	0	1	GFVZ	0	1	blank2r.bmp	79	14	pic14.bmp	79	1	whitenoise.bmp	186	0	0	0	0	0	0	0	0	0	0	0	0	0	0	0	0	0	0	0	0	0	0	0	0	0	0	0	0	0	0	0	0	0	0	0	0	0	0	0
062518	14:01:03	5.0.12.0	92	associated	Rpleas_acq	Same	Rpleas	Bmasked	CS_B	2pleas	AMP_CSunple	AMP1	6	23	0	0	300	300	0	0	515	50	0	0	0	0	0	1	blank2r.bmp	0	1	BXCP	0	1	blank2r.bmp	79	93	pic93.bmp	79	1	whitenoise.bmp	186	0	0	0	0	0	0	0	0	0	0	0	0	0	0	0	0	0	0	0	0	0	0	0	0	0	0	0	0	0	0	0	0	0	0	0	0	0	0	0
062518	14:01:03	5.0.12.0	92	associated	Rpleas_acq	Same	Rpleas	Bmasked	CS_B	2pleas	AMP_CSunple	AMP1	6	24	0	0	300	300	0	0	573	50	0	0	0	0	0	1	blank2r.bmp	0	1	BXCP	0	1	blank2r.bmp	79	62	pic62.bmp	79	1	whitenoise.bmp	186	0	0	0	0	0	0	0	0	0	0	0	0	0	0	0	0	0	0	0	0	0	0	0	0	0	0	0	0	0	0	0	0	0	0	0	0	0	0	0
062518	14:01:03	5.0.12.0	92	associated	Rpleas_acq	Same	Rpleas	Bmasked	CS_B	2pleas	AMP_CSunple	AMP1	6	25	0	0	300	300	0	0	421	50	0	0	0	0	0	1	blank2r.bmp	0	1	BXCP	0	1	blank2r.bmp	79	55	pic55.bmp	79	1	whitenoise.bmp	186	0	0	0	0	0	0	0	0	0	0	0	0	0	0	0	0	0	0	0	0	0	0	0	0	0	0	0	0	0	0	0	0	0	0	0	0	0	0	0
062518	14:01:03	5.0.12.0	92	associated	Rpleas_acq	Same	Rpleas	Bmasked	CS_B	2pleas	AMP_CSpleas	AMP1	6	26	0	0	300	300	0	0	428	50	0	1	0	0	0	1	blank2r.bmp	0	1	GFVZ	0	1	blank2r.bmp	79	65	pic65.bmp	79	1	whitenoise.bmp	186	0	0	0	0	0	0	0	0	0	0	0	0	0	0	0	0	0	0	0	0	0	0	0	0	0	0	0	0	0	0	0	0	0	0	0	0	0	0	0
062518	14:01:03	5.0.12.0	92	associated	Rpleas_acq	Same	Rpleas	Bmasked	CS_B	2pleas	AMP_CSpleas	AMP1	6	27	0	0	300	300	0	0	390	50	0	1	0	0	0	1	blank2r.bmp	0	1	GFVZ	0	1	blank2r.bmp	79	49	pic49.bmp	79	1	whitenoise.bmp	186	0	0	0	0	0	0	0	0	0	0	0	0	0	0	0	0	0	0	0	0	0	0	0	0	0	0	0	0	0	0	0	0	0	0	0	0	0	0	0
062518	14:01:03	5.0.12.0	92	associated	Rpleas_acq	Same	Rpleas	Bmasked	CS_B	2pleas	AMP_CSpleas	AMP1	6	28	0	0	300	300	0	0	164	46	0	0	0	0	0	1	blank2r.bmp	0	1	GFVZ	0	1	blank2r.bmp	79	28	pic28.bmp	79	1	whitenoise.bmp	186	0	0	0	0	0	0	0	0	0	0	0	0	0	0	0	0	0	0	0	0	0	0	0	0	0	0	0	0	0	0	0	0	0	0	0	0	0	0	0
062518	14:01:03	5.0.12.0	92	associated	Rpleas_acq	Same	Rpleas	Bmasked	CS_B	2pleas	AMP_CSunple	AMP1	6	29	0	0	300	300	0	0	312	46	0	1	0	0	0	1	blank2r.bmp	0	1	BXCP	0	1	blank2r.bmp	79	54	pic54.bmp	79	1	whitenoise.bmp	186	0	0	0	0	0	0	0	0	0	0	0	0	0	0	0	0	0	0	0	0	0	0	0	0	0	0	0	0	0	0	0	0	0	0	0	0	0	0	0
062518	14:01:03	5.0.12.0	92	associated	Rpleas_acq	Same	Rpleas	Bmasked	CS_B	2pleas	AMP_CSunple	AMP1	6	30	0	0	300	300	0	0	25	50	0	0	0	0	0	1	blank2r.bmp	0	1	BXCP	0	1	blank2r.bmp	79	75	pic75.bmp	79	1	whitenoise.bmp	186	0	0	0	0	0	0	0	0	0	0	0	0	0	0	0	0	0	0	0	0	0	0	0	0	0	0	0	0	0	0	0	0	0	0	0	0	0	0	0
062518	14:01:03	5.0.12.0	92	associated	Rpleas_acq	Same	Rpleas	Bmasked	CS_B	2pleas	AMP_CSpleas	AMP1	6	31	0	0	300	300	0	0	207	46	0	0	0	0	0	1	blank2r.bmp	0	1	GFVZ	0	1	blank2r.bmp	79	88	pic88.bmp	79	1	whitenoise.bmp	186	0	0	0	0	0	0	0	0	0	0	0	0	0	0	0	0	0	0	0	0	0	0	0	0	0	0	0	0	0	0	0	0	0	0	0	0	0	0	0
062518	14:01:03	5.0.12.0	92	associated	Rpleas_acq	Same	Rpleas	Bmasked	CS_B	2pleas	AMP_CSpleas	AMP1	6	32	0	0	300	300	0	0	234	50	0	1	0	0	0	1	blank2r.bmp	0	1	GFVZ	0	1	blank2r.bmp	79	6	pic6.bmp	79	1	whitenoise.bmp	186	0	0	0	0	0	0	0	0	0	0	0	0	0	0	0	0	0	0	0	0	0	0	0	0	0	0	0	0	0	0	0	0	0	0	0	0	0	0	0
062518	14:01:03	5.0.12.0	92	associated	Rpleas_acq	Same	Rpleas	Bmasked	CS_B	2pleas	AMP_CSpleas	AMP1	6	33	0	0	300	300	0	0	43	46	0	0	0	0	0	1	blank2r.bmp	0	1	GFVZ	0	1	blank2r.bmp	79	97	pic97.bmp	79	1	whitenoise.bmp	186	0	0	0	0	0	0	0	0	0	0	0	0	0	0	0	0	0	0	0	0	0	0	0	0	0	0	0	0	0	0	0	0	0	0	0	0	0	0	0
062518	14:01:03	5.0.12.0	92	associated	Rpleas_acq	Same	Rpleas	Bmasked	CS_B	2pleas	AMP_CSunple	AMP1	6	34	0	0	300	300	0	0	118	50	0	0	0	0	0	1	blank2r.bmp	0	1	BXCP	0	1	blank2r.bmp	79	100	pic100.bmp	79	1	whitenoise.bmp	186	0	0	0	0	0	0	0	0	0	0	0	0	0	0	0	0	0	0	0	0	0	0	0	0	0	0	0	0	0	0	0	0	0	0	0	0	0	0	0
062518	14:01:03	5.0.12.0	92	associated	Rpleas_acq	Same	Rpleas	Bmasked	CS_B	2pleas	AMP_CSpleas	AMP1	6	35	0	0	300	300	0	0	63	50	0	1	0	0	0	1	blank2r.bmp	0	1	GFVZ	0	1	blank2r.bmp	79	34	pic34.bmp	79	1	whitenoise.bmp	186	0	0	0	0	0	0	0	0	0	0	0	0	0	0	0	0	0	0	0	0	0	0	0	0	0	0	0	0	0	0	0	0	0	0	0	0	0	0	0
062518	14:01:03	5.0.12.0	92	associated	Rpleas_acq	Same	Rpleas	Bmasked	CS_B	2pleas	AMP_CSpleas	AMP1	6	36	0	0	300	300	0	0	61	46	0	0	0	0	0	1	blank2r.bmp	0	1	GFVZ	0	1	blank2r.bmp	79	9	pic9.bmp	79	1	whitenoise.bmp	186	0	0	0	0	0	0	0	0	0	0	0	0	0	0	0	0	0	0	0	0	0	0	0	0	0	0	0	0	0	0	0	0	0	0	0	0	0	0	0
062518	14:01:03	5.0.12.0	92	associated	Rpleas_acq	Same	Rpleas	Bmasked	CS_B	2pleas	AMP_CSpleas	AMP1	6	37	0	0	300	300	0	0	26	50	0	1	0	0	0	1	blank2r.bmp	0	1	GFVZ	0	1	blank2r.bmp	79	17	pic17.bmp	79	1	whitenoise.bmp	186	0	0	0	0	0	0	0	0	0	0	0	0	0	0	0	0	0	0	0	0	0	0	0	0	0	0	0	0	0	0	0	0	0	0	0	0	0	0	0
062518	14:01:03	5.0.12.0	92	associated	Rpleas_acq	Same	Rpleas	Bmasked	CS_B	2pleas	AMP_CSpleas	AMP1	6	38	0	0	300	300	0	0	1600	50	0	1	0	0	0	1	blank2r.bmp	0	1	GFVZ	0	1	blank2r.bmp	79	68	pic68.bmp	79	1	whitenoise.bmp	186	0	0	0	0	0	0	0	0	0	0	0	0	0	0	0	0	0	0	0	0	0	0	0	0	0	0	0	0	0	0	0	0	0	0	0	0	0	0	0
062518	14:01:03	5.0.12.0	92	associated	Rpleas_acq	Same	Rpleas	Bmasked	CS_B	2pleas	AMP_CSpleas	AMP1	6	39	0	0	300	300	0	0	120	46	0	0	0	0	0	1	blank2r.bmp	0	1	GFVZ	0	1	blank2r.bmp	79	85	pic85.bmp	79	1	whitenoise.bmp	186	0	0	0	0	0	0	0	0	0	0	0	0	0	0	0	0	0	0	0	0	0	0	0	0	0	0	0	0	0	0	0	0	0	0	0	0	0	0	0
062518	14:01:03	5.0.12.0	92	associated	Rpleas_acq	Same	Rpleas	Bmasked	CS_B	2pleas	AMP_CSpleas	AMP1	6	40	0	0	300	300	0	0	17	50	0	1	0	0	0	1	blank2r.bmp	0	1	GFVZ	0	1	blank2r.bmp	79	39	pic39.bmp	79	1	whitenoise.bmp	186	0	0	0	0	0	0	0	0	0	0	0	0	0	0	0	0	0	0	0	0	0	0	0	0	0	0	0	0	0	0	0	0	0	0	0	0	0	0	0
062518	14:01:03	5.0.12.0	92	associated	Rpleas_acq	Same	Rpleas	Bmasked	CS_B	2pleas	AMP_CSunple	AMP1	6	41	0	0	300	300	0	0	102	46	0	1	0	0	0	1	blank2r.bmp	0	1	BXCP	0	1	blank2r.bmp	79	43	pic43.bmp	79	1	whitenoise.bmp	186	0	0	0	0	0	0	0	0	0	0	0	0	0	0	0	0	0	0	0	0	0	0	0	0	0	0	0	0	0	0	0	0	0	0	0	0	0	0	0
062518	14:01:03	5.0.12.0	92	associated	Rpleas_acq	Same	Rpleas	Bmasked	CS_B	2pleas	AMP_CSpleas	AMP1	6	42	0	0	300	300	0	0	796	46	0	0	0	0	0	1	blank2r.bmp	0	1	GFVZ	0	1	blank2r.bmp	79	31	pic31.bmp	79	1	whitenoise.bmp	186	0	0	0	0	0	0	0	0	0	0	0	0	0	0	0	0	0	0	0	0	0	0	0	0	0	0	0	0	0	0	0	0	0	0	0	0	0	0	0
062518	14:01:03	5.0.12.0	92	associated	Rpleas_acq	Same	Rpleas	Bmasked	CS_B	2pleas	AMP_CSunple	AMP1	6	43	0	0	300	300	0	0	114	46	0	1	0	0	0	1	blank2r.bmp	0	1	BXCP	0	1	blank2r.bmp	79	99	pic99.bmp	79	1	whitenoise.bmp	186	0	0	0	0	0	0	0	0	0	0	0	0	0	0	0	0	0	0	0	0	0	0	0	0	0	0	0	0	0	0	0	0	0	0	0	0	0	0	0
062518	14:01:03	5.0.12.0	92	associated	Rpleas_acq	Same	Rpleas	Bmasked	CS_B	2pleas	AMP_CSunple	AMP1	6	44	0	0	300	300	0	0	251	50	0	0	0	0	0	1	blank2r.bmp	0	1	BXCP	0	1	blank2r.bmp	79	83	pic83.bmp	79	1	whitenoise.bmp	186	0	0	0	0	0	0	0	0	0	0	0	0	0	0	0	0	0	0	0	0	0	0	0	0	0	0	0	0	0	0	0	0	0	0	0	0	0	0	0
062518	14:01:03	5.0.12.0	92	associated	Rpleas_acq	Same	Rpleas	Bmasked	CS_B	2pleas	AMP_CSunple	AMP1	6	45	0	0	300	300	0	0	142	50	0	0	0	0	0	1	blank2r.bmp	0	1	BXCP	0	1	blank2r.bmp	79	96	pic96.bmp	79	1	whitenoise.bmp	186	0	0	0	0	0	0	0	0	0	0	0	0	0	0	0	0	0	0	0	0	0	0	0	0	0	0	0	0	0	0	0	0	0	0	0	0	0	0	0
062518	14:01:03	5.0.12.0	92	associated	Rpleas_acq	Same	Rpleas	Bmasked	CS_B	2pleas	AMP_CSunple	AMP1	6	46	0	0	300	300	0	0	236	50	0	0	0	0	0	1	blank2r.bmp	0	1	BXCP	0	1	blank2r.bmp	79	69	pic69.bmp	79	1	whitenoise.bmp	186	0	0	0	0	0	0	0	0	0	0	0	0	0	0	0	0	0	0	0	0	0	0	0	0	0	0	0	0	0	0	0	0	0	0	0	0	0	0	0
062518	14:01:03	5.0.12.0	92	associated	Rpleas_acq	Same	Rpleas	Bmasked	CS_B	2pleas	AMP_CSpleas	AMP1	6	47	0	0	300	300	0	0	173	50	0	1	0	0	0	1	blank2r.bmp	0	1	GFVZ	0	1	blank2r.bmp	79	52	pic52.bmp	79	1	whitenoise.bmp	186	0	0	0	0	0	0	0	0	0	0	0	0	0	0	0	0	0	0	0	0	0	0	0	0	0	0	0	0	0	0	0	0	0	0	0	0	0	0	0
062518	14:01:03	5.0.12.0	92	associated	Rpleas_acq	Same	Rpleas	Bmasked	CS_B	2pleas	AMP_CSpleas	AMP1	6	48	0	0	300	300	0	0	144	50	0	1	0	0	0	1	blank2r.bmp	0	1	GFVZ	0	1	blank2r.bmp	79	37	pic37.bmp	79	1	whitenoise.bmp	186	0	0	0	0	0	0	0	0	0	0	0	0	0	0	0	0	0	0	0	0	0	0	0	0	0	0	0	0	0	0	0	0	0	0	0	0	0	0	0
062518	14:01:03	5.0.12.0	92	associated	Rpleas_acq	Same	Rpleas	Bmasked	CS_B	2pleas	AMP_CSunple	AMP1	6	49	0	0	300	300	0	0	222	50	0	0	0	0	0	1	blank2r.bmp	0	1	BXCP	0	1	blank2r.bmp	79	26	pic26.bmp	79	1	whitenoise.bmp	186	0	0	0	0	0	0	0	0	0	0	0	0	0	0	0	0	0	0	0	0	0	0	0	0	0	0	0	0	0	0	0	0	0	0	0	0	0	0	0
062518	14:01:03	5.0.12.0	92	associated	Rpleas_acq	Same	Rpleas	Bmasked	CS_B	2pleas	AMP_CSunple	AMP1	6	50	0	0	300	300	0	0	831	46	0	1	0	0	0	1	blank2r.bmp	0	1	BXCP	0	1	blank2r.bmp	79	98	pic98.bmp	79	1	whitenoise.bmp	186	0	0	0	0	0	0	0	0	0	0	0	0	0	0	0	0	0	0	0	0	0	0	0	0	0	0	0	0	0	0	0	0	0	0	0	0	0	0	0
062518	14:01:03	5.0.12.0	92	associated	Rpleas_acq	Same	Rpleas	Bmasked	CS_B	2pleas	AMP_CSunple	AMP2	7	1	0	0	300	300	0	0	293	50	0	0	0	0	0	1	blank2r.bmp	0	1	BXCP	0	1	blank2r.bmp	79	92	pic92.bmp	79	1	whitenoise.bmp	186	0	0	0	0	0	0	0	0	0	0	0	0	0	0	0	0	0	0	0	0	0	0	0	0	0	0	0	0	0	0	0	0	0	0	0	0	0	0	0
062518	14:01:03	5.0.12.0	92	associated	Rpleas_acq	Same	Rpleas	Bmasked	CS_B	2pleas	AMP_CSpleas	AMP2	7	2	0	0	300	300	0	0	417	50	0	1	0	0	0	1	blank2r.bmp	0	1	GFVZ	0	1	blank2r.bmp	79	1	pic1.bmp	79	1	whitenoise.bmp	186	0	0	0	0	0	0	0	0	0	0	0	0	0	0	0	0	0	0	0	0	0	0	0	0	0	0	0	0	0	0	0	0	0	0	0	0	0	0	0
062518	14:01:03	5.0.12.0	92	associated	Rpleas_acq	Same	Rpleas	Bmasked	CS_B	2pleas	AMP_CSunple	AMP2	7	3	0	0	300	300	0	0	392	50	0	0	0	0	0	1	blank2r.bmp	0	1	BXCP	0	1	blank2r.bmp	79	10	pic10.bmp	79	1	whitenoise.bmp	186	0	0	0	0	0	0	0	0	0	0	0	0	0	0	0	0	0	0	0	0	0	0	0	0	0	0	0	0	0	0	0	0	0	0	0	0	0	0	0
062518	14:01:03	5.0.12.0	92	associated	Rpleas_acq	Same	Rpleas	Bmasked	CS_B	2pleas	AMP_CSpleas	AMP2	7	4	0	0	300	300	0	0	314	50	0	1	0	0	0	1	blank2r.bmp	0	1	GFVZ	0	1	blank2r.bmp	79	11	pic11.bmp	79	1	whitenoise.bmp	186	0	0	0	0	0	0	0	0	0	0	0	0	0	0	0	0	0	0	0	0	0	0	0	0	0	0	0	0	0	0	0	0	0	0	0	0	0	0	0
062518	14:01:03	5.0.12.0	92	associated	Rpleas_acq	Same	Rpleas	Bmasked	CS_B	2pleas	AMP_CSunple	AMP2	7	5	0	0	300	300	0	0	347	50	0	0	0	0	0	1	blank2r.bmp	0	1	BXCP	0	1	blank2r.bmp	79	33	pic33.bmp	79	1	whitenoise.bmp	186	0	0	0	0	0	0	0	0	0	0	0	0	0	0	0	0	0	0	0	0	0	0	0	0	0	0	0	0	0	0	0	0	0	0	0	0	0	0	0
062518	14:01:03	5.0.12.0	92	associated	Rpleas_acq	Same	Rpleas	Bmasked	CS_B	2pleas	AMP_CSpleas	AMP2	7	6	0	0	300	300	0	0	228	46	0	0	0	0	0	1	blank2r.bmp	0	1	GFVZ	0	1	blank2r.bmp	79	15	pic15.bmp	79	1	whitenoise.bmp	186	0	0	0	0	0	0	0	0	0	0	0	0	0	0	0	0	0	0	0	0	0	0	0	0	0	0	0	0	0	0	0	0	0	0	0	0	0	0	0
062518	14:01:03	5.0.12.0	92	associated	Rpleas_acq	Same	Rpleas	Bmasked	CS_B	2pleas	AMP_CSunple	AMP2	7	7	0	0	300	300	0	0	355	46	0	1	0	0	0	1	blank2r.bmp	0	1	BXCP	0	1	blank2r.bmp	79	71	pic71.bmp	79	1	whitenoise.bmp	186	0	0	0	0	0	0	0	0	0	0	0	0	0	0	0	0	0	0	0	0	0	0	0	0	0	0	0	0	0	0	0	0	0	0	0	0	0	0	0
062518	14:01:03	5.0.12.0	92	associated	Rpleas_acq	Same	Rpleas	Bmasked	CS_B	2pleas	AMP_CSunple	AMP2	7	8	0	0	300	300	0	0	204	50	0	0	0	0	0	1	blank2r.bmp	0	1	BXCP	0	1	blank2r.bmp	79	38	pic38.bmp	79	1	whitenoise.bmp	186	0	0	0	0	0	0	0	0	0	0	0	0	0	0	0	0	0	0	0	0	0	0	0	0	0	0	0	0	0	0	0	0	0	0	0	0	0	0	0
062518	14:01:03	5.0.12.0	92	associated	Rpleas_acq	Same	Rpleas	Bmasked	CS_B	2pleas	AMP_CSunple	AMP2	7	9	0	0	300	300	0	0	183	46	0	1	0	0	0	1	blank2r.bmp	0	1	BXCP	0	1	blank2r.bmp	79	57	pic57.bmp	79	1	whitenoise.bmp	186	0	0	0	0	0	0	0	0	0	0	0	0	0	0	0	0	0	0	0	0	0	0	0	0	0	0	0	0	0	0	0	0	0	0	0	0	0	0	0
062518	14:01:03	5.0.12.0	92	associated	Rpleas_acq	Same	Rpleas	Bmasked	CS_B	2pleas	AMP_CSpleas	AMP2	7	10	0	0	300	300	0	0	157	50	0	1	0	0	0	1	blank2r.bmp	0	1	GFVZ	0	1	blank2r.bmp	79	81	pic81.bmp	79	1	whitenoise.bmp	186	0	0	0	0	0	0	0	0	0	0	0	0	0	0	0	0	0	0	0	0	0	0	0	0	0	0	0	0	0	0	0	0	0	0	0	0	0	0	0
062518	14:01:03	5.0.12.0	92	associated	Rpleas_acq	Same	Rpleas	Bmasked	CS_B	2pleas	AMP_CSpleas	AMP2	7	11	0	0	300	300	0	0	129	50	0	1	0	0	0	1	blank2r.bmp	0	1	GFVZ	0	1	blank2r.bmp	79	30	pic30.bmp	79	1	whitenoise.bmp	186	0	0	0	0	0	0	0	0	0	0	0	0	0	0	0	0	0	0	0	0	0	0	0	0	0	0	0	0	0	0	0	0	0	0	0	0	0	0	0
062518	14:01:03	5.0.12.0	92	associated	Rpleas_acq	Same	Rpleas	Bmasked	CS_B	2pleas	AMP_CSunple	AMP2	7	12	0	0	300	300	0	0	108	50	0	0	0	0	0	1	blank2r.bmp	0	1	BXCP	0	1	blank2r.bmp	79	40	pic40.bmp	79	1	whitenoise.bmp	186	0	0	0	0	0	0	0	0	0	0	0	0	0	0	0	0	0	0	0	0	0	0	0	0	0	0	0	0	0	0	0	0	0	0	0	0	0	0	0
062518	14:01:03	5.0.12.0	92	associated	Rpleas_acq	Same	Rpleas	Bmasked	CS_B	2pleas	AMP_CSpleas	AMP2	7	13	0	0	300	300	0	0	53	46	0	0	0	0	0	1	blank2r.bmp	0	1	GFVZ	0	1	blank2r.bmp	79	47	pic47.bmp	79	1	whitenoise.bmp	186	0	0	0	0	0	0	0	0	0	0	0	0	0	0	0	0	0	0	0	0	0	0	0	0	0	0	0	0	0	0	0	0	0	0	0	0	0	0	0
062518	14:01:03	5.0.12.0	92	associated	Rpleas_acq	Same	Rpleas	Bmasked	CS_B	2pleas	AMP_CSunple	AMP2	7	14	0	0	300	300	0	0	128	46	0	1	0	0	0	1	blank2r.bmp	0	1	BXCP	0	1	blank2r.bmp	79	76	pic76.bmp	79	1	whitenoise.bmp	186	0	0	0	0	0	0	0	0	0	0	0	0	0	0	0	0	0	0	0	0	0	0	0	0	0	0	0	0	0	0	0	0	0	0	0	0	0	0	0
062518	14:01:03	5.0.12.0	92	associated	Rpleas_acq	Same	Rpleas	Bmasked	CS_B	2pleas	AMP_CSunple	AMP2	7	15	0	0	300	300	0	0	139	46	0	1	0	0	0	1	blank2r.bmp	0	1	BXCP	0	1	blank2r.bmp	79	19	pic19.bmp	79	1	whitenoise.bmp	186	0	0	0	0	0	0	0	0	0	0	0	0	0	0	0	0	0	0	0	0	0	0	0	0	0	0	0	0	0	0	0	0	0	0	0	0	0	0	0
062518	14:01:03	5.0.12.0	92	associated	Rpleas_acq	Same	Rpleas	Bmasked	CS_B	2pleas	AMP_CSpleas	AMP2	7	16	0	0	300	300	0	0	137	46	0	0	0	0	0	1	blank2r.bmp	0	1	GFVZ	0	1	blank2r.bmp	79	22	pic22.bmp	79	1	whitenoise.bmp	186	0	0	0	0	0	0	0	0	0	0	0	0	0	0	0	0	0	0	0	0	0	0	0	0	0	0	0	0	0	0	0	0	0	0	0	0	0	0	0
062518	14:01:03	5.0.12.0	92	associated	Rpleas_acq	Same	Rpleas	Bmasked	CS_B	2pleas	AMP_CSpleas	AMP2	7	17	0	0	300	300	0	0	116	46	0	0	0	0	0	1	blank2r.bmp	0	1	GFVZ	0	1	blank2r.bmp	79	63	pic63.bmp	79	1	whitenoise.bmp	186	0	0	0	0	0	0	0	0	0	0	0	0	0	0	0	0	0	0	0	0	0	0	0	0	0	0	0	0	0	0	0	0	0	0	0	0	0	0	0
062518	14:01:03	5.0.12.0	92	associated	Rpleas_acq	Same	Rpleas	Bmasked	CS_B	2pleas	AMP_CSpleas	AMP2	7	18	0	0	300	300	0	0	77	46	0	0	0	0	0	1	blank2r.bmp	0	1	GFVZ	0	1	blank2r.bmp	79	50	pic50.bmp	79	1	whitenoise.bmp	186	0	0	0	0	0	0	0	0	0	0	0	0	0	0	0	0	0	0	0	0	0	0	0	0	0	0	0	0	0	0	0	0	0	0	0	0	0	0	0
062518	14:01:03	5.0.12.0	92	associated	Rpleas_acq	Same	Rpleas	Bmasked	CS_B	2pleas	AMP_CSpleas	AMP2	7	19	0	0	300	300	0	0	141	46	0	0	0	0	0	1	blank2r.bmp	0	1	GFVZ	0	1	blank2r.bmp	79	67	pic67.bmp	79	1	whitenoise.bmp	186	0	0	0	0	0	0	0	0	0	0	0	0	0	0	0	0	0	0	0	0	0	0	0	0	0	0	0	0	0	0	0	0	0	0	0	0	0	0	0
062518	14:01:03	5.0.12.0	92	associated	Rpleas_acq	Same	Rpleas	Bmasked	CS_B	2pleas	AMP_CSpleas	AMP2	7	20	0	0	300	300	0	0	971	50	0	1	0	0	0	1	blank2r.bmp	0	1	GFVZ	0	1	blank2r.bmp	79	16	pic16.bmp	79	1	whitenoise.bmp	186	0	0	0	0	0	0	0	0	0	0	0	0	0	0	0	0	0	0	0	0	0	0	0	0	0	0	0	0	0	0	0	0	0	0	0	0	0	0	0
062518	14:01:03	5.0.12.0	92	associated	Rpleas_acq	Same	Rpleas	Bmasked	CS_B	2pleas	AMP_CSunple	AMP2	7	21	0	0	300	300	0	0	36	50	0	0	0	0	0	1	blank2r.bmp	0	1	BXCP	0	1	blank2r.bmp	79	21	pic21.bmp	79	1	whitenoise.bmp	186	0	0	0	0	0	0	0	0	0	0	0	0	0	0	0	0	0	0	0	0	0	0	0	0	0	0	0	0	0	0	0	0	0	0	0	0	0	0	0
062518	14:01:03	5.0.12.0	92	associated	Rpleas_acq	Same	Rpleas	Bmasked	CS_B	2pleas	AMP_CSunple	AMP2	7	22	0	0	300	300	0	0	956	46	0	1	0	0	0	1	blank2r.bmp	0	1	BXCP	0	1	blank2r.bmp	79	70	pic70.bmp	79	1	whitenoise.bmp	186	0	0	0	0	0	0	0	0	0	0	0	0	0	0	0	0	0	0	0	0	0	0	0	0	0	0	0	0	0	0	0	0	0	0	0	0	0	0	0
062518	14:01:03	5.0.12.0	92	associated	Rpleas_acq	Same	Rpleas	Bmasked	CS_B	2pleas	AMP_CSpleas	AMP2	7	23	0	0	300	300	0	0	51	50	0	1	0	0	0	1	blank2r.bmp	0	1	GFVZ	0	1	blank2r.bmp	79	24	pic24.bmp	79	1	whitenoise.bmp	186	0	0	0	0	0	0	0	0	0	0	0	0	0	0	0	0	0	0	0	0	0	0	0	0	0	0	0	0	0	0	0	0	0	0	0	0	0	0	0
062518	14:01:03	5.0.12.0	92	associated	Rpleas_acq	Same	Rpleas	Bmasked	CS_B	2pleas	AMP_CSunple	AMP2	7	24	0	0	300	300	0	0	13	46	0	1	0	0	0	1	blank2r.bmp	0	1	BXCP	0	1	blank2r.bmp	79	25	pic25.bmp	79	1	whitenoise.bmp	186	0	0	0	0	0	0	0	0	0	0	0	0	0	0	0	0	0	0	0	0	0	0	0	0	0	0	0	0	0	0	0	0	0	0	0	0	0	0	0
062518	14:01:03	5.0.12.0	92	associated	Rpleas_acq	Same	Rpleas	Bmasked	CS_B	2pleas	AMP_CSpleas	AMP2	7	25	0	0	300	300	0	0	32	50	0	1	0	0	0	1	blank2r.bmp	0	1	GFVZ	0	1	blank2r.bmp	79	2	pic2.bmp	79	1	whitenoise.bmp	186	0	0	0	0	0	0	0	0	0	0	0	0	0	0	0	0	0	0	0	0	0	0	0	0	0	0	0	0	0	0	0	0	0	0	0	0	0	0	0
062518	14:01:03	5.0.12.0	92	associated	Rpleas_acq	Same	Rpleas	Bmasked	CS_B	2pleas	AMP_CSpleas	AMP2	7	26	0	0	300	300	0	0	9	46	0	0	0	0	0	1	blank2r.bmp	0	1	GFVZ	0	1	blank2r.bmp	79	84	pic84.bmp	79	1	whitenoise.bmp	186	0	0	0	0	0	0	0	0	0	0	0	0	0	0	0	0	0	0	0	0	0	0	0	0	0	0	0	0	0	0	0	0	0	0	0	0	0	0	0
062518	14:01:03	5.0.12.0	92	associated	Rpleas_acq	Same	Rpleas	Bmasked	CS_B	2pleas	AMP_CSpleas	AMP2	7	27	0	0	300	300	0	0	43	50	0	1	0	0	0	1	blank2r.bmp	0	1	GFVZ	0	1	blank2r.bmp	79	41	pic41.bmp	79	1	whitenoise.bmp	186	0	0	0	0	0	0	0	0	0	0	0	0	0	0	0	0	0	0	0	0	0	0	0	0	0	0	0	0	0	0	0	0	0	0	0	0	0	0	0
062518	14:01:03	5.0.12.0	92	associated	Rpleas_acq	Same	Rpleas	Bmasked	CS_B	2pleas	AMP_CSpleas	AMP2	7	28	0	0	300	300	0	0	884	46	0	0	0	0	0	1	blank2r.bmp	0	1	GFVZ	0	1	blank2r.bmp	79	61	pic61.bmp	79	1	whitenoise.bmp	186	0	0	0	0	0	0	0	0	0	0	0	0	0	0	0	0	0	0	0	0	0	0	0	0	0	0	0	0	0	0	0	0	0	0	0	0	0	0	0
062518	14:01:03	5.0.12.0	92	associated	Rpleas_acq	Same	Rpleas	Bmasked	CS_B	2pleas	AMP_CSunple	AMP2	7	29	0	0	300	300	0	0	42	46	0	1	0	0	0	1	blank2r.bmp	0	1	BXCP	0	1	blank2r.bmp	79	48	pic48.bmp	79	1	whitenoise.bmp	186	0	0	0	0	0	0	0	0	0	0	0	0	0	0	0	0	0	0	0	0	0	0	0	0	0	0	0	0	0	0	0	0	0	0	0	0	0	0	0
062518	14:01:03	5.0.12.0	92	associated	Rpleas_acq	Same	Rpleas	Bmasked	CS_B	2pleas	AMP_CSunple	AMP2	7	30	0	0	300	300	0	0	34	50	0	0	0	0	0	1	blank2r.bmp	0	1	BXCP	0	1	blank2r.bmp	79	82	pic82.bmp	79	1	whitenoise.bmp	186	0	0	0	0	0	0	0	0	0	0	0	0	0	0	0	0	0	0	0	0	0	0	0	0	0	0	0	0	0	0	0	0	0	0	0	0	0	0	0
062518	14:01:03	5.0.12.0	92	associated	Rpleas_acq	Same	Rpleas	Bmasked	CS_B	2pleas	AMP_CSunple	AMP2	7	31	0	0	300	300	0	0	13	50	0	0	0	0	0	1	blank2r.bmp	0	1	BXCP	0	1	blank2r.bmp	79	8	pic8.bmp	79	1	whitenoise.bmp	186	0	0	0	0	0	0	0	0	0	0	0	0	0	0	0	0	0	0	0	0	0	0	0	0	0	0	0	0	0	0	0	0	0	0	0	0	0	0	0
062518	14:01:03	5.0.12.0	92	associated	Rpleas_acq	Same	Rpleas	Bmasked	CS_B	2pleas	AMP_CSunple	AMP2	7	32	0	0	300	300	0	0	2	46	0	1	0	0	0	1	blank2r.bmp	0	1	BXCP	0	1	blank2r.bmp	79	78	pic78.bmp	79	1	whitenoise.bmp	186	0	0	0	0	0	0	0	0	0	0	0	0	0	0	0	0	0	0	0	0	0	0	0	0	0	0	0	0	0	0	0	0	0	0	0	0	0	0	0
062518	14:01:03	5.0.12.0	92	associated	Rpleas_acq	Same	Rpleas	Bmasked	CS_B	2pleas	AMP_CSpleas	AMP2	7	33	0	0	300	300	0	0	51	46	0	0	0	0	0	1	blank2r.bmp	0	1	GFVZ	0	1	blank2r.bmp	79	36	pic36.bmp	79	1	whitenoise.bmp	186	0	0	0	0	0	0	0	0	0	0	0	0	0	0	0	0	0	0	0	0	0	0	0	0	0	0	0	0	0	0	0	0	0	0	0	0	0	0	0
062518	14:01:03	5.0.12.0	92	associated	Rpleas_acq	Same	Rpleas	Bmasked	CS_B	2pleas	AMP_CSpleas	AMP2	7	34	0	0	300	300	0	0	718	46	0	0	0	0	0	1	blank2r.bmp	0	1	GFVZ	0	1	blank2r.bmp	79	3	pic3.bmp	79	1	whitenoise.bmp	186	0	0	0	0	0	0	0	0	0	0	0	0	0	0	0	0	0	0	0	0	0	0	0	0	0	0	0	0	0	0	0	0	0	0	0	0	0	0	0
062518	14:01:03	5.0.12.0	92	associated	Rpleas_acq	Same	Rpleas	Bmasked	CS_B	2pleas	AMP_CSpleas	AMP2	7	35	0	0	300	300	0	0	51	46	0	0	0	0	0	1	blank2r.bmp	0	1	GFVZ	0	1	blank2r.bmp	79	58	pic58.bmp	79	1	whitenoise.bmp	186	0	0	0	0	0	0	0	0	0	0	0	0	0	0	0	0	0	0	0	0	0	0	0	0	0	0	0	0	0	0	0	0	0	0	0	0	0	0	0
062518	14:01:03	5.0.12.0	92	associated	Rpleas_acq	Same	Rpleas	Bmasked	CS_B	2pleas	AMP_CSpleas	AMP2	7	36	0	0	300	300	0	0	14	46	0	0	0	0	0	1	blank2r.bmp	0	1	GFVZ	0	1	blank2r.bmp	79	64	pic64.bmp	79	1	whitenoise.bmp	186	0	0	0	0	0	0	0	0	0	0	0	0	0	0	0	0	0	0	0	0	0	0	0	0	0	0	0	0	0	0	0	0	0	0	0	0	0	0	0
062518	14:01:03	5.0.12.0	92	associated	Rpleas_acq	Same	Rpleas	Bmasked	CS_B	2pleas	AMP_CSunple	AMP2	7	37	0	0	300	300	0	0	36	46	0	1	0	0	0	1	blank2r.bmp	0	1	BXCP	0	1	blank2r.bmp	79	89	pic89.bmp	79	1	whitenoise.bmp	186	0	0	0	0	0	0	0	0	0	0	0	0	0	0	0	0	0	0	0	0	0	0	0	0	0	0	0	0	0	0	0	0	0	0	0	0	0	0	0
062518	14:01:03	5.0.12.0	92	associated	Rpleas_acq	Same	Rpleas	Bmasked	CS_B	2pleas	AMP_CSunple	AMP2	7	38	0	0	300	300	0	0	764	46	0	1	0	0	0	1	blank2r.bmp	0	1	BXCP	0	1	blank2r.bmp	79	77	pic77.bmp	79	1	whitenoise.bmp	186	0	0	0	0	0	0	0	0	0	0	0	0	0	0	0	0	0	0	0	0	0	0	0	0	0	0	0	0	0	0	0	0	0	0	0	0	0	0	0
062518	14:01:03	5.0.12.0	92	associated	Rpleas_acq	Same	Rpleas	Bmasked	CS_B	2pleas	AMP_CSunple	AMP2	7	39	0	0	300	300	0	0	41	46	0	1	0	0	0	1	blank2r.bmp	0	1	BXCP	0	1	blank2r.bmp	79	53	pic53.bmp	79	1	whitenoise.bmp	186	0	0	0	0	0	0	0	0	0	0	0	0	0	0	0	0	0	0	0	0	0	0	0	0	0	0	0	0	0	0	0	0	0	0	0	0	0	0	0
062518	14:01:03	5.0.12.0	92	associated	Rpleas_acq	Same	Rpleas	Bmasked	CS_B	2pleas	AMP_CSpleas	AMP2	7	40	0	0	300	300	0	0	36	46	0	0	0	0	0	1	blank2r.bmp	0	1	GFVZ	0	1	blank2r.bmp	79	90	pic90.bmp	79	1	whitenoise.bmp	186	0	0	0	0	0	0	0	0	0	0	0	0	0	0	0	0	0	0	0	0	0	0	0	0	0	0	0	0	0	0	0	0	0	0	0	0	0	0	0
062518	14:01:03	5.0.12.0	92	associated	Rpleas_acq	Same	Rpleas	Bmasked	CS_B	2pleas	AMP_CSunple	AMP2	7	41	0	0	300	300	0	0	588	46	0	1	0	0	0	1	blank2r.bmp	0	1	BXCP	0	1	blank2r.bmp	79	91	pic91.bmp	79	1	whitenoise.bmp	186	0	0	0	0	0	0	0	0	0	0	0	0	0	0	0	0	0	0	0	0	0	0	0	0	0	0	0	0	0	0	0	0	0	0	0	0	0	0	0
062518	14:01:03	5.0.12.0	92	associated	Rpleas_acq	Same	Rpleas	Bmasked	CS_B	2pleas	AMP_CSunple	AMP2	7	42	0	0	300	300	0	0	20	50	0	0	0	0	0	1	blank2r.bmp	0	1	BXCP	0	1	blank2r.bmp	79	18	pic18.bmp	79	1	whitenoise.bmp	186	0	0	0	0	0	0	0	0	0	0	0	0	0	0	0	0	0	0	0	0	0	0	0	0	0	0	0	0	0	0	0	0	0	0	0	0	0	0	0
062518	14:01:03	5.0.12.0	92	associated	Rpleas_acq	Same	Rpleas	Bmasked	CS_B	2pleas	AMP_CSunple	AMP2	7	43	0	0	300	300	0	0	7	46	0	1	0	0	0	1	blank2r.bmp	0	1	BXCP	0	1	blank2r.bmp	79	12	pic12.bmp	79	1	whitenoise.bmp	186	0	0	0	0	0	0	0	0	0	0	0	0	0	0	0	0	0	0	0	0	0	0	0	0	0	0	0	0	0	0	0	0	0	0	0	0	0	0	0
062518	14:01:03	5.0.12.0	92	associated	Rpleas_acq	Same	Rpleas	Bmasked	CS_B	2pleas	AMP_CSpleas	AMP2	7	44	0	0	300	300	0	0	634	50	0	1	0	0	0	1	blank2r.bmp	0	1	GFVZ	0	1	blank2r.bmp	79	56	pic56.bmp	79	1	whitenoise.bmp	186	0	0	0	0	0	0	0	0	0	0	0	0	0	0	0	0	0	0	0	0	0	0	0	0	0	0	0	0	0	0	0	0	0	0	0	0	0	0	0
062518	14:01:03	5.0.12.0	92	associated	Rpleas_acq	Same	Rpleas	Bmasked	CS_B	2pleas	AMP_CSunple	AMP2	7	45	0	0	300	300	0	0	76	46	0	1	0	0	0	1	blank2r.bmp	0	1	BXCP	0	1	blank2r.bmp	79	74	pic74.bmp	79	1	whitenoise.bmp	186	0	0	0	0	0	0	0	0	0	0	0	0	0	0	0	0	0	0	0	0	0	0	0	0	0	0	0	0	0	0	0	0	0	0	0	0	0	0	0
062518	14:01:03	5.0.12.0	92	associated	Rpleas_acq	Same	Rpleas	Bmasked	CS_B	2pleas	AMP_CSunple	AMP2	7	46	0	0	300	300	0	0	12	50	0	0	0	0	0	1	blank2r.bmp	0	1	BXCP	0	1	blank2r.bmp	79	13	pic13.bmp	79	1	whitenoise.bmp	186	0	0	0	0	0	0	0	0	0	0	0	0	0	0	0	0	0	0	0	0	0	0	0	0	0	0	0	0	0	0	0	0	0	0	0	0	0	0	0
062518	14:01:03	5.0.12.0	92	associated	Rpleas_acq	Same	Rpleas	Bmasked	CS_B	2pleas	AMP_CSpleas	AMP2	7	47	0	0	300	300	0	0	34	50	0	1	0	0	0	1	blank2r.bmp	0	1	GFVZ	0	1	blank2r.bmp	79	94	pic94.bmp	79	1	whitenoise.bmp	186	0	0	0	0	0	0	0	0	0	0	0	0	0	0	0	0	0	0	0	0	0	0	0	0	0	0	0	0	0	0	0	0	0	0	0	0	0	0	0
062518	14:01:03	5.0.12.0	92	associated	Rpleas_acq	Same	Rpleas	Bmasked	CS_B	2pleas	AMP_CSpleas	AMP2	7	48	0	0	300	300	0	0	58	50	0	1	0	0	0	1	blank2r.bmp	0	1	GFVZ	0	1	blank2r.bmp	79	7	pic7.bmp	79	1	whitenoise.bmp	186	0	0	0	0	0	0	0	0	0	0	0	0	0	0	0	0	0	0	0	0	0	0	0	0	0	0	0	0	0	0	0	0	0	0	0	0	0	0	0
062518	14:01:03	5.0.12.0	92	associated	Rpleas_acq	Same	Rpleas	Bmasked	CS_B	2pleas	AMP_CSpleas	AMP2	7	49	0	0	300	300	0	0	53	50	0	1	0	0	0	1	blank2r.bmp	0	1	GFVZ	0	1	blank2r.bmp	79	72	pic72.bmp	79	1	whitenoise.bmp	186	0	0	0	0	0	0	0	0	0	0	0	0	0	0	0	0	0	0	0	0	0	0	0	0	0	0	0	0	0	0	0	0	0	0	0	0	0	0	0
062518	14:01:03	5.0.12.0	92	associated	Rpleas_acq	Same	Rpleas	Bmasked	CS_B	2pleas	AMP_CSunple	AMP2	7	50	0	0	300	300	0	0	563	46	0	1	0	0	0	1	blank2r.bmp	0	1	BXCP	0	1	blank2r.bmp	79	86	pic86.bmp	79	1	whitenoise.bmp	186	0	0	0	0	0	0	0	0	0	0	0	0	0	0	0	0	0	0	0	0	0	0	0	0	0	0	0	0	0	0	0	0	0	0	0	0	0	0	0
062518	14:01:03	5.0.12.0	92	associated	Rpleas_acq	Same	Rpleas	Bmasked	CS_B	2pleas	EvalRating_firsttwo	EvalRating_firsttwo	8	1	0	0	300	300	0	0	3621	line	-436,25	0	0	0	0	1	eraser	0	1	Wie angenehm oder unangenehm finden Sie die  Buchstabenkette PSFD?	0	1	leftborder	0	1	rightborder	0	1	line	0	1	Unangenehm	0	1	Angenehm	0	0	0	0	0	0	0	0	0	0	0	0	0	0	0	0	0	0	0	0	0	0	0	0	0	0	0	0	0	0	0	0	0	0
062518	14:01:03	5.0.12.0	92	associated	Rpleas_acq	Same	Rpleas	Bmasked	CS_B	2pleas	EvalRating_lastfour	EvalRating_lastfour	9	1	0	0	300	300	0	0	2936	line	312,5	0	0	0	0	1	eraser	0	3	Wie angenehm oder unangenehm finden Sie die  Buchstabenkette JTBV?	0	1	leftborder	0	1	rightborder	0	1	line	0	1	Unangenehm	0	1	Angenehm	0	0	0	0	0	0	0	0	0	0	0	0	0	0	0	0	0	0	0	0	0	0	0	0	0	0	0	0	0	0	0	0	0	0
062518	14:01:03	5.0.12.0	92	associated	Rpleas_acq	Same	Rpleas	Bmasked	CS_B	2pleas	blank_screen	EvalRating_lastfour	9	3	0	0	300	300	0	0	0	0	312,5	0	0	0	0	1	eraser	0	0	0	0	0	0	0	0	0	0	0	0	0	0	0	0	0	0	0	0	0	0	0	0	0	0	0	0	0	0	0	0	0	0	0	0	0	0	0	0	0	0	0	0	0	0	0	0	0	0	0	0
062518	14:01:03	5.0.12.0	92	associated	Rpleas_acq	Same	Rpleas	Bmasked	CS_B	2pleas	EvalRating_lastfour	EvalRating_lastfour	9	4	0	0	300	300	0	0	1805	line	33,75	0	0	0	0	1	eraser	0	1	Wie angenehm oder unangenehm finden Sie die  Buchstabenkette BXCP?	0	1	leftborder	0	1	rightborder	0	1	line	0	1	Unangenehm	0	1	Angenehm	0	0	0	0	0	0	0	0	0	0	0	0	0	0	0	0	0	0	0	0	0	0	0	0	0	0	0	0	0	0	0	0	0	0
062518	14:01:03	5.0.12.0	92	associated	Rpleas_acq	Same	Rpleas	Bmasked	CS_B	2pleas	blank_screen	EvalRating_lastfour	9	6	0	0	300	300	0	0	0	0	33,75	0	0	0	0	1	eraser	0	0	0	0	0	0	0	0	0	0	0	0	0	0	0	0	0	0	0	0	0	0	0	0	0	0	0	0	0	0	0	0	0	0	0	0	0	0	0	0	0	0	0	0	0	0	0	0	0	0	0	0
062518	14:01:03	5.0.12.0	92	associated	Rpleas_acq	Same	Rpleas	Bmasked	CS_B	2pleas	EvalRating_lastfour	EvalRating_lastfour	9	7	0	0	300	300	0	0	1878	line	-273,75	0	0	0	0	1	eraser	0	2	Wie angenehm oder unangenehm finden Sie die  Buchstabenkette GFVZ?	0	1	leftborder	0	1	rightborder	0	1	line	0	1	Unangenehm	0	1	Angenehm	0	0	0	0	0	0	0	0	0	0	0	0	0	0	0	0	0	0	0	0	0	0	0	0	0	0	0	0	0	0	0	0	0	0
062518	14:01:03	5.0.12.0	92	associated	Rpleas_acq	Same	Rpleas	Bmasked	CS_B	2pleas	cond_new_pleas_456_masked_CS1	condtest_masked_1	10	1	400	0	300	300	0	0	660	50	-273,75	1	0	0	0	1	blank2r.bmp	0	1	+	0	7	C3r.bmp	492	1	blank2r.bmp	786	1	BXCP	786	1	blank2r.bmp	866	2	küssen	866	1	!	1227	1	!	-1	0	0	0	0	0	0	0	0	0	0	0	0	0	0	0	0	0	0	0	0	0	0	0	0	0	0	0
062518	14:01:03	5.0.12.0	92	associated	Rpleas_acq	Same	Rpleas	Bmasked	CS_B	2pleas	cond_new_unple_456_masked_CS1	condtest_masked_1	10	2	400	1	300	300	0	0	356	50	-273,75	0	0	0	0	1	blank2r.bmp	0	1	+	0	6	C2r.bmp	492	1	blank2r.bmp	786	1	BXCP	786	1	blank2r.bmp	866	2	stinken	866	1	!	1227	1	!	1250	0	0	0	0	0	0	0	0	0	0	0	0	0	0	0	0	0	0	0	0	0	0	0	0	0	0	0
062518	14:01:03	5.0.12.0	92	associated	Rpleas_acq	Same	Rpleas	Bmasked	CS_B	2pleas	cond_US_pleas_123_masked_CS1	condtest_masked_1	10	3	400	1	300	300	0	0	404	50	-273,75	1	0	0	0	1	blank2r.bmp	0	1	+	0	2	B2r.bmp	492	1	blank2r.bmp	786	1	BXCP	786	1	blank2r.bmp	866	2	leben	866	1	!	1227	1	!	1298	0	0	0	0	0	0	0	0	0	0	0	0	0	0	0	0	0	0	0	0	0	0	0	0	0	0	0
062518	14:01:03	5.0.12.0	92	associated	Rpleas_acq	Same	Rpleas	Bmasked	CS_B	2pleas	cond_US_pleas_123_masked_CS2	condtest_masked_1	10	4	400	1	300	300	0	0	401	46	-273,75	0	0	0	0	1	blank2r.bmp	0	1	+	0	5	C1r.bmp	492	1	blank2r.bmp	786	1	GFVZ	786	1	blank2r.bmp	866	1	knospe	866	1	!	1227	1	!	1295	0	0	0	0	0	0	0	0	0	0	0	0	0	0	0	0	0	0	0	0	0	0	0	0	0	0	0
062518	14:01:03	5.0.12.0	92	associated	Rpleas_acq	Same	Rpleas	Bmasked	CS_B	2pleas	cond_new_pleas_456_masked_CS2	condtest_masked_1	10	5	400	1	300	300	0	0	411	46	-273,75	0	0	0	0	1	blank2r.bmp	0	1	+	0	8	C4r.bmp	492	1	blank2r.bmp	786	1	GFVZ	786	1	blank2r.bmp	866	1	sex	866	1	!	1227	1	!	1305	0	0	0	0	0	0	0	0	0	0	0	0	0	0	0	0	0	0	0	0	0	0	0	0	0	0	0
062518	14:01:03	5.0.12.0	92	associated	Rpleas_acq	Same	Rpleas	Bmasked	CS_B	2pleas	cond_new_unple_456_masked_CS2	condtest_masked_1	10	6	400	0	300	300	0	0	598	46	-273,75	1	0	0	0	1	blank2r.bmp	0	1	+	0	4	B4r.bmp	492	1	blank2r.bmp	786	1	GFVZ	786	1	blank2r.bmp	866	3	schock	866	1	!	1227	1	!	-1	0	0	0	0	0	0	0	0	0	0	0	0	0	0	0	0	0	0	0	0	0	0	0	0	0	0	0
062518	14:01:03	5.0.12.0	92	associated	Rpleas_acq	Same	Rpleas	Bmasked	CS_B	2pleas	cond_US_unple_123_masked_CS1	condtest_masked_1	10	7	400	0	300	300	0	0	326	46	-273,75	1	0	0	0	1	blank2r.bmp	0	1	+	0	1	B1r.bmp	492	1	blank2r.bmp	786	1	BXCP	786	1	blank2r.bmp	866	2	pleite	866	1	!	-1	1	!	-1	0	0	0	0	0	0	0	0	0	0	0	0	0	0	0	0	0	0	0	0	0	0	0	0	0	0	0
062518	14:01:03	5.0.12.0	92	associated	Rpleas_acq	Same	Rpleas	Bmasked	CS_B	2pleas	cond_US_unple_123_masked_CS2	condtest_masked_1	10	8	400	0	300	300	0	0	259	46	-273,75	1	0	0	0	1	blank2r.bmp	0	1	+	0	3	B3r.bmp	492	1	blank2r.bmp	786	1	GFVZ	786	1	blank2r.bmp	866	1	pistole	866	1	!	-1	1	!	-1	0	0	0	0	0	0	0	0	0	0	0	0	0	0	0	0	0	0	0	0	0	0	0	0	0	0	0
062518	14:01:03	5.0.12.0	92	associated	Rpleas_acq	Same	Rpleas	Bmasked	CS_B	2pleas	cond_US_pleas_123_masked_CS1	condtest_masked_2	11	1	400	0	300	300	0	0	235	50	-273,75	1	0	0	0	1	blank2r.bmp	0	1	+	0	8	C4r.bmp	492	1	blank2r.bmp	786	1	BXCP	786	1	blank2r.bmp	866	3	bett	866	1	!	-1	1	!	-1	0	0	0	0	0	0	0	0	0	0	0	0	0	0	0	0	0	0	0	0	0	0	0	0	0	0	0
062518	14:01:03	5.0.12.0	92	associated	Rpleas_acq	Same	Rpleas	Bmasked	CS_B	2pleas	cond_US_pleas_123_masked_CS1	condtest_masked_2	11	2	400	1	300	300	0	0	373	50	-273,75	1	0	0	0	1	blank2r.bmp	0	1	+	0	7	C3r.bmp	492	1	blank2r.bmp	786	1	BXCP	786	1	blank2r.bmp	866	1	knospe	866	1	!	1227	1	!	1267	0	0	0	0	0	0	0	0	0	0	0	0	0	0	0	0	0	0	0	0	0	0	0	0	0	0	0
062518	14:01:03	5.0.12.0	92	associated	Rpleas_acq	Same	Rpleas	Bmasked	CS_B	2pleas	cond_new_unple_456_masked_CS2	condtest_masked_2	11	3	400	1	300	300	0	0	442	50	-273,75	0	0	0	0	1	blank2r.bmp	0	1	+	0	2	B2r.bmp	492	1	blank2r.bmp	786	1	GFVZ	786	1	blank2r.bmp	866	1	böse	866	1	!	1227	1	!	1336	0	0	0	0	0	0	0	0	0	0	0	0	0	0	0	0	0	0	0	0	0	0	0	0	0	0	0
062518	14:01:03	5.0.12.0	92	associated	Rpleas_acq	Same	Rpleas	Bmasked	CS_B	2pleas	cond_US_pleas_123_masked_CS2	condtest_masked_2	11	4	400	1	300	300	0	0	397	50	-273,75	1	0	0	0	1	blank2r.bmp	0	1	+	0	1	B1r.bmp	492	1	blank2r.bmp	786	1	GFVZ	786	1	blank2r.bmp	866	3	bett	866	1	!	1227	1	!	1290	0	0	0	0	0	0	0	0	0	0	0	0	0	0	0	0	0	0	0	0	0	0	0	0	0	0	0
062518	14:01:03	5.0.12.0	92	associated	Rpleas_acq	Same	Rpleas	Bmasked	CS_B	2pleas	cond_US_unple_123_masked_CS2	condtest_masked_2	11	5	400	0	300	300	0	0	324	46	-273,75	1	0	0	0	1	blank2r.bmp	0	1	+	0	4	B4r.bmp	492	1	blank2r.bmp	786	1	GFVZ	786	1	blank2r.bmp	866	3	pest	866	1	!	-1	1	!	-1	0	0	0	0	0	0	0	0	0	0	0	0	0	0	0	0	0	0	0	0	0	0	0	0	0	0	0
062518	14:01:03	5.0.12.0	92	associated	Rpleas_acq	Same	Rpleas	Bmasked	CS_B	2pleas	cond_US_pleas_123_masked_CS2	condtest_masked_2	11	6	400	1	300	300	0	0	385	50	-273,75	1	0	0	0	1	blank2r.bmp	0	1	+	0	3	B3r.bmp	492	1	blank2r.bmp	786	1	GFVZ	786	1	blank2r.bmp	866	2	leben	866	1	!	1227	1	!	1279	0	0	0	0	0	0	0	0	0	0	0	0	0	0	0	0	0	0	0	0	0	0	0	0	0	0	0
062518	14:01:03	5.0.12.0	92	associated	Rpleas_acq	Same	Rpleas	Bmasked	CS_B	2pleas	cond_US_unple_123_masked_CS1	condtest_masked_2	11	7	400	1	300	300	0	0	361	46	-273,75	1	0	0	0	1	blank2r.bmp	0	1	+	0	5	C1r.bmp	492	1	blank2r.bmp	786	1	BXCP	786	1	blank2r.bmp	866	2	pleite	866	1	!	1227	1	!	1254	0	0	0	0	0	0	0	0	0	0	0	0	0	0	0	0	0	0	0	0	0	0	0	0	0	0	0
062518	14:01:03	5.0.12.0	92	associated	Rpleas_acq	Same	Rpleas	Bmasked	CS_B	2pleas	cond_US_pleas_123_masked_CS1	condtest_masked_2	11	8	400	1	300	300	0	0	440	50	-273,75	1	0	0	0	1	blank2r.bmp	0	1	+	0	6	C2r.bmp	492	1	blank2r.bmp	786	1	BXCP	786	1	blank2r.bmp	866	1	knospe	866	1	!	1227	1	!	1334	0	0	0	0	0	0	0	0	0	0	0	0	0	0	0	0	0	0	0	0	0	0	0	0	0	0	0
062518	14:01:03	5.0.12.0	92	associated	Rpleas_acq	Same	Rpleas	Bmasked	CS_B	2pleas	cond_new_unple_456_masked_CS1	condtest_masked_2	11	9	400	0	300	300	0	0	555	46	-273,75	1	0	0	0	1	blank2r.bmp	0	1	+	0	1	B1r.bmp	492	1	blank2r.bmp	786	1	BXCP	786	1	blank2r.bmp	866	3	schock	866	1	!	1227	1	!	-1	0	0	0	0	0	0	0	0	0	0	0	0	0	0	0	0	0	0	0	0	0	0	0	0	0	0	0
062518	14:01:03	5.0.12.0	92	associated	Rpleas_acq	Same	Rpleas	Bmasked	CS_B	2pleas	cond_new_pleas_456_masked_CS2	condtest_masked_2	11	10	400	1	300	300	0	0	406	46	-273,75	0	0	0	0	1	blank2r.bmp	0	1	+	0	6	C2r.bmp	492	1	blank2r.bmp	786	1	GFVZ	786	1	blank2r.bmp	866	3	licht	866	1	!	1227	1	!	1299	0	0	0	0	0	0	0	0	0	0	0	0	0	0	0	0	0	0	0	0	0	0	0	0	0	0	0
062518	14:01:03	5.0.12.0	92	associated	Rpleas_acq	Same	Rpleas	Bmasked	CS_B	2pleas	cond_new_pleas_456_masked_CS2	condtest_masked_2	11	11	400	1	300	300	0	0	336	50	-273,75	1	0	0	0	1	blank2r.bmp	0	1	+	0	2	B2r.bmp	492	1	blank2r.bmp	786	1	GFVZ	786	1	blank2r.bmp	866	3	licht	866	1	!	1227	1	!	1230	0	0	0	0	0	0	0	0	0	0	0	0	0	0	0	0	0	0	0	0	0	0	0	0	0	0	0
062518	14:01:03	5.0.12.0	92	associated	Rpleas_acq	Same	Rpleas	Bmasked	CS_B	2pleas	cond_US_unple_123_masked_CS2	condtest_masked_2	11	12	400	1	300	300	0	0	448	46	-273,75	1	0	0	0	1	blank2r.bmp	0	1	+	0	3	B3r.bmp	492	1	blank2r.bmp	786	1	GFVZ	786	1	blank2r.bmp	866	3	pest	866	1	!	1227	1	!	1341	0	0	0	0	0	0	0	0	0	0	0	0	0	0	0	0	0	0	0	0	0	0	0	0	0	0	0
062518	14:01:03	5.0.12.0	92	associated	Rpleas_acq	Same	Rpleas	Bmasked	CS_B	2pleas	cond_new_unple_456_masked_CS2	condtest_masked_2	11	13	400	0	300	300	0	0	482	46	-273,75	1	0	0	0	1	blank2r.bmp	0	1	+	0	7	C3r.bmp	492	1	blank2r.bmp	786	1	GFVZ	786	1	blank2r.bmp	866	2	stinken	866	1	!	1227	1	!	-1	0	0	0	0	0	0	0	0	0	0	0	0	0	0	0	0	0	0	0	0	0	0	0	0	0	0	0
062518	14:01:03	5.0.12.0	92	associated	Rpleas_acq	Same	Rpleas	Bmasked	CS_B	2pleas	cond_US_unple_123_masked_CS2	condtest_masked_2	11	14	400	1	300	300	0	0	397	46	-273,75	1	0	0	0	1	blank2r.bmp	0	1	+	0	5	C1r.bmp	492	1	blank2r.bmp	786	1	GFVZ	786	1	blank2r.bmp	866	1	pistole	866	1	!	1227	1	!	1290	0	0	0	0	0	0	0	0	0	0	0	0	0	0	0	0	0	0	0	0	0	0	0	0	0	0	0
062518	14:01:03	5.0.12.0	92	associated	Rpleas_acq	Same	Rpleas	Bmasked	CS_B	2pleas	cond_new_pleas_456_masked_CS2	condtest_masked_2	11	15	400	0	300	300	0	0	309	46	-273,75	0	0	0	0	1	blank2r.bmp	0	1	+	0	4	B4r.bmp	492	1	blank2r.bmp	786	1	GFVZ	786	1	blank2r.bmp	866	1	sex	866	1	!	-1	1	!	-1	0	0	0	0	0	0	0	0	0	0	0	0	0	0	0	0	0	0	0	0	0	0	0	0	0	0	0
062518	14:01:03	5.0.12.0	92	associated	Rpleas_acq	Same	Rpleas	Bmasked	CS_B	2pleas	cond_new_unple_456_masked_CS1	condtest_masked_2	11	16	400	1	300	300	0	0	409	46	-273,75	1	0	0	0	1	blank2r.bmp	0	1	+	0	8	C4r.bmp	492	1	blank2r.bmp	786	1	BXCP	786	1	blank2r.bmp	866	1	böse	866	1	!	1227	1	!	1303	0	0	0	0	0	0	0	0	0	0	0	0	0	0	0	0	0	0	0	0	0	0	0	0	0	0	0
062518	14:01:03	5.0.12.0	92	associated	Rpleas_acq	Same	Rpleas	Bmasked	CS_B	2pleas	cond_new_unple_456_masked_CS2	condtest_masked_2	11	17	400	1	300	300	0	0	374	46	-273,75	1	0	0	0	1	blank2r.bmp	0	1	+	0	5	C1r.bmp	492	1	blank2r.bmp	786	1	GFVZ	786	1	blank2r.bmp	866	2	stinken	866	1	!	1227	1	!	1268	0	0	0	0	0	0	0	0	0	0	0	0	0	0	0	0	0	0	0	0	0	0	0	0	0	0	0
062518	14:01:03	5.0.12.0	92	associated	Rpleas_acq	Same	Rpleas	Bmasked	CS_B	2pleas	cond_US_pleas_123_masked_CS2	condtest_masked_2	11	18	400	0	300	300	0	0	552	50	-273,75	1	0	0	0	1	blank2r.bmp	0	1	+	0	7	C3r.bmp	492	1	blank2r.bmp	786	1	GFVZ	786	1	blank2r.bmp	866	3	bett	866	1	!	1227	1	!	-1	0	0	0	0	0	0	0	0	0	0	0	0	0	0	0	0	0	0	0	0	0	0	0	0	0	0	0
062518	14:01:03	5.0.12.0	92	associated	Rpleas_acq	Same	Rpleas	Bmasked	CS_B	2pleas	cond_US_unple_123_masked_CS1	condtest_masked_2	11	19	400	1	300	300	0	0	417	46	-273,75	1	0	0	0	1	blank2r.bmp	0	1	+	0	3	B3r.bmp	492	1	blank2r.bmp	786	1	BXCP	786	1	blank2r.bmp	866	1	pistole	866	1	!	1227	1	!	1311	0	0	0	0	0	0	0	0	0	0	0	0	0	0	0	0	0	0	0	0	0	0	0	0	0	0	0
062518	14:01:03	5.0.12.0	92	associated	Rpleas_acq	Same	Rpleas	Bmasked	CS_B	2pleas	cond_US_unple_123_masked_CS2	condtest_masked_2	11	20	400	1	300	300	0	0	411	46	-273,75	1	0	0	0	1	blank2r.bmp	0	1	+	0	6	C2r.bmp	492	1	blank2r.bmp	786	1	GFVZ	786	1	blank2r.bmp	866	3	pest	866	1	!	1227	1	!	1305	0	0	0	0	0	0	0	0	0	0	0	0	0	0	0	0	0	0	0	0	0	0	0	0	0	0	0
062518	14:01:03	5.0.12.0	92	associated	Rpleas_acq	Same	Rpleas	Bmasked	CS_B	2pleas	cond_new_pleas_456_masked_CS2	condtest_masked_2	11	21	400	0	300	300	0	0	472	50	-273,75	1	0	0	0	1	blank2r.bmp	0	1	+	0	2	B2r.bmp	492	1	blank2r.bmp	786	1	GFVZ	786	1	blank2r.bmp	866	2	küssen	866	1	!	1227	1	!	-1	0	0	0	0	0	0	0	0	0	0	0	0	0	0	0	0	0	0	0	0	0	0	0	0	0	0	0
062518	14:01:03	5.0.12.0	92	associated	Rpleas_acq	Same	Rpleas	Bmasked	CS_B	2pleas	cond_US_unple_123_masked_CS1	condtest_masked_2	11	22	400	1	300	300	0	0	419	46	-273,75	1	0	0	0	1	blank2r.bmp	0	1	+	0	1	B1r.bmp	492	1	blank2r.bmp	786	1	BXCP	786	1	blank2r.bmp	866	2	pleite	866	1	!	1227	1	!	1312	0	0	0	0	0	0	0	0	0	0	0	0	0	0	0	0	0	0	0	0	0	0	0	0	0	0	0
062518	14:01:03	5.0.12.0	92	associated	Rpleas_acq	Same	Rpleas	Bmasked	CS_B	2pleas	cond_new_unple_456_masked_CS2	condtest_masked_2	11	23	400	0	300	300	0	0	480	46	-273,75	1	0	0	0	1	blank2r.bmp	0	1	+	0	8	C4r.bmp	492	1	blank2r.bmp	786	1	GFVZ	786	1	blank2r.bmp	866	3	schock	866	1	!	1227	1	!	-1	0	0	0	0	0	0	0	0	0	0	0	0	0	0	0	0	0	0	0	0	0	0	0	0	0	0	0
062518	14:01:03	5.0.12.0	92	associated	Rpleas_acq	Same	Rpleas	Bmasked	CS_B	2pleas	cond_new_pleas_456_masked_CS2	condtest_masked_2	11	24	400	0	300	300	0	0	475	50	-273,75	1	0	0	0	1	blank2r.bmp	0	1	+	0	4	B4r.bmp	492	1	blank2r.bmp	786	1	GFVZ	786	1	blank2r.bmp	866	1	sex	866	1	!	1227	1	!	-1	0	0	0	0	0	0	0	0	0	0	0	0	0	0	0	0	0	0	0	0	0	0	0	0	0	0	0
062518	14:01:03	5.0.12.0	92	associated	Rpleas_acq	Same	Rpleas	Bmasked	CS_B	2pleas	cond_US_pleas_123_masked_CS1	condtest_masked_2	11	25	400	0	300	300	0	0	803	50	-273,75	1	0	0	0	1	blank2r.bmp	0	1	+	0	5	C1r.bmp	492	1	blank2r.bmp	786	1	BXCP	786	1	blank2r.bmp	866	2	leben	866	1	!	1227	1	!	-1	0	0	0	0	0	0	0	0	0	0	0	0	0	0	0	0	0	0	0	0	0	0	0	0	0	0	0
062518	14:01:03	5.0.12.0	92	associated	Rpleas_acq	Same	Rpleas	Bmasked	CS_B	2pleas	cond_new_pleas_456_masked_CS1	condtest_masked_2	11	26	400	1	300	300	0	0	350	46	-273,75	0	0	0	0	1	blank2r.bmp	0	1	+	0	2	B2r.bmp	492	1	blank2r.bmp	786	1	BXCP	786	1	blank2r.bmp	866	3	licht	866	1	!	1227	1	!	1244	0	0	0	0	0	0	0	0	0	0	0	0	0	0	0	0	0	0	0	0	0	0	0	0	0	0	0
062518	14:01:03	5.0.12.0	92	associated	Rpleas_acq	Same	Rpleas	Bmasked	CS_B	2pleas	cond_US_pleas_123_masked_CS2	condtest_masked_2	11	27	400	1	300	300	0	0	446	50	-273,75	1	0	0	0	1	blank2r.bmp	0	1	+	0	4	B4r.bmp	492	1	blank2r.bmp	786	1	GFVZ	786	1	blank2r.bmp	866	3	bett	866	1	!	1227	1	!	1339	0	0	0	0	0	0	0	0	0	0	0	0	0	0	0	0	0	0	0	0	0	0	0	0	0	0	0
062518	14:01:03	5.0.12.0	92	associated	Rpleas_acq	Same	Rpleas	Bmasked	CS_B	2pleas	cond_US_unple_123_masked_CS2	condtest_masked_2	11	28	400	0	300	300	0	0	496	46	-273,75	1	0	0	0	1	blank2r.bmp	0	1	+	0	1	B1r.bmp	492	1	blank2r.bmp	786	1	GFVZ	786	1	blank2r.bmp	866	3	pest	866	1	!	1227	1	!	-1	0	0	0	0	0	0	0	0	0	0	0	0	0	0	0	0	0	0	0	0	0	0	0	0	0	0	0
062518	14:01:03	5.0.12.0	92	associated	Rpleas_acq	Same	Rpleas	Bmasked	CS_B	2pleas	cond_new_pleas_456_masked_CS1	condtest_masked_2	11	29	400	1	300	300	0	0	414	46	-273,75	0	0	0	0	1	blank2r.bmp	0	1	+	0	8	C4r.bmp	492	1	blank2r.bmp	786	1	BXCP	786	1	blank2r.bmp	866	2	küssen	866	1	!	1227	1	!	1307	0	0	0	0	0	0	0	0	0	0	0	0	0	0	0	0	0	0	0	0	0	0	0	0	0	0	0
062518	14:01:03	5.0.12.0	92	associated	Rpleas_acq	Same	Rpleas	Bmasked	CS_B	2pleas	cond_US_unple_123_masked_CS1	condtest_masked_2	11	30	400	0	300	300	0	0	616	46	-273,75	1	0	0	0	1	blank2r.bmp	0	1	+	0	3	B3r.bmp	492	1	blank2r.bmp	786	1	BXCP	786	1	blank2r.bmp	866	2	pleite	866	1	!	1227	1	!	-1	0	0	0	0	0	0	0	0	0	0	0	0	0	0	0	0	0	0	0	0	0	0	0	0	0	0	0
062518	14:01:03	5.0.12.0	92	associated	Rpleas_acq	Same	Rpleas	Bmasked	CS_B	2pleas	cond_new_unple_456_masked_CS2	condtest_masked_2	11	31	400	0	300	300	0	0	494	46	-273,75	1	0	0	0	1	blank2r.bmp	0	1	+	0	6	C2r.bmp	492	1	blank2r.bmp	786	1	GFVZ	786	1	blank2r.bmp	866	1	böse	866	1	!	1227	1	!	-1	0	0	0	0	0	0	0	0	0	0	0	0	0	0	0	0	0	0	0	0	0	0	0	0	0	0	0
062518	14:01:03	5.0.12.0	92	associated	Rpleas_acq	Same	Rpleas	Bmasked	CS_B	2pleas	cond_new_pleas_456_masked_CS1	condtest_masked_2	11	32	400	1	300	300	0	0	363	50	-273,75	1	0	0	0	1	blank2r.bmp	0	1	+	0	7	C3r.bmp	492	1	blank2r.bmp	786	1	BXCP	786	1	blank2r.bmp	866	3	licht	866	1	!	1227	1	!	1257	0	0	0	0	0	0	0	0	0	0	0	0	0	0	0	0	0	0	0	0	0	0	0	0	0	0	0
062518	14:01:03	5.0.12.0	92	associated	Rpleas_acq	Same	Rpleas	Bmasked	CS_B	2pleas	cond_US_pleas_123_masked_CS1	condtest_masked_2	11	33	400	0	300	300	0	0	477	50	-273,75	1	0	0	0	1	blank2r.bmp	0	1	+	0	1	B1r.bmp	492	1	blank2r.bmp	786	1	BXCP	786	1	blank2r.bmp	866	2	leben	866	1	!	1227	1	!	-1	0	0	0	0	0	0	0	0	0	0	0	0	0	0	0	0	0	0	0	0	0	0	0	0	0	0	0
062518	14:01:03	5.0.12.0	92	associated	Rpleas_acq	Same	Rpleas	Bmasked	CS_B	2pleas	cond_new_unple_456_masked_CS1	condtest_masked_2	11	34	400	1	300	300	0	0	424	46	-273,75	1	0	0	0	1	blank2r.bmp	0	1	+	0	4	B4r.bmp	492	1	blank2r.bmp	786	1	BXCP	786	1	blank2r.bmp	866	2	stinken	866	1	!	1227	1	!	1318	0	0	0	0	0	0	0	0	0	0	0	0	0	0	0	0	0	0	0	0	0	0	0	0	0	0	0
062518	14:01:03	5.0.12.0	92	associated	Rpleas_acq	Same	Rpleas	Bmasked	CS_B	2pleas	cond_US_pleas_123_masked_CS2	condtest_masked_2	11	35	400	1	300	300	0	0	421	46	-273,75	0	0	0	0	1	blank2r.bmp	0	1	+	0	6	C2r.bmp	492	1	blank2r.bmp	786	1	GFVZ	786	1	blank2r.bmp	866	1	knospe	866	1	!	1227	1	!	1315	0	0	0	0	0	0	0	0	0	0	0	0	0	0	0	0	0	0	0	0	0	0	0	0	0	0	0
062518	14:01:03	5.0.12.0	92	associated	Rpleas_acq	Same	Rpleas	Bmasked	CS_B	2pleas	cond_new_unple_456_masked_CS1	condtest_masked_2	11	36	400	1	300	300	0	0	437	46	-273,75	1	0	0	0	1	blank2r.bmp	0	1	+	0	7	C3r.bmp	492	1	blank2r.bmp	786	1	BXCP	786	1	blank2r.bmp	866	3	schock	866	1	!	1227	1	!	1331	0	0	0	0	0	0	0	0	0	0	0	0	0	0	0	0	0	0	0	0	0	0	0	0	0	0	0
062518	14:01:03	5.0.12.0	92	associated	Rpleas_acq	Same	Rpleas	Bmasked	CS_B	2pleas	cond_new_unple_456_masked_CS1	condtest_masked_2	11	37	400	1	300	300	0	0	389	46	-273,75	1	0	0	0	1	blank2r.bmp	0	1	+	0	5	C1r.bmp	492	1	blank2r.bmp	786	1	BXCP	786	1	blank2r.bmp	866	1	böse	866	1	!	1227	1	!	1283	0	0	0	0	0	0	0	0	0	0	0	0	0	0	0	0	0	0	0	0	0	0	0	0	0	0	0
062518	14:01:03	5.0.12.0	92	associated	Rpleas_acq	Same	Rpleas	Bmasked	CS_B	2pleas	cond_new_pleas_456_masked_CS1	condtest_masked_2	11	38	400	0	300	300	0	0	492	50	-273,75	1	0	0	0	1	blank2r.bmp	0	1	+	0	8	C4r.bmp	492	1	blank2r.bmp	786	1	BXCP	786	1	blank2r.bmp	866	2	küssen	866	1	!	1227	1	!	-1	0	0	0	0	0	0	0	0	0	0	0	0	0	0	0	0	0	0	0	0	0	0	0	0	0	0	0
062518	14:01:03	5.0.12.0	92	associated	Rpleas_acq	Same	Rpleas	Bmasked	CS_B	2pleas	cond_new_pleas_456_masked_CS1	condtest_masked_2	11	39	400	1	300	300	0	0	359	50	-273,75	1	0	0	0	1	blank2r.bmp	0	1	+	0	3	B3r.bmp	492	1	blank2r.bmp	786	1	BXCP	786	1	blank2r.bmp	866	1	sex	866	1	!	1227	1	!	1253	0	0	0	0	0	0	0	0	0	0	0	0	0	0	0	0	0	0	0	0	0	0	0	0	0	0	0
062518	14:01:03	5.0.12.0	92	associated	Rpleas_acq	Same	Rpleas	Bmasked	CS_B	2pleas	cond_US_unple_123_masked_CS1	condtest_masked_2	11	40	400	1	300	300	0	0	345	46	-273,75	1	0	0	0	1	blank2r.bmp	0	1	+	0	2	B2r.bmp	492	1	blank2r.bmp	786	1	BXCP	786	1	blank2r.bmp	866	1	pistole	866	1	!	1227	1	!	1239	0	0	0	0	0	0	0	0	0	0	0	0	0	0	0	0	0	0	0	0	0	0	0	0	0	0	0
062518	14:01:03	5.0.12.0	92	associated	Rpleas_acq	Same	Rpleas	Bmasked	CS_B	2pleas	cond_US_pleas_456_masked_CS2	condtest_masked_3	12	1	400	1	300	300	0	0	411	46	-273,75	0	0	0	0	1	blank2r.bmp	0	1	+	0	4	B4r.bmp	492	1	blank2r.bmp	786	1	GFVZ	786	1	blank2r.bmp	866	2	lippe	866	1	!	1227	1	!	1305	0	0	0	0	0	0	0	0	0	0	0	0	0	0	0	0	0	0	0	0	0	0	0	0	0	0	0
062518	14:01:03	5.0.12.0	92	associated	Rpleas_acq	Same	Rpleas	Bmasked	CS_B	2pleas	cond_US_unple_456_masked_CS2	condtest_masked_3	12	2	400	0	300	300	0	0	328	46	-273,75	1	0	0	0	1	blank2r.bmp	0	1	+	0	3	B3r.bmp	492	1	blank2r.bmp	786	1	GFVZ	786	1	blank2r.bmp	866	2	leiche	866	1	!	-1	1	!	-1	0	0	0	0	0	0	0	0	0	0	0	0	0	0	0	0	0	0	0	0	0	0	0	0	0	0	0
062518	14:01:03	5.0.12.0	92	associated	Rpleas_acq	Same	Rpleas	Bmasked	CS_B	2pleas	cond_new_unple_123_masked_CS1	condtest_masked_3	12	3	400	0	300	300	0	0	549	46	-273,75	1	0	0	0	1	blank2r.bmp	0	1	+	0	1	B1r.bmp	492	1	blank2r.bmp	786	1	BXCP	786	1	blank2r.bmp	866	3	tote	866	1	!	1227	1	!	-1	0	0	0	0	0	0	0	0	0	0	0	0	0	0	0	0	0	0	0	0	0	0	0	0	0	0	0
062518	14:01:03	5.0.12.0	92	associated	Rpleas_acq	Same	Rpleas	Bmasked	CS_B	2pleas	cond_US_unple_456_masked_CS1	condtest_masked_3	12	4	400	1	300	300	0	0	349	46	-273,75	1	0	0	0	1	blank2r.bmp	0	1	+	0	8	C4r.bmp	492	1	blank2r.bmp	786	1	BXCP	786	1	blank2r.bmp	866	1	übel	866	1	!	1227	1	!	1243	0	0	0	0	0	0	0	0	0	0	0	0	0	0	0	0	0	0	0	0	0	0	0	0	0	0	0
062518	14:01:03	5.0.12.0	92	associated	Rpleas_acq	Same	Rpleas	Bmasked	CS_B	2pleas	cond_US_unple_456_masked_CS2	condtest_masked_3	12	5	400	1	300	300	0	0	413	50	-273,75	0	0	0	0	1	blank2r.bmp	0	1	+	0	7	C3r.bmp	492	1	blank2r.bmp	786	1	GFVZ	786	1	blank2r.bmp	866	3	toxisch	866	1	!	1227	1	!	1307	0	0	0	0	0	0	0	0	0	0	0	0	0	0	0	0	0	0	0	0	0	0	0	0	0	0	0
062518	14:01:03	5.0.12.0	92	associated	Rpleas_acq	Same	Rpleas	Bmasked	CS_B	2pleas	cond_new_unple_123_masked_CS2	condtest_masked_3	12	6	400	1	300	300	0	0	458	50	-273,75	0	0	0	0	1	blank2r.bmp	0	1	+	0	5	C1r.bmp	492	1	blank2r.bmp	786	1	GFVZ	786	1	blank2r.bmp	866	2	pech	866	1	!	1227	1	!	1352	0	0	0	0	0	0	0	0	0	0	0	0	0	0	0	0	0	0	0	0	0	0	0	0	0	0	0
062518	14:01:03	5.0.12.0	92	associated	Rpleas_acq	Same	Rpleas	Bmasked	CS_B	2pleas	cond_US_unple_456_masked_CS1	condtest_masked_3	12	7	400	1	300	300	0	0	335	46	-273,75	1	0	0	0	1	blank2r.bmp	0	1	+	0	6	C2r.bmp	492	1	blank2r.bmp	786	1	BXCP	786	1	blank2r.bmp	866	2	leiche	866	1	!	1227	1	!	1229	0	0	0	0	0	0	0	0	0	0	0	0	0	0	0	0	0	0	0	0	0	0	0	0	0	0	0
062518	14:01:03	5.0.12.0	92	associated	Rpleas_acq	Same	Rpleas	Bmasked	CS_B	2pleas	cond_new_unple_123_masked_CS1	condtest_masked_3	12	8	400	0	300	300	0	0	329	46	-273,75	1	0	0	0	1	blank2r.bmp	0	1	+	0	2	B2r.bmp	492	1	blank2r.bmp	786	1	BXCP	786	1	blank2r.bmp	866	1	töten	866	1	!	-1	1	!	-1	0	0	0	0	0	0	0	0	0	0	0	0	0	0	0	0	0	0	0	0	0	0	0	0	0	0	0
062518	14:01:03	5.0.12.0	92	associated	Rpleas_acq	Same	Rpleas	Bmasked	CS_B	2pleas	cond_new_pleas_123_masked_CS1	condtest_masked_3	12	9	400	0	300	300	0	0	326	46	-273,75	0	0	0	0	1	blank2r.bmp	0	1	+	0	3	B3r.bmp	492	1	blank2r.bmp	786	1	BXCP	786	1	blank2r.bmp	866	1	blüte	866	1	!	-1	1	!	-1	0	0	0	0	0	0	0	0	0	0	0	0	0	0	0	0	0	0	0	0	0	0	0	0	0	0	0
062518	14:01:03	5.0.12.0	92	associated	Rpleas_acq	Same	Rpleas	Bmasked	CS_B	2pleas	cond_new_pleas_123_masked_CS1	condtest_masked_3	12	10	400	1	300	300	0	0	368	50	-273,75	1	0	0	0	1	blank2r.bmp	0	1	+	0	6	C2r.bmp	492	1	blank2r.bmp	786	1	BXCP	786	1	blank2r.bmp	866	2	schön	866	1	!	1227	1	!	1262	0	0	0	0	0	0	0	0	0	0	0	0	0	0	0	0	0	0	0	0	0	0	0	0	0	0	0
062518	14:01:03	5.0.12.0	92	associated	Rpleas_acq	Same	Rpleas	Bmasked	CS_B	2pleas	cond_US_pleas_456_masked_CS1	condtest_masked_3	12	11	400	1	300	300	0	0	338	50	-273,75	1	0	0	0	1	blank2r.bmp	0	1	+	0	1	B1r.bmp	492	1	blank2r.bmp	786	1	BXCP	786	1	blank2r.bmp	866	1	liebe	866	1	!	1227	1	!	1232	0	0	0	0	0	0	0	0	0	0	0	0	0	0	0	0	0	0	0	0	0	0	0	0	0	0	0
062518	14:01:03	5.0.12.0	92	associated	Rpleas_acq	Same	Rpleas	Bmasked	CS_B	2pleas	cond_new_unple_123_masked_CS2	condtest_masked_3	12	12	400	1	300	300	0	0	367	46	-273,75	1	0	0	0	1	blank2r.bmp	0	1	+	0	8	C4r.bmp	492	1	blank2r.bmp	786	1	GFVZ	786	1	blank2r.bmp	866	1	töten	866	1	!	1227	1	!	1261	0	0	0	0	0	0	0	0	0	0	0	0	0	0	0	0	0	0	0	0	0	0	0	0	0	0	0
062518	14:01:03	5.0.12.0	92	associated	Rpleas_acq	Same	Rpleas	Bmasked	CS_B	2pleas	cond_US_pleas_456_masked_CS1	condtest_masked_3	12	13	400	0	300	300	0	0	306	46	-273,75	0	0	0	0	1	blank2r.bmp	0	1	+	0	4	B4r.bmp	492	1	blank2r.bmp	786	1	BXCP	786	1	blank2r.bmp	866	3	sonne	866	1	!	-1	1	!	-1	0	0	0	0	0	0	0	0	0	0	0	0	0	0	0	0	0	0	0	0	0	0	0	0	0	0	0
062518	14:01:03	5.0.12.0	92	associated	Rpleas_acq	Same	Rpleas	Bmasked	CS_B	2pleas	cond_new_unple_123_masked_CS2	condtest_masked_3	12	14	400	1	300	300	0	0	361	50	-273,75	0	0	0	0	1	blank2r.bmp	0	1	+	0	2	B2r.bmp	492	1	blank2r.bmp	786	1	GFVZ	786	1	blank2r.bmp	866	2	pech	866	1	!	1227	1	!	1254	0	0	0	0	0	0	0	0	0	0	0	0	0	0	0	0	0	0	0	0	0	0	0	0	0	0	0
