date	time	build	subject	expressions.associated	expressions.LRpleas_acq	expressions.SameOppo	expressions.condition_Lpleas	expressions.ABmasked	expressions.conditionCS_A	expressions.condition_1pleas	trialcode	blockcode	blocknum	trialnum	windowcenter	inwindow	pretrialpause	posttrialpause	trialduration	trialtimeout	latency	response	expressions.correctedscore	correct	values.vis_performance	values.vis_rating_sum	values.vis_rating_mean	stimulusnumber1	stimulusitem1	stimulusonset1	stimulusnumber2	stimulusitem2	stimulusonset2	stimulusnumber3	stimulusitem3	stimulusonset3	stimulusnumber4	stimulusitem4	stimulusonset4	stimulusnumber5	stimulusitem5	stimulusonset5	stimulusnumber6	stimulusitem6	stimulusonset6	stimulusnumber7	stimulusitem7	stimulusonset7	stimulusnumber8	stimulusitem8	stimulusonset8	stimulusnumber9	stimulusitem9	stimulusonset9	stimulusnumber10	stimulusitem10	stimulusonset10	stimulusnumber11	stimulusitem11	stimulusonset11	stimulusnumber12	stimulusitem12	stimulusonset12	stimulusnumber13	stimulusitem13	stimulusonset13	stimulusnumber14	stimulusitem14	stimulusonset14	stimulusnumber15	stimulusitem15	stimulusonset15	stimulusnumber16	stimulusitem16	stimulusonset16	stimulusnumber17	stimulusitem17	stimulusonset17	stimulusnumber18	stimulusitem18	stimulusonset18
062918	15:29:20	5.0.12.0	138	notassociated	Rpleas_acq	Same	Rpleas	Amasked	CS_A	2pleas	acq_pleas_masked	acq1_masked	1	1	0	0	300	300	0	0	1712	50	0	1	0	0	0	1	blank2r.bmp	0	1	+	0	7	C3r.bmp	492	1	blank2r.bmp	786	1	DJMR	786	1	blank2r.bmp	866	3	wein	866	0	0	0	0	0	0	0	0	0	0	0	0	0	0	0	0	0	0	0	0	0	0	0	0	0	0	0	0	0	0	0	0	0
062918	15:29:20	5.0.12.0	138	notassociated	Rpleas_acq	Same	Rpleas	Amasked	CS_A	2pleas	acq_unple_masked	acq1_masked	1	2	0	0	300	300	0	0	1155	46	0	1	0	0	0	1	blank2r.bmp	0	1	+	0	6	C2r.bmp	492	1	blank2r.bmp	786	1	HLST	786	1	blank2r.bmp	866	3	zwang	866	0	0	0	0	0	0	0	0	0	0	0	0	0	0	0	0	0	0	0	0	0	0	0	0	0	0	0	0	0	0	0	0	0
062918	15:29:20	5.0.12.0	138	notassociated	Rpleas_acq	Same	Rpleas	Amasked	CS_A	2pleas	acq_unple_masked	acq1_masked	1	3	0	0	300	300	0	0	698	46	0	1	0	0	0	1	blank2r.bmp	0	1	+	0	4	B4r.bmp	492	1	blank2r.bmp	786	1	HLST	786	1	blank2r.bmp	866	2	geiz	866	0	0	0	0	0	0	0	0	0	0	0	0	0	0	0	0	0	0	0	0	0	0	0	0	0	0	0	0	0	0	0	0	0
062918	15:29:20	5.0.12.0	138	notassociated	Rpleas_acq	Same	Rpleas	Amasked	CS_A	2pleas	acq_unple_masked	acq1_masked	1	4	0	0	300	300	0	0	1028	46	0	1	0	0	0	1	blank2r.bmp	0	1	+	0	5	C1r.bmp	492	1	blank2r.bmp	786	1	HLST	786	1	blank2r.bmp	866	1	gegner	866	0	0	0	0	0	0	0	0	0	0	0	0	0	0	0	0	0	0	0	0	0	0	0	0	0	0	0	0	0	0	0	0	0
062918	15:29:20	5.0.12.0	138	notassociated	Rpleas_acq	Same	Rpleas	Amasked	CS_A	2pleas	acq_unple_masked	acq1_masked	1	5	0	0	300	300	0	0	531	46	0	1	0	0	0	1	blank2r.bmp	0	1	+	0	8	C4r.bmp	492	1	blank2r.bmp	786	1	HLST	786	1	blank2r.bmp	866	6	armee	866	0	0	0	0	0	0	0	0	0	0	0	0	0	0	0	0	0	0	0	0	0	0	0	0	0	0	0	0	0	0	0	0	0
062918	15:29:20	5.0.12.0	138	notassociated	Rpleas_acq	Same	Rpleas	Amasked	CS_A	2pleas	acq_pleas_masked	acq1_masked	1	6	0	0	300	300	0	0	786	50	0	1	0	0	0	1	blank2r.bmp	0	1	+	0	1	B1r.bmp	492	1	blank2r.bmp	786	1	DJMR	786	1	blank2r.bmp	866	4	erfinder	866	0	0	0	0	0	0	0	0	0	0	0	0	0	0	0	0	0	0	0	0	0	0	0	0	0	0	0	0	0	0	0	0	0
062918	15:29:20	5.0.12.0	138	notassociated	Rpleas_acq	Same	Rpleas	Amasked	CS_A	2pleas	acq_pleas_masked	acq1_masked	1	7	0	0	300	300	0	0	583	50	0	1	0	0	0	1	blank2r.bmp	0	1	+	0	2	B2r.bmp	492	1	blank2r.bmp	786	1	DJMR	786	1	blank2r.bmp	866	2	jugend	866	0	0	0	0	0	0	0	0	0	0	0	0	0	0	0	0	0	0	0	0	0	0	0	0	0	0	0	0	0	0	0	0	0
062918	15:29:20	5.0.12.0	138	notassociated	Rpleas_acq	Same	Rpleas	Amasked	CS_A	2pleas	acq_pleas_masked	acq1_masked	1	8	0	0	300	300	0	0	609	50	0	1	0	0	0	1	blank2r.bmp	0	1	+	0	3	B3r.bmp	492	1	blank2r.bmp	786	1	DJMR	786	1	blank2r.bmp	866	1	frieden	866	0	0	0	0	0	0	0	0	0	0	0	0	0	0	0	0	0	0	0	0	0	0	0	0	0	0	0	0	0	0	0	0	0
062918	15:29:20	5.0.12.0	138	notassociated	Rpleas_acq	Same	Rpleas	Amasked	CS_A	2pleas	acq_unple_masked	acq1_masked	1	9	0	0	300	300	0	0	683	46	0	1	0	0	0	1	blank2r.bmp	0	1	+	0	2	B2r.bmp	492	1	blank2r.bmp	786	1	HLST	786	1	blank2r.bmp	866	5	wunde	866	0	0	0	0	0	0	0	0	0	0	0	0	0	0	0	0	0	0	0	0	0	0	0	0	0	0	0	0	0	0	0	0	0
062918	15:29:20	5.0.12.0	138	notassociated	Rpleas_acq	Same	Rpleas	Amasked	CS_A	2pleas	acq_unple_masked	acq1_masked	1	10	0	0	300	300	0	0	987	46	0	1	0	0	0	1	blank2r.bmp	0	1	+	0	6	C2r.bmp	492	1	blank2r.bmp	786	1	HLST	786	1	blank2r.bmp	866	4	narr	866	0	0	0	0	0	0	0	0	0	0	0	0	0	0	0	0	0	0	0	0	0	0	0	0	0	0	0	0	0	0	0	0	0
062918	15:29:20	5.0.12.0	138	notassociated	Rpleas_acq	Same	Rpleas	Amasked	CS_A	2pleas	acq_unple_masked	acq1_masked	1	11	0	0	300	300	0	0	545	46	0	1	0	0	0	1	blank2r.bmp	0	1	+	0	5	C1r.bmp	492	1	blank2r.bmp	786	1	HLST	786	1	blank2r.bmp	866	2	geiz	866	0	0	0	0	0	0	0	0	0	0	0	0	0	0	0	0	0	0	0	0	0	0	0	0	0	0	0	0	0	0	0	0	0
062918	15:29:20	5.0.12.0	138	notassociated	Rpleas_acq	Same	Rpleas	Amasked	CS_A	2pleas	acq_pleas_masked	acq1_masked	1	12	0	0	300	300	0	0	597	50	0	1	0	0	0	1	blank2r.bmp	0	1	+	0	3	B3r.bmp	492	1	blank2r.bmp	786	1	DJMR	786	1	blank2r.bmp	866	6	meer	866	0	0	0	0	0	0	0	0	0	0	0	0	0	0	0	0	0	0	0	0	0	0	0	0	0	0	0	0	0	0	0	0	0
062918	15:29:20	5.0.12.0	138	notassociated	Rpleas_acq	Same	Rpleas	Amasked	CS_A	2pleas	acq_unple_masked	acq1_masked	1	13	0	0	300	300	0	0	877	46	0	1	0	0	0	1	blank2r.bmp	0	1	+	0	8	C4r.bmp	492	1	blank2r.bmp	786	1	HLST	786	1	blank2r.bmp	866	5	wunde	866	0	0	0	0	0	0	0	0	0	0	0	0	0	0	0	0	0	0	0	0	0	0	0	0	0	0	0	0	0	0	0	0	0
062918	15:29:20	5.0.12.0	138	notassociated	Rpleas_acq	Same	Rpleas	Amasked	CS_A	2pleas	acq_pleas_masked	acq1_masked	1	14	0	0	300	300	0	0	573	50	0	1	0	0	0	1	blank2r.bmp	0	1	+	0	1	B1r.bmp	492	1	blank2r.bmp	786	1	DJMR	786	1	blank2r.bmp	866	5	mama	866	0	0	0	0	0	0	0	0	0	0	0	0	0	0	0	0	0	0	0	0	0	0	0	0	0	0	0	0	0	0	0	0	0
062918	15:29:20	5.0.12.0	138	notassociated	Rpleas_acq	Same	Rpleas	Amasked	CS_A	2pleas	acq_pleas_masked	acq1_masked	1	15	0	0	300	300	0	0	599	50	0	1	0	0	0	1	blank2r.bmp	0	1	+	0	7	C3r.bmp	492	1	blank2r.bmp	786	1	DJMR	786	1	blank2r.bmp	866	3	wein	866	0	0	0	0	0	0	0	0	0	0	0	0	0	0	0	0	0	0	0	0	0	0	0	0	0	0	0	0	0	0	0	0	0
062918	15:29:20	5.0.12.0	138	notassociated	Rpleas_acq	Same	Rpleas	Amasked	CS_A	2pleas	acq_pleas_masked	acq1_masked	1	16	0	0	300	300	0	0	494	50	0	1	0	0	0	1	blank2r.bmp	0	1	+	0	4	B4r.bmp	492	1	blank2r.bmp	786	1	DJMR	786	1	blank2r.bmp	866	5	mama	866	0	0	0	0	0	0	0	0	0	0	0	0	0	0	0	0	0	0	0	0	0	0	0	0	0	0	0	0	0	0	0	0	0
062918	15:29:20	5.0.12.0	138	notassociated	Rpleas_acq	Same	Rpleas	Amasked	CS_A	2pleas	acq_unple_masked	acq1_masked	1	17	0	0	300	300	0	0	504	46	0	1	0	0	0	1	blank2r.bmp	0	1	+	0	6	C2r.bmp	492	1	blank2r.bmp	786	1	HLST	786	1	blank2r.bmp	866	3	zwang	866	0	0	0	0	0	0	0	0	0	0	0	0	0	0	0	0	0	0	0	0	0	0	0	0	0	0	0	0	0	0	0	0	0
062918	15:29:20	5.0.12.0	138	notassociated	Rpleas_acq	Same	Rpleas	Amasked	CS_A	2pleas	acq_pleas_masked	acq1_masked	1	18	0	0	300	300	0	0	570	50	0	1	0	0	0	1	blank2r.bmp	0	1	+	0	4	B4r.bmp	492	1	blank2r.bmp	786	1	DJMR	786	1	blank2r.bmp	866	1	frieden	866	0	0	0	0	0	0	0	0	0	0	0	0	0	0	0	0	0	0	0	0	0	0	0	0	0	0	0	0	0	0	0	0	0
062918	15:29:20	5.0.12.0	138	notassociated	Rpleas_acq	Same	Rpleas	Amasked	CS_A	2pleas	acq_pleas_masked	acq1_masked	1	19	0	0	300	300	0	0	500	50	0	1	0	0	0	1	blank2r.bmp	0	1	+	0	8	C4r.bmp	492	1	blank2r.bmp	786	1	DJMR	786	1	blank2r.bmp	866	2	jugend	866	0	0	0	0	0	0	0	0	0	0	0	0	0	0	0	0	0	0	0	0	0	0	0	0	0	0	0	0	0	0	0	0	0
062918	15:29:20	5.0.12.0	138	notassociated	Rpleas_acq	Same	Rpleas	Amasked	CS_A	2pleas	acq_unple_masked	acq1_masked	1	20	0	0	300	300	0	0	621	46	0	1	0	0	0	1	blank2r.bmp	0	1	+	0	5	C1r.bmp	492	1	blank2r.bmp	786	1	HLST	786	1	blank2r.bmp	866	1	gegner	866	0	0	0	0	0	0	0	0	0	0	0	0	0	0	0	0	0	0	0	0	0	0	0	0	0	0	0	0	0	0	0	0	0
062918	15:29:20	5.0.12.0	138	notassociated	Rpleas_acq	Same	Rpleas	Amasked	CS_A	2pleas	acq_pleas_masked	acq1_masked	1	21	0	0	300	300	0	0	543	50	0	1	0	0	0	1	blank2r.bmp	0	1	+	0	1	B1r.bmp	492	1	blank2r.bmp	786	1	DJMR	786	1	blank2r.bmp	866	6	meer	866	0	0	0	0	0	0	0	0	0	0	0	0	0	0	0	0	0	0	0	0	0	0	0	0	0	0	0	0	0	0	0	0	0
062918	15:29:20	5.0.12.0	138	notassociated	Rpleas_acq	Same	Rpleas	Amasked	CS_A	2pleas	acq_unple_masked	acq1_masked	1	22	0	0	300	300	0	0	516	46	0	1	0	0	0	1	blank2r.bmp	0	1	+	0	7	C3r.bmp	492	1	blank2r.bmp	786	1	HLST	786	1	blank2r.bmp	866	4	narr	866	0	0	0	0	0	0	0	0	0	0	0	0	0	0	0	0	0	0	0	0	0	0	0	0	0	0	0	0	0	0	0	0	0
062918	15:29:20	5.0.12.0	138	notassociated	Rpleas_acq	Same	Rpleas	Amasked	CS_A	2pleas	acq_pleas_masked	acq1_masked	1	23	0	0	300	300	0	0	499	50	0	1	0	0	0	1	blank2r.bmp	0	1	+	0	2	B2r.bmp	492	1	blank2r.bmp	786	1	DJMR	786	1	blank2r.bmp	866	4	erfinder	866	0	0	0	0	0	0	0	0	0	0	0	0	0	0	0	0	0	0	0	0	0	0	0	0	0	0	0	0	0	0	0	0	0
062918	15:29:20	5.0.12.0	138	notassociated	Rpleas_acq	Same	Rpleas	Amasked	CS_A	2pleas	acq_unple_masked	acq1_masked	1	24	0	0	300	300	0	0	669	46	0	1	0	0	0	1	blank2r.bmp	0	1	+	0	3	B3r.bmp	492	1	blank2r.bmp	786	1	HLST	786	1	blank2r.bmp	866	6	armee	866	0	0	0	0	0	0	0	0	0	0	0	0	0	0	0	0	0	0	0	0	0	0	0	0	0	0	0	0	0	0	0	0	0
062918	15:29:20	5.0.12.0	138	notassociated	Rpleas_acq	Same	Rpleas	Amasked	CS_A	2pleas	acq_pleas_masked	acq2_masked	2	1	480	0	300	300	0	0	16133	50	0	1	0	0	0	1	blank2r.bmp	0	1	+	0	4	B4r.bmp	492	1	blank2r.bmp	786	1	DJMR	786	1	blank2r.bmp	866	4	erfinder	866	1	!	1307	1	!	-1	0	0	0	0	0	0	0	0	0	0	0	0	0	0	0	0	0	0	0	0	0	0	0	0	0	0	0
062918	15:29:20	5.0.12.0	138	notassociated	Rpleas_acq	Same	Rpleas	Amasked	CS_A	2pleas	acq_pleas_masked	acq2_masked	2	2	480	0	300	300	0	0	9434	50	0	1	0	0	0	1	blank2r.bmp	0	1	+	0	6	C2r.bmp	492	1	blank2r.bmp	786	1	DJMR	786	1	blank2r.bmp	866	6	meer	866	1	!	1307	1	!	-1	0	0	0	0	0	0	0	0	0	0	0	0	0	0	0	0	0	0	0	0	0	0	0	0	0	0	0
062918	15:29:20	5.0.12.0	138	notassociated	Rpleas_acq	Same	Rpleas	Amasked	CS_A	2pleas	acq_unple_masked	acq2_masked	2	3	480	0	300	300	0	0	1640	46	0	1	0	0	0	1	blank2r.bmp	0	1	+	0	8	C4r.bmp	492	1	blank2r.bmp	786	1	HLST	786	1	blank2r.bmp	866	2	geiz	866	1	!	1307	1	!	-1	0	0	0	0	0	0	0	0	0	0	0	0	0	0	0	0	0	0	0	0	0	0	0	0	0	0	0
062918	15:29:20	5.0.12.0	138	notassociated	Rpleas_acq	Same	Rpleas	Amasked	CS_A	2pleas	acq_unple_masked	acq2_masked	2	4	480	0	300	300	0	0	863	46	0	1	0	0	0	1	blank2r.bmp	0	1	+	0	3	B3r.bmp	492	1	blank2r.bmp	786	1	HLST	786	1	blank2r.bmp	866	6	armee	866	1	!	1307	1	!	-1	0	0	0	0	0	0	0	0	0	0	0	0	0	0	0	0	0	0	0	0	0	0	0	0	0	0	0
062918	15:29:20	5.0.12.0	138	notassociated	Rpleas_acq	Same	Rpleas	Amasked	CS_A	2pleas	acq_unple_masked	acq2_masked	2	5	480	0	300	300	0	0	856	46	0	1	0	0	0	1	blank2r.bmp	0	1	+	0	1	B1r.bmp	492	1	blank2r.bmp	786	1	HLST	786	1	blank2r.bmp	866	3	zwang	866	1	!	1307	1	!	-1	0	0	0	0	0	0	0	0	0	0	0	0	0	0	0	0	0	0	0	0	0	0	0	0	0	0	0
062918	15:29:20	5.0.12.0	138	notassociated	Rpleas_acq	Same	Rpleas	Amasked	CS_A	2pleas	acq_pleas_masked	acq2_masked	2	6	480	0	300	300	0	0	839	50	0	1	0	0	0	1	blank2r.bmp	0	1	+	0	2	B2r.bmp	492	1	blank2r.bmp	786	1	DJMR	786	1	blank2r.bmp	866	5	mama	866	1	!	1307	1	!	-1	0	0	0	0	0	0	0	0	0	0	0	0	0	0	0	0	0	0	0	0	0	0	0	0	0	0	0
062918	15:29:20	5.0.12.0	138	notassociated	Rpleas_acq	Same	Rpleas	Amasked	CS_A	2pleas	acq_unple_masked	acq2_masked	2	7	480	0	300	300	0	0	1442	46	0	1	0	0	0	1	blank2r.bmp	0	1	+	0	7	C3r.bmp	492	1	blank2r.bmp	786	1	HLST	786	1	blank2r.bmp	866	1	gegner	866	1	!	1307	1	!	-1	0	0	0	0	0	0	0	0	0	0	0	0	0	0	0	0	0	0	0	0	0	0	0	0	0	0	0
062918	15:29:20	5.0.12.0	138	notassociated	Rpleas_acq	Same	Rpleas	Amasked	CS_A	2pleas	acq_pleas_masked	acq2_masked	2	8	480	0	300	300	0	0	771	50	0	1	0	0	0	1	blank2r.bmp	0	1	+	0	5	C1r.bmp	492	1	blank2r.bmp	786	1	DJMR	786	1	blank2r.bmp	866	3	wein	866	1	!	1307	1	!	-1	0	0	0	0	0	0	0	0	0	0	0	0	0	0	0	0	0	0	0	0	0	0	0	0	0	0	0
062918	15:29:20	5.0.12.0	138	notassociated	Rpleas_acq	Same	Rpleas	Amasked	CS_A	2pleas	acq_unple_masked	acq2_masked	2	9	480	0	300	300	0	0	890	46	0	1	0	0	0	1	blank2r.bmp	0	1	+	0	4	B4r.bmp	492	1	blank2r.bmp	786	1	HLST	786	1	blank2r.bmp	866	5	wunde	866	1	!	1307	1	!	-1	0	0	0	0	0	0	0	0	0	0	0	0	0	0	0	0	0	0	0	0	0	0	0	0	0	0	0
062918	15:29:20	5.0.12.0	138	notassociated	Rpleas_acq	Same	Rpleas	Amasked	CS_A	2pleas	acq_pleas_masked	acq2_masked	2	10	480	0	300	300	0	0	808	50	0	1	0	0	0	1	blank2r.bmp	0	1	+	0	2	B2r.bmp	492	1	blank2r.bmp	786	1	DJMR	786	1	blank2r.bmp	866	1	frieden	866	1	!	1307	1	!	-1	0	0	0	0	0	0	0	0	0	0	0	0	0	0	0	0	0	0	0	0	0	0	0	0	0	0	0
062918	15:29:20	5.0.12.0	138	notassociated	Rpleas_acq	Same	Rpleas	Amasked	CS_A	2pleas	acq_pleas_masked	acq2_masked	2	11	480	0	300	300	0	0	887	50	0	1	0	0	0	1	blank2r.bmp	0	1	+	0	8	C4r.bmp	492	1	blank2r.bmp	786	1	DJMR	786	1	blank2r.bmp	866	2	jugend	866	1	!	1307	1	!	-1	0	0	0	0	0	0	0	0	0	0	0	0	0	0	0	0	0	0	0	0	0	0	0	0	0	0	0
062918	15:29:20	5.0.12.0	138	notassociated	Rpleas_acq	Same	Rpleas	Amasked	CS_A	2pleas	acq_unple_masked	acq2_masked	2	12	480	0	300	300	0	0	971	46	0	1	0	0	0	1	blank2r.bmp	0	1	+	0	6	C2r.bmp	492	1	blank2r.bmp	786	1	HLST	786	1	blank2r.bmp	866	4	narr	866	1	!	1307	1	!	-1	0	0	0	0	0	0	0	0	0	0	0	0	0	0	0	0	0	0	0	0	0	0	0	0	0	0	0
062918	15:29:20	5.0.12.0	138	notassociated	Rpleas_acq	Same	Rpleas	Amasked	CS_A	2pleas	acq_pleas_masked	acq2_masked	2	13	480	0	300	300	0	0	786	50	0	1	0	0	0	1	blank2r.bmp	0	1	+	0	3	B3r.bmp	492	1	blank2r.bmp	786	1	DJMR	786	1	blank2r.bmp	866	2	jugend	866	1	!	1307	1	!	-1	0	0	0	0	0	0	0	0	0	0	0	0	0	0	0	0	0	0	0	0	0	0	0	0	0	0	0
062918	15:29:20	5.0.12.0	138	notassociated	Rpleas_acq	Same	Rpleas	Amasked	CS_A	2pleas	acq_pleas_masked	acq2_masked	2	14	480	0	300	300	0	0	835	50	0	1	0	0	0	1	blank2r.bmp	0	1	+	0	7	C3r.bmp	492	1	blank2r.bmp	786	1	DJMR	786	1	blank2r.bmp	866	4	erfinder	866	1	!	1307	1	!	-1	0	0	0	0	0	0	0	0	0	0	0	0	0	0	0	0	0	0	0	0	0	0	0	0	0	0	0
062918	15:29:20	5.0.12.0	138	notassociated	Rpleas_acq	Same	Rpleas	Amasked	CS_A	2pleas	acq_unple_masked	acq2_masked	2	15	480	0	300	300	0	0	756	46	0	1	0	0	0	1	blank2r.bmp	0	1	+	0	1	B1r.bmp	492	1	blank2r.bmp	786	1	HLST	786	1	blank2r.bmp	866	1	gegner	866	1	!	1307	1	!	-1	0	0	0	0	0	0	0	0	0	0	0	0	0	0	0	0	0	0	0	0	0	0	0	0	0	0	0
062918	15:29:20	5.0.12.0	138	notassociated	Rpleas_acq	Same	Rpleas	Amasked	CS_A	2pleas	acq_unple_masked	acq2_masked	2	16	480	0	300	300	0	0	845	46	0	1	0	0	0	1	blank2r.bmp	0	1	+	0	5	C1r.bmp	492	1	blank2r.bmp	786	1	HLST	786	1	blank2r.bmp	866	2	geiz	866	1	!	1307	1	!	-1	0	0	0	0	0	0	0	0	0	0	0	0	0	0	0	0	0	0	0	0	0	0	0	0	0	0	0
062918	15:29:20	5.0.12.0	138	notassociated	Rpleas_acq	Same	Rpleas	Amasked	CS_A	2pleas	acq_pleas_masked	acq2_masked	2	17	480	1	300	300	0	0	497	50	0	1	0	0	0	1	blank2r.bmp	0	1	+	0	1	B1r.bmp	492	1	blank2r.bmp	786	1	DJMR	786	1	blank2r.bmp	866	3	wein	866	1	!	1307	1	!	1391	0	0	0	0	0	0	0	0	0	0	0	0	0	0	0	0	0	0	0	0	0	0	0	0	0	0	0
062918	15:29:20	5.0.12.0	138	notassociated	Rpleas_acq	Same	Rpleas	Amasked	CS_A	2pleas	acq_pleas_masked	acq2_masked	2	18	480	0	300	300	0	0	1327	50	0	1	0	0	0	1	blank2r.bmp	0	1	+	0	2	B2r.bmp	492	1	blank2r.bmp	786	1	DJMR	786	1	blank2r.bmp	866	5	mama	866	1	!	1307	1	!	-1	0	0	0	0	0	0	0	0	0	0	0	0	0	0	0	0	0	0	0	0	0	0	0	0	0	0	0
062918	15:29:20	5.0.12.0	138	notassociated	Rpleas_acq	Same	Rpleas	Amasked	CS_A	2pleas	acq_unple_masked	acq2_masked	2	19	480	0	300	300	0	0	671	46	0	1	0	0	0	1	blank2r.bmp	0	1	+	0	3	B3r.bmp	492	1	blank2r.bmp	786	1	HLST	786	1	blank2r.bmp	866	3	zwang	866	1	!	1307	1	!	-1	0	0	0	0	0	0	0	0	0	0	0	0	0	0	0	0	0	0	0	0	0	0	0	0	0	0	0
062918	15:29:20	5.0.12.0	138	notassociated	Rpleas_acq	Same	Rpleas	Amasked	CS_A	2pleas	acq_pleas_masked	acq2_masked	2	20	480	0	300	300	0	0	647	50	0	1	0	0	0	1	blank2r.bmp	0	1	+	0	7	C3r.bmp	492	1	blank2r.bmp	786	1	DJMR	786	1	blank2r.bmp	866	6	meer	866	1	!	1307	1	!	-1	0	0	0	0	0	0	0	0	0	0	0	0	0	0	0	0	0	0	0	0	0	0	0	0	0	0	0
062918	15:29:20	5.0.12.0	138	notassociated	Rpleas_acq	Same	Rpleas	Amasked	CS_A	2pleas	acq_unple_masked	acq2_masked	2	21	480	0	300	300	0	0	659	46	0	1	0	0	0	1	blank2r.bmp	0	1	+	0	4	B4r.bmp	492	1	blank2r.bmp	786	1	HLST	786	1	blank2r.bmp	866	5	wunde	866	1	!	1307	1	!	-1	0	0	0	0	0	0	0	0	0	0	0	0	0	0	0	0	0	0	0	0	0	0	0	0	0	0	0
062918	15:29:20	5.0.12.0	138	notassociated	Rpleas_acq	Same	Rpleas	Amasked	CS_A	2pleas	acq_unple_masked	acq2_masked	2	22	480	0	300	300	0	0	1097	50	0	0	0	0	0	1	blank2r.bmp	0	1	+	0	6	C2r.bmp	492	1	blank2r.bmp	786	1	HLST	786	1	blank2r.bmp	866	4	narr	866	1	FEHLER	2284	1	!	1307	1	!	-1	0	0	0	0	0	0	0	0	0	0	0	0	0	0	0	0	0	0	0	0	0	0	0	0
062918	15:29:20	5.0.12.0	138	notassociated	Rpleas_acq	Same	Rpleas	Amasked	CS_A	2pleas	acq_unple_masked	acq2_masked	2	23	480	0	300	300	0	0	704	46	0	1	0	0	0	1	blank2r.bmp	0	1	+	0	5	C1r.bmp	492	1	blank2r.bmp	786	1	HLST	786	1	blank2r.bmp	866	6	armee	866	1	!	1307	1	!	-1	0	0	0	0	0	0	0	0	0	0	0	0	0	0	0	0	0	0	0	0	0	0	0	0	0	0	0
062918	15:29:20	5.0.12.0	138	notassociated	Rpleas_acq	Same	Rpleas	Amasked	CS_A	2pleas	acq_pleas_masked	acq2_masked	2	24	480	1	300	300	0	0	527	50	0	1	0	0	0	1	blank2r.bmp	0	1	+	0	8	C4r.bmp	492	1	blank2r.bmp	786	1	DJMR	786	1	blank2r.bmp	866	1	frieden	866	1	!	1307	1	!	1420	0	0	0	0	0	0	0	0	0	0	0	0	0	0	0	0	0	0	0	0	0	0	0	0	0	0	0
062918	15:29:20	5.0.12.0	138	notassociated	Rpleas_acq	Same	Rpleas	Amasked	CS_A	2pleas	acq_unple_masked	acq3_masked	3	1	453	1	300	300	0	0	403	46	0	1	0	0	0	1	blank2r.bmp	0	1	+	0	4	B4r.bmp	492	1	blank2r.bmp	786	1	HLST	786	1	blank2r.bmp	866	6	armee	866	1	!	1280	1	!	1296	0	0	0	0	0	0	0	0	0	0	0	0	0	0	0	0	0	0	0	0	0	0	0	0	0	0	0
062918	15:29:20	5.0.12.0	138	notassociated	Rpleas_acq	Same	Rpleas	Amasked	CS_A	2pleas	acq_pleas_masked	acq3_masked	3	2	453	1	300	300	0	0	501	50	0	1	0	0	0	1	blank2r.bmp	0	1	+	0	7	C3r.bmp	492	1	blank2r.bmp	786	1	DJMR	786	1	blank2r.bmp	866	3	wein	866	1	!	1280	1	!	1394	0	0	0	0	0	0	0	0	0	0	0	0	0	0	0	0	0	0	0	0	0	0	0	0	0	0	0
062918	15:29:20	5.0.12.0	138	notassociated	Rpleas_acq	Same	Rpleas	Amasked	CS_A	2pleas	acq_unple_masked	acq3_masked	3	3	453	0	300	300	0	0	690	46	0	1	0	0	0	1	blank2r.bmp	0	1	+	0	5	C1r.bmp	492	1	blank2r.bmp	786	1	HLST	786	1	blank2r.bmp	866	5	wunde	866	1	!	1280	1	!	-1	0	0	0	0	0	0	0	0	0	0	0	0	0	0	0	0	0	0	0	0	0	0	0	0	0	0	0
062918	15:29:20	5.0.12.0	138	notassociated	Rpleas_acq	Same	Rpleas	Amasked	CS_A	2pleas	acq_unple_masked	acq3_masked	3	4	453	1	300	300	0	0	400	46	0	1	0	0	0	1	blank2r.bmp	0	1	+	0	6	C2r.bmp	492	1	blank2r.bmp	786	1	HLST	786	1	blank2r.bmp	866	1	gegner	866	1	!	1280	1	!	1294	0	0	0	0	0	0	0	0	0	0	0	0	0	0	0	0	0	0	0	0	0	0	0	0	0	0	0
062918	15:29:20	5.0.12.0	138	notassociated	Rpleas_acq	Same	Rpleas	Amasked	CS_A	2pleas	acq_pleas_masked	acq3_masked	3	5	453	1	300	300	0	0	411	50	0	1	0	0	0	1	blank2r.bmp	0	1	+	0	3	B3r.bmp	492	1	blank2r.bmp	786	1	DJMR	786	1	blank2r.bmp	866	5	mama	866	1	!	1280	1	!	1304	0	0	0	0	0	0	0	0	0	0	0	0	0	0	0	0	0	0	0	0	0	0	0	0	0	0	0
062918	15:29:20	5.0.12.0	138	notassociated	Rpleas_acq	Same	Rpleas	Amasked	CS_A	2pleas	acq_pleas_masked	acq3_masked	3	6	453	0	300	300	0	0	781	50	0	1	0	0	0	1	blank2r.bmp	0	1	+	0	8	C4r.bmp	492	1	blank2r.bmp	786	1	DJMR	786	1	blank2r.bmp	866	1	frieden	866	1	!	1280	1	!	-1	0	0	0	0	0	0	0	0	0	0	0	0	0	0	0	0	0	0	0	0	0	0	0	0	0	0	0
062918	15:29:20	5.0.12.0	138	notassociated	Rpleas_acq	Same	Rpleas	Amasked	CS_A	2pleas	acq_pleas_masked	acq3_masked	3	7	453	0	300	300	0	0	654	50	0	1	0	0	0	1	blank2r.bmp	0	1	+	0	2	B2r.bmp	492	1	blank2r.bmp	786	1	DJMR	786	1	blank2r.bmp	866	4	erfinder	866	1	!	1280	1	!	-1	0	0	0	0	0	0	0	0	0	0	0	0	0	0	0	0	0	0	0	0	0	0	0	0	0	0	0
062918	15:29:20	5.0.12.0	138	notassociated	Rpleas_acq	Same	Rpleas	Amasked	CS_A	2pleas	acq_unple_masked	acq3_masked	3	8	453	0	300	300	0	0	532	46	0	1	0	0	0	1	blank2r.bmp	0	1	+	0	1	B1r.bmp	492	1	blank2r.bmp	786	1	HLST	786	1	blank2r.bmp	866	2	geiz	866	1	!	1280	1	!	-1	0	0	0	0	0	0	0	0	0	0	0	0	0	0	0	0	0	0	0	0	0	0	0	0	0	0	0
062918	15:29:20	5.0.12.0	138	notassociated	Rpleas_acq	Same	Rpleas	Amasked	CS_A	2pleas	acq_pleas_masked	acq3_masked	3	9	453	1	300	300	0	0	519	50	0	1	0	0	0	1	blank2r.bmp	0	1	+	0	5	C1r.bmp	492	1	blank2r.bmp	786	1	DJMR	786	1	blank2r.bmp	866	6	meer	866	1	!	1280	1	!	1413	0	0	0	0	0	0	0	0	0	0	0	0	0	0	0	0	0	0	0	0	0	0	0	0	0	0	0
062918	15:29:20	5.0.12.0	138	notassociated	Rpleas_acq	Same	Rpleas	Amasked	CS_A	2pleas	acq_unple_masked	acq3_masked	3	10	453	1	300	300	0	0	473	46	0	1	0	0	0	1	blank2r.bmp	0	1	+	0	6	C2r.bmp	492	1	blank2r.bmp	786	1	HLST	786	1	blank2r.bmp	866	3	zwang	866	1	!	1280	1	!	1367	0	0	0	0	0	0	0	0	0	0	0	0	0	0	0	0	0	0	0	0	0	0	0	0	0	0	0
062918	15:29:20	5.0.12.0	138	notassociated	Rpleas_acq	Same	Rpleas	Amasked	CS_A	2pleas	acq_unple_masked	acq3_masked	3	11	453	0	300	300	0	0	540	46	0	1	0	0	0	1	blank2r.bmp	0	1	+	0	1	B1r.bmp	492	1	blank2r.bmp	786	1	HLST	786	1	blank2r.bmp	866	4	narr	866	1	!	1280	1	!	-1	0	0	0	0	0	0	0	0	0	0	0	0	0	0	0	0	0	0	0	0	0	0	0	0	0	0	0
062918	15:29:20	5.0.12.0	138	notassociated	Rpleas_acq	Same	Rpleas	Amasked	CS_A	2pleas	acq_unple_masked	acq3_masked	3	12	453	1	300	300	0	0	466	46	0	1	0	0	0	1	blank2r.bmp	0	1	+	0	2	B2r.bmp	492	1	blank2r.bmp	786	1	HLST	786	1	blank2r.bmp	866	3	zwang	866	1	!	1280	1	!	1359	0	0	0	0	0	0	0	0	0	0	0	0	0	0	0	0	0	0	0	0	0	0	0	0	0	0	0
062918	15:29:20	5.0.12.0	138	notassociated	Rpleas_acq	Same	Rpleas	Amasked	CS_A	2pleas	acq_pleas_masked	acq3_masked	3	13	453	1	300	300	0	0	407	50	0	1	0	0	0	1	blank2r.bmp	0	1	+	0	7	C3r.bmp	492	1	blank2r.bmp	786	1	DJMR	786	1	blank2r.bmp	866	2	jugend	866	1	!	1280	1	!	1301	0	0	0	0	0	0	0	0	0	0	0	0	0	0	0	0	0	0	0	0	0	0	0	0	0	0	0
062918	15:29:20	5.0.12.0	138	notassociated	Rpleas_acq	Same	Rpleas	Amasked	CS_A	2pleas	acq_pleas_masked	acq3_masked	3	14	453	1	300	300	0	0	481	50	0	1	0	0	0	1	blank2r.bmp	0	1	+	0	8	C4r.bmp	492	1	blank2r.bmp	786	1	DJMR	786	1	blank2r.bmp	866	4	erfinder	866	1	!	1280	1	!	1375	0	0	0	0	0	0	0	0	0	0	0	0	0	0	0	0	0	0	0	0	0	0	0	0	0	0	0
062918	15:29:20	5.0.12.0	138	notassociated	Rpleas_acq	Same	Rpleas	Amasked	CS_A	2pleas	acq_unple_masked	acq3_masked	3	15	453	1	300	300	0	0	407	46	0	1	0	0	0	1	blank2r.bmp	0	1	+	0	4	B4r.bmp	492	1	blank2r.bmp	786	1	HLST	786	1	blank2r.bmp	866	2	geiz	866	1	!	1280	1	!	1300	0	0	0	0	0	0	0	0	0	0	0	0	0	0	0	0	0	0	0	0	0	0	0	0	0	0	0
062918	15:29:20	5.0.12.0	138	notassociated	Rpleas_acq	Same	Rpleas	Amasked	CS_A	2pleas	acq_pleas_masked	acq3_masked	3	16	453	0	300	300	0	0	329	50	0	1	0	0	0	1	blank2r.bmp	0	1	+	0	3	B3r.bmp	492	1	blank2r.bmp	786	1	DJMR	786	1	blank2r.bmp	866	1	frieden	866	1	!	-1	1	!	-1	0	0	0	0	0	0	0	0	0	0	0	0	0	0	0	0	0	0	0	0	0	0	0	0	0	0	0
062918	15:29:20	5.0.12.0	138	notassociated	Rpleas_acq	Same	Rpleas	Amasked	CS_A	2pleas	acq_pleas_masked	acq3_masked	3	17	453	1	300	300	0	0	507	50	0	1	0	0	0	1	blank2r.bmp	0	1	+	0	7	C3r.bmp	492	1	blank2r.bmp	786	1	DJMR	786	1	blank2r.bmp	866	6	meer	866	1	!	1280	1	!	1401	0	0	0	0	0	0	0	0	0	0	0	0	0	0	0	0	0	0	0	0	0	0	0	0	0	0	0
062918	15:29:20	5.0.12.0	138	notassociated	Rpleas_acq	Same	Rpleas	Amasked	CS_A	2pleas	acq_pleas_masked	acq3_masked	3	18	453	0	300	300	0	0	360	50	0	1	0	0	0	1	blank2r.bmp	0	1	+	0	2	B2r.bmp	492	1	blank2r.bmp	786	1	DJMR	786	1	blank2r.bmp	866	3	wein	866	1	!	-1	1	!	-1	0	0	0	0	0	0	0	0	0	0	0	0	0	0	0	0	0	0	0	0	0	0	0	0	0	0	0
062918	15:29:20	5.0.12.0	138	notassociated	Rpleas_acq	Same	Rpleas	Amasked	CS_A	2pleas	acq_unple_masked	acq3_masked	3	19	453	0	300	300	0	0	1027	46	0	1	0	0	0	1	blank2r.bmp	0	1	+	0	5	C1r.bmp	492	1	blank2r.bmp	786	1	HLST	786	1	blank2r.bmp	866	5	wunde	866	1	!	1280	1	!	-1	0	0	0	0	0	0	0	0	0	0	0	0	0	0	0	0	0	0	0	0	0	0	0	0	0	0	0
062918	15:29:20	5.0.12.0	138	notassociated	Rpleas_acq	Same	Rpleas	Amasked	CS_A	2pleas	acq_unple_masked	acq3_masked	3	20	453	1	300	300	0	0	397	46	0	1	0	0	0	1	blank2r.bmp	0	1	+	0	4	B4r.bmp	492	1	blank2r.bmp	786	1	HLST	786	1	blank2r.bmp	866	4	narr	866	1	!	1280	1	!	1290	0	0	0	0	0	0	0	0	0	0	0	0	0	0	0	0	0	0	0	0	0	0	0	0	0	0	0
062918	15:29:20	5.0.12.0	138	notassociated	Rpleas_acq	Same	Rpleas	Amasked	CS_A	2pleas	acq_pleas_masked	acq3_masked	3	21	453	0	300	300	0	0	572	50	0	1	0	0	0	1	blank2r.bmp	0	1	+	0	1	B1r.bmp	492	1	blank2r.bmp	786	1	DJMR	786	1	blank2r.bmp	866	5	mama	866	1	!	1280	1	!	-1	0	0	0	0	0	0	0	0	0	0	0	0	0	0	0	0	0	0	0	0	0	0	0	0	0	0	0
062918	15:29:20	5.0.12.0	138	notassociated	Rpleas_acq	Same	Rpleas	Amasked	CS_A	2pleas	acq_pleas_masked	acq3_masked	3	22	453	0	300	300	0	0	738	50	0	1	0	0	0	1	blank2r.bmp	0	1	+	0	3	B3r.bmp	492	1	blank2r.bmp	786	1	DJMR	786	1	blank2r.bmp	866	2	jugend	866	1	!	1280	1	!	-1	0	0	0	0	0	0	0	0	0	0	0	0	0	0	0	0	0	0	0	0	0	0	0	0	0	0	0
062918	15:29:20	5.0.12.0	138	notassociated	Rpleas_acq	Same	Rpleas	Amasked	CS_A	2pleas	acq_unple_masked	acq3_masked	3	23	453	0	300	300	0	0	584	46	0	1	0	0	0	1	blank2r.bmp	0	1	+	0	6	C2r.bmp	492	1	blank2r.bmp	786	1	HLST	786	1	blank2r.bmp	866	6	armee	866	1	!	1280	1	!	-1	0	0	0	0	0	0	0	0	0	0	0	0	0	0	0	0	0	0	0	0	0	0	0	0	0	0	0
062918	15:29:20	5.0.12.0	138	notassociated	Rpleas_acq	Same	Rpleas	Amasked	CS_A	2pleas	acq_unple_masked	acq3_masked	3	24	453	0	300	300	0	0	358	46	0	1	0	0	0	1	blank2r.bmp	0	1	+	0	8	C4r.bmp	492	1	blank2r.bmp	786	1	HLST	786	1	blank2r.bmp	866	1	gegner	866	1	!	-1	1	!	-1	0	0	0	0	0	0	0	0	0	0	0	0	0	0	0	0	0	0	0	0	0	0	0	0	0	0	0
062918	15:29:20	5.0.12.0	138	notassociated	Rpleas_acq	Same	Rpleas	Amasked	CS_A	2pleas	acq_unple_masked	acq3_masked	3	25	453	0	300	300	0	0	592	46	0	1	0	0	0	1	blank2r.bmp	0	1	+	0	4	B4r.bmp	492	1	blank2r.bmp	786	1	HLST	786	1	blank2r.bmp	866	3	zwang	866	1	!	1280	1	!	-1	0	0	0	0	0	0	0	0	0	0	0	0	0	0	0	0	0	0	0	0	0	0	0	0	0	0	0
062918	15:29:20	5.0.12.0	138	notassociated	Rpleas_acq	Same	Rpleas	Amasked	CS_A	2pleas	acq_pleas_masked	acq3_masked	3	26	453	0	300	300	0	0	600	50	0	1	0	0	0	1	blank2r.bmp	0	1	+	0	2	B2r.bmp	492	1	blank2r.bmp	786	1	DJMR	786	1	blank2r.bmp	866	1	frieden	866	1	!	1280	1	!	-1	0	0	0	0	0	0	0	0	0	0	0	0	0	0	0	0	0	0	0	0	0	0	0	0	0	0	0
062918	15:29:20	5.0.12.0	138	notassociated	Rpleas_acq	Same	Rpleas	Amasked	CS_A	2pleas	acq_unple_masked	acq3_masked	3	27	453	1	300	300	0	0	435	46	0	1	0	0	0	1	blank2r.bmp	0	1	+	0	6	C2r.bmp	492	1	blank2r.bmp	786	1	HLST	786	1	blank2r.bmp	866	5	wunde	866	1	!	1280	1	!	1329	0	0	0	0	0	0	0	0	0	0	0	0	0	0	0	0	0	0	0	0	0	0	0	0	0	0	0
062918	15:29:20	5.0.12.0	138	notassociated	Rpleas_acq	Same	Rpleas	Amasked	CS_A	2pleas	acq_unple_masked	acq3_masked	3	28	453	1	300	300	0	0	451	46	0	1	0	0	0	1	blank2r.bmp	0	1	+	0	8	C4r.bmp	492	1	blank2r.bmp	786	1	HLST	786	1	blank2r.bmp	866	6	armee	866	1	!	1280	1	!	1345	0	0	0	0	0	0	0	0	0	0	0	0	0	0	0	0	0	0	0	0	0	0	0	0	0	0	0
062918	15:29:20	5.0.12.0	138	notassociated	Rpleas_acq	Same	Rpleas	Amasked	CS_A	2pleas	acq_pleas_masked	acq3_masked	3	29	453	0	300	300	0	0	753	46	0	0	0	0	0	1	blank2r.bmp	0	1	+	0	1	B1r.bmp	492	1	blank2r.bmp	786	1	DJMR	786	1	blank2r.bmp	866	4	erfinder	866	1	FEHLER	1940	1	!	1280	1	!	-1	0	0	0	0	0	0	0	0	0	0	0	0	0	0	0	0	0	0	0	0	0	0	0	0
062918	15:29:20	5.0.12.0	138	notassociated	Rpleas_acq	Same	Rpleas	Amasked	CS_A	2pleas	acq_unple_masked	acq3_masked	3	30	453	0	300	300	0	0	609	46	0	1	0	0	0	1	blank2r.bmp	0	1	+	0	7	C3r.bmp	492	1	blank2r.bmp	786	1	HLST	786	1	blank2r.bmp	866	1	gegner	866	1	!	1280	1	!	-1	0	0	0	0	0	0	0	0	0	0	0	0	0	0	0	0	0	0	0	0	0	0	0	0	0	0	0
062918	15:29:20	5.0.12.0	138	notassociated	Rpleas_acq	Same	Rpleas	Amasked	CS_A	2pleas	acq_pleas_masked	acq3_masked	3	31	453	0	300	300	0	0	380	50	0	1	0	0	0	1	blank2r.bmp	0	1	+	0	3	B3r.bmp	492	1	blank2r.bmp	786	1	DJMR	786	1	blank2r.bmp	866	5	mama	866	1	!	-1	1	!	-1	0	0	0	0	0	0	0	0	0	0	0	0	0	0	0	0	0	0	0	0	0	0	0	0	0	0	0
062918	15:29:20	5.0.12.0	138	notassociated	Rpleas_acq	Same	Rpleas	Amasked	CS_A	2pleas	acq_pleas_masked	acq3_masked	3	32	453	0	300	300	0	0	730	50	0	1	0	0	0	1	blank2r.bmp	0	1	+	0	5	C1r.bmp	492	1	blank2r.bmp	786	1	DJMR	786	1	blank2r.bmp	866	3	wein	866	1	!	1280	1	!	-1	0	0	0	0	0	0	0	0	0	0	0	0	0	0	0	0	0	0	0	0	0	0	0	0	0	0	0
062918	15:29:20	5.0.12.0	138	notassociated	Rpleas_acq	Same	Rpleas	Amasked	CS_A	2pleas	acq_pleas_masked	acq45_masked	4	1	400	0	300	300	0	0	475	50	0	1	0	0	0	1	blank2r.bmp	0	1	+	0	2	B2r.bmp	492	1	blank2r.bmp	786	1	DJMR	786	1	blank2r.bmp	866	2	jugend	866	1	!	1227	1	!	-1	0	0	0	0	0	0	0	0	0	0	0	0	0	0	0	0	0	0	0	0	0	0	0	0	0	0	0
062918	15:29:20	5.0.12.0	138	notassociated	Rpleas_acq	Same	Rpleas	Amasked	CS_A	2pleas	acq_unple_masked	acq45_masked	4	2	400	0	300	300	0	0	627	46	0	1	0	0	0	1	blank2r.bmp	0	1	+	0	7	C3r.bmp	492	1	blank2r.bmp	786	1	HLST	786	1	blank2r.bmp	866	2	geiz	866	1	!	1227	1	!	-1	0	0	0	0	0	0	0	0	0	0	0	0	0	0	0	0	0	0	0	0	0	0	0	0	0	0	0
062918	15:29:20	5.0.12.0	138	notassociated	Rpleas_acq	Same	Rpleas	Amasked	CS_A	2pleas	acq_unple_masked	acq45_masked	4	3	400	0	300	300	0	0	547	46	0	1	0	0	0	1	blank2r.bmp	0	1	+	0	3	B3r.bmp	492	1	blank2r.bmp	786	1	HLST	786	1	blank2r.bmp	866	4	narr	866	1	!	1227	1	!	-1	0	0	0	0	0	0	0	0	0	0	0	0	0	0	0	0	0	0	0	0	0	0	0	0	0	0	0
062918	15:29:20	5.0.12.0	138	notassociated	Rpleas_acq	Same	Rpleas	Amasked	CS_A	2pleas	acq_pleas_masked	acq45_masked	4	4	400	1	300	300	0	0	395	50	0	1	0	0	0	1	blank2r.bmp	0	1	+	0	5	C1r.bmp	492	1	blank2r.bmp	786	1	DJMR	786	1	blank2r.bmp	866	6	meer	866	1	!	1227	1	!	1289	0	0	0	0	0	0	0	0	0	0	0	0	0	0	0	0	0	0	0	0	0	0	0	0	0	0	0
062918	15:29:20	5.0.12.0	138	notassociated	Rpleas_acq	Same	Rpleas	Amasked	CS_A	2pleas	acq_pleas_masked	acq45_masked	4	5	400	0	300	300	0	0	614	50	0	1	0	0	0	1	blank2r.bmp	0	1	+	0	6	C2r.bmp	492	1	blank2r.bmp	786	1	DJMR	786	1	blank2r.bmp	866	6	meer	866	1	!	1227	1	!	-1	0	0	0	0	0	0	0	0	0	0	0	0	0	0	0	0	0	0	0	0	0	0	0	0	0	0	0
062918	15:29:20	5.0.12.0	138	notassociated	Rpleas_acq	Same	Rpleas	Amasked	CS_A	2pleas	acq_pleas_masked	acq45_masked	4	6	400	0	300	300	0	0	569	50	0	1	0	0	0	1	blank2r.bmp	0	1	+	0	1	B1r.bmp	492	1	blank2r.bmp	786	1	DJMR	786	1	blank2r.bmp	866	4	erfinder	866	1	!	1227	1	!	-1	0	0	0	0	0	0	0	0	0	0	0	0	0	0	0	0	0	0	0	0	0	0	0	0	0	0	0
062918	15:29:20	5.0.12.0	138	notassociated	Rpleas_acq	Same	Rpleas	Amasked	CS_A	2pleas	acq_unple_masked	acq45_masked	4	7	400	0	300	300	0	0	548	46	0	1	0	0	0	1	blank2r.bmp	0	1	+	0	8	C4r.bmp	492	1	blank2r.bmp	786	1	HLST	786	1	blank2r.bmp	866	1	gegner	866	1	!	1227	1	!	-1	0	0	0	0	0	0	0	0	0	0	0	0	0	0	0	0	0	0	0	0	0	0	0	0	0	0	0
062918	15:29:20	5.0.12.0	138	notassociated	Rpleas_acq	Same	Rpleas	Amasked	CS_A	2pleas	acq_pleas_masked	acq45_masked	4	8	400	0	300	300	0	0	628	50	0	1	0	0	0	1	blank2r.bmp	0	1	+	0	4	B4r.bmp	492	1	blank2r.bmp	786	1	DJMR	786	1	blank2r.bmp	866	1	frieden	866	1	!	1227	1	!	-1	0	0	0	0	0	0	0	0	0	0	0	0	0	0	0	0	0	0	0	0	0	0	0	0	0	0	0
062918	15:29:20	5.0.12.0	138	notassociated	Rpleas_acq	Same	Rpleas	Amasked	CS_A	2pleas	acq_pleas_masked	acq45_masked	4	9	400	1	300	300	0	0	364	50	0	1	0	0	0	1	blank2r.bmp	0	1	+	0	1	B1r.bmp	492	1	blank2r.bmp	786	1	DJMR	786	1	blank2r.bmp	866	5	mama	866	1	!	1227	1	!	1258	0	0	0	0	0	0	0	0	0	0	0	0	0	0	0	0	0	0	0	0	0	0	0	0	0	0	0
062918	15:29:20	5.0.12.0	138	notassociated	Rpleas_acq	Same	Rpleas	Amasked	CS_A	2pleas	acq_unple_masked	acq45_masked	4	10	400	0	300	300	0	0	609	46	0	1	0	0	0	1	blank2r.bmp	0	1	+	0	6	C2r.bmp	492	1	blank2r.bmp	786	1	HLST	786	1	blank2r.bmp	866	6	armee	866	1	!	1227	1	!	-1	0	0	0	0	0	0	0	0	0	0	0	0	0	0	0	0	0	0	0	0	0	0	0	0	0	0	0
062918	15:29:20	5.0.12.0	138	notassociated	Rpleas_acq	Same	Rpleas	Amasked	CS_A	2pleas	acq_unple_masked	acq45_masked	4	11	400	1	300	300	0	0	340	46	0	1	0	0	0	1	blank2r.bmp	0	1	+	0	8	C4r.bmp	492	1	blank2r.bmp	786	1	HLST	786	1	blank2r.bmp	866	2	geiz	866	1	!	1227	1	!	1234	0	0	0	0	0	0	0	0	0	0	0	0	0	0	0	0	0	0	0	0	0	0	0	0	0	0	0
062918	15:29:20	5.0.12.0	138	notassociated	Rpleas_acq	Same	Rpleas	Amasked	CS_A	2pleas	acq_pleas_masked	acq45_masked	4	12	400	0	300	300	0	0	620	50	0	1	0	0	0	1	blank2r.bmp	0	1	+	0	2	B2r.bmp	492	1	blank2r.bmp	786	1	DJMR	786	1	blank2r.bmp	866	2	jugend	866	1	!	1227	1	!	-1	0	0	0	0	0	0	0	0	0	0	0	0	0	0	0	0	0	0	0	0	0	0	0	0	0	0	0
062918	15:29:20	5.0.12.0	138	notassociated	Rpleas_acq	Same	Rpleas	Amasked	CS_A	2pleas	acq_unple_masked	acq45_masked	4	13	400	0	300	300	0	0	546	46	0	1	0	0	0	1	blank2r.bmp	0	1	+	0	7	C3r.bmp	492	1	blank2r.bmp	786	1	HLST	786	1	blank2r.bmp	866	5	wunde	866	1	!	1227	1	!	-1	0	0	0	0	0	0	0	0	0	0	0	0	0	0	0	0	0	0	0	0	0	0	0	0	0	0	0
062918	15:29:20	5.0.12.0	138	notassociated	Rpleas_acq	Same	Rpleas	Amasked	CS_A	2pleas	acq_unple_masked	acq45_masked	4	14	400	1	300	300	0	0	386	50	0	0	0	0	0	1	blank2r.bmp	0	1	+	0	4	B4r.bmp	492	1	blank2r.bmp	786	1	HLST	786	1	blank2r.bmp	866	4	narr	866	1	!	1227	1	!	1280	0	0	0	0	0	0	0	0	0	0	0	0	0	0	0	0	0	0	0	0	0	0	0	0	0	0	0
062918	15:29:20	5.0.12.0	138	notassociated	Rpleas_acq	Same	Rpleas	Amasked	CS_A	2pleas	acq_unple_masked	acq45_masked	4	15	400	0	300	300	0	0	482	46	0	1	0	0	0	1	blank2r.bmp	0	1	+	0	3	B3r.bmp	492	1	blank2r.bmp	786	1	HLST	786	1	blank2r.bmp	866	3	zwang	866	1	!	1227	1	!	-1	0	0	0	0	0	0	0	0	0	0	0	0	0	0	0	0	0	0	0	0	0	0	0	0	0	0	0
062918	15:29:20	5.0.12.0	138	notassociated	Rpleas_acq	Same	Rpleas	Amasked	CS_A	2pleas	acq_pleas_masked	acq45_masked	4	16	400	1	300	300	0	0	348	50	0	1	0	0	0	1	blank2r.bmp	0	1	+	0	5	C1r.bmp	492	1	blank2r.bmp	786	1	DJMR	786	1	blank2r.bmp	866	3	wein	866	1	!	1227	1	!	1242	0	0	0	0	0	0	0	0	0	0	0	0	0	0	0	0	0	0	0	0	0	0	0	0	0	0	0
062918	15:29:20	5.0.12.0	138	notassociated	Rpleas_acq	Same	Rpleas	Amasked	CS_A	2pleas	acq_pleas_masked	acq45_masked	4	17	400	0	300	300	0	0	516	50	0	1	0	0	0	1	blank2r.bmp	0	1	+	0	3	B3r.bmp	492	1	blank2r.bmp	786	1	DJMR	786	1	blank2r.bmp	866	5	mama	866	1	!	1227	1	!	-1	0	0	0	0	0	0	0	0	0	0	0	0	0	0	0	0	0	0	0	0	0	0	0	0	0	0	0
062918	15:29:20	5.0.12.0	138	notassociated	Rpleas_acq	Same	Rpleas	Amasked	CS_A	2pleas	acq_pleas_masked	acq45_masked	4	18	400	1	300	300	0	0	436	50	0	1	0	0	0	1	blank2r.bmp	0	1	+	0	6	C2r.bmp	492	1	blank2r.bmp	786	1	DJMR	786	1	blank2r.bmp	866	1	frieden	866	1	!	1227	1	!	1330	0	0	0	0	0	0	0	0	0	0	0	0	0	0	0	0	0	0	0	0	0	0	0	0	0	0	0
062918	15:29:20	5.0.12.0	138	notassociated	Rpleas_acq	Same	Rpleas	Amasked	CS_A	2pleas	acq_pleas_masked	acq45_masked	4	19	400	0	300	300	0	0	486	50	0	1	0	0	0	1	blank2r.bmp	0	1	+	0	1	B1r.bmp	492	1	blank2r.bmp	786	1	DJMR	786	1	blank2r.bmp	866	2	jugend	866	1	!	1227	1	!	-1	0	0	0	0	0	0	0	0	0	0	0	0	0	0	0	0	0	0	0	0	0	0	0	0	0	0	0
062918	15:29:20	5.0.12.0	138	notassociated	Rpleas_acq	Same	Rpleas	Amasked	CS_A	2pleas	acq_unple_masked	acq45_masked	4	20	400	1	300	300	0	0	393	46	0	1	0	0	0	1	blank2r.bmp	0	1	+	0	2	B2r.bmp	492	1	blank2r.bmp	786	1	HLST	786	1	blank2r.bmp	866	4	narr	866	1	!	1227	1	!	1287	0	0	0	0	0	0	0	0	0	0	0	0	0	0	0	0	0	0	0	0	0	0	0	0	0	0	0
062918	15:29:20	5.0.12.0	138	notassociated	Rpleas_acq	Same	Rpleas	Amasked	CS_A	2pleas	acq_pleas_masked	acq45_masked	4	21	400	1	300	300	0	0	457	50	0	1	0	0	0	1	blank2r.bmp	0	1	+	0	8	C4r.bmp	492	1	blank2r.bmp	786	1	DJMR	786	1	blank2r.bmp	866	4	erfinder	866	1	!	1227	1	!	1350	0	0	0	0	0	0	0	0	0	0	0	0	0	0	0	0	0	0	0	0	0	0	0	0	0	0	0
062918	15:29:20	5.0.12.0	138	notassociated	Rpleas_acq	Same	Rpleas	Amasked	CS_A	2pleas	acq_unple_masked	acq45_masked	4	22	400	0	300	300	0	0	622	46	0	1	0	0	0	1	blank2r.bmp	0	1	+	0	7	C3r.bmp	492	1	blank2r.bmp	786	1	HLST	786	1	blank2r.bmp	866	6	armee	866	1	!	1227	1	!	-1	0	0	0	0	0	0	0	0	0	0	0	0	0	0	0	0	0	0	0	0	0	0	0	0	0	0	0
062918	15:29:20	5.0.12.0	138	notassociated	Rpleas_acq	Same	Rpleas	Amasked	CS_A	2pleas	acq_pleas_masked	acq45_masked	4	23	400	0	300	300	0	0	516	50	0	1	0	0	0	1	blank2r.bmp	0	1	+	0	4	B4r.bmp	492	1	blank2r.bmp	786	1	DJMR	786	1	blank2r.bmp	866	6	meer	866	1	!	1227	1	!	-1	0	0	0	0	0	0	0	0	0	0	0	0	0	0	0	0	0	0	0	0	0	0	0	0	0	0	0
062918	15:29:20	5.0.12.0	138	notassociated	Rpleas_acq	Same	Rpleas	Amasked	CS_A	2pleas	acq_unple_masked	acq45_masked	4	24	400	0	300	300	0	0	486	46	0	1	0	0	0	1	blank2r.bmp	0	1	+	0	5	C1r.bmp	492	1	blank2r.bmp	786	1	HLST	786	1	blank2r.bmp	866	1	gegner	866	1	!	1227	1	!	-1	0	0	0	0	0	0	0	0	0	0	0	0	0	0	0	0	0	0	0	0	0	0	0	0	0	0	0
062918	15:29:20	5.0.12.0	138	notassociated	Rpleas_acq	Same	Rpleas	Amasked	CS_A	2pleas	acq_unple_masked	acq45_masked	4	25	400	1	300	300	0	0	425	46	0	1	0	0	0	1	blank2r.bmp	0	1	+	0	2	B2r.bmp	492	1	blank2r.bmp	786	1	HLST	786	1	blank2r.bmp	866	5	wunde	866	1	!	1227	1	!	1319	0	0	0	0	0	0	0	0	0	0	0	0	0	0	0	0	0	0	0	0	0	0	0	0	0	0	0
062918	15:29:20	5.0.12.0	138	notassociated	Rpleas_acq	Same	Rpleas	Amasked	CS_A	2pleas	acq_pleas_masked	acq45_masked	4	26	400	0	300	300	0	0	654	50	0	1	0	0	0	1	blank2r.bmp	0	1	+	0	1	B1r.bmp	492	1	blank2r.bmp	786	1	DJMR	786	1	blank2r.bmp	866	3	wein	866	1	!	1227	1	!	-1	0	0	0	0	0	0	0	0	0	0	0	0	0	0	0	0	0	0	0	0	0	0	0	0	0	0	0
062918	15:29:20	5.0.12.0	138	notassociated	Rpleas_acq	Same	Rpleas	Amasked	CS_A	2pleas	acq_unple_masked	acq45_masked	4	27	400	1	300	300	0	0	436	46	0	1	0	0	0	1	blank2r.bmp	0	1	+	0	5	C1r.bmp	492	1	blank2r.bmp	786	1	HLST	786	1	blank2r.bmp	866	2	geiz	866	1	!	1227	1	!	1330	0	0	0	0	0	0	0	0	0	0	0	0	0	0	0	0	0	0	0	0	0	0	0	0	0	0	0
062918	15:29:20	5.0.12.0	138	notassociated	Rpleas_acq	Same	Rpleas	Amasked	CS_A	2pleas	acq_unple_masked	acq45_masked	4	28	400	1	300	300	0	0	439	46	0	1	0	0	0	1	blank2r.bmp	0	1	+	0	6	C2r.bmp	492	1	blank2r.bmp	786	1	HLST	786	1	blank2r.bmp	866	3	zwang	866	1	!	1227	1	!	1332	0	0	0	0	0	0	0	0	0	0	0	0	0	0	0	0	0	0	0	0	0	0	0	0	0	0	0
062918	15:29:20	5.0.12.0	138	notassociated	Rpleas_acq	Same	Rpleas	Amasked	CS_A	2pleas	acq_pleas_masked	acq45_masked	4	29	400	1	300	300	0	0	399	50	0	1	0	0	0	1	blank2r.bmp	0	1	+	0	7	C3r.bmp	492	1	blank2r.bmp	786	1	DJMR	786	1	blank2r.bmp	866	3	wein	866	1	!	1227	1	!	1292	0	0	0	0	0	0	0	0	0	0	0	0	0	0	0	0	0	0	0	0	0	0	0	0	0	0	0
062918	15:29:20	5.0.12.0	138	notassociated	Rpleas_acq	Same	Rpleas	Amasked	CS_A	2pleas	acq_pleas_masked	acq45_masked	4	30	400	1	300	300	0	0	406	50	0	1	0	0	0	1	blank2r.bmp	0	1	+	0	4	B4r.bmp	492	1	blank2r.bmp	786	1	DJMR	786	1	blank2r.bmp	866	2	jugend	866	1	!	1227	1	!	1300	0	0	0	0	0	0	0	0	0	0	0	0	0	0	0	0	0	0	0	0	0	0	0	0	0	0	0
062918	15:29:20	5.0.12.0	138	notassociated	Rpleas_acq	Same	Rpleas	Amasked	CS_A	2pleas	acq_unple_masked	acq45_masked	4	31	400	1	300	300	0	0	337	50	0	0	0	0	0	1	blank2r.bmp	0	1	+	0	3	B3r.bmp	492	1	blank2r.bmp	786	1	HLST	786	1	blank2r.bmp	866	3	zwang	866	1	!	1227	1	!	1230	0	0	0	0	0	0	0	0	0	0	0	0	0	0	0	0	0	0	0	0	0	0	0	0	0	0	0
062918	15:29:20	5.0.12.0	138	notassociated	Rpleas_acq	Same	Rpleas	Amasked	CS_A	2pleas	acq_unple_masked	acq45_masked	4	32	400	1	300	300	0	0	437	46	0	1	0	0	0	1	blank2r.bmp	0	1	+	0	8	C4r.bmp	492	1	blank2r.bmp	786	1	HLST	786	1	blank2r.bmp	866	1	gegner	866	1	!	1227	1	!	1331	0	0	0	0	0	0	0	0	0	0	0	0	0	0	0	0	0	0	0	0	0	0	0	0	0	0	0
062918	15:29:20	5.0.12.0	138	notassociated	Rpleas_acq	Same	Rpleas	Amasked	CS_A	2pleas	acq_pleas_masked	acq45_masked	5	1	400	1	300	300	0	0	453	50	0	1	0	0	0	1	blank2r.bmp	0	1	+	0	8	C4r.bmp	492	1	blank2r.bmp	786	1	DJMR	786	1	blank2r.bmp	866	6	meer	866	1	!	1227	1	!	1346	0	0	0	0	0	0	0	0	0	0	0	0	0	0	0	0	0	0	0	0	0	0	0	0	0	0	0
062918	15:29:20	5.0.12.0	138	notassociated	Rpleas_acq	Same	Rpleas	Amasked	CS_A	2pleas	acq_unple_masked	acq45_masked	5	2	400	0	300	300	0	0	570	46	0	1	0	0	0	1	blank2r.bmp	0	1	+	0	7	C3r.bmp	492	1	blank2r.bmp	786	1	HLST	786	1	blank2r.bmp	866	4	narr	866	1	!	1227	1	!	-1	0	0	0	0	0	0	0	0	0	0	0	0	0	0	0	0	0	0	0	0	0	0	0	0	0	0	0
062918	15:29:20	5.0.12.0	138	notassociated	Rpleas_acq	Same	Rpleas	Amasked	CS_A	2pleas	acq_unple_masked	acq45_masked	5	3	400	1	300	300	0	0	448	46	0	1	0	0	0	1	blank2r.bmp	0	1	+	0	3	B3r.bmp	492	1	blank2r.bmp	786	1	HLST	786	1	blank2r.bmp	866	5	wunde	866	1	!	1227	1	!	1341	0	0	0	0	0	0	0	0	0	0	0	0	0	0	0	0	0	0	0	0	0	0	0	0	0	0	0
062918	15:29:20	5.0.12.0	138	notassociated	Rpleas_acq	Same	Rpleas	Amasked	CS_A	2pleas	acq_unple_masked	acq45_masked	5	4	400	0	300	300	0	0	506	46	0	1	0	0	0	1	blank2r.bmp	0	1	+	0	1	B1r.bmp	492	1	blank2r.bmp	786	1	HLST	786	1	blank2r.bmp	866	6	armee	866	1	!	1227	1	!	-1	0	0	0	0	0	0	0	0	0	0	0	0	0	0	0	0	0	0	0	0	0	0	0	0	0	0	0
062918	15:29:20	5.0.12.0	138	notassociated	Rpleas_acq	Same	Rpleas	Amasked	CS_A	2pleas	acq_pleas_masked	acq45_masked	5	5	400	1	300	300	0	0	362	50	0	1	0	0	0	1	blank2r.bmp	0	1	+	0	5	C1r.bmp	492	1	blank2r.bmp	786	1	DJMR	786	1	blank2r.bmp	866	5	mama	866	1	!	1227	1	!	1256	0	0	0	0	0	0	0	0	0	0	0	0	0	0	0	0	0	0	0	0	0	0	0	0	0	0	0
062918	15:29:20	5.0.12.0	138	notassociated	Rpleas_acq	Same	Rpleas	Amasked	CS_A	2pleas	acq_pleas_masked	acq45_masked	5	6	400	0	300	300	0	0	546	50	0	1	0	0	0	1	blank2r.bmp	0	1	+	0	2	B2r.bmp	492	1	blank2r.bmp	786	1	DJMR	786	1	blank2r.bmp	866	4	erfinder	866	1	!	1227	1	!	-1	0	0	0	0	0	0	0	0	0	0	0	0	0	0	0	0	0	0	0	0	0	0	0	0	0	0	0
062918	15:29:20	5.0.12.0	138	notassociated	Rpleas_acq	Same	Rpleas	Amasked	CS_A	2pleas	acq_pleas_masked	acq45_masked	5	7	400	1	300	300	0	0	450	50	0	1	0	0	0	1	blank2r.bmp	0	1	+	0	6	C2r.bmp	492	1	blank2r.bmp	786	1	DJMR	786	1	blank2r.bmp	866	1	frieden	866	1	!	1227	1	!	1344	0	0	0	0	0	0	0	0	0	0	0	0	0	0	0	0	0	0	0	0	0	0	0	0	0	0	0
062918	15:29:20	5.0.12.0	138	notassociated	Rpleas_acq	Same	Rpleas	Amasked	CS_A	2pleas	acq_pleas_masked	acq45_masked	5	8	400	1	300	300	0	0	359	50	0	1	0	0	0	1	blank2r.bmp	0	1	+	0	4	B4r.bmp	492	1	blank2r.bmp	786	1	DJMR	786	1	blank2r.bmp	866	3	wein	866	1	!	1227	1	!	1253	0	0	0	0	0	0	0	0	0	0	0	0	0	0	0	0	0	0	0	0	0	0	0	0	0	0	0
062918	15:29:20	5.0.12.0	138	notassociated	Rpleas_acq	Same	Rpleas	Amasked	CS_A	2pleas	acq_unple_masked	acq45_masked	5	9	400	1	300	300	0	0	409	46	0	1	0	0	0	1	blank2r.bmp	0	1	+	0	8	C4r.bmp	492	1	blank2r.bmp	786	1	HLST	786	1	blank2r.bmp	866	2	geiz	866	1	!	1227	1	!	1303	0	0	0	0	0	0	0	0	0	0	0	0	0	0	0	0	0	0	0	0	0	0	0	0	0	0	0
062918	15:29:20	5.0.12.0	138	notassociated	Rpleas_acq	Same	Rpleas	Amasked	CS_A	2pleas	acq_pleas_masked	acq45_masked	5	10	400	0	300	300	0	0	543	50	0	1	0	0	0	1	blank2r.bmp	0	1	+	0	7	C3r.bmp	492	1	blank2r.bmp	786	1	DJMR	786	1	blank2r.bmp	866	5	mama	866	1	!	1227	1	!	-1	0	0	0	0	0	0	0	0	0	0	0	0	0	0	0	0	0	0	0	0	0	0	0	0	0	0	0
062918	15:29:20	5.0.12.0	138	notassociated	Rpleas_acq	Same	Rpleas	Amasked	CS_A	2pleas	acq_pleas_masked	acq45_masked	5	11	400	1	300	300	0	0	375	50	0	1	0	0	0	1	blank2r.bmp	0	1	+	0	4	B4r.bmp	492	1	blank2r.bmp	786	1	DJMR	786	1	blank2r.bmp	866	4	erfinder	866	1	!	1227	1	!	1268	0	0	0	0	0	0	0	0	0	0	0	0	0	0	0	0	0	0	0	0	0	0	0	0	0	0	0
062918	15:29:20	5.0.12.0	138	notassociated	Rpleas_acq	Same	Rpleas	Amasked	CS_A	2pleas	acq_unple_masked	acq45_masked	5	12	400	1	300	300	0	0	420	46	0	1	0	0	0	1	blank2r.bmp	0	1	+	0	5	C1r.bmp	492	1	blank2r.bmp	786	1	HLST	786	1	blank2r.bmp	866	3	zwang	866	1	!	1227	1	!	1313	0	0	0	0	0	0	0	0	0	0	0	0	0	0	0	0	0	0	0	0	0	0	0	0	0	0	0
062918	15:29:20	5.0.12.0	138	notassociated	Rpleas_acq	Same	Rpleas	Amasked	CS_A	2pleas	acq_pleas_masked	acq45_masked	5	13	400	1	300	300	0	0	401	50	0	1	0	0	0	1	blank2r.bmp	0	1	+	0	2	B2r.bmp	492	1	blank2r.bmp	786	1	DJMR	786	1	blank2r.bmp	866	6	meer	866	1	!	1227	1	!	1294	0	0	0	0	0	0	0	0	0	0	0	0	0	0	0	0	0	0	0	0	0	0	0	0	0	0	0
062918	15:29:20	5.0.12.0	138	notassociated	Rpleas_acq	Same	Rpleas	Amasked	CS_A	2pleas	acq_unple_masked	acq45_masked	5	14	400	0	300	300	0	0	539	46	0	1	0	0	0	1	blank2r.bmp	0	1	+	0	6	C2r.bmp	492	1	blank2r.bmp	786	1	HLST	786	1	blank2r.bmp	866	2	geiz	866	1	!	1227	1	!	-1	0	0	0	0	0	0	0	0	0	0	0	0	0	0	0	0	0	0	0	0	0	0	0	0	0	0	0
062918	15:29:20	5.0.12.0	138	notassociated	Rpleas_acq	Same	Rpleas	Amasked	CS_A	2pleas	acq_unple_masked	acq45_masked	5	15	400	1	300	300	0	0	465	46	0	1	0	0	0	1	blank2r.bmp	0	1	+	0	1	B1r.bmp	492	1	blank2r.bmp	786	1	HLST	786	1	blank2r.bmp	866	5	wunde	866	1	!	1227	1	!	1358	0	0	0	0	0	0	0	0	0	0	0	0	0	0	0	0	0	0	0	0	0	0	0	0	0	0	0
062918	15:29:20	5.0.12.0	138	notassociated	Rpleas_acq	Same	Rpleas	Amasked	CS_A	2pleas	acq_unple_masked	acq45_masked	5	16	400	0	300	300	0	0	665	46	0	1	0	0	0	1	blank2r.bmp	0	1	+	0	3	B3r.bmp	492	1	blank2r.bmp	786	1	HLST	786	1	blank2r.bmp	866	6	armee	866	1	!	1227	1	!	-1	0	0	0	0	0	0	0	0	0	0	0	0	0	0	0	0	0	0	0	0	0	0	0	0	0	0	0
062918	15:29:20	5.0.12.0	138	notassociated	Rpleas_acq	Same	Rpleas	Amasked	CS_A	2pleas	acq_pleas_masked	acq45_masked	5	17	400	1	300	300	0	0	425	50	0	1	0	0	0	1	blank2r.bmp	0	1	+	0	2	B2r.bmp	492	1	blank2r.bmp	786	1	DJMR	786	1	blank2r.bmp	866	1	frieden	866	1	!	1227	1	!	1319	0	0	0	0	0	0	0	0	0	0	0	0	0	0	0	0	0	0	0	0	0	0	0	0	0	0	0
062918	15:29:20	5.0.12.0	138	notassociated	Rpleas_acq	Same	Rpleas	Amasked	CS_A	2pleas	acq_unple_masked	acq45_masked	5	18	400	1	300	300	0	0	382	46	0	1	0	0	0	1	blank2r.bmp	0	1	+	0	7	C3r.bmp	492	1	blank2r.bmp	786	1	HLST	786	1	blank2r.bmp	866	1	gegner	866	1	!	1227	1	!	1276	0	0	0	0	0	0	0	0	0	0	0	0	0	0	0	0	0	0	0	0	0	0	0	0	0	0	0
062918	15:29:20	5.0.12.0	138	notassociated	Rpleas_acq	Same	Rpleas	Amasked	CS_A	2pleas	acq_unple_masked	acq45_masked	5	19	400	1	300	300	0	0	371	50	0	0	0	0	0	1	blank2r.bmp	0	1	+	0	6	C2r.bmp	492	1	blank2r.bmp	786	1	HLST	786	1	blank2r.bmp	866	4	narr	866	1	!	1227	1	!	1265	0	0	0	0	0	0	0	0	0	0	0	0	0	0	0	0	0	0	0	0	0	0	0	0	0	0	0
062918	15:29:20	5.0.12.0	138	notassociated	Rpleas_acq	Same	Rpleas	Amasked	CS_A	2pleas	acq_unple_masked	acq45_masked	5	20	400	1	300	300	0	0	416	46	0	1	0	0	0	1	blank2r.bmp	0	1	+	0	4	B4r.bmp	492	1	blank2r.bmp	786	1	HLST	786	1	blank2r.bmp	866	1	gegner	866	1	!	1227	1	!	1310	0	0	0	0	0	0	0	0	0	0	0	0	0	0	0	0	0	0	0	0	0	0	0	0	0	0	0
062918	15:29:20	5.0.12.0	138	notassociated	Rpleas_acq	Same	Rpleas	Amasked	CS_A	2pleas	acq_pleas_masked	acq45_masked	5	21	400	0	300	300	0	0	629	50	0	1	0	0	0	1	blank2r.bmp	0	1	+	0	3	B3r.bmp	492	1	blank2r.bmp	786	1	DJMR	786	1	blank2r.bmp	866	2	jugend	866	1	!	1227	1	!	-1	0	0	0	0	0	0	0	0	0	0	0	0	0	0	0	0	0	0	0	0	0	0	0	0	0	0	0
062918	15:29:20	5.0.12.0	138	notassociated	Rpleas_acq	Same	Rpleas	Amasked	CS_A	2pleas	acq_pleas_masked	acq45_masked	5	22	400	1	300	300	0	0	382	50	0	1	0	0	0	1	blank2r.bmp	0	1	+	0	8	C4r.bmp	492	1	blank2r.bmp	786	1	DJMR	786	1	blank2r.bmp	866	5	mama	866	1	!	1227	1	!	1275	0	0	0	0	0	0	0	0	0	0	0	0	0	0	0	0	0	0	0	0	0	0	0	0	0	0	0
062918	15:29:20	5.0.12.0	138	notassociated	Rpleas_acq	Same	Rpleas	Amasked	CS_A	2pleas	acq_unple_masked	acq45_masked	5	23	400	1	300	300	0	0	443	46	0	1	0	0	0	1	blank2r.bmp	0	1	+	0	5	C1r.bmp	492	1	blank2r.bmp	786	1	HLST	786	1	blank2r.bmp	866	5	wunde	866	1	!	1227	1	!	1336	0	0	0	0	0	0	0	0	0	0	0	0	0	0	0	0	0	0	0	0	0	0	0	0	0	0	0
062918	15:29:20	5.0.12.0	138	notassociated	Rpleas_acq	Same	Rpleas	Amasked	CS_A	2pleas	acq_pleas_masked	acq45_masked	5	24	400	1	300	300	0	0	419	50	0	1	0	0	0	1	blank2r.bmp	0	1	+	0	1	B1r.bmp	492	1	blank2r.bmp	786	1	DJMR	786	1	blank2r.bmp	866	3	wein	866	1	!	1227	1	!	1312	0	0	0	0	0	0	0	0	0	0	0	0	0	0	0	0	0	0	0	0	0	0	0	0	0	0	0
062918	15:29:20	5.0.12.0	138	notassociated	Rpleas_acq	Same	Rpleas	Amasked	CS_A	2pleas	acq_unple_masked	acq45_masked	5	25	400	0	300	300	0	0	504	46	0	1	0	0	0	1	blank2r.bmp	0	1	+	0	1	B1r.bmp	492	1	blank2r.bmp	786	1	HLST	786	1	blank2r.bmp	866	3	zwang	866	1	!	1227	1	!	-1	0	0	0	0	0	0	0	0	0	0	0	0	0	0	0	0	0	0	0	0	0	0	0	0	0	0	0
062918	15:29:20	5.0.12.0	138	notassociated	Rpleas_acq	Same	Rpleas	Amasked	CS_A	2pleas	acq_unple_masked	acq45_masked	5	26	400	1	300	300	0	0	376	46	0	1	0	0	0	1	blank2r.bmp	0	1	+	0	3	B3r.bmp	492	1	blank2r.bmp	786	1	HLST	786	1	blank2r.bmp	866	2	geiz	866	1	!	1227	1	!	1269	0	0	0	0	0	0	0	0	0	0	0	0	0	0	0	0	0	0	0	0	0	0	0	0	0	0	0
062918	15:29:20	5.0.12.0	138	notassociated	Rpleas_acq	Same	Rpleas	Amasked	CS_A	2pleas	acq_pleas_masked	acq45_masked	5	27	400	0	300	300	0	0	509	50	0	1	0	0	0	1	blank2r.bmp	0	1	+	0	2	B2r.bmp	492	1	blank2r.bmp	786	1	DJMR	786	1	blank2r.bmp	866	1	frieden	866	1	!	1227	1	!	-1	0	0	0	0	0	0	0	0	0	0	0	0	0	0	0	0	0	0	0	0	0	0	0	0	0	0	0
062918	15:29:20	5.0.12.0	138	notassociated	Rpleas_acq	Same	Rpleas	Amasked	CS_A	2pleas	acq_unple_masked	acq45_masked	5	28	400	1	300	300	0	0	357	46	0	1	0	0	0	1	blank2r.bmp	0	1	+	0	4	B4r.bmp	492	1	blank2r.bmp	786	1	HLST	786	1	blank2r.bmp	866	4	narr	866	1	!	1227	1	!	1250	0	0	0	0	0	0	0	0	0	0	0	0	0	0	0	0	0	0	0	0	0	0	0	0	0	0	0
062918	15:29:20	5.0.12.0	138	notassociated	Rpleas_acq	Same	Rpleas	Amasked	CS_A	2pleas	acq_pleas_masked	acq45_masked	5	29	400	1	300	300	0	0	460	50	0	1	0	0	0	1	blank2r.bmp	0	1	+	0	5	C1r.bmp	492	1	blank2r.bmp	786	1	DJMR	786	1	blank2r.bmp	866	6	meer	866	1	!	1227	1	!	1354	0	0	0	0	0	0	0	0	0	0	0	0	0	0	0	0	0	0	0	0	0	0	0	0	0	0	0
062918	15:29:20	5.0.12.0	138	notassociated	Rpleas_acq	Same	Rpleas	Amasked	CS_A	2pleas	acq_pleas_masked	acq45_masked	5	30	400	0	300	300	0	0	548	50	0	1	0	0	0	1	blank2r.bmp	0	1	+	0	7	C3r.bmp	492	1	blank2r.bmp	786	1	DJMR	786	1	blank2r.bmp	866	2	jugend	866	1	!	1227	1	!	-1	0	0	0	0	0	0	0	0	0	0	0	0	0	0	0	0	0	0	0	0	0	0	0	0	0	0	0
062918	15:29:20	5.0.12.0	138	notassociated	Rpleas_acq	Same	Rpleas	Amasked	CS_A	2pleas	acq_pleas_masked	acq45_masked	5	31	400	1	300	300	0	0	436	50	0	1	0	0	0	1	blank2r.bmp	0	1	+	0	8	C4r.bmp	492	1	blank2r.bmp	786	1	DJMR	786	1	blank2r.bmp	866	4	erfinder	866	1	!	1227	1	!	1330	0	0	0	0	0	0	0	0	0	0	0	0	0	0	0	0	0	0	0	0	0	0	0	0	0	0	0
062918	15:29:20	5.0.12.0	138	notassociated	Rpleas_acq	Same	Rpleas	Amasked	CS_A	2pleas	acq_unple_masked	acq45_masked	5	32	400	0	300	300	0	0	484	46	0	1	0	0	0	1	blank2r.bmp	0	1	+	0	6	C2r.bmp	492	1	blank2r.bmp	786	1	HLST	786	1	blank2r.bmp	866	6	armee	866	1	!	1227	1	!	-1	0	0	0	0	0	0	0	0	0	0	0	0	0	0	0	0	0	0	0	0	0	0	0	0	0	0	0
062918	15:29:20	5.0.12.0	138	notassociated	Rpleas_acq	Same	Rpleas	Amasked	CS_A	2pleas	AMP_CSpleas	AMP1	6	1	0	0	300	300	0	0	6099	50	0	1	0	0	0	1	blank2r.bmp	0	1	DJMR	0	1	blank2r.bmp	79	2	pic2.bmp	79	1	whitenoise.bmp	186	0	0	0	0	0	0	0	0	0	0	0	0	0	0	0	0	0	0	0	0	0	0	0	0	0	0	0	0	0	0	0	0	0	0	0	0	0	0	0
062918	15:29:20	5.0.12.0	138	notassociated	Rpleas_acq	Same	Rpleas	Amasked	CS_A	2pleas	AMP_CSpleas	AMP1	6	2	0	0	300	300	0	0	7024	46	0	0	0	0	0	1	blank2r.bmp	0	1	DJMR	0	1	blank2r.bmp	79	96	pic96.bmp	79	1	whitenoise.bmp	186	0	0	0	0	0	0	0	0	0	0	0	0	0	0	0	0	0	0	0	0	0	0	0	0	0	0	0	0	0	0	0	0	0	0	0	0	0	0	0
062918	15:29:20	5.0.12.0	138	notassociated	Rpleas_acq	Same	Rpleas	Amasked	CS_A	2pleas	AMP_CSunple	AMP1	6	3	0	0	300	300	0	0	4300	46	0	1	0	0	0	1	blank2r.bmp	0	1	HLST	0	1	blank2r.bmp	79	84	pic84.bmp	79	1	whitenoise.bmp	186	0	0	0	0	0	0	0	0	0	0	0	0	0	0	0	0	0	0	0	0	0	0	0	0	0	0	0	0	0	0	0	0	0	0	0	0	0	0	0
062918	15:29:20	5.0.12.0	138	notassociated	Rpleas_acq	Same	Rpleas	Amasked	CS_A	2pleas	AMP_CSpleas	AMP1	6	4	0	0	300	300	0	0	2676	50	0	1	0	0	0	1	blank2r.bmp	0	1	DJMR	0	1	blank2r.bmp	79	19	pic19.bmp	79	1	whitenoise.bmp	186	0	0	0	0	0	0	0	0	0	0	0	0	0	0	0	0	0	0	0	0	0	0	0	0	0	0	0	0	0	0	0	0	0	0	0	0	0	0	0
062918	15:29:20	5.0.12.0	138	notassociated	Rpleas_acq	Same	Rpleas	Amasked	CS_A	2pleas	AMP_CSunple	AMP1	6	5	0	0	300	300	0	0	760	46	0	1	0	0	0	1	blank2r.bmp	0	1	HLST	0	1	blank2r.bmp	79	87	pic87.bmp	79	1	whitenoise.bmp	186	0	0	0	0	0	0	0	0	0	0	0	0	0	0	0	0	0	0	0	0	0	0	0	0	0	0	0	0	0	0	0	0	0	0	0	0	0	0	0
062918	15:29:20	5.0.12.0	138	notassociated	Rpleas_acq	Same	Rpleas	Amasked	CS_A	2pleas	AMP_CSpleas	AMP1	6	6	0	0	300	300	0	0	294	46	0	0	0	0	0	1	blank2r.bmp	0	1	DJMR	0	1	blank2r.bmp	79	20	pic20.bmp	79	1	whitenoise.bmp	186	0	0	0	0	0	0	0	0	0	0	0	0	0	0	0	0	0	0	0	0	0	0	0	0	0	0	0	0	0	0	0	0	0	0	0	0	0	0	0
062918	15:29:20	5.0.12.0	138	notassociated	Rpleas_acq	Same	Rpleas	Amasked	CS_A	2pleas	AMP_CSpleas	AMP1	6	7	0	0	300	300	0	0	170	46	0	0	0	0	0	1	blank2r.bmp	0	1	DJMR	0	1	blank2r.bmp	79	98	pic98.bmp	79	1	whitenoise.bmp	186	0	0	0	0	0	0	0	0	0	0	0	0	0	0	0	0	0	0	0	0	0	0	0	0	0	0	0	0	0	0	0	0	0	0	0	0	0	0	0
062918	15:29:20	5.0.12.0	138	notassociated	Rpleas_acq	Same	Rpleas	Amasked	CS_A	2pleas	AMP_CSunple	AMP1	6	8	0	0	300	300	0	0	149	46	0	1	0	0	0	1	blank2r.bmp	0	1	HLST	0	1	blank2r.bmp	79	59	pic59.bmp	79	1	whitenoise.bmp	186	0	0	0	0	0	0	0	0	0	0	0	0	0	0	0	0	0	0	0	0	0	0	0	0	0	0	0	0	0	0	0	0	0	0	0	0	0	0	0
062918	15:29:20	5.0.12.0	138	notassociated	Rpleas_acq	Same	Rpleas	Amasked	CS_A	2pleas	AMP_CSpleas	AMP1	6	9	0	0	300	300	0	0	115	46	0	0	0	0	0	1	blank2r.bmp	0	1	DJMR	0	1	blank2r.bmp	79	74	pic74.bmp	79	1	whitenoise.bmp	186	0	0	0	0	0	0	0	0	0	0	0	0	0	0	0	0	0	0	0	0	0	0	0	0	0	0	0	0	0	0	0	0	0	0	0	0	0	0	0
062918	15:29:20	5.0.12.0	138	notassociated	Rpleas_acq	Same	Rpleas	Amasked	CS_A	2pleas	AMP_CSpleas	AMP1	6	10	0	0	300	300	0	0	99	46	0	0	0	0	0	1	blank2r.bmp	0	1	DJMR	0	1	blank2r.bmp	79	41	pic41.bmp	79	1	whitenoise.bmp	186	0	0	0	0	0	0	0	0	0	0	0	0	0	0	0	0	0	0	0	0	0	0	0	0	0	0	0	0	0	0	0	0	0	0	0	0	0	0	0
062918	15:29:20	5.0.12.0	138	notassociated	Rpleas_acq	Same	Rpleas	Amasked	CS_A	2pleas	AMP_CSunple	AMP1	6	11	0	0	300	300	0	0	65	46	0	1	0	0	0	1	blank2r.bmp	0	1	HLST	0	1	blank2r.bmp	79	99	pic99.bmp	79	1	whitenoise.bmp	186	0	0	0	0	0	0	0	0	0	0	0	0	0	0	0	0	0	0	0	0	0	0	0	0	0	0	0	0	0	0	0	0	0	0	0	0	0	0	0
062918	15:29:20	5.0.12.0	138	notassociated	Rpleas_acq	Same	Rpleas	Amasked	CS_A	2pleas	AMP_CSpleas	AMP1	6	12	0	0	300	300	0	0	74	50	0	1	0	0	0	1	blank2r.bmp	0	1	DJMR	0	1	blank2r.bmp	79	36	pic36.bmp	79	1	whitenoise.bmp	186	0	0	0	0	0	0	0	0	0	0	0	0	0	0	0	0	0	0	0	0	0	0	0	0	0	0	0	0	0	0	0	0	0	0	0	0	0	0	0
062918	15:29:20	5.0.12.0	138	notassociated	Rpleas_acq	Same	Rpleas	Amasked	CS_A	2pleas	AMP_CSpleas	AMP1	6	13	0	0	300	300	0	0	1655	50	0	1	0	0	0	1	blank2r.bmp	0	1	DJMR	0	1	blank2r.bmp	79	89	pic89.bmp	79	1	whitenoise.bmp	186	0	0	0	0	0	0	0	0	0	0	0	0	0	0	0	0	0	0	0	0	0	0	0	0	0	0	0	0	0	0	0	0	0	0	0	0	0	0	0
062918	15:29:20	5.0.12.0	138	notassociated	Rpleas_acq	Same	Rpleas	Amasked	CS_A	2pleas	AMP_CSpleas	AMP1	6	14	0	0	300	300	0	0	1083	50	0	1	0	0	0	1	blank2r.bmp	0	1	DJMR	0	1	blank2r.bmp	79	100	pic100.bmp	79	1	whitenoise.bmp	186	0	0	0	0	0	0	0	0	0	0	0	0	0	0	0	0	0	0	0	0	0	0	0	0	0	0	0	0	0	0	0	0	0	0	0	0	0	0	0
062918	15:29:20	5.0.12.0	138	notassociated	Rpleas_acq	Same	Rpleas	Amasked	CS_A	2pleas	AMP_CSunple	AMP1	6	15	0	0	300	300	0	0	1919	46	0	1	0	0	0	1	blank2r.bmp	0	1	HLST	0	1	blank2r.bmp	79	1	pic1.bmp	79	1	whitenoise.bmp	186	0	0	0	0	0	0	0	0	0	0	0	0	0	0	0	0	0	0	0	0	0	0	0	0	0	0	0	0	0	0	0	0	0	0	0	0	0	0	0
062918	15:29:20	5.0.12.0	138	notassociated	Rpleas_acq	Same	Rpleas	Amasked	CS_A	2pleas	AMP_CSunple	AMP1	6	16	0	0	300	300	0	0	984	46	0	1	0	0	0	1	blank2r.bmp	0	1	HLST	0	1	blank2r.bmp	79	50	pic50.bmp	79	1	whitenoise.bmp	186	0	0	0	0	0	0	0	0	0	0	0	0	0	0	0	0	0	0	0	0	0	0	0	0	0	0	0	0	0	0	0	0	0	0	0	0	0	0	0
062918	15:29:20	5.0.12.0	138	notassociated	Rpleas_acq	Same	Rpleas	Amasked	CS_A	2pleas	AMP_CSunple	AMP1	6	17	0	0	300	300	0	0	473	46	0	1	0	0	0	1	blank2r.bmp	0	1	HLST	0	1	blank2r.bmp	79	18	pic18.bmp	79	1	whitenoise.bmp	186	0	0	0	0	0	0	0	0	0	0	0	0	0	0	0	0	0	0	0	0	0	0	0	0	0	0	0	0	0	0	0	0	0	0	0	0	0	0	0
062918	15:29:20	5.0.12.0	138	notassociated	Rpleas_acq	Same	Rpleas	Amasked	CS_A	2pleas	AMP_CSunple	AMP1	6	18	0	0	300	300	0	0	472	46	0	1	0	0	0	1	blank2r.bmp	0	1	HLST	0	1	blank2r.bmp	79	8	pic8.bmp	79	1	whitenoise.bmp	186	0	0	0	0	0	0	0	0	0	0	0	0	0	0	0	0	0	0	0	0	0	0	0	0	0	0	0	0	0	0	0	0	0	0	0	0	0	0	0
062918	15:29:20	5.0.12.0	138	notassociated	Rpleas_acq	Same	Rpleas	Amasked	CS_A	2pleas	AMP_CSunple	AMP1	6	19	0	0	300	300	0	0	464	50	0	0	0	0	0	1	blank2r.bmp	0	1	HLST	0	1	blank2r.bmp	79	91	pic91.bmp	79	1	whitenoise.bmp	186	0	0	0	0	0	0	0	0	0	0	0	0	0	0	0	0	0	0	0	0	0	0	0	0	0	0	0	0	0	0	0	0	0	0	0	0	0	0	0
062918	15:29:20	5.0.12.0	138	notassociated	Rpleas_acq	Same	Rpleas	Amasked	CS_A	2pleas	AMP_CSpleas	AMP1	6	20	0	0	300	300	0	0	663	50	0	1	0	0	0	1	blank2r.bmp	0	1	DJMR	0	1	blank2r.bmp	79	62	pic62.bmp	79	1	whitenoise.bmp	186	0	0	0	0	0	0	0	0	0	0	0	0	0	0	0	0	0	0	0	0	0	0	0	0	0	0	0	0	0	0	0	0	0	0	0	0	0	0	0
062918	15:29:20	5.0.12.0	138	notassociated	Rpleas_acq	Same	Rpleas	Amasked	CS_A	2pleas	AMP_CSunple	AMP1	6	21	0	0	300	300	0	0	486	50	0	0	0	0	0	1	blank2r.bmp	0	1	HLST	0	1	blank2r.bmp	79	77	pic77.bmp	79	1	whitenoise.bmp	186	0	0	0	0	0	0	0	0	0	0	0	0	0	0	0	0	0	0	0	0	0	0	0	0	0	0	0	0	0	0	0	0	0	0	0	0	0	0	0
062918	15:29:20	5.0.12.0	138	notassociated	Rpleas_acq	Same	Rpleas	Amasked	CS_A	2pleas	AMP_CSpleas	AMP1	6	22	0	0	300	300	0	0	443	46	0	0	0	0	0	1	blank2r.bmp	0	1	DJMR	0	1	blank2r.bmp	79	38	pic38.bmp	79	1	whitenoise.bmp	186	0	0	0	0	0	0	0	0	0	0	0	0	0	0	0	0	0	0	0	0	0	0	0	0	0	0	0	0	0	0	0	0	0	0	0	0	0	0	0
062918	15:29:20	5.0.12.0	138	notassociated	Rpleas_acq	Same	Rpleas	Amasked	CS_A	2pleas	AMP_CSpleas	AMP1	6	23	0	0	300	300	0	0	301	50	0	1	0	0	0	1	blank2r.bmp	0	1	DJMR	0	1	blank2r.bmp	79	57	pic57.bmp	79	1	whitenoise.bmp	186	0	0	0	0	0	0	0	0	0	0	0	0	0	0	0	0	0	0	0	0	0	0	0	0	0	0	0	0	0	0	0	0	0	0	0	0	0	0	0
062918	15:29:20	5.0.12.0	138	notassociated	Rpleas_acq	Same	Rpleas	Amasked	CS_A	2pleas	AMP_CSpleas	AMP1	6	24	0	0	300	300	0	0	414	50	0	1	0	0	0	1	blank2r.bmp	0	1	DJMR	0	1	blank2r.bmp	79	39	pic39.bmp	79	1	whitenoise.bmp	186	0	0	0	0	0	0	0	0	0	0	0	0	0	0	0	0	0	0	0	0	0	0	0	0	0	0	0	0	0	0	0	0	0	0	0	0	0	0	0
062918	15:29:20	5.0.12.0	138	notassociated	Rpleas_acq	Same	Rpleas	Amasked	CS_A	2pleas	AMP_CSpleas	AMP1	6	25	0	0	300	300	0	0	173	46	0	0	0	0	0	1	blank2r.bmp	0	1	DJMR	0	1	blank2r.bmp	79	44	pic44.bmp	79	1	whitenoise.bmp	186	0	0	0	0	0	0	0	0	0	0	0	0	0	0	0	0	0	0	0	0	0	0	0	0	0	0	0	0	0	0	0	0	0	0	0	0	0	0	0
062918	15:29:20	5.0.12.0	138	notassociated	Rpleas_acq	Same	Rpleas	Amasked	CS_A	2pleas	AMP_CSpleas	AMP1	6	26	0	0	300	300	0	0	51	50	0	1	0	0	0	1	blank2r.bmp	0	1	DJMR	0	1	blank2r.bmp	79	78	pic78.bmp	79	1	whitenoise.bmp	186	0	0	0	0	0	0	0	0	0	0	0	0	0	0	0	0	0	0	0	0	0	0	0	0	0	0	0	0	0	0	0	0	0	0	0	0	0	0	0
062918	15:29:20	5.0.12.0	138	notassociated	Rpleas_acq	Same	Rpleas	Amasked	CS_A	2pleas	AMP_CSunple	AMP1	6	27	0	0	300	300	0	0	126	46	0	1	0	0	0	1	blank2r.bmp	0	1	HLST	0	1	blank2r.bmp	79	51	pic51.bmp	79	1	whitenoise.bmp	186	0	0	0	0	0	0	0	0	0	0	0	0	0	0	0	0	0	0	0	0	0	0	0	0	0	0	0	0	0	0	0	0	0	0	0	0	0	0	0
062918	15:29:20	5.0.12.0	138	notassociated	Rpleas_acq	Same	Rpleas	Amasked	CS_A	2pleas	AMP_CSunple	AMP1	6	28	0	0	300	300	0	0	150	50	0	0	0	0	0	1	blank2r.bmp	0	1	HLST	0	1	blank2r.bmp	79	13	pic13.bmp	79	1	whitenoise.bmp	186	0	0	0	0	0	0	0	0	0	0	0	0	0	0	0	0	0	0	0	0	0	0	0	0	0	0	0	0	0	0	0	0	0	0	0	0	0	0	0
062918	15:29:20	5.0.12.0	138	notassociated	Rpleas_acq	Same	Rpleas	Amasked	CS_A	2pleas	AMP_CSunple	AMP1	6	29	0	0	300	300	0	0	143	46	0	1	0	0	0	1	blank2r.bmp	0	1	HLST	0	1	blank2r.bmp	79	69	pic69.bmp	79	1	whitenoise.bmp	186	0	0	0	0	0	0	0	0	0	0	0	0	0	0	0	0	0	0	0	0	0	0	0	0	0	0	0	0	0	0	0	0	0	0	0	0	0	0	0
062918	15:29:20	5.0.12.0	138	notassociated	Rpleas_acq	Same	Rpleas	Amasked	CS_A	2pleas	AMP_CSpleas	AMP1	6	30	0	0	300	300	0	0	61	50	0	1	0	0	0	1	blank2r.bmp	0	1	DJMR	0	1	blank2r.bmp	79	70	pic70.bmp	79	1	whitenoise.bmp	186	0	0	0	0	0	0	0	0	0	0	0	0	0	0	0	0	0	0	0	0	0	0	0	0	0	0	0	0	0	0	0	0	0	0	0	0	0	0	0
062918	15:29:20	5.0.12.0	138	notassociated	Rpleas_acq	Same	Rpleas	Amasked	CS_A	2pleas	AMP_CSunple	AMP1	6	31	0	0	300	300	0	0	83	50	0	0	0	0	0	1	blank2r.bmp	0	1	HLST	0	1	blank2r.bmp	79	6	pic6.bmp	79	1	whitenoise.bmp	186	0	0	0	0	0	0	0	0	0	0	0	0	0	0	0	0	0	0	0	0	0	0	0	0	0	0	0	0	0	0	0	0	0	0	0	0	0	0	0
062918	15:29:20	5.0.12.0	138	notassociated	Rpleas_acq	Same	Rpleas	Amasked	CS_A	2pleas	AMP_CSpleas	AMP1	6	32	0	0	300	300	0	0	91	50	0	1	0	0	0	1	blank2r.bmp	0	1	DJMR	0	1	blank2r.bmp	79	30	pic30.bmp	79	1	whitenoise.bmp	186	0	0	0	0	0	0	0	0	0	0	0	0	0	0	0	0	0	0	0	0	0	0	0	0	0	0	0	0	0	0	0	0	0	0	0	0	0	0	0
062918	15:29:20	5.0.12.0	138	notassociated	Rpleas_acq	Same	Rpleas	Amasked	CS_A	2pleas	AMP_CSpleas	AMP1	6	33	0	0	300	300	0	0	214	46	0	0	0	0	0	1	blank2r.bmp	0	1	DJMR	0	1	blank2r.bmp	79	23	pic23.bmp	79	1	whitenoise.bmp	186	0	0	0	0	0	0	0	0	0	0	0	0	0	0	0	0	0	0	0	0	0	0	0	0	0	0	0	0	0	0	0	0	0	0	0	0	0	0	0
062918	15:29:20	5.0.12.0	138	notassociated	Rpleas_acq	Same	Rpleas	Amasked	CS_A	2pleas	AMP_CSunple	AMP1	6	34	0	0	300	300	0	0	18	50	0	0	0	0	0	1	blank2r.bmp	0	1	HLST	0	1	blank2r.bmp	79	43	pic43.bmp	79	1	whitenoise.bmp	186	0	0	0	0	0	0	0	0	0	0	0	0	0	0	0	0	0	0	0	0	0	0	0	0	0	0	0	0	0	0	0	0	0	0	0	0	0	0	0
062918	15:29:20	5.0.12.0	138	notassociated	Rpleas_acq	Same	Rpleas	Amasked	CS_A	2pleas	AMP_CSunple	AMP1	6	35	0	0	300	300	0	0	93	46	0	1	0	0	0	1	blank2r.bmp	0	1	HLST	0	1	blank2r.bmp	79	64	pic64.bmp	79	1	whitenoise.bmp	186	0	0	0	0	0	0	0	0	0	0	0	0	0	0	0	0	0	0	0	0	0	0	0	0	0	0	0	0	0	0	0	0	0	0	0	0	0	0	0
062918	15:29:20	5.0.12.0	138	notassociated	Rpleas_acq	Same	Rpleas	Amasked	CS_A	2pleas	AMP_CSpleas	AMP1	6	36	0	0	300	300	0	0	40	50	0	1	0	0	0	1	blank2r.bmp	0	1	DJMR	0	1	blank2r.bmp	79	90	pic90.bmp	79	1	whitenoise.bmp	186	0	0	0	0	0	0	0	0	0	0	0	0	0	0	0	0	0	0	0	0	0	0	0	0	0	0	0	0	0	0	0	0	0	0	0	0	0	0	0
062918	15:29:20	5.0.12.0	138	notassociated	Rpleas_acq	Same	Rpleas	Amasked	CS_A	2pleas	AMP_CSunple	AMP1	6	37	0	0	300	300	0	0	88	50	0	0	0	0	0	1	blank2r.bmp	0	1	HLST	0	1	blank2r.bmp	79	92	pic92.bmp	79	1	whitenoise.bmp	186	0	0	0	0	0	0	0	0	0	0	0	0	0	0	0	0	0	0	0	0	0	0	0	0	0	0	0	0	0	0	0	0	0	0	0	0	0	0	0
062918	15:29:20	5.0.12.0	138	notassociated	Rpleas_acq	Same	Rpleas	Amasked	CS_A	2pleas	AMP_CSpleas	AMP1	6	38	0	0	300	300	0	0	44	50	0	1	0	0	0	1	blank2r.bmp	0	1	DJMR	0	1	blank2r.bmp	79	68	pic68.bmp	79	1	whitenoise.bmp	186	0	0	0	0	0	0	0	0	0	0	0	0	0	0	0	0	0	0	0	0	0	0	0	0	0	0	0	0	0	0	0	0	0	0	0	0	0	0	0
062918	15:29:20	5.0.12.0	138	notassociated	Rpleas_acq	Same	Rpleas	Amasked	CS_A	2pleas	AMP_CSpleas	AMP1	6	39	0	0	300	300	0	0	60	50	0	1	0	0	0	1	blank2r.bmp	0	1	DJMR	0	1	blank2r.bmp	79	97	pic97.bmp	79	1	whitenoise.bmp	186	0	0	0	0	0	0	0	0	0	0	0	0	0	0	0	0	0	0	0	0	0	0	0	0	0	0	0	0	0	0	0	0	0	0	0	0	0	0	0
062918	15:29:20	5.0.12.0	138	notassociated	Rpleas_acq	Same	Rpleas	Amasked	CS_A	2pleas	AMP_CSunple	AMP1	6	40	0	0	300	300	0	0	57	50	0	0	0	0	0	1	blank2r.bmp	0	1	HLST	0	1	blank2r.bmp	79	71	pic71.bmp	79	1	whitenoise.bmp	186	0	0	0	0	0	0	0	0	0	0	0	0	0	0	0	0	0	0	0	0	0	0	0	0	0	0	0	0	0	0	0	0	0	0	0	0	0	0	0
062918	15:29:20	5.0.12.0	138	notassociated	Rpleas_acq	Same	Rpleas	Amasked	CS_A	2pleas	AMP_CSpleas	AMP1	6	41	0	0	300	300	0	0	71	50	0	1	0	0	0	1	blank2r.bmp	0	1	DJMR	0	1	blank2r.bmp	79	63	pic63.bmp	79	1	whitenoise.bmp	186	0	0	0	0	0	0	0	0	0	0	0	0	0	0	0	0	0	0	0	0	0	0	0	0	0	0	0	0	0	0	0	0	0	0	0	0	0	0	0
062918	15:29:20	5.0.12.0	138	notassociated	Rpleas_acq	Same	Rpleas	Amasked	CS_A	2pleas	AMP_CSunple	AMP1	6	42	0	0	300	300	0	0	383	50	0	0	0	0	0	1	blank2r.bmp	0	1	HLST	0	1	blank2r.bmp	79	61	pic61.bmp	79	1	whitenoise.bmp	186	0	0	0	0	0	0	0	0	0	0	0	0	0	0	0	0	0	0	0	0	0	0	0	0	0	0	0	0	0	0	0	0	0	0	0	0	0	0	0
062918	15:29:20	5.0.12.0	138	notassociated	Rpleas_acq	Same	Rpleas	Amasked	CS_A	2pleas	AMP_CSpleas	AMP1	6	43	0	0	300	300	0	0	182	46	0	0	0	0	0	1	blank2r.bmp	0	1	DJMR	0	1	blank2r.bmp	79	5	pic5.bmp	79	1	whitenoise.bmp	186	0	0	0	0	0	0	0	0	0	0	0	0	0	0	0	0	0	0	0	0	0	0	0	0	0	0	0	0	0	0	0	0	0	0	0	0	0	0	0
062918	15:29:20	5.0.12.0	138	notassociated	Rpleas_acq	Same	Rpleas	Amasked	CS_A	2pleas	AMP_CSunple	AMP1	6	44	0	0	300	300	0	0	204	50	0	0	0	0	0	1	blank2r.bmp	0	1	HLST	0	1	blank2r.bmp	79	80	pic80.bmp	79	1	whitenoise.bmp	186	0	0	0	0	0	0	0	0	0	0	0	0	0	0	0	0	0	0	0	0	0	0	0	0	0	0	0	0	0	0	0	0	0	0	0	0	0	0	0
062918	15:29:20	5.0.12.0	138	notassociated	Rpleas_acq	Same	Rpleas	Amasked	CS_A	2pleas	AMP_CSunple	AMP1	6	45	0	0	300	300	0	0	128	46	0	1	0	0	0	1	blank2r.bmp	0	1	HLST	0	1	blank2r.bmp	79	95	pic95.bmp	79	1	whitenoise.bmp	186	0	0	0	0	0	0	0	0	0	0	0	0	0	0	0	0	0	0	0	0	0	0	0	0	0	0	0	0	0	0	0	0	0	0	0	0	0	0	0
062918	15:29:20	5.0.12.0	138	notassociated	Rpleas_acq	Same	Rpleas	Amasked	CS_A	2pleas	AMP_CSpleas	AMP1	6	46	0	0	300	300	0	0	187	46	0	0	0	0	0	1	blank2r.bmp	0	1	DJMR	0	1	blank2r.bmp	79	60	pic60.bmp	79	1	whitenoise.bmp	186	0	0	0	0	0	0	0	0	0	0	0	0	0	0	0	0	0	0	0	0	0	0	0	0	0	0	0	0	0	0	0	0	0	0	0	0	0	0	0
062918	15:29:20	5.0.12.0	138	notassociated	Rpleas_acq	Same	Rpleas	Amasked	CS_A	2pleas	AMP_CSunple	AMP1	6	47	0	0	300	300	0	0	105	50	0	0	0	0	0	1	blank2r.bmp	0	1	HLST	0	1	blank2r.bmp	79	29	pic29.bmp	79	1	whitenoise.bmp	186	0	0	0	0	0	0	0	0	0	0	0	0	0	0	0	0	0	0	0	0	0	0	0	0	0	0	0	0	0	0	0	0	0	0	0	0	0	0	0
062918	15:29:20	5.0.12.0	138	notassociated	Rpleas_acq	Same	Rpleas	Amasked	CS_A	2pleas	AMP_CSunple	AMP1	6	48	0	0	300	300	0	0	111	46	0	1	0	0	0	1	blank2r.bmp	0	1	HLST	0	1	blank2r.bmp	79	72	pic72.bmp	79	1	whitenoise.bmp	186	0	0	0	0	0	0	0	0	0	0	0	0	0	0	0	0	0	0	0	0	0	0	0	0	0	0	0	0	0	0	0	0	0	0	0	0	0	0	0
062918	15:29:20	5.0.12.0	138	notassociated	Rpleas_acq	Same	Rpleas	Amasked	CS_A	2pleas	AMP_CSunple	AMP1	6	49	0	0	300	300	0	0	95	50	0	0	0	0	0	1	blank2r.bmp	0	1	HLST	0	1	blank2r.bmp	79	10	pic10.bmp	79	1	whitenoise.bmp	186	0	0	0	0	0	0	0	0	0	0	0	0	0	0	0	0	0	0	0	0	0	0	0	0	0	0	0	0	0	0	0	0	0	0	0	0	0	0	0
062918	15:29:20	5.0.12.0	138	notassociated	Rpleas_acq	Same	Rpleas	Amasked	CS_A	2pleas	AMP_CSunple	AMP1	6	50	0	0	300	300	0	0	109	46	0	1	0	0	0	1	blank2r.bmp	0	1	HLST	0	1	blank2r.bmp	79	55	pic55.bmp	79	1	whitenoise.bmp	186	0	0	0	0	0	0	0	0	0	0	0	0	0	0	0	0	0	0	0	0	0	0	0	0	0	0	0	0	0	0	0	0	0	0	0	0	0	0	0
062918	15:29:20	5.0.12.0	138	notassociated	Rpleas_acq	Same	Rpleas	Amasked	CS_A	2pleas	AMP_CSpleas	AMP2	7	1	0	0	300	300	0	0	3445	46	0	0	0	0	0	1	blank2r.bmp	0	1	DJMR	0	1	blank2r.bmp	79	83	pic83.bmp	79	1	whitenoise.bmp	186	0	0	0	0	0	0	0	0	0	0	0	0	0	0	0	0	0	0	0	0	0	0	0	0	0	0	0	0	0	0	0	0	0	0	0	0	0	0	0
062918	15:29:20	5.0.12.0	138	notassociated	Rpleas_acq	Same	Rpleas	Amasked	CS_A	2pleas	AMP_CSpleas	AMP2	7	2	0	0	300	300	0	0	396	46	0	0	0	0	0	1	blank2r.bmp	0	1	DJMR	0	1	blank2r.bmp	79	93	pic93.bmp	79	1	whitenoise.bmp	186	0	0	0	0	0	0	0	0	0	0	0	0	0	0	0	0	0	0	0	0	0	0	0	0	0	0	0	0	0	0	0	0	0	0	0	0	0	0	0
062918	15:29:20	5.0.12.0	138	notassociated	Rpleas_acq	Same	Rpleas	Amasked	CS_A	2pleas	AMP_CSpleas	AMP2	7	3	0	0	300	300	0	0	368	46	0	0	0	0	0	1	blank2r.bmp	0	1	DJMR	0	1	blank2r.bmp	79	7	pic7.bmp	79	1	whitenoise.bmp	186	0	0	0	0	0	0	0	0	0	0	0	0	0	0	0	0	0	0	0	0	0	0	0	0	0	0	0	0	0	0	0	0	0	0	0	0	0	0	0
062918	15:29:20	5.0.12.0	138	notassociated	Rpleas_acq	Same	Rpleas	Amasked	CS_A	2pleas	AMP_CSunple	AMP2	7	4	0	0	300	300	0	0	213	46	0	1	0	0	0	1	blank2r.bmp	0	1	HLST	0	1	blank2r.bmp	79	9	pic9.bmp	79	1	whitenoise.bmp	186	0	0	0	0	0	0	0	0	0	0	0	0	0	0	0	0	0	0	0	0	0	0	0	0	0	0	0	0	0	0	0	0	0	0	0	0	0	0	0
062918	15:29:20	5.0.12.0	138	notassociated	Rpleas_acq	Same	Rpleas	Amasked	CS_A	2pleas	AMP_CSunple	AMP2	7	5	0	0	300	300	0	0	91	46	0	1	0	0	0	1	blank2r.bmp	0	1	HLST	0	1	blank2r.bmp	79	26	pic26.bmp	79	1	whitenoise.bmp	186	0	0	0	0	0	0	0	0	0	0	0	0	0	0	0	0	0	0	0	0	0	0	0	0	0	0	0	0	0	0	0	0	0	0	0	0	0	0	0
062918	15:29:20	5.0.12.0	138	notassociated	Rpleas_acq	Same	Rpleas	Amasked	CS_A	2pleas	AMP_CSpleas	AMP2	7	6	0	0	300	300	0	0	118	46	0	0	0	0	0	1	blank2r.bmp	0	1	DJMR	0	1	blank2r.bmp	79	52	pic52.bmp	79	1	whitenoise.bmp	186	0	0	0	0	0	0	0	0	0	0	0	0	0	0	0	0	0	0	0	0	0	0	0	0	0	0	0	0	0	0	0	0	0	0	0	0	0	0	0
062918	15:29:20	5.0.12.0	138	notassociated	Rpleas_acq	Same	Rpleas	Amasked	CS_A	2pleas	AMP_CSunple	AMP2	7	7	0	0	300	300	0	0	54	46	0	1	0	0	0	1	blank2r.bmp	0	1	HLST	0	1	blank2r.bmp	79	66	pic66.bmp	79	1	whitenoise.bmp	186	0	0	0	0	0	0	0	0	0	0	0	0	0	0	0	0	0	0	0	0	0	0	0	0	0	0	0	0	0	0	0	0	0	0	0	0	0	0	0
062918	15:29:20	5.0.12.0	138	notassociated	Rpleas_acq	Same	Rpleas	Amasked	CS_A	2pleas	AMP_CSpleas	AMP2	7	8	0	0	300	300	0	0	82	46	0	0	0	0	0	1	blank2r.bmp	0	1	DJMR	0	1	blank2r.bmp	79	76	pic76.bmp	79	1	whitenoise.bmp	186	0	0	0	0	0	0	0	0	0	0	0	0	0	0	0	0	0	0	0	0	0	0	0	0	0	0	0	0	0	0	0	0	0	0	0	0	0	0	0
062918	15:29:20	5.0.12.0	138	notassociated	Rpleas_acq	Same	Rpleas	Amasked	CS_A	2pleas	AMP_CSunple	AMP2	7	9	0	0	300	300	0	0	61	46	0	1	0	0	0	1	blank2r.bmp	0	1	HLST	0	1	blank2r.bmp	79	33	pic33.bmp	79	1	whitenoise.bmp	186	0	0	0	0	0	0	0	0	0	0	0	0	0	0	0	0	0	0	0	0	0	0	0	0	0	0	0	0	0	0	0	0	0	0	0	0	0	0	0
062918	15:29:20	5.0.12.0	138	notassociated	Rpleas_acq	Same	Rpleas	Amasked	CS_A	2pleas	AMP_CSunple	AMP2	7	10	0	0	300	300	0	0	39	46	0	1	0	0	0	1	blank2r.bmp	0	1	HLST	0	1	blank2r.bmp	79	16	pic16.bmp	79	1	whitenoise.bmp	186	0	0	0	0	0	0	0	0	0	0	0	0	0	0	0	0	0	0	0	0	0	0	0	0	0	0	0	0	0	0	0	0	0	0	0	0	0	0	0
062918	15:29:20	5.0.12.0	138	notassociated	Rpleas_acq	Same	Rpleas	Amasked	CS_A	2pleas	AMP_CSunple	AMP2	7	11	0	0	300	300	0	0	106	46	0	1	0	0	0	1	blank2r.bmp	0	1	HLST	0	1	blank2r.bmp	79	48	pic48.bmp	79	1	whitenoise.bmp	186	0	0	0	0	0	0	0	0	0	0	0	0	0	0	0	0	0	0	0	0	0	0	0	0	0	0	0	0	0	0	0	0	0	0	0	0	0	0	0
062918	15:29:20	5.0.12.0	138	notassociated	Rpleas_acq	Same	Rpleas	Amasked	CS_A	2pleas	AMP_CSpleas	AMP2	7	12	0	0	300	300	0	0	51	46	0	0	0	0	0	1	blank2r.bmp	0	1	DJMR	0	1	blank2r.bmp	79	65	pic65.bmp	79	1	whitenoise.bmp	186	0	0	0	0	0	0	0	0	0	0	0	0	0	0	0	0	0	0	0	0	0	0	0	0	0	0	0	0	0	0	0	0	0	0	0	0	0	0	0
062918	15:29:20	5.0.12.0	138	notassociated	Rpleas_acq	Same	Rpleas	Amasked	CS_A	2pleas	AMP_CSunple	AMP2	7	13	0	0	300	300	0	0	54	46	0	1	0	0	0	1	blank2r.bmp	0	1	HLST	0	1	blank2r.bmp	79	45	pic45.bmp	79	1	whitenoise.bmp	186	0	0	0	0	0	0	0	0	0	0	0	0	0	0	0	0	0	0	0	0	0	0	0	0	0	0	0	0	0	0	0	0	0	0	0	0	0	0	0
062918	15:29:20	5.0.12.0	138	notassociated	Rpleas_acq	Same	Rpleas	Amasked	CS_A	2pleas	AMP_CSpleas	AMP2	7	14	0	0	300	300	0	0	73	46	0	0	0	0	0	1	blank2r.bmp	0	1	DJMR	0	1	blank2r.bmp	79	17	pic17.bmp	79	1	whitenoise.bmp	186	0	0	0	0	0	0	0	0	0	0	0	0	0	0	0	0	0	0	0	0	0	0	0	0	0	0	0	0	0	0	0	0	0	0	0	0	0	0	0
062918	15:29:20	5.0.12.0	138	notassociated	Rpleas_acq	Same	Rpleas	Amasked	CS_A	2pleas	AMP_CSpleas	AMP2	7	15	0	0	300	300	0	0	57	46	0	0	0	0	0	1	blank2r.bmp	0	1	DJMR	0	1	blank2r.bmp	79	34	pic34.bmp	79	1	whitenoise.bmp	186	0	0	0	0	0	0	0	0	0	0	0	0	0	0	0	0	0	0	0	0	0	0	0	0	0	0	0	0	0	0	0	0	0	0	0	0	0	0	0
062918	15:29:20	5.0.12.0	138	notassociated	Rpleas_acq	Same	Rpleas	Amasked	CS_A	2pleas	AMP_CSpleas	AMP2	7	16	0	0	300	300	0	0	52	46	0	0	0	0	0	1	blank2r.bmp	0	1	DJMR	0	1	blank2r.bmp	79	85	pic85.bmp	79	1	whitenoise.bmp	186	0	0	0	0	0	0	0	0	0	0	0	0	0	0	0	0	0	0	0	0	0	0	0	0	0	0	0	0	0	0	0	0	0	0	0	0	0	0	0
062918	15:29:20	5.0.12.0	138	notassociated	Rpleas_acq	Same	Rpleas	Amasked	CS_A	2pleas	AMP_CSunple	AMP2	7	17	0	0	300	300	0	0	34	46	0	1	0	0	0	1	blank2r.bmp	0	1	HLST	0	1	blank2r.bmp	79	12	pic12.bmp	79	1	whitenoise.bmp	186	0	0	0	0	0	0	0	0	0	0	0	0	0	0	0	0	0	0	0	0	0	0	0	0	0	0	0	0	0	0	0	0	0	0	0	0	0	0	0
062918	15:29:20	5.0.12.0	138	notassociated	Rpleas_acq	Same	Rpleas	Amasked	CS_A	2pleas	AMP_CSunple	AMP2	7	18	0	0	300	300	0	0	42	46	0	1	0	0	0	1	blank2r.bmp	0	1	HLST	0	1	blank2r.bmp	79	86	pic86.bmp	79	1	whitenoise.bmp	186	0	0	0	0	0	0	0	0	0	0	0	0	0	0	0	0	0	0	0	0	0	0	0	0	0	0	0	0	0	0	0	0	0	0	0	0	0	0	0
062918	15:29:20	5.0.12.0	138	notassociated	Rpleas_acq	Same	Rpleas	Amasked	CS_A	2pleas	AMP_CSunple	AMP2	7	19	0	0	300	300	0	0	59	46	0	1	0	0	0	1	blank2r.bmp	0	1	HLST	0	1	blank2r.bmp	79	75	pic75.bmp	79	1	whitenoise.bmp	186	0	0	0	0	0	0	0	0	0	0	0	0	0	0	0	0	0	0	0	0	0	0	0	0	0	0	0	0	0	0	0	0	0	0	0	0	0	0	0
062918	15:29:20	5.0.12.0	138	notassociated	Rpleas_acq	Same	Rpleas	Amasked	CS_A	2pleas	AMP_CSunple	AMP2	7	20	0	0	300	300	0	0	32	46	0	1	0	0	0	1	blank2r.bmp	0	1	HLST	0	1	blank2r.bmp	79	82	pic82.bmp	79	1	whitenoise.bmp	186	0	0	0	0	0	0	0	0	0	0	0	0	0	0	0	0	0	0	0	0	0	0	0	0	0	0	0	0	0	0	0	0	0	0	0	0	0	0	0
062918	15:29:20	5.0.12.0	138	notassociated	Rpleas_acq	Same	Rpleas	Amasked	CS_A	2pleas	AMP_CSpleas	AMP2	7	21	0	0	300	300	0	0	41	46	0	0	0	0	0	1	blank2r.bmp	0	1	DJMR	0	1	blank2r.bmp	79	11	pic11.bmp	79	1	whitenoise.bmp	186	0	0	0	0	0	0	0	0	0	0	0	0	0	0	0	0	0	0	0	0	0	0	0	0	0	0	0	0	0	0	0	0	0	0	0	0	0	0	0
062918	15:29:20	5.0.12.0	138	notassociated	Rpleas_acq	Same	Rpleas	Amasked	CS_A	2pleas	AMP_CSpleas	AMP2	7	22	0	0	300	300	0	0	73	46	0	0	0	0	0	1	blank2r.bmp	0	1	DJMR	0	1	blank2r.bmp	79	88	pic88.bmp	79	1	whitenoise.bmp	186	0	0	0	0	0	0	0	0	0	0	0	0	0	0	0	0	0	0	0	0	0	0	0	0	0	0	0	0	0	0	0	0	0	0	0	0	0	0	0
062918	15:29:20	5.0.12.0	138	notassociated	Rpleas_acq	Same	Rpleas	Amasked	CS_A	2pleas	AMP_CSpleas	AMP2	7	23	0	0	300	300	0	0	25	46	0	0	0	0	0	1	blank2r.bmp	0	1	DJMR	0	1	blank2r.bmp	79	47	pic47.bmp	79	1	whitenoise.bmp	186	0	0	0	0	0	0	0	0	0	0	0	0	0	0	0	0	0	0	0	0	0	0	0	0	0	0	0	0	0	0	0	0	0	0	0	0	0	0	0
062918	15:29:20	5.0.12.0	138	notassociated	Rpleas_acq	Same	Rpleas	Amasked	CS_A	2pleas	AMP_CSpleas	AMP2	7	24	0	0	300	300	0	0	39	46	0	0	0	0	0	1	blank2r.bmp	0	1	DJMR	0	1	blank2r.bmp	79	22	pic22.bmp	79	1	whitenoise.bmp	186	0	0	0	0	0	0	0	0	0	0	0	0	0	0	0	0	0	0	0	0	0	0	0	0	0	0	0	0	0	0	0	0	0	0	0	0	0	0	0
062918	15:29:20	5.0.12.0	138	notassociated	Rpleas_acq	Same	Rpleas	Amasked	CS_A	2pleas	AMP_CSpleas	AMP2	7	25	0	0	300	300	0	0	103	46	0	0	0	0	0	1	blank2r.bmp	0	1	DJMR	0	1	blank2r.bmp	79	15	pic15.bmp	79	1	whitenoise.bmp	186	0	0	0	0	0	0	0	0	0	0	0	0	0	0	0	0	0	0	0	0	0	0	0	0	0	0	0	0	0	0	0	0	0	0	0	0	0	0	0
062918	15:29:20	5.0.12.0	138	notassociated	Rpleas_acq	Same	Rpleas	Amasked	CS_A	2pleas	AMP_CSpleas	AMP2	7	26	0	0	300	300	0	0	61	46	0	0	0	0	0	1	blank2r.bmp	0	1	DJMR	0	1	blank2r.bmp	79	3	pic3.bmp	79	1	whitenoise.bmp	186	0	0	0	0	0	0	0	0	0	0	0	0	0	0	0	0	0	0	0	0	0	0	0	0	0	0	0	0	0	0	0	0	0	0	0	0	0	0	0
062918	15:29:20	5.0.12.0	138	notassociated	Rpleas_acq	Same	Rpleas	Amasked	CS_A	2pleas	AMP_CSunple	AMP2	7	27	0	0	300	300	0	0	56	46	0	1	0	0	0	1	blank2r.bmp	0	1	HLST	0	1	blank2r.bmp	79	31	pic31.bmp	79	1	whitenoise.bmp	186	0	0	0	0	0	0	0	0	0	0	0	0	0	0	0	0	0	0	0	0	0	0	0	0	0	0	0	0	0	0	0	0	0	0	0	0	0	0	0
062918	15:29:20	5.0.12.0	138	notassociated	Rpleas_acq	Same	Rpleas	Amasked	CS_A	2pleas	AMP_CSunple	AMP2	7	28	0	0	300	300	0	0	86	46	0	1	0	0	0	1	blank2r.bmp	0	1	HLST	0	1	blank2r.bmp	79	42	pic42.bmp	79	1	whitenoise.bmp	186	0	0	0	0	0	0	0	0	0	0	0	0	0	0	0	0	0	0	0	0	0	0	0	0	0	0	0	0	0	0	0	0	0	0	0	0	0	0	0
062918	15:29:20	5.0.12.0	138	notassociated	Rpleas_acq	Same	Rpleas	Amasked	CS_A	2pleas	AMP_CSpleas	AMP2	7	29	0	0	300	300	0	0	1	46	0	0	0	0	0	1	blank2r.bmp	0	1	DJMR	0	1	blank2r.bmp	79	14	pic14.bmp	79	1	whitenoise.bmp	186	0	0	0	0	0	0	0	0	0	0	0	0	0	0	0	0	0	0	0	0	0	0	0	0	0	0	0	0	0	0	0	0	0	0	0	0	0	0	0
062918	15:29:20	5.0.12.0	138	notassociated	Rpleas_acq	Same	Rpleas	Amasked	CS_A	2pleas	AMP_CSpleas	AMP2	7	30	0	0	300	300	0	0	73	46	0	0	0	0	0	1	blank2r.bmp	0	1	DJMR	0	1	blank2r.bmp	79	4	pic4.bmp	79	1	whitenoise.bmp	186	0	0	0	0	0	0	0	0	0	0	0	0	0	0	0	0	0	0	0	0	0	0	0	0	0	0	0	0	0	0	0	0	0	0	0	0	0	0	0
062918	15:29:20	5.0.12.0	138	notassociated	Rpleas_acq	Same	Rpleas	Amasked	CS_A	2pleas	AMP_CSunple	AMP2	7	31	0	0	300	300	0	0	129	46	0	1	0	0	0	1	blank2r.bmp	0	1	HLST	0	1	blank2r.bmp	79	53	pic53.bmp	79	1	whitenoise.bmp	186	0	0	0	0	0	0	0	0	0	0	0	0	0	0	0	0	0	0	0	0	0	0	0	0	0	0	0	0	0	0	0	0	0	0	0	0	0	0	0
062918	15:29:20	5.0.12.0	138	notassociated	Rpleas_acq	Same	Rpleas	Amasked	CS_A	2pleas	AMP_CSpleas	AMP2	7	32	0	0	300	300	0	0	125	46	0	0	0	0	0	1	blank2r.bmp	0	1	DJMR	0	1	blank2r.bmp	79	24	pic24.bmp	79	1	whitenoise.bmp	186	0	0	0	0	0	0	0	0	0	0	0	0	0	0	0	0	0	0	0	0	0	0	0	0	0	0	0	0	0	0	0	0	0	0	0	0	0	0	0
062918	15:29:20	5.0.12.0	138	notassociated	Rpleas_acq	Same	Rpleas	Amasked	CS_A	2pleas	AMP_CSpleas	AMP2	7	33	0	0	300	300	0	0	149	46	0	0	0	0	0	1	blank2r.bmp	0	1	DJMR	0	1	blank2r.bmp	79	37	pic37.bmp	79	1	whitenoise.bmp	186	0	0	0	0	0	0	0	0	0	0	0	0	0	0	0	0	0	0	0	0	0	0	0	0	0	0	0	0	0	0	0	0	0	0	0	0	0	0	0
062918	15:29:20	5.0.12.0	138	notassociated	Rpleas_acq	Same	Rpleas	Amasked	CS_A	2pleas	AMP_CSunple	AMP2	7	34	0	0	300	300	0	0	134	46	0	1	0	0	0	1	blank2r.bmp	0	1	HLST	0	1	blank2r.bmp	79	94	pic94.bmp	79	1	whitenoise.bmp	186	0	0	0	0	0	0	0	0	0	0	0	0	0	0	0	0	0	0	0	0	0	0	0	0	0	0	0	0	0	0	0	0	0	0	0	0	0	0	0
062918	15:29:20	5.0.12.0	138	notassociated	Rpleas_acq	Same	Rpleas	Amasked	CS_A	2pleas	AMP_CSpleas	AMP2	7	35	0	0	300	300	0	0	129	46	0	0	0	0	0	1	blank2r.bmp	0	1	DJMR	0	1	blank2r.bmp	79	58	pic58.bmp	79	1	whitenoise.bmp	186	0	0	0	0	0	0	0	0	0	0	0	0	0	0	0	0	0	0	0	0	0	0	0	0	0	0	0	0	0	0	0	0	0	0	0	0	0	0	0
062918	15:29:20	5.0.12.0	138	notassociated	Rpleas_acq	Same	Rpleas	Amasked	CS_A	2pleas	AMP_CSunple	AMP2	7	36	0	0	300	300	0	0	108	46	0	1	0	0	0	1	blank2r.bmp	0	1	HLST	0	1	blank2r.bmp	79	56	pic56.bmp	79	1	whitenoise.bmp	186	0	0	0	0	0	0	0	0	0	0	0	0	0	0	0	0	0	0	0	0	0	0	0	0	0	0	0	0	0	0	0	0	0	0	0	0	0	0	0
062918	15:29:20	5.0.12.0	138	notassociated	Rpleas_acq	Same	Rpleas	Amasked	CS_A	2pleas	AMP_CSpleas	AMP2	7	37	0	0	300	300	0	0	146	46	0	0	0	0	0	1	blank2r.bmp	0	1	DJMR	0	1	blank2r.bmp	79	27	pic27.bmp	79	1	whitenoise.bmp	186	0	0	0	0	0	0	0	0	0	0	0	0	0	0	0	0	0	0	0	0	0	0	0	0	0	0	0	0	0	0	0	0	0	0	0	0	0	0	0
062918	15:29:20	5.0.12.0	138	notassociated	Rpleas_acq	Same	Rpleas	Amasked	CS_A	2pleas	AMP_CSunple	AMP2	7	38	0	0	300	300	0	0	75	46	0	1	0	0	0	1	blank2r.bmp	0	1	HLST	0	1	blank2r.bmp	79	49	pic49.bmp	79	1	whitenoise.bmp	186	0	0	0	0	0	0	0	0	0	0	0	0	0	0	0	0	0	0	0	0	0	0	0	0	0	0	0	0	0	0	0	0	0	0	0	0	0	0	0
062918	15:29:20	5.0.12.0	138	notassociated	Rpleas_acq	Same	Rpleas	Amasked	CS_A	2pleas	AMP_CSunple	AMP2	7	39	0	0	300	300	0	0	86	46	0	1	0	0	0	1	blank2r.bmp	0	1	HLST	0	1	blank2r.bmp	79	67	pic67.bmp	79	1	whitenoise.bmp	186	0	0	0	0	0	0	0	0	0	0	0	0	0	0	0	0	0	0	0	0	0	0	0	0	0	0	0	0	0	0	0	0	0	0	0	0	0	0	0
062918	15:29:20	5.0.12.0	138	notassociated	Rpleas_acq	Same	Rpleas	Amasked	CS_A	2pleas	AMP_CSunple	AMP2	7	40	0	0	300	300	0	0	94	46	0	1	0	0	0	1	blank2r.bmp	0	1	HLST	0	1	blank2r.bmp	79	73	pic73.bmp	79	1	whitenoise.bmp	186	0	0	0	0	0	0	0	0	0	0	0	0	0	0	0	0	0	0	0	0	0	0	0	0	0	0	0	0	0	0	0	0	0	0	0	0	0	0	0
062918	15:29:20	5.0.12.0	138	notassociated	Rpleas_acq	Same	Rpleas	Amasked	CS_A	2pleas	AMP_CSunple	AMP2	7	41	0	0	300	300	0	0	105	46	0	1	0	0	0	1	blank2r.bmp	0	1	HLST	0	1	blank2r.bmp	79	46	pic46.bmp	79	1	whitenoise.bmp	186	0	0	0	0	0	0	0	0	0	0	0	0	0	0	0	0	0	0	0	0	0	0	0	0	0	0	0	0	0	0	0	0	0	0	0	0	0	0	0
062918	15:29:20	5.0.12.0	138	notassociated	Rpleas_acq	Same	Rpleas	Amasked	CS_A	2pleas	AMP_CSunple	AMP2	7	42	0	0	300	300	0	0	95	46	0	1	0	0	0	1	blank2r.bmp	0	1	HLST	0	1	blank2r.bmp	79	25	pic25.bmp	79	1	whitenoise.bmp	186	0	0	0	0	0	0	0	0	0	0	0	0	0	0	0	0	0	0	0	0	0	0	0	0	0	0	0	0	0	0	0	0	0	0	0	0	0	0	0
062918	15:29:20	5.0.12.0	138	notassociated	Rpleas_acq	Same	Rpleas	Amasked	CS_A	2pleas	AMP_CSpleas	AMP2	7	43	0	0	300	300	0	0	53	46	0	0	0	0	0	1	blank2r.bmp	0	1	DJMR	0	1	blank2r.bmp	79	32	pic32.bmp	79	1	whitenoise.bmp	186	0	0	0	0	0	0	0	0	0	0	0	0	0	0	0	0	0	0	0	0	0	0	0	0	0	0	0	0	0	0	0	0	0	0	0	0	0	0	0
062918	15:29:20	5.0.12.0	138	notassociated	Rpleas_acq	Same	Rpleas	Amasked	CS_A	2pleas	AMP_CSunple	AMP2	7	44	0	0	300	300	0	0	88	46	0	1	0	0	0	1	blank2r.bmp	0	1	HLST	0	1	blank2r.bmp	79	79	pic79.bmp	79	1	whitenoise.bmp	186	0	0	0	0	0	0	0	0	0	0	0	0	0	0	0	0	0	0	0	0	0	0	0	0	0	0	0	0	0	0	0	0	0	0	0	0	0	0	0
062918	15:29:20	5.0.12.0	138	notassociated	Rpleas_acq	Same	Rpleas	Amasked	CS_A	2pleas	AMP_CSpleas	AMP2	7	45	0	0	300	300	0	0	123	46	0	0	0	0	0	1	blank2r.bmp	0	1	DJMR	0	1	blank2r.bmp	79	35	pic35.bmp	79	1	whitenoise.bmp	186	0	0	0	0	0	0	0	0	0	0	0	0	0	0	0	0	0	0	0	0	0	0	0	0	0	0	0	0	0	0	0	0	0	0	0	0	0	0	0
062918	15:29:20	5.0.12.0	138	notassociated	Rpleas_acq	Same	Rpleas	Amasked	CS_A	2pleas	AMP_CSunple	AMP2	7	46	0	0	300	300	0	0	60	46	0	1	0	0	0	1	blank2r.bmp	0	1	HLST	0	1	blank2r.bmp	79	81	pic81.bmp	79	1	whitenoise.bmp	186	0	0	0	0	0	0	0	0	0	0	0	0	0	0	0	0	0	0	0	0	0	0	0	0	0	0	0	0	0	0	0	0	0	0	0	0	0	0	0
062918	15:29:20	5.0.12.0	138	notassociated	Rpleas_acq	Same	Rpleas	Amasked	CS_A	2pleas	AMP_CSpleas	AMP2	7	47	0	0	300	300	0	0	73	46	0	0	0	0	0	1	blank2r.bmp	0	1	DJMR	0	1	blank2r.bmp	79	54	pic54.bmp	79	1	whitenoise.bmp	186	0	0	0	0	0	0	0	0	0	0	0	0	0	0	0	0	0	0	0	0	0	0	0	0	0	0	0	0	0	0	0	0	0	0	0	0	0	0	0
062918	15:29:20	5.0.12.0	138	notassociated	Rpleas_acq	Same	Rpleas	Amasked	CS_A	2pleas	AMP_CSunple	AMP2	7	48	0	0	300	300	0	0	82	46	0	1	0	0	0	1	blank2r.bmp	0	1	HLST	0	1	blank2r.bmp	79	40	pic40.bmp	79	1	whitenoise.bmp	186	0	0	0	0	0	0	0	0	0	0	0	0	0	0	0	0	0	0	0	0	0	0	0	0	0	0	0	0	0	0	0	0	0	0	0	0	0	0	0
062918	15:29:20	5.0.12.0	138	notassociated	Rpleas_acq	Same	Rpleas	Amasked	CS_A	2pleas	AMP_CSunple	AMP2	7	49	0	0	300	300	0	0	117	46	0	1	0	0	0	1	blank2r.bmp	0	1	HLST	0	1	blank2r.bmp	79	21	pic21.bmp	79	1	whitenoise.bmp	186	0	0	0	0	0	0	0	0	0	0	0	0	0	0	0	0	0	0	0	0	0	0	0	0	0	0	0	0	0	0	0	0	0	0	0	0	0	0	0
062918	15:29:20	5.0.12.0	138	notassociated	Rpleas_acq	Same	Rpleas	Amasked	CS_A	2pleas	AMP_CSpleas	AMP2	7	50	0	0	300	300	0	0	149	46	0	0	0	0	0	1	blank2r.bmp	0	1	DJMR	0	1	blank2r.bmp	79	28	pic28.bmp	79	1	whitenoise.bmp	186	0	0	0	0	0	0	0	0	0	0	0	0	0	0	0	0	0	0	0	0	0	0	0	0	0	0	0	0	0	0	0	0	0	0	0	0	0	0	0
062918	15:29:20	5.0.12.0	138	notassociated	Rpleas_acq	Same	Rpleas	Amasked	CS_A	2pleas	EvalRating_firsttwo	EvalRating_firsttwo	8	1	0	0	300	300	0	0	2426	line	-165	0	0	0	0	1	eraser	0	1	Wie angenehm oder unangenehm finden Sie die  Buchstabenkette ZMXH?	0	1	leftborder	0	1	rightborder	0	1	line	0	1	Unangenehm	0	1	Angenehm	0	0	0	0	0	0	0	0	0	0	0	0	0	0	0	0	0	0	0	0	0	0	0	0	0	0	0	0	0	0	0	0	0	0
062918	15:29:20	5.0.12.0	138	notassociated	Rpleas_acq	Same	Rpleas	Amasked	CS_A	2pleas	EvalRating_lastfour	EvalRating_lastfour	9	1	0	0	300	300	0	0	2528	line	257,5	0	0	0	0	1	eraser	0	1	Wie angenehm oder unangenehm finden Sie die  Buchstabenkette HLST?	0	1	leftborder	0	1	rightborder	0	1	line	0	1	Unangenehm	0	1	Angenehm	0	0	0	0	0	0	0	0	0	0	0	0	0	0	0	0	0	0	0	0	0	0	0	0	0	0	0	0	0	0	0	0	0	0
062918	15:29:20	5.0.12.0	138	notassociated	Rpleas_acq	Same	Rpleas	Amasked	CS_A	2pleas	blank_screen	EvalRating_lastfour	9	3	0	0	300	300	0	0	0	0	257,5	0	0	0	0	1	eraser	0	0	0	0	0	0	0	0	0	0	0	0	0	0	0	0	0	0	0	0	0	0	0	0	0	0	0	0	0	0	0	0	0	0	0	0	0	0	0	0	0	0	0	0	0	0	0	0	0	0	0	0
062918	15:29:20	5.0.12.0	138	notassociated	Rpleas_acq	Same	Rpleas	Amasked	CS_A	2pleas	EvalRating_lastfour	EvalRating_lastfour	9	4	0	0	300	300	0	0	1780	line	-123,75	0	0	0	0	1	eraser	0	2	Wie angenehm oder unangenehm finden Sie die  Buchstabenkette DJMR?	0	1	leftborder	0	1	rightborder	0	1	line	0	1	Unangenehm	0	1	Angenehm	0	0	0	0	0	0	0	0	0	0	0	0	0	0	0	0	0	0	0	0	0	0	0	0	0	0	0	0	0	0	0	0	0	0
062918	15:29:20	5.0.12.0	138	notassociated	Rpleas_acq	Same	Rpleas	Amasked	CS_A	2pleas	blank_screen	EvalRating_lastfour	9	6	0	0	300	300	0	0	0	0	-123,75	0	0	0	0	1	eraser	0	0	0	0	0	0	0	0	0	0	0	0	0	0	0	0	0	0	0	0	0	0	0	0	0	0	0	0	0	0	0	0	0	0	0	0	0	0	0	0	0	0	0	0	0	0	0	0	0	0	0	0
062918	15:29:20	5.0.12.0	138	notassociated	Rpleas_acq	Same	Rpleas	Amasked	CS_A	2pleas	EvalRating_lastfour	EvalRating_lastfour	9	7	0	0	300	300	0	0	2431	line	-28,7499999999999964473	0	0	0	0	1	eraser	0	3	Wie angenehm oder unangenehm finden Sie die  Buchstabenkette LRGC?	0	1	leftborder	0	1	rightborder	0	1	line	0	1	Unangenehm	0	1	Angenehm	0	0	0	0	0	0	0	0	0	0	0	0	0	0	0	0	0	0	0	0	0	0	0	0	0	0	0	0	0	0	0	0	0	0
062918	15:29:20	5.0.12.0	138	notassociated	Rpleas_acq	Same	Rpleas	Amasked	CS_A	2pleas	cond_US_pleas_123_masked_CS2	condtest_masked_1	10	1	400	0	300	300	0	0	497	50	-28,7499999999999964473	1	0	0	0	1	blank2r.bmp	0	1	+	0	8	C4r.bmp	492	1	blank2r.bmp	786	1	DJMR	786	1	blank2r.bmp	866	2	jugend	866	1	!	1227	1	!	-1	0	0	0	0	0	0	0	0	0	0	0	0	0	0	0	0	0	0	0	0	0	0	0	0	0	0	0
062918	15:29:20	5.0.12.0	138	notassociated	Rpleas_acq	Same	Rpleas	Amasked	CS_A	2pleas	cond_US_pleas_123_masked_CS1	condtest_masked_1	10	2	400	1	300	300	0	0	414	50	-28,7499999999999964473	1	0	0	0	1	blank2r.bmp	0	1	+	0	3	B3r.bmp	492	1	blank2r.bmp	786	1	HLST	786	1	blank2r.bmp	866	1	frieden	866	1	!	1227	1	!	1308	0	0	0	0	0	0	0	0	0	0	0	0	0	0	0	0	0	0	0	0	0	0	0	0	0	0	0
062918	15:29:20	5.0.12.0	138	notassociated	Rpleas_acq	Same	Rpleas	Amasked	CS_A	2pleas	cond_new_pleas_456_masked_CS1	condtest_masked_1	10	3	400	0	300	300	0	0	499	50	-28,7499999999999964473	1	0	0	0	1	blank2r.bmp	0	1	+	0	1	B1r.bmp	492	1	blank2r.bmp	786	1	HLST	786	1	blank2r.bmp	866	3	auge	866	1	!	1227	1	!	-1	0	0	0	0	0	0	0	0	0	0	0	0	0	0	0	0	0	0	0	0	0	0	0	0	0	0	0
062918	15:29:20	5.0.12.0	138	notassociated	Rpleas_acq	Same	Rpleas	Amasked	CS_A	2pleas	cond_new_unple_456_masked_CS2	condtest_masked_1	10	4	400	0	300	300	0	0	489	46	-28,7499999999999964473	1	0	0	0	1	blank2r.bmp	0	1	+	0	4	B4r.bmp	492	1	blank2r.bmp	786	1	DJMR	786	1	blank2r.bmp	866	2	weigern	866	1	!	1227	1	!	-1	0	0	0	0	0	0	0	0	0	0	0	0	0	0	0	0	0	0	0	0	0	0	0	0	0	0	0
062918	15:29:20	5.0.12.0	138	notassociated	Rpleas_acq	Same	Rpleas	Amasked	CS_A	2pleas	cond_US_unple_123_masked_CS1	condtest_masked_1	10	5	400	1	300	300	0	0	355	46	-28,7499999999999964473	1	0	0	0	1	blank2r.bmp	0	1	+	0	2	B2r.bmp	492	1	blank2r.bmp	786	1	HLST	786	1	blank2r.bmp	866	2	geiz	866	1	!	1227	1	!	1249	0	0	0	0	0	0	0	0	0	0	0	0	0	0	0	0	0	0	0	0	0	0	0	0	0	0	0
062918	15:29:20	5.0.12.0	138	notassociated	Rpleas_acq	Same	Rpleas	Amasked	CS_A	2pleas	cond_new_pleas_456_masked_CS2	condtest_masked_1	10	6	400	0	300	300	0	0	494	50	-28,7499999999999964473	1	0	0	0	1	blank2r.bmp	0	1	+	0	7	C3r.bmp	492	1	blank2r.bmp	786	1	DJMR	786	1	blank2r.bmp	866	2	gewinn	866	1	!	1227	1	!	-1	0	0	0	0	0	0	0	0	0	0	0	0	0	0	0	0	0	0	0	0	0	0	0	0	0	0	0
062918	15:29:20	5.0.12.0	138	notassociated	Rpleas_acq	Same	Rpleas	Amasked	CS_A	2pleas	cond_US_unple_123_masked_CS2	condtest_masked_1	10	7	400	0	300	300	0	0	515	46	-28,7499999999999964473	1	0	0	0	1	blank2r.bmp	0	1	+	0	5	C1r.bmp	492	1	blank2r.bmp	786	1	DJMR	786	1	blank2r.bmp	866	3	zwang	866	1	!	1227	1	!	-1	0	0	0	0	0	0	0	0	0	0	0	0	0	0	0	0	0	0	0	0	0	0	0	0	0	0	0
062918	15:29:20	5.0.12.0	138	notassociated	Rpleas_acq	Same	Rpleas	Amasked	CS_A	2pleas	cond_new_unple_456_masked_CS1	condtest_masked_1	10	8	400	0	300	300	0	0	510	46	-28,7499999999999964473	1	0	0	0	1	blank2r.bmp	0	1	+	0	6	C2r.bmp	492	1	blank2r.bmp	786	1	HLST	786	1	blank2r.bmp	866	1	wurm	866	1	!	1227	1	!	-1	0	0	0	0	0	0	0	0	0	0	0	0	0	0	0	0	0	0	0	0	0	0	0	0	0	0	0
062918	15:29:20	5.0.12.0	138	notassociated	Rpleas_acq	Same	Rpleas	Amasked	CS_A	2pleas	cond_US_unple_123_masked_CS2	condtest_masked_2	11	1	400	1	300	300	0	0	408	46	-28,7499999999999964473	1	0	0	0	1	blank2r.bmp	0	1	+	0	5	C1r.bmp	492	1	blank2r.bmp	786	1	DJMR	786	1	blank2r.bmp	866	1	gegner	866	1	!	1227	1	!	1301	0	0	0	0	0	0	0	0	0	0	0	0	0	0	0	0	0	0	0	0	0	0	0	0	0	0	0
062918	15:29:20	5.0.12.0	138	notassociated	Rpleas_acq	Same	Rpleas	Amasked	CS_A	2pleas	cond_US_pleas_123_masked_CS2	condtest_masked_2	11	2	400	1	300	300	0	0	402	50	-28,7499999999999964473	1	0	0	0	1	blank2r.bmp	0	1	+	0	7	C3r.bmp	492	1	blank2r.bmp	786	1	DJMR	786	1	blank2r.bmp	866	3	wein	866	1	!	1227	1	!	1296	0	0	0	0	0	0	0	0	0	0	0	0	0	0	0	0	0	0	0	0	0	0	0	0	0	0	0
062918	15:29:20	5.0.12.0	138	notassociated	Rpleas_acq	Same	Rpleas	Amasked	CS_A	2pleas	cond_US_pleas_123_masked_CS2	condtest_masked_2	11	3	400	1	300	300	0	0	364	50	-28,7499999999999964473	1	0	0	0	1	blank2r.bmp	0	1	+	0	1	B1r.bmp	492	1	blank2r.bmp	786	1	DJMR	786	1	blank2r.bmp	866	1	frieden	866	1	!	1227	1	!	1258	0	0	0	0	0	0	0	0	0	0	0	0	0	0	0	0	0	0	0	0	0	0	0	0	0	0	0
062918	15:29:20	5.0.12.0	138	notassociated	Rpleas_acq	Same	Rpleas	Amasked	CS_A	2pleas	cond_new_pleas_456_masked_CS2	condtest_masked_2	11	4	400	1	300	300	0	0	439	50	-28,7499999999999964473	1	0	0	0	1	blank2r.bmp	0	1	+	0	2	B2r.bmp	492	1	blank2r.bmp	786	1	DJMR	786	1	blank2r.bmp	866	1	energie	866	1	!	1227	1	!	1332	0	0	0	0	0	0	0	0	0	0	0	0	0	0	0	0	0	0	0	0	0	0	0	0	0	0	0
062918	15:29:20	5.0.12.0	138	notassociated	Rpleas_acq	Same	Rpleas	Amasked	CS_A	2pleas	cond_US_unple_123_masked_CS2	condtest_masked_2	11	5	400	0	300	300	0	0	473	46	-28,7499999999999964473	1	0	0	0	1	blank2r.bmp	0	1	+	0	3	B3r.bmp	492	1	blank2r.bmp	786	1	DJMR	786	1	blank2r.bmp	866	2	geiz	866	1	!	1227	1	!	-1	0	0	0	0	0	0	0	0	0	0	0	0	0	0	0	0	0	0	0	0	0	0	0	0	0	0	0
062918	15:29:20	5.0.12.0	138	notassociated	Rpleas_acq	Same	Rpleas	Amasked	CS_A	2pleas	cond_US_pleas_123_masked_CS2	condtest_masked_2	11	6	400	0	300	300	0	0	476	46	-28,7499999999999964473	0	0	0	0	1	blank2r.bmp	0	1	+	0	8	C4r.bmp	492	1	blank2r.bmp	786	1	DJMR	786	1	blank2r.bmp	866	3	wein	866	1	!	1227	1	!	-1	0	0	0	0	0	0	0	0	0	0	0	0	0	0	0	0	0	0	0	0	0	0	0	0	0	0	0
062918	15:29:20	5.0.12.0	138	notassociated	Rpleas_acq	Same	Rpleas	Amasked	CS_A	2pleas	cond_new_unple_456_masked_CS1	condtest_masked_2	11	7	400	1	300	300	0	0	430	50	-28,7499999999999964473	0	0	0	0	1	blank2r.bmp	0	1	+	0	6	C2r.bmp	492	1	blank2r.bmp	786	1	HLST	786	1	blank2r.bmp	866	3	verirren	866	1	!	1227	1	!	1324	0	0	0	0	0	0	0	0	0	0	0	0	0	0	0	0	0	0	0	0	0	0	0	0	0	0	0
062918	15:29:20	5.0.12.0	138	notassociated	Rpleas_acq	Same	Rpleas	Amasked	CS_A	2pleas	cond_new_pleas_456_masked_CS1	condtest_masked_2	11	8	400	1	300	300	0	0	454	50	-28,7499999999999964473	1	0	0	0	1	blank2r.bmp	0	1	+	0	4	B4r.bmp	492	1	blank2r.bmp	786	1	HLST	786	1	blank2r.bmp	866	3	auge	866	1	!	1227	1	!	1348	0	0	0	0	0	0	0	0	0	0	0	0	0	0	0	0	0	0	0	0	0	0	0	0	0	0	0
062918	15:29:20	5.0.12.0	138	notassociated	Rpleas_acq	Same	Rpleas	Amasked	CS_A	2pleas	cond_new_pleas_456_masked_CS1	condtest_masked_2	11	9	400	1	300	300	0	0	363	50	-28,7499999999999964473	1	0	0	0	1	blank2r.bmp	0	1	+	0	7	C3r.bmp	492	1	blank2r.bmp	786	1	HLST	786	1	blank2r.bmp	866	2	gewinn	866	1	!	1227	1	!	1257	0	0	0	0	0	0	0	0	0	0	0	0	0	0	0	0	0	0	0	0	0	0	0	0	0	0	0
062918	15:29:20	5.0.12.0	138	notassociated	Rpleas_acq	Same	Rpleas	Amasked	CS_A	2pleas	cond_new_pleas_456_masked_CS2	condtest_masked_2	11	10	400	1	300	300	0	0	430	50	-28,7499999999999964473	1	0	0	0	1	blank2r.bmp	0	1	+	0	4	B4r.bmp	492	1	blank2r.bmp	786	1	DJMR	786	1	blank2r.bmp	866	1	energie	866	1	!	1227	1	!	1323	0	0	0	0	0	0	0	0	0	0	0	0	0	0	0	0	0	0	0	0	0	0	0	0	0	0	0
062918	15:29:20	5.0.12.0	138	notassociated	Rpleas_acq	Same	Rpleas	Amasked	CS_A	2pleas	cond_new_unple_456_masked_CS2	condtest_masked_2	11	11	400	0	300	300	0	0	510	46	-28,7499999999999964473	1	0	0	0	1	blank2r.bmp	0	1	+	0	3	B3r.bmp	492	1	blank2r.bmp	786	1	DJMR	786	1	blank2r.bmp	866	1	wurm	866	1	!	1227	1	!	-1	0	0	0	0	0	0	0	0	0	0	0	0	0	0	0	0	0	0	0	0	0	0	0	0	0	0	0
062918	15:29:20	5.0.12.0	138	notassociated	Rpleas_acq	Same	Rpleas	Amasked	CS_A	2pleas	cond_US_unple_123_masked_CS2	condtest_masked_2	11	12	400	1	300	300	0	0	453	46	-28,7499999999999964473	1	0	0	0	1	blank2r.bmp	0	1	+	0	6	C2r.bmp	492	1	blank2r.bmp	786	1	DJMR	786	1	blank2r.bmp	866	3	zwang	866	1	!	1227	1	!	1347	0	0	0	0	0	0	0	0	0	0	0	0	0	0	0	0	0	0	0	0	0	0	0	0	0	0	0
062918	15:29:20	5.0.12.0	138	notassociated	Rpleas_acq	Same	Rpleas	Amasked	CS_A	2pleas	cond_new_unple_456_masked_CS1	condtest_masked_2	11	13	400	1	300	300	0	0	363	46	-28,7499999999999964473	1	0	0	0	1	blank2r.bmp	0	1	+	0	1	B1r.bmp	492	1	blank2r.bmp	786	1	HLST	786	1	blank2r.bmp	866	2	weigern	866	1	!	1227	1	!	1256	0	0	0	0	0	0	0	0	0	0	0	0	0	0	0	0	0	0	0	0	0	0	0	0	0	0	0
062918	15:29:20	5.0.12.0	138	notassociated	Rpleas_acq	Same	Rpleas	Amasked	CS_A	2pleas	cond_US_pleas_123_masked_CS2	condtest_masked_2	11	14	400	1	300	300	0	0	421	50	-28,7499999999999964473	1	0	0	0	1	blank2r.bmp	0	1	+	0	2	B2r.bmp	492	1	blank2r.bmp	786	1	DJMR	786	1	blank2r.bmp	866	2	jugend	866	1	!	1227	1	!	1315	0	0	0	0	0	0	0	0	0	0	0	0	0	0	0	0	0	0	0	0	0	0	0	0	0	0	0
062918	15:29:20	5.0.12.0	138	notassociated	Rpleas_acq	Same	Rpleas	Amasked	CS_A	2pleas	cond_new_unple_456_masked_CS2	condtest_masked_2	11	15	400	0	300	300	0	0	626	46	-28,7499999999999964473	1	0	0	0	1	blank2r.bmp	0	1	+	0	5	C1r.bmp	492	1	blank2r.bmp	786	1	DJMR	786	1	blank2r.bmp	866	3	verirren	866	1	!	1227	1	!	-1	0	0	0	0	0	0	0	0	0	0	0	0	0	0	0	0	0	0	0	0	0	0	0	0	0	0	0
062918	15:29:20	5.0.12.0	138	notassociated	Rpleas_acq	Same	Rpleas	Amasked	CS_A	2pleas	cond_US_unple_123_masked_CS1	condtest_masked_2	11	16	400	1	300	300	0	0	371	46	-28,7499999999999964473	1	0	0	0	1	blank2r.bmp	0	1	+	0	8	C4r.bmp	492	1	blank2r.bmp	786	1	HLST	786	1	blank2r.bmp	866	1	gegner	866	1	!	1227	1	!	1264	0	0	0	0	0	0	0	0	0	0	0	0	0	0	0	0	0	0	0	0	0	0	0	0	0	0	0
062918	15:29:20	5.0.12.0	138	notassociated	Rpleas_acq	Same	Rpleas	Amasked	CS_A	2pleas	cond_new_unple_456_masked_CS1	condtest_masked_2	11	17	400	1	300	300	0	0	431	46	-28,7499999999999964473	1	0	0	0	1	blank2r.bmp	0	1	+	0	8	C4r.bmp	492	1	blank2r.bmp	786	1	HLST	786	1	blank2r.bmp	866	2	weigern	866	1	!	1227	1	!	1325	0	0	0	0	0	0	0	0	0	0	0	0	0	0	0	0	0	0	0	0	0	0	0	0	0	0	0
062918	15:29:20	5.0.12.0	138	notassociated	Rpleas_acq	Same	Rpleas	Amasked	CS_A	2pleas	cond_US_pleas_123_masked_CS2	condtest_masked_2	11	18	400	1	300	300	0	0	466	50	-28,7499999999999964473	1	0	0	0	1	blank2r.bmp	0	1	+	0	4	B4r.bmp	492	1	blank2r.bmp	786	1	DJMR	786	1	blank2r.bmp	866	3	wein	866	1	!	1227	1	!	1360	0	0	0	0	0	0	0	0	0	0	0	0	0	0	0	0	0	0	0	0	0	0	0	0	0	0	0
062918	15:29:20	5.0.12.0	138	notassociated	Rpleas_acq	Same	Rpleas	Amasked	CS_A	2pleas	cond_new_pleas_456_masked_CS2	condtest_masked_2	11	19	400	1	300	300	0	0	407	50	-28,7499999999999964473	1	0	0	0	1	blank2r.bmp	0	1	+	0	6	C2r.bmp	492	1	blank2r.bmp	786	1	DJMR	786	1	blank2r.bmp	866	2	gewinn	866	1	!	1227	1	!	1301	0	0	0	0	0	0	0	0	0	0	0	0	0	0	0	0	0	0	0	0	0	0	0	0	0	0	0
062918	15:29:20	5.0.12.0	138	notassociated	Rpleas_acq	Same	Rpleas	Amasked	CS_A	2pleas	cond_US_unple_123_masked_CS1	condtest_masked_2	11	20	400	0	300	300	0	0	508	46	-28,7499999999999964473	1	0	0	0	1	blank2r.bmp	0	1	+	0	5	C1r.bmp	492	1	blank2r.bmp	786	1	HLST	786	1	blank2r.bmp	866	3	zwang	866	1	!	1227	1	!	-1	0	0	0	0	0	0	0	0	0	0	0	0	0	0	0	0	0	0	0	0	0	0	0	0	0	0	0
062918	15:29:20	5.0.12.0	138	notassociated	Rpleas_acq	Same	Rpleas	Amasked	CS_A	2pleas	cond_US_pleas_123_masked_CS1	condtest_masked_2	11	21	400	0	300	300	0	0	556	50	-28,7499999999999964473	1	0	0	0	1	blank2r.bmp	0	1	+	0	1	B1r.bmp	492	1	blank2r.bmp	786	1	HLST	786	1	blank2r.bmp	866	2	jugend	866	1	!	1227	1	!	-1	0	0	0	0	0	0	0	0	0	0	0	0	0	0	0	0	0	0	0	0	0	0	0	0	0	0	0
062918	15:29:20	5.0.12.0	138	notassociated	Rpleas_acq	Same	Rpleas	Amasked	CS_A	2pleas	cond_new_pleas_456_masked_CS1	condtest_masked_2	11	22	400	1	300	300	0	0	415	50	-28,7499999999999964473	1	0	0	0	1	blank2r.bmp	0	1	+	0	7	C3r.bmp	492	1	blank2r.bmp	786	1	HLST	786	1	blank2r.bmp	866	3	auge	866	1	!	1227	1	!	1309	0	0	0	0	0	0	0	0	0	0	0	0	0	0	0	0	0	0	0	0	0	0	0	0	0	0	0
062918	15:29:20	5.0.12.0	138	notassociated	Rpleas_acq	Same	Rpleas	Amasked	CS_A	2pleas	cond_US_pleas_123_masked_CS1	condtest_masked_2	11	23	400	1	300	300	0	0	356	50	-28,7499999999999964473	1	0	0	0	1	blank2r.bmp	0	1	+	0	3	B3r.bmp	492	1	blank2r.bmp	786	1	HLST	786	1	blank2r.bmp	866	1	frieden	866	1	!	1227	1	!	1250	0	0	0	0	0	0	0	0	0	0	0	0	0	0	0	0	0	0	0	0	0	0	0	0	0	0	0
062918	15:29:20	5.0.12.0	138	notassociated	Rpleas_acq	Same	Rpleas	Amasked	CS_A	2pleas	cond_new_pleas_456_masked_CS2	condtest_masked_2	11	24	400	1	300	300	0	0	428	50	-28,7499999999999964473	1	0	0	0	1	blank2r.bmp	0	1	+	0	2	B2r.bmp	492	1	blank2r.bmp	786	1	DJMR	786	1	blank2r.bmp	866	1	energie	866	1	!	1227	1	!	1322	0	0	0	0	0	0	0	0	0	0	0	0	0	0	0	0	0	0	0	0	0	0	0	0	0	0	0
062918	15:29:20	5.0.12.0	138	notassociated	Rpleas_acq	Same	Rpleas	Amasked	CS_A	2pleas	cond_US_unple_123_masked_CS1	condtest_masked_2	11	25	400	1	300	300	0	0	441	46	-28,7499999999999964473	1	0	0	0	1	blank2r.bmp	0	1	+	0	3	B3r.bmp	492	1	blank2r.bmp	786	1	HLST	786	1	blank2r.bmp	866	1	gegner	866	1	!	1227	1	!	1335	0	0	0	0	0	0	0	0	0	0	0	0	0	0	0	0	0	0	0	0	0	0	0	0	0	0	0
062918	15:29:20	5.0.12.0	138	notassociated	Rpleas_acq	Same	Rpleas	Amasked	CS_A	2pleas	cond_new_pleas_456_masked_CS2	condtest_masked_2	11	26	400	1	300	300	0	0	436	50	-28,7499999999999964473	1	0	0	0	1	blank2r.bmp	0	1	+	0	5	C1r.bmp	492	1	blank2r.bmp	786	1	DJMR	786	1	blank2r.bmp	866	3	auge	866	1	!	1227	1	!	1329	0	0	0	0	0	0	0	0	0	0	0	0	0	0	0	0	0	0	0	0	0	0	0	0	0	0	0
062918	15:29:20	5.0.12.0	138	notassociated	Rpleas_acq	Same	Rpleas	Amasked	CS_A	2pleas	cond_US_pleas_123_masked_CS1	condtest_masked_2	11	27	400	0	300	300	0	0	515	50	-28,7499999999999964473	1	0	0	0	1	blank2r.bmp	0	1	+	0	4	B4r.bmp	492	1	blank2r.bmp	786	1	HLST	786	1	blank2r.bmp	866	3	wein	866	1	!	1227	1	!	-1	0	0	0	0	0	0	0	0	0	0	0	0	0	0	0	0	0	0	0	0	0	0	0	0	0	0	0
062918	15:29:20	5.0.12.0	138	notassociated	Rpleas_acq	Same	Rpleas	Amasked	CS_A	2pleas	cond_new_unple_456_masked_CS2	condtest_masked_2	11	28	400	0	300	300	0	0	654	46	-28,7499999999999964473	1	0	0	0	1	blank2r.bmp	0	1	+	0	7	C3r.bmp	492	1	blank2r.bmp	786	1	DJMR	786	1	blank2r.bmp	866	3	verirren	866	1	!	1227	1	!	-1	0	0	0	0	0	0	0	0	0	0	0	0	0	0	0	0	0	0	0	0	0	0	0	0	0	0	0
062918	15:29:20	5.0.12.0	138	notassociated	Rpleas_acq	Same	Rpleas	Amasked	CS_A	2pleas	cond_US_unple_123_masked_CS2	condtest_masked_2	11	29	400	0	300	300	0	0	484	46	-28,7499999999999964473	1	0	0	0	1	blank2r.bmp	0	1	+	0	8	C4r.bmp	492	1	blank2r.bmp	786	1	DJMR	786	1	blank2r.bmp	866	2	geiz	866	1	!	1227	1	!	-1	0	0	0	0	0	0	0	0	0	0	0	0	0	0	0	0	0	0	0	0	0	0	0	0	0	0	0
062918	15:29:20	5.0.12.0	138	notassociated	Rpleas_acq	Same	Rpleas	Amasked	CS_A	2pleas	cond_new_pleas_456_masked_CS1	condtest_masked_2	11	30	400	0	300	300	0	0	495	50	-28,7499999999999964473	1	0	0	0	1	blank2r.bmp	0	1	+	0	2	B2r.bmp	492	1	blank2r.bmp	786	1	HLST	786	1	blank2r.bmp	866	2	gewinn	866	1	!	1227	1	!	-1	0	0	0	0	0	0	0	0	0	0	0	0	0	0	0	0	0	0	0	0	0	0	0	0	0	0	0
062918	15:29:20	5.0.12.0	138	notassociated	Rpleas_acq	Same	Rpleas	Amasked	CS_A	2pleas	cond_new_unple_456_masked_CS2	condtest_masked_2	11	31	400	0	300	300	0	0	484	46	-28,7499999999999964473	1	0	0	0	1	blank2r.bmp	0	1	+	0	6	C2r.bmp	492	1	blank2r.bmp	786	1	DJMR	786	1	blank2r.bmp	866	1	wurm	866	1	!	1227	1	!	-1	0	0	0	0	0	0	0	0	0	0	0	0	0	0	0	0	0	0	0	0	0	0	0	0	0	0	0
062918	15:29:20	5.0.12.0	138	notassociated	Rpleas_acq	Same	Rpleas	Amasked	CS_A	2pleas	cond_new_pleas_456_masked_CS1	condtest_masked_2	11	32	400	0	300	300	0	0	511	50	-28,7499999999999964473	1	0	0	0	1	blank2r.bmp	0	1	+	0	1	B1r.bmp	492	1	blank2r.bmp	786	1	HLST	786	1	blank2r.bmp	866	1	energie	866	1	!	1227	1	!	-1	0	0	0	0	0	0	0	0	0	0	0	0	0	0	0	0	0	0	0	0	0	0	0	0	0	0	0
062918	15:29:20	5.0.12.0	138	notassociated	Rpleas_acq	Same	Rpleas	Amasked	CS_A	2pleas	cond_US_unple_123_masked_CS1	condtest_masked_2	11	33	400	1	300	300	0	0	423	46	-28,7499999999999964473	1	0	0	0	1	blank2r.bmp	0	1	+	0	6	C2r.bmp	492	1	blank2r.bmp	786	1	HLST	786	1	blank2r.bmp	866	1	gegner	866	1	!	1227	1	!	1316	0	0	0	0	0	0	0	0	0	0	0	0	0	0	0	0	0	0	0	0	0	0	0	0	0	0	0
062918	15:29:20	5.0.12.0	138	notassociated	Rpleas_acq	Same	Rpleas	Amasked	CS_A	2pleas	cond_US_unple_123_masked_CS1	condtest_masked_2	11	34	400	1	300	300	0	0	388	46	-28,7499999999999964473	1	0	0	0	1	blank2r.bmp	0	1	+	0	1	B1r.bmp	492	1	blank2r.bmp	786	1	HLST	786	1	blank2r.bmp	866	3	zwang	866	1	!	1227	1	!	1282	0	0	0	0	0	0	0	0	0	0	0	0	0	0	0	0	0	0	0	0	0	0	0	0	0	0	0
062918	15:29:20	5.0.12.0	138	notassociated	Rpleas_acq	Same	Rpleas	Amasked	CS_A	2pleas	cond_US_pleas_123_masked_CS1	condtest_masked_2	11	35	400	0	300	300	0	0	476	50	-28,7499999999999964473	1	0	0	0	1	blank2r.bmp	0	1	+	0	8	C4r.bmp	492	1	blank2r.bmp	786	1	HLST	786	1	blank2r.bmp	866	1	frieden	866	1	!	1227	1	!	-1	0	0	0	0	0	0	0	0	0	0	0	0	0	0	0	0	0	0	0	0	0	0	0	0	0	0	0
062918	15:29:20	5.0.12.0	138	notassociated	Rpleas_acq	Same	Rpleas	Amasked	CS_A	2pleas	cond_US_unple_123_masked_CS2	condtest_masked_2	11	36	400	0	300	300	0	0	470	46	-28,7499999999999964473	1	0	0	0	1	blank2r.bmp	0	1	+	0	3	B3r.bmp	492	1	blank2r.bmp	786	1	DJMR	786	1	blank2r.bmp	866	2	geiz	866	1	!	1227	1	!	-1	0	0	0	0	0	0	0	0	0	0	0	0	0	0	0	0	0	0	0	0	0	0	0	0	0	0	0
062918	15:29:20	5.0.12.0	138	notassociated	Rpleas_acq	Same	Rpleas	Amasked	CS_A	2pleas	cond_new_unple_456_masked_CS1	condtest_masked_2	11	37	400	0	300	300	0	0	470	46	-28,7499999999999964473	1	0	0	0	1	blank2r.bmp	0	1	+	0	4	B4r.bmp	492	1	blank2r.bmp	786	1	HLST	786	1	blank2r.bmp	866	1	wurm	866	1	!	1227	1	!	-1	0	0	0	0	0	0	0	0	0	0	0	0	0	0	0	0	0	0	0	0	0	0	0	0	0	0	0
062918	15:29:20	5.0.12.0	138	notassociated	Rpleas_acq	Same	Rpleas	Amasked	CS_A	2pleas	cond_new_unple_456_masked_CS2	condtest_masked_2	11	38	400	1	300	300	0	0	406	50	-28,7499999999999964473	0	0	0	0	1	blank2r.bmp	0	1	+	0	2	B2r.bmp	492	1	blank2r.bmp	786	1	DJMR	786	1	blank2r.bmp	866	3	verirren	866	1	!	1227	1	!	1300	0	0	0	0	0	0	0	0	0	0	0	0	0	0	0	0	0	0	0	0	0	0	0	0	0	0	0
062918	15:29:20	5.0.12.0	138	notassociated	Rpleas_acq	Same	Rpleas	Amasked	CS_A	2pleas	cond_US_pleas_123_masked_CS1	condtest_masked_2	11	39	400	1	300	300	0	0	432	50	-28,7499999999999964473	1	0	0	0	1	blank2r.bmp	0	1	+	0	5	C1r.bmp	492	1	blank2r.bmp	786	1	HLST	786	1	blank2r.bmp	866	2	jugend	866	1	!	1227	1	!	1326	0	0	0	0	0	0	0	0	0	0	0	0	0	0	0	0	0	0	0	0	0	0	0	0	0	0	0
062918	15:29:20	5.0.12.0	138	notassociated	Rpleas_acq	Same	Rpleas	Amasked	CS_A	2pleas	cond_new_unple_456_masked_CS1	condtest_masked_2	11	40	400	1	300	300	0	0	411	46	-28,7499999999999964473	1	0	0	0	1	blank2r.bmp	0	1	+	0	7	C3r.bmp	492	1	blank2r.bmp	786	1	HLST	786	1	blank2r.bmp	866	2	weigern	866	1	!	1227	1	!	1305	0	0	0	0	0	0	0	0	0	0	0	0	0	0	0	0	0	0	0	0	0	0	0	0	0	0	0
062918	15:29:20	5.0.12.0	138	notassociated	Rpleas_acq	Same	Rpleas	Amasked	CS_A	2pleas	cond_US_unple_456_masked_CS1	condtest_masked_3	12	1	400	1	300	300	0	0	430	46	-28,7499999999999964473	1	0	0	0	1	blank2r.bmp	0	1	+	0	6	C2r.bmp	492	1	blank2r.bmp	786	1	HLST	786	1	blank2r.bmp	866	2	wunde	866	1	!	1227	1	!	1323	0	0	0	0	0	0	0	0	0	0	0	0	0	0	0	0	0	0	0	0	0	0	0	0	0	0	0
062918	15:29:20	5.0.12.0	138	notassociated	Rpleas_acq	Same	Rpleas	Amasked	CS_A	2pleas	cond_US_pleas_456_masked_CS2	condtest_masked_3	12	2	400	1	300	300	0	0	427	50	-28,7499999999999964473	1	0	0	0	1	blank2r.bmp	0	1	+	0	1	B1r.bmp	492	1	blank2r.bmp	786	1	DJMR	786	1	blank2r.bmp	866	2	mama	866	1	!	1227	1	!	1321	0	0	0	0	0	0	0	0	0	0	0	0	0	0	0	0	0	0	0	0	0	0	0	0	0	0	0
062918	15:29:20	5.0.12.0	138	notassociated	Rpleas_acq	Same	Rpleas	Amasked	CS_A	2pleas	cond_new_unple_123_masked_CS2	condtest_masked_3	12	3	400	1	300	300	0	0	451	46	-28,7499999999999964473	1	0	0	0	1	blank2r.bmp	0	1	+	0	4	B4r.bmp	492	1	blank2r.bmp	786	1	DJMR	786	1	blank2r.bmp	866	3	wunde	866	1	!	1227	1	!	1344	0	0	0	0	0	0	0	0	0	0	0	0	0	0	0	0	0	0	0	0	0	0	0	0	0	0	0
062918	15:29:20	5.0.12.0	138	notassociated	Rpleas_acq	Same	Rpleas	Amasked	CS_A	2pleas	cond_US_pleas_456_masked_CS1	condtest_masked_3	12	4	400	0	300	300	0	0	616	50	-28,7499999999999964473	1	0	0	0	1	blank2r.bmp	0	1	+	0	3	B3r.bmp	492	1	blank2r.bmp	786	1	HLST	786	1	blank2r.bmp	866	3	meer	866	1	!	1227	1	!	-1	0	0	0	0	0	0	0	0	0	0	0	0	0	0	0	0	0	0	0	0	0	0	0	0	0	0	0
062918	15:29:20	5.0.12.0	138	notassociated	Rpleas_acq	Same	Rpleas	Amasked	CS_A	2pleas	cond_new_unple_123_masked_CS1	condtest_masked_3	12	5	400	0	300	300	0	0	3949	46	-28,7499999999999964473	1	0	0	0	1	blank2r.bmp	0	1	+	0	5	C1r.bmp	492	1	blank2r.bmp	786	1	HLST	786	1	blank2r.bmp	866	2	umweg	866	1	!	1227	1	!	-1	0	0	0	0	0	0	0	0	0	0	0	0	0	0	0	0	0	0	0	0	0	0	0	0	0	0	0
062918	15:29:20	5.0.12.0	138	notassociated	Rpleas_acq	Same	Rpleas	Amasked	CS_A	2pleas	cond_new_pleas_123_masked_CS1	condtest_masked_3	12	6	400	1	300	300	0	0	461	50	-28,7499999999999964473	1	0	0	0	1	blank2r.bmp	0	1	+	0	7	C3r.bmp	492	1	blank2r.bmp	786	1	HLST	786	1	blank2r.bmp	866	3	fair	866	1	!	1227	1	!	1354	0	0	0	0	0	0	0	0	0	0	0	0	0	0	0	0	0	0	0	0	0	0	0	0	0	0	0
062918	15:29:20	5.0.12.0	138	notassociated	Rpleas_acq	Same	Rpleas	Amasked	CS_A	2pleas	cond_US_unple_456_masked_CS1	condtest_masked_3	12	7	400	1	300	300	0	0	429	46	-28,7499999999999964473	1	0	0	0	1	blank2r.bmp	0	1	+	0	8	C4r.bmp	492	1	blank2r.bmp	786	1	HLST	786	1	blank2r.bmp	866	3	armee	866	1	!	1227	1	!	1323	0	0	0	0	0	0	0	0	0	0	0	0	0	0	0	0	0	0	0	0	0	0	0	0	0	0	0
062918	15:29:20	5.0.12.0	138	notassociated	Rpleas_acq	Same	Rpleas	Amasked	CS_A	2pleas	cond_US_pleas_456_masked_CS2	condtest_masked_3	12	8	400	1	300	300	0	0	428	50	-28,7499999999999964473	1	0	0	0	1	blank2r.bmp	0	1	+	0	2	B2r.bmp	492	1	blank2r.bmp	786	1	DJMR	786	1	blank2r.bmp	866	1	erfinder	866	1	!	1227	1	!	1322	0	0	0	0	0	0	0	0	0	0	0	0	0	0	0	0	0	0	0	0	0	0	0	0	0	0	0
