date	time	build	subject	expressions.associated	expressions.LRpleas_acq	expressions.SameOppo	expressions.condition_Lpleas	expressions.ABmasked	expressions.conditionCS_A	expressions.condition_1pleas	trialcode	blockcode	blocknum	trialnum	windowcenter	inwindow	pretrialpause	posttrialpause	trialduration	trialtimeout	latency	response	expressions.correctedscore	correct	values.vis_performance	values.vis_rating_sum	values.vis_rating_mean	stimulusnumber1	stimulusitem1	stimulusonset1	stimulusnumber2	stimulusitem2	stimulusonset2	stimulusnumber3	stimulusitem3	stimulusonset3	stimulusnumber4	stimulusitem4	stimulusonset4	stimulusnumber5	stimulusitem5	stimulusonset5	stimulusnumber6	stimulusitem6	stimulusonset6	stimulusnumber7	stimulusitem7	stimulusonset7	stimulusnumber8	stimulusitem8	stimulusonset8	stimulusnumber9	stimulusitem9	stimulusonset9	stimulusnumber10	stimulusitem10	stimulusonset10	stimulusnumber11	stimulusitem11	stimulusonset11	stimulusnumber12	stimulusitem12	stimulusonset12	stimulusnumber13	stimulusitem13	stimulusonset13	stimulusnumber14	stimulusitem14	stimulusonset14	stimulusnumber15	stimulusitem15	stimulusonset15	stimulusnumber16	stimulusitem16	stimulusonset16	stimulusnumber17	stimulusitem17	stimulusonset17	stimulusnumber18	stimulusitem18	stimulusonset18
062718	09:57:00	5.0.12.0	119	notassociated	Rpleas_acq	Oppo	Rpleas	Bmasked	CS_B	2pleas	acq_unple_masked	acq1_masked	1	1	0	0	300	300	0	0	1529	46	0	1	0	0	0	1	blank2r.bmp	0	1	+	0	6	C2r.bmp	492	1	blank2r.bmp	786	1	BXCP	786	1	blank2r.bmp	866	1	übel	866	0	0	0	0	0	0	0	0	0	0	0	0	0	0	0	0	0	0	0	0	0	0	0	0	0	0	0	0	0	0	0	0	0
062718	09:57:00	5.0.12.0	119	notassociated	Rpleas_acq	Oppo	Rpleas	Bmasked	CS_B	2pleas	acq_pleas_masked	acq1_masked	1	2	0	0	300	300	0	0	1134	50	0	1	0	0	0	1	blank2r.bmp	0	1	+	0	3	B3r.bmp	492	1	blank2r.bmp	786	1	GFVZ	786	1	blank2r.bmp	866	2	bett	866	0	0	0	0	0	0	0	0	0	0	0	0	0	0	0	0	0	0	0	0	0	0	0	0	0	0	0	0	0	0	0	0	0
062718	09:57:00	5.0.12.0	119	notassociated	Rpleas_acq	Oppo	Rpleas	Bmasked	CS_B	2pleas	acq_unple_masked	acq1_masked	1	3	0	0	300	300	0	0	963	46	0	1	0	0	0	1	blank2r.bmp	0	1	+	0	7	C3r.bmp	492	1	blank2r.bmp	786	1	BXCP	786	1	blank2r.bmp	866	3	pleite	866	0	0	0	0	0	0	0	0	0	0	0	0	0	0	0	0	0	0	0	0	0	0	0	0	0	0	0	0	0	0	0	0	0
062718	09:57:00	5.0.12.0	119	notassociated	Rpleas_acq	Oppo	Rpleas	Bmasked	CS_B	2pleas	acq_pleas_masked	acq1_masked	1	4	0	0	300	300	0	0	691	50	0	1	0	0	0	1	blank2r.bmp	0	1	+	0	2	B2r.bmp	492	1	blank2r.bmp	786	1	GFVZ	786	1	blank2r.bmp	866	4	sonne	866	0	0	0	0	0	0	0	0	0	0	0	0	0	0	0	0	0	0	0	0	0	0	0	0	0	0	0	0	0	0	0	0	0
062718	09:57:00	5.0.12.0	119	notassociated	Rpleas_acq	Oppo	Rpleas	Bmasked	CS_B	2pleas	acq_pleas_masked	acq1_masked	1	5	0	0	300	300	0	0	907	50	0	1	0	0	0	1	blank2r.bmp	0	1	+	0	8	C4r.bmp	492	1	blank2r.bmp	786	1	GFVZ	786	1	blank2r.bmp	866	6	knospe	866	0	0	0	0	0	0	0	0	0	0	0	0	0	0	0	0	0	0	0	0	0	0	0	0	0	0	0	0	0	0	0	0	0
062718	09:57:00	5.0.12.0	119	notassociated	Rpleas_acq	Oppo	Rpleas	Bmasked	CS_B	2pleas	acq_unple_masked	acq1_masked	1	6	0	0	300	300	0	0	750	46	0	1	0	0	0	1	blank2r.bmp	0	1	+	0	4	B4r.bmp	492	1	blank2r.bmp	786	1	BXCP	786	1	blank2r.bmp	866	2	leiche	866	0	0	0	0	0	0	0	0	0	0	0	0	0	0	0	0	0	0	0	0	0	0	0	0	0	0	0	0	0	0	0	0	0
062718	09:57:00	5.0.12.0	119	notassociated	Rpleas_acq	Oppo	Rpleas	Bmasked	CS_B	2pleas	acq_pleas_masked	acq1_masked	1	7	0	0	300	300	0	0	611	50	0	1	0	0	0	1	blank2r.bmp	0	1	+	0	5	C1r.bmp	492	1	blank2r.bmp	786	1	GFVZ	786	1	blank2r.bmp	866	1	leben	866	0	0	0	0	0	0	0	0	0	0	0	0	0	0	0	0	0	0	0	0	0	0	0	0	0	0	0	0	0	0	0	0	0
062718	09:57:00	5.0.12.0	119	notassociated	Rpleas_acq	Oppo	Rpleas	Bmasked	CS_B	2pleas	acq_unple_masked	acq1_masked	1	8	0	0	300	300	0	0	666	46	0	1	0	0	0	1	blank2r.bmp	0	1	+	0	1	B1r.bmp	492	1	blank2r.bmp	786	1	BXCP	786	1	blank2r.bmp	866	4	pistole	866	0	0	0	0	0	0	0	0	0	0	0	0	0	0	0	0	0	0	0	0	0	0	0	0	0	0	0	0	0	0	0	0	0
062718	09:57:00	5.0.12.0	119	notassociated	Rpleas_acq	Oppo	Rpleas	Bmasked	CS_B	2pleas	acq_unple_masked	acq1_masked	1	9	0	0	300	300	0	0	928	46	0	1	0	0	0	1	blank2r.bmp	0	1	+	0	3	B3r.bmp	492	1	blank2r.bmp	786	1	BXCP	786	1	blank2r.bmp	866	6	pest	866	0	0	0	0	0	0	0	0	0	0	0	0	0	0	0	0	0	0	0	0	0	0	0	0	0	0	0	0	0	0	0	0	0
062718	09:57:00	5.0.12.0	119	notassociated	Rpleas_acq	Oppo	Rpleas	Bmasked	CS_B	2pleas	acq_pleas_masked	acq1_masked	1	10	0	0	300	300	0	0	552	50	0	1	0	0	0	1	blank2r.bmp	0	1	+	0	7	C3r.bmp	492	1	blank2r.bmp	786	1	GFVZ	786	1	blank2r.bmp	866	5	liebe	866	0	0	0	0	0	0	0	0	0	0	0	0	0	0	0	0	0	0	0	0	0	0	0	0	0	0	0	0	0	0	0	0	0
062718	09:57:00	5.0.12.0	119	notassociated	Rpleas_acq	Oppo	Rpleas	Bmasked	CS_B	2pleas	acq_unple_masked	acq1_masked	1	11	0	0	300	300	0	0	836	46	0	1	0	0	0	1	blank2r.bmp	0	1	+	0	4	B4r.bmp	492	1	blank2r.bmp	786	1	BXCP	786	1	blank2r.bmp	866	5	toxisch	866	0	0	0	0	0	0	0	0	0	0	0	0	0	0	0	0	0	0	0	0	0	0	0	0	0	0	0	0	0	0	0	0	0
062718	09:57:00	5.0.12.0	119	notassociated	Rpleas_acq	Oppo	Rpleas	Bmasked	CS_B	2pleas	acq_pleas_masked	acq1_masked	1	12	0	0	300	300	0	0	554	50	0	1	0	0	0	1	blank2r.bmp	0	1	+	0	6	C2r.bmp	492	1	blank2r.bmp	786	1	GFVZ	786	1	blank2r.bmp	866	3	lippe	866	0	0	0	0	0	0	0	0	0	0	0	0	0	0	0	0	0	0	0	0	0	0	0	0	0	0	0	0	0	0	0	0	0
062718	09:57:00	5.0.12.0	119	notassociated	Rpleas_acq	Oppo	Rpleas	Bmasked	CS_B	2pleas	acq_pleas_masked	acq1_masked	1	13	0	0	300	300	0	0	537	50	0	1	0	0	0	1	blank2r.bmp	0	1	+	0	2	B2r.bmp	492	1	blank2r.bmp	786	1	GFVZ	786	1	blank2r.bmp	866	4	sonne	866	0	0	0	0	0	0	0	0	0	0	0	0	0	0	0	0	0	0	0	0	0	0	0	0	0	0	0	0	0	0	0	0	0
062718	09:57:00	5.0.12.0	119	notassociated	Rpleas_acq	Oppo	Rpleas	Bmasked	CS_B	2pleas	acq_unple_masked	acq1_masked	1	14	0	0	300	300	0	0	659	46	0	1	0	0	0	1	blank2r.bmp	0	1	+	0	8	C4r.bmp	492	1	blank2r.bmp	786	1	BXCP	786	1	blank2r.bmp	866	5	toxisch	866	0	0	0	0	0	0	0	0	0	0	0	0	0	0	0	0	0	0	0	0	0	0	0	0	0	0	0	0	0	0	0	0	0
062718	09:57:00	5.0.12.0	119	notassociated	Rpleas_acq	Oppo	Rpleas	Bmasked	CS_B	2pleas	acq_pleas_masked	acq1_masked	1	15	0	0	300	300	0	0	549	50	0	1	0	0	0	1	blank2r.bmp	0	1	+	0	5	C1r.bmp	492	1	blank2r.bmp	786	1	GFVZ	786	1	blank2r.bmp	866	2	bett	866	0	0	0	0	0	0	0	0	0	0	0	0	0	0	0	0	0	0	0	0	0	0	0	0	0	0	0	0	0	0	0	0	0
062718	09:57:00	5.0.12.0	119	notassociated	Rpleas_acq	Oppo	Rpleas	Bmasked	CS_B	2pleas	acq_unple_masked	acq1_masked	1	16	0	0	300	300	0	0	703	46	0	1	0	0	0	1	blank2r.bmp	0	1	+	0	1	B1r.bmp	492	1	blank2r.bmp	786	1	BXCP	786	1	blank2r.bmp	866	6	pest	866	0	0	0	0	0	0	0	0	0	0	0	0	0	0	0	0	0	0	0	0	0	0	0	0	0	0	0	0	0	0	0	0	0
062718	09:57:00	5.0.12.0	119	notassociated	Rpleas_acq	Oppo	Rpleas	Bmasked	CS_B	2pleas	acq_unple_masked	acq1_masked	1	17	0	0	300	300	0	0	1148	46	0	1	0	0	0	1	blank2r.bmp	0	1	+	0	8	C4r.bmp	492	1	blank2r.bmp	786	1	BXCP	786	1	blank2r.bmp	866	1	übel	866	0	0	0	0	0	0	0	0	0	0	0	0	0	0	0	0	0	0	0	0	0	0	0	0	0	0	0	0	0	0	0	0	0
062718	09:57:00	5.0.12.0	119	notassociated	Rpleas_acq	Oppo	Rpleas	Bmasked	CS_B	2pleas	acq_pleas_masked	acq1_masked	1	18	0	0	300	300	0	0	675	50	0	1	0	0	0	1	blank2r.bmp	0	1	+	0	1	B1r.bmp	492	1	blank2r.bmp	786	1	GFVZ	786	1	blank2r.bmp	866	6	knospe	866	0	0	0	0	0	0	0	0	0	0	0	0	0	0	0	0	0	0	0	0	0	0	0	0	0	0	0	0	0	0	0	0	0
062718	09:57:00	5.0.12.0	119	notassociated	Rpleas_acq	Oppo	Rpleas	Bmasked	CS_B	2pleas	acq_pleas_masked	acq1_masked	1	19	0	0	300	300	0	0	410	50	0	1	0	0	0	1	blank2r.bmp	0	1	+	0	4	B4r.bmp	492	1	blank2r.bmp	786	1	GFVZ	786	1	blank2r.bmp	866	1	leben	866	0	0	0	0	0	0	0	0	0	0	0	0	0	0	0	0	0	0	0	0	0	0	0	0	0	0	0	0	0	0	0	0	0
062718	09:57:00	5.0.12.0	119	notassociated	Rpleas_acq	Oppo	Rpleas	Bmasked	CS_B	2pleas	acq_unple_masked	acq1_masked	1	20	0	0	300	300	0	0	604	46	0	1	0	0	0	1	blank2r.bmp	0	1	+	0	2	B2r.bmp	492	1	blank2r.bmp	786	1	BXCP	786	1	blank2r.bmp	866	3	pleite	866	0	0	0	0	0	0	0	0	0	0	0	0	0	0	0	0	0	0	0	0	0	0	0	0	0	0	0	0	0	0	0	0	0
062718	09:57:00	5.0.12.0	119	notassociated	Rpleas_acq	Oppo	Rpleas	Bmasked	CS_B	2pleas	acq_unple_masked	acq1_masked	1	21	0	0	300	300	0	0	451	46	0	1	0	0	0	1	blank2r.bmp	0	1	+	0	6	C2r.bmp	492	1	blank2r.bmp	786	1	BXCP	786	1	blank2r.bmp	866	4	pistole	866	0	0	0	0	0	0	0	0	0	0	0	0	0	0	0	0	0	0	0	0	0	0	0	0	0	0	0	0	0	0	0	0	0
062718	09:57:00	5.0.12.0	119	notassociated	Rpleas_acq	Oppo	Rpleas	Bmasked	CS_B	2pleas	acq_pleas_masked	acq1_masked	1	22	0	0	300	300	0	0	397	50	0	1	0	0	0	1	blank2r.bmp	0	1	+	0	3	B3r.bmp	492	1	blank2r.bmp	786	1	GFVZ	786	1	blank2r.bmp	866	5	liebe	866	0	0	0	0	0	0	0	0	0	0	0	0	0	0	0	0	0	0	0	0	0	0	0	0	0	0	0	0	0	0	0	0	0
062718	09:57:00	5.0.12.0	119	notassociated	Rpleas_acq	Oppo	Rpleas	Bmasked	CS_B	2pleas	acq_unple_masked	acq1_masked	1	23	0	0	300	300	0	0	457	50	0	0	0	0	0	1	blank2r.bmp	0	1	+	0	7	C3r.bmp	492	1	blank2r.bmp	786	1	BXCP	786	1	blank2r.bmp	866	2	leiche	866	1	FEHLER	1350	0	0	0	0	0	0	0	0	0	0	0	0	0	0	0	0	0	0	0	0	0	0	0	0	0	0	0	0	0	0
062718	09:57:00	5.0.12.0	119	notassociated	Rpleas_acq	Oppo	Rpleas	Bmasked	CS_B	2pleas	acq_pleas_masked	acq1_masked	1	24	0	0	300	300	0	0	514	50	0	1	0	0	0	1	blank2r.bmp	0	1	+	0	5	C1r.bmp	492	1	blank2r.bmp	786	1	GFVZ	786	1	blank2r.bmp	866	3	lippe	866	0	0	0	0	0	0	0	0	0	0	0	0	0	0	0	0	0	0	0	0	0	0	0	0	0	0	0	0	0	0	0	0	0
062718	09:57:00	5.0.12.0	119	notassociated	Rpleas_acq	Oppo	Rpleas	Bmasked	CS_B	2pleas	acq_unple_masked	acq2_masked	2	1	480	0	300	300	0	0	9646	46	0	1	0	0	0	1	blank2r.bmp	0	1	+	0	4	B4r.bmp	492	1	blank2r.bmp	786	1	BXCP	786	1	blank2r.bmp	866	2	leiche	866	1	!	1307	1	!	-1	0	0	0	0	0	0	0	0	0	0	0	0	0	0	0	0	0	0	0	0	0	0	0	0	0	0	0
062718	09:57:00	5.0.12.0	119	notassociated	Rpleas_acq	Oppo	Rpleas	Bmasked	CS_B	2pleas	acq_unple_masked	acq2_masked	2	2	480	0	300	300	0	0	1735	46	0	1	0	0	0	1	blank2r.bmp	0	1	+	0	6	C2r.bmp	492	1	blank2r.bmp	786	1	BXCP	786	1	blank2r.bmp	866	1	übel	866	1	!	1307	1	!	-1	0	0	0	0	0	0	0	0	0	0	0	0	0	0	0	0	0	0	0	0	0	0	0	0	0	0	0
062718	09:57:00	5.0.12.0	119	notassociated	Rpleas_acq	Oppo	Rpleas	Bmasked	CS_B	2pleas	acq_pleas_masked	acq2_masked	2	3	480	0	300	300	0	0	801	50	0	1	0	0	0	1	blank2r.bmp	0	1	+	0	7	C3r.bmp	492	1	blank2r.bmp	786	1	GFVZ	786	1	blank2r.bmp	866	3	lippe	866	1	!	1307	1	!	-1	0	0	0	0	0	0	0	0	0	0	0	0	0	0	0	0	0	0	0	0	0	0	0	0	0	0	0
062718	09:57:00	5.0.12.0	119	notassociated	Rpleas_acq	Oppo	Rpleas	Bmasked	CS_B	2pleas	acq_pleas_masked	acq2_masked	2	4	480	0	300	300	0	0	605	50	0	1	0	0	0	1	blank2r.bmp	0	1	+	0	2	B2r.bmp	492	1	blank2r.bmp	786	1	GFVZ	786	1	blank2r.bmp	866	5	liebe	866	1	!	1307	1	!	-1	0	0	0	0	0	0	0	0	0	0	0	0	0	0	0	0	0	0	0	0	0	0	0	0	0	0	0
062718	09:57:00	5.0.12.0	119	notassociated	Rpleas_acq	Oppo	Rpleas	Bmasked	CS_B	2pleas	acq_pleas_masked	acq2_masked	2	5	480	0	300	300	0	0	960	46	0	0	0	0	0	1	blank2r.bmp	0	1	+	0	8	C4r.bmp	492	1	blank2r.bmp	786	1	GFVZ	786	1	blank2r.bmp	866	1	leben	866	1	FEHLER	2147	1	!	1307	1	!	-1	0	0	0	0	0	0	0	0	0	0	0	0	0	0	0	0	0	0	0	0	0	0	0	0
062718	09:57:00	5.0.12.0	119	notassociated	Rpleas_acq	Oppo	Rpleas	Bmasked	CS_B	2pleas	acq_unple_masked	acq2_masked	2	6	480	0	300	300	0	0	652	46	0	1	0	0	0	1	blank2r.bmp	0	1	+	0	5	C1r.bmp	492	1	blank2r.bmp	786	1	BXCP	786	1	blank2r.bmp	866	6	pest	866	1	!	1307	1	!	-1	0	0	0	0	0	0	0	0	0	0	0	0	0	0	0	0	0	0	0	0	0	0	0	0	0	0	0
062718	09:57:00	5.0.12.0	119	notassociated	Rpleas_acq	Oppo	Rpleas	Bmasked	CS_B	2pleas	acq_unple_masked	acq2_masked	2	7	480	0	300	300	0	0	858	46	0	1	0	0	0	1	blank2r.bmp	0	1	+	0	1	B1r.bmp	492	1	blank2r.bmp	786	1	BXCP	786	1	blank2r.bmp	866	3	pleite	866	1	!	1307	1	!	-1	0	0	0	0	0	0	0	0	0	0	0	0	0	0	0	0	0	0	0	0	0	0	0	0	0	0	0
062718	09:57:00	5.0.12.0	119	notassociated	Rpleas_acq	Oppo	Rpleas	Bmasked	CS_B	2pleas	acq_pleas_masked	acq2_masked	2	8	480	1	300	300	0	0	497	50	0	1	0	0	0	1	blank2r.bmp	0	1	+	0	3	B3r.bmp	492	1	blank2r.bmp	786	1	GFVZ	786	1	blank2r.bmp	866	4	sonne	866	1	!	1307	1	!	1391	0	0	0	0	0	0	0	0	0	0	0	0	0	0	0	0	0	0	0	0	0	0	0	0	0	0	0
062718	09:57:00	5.0.12.0	119	notassociated	Rpleas_acq	Oppo	Rpleas	Bmasked	CS_B	2pleas	acq_pleas_masked	acq2_masked	2	9	480	1	300	300	0	0	446	50	0	1	0	0	0	1	blank2r.bmp	0	1	+	0	5	C1r.bmp	492	1	blank2r.bmp	786	1	GFVZ	786	1	blank2r.bmp	866	2	bett	866	1	!	1307	1	!	1340	0	0	0	0	0	0	0	0	0	0	0	0	0	0	0	0	0	0	0	0	0	0	0	0	0	0	0
062718	09:57:00	5.0.12.0	119	notassociated	Rpleas_acq	Oppo	Rpleas	Bmasked	CS_B	2pleas	acq_unple_masked	acq2_masked	2	10	480	1	300	300	0	0	497	46	0	1	0	0	0	1	blank2r.bmp	0	1	+	0	2	B2r.bmp	492	1	blank2r.bmp	786	1	BXCP	786	1	blank2r.bmp	866	4	pistole	866	1	!	1307	1	!	1390	0	0	0	0	0	0	0	0	0	0	0	0	0	0	0	0	0	0	0	0	0	0	0	0	0	0	0
062718	09:57:00	5.0.12.0	119	notassociated	Rpleas_acq	Oppo	Rpleas	Bmasked	CS_B	2pleas	acq_unple_masked	acq2_masked	2	11	480	0	300	300	0	0	558	46	0	1	0	0	0	1	blank2r.bmp	0	1	+	0	4	B4r.bmp	492	1	blank2r.bmp	786	1	BXCP	786	1	blank2r.bmp	866	5	toxisch	866	1	!	1307	1	!	-1	0	0	0	0	0	0	0	0	0	0	0	0	0	0	0	0	0	0	0	0	0	0	0	0	0	0	0
062718	09:57:00	5.0.12.0	119	notassociated	Rpleas_acq	Oppo	Rpleas	Bmasked	CS_B	2pleas	acq_pleas_masked	acq2_masked	2	12	480	1	300	300	0	0	457	50	0	1	0	0	0	1	blank2r.bmp	0	1	+	0	7	C3r.bmp	492	1	blank2r.bmp	786	1	GFVZ	786	1	blank2r.bmp	866	6	knospe	866	1	!	1307	1	!	1351	0	0	0	0	0	0	0	0	0	0	0	0	0	0	0	0	0	0	0	0	0	0	0	0	0	0	0
062718	09:57:00	5.0.12.0	119	notassociated	Rpleas_acq	Oppo	Rpleas	Bmasked	CS_B	2pleas	acq_unple_masked	acq2_masked	2	13	480	1	300	300	0	0	414	50	0	0	0	0	0	1	blank2r.bmp	0	1	+	0	3	B3r.bmp	492	1	blank2r.bmp	786	1	BXCP	786	1	blank2r.bmp	866	3	pleite	866	1	FEHLER	1602	1	!	1307	1	!	1308	0	0	0	0	0	0	0	0	0	0	0	0	0	0	0	0	0	0	0	0	0	0	0	0
062718	09:57:00	5.0.12.0	119	notassociated	Rpleas_acq	Oppo	Rpleas	Bmasked	CS_B	2pleas	acq_unple_masked	acq2_masked	2	14	480	1	300	300	0	0	459	46	0	1	0	0	0	1	blank2r.bmp	0	1	+	0	8	C4r.bmp	492	1	blank2r.bmp	786	1	BXCP	786	1	blank2r.bmp	866	5	toxisch	866	1	!	1307	1	!	1353	0	0	0	0	0	0	0	0	0	0	0	0	0	0	0	0	0	0	0	0	0	0	0	0	0	0	0
062718	09:57:00	5.0.12.0	119	notassociated	Rpleas_acq	Oppo	Rpleas	Bmasked	CS_B	2pleas	acq_pleas_masked	acq2_masked	2	15	480	1	300	300	0	0	417	46	0	0	0	0	0	1	blank2r.bmp	0	1	+	0	1	B1r.bmp	492	1	blank2r.bmp	786	1	GFVZ	786	1	blank2r.bmp	866	4	sonne	866	1	FEHLER	1604	1	!	1307	1	!	1310	0	0	0	0	0	0	0	0	0	0	0	0	0	0	0	0	0	0	0	0	0	0	0	0
062718	09:57:00	5.0.12.0	119	notassociated	Rpleas_acq	Oppo	Rpleas	Bmasked	CS_B	2pleas	acq_pleas_masked	acq2_masked	2	16	480	0	300	300	0	0	382	50	0	1	0	0	0	1	blank2r.bmp	0	1	+	0	6	C2r.bmp	492	1	blank2r.bmp	786	1	GFVZ	786	1	blank2r.bmp	866	2	bett	866	1	!	-1	1	!	-1	0	0	0	0	0	0	0	0	0	0	0	0	0	0	0	0	0	0	0	0	0	0	0	0	0	0	0
062718	09:57:00	5.0.12.0	119	notassociated	Rpleas_acq	Oppo	Rpleas	Bmasked	CS_B	2pleas	acq_unple_masked	acq2_masked	2	17	480	0	300	300	0	0	579	46	0	1	0	0	0	1	blank2r.bmp	0	1	+	0	2	B2r.bmp	492	1	blank2r.bmp	786	1	BXCP	786	1	blank2r.bmp	866	1	übel	866	1	!	1307	1	!	-1	0	0	0	0	0	0	0	0	0	0	0	0	0	0	0	0	0	0	0	0	0	0	0	0	0	0	0
062718	09:57:00	5.0.12.0	119	notassociated	Rpleas_acq	Oppo	Rpleas	Bmasked	CS_B	2pleas	acq_pleas_masked	acq2_masked	2	18	480	0	300	300	0	0	368	46	0	0	0	0	0	1	blank2r.bmp	0	1	+	0	7	C3r.bmp	492	1	blank2r.bmp	786	1	GFVZ	786	1	blank2r.bmp	866	5	liebe	866	1	FEHLER	1555	1	!	-1	1	!	-1	0	0	0	0	0	0	0	0	0	0	0	0	0	0	0	0	0	0	0	0	0	0	0	0
062718	09:57:00	5.0.12.0	119	notassociated	Rpleas_acq	Oppo	Rpleas	Bmasked	CS_B	2pleas	acq_unple_masked	acq2_masked	2	19	480	1	300	300	0	0	514	46	0	1	0	0	0	1	blank2r.bmp	0	1	+	0	3	B3r.bmp	492	1	blank2r.bmp	786	1	BXCP	786	1	blank2r.bmp	866	2	leiche	866	1	!	1307	1	!	1408	0	0	0	0	0	0	0	0	0	0	0	0	0	0	0	0	0	0	0	0	0	0	0	0	0	0	0
062718	09:57:00	5.0.12.0	119	notassociated	Rpleas_acq	Oppo	Rpleas	Bmasked	CS_B	2pleas	acq_pleas_masked	acq2_masked	2	20	480	1	300	300	0	0	419	50	0	1	0	0	0	1	blank2r.bmp	0	1	+	0	8	C4r.bmp	492	1	blank2r.bmp	786	1	GFVZ	786	1	blank2r.bmp	866	3	lippe	866	1	!	1307	1	!	1312	0	0	0	0	0	0	0	0	0	0	0	0	0	0	0	0	0	0	0	0	0	0	0	0	0	0	0
062718	09:57:00	5.0.12.0	119	notassociated	Rpleas_acq	Oppo	Rpleas	Bmasked	CS_B	2pleas	acq_pleas_masked	acq2_masked	2	21	480	0	300	300	0	0	722	50	0	1	0	0	0	1	blank2r.bmp	0	1	+	0	1	B1r.bmp	492	1	blank2r.bmp	786	1	GFVZ	786	1	blank2r.bmp	866	6	knospe	866	1	!	1307	1	!	-1	0	0	0	0	0	0	0	0	0	0	0	0	0	0	0	0	0	0	0	0	0	0	0	0	0	0	0
062718	09:57:00	5.0.12.0	119	notassociated	Rpleas_acq	Oppo	Rpleas	Bmasked	CS_B	2pleas	acq_unple_masked	acq2_masked	2	22	480	1	300	300	0	0	478	46	0	1	0	0	0	1	blank2r.bmp	0	1	+	0	6	C2r.bmp	492	1	blank2r.bmp	786	1	BXCP	786	1	blank2r.bmp	866	4	pistole	866	1	!	1307	1	!	1371	0	0	0	0	0	0	0	0	0	0	0	0	0	0	0	0	0	0	0	0	0	0	0	0	0	0	0
062718	09:57:00	5.0.12.0	119	notassociated	Rpleas_acq	Oppo	Rpleas	Bmasked	CS_B	2pleas	acq_pleas_masked	acq2_masked	2	23	480	0	300	300	0	0	582	50	0	1	0	0	0	1	blank2r.bmp	0	1	+	0	5	C1r.bmp	492	1	blank2r.bmp	786	1	GFVZ	786	1	blank2r.bmp	866	1	leben	866	1	!	1307	1	!	-1	0	0	0	0	0	0	0	0	0	0	0	0	0	0	0	0	0	0	0	0	0	0	0	0	0	0	0
062718	09:57:00	5.0.12.0	119	notassociated	Rpleas_acq	Oppo	Rpleas	Bmasked	CS_B	2pleas	acq_unple_masked	acq2_masked	2	24	480	0	300	300	0	0	406	50	0	0	0	0	0	1	blank2r.bmp	0	1	+	0	4	B4r.bmp	492	1	blank2r.bmp	786	1	BXCP	786	1	blank2r.bmp	866	6	pest	866	1	FEHLER	1593	1	!	-1	1	!	-1	0	0	0	0	0	0	0	0	0	0	0	0	0	0	0	0	0	0	0	0	0	0	0	0
062718	09:57:00	5.0.12.0	119	notassociated	Rpleas_acq	Oppo	Rpleas	Bmasked	CS_B	2pleas	acq_pleas_masked	acq3_masked	3	1	453	0	300	300	0	0	711	50	0	1	0	0	0	1	blank2r.bmp	0	1	+	0	7	C3r.bmp	492	1	blank2r.bmp	786	1	GFVZ	786	1	blank2r.bmp	866	5	liebe	866	1	!	1280	1	!	-1	0	0	0	0	0	0	0	0	0	0	0	0	0	0	0	0	0	0	0	0	0	0	0	0	0	0	0
062718	09:57:00	5.0.12.0	119	notassociated	Rpleas_acq	Oppo	Rpleas	Bmasked	CS_B	2pleas	acq_unple_masked	acq3_masked	3	2	453	1	300	300	0	0	399	50	0	0	0	0	0	1	blank2r.bmp	0	1	+	0	3	B3r.bmp	492	1	blank2r.bmp	786	1	BXCP	786	1	blank2r.bmp	866	2	leiche	866	1	FEHLER	1587	1	!	1280	1	!	1293	0	0	0	0	0	0	0	0	0	0	0	0	0	0	0	0	0	0	0	0	0	0	0	0
062718	09:57:00	5.0.12.0	119	notassociated	Rpleas_acq	Oppo	Rpleas	Bmasked	CS_B	2pleas	acq_pleas_masked	acq3_masked	3	3	453	1	300	300	0	0	442	50	0	1	0	0	0	1	blank2r.bmp	0	1	+	0	4	B4r.bmp	492	1	blank2r.bmp	786	1	GFVZ	786	1	blank2r.bmp	866	2	bett	866	1	!	1280	1	!	1335	0	0	0	0	0	0	0	0	0	0	0	0	0	0	0	0	0	0	0	0	0	0	0	0	0	0	0
062718	09:57:00	5.0.12.0	119	notassociated	Rpleas_acq	Oppo	Rpleas	Bmasked	CS_B	2pleas	acq_unple_masked	acq3_masked	3	4	453	1	300	300	0	0	492	46	0	1	0	0	0	1	blank2r.bmp	0	1	+	0	5	C1r.bmp	492	1	blank2r.bmp	786	1	BXCP	786	1	blank2r.bmp	866	3	pleite	866	1	!	1280	1	!	1386	0	0	0	0	0	0	0	0	0	0	0	0	0	0	0	0	0	0	0	0	0	0	0	0	0	0	0
062718	09:57:00	5.0.12.0	119	notassociated	Rpleas_acq	Oppo	Rpleas	Bmasked	CS_B	2pleas	acq_pleas_masked	acq3_masked	3	5	453	0	300	300	0	0	362	50	0	1	0	0	0	1	blank2r.bmp	0	1	+	0	8	C4r.bmp	492	1	blank2r.bmp	786	1	GFVZ	786	1	blank2r.bmp	866	3	lippe	866	1	!	-1	1	!	-1	0	0	0	0	0	0	0	0	0	0	0	0	0	0	0	0	0	0	0	0	0	0	0	0	0	0	0
062718	09:57:00	5.0.12.0	119	notassociated	Rpleas_acq	Oppo	Rpleas	Bmasked	CS_B	2pleas	acq_pleas_masked	acq3_masked	3	6	453	0	300	300	0	0	3852	50	0	1	0	0	0	1	blank2r.bmp	0	1	+	0	6	C2r.bmp	492	1	blank2r.bmp	786	1	GFVZ	786	1	blank2r.bmp	866	6	knospe	866	1	!	1280	1	!	-1	0	0	0	0	0	0	0	0	0	0	0	0	0	0	0	0	0	0	0	0	0	0	0	0	0	0	0
062718	09:57:00	5.0.12.0	119	notassociated	Rpleas_acq	Oppo	Rpleas	Bmasked	CS_B	2pleas	acq_unple_masked	acq3_masked	3	7	453	1	300	300	0	0	421	50	0	0	0	0	0	1	blank2r.bmp	0	1	+	0	2	B2r.bmp	492	1	blank2r.bmp	786	1	BXCP	786	1	blank2r.bmp	866	1	übel	866	1	FEHLER	1608	1	!	1280	1	!	1315	0	0	0	0	0	0	0	0	0	0	0	0	0	0	0	0	0	0	0	0	0	0	0	0
062718	09:57:00	5.0.12.0	119	notassociated	Rpleas_acq	Oppo	Rpleas	Bmasked	CS_B	2pleas	acq_pleas_masked	acq3_masked	3	8	453	0	300	300	0	0	645	50	0	1	0	0	0	1	blank2r.bmp	0	1	+	0	1	B1r.bmp	492	1	blank2r.bmp	786	1	GFVZ	786	1	blank2r.bmp	866	4	sonne	866	1	!	1280	1	!	-1	0	0	0	0	0	0	0	0	0	0	0	0	0	0	0	0	0	0	0	0	0	0	0	0	0	0	0
062718	09:57:00	5.0.12.0	119	notassociated	Rpleas_acq	Oppo	Rpleas	Bmasked	CS_B	2pleas	acq_unple_masked	acq3_masked	3	9	453	0	300	300	0	0	339	46	0	1	0	0	0	1	blank2r.bmp	0	1	+	0	3	B3r.bmp	492	1	blank2r.bmp	786	1	BXCP	786	1	blank2r.bmp	866	4	pistole	866	1	!	-1	1	!	-1	0	0	0	0	0	0	0	0	0	0	0	0	0	0	0	0	0	0	0	0	0	0	0	0	0	0	0
062718	09:57:00	5.0.12.0	119	notassociated	Rpleas_acq	Oppo	Rpleas	Bmasked	CS_B	2pleas	acq_pleas_masked	acq3_masked	3	10	453	0	300	300	0	0	1903	50	0	1	0	0	0	1	blank2r.bmp	0	1	+	0	2	B2r.bmp	492	1	blank2r.bmp	786	1	GFVZ	786	1	blank2r.bmp	866	1	leben	866	1	!	1280	1	!	-1	0	0	0	0	0	0	0	0	0	0	0	0	0	0	0	0	0	0	0	0	0	0	0	0	0	0	0
062718	09:57:00	5.0.12.0	119	notassociated	Rpleas_acq	Oppo	Rpleas	Bmasked	CS_B	2pleas	acq_pleas_masked	acq3_masked	3	11	453	1	300	300	0	0	397	50	0	1	0	0	0	1	blank2r.bmp	0	1	+	0	8	C4r.bmp	492	1	blank2r.bmp	786	1	GFVZ	786	1	blank2r.bmp	866	4	sonne	866	1	!	1280	1	!	1290	0	0	0	0	0	0	0	0	0	0	0	0	0	0	0	0	0	0	0	0	0	0	0	0	0	0	0
062718	09:57:00	5.0.12.0	119	notassociated	Rpleas_acq	Oppo	Rpleas	Bmasked	CS_B	2pleas	acq_unple_masked	acq3_masked	3	12	453	1	300	300	0	0	468	46	0	1	0	0	0	1	blank2r.bmp	0	1	+	0	7	C3r.bmp	492	1	blank2r.bmp	786	1	BXCP	786	1	blank2r.bmp	866	5	toxisch	866	1	!	1280	1	!	1362	0	0	0	0	0	0	0	0	0	0	0	0	0	0	0	0	0	0	0	0	0	0	0	0	0	0	0
062718	09:57:00	5.0.12.0	119	notassociated	Rpleas_acq	Oppo	Rpleas	Bmasked	CS_B	2pleas	acq_unple_masked	acq3_masked	3	13	453	1	300	300	0	0	476	46	0	1	0	0	0	1	blank2r.bmp	0	1	+	0	1	B1r.bmp	492	1	blank2r.bmp	786	1	BXCP	786	1	blank2r.bmp	866	6	pest	866	1	!	1280	1	!	1370	0	0	0	0	0	0	0	0	0	0	0	0	0	0	0	0	0	0	0	0	0	0	0	0	0	0	0
062718	09:57:00	5.0.12.0	119	notassociated	Rpleas_acq	Oppo	Rpleas	Bmasked	CS_B	2pleas	acq_pleas_masked	acq3_masked	3	14	453	0	300	300	0	0	583	50	0	1	0	0	0	1	blank2r.bmp	0	1	+	0	6	C2r.bmp	492	1	blank2r.bmp	786	1	GFVZ	786	1	blank2r.bmp	866	6	knospe	866	1	!	1280	1	!	-1	0	0	0	0	0	0	0	0	0	0	0	0	0	0	0	0	0	0	0	0	0	0	0	0	0	0	0
062718	09:57:00	5.0.12.0	119	notassociated	Rpleas_acq	Oppo	Rpleas	Bmasked	CS_B	2pleas	acq_unple_masked	acq3_masked	3	15	453	1	300	300	0	0	452	46	0	1	0	0	0	1	blank2r.bmp	0	1	+	0	5	C1r.bmp	492	1	blank2r.bmp	786	1	BXCP	786	1	blank2r.bmp	866	2	leiche	866	1	!	1280	1	!	1346	0	0	0	0	0	0	0	0	0	0	0	0	0	0	0	0	0	0	0	0	0	0	0	0	0	0	0
062718	09:57:00	5.0.12.0	119	notassociated	Rpleas_acq	Oppo	Rpleas	Bmasked	CS_B	2pleas	acq_unple_masked	acq3_masked	3	16	453	1	300	300	0	0	410	50	0	0	0	0	0	1	blank2r.bmp	0	1	+	0	4	B4r.bmp	492	1	blank2r.bmp	786	1	BXCP	786	1	blank2r.bmp	866	4	pistole	866	1	FEHLER	1597	1	!	1280	1	!	1303	0	0	0	0	0	0	0	0	0	0	0	0	0	0	0	0	0	0	0	0	0	0	0	0
062718	09:57:00	5.0.12.0	119	notassociated	Rpleas_acq	Oppo	Rpleas	Bmasked	CS_B	2pleas	acq_unple_masked	acq3_masked	3	17	453	1	300	300	0	0	500	46	0	1	0	0	0	1	blank2r.bmp	0	1	+	0	7	C3r.bmp	492	1	blank2r.bmp	786	1	BXCP	786	1	blank2r.bmp	866	5	toxisch	866	1	!	1280	1	!	1394	0	0	0	0	0	0	0	0	0	0	0	0	0	0	0	0	0	0	0	0	0	0	0	0	0	0	0
062718	09:57:00	5.0.12.0	119	notassociated	Rpleas_acq	Oppo	Rpleas	Bmasked	CS_B	2pleas	acq_pleas_masked	acq3_masked	3	18	453	0	300	300	0	0	385	50	0	1	0	0	0	1	blank2r.bmp	0	1	+	0	8	C4r.bmp	492	1	blank2r.bmp	786	1	GFVZ	786	1	blank2r.bmp	866	3	lippe	866	1	!	-1	1	!	-1	0	0	0	0	0	0	0	0	0	0	0	0	0	0	0	0	0	0	0	0	0	0	0	0	0	0	0
062718	09:57:00	5.0.12.0	119	notassociated	Rpleas_acq	Oppo	Rpleas	Bmasked	CS_B	2pleas	acq_unple_masked	acq3_masked	3	19	453	1	300	300	0	0	470	46	0	1	0	0	0	1	blank2r.bmp	0	1	+	0	3	B3r.bmp	492	1	blank2r.bmp	786	1	BXCP	786	1	blank2r.bmp	866	3	pleite	866	1	!	1280	1	!	1364	0	0	0	0	0	0	0	0	0	0	0	0	0	0	0	0	0	0	0	0	0	0	0	0	0	0	0
062718	09:57:00	5.0.12.0	119	notassociated	Rpleas_acq	Oppo	Rpleas	Bmasked	CS_B	2pleas	acq_pleas_masked	acq3_masked	3	20	453	1	300	300	0	0	478	50	0	1	0	0	0	1	blank2r.bmp	0	1	+	0	1	B1r.bmp	492	1	blank2r.bmp	786	1	GFVZ	786	1	blank2r.bmp	866	2	bett	866	1	!	1280	1	!	1372	0	0	0	0	0	0	0	0	0	0	0	0	0	0	0	0	0	0	0	0	0	0	0	0	0	0	0
062718	09:57:00	5.0.12.0	119	notassociated	Rpleas_acq	Oppo	Rpleas	Bmasked	CS_B	2pleas	acq_unple_masked	acq3_masked	3	21	453	1	300	300	0	0	438	46	0	1	0	0	0	1	blank2r.bmp	0	1	+	0	2	B2r.bmp	492	1	blank2r.bmp	786	1	BXCP	786	1	blank2r.bmp	866	1	übel	866	1	!	1280	1	!	1332	0	0	0	0	0	0	0	0	0	0	0	0	0	0	0	0	0	0	0	0	0	0	0	0	0	0	0
062718	09:57:00	5.0.12.0	119	notassociated	Rpleas_acq	Oppo	Rpleas	Bmasked	CS_B	2pleas	acq_pleas_masked	acq3_masked	3	22	453	0	300	300	0	0	377	50	0	1	0	0	0	1	blank2r.bmp	0	1	+	0	5	C1r.bmp	492	1	blank2r.bmp	786	1	GFVZ	786	1	blank2r.bmp	866	5	liebe	866	1	!	-1	1	!	-1	0	0	0	0	0	0	0	0	0	0	0	0	0	0	0	0	0	0	0	0	0	0	0	0	0	0	0
062718	09:57:00	5.0.12.0	119	notassociated	Rpleas_acq	Oppo	Rpleas	Bmasked	CS_B	2pleas	acq_unple_masked	acq3_masked	3	23	453	1	300	300	0	0	443	46	0	1	0	0	0	1	blank2r.bmp	0	1	+	0	4	B4r.bmp	492	1	blank2r.bmp	786	1	BXCP	786	1	blank2r.bmp	866	6	pest	866	1	!	1280	1	!	1337	0	0	0	0	0	0	0	0	0	0	0	0	0	0	0	0	0	0	0	0	0	0	0	0	0	0	0
062718	09:57:00	5.0.12.0	119	notassociated	Rpleas_acq	Oppo	Rpleas	Bmasked	CS_B	2pleas	acq_pleas_masked	acq3_masked	3	24	453	1	300	300	0	0	461	50	0	1	0	0	0	1	blank2r.bmp	0	1	+	0	6	C2r.bmp	492	1	blank2r.bmp	786	1	GFVZ	786	1	blank2r.bmp	866	1	leben	866	1	!	1280	1	!	1355	0	0	0	0	0	0	0	0	0	0	0	0	0	0	0	0	0	0	0	0	0	0	0	0	0	0	0
062718	09:57:00	5.0.12.0	119	notassociated	Rpleas_acq	Oppo	Rpleas	Bmasked	CS_B	2pleas	acq_pleas_masked	acq3_masked	3	25	453	1	300	300	0	0	485	50	0	1	0	0	0	1	blank2r.bmp	0	1	+	0	4	B4r.bmp	492	1	blank2r.bmp	786	1	GFVZ	786	1	blank2r.bmp	866	6	knospe	866	1	!	1280	1	!	1379	0	0	0	0	0	0	0	0	0	0	0	0	0	0	0	0	0	0	0	0	0	0	0	0	0	0	0
062718	09:57:00	5.0.12.0	119	notassociated	Rpleas_acq	Oppo	Rpleas	Bmasked	CS_B	2pleas	acq_pleas_masked	acq3_masked	3	26	453	0	300	300	0	0	320	50	0	1	0	0	0	1	blank2r.bmp	0	1	+	0	3	B3r.bmp	492	1	blank2r.bmp	786	1	GFVZ	786	1	blank2r.bmp	866	3	lippe	866	1	!	-1	1	!	-1	0	0	0	0	0	0	0	0	0	0	0	0	0	0	0	0	0	0	0	0	0	0	0	0	0	0	0
062718	09:57:00	5.0.12.0	119	notassociated	Rpleas_acq	Oppo	Rpleas	Bmasked	CS_B	2pleas	acq_pleas_masked	acq3_masked	3	27	453	0	300	300	0	0	359	50	0	1	0	0	0	1	blank2r.bmp	0	1	+	0	7	C3r.bmp	492	1	blank2r.bmp	786	1	GFVZ	786	1	blank2r.bmp	866	5	liebe	866	1	!	-1	1	!	-1	0	0	0	0	0	0	0	0	0	0	0	0	0	0	0	0	0	0	0	0	0	0	0	0	0	0	0
062718	09:57:00	5.0.12.0	119	notassociated	Rpleas_acq	Oppo	Rpleas	Bmasked	CS_B	2pleas	acq_unple_masked	acq3_masked	3	28	453	1	300	300	0	0	490	46	0	1	0	0	0	1	blank2r.bmp	0	1	+	0	6	C2r.bmp	492	1	blank2r.bmp	786	1	BXCP	786	1	blank2r.bmp	866	4	pistole	866	1	!	1280	1	!	1383	0	0	0	0	0	0	0	0	0	0	0	0	0	0	0	0	0	0	0	0	0	0	0	0	0	0	0
062718	09:57:00	5.0.12.0	119	notassociated	Rpleas_acq	Oppo	Rpleas	Bmasked	CS_B	2pleas	acq_unple_masked	acq3_masked	3	29	453	0	300	300	0	0	692	46	0	1	0	0	0	1	blank2r.bmp	0	1	+	0	5	C1r.bmp	492	1	blank2r.bmp	786	1	BXCP	786	1	blank2r.bmp	866	6	pest	866	1	!	1280	1	!	-1	0	0	0	0	0	0	0	0	0	0	0	0	0	0	0	0	0	0	0	0	0	0	0	0	0	0	0
062718	09:57:00	5.0.12.0	119	notassociated	Rpleas_acq	Oppo	Rpleas	Bmasked	CS_B	2pleas	acq_unple_masked	acq3_masked	3	30	453	0	300	300	0	0	312	50	0	0	0	0	0	1	blank2r.bmp	0	1	+	0	2	B2r.bmp	492	1	blank2r.bmp	786	1	BXCP	786	1	blank2r.bmp	866	2	leiche	866	1	FEHLER	1499	1	!	-1	1	!	-1	0	0	0	0	0	0	0	0	0	0	0	0	0	0	0	0	0	0	0	0	0	0	0	0
062718	09:57:00	5.0.12.0	119	notassociated	Rpleas_acq	Oppo	Rpleas	Bmasked	CS_B	2pleas	acq_pleas_masked	acq3_masked	3	31	453	0	300	300	0	0	751	46	0	0	0	0	0	1	blank2r.bmp	0	1	+	0	1	B1r.bmp	492	1	blank2r.bmp	786	1	GFVZ	786	1	blank2r.bmp	866	2	bett	866	1	FEHLER	1938	1	!	1280	1	!	-1	0	0	0	0	0	0	0	0	0	0	0	0	0	0	0	0	0	0	0	0	0	0	0	0
062718	09:57:00	5.0.12.0	119	notassociated	Rpleas_acq	Oppo	Rpleas	Bmasked	CS_B	2pleas	acq_unple_masked	acq3_masked	3	32	453	0	300	300	0	0	355	50	0	0	0	0	0	1	blank2r.bmp	0	1	+	0	8	C4r.bmp	492	1	blank2r.bmp	786	1	BXCP	786	1	blank2r.bmp	866	1	übel	866	1	FEHLER	1542	1	!	-1	1	!	-1	0	0	0	0	0	0	0	0	0	0	0	0	0	0	0	0	0	0	0	0	0	0	0	0
062718	09:57:00	5.0.12.0	119	notassociated	Rpleas_acq	Oppo	Rpleas	Bmasked	CS_B	2pleas	acq_pleas_masked	acq45_masked	4	1	400	0	300	300	0	0	524	50	0	1	0	0	0	1	blank2r.bmp	0	1	+	0	2	B2r.bmp	492	1	blank2r.bmp	786	1	GFVZ	786	1	blank2r.bmp	866	4	sonne	866	1	!	1227	1	!	-1	0	0	0	0	0	0	0	0	0	0	0	0	0	0	0	0	0	0	0	0	0	0	0	0	0	0	0
062718	09:57:00	5.0.12.0	119	notassociated	Rpleas_acq	Oppo	Rpleas	Bmasked	CS_B	2pleas	acq_unple_masked	acq45_masked	4	2	400	0	300	300	0	0	4670	46	0	1	0	0	0	1	blank2r.bmp	0	1	+	0	1	B1r.bmp	492	1	blank2r.bmp	786	1	BXCP	786	1	blank2r.bmp	866	3	pleite	866	1	!	1227	1	!	-1	0	0	0	0	0	0	0	0	0	0	0	0	0	0	0	0	0	0	0	0	0	0	0	0	0	0	0
062718	09:57:00	5.0.12.0	119	notassociated	Rpleas_acq	Oppo	Rpleas	Bmasked	CS_B	2pleas	acq_unple_masked	acq45_masked	4	3	400	0	300	300	0	0	499	46	0	1	0	0	0	1	blank2r.bmp	0	1	+	0	6	C2r.bmp	492	1	blank2r.bmp	786	1	BXCP	786	1	blank2r.bmp	866	5	toxisch	866	1	!	1227	1	!	-1	0	0	0	0	0	0	0	0	0	0	0	0	0	0	0	0	0	0	0	0	0	0	0	0	0	0	0
062718	09:57:00	5.0.12.0	119	notassociated	Rpleas_acq	Oppo	Rpleas	Bmasked	CS_B	2pleas	acq_unple_masked	acq45_masked	4	4	400	0	300	300	0	0	496	46	0	1	0	0	0	1	blank2r.bmp	0	1	+	0	5	C1r.bmp	492	1	blank2r.bmp	786	1	BXCP	786	1	blank2r.bmp	866	1	übel	866	1	!	1227	1	!	-1	0	0	0	0	0	0	0	0	0	0	0	0	0	0	0	0	0	0	0	0	0	0	0	0	0	0	0
062718	09:57:00	5.0.12.0	119	notassociated	Rpleas_acq	Oppo	Rpleas	Bmasked	CS_B	2pleas	acq_pleas_masked	acq45_masked	4	5	400	1	300	300	0	0	349	50	0	1	0	0	0	1	blank2r.bmp	0	1	+	0	3	B3r.bmp	492	1	blank2r.bmp	786	1	GFVZ	786	1	blank2r.bmp	866	1	leben	866	1	!	1227	1	!	1243	0	0	0	0	0	0	0	0	0	0	0	0	0	0	0	0	0	0	0	0	0	0	0	0	0	0	0
062718	09:57:00	5.0.12.0	119	notassociated	Rpleas_acq	Oppo	Rpleas	Bmasked	CS_B	2pleas	acq_pleas_masked	acq45_masked	4	6	400	1	300	300	0	0	413	50	0	1	0	0	0	1	blank2r.bmp	0	1	+	0	4	B4r.bmp	492	1	blank2r.bmp	786	1	GFVZ	786	1	blank2r.bmp	866	5	liebe	866	1	!	1227	1	!	1307	0	0	0	0	0	0	0	0	0	0	0	0	0	0	0	0	0	0	0	0	0	0	0	0	0	0	0
062718	09:57:00	5.0.12.0	119	notassociated	Rpleas_acq	Oppo	Rpleas	Bmasked	CS_B	2pleas	acq_unple_masked	acq45_masked	4	7	400	0	300	300	0	0	490	46	0	1	0	0	0	1	blank2r.bmp	0	1	+	0	8	C4r.bmp	492	1	blank2r.bmp	786	1	BXCP	786	1	blank2r.bmp	866	4	pistole	866	1	!	1227	1	!	-1	0	0	0	0	0	0	0	0	0	0	0	0	0	0	0	0	0	0	0	0	0	0	0	0	0	0	0
062718	09:57:00	5.0.12.0	119	notassociated	Rpleas_acq	Oppo	Rpleas	Bmasked	CS_B	2pleas	acq_pleas_masked	acq45_masked	4	8	400	0	300	300	0	0	293	50	0	1	0	0	0	1	blank2r.bmp	0	1	+	0	7	C3r.bmp	492	1	blank2r.bmp	786	1	GFVZ	786	1	blank2r.bmp	866	1	leben	866	1	!	-1	1	!	-1	0	0	0	0	0	0	0	0	0	0	0	0	0	0	0	0	0	0	0	0	0	0	0	0	0	0	0
062718	09:57:00	5.0.12.0	119	notassociated	Rpleas_acq	Oppo	Rpleas	Bmasked	CS_B	2pleas	acq_unple_masked	acq45_masked	4	9	400	1	300	300	0	0	393	46	0	1	0	0	0	1	blank2r.bmp	0	1	+	0	3	B3r.bmp	492	1	blank2r.bmp	786	1	BXCP	786	1	blank2r.bmp	866	3	pleite	866	1	!	1227	1	!	1287	0	0	0	0	0	0	0	0	0	0	0	0	0	0	0	0	0	0	0	0	0	0	0	0	0	0	0
062718	09:57:00	5.0.12.0	119	notassociated	Rpleas_acq	Oppo	Rpleas	Bmasked	CS_B	2pleas	acq_pleas_masked	acq45_masked	4	10	400	1	300	300	0	0	401	50	0	1	0	0	0	1	blank2r.bmp	0	1	+	0	2	B2r.bmp	492	1	blank2r.bmp	786	1	GFVZ	786	1	blank2r.bmp	866	3	lippe	866	1	!	1227	1	!	1295	0	0	0	0	0	0	0	0	0	0	0	0	0	0	0	0	0	0	0	0	0	0	0	0	0	0	0
062718	09:57:00	5.0.12.0	119	notassociated	Rpleas_acq	Oppo	Rpleas	Bmasked	CS_B	2pleas	acq_pleas_masked	acq45_masked	4	11	400	0	300	300	0	0	331	46	0	0	0	0	0	1	blank2r.bmp	0	1	+	0	6	C2r.bmp	492	1	blank2r.bmp	786	1	GFVZ	786	1	blank2r.bmp	866	6	knospe	866	1	!	-1	1	!	-1	0	0	0	0	0	0	0	0	0	0	0	0	0	0	0	0	0	0	0	0	0	0	0	0	0	0	0
062718	09:57:00	5.0.12.0	119	notassociated	Rpleas_acq	Oppo	Rpleas	Bmasked	CS_B	2pleas	acq_unple_masked	acq45_masked	4	12	400	0	300	300	0	0	536	46	0	1	0	0	0	1	blank2r.bmp	0	1	+	0	4	B4r.bmp	492	1	blank2r.bmp	786	1	BXCP	786	1	blank2r.bmp	866	2	leiche	866	1	!	1227	1	!	-1	0	0	0	0	0	0	0	0	0	0	0	0	0	0	0	0	0	0	0	0	0	0	0	0	0	0	0
062718	09:57:00	5.0.12.0	119	notassociated	Rpleas_acq	Oppo	Rpleas	Bmasked	CS_B	2pleas	acq_pleas_masked	acq45_masked	4	13	400	1	300	300	0	0	334	50	0	1	0	0	0	1	blank2r.bmp	0	1	+	0	1	B1r.bmp	492	1	blank2r.bmp	786	1	GFVZ	786	1	blank2r.bmp	866	2	bett	866	1	!	1227	1	!	1228	0	0	0	0	0	0	0	0	0	0	0	0	0	0	0	0	0	0	0	0	0	0	0	0	0	0	0
062718	09:57:00	5.0.12.0	119	notassociated	Rpleas_acq	Oppo	Rpleas	Bmasked	CS_B	2pleas	acq_pleas_masked	acq45_masked	4	14	400	0	300	300	0	0	330	50	0	1	0	0	0	1	blank2r.bmp	0	1	+	0	8	C4r.bmp	492	1	blank2r.bmp	786	1	GFVZ	786	1	blank2r.bmp	866	4	sonne	866	1	!	-1	1	!	-1	0	0	0	0	0	0	0	0	0	0	0	0	0	0	0	0	0	0	0	0	0	0	0	0	0	0	0
062718	09:57:00	5.0.12.0	119	notassociated	Rpleas_acq	Oppo	Rpleas	Bmasked	CS_B	2pleas	acq_unple_masked	acq45_masked	4	15	400	1	300	300	0	0	373	46	0	1	0	0	0	1	blank2r.bmp	0	1	+	0	5	C1r.bmp	492	1	blank2r.bmp	786	1	BXCP	786	1	blank2r.bmp	866	6	pest	866	1	!	1227	1	!	1266	0	0	0	0	0	0	0	0	0	0	0	0	0	0	0	0	0	0	0	0	0	0	0	0	0	0	0
062718	09:57:00	5.0.12.0	119	notassociated	Rpleas_acq	Oppo	Rpleas	Bmasked	CS_B	2pleas	acq_unple_masked	acq45_masked	4	16	400	1	300	300	0	0	425	46	0	1	0	0	0	1	blank2r.bmp	0	1	+	0	7	C3r.bmp	492	1	blank2r.bmp	786	1	BXCP	786	1	blank2r.bmp	866	5	toxisch	866	1	!	1227	1	!	1319	0	0	0	0	0	0	0	0	0	0	0	0	0	0	0	0	0	0	0	0	0	0	0	0	0	0	0
062718	09:57:00	5.0.12.0	119	notassociated	Rpleas_acq	Oppo	Rpleas	Bmasked	CS_B	2pleas	acq_unple_masked	acq45_masked	4	17	400	0	300	300	0	0	487	46	0	1	0	0	0	1	blank2r.bmp	0	1	+	0	1	B1r.bmp	492	1	blank2r.bmp	786	1	BXCP	786	1	blank2r.bmp	866	2	leiche	866	1	!	1227	1	!	-1	0	0	0	0	0	0	0	0	0	0	0	0	0	0	0	0	0	0	0	0	0	0	0	0	0	0	0
062718	09:57:00	5.0.12.0	119	notassociated	Rpleas_acq	Oppo	Rpleas	Bmasked	CS_B	2pleas	acq_unple_masked	acq45_masked	4	18	400	0	300	300	0	0	321	46	0	1	0	0	0	1	blank2r.bmp	0	1	+	0	4	B4r.bmp	492	1	blank2r.bmp	786	1	BXCP	786	1	blank2r.bmp	866	1	übel	866	1	!	-1	1	!	-1	0	0	0	0	0	0	0	0	0	0	0	0	0	0	0	0	0	0	0	0	0	0	0	0	0	0	0
062718	09:57:00	5.0.12.0	119	notassociated	Rpleas_acq	Oppo	Rpleas	Bmasked	CS_B	2pleas	acq_unple_masked	acq45_masked	4	19	400	1	300	300	0	0	363	46	0	1	0	0	0	1	blank2r.bmp	0	1	+	0	6	C2r.bmp	492	1	blank2r.bmp	786	1	BXCP	786	1	blank2r.bmp	866	5	toxisch	866	1	!	1227	1	!	1257	0	0	0	0	0	0	0	0	0	0	0	0	0	0	0	0	0	0	0	0	0	0	0	0	0	0	0
062718	09:57:00	5.0.12.0	119	notassociated	Rpleas_acq	Oppo	Rpleas	Bmasked	CS_B	2pleas	acq_unple_masked	acq45_masked	4	20	400	1	300	300	0	0	397	46	0	1	0	0	0	1	blank2r.bmp	0	1	+	0	5	C1r.bmp	492	1	blank2r.bmp	786	1	BXCP	786	1	blank2r.bmp	866	3	pleite	866	1	!	1227	1	!	1291	0	0	0	0	0	0	0	0	0	0	0	0	0	0	0	0	0	0	0	0	0	0	0	0	0	0	0
062718	09:57:00	5.0.12.0	119	notassociated	Rpleas_acq	Oppo	Rpleas	Bmasked	CS_B	2pleas	acq_pleas_masked	acq45_masked	4	21	400	1	300	300	0	0	453	50	0	1	0	0	0	1	blank2r.bmp	0	1	+	0	8	C4r.bmp	492	1	blank2r.bmp	786	1	GFVZ	786	1	blank2r.bmp	866	3	lippe	866	1	!	1227	1	!	1347	0	0	0	0	0	0	0	0	0	0	0	0	0	0	0	0	0	0	0	0	0	0	0	0	0	0	0
062718	09:57:00	5.0.12.0	119	notassociated	Rpleas_acq	Oppo	Rpleas	Bmasked	CS_B	2pleas	acq_pleas_masked	acq45_masked	4	22	400	0	300	300	0	0	522	50	0	1	0	0	0	1	blank2r.bmp	0	1	+	0	7	C3r.bmp	492	1	blank2r.bmp	786	1	GFVZ	786	1	blank2r.bmp	866	1	leben	866	1	!	1227	1	!	-1	0	0	0	0	0	0	0	0	0	0	0	0	0	0	0	0	0	0	0	0	0	0	0	0	0	0	0
062718	09:57:00	5.0.12.0	119	notassociated	Rpleas_acq	Oppo	Rpleas	Bmasked	CS_B	2pleas	acq_pleas_masked	acq45_masked	4	23	400	1	300	300	0	0	365	46	0	0	0	0	0	1	blank2r.bmp	0	1	+	0	2	B2r.bmp	492	1	blank2r.bmp	786	1	GFVZ	786	1	blank2r.bmp	866	6	knospe	866	1	!	1227	1	!	1259	0	0	0	0	0	0	0	0	0	0	0	0	0	0	0	0	0	0	0	0	0	0	0	0	0	0	0
062718	09:57:00	5.0.12.0	119	notassociated	Rpleas_acq	Oppo	Rpleas	Bmasked	CS_B	2pleas	acq_pleas_masked	acq45_masked	4	24	400	1	300	300	0	0	335	50	0	1	0	0	0	1	blank2r.bmp	0	1	+	0	3	B3r.bmp	492	1	blank2r.bmp	786	1	GFVZ	786	1	blank2r.bmp	866	4	sonne	866	1	!	1227	1	!	1229	0	0	0	0	0	0	0	0	0	0	0	0	0	0	0	0	0	0	0	0	0	0	0	0	0	0	0
062718	09:57:00	5.0.12.0	119	notassociated	Rpleas_acq	Oppo	Rpleas	Bmasked	CS_B	2pleas	acq_unple_masked	acq45_masked	4	25	400	1	300	300	0	0	444	46	0	1	0	0	0	1	blank2r.bmp	0	1	+	0	4	B4r.bmp	492	1	blank2r.bmp	786	1	BXCP	786	1	blank2r.bmp	866	4	pistole	866	1	!	1227	1	!	1338	0	0	0	0	0	0	0	0	0	0	0	0	0	0	0	0	0	0	0	0	0	0	0	0	0	0	0
062718	09:57:00	5.0.12.0	119	notassociated	Rpleas_acq	Oppo	Rpleas	Bmasked	CS_B	2pleas	acq_pleas_masked	acq45_masked	4	26	400	1	300	300	0	0	337	46	0	0	0	0	0	1	blank2r.bmp	0	1	+	0	7	C3r.bmp	492	1	blank2r.bmp	786	1	GFVZ	786	1	blank2r.bmp	866	5	liebe	866	1	!	1227	1	!	1231	0	0	0	0	0	0	0	0	0	0	0	0	0	0	0	0	0	0	0	0	0	0	0	0	0	0	0
062718	09:57:00	5.0.12.0	119	notassociated	Rpleas_acq	Oppo	Rpleas	Bmasked	CS_B	2pleas	acq_unple_masked	acq45_masked	4	27	400	0	300	300	0	0	494	46	0	1	0	0	0	1	blank2r.bmp	0	1	+	0	5	C1r.bmp	492	1	blank2r.bmp	786	1	BXCP	786	1	blank2r.bmp	866	6	pest	866	1	!	1227	1	!	-1	0	0	0	0	0	0	0	0	0	0	0	0	0	0	0	0	0	0	0	0	0	0	0	0	0	0	0
062718	09:57:00	5.0.12.0	119	notassociated	Rpleas_acq	Oppo	Rpleas	Bmasked	CS_B	2pleas	acq_pleas_masked	acq45_masked	4	28	400	1	300	300	0	0	412	50	0	1	0	0	0	1	blank2r.bmp	0	1	+	0	1	B1r.bmp	492	1	blank2r.bmp	786	1	GFVZ	786	1	blank2r.bmp	866	2	bett	866	1	!	1227	1	!	1305	0	0	0	0	0	0	0	0	0	0	0	0	0	0	0	0	0	0	0	0	0	0	0	0	0	0	0
062718	09:57:00	5.0.12.0	119	notassociated	Rpleas_acq	Oppo	Rpleas	Bmasked	CS_B	2pleas	acq_pleas_masked	acq45_masked	4	29	400	1	300	300	0	0	454	46	0	0	0	0	0	1	blank2r.bmp	0	1	+	0	8	C4r.bmp	492	1	blank2r.bmp	786	1	GFVZ	786	1	blank2r.bmp	866	3	lippe	866	1	!	1227	1	!	1348	0	0	0	0	0	0	0	0	0	0	0	0	0	0	0	0	0	0	0	0	0	0	0	0	0	0	0
062718	09:57:00	5.0.12.0	119	notassociated	Rpleas_acq	Oppo	Rpleas	Bmasked	CS_B	2pleas	acq_pleas_masked	acq45_masked	4	30	400	0	300	300	0	0	331	50	0	1	0	0	0	1	blank2r.bmp	0	1	+	0	6	C2r.bmp	492	1	blank2r.bmp	786	1	GFVZ	786	1	blank2r.bmp	866	1	leben	866	1	!	-1	1	!	-1	0	0	0	0	0	0	0	0	0	0	0	0	0	0	0	0	0	0	0	0	0	0	0	0	0	0	0
062718	09:57:00	5.0.12.0	119	notassociated	Rpleas_acq	Oppo	Rpleas	Bmasked	CS_B	2pleas	acq_unple_masked	acq45_masked	4	31	400	1	300	300	0	0	392	46	0	1	0	0	0	1	blank2r.bmp	0	1	+	0	2	B2r.bmp	492	1	blank2r.bmp	786	1	BXCP	786	1	blank2r.bmp	866	2	leiche	866	1	!	1227	1	!	1286	0	0	0	0	0	0	0	0	0	0	0	0	0	0	0	0	0	0	0	0	0	0	0	0	0	0	0
062718	09:57:00	5.0.12.0	119	notassociated	Rpleas_acq	Oppo	Rpleas	Bmasked	CS_B	2pleas	acq_unple_masked	acq45_masked	4	32	400	0	300	300	0	0	480	46	0	1	0	0	0	1	blank2r.bmp	0	1	+	0	3	B3r.bmp	492	1	blank2r.bmp	786	1	BXCP	786	1	blank2r.bmp	866	3	pleite	866	1	!	1227	1	!	-1	0	0	0	0	0	0	0	0	0	0	0	0	0	0	0	0	0	0	0	0	0	0	0	0	0	0	0
062718	09:57:00	5.0.12.0	119	notassociated	Rpleas_acq	Oppo	Rpleas	Bmasked	CS_B	2pleas	acq_unple_masked	acq45_masked	5	1	400	0	300	300	0	0	535	46	0	1	0	0	0	1	blank2r.bmp	0	1	+	0	2	B2r.bmp	492	1	blank2r.bmp	786	1	BXCP	786	1	blank2r.bmp	866	6	pest	866	1	!	1227	1	!	-1	0	0	0	0	0	0	0	0	0	0	0	0	0	0	0	0	0	0	0	0	0	0	0	0	0	0	0
062718	09:57:00	5.0.12.0	119	notassociated	Rpleas_acq	Oppo	Rpleas	Bmasked	CS_B	2pleas	acq_unple_masked	acq45_masked	5	2	400	1	300	300	0	0	380	50	0	0	0	0	0	1	blank2r.bmp	0	1	+	0	8	C4r.bmp	492	1	blank2r.bmp	786	1	BXCP	786	1	blank2r.bmp	866	1	übel	866	1	!	1227	1	!	1274	0	0	0	0	0	0	0	0	0	0	0	0	0	0	0	0	0	0	0	0	0	0	0	0	0	0	0
062718	09:57:00	5.0.12.0	119	notassociated	Rpleas_acq	Oppo	Rpleas	Bmasked	CS_B	2pleas	acq_unple_masked	acq45_masked	5	3	400	0	300	300	0	0	484	46	0	1	0	0	0	1	blank2r.bmp	0	1	+	0	6	C2r.bmp	492	1	blank2r.bmp	786	1	BXCP	786	1	blank2r.bmp	866	4	pistole	866	1	!	1227	1	!	-1	0	0	0	0	0	0	0	0	0	0	0	0	0	0	0	0	0	0	0	0	0	0	0	0	0	0	0
062718	09:57:00	5.0.12.0	119	notassociated	Rpleas_acq	Oppo	Rpleas	Bmasked	CS_B	2pleas	acq_pleas_masked	acq45_masked	5	4	400	1	300	300	0	0	335	50	0	1	0	0	0	1	blank2r.bmp	0	1	+	0	5	C1r.bmp	492	1	blank2r.bmp	786	1	GFVZ	786	1	blank2r.bmp	866	2	bett	866	1	!	1227	1	!	1228	0	0	0	0	0	0	0	0	0	0	0	0	0	0	0	0	0	0	0	0	0	0	0	0	0	0	0
062718	09:57:00	5.0.12.0	119	notassociated	Rpleas_acq	Oppo	Rpleas	Bmasked	CS_B	2pleas	acq_pleas_masked	acq45_masked	5	5	400	1	300	300	0	0	459	46	0	0	0	0	0	1	blank2r.bmp	0	1	+	0	7	C3r.bmp	492	1	blank2r.bmp	786	1	GFVZ	786	1	blank2r.bmp	866	6	knospe	866	1	!	1227	1	!	1353	0	0	0	0	0	0	0	0	0	0	0	0	0	0	0	0	0	0	0	0	0	0	0	0	0	0	0
062718	09:57:00	5.0.12.0	119	notassociated	Rpleas_acq	Oppo	Rpleas	Bmasked	CS_B	2pleas	acq_pleas_masked	acq45_masked	5	6	400	1	300	300	0	0	337	50	0	1	0	0	0	1	blank2r.bmp	0	1	+	0	1	B1r.bmp	492	1	blank2r.bmp	786	1	GFVZ	786	1	blank2r.bmp	866	5	liebe	866	1	!	1227	1	!	1230	0	0	0	0	0	0	0	0	0	0	0	0	0	0	0	0	0	0	0	0	0	0	0	0	0	0	0
062718	09:57:00	5.0.12.0	119	notassociated	Rpleas_acq	Oppo	Rpleas	Bmasked	CS_B	2pleas	acq_unple_masked	acq45_masked	5	7	400	1	300	300	0	0	400	46	0	1	0	0	0	1	blank2r.bmp	0	1	+	0	3	B3r.bmp	492	1	blank2r.bmp	786	1	BXCP	786	1	blank2r.bmp	866	5	toxisch	866	1	!	1227	1	!	1294	0	0	0	0	0	0	0	0	0	0	0	0	0	0	0	0	0	0	0	0	0	0	0	0	0	0	0
062718	09:57:00	5.0.12.0	119	notassociated	Rpleas_acq	Oppo	Rpleas	Bmasked	CS_B	2pleas	acq_pleas_masked	acq45_masked	5	8	400	0	300	300	0	0	331	50	0	1	0	0	0	1	blank2r.bmp	0	1	+	0	4	B4r.bmp	492	1	blank2r.bmp	786	1	GFVZ	786	1	blank2r.bmp	866	4	sonne	866	1	!	-1	1	!	-1	0	0	0	0	0	0	0	0	0	0	0	0	0	0	0	0	0	0	0	0	0	0	0	0	0	0	0
062718	09:57:00	5.0.12.0	119	notassociated	Rpleas_acq	Oppo	Rpleas	Bmasked	CS_B	2pleas	acq_unple_masked	acq45_masked	5	9	400	1	300	300	0	0	405	46	0	1	0	0	0	1	blank2r.bmp	0	1	+	0	6	C2r.bmp	492	1	blank2r.bmp	786	1	BXCP	786	1	blank2r.bmp	866	1	übel	866	1	!	1227	1	!	1298	0	0	0	0	0	0	0	0	0	0	0	0	0	0	0	0	0	0	0	0	0	0	0	0	0	0	0
062718	09:57:00	5.0.12.0	119	notassociated	Rpleas_acq	Oppo	Rpleas	Bmasked	CS_B	2pleas	acq_pleas_masked	acq45_masked	5	10	400	0	300	300	0	0	287	50	0	1	0	0	0	1	blank2r.bmp	0	1	+	0	2	B2r.bmp	492	1	blank2r.bmp	786	1	GFVZ	786	1	blank2r.bmp	866	3	lippe	866	1	!	-1	1	!	-1	0	0	0	0	0	0	0	0	0	0	0	0	0	0	0	0	0	0	0	0	0	0	0	0	0	0	0
062718	09:57:00	5.0.12.0	119	notassociated	Rpleas_acq	Oppo	Rpleas	Bmasked	CS_B	2pleas	acq_unple_masked	acq45_masked	5	11	400	0	300	300	0	0	520	46	0	1	0	0	0	1	blank2r.bmp	0	1	+	0	3	B3r.bmp	492	1	blank2r.bmp	786	1	BXCP	786	1	blank2r.bmp	866	6	pest	866	1	!	1227	1	!	-1	0	0	0	0	0	0	0	0	0	0	0	0	0	0	0	0	0	0	0	0	0	0	0	0	0	0	0
062718	09:57:00	5.0.12.0	119	notassociated	Rpleas_acq	Oppo	Rpleas	Bmasked	CS_B	2pleas	acq_unple_masked	acq45_masked	5	12	400	0	300	300	0	0	308	50	0	0	0	0	0	1	blank2r.bmp	0	1	+	0	8	C4r.bmp	492	1	blank2r.bmp	786	1	BXCP	786	1	blank2r.bmp	866	2	leiche	866	1	!	-1	1	!	-1	0	0	0	0	0	0	0	0	0	0	0	0	0	0	0	0	0	0	0	0	0	0	0	0	0	0	0
062718	09:57:00	5.0.12.0	119	notassociated	Rpleas_acq	Oppo	Rpleas	Bmasked	CS_B	2pleas	acq_pleas_masked	acq45_masked	5	13	400	0	300	300	0	0	523	46	0	0	0	0	0	1	blank2r.bmp	0	1	+	0	7	C3r.bmp	492	1	blank2r.bmp	786	1	GFVZ	786	1	blank2r.bmp	866	5	liebe	866	1	!	1227	1	!	-1	0	0	0	0	0	0	0	0	0	0	0	0	0	0	0	0	0	0	0	0	0	0	0	0	0	0	0
062718	09:57:00	5.0.12.0	119	notassociated	Rpleas_acq	Oppo	Rpleas	Bmasked	CS_B	2pleas	acq_pleas_masked	acq45_masked	5	14	400	0	300	300	0	0	478	50	0	1	0	0	0	1	blank2r.bmp	0	1	+	0	5	C1r.bmp	492	1	blank2r.bmp	786	1	GFVZ	786	1	blank2r.bmp	866	2	bett	866	1	!	1227	1	!	-1	0	0	0	0	0	0	0	0	0	0	0	0	0	0	0	0	0	0	0	0	0	0	0	0	0	0	0
062718	09:57:00	5.0.12.0	119	notassociated	Rpleas_acq	Oppo	Rpleas	Bmasked	CS_B	2pleas	acq_pleas_masked	acq45_masked	5	15	400	1	300	300	0	0	422	50	0	1	0	0	0	1	blank2r.bmp	0	1	+	0	1	B1r.bmp	492	1	blank2r.bmp	786	1	GFVZ	786	1	blank2r.bmp	866	1	leben	866	1	!	1227	1	!	1315	0	0	0	0	0	0	0	0	0	0	0	0	0	0	0	0	0	0	0	0	0	0	0	0	0	0	0
062718	09:57:00	5.0.12.0	119	notassociated	Rpleas_acq	Oppo	Rpleas	Bmasked	CS_B	2pleas	acq_unple_masked	acq45_masked	5	16	400	1	300	300	0	0	390	46	0	1	0	0	0	1	blank2r.bmp	0	1	+	0	4	B4r.bmp	492	1	blank2r.bmp	786	1	BXCP	786	1	blank2r.bmp	866	3	pleite	866	1	!	1227	1	!	1284	0	0	0	0	0	0	0	0	0	0	0	0	0	0	0	0	0	0	0	0	0	0	0	0	0	0	0
062718	09:57:00	5.0.12.0	119	notassociated	Rpleas_acq	Oppo	Rpleas	Bmasked	CS_B	2pleas	acq_pleas_masked	acq45_masked	5	17	400	1	300	300	0	0	397	50	0	1	0	0	0	1	blank2r.bmp	0	1	+	0	3	B3r.bmp	492	1	blank2r.bmp	786	1	GFVZ	786	1	blank2r.bmp	866	4	sonne	866	1	!	1227	1	!	1291	0	0	0	0	0	0	0	0	0	0	0	0	0	0	0	0	0	0	0	0	0	0	0	0	0	0	0
062718	09:57:00	5.0.12.0	119	notassociated	Rpleas_acq	Oppo	Rpleas	Bmasked	CS_B	2pleas	acq_pleas_masked	acq45_masked	5	18	400	0	300	300	0	0	472	50	0	1	0	0	0	1	blank2r.bmp	0	1	+	0	4	B4r.bmp	492	1	blank2r.bmp	786	1	GFVZ	786	1	blank2r.bmp	866	6	knospe	866	1	!	1227	1	!	-1	0	0	0	0	0	0	0	0	0	0	0	0	0	0	0	0	0	0	0	0	0	0	0	0	0	0	0
062718	09:57:00	5.0.12.0	119	notassociated	Rpleas_acq	Oppo	Rpleas	Bmasked	CS_B	2pleas	acq_pleas_masked	acq45_masked	5	19	400	1	300	300	0	0	448	50	0	1	0	0	0	1	blank2r.bmp	0	1	+	0	6	C2r.bmp	492	1	blank2r.bmp	786	1	GFVZ	786	1	blank2r.bmp	866	6	knospe	866	1	!	1227	1	!	1341	0	0	0	0	0	0	0	0	0	0	0	0	0	0	0	0	0	0	0	0	0	0	0	0	0	0	0
062718	09:57:00	5.0.12.0	119	notassociated	Rpleas_acq	Oppo	Rpleas	Bmasked	CS_B	2pleas	acq_unple_masked	acq45_masked	5	20	400	1	300	300	0	0	354	46	0	1	0	0	0	1	blank2r.bmp	0	1	+	0	8	C4r.bmp	492	1	blank2r.bmp	786	1	BXCP	786	1	blank2r.bmp	866	4	pistole	866	1	!	1227	1	!	1248	0	0	0	0	0	0	0	0	0	0	0	0	0	0	0	0	0	0	0	0	0	0	0	0	0	0	0
062718	09:57:00	5.0.12.0	119	notassociated	Rpleas_acq	Oppo	Rpleas	Bmasked	CS_B	2pleas	acq_unple_masked	acq45_masked	5	21	400	0	300	300	0	0	498	46	0	1	0	0	0	1	blank2r.bmp	0	1	+	0	2	B2r.bmp	492	1	blank2r.bmp	786	1	BXCP	786	1	blank2r.bmp	866	5	toxisch	866	1	!	1227	1	!	-1	0	0	0	0	0	0	0	0	0	0	0	0	0	0	0	0	0	0	0	0	0	0	0	0	0	0	0
062718	09:57:00	5.0.12.0	119	notassociated	Rpleas_acq	Oppo	Rpleas	Bmasked	CS_B	2pleas	acq_unple_masked	acq45_masked	5	22	400	0	300	300	0	0	703	46	0	1	0	0	0	1	blank2r.bmp	0	1	+	0	5	C1r.bmp	492	1	blank2r.bmp	786	1	BXCP	786	1	blank2r.bmp	866	6	pest	866	1	!	1227	1	!	-1	0	0	0	0	0	0	0	0	0	0	0	0	0	0	0	0	0	0	0	0	0	0	0	0	0	0	0
062718	09:57:00	5.0.12.0	119	notassociated	Rpleas_acq	Oppo	Rpleas	Bmasked	CS_B	2pleas	acq_pleas_masked	acq45_masked	5	23	400	0	300	300	0	0	312	50	0	1	0	0	0	1	blank2r.bmp	0	1	+	0	1	B1r.bmp	492	1	blank2r.bmp	786	1	GFVZ	786	1	blank2r.bmp	866	4	sonne	866	1	!	-1	1	!	-1	0	0	0	0	0	0	0	0	0	0	0	0	0	0	0	0	0	0	0	0	0	0	0	0	0	0	0
062718	09:57:00	5.0.12.0	119	notassociated	Rpleas_acq	Oppo	Rpleas	Bmasked	CS_B	2pleas	acq_pleas_masked	acq45_masked	5	24	400	1	300	300	0	0	351	50	0	1	0	0	0	1	blank2r.bmp	0	1	+	0	7	C3r.bmp	492	1	blank2r.bmp	786	1	GFVZ	786	1	blank2r.bmp	866	3	lippe	866	1	!	1227	1	!	1245	0	0	0	0	0	0	0	0	0	0	0	0	0	0	0	0	0	0	0	0	0	0	0	0	0	0	0
062718	09:57:00	5.0.12.0	119	notassociated	Rpleas_acq	Oppo	Rpleas	Bmasked	CS_B	2pleas	acq_unple_masked	acq45_masked	5	25	400	1	300	300	0	0	466	46	0	1	0	0	0	1	blank2r.bmp	0	1	+	0	3	B3r.bmp	492	1	blank2r.bmp	786	1	BXCP	786	1	blank2r.bmp	866	5	toxisch	866	1	!	1227	1	!	1359	0	0	0	0	0	0	0	0	0	0	0	0	0	0	0	0	0	0	0	0	0	0	0	0	0	0	0
062718	09:57:00	5.0.12.0	119	notassociated	Rpleas_acq	Oppo	Rpleas	Bmasked	CS_B	2pleas	acq_pleas_masked	acq45_masked	5	26	400	1	300	300	0	0	393	50	0	1	0	0	0	1	blank2r.bmp	0	1	+	0	8	C4r.bmp	492	1	blank2r.bmp	786	1	GFVZ	786	1	blank2r.bmp	866	1	leben	866	1	!	1227	1	!	1287	0	0	0	0	0	0	0	0	0	0	0	0	0	0	0	0	0	0	0	0	0	0	0	0	0	0	0
062718	09:57:00	5.0.12.0	119	notassociated	Rpleas_acq	Oppo	Rpleas	Bmasked	CS_B	2pleas	acq_unple_masked	acq45_masked	5	27	400	1	300	300	0	0	436	46	0	1	0	0	0	1	blank2r.bmp	0	1	+	0	6	C2r.bmp	492	1	blank2r.bmp	786	1	BXCP	786	1	blank2r.bmp	866	4	pistole	866	1	!	1227	1	!	1329	0	0	0	0	0	0	0	0	0	0	0	0	0	0	0	0	0	0	0	0	0	0	0	0	0	0	0
062718	09:57:00	5.0.12.0	119	notassociated	Rpleas_acq	Oppo	Rpleas	Bmasked	CS_B	2pleas	acq_unple_masked	acq45_masked	5	28	400	1	300	300	0	0	452	50	0	0	0	0	0	1	blank2r.bmp	0	1	+	0	5	C1r.bmp	492	1	blank2r.bmp	786	1	BXCP	786	1	blank2r.bmp	866	1	übel	866	1	!	1227	1	!	1345	0	0	0	0	0	0	0	0	0	0	0	0	0	0	0	0	0	0	0	0	0	0	0	0	0	0	0
062718	09:57:00	5.0.12.0	119	notassociated	Rpleas_acq	Oppo	Rpleas	Bmasked	CS_B	2pleas	acq_pleas_masked	acq45_masked	5	29	400	1	300	300	0	0	361	50	0	1	0	0	0	1	blank2r.bmp	0	1	+	0	1	B1r.bmp	492	1	blank2r.bmp	786	1	GFVZ	786	1	blank2r.bmp	866	2	bett	866	1	!	1227	1	!	1255	0	0	0	0	0	0	0	0	0	0	0	0	0	0	0	0	0	0	0	0	0	0	0	0	0	0	0
062718	09:57:00	5.0.12.0	119	notassociated	Rpleas_acq	Oppo	Rpleas	Bmasked	CS_B	2pleas	acq_unple_masked	acq45_masked	5	30	400	1	300	300	0	0	411	46	0	1	0	0	0	1	blank2r.bmp	0	1	+	0	4	B4r.bmp	492	1	blank2r.bmp	786	1	BXCP	786	1	blank2r.bmp	866	2	leiche	866	1	!	1227	1	!	1305	0	0	0	0	0	0	0	0	0	0	0	0	0	0	0	0	0	0	0	0	0	0	0	0	0	0	0
062718	09:57:00	5.0.12.0	119	notassociated	Rpleas_acq	Oppo	Rpleas	Bmasked	CS_B	2pleas	acq_pleas_masked	acq45_masked	5	31	400	0	300	300	0	0	312	50	0	1	0	0	0	1	blank2r.bmp	0	1	+	0	7	C3r.bmp	492	1	blank2r.bmp	786	1	GFVZ	786	1	blank2r.bmp	866	5	liebe	866	1	!	-1	1	!	-1	0	0	0	0	0	0	0	0	0	0	0	0	0	0	0	0	0	0	0	0	0	0	0	0	0	0	0
062718	09:57:00	5.0.12.0	119	notassociated	Rpleas_acq	Oppo	Rpleas	Bmasked	CS_B	2pleas	acq_unple_masked	acq45_masked	5	32	400	1	300	300	0	0	415	50	0	0	0	0	0	1	blank2r.bmp	0	1	+	0	2	B2r.bmp	492	1	blank2r.bmp	786	1	BXCP	786	1	blank2r.bmp	866	3	pleite	866	1	!	1227	1	!	1309	0	0	0	0	0	0	0	0	0	0	0	0	0	0	0	0	0	0	0	0	0	0	0	0	0	0	0
062718	09:57:00	5.0.12.0	119	notassociated	Rpleas_acq	Oppo	Lpleas	Bmasked	CS_B	2pleas	cond_US_pleas_123_masked_CS1	condtest_masked_1	6	1	400	0	300	300	0	0	3676	46	0	1	0	0	0	1	blank2r.bmp	0	1	+	0	7	C3r.bmp	492	1	blank2r.bmp	786	1	BXCP	786	1	blank2r.bmp	866	1	leben	866	1	!	1227	1	!	-1	0	0	0	0	0	0	0	0	0	0	0	0	0	0	0	0	0	0	0	0	0	0	0	0	0	0	0
062718	09:57:00	5.0.12.0	119	notassociated	Rpleas_acq	Oppo	Lpleas	Bmasked	CS_B	2pleas	cond_new_unple_456_masked_CS2	condtest_masked_1	6	2	400	0	300	300	0	0	786	50	0	1	0	0	0	1	blank2r.bmp	0	1	+	0	4	B4r.bmp	492	1	blank2r.bmp	786	1	GFVZ	786	1	blank2r.bmp	866	3	schock	866	1	!	1227	1	!	-1	0	0	0	0	0	0	0	0	0	0	0	0	0	0	0	0	0	0	0	0	0	0	0	0	0	0	0
062718	09:57:00	5.0.12.0	119	notassociated	Rpleas_acq	Oppo	Lpleas	Bmasked	CS_B	2pleas	cond_new_pleas_456_masked_CS2	condtest_masked_1	6	3	400	0	300	300	0	0	712	46	0	1	0	0	0	1	blank2r.bmp	0	1	+	0	2	B2r.bmp	492	1	blank2r.bmp	786	1	GFVZ	786	1	blank2r.bmp	866	1	nähe	866	1	!	1227	1	!	-1	0	0	0	0	0	0	0	0	0	0	0	0	0	0	0	0	0	0	0	0	0	0	0	0	0	0	0
062718	09:57:00	5.0.12.0	119	notassociated	Rpleas_acq	Oppo	Lpleas	Bmasked	CS_B	2pleas	cond_US_unple_123_masked_CS2	condtest_masked_1	6	4	400	1	300	300	0	0	353	50	0	1	0	0	0	1	blank2r.bmp	0	1	+	0	6	C2r.bmp	492	1	blank2r.bmp	786	1	GFVZ	786	1	blank2r.bmp	866	1	übel	866	1	!	1227	1	!	1247	0	0	0	0	0	0	0	0	0	0	0	0	0	0	0	0	0	0	0	0	0	0	0	0	0	0	0
062718	09:57:00	5.0.12.0	119	notassociated	Rpleas_acq	Oppo	Lpleas	Bmasked	CS_B	2pleas	cond_US_pleas_123_masked_CS2	condtest_masked_1	6	5	400	1	300	300	0	0	403	46	0	1	0	0	0	1	blank2r.bmp	0	1	+	0	1	B1r.bmp	492	1	blank2r.bmp	786	1	GFVZ	786	1	blank2r.bmp	866	3	lippe	866	1	!	1227	1	!	1297	0	0	0	0	0	0	0	0	0	0	0	0	0	0	0	0	0	0	0	0	0	0	0	0	0	0	0
062718	09:57:00	5.0.12.0	119	notassociated	Rpleas_acq	Oppo	Lpleas	Bmasked	CS_B	2pleas	cond_US_unple_123_masked_CS1	condtest_masked_1	6	6	400	1	300	300	0	0	446	50	0	1	0	0	0	1	blank2r.bmp	0	1	+	0	5	C1r.bmp	492	1	blank2r.bmp	786	1	BXCP	786	1	blank2r.bmp	866	2	leiche	866	1	!	1227	1	!	1339	0	0	0	0	0	0	0	0	0	0	0	0	0	0	0	0	0	0	0	0	0	0	0	0	0	0	0
062718	09:57:00	5.0.12.0	119	notassociated	Rpleas_acq	Oppo	Lpleas	Bmasked	CS_B	2pleas	cond_new_unple_456_masked_CS1	condtest_masked_1	6	7	400	0	300	300	0	0	595	50	0	1	0	0	0	1	blank2r.bmp	0	1	+	0	8	C4r.bmp	492	1	blank2r.bmp	786	1	BXCP	786	1	blank2r.bmp	866	2	eitel	866	1	!	1227	1	!	-1	0	0	0	0	0	0	0	0	0	0	0	0	0	0	0	0	0	0	0	0	0	0	0	0	0	0	0
062718	09:57:00	5.0.12.0	119	notassociated	Rpleas_acq	Oppo	Lpleas	Bmasked	CS_B	2pleas	cond_new_pleas_456_masked_CS1	condtest_masked_1	6	8	400	1	300	300	0	0	435	46	0	1	0	0	0	1	blank2r.bmp	0	1	+	0	3	B3r.bmp	492	1	blank2r.bmp	786	1	BXCP	786	1	blank2r.bmp	866	2	pointe	866	1	!	1227	1	!	1329	0	0	0	0	0	0	0	0	0	0	0	0	0	0	0	0	0	0	0	0	0	0	0	0	0	0	0
062718	09:57:00	5.0.12.0	119	notassociated	Rpleas_acq	Oppo	Lpleas	Bmasked	CS_B	2pleas	cond_new_unple_456_masked_CS2	condtest_masked_2	7	1	400	1	300	300	0	0	432	50	0	1	0	0	0	1	blank2r.bmp	0	1	+	0	6	C2r.bmp	492	1	blank2r.bmp	786	1	GFVZ	786	1	blank2r.bmp	866	1	stinken	866	1	!	1227	1	!	1326	0	0	0	0	0	0	0	0	0	0	0	0	0	0	0	0	0	0	0	0	0	0	0	0	0	0	0
062718	09:57:00	5.0.12.0	119	notassociated	Rpleas_acq	Oppo	Lpleas	Bmasked	CS_B	2pleas	cond_new_pleas_456_masked_CS2	condtest_masked_2	7	2	400	0	300	300	0	0	528	46	0	1	0	0	0	1	blank2r.bmp	0	1	+	0	1	B1r.bmp	492	1	blank2r.bmp	786	1	GFVZ	786	1	blank2r.bmp	866	3	bonbon	866	1	!	1227	1	!	-1	0	0	0	0	0	0	0	0	0	0	0	0	0	0	0	0	0	0	0	0	0	0	0	0	0	0	0
062718	09:57:00	5.0.12.0	119	notassociated	Rpleas_acq	Oppo	Lpleas	Bmasked	CS_B	2pleas	cond_US_pleas_123_masked_CS1	condtest_masked_2	7	3	400	1	300	300	0	0	451	50	0	0	0	0	0	1	blank2r.bmp	0	1	+	0	5	C1r.bmp	492	1	blank2r.bmp	786	1	BXCP	786	1	blank2r.bmp	866	2	bett	866	1	!	1227	1	!	1344	0	0	0	0	0	0	0	0	0	0	0	0	0	0	0	0	0	0	0	0	0	0	0	0	0	0	0
062718	09:57:00	5.0.12.0	119	notassociated	Rpleas_acq	Oppo	Lpleas	Bmasked	CS_B	2pleas	cond_US_unple_123_masked_CS1	condtest_masked_2	7	4	400	0	300	300	0	0	552	50	0	1	0	0	0	1	blank2r.bmp	0	1	+	0	3	B3r.bmp	492	1	blank2r.bmp	786	1	BXCP	786	1	blank2r.bmp	866	3	pleite	866	1	!	1227	1	!	-1	0	0	0	0	0	0	0	0	0	0	0	0	0	0	0	0	0	0	0	0	0	0	0	0	0	0	0
062718	09:57:00	5.0.12.0	119	notassociated	Rpleas_acq	Oppo	Lpleas	Bmasked	CS_B	2pleas	cond_US_unple_123_masked_CS1	condtest_masked_2	7	5	400	1	300	300	0	0	432	46	0	0	0	0	0	1	blank2r.bmp	0	1	+	0	4	B4r.bmp	492	1	blank2r.bmp	786	1	BXCP	786	1	blank2r.bmp	866	2	leiche	866	1	!	1227	1	!	1326	0	0	0	0	0	0	0	0	0	0	0	0	0	0	0	0	0	0	0	0	0	0	0	0	0	0	0
062718	09:57:00	5.0.12.0	119	notassociated	Rpleas_acq	Oppo	Lpleas	Bmasked	CS_B	2pleas	cond_US_unple_123_masked_CS1	condtest_masked_2	7	6	400	0	300	300	0	0	480	50	0	1	0	0	0	1	blank2r.bmp	0	1	+	0	7	C3r.bmp	492	1	blank2r.bmp	786	1	BXCP	786	1	blank2r.bmp	866	1	übel	866	1	!	1227	1	!	-1	0	0	0	0	0	0	0	0	0	0	0	0	0	0	0	0	0	0	0	0	0	0	0	0	0	0	0
062718	09:57:00	5.0.12.0	119	notassociated	Rpleas_acq	Oppo	Lpleas	Bmasked	CS_B	2pleas	cond_new_pleas_456_masked_CS2	condtest_masked_2	7	7	400	1	300	300	0	0	408	46	0	1	0	0	0	1	blank2r.bmp	0	1	+	0	8	C4r.bmp	492	1	blank2r.bmp	786	1	GFVZ	786	1	blank2r.bmp	866	1	nähe	866	1	!	1227	1	!	1302	0	0	0	0	0	0	0	0	0	0	0	0	0	0	0	0	0	0	0	0	0	0	0	0	0	0	0
062718	09:57:00	5.0.12.0	119	notassociated	Rpleas_acq	Oppo	Lpleas	Bmasked	CS_B	2pleas	cond_new_unple_456_masked_CS2	condtest_masked_2	7	8	400	0	300	300	0	0	754	50	0	1	0	0	0	1	blank2r.bmp	0	1	+	0	2	B2r.bmp	492	1	blank2r.bmp	786	1	GFVZ	786	1	blank2r.bmp	866	2	eitel	866	1	!	1227	1	!	-1	0	0	0	0	0	0	0	0	0	0	0	0	0	0	0	0	0	0	0	0	0	0	0	0	0	0	0
062718	09:57:00	5.0.12.0	119	notassociated	Rpleas_acq	Oppo	Lpleas	Bmasked	CS_B	2pleas	cond_new_unple_456_masked_CS2	condtest_masked_2	7	9	400	0	300	300	0	0	563	50	0	1	0	0	0	1	blank2r.bmp	0	1	+	0	8	C4r.bmp	492	1	blank2r.bmp	786	1	GFVZ	786	1	blank2r.bmp	866	1	stinken	866	1	!	1227	1	!	-1	0	0	0	0	0	0	0	0	0	0	0	0	0	0	0	0	0	0	0	0	0	0	0	0	0	0	0
062718	09:57:00	5.0.12.0	119	notassociated	Rpleas_acq	Oppo	Lpleas	Bmasked	CS_B	2pleas	cond_new_pleas_456_masked_CS2	condtest_masked_2	7	10	400	0	300	300	0	0	510	46	0	1	0	0	0	1	blank2r.bmp	0	1	+	0	4	B4r.bmp	492	1	blank2r.bmp	786	1	GFVZ	786	1	blank2r.bmp	866	2	pointe	866	1	!	1227	1	!	-1	0	0	0	0	0	0	0	0	0	0	0	0	0	0	0	0	0	0	0	0	0	0	0	0	0	0	0
062718	09:57:00	5.0.12.0	119	notassociated	Rpleas_acq	Oppo	Lpleas	Bmasked	CS_B	2pleas	cond_new_unple_456_masked_CS1	condtest_masked_2	7	11	400	1	300	300	0	0	462	50	0	1	0	0	0	1	blank2r.bmp	0	1	+	0	6	C2r.bmp	492	1	blank2r.bmp	786	1	BXCP	786	1	blank2r.bmp	866	3	schock	866	1	!	1227	1	!	1356	0	0	0	0	0	0	0	0	0	0	0	0	0	0	0	0	0	0	0	0	0	0	0	0	0	0	0
062718	09:57:00	5.0.12.0	119	notassociated	Rpleas_acq	Oppo	Lpleas	Bmasked	CS_B	2pleas	cond_US_pleas_123_masked_CS2	condtest_masked_2	7	12	400	1	300	300	0	0	438	46	0	1	0	0	0	1	blank2r.bmp	0	1	+	0	2	B2r.bmp	492	1	blank2r.bmp	786	1	GFVZ	786	1	blank2r.bmp	866	2	bett	866	1	!	1227	1	!	1332	0	0	0	0	0	0	0	0	0	0	0	0	0	0	0	0	0	0	0	0	0	0	0	0	0	0	0
062718	09:57:00	5.0.12.0	119	notassociated	Rpleas_acq	Oppo	Lpleas	Bmasked	CS_B	2pleas	cond_new_unple_456_masked_CS2	condtest_masked_2	7	13	400	0	300	300	0	0	486	50	0	1	0	0	0	1	blank2r.bmp	0	1	+	0	3	B3r.bmp	492	1	blank2r.bmp	786	1	GFVZ	786	1	blank2r.bmp	866	1	stinken	866	1	!	1227	1	!	-1	0	0	0	0	0	0	0	0	0	0	0	0	0	0	0	0	0	0	0	0	0	0	0	0	0	0	0
062718	09:57:00	5.0.12.0	119	notassociated	Rpleas_acq	Oppo	Lpleas	Bmasked	CS_B	2pleas	cond_new_pleas_456_masked_CS1	condtest_masked_2	7	14	400	0	300	300	0	0	497	46	0	1	0	0	0	1	blank2r.bmp	0	1	+	0	5	C1r.bmp	492	1	blank2r.bmp	786	1	BXCP	786	1	blank2r.bmp	866	3	bonbon	866	1	!	1227	1	!	-1	0	0	0	0	0	0	0	0	0	0	0	0	0	0	0	0	0	0	0	0	0	0	0	0	0	0	0
062718	09:57:00	5.0.12.0	119	notassociated	Rpleas_acq	Oppo	Lpleas	Bmasked	CS_B	2pleas	cond_new_unple_456_masked_CS1	condtest_masked_2	7	15	400	0	300	300	0	0	318	50	0	1	0	0	0	1	blank2r.bmp	0	1	+	0	7	C3r.bmp	492	1	blank2r.bmp	786	1	BXCP	786	1	blank2r.bmp	866	3	schock	866	1	!	-1	1	!	-1	0	0	0	0	0	0	0	0	0	0	0	0	0	0	0	0	0	0	0	0	0	0	0	0	0	0	0
062718	09:57:00	5.0.12.0	119	notassociated	Rpleas_acq	Oppo	Lpleas	Bmasked	CS_B	2pleas	cond_new_pleas_456_masked_CS1	condtest_masked_2	7	16	400	0	300	300	0	0	328	46	0	1	0	0	0	1	blank2r.bmp	0	1	+	0	1	B1r.bmp	492	1	blank2r.bmp	786	1	BXCP	786	1	blank2r.bmp	866	1	nähe	866	1	!	-1	1	!	-1	0	0	0	0	0	0	0	0	0	0	0	0	0	0	0	0	0	0	0	0	0	0	0	0	0	0	0
062718	09:57:00	5.0.12.0	119	notassociated	Rpleas_acq	Oppo	Lpleas	Bmasked	CS_B	2pleas	cond_US_pleas_123_masked_CS2	condtest_masked_2	7	17	400	1	300	300	0	0	434	50	0	0	0	0	0	1	blank2r.bmp	0	1	+	0	1	B1r.bmp	492	1	blank2r.bmp	786	1	GFVZ	786	1	blank2r.bmp	866	1	leben	866	1	!	1227	1	!	1328	0	0	0	0	0	0	0	0	0	0	0	0	0	0	0	0	0	0	0	0	0	0	0	0	0	0	0
062718	09:57:00	5.0.12.0	119	notassociated	Rpleas_acq	Oppo	Lpleas	Bmasked	CS_B	2pleas	cond_US_pleas_123_masked_CS1	condtest_masked_2	7	18	400	0	300	300	0	0	645	46	0	1	0	0	0	1	blank2r.bmp	0	1	+	0	2	B2r.bmp	492	1	blank2r.bmp	786	1	BXCP	786	1	blank2r.bmp	866	3	lippe	866	1	!	1227	1	!	-1	0	0	0	0	0	0	0	0	0	0	0	0	0	0	0	0	0	0	0	0	0	0	0	0	0	0	0
062718	09:57:00	5.0.12.0	119	notassociated	Rpleas_acq	Oppo	Lpleas	Bmasked	CS_B	2pleas	cond_US_pleas_123_masked_CS2	condtest_masked_2	7	19	400	0	300	300	0	0	515	46	0	1	0	0	0	1	blank2r.bmp	0	1	+	0	6	C2r.bmp	492	1	blank2r.bmp	786	1	GFVZ	786	1	blank2r.bmp	866	1	leben	866	1	!	1227	1	!	-1	0	0	0	0	0	0	0	0	0	0	0	0	0	0	0	0	0	0	0	0	0	0	0	0	0	0	0
062718	09:57:00	5.0.12.0	119	notassociated	Rpleas_acq	Oppo	Lpleas	Bmasked	CS_B	2pleas	cond_new_pleas_456_masked_CS1	condtest_masked_2	7	20	400	0	300	300	0	0	2787	50	0	0	0	0	0	1	blank2r.bmp	0	1	+	0	4	B4r.bmp	492	1	blank2r.bmp	786	1	BXCP	786	1	blank2r.bmp	866	3	bonbon	866	1	!	1227	1	!	-1	0	0	0	0	0	0	0	0	0	0	0	0	0	0	0	0	0	0	0	0	0	0	0	0	0	0	0
062718	09:57:00	5.0.12.0	119	notassociated	Rpleas_acq	Oppo	Lpleas	Bmasked	CS_B	2pleas	cond_US_unple_123_masked_CS2	condtest_masked_2	7	21	400	0	300	300	0	0	502	46	0	0	0	0	0	1	blank2r.bmp	0	1	+	0	7	C3r.bmp	492	1	blank2r.bmp	786	1	GFVZ	786	1	blank2r.bmp	866	3	pleite	866	1	!	1227	1	!	-1	0	0	0	0	0	0	0	0	0	0	0	0	0	0	0	0	0	0	0	0	0	0	0	0	0	0	0
062718	09:57:00	5.0.12.0	119	notassociated	Rpleas_acq	Oppo	Lpleas	Bmasked	CS_B	2pleas	cond_new_unple_456_masked_CS2	condtest_masked_2	7	22	400	0	300	300	0	0	707	46	0	0	0	0	0	1	blank2r.bmp	0	1	+	0	5	C1r.bmp	492	1	blank2r.bmp	786	1	GFVZ	786	1	blank2r.bmp	866	2	eitel	866	1	!	1227	1	!	-1	0	0	0	0	0	0	0	0	0	0	0	0	0	0	0	0	0	0	0	0	0	0	0	0	0	0	0
062718	09:57:00	5.0.12.0	119	notassociated	Rpleas_acq	Oppo	Lpleas	Bmasked	CS_B	2pleas	cond_US_pleas_123_masked_CS1	condtest_masked_2	7	23	400	1	300	300	0	0	348	50	0	0	0	0	0	1	blank2r.bmp	0	1	+	0	8	C4r.bmp	492	1	blank2r.bmp	786	1	BXCP	786	1	blank2r.bmp	866	3	lippe	866	1	!	1227	1	!	1242	0	0	0	0	0	0	0	0	0	0	0	0	0	0	0	0	0	0	0	0	0	0	0	0	0	0	0
062718	09:57:00	5.0.12.0	119	notassociated	Rpleas_acq	Oppo	Lpleas	Bmasked	CS_B	2pleas	cond_US_unple_123_masked_CS1	condtest_masked_2	7	24	400	0	300	300	0	0	603	50	0	1	0	0	0	1	blank2r.bmp	0	1	+	0	3	B3r.bmp	492	1	blank2r.bmp	786	1	BXCP	786	1	blank2r.bmp	866	3	pleite	866	1	!	1227	1	!	-1	0	0	0	0	0	0	0	0	0	0	0	0	0	0	0	0	0	0	0	0	0	0	0	0	0	0	0
062718	09:57:00	5.0.12.0	119	notassociated	Rpleas_acq	Oppo	Lpleas	Bmasked	CS_B	2pleas	cond_new_pleas_456_masked_CS2	condtest_masked_2	7	25	400	0	300	300	0	0	590	46	0	1	0	0	0	1	blank2r.bmp	0	1	+	0	8	C4r.bmp	492	1	blank2r.bmp	786	1	GFVZ	786	1	blank2r.bmp	866	2	pointe	866	1	!	1227	1	!	-1	0	0	0	0	0	0	0	0	0	0	0	0	0	0	0	0	0	0	0	0	0	0	0	0	0	0	0
062718	09:57:00	5.0.12.0	119	notassociated	Rpleas_acq	Oppo	Lpleas	Bmasked	CS_B	2pleas	cond_US_pleas_123_masked_CS2	condtest_masked_2	7	26	400	1	300	300	0	0	447	46	0	1	0	0	0	1	blank2r.bmp	0	1	+	0	2	B2r.bmp	492	1	blank2r.bmp	786	1	GFVZ	786	1	blank2r.bmp	866	2	bett	866	1	!	1227	1	!	1340	0	0	0	0	0	0	0	0	0	0	0	0	0	0	0	0	0	0	0	0	0	0	0	0	0	0	0
062718	09:57:00	5.0.12.0	119	notassociated	Rpleas_acq	Oppo	Lpleas	Bmasked	CS_B	2pleas	cond_new_unple_456_masked_CS1	condtest_masked_2	7	27	400	1	300	300	0	0	452	50	0	1	0	0	0	1	blank2r.bmp	0	1	+	0	6	C2r.bmp	492	1	blank2r.bmp	786	1	BXCP	786	1	blank2r.bmp	866	3	schock	866	1	!	1227	1	!	1346	0	0	0	0	0	0	0	0	0	0	0	0	0	0	0	0	0	0	0	0	0	0	0	0	0	0	0
062718	09:57:00	5.0.12.0	119	notassociated	Rpleas_acq	Oppo	Lpleas	Bmasked	CS_B	2pleas	cond_new_pleas_456_masked_CS2	condtest_masked_2	7	28	400	0	300	300	0	0	470	46	0	1	0	0	0	1	blank2r.bmp	0	1	+	0	5	C1r.bmp	492	1	blank2r.bmp	786	1	GFVZ	786	1	blank2r.bmp	866	1	nähe	866	1	!	1227	1	!	-1	0	0	0	0	0	0	0	0	0	0	0	0	0	0	0	0	0	0	0	0	0	0	0	0	0	0	0
062718	09:57:00	5.0.12.0	119	notassociated	Rpleas_acq	Oppo	Lpleas	Bmasked	CS_B	2pleas	cond_US_unple_123_masked_CS2	condtest_masked_2	7	29	400	1	300	300	0	0	351	50	0	1	0	0	0	1	blank2r.bmp	0	1	+	0	1	B1r.bmp	492	1	blank2r.bmp	786	1	GFVZ	786	1	blank2r.bmp	866	1	übel	866	1	!	1227	1	!	1244	0	0	0	0	0	0	0	0	0	0	0	0	0	0	0	0	0	0	0	0	0	0	0	0	0	0	0
062718	09:57:00	5.0.12.0	119	notassociated	Rpleas_acq	Oppo	Lpleas	Bmasked	CS_B	2pleas	cond_US_unple_123_masked_CS2	condtest_masked_2	7	30	400	0	300	300	0	0	478	50	0	1	0	0	0	1	blank2r.bmp	0	1	+	0	4	B4r.bmp	492	1	blank2r.bmp	786	1	GFVZ	786	1	blank2r.bmp	866	2	leiche	866	1	!	1227	1	!	-1	0	0	0	0	0	0	0	0	0	0	0	0	0	0	0	0	0	0	0	0	0	0	0	0	0	0	0
062718	09:57:00	5.0.12.0	119	notassociated	Rpleas_acq	Oppo	Lpleas	Bmasked	CS_B	2pleas	cond_US_unple_123_masked_CS1	condtest_masked_2	7	31	400	1	300	300	0	0	441	50	0	1	0	0	0	1	blank2r.bmp	0	1	+	0	3	B3r.bmp	492	1	blank2r.bmp	786	1	BXCP	786	1	blank2r.bmp	866	2	leiche	866	1	!	1227	1	!	1334	0	0	0	0	0	0	0	0	0	0	0	0	0	0	0	0	0	0	0	0	0	0	0	0	0	0	0
062718	09:57:00	5.0.12.0	119	notassociated	Rpleas_acq	Oppo	Lpleas	Bmasked	CS_B	2pleas	cond_US_pleas_123_masked_CS2	condtest_masked_2	7	32	400	0	300	300	0	0	312	50	0	0	0	0	0	1	blank2r.bmp	0	1	+	0	7	C3r.bmp	492	1	blank2r.bmp	786	1	GFVZ	786	1	blank2r.bmp	866	2	bett	866	1	!	-1	1	!	-1	0	0	0	0	0	0	0	0	0	0	0	0	0	0	0	0	0	0	0	0	0	0	0	0	0	0	0
062718	09:57:00	5.0.12.0	119	notassociated	Rpleas_acq	Oppo	Lpleas	Bmasked	CS_B	2pleas	cond_US_unple_123_masked_CS2	condtest_masked_2	7	33	400	1	300	300	0	0	466	50	0	1	0	0	0	1	blank2r.bmp	0	1	+	0	7	C3r.bmp	492	1	blank2r.bmp	786	1	GFVZ	786	1	blank2r.bmp	866	1	übel	866	1	!	1227	1	!	1360	0	0	0	0	0	0	0	0	0	0	0	0	0	0	0	0	0	0	0	0	0	0	0	0	0	0	0
062718	09:57:00	5.0.12.0	119	notassociated	Rpleas_acq	Oppo	Lpleas	Bmasked	CS_B	2pleas	cond_US_pleas_123_masked_CS1	condtest_masked_2	7	34	400	1	300	300	0	0	376	46	0	1	0	0	0	1	blank2r.bmp	0	1	+	0	3	B3r.bmp	492	1	blank2r.bmp	786	1	BXCP	786	1	blank2r.bmp	866	1	leben	866	1	!	1227	1	!	1270	0	0	0	0	0	0	0	0	0	0	0	0	0	0	0	0	0	0	0	0	0	0	0	0	0	0	0
062718	09:57:00	5.0.12.0	119	notassociated	Rpleas_acq	Oppo	Lpleas	Bmasked	CS_B	2pleas	cond_US_unple_123_masked_CS2	condtest_masked_2	7	35	400	0	300	300	0	0	3037	50	0	1	0	0	0	1	blank2r.bmp	0	1	+	0	1	B1r.bmp	492	1	blank2r.bmp	786	1	GFVZ	786	1	blank2r.bmp	866	3	pleite	866	1	!	1227	1	!	-1	0	0	0	0	0	0	0	0	0	0	0	0	0	0	0	0	0	0	0	0	0	0	0	0	0	0	0
062718	09:57:00	5.0.12.0	119	notassociated	Rpleas_acq	Oppo	Lpleas	Bmasked	CS_B	2pleas	cond_new_unple_456_masked_CS1	condtest_masked_2	7	36	400	1	300	300	0	0	433	50	0	1	0	0	0	1	blank2r.bmp	0	1	+	0	5	C1r.bmp	492	1	blank2r.bmp	786	1	BXCP	786	1	blank2r.bmp	866	2	eitel	866	1	!	1227	1	!	1326	0	0	0	0	0	0	0	0	0	0	0	0	0	0	0	0	0	0	0	0	0	0	0	0	0	0	0
062718	09:57:00	5.0.12.0	119	notassociated	Rpleas_acq	Oppo	Lpleas	Bmasked	CS_B	2pleas	cond_new_unple_456_masked_CS1	condtest_masked_2	7	37	400	1	300	300	0	0	352	46	0	0	0	0	0	1	blank2r.bmp	0	1	+	0	4	B4r.bmp	492	1	blank2r.bmp	786	1	BXCP	786	1	blank2r.bmp	866	1	stinken	866	1	!	1227	1	!	1246	0	0	0	0	0	0	0	0	0	0	0	0	0	0	0	0	0	0	0	0	0	0	0	0	0	0	0
062718	09:57:00	5.0.12.0	119	notassociated	Rpleas_acq	Oppo	Lpleas	Bmasked	CS_B	2pleas	cond_new_pleas_456_masked_CS1	condtest_masked_2	7	38	400	1	300	300	0	0	432	50	0	0	0	0	0	1	blank2r.bmp	0	1	+	0	2	B2r.bmp	492	1	blank2r.bmp	786	1	BXCP	786	1	blank2r.bmp	866	2	pointe	866	1	!	1227	1	!	1325	0	0	0	0	0	0	0	0	0	0	0	0	0	0	0	0	0	0	0	0	0	0	0	0	0	0	0
062718	09:57:00	5.0.12.0	119	notassociated	Rpleas_acq	Oppo	Lpleas	Bmasked	CS_B	2pleas	cond_new_pleas_456_masked_CS1	condtest_masked_2	7	39	400	1	300	300	0	0	431	50	0	0	0	0	0	1	blank2r.bmp	0	1	+	0	8	C4r.bmp	492	1	blank2r.bmp	786	1	BXCP	786	1	blank2r.bmp	866	3	bonbon	866	1	!	1227	1	!	1325	0	0	0	0	0	0	0	0	0	0	0	0	0	0	0	0	0	0	0	0	0	0	0	0	0	0	0
062718	09:57:00	5.0.12.0	119	notassociated	Rpleas_acq	Oppo	Lpleas	Bmasked	CS_B	2pleas	cond_US_pleas_123_masked_CS1	condtest_masked_2	7	40	400	0	300	300	0	0	559	46	0	1	0	0	0	1	blank2r.bmp	0	1	+	0	6	C2r.bmp	492	1	blank2r.bmp	786	1	BXCP	786	1	blank2r.bmp	866	3	lippe	866	1	!	1227	1	!	-1	0	0	0	0	0	0	0	0	0	0	0	0	0	0	0	0	0	0	0	0	0	0	0	0	0	0	0
062718	09:57:00	5.0.12.0	119	notassociated	Rpleas_acq	Oppo	Lpleas	Bmasked	CS_B	2pleas	cond_new_unple_123_masked_CS1	condtest_masked_3	8	1	400	0	300	300	0	0	1387	50	0	1	0	0	0	1	blank2r.bmp	0	1	+	0	3	B3r.bmp	492	1	blank2r.bmp	786	1	BXCP	786	1	blank2r.bmp	866	3	sekte	866	1	!	1227	1	!	-1	0	0	0	0	0	0	0	0	0	0	0	0	0	0	0	0	0	0	0	0	0	0	0	0	0	0	0
062718	09:57:00	5.0.12.0	119	notassociated	Rpleas_acq	Oppo	Lpleas	Bmasked	CS_B	2pleas	cond_US_pleas_456_masked_CS1	condtest_masked_3	8	2	400	0	300	300	0	0	638	46	0	1	0	0	0	1	blank2r.bmp	0	1	+	0	4	B4r.bmp	492	1	blank2r.bmp	786	1	BXCP	786	1	blank2r.bmp	866	3	knospe	866	1	!	1227	1	!	-1	0	0	0	0	0	0	0	0	0	0	0	0	0	0	0	0	0	0	0	0	0	0	0	0	0	0	0
062718	09:57:00	5.0.12.0	119	notassociated	Rpleas_acq	Oppo	Lpleas	Bmasked	CS_B	2pleas	cond_US_unple_456_masked_CS1	condtest_masked_3	8	3	400	1	300	300	0	0	458	46	0	0	0	0	0	1	blank2r.bmp	0	1	+	0	7	C3r.bmp	492	1	blank2r.bmp	786	1	BXCP	786	1	blank2r.bmp	866	3	pest	866	1	!	1227	1	!	1351	0	0	0	0	0	0	0	0	0	0	0	0	0	0	0	0	0	0	0	0	0	0	0	0	0	0	0
062718	09:57:00	5.0.12.0	119	notassociated	Rpleas_acq	Oppo	Lpleas	Bmasked	CS_B	2pleas	cond_new_pleas_123_masked_CS1	condtest_masked_3	8	4	400	1	300	300	0	0	431	50	0	0	0	0	0	1	blank2r.bmp	0	1	+	0	1	B1r.bmp	492	1	blank2r.bmp	786	1	BXCP	786	1	blank2r.bmp	866	1	keks	866	1	!	1227	1	!	1324	0	0	0	0	0	0	0	0	0	0	0	0	0	0	0	0	0	0	0	0	0	0	0	0	0	0	0
062718	09:57:00	5.0.12.0	119	notassociated	Rpleas_acq	Oppo	Lpleas	Bmasked	CS_B	2pleas	cond_new_unple_123_masked_CS2	condtest_masked_3	8	5	400	0	300	300	0	0	527	50	0	1	0	0	0	1	blank2r.bmp	0	1	+	0	2	B2r.bmp	492	1	blank2r.bmp	786	1	GFVZ	786	1	blank2r.bmp	866	1	betteln	866	1	!	1227	1	!	-1	0	0	0	0	0	0	0	0	0	0	0	0	0	0	0	0	0	0	0	0	0	0	0	0	0	0	0
062718	09:57:00	5.0.12.0	119	notassociated	Rpleas_acq	Oppo	Lpleas	Bmasked	CS_B	2pleas	cond_new_pleas_123_masked_CS2	condtest_masked_3	8	6	400	0	300	300	0	0	484	50	0	0	0	0	0	1	blank2r.bmp	0	1	+	0	8	C4r.bmp	492	1	blank2r.bmp	786	1	GFVZ	786	1	blank2r.bmp	866	3	eiche	866	1	!	1227	1	!	-1	0	0	0	0	0	0	0	0	0	0	0	0	0	0	0	0	0	0	0	0	0	0	0	0	0	0	0
062718	09:57:00	5.0.12.0	119	notassociated	Rpleas_acq	Oppo	Lpleas	Bmasked	CS_B	2pleas	cond_US_pleas_456_masked_CS2	condtest_masked_3	8	7	400	1	300	300	0	0	383	50	0	0	0	0	0	1	blank2r.bmp	0	1	+	0	5	C1r.bmp	492	1	blank2r.bmp	786	1	GFVZ	786	1	blank2r.bmp	866	2	liebe	866	1	!	1227	1	!	1276	0	0	0	0	0	0	0	0	0	0	0	0	0	0	0	0	0	0	0	0	0	0	0	0	0	0	0
062718	09:57:00	5.0.12.0	119	notassociated	Rpleas_acq	Oppo	Lpleas	Bmasked	CS_B	2pleas	cond_US_pleas_456_masked_CS1	condtest_masked_3	8	8	400	1	300	300	0	0	342	46	0	1	0	0	0	1	blank2r.bmp	0	1	+	0	6	C2r.bmp	492	1	blank2r.bmp	786	1	BXCP	786	1	blank2r.bmp	866	1	sonne	866	1	!	1227	1	!	1236	0	0	0	0	0	0	0	0	0	0	0	0	0	0	0	0	0	0	0	0	0	0	0	0	0	0	0
062718	09:57:00	5.0.12.0	119	notassociated	Rpleas_acq	Oppo	Lpleas	Bmasked	CS_B	2pleas	cond_US_pleas_456_masked_CS2	condtest_masked_3	8	9	400	1	300	300	0	0	355	46	0	1	0	0	0	1	blank2r.bmp	0	1	+	0	3	B3r.bmp	492	1	blank2r.bmp	786	1	GFVZ	786	1	blank2r.bmp	866	2	liebe	866	1	!	1227	1	!	1249	0	0	0	0	0	0	0	0	0	0	0	0	0	0	0	0	0	0	0	0	0	0	0	0	0	0	0
062718	09:57:00	5.0.12.0	119	notassociated	Rpleas_acq	Oppo	Lpleas	Bmasked	CS_B	2pleas	cond_US_unple_456_masked_CS1	condtest_masked_3	8	10	400	1	300	300	0	0	419	50	0	1	0	0	0	1	blank2r.bmp	0	1	+	0	6	C2r.bmp	492	1	blank2r.bmp	786	1	BXCP	786	1	blank2r.bmp	866	2	toxisch	866	1	!	1227	1	!	1313	0	0	0	0	0	0	0	0	0	0	0	0	0	0	0	0	0	0	0	0	0	0	0	0	0	0	0
062718	09:57:00	5.0.12.0	119	notassociated	Rpleas_acq	Oppo	Lpleas	Bmasked	CS_B	2pleas	cond_US_unple_456_masked_CS2	condtest_masked_3	8	11	400	0	300	300	0	0	320	46	0	0	0	0	0	1	blank2r.bmp	0	1	+	0	4	B4r.bmp	492	1	blank2r.bmp	786	1	GFVZ	786	1	blank2r.bmp	866	1	pistole	866	1	!	-1	1	!	-1	0	0	0	0	0	0	0	0	0	0	0	0	0	0	0	0	0	0	0	0	0	0	0	0	0	0	0
062718	09:57:00	5.0.12.0	119	notassociated	Rpleas_acq	Oppo	Lpleas	Bmasked	CS_B	2pleas	cond_new_pleas_123_masked_CS2	condtest_masked_3	8	12	400	0	300	300	0	0	1303	46	0	1	0	0	0	1	blank2r.bmp	0	1	+	0	8	C4r.bmp	492	1	blank2r.bmp	786	1	GFVZ	786	1	blank2r.bmp	866	2	küken	866	1	!	1227	1	!	-1	0	0	0	0	0	0	0	0	0	0	0	0	0	0	0	0	0	0	0	0	0	0	0	0	0	0	0
062718	09:57:00	5.0.12.0	119	notassociated	Rpleas_acq	Oppo	Lpleas	Bmasked	CS_B	2pleas	cond_US_pleas_456_masked_CS1	condtest_masked_3	8	13	400	0	300	300	0	0	522	50	0	0	0	0	0	1	blank2r.bmp	0	1	+	0	2	B2r.bmp	492	1	blank2r.bmp	786	1	BXCP	786	1	blank2r.bmp	866	3	knospe	866	1	!	1227	1	!	-1	0	0	0	0	0	0	0	0	0	0	0	0	0	0	0	0	0	0	0	0	0	0	0	0	0	0	0
062718	09:57:00	5.0.12.0	119	notassociated	Rpleas_acq	Oppo	Lpleas	Bmasked	CS_B	2pleas	cond_US_pleas_456_masked_CS1	condtest_masked_3	8	14	400	0	300	300	0	0	573	46	0	1	0	0	0	1	blank2r.bmp	0	1	+	0	7	C3r.bmp	492	1	blank2r.bmp	786	1	BXCP	786	1	blank2r.bmp	866	1	sonne	866	1	!	1227	1	!	-1	0	0	0	0	0	0	0	0	0	0	0	0	0	0	0	0	0	0	0	0	0	0	0	0	0	0	0
062718	09:57:00	5.0.12.0	119	notassociated	Rpleas_acq	Oppo	Lpleas	Bmasked	CS_B	2pleas	cond_new_pleas_123_masked_CS1	condtest_masked_3	8	15	400	1	300	300	0	0	395	50	0	0	0	0	0	1	blank2r.bmp	0	1	+	0	1	B1r.bmp	492	1	blank2r.bmp	786	1	BXCP	786	1	blank2r.bmp	866	2	küken	866	1	!	1227	1	!	1288	0	0	0	0	0	0	0	0	0	0	0	0	0	0	0	0	0	0	0	0	0	0	0	0	0	0	0
062718	09:57:00	5.0.12.0	119	notassociated	Rpleas_acq	Oppo	Lpleas	Bmasked	CS_B	2pleas	cond_new_unple_123_masked_CS2	condtest_masked_3	8	16	400	0	300	300	0	0	514	46	0	0	0	0	0	1	blank2r.bmp	0	1	+	0	5	C1r.bmp	492	1	blank2r.bmp	786	1	GFVZ	786	1	blank2r.bmp	866	2	spott	866	1	!	1227	1	!	-1	0	0	0	0	0	0	0	0	0	0	0	0	0	0	0	0	0	0	0	0	0	0	0	0	0	0	0
062718	09:57:00	5.0.12.0	119	notassociated	Rpleas_acq	Oppo	Lpleas	Bmasked	CS_B	2pleas	cond_new_unple_123_masked_CS2	condtest_masked_3	8	17	400	0	300	300	0	0	581	50	0	1	0	0	0	1	blank2r.bmp	0	1	+	0	4	B4r.bmp	492	1	blank2r.bmp	786	1	GFVZ	786	1	blank2r.bmp	866	1	betteln	866	1	!	1227	1	!	-1	0	0	0	0	0	0	0	0	0	0	0	0	0	0	0	0	0	0	0	0	0	0	0	0	0	0	0
062718	09:57:00	5.0.12.0	119	notassociated	Rpleas_acq	Oppo	Lpleas	Bmasked	CS_B	2pleas	cond_new_unple_123_masked_CS2	condtest_masked_3	8	18	400	0	300	300	0	0	467	46	0	0	0	0	0	1	blank2r.bmp	0	1	+	0	2	B2r.bmp	492	1	blank2r.bmp	786	1	GFVZ	786	1	blank2r.bmp	866	3	sekte	866	1	!	1227	1	!	-1	0	0	0	0	0	0	0	0	0	0	0	0	0	0	0	0	0	0	0	0	0	0	0	0	0	0	0
062718	09:57:00	5.0.12.0	119	notassociated	Rpleas_acq	Oppo	Lpleas	Bmasked	CS_B	2pleas	cond_new_pleas_123_masked_CS2	condtest_masked_3	8	19	400	0	300	300	0	0	555	50	0	0	0	0	0	1	blank2r.bmp	0	1	+	0	5	C1r.bmp	492	1	blank2r.bmp	786	1	GFVZ	786	1	blank2r.bmp	866	1	keks	866	1	!	1227	1	!	-1	0	0	0	0	0	0	0	0	0	0	0	0	0	0	0	0	0	0	0	0	0	0	0	0	0	0	0
062718	09:57:00	5.0.12.0	119	notassociated	Rpleas_acq	Oppo	Lpleas	Bmasked	CS_B	2pleas	cond_new_pleas_123_masked_CS2	condtest_masked_3	8	20	400	0	300	300	0	0	486	46	0	1	0	0	0	1	blank2r.bmp	0	1	+	0	6	C2r.bmp	492	1	blank2r.bmp	786	1	GFVZ	786	1	blank2r.bmp	866	3	eiche	866	1	!	1227	1	!	-1	0	0	0	0	0	0	0	0	0	0	0	0	0	0	0	0	0	0	0	0	0	0	0	0	0	0	0
062718	09:57:00	5.0.12.0	119	notassociated	Rpleas_acq	Oppo	Lpleas	Bmasked	CS_B	2pleas	cond_US_unple_456_masked_CS2	condtest_masked_3	8	21	400	0	300	300	0	0	1008	50	0	1	0	0	0	1	blank2r.bmp	0	1	+	0	3	B3r.bmp	492	1	blank2r.bmp	786	1	GFVZ	786	1	blank2r.bmp	866	1	pistole	866	1	!	1227	1	!	-1	0	0	0	0	0	0	0	0	0	0	0	0	0	0	0	0	0	0	0	0	0	0	0	0	0	0	0
062718	09:57:00	5.0.12.0	119	notassociated	Rpleas_acq	Oppo	Lpleas	Bmasked	CS_B	2pleas	cond_US_pleas_456_masked_CS2	condtest_masked_3	8	22	400	0	300	300	0	0	599	46	0	1	0	0	0	1	blank2r.bmp	0	1	+	0	7	C3r.bmp	492	1	blank2r.bmp	786	1	GFVZ	786	1	blank2r.bmp	866	3	knospe	866	1	!	1227	1	!	-1	0	0	0	0	0	0	0	0	0	0	0	0	0	0	0	0	0	0	0	0	0	0	0	0	0	0	0
062718	09:57:00	5.0.12.0	119	notassociated	Rpleas_acq	Oppo	Lpleas	Bmasked	CS_B	2pleas	cond_new_unple_123_masked_CS1	condtest_masked_3	8	23	400	0	300	300	0	0	602	50	0	1	0	0	0	1	blank2r.bmp	0	1	+	0	8	C4r.bmp	492	1	blank2r.bmp	786	1	BXCP	786	1	blank2r.bmp	866	2	spott	866	1	!	1227	1	!	-1	0	0	0	0	0	0	0	0	0	0	0	0	0	0	0	0	0	0	0	0	0	0	0	0	0	0	0
062718	09:57:00	5.0.12.0	119	notassociated	Rpleas_acq	Oppo	Lpleas	Bmasked	CS_B	2pleas	cond_US_unple_456_masked_CS1	condtest_masked_3	8	24	400	0	300	300	0	0	1038	50	0	1	0	0	0	1	blank2r.bmp	0	1	+	0	1	B1r.bmp	492	1	blank2r.bmp	786	1	BXCP	786	1	blank2r.bmp	866	2	toxisch	866	1	!	1227	1	!	-1	0	0	0	0	0	0	0	0	0	0	0	0	0	0	0	0	0	0	0	0	0	0	0	0	0	0	0
062718	09:57:00	5.0.12.0	119	notassociated	Rpleas_acq	Oppo	Lpleas	Bmasked	CS_B	2pleas	cond_US_unple_456_masked_CS2	condtest_masked_3	8	25	400	0	300	300	0	0	522	50	0	1	0	0	0	1	blank2r.bmp	0	1	+	0	8	C4r.bmp	492	1	blank2r.bmp	786	1	GFVZ	786	1	blank2r.bmp	866	3	pest	866	1	!	1227	1	!	-1	0	0	0	0	0	0	0	0	0	0	0	0	0	0	0	0	0	0	0	0	0	0	0	0	0	0	0
062718	09:57:00	5.0.12.0	119	notassociated	Rpleas_acq	Oppo	Lpleas	Bmasked	CS_B	2pleas	cond_US_pleas_456_masked_CS2	condtest_masked_3	8	26	400	0	300	300	0	0	672	46	0	1	0	0	0	1	blank2r.bmp	0	1	+	0	3	B3r.bmp	492	1	blank2r.bmp	786	1	GFVZ	786	1	blank2r.bmp	866	2	liebe	866	1	!	1227	1	!	-1	0	0	0	0	0	0	0	0	0	0	0	0	0	0	0	0	0	0	0	0	0	0	0	0	0	0	0
062718	09:57:00	5.0.12.0	119	notassociated	Rpleas_acq	Oppo	Lpleas	Bmasked	CS_B	2pleas	cond_US_unple_456_masked_CS1	condtest_masked_3	8	27	400	0	300	300	0	0	544	50	0	1	0	0	0	1	blank2r.bmp	0	1	+	0	2	B2r.bmp	492	1	blank2r.bmp	786	1	BXCP	786	1	blank2r.bmp	866	3	pest	866	1	!	1227	1	!	-1	0	0	0	0	0	0	0	0	0	0	0	0	0	0	0	0	0	0	0	0	0	0	0	0	0	0	0
062718	09:57:00	5.0.12.0	119	notassociated	Rpleas_acq	Oppo	Lpleas	Bmasked	CS_B	2pleas	cond_new_unple_123_masked_CS2	condtest_masked_3	8	28	400	0	300	300	0	0	310	50	0	1	0	0	0	1	blank2r.bmp	0	1	+	0	4	B4r.bmp	492	1	blank2r.bmp	786	1	GFVZ	786	1	blank2r.bmp	866	3	sekte	866	1	!	-1	1	!	-1	0	0	0	0	0	0	0	0	0	0	0	0	0	0	0	0	0	0	0	0	0	0	0	0	0	0	0
062718	09:57:00	5.0.12.0	119	notassociated	Rpleas_acq	Oppo	Lpleas	Bmasked	CS_B	2pleas	cond_US_unple_456_masked_CS1	condtest_masked_3	8	29	400	0	300	300	0	0	187	50	0	1	0	0	0	1	blank2r.bmp	0	1	+	0	6	C2r.bmp	492	1	blank2r.bmp	786	1	BXCP	786	1	blank2r.bmp	866	1	pistole	866	1	!	-1	1	!	-1	0	0	0	0	0	0	0	0	0	0	0	0	0	0	0	0	0	0	0	0	0	0	0	0	0	0	0
062718	09:57:00	5.0.12.0	119	notassociated	Rpleas_acq	Oppo	Lpleas	Bmasked	CS_B	2pleas	cond_US_unple_456_masked_CS2	condtest_masked_3	8	30	400	1	300	300	0	0	410	50	0	1	0	0	0	1	blank2r.bmp	0	1	+	0	7	C3r.bmp	492	1	blank2r.bmp	786	1	GFVZ	786	1	blank2r.bmp	866	2	toxisch	866	1	!	1227	1	!	1303	0	0	0	0	0	0	0	0	0	0	0	0	0	0	0	0	0	0	0	0	0	0	0	0	0	0	0
062718	09:57:00	5.0.12.0	119	notassociated	Rpleas_acq	Oppo	Lpleas	Bmasked	CS_B	2pleas	cond_US_unple_456_masked_CS2	condtest_masked_3	8	31	400	1	300	300	0	0	420	50	0	1	0	0	0	1	blank2r.bmp	0	1	+	0	1	B1r.bmp	492	1	blank2r.bmp	786	1	GFVZ	786	1	blank2r.bmp	866	3	pest	866	1	!	1227	1	!	1314	0	0	0	0	0	0	0	0	0	0	0	0	0	0	0	0	0	0	0	0	0	0	0	0	0	0	0
062718	09:57:00	5.0.12.0	119	notassociated	Rpleas_acq	Oppo	Lpleas	Bmasked	CS_B	2pleas	cond_US_unple_456_masked_CS2	condtest_masked_3	8	32	400	1	300	300	0	0	388	50	0	1	0	0	0	1	blank2r.bmp	0	1	+	0	5	C1r.bmp	492	1	blank2r.bmp	786	1	GFVZ	786	1	blank2r.bmp	866	1	pistole	866	1	!	1227	1	!	1281	0	0	0	0	0	0	0	0	0	0	0	0	0	0	0	0	0	0	0	0	0	0	0	0	0	0	0
062718	09:57:00	5.0.12.0	119	notassociated	Rpleas_acq	Oppo	Lpleas	Bmasked	CS_B	2pleas	cond_new_pleas_123_masked_CS2	condtest_masked_3	8	33	400	1	300	300	0	0	363	50	0	0	0	0	0	1	blank2r.bmp	0	1	+	0	3	B3r.bmp	492	1	blank2r.bmp	786	1	GFVZ	786	1	blank2r.bmp	866	3	eiche	866	1	!	1227	1	!	1257	0	0	0	0	0	0	0	0	0	0	0	0	0	0	0	0	0	0	0	0	0	0	0	0	0	0	0
062718	09:57:00	5.0.12.0	119	notassociated	Rpleas_acq	Oppo	Lpleas	Bmasked	CS_B	2pleas	cond_US_pleas_456_masked_CS1	condtest_masked_3	8	34	400	0	300	300	0	0	302	46	0	1	0	0	0	1	blank2r.bmp	0	1	+	0	1	B1r.bmp	492	1	blank2r.bmp	786	1	BXCP	786	1	blank2r.bmp	866	1	sonne	866	1	!	-1	1	!	-1	0	0	0	0	0	0	0	0	0	0	0	0	0	0	0	0	0	0	0	0	0	0	0	0	0	0	0
062718	09:57:00	5.0.12.0	119	notassociated	Rpleas_acq	Oppo	Lpleas	Bmasked	CS_B	2pleas	cond_US_pleas_456_masked_CS1	condtest_masked_3	8	35	400	1	300	300	0	0	341	46	0	1	0	0	0	1	blank2r.bmp	0	1	+	0	7	C3r.bmp	492	1	blank2r.bmp	786	1	BXCP	786	1	blank2r.bmp	866	2	liebe	866	1	!	1227	1	!	1235	0	0	0	0	0	0	0	0	0	0	0	0	0	0	0	0	0	0	0	0	0	0	0	0	0	0	0
062718	09:57:00	5.0.12.0	119	notassociated	Rpleas_acq	Oppo	Lpleas	Bmasked	CS_B	2pleas	cond_new_unple_123_masked_CS1	condtest_masked_3	8	36	400	1	300	300	0	0	434	46	0	0	0	0	0	1	blank2r.bmp	0	1	+	0	4	B4r.bmp	492	1	blank2r.bmp	786	1	BXCP	786	1	blank2r.bmp	866	2	spott	866	1	!	1227	1	!	1327	0	0	0	0	0	0	0	0	0	0	0	0	0	0	0	0	0	0	0	0	0	0	0	0	0	0	0
062718	09:57:00	5.0.12.0	119	notassociated	Rpleas_acq	Oppo	Lpleas	Bmasked	CS_B	2pleas	cond_new_pleas_123_masked_CS2	condtest_masked_3	8	37	400	0	300	300	0	0	516	50	0	0	0	0	0	1	blank2r.bmp	0	1	+	0	8	C4r.bmp	492	1	blank2r.bmp	786	1	GFVZ	786	1	blank2r.bmp	866	2	küken	866	1	!	1227	1	!	-1	0	0	0	0	0	0	0	0	0	0	0	0	0	0	0	0	0	0	0	0	0	0	0	0	0	0	0
062718	09:57:00	5.0.12.0	119	notassociated	Rpleas_acq	Oppo	Lpleas	Bmasked	CS_B	2pleas	cond_new_unple_123_masked_CS1	condtest_masked_3	8	38	400	1	300	300	0	0	356	46	0	0	0	0	0	1	blank2r.bmp	0	1	+	0	5	C1r.bmp	492	1	blank2r.bmp	786	1	BXCP	786	1	blank2r.bmp	866	1	betteln	866	1	!	1227	1	!	1250	0	0	0	0	0	0	0	0	0	0	0	0	0	0	0	0	0	0	0	0	0	0	0	0	0	0	0
062718	09:57:00	5.0.12.0	119	notassociated	Rpleas_acq	Oppo	Lpleas	Bmasked	CS_B	2pleas	cond_new_pleas_123_masked_CS1	condtest_masked_3	8	39	400	1	300	300	0	0	359	46	0	1	0	0	0	1	blank2r.bmp	0	1	+	0	2	B2r.bmp	492	1	blank2r.bmp	786	1	BXCP	786	1	blank2r.bmp	866	1	keks	866	1	!	1227	1	!	1252	0	0	0	0	0	0	0	0	0	0	0	0	0	0	0	0	0	0	0	0	0	0	0	0	0	0	0
062718	09:57:00	5.0.12.0	119	notassociated	Rpleas_acq	Oppo	Lpleas	Bmasked	CS_B	2pleas	cond_US_pleas_456_masked_CS2	condtest_masked_3	8	40	400	0	300	300	0	0	537	46	0	1	0	0	0	1	blank2r.bmp	0	1	+	0	6	C2r.bmp	492	1	blank2r.bmp	786	1	GFVZ	786	1	blank2r.bmp	866	3	knospe	866	1	!	1227	1	!	-1	0	0	0	0	0	0	0	0	0	0	0	0	0	0	0	0	0	0	0	0	0	0	0	0	0	0	0
062718	09:57:00	5.0.12.0	119	notassociated	Rpleas_acq	Oppo	Lpleas	Bmasked	CS_B	2pleas	cond_new_unple_123_masked_CS1	condtest_masked_3	8	41	400	0	300	300	0	0	286	50	0	1	0	0	0	1	blank2r.bmp	0	1	+	0	3	B3r.bmp	492	1	blank2r.bmp	786	1	BXCP	786	1	blank2r.bmp	866	1	betteln	866	1	!	-1	1	!	-1	0	0	0	0	0	0	0	0	0	0	0	0	0	0	0	0	0	0	0	0	0	0	0	0	0	0	0
062718	09:57:00	5.0.12.0	119	notassociated	Rpleas_acq	Oppo	Lpleas	Bmasked	CS_B	2pleas	cond_new_pleas_123_masked_CS1	condtest_masked_3	8	42	400	0	300	300	0	0	480	50	0	0	0	0	0	1	blank2r.bmp	0	1	+	0	2	B2r.bmp	492	1	blank2r.bmp	786	1	BXCP	786	1	blank2r.bmp	866	3	eiche	866	1	!	1227	1	!	-1	0	0	0	0	0	0	0	0	0	0	0	0	0	0	0	0	0	0	0	0	0	0	0	0	0	0	0
062718	09:57:00	5.0.12.0	119	notassociated	Rpleas_acq	Oppo	Lpleas	Bmasked	CS_B	2pleas	cond_new_unple_123_masked_CS2	condtest_masked_3	8	43	400	0	300	300	0	0	1451	50	0	1	0	0	0	1	blank2r.bmp	0	1	+	0	1	B1r.bmp	492	1	blank2r.bmp	786	1	GFVZ	786	1	blank2r.bmp	866	3	sekte	866	1	!	1227	1	!	-1	0	0	0	0	0	0	0	0	0	0	0	0	0	0	0	0	0	0	0	0	0	0	0	0	0	0	0
062718	09:57:00	5.0.12.0	119	notassociated	Rpleas_acq	Oppo	Lpleas	Bmasked	CS_B	2pleas	cond_US_pleas_456_masked_CS2	condtest_masked_3	8	44	400	1	300	300	0	0	348	46	0	1	0	0	0	1	blank2r.bmp	0	1	+	0	8	C4r.bmp	492	1	blank2r.bmp	786	1	GFVZ	786	1	blank2r.bmp	866	1	sonne	866	1	!	1227	1	!	1241	0	0	0	0	0	0	0	0	0	0	0	0	0	0	0	0	0	0	0	0	0	0	0	0	0	0	0
062718	09:57:00	5.0.12.0	119	notassociated	Rpleas_acq	Oppo	Lpleas	Bmasked	CS_B	2pleas	cond_new_pleas_123_masked_CS1	condtest_masked_3	8	45	400	0	300	300	0	0	491	46	0	1	0	0	0	1	blank2r.bmp	0	1	+	0	7	C3r.bmp	492	1	blank2r.bmp	786	1	BXCP	786	1	blank2r.bmp	866	2	küken	866	1	!	1227	1	!	-1	0	0	0	0	0	0	0	0	0	0	0	0	0	0	0	0	0	0	0	0	0	0	0	0	0	0	0
062718	09:57:00	5.0.12.0	119	notassociated	Rpleas_acq	Oppo	Lpleas	Bmasked	CS_B	2pleas	cond_new_pleas_123_masked_CS1	condtest_masked_3	8	46	400	0	300	300	0	0	312	46	0	1	0	0	0	1	blank2r.bmp	0	1	+	0	4	B4r.bmp	492	1	blank2r.bmp	786	1	BXCP	786	1	blank2r.bmp	866	1	keks	866	1	!	-1	1	!	-1	0	0	0	0	0	0	0	0	0	0	0	0	0	0	0	0	0	0	0	0	0	0	0	0	0	0	0
062718	09:57:00	5.0.12.0	119	notassociated	Rpleas_acq	Oppo	Lpleas	Bmasked	CS_B	2pleas	cond_US_unple_456_masked_CS1	condtest_masked_3	8	47	400	0	300	300	0	0	560	50	0	1	0	0	0	1	blank2r.bmp	0	1	+	0	5	C1r.bmp	492	1	blank2r.bmp	786	1	BXCP	786	1	blank2r.bmp	866	2	toxisch	866	1	!	1227	1	!	-1	0	0	0	0	0	0	0	0	0	0	0	0	0	0	0	0	0	0	0	0	0	0	0	0	0	0	0
062718	09:57:00	5.0.12.0	119	notassociated	Rpleas_acq	Oppo	Lpleas	Bmasked	CS_B	2pleas	cond_new_unple_123_masked_CS1	condtest_masked_3	8	48	400	1	300	300	0	0	347	46	0	0	0	0	0	1	blank2r.bmp	0	1	+	0	6	C2r.bmp	492	1	blank2r.bmp	786	1	BXCP	786	1	blank2r.bmp	866	2	spott	866	1	!	1227	1	!	1240	0	0	0	0	0	0	0	0	0	0	0	0	0	0	0	0	0	0	0	0	0	0	0	0	0	0	0
062718	09:57:00	5.0.12.0	119	notassociated	Rpleas_acq	Oppo	Lpleas	Bmasked	CS_B	2pleas	cond_US_pleas_123_masked_CS1	condtest_masked_4	9	1	400	1	300	300	0	0	428	46	0	1	0	0	0	1	blank2r.bmp	0	1	+	0	4	B4r.bmp	492	1	blank2r.bmp	786	1	BXCP	786	1	blank2r.bmp	866	1	leben	866	1	!	1227	1	!	1321	0	0	0	0	0	0	0	0	0	0	0	0	0	0	0	0	0	0	0	0	0	0	0	0	0	0	0
062718	09:57:00	5.0.12.0	119	notassociated	Rpleas_acq	Oppo	Lpleas	Bmasked	CS_B	2pleas	cond_new_unple_456_masked_CS1	condtest_masked_4	9	2	400	1	300	300	0	0	412	50	0	1	0	0	0	1	blank2r.bmp	0	1	+	0	2	B2r.bmp	492	1	blank2r.bmp	786	1	BXCP	786	1	blank2r.bmp	866	2	eitel	866	1	!	1227	1	!	1305	0	0	0	0	0	0	0	0	0	0	0	0	0	0	0	0	0	0	0	0	0	0	0	0	0	0	0
062718	09:57:00	5.0.12.0	119	notassociated	Rpleas_acq	Oppo	Lpleas	Bmasked	CS_B	2pleas	cond_US_pleas_123_masked_CS1	condtest_masked_4	9	3	400	0	300	300	0	0	470	46	0	1	0	0	0	1	blank2r.bmp	0	1	+	0	3	B3r.bmp	492	1	blank2r.bmp	786	1	BXCP	786	1	blank2r.bmp	866	2	bett	866	1	!	1227	1	!	-1	0	0	0	0	0	0	0	0	0	0	0	0	0	0	0	0	0	0	0	0	0	0	0	0	0	0	0
062718	09:57:00	5.0.12.0	119	notassociated	Rpleas_acq	Oppo	Lpleas	Bmasked	CS_B	2pleas	cond_new_unple_456_masked_CS1	condtest_masked_4	9	4	400	1	300	300	0	0	334	50	0	1	0	0	0	1	blank2r.bmp	0	1	+	0	8	C4r.bmp	492	1	blank2r.bmp	786	1	BXCP	786	1	blank2r.bmp	866	1	stinken	866	1	!	1227	1	!	1228	0	0	0	0	0	0	0	0	0	0	0	0	0	0	0	0	0	0	0	0	0	0	0	0	0	0	0
062718	09:57:00	5.0.12.0	119	notassociated	Rpleas_acq	Oppo	Lpleas	Bmasked	CS_B	2pleas	cond_US_pleas_123_masked_CS2	condtest_masked_4	9	5	400	1	300	300	0	0	411	46	0	1	0	0	0	1	blank2r.bmp	0	1	+	0	6	C2r.bmp	492	1	blank2r.bmp	786	1	GFVZ	786	1	blank2r.bmp	866	3	lippe	866	1	!	1227	1	!	1305	0	0	0	0	0	0	0	0	0	0	0	0	0	0	0	0	0	0	0	0	0	0	0	0	0	0	0
062718	09:57:00	5.0.12.0	119	notassociated	Rpleas_acq	Oppo	Lpleas	Bmasked	CS_B	2pleas	cond_US_unple_123_masked_CS1	condtest_masked_4	9	6	400	1	300	300	0	0	440	50	0	1	0	0	0	1	blank2r.bmp	0	1	+	0	5	C1r.bmp	492	1	blank2r.bmp	786	1	BXCP	786	1	blank2r.bmp	866	3	pleite	866	1	!	1227	1	!	1334	0	0	0	0	0	0	0	0	0	0	0	0	0	0	0	0	0	0	0	0	0	0	0	0	0	0	0
062718	09:57:00	5.0.12.0	119	notassociated	Rpleas_acq	Oppo	Lpleas	Bmasked	CS_B	2pleas	cond_US_pleas_123_masked_CS2	condtest_masked_4	9	7	400	0	300	300	0	0	328	46	0	1	0	0	0	1	blank2r.bmp	0	1	+	0	7	C3r.bmp	492	1	blank2r.bmp	786	1	GFVZ	786	1	blank2r.bmp	866	1	leben	866	1	!	-1	1	!	-1	0	0	0	0	0	0	0	0	0	0	0	0	0	0	0	0	0	0	0	0	0	0	0	0	0	0	0
062718	09:57:00	5.0.12.0	119	notassociated	Rpleas_acq	Oppo	Lpleas	Bmasked	CS_B	2pleas	cond_new_unple_456_masked_CS2	condtest_masked_4	9	8	400	0	300	300	0	0	308	50	0	1	0	0	0	1	blank2r.bmp	0	1	+	0	1	B1r.bmp	492	1	blank2r.bmp	786	1	GFVZ	786	1	blank2r.bmp	866	3	schock	866	1	!	-1	1	!	-1	0	0	0	0	0	0	0	0	0	0	0	0	0	0	0	0	0	0	0	0	0	0	0	0	0	0	0
062718	09:57:00	5.0.12.0	119	notassociated	Rpleas_acq	Oppo	Lpleas	Bmasked	CS_B	2pleas	cond_US_pleas_123_masked_CS1	condtest_masked_4	9	9	400	0	300	300	0	0	332	46	0	1	0	0	0	1	blank2r.bmp	0	1	+	0	6	C2r.bmp	492	1	blank2r.bmp	786	1	BXCP	786	1	blank2r.bmp	866	3	lippe	866	1	!	-1	1	!	-1	0	0	0	0	0	0	0	0	0	0	0	0	0	0	0	0	0	0	0	0	0	0	0	0	0	0	0
062718	09:57:00	5.0.12.0	119	notassociated	Rpleas_acq	Oppo	Lpleas	Bmasked	CS_B	2pleas	cond_US_unple_123_masked_CS2	condtest_masked_4	9	10	400	0	300	300	0	0	694	50	0	1	0	0	0	1	blank2r.bmp	0	1	+	0	5	C1r.bmp	492	1	blank2r.bmp	786	1	GFVZ	786	1	blank2r.bmp	866	1	übel	866	1	!	1227	1	!	-1	0	0	0	0	0	0	0	0	0	0	0	0	0	0	0	0	0	0	0	0	0	0	0	0	0	0	0
062718	09:57:00	5.0.12.0	119	notassociated	Rpleas_acq	Oppo	Lpleas	Bmasked	CS_B	2pleas	cond_new_unple_456_masked_CS1	condtest_masked_4	9	11	400	1	300	300	0	0	380	50	0	1	0	0	0	1	blank2r.bmp	0	1	+	0	3	B3r.bmp	492	1	blank2r.bmp	786	1	BXCP	786	1	blank2r.bmp	866	1	stinken	866	1	!	1227	1	!	1274	0	0	0	0	0	0	0	0	0	0	0	0	0	0	0	0	0	0	0	0	0	0	0	0	0	0	0
062718	09:57:00	5.0.12.0	119	notassociated	Rpleas_acq	Oppo	Lpleas	Bmasked	CS_B	2pleas	cond_US_pleas_123_masked_CS2	condtest_masked_4	9	12	400	0	300	300	0	0	516	46	0	1	0	0	0	1	blank2r.bmp	0	1	+	0	2	B2r.bmp	492	1	blank2r.bmp	786	1	GFVZ	786	1	blank2r.bmp	866	2	bett	866	1	!	1227	1	!	-1	0	0	0	0	0	0	0	0	0	0	0	0	0	0	0	0	0	0	0	0	0	0	0	0	0	0	0
062718	09:57:00	5.0.12.0	119	notassociated	Rpleas_acq	Oppo	Lpleas	Bmasked	CS_B	2pleas	cond_new_pleas_456_masked_CS1	condtest_masked_4	9	13	400	0	300	300	0	0	500	50	0	0	0	0	0	1	blank2r.bmp	0	1	+	0	8	C4r.bmp	492	1	blank2r.bmp	786	1	BXCP	786	1	blank2r.bmp	866	2	pointe	866	1	!	1227	1	!	-1	0	0	0	0	0	0	0	0	0	0	0	0	0	0	0	0	0	0	0	0	0	0	0	0	0	0	0
062718	09:57:00	5.0.12.0	119	notassociated	Rpleas_acq	Oppo	Lpleas	Bmasked	CS_B	2pleas	cond_US_unple_123_masked_CS2	condtest_masked_4	9	14	400	1	300	300	0	0	449	46	0	0	0	0	0	1	blank2r.bmp	0	1	+	0	1	B1r.bmp	492	1	blank2r.bmp	786	1	GFVZ	786	1	blank2r.bmp	866	2	leiche	866	1	!	1227	1	!	1343	0	0	0	0	0	0	0	0	0	0	0	0	0	0	0	0	0	0	0	0	0	0	0	0	0	0	0
062718	09:57:00	5.0.12.0	119	notassociated	Rpleas_acq	Oppo	Lpleas	Bmasked	CS_B	2pleas	cond_US_pleas_123_masked_CS2	condtest_masked_4	9	15	400	0	300	300	0	0	484	46	0	1	0	0	0	1	blank2r.bmp	0	1	+	0	7	C3r.bmp	492	1	blank2r.bmp	786	1	GFVZ	786	1	blank2r.bmp	866	2	bett	866	1	!	1227	1	!	-1	0	0	0	0	0	0	0	0	0	0	0	0	0	0	0	0	0	0	0	0	0	0	0	0	0	0	0
062718	09:57:00	5.0.12.0	119	notassociated	Rpleas_acq	Oppo	Lpleas	Bmasked	CS_B	2pleas	cond_US_unple_123_masked_CS1	condtest_masked_4	9	16	400	0	300	300	0	0	286	50	0	1	0	0	0	1	blank2r.bmp	0	1	+	0	4	B4r.bmp	492	1	blank2r.bmp	786	1	BXCP	786	1	blank2r.bmp	866	2	leiche	866	1	!	-1	1	!	-1	0	0	0	0	0	0	0	0	0	0	0	0	0	0	0	0	0	0	0	0	0	0	0	0	0	0	0
062718	09:57:00	5.0.12.0	119	notassociated	Rpleas_acq	Oppo	Lpleas	Bmasked	CS_B	2pleas	cond_US_unple_123_masked_CS1	condtest_masked_4	9	17	400	0	300	300	0	0	704	50	0	1	0	0	0	1	blank2r.bmp	0	1	+	0	2	B2r.bmp	492	1	blank2r.bmp	786	1	BXCP	786	1	blank2r.bmp	866	3	pleite	866	1	!	1227	1	!	-1	0	0	0	0	0	0	0	0	0	0	0	0	0	0	0	0	0	0	0	0	0	0	0	0	0	0	0
062718	09:57:00	5.0.12.0	119	notassociated	Rpleas_acq	Oppo	Lpleas	Bmasked	CS_B	2pleas	cond_US_unple_123_masked_CS1	condtest_masked_4	9	18	400	1	300	300	0	0	342	50	0	1	0	0	0	1	blank2r.bmp	0	1	+	0	5	C1r.bmp	492	1	blank2r.bmp	786	1	BXCP	786	1	blank2r.bmp	866	1	übel	866	1	!	1227	1	!	1236	0	0	0	0	0	0	0	0	0	0	0	0	0	0	0	0	0	0	0	0	0	0	0	0	0	0	0
062718	09:57:00	5.0.12.0	119	notassociated	Rpleas_acq	Oppo	Lpleas	Bmasked	CS_B	2pleas	cond_US_unple_123_masked_CS1	condtest_masked_4	9	19	400	0	300	300	0	0	294	46	0	0	0	0	0	1	blank2r.bmp	0	1	+	0	1	B1r.bmp	492	1	blank2r.bmp	786	1	BXCP	786	1	blank2r.bmp	866	3	pleite	866	1	!	-1	1	!	-1	0	0	0	0	0	0	0	0	0	0	0	0	0	0	0	0	0	0	0	0	0	0	0	0	0	0	0
062718	09:57:00	5.0.12.0	119	notassociated	Rpleas_acq	Oppo	Lpleas	Bmasked	CS_B	2pleas	cond_new_pleas_456_masked_CS1	condtest_masked_4	9	20	400	0	300	300	0	0	522	46	0	1	0	0	0	1	blank2r.bmp	0	1	+	0	7	C3r.bmp	492	1	blank2r.bmp	786	1	BXCP	786	1	blank2r.bmp	866	1	nähe	866	1	!	1227	1	!	-1	0	0	0	0	0	0	0	0	0	0	0	0	0	0	0	0	0	0	0	0	0	0	0	0	0	0	0
062718	09:57:00	5.0.12.0	119	notassociated	Rpleas_acq	Oppo	Lpleas	Bmasked	CS_B	2pleas	cond_US_pleas_123_masked_CS1	condtest_masked_4	9	21	400	0	300	300	0	0	333	50	0	0	0	0	0	1	blank2r.bmp	0	1	+	0	6	C2r.bmp	492	1	blank2r.bmp	786	1	BXCP	786	1	blank2r.bmp	866	3	lippe	866	1	!	-1	1	!	-1	0	0	0	0	0	0	0	0	0	0	0	0	0	0	0	0	0	0	0	0	0	0	0	0	0	0	0
062718	09:57:00	5.0.12.0	119	notassociated	Rpleas_acq	Oppo	Lpleas	Bmasked	CS_B	2pleas	cond_new_unple_456_masked_CS2	condtest_masked_4	9	22	400	0	300	300	0	0	490	50	0	1	0	0	0	1	blank2r.bmp	0	1	+	0	3	B3r.bmp	492	1	blank2r.bmp	786	1	GFVZ	786	1	blank2r.bmp	866	3	schock	866	1	!	1227	1	!	-1	0	0	0	0	0	0	0	0	0	0	0	0	0	0	0	0	0	0	0	0	0	0	0	0	0	0	0
062718	09:57:00	5.0.12.0	119	notassociated	Rpleas_acq	Oppo	Lpleas	Bmasked	CS_B	2pleas	cond_new_pleas_456_masked_CS1	condtest_masked_4	9	23	400	0	300	300	0	0	312	46	0	1	0	0	0	1	blank2r.bmp	0	1	+	0	4	B4r.bmp	492	1	blank2r.bmp	786	1	BXCP	786	1	blank2r.bmp	866	3	bonbon	866	1	!	-1	1	!	-1	0	0	0	0	0	0	0	0	0	0	0	0	0	0	0	0	0	0	0	0	0	0	0	0	0	0	0
062718	09:57:00	5.0.12.0	119	notassociated	Rpleas_acq	Oppo	Lpleas	Bmasked	CS_B	2pleas	cond_new_pleas_456_masked_CS2	condtest_masked_4	9	24	400	0	300	300	0	0	543	46	0	1	0	0	0	1	blank2r.bmp	0	1	+	0	8	C4r.bmp	492	1	blank2r.bmp	786	1	GFVZ	786	1	blank2r.bmp	866	2	pointe	866	1	!	1227	1	!	-1	0	0	0	0	0	0	0	0	0	0	0	0	0	0	0	0	0	0	0	0	0	0	0	0	0	0	0
062718	09:57:00	5.0.12.0	119	notassociated	Rpleas_acq	Oppo	Lpleas	Bmasked	CS_B	2pleas	cond_new_unple_456_masked_CS2	condtest_masked_4	9	25	400	0	300	300	0	0	327	50	0	1	0	0	0	1	blank2r.bmp	0	1	+	0	5	C1r.bmp	492	1	blank2r.bmp	786	1	GFVZ	786	1	blank2r.bmp	866	2	eitel	866	1	!	-1	1	!	-1	0	0	0	0	0	0	0	0	0	0	0	0	0	0	0	0	0	0	0	0	0	0	0	0	0	0	0
062718	09:57:00	5.0.12.0	119	notassociated	Rpleas_acq	Oppo	Lpleas	Bmasked	CS_B	2pleas	cond_new_unple_456_masked_CS1	condtest_masked_4	9	26	400	1	300	300	0	0	401	50	0	1	0	0	0	1	blank2r.bmp	0	1	+	0	7	C3r.bmp	492	1	blank2r.bmp	786	1	BXCP	786	1	blank2r.bmp	866	3	schock	866	1	!	1227	1	!	1295	0	0	0	0	0	0	0	0	0	0	0	0	0	0	0	0	0	0	0	0	0	0	0	0	0	0	0
062718	09:57:00	5.0.12.0	119	notassociated	Rpleas_acq	Oppo	Lpleas	Bmasked	CS_B	2pleas	cond_new_pleas_456_masked_CS1	condtest_masked_4	9	27	400	1	300	300	0	0	345	46	0	1	0	0	0	1	blank2r.bmp	0	1	+	0	8	C4r.bmp	492	1	blank2r.bmp	786	1	BXCP	786	1	blank2r.bmp	866	1	nähe	866	1	!	1227	1	!	1238	0	0	0	0	0	0	0	0	0	0	0	0	0	0	0	0	0	0	0	0	0	0	0	0	0	0	0
062718	09:57:00	5.0.12.0	119	notassociated	Rpleas_acq	Oppo	Lpleas	Bmasked	CS_B	2pleas	cond_US_pleas_123_masked_CS1	condtest_masked_4	9	28	400	0	300	300	0	0	313	46	0	1	0	0	0	1	blank2r.bmp	0	1	+	0	6	C2r.bmp	492	1	blank2r.bmp	786	1	BXCP	786	1	blank2r.bmp	866	1	leben	866	1	!	-1	1	!	-1	0	0	0	0	0	0	0	0	0	0	0	0	0	0	0	0	0	0	0	0	0	0	0	0	0	0	0
062718	09:57:00	5.0.12.0	119	notassociated	Rpleas_acq	Oppo	Lpleas	Bmasked	CS_B	2pleas	cond_US_unple_123_masked_CS2	condtest_masked_4	9	29	400	0	300	300	0	0	304	46	0	0	0	0	0	1	blank2r.bmp	0	1	+	0	1	B1r.bmp	492	1	blank2r.bmp	786	1	GFVZ	786	1	blank2r.bmp	866	1	übel	866	1	!	-1	1	!	-1	0	0	0	0	0	0	0	0	0	0	0	0	0	0	0	0	0	0	0	0	0	0	0	0	0	0	0
062718	09:57:00	5.0.12.0	119	notassociated	Rpleas_acq	Oppo	Lpleas	Bmasked	CS_B	2pleas	cond_US_unple_123_masked_CS2	condtest_masked_4	9	30	400	1	300	300	0	0	421	46	0	0	0	0	0	1	blank2r.bmp	0	1	+	0	4	B4r.bmp	492	1	blank2r.bmp	786	1	GFVZ	786	1	blank2r.bmp	866	2	leiche	866	1	!	1227	1	!	1314	0	0	0	0	0	0	0	0	0	0	0	0	0	0	0	0	0	0	0	0	0	0	0	0	0	0	0
062718	09:57:00	5.0.12.0	119	notassociated	Rpleas_acq	Oppo	Lpleas	Bmasked	CS_B	2pleas	cond_US_unple_123_masked_CS1	condtest_masked_4	9	31	400	1	300	300	0	0	337	50	0	1	0	0	0	1	blank2r.bmp	0	1	+	0	3	B3r.bmp	492	1	blank2r.bmp	786	1	BXCP	786	1	blank2r.bmp	866	1	übel	866	1	!	1227	1	!	1231	0	0	0	0	0	0	0	0	0	0	0	0	0	0	0	0	0	0	0	0	0	0	0	0	0	0	0
062718	09:57:00	5.0.12.0	119	notassociated	Rpleas_acq	Oppo	Lpleas	Bmasked	CS_B	2pleas	cond_new_pleas_456_masked_CS2	condtest_masked_4	9	32	400	1	300	300	0	0	462	46	0	1	0	0	0	1	blank2r.bmp	0	1	+	0	2	B2r.bmp	492	1	blank2r.bmp	786	1	GFVZ	786	1	blank2r.bmp	866	3	bonbon	866	1	!	1227	1	!	1356	0	0	0	0	0	0	0	0	0	0	0	0	0	0	0	0	0	0	0	0	0	0	0	0	0	0	0
062718	09:57:00	5.0.12.0	119	notassociated	Rpleas_acq	Oppo	Lpleas	Bmasked	CS_B	2pleas	cond_new_pleas_456_masked_CS2	condtest_masked_4	9	33	400	1	300	300	0	0	358	50	0	0	0	0	0	1	blank2r.bmp	0	1	+	0	1	B1r.bmp	492	1	blank2r.bmp	786	1	GFVZ	786	1	blank2r.bmp	866	3	bonbon	866	1	!	1227	1	!	1252	0	0	0	0	0	0	0	0	0	0	0	0	0	0	0	0	0	0	0	0	0	0	0	0	0	0	0
062718	09:57:00	5.0.12.0	119	notassociated	Rpleas_acq	Oppo	Lpleas	Bmasked	CS_B	2pleas	cond_US_unple_123_masked_CS2	condtest_masked_4	9	34	400	1	300	300	0	0	454	50	0	1	0	0	0	1	blank2r.bmp	0	1	+	0	8	C4r.bmp	492	1	blank2r.bmp	786	1	GFVZ	786	1	blank2r.bmp	866	2	leiche	866	1	!	1227	1	!	1347	0	0	0	0	0	0	0	0	0	0	0	0	0	0	0	0	0	0	0	0	0	0	0	0	0	0	0
062718	09:57:00	5.0.12.0	119	notassociated	Rpleas_acq	Oppo	Lpleas	Bmasked	CS_B	2pleas	cond_US_pleas_123_masked_CS1	condtest_masked_4	9	35	400	0	300	300	0	0	331	46	0	1	0	0	0	1	blank2r.bmp	0	1	+	0	6	C2r.bmp	492	1	blank2r.bmp	786	1	BXCP	786	1	blank2r.bmp	866	2	bett	866	1	!	-1	1	!	-1	0	0	0	0	0	0	0	0	0	0	0	0	0	0	0	0	0	0	0	0	0	0	0	0	0	0	0
062718	09:57:00	5.0.12.0	119	notassociated	Rpleas_acq	Oppo	Lpleas	Bmasked	CS_B	2pleas	cond_new_unple_456_masked_CS1	condtest_masked_4	9	36	400	0	300	300	0	0	325	46	0	0	0	0	0	1	blank2r.bmp	0	1	+	0	5	C1r.bmp	492	1	blank2r.bmp	786	1	BXCP	786	1	blank2r.bmp	866	2	eitel	866	1	!	-1	1	!	-1	0	0	0	0	0	0	0	0	0	0	0	0	0	0	0	0	0	0	0	0	0	0	0	0	0	0	0
062718	09:57:00	5.0.12.0	119	notassociated	Rpleas_acq	Oppo	Lpleas	Bmasked	CS_B	2pleas	cond_new_unple_456_masked_CS2	condtest_masked_4	9	37	400	0	300	300	0	0	607	50	0	1	0	0	0	1	blank2r.bmp	0	1	+	0	7	C3r.bmp	492	1	blank2r.bmp	786	1	GFVZ	786	1	blank2r.bmp	866	1	stinken	866	1	!	1227	1	!	-1	0	0	0	0	0	0	0	0	0	0	0	0	0	0	0	0	0	0	0	0	0	0	0	0	0	0	0
062718	09:57:00	5.0.12.0	119	notassociated	Rpleas_acq	Oppo	Lpleas	Bmasked	CS_B	2pleas	cond_new_pleas_456_masked_CS2	condtest_masked_4	9	38	400	0	300	300	0	0	562	46	0	1	0	0	0	1	blank2r.bmp	0	1	+	0	3	B3r.bmp	492	1	blank2r.bmp	786	1	GFVZ	786	1	blank2r.bmp	866	2	pointe	866	1	!	1227	1	!	-1	0	0	0	0	0	0	0	0	0	0	0	0	0	0	0	0	0	0	0	0	0	0	0	0	0	0	0
062718	09:57:00	5.0.12.0	119	notassociated	Rpleas_acq	Oppo	Lpleas	Bmasked	CS_B	2pleas	cond_new_pleas_456_masked_CS1	condtest_masked_4	9	39	400	0	300	300	0	0	301	50	0	0	0	0	0	1	blank2r.bmp	0	1	+	0	2	B2r.bmp	492	1	blank2r.bmp	786	1	BXCP	786	1	blank2r.bmp	866	1	nähe	866	1	!	-1	1	!	-1	0	0	0	0	0	0	0	0	0	0	0	0	0	0	0	0	0	0	0	0	0	0	0	0	0	0	0
062718	09:57:00	5.0.12.0	119	notassociated	Rpleas_acq	Oppo	Lpleas	Bmasked	CS_B	2pleas	cond_new_pleas_456_masked_CS2	condtest_masked_4	9	40	400	0	300	300	0	0	274	46	0	1	0	0	0	1	blank2r.bmp	0	1	+	0	4	B4r.bmp	492	1	blank2r.bmp	786	1	GFVZ	786	1	blank2r.bmp	866	2	pointe	866	1	!	-1	1	!	-1	0	0	0	0	0	0	0	0	0	0	0	0	0	0	0	0	0	0	0	0	0	0	0	0	0	0	0
062718	09:57:00	5.0.12.0	119	notassociated	Rpleas_acq	Oppo	Lpleas	Bmasked	CS_B	2pleas	cond_US_unple_123_masked_CS2	condtest_masked_4	9	41	400	1	300	300	0	0	353	46	0	0	0	0	0	1	blank2r.bmp	0	1	+	0	4	B4r.bmp	492	1	blank2r.bmp	786	1	GFVZ	786	1	blank2r.bmp	866	3	pleite	866	1	!	1227	1	!	1247	0	0	0	0	0	0	0	0	0	0	0	0	0	0	0	0	0	0	0	0	0	0	0	0	0	0	0
062718	09:57:00	5.0.12.0	119	notassociated	Rpleas_acq	Oppo	Lpleas	Bmasked	CS_B	2pleas	cond_US_pleas_123_masked_CS2	condtest_masked_4	9	42	400	1	300	300	0	0	400	46	0	1	0	0	0	1	blank2r.bmp	0	1	+	0	7	C3r.bmp	492	1	blank2r.bmp	786	1	GFVZ	786	1	blank2r.bmp	866	3	lippe	866	1	!	1227	1	!	1294	0	0	0	0	0	0	0	0	0	0	0	0	0	0	0	0	0	0	0	0	0	0	0	0	0	0	0
062718	09:57:00	5.0.12.0	119	notassociated	Rpleas_acq	Oppo	Lpleas	Bmasked	CS_B	2pleas	cond_new_pleas_456_masked_CS2	condtest_masked_4	9	43	400	0	300	300	0	0	504	46	0	1	0	0	0	1	blank2r.bmp	0	1	+	0	3	B3r.bmp	492	1	blank2r.bmp	786	1	GFVZ	786	1	blank2r.bmp	866	1	nähe	866	1	!	1227	1	!	-1	0	0	0	0	0	0	0	0	0	0	0	0	0	0	0	0	0	0	0	0	0	0	0	0	0	0	0
062718	09:57:00	5.0.12.0	119	notassociated	Rpleas_acq	Oppo	Lpleas	Bmasked	CS_B	2pleas	cond_new_unple_456_masked_CS2	condtest_masked_4	9	44	400	0	300	300	0	0	280	50	0	1	0	0	0	1	blank2r.bmp	0	1	+	0	8	C4r.bmp	492	1	blank2r.bmp	786	1	GFVZ	786	1	blank2r.bmp	866	3	schock	866	1	!	-1	1	!	-1	0	0	0	0	0	0	0	0	0	0	0	0	0	0	0	0	0	0	0	0	0	0	0	0	0	0	0
062718	09:57:00	5.0.12.0	119	notassociated	Rpleas_acq	Oppo	Lpleas	Bmasked	CS_B	2pleas	cond_new_pleas_456_masked_CS1	condtest_masked_4	9	45	400	0	300	300	0	0	279	50	0	0	0	0	0	1	blank2r.bmp	0	1	+	0	2	B2r.bmp	492	1	blank2r.bmp	786	1	BXCP	786	1	blank2r.bmp	866	3	bonbon	866	1	!	-1	1	!	-1	0	0	0	0	0	0	0	0	0	0	0	0	0	0	0	0	0	0	0	0	0	0	0	0	0	0	0
062718	09:57:00	5.0.12.0	119	notassociated	Rpleas_acq	Oppo	Lpleas	Bmasked	CS_B	2pleas	cond_new_unple_456_masked_CS1	condtest_masked_4	9	46	400	1	300	300	0	0	407	46	0	0	0	0	0	1	blank2r.bmp	0	1	+	0	5	C1r.bmp	492	1	blank2r.bmp	786	1	BXCP	786	1	blank2r.bmp	866	1	stinken	866	1	!	1227	1	!	1300	0	0	0	0	0	0	0	0	0	0	0	0	0	0	0	0	0	0	0	0	0	0	0	0	0	0	0
062718	09:57:00	5.0.12.0	119	notassociated	Rpleas_acq	Oppo	Lpleas	Bmasked	CS_B	2pleas	cond_US_pleas_123_masked_CS2	condtest_masked_4	9	47	400	0	300	300	0	0	321	50	0	0	0	0	0	1	blank2r.bmp	0	1	+	0	6	C2r.bmp	492	1	blank2r.bmp	786	1	GFVZ	786	1	blank2r.bmp	866	1	leben	866	1	!	-1	1	!	-1	0	0	0	0	0	0	0	0	0	0	0	0	0	0	0	0	0	0	0	0	0	0	0	0	0	0	0
062718	09:57:00	5.0.12.0	119	notassociated	Rpleas_acq	Oppo	Lpleas	Bmasked	CS_B	2pleas	cond_new_unple_456_masked_CS2	condtest_masked_4	9	48	400	1	300	300	0	0	441	46	0	0	0	0	0	1	blank2r.bmp	0	1	+	0	1	B1r.bmp	492	1	blank2r.bmp	786	1	GFVZ	786	1	blank2r.bmp	866	2	eitel	866	1	!	1227	1	!	1334	0	0	0	0	0	0	0	0	0	0	0	0	0	0	0	0	0	0	0	0	0	0	0	0	0	0	0
062718	09:57:00	5.0.12.0	119	notassociated	Rpleas_acq	Oppo	Lpleas	Bmasked	CS_B	2pleas	cond_US_unple_456_masked_CS1	condtest_masked_5	10	1	400	0	300	300	0	0	333	50	0	1	0	0	0	1	blank2r.bmp	0	1	+	0	3	B3r.bmp	492	1	blank2r.bmp	786	1	BXCP	786	1	blank2r.bmp	866	1	pistole	866	1	!	-1	1	!	-1	0	0	0	0	0	0	0	0	0	0	0	0	0	0	0	0	0	0	0	0	0	0	0	0	0	0	0
062718	09:57:00	5.0.12.0	119	notassociated	Rpleas_acq	Oppo	Lpleas	Bmasked	CS_B	2pleas	cond_new_pleas_123_masked_CS2	condtest_masked_5	10	2	400	1	300	300	0	0	441	50	0	0	0	0	0	1	blank2r.bmp	0	1	+	0	4	B4r.bmp	492	1	blank2r.bmp	786	1	GFVZ	786	1	blank2r.bmp	866	3	eiche	866	1	!	1227	1	!	1335	0	0	0	0	0	0	0	0	0	0	0	0	0	0	0	0	0	0	0	0	0	0	0	0	0	0	0
062718	09:57:00	5.0.12.0	119	notassociated	Rpleas_acq	Oppo	Lpleas	Bmasked	CS_B	2pleas	cond_US_pleas_456_masked_CS2	condtest_masked_5	10	3	400	1	300	300	0	0	412	50	0	0	0	0	0	1	blank2r.bmp	0	1	+	0	8	C4r.bmp	492	1	blank2r.bmp	786	1	GFVZ	786	1	blank2r.bmp	866	2	liebe	866	1	!	1227	1	!	1306	0	0	0	0	0	0	0	0	0	0	0	0	0	0	0	0	0	0	0	0	0	0	0	0	0	0	0
062718	09:57:00	5.0.12.0	119	notassociated	Rpleas_acq	Oppo	Lpleas	Bmasked	CS_B	2pleas	cond_new_pleas_123_masked_CS1	condtest_masked_5	10	4	400	0	300	300	0	0	505	46	0	1	0	0	0	1	blank2r.bmp	0	1	+	0	2	B2r.bmp	492	1	blank2r.bmp	786	1	BXCP	786	1	blank2r.bmp	866	2	küken	866	1	!	1227	1	!	-1	0	0	0	0	0	0	0	0	0	0	0	0	0	0	0	0	0	0	0	0	0	0	0	0	0	0	0
062718	09:57:00	5.0.12.0	119	notassociated	Rpleas_acq	Oppo	Lpleas	Bmasked	CS_B	2pleas	cond_US_unple_456_masked_CS2	condtest_masked_5	10	5	400	0	300	300	0	0	313	46	0	0	0	0	0	1	blank2r.bmp	0	1	+	0	7	C3r.bmp	492	1	blank2r.bmp	786	1	GFVZ	786	1	blank2r.bmp	866	3	pest	866	1	!	-1	1	!	-1	0	0	0	0	0	0	0	0	0	0	0	0	0	0	0	0	0	0	0	0	0	0	0	0	0	0	0
062718	09:57:00	5.0.12.0	119	notassociated	Rpleas_acq	Oppo	Lpleas	Bmasked	CS_B	2pleas	cond_new_unple_123_masked_CS2	condtest_masked_5	10	6	400	1	300	300	0	0	448	46	0	0	0	0	0	1	blank2r.bmp	0	1	+	0	5	C1r.bmp	492	1	blank2r.bmp	786	1	GFVZ	786	1	blank2r.bmp	866	2	spott	866	1	!	1227	1	!	1342	0	0	0	0	0	0	0	0	0	0	0	0	0	0	0	0	0	0	0	0	0	0	0	0	0	0	0
062718	09:57:00	5.0.12.0	119	notassociated	Rpleas_acq	Oppo	Lpleas	Bmasked	CS_B	2pleas	cond_new_pleas_123_masked_CS1	condtest_masked_5	10	7	400	0	300	300	0	0	614	46	0	1	0	0	0	1	blank2r.bmp	0	1	+	0	1	B1r.bmp	492	1	blank2r.bmp	786	1	BXCP	786	1	blank2r.bmp	866	1	keks	866	1	!	1227	1	!	-1	0	0	0	0	0	0	0	0	0	0	0	0	0	0	0	0	0	0	0	0	0	0	0	0	0	0	0
062718	09:57:00	5.0.12.0	119	notassociated	Rpleas_acq	Oppo	Lpleas	Bmasked	CS_B	2pleas	cond_US_unple_456_masked_CS2	condtest_masked_5	10	8	400	0	300	300	0	0	329	50	0	1	0	0	0	1	blank2r.bmp	0	1	+	0	6	C2r.bmp	492	1	blank2r.bmp	786	1	GFVZ	786	1	blank2r.bmp	866	2	toxisch	866	1	!	-1	1	!	-1	0	0	0	0	0	0	0	0	0	0	0	0	0	0	0	0	0	0	0	0	0	0	0	0	0	0	0
062718	09:57:00	5.0.12.0	119	notassociated	Rpleas_acq	Oppo	Lpleas	Bmasked	CS_B	2pleas	cond_US_pleas_456_masked_CS1	condtest_masked_5	10	9	400	0	300	300	0	0	486	46	0	1	0	0	0	1	blank2r.bmp	0	1	+	0	5	C1r.bmp	492	1	blank2r.bmp	786	1	BXCP	786	1	blank2r.bmp	866	1	sonne	866	1	!	1227	1	!	-1	0	0	0	0	0	0	0	0	0	0	0	0	0	0	0	0	0	0	0	0	0	0	0	0	0	0	0
062718	09:57:00	5.0.12.0	119	notassociated	Rpleas_acq	Oppo	Lpleas	Bmasked	CS_B	2pleas	cond_US_unple_456_masked_CS1	condtest_masked_5	10	10	400	0	300	300	0	0	592	50	0	1	0	0	0	1	blank2r.bmp	0	1	+	0	6	C2r.bmp	492	1	blank2r.bmp	786	1	BXCP	786	1	blank2r.bmp	866	1	pistole	866	1	!	1227	1	!	-1	0	0	0	0	0	0	0	0	0	0	0	0	0	0	0	0	0	0	0	0	0	0	0	0	0	0	0
