date	time	build	subject	expressions.associated	expressions.LRpleas_acq	expressions.SameOppo	expressions.condition_Lpleas	expressions.ABmasked	expressions.conditionCS_A	expressions.condition_1pleas	trialcode	blockcode	blocknum	trialnum	windowcenter	inwindow	pretrialpause	posttrialpause	trialduration	trialtimeout	latency	response	expressions.correctedscore	correct	values.vis_performance	values.vis_rating_sum	values.vis_rating_mean	stimulusnumber1	stimulusitem1	stimulusonset1	stimulusnumber2	stimulusitem2	stimulusonset2	stimulusnumber3	stimulusitem3	stimulusonset3	stimulusnumber4	stimulusitem4	stimulusonset4	stimulusnumber5	stimulusitem5	stimulusonset5	stimulusnumber6	stimulusitem6	stimulusonset6	stimulusnumber7	stimulusitem7	stimulusonset7	stimulusnumber8	stimulusitem8	stimulusonset8	stimulusnumber9	stimulusitem9	stimulusonset9	stimulusnumber10	stimulusitem10	stimulusonset10	stimulusnumber11	stimulusitem11	stimulusonset11	stimulusnumber12	stimulusitem12	stimulusonset12	stimulusnumber13	stimulusitem13	stimulusonset13	stimulusnumber14	stimulusitem14	stimulusonset14	stimulusnumber15	stimulusitem15	stimulusonset15	stimulusnumber16	stimulusitem16	stimulusonset16	stimulusnumber17	stimulusitem17	stimulusonset17	stimulusnumber18	stimulusitem18	stimulusonset18
062918	16:10:49	5.0.12.0	143	notassociated	Rpleas_acq	Oppo	Rpleas	Bmasked	CS_B	1pleas	acq_pleas_masked	acq1_masked	1	1	0	0	300	300	0	0	984	50	0	1	0	0	0	1	blank2r.bmp	0	1	+	0	4	B4r.bmp	492	1	blank2r.bmp	786	1	BXCP	786	1	blank2r.bmp	866	5	liebe	866	0	0	0	0	0	0	0	0	0	0	0	0	0	0	0	0	0	0	0	0	0	0	0	0	0	0	0	0	0	0	0	0	0
062918	16:10:49	5.0.12.0	143	notassociated	Rpleas_acq	Oppo	Rpleas	Bmasked	CS_B	1pleas	acq_unple_masked	acq1_masked	1	2	0	0	300	300	0	0	764	46	0	1	0	0	0	1	blank2r.bmp	0	1	+	0	8	C4r.bmp	492	1	blank2r.bmp	786	1	GFVZ	786	1	blank2r.bmp	866	6	pistole	866	0	0	0	0	0	0	0	0	0	0	0	0	0	0	0	0	0	0	0	0	0	0	0	0	0	0	0	0	0	0	0	0	0
062918	16:10:49	5.0.12.0	143	notassociated	Rpleas_acq	Oppo	Rpleas	Bmasked	CS_B	1pleas	acq_pleas_masked	acq1_masked	1	3	0	0	300	300	0	0	1156	50	0	1	0	0	0	1	blank2r.bmp	0	1	+	0	3	B3r.bmp	492	1	blank2r.bmp	786	1	BXCP	786	1	blank2r.bmp	866	2	knospe	866	0	0	0	0	0	0	0	0	0	0	0	0	0	0	0	0	0	0	0	0	0	0	0	0	0	0	0	0	0	0	0	0	0
062918	16:10:49	5.0.12.0	143	notassociated	Rpleas_acq	Oppo	Rpleas	Bmasked	CS_B	1pleas	acq_pleas_masked	acq1_masked	1	4	0	0	300	300	0	0	637	50	0	1	0	0	0	1	blank2r.bmp	0	1	+	0	6	C2r.bmp	492	1	blank2r.bmp	786	1	BXCP	786	1	blank2r.bmp	866	3	sonne	866	0	0	0	0	0	0	0	0	0	0	0	0	0	0	0	0	0	0	0	0	0	0	0	0	0	0	0	0	0	0	0	0	0
062918	16:10:49	5.0.12.0	143	notassociated	Rpleas_acq	Oppo	Rpleas	Bmasked	CS_B	1pleas	acq_pleas_masked	acq1_masked	1	5	0	0	300	300	0	0	794	50	0	1	0	0	0	1	blank2r.bmp	0	1	+	0	5	C1r.bmp	492	1	blank2r.bmp	786	1	BXCP	786	1	blank2r.bmp	866	4	leben	866	0	0	0	0	0	0	0	0	0	0	0	0	0	0	0	0	0	0	0	0	0	0	0	0	0	0	0	0	0	0	0	0	0
062918	16:10:49	5.0.12.0	143	notassociated	Rpleas_acq	Oppo	Rpleas	Bmasked	CS_B	1pleas	acq_unple_masked	acq1_masked	1	6	0	0	300	300	0	0	1207	46	0	1	0	0	0	1	blank2r.bmp	0	1	+	0	2	B2r.bmp	492	1	blank2r.bmp	786	1	GFVZ	786	1	blank2r.bmp	866	5	toxisch	866	0	0	0	0	0	0	0	0	0	0	0	0	0	0	0	0	0	0	0	0	0	0	0	0	0	0	0	0	0	0	0	0	0
062918	16:10:49	5.0.12.0	143	notassociated	Rpleas_acq	Oppo	Rpleas	Bmasked	CS_B	1pleas	acq_unple_masked	acq1_masked	1	7	0	0	300	300	0	0	729	46	0	1	0	0	0	1	blank2r.bmp	0	1	+	0	7	C3r.bmp	492	1	blank2r.bmp	786	1	GFVZ	786	1	blank2r.bmp	866	3	übel	866	0	0	0	0	0	0	0	0	0	0	0	0	0	0	0	0	0	0	0	0	0	0	0	0	0	0	0	0	0	0	0	0	0
062918	16:10:49	5.0.12.0	143	notassociated	Rpleas_acq	Oppo	Rpleas	Bmasked	CS_B	1pleas	acq_unple_masked	acq1_masked	1	8	0	0	300	300	0	0	651	46	0	1	0	0	0	1	blank2r.bmp	0	1	+	0	1	B1r.bmp	492	1	blank2r.bmp	786	1	GFVZ	786	1	blank2r.bmp	866	1	pest	866	0	0	0	0	0	0	0	0	0	0	0	0	0	0	0	0	0	0	0	0	0	0	0	0	0	0	0	0	0	0	0	0	0
062918	16:10:49	5.0.12.0	143	notassociated	Rpleas_acq	Oppo	Rpleas	Bmasked	CS_B	1pleas	acq_pleas_masked	acq1_masked	1	9	0	0	300	300	0	0	1035	50	0	1	0	0	0	1	blank2r.bmp	0	1	+	0	3	B3r.bmp	492	1	blank2r.bmp	786	1	BXCP	786	1	blank2r.bmp	866	1	bett	866	0	0	0	0	0	0	0	0	0	0	0	0	0	0	0	0	0	0	0	0	0	0	0	0	0	0	0	0	0	0	0	0	0
062918	16:10:49	5.0.12.0	143	notassociated	Rpleas_acq	Oppo	Rpleas	Bmasked	CS_B	1pleas	acq_pleas_masked	acq1_masked	1	10	0	0	300	300	0	0	1177	50	0	1	0	0	0	1	blank2r.bmp	0	1	+	0	8	C4r.bmp	492	1	blank2r.bmp	786	1	BXCP	786	1	blank2r.bmp	866	6	lippe	866	0	0	0	0	0	0	0	0	0	0	0	0	0	0	0	0	0	0	0	0	0	0	0	0	0	0	0	0	0	0	0	0	0
062918	16:10:49	5.0.12.0	143	notassociated	Rpleas_acq	Oppo	Rpleas	Bmasked	CS_B	1pleas	acq_unple_masked	acq1_masked	1	11	0	0	300	300	0	0	789	46	0	1	0	0	0	1	blank2r.bmp	0	1	+	0	4	B4r.bmp	492	1	blank2r.bmp	786	1	GFVZ	786	1	blank2r.bmp	866	2	leiche	866	0	0	0	0	0	0	0	0	0	0	0	0	0	0	0	0	0	0	0	0	0	0	0	0	0	0	0	0	0	0	0	0	0
062918	16:10:49	5.0.12.0	143	notassociated	Rpleas_acq	Oppo	Rpleas	Bmasked	CS_B	1pleas	acq_unple_masked	acq1_masked	1	12	0	0	300	300	0	0	786	46	0	1	0	0	0	1	blank2r.bmp	0	1	+	0	6	C2r.bmp	492	1	blank2r.bmp	786	1	GFVZ	786	1	blank2r.bmp	866	4	pleite	866	0	0	0	0	0	0	0	0	0	0	0	0	0	0	0	0	0	0	0	0	0	0	0	0	0	0	0	0	0	0	0	0	0
062918	16:10:49	5.0.12.0	143	notassociated	Rpleas_acq	Oppo	Rpleas	Bmasked	CS_B	1pleas	acq_unple_masked	acq1_masked	1	13	0	0	300	300	0	0	576	46	0	1	0	0	0	1	blank2r.bmp	0	1	+	0	1	B1r.bmp	492	1	blank2r.bmp	786	1	GFVZ	786	1	blank2r.bmp	866	1	pest	866	0	0	0	0	0	0	0	0	0	0	0	0	0	0	0	0	0	0	0	0	0	0	0	0	0	0	0	0	0	0	0	0	0
062918	16:10:49	5.0.12.0	143	notassociated	Rpleas_acq	Oppo	Rpleas	Bmasked	CS_B	1pleas	acq_unple_masked	acq1_masked	1	14	0	0	300	300	0	0	546	46	0	1	0	0	0	1	blank2r.bmp	0	1	+	0	2	B2r.bmp	492	1	blank2r.bmp	786	1	GFVZ	786	1	blank2r.bmp	866	4	pleite	866	0	0	0	0	0	0	0	0	0	0	0	0	0	0	0	0	0	0	0	0	0	0	0	0	0	0	0	0	0	0	0	0	0
062918	16:10:49	5.0.12.0	143	notassociated	Rpleas_acq	Oppo	Rpleas	Bmasked	CS_B	1pleas	acq_pleas_masked	acq1_masked	1	15	0	0	300	300	0	0	636	50	0	1	0	0	0	1	blank2r.bmp	0	1	+	0	7	C3r.bmp	492	1	blank2r.bmp	786	1	BXCP	786	1	blank2r.bmp	866	1	bett	866	0	0	0	0	0	0	0	0	0	0	0	0	0	0	0	0	0	0	0	0	0	0	0	0	0	0	0	0	0	0	0	0	0
062918	16:10:49	5.0.12.0	143	notassociated	Rpleas_acq	Oppo	Rpleas	Bmasked	CS_B	1pleas	acq_pleas_masked	acq1_masked	1	16	0	0	300	300	0	0	664	50	0	1	0	0	0	1	blank2r.bmp	0	1	+	0	5	C1r.bmp	492	1	blank2r.bmp	786	1	BXCP	786	1	blank2r.bmp	866	6	lippe	866	0	0	0	0	0	0	0	0	0	0	0	0	0	0	0	0	0	0	0	0	0	0	0	0	0	0	0	0	0	0	0	0	0
062918	16:10:49	5.0.12.0	143	notassociated	Rpleas_acq	Oppo	Rpleas	Bmasked	CS_B	1pleas	acq_unple_masked	acq1_masked	1	17	0	0	300	300	0	0	557	46	0	1	0	0	0	1	blank2r.bmp	0	1	+	0	8	C4r.bmp	492	1	blank2r.bmp	786	1	GFVZ	786	1	blank2r.bmp	866	5	toxisch	866	0	0	0	0	0	0	0	0	0	0	0	0	0	0	0	0	0	0	0	0	0	0	0	0	0	0	0	0	0	0	0	0	0
062918	16:10:49	5.0.12.0	143	notassociated	Rpleas_acq	Oppo	Rpleas	Bmasked	CS_B	1pleas	acq_unple_masked	acq1_masked	1	18	0	0	300	300	0	0	602	46	0	1	0	0	0	1	blank2r.bmp	0	1	+	0	4	B4r.bmp	492	1	blank2r.bmp	786	1	GFVZ	786	1	blank2r.bmp	866	6	pistole	866	0	0	0	0	0	0	0	0	0	0	0	0	0	0	0	0	0	0	0	0	0	0	0	0	0	0	0	0	0	0	0	0	0
062918	16:10:49	5.0.12.0	143	notassociated	Rpleas_acq	Oppo	Rpleas	Bmasked	CS_B	1pleas	acq_pleas_masked	acq1_masked	1	19	0	0	300	300	0	0	510	50	0	1	0	0	0	1	blank2r.bmp	0	1	+	0	1	B1r.bmp	492	1	blank2r.bmp	786	1	BXCP	786	1	blank2r.bmp	866	5	liebe	866	0	0	0	0	0	0	0	0	0	0	0	0	0	0	0	0	0	0	0	0	0	0	0	0	0	0	0	0	0	0	0	0	0
062918	16:10:49	5.0.12.0	143	notassociated	Rpleas_acq	Oppo	Rpleas	Bmasked	CS_B	1pleas	acq_unple_masked	acq1_masked	1	20	0	0	300	300	0	0	851	46	0	1	0	0	0	1	blank2r.bmp	0	1	+	0	6	C2r.bmp	492	1	blank2r.bmp	786	1	GFVZ	786	1	blank2r.bmp	866	3	übel	866	0	0	0	0	0	0	0	0	0	0	0	0	0	0	0	0	0	0	0	0	0	0	0	0	0	0	0	0	0	0	0	0	0
062918	16:10:49	5.0.12.0	143	notassociated	Rpleas_acq	Oppo	Rpleas	Bmasked	CS_B	1pleas	acq_pleas_masked	acq1_masked	1	21	0	0	300	300	0	0	939	50	0	1	0	0	0	1	blank2r.bmp	0	1	+	0	5	C1r.bmp	492	1	blank2r.bmp	786	1	BXCP	786	1	blank2r.bmp	866	2	knospe	866	0	0	0	0	0	0	0	0	0	0	0	0	0	0	0	0	0	0	0	0	0	0	0	0	0	0	0	0	0	0	0	0	0
062918	16:10:49	5.0.12.0	143	notassociated	Rpleas_acq	Oppo	Rpleas	Bmasked	CS_B	1pleas	acq_pleas_masked	acq1_masked	1	22	0	0	300	300	0	0	870	50	0	1	0	0	0	1	blank2r.bmp	0	1	+	0	2	B2r.bmp	492	1	blank2r.bmp	786	1	BXCP	786	1	blank2r.bmp	866	4	leben	866	0	0	0	0	0	0	0	0	0	0	0	0	0	0	0	0	0	0	0	0	0	0	0	0	0	0	0	0	0	0	0	0	0
062918	16:10:49	5.0.12.0	143	notassociated	Rpleas_acq	Oppo	Rpleas	Bmasked	CS_B	1pleas	acq_pleas_masked	acq1_masked	1	23	0	0	300	300	0	0	612	50	0	1	0	0	0	1	blank2r.bmp	0	1	+	0	7	C3r.bmp	492	1	blank2r.bmp	786	1	BXCP	786	1	blank2r.bmp	866	3	sonne	866	0	0	0	0	0	0	0	0	0	0	0	0	0	0	0	0	0	0	0	0	0	0	0	0	0	0	0	0	0	0	0	0	0
062918	16:10:49	5.0.12.0	143	notassociated	Rpleas_acq	Oppo	Rpleas	Bmasked	CS_B	1pleas	acq_unple_masked	acq1_masked	1	24	0	0	300	300	0	0	715	46	0	1	0	0	0	1	blank2r.bmp	0	1	+	0	3	B3r.bmp	492	1	blank2r.bmp	786	1	GFVZ	786	1	blank2r.bmp	866	2	leiche	866	0	0	0	0	0	0	0	0	0	0	0	0	0	0	0	0	0	0	0	0	0	0	0	0	0	0	0	0	0	0	0	0	0
062918	16:10:49	5.0.12.0	143	notassociated	Rpleas_acq	Oppo	Rpleas	Bmasked	CS_B	1pleas	acq_unple_masked	acq2_masked	2	1	480	0	300	300	0	0	795	46	0	1	0	0	0	1	blank2r.bmp	0	1	+	0	6	C2r.bmp	492	1	blank2r.bmp	786	1	GFVZ	786	1	blank2r.bmp	866	2	leiche	866	1	!	1307	1	!	-1	0	0	0	0	0	0	0	0	0	0	0	0	0	0	0	0	0	0	0	0	0	0	0	0	0	0	0
062918	16:10:49	5.0.12.0	143	notassociated	Rpleas_acq	Oppo	Rpleas	Bmasked	CS_B	1pleas	acq_pleas_masked	acq2_masked	2	2	480	0	300	300	0	0	839	50	0	1	0	0	0	1	blank2r.bmp	0	1	+	0	1	B1r.bmp	492	1	blank2r.bmp	786	1	BXCP	786	1	blank2r.bmp	866	4	leben	866	1	!	1307	1	!	-1	0	0	0	0	0	0	0	0	0	0	0	0	0	0	0	0	0	0	0	0	0	0	0	0	0	0	0
062918	16:10:49	5.0.12.0	143	notassociated	Rpleas_acq	Oppo	Rpleas	Bmasked	CS_B	1pleas	acq_pleas_masked	acq2_masked	2	3	480	0	300	300	0	0	570	50	0	1	0	0	0	1	blank2r.bmp	0	1	+	0	2	B2r.bmp	492	1	blank2r.bmp	786	1	BXCP	786	1	blank2r.bmp	866	1	bett	866	1	!	1307	1	!	-1	0	0	0	0	0	0	0	0	0	0	0	0	0	0	0	0	0	0	0	0	0	0	0	0	0	0	0
062918	16:10:49	5.0.12.0	143	notassociated	Rpleas_acq	Oppo	Rpleas	Bmasked	CS_B	1pleas	acq_unple_masked	acq2_masked	2	4	480	0	300	300	0	0	584	46	0	1	0	0	0	1	blank2r.bmp	0	1	+	0	3	B3r.bmp	492	1	blank2r.bmp	786	1	GFVZ	786	1	blank2r.bmp	866	5	toxisch	866	1	!	1307	1	!	-1	0	0	0	0	0	0	0	0	0	0	0	0	0	0	0	0	0	0	0	0	0	0	0	0	0	0	0
062918	16:10:49	5.0.12.0	143	notassociated	Rpleas_acq	Oppo	Rpleas	Bmasked	CS_B	1pleas	acq_unple_masked	acq2_masked	2	5	480	0	300	300	0	0	776	46	0	1	0	0	0	1	blank2r.bmp	0	1	+	0	4	B4r.bmp	492	1	blank2r.bmp	786	1	GFVZ	786	1	blank2r.bmp	866	4	pleite	866	1	!	1307	1	!	-1	0	0	0	0	0	0	0	0	0	0	0	0	0	0	0	0	0	0	0	0	0	0	0	0	0	0	0
062918	16:10:49	5.0.12.0	143	notassociated	Rpleas_acq	Oppo	Rpleas	Bmasked	CS_B	1pleas	acq_pleas_masked	acq2_masked	2	6	480	0	300	300	0	0	658	50	0	1	0	0	0	1	blank2r.bmp	0	1	+	0	7	C3r.bmp	492	1	blank2r.bmp	786	1	BXCP	786	1	blank2r.bmp	866	3	sonne	866	1	!	1307	1	!	-1	0	0	0	0	0	0	0	0	0	0	0	0	0	0	0	0	0	0	0	0	0	0	0	0	0	0	0
062918	16:10:49	5.0.12.0	143	notassociated	Rpleas_acq	Oppo	Rpleas	Bmasked	CS_B	1pleas	acq_unple_masked	acq2_masked	2	7	480	1	300	300	0	0	530	46	0	1	0	0	0	1	blank2r.bmp	0	1	+	0	8	C4r.bmp	492	1	blank2r.bmp	786	1	GFVZ	786	1	blank2r.bmp	866	1	pest	866	1	!	1307	1	!	1424	0	0	0	0	0	0	0	0	0	0	0	0	0	0	0	0	0	0	0	0	0	0	0	0	0	0	0
062918	16:10:49	5.0.12.0	143	notassociated	Rpleas_acq	Oppo	Rpleas	Bmasked	CS_B	1pleas	acq_pleas_masked	acq2_masked	2	8	480	1	300	300	0	0	421	50	0	1	0	0	0	1	blank2r.bmp	0	1	+	0	5	C1r.bmp	492	1	blank2r.bmp	786	1	BXCP	786	1	blank2r.bmp	866	2	knospe	866	1	!	1307	1	!	1315	0	0	0	0	0	0	0	0	0	0	0	0	0	0	0	0	0	0	0	0	0	0	0	0	0	0	0
062918	16:10:49	5.0.12.0	143	notassociated	Rpleas_acq	Oppo	Rpleas	Bmasked	CS_B	1pleas	acq_pleas_masked	acq2_masked	2	9	480	1	300	300	0	0	469	50	0	1	0	0	0	1	blank2r.bmp	0	1	+	0	6	C2r.bmp	492	1	blank2r.bmp	786	1	BXCP	786	1	blank2r.bmp	866	6	lippe	866	1	!	1307	1	!	1362	0	0	0	0	0	0	0	0	0	0	0	0	0	0	0	0	0	0	0	0	0	0	0	0	0	0	0
062918	16:10:49	5.0.12.0	143	notassociated	Rpleas_acq	Oppo	Rpleas	Bmasked	CS_B	1pleas	acq_unple_masked	acq2_masked	2	10	480	1	300	300	0	0	525	46	0	1	0	0	0	1	blank2r.bmp	0	1	+	0	8	C4r.bmp	492	1	blank2r.bmp	786	1	GFVZ	786	1	blank2r.bmp	866	6	pistole	866	1	!	1307	1	!	1419	0	0	0	0	0	0	0	0	0	0	0	0	0	0	0	0	0	0	0	0	0	0	0	0	0	0	0
062918	16:10:49	5.0.12.0	143	notassociated	Rpleas_acq	Oppo	Rpleas	Bmasked	CS_B	1pleas	acq_pleas_masked	acq2_masked	2	11	480	1	300	300	0	0	479	50	0	1	0	0	0	1	blank2r.bmp	0	1	+	0	5	C1r.bmp	492	1	blank2r.bmp	786	1	BXCP	786	1	blank2r.bmp	866	5	liebe	866	1	!	1307	1	!	1373	0	0	0	0	0	0	0	0	0	0	0	0	0	0	0	0	0	0	0	0	0	0	0	0	0	0	0
062918	16:10:49	5.0.12.0	143	notassociated	Rpleas_acq	Oppo	Rpleas	Bmasked	CS_B	1pleas	acq_unple_masked	acq2_masked	2	12	480	0	300	300	0	0	618	46	0	1	0	0	0	1	blank2r.bmp	0	1	+	0	7	C3r.bmp	492	1	blank2r.bmp	786	1	GFVZ	786	1	blank2r.bmp	866	3	übel	866	1	!	1307	1	!	-1	0	0	0	0	0	0	0	0	0	0	0	0	0	0	0	0	0	0	0	0	0	0	0	0	0	0	0
062918	16:10:49	5.0.12.0	143	notassociated	Rpleas_acq	Oppo	Rpleas	Bmasked	CS_B	1pleas	acq_pleas_masked	acq2_masked	2	13	480	1	300	300	0	0	432	50	0	1	0	0	0	1	blank2r.bmp	0	1	+	0	4	B4r.bmp	492	1	blank2r.bmp	786	1	BXCP	786	1	blank2r.bmp	866	6	lippe	866	1	!	1307	1	!	1326	0	0	0	0	0	0	0	0	0	0	0	0	0	0	0	0	0	0	0	0	0	0	0	0	0	0	0
062918	16:10:49	5.0.12.0	143	notassociated	Rpleas_acq	Oppo	Rpleas	Bmasked	CS_B	1pleas	acq_unple_masked	acq2_masked	2	14	480	0	300	300	0	0	688	46	0	1	0	0	0	1	blank2r.bmp	0	1	+	0	3	B3r.bmp	492	1	blank2r.bmp	786	1	GFVZ	786	1	blank2r.bmp	866	6	pistole	866	1	!	1307	1	!	-1	0	0	0	0	0	0	0	0	0	0	0	0	0	0	0	0	0	0	0	0	0	0	0	0	0	0	0
062918	16:10:49	5.0.12.0	143	notassociated	Rpleas_acq	Oppo	Rpleas	Bmasked	CS_B	1pleas	acq_unple_masked	acq2_masked	2	15	480	1	300	300	0	0	502	46	0	1	0	0	0	1	blank2r.bmp	0	1	+	0	2	B2r.bmp	492	1	blank2r.bmp	786	1	GFVZ	786	1	blank2r.bmp	866	5	toxisch	866	1	!	1307	1	!	1396	0	0	0	0	0	0	0	0	0	0	0	0	0	0	0	0	0	0	0	0	0	0	0	0	0	0	0
062918	16:10:49	5.0.12.0	143	notassociated	Rpleas_acq	Oppo	Rpleas	Bmasked	CS_B	1pleas	acq_pleas_masked	acq2_masked	2	16	480	1	300	300	0	0	483	50	0	1	0	0	0	1	blank2r.bmp	0	1	+	0	1	B1r.bmp	492	1	blank2r.bmp	786	1	BXCP	786	1	blank2r.bmp	866	3	sonne	866	1	!	1307	1	!	1377	0	0	0	0	0	0	0	0	0	0	0	0	0	0	0	0	0	0	0	0	0	0	0	0	0	0	0
062918	16:10:49	5.0.12.0	143	notassociated	Rpleas_acq	Oppo	Rpleas	Bmasked	CS_B	1pleas	acq_unple_masked	acq2_masked	2	17	480	0	300	300	0	0	622	46	0	1	0	0	0	1	blank2r.bmp	0	1	+	0	2	B2r.bmp	492	1	blank2r.bmp	786	1	GFVZ	786	1	blank2r.bmp	866	2	leiche	866	1	!	1307	1	!	-1	0	0	0	0	0	0	0	0	0	0	0	0	0	0	0	0	0	0	0	0	0	0	0	0	0	0	0
062918	16:10:49	5.0.12.0	143	notassociated	Rpleas_acq	Oppo	Rpleas	Bmasked	CS_B	1pleas	acq_pleas_masked	acq2_masked	2	18	480	1	300	300	0	0	454	50	0	1	0	0	0	1	blank2r.bmp	0	1	+	0	3	B3r.bmp	492	1	blank2r.bmp	786	1	BXCP	786	1	blank2r.bmp	866	4	leben	866	1	!	1307	1	!	1348	0	0	0	0	0	0	0	0	0	0	0	0	0	0	0	0	0	0	0	0	0	0	0	0	0	0	0
062918	16:10:49	5.0.12.0	143	notassociated	Rpleas_acq	Oppo	Rpleas	Bmasked	CS_B	1pleas	acq_unple_masked	acq2_masked	2	19	480	1	300	300	0	0	457	46	0	1	0	0	0	1	blank2r.bmp	0	1	+	0	4	B4r.bmp	492	1	blank2r.bmp	786	1	GFVZ	786	1	blank2r.bmp	866	4	pleite	866	1	!	1307	1	!	1351	0	0	0	0	0	0	0	0	0	0	0	0	0	0	0	0	0	0	0	0	0	0	0	0	0	0	0
062918	16:10:49	5.0.12.0	143	notassociated	Rpleas_acq	Oppo	Rpleas	Bmasked	CS_B	1pleas	acq_pleas_masked	acq2_masked	2	20	480	1	300	300	0	0	526	50	0	1	0	0	0	1	blank2r.bmp	0	1	+	0	6	C2r.bmp	492	1	blank2r.bmp	786	1	BXCP	786	1	blank2r.bmp	866	1	bett	866	1	!	1307	1	!	1420	0	0	0	0	0	0	0	0	0	0	0	0	0	0	0	0	0	0	0	0	0	0	0	0	0	0	0
062918	16:10:49	5.0.12.0	143	notassociated	Rpleas_acq	Oppo	Rpleas	Bmasked	CS_B	1pleas	acq_pleas_masked	acq2_masked	2	21	480	1	300	300	0	0	532	50	0	1	0	0	0	1	blank2r.bmp	0	1	+	0	5	C1r.bmp	492	1	blank2r.bmp	786	1	BXCP	786	1	blank2r.bmp	866	5	liebe	866	1	!	1307	1	!	1426	0	0	0	0	0	0	0	0	0	0	0	0	0	0	0	0	0	0	0	0	0	0	0	0	0	0	0
062918	16:10:49	5.0.12.0	143	notassociated	Rpleas_acq	Oppo	Rpleas	Bmasked	CS_B	1pleas	acq_unple_masked	acq2_masked	2	22	480	0	300	300	0	0	406	46	0	1	0	0	0	1	blank2r.bmp	0	1	+	0	1	B1r.bmp	492	1	blank2r.bmp	786	1	GFVZ	786	1	blank2r.bmp	866	1	pest	866	1	!	-1	1	!	-1	0	0	0	0	0	0	0	0	0	0	0	0	0	0	0	0	0	0	0	0	0	0	0	0	0	0	0
062918	16:10:49	5.0.12.0	143	notassociated	Rpleas_acq	Oppo	Rpleas	Bmasked	CS_B	1pleas	acq_pleas_masked	acq2_masked	2	23	480	0	300	300	0	0	548	50	0	1	0	0	0	1	blank2r.bmp	0	1	+	0	7	C3r.bmp	492	1	blank2r.bmp	786	1	BXCP	786	1	blank2r.bmp	866	2	knospe	866	1	!	1307	1	!	-1	0	0	0	0	0	0	0	0	0	0	0	0	0	0	0	0	0	0	0	0	0	0	0	0	0	0	0
062918	16:10:49	5.0.12.0	143	notassociated	Rpleas_acq	Oppo	Rpleas	Bmasked	CS_B	1pleas	acq_unple_masked	acq2_masked	2	24	480	0	300	300	0	0	617	46	0	1	0	0	0	1	blank2r.bmp	0	1	+	0	8	C4r.bmp	492	1	blank2r.bmp	786	1	GFVZ	786	1	blank2r.bmp	866	3	übel	866	1	!	1307	1	!	-1	0	0	0	0	0	0	0	0	0	0	0	0	0	0	0	0	0	0	0	0	0	0	0	0	0	0	0
062918	16:10:49	5.0.12.0	143	notassociated	Rpleas_acq	Oppo	Rpleas	Bmasked	CS_B	1pleas	acq_pleas_masked	acq3_masked	3	1	453	1	300	300	0	0	471	50	0	1	0	0	0	1	blank2r.bmp	0	1	+	0	1	B1r.bmp	492	1	blank2r.bmp	786	1	BXCP	786	1	blank2r.bmp	866	4	leben	866	1	!	1280	1	!	1365	0	0	0	0	0	0	0	0	0	0	0	0	0	0	0	0	0	0	0	0	0	0	0	0	0	0	0
062918	16:10:49	5.0.12.0	143	notassociated	Rpleas_acq	Oppo	Rpleas	Bmasked	CS_B	1pleas	acq_unple_masked	acq3_masked	3	2	453	0	300	300	0	0	335	46	0	1	0	0	0	1	blank2r.bmp	0	1	+	0	3	B3r.bmp	492	1	blank2r.bmp	786	1	GFVZ	786	1	blank2r.bmp	866	2	leiche	866	1	!	-1	1	!	-1	0	0	0	0	0	0	0	0	0	0	0	0	0	0	0	0	0	0	0	0	0	0	0	0	0	0	0
062918	16:10:49	5.0.12.0	143	notassociated	Rpleas_acq	Oppo	Rpleas	Bmasked	CS_B	1pleas	acq_pleas_masked	acq3_masked	3	3	453	0	300	300	0	0	668	50	0	1	0	0	0	1	blank2r.bmp	0	1	+	0	6	C2r.bmp	492	1	blank2r.bmp	786	1	BXCP	786	1	blank2r.bmp	866	6	lippe	866	1	!	1280	1	!	-1	0	0	0	0	0	0	0	0	0	0	0	0	0	0	0	0	0	0	0	0	0	0	0	0	0	0	0
062918	16:10:49	5.0.12.0	143	notassociated	Rpleas_acq	Oppo	Rpleas	Bmasked	CS_B	1pleas	acq_unple_masked	acq3_masked	3	4	453	1	300	300	0	0	413	46	0	1	0	0	0	1	blank2r.bmp	0	1	+	0	4	B4r.bmp	492	1	blank2r.bmp	786	1	GFVZ	786	1	blank2r.bmp	866	6	pistole	866	1	!	1280	1	!	1306	0	0	0	0	0	0	0	0	0	0	0	0	0	0	0	0	0	0	0	0	0	0	0	0	0	0	0
062918	16:10:49	5.0.12.0	143	notassociated	Rpleas_acq	Oppo	Rpleas	Bmasked	CS_B	1pleas	acq_unple_masked	acq3_masked	3	5	453	1	300	300	0	0	506	46	0	1	0	0	0	1	blank2r.bmp	0	1	+	0	2	B2r.bmp	492	1	blank2r.bmp	786	1	GFVZ	786	1	blank2r.bmp	866	4	pleite	866	1	!	1280	1	!	1399	0	0	0	0	0	0	0	0	0	0	0	0	0	0	0	0	0	0	0	0	0	0	0	0	0	0	0
062918	16:10:49	5.0.12.0	143	notassociated	Rpleas_acq	Oppo	Rpleas	Bmasked	CS_B	1pleas	acq_unple_masked	acq3_masked	3	6	453	0	300	300	0	0	583	46	0	1	0	0	0	1	blank2r.bmp	0	1	+	0	8	C4r.bmp	492	1	blank2r.bmp	786	1	GFVZ	786	1	blank2r.bmp	866	5	toxisch	866	1	!	1280	1	!	-1	0	0	0	0	0	0	0	0	0	0	0	0	0	0	0	0	0	0	0	0	0	0	0	0	0	0	0
062918	16:10:49	5.0.12.0	143	notassociated	Rpleas_acq	Oppo	Rpleas	Bmasked	CS_B	1pleas	acq_pleas_masked	acq3_masked	3	7	453	0	300	300	0	0	375	50	0	1	0	0	0	1	blank2r.bmp	0	1	+	0	7	C3r.bmp	492	1	blank2r.bmp	786	1	BXCP	786	1	blank2r.bmp	866	5	liebe	866	1	!	-1	1	!	-1	0	0	0	0	0	0	0	0	0	0	0	0	0	0	0	0	0	0	0	0	0	0	0	0	0	0	0
062918	16:10:49	5.0.12.0	143	notassociated	Rpleas_acq	Oppo	Rpleas	Bmasked	CS_B	1pleas	acq_pleas_masked	acq3_masked	3	8	453	0	300	300	0	0	682	50	0	1	0	0	0	1	blank2r.bmp	0	1	+	0	5	C1r.bmp	492	1	blank2r.bmp	786	1	BXCP	786	1	blank2r.bmp	866	2	knospe	866	1	!	1280	1	!	-1	0	0	0	0	0	0	0	0	0	0	0	0	0	0	0	0	0	0	0	0	0	0	0	0	0	0	0
062918	16:10:49	5.0.12.0	143	notassociated	Rpleas_acq	Oppo	Rpleas	Bmasked	CS_B	1pleas	acq_unple_masked	acq3_masked	3	9	453	0	300	300	0	0	589	46	0	1	0	0	0	1	blank2r.bmp	0	1	+	0	8	C4r.bmp	492	1	blank2r.bmp	786	1	GFVZ	786	1	blank2r.bmp	866	1	pest	866	1	!	1280	1	!	-1	0	0	0	0	0	0	0	0	0	0	0	0	0	0	0	0	0	0	0	0	0	0	0	0	0	0	0
062918	16:10:49	5.0.12.0	143	notassociated	Rpleas_acq	Oppo	Rpleas	Bmasked	CS_B	1pleas	acq_pleas_masked	acq3_masked	3	10	453	0	300	300	0	0	653	50	0	1	0	0	0	1	blank2r.bmp	0	1	+	0	7	C3r.bmp	492	1	blank2r.bmp	786	1	BXCP	786	1	blank2r.bmp	866	3	sonne	866	1	!	1280	1	!	-1	0	0	0	0	0	0	0	0	0	0	0	0	0	0	0	0	0	0	0	0	0	0	0	0	0	0	0
062918	16:10:49	5.0.12.0	143	notassociated	Rpleas_acq	Oppo	Rpleas	Bmasked	CS_B	1pleas	acq_pleas_masked	acq3_masked	3	11	453	0	300	300	0	0	379	46	0	0	0	0	0	1	blank2r.bmp	0	1	+	0	1	B1r.bmp	492	1	blank2r.bmp	786	1	BXCP	786	1	blank2r.bmp	866	1	bett	866	1	FEHLER	1566	1	!	-1	1	!	-1	0	0	0	0	0	0	0	0	0	0	0	0	0	0	0	0	0	0	0	0	0	0	0	0
062918	16:10:49	5.0.12.0	143	notassociated	Rpleas_acq	Oppo	Rpleas	Bmasked	CS_B	1pleas	acq_unple_masked	acq3_masked	3	12	453	0	300	300	0	0	576	46	0	1	0	0	0	1	blank2r.bmp	0	1	+	0	4	B4r.bmp	492	1	blank2r.bmp	786	1	GFVZ	786	1	blank2r.bmp	866	3	übel	866	1	!	1280	1	!	-1	0	0	0	0	0	0	0	0	0	0	0	0	0	0	0	0	0	0	0	0	0	0	0	0	0	0	0
062918	16:10:49	5.0.12.0	143	notassociated	Rpleas_acq	Oppo	Rpleas	Bmasked	CS_B	1pleas	acq_pleas_masked	acq3_masked	3	13	453	1	300	300	0	0	398	50	0	1	0	0	0	1	blank2r.bmp	0	1	+	0	5	C1r.bmp	492	1	blank2r.bmp	786	1	BXCP	786	1	blank2r.bmp	866	5	liebe	866	1	!	1280	1	!	1292	0	0	0	0	0	0	0	0	0	0	0	0	0	0	0	0	0	0	0	0	0	0	0	0	0	0	0
062918	16:10:49	5.0.12.0	143	notassociated	Rpleas_acq	Oppo	Rpleas	Bmasked	CS_B	1pleas	acq_pleas_masked	acq3_masked	3	14	453	0	300	300	0	0	280	46	0	0	0	0	0	1	blank2r.bmp	0	1	+	0	2	B2r.bmp	492	1	blank2r.bmp	786	1	BXCP	786	1	blank2r.bmp	866	3	sonne	866	1	FEHLER	1468	1	!	-1	1	!	-1	0	0	0	0	0	0	0	0	0	0	0	0	0	0	0	0	0	0	0	0	0	0	0	0
062918	16:10:49	5.0.12.0	143	notassociated	Rpleas_acq	Oppo	Rpleas	Bmasked	CS_B	1pleas	acq_unple_masked	acq3_masked	3	15	453	0	300	300	0	0	746	46	0	1	0	0	0	1	blank2r.bmp	0	1	+	0	6	C2r.bmp	492	1	blank2r.bmp	786	1	GFVZ	786	1	blank2r.bmp	866	5	toxisch	866	1	!	1280	1	!	-1	0	0	0	0	0	0	0	0	0	0	0	0	0	0	0	0	0	0	0	0	0	0	0	0	0	0	0
062918	16:10:49	5.0.12.0	143	notassociated	Rpleas_acq	Oppo	Rpleas	Bmasked	CS_B	1pleas	acq_unple_masked	acq3_masked	3	16	453	1	300	300	0	0	411	50	0	0	0	0	0	1	blank2r.bmp	0	1	+	0	3	B3r.bmp	492	1	blank2r.bmp	786	1	GFVZ	786	1	blank2r.bmp	866	2	leiche	866	1	FEHLER	1599	1	!	1280	1	!	1305	0	0	0	0	0	0	0	0	0	0	0	0	0	0	0	0	0	0	0	0	0	0	0	0
062918	16:10:49	5.0.12.0	143	notassociated	Rpleas_acq	Oppo	Rpleas	Bmasked	CS_B	1pleas	acq_pleas_masked	acq3_masked	3	17	453	1	300	300	0	0	470	50	0	1	0	0	0	1	blank2r.bmp	0	1	+	0	3	B3r.bmp	492	1	blank2r.bmp	786	1	BXCP	786	1	blank2r.bmp	866	4	leben	866	1	!	1280	1	!	1363	0	0	0	0	0	0	0	0	0	0	0	0	0	0	0	0	0	0	0	0	0	0	0	0	0	0	0
062918	16:10:49	5.0.12.0	143	notassociated	Rpleas_acq	Oppo	Rpleas	Bmasked	CS_B	1pleas	acq_unple_masked	acq3_masked	3	18	453	1	300	300	0	0	413	46	0	1	0	0	0	1	blank2r.bmp	0	1	+	0	8	C4r.bmp	492	1	blank2r.bmp	786	1	GFVZ	786	1	blank2r.bmp	866	3	übel	866	1	!	1280	1	!	1307	0	0	0	0	0	0	0	0	0	0	0	0	0	0	0	0	0	0	0	0	0	0	0	0	0	0	0
062918	16:10:49	5.0.12.0	143	notassociated	Rpleas_acq	Oppo	Rpleas	Bmasked	CS_B	1pleas	acq_pleas_masked	acq3_masked	3	19	453	1	300	300	0	0	504	50	0	1	0	0	0	1	blank2r.bmp	0	1	+	0	2	B2r.bmp	492	1	blank2r.bmp	786	1	BXCP	786	1	blank2r.bmp	866	6	lippe	866	1	!	1280	1	!	1398	0	0	0	0	0	0	0	0	0	0	0	0	0	0	0	0	0	0	0	0	0	0	0	0	0	0	0
062918	16:10:49	5.0.12.0	143	notassociated	Rpleas_acq	Oppo	Rpleas	Bmasked	CS_B	1pleas	acq_unple_masked	acq3_masked	3	20	453	1	300	300	0	0	472	46	0	1	0	0	0	1	blank2r.bmp	0	1	+	0	4	B4r.bmp	492	1	blank2r.bmp	786	1	GFVZ	786	1	blank2r.bmp	866	6	pistole	866	1	!	1280	1	!	1366	0	0	0	0	0	0	0	0	0	0	0	0	0	0	0	0	0	0	0	0	0	0	0	0	0	0	0
062918	16:10:49	5.0.12.0	143	notassociated	Rpleas_acq	Oppo	Rpleas	Bmasked	CS_B	1pleas	acq_pleas_masked	acq3_masked	3	21	453	0	300	300	0	0	595	50	0	1	0	0	0	1	blank2r.bmp	0	1	+	0	5	C1r.bmp	492	1	blank2r.bmp	786	1	BXCP	786	1	blank2r.bmp	866	2	knospe	866	1	!	1280	1	!	-1	0	0	0	0	0	0	0	0	0	0	0	0	0	0	0	0	0	0	0	0	0	0	0	0	0	0	0
062918	16:10:49	5.0.12.0	143	notassociated	Rpleas_acq	Oppo	Rpleas	Bmasked	CS_B	1pleas	acq_pleas_masked	acq3_masked	3	22	453	0	300	300	0	0	739	46	0	0	0	0	0	1	blank2r.bmp	0	1	+	0	1	B1r.bmp	492	1	blank2r.bmp	786	1	BXCP	786	1	blank2r.bmp	866	1	bett	866	1	FEHLER	1926	1	!	1280	1	!	-1	0	0	0	0	0	0	0	0	0	0	0	0	0	0	0	0	0	0	0	0	0	0	0	0
062918	16:10:49	5.0.12.0	143	notassociated	Rpleas_acq	Oppo	Rpleas	Bmasked	CS_B	1pleas	acq_pleas_masked	acq3_masked	3	23	453	1	300	300	0	0	433	46	0	0	0	0	0	1	blank2r.bmp	0	1	+	0	6	C2r.bmp	492	1	blank2r.bmp	786	1	BXCP	786	1	blank2r.bmp	866	2	knospe	866	1	FEHLER	1621	1	!	1280	1	!	1327	0	0	0	0	0	0	0	0	0	0	0	0	0	0	0	0	0	0	0	0	0	0	0	0
062918	16:10:49	5.0.12.0	143	notassociated	Rpleas_acq	Oppo	Rpleas	Bmasked	CS_B	1pleas	acq_pleas_masked	acq3_masked	3	24	453	1	300	300	0	0	513	50	0	1	0	0	0	1	blank2r.bmp	0	1	+	0	7	C3r.bmp	492	1	blank2r.bmp	786	1	BXCP	786	1	blank2r.bmp	866	3	sonne	866	1	!	1280	1	!	1407	0	0	0	0	0	0	0	0	0	0	0	0	0	0	0	0	0	0	0	0	0	0	0	0	0	0	0
062918	16:10:49	5.0.12.0	143	notassociated	Rpleas_acq	Oppo	Rpleas	Bmasked	CS_B	1pleas	acq_unple_masked	acq3_masked	3	25	453	1	300	300	0	0	516	46	0	1	0	0	0	1	blank2r.bmp	0	1	+	0	8	C4r.bmp	492	1	blank2r.bmp	786	1	GFVZ	786	1	blank2r.bmp	866	1	pest	866	1	!	1280	1	!	1409	0	0	0	0	0	0	0	0	0	0	0	0	0	0	0	0	0	0	0	0	0	0	0	0	0	0	0
062918	16:10:49	5.0.12.0	143	notassociated	Rpleas_acq	Oppo	Rpleas	Bmasked	CS_B	1pleas	acq_unple_masked	acq3_masked	3	26	453	0	300	300	0	0	532	46	0	1	0	0	0	1	blank2r.bmp	0	1	+	0	5	C1r.bmp	492	1	blank2r.bmp	786	1	GFVZ	786	1	blank2r.bmp	866	4	pleite	866	1	!	1280	1	!	-1	0	0	0	0	0	0	0	0	0	0	0	0	0	0	0	0	0	0	0	0	0	0	0	0	0	0	0
062918	16:10:49	5.0.12.0	143	notassociated	Rpleas_acq	Oppo	Rpleas	Bmasked	CS_B	1pleas	acq_pleas_masked	acq3_masked	3	27	453	0	300	300	0	0	361	50	0	1	0	0	0	1	blank2r.bmp	0	1	+	0	3	B3r.bmp	492	1	blank2r.bmp	786	1	BXCP	786	1	blank2r.bmp	866	6	lippe	866	1	!	-1	1	!	-1	0	0	0	0	0	0	0	0	0	0	0	0	0	0	0	0	0	0	0	0	0	0	0	0	0	0	0
062918	16:10:49	5.0.12.0	143	notassociated	Rpleas_acq	Oppo	Rpleas	Bmasked	CS_B	1pleas	acq_unple_masked	acq3_masked	3	28	453	1	300	300	0	0	441	46	0	1	0	0	0	1	blank2r.bmp	0	1	+	0	2	B2r.bmp	492	1	blank2r.bmp	786	1	GFVZ	786	1	blank2r.bmp	866	1	pest	866	1	!	1280	1	!	1335	0	0	0	0	0	0	0	0	0	0	0	0	0	0	0	0	0	0	0	0	0	0	0	0	0	0	0
062918	16:10:49	5.0.12.0	143	notassociated	Rpleas_acq	Oppo	Rpleas	Bmasked	CS_B	1pleas	acq_pleas_masked	acq3_masked	3	29	453	1	300	300	0	0	475	46	0	0	0	0	0	1	blank2r.bmp	0	1	+	0	7	C3r.bmp	492	1	blank2r.bmp	786	1	BXCP	786	1	blank2r.bmp	866	4	leben	866	1	FEHLER	1663	1	!	1280	1	!	1369	0	0	0	0	0	0	0	0	0	0	0	0	0	0	0	0	0	0	0	0	0	0	0	0
062918	16:10:49	5.0.12.0	143	notassociated	Rpleas_acq	Oppo	Rpleas	Bmasked	CS_B	1pleas	acq_unple_masked	acq3_masked	3	30	453	0	300	300	0	0	4931	46	0	1	0	0	0	1	blank2r.bmp	0	1	+	0	6	C2r.bmp	492	1	blank2r.bmp	786	1	GFVZ	786	1	blank2r.bmp	866	2	leiche	866	1	!	1280	1	!	-1	0	0	0	0	0	0	0	0	0	0	0	0	0	0	0	0	0	0	0	0	0	0	0	0	0	0	0
062918	16:10:49	5.0.12.0	143	notassociated	Rpleas_acq	Oppo	Rpleas	Bmasked	CS_B	1pleas	acq_unple_masked	acq3_masked	3	31	453	0	300	300	0	0	619	46	0	1	0	0	0	1	blank2r.bmp	0	1	+	0	4	B4r.bmp	492	1	blank2r.bmp	786	1	GFVZ	786	1	blank2r.bmp	866	4	pleite	866	1	!	1280	1	!	-1	0	0	0	0	0	0	0	0	0	0	0	0	0	0	0	0	0	0	0	0	0	0	0	0	0	0	0
062918	16:10:49	5.0.12.0	143	notassociated	Rpleas_acq	Oppo	Rpleas	Bmasked	CS_B	1pleas	acq_unple_masked	acq3_masked	3	32	453	0	300	300	0	0	625	46	0	1	0	0	0	1	blank2r.bmp	0	1	+	0	1	B1r.bmp	492	1	blank2r.bmp	786	1	GFVZ	786	1	blank2r.bmp	866	6	pistole	866	1	!	1280	1	!	-1	0	0	0	0	0	0	0	0	0	0	0	0	0	0	0	0	0	0	0	0	0	0	0	0	0	0	0
062918	16:10:49	5.0.12.0	143	notassociated	Rpleas_acq	Oppo	Rpleas	Bmasked	CS_B	1pleas	acq_pleas_masked	acq45_masked	4	1	400	0	300	300	0	0	526	50	0	1	0	0	0	1	blank2r.bmp	0	1	+	0	2	B2r.bmp	492	1	blank2r.bmp	786	1	BXCP	786	1	blank2r.bmp	866	5	liebe	866	1	!	1227	1	!	-1	0	0	0	0	0	0	0	0	0	0	0	0	0	0	0	0	0	0	0	0	0	0	0	0	0	0	0
062918	16:10:49	5.0.12.0	143	notassociated	Rpleas_acq	Oppo	Rpleas	Bmasked	CS_B	1pleas	acq_unple_masked	acq45_masked	4	2	400	0	300	300	0	0	628	46	0	1	0	0	0	1	blank2r.bmp	0	1	+	0	7	C3r.bmp	492	1	blank2r.bmp	786	1	GFVZ	786	1	blank2r.bmp	866	5	toxisch	866	1	!	1227	1	!	-1	0	0	0	0	0	0	0	0	0	0	0	0	0	0	0	0	0	0	0	0	0	0	0	0	0	0	0
062918	16:10:49	5.0.12.0	143	notassociated	Rpleas_acq	Oppo	Rpleas	Bmasked	CS_B	1pleas	acq_unple_masked	acq45_masked	4	3	400	0	300	300	0	0	524	46	0	1	0	0	0	1	blank2r.bmp	0	1	+	0	1	B1r.bmp	492	1	blank2r.bmp	786	1	GFVZ	786	1	blank2r.bmp	866	3	übel	866	1	!	1227	1	!	-1	0	0	0	0	0	0	0	0	0	0	0	0	0	0	0	0	0	0	0	0	0	0	0	0	0	0	0
062918	16:10:49	5.0.12.0	143	notassociated	Rpleas_acq	Oppo	Rpleas	Bmasked	CS_B	1pleas	acq_unple_masked	acq45_masked	4	4	400	1	300	300	0	0	415	50	0	0	0	0	0	1	blank2r.bmp	0	1	+	0	4	B4r.bmp	492	1	blank2r.bmp	786	1	GFVZ	786	1	blank2r.bmp	866	5	toxisch	866	1	!	1227	1	!	1309	0	0	0	0	0	0	0	0	0	0	0	0	0	0	0	0	0	0	0	0	0	0	0	0	0	0	0
062918	16:10:49	5.0.12.0	143	notassociated	Rpleas_acq	Oppo	Rpleas	Bmasked	CS_B	1pleas	acq_unple_masked	acq45_masked	4	5	400	1	300	300	0	0	460	46	0	1	0	0	0	1	blank2r.bmp	0	1	+	0	6	C2r.bmp	492	1	blank2r.bmp	786	1	GFVZ	786	1	blank2r.bmp	866	1	pest	866	1	!	1227	1	!	1354	0	0	0	0	0	0	0	0	0	0	0	0	0	0	0	0	0	0	0	0	0	0	0	0	0	0	0
062918	16:10:49	5.0.12.0	143	notassociated	Rpleas_acq	Oppo	Rpleas	Bmasked	CS_B	1pleas	acq_pleas_masked	acq45_masked	4	6	400	1	300	300	0	0	386	50	0	1	0	0	0	1	blank2r.bmp	0	1	+	0	3	B3r.bmp	492	1	blank2r.bmp	786	1	BXCP	786	1	blank2r.bmp	866	1	bett	866	1	!	1227	1	!	1279	0	0	0	0	0	0	0	0	0	0	0	0	0	0	0	0	0	0	0	0	0	0	0	0	0	0	0
062918	16:10:49	5.0.12.0	143	notassociated	Rpleas_acq	Oppo	Rpleas	Bmasked	CS_B	1pleas	acq_pleas_masked	acq45_masked	4	7	400	0	300	300	0	0	329	46	0	0	0	0	0	1	blank2r.bmp	0	1	+	0	8	C4r.bmp	492	1	blank2r.bmp	786	1	BXCP	786	1	blank2r.bmp	866	5	liebe	866	1	!	-1	1	!	-1	0	0	0	0	0	0	0	0	0	0	0	0	0	0	0	0	0	0	0	0	0	0	0	0	0	0	0
062918	16:10:49	5.0.12.0	143	notassociated	Rpleas_acq	Oppo	Rpleas	Bmasked	CS_B	1pleas	acq_unple_masked	acq45_masked	4	8	400	0	300	300	0	0	499	46	0	1	0	0	0	1	blank2r.bmp	0	1	+	0	5	C1r.bmp	492	1	blank2r.bmp	786	1	GFVZ	786	1	blank2r.bmp	866	3	übel	866	1	!	1227	1	!	-1	0	0	0	0	0	0	0	0	0	0	0	0	0	0	0	0	0	0	0	0	0	0	0	0	0	0	0
062918	16:10:49	5.0.12.0	143	notassociated	Rpleas_acq	Oppo	Rpleas	Bmasked	CS_B	1pleas	acq_unple_masked	acq45_masked	4	9	400	0	300	300	0	0	483	46	0	1	0	0	0	1	blank2r.bmp	0	1	+	0	3	B3r.bmp	492	1	blank2r.bmp	786	1	GFVZ	786	1	blank2r.bmp	866	6	pistole	866	1	!	1227	1	!	-1	0	0	0	0	0	0	0	0	0	0	0	0	0	0	0	0	0	0	0	0	0	0	0	0	0	0	0
062918	16:10:49	5.0.12.0	143	notassociated	Rpleas_acq	Oppo	Rpleas	Bmasked	CS_B	1pleas	acq_unple_masked	acq45_masked	4	10	400	0	300	300	0	0	542	46	0	1	0	0	0	1	blank2r.bmp	0	1	+	0	7	C3r.bmp	492	1	blank2r.bmp	786	1	GFVZ	786	1	blank2r.bmp	866	4	pleite	866	1	!	1227	1	!	-1	0	0	0	0	0	0	0	0	0	0	0	0	0	0	0	0	0	0	0	0	0	0	0	0	0	0	0
062918	16:10:49	5.0.12.0	143	notassociated	Rpleas_acq	Oppo	Rpleas	Bmasked	CS_B	1pleas	acq_unple_masked	acq45_masked	4	11	400	0	300	300	0	0	612	46	0	1	0	0	0	1	blank2r.bmp	0	1	+	0	2	B2r.bmp	492	1	blank2r.bmp	786	1	GFVZ	786	1	blank2r.bmp	866	2	leiche	866	1	!	1227	1	!	-1	0	0	0	0	0	0	0	0	0	0	0	0	0	0	0	0	0	0	0	0	0	0	0	0	0	0	0
062918	16:10:49	5.0.12.0	143	notassociated	Rpleas_acq	Oppo	Rpleas	Bmasked	CS_B	1pleas	acq_pleas_masked	acq45_masked	4	12	400	0	300	300	0	0	554	50	0	1	0	0	0	1	blank2r.bmp	0	1	+	0	4	B4r.bmp	492	1	blank2r.bmp	786	1	BXCP	786	1	blank2r.bmp	866	4	leben	866	1	!	1227	1	!	-1	0	0	0	0	0	0	0	0	0	0	0	0	0	0	0	0	0	0	0	0	0	0	0	0	0	0	0
062918	16:10:49	5.0.12.0	143	notassociated	Rpleas_acq	Oppo	Rpleas	Bmasked	CS_B	1pleas	acq_pleas_masked	acq45_masked	4	13	400	0	300	300	0	0	500	50	0	1	0	0	0	1	blank2r.bmp	0	1	+	0	8	C4r.bmp	492	1	blank2r.bmp	786	1	BXCP	786	1	blank2r.bmp	866	1	bett	866	1	!	1227	1	!	-1	0	0	0	0	0	0	0	0	0	0	0	0	0	0	0	0	0	0	0	0	0	0	0	0	0	0	0
062918	16:10:49	5.0.12.0	143	notassociated	Rpleas_acq	Oppo	Rpleas	Bmasked	CS_B	1pleas	acq_pleas_masked	acq45_masked	4	14	400	1	300	300	0	0	386	50	0	1	0	0	0	1	blank2r.bmp	0	1	+	0	1	B1r.bmp	492	1	blank2r.bmp	786	1	BXCP	786	1	blank2r.bmp	866	3	sonne	866	1	!	1227	1	!	1279	0	0	0	0	0	0	0	0	0	0	0	0	0	0	0	0	0	0	0	0	0	0	0	0	0	0	0
062918	16:10:49	5.0.12.0	143	notassociated	Rpleas_acq	Oppo	Rpleas	Bmasked	CS_B	1pleas	acq_pleas_masked	acq45_masked	4	15	400	1	300	300	0	0	425	50	0	1	0	0	0	1	blank2r.bmp	0	1	+	0	5	C1r.bmp	492	1	blank2r.bmp	786	1	BXCP	786	1	blank2r.bmp	866	6	lippe	866	1	!	1227	1	!	1319	0	0	0	0	0	0	0	0	0	0	0	0	0	0	0	0	0	0	0	0	0	0	0	0	0	0	0
062918	16:10:49	5.0.12.0	143	notassociated	Rpleas_acq	Oppo	Rpleas	Bmasked	CS_B	1pleas	acq_pleas_masked	acq45_masked	4	16	400	0	300	300	0	0	473	50	0	1	0	0	0	1	blank2r.bmp	0	1	+	0	6	C2r.bmp	492	1	blank2r.bmp	786	1	BXCP	786	1	blank2r.bmp	866	2	knospe	866	1	!	1227	1	!	-1	0	0	0	0	0	0	0	0	0	0	0	0	0	0	0	0	0	0	0	0	0	0	0	0	0	0	0
062918	16:10:49	5.0.12.0	143	notassociated	Rpleas_acq	Oppo	Rpleas	Bmasked	CS_B	1pleas	acq_unple_masked	acq45_masked	4	17	400	1	300	300	0	0	372	46	0	1	0	0	0	1	blank2r.bmp	0	1	+	0	3	B3r.bmp	492	1	blank2r.bmp	786	1	GFVZ	786	1	blank2r.bmp	866	3	übel	866	1	!	1227	1	!	1265	0	0	0	0	0	0	0	0	0	0	0	0	0	0	0	0	0	0	0	0	0	0	0	0	0	0	0
062918	16:10:49	5.0.12.0	143	notassociated	Rpleas_acq	Oppo	Rpleas	Bmasked	CS_B	1pleas	acq_pleas_masked	acq45_masked	4	18	400	0	300	300	0	0	566	50	0	1	0	0	0	1	blank2r.bmp	0	1	+	0	2	B2r.bmp	492	1	blank2r.bmp	786	1	BXCP	786	1	blank2r.bmp	866	1	bett	866	1	!	1227	1	!	-1	0	0	0	0	0	0	0	0	0	0	0	0	0	0	0	0	0	0	0	0	0	0	0	0	0	0	0
062918	16:10:49	5.0.12.0	143	notassociated	Rpleas_acq	Oppo	Rpleas	Bmasked	CS_B	1pleas	acq_pleas_masked	acq45_masked	4	19	400	1	300	300	0	0	449	50	0	1	0	0	0	1	blank2r.bmp	0	1	+	0	8	C4r.bmp	492	1	blank2r.bmp	786	1	BXCP	786	1	blank2r.bmp	866	6	lippe	866	1	!	1227	1	!	1343	0	0	0	0	0	0	0	0	0	0	0	0	0	0	0	0	0	0	0	0	0	0	0	0	0	0	0
062918	16:10:49	5.0.12.0	143	notassociated	Rpleas_acq	Oppo	Rpleas	Bmasked	CS_B	1pleas	acq_unple_masked	acq45_masked	4	20	400	1	300	300	0	0	420	46	0	1	0	0	0	1	blank2r.bmp	0	1	+	0	6	C2r.bmp	492	1	blank2r.bmp	786	1	GFVZ	786	1	blank2r.bmp	866	1	pest	866	1	!	1227	1	!	1313	0	0	0	0	0	0	0	0	0	0	0	0	0	0	0	0	0	0	0	0	0	0	0	0	0	0	0
062918	16:10:49	5.0.12.0	143	notassociated	Rpleas_acq	Oppo	Rpleas	Bmasked	CS_B	1pleas	acq_unple_masked	acq45_masked	4	21	400	0	300	300	0	0	577	46	0	1	0	0	0	1	blank2r.bmp	0	1	+	0	1	B1r.bmp	492	1	blank2r.bmp	786	1	GFVZ	786	1	blank2r.bmp	866	5	toxisch	866	1	!	1227	1	!	-1	0	0	0	0	0	0	0	0	0	0	0	0	0	0	0	0	0	0	0	0	0	0	0	0	0	0	0
062918	16:10:49	5.0.12.0	143	notassociated	Rpleas_acq	Oppo	Rpleas	Bmasked	CS_B	1pleas	acq_unple_masked	acq45_masked	4	22	400	0	300	300	0	0	673	46	0	1	0	0	0	1	blank2r.bmp	0	1	+	0	7	C3r.bmp	492	1	blank2r.bmp	786	1	GFVZ	786	1	blank2r.bmp	866	2	leiche	866	1	!	1227	1	!	-1	0	0	0	0	0	0	0	0	0	0	0	0	0	0	0	0	0	0	0	0	0	0	0	0	0	0	0
062918	16:10:49	5.0.12.0	143	notassociated	Rpleas_acq	Oppo	Rpleas	Bmasked	CS_B	1pleas	acq_pleas_masked	acq45_masked	4	23	400	1	300	300	0	0	404	50	0	1	0	0	0	1	blank2r.bmp	0	1	+	0	4	B4r.bmp	492	1	blank2r.bmp	786	1	BXCP	786	1	blank2r.bmp	866	4	leben	866	1	!	1227	1	!	1298	0	0	0	0	0	0	0	0	0	0	0	0	0	0	0	0	0	0	0	0	0	0	0	0	0	0	0
062918	16:10:49	5.0.12.0	143	notassociated	Rpleas_acq	Oppo	Rpleas	Bmasked	CS_B	1pleas	acq_unple_masked	acq45_masked	4	24	400	1	300	300	0	0	463	50	0	0	0	0	0	1	blank2r.bmp	0	1	+	0	5	C1r.bmp	492	1	blank2r.bmp	786	1	GFVZ	786	1	blank2r.bmp	866	4	pleite	866	1	!	1227	1	!	1356	0	0	0	0	0	0	0	0	0	0	0	0	0	0	0	0	0	0	0	0	0	0	0	0	0	0	0
062918	16:10:49	5.0.12.0	143	notassociated	Rpleas_acq	Oppo	Rpleas	Bmasked	CS_B	1pleas	acq_unple_masked	acq45_masked	4	25	400	0	300	300	0	0	567	46	0	1	0	0	0	1	blank2r.bmp	0	1	+	0	6	C2r.bmp	492	1	blank2r.bmp	786	1	GFVZ	786	1	blank2r.bmp	866	6	pistole	866	1	!	1227	1	!	-1	0	0	0	0	0	0	0	0	0	0	0	0	0	0	0	0	0	0	0	0	0	0	0	0	0	0	0
062918	16:10:49	5.0.12.0	143	notassociated	Rpleas_acq	Oppo	Rpleas	Bmasked	CS_B	1pleas	acq_pleas_masked	acq45_masked	4	26	400	0	300	300	0	0	658	50	0	1	0	0	0	1	blank2r.bmp	0	1	+	0	4	B4r.bmp	492	1	blank2r.bmp	786	1	BXCP	786	1	blank2r.bmp	866	3	sonne	866	1	!	1227	1	!	-1	0	0	0	0	0	0	0	0	0	0	0	0	0	0	0	0	0	0	0	0	0	0	0	0	0	0	0
062918	16:10:49	5.0.12.0	143	notassociated	Rpleas_acq	Oppo	Rpleas	Bmasked	CS_B	1pleas	acq_pleas_masked	acq45_masked	4	27	400	0	300	300	0	0	496	50	0	1	0	0	0	1	blank2r.bmp	0	1	+	0	3	B3r.bmp	492	1	blank2r.bmp	786	1	BXCP	786	1	blank2r.bmp	866	5	liebe	866	1	!	1227	1	!	-1	0	0	0	0	0	0	0	0	0	0	0	0	0	0	0	0	0	0	0	0	0	0	0	0	0	0	0
062918	16:10:49	5.0.12.0	143	notassociated	Rpleas_acq	Oppo	Rpleas	Bmasked	CS_B	1pleas	acq_unple_masked	acq45_masked	4	28	400	1	300	300	0	0	397	46	0	1	0	0	0	1	blank2r.bmp	0	1	+	0	2	B2r.bmp	492	1	blank2r.bmp	786	1	GFVZ	786	1	blank2r.bmp	866	3	übel	866	1	!	1227	1	!	1290	0	0	0	0	0	0	0	0	0	0	0	0	0	0	0	0	0	0	0	0	0	0	0	0	0	0	0
062918	16:10:49	5.0.12.0	143	notassociated	Rpleas_acq	Oppo	Rpleas	Bmasked	CS_B	1pleas	acq_pleas_masked	acq45_masked	4	29	400	0	300	300	0	0	516	50	0	1	0	0	0	1	blank2r.bmp	0	1	+	0	1	B1r.bmp	492	1	blank2r.bmp	786	1	BXCP	786	1	blank2r.bmp	866	2	knospe	866	1	!	1227	1	!	-1	0	0	0	0	0	0	0	0	0	0	0	0	0	0	0	0	0	0	0	0	0	0	0	0	0	0	0
062918	16:10:49	5.0.12.0	143	notassociated	Rpleas_acq	Oppo	Rpleas	Bmasked	CS_B	1pleas	acq_pleas_masked	acq45_masked	4	30	400	1	300	300	0	0	391	50	0	1	0	0	0	1	blank2r.bmp	0	1	+	0	8	C4r.bmp	492	1	blank2r.bmp	786	1	BXCP	786	1	blank2r.bmp	866	3	sonne	866	1	!	1227	1	!	1285	0	0	0	0	0	0	0	0	0	0	0	0	0	0	0	0	0	0	0	0	0	0	0	0	0	0	0
062918	16:10:49	5.0.12.0	143	notassociated	Rpleas_acq	Oppo	Rpleas	Bmasked	CS_B	1pleas	acq_pleas_masked	acq45_masked	4	31	400	0	300	300	0	0	655	50	0	1	0	0	0	1	blank2r.bmp	0	1	+	0	7	C3r.bmp	492	1	blank2r.bmp	786	1	BXCP	786	1	blank2r.bmp	866	2	knospe	866	1	!	1227	1	!	-1	0	0	0	0	0	0	0	0	0	0	0	0	0	0	0	0	0	0	0	0	0	0	0	0	0	0	0
062918	16:10:49	5.0.12.0	143	notassociated	Rpleas_acq	Oppo	Rpleas	Bmasked	CS_B	1pleas	acq_unple_masked	acq45_masked	4	32	400	0	300	300	0	0	509	50	0	0	0	0	0	1	blank2r.bmp	0	1	+	0	5	C1r.bmp	492	1	blank2r.bmp	786	1	GFVZ	786	1	blank2r.bmp	866	4	pleite	866	1	!	1227	1	!	-1	0	0	0	0	0	0	0	0	0	0	0	0	0	0	0	0	0	0	0	0	0	0	0	0	0	0	0
062918	16:10:49	5.0.12.0	143	notassociated	Rpleas_acq	Oppo	Rpleas	Bmasked	CS_B	1pleas	acq_pleas_masked	acq45_masked	5	1	400	1	300	300	0	0	394	46	0	0	0	0	0	1	blank2r.bmp	0	1	+	0	7	C3r.bmp	492	1	blank2r.bmp	786	1	BXCP	786	1	blank2r.bmp	866	4	leben	866	1	!	1227	1	!	1287	0	0	0	0	0	0	0	0	0	0	0	0	0	0	0	0	0	0	0	0	0	0	0	0	0	0	0
062918	16:10:49	5.0.12.0	143	notassociated	Rpleas_acq	Oppo	Rpleas	Bmasked	CS_B	1pleas	acq_unple_masked	acq45_masked	5	2	400	0	300	300	0	0	545	46	0	1	0	0	0	1	blank2r.bmp	0	1	+	0	4	B4r.bmp	492	1	blank2r.bmp	786	1	GFVZ	786	1	blank2r.bmp	866	6	pistole	866	1	!	1227	1	!	-1	0	0	0	0	0	0	0	0	0	0	0	0	0	0	0	0	0	0	0	0	0	0	0	0	0	0	0
062918	16:10:49	5.0.12.0	143	notassociated	Rpleas_acq	Oppo	Rpleas	Bmasked	CS_B	1pleas	acq_pleas_masked	acq45_masked	5	3	400	0	300	300	0	0	537	50	0	1	0	0	0	1	blank2r.bmp	0	1	+	0	8	C4r.bmp	492	1	blank2r.bmp	786	1	BXCP	786	1	blank2r.bmp	866	5	liebe	866	1	!	1227	1	!	-1	0	0	0	0	0	0	0	0	0	0	0	0	0	0	0	0	0	0	0	0	0	0	0	0	0	0	0
062918	16:10:49	5.0.12.0	143	notassociated	Rpleas_acq	Oppo	Rpleas	Bmasked	CS_B	1pleas	acq_unple_masked	acq45_masked	5	4	400	0	300	300	0	0	562	46	0	1	0	0	0	1	blank2r.bmp	0	1	+	0	6	C2r.bmp	492	1	blank2r.bmp	786	1	GFVZ	786	1	blank2r.bmp	866	1	pest	866	1	!	1227	1	!	-1	0	0	0	0	0	0	0	0	0	0	0	0	0	0	0	0	0	0	0	0	0	0	0	0	0	0	0
062918	16:10:49	5.0.12.0	143	notassociated	Rpleas_acq	Oppo	Rpleas	Bmasked	CS_B	1pleas	acq_pleas_masked	acq45_masked	5	5	400	1	300	300	0	0	381	50	0	1	0	0	0	1	blank2r.bmp	0	1	+	0	2	B2r.bmp	492	1	blank2r.bmp	786	1	BXCP	786	1	blank2r.bmp	866	6	lippe	866	1	!	1227	1	!	1274	0	0	0	0	0	0	0	0	0	0	0	0	0	0	0	0	0	0	0	0	0	0	0	0	0	0	0
062918	16:10:49	5.0.12.0	143	notassociated	Rpleas_acq	Oppo	Rpleas	Bmasked	CS_B	1pleas	acq_pleas_masked	acq45_masked	5	6	400	0	300	300	0	0	516	50	0	1	0	0	0	1	blank2r.bmp	0	1	+	0	5	C1r.bmp	492	1	blank2r.bmp	786	1	BXCP	786	1	blank2r.bmp	866	1	bett	866	1	!	1227	1	!	-1	0	0	0	0	0	0	0	0	0	0	0	0	0	0	0	0	0	0	0	0	0	0	0	0	0	0	0
062918	16:10:49	5.0.12.0	143	notassociated	Rpleas_acq	Oppo	Rpleas	Bmasked	CS_B	1pleas	acq_unple_masked	acq45_masked	5	7	400	0	300	300	0	0	500	46	0	1	0	0	0	1	blank2r.bmp	0	1	+	0	1	B1r.bmp	492	1	blank2r.bmp	786	1	GFVZ	786	1	blank2r.bmp	866	5	toxisch	866	1	!	1227	1	!	-1	0	0	0	0	0	0	0	0	0	0	0	0	0	0	0	0	0	0	0	0	0	0	0	0	0	0	0
062918	16:10:49	5.0.12.0	143	notassociated	Rpleas_acq	Oppo	Rpleas	Bmasked	CS_B	1pleas	acq_pleas_masked	acq45_masked	5	8	400	1	300	300	0	0	434	50	0	1	0	0	0	1	blank2r.bmp	0	1	+	0	3	B3r.bmp	492	1	blank2r.bmp	786	1	BXCP	786	1	blank2r.bmp	866	4	leben	866	1	!	1227	1	!	1328	0	0	0	0	0	0	0	0	0	0	0	0	0	0	0	0	0	0	0	0	0	0	0	0	0	0	0
062918	16:10:49	5.0.12.0	143	notassociated	Rpleas_acq	Oppo	Rpleas	Bmasked	CS_B	1pleas	acq_unple_masked	acq45_masked	5	9	400	1	300	300	0	0	420	46	0	1	0	0	0	1	blank2r.bmp	0	1	+	0	2	B2r.bmp	492	1	blank2r.bmp	786	1	GFVZ	786	1	blank2r.bmp	866	2	leiche	866	1	!	1227	1	!	1314	0	0	0	0	0	0	0	0	0	0	0	0	0	0	0	0	0	0	0	0	0	0	0	0	0	0	0
062918	16:10:49	5.0.12.0	143	notassociated	Rpleas_acq	Oppo	Rpleas	Bmasked	CS_B	1pleas	acq_unple_masked	acq45_masked	5	10	400	1	300	300	0	0	353	50	0	0	0	0	0	1	blank2r.bmp	0	1	+	0	6	C2r.bmp	492	1	blank2r.bmp	786	1	GFVZ	786	1	blank2r.bmp	866	2	leiche	866	1	!	1227	1	!	1247	0	0	0	0	0	0	0	0	0	0	0	0	0	0	0	0	0	0	0	0	0	0	0	0	0	0	0
062918	16:10:49	5.0.12.0	143	notassociated	Rpleas_acq	Oppo	Rpleas	Bmasked	CS_B	1pleas	acq_unple_masked	acq45_masked	5	11	400	0	300	300	0	0	593	46	0	1	0	0	0	1	blank2r.bmp	0	1	+	0	1	B1r.bmp	492	1	blank2r.bmp	786	1	GFVZ	786	1	blank2r.bmp	866	5	toxisch	866	1	!	1227	1	!	-1	0	0	0	0	0	0	0	0	0	0	0	0	0	0	0	0	0	0	0	0	0	0	0	0	0	0	0
062918	16:10:49	5.0.12.0	143	notassociated	Rpleas_acq	Oppo	Rpleas	Bmasked	CS_B	1pleas	acq_pleas_masked	acq45_masked	5	12	400	1	300	300	0	0	369	50	0	1	0	0	0	1	blank2r.bmp	0	1	+	0	8	C4r.bmp	492	1	blank2r.bmp	786	1	BXCP	786	1	blank2r.bmp	866	3	sonne	866	1	!	1227	1	!	1263	0	0	0	0	0	0	0	0	0	0	0	0	0	0	0	0	0	0	0	0	0	0	0	0	0	0	0
062918	16:10:49	5.0.12.0	143	notassociated	Rpleas_acq	Oppo	Rpleas	Bmasked	CS_B	1pleas	acq_unple_masked	acq45_masked	5	13	400	1	300	300	0	0	374	46	0	1	0	0	0	1	blank2r.bmp	0	1	+	0	3	B3r.bmp	492	1	blank2r.bmp	786	1	GFVZ	786	1	blank2r.bmp	866	3	übel	866	1	!	1227	1	!	1268	0	0	0	0	0	0	0	0	0	0	0	0	0	0	0	0	0	0	0	0	0	0	0	0	0	0	0
062918	16:10:49	5.0.12.0	143	notassociated	Rpleas_acq	Oppo	Rpleas	Bmasked	CS_B	1pleas	acq_pleas_masked	acq45_masked	5	14	400	1	300	300	0	0	443	50	0	1	0	0	0	1	blank2r.bmp	0	1	+	0	7	C3r.bmp	492	1	blank2r.bmp	786	1	BXCP	786	1	blank2r.bmp	866	1	bett	866	1	!	1227	1	!	1337	0	0	0	0	0	0	0	0	0	0	0	0	0	0	0	0	0	0	0	0	0	0	0	0	0	0	0
062918	16:10:49	5.0.12.0	143	notassociated	Rpleas_acq	Oppo	Rpleas	Bmasked	CS_B	1pleas	acq_unple_masked	acq45_masked	5	15	400	0	300	300	0	0	286	46	0	1	0	0	0	1	blank2r.bmp	0	1	+	0	4	B4r.bmp	492	1	blank2r.bmp	786	1	GFVZ	786	1	blank2r.bmp	866	4	pleite	866	1	!	-1	1	!	-1	0	0	0	0	0	0	0	0	0	0	0	0	0	0	0	0	0	0	0	0	0	0	0	0	0	0	0
062918	16:10:49	5.0.12.0	143	notassociated	Rpleas_acq	Oppo	Rpleas	Bmasked	CS_B	1pleas	acq_pleas_masked	acq45_masked	5	16	400	1	300	300	0	0	431	50	0	1	0	0	0	1	blank2r.bmp	0	1	+	0	5	C1r.bmp	492	1	blank2r.bmp	786	1	BXCP	786	1	blank2r.bmp	866	5	liebe	866	1	!	1227	1	!	1325	0	0	0	0	0	0	0	0	0	0	0	0	0	0	0	0	0	0	0	0	0	0	0	0	0	0	0
062918	16:10:49	5.0.12.0	143	notassociated	Rpleas_acq	Oppo	Rpleas	Bmasked	CS_B	1pleas	acq_unple_masked	acq45_masked	5	17	400	1	300	300	0	0	463	46	0	1	0	0	0	1	blank2r.bmp	0	1	+	0	7	C3r.bmp	492	1	blank2r.bmp	786	1	GFVZ	786	1	blank2r.bmp	866	6	pistole	866	1	!	1227	1	!	1357	0	0	0	0	0	0	0	0	0	0	0	0	0	0	0	0	0	0	0	0	0	0	0	0	0	0	0
062918	16:10:49	5.0.12.0	143	notassociated	Rpleas_acq	Oppo	Rpleas	Bmasked	CS_B	1pleas	acq_unple_masked	acq45_masked	5	18	400	0	300	300	0	0	615	46	0	1	0	0	0	1	blank2r.bmp	0	1	+	0	3	B3r.bmp	492	1	blank2r.bmp	786	1	GFVZ	786	1	blank2r.bmp	866	1	pest	866	1	!	1227	1	!	-1	0	0	0	0	0	0	0	0	0	0	0	0	0	0	0	0	0	0	0	0	0	0	0	0	0	0	0
062918	16:10:49	5.0.12.0	143	notassociated	Rpleas_acq	Oppo	Rpleas	Bmasked	CS_B	1pleas	acq_unple_masked	acq45_masked	5	19	400	0	300	300	0	0	621	46	0	1	0	0	0	1	blank2r.bmp	0	1	+	0	1	B1r.bmp	492	1	blank2r.bmp	786	1	GFVZ	786	1	blank2r.bmp	866	5	toxisch	866	1	!	1227	1	!	-1	0	0	0	0	0	0	0	0	0	0	0	0	0	0	0	0	0	0	0	0	0	0	0	0	0	0	0
062918	16:10:49	5.0.12.0	143	notassociated	Rpleas_acq	Oppo	Rpleas	Bmasked	CS_B	1pleas	acq_pleas_masked	acq45_masked	5	20	400	0	300	300	0	0	550	46	0	0	0	0	0	1	blank2r.bmp	0	1	+	0	6	C2r.bmp	492	1	blank2r.bmp	786	1	BXCP	786	1	blank2r.bmp	866	2	knospe	866	1	!	1227	1	!	-1	0	0	0	0	0	0	0	0	0	0	0	0	0	0	0	0	0	0	0	0	0	0	0	0	0	0	0
062918	16:10:49	5.0.12.0	143	notassociated	Rpleas_acq	Oppo	Rpleas	Bmasked	CS_B	1pleas	acq_unple_masked	acq45_masked	5	21	400	0	300	300	0	0	910	46	0	1	0	0	0	1	blank2r.bmp	0	1	+	0	4	B4r.bmp	492	1	blank2r.bmp	786	1	GFVZ	786	1	blank2r.bmp	866	4	pleite	866	1	!	1227	1	!	-1	0	0	0	0	0	0	0	0	0	0	0	0	0	0	0	0	0	0	0	0	0	0	0	0	0	0	0
062918	16:10:49	5.0.12.0	143	notassociated	Rpleas_acq	Oppo	Rpleas	Bmasked	CS_B	1pleas	acq_pleas_masked	acq45_masked	5	22	400	0	300	300	0	0	626	50	0	1	0	0	0	1	blank2r.bmp	0	1	+	0	2	B2r.bmp	492	1	blank2r.bmp	786	1	BXCP	786	1	blank2r.bmp	866	6	lippe	866	1	!	1227	1	!	-1	0	0	0	0	0	0	0	0	0	0	0	0	0	0	0	0	0	0	0	0	0	0	0	0	0	0	0
062918	16:10:49	5.0.12.0	143	notassociated	Rpleas_acq	Oppo	Rpleas	Bmasked	CS_B	1pleas	acq_unple_masked	acq45_masked	5	23	400	0	300	300	0	0	568	46	0	1	0	0	0	1	blank2r.bmp	0	1	+	0	8	C4r.bmp	492	1	blank2r.bmp	786	1	GFVZ	786	1	blank2r.bmp	866	1	pest	866	1	!	1227	1	!	-1	0	0	0	0	0	0	0	0	0	0	0	0	0	0	0	0	0	0	0	0	0	0	0	0	0	0	0
062918	16:10:49	5.0.12.0	143	notassociated	Rpleas_acq	Oppo	Rpleas	Bmasked	CS_B	1pleas	acq_pleas_masked	acq45_masked	5	24	400	1	300	300	0	0	387	50	0	1	0	0	0	1	blank2r.bmp	0	1	+	0	5	C1r.bmp	492	1	blank2r.bmp	786	1	BXCP	786	1	blank2r.bmp	866	5	liebe	866	1	!	1227	1	!	1280	0	0	0	0	0	0	0	0	0	0	0	0	0	0	0	0	0	0	0	0	0	0	0	0	0	0	0
062918	16:10:49	5.0.12.0	143	notassociated	Rpleas_acq	Oppo	Rpleas	Bmasked	CS_B	1pleas	acq_unple_masked	acq45_masked	5	25	400	0	300	300	0	0	522	46	0	1	0	0	0	1	blank2r.bmp	0	1	+	0	7	C3r.bmp	492	1	blank2r.bmp	786	1	GFVZ	786	1	blank2r.bmp	866	2	leiche	866	1	!	1227	1	!	-1	0	0	0	0	0	0	0	0	0	0	0	0	0	0	0	0	0	0	0	0	0	0	0	0	0	0	0
062918	16:10:49	5.0.12.0	143	notassociated	Rpleas_acq	Oppo	Rpleas	Bmasked	CS_B	1pleas	acq_pleas_masked	acq45_masked	5	26	400	0	300	300	0	0	573	46	0	0	0	0	0	1	blank2r.bmp	0	1	+	0	2	B2r.bmp	492	1	blank2r.bmp	786	1	BXCP	786	1	blank2r.bmp	866	6	lippe	866	1	!	1227	1	!	-1	0	0	0	0	0	0	0	0	0	0	0	0	0	0	0	0	0	0	0	0	0	0	0	0	0	0	0
062918	16:10:49	5.0.12.0	143	notassociated	Rpleas_acq	Oppo	Rpleas	Bmasked	CS_B	1pleas	acq_pleas_masked	acq45_masked	5	27	400	0	300	300	0	0	539	50	0	1	0	0	0	1	blank2r.bmp	0	1	+	0	5	C1r.bmp	492	1	blank2r.bmp	786	1	BXCP	786	1	blank2r.bmp	866	2	knospe	866	1	!	1227	1	!	-1	0	0	0	0	0	0	0	0	0	0	0	0	0	0	0	0	0	0	0	0	0	0	0	0	0	0	0
062918	16:10:49	5.0.12.0	143	notassociated	Rpleas_acq	Oppo	Rpleas	Bmasked	CS_B	1pleas	acq_pleas_masked	acq45_masked	5	28	400	0	300	300	0	0	755	46	0	0	0	0	0	1	blank2r.bmp	0	1	+	0	6	C2r.bmp	492	1	blank2r.bmp	786	1	BXCP	786	1	blank2r.bmp	866	1	bett	866	1	!	1227	1	!	-1	0	0	0	0	0	0	0	0	0	0	0	0	0	0	0	0	0	0	0	0	0	0	0	0	0	0	0
062918	16:10:49	5.0.12.0	143	notassociated	Rpleas_acq	Oppo	Rpleas	Bmasked	CS_B	1pleas	acq_pleas_masked	acq45_masked	5	29	400	0	300	300	0	0	471	50	0	1	0	0	0	1	blank2r.bmp	0	1	+	0	4	B4r.bmp	492	1	blank2r.bmp	786	1	BXCP	786	1	blank2r.bmp	866	3	sonne	866	1	!	1227	1	!	-1	0	0	0	0	0	0	0	0	0	0	0	0	0	0	0	0	0	0	0	0	0	0	0	0	0	0	0
062918	16:10:49	5.0.12.0	143	notassociated	Rpleas_acq	Oppo	Rpleas	Bmasked	CS_B	1pleas	acq_unple_masked	acq45_masked	5	30	400	0	300	300	0	0	495	50	0	0	0	0	0	1	blank2r.bmp	0	1	+	0	8	C4r.bmp	492	1	blank2r.bmp	786	1	GFVZ	786	1	blank2r.bmp	866	3	übel	866	1	!	1227	1	!	-1	0	0	0	0	0	0	0	0	0	0	0	0	0	0	0	0	0	0	0	0	0	0	0	0	0	0	0
062918	16:10:49	5.0.12.0	143	notassociated	Rpleas_acq	Oppo	Rpleas	Bmasked	CS_B	1pleas	acq_unple_masked	acq45_masked	5	31	400	1	300	300	0	0	380	46	0	1	0	0	0	1	blank2r.bmp	0	1	+	0	3	B3r.bmp	492	1	blank2r.bmp	786	1	GFVZ	786	1	blank2r.bmp	866	6	pistole	866	1	!	1227	1	!	1274	0	0	0	0	0	0	0	0	0	0	0	0	0	0	0	0	0	0	0	0	0	0	0	0	0	0	0
062918	16:10:49	5.0.12.0	143	notassociated	Rpleas_acq	Oppo	Rpleas	Bmasked	CS_B	1pleas	acq_pleas_masked	acq45_masked	5	32	400	1	300	300	0	0	385	50	0	1	0	0	0	1	blank2r.bmp	0	1	+	0	1	B1r.bmp	492	1	blank2r.bmp	786	1	BXCP	786	1	blank2r.bmp	866	4	leben	866	1	!	1227	1	!	1279	0	0	0	0	0	0	0	0	0	0	0	0	0	0	0	0	0	0	0	0	0	0	0	0	0	0	0
062918	16:10:49	5.0.12.0	143	notassociated	Rpleas_acq	Oppo	Lpleas	Bmasked	CS_B	1pleas	cond_US_unple_123_masked_CS1	condtest_masked_1	6	1	400	0	300	300	0	0	687	46	0	0	0	0	0	1	blank2r.bmp	0	1	+	0	6	C2r.bmp	492	1	blank2r.bmp	786	1	BXCP	786	1	blank2r.bmp	866	3	übel	866	1	!	1227	1	!	-1	0	0	0	0	0	0	0	0	0	0	0	0	0	0	0	0	0	0	0	0	0	0	0	0	0	0	0
062918	16:10:49	5.0.12.0	143	notassociated	Rpleas_acq	Oppo	Lpleas	Bmasked	CS_B	1pleas	cond_US_pleas_123_masked_CS1	condtest_masked_1	6	2	400	0	300	300	0	0	514	50	0	0	0	0	0	1	blank2r.bmp	0	1	+	0	2	B2r.bmp	492	1	blank2r.bmp	786	1	BXCP	786	1	blank2r.bmp	866	3	sonne	866	1	!	1227	1	!	-1	0	0	0	0	0	0	0	0	0	0	0	0	0	0	0	0	0	0	0	0	0	0	0	0	0	0	0
062918	16:10:49	5.0.12.0	143	notassociated	Rpleas_acq	Oppo	Lpleas	Bmasked	CS_B	1pleas	cond_US_pleas_123_masked_CS2	condtest_masked_1	6	3	400	1	300	300	0	0	389	46	0	1	0	0	0	1	blank2r.bmp	0	1	+	0	7	C3r.bmp	492	1	blank2r.bmp	786	1	GFVZ	786	1	blank2r.bmp	866	1	bett	866	1	!	1227	1	!	1283	0	0	0	0	0	0	0	0	0	0	0	0	0	0	0	0	0	0	0	0	0	0	0	0	0	0	0
062918	16:10:49	5.0.12.0	143	notassociated	Rpleas_acq	Oppo	Lpleas	Bmasked	CS_B	1pleas	cond_new_unple_456_masked_CS1	condtest_masked_1	6	4	400	0	300	300	0	0	637	46	0	0	0	0	0	1	blank2r.bmp	0	1	+	0	3	B3r.bmp	492	1	blank2r.bmp	786	1	BXCP	786	1	blank2r.bmp	866	1	sekte	866	1	!	1227	1	!	-1	0	0	0	0	0	0	0	0	0	0	0	0	0	0	0	0	0	0	0	0	0	0	0	0	0	0	0
062918	16:10:49	5.0.12.0	143	notassociated	Rpleas_acq	Oppo	Lpleas	Bmasked	CS_B	1pleas	cond_US_unple_123_masked_CS2	condtest_masked_1	6	5	400	0	300	300	0	0	840	46	0	0	0	0	0	1	blank2r.bmp	0	1	+	0	8	C4r.bmp	492	1	blank2r.bmp	786	1	GFVZ	786	1	blank2r.bmp	866	2	leiche	866	1	!	1227	1	!	-1	0	0	0	0	0	0	0	0	0	0	0	0	0	0	0	0	0	0	0	0	0	0	0	0	0	0	0
062918	16:10:49	5.0.12.0	143	notassociated	Rpleas_acq	Oppo	Lpleas	Bmasked	CS_B	1pleas	cond_new_unple_456_masked_CS2	condtest_masked_1	6	6	400	0	300	300	0	0	620	46	0	0	0	0	0	1	blank2r.bmp	0	1	+	0	5	C1r.bmp	492	1	blank2r.bmp	786	1	GFVZ	786	1	blank2r.bmp	866	2	eitel	866	1	!	1227	1	!	-1	0	0	0	0	0	0	0	0	0	0	0	0	0	0	0	0	0	0	0	0	0	0	0	0	0	0	0
062918	16:10:49	5.0.12.0	143	notassociated	Rpleas_acq	Oppo	Lpleas	Bmasked	CS_B	1pleas	cond_new_pleas_456_masked_CS1	condtest_masked_1	6	7	400	0	300	300	0	0	610	50	0	0	0	0	0	1	blank2r.bmp	0	1	+	0	4	B4r.bmp	492	1	blank2r.bmp	786	1	BXCP	786	1	blank2r.bmp	866	1	keks	866	1	!	1227	1	!	-1	0	0	0	0	0	0	0	0	0	0	0	0	0	0	0	0	0	0	0	0	0	0	0	0	0	0	0
062918	16:10:49	5.0.12.0	143	notassociated	Rpleas_acq	Oppo	Lpleas	Bmasked	CS_B	1pleas	cond_new_pleas_456_masked_CS2	condtest_masked_1	6	8	400	0	300	300	0	0	776	50	0	0	0	0	0	1	blank2r.bmp	0	1	+	0	1	B1r.bmp	492	1	blank2r.bmp	786	1	GFVZ	786	1	blank2r.bmp	866	3	eiche	866	1	!	1227	1	!	-1	0	0	0	0	0	0	0	0	0	0	0	0	0	0	0	0	0	0	0	0	0	0	0	0	0	0	0
062918	16:10:49	5.0.12.0	143	notassociated	Rpleas_acq	Oppo	Lpleas	Bmasked	CS_B	1pleas	cond_US_pleas_123_masked_CS1	condtest_masked_2	7	1	400	0	300	300	0	0	501	50	0	0	0	0	0	1	blank2r.bmp	0	1	+	0	8	C4r.bmp	492	1	blank2r.bmp	786	1	BXCP	786	1	blank2r.bmp	866	2	knospe	866	1	!	1227	1	!	-1	0	0	0	0	0	0	0	0	0	0	0	0	0	0	0	0	0	0	0	0	0	0	0	0	0	0	0
062918	16:10:49	5.0.12.0	143	notassociated	Rpleas_acq	Oppo	Lpleas	Bmasked	CS_B	1pleas	cond_US_unple_123_masked_CS2	condtest_masked_2	7	2	400	1	300	300	0	0	454	46	0	0	0	0	0	1	blank2r.bmp	0	1	+	0	4	B4r.bmp	492	1	blank2r.bmp	786	1	GFVZ	786	1	blank2r.bmp	866	1	pest	866	1	!	1227	1	!	1347	0	0	0	0	0	0	0	0	0	0	0	0	0	0	0	0	0	0	0	0	0	0	0	0	0	0	0
062918	16:10:49	5.0.12.0	143	notassociated	Rpleas_acq	Oppo	Lpleas	Bmasked	CS_B	1pleas	cond_US_unple_123_masked_CS1	condtest_masked_2	7	3	400	0	300	300	0	0	507	46	0	0	0	0	0	1	blank2r.bmp	0	1	+	0	5	C1r.bmp	492	1	blank2r.bmp	786	1	BXCP	786	1	blank2r.bmp	866	2	leiche	866	1	!	1227	1	!	-1	0	0	0	0	0	0	0	0	0	0	0	0	0	0	0	0	0	0	0	0	0	0	0	0	0	0	0
062918	16:10:49	5.0.12.0	143	notassociated	Rpleas_acq	Oppo	Lpleas	Bmasked	CS_B	1pleas	cond_US_pleas_123_masked_CS1	condtest_masked_2	7	4	400	1	300	300	0	0	459	50	0	0	0	0	0	1	blank2r.bmp	0	1	+	0	7	C3r.bmp	492	1	blank2r.bmp	786	1	BXCP	786	1	blank2r.bmp	866	2	knospe	866	1	!	1227	1	!	1352	0	0	0	0	0	0	0	0	0	0	0	0	0	0	0	0	0	0	0	0	0	0	0	0	0	0	0
062918	16:10:49	5.0.12.0	143	notassociated	Rpleas_acq	Oppo	Lpleas	Bmasked	CS_B	1pleas	cond_new_unple_456_masked_CS1	condtest_masked_2	7	5	400	0	300	300	0	0	1024	46	0	0	0	0	0	1	blank2r.bmp	0	1	+	0	3	B3r.bmp	492	1	blank2r.bmp	786	1	BXCP	786	1	blank2r.bmp	866	3	stinken	866	1	!	1227	1	!	-1	0	0	0	0	0	0	0	0	0	0	0	0	0	0	0	0	0	0	0	0	0	0	0	0	0	0	0
062918	16:10:49	5.0.12.0	143	notassociated	Rpleas_acq	Oppo	Lpleas	Bmasked	CS_B	1pleas	cond_US_pleas_123_masked_CS2	condtest_masked_2	7	6	400	0	300	300	0	0	490	50	0	0	0	0	0	1	blank2r.bmp	0	1	+	0	2	B2r.bmp	492	1	blank2r.bmp	786	1	GFVZ	786	1	blank2r.bmp	866	3	sonne	866	1	!	1227	1	!	-1	0	0	0	0	0	0	0	0	0	0	0	0	0	0	0	0	0	0	0	0	0	0	0	0	0	0	0
062918	16:10:49	5.0.12.0	143	notassociated	Rpleas_acq	Oppo	Lpleas	Bmasked	CS_B	1pleas	cond_US_unple_123_masked_CS1	condtest_masked_2	7	7	400	0	300	300	0	0	693	46	0	0	0	0	0	1	blank2r.bmp	0	1	+	0	1	B1r.bmp	492	1	blank2r.bmp	786	1	BXCP	786	1	blank2r.bmp	866	1	pest	866	1	!	1227	1	!	-1	0	0	0	0	0	0	0	0	0	0	0	0	0	0	0	0	0	0	0	0	0	0	0	0	0	0	0
062918	16:10:49	5.0.12.0	143	notassociated	Rpleas_acq	Oppo	Lpleas	Bmasked	CS_B	1pleas	cond_new_pleas_456_masked_CS1	condtest_masked_2	7	8	400	0	300	300	0	0	808	46	0	1	0	0	0	1	blank2r.bmp	0	1	+	0	6	C2r.bmp	492	1	blank2r.bmp	786	1	BXCP	786	1	blank2r.bmp	866	2	pointe	866	1	!	1227	1	!	-1	0	0	0	0	0	0	0	0	0	0	0	0	0	0	0	0	0	0	0	0	0	0	0	0	0	0	0
062918	16:10:49	5.0.12.0	143	notassociated	Rpleas_acq	Oppo	Lpleas	Bmasked	CS_B	1pleas	cond_new_unple_456_masked_CS2	condtest_masked_2	7	9	400	0	300	300	0	0	596	46	0	0	0	0	0	1	blank2r.bmp	0	1	+	0	3	B3r.bmp	492	1	blank2r.bmp	786	1	GFVZ	786	1	blank2r.bmp	866	3	stinken	866	1	!	1227	1	!	-1	0	0	0	0	0	0	0	0	0	0	0	0	0	0	0	0	0	0	0	0	0	0	0	0	0	0	0
062918	16:10:49	5.0.12.0	143	notassociated	Rpleas_acq	Oppo	Lpleas	Bmasked	CS_B	1pleas	cond_new_pleas_456_masked_CS2	condtest_masked_2	7	10	400	1	300	300	0	0	452	50	0	0	0	0	0	1	blank2r.bmp	0	1	+	0	6	C2r.bmp	492	1	blank2r.bmp	786	1	GFVZ	786	1	blank2r.bmp	866	1	keks	866	1	!	1227	1	!	1346	0	0	0	0	0	0	0	0	0	0	0	0	0	0	0	0	0	0	0	0	0	0	0	0	0	0	0
062918	16:10:49	5.0.12.0	143	notassociated	Rpleas_acq	Oppo	Lpleas	Bmasked	CS_B	1pleas	cond_US_unple_123_masked_CS2	condtest_masked_2	7	11	400	0	300	300	0	0	490	46	0	0	0	0	0	1	blank2r.bmp	0	1	+	0	5	C1r.bmp	492	1	blank2r.bmp	786	1	GFVZ	786	1	blank2r.bmp	866	3	übel	866	1	!	1227	1	!	-1	0	0	0	0	0	0	0	0	0	0	0	0	0	0	0	0	0	0	0	0	0	0	0	0	0	0	0
062918	16:10:49	5.0.12.0	143	notassociated	Rpleas_acq	Oppo	Lpleas	Bmasked	CS_B	1pleas	cond_US_unple_123_masked_CS2	condtest_masked_2	7	12	400	0	300	300	0	0	532	46	0	0	0	0	0	1	blank2r.bmp	0	1	+	0	1	B1r.bmp	492	1	blank2r.bmp	786	1	GFVZ	786	1	blank2r.bmp	866	3	übel	866	1	!	1227	1	!	-1	0	0	0	0	0	0	0	0	0	0	0	0	0	0	0	0	0	0	0	0	0	0	0	0	0	0	0
062918	16:10:49	5.0.12.0	143	notassociated	Rpleas_acq	Oppo	Lpleas	Bmasked	CS_B	1pleas	cond_new_unple_456_masked_CS2	condtest_masked_2	7	13	400	0	300	300	0	0	522	50	0	1	0	0	0	1	blank2r.bmp	0	1	+	0	2	B2r.bmp	492	1	blank2r.bmp	786	1	GFVZ	786	1	blank2r.bmp	866	2	eitel	866	1	!	1227	1	!	-1	0	0	0	0	0	0	0	0	0	0	0	0	0	0	0	0	0	0	0	0	0	0	0	0	0	0	0
062918	16:10:49	5.0.12.0	143	notassociated	Rpleas_acq	Oppo	Lpleas	Bmasked	CS_B	1pleas	cond_US_pleas_123_masked_CS1	condtest_masked_2	7	14	400	0	300	300	0	0	716	50	0	0	0	0	0	1	blank2r.bmp	0	1	+	0	7	C3r.bmp	492	1	blank2r.bmp	786	1	BXCP	786	1	blank2r.bmp	866	1	bett	866	1	!	1227	1	!	-1	0	0	0	0	0	0	0	0	0	0	0	0	0	0	0	0	0	0	0	0	0	0	0	0	0	0	0
062918	16:10:49	5.0.12.0	143	notassociated	Rpleas_acq	Oppo	Lpleas	Bmasked	CS_B	1pleas	cond_US_pleas_123_masked_CS2	condtest_masked_2	7	15	400	1	300	300	0	0	424	46	0	1	0	0	0	1	blank2r.bmp	0	1	+	0	4	B4r.bmp	492	1	blank2r.bmp	786	1	GFVZ	786	1	blank2r.bmp	866	2	knospe	866	1	!	1227	1	!	1318	0	0	0	0	0	0	0	0	0	0	0	0	0	0	0	0	0	0	0	0	0	0	0	0	0	0	0
062918	16:10:49	5.0.12.0	143	notassociated	Rpleas_acq	Oppo	Lpleas	Bmasked	CS_B	1pleas	cond_US_pleas_123_masked_CS1	condtest_masked_2	7	16	400	0	300	300	0	0	597	50	0	0	0	0	0	1	blank2r.bmp	0	1	+	0	8	C4r.bmp	492	1	blank2r.bmp	786	1	BXCP	786	1	blank2r.bmp	866	1	bett	866	1	!	1227	1	!	-1	0	0	0	0	0	0	0	0	0	0	0	0	0	0	0	0	0	0	0	0	0	0	0	0	0	0	0
062918	16:10:49	5.0.12.0	143	notassociated	Rpleas_acq	Oppo	Lpleas	Bmasked	CS_B	1pleas	cond_new_unple_456_masked_CS2	condtest_masked_2	7	17	400	1	300	300	0	0	424	46	0	0	0	0	0	1	blank2r.bmp	0	1	+	0	7	C3r.bmp	492	1	blank2r.bmp	786	1	GFVZ	786	1	blank2r.bmp	866	1	sekte	866	1	!	1227	1	!	1318	0	0	0	0	0	0	0	0	0	0	0	0	0	0	0	0	0	0	0	0	0	0	0	0	0	0	0
062918	16:10:49	5.0.12.0	143	notassociated	Rpleas_acq	Oppo	Lpleas	Bmasked	CS_B	1pleas	cond_new_pleas_456_masked_CS2	condtest_masked_2	7	18	400	0	300	300	0	0	965	50	0	0	0	0	0	1	blank2r.bmp	0	1	+	0	8	C4r.bmp	492	1	blank2r.bmp	786	1	GFVZ	786	1	blank2r.bmp	866	3	eiche	866	1	!	1227	1	!	-1	0	0	0	0	0	0	0	0	0	0	0	0	0	0	0	0	0	0	0	0	0	0	0	0	0	0	0
062918	16:10:49	5.0.12.0	143	notassociated	Rpleas_acq	Oppo	Lpleas	Bmasked	CS_B	1pleas	cond_US_pleas_123_masked_CS1	condtest_masked_2	7	19	400	0	300	300	0	0	996	46	0	1	0	0	0	1	blank2r.bmp	0	1	+	0	4	B4r.bmp	492	1	blank2r.bmp	786	1	BXCP	786	1	blank2r.bmp	866	3	sonne	866	1	!	1227	1	!	-1	0	0	0	0	0	0	0	0	0	0	0	0	0	0	0	0	0	0	0	0	0	0	0	0	0	0	0
062918	16:10:49	5.0.12.0	143	notassociated	Rpleas_acq	Oppo	Lpleas	Bmasked	CS_B	1pleas	cond_new_pleas_456_masked_CS2	condtest_masked_2	7	20	400	0	300	300	0	0	3702	50	0	0	0	0	0	1	blank2r.bmp	0	1	+	0	1	B1r.bmp	492	1	blank2r.bmp	786	1	GFVZ	786	1	blank2r.bmp	866	2	pointe	866	1	!	1227	1	!	-1	0	0	0	0	0	0	0	0	0	0	0	0	0	0	0	0	0	0	0	0	0	0	0	0	0	0	0
062918	16:10:49	5.0.12.0	143	notassociated	Rpleas_acq	Oppo	Lpleas	Bmasked	CS_B	1pleas	cond_new_unple_456_masked_CS2	condtest_masked_2	7	21	400	0	300	300	0	0	657	50	0	1	0	0	0	1	blank2r.bmp	0	1	+	0	2	B2r.bmp	492	1	blank2r.bmp	786	1	GFVZ	786	1	blank2r.bmp	866	2	eitel	866	1	!	1227	1	!	-1	0	0	0	0	0	0	0	0	0	0	0	0	0	0	0	0	0	0	0	0	0	0	0	0	0	0	0
062918	16:10:49	5.0.12.0	143	notassociated	Rpleas_acq	Oppo	Lpleas	Bmasked	CS_B	1pleas	cond_new_unple_456_masked_CS1	condtest_masked_2	7	22	400	0	300	300	0	0	607	50	0	1	0	0	0	1	blank2r.bmp	0	1	+	0	3	B3r.bmp	492	1	blank2r.bmp	786	1	BXCP	786	1	blank2r.bmp	866	3	stinken	866	1	!	1227	1	!	-1	0	0	0	0	0	0	0	0	0	0	0	0	0	0	0	0	0	0	0	0	0	0	0	0	0	0	0
062918	16:10:49	5.0.12.0	143	notassociated	Rpleas_acq	Oppo	Lpleas	Bmasked	CS_B	1pleas	cond_US_pleas_123_masked_CS2	condtest_masked_2	7	23	400	0	300	300	0	0	709	46	0	1	0	0	0	1	blank2r.bmp	0	1	+	0	6	C2r.bmp	492	1	blank2r.bmp	786	1	GFVZ	786	1	blank2r.bmp	866	2	knospe	866	1	!	1227	1	!	-1	0	0	0	0	0	0	0	0	0	0	0	0	0	0	0	0	0	0	0	0	0	0	0	0	0	0	0
062918	16:10:49	5.0.12.0	143	notassociated	Rpleas_acq	Oppo	Lpleas	Bmasked	CS_B	1pleas	cond_new_unple_456_masked_CS1	condtest_masked_2	7	24	400	1	300	300	0	0	433	50	0	1	0	0	0	1	blank2r.bmp	0	1	+	0	5	C1r.bmp	492	1	blank2r.bmp	786	1	BXCP	786	1	blank2r.bmp	866	1	sekte	866	1	!	1227	1	!	1326	0	0	0	0	0	0	0	0	0	0	0	0	0	0	0	0	0	0	0	0	0	0	0	0	0	0	0
062918	16:10:49	5.0.12.0	143	notassociated	Rpleas_acq	Oppo	Lpleas	Bmasked	CS_B	1pleas	cond_new_pleas_456_masked_CS1	condtest_masked_2	7	25	400	0	300	300	0	0	656	50	0	0	0	0	0	1	blank2r.bmp	0	1	+	0	1	B1r.bmp	492	1	blank2r.bmp	786	1	BXCP	786	1	blank2r.bmp	866	3	eiche	866	1	!	1227	1	!	-1	0	0	0	0	0	0	0	0	0	0	0	0	0	0	0	0	0	0	0	0	0	0	0	0	0	0	0
062918	16:10:49	5.0.12.0	143	notassociated	Rpleas_acq	Oppo	Lpleas	Bmasked	CS_B	1pleas	cond_US_unple_123_masked_CS1	condtest_masked_2	7	26	400	0	300	300	0	0	542	46	0	0	0	0	0	1	blank2r.bmp	0	1	+	0	2	B2r.bmp	492	1	blank2r.bmp	786	1	BXCP	786	1	blank2r.bmp	866	2	leiche	866	1	!	1227	1	!	-1	0	0	0	0	0	0	0	0	0	0	0	0	0	0	0	0	0	0	0	0	0	0	0	0	0	0	0
062918	16:10:49	5.0.12.0	143	notassociated	Rpleas_acq	Oppo	Lpleas	Bmasked	CS_B	1pleas	cond_US_unple_123_masked_CS2	condtest_masked_2	7	27	400	0	300	300	0	0	519	50	0	1	0	0	0	1	blank2r.bmp	0	1	+	0	3	B3r.bmp	492	1	blank2r.bmp	786	1	GFVZ	786	1	blank2r.bmp	866	1	pest	866	1	!	1227	1	!	-1	0	0	0	0	0	0	0	0	0	0	0	0	0	0	0	0	0	0	0	0	0	0	0	0	0	0	0
062918	16:10:49	5.0.12.0	143	notassociated	Rpleas_acq	Oppo	Lpleas	Bmasked	CS_B	1pleas	cond_new_pleas_456_masked_CS1	condtest_masked_2	7	28	400	0	300	300	0	0	535	50	0	0	0	0	0	1	blank2r.bmp	0	1	+	0	7	C3r.bmp	492	1	blank2r.bmp	786	1	BXCP	786	1	blank2r.bmp	866	1	keks	866	1	!	1227	1	!	-1	0	0	0	0	0	0	0	0	0	0	0	0	0	0	0	0	0	0	0	0	0	0	0	0	0	0	0
062918	16:10:49	5.0.12.0	143	notassociated	Rpleas_acq	Oppo	Lpleas	Bmasked	CS_B	1pleas	cond_new_pleas_456_masked_CS2	condtest_masked_2	7	29	400	0	300	300	0	0	924	50	0	0	0	0	0	1	blank2r.bmp	0	1	+	0	4	B4r.bmp	492	1	blank2r.bmp	786	1	GFVZ	786	1	blank2r.bmp	866	2	pointe	866	1	!	1227	1	!	-1	0	0	0	0	0	0	0	0	0	0	0	0	0	0	0	0	0	0	0	0	0	0	0	0	0	0	0
062918	16:10:49	5.0.12.0	143	notassociated	Rpleas_acq	Oppo	Lpleas	Bmasked	CS_B	1pleas	cond_new_pleas_456_masked_CS1	condtest_masked_2	7	30	400	1	300	300	0	0	384	46	0	1	0	0	0	1	blank2r.bmp	0	1	+	0	5	C1r.bmp	492	1	blank2r.bmp	786	1	BXCP	786	1	blank2r.bmp	866	3	eiche	866	1	!	1227	1	!	1278	0	0	0	0	0	0	0	0	0	0	0	0	0	0	0	0	0	0	0	0	0	0	0	0	0	0	0
062918	16:10:49	5.0.12.0	143	notassociated	Rpleas_acq	Oppo	Lpleas	Bmasked	CS_B	1pleas	cond_US_unple_123_masked_CS2	condtest_masked_2	7	31	400	0	300	300	0	0	664	50	0	1	0	0	0	1	blank2r.bmp	0	1	+	0	6	C2r.bmp	492	1	blank2r.bmp	786	1	GFVZ	786	1	blank2r.bmp	866	2	leiche	866	1	!	1227	1	!	-1	0	0	0	0	0	0	0	0	0	0	0	0	0	0	0	0	0	0	0	0	0	0	0	0	0	0	0
062918	16:10:49	5.0.12.0	143	notassociated	Rpleas_acq	Oppo	Lpleas	Bmasked	CS_B	1pleas	cond_US_pleas_123_masked_CS2	condtest_masked_2	7	32	400	0	300	300	0	0	505	46	0	1	0	0	0	1	blank2r.bmp	0	1	+	0	8	C4r.bmp	492	1	blank2r.bmp	786	1	GFVZ	786	1	blank2r.bmp	866	3	sonne	866	1	!	1227	1	!	-1	0	0	0	0	0	0	0	0	0	0	0	0	0	0	0	0	0	0	0	0	0	0	0	0	0	0	0
062918	16:10:49	5.0.12.0	143	notassociated	Rpleas_acq	Oppo	Lpleas	Bmasked	CS_B	1pleas	cond_US_unple_123_masked_CS1	condtest_masked_2	7	33	400	0	300	300	0	0	310	50	0	1	0	0	0	1	blank2r.bmp	0	1	+	0	3	B3r.bmp	492	1	blank2r.bmp	786	1	BXCP	786	1	blank2r.bmp	866	3	übel	866	1	!	-1	1	!	-1	0	0	0	0	0	0	0	0	0	0	0	0	0	0	0	0	0	0	0	0	0	0	0	0	0	0	0
062918	16:10:49	5.0.12.0	143	notassociated	Rpleas_acq	Oppo	Lpleas	Bmasked	CS_B	1pleas	cond_new_unple_456_masked_CS1	condtest_masked_2	7	34	400	0	300	300	0	0	656	46	0	0	0	0	0	1	blank2r.bmp	0	1	+	0	2	B2r.bmp	492	1	blank2r.bmp	786	1	BXCP	786	1	blank2r.bmp	866	3	stinken	866	1	!	1227	1	!	-1	0	0	0	0	0	0	0	0	0	0	0	0	0	0	0	0	0	0	0	0	0	0	0	0	0	0	0
062918	16:10:49	5.0.12.0	143	notassociated	Rpleas_acq	Oppo	Lpleas	Bmasked	CS_B	1pleas	cond_US_unple_123_masked_CS1	condtest_masked_2	7	35	400	0	300	300	0	0	734	50	0	1	0	0	0	1	blank2r.bmp	0	1	+	0	6	C2r.bmp	492	1	blank2r.bmp	786	1	BXCP	786	1	blank2r.bmp	866	1	pest	866	1	!	1227	1	!	-1	0	0	0	0	0	0	0	0	0	0	0	0	0	0	0	0	0	0	0	0	0	0	0	0	0	0	0
062918	16:10:49	5.0.12.0	143	notassociated	Rpleas_acq	Oppo	Lpleas	Bmasked	CS_B	1pleas	cond_new_unple_456_masked_CS2	condtest_masked_2	7	36	400	0	300	300	0	0	857	50	0	1	0	0	0	1	blank2r.bmp	0	1	+	0	5	C1r.bmp	492	1	blank2r.bmp	786	1	GFVZ	786	1	blank2r.bmp	866	2	eitel	866	1	!	1227	1	!	-1	0	0	0	0	0	0	0	0	0	0	0	0	0	0	0	0	0	0	0	0	0	0	0	0	0	0	0
062918	16:10:49	5.0.12.0	143	notassociated	Rpleas_acq	Oppo	Lpleas	Bmasked	CS_B	1pleas	cond_new_unple_456_masked_CS1	condtest_masked_2	7	37	400	0	300	300	0	0	467	50	0	1	0	0	0	1	blank2r.bmp	0	1	+	0	1	B1r.bmp	492	1	blank2r.bmp	786	1	BXCP	786	1	blank2r.bmp	866	1	sekte	866	1	!	1227	1	!	-1	0	0	0	0	0	0	0	0	0	0	0	0	0	0	0	0	0	0	0	0	0	0	0	0	0	0	0
062918	16:10:49	5.0.12.0	143	notassociated	Rpleas_acq	Oppo	Lpleas	Bmasked	CS_B	1pleas	cond_new_pleas_456_masked_CS2	condtest_masked_2	7	38	400	0	300	300	0	0	539	46	0	1	0	0	0	1	blank2r.bmp	0	1	+	0	7	C3r.bmp	492	1	blank2r.bmp	786	1	GFVZ	786	1	blank2r.bmp	866	1	keks	866	1	!	1227	1	!	-1	0	0	0	0	0	0	0	0	0	0	0	0	0	0	0	0	0	0	0	0	0	0	0	0	0	0	0
062918	16:10:49	5.0.12.0	143	notassociated	Rpleas_acq	Oppo	Lpleas	Bmasked	CS_B	1pleas	cond_US_pleas_123_masked_CS2	condtest_masked_2	7	39	400	1	300	300	0	0	448	50	0	0	0	0	0	1	blank2r.bmp	0	1	+	0	4	B4r.bmp	492	1	blank2r.bmp	786	1	GFVZ	786	1	blank2r.bmp	866	1	bett	866	1	!	1227	1	!	1342	0	0	0	0	0	0	0	0	0	0	0	0	0	0	0	0	0	0	0	0	0	0	0	0	0	0	0
062918	16:10:49	5.0.12.0	143	notassociated	Rpleas_acq	Oppo	Lpleas	Bmasked	CS_B	1pleas	cond_new_pleas_456_masked_CS1	condtest_masked_2	7	40	400	0	300	300	0	0	611	50	0	0	0	0	0	1	blank2r.bmp	0	1	+	0	8	C4r.bmp	492	1	blank2r.bmp	786	1	BXCP	786	1	blank2r.bmp	866	2	pointe	866	1	!	1227	1	!	-1	0	0	0	0	0	0	0	0	0	0	0	0	0	0	0	0	0	0	0	0	0	0	0	0	0	0	0
062918	16:10:49	5.0.12.0	143	notassociated	Rpleas_acq	Oppo	Lpleas	Bmasked	CS_B	1pleas	cond_new_pleas_123_masked_CS2	condtest_masked_3	8	1	400	0	300	300	0	0	497	46	0	1	0	0	0	1	blank2r.bmp	0	1	+	0	6	C2r.bmp	492	1	blank2r.bmp	786	1	GFVZ	786	1	blank2r.bmp	866	3	nähe	866	1	!	1227	1	!	-1	0	0	0	0	0	0	0	0	0	0	0	0	0	0	0	0	0	0	0	0	0	0	0	0	0	0	0
062918	16:10:49	5.0.12.0	143	notassociated	Rpleas_acq	Oppo	Lpleas	Bmasked	CS_B	1pleas	cond_US_pleas_456_masked_CS2	condtest_masked_3	8	2	400	0	300	300	0	0	590	46	0	1	0	0	0	1	blank2r.bmp	0	1	+	0	8	C4r.bmp	492	1	blank2r.bmp	786	1	GFVZ	786	1	blank2r.bmp	866	3	lippe	866	1	!	1227	1	!	-1	0	0	0	0	0	0	0	0	0	0	0	0	0	0	0	0	0	0	0	0	0	0	0	0	0	0	0
062918	16:10:49	5.0.12.0	143	notassociated	Rpleas_acq	Oppo	Lpleas	Bmasked	CS_B	1pleas	cond_US_unple_456_masked_CS1	condtest_masked_3	8	3	400	0	300	300	0	0	495	50	0	1	0	0	0	1	blank2r.bmp	0	1	+	0	1	B1r.bmp	492	1	blank2r.bmp	786	1	BXCP	786	1	blank2r.bmp	866	3	pistole	866	1	!	1227	1	!	-1	0	0	0	0	0	0	0	0	0	0	0	0	0	0	0	0	0	0	0	0	0	0	0	0	0	0	0
062918	16:10:49	5.0.12.0	143	notassociated	Rpleas_acq	Oppo	Lpleas	Bmasked	CS_B	1pleas	cond_new_pleas_123_masked_CS1	condtest_masked_3	8	4	400	0	300	300	0	0	876	46	0	1	0	0	0	1	blank2r.bmp	0	1	+	0	5	C1r.bmp	492	1	blank2r.bmp	786	1	BXCP	786	1	blank2r.bmp	866	1	küken	866	1	!	1227	1	!	-1	0	0	0	0	0	0	0	0	0	0	0	0	0	0	0	0	0	0	0	0	0	0	0	0	0	0	0
062918	16:10:49	5.0.12.0	143	notassociated	Rpleas_acq	Oppo	Lpleas	Bmasked	CS_B	1pleas	cond_US_unple_456_masked_CS1	condtest_masked_3	8	5	400	1	300	300	0	0	421	50	0	1	0	0	0	1	blank2r.bmp	0	1	+	0	7	C3r.bmp	492	1	blank2r.bmp	786	1	BXCP	786	1	blank2r.bmp	866	1	pleite	866	1	!	1227	1	!	1315	0	0	0	0	0	0	0	0	0	0	0	0	0	0	0	0	0	0	0	0	0	0	0	0	0	0	0
062918	16:10:49	5.0.12.0	143	notassociated	Rpleas_acq	Oppo	Lpleas	Bmasked	CS_B	1pleas	cond_US_pleas_456_masked_CS1	condtest_masked_3	8	6	400	0	300	300	0	0	501	46	0	1	0	0	0	1	blank2r.bmp	0	1	+	0	3	B3r.bmp	492	1	blank2r.bmp	786	1	BXCP	786	1	blank2r.bmp	866	2	liebe	866	1	!	1227	1	!	-1	0	0	0	0	0	0	0	0	0	0	0	0	0	0	0	0	0	0	0	0	0	0	0	0	0	0	0
062918	16:10:49	5.0.12.0	143	notassociated	Rpleas_acq	Oppo	Lpleas	Bmasked	CS_B	1pleas	cond_new_pleas_123_masked_CS2	condtest_masked_3	8	7	400	0	300	300	0	0	675	46	0	1	0	0	0	1	blank2r.bmp	0	1	+	0	4	B4r.bmp	492	1	blank2r.bmp	786	1	GFVZ	786	1	blank2r.bmp	866	2	bonbon	866	1	!	1227	1	!	-1	0	0	0	0	0	0	0	0	0	0	0	0	0	0	0	0	0	0	0	0	0	0	0	0	0	0	0
062918	16:10:49	5.0.12.0	143	notassociated	Rpleas_acq	Oppo	Lpleas	Bmasked	CS_B	1pleas	cond_new_pleas_123_masked_CS2	condtest_masked_3	8	8	400	0	300	300	0	0	595	46	0	1	0	0	0	1	blank2r.bmp	0	1	+	0	2	B2r.bmp	492	1	blank2r.bmp	786	1	GFVZ	786	1	blank2r.bmp	866	1	küken	866	1	!	1227	1	!	-1	0	0	0	0	0	0	0	0	0	0	0	0	0	0	0	0	0	0	0	0	0	0	0	0	0	0	0
062918	16:10:49	5.0.12.0	143	notassociated	Rpleas_acq	Oppo	Lpleas	Bmasked	CS_B	1pleas	cond_new_unple_123_masked_CS2	condtest_masked_3	8	9	400	0	300	300	0	0	884	50	0	1	0	0	0	1	blank2r.bmp	0	1	+	0	7	C3r.bmp	492	1	blank2r.bmp	786	1	GFVZ	786	1	blank2r.bmp	866	3	betteln	866	1	!	1227	1	!	-1	0	0	0	0	0	0	0	0	0	0	0	0	0	0	0	0	0	0	0	0	0	0	0	0	0	0	0
062918	16:10:49	5.0.12.0	143	notassociated	Rpleas_acq	Oppo	Lpleas	Bmasked	CS_B	1pleas	cond_US_unple_456_masked_CS2	condtest_masked_3	8	10	400	0	300	300	0	0	512	46	0	0	0	0	0	1	blank2r.bmp	0	1	+	0	4	B4r.bmp	492	1	blank2r.bmp	786	1	GFVZ	786	1	blank2r.bmp	866	2	toxisch	866	1	!	1227	1	!	-1	0	0	0	0	0	0	0	0	0	0	0	0	0	0	0	0	0	0	0	0	0	0	0	0	0	0	0
062918	16:10:49	5.0.12.0	143	notassociated	Rpleas_acq	Oppo	Lpleas	Bmasked	CS_B	1pleas	cond_new_pleas_123_masked_CS1	condtest_masked_3	8	11	400	0	300	300	0	0	896	46	0	1	0	0	0	1	blank2r.bmp	0	1	+	0	6	C2r.bmp	492	1	blank2r.bmp	786	1	BXCP	786	1	blank2r.bmp	866	2	bonbon	866	1	!	1227	1	!	-1	0	0	0	0	0	0	0	0	0	0	0	0	0	0	0	0	0	0	0	0	0	0	0	0	0	0	0
062918	16:10:49	5.0.12.0	143	notassociated	Rpleas_acq	Oppo	Lpleas	Bmasked	CS_B	1pleas	cond_US_unple_456_masked_CS2	condtest_masked_3	8	12	400	0	300	300	0	0	607	50	0	1	0	0	0	1	blank2r.bmp	0	1	+	0	3	B3r.bmp	492	1	blank2r.bmp	786	1	GFVZ	786	1	blank2r.bmp	866	2	toxisch	866	1	!	1227	1	!	-1	0	0	0	0	0	0	0	0	0	0	0	0	0	0	0	0	0	0	0	0	0	0	0	0	0	0	0
062918	16:10:49	5.0.12.0	143	notassociated	Rpleas_acq	Oppo	Lpleas	Bmasked	CS_B	1pleas	cond_US_pleas_456_masked_CS1	condtest_masked_3	8	13	400	0	300	300	0	0	722	46	0	1	0	0	0	1	blank2r.bmp	0	1	+	0	2	B2r.bmp	492	1	blank2r.bmp	786	1	BXCP	786	1	blank2r.bmp	866	1	leben	866	1	!	1227	1	!	-1	0	0	0	0	0	0	0	0	0	0	0	0	0	0	0	0	0	0	0	0	0	0	0	0	0	0	0
062918	16:10:49	5.0.12.0	143	notassociated	Rpleas_acq	Oppo	Lpleas	Bmasked	CS_B	1pleas	cond_new_pleas_123_masked_CS1	condtest_masked_3	8	14	400	0	300	300	0	0	813	46	0	1	0	0	0	1	blank2r.bmp	0	1	+	0	1	B1r.bmp	492	1	blank2r.bmp	786	1	BXCP	786	1	blank2r.bmp	866	3	nähe	866	1	!	1227	1	!	-1	0	0	0	0	0	0	0	0	0	0	0	0	0	0	0	0	0	0	0	0	0	0	0	0	0	0	0
062918	16:10:49	5.0.12.0	143	notassociated	Rpleas_acq	Oppo	Lpleas	Bmasked	CS_B	1pleas	cond_US_pleas_456_masked_CS2	condtest_masked_3	8	15	400	0	300	300	0	0	652	46	0	1	0	0	0	1	blank2r.bmp	0	1	+	0	8	C4r.bmp	492	1	blank2r.bmp	786	1	GFVZ	786	1	blank2r.bmp	866	3	lippe	866	1	!	1227	1	!	-1	0	0	0	0	0	0	0	0	0	0	0	0	0	0	0	0	0	0	0	0	0	0	0	0	0	0	0
062918	16:10:49	5.0.12.0	143	notassociated	Rpleas_acq	Oppo	Lpleas	Bmasked	CS_B	1pleas	cond_US_pleas_456_masked_CS1	condtest_masked_3	8	16	400	0	300	300	0	0	810	46	0	1	0	0	0	1	blank2r.bmp	0	1	+	0	5	C1r.bmp	492	1	blank2r.bmp	786	1	BXCP	786	1	blank2r.bmp	866	1	leben	866	1	!	1227	1	!	-1	0	0	0	0	0	0	0	0	0	0	0	0	0	0	0	0	0	0	0	0	0	0	0	0	0	0	0
062918	16:10:49	5.0.12.0	143	notassociated	Rpleas_acq	Oppo	Lpleas	Bmasked	CS_B	1pleas	cond_US_pleas_456_masked_CS2	condtest_masked_3	8	17	400	0	300	300	0	0	584	46	0	1	0	0	0	1	blank2r.bmp	0	1	+	0	1	B1r.bmp	492	1	blank2r.bmp	786	1	GFVZ	786	1	blank2r.bmp	866	2	liebe	866	1	!	1227	1	!	-1	0	0	0	0	0	0	0	0	0	0	0	0	0	0	0	0	0	0	0	0	0	0	0	0	0	0	0
062918	16:10:49	5.0.12.0	143	notassociated	Rpleas_acq	Oppo	Lpleas	Bmasked	CS_B	1pleas	cond_US_pleas_456_masked_CS2	condtest_masked_3	8	18	400	0	300	300	0	0	504	46	0	1	0	0	0	1	blank2r.bmp	0	1	+	0	7	C3r.bmp	492	1	blank2r.bmp	786	1	GFVZ	786	1	blank2r.bmp	866	2	liebe	866	1	!	1227	1	!	-1	0	0	0	0	0	0	0	0	0	0	0	0	0	0	0	0	0	0	0	0	0	0	0	0	0	0	0
062918	16:10:49	5.0.12.0	143	notassociated	Rpleas_acq	Oppo	Lpleas	Bmasked	CS_B	1pleas	cond_new_unple_123_masked_CS1	condtest_masked_3	8	19	400	0	300	300	0	0	550	50	0	1	0	0	0	1	blank2r.bmp	0	1	+	0	3	B3r.bmp	492	1	blank2r.bmp	786	1	BXCP	786	1	blank2r.bmp	866	2	spott	866	1	!	1227	1	!	-1	0	0	0	0	0	0	0	0	0	0	0	0	0	0	0	0	0	0	0	0	0	0	0	0	0	0	0
062918	16:10:49	5.0.12.0	143	notassociated	Rpleas_acq	Oppo	Lpleas	Bmasked	CS_B	1pleas	cond_new_pleas_123_masked_CS2	condtest_masked_3	8	20	400	1	300	300	0	0	446	46	0	1	0	0	0	1	blank2r.bmp	0	1	+	0	6	C2r.bmp	492	1	blank2r.bmp	786	1	GFVZ	786	1	blank2r.bmp	866	3	nähe	866	1	!	1227	1	!	1340	0	0	0	0	0	0	0	0	0	0	0	0	0	0	0	0	0	0	0	0	0	0	0	0	0	0	0
062918	16:10:49	5.0.12.0	143	notassociated	Rpleas_acq	Oppo	Lpleas	Bmasked	CS_B	1pleas	cond_new_pleas_123_masked_CS2	condtest_masked_3	8	21	400	0	300	300	0	0	771	46	0	1	0	0	0	1	blank2r.bmp	0	1	+	0	8	C4r.bmp	492	1	blank2r.bmp	786	1	GFVZ	786	1	blank2r.bmp	866	2	bonbon	866	1	!	1227	1	!	-1	0	0	0	0	0	0	0	0	0	0	0	0	0	0	0	0	0	0	0	0	0	0	0	0	0	0	0
062918	16:10:49	5.0.12.0	143	notassociated	Rpleas_acq	Oppo	Lpleas	Bmasked	CS_B	1pleas	cond_new_unple_123_masked_CS1	condtest_masked_3	8	22	400	0	300	300	0	0	986	50	0	1	0	0	0	1	blank2r.bmp	0	1	+	0	4	B4r.bmp	492	1	blank2r.bmp	786	1	BXCP	786	1	blank2r.bmp	866	1	schock	866	1	!	1227	1	!	-1	0	0	0	0	0	0	0	0	0	0	0	0	0	0	0	0	0	0	0	0	0	0	0	0	0	0	0
062918	16:10:49	5.0.12.0	143	notassociated	Rpleas_acq	Oppo	Lpleas	Bmasked	CS_B	1pleas	cond_new_unple_123_masked_CS2	condtest_masked_3	8	23	400	0	300	300	0	0	587	50	0	1	0	0	0	1	blank2r.bmp	0	1	+	0	2	B2r.bmp	492	1	blank2r.bmp	786	1	GFVZ	786	1	blank2r.bmp	866	3	betteln	866	1	!	1227	1	!	-1	0	0	0	0	0	0	0	0	0	0	0	0	0	0	0	0	0	0	0	0	0	0	0	0	0	0	0
062918	16:10:49	5.0.12.0	143	notassociated	Rpleas_acq	Oppo	Lpleas	Bmasked	CS_B	1pleas	cond_US_unple_456_masked_CS1	condtest_masked_3	8	24	400	0	300	300	0	0	700	50	0	1	0	0	0	1	blank2r.bmp	0	1	+	0	5	C1r.bmp	492	1	blank2r.bmp	786	1	BXCP	786	1	blank2r.bmp	866	1	pleite	866	1	!	1227	1	!	-1	0	0	0	0	0	0	0	0	0	0	0	0	0	0	0	0	0	0	0	0	0	0	0	0	0	0	0
062918	16:10:49	5.0.12.0	143	notassociated	Rpleas_acq	Oppo	Lpleas	Bmasked	CS_B	1pleas	cond_new_unple_123_masked_CS2	condtest_masked_3	8	25	400	0	300	300	0	0	498	50	0	1	0	0	0	1	blank2r.bmp	0	1	+	0	2	B2r.bmp	492	1	blank2r.bmp	786	1	GFVZ	786	1	blank2r.bmp	866	1	schock	866	1	!	1227	1	!	-1	0	0	0	0	0	0	0	0	0	0	0	0	0	0	0	0	0	0	0	0	0	0	0	0	0	0	0
062918	16:10:49	5.0.12.0	143	notassociated	Rpleas_acq	Oppo	Lpleas	Bmasked	CS_B	1pleas	cond_new_unple_123_masked_CS1	condtest_masked_3	8	26	400	0	300	300	0	0	879	50	0	1	0	0	0	1	blank2r.bmp	0	1	+	0	8	C4r.bmp	492	1	blank2r.bmp	786	1	BXCP	786	1	blank2r.bmp	866	2	spott	866	1	!	1227	1	!	-1	0	0	0	0	0	0	0	0	0	0	0	0	0	0	0	0	0	0	0	0	0	0	0	0	0	0	0
062918	16:10:49	5.0.12.0	143	notassociated	Rpleas_acq	Oppo	Lpleas	Bmasked	CS_B	1pleas	cond_US_pleas_456_masked_CS2	condtest_masked_3	8	27	400	0	300	300	0	0	539	46	0	1	0	0	0	1	blank2r.bmp	0	1	+	0	6	C2r.bmp	492	1	blank2r.bmp	786	1	GFVZ	786	1	blank2r.bmp	866	3	lippe	866	1	!	1227	1	!	-1	0	0	0	0	0	0	0	0	0	0	0	0	0	0	0	0	0	0	0	0	0	0	0	0	0	0	0
062918	16:10:49	5.0.12.0	143	notassociated	Rpleas_acq	Oppo	Lpleas	Bmasked	CS_B	1pleas	cond_new_unple_123_masked_CS2	condtest_masked_3	8	28	400	0	300	300	0	0	545	50	0	1	0	0	0	1	blank2r.bmp	0	1	+	0	4	B4r.bmp	492	1	blank2r.bmp	786	1	GFVZ	786	1	blank2r.bmp	866	3	betteln	866	1	!	1227	1	!	-1	0	0	0	0	0	0	0	0	0	0	0	0	0	0	0	0	0	0	0	0	0	0	0	0	0	0	0
062918	16:10:49	5.0.12.0	143	notassociated	Rpleas_acq	Oppo	Lpleas	Bmasked	CS_B	1pleas	cond_new_pleas_123_masked_CS1	condtest_masked_3	8	29	400	0	300	300	0	0	489	50	0	0	0	0	0	1	blank2r.bmp	0	1	+	0	3	B3r.bmp	492	1	blank2r.bmp	786	1	BXCP	786	1	blank2r.bmp	866	1	küken	866	1	!	1227	1	!	-1	0	0	0	0	0	0	0	0	0	0	0	0	0	0	0	0	0	0	0	0	0	0	0	0	0	0	0
062918	16:10:49	5.0.12.0	143	notassociated	Rpleas_acq	Oppo	Lpleas	Bmasked	CS_B	1pleas	cond_US_unple_456_masked_CS1	condtest_masked_3	8	30	400	0	300	300	0	0	678	50	0	1	0	0	0	1	blank2r.bmp	0	1	+	0	7	C3r.bmp	492	1	blank2r.bmp	786	1	BXCP	786	1	blank2r.bmp	866	3	pistole	866	1	!	1227	1	!	-1	0	0	0	0	0	0	0	0	0	0	0	0	0	0	0	0	0	0	0	0	0	0	0	0	0	0	0
062918	16:10:49	5.0.12.0	143	notassociated	Rpleas_acq	Oppo	Lpleas	Bmasked	CS_B	1pleas	cond_US_pleas_456_masked_CS2	condtest_masked_3	8	31	400	1	300	300	0	0	458	46	0	1	0	0	0	1	blank2r.bmp	0	1	+	0	1	B1r.bmp	492	1	blank2r.bmp	786	1	GFVZ	786	1	blank2r.bmp	866	1	leben	866	1	!	1227	1	!	1351	0	0	0	0	0	0	0	0	0	0	0	0	0	0	0	0	0	0	0	0	0	0	0	0	0	0	0
062918	16:10:49	5.0.12.0	143	notassociated	Rpleas_acq	Oppo	Lpleas	Bmasked	CS_B	1pleas	cond_new_pleas_123_masked_CS2	condtest_masked_3	8	32	400	0	300	300	0	0	671	46	0	1	0	0	0	1	blank2r.bmp	0	1	+	0	5	C1r.bmp	492	1	blank2r.bmp	786	1	GFVZ	786	1	blank2r.bmp	866	3	nähe	866	1	!	1227	1	!	-1	0	0	0	0	0	0	0	0	0	0	0	0	0	0	0	0	0	0	0	0	0	0	0	0	0	0	0
062918	16:10:49	5.0.12.0	143	notassociated	Rpleas_acq	Oppo	Lpleas	Bmasked	CS_B	1pleas	cond_US_unple_456_masked_CS2	condtest_masked_3	8	33	400	0	300	300	0	0	720	46	0	0	0	0	0	1	blank2r.bmp	0	1	+	0	4	B4r.bmp	492	1	blank2r.bmp	786	1	GFVZ	786	1	blank2r.bmp	866	2	toxisch	866	1	!	1227	1	!	-1	0	0	0	0	0	0	0	0	0	0	0	0	0	0	0	0	0	0	0	0	0	0	0	0	0	0	0
062918	16:10:49	5.0.12.0	143	notassociated	Rpleas_acq	Oppo	Lpleas	Bmasked	CS_B	1pleas	cond_US_unple_456_masked_CS1	condtest_masked_3	8	34	400	0	300	300	0	0	635	50	0	1	0	0	0	1	blank2r.bmp	0	1	+	0	5	C1r.bmp	492	1	blank2r.bmp	786	1	BXCP	786	1	blank2r.bmp	866	3	pistole	866	1	!	1227	1	!	-1	0	0	0	0	0	0	0	0	0	0	0	0	0	0	0	0	0	0	0	0	0	0	0	0	0	0	0
062918	16:10:49	5.0.12.0	143	notassociated	Rpleas_acq	Oppo	Lpleas	Bmasked	CS_B	1pleas	cond_US_unple_456_masked_CS2	condtest_masked_3	8	35	400	0	300	300	0	0	534	50	0	1	0	0	0	1	blank2r.bmp	0	1	+	0	6	C2r.bmp	492	1	blank2r.bmp	786	1	GFVZ	786	1	blank2r.bmp	866	1	pleite	866	1	!	1227	1	!	-1	0	0	0	0	0	0	0	0	0	0	0	0	0	0	0	0	0	0	0	0	0	0	0	0	0	0	0
062918	16:10:49	5.0.12.0	143	notassociated	Rpleas_acq	Oppo	Lpleas	Bmasked	CS_B	1pleas	cond_US_pleas_456_masked_CS1	condtest_masked_3	8	36	400	0	300	300	0	0	540	46	0	1	0	0	0	1	blank2r.bmp	0	1	+	0	8	C4r.bmp	492	1	blank2r.bmp	786	1	BXCP	786	1	blank2r.bmp	866	1	leben	866	1	!	1227	1	!	-1	0	0	0	0	0	0	0	0	0	0	0	0	0	0	0	0	0	0	0	0	0	0	0	0	0	0	0
062918	16:10:49	5.0.12.0	143	notassociated	Rpleas_acq	Oppo	Lpleas	Bmasked	CS_B	1pleas	cond_new_unple_123_masked_CS2	condtest_masked_3	8	37	400	0	300	300	0	0	674	50	0	1	0	0	0	1	blank2r.bmp	0	1	+	0	7	C3r.bmp	492	1	blank2r.bmp	786	1	GFVZ	786	1	blank2r.bmp	866	2	spott	866	1	!	1227	1	!	-1	0	0	0	0	0	0	0	0	0	0	0	0	0	0	0	0	0	0	0	0	0	0	0	0	0	0	0
062918	16:10:49	5.0.12.0	143	notassociated	Rpleas_acq	Oppo	Lpleas	Bmasked	CS_B	1pleas	cond_US_unple_456_masked_CS2	condtest_masked_3	8	38	400	0	300	300	0	0	642	50	0	1	0	0	0	1	blank2r.bmp	0	1	+	0	1	B1r.bmp	492	1	blank2r.bmp	786	1	GFVZ	786	1	blank2r.bmp	866	2	toxisch	866	1	!	1227	1	!	-1	0	0	0	0	0	0	0	0	0	0	0	0	0	0	0	0	0	0	0	0	0	0	0	0	0	0	0
062918	16:10:49	5.0.12.0	143	notassociated	Rpleas_acq	Oppo	Lpleas	Bmasked	CS_B	1pleas	cond_US_unple_456_masked_CS1	condtest_masked_3	8	39	400	0	300	300	0	0	525	50	0	1	0	0	0	1	blank2r.bmp	0	1	+	0	2	B2r.bmp	492	1	blank2r.bmp	786	1	BXCP	786	1	blank2r.bmp	866	1	pleite	866	1	!	1227	1	!	-1	0	0	0	0	0	0	0	0	0	0	0	0	0	0	0	0	0	0	0	0	0	0	0	0	0	0	0
062918	16:10:49	5.0.12.0	143	notassociated	Rpleas_acq	Oppo	Lpleas	Bmasked	CS_B	1pleas	cond_new_unple_123_masked_CS1	condtest_masked_3	8	40	400	0	300	300	0	0	515	50	0	1	0	0	0	1	blank2r.bmp	0	1	+	0	3	B3r.bmp	492	1	blank2r.bmp	786	1	BXCP	786	1	blank2r.bmp	866	1	schock	866	1	!	1227	1	!	-1	0	0	0	0	0	0	0	0	0	0	0	0	0	0	0	0	0	0	0	0	0	0	0	0	0	0	0
062918	16:10:49	5.0.12.0	143	notassociated	Rpleas_acq	Oppo	Lpleas	Bmasked	CS_B	1pleas	cond_US_unple_456_masked_CS2	condtest_masked_3	8	41	400	0	300	300	0	0	515	50	0	1	0	0	0	1	blank2r.bmp	0	1	+	0	4	B4r.bmp	492	1	blank2r.bmp	786	1	GFVZ	786	1	blank2r.bmp	866	3	pistole	866	1	!	1227	1	!	-1	0	0	0	0	0	0	0	0	0	0	0	0	0	0	0	0	0	0	0	0	0	0	0	0	0	0	0
062918	16:10:49	5.0.12.0	143	notassociated	Rpleas_acq	Oppo	Lpleas	Bmasked	CS_B	1pleas	cond_new_pleas_123_masked_CS1	condtest_masked_3	8	42	400	0	300	300	0	0	563	46	0	1	0	0	0	1	blank2r.bmp	0	1	+	0	2	B2r.bmp	492	1	blank2r.bmp	786	1	BXCP	786	1	blank2r.bmp	866	1	küken	866	1	!	1227	1	!	-1	0	0	0	0	0	0	0	0	0	0	0	0	0	0	0	0	0	0	0	0	0	0	0	0	0	0	0
062918	16:10:49	5.0.12.0	143	notassociated	Rpleas_acq	Oppo	Lpleas	Bmasked	CS_B	1pleas	cond_US_pleas_456_masked_CS1	condtest_masked_3	8	43	400	0	300	300	0	0	6494	46	0	1	0	0	0	1	blank2r.bmp	0	1	+	0	5	C1r.bmp	492	1	blank2r.bmp	786	1	BXCP	786	1	blank2r.bmp	866	2	liebe	866	1	!	1227	1	!	-1	0	0	0	0	0	0	0	0	0	0	0	0	0	0	0	0	0	0	0	0	0	0	0	0	0	0	0
062918	16:10:49	5.0.12.0	143	notassociated	Rpleas_acq	Oppo	Lpleas	Bmasked	CS_B	1pleas	cond_US_pleas_456_masked_CS1	condtest_masked_3	8	44	400	0	300	300	0	0	515	46	0	1	0	0	0	1	blank2r.bmp	0	1	+	0	7	C3r.bmp	492	1	blank2r.bmp	786	1	BXCP	786	1	blank2r.bmp	866	3	lippe	866	1	!	1227	1	!	-1	0	0	0	0	0	0	0	0	0	0	0	0	0	0	0	0	0	0	0	0	0	0	0	0	0	0	0
062918	16:10:49	5.0.12.0	143	notassociated	Rpleas_acq	Oppo	Lpleas	Bmasked	CS_B	1pleas	cond_new_unple_123_masked_CS1	condtest_masked_3	8	45	400	0	300	300	0	0	582	50	0	1	0	0	0	1	blank2r.bmp	0	1	+	0	6	C2r.bmp	492	1	blank2r.bmp	786	1	BXCP	786	1	blank2r.bmp	866	2	spott	866	1	!	1227	1	!	-1	0	0	0	0	0	0	0	0	0	0	0	0	0	0	0	0	0	0	0	0	0	0	0	0	0	0	0
062918	16:10:49	5.0.12.0	143	notassociated	Rpleas_acq	Oppo	Lpleas	Bmasked	CS_B	1pleas	cond_new_pleas_123_masked_CS1	condtest_masked_3	8	46	400	0	300	300	0	0	548	46	0	1	0	0	0	1	blank2r.bmp	0	1	+	0	8	C4r.bmp	492	1	blank2r.bmp	786	1	BXCP	786	1	blank2r.bmp	866	2	bonbon	866	1	!	1227	1	!	-1	0	0	0	0	0	0	0	0	0	0	0	0	0	0	0	0	0	0	0	0	0	0	0	0	0	0	0
062918	16:10:49	5.0.12.0	143	notassociated	Rpleas_acq	Oppo	Lpleas	Bmasked	CS_B	1pleas	cond_new_unple_123_masked_CS2	condtest_masked_3	8	47	400	1	300	300	0	0	396	50	0	1	0	0	0	1	blank2r.bmp	0	1	+	0	3	B3r.bmp	492	1	blank2r.bmp	786	1	GFVZ	786	1	blank2r.bmp	866	1	schock	866	1	!	1227	1	!	1290	0	0	0	0	0	0	0	0	0	0	0	0	0	0	0	0	0	0	0	0	0	0	0	0	0	0	0
062918	16:10:49	5.0.12.0	143	notassociated	Rpleas_acq	Oppo	Lpleas	Bmasked	CS_B	1pleas	cond_new_unple_123_masked_CS1	condtest_masked_3	8	48	400	1	300	300	0	0	406	46	0	0	0	0	0	1	blank2r.bmp	0	1	+	0	1	B1r.bmp	492	1	blank2r.bmp	786	1	BXCP	786	1	blank2r.bmp	866	3	betteln	866	1	!	1227	1	!	1300	0	0	0	0	0	0	0	0	0	0	0	0	0	0	0	0	0	0	0	0	0	0	0	0	0	0	0
062918	16:10:49	5.0.12.0	143	notassociated	Rpleas_acq	Oppo	Lpleas	Bmasked	CS_B	1pleas	cond_new_pleas_456_masked_CS2	condtest_masked_4	9	1	400	0	300	300	0	0	1158	46	0	1	0	0	0	1	blank2r.bmp	0	1	+	0	4	B4r.bmp	492	1	blank2r.bmp	786	1	GFVZ	786	1	blank2r.bmp	866	2	pointe	866	1	!	1227	1	!	-1	0	0	0	0	0	0	0	0	0	0	0	0	0	0	0	0	0	0	0	0	0	0	0	0	0	0	0
062918	16:10:49	5.0.12.0	143	notassociated	Rpleas_acq	Oppo	Lpleas	Bmasked	CS_B	1pleas	cond_US_pleas_123_masked_CS2	condtest_masked_4	9	2	400	0	300	300	0	0	651	50	0	0	0	0	0	1	blank2r.bmp	0	1	+	0	1	B1r.bmp	492	1	blank2r.bmp	786	1	GFVZ	786	1	blank2r.bmp	866	1	bett	866	1	!	1227	1	!	-1	0	0	0	0	0	0	0	0	0	0	0	0	0	0	0	0	0	0	0	0	0	0	0	0	0	0	0
062918	16:10:49	5.0.12.0	143	notassociated	Rpleas_acq	Oppo	Lpleas	Bmasked	CS_B	1pleas	cond_new_pleas_456_masked_CS1	condtest_masked_4	9	3	400	0	300	300	0	0	505	46	0	1	0	0	0	1	blank2r.bmp	0	1	+	0	3	B3r.bmp	492	1	blank2r.bmp	786	1	BXCP	786	1	blank2r.bmp	866	1	keks	866	1	!	1227	1	!	-1	0	0	0	0	0	0	0	0	0	0	0	0	0	0	0	0	0	0	0	0	0	0	0	0	0	0	0
062918	16:10:49	5.0.12.0	143	notassociated	Rpleas_acq	Oppo	Lpleas	Bmasked	CS_B	1pleas	cond_US_unple_123_masked_CS1	condtest_masked_4	9	4	400	0	300	300	0	0	518	50	0	1	0	0	0	1	blank2r.bmp	0	1	+	0	5	C1r.bmp	492	1	blank2r.bmp	786	1	BXCP	786	1	blank2r.bmp	866	1	pest	866	1	!	1227	1	!	-1	0	0	0	0	0	0	0	0	0	0	0	0	0	0	0	0	0	0	0	0	0	0	0	0	0	0	0
062918	16:10:49	5.0.12.0	143	notassociated	Rpleas_acq	Oppo	Lpleas	Bmasked	CS_B	1pleas	cond_new_unple_456_masked_CS1	condtest_masked_4	9	5	400	0	300	300	0	0	745	50	0	1	0	0	0	1	blank2r.bmp	0	1	+	0	7	C3r.bmp	492	1	blank2r.bmp	786	1	BXCP	786	1	blank2r.bmp	866	2	eitel	866	1	!	1227	1	!	-1	0	0	0	0	0	0	0	0	0	0	0	0	0	0	0	0	0	0	0	0	0	0	0	0	0	0	0
062918	16:10:49	5.0.12.0	143	notassociated	Rpleas_acq	Oppo	Lpleas	Bmasked	CS_B	1pleas	cond_new_pleas_456_masked_CS1	condtest_masked_4	9	6	400	0	300	300	0	0	538	46	0	1	0	0	0	1	blank2r.bmp	0	1	+	0	2	B2r.bmp	492	1	blank2r.bmp	786	1	BXCP	786	1	blank2r.bmp	866	3	eiche	866	1	!	1227	1	!	-1	0	0	0	0	0	0	0	0	0	0	0	0	0	0	0	0	0	0	0	0	0	0	0	0	0	0	0
062918	16:10:49	5.0.12.0	143	notassociated	Rpleas_acq	Oppo	Lpleas	Bmasked	CS_B	1pleas	cond_US_unple_123_masked_CS2	condtest_masked_4	9	7	400	0	300	300	0	0	575	50	0	1	0	0	0	1	blank2r.bmp	0	1	+	0	6	C2r.bmp	492	1	blank2r.bmp	786	1	GFVZ	786	1	blank2r.bmp	866	3	übel	866	1	!	1227	1	!	-1	0	0	0	0	0	0	0	0	0	0	0	0	0	0	0	0	0	0	0	0	0	0	0	0	0	0	0
062918	16:10:49	5.0.12.0	143	notassociated	Rpleas_acq	Oppo	Lpleas	Bmasked	CS_B	1pleas	cond_US_unple_123_masked_CS1	condtest_masked_4	9	8	400	0	300	300	0	0	682	50	0	1	0	0	0	1	blank2r.bmp	0	1	+	0	8	C4r.bmp	492	1	blank2r.bmp	786	1	BXCP	786	1	blank2r.bmp	866	2	leiche	866	1	!	1227	1	!	-1	0	0	0	0	0	0	0	0	0	0	0	0	0	0	0	0	0	0	0	0	0	0	0	0	0	0	0
062918	16:10:49	5.0.12.0	143	notassociated	Rpleas_acq	Oppo	Lpleas	Bmasked	CS_B	1pleas	cond_new_unple_456_masked_CS2	condtest_masked_4	9	9	400	0	300	300	0	0	526	50	0	1	0	0	0	1	blank2r.bmp	0	1	+	0	3	B3r.bmp	492	1	blank2r.bmp	786	1	GFVZ	786	1	blank2r.bmp	866	3	stinken	866	1	!	1227	1	!	-1	0	0	0	0	0	0	0	0	0	0	0	0	0	0	0	0	0	0	0	0	0	0	0	0	0	0	0
062918	16:10:49	5.0.12.0	143	notassociated	Rpleas_acq	Oppo	Lpleas	Bmasked	CS_B	1pleas	cond_US_pleas_123_masked_CS1	condtest_masked_4	9	10	400	0	300	300	0	0	560	46	0	1	0	0	0	1	blank2r.bmp	0	1	+	0	5	C1r.bmp	492	1	blank2r.bmp	786	1	BXCP	786	1	blank2r.bmp	866	3	sonne	866	1	!	1227	1	!	-1	0	0	0	0	0	0	0	0	0	0	0	0	0	0	0	0	0	0	0	0	0	0	0	0	0	0	0
062918	16:10:49	5.0.12.0	143	notassociated	Rpleas_acq	Oppo	Lpleas	Bmasked	CS_B	1pleas	cond_US_unple_123_masked_CS2	condtest_masked_4	9	11	400	0	300	300	0	0	523	50	0	1	0	0	0	1	blank2r.bmp	0	1	+	0	8	C4r.bmp	492	1	blank2r.bmp	786	1	GFVZ	786	1	blank2r.bmp	866	2	leiche	866	1	!	1227	1	!	-1	0	0	0	0	0	0	0	0	0	0	0	0	0	0	0	0	0	0	0	0	0	0	0	0	0	0	0
062918	16:10:49	5.0.12.0	143	notassociated	Rpleas_acq	Oppo	Lpleas	Bmasked	CS_B	1pleas	cond_US_pleas_123_masked_CS2	condtest_masked_4	9	12	400	0	300	300	0	0	686	46	0	1	0	0	0	1	blank2r.bmp	0	1	+	0	6	C2r.bmp	492	1	blank2r.bmp	786	1	GFVZ	786	1	blank2r.bmp	866	2	knospe	866	1	!	1227	1	!	-1	0	0	0	0	0	0	0	0	0	0	0	0	0	0	0	0	0	0	0	0	0	0	0	0	0	0	0
062918	16:10:49	5.0.12.0	143	notassociated	Rpleas_acq	Oppo	Lpleas	Bmasked	CS_B	1pleas	cond_new_pleas_456_masked_CS1	condtest_masked_4	9	13	400	0	300	300	0	0	546	46	0	1	0	0	0	1	blank2r.bmp	0	1	+	0	4	B4r.bmp	492	1	blank2r.bmp	786	1	BXCP	786	1	blank2r.bmp	866	3	eiche	866	1	!	1227	1	!	-1	0	0	0	0	0	0	0	0	0	0	0	0	0	0	0	0	0	0	0	0	0	0	0	0	0	0	0
062918	16:10:49	5.0.12.0	143	notassociated	Rpleas_acq	Oppo	Lpleas	Bmasked	CS_B	1pleas	cond_US_pleas_123_masked_CS1	condtest_masked_4	9	14	400	0	300	300	0	0	586	46	0	1	0	0	0	1	blank2r.bmp	0	1	+	0	1	B1r.bmp	492	1	blank2r.bmp	786	1	BXCP	786	1	blank2r.bmp	866	3	sonne	866	1	!	1227	1	!	-1	0	0	0	0	0	0	0	0	0	0	0	0	0	0	0	0	0	0	0	0	0	0	0	0	0	0	0
062918	16:10:49	5.0.12.0	143	notassociated	Rpleas_acq	Oppo	Lpleas	Bmasked	CS_B	1pleas	cond_US_unple_123_masked_CS1	condtest_masked_4	9	15	400	0	300	300	0	0	554	50	0	1	0	0	0	1	blank2r.bmp	0	1	+	0	7	C3r.bmp	492	1	blank2r.bmp	786	1	BXCP	786	1	blank2r.bmp	866	1	pest	866	1	!	1227	1	!	-1	0	0	0	0	0	0	0	0	0	0	0	0	0	0	0	0	0	0	0	0	0	0	0	0	0	0	0
062918	16:10:49	5.0.12.0	143	notassociated	Rpleas_acq	Oppo	Lpleas	Bmasked	CS_B	1pleas	cond_new_unple_456_masked_CS2	condtest_masked_4	9	16	400	0	300	300	0	0	645	50	0	1	0	0	0	1	blank2r.bmp	0	1	+	0	2	B2r.bmp	492	1	blank2r.bmp	786	1	GFVZ	786	1	blank2r.bmp	866	1	sekte	866	1	!	1227	1	!	-1	0	0	0	0	0	0	0	0	0	0	0	0	0	0	0	0	0	0	0	0	0	0	0	0	0	0	0
062918	16:10:49	5.0.12.0	143	notassociated	Rpleas_acq	Oppo	Lpleas	Bmasked	CS_B	1pleas	cond_new_unple_456_masked_CS2	condtest_masked_4	9	17	400	0	300	300	0	0	544	50	0	1	0	0	0	1	blank2r.bmp	0	1	+	0	5	C1r.bmp	492	1	blank2r.bmp	786	1	GFVZ	786	1	blank2r.bmp	866	1	sekte	866	1	!	1227	1	!	-1	0	0	0	0	0	0	0	0	0	0	0	0	0	0	0	0	0	0	0	0	0	0	0	0	0	0	0
062918	16:10:49	5.0.12.0	143	notassociated	Rpleas_acq	Oppo	Lpleas	Bmasked	CS_B	1pleas	cond_US_pleas_123_masked_CS1	condtest_masked_4	9	18	400	0	300	300	0	0	585	50	0	0	0	0	0	1	blank2r.bmp	0	1	+	0	7	C3r.bmp	492	1	blank2r.bmp	786	1	BXCP	786	1	blank2r.bmp	866	1	bett	866	1	!	1227	1	!	-1	0	0	0	0	0	0	0	0	0	0	0	0	0	0	0	0	0	0	0	0	0	0	0	0	0	0	0
062918	16:10:49	5.0.12.0	143	notassociated	Rpleas_acq	Oppo	Lpleas	Bmasked	CS_B	1pleas	cond_new_pleas_456_masked_CS2	condtest_masked_4	9	19	400	1	300	300	0	0	377	46	0	1	0	0	0	1	blank2r.bmp	0	1	+	0	4	B4r.bmp	492	1	blank2r.bmp	786	1	GFVZ	786	1	blank2r.bmp	866	1	keks	866	1	!	1227	1	!	1271	0	0	0	0	0	0	0	0	0	0	0	0	0	0	0	0	0	0	0	0	0	0	0	0	0	0	0
062918	16:10:49	5.0.12.0	143	notassociated	Rpleas_acq	Oppo	Lpleas	Bmasked	CS_B	1pleas	cond_US_unple_123_masked_CS2	condtest_masked_4	9	20	400	1	300	300	0	0	446	50	0	1	0	0	0	1	blank2r.bmp	0	1	+	0	2	B2r.bmp	492	1	blank2r.bmp	786	1	GFVZ	786	1	blank2r.bmp	866	3	übel	866	1	!	1227	1	!	1340	0	0	0	0	0	0	0	0	0	0	0	0	0	0	0	0	0	0	0	0	0	0	0	0	0	0	0
062918	16:10:49	5.0.12.0	143	notassociated	Rpleas_acq	Oppo	Lpleas	Bmasked	CS_B	1pleas	cond_US_pleas_123_masked_CS2	condtest_masked_4	9	21	400	0	300	300	0	0	784	46	0	1	0	0	0	1	blank2r.bmp	0	1	+	0	6	C2r.bmp	492	1	blank2r.bmp	786	1	GFVZ	786	1	blank2r.bmp	866	2	knospe	866	1	!	1227	1	!	-1	0	0	0	0	0	0	0	0	0	0	0	0	0	0	0	0	0	0	0	0	0	0	0	0	0	0	0
062918	16:10:49	5.0.12.0	143	notassociated	Rpleas_acq	Oppo	Lpleas	Bmasked	CS_B	1pleas	cond_new_pleas_456_masked_CS1	condtest_masked_4	9	22	400	0	300	300	0	0	569	50	0	0	0	0	0	1	blank2r.bmp	0	1	+	0	3	B3r.bmp	492	1	blank2r.bmp	786	1	BXCP	786	1	blank2r.bmp	866	2	pointe	866	1	!	1227	1	!	-1	0	0	0	0	0	0	0	0	0	0	0	0	0	0	0	0	0	0	0	0	0	0	0	0	0	0	0
062918	16:10:49	5.0.12.0	143	notassociated	Rpleas_acq	Oppo	Lpleas	Bmasked	CS_B	1pleas	cond_new_pleas_456_masked_CS2	condtest_masked_4	9	23	400	0	300	300	0	0	647	46	0	1	0	0	0	1	blank2r.bmp	0	1	+	0	8	C4r.bmp	492	1	blank2r.bmp	786	1	GFVZ	786	1	blank2r.bmp	866	3	eiche	866	1	!	1227	1	!	-1	0	0	0	0	0	0	0	0	0	0	0	0	0	0	0	0	0	0	0	0	0	0	0	0	0	0	0
062918	16:10:49	5.0.12.0	143	notassociated	Rpleas_acq	Oppo	Lpleas	Bmasked	CS_B	1pleas	cond_US_pleas_123_masked_CS2	condtest_masked_4	9	24	400	0	300	300	0	0	533	46	0	1	0	0	0	1	blank2r.bmp	0	1	+	0	1	B1r.bmp	492	1	blank2r.bmp	786	1	GFVZ	786	1	blank2r.bmp	866	3	sonne	866	1	!	1227	1	!	-1	0	0	0	0	0	0	0	0	0	0	0	0	0	0	0	0	0	0	0	0	0	0	0	0	0	0	0
062918	16:10:49	5.0.12.0	143	notassociated	Rpleas_acq	Oppo	Lpleas	Bmasked	CS_B	1pleas	cond_US_pleas_123_masked_CS2	condtest_masked_4	9	25	400	0	300	300	0	0	475	50	0	0	0	0	0	1	blank2r.bmp	0	1	+	0	2	B2r.bmp	492	1	blank2r.bmp	786	1	GFVZ	786	1	blank2r.bmp	866	2	knospe	866	1	!	1227	1	!	-1	0	0	0	0	0	0	0	0	0	0	0	0	0	0	0	0	0	0	0	0	0	0	0	0	0	0	0
062918	16:10:49	5.0.12.0	143	notassociated	Rpleas_acq	Oppo	Lpleas	Bmasked	CS_B	1pleas	cond_new_unple_456_masked_CS1	condtest_masked_4	9	26	400	0	300	300	0	0	821	50	0	1	0	0	0	1	blank2r.bmp	0	1	+	0	4	B4r.bmp	492	1	blank2r.bmp	786	1	BXCP	786	1	blank2r.bmp	866	3	stinken	866	1	!	1227	1	!	-1	0	0	0	0	0	0	0	0	0	0	0	0	0	0	0	0	0	0	0	0	0	0	0	0	0	0	0
062918	16:10:49	5.0.12.0	143	notassociated	Rpleas_acq	Oppo	Lpleas	Bmasked	CS_B	1pleas	cond_new_pleas_456_masked_CS1	condtest_masked_4	9	27	400	0	300	300	0	0	486	50	0	0	0	0	0	1	blank2r.bmp	0	1	+	0	1	B1r.bmp	492	1	blank2r.bmp	786	1	BXCP	786	1	blank2r.bmp	866	2	pointe	866	1	!	1227	1	!	-1	0	0	0	0	0	0	0	0	0	0	0	0	0	0	0	0	0	0	0	0	0	0	0	0	0	0	0
062918	16:10:49	5.0.12.0	143	notassociated	Rpleas_acq	Oppo	Lpleas	Bmasked	CS_B	1pleas	cond_US_unple_123_masked_CS1	condtest_masked_4	9	28	400	0	300	300	0	0	788	50	0	1	0	0	0	1	blank2r.bmp	0	1	+	0	7	C3r.bmp	492	1	blank2r.bmp	786	1	BXCP	786	1	blank2r.bmp	866	1	pest	866	1	!	1227	1	!	-1	0	0	0	0	0	0	0	0	0	0	0	0	0	0	0	0	0	0	0	0	0	0	0	0	0	0	0
062918	16:10:49	5.0.12.0	143	notassociated	Rpleas_acq	Oppo	Lpleas	Bmasked	CS_B	1pleas	cond_new_pleas_456_masked_CS2	condtest_masked_4	9	29	400	1	300	300	0	0	445	46	0	1	0	0	0	1	blank2r.bmp	0	1	+	0	6	C2r.bmp	492	1	blank2r.bmp	786	1	GFVZ	786	1	blank2r.bmp	866	1	keks	866	1	!	1227	1	!	1338	0	0	0	0	0	0	0	0	0	0	0	0	0	0	0	0	0	0	0	0	0	0	0	0	0	0	0
062918	16:10:49	5.0.12.0	143	notassociated	Rpleas_acq	Oppo	Lpleas	Bmasked	CS_B	1pleas	cond_new_unple_456_masked_CS2	condtest_masked_4	9	30	400	0	300	300	0	0	703	46	0	0	0	0	0	1	blank2r.bmp	0	1	+	0	8	C4r.bmp	492	1	blank2r.bmp	786	1	GFVZ	786	1	blank2r.bmp	866	2	eitel	866	1	!	1227	1	!	-1	0	0	0	0	0	0	0	0	0	0	0	0	0	0	0	0	0	0	0	0	0	0	0	0	0	0	0
062918	16:10:49	5.0.12.0	143	notassociated	Rpleas_acq	Oppo	Lpleas	Bmasked	CS_B	1pleas	cond_new_pleas_456_masked_CS1	condtest_masked_4	9	31	400	0	300	300	0	0	821	50	0	0	0	0	0	1	blank2r.bmp	0	1	+	0	3	B3r.bmp	492	1	blank2r.bmp	786	1	BXCP	786	1	blank2r.bmp	866	2	pointe	866	1	!	1227	1	!	-1	0	0	0	0	0	0	0	0	0	0	0	0	0	0	0	0	0	0	0	0	0	0	0	0	0	0	0
062918	16:10:49	5.0.12.0	143	notassociated	Rpleas_acq	Oppo	Lpleas	Bmasked	CS_B	1pleas	cond_new_unple_456_masked_CS2	condtest_masked_4	9	32	400	0	300	300	0	0	596	50	0	1	0	0	0	1	blank2r.bmp	0	1	+	0	5	C1r.bmp	492	1	blank2r.bmp	786	1	GFVZ	786	1	blank2r.bmp	866	3	stinken	866	1	!	1227	1	!	-1	0	0	0	0	0	0	0	0	0	0	0	0	0	0	0	0	0	0	0	0	0	0	0	0	0	0	0
062918	16:10:49	5.0.12.0	143	notassociated	Rpleas_acq	Oppo	Lpleas	Bmasked	CS_B	1pleas	cond_new_unple_456_masked_CS1	condtest_masked_4	9	33	400	0	300	300	0	0	708	50	0	1	0	0	0	1	blank2r.bmp	0	1	+	0	2	B2r.bmp	492	1	blank2r.bmp	786	1	BXCP	786	1	blank2r.bmp	866	2	eitel	866	1	!	1227	1	!	-1	0	0	0	0	0	0	0	0	0	0	0	0	0	0	0	0	0	0	0	0	0	0	0	0	0	0	0
062918	16:10:49	5.0.12.0	143	notassociated	Rpleas_acq	Oppo	Lpleas	Bmasked	CS_B	1pleas	cond_new_pleas_456_masked_CS2	condtest_masked_4	9	34	400	0	300	300	0	0	525	46	0	1	0	0	0	1	blank2r.bmp	0	1	+	0	6	C2r.bmp	492	1	blank2r.bmp	786	1	GFVZ	786	1	blank2r.bmp	866	1	keks	866	1	!	1227	1	!	-1	0	0	0	0	0	0	0	0	0	0	0	0	0	0	0	0	0	0	0	0	0	0	0	0	0	0	0
062918	16:10:49	5.0.12.0	143	notassociated	Rpleas_acq	Oppo	Lpleas	Bmasked	CS_B	1pleas	cond_US_unple_123_masked_CS2	condtest_masked_4	9	35	400	0	300	300	0	0	579	50	0	1	0	0	0	1	blank2r.bmp	0	1	+	0	3	B3r.bmp	492	1	blank2r.bmp	786	1	GFVZ	786	1	blank2r.bmp	866	3	übel	866	1	!	1227	1	!	-1	0	0	0	0	0	0	0	0	0	0	0	0	0	0	0	0	0	0	0	0	0	0	0	0	0	0	0
062918	16:10:49	5.0.12.0	143	notassociated	Rpleas_acq	Oppo	Lpleas	Bmasked	CS_B	1pleas	cond_new_unple_456_masked_CS1	condtest_masked_4	9	36	400	0	300	300	0	0	720	50	0	1	0	0	0	1	blank2r.bmp	0	1	+	0	8	C4r.bmp	492	1	blank2r.bmp	786	1	BXCP	786	1	blank2r.bmp	866	1	sekte	866	1	!	1227	1	!	-1	0	0	0	0	0	0	0	0	0	0	0	0	0	0	0	0	0	0	0	0	0	0	0	0	0	0	0
062918	16:10:49	5.0.12.0	143	notassociated	Rpleas_acq	Oppo	Lpleas	Bmasked	CS_B	1pleas	cond_US_unple_123_masked_CS2	condtest_masked_4	9	37	400	0	300	300	0	0	1081	50	0	1	0	0	0	1	blank2r.bmp	0	1	+	0	5	C1r.bmp	492	1	blank2r.bmp	786	1	GFVZ	786	1	blank2r.bmp	866	2	leiche	866	1	!	1227	1	!	-1	0	0	0	0	0	0	0	0	0	0	0	0	0	0	0	0	0	0	0	0	0	0	0	0	0	0	0
062918	16:10:49	5.0.12.0	143	notassociated	Rpleas_acq	Oppo	Lpleas	Bmasked	CS_B	1pleas	cond_US_pleas_123_masked_CS1	condtest_masked_4	9	38	400	0	300	300	0	0	1038	46	0	1	0	0	0	1	blank2r.bmp	0	1	+	0	1	B1r.bmp	492	1	blank2r.bmp	786	1	BXCP	786	1	blank2r.bmp	866	1	bett	866	1	!	1227	1	!	-1	0	0	0	0	0	0	0	0	0	0	0	0	0	0	0	0	0	0	0	0	0	0	0	0	0	0	0
062918	16:10:49	5.0.12.0	143	notassociated	Rpleas_acq	Oppo	Lpleas	Bmasked	CS_B	1pleas	cond_US_unple_123_masked_CS1	condtest_masked_4	9	39	400	0	300	300	0	0	808	50	0	1	0	0	0	1	blank2r.bmp	0	1	+	0	7	C3r.bmp	492	1	blank2r.bmp	786	1	BXCP	786	1	blank2r.bmp	866	2	leiche	866	1	!	1227	1	!	-1	0	0	0	0	0	0	0	0	0	0	0	0	0	0	0	0	0	0	0	0	0	0	0	0	0	0	0
062918	16:10:49	5.0.12.0	143	notassociated	Rpleas_acq	Oppo	Lpleas	Bmasked	CS_B	1pleas	cond_US_unple_123_masked_CS1	condtest_masked_4	9	40	400	0	300	300	0	0	582	50	0	1	0	0	0	1	blank2r.bmp	0	1	+	0	4	B4r.bmp	492	1	blank2r.bmp	786	1	BXCP	786	1	blank2r.bmp	866	3	übel	866	1	!	1227	1	!	-1	0	0	0	0	0	0	0	0	0	0	0	0	0	0	0	0	0	0	0	0	0	0	0	0	0	0	0
062918	16:10:49	5.0.12.0	143	notassociated	Rpleas_acq	Oppo	Lpleas	Bmasked	CS_B	1pleas	cond_US_pleas_123_masked_CS1	condtest_masked_4	9	41	400	0	300	300	0	0	628	46	0	1	0	0	0	1	blank2r.bmp	0	1	+	0	1	B1r.bmp	492	1	blank2r.bmp	786	1	BXCP	786	1	blank2r.bmp	866	2	knospe	866	1	!	1227	1	!	-1	0	0	0	0	0	0	0	0	0	0	0	0	0	0	0	0	0	0	0	0	0	0	0	0	0	0	0
062918	16:10:49	5.0.12.0	143	notassociated	Rpleas_acq	Oppo	Lpleas	Bmasked	CS_B	1pleas	cond_US_pleas_123_masked_CS2	condtest_masked_4	9	42	400	0	300	300	0	0	876	46	0	1	0	0	0	1	blank2r.bmp	0	1	+	0	8	C4r.bmp	492	1	blank2r.bmp	786	1	GFVZ	786	1	blank2r.bmp	866	1	bett	866	1	!	1227	1	!	-1	0	0	0	0	0	0	0	0	0	0	0	0	0	0	0	0	0	0	0	0	0	0	0	0	0	0	0
062918	16:10:49	5.0.12.0	143	notassociated	Rpleas_acq	Oppo	Lpleas	Bmasked	CS_B	1pleas	cond_US_pleas_123_masked_CS1	condtest_masked_4	9	43	400	1	300	300	0	0	390	50	0	0	0	0	0	1	blank2r.bmp	0	1	+	0	4	B4r.bmp	492	1	blank2r.bmp	786	1	BXCP	786	1	blank2r.bmp	866	3	sonne	866	1	!	1227	1	!	1283	0	0	0	0	0	0	0	0	0	0	0	0	0	0	0	0	0	0	0	0	0	0	0	0	0	0	0
062918	16:10:49	5.0.12.0	143	notassociated	Rpleas_acq	Oppo	Lpleas	Bmasked	CS_B	1pleas	cond_new_pleas_456_masked_CS2	condtest_masked_4	9	44	400	0	300	300	0	0	653	46	0	1	0	0	0	1	blank2r.bmp	0	1	+	0	2	B2r.bmp	492	1	blank2r.bmp	786	1	GFVZ	786	1	blank2r.bmp	866	3	eiche	866	1	!	1227	1	!	-1	0	0	0	0	0	0	0	0	0	0	0	0	0	0	0	0	0	0	0	0	0	0	0	0	0	0	0
062918	16:10:49	5.0.12.0	143	notassociated	Rpleas_acq	Oppo	Lpleas	Bmasked	CS_B	1pleas	cond_US_unple_123_masked_CS2	condtest_masked_4	9	45	400	0	300	300	0	0	491	50	0	1	0	0	0	1	blank2r.bmp	0	1	+	0	5	C1r.bmp	492	1	blank2r.bmp	786	1	GFVZ	786	1	blank2r.bmp	866	1	pest	866	1	!	1227	1	!	-1	0	0	0	0	0	0	0	0	0	0	0	0	0	0	0	0	0	0	0	0	0	0	0	0	0	0	0
062918	16:10:49	5.0.12.0	143	notassociated	Rpleas_acq	Oppo	Lpleas	Bmasked	CS_B	1pleas	cond_new_unple_456_masked_CS2	condtest_masked_4	9	46	400	1	300	300	0	0	342	46	0	0	0	0	0	1	blank2r.bmp	0	1	+	0	6	C2r.bmp	492	1	blank2r.bmp	786	1	GFVZ	786	1	blank2r.bmp	866	2	eitel	866	1	!	1227	1	!	1236	0	0	0	0	0	0	0	0	0	0	0	0	0	0	0	0	0	0	0	0	0	0	0	0	0	0	0
062918	16:10:49	5.0.12.0	143	notassociated	Rpleas_acq	Oppo	Lpleas	Bmasked	CS_B	1pleas	cond_new_unple_456_masked_CS1	condtest_masked_4	9	47	400	0	300	300	0	0	821	50	0	1	0	0	0	1	blank2r.bmp	0	1	+	0	3	B3r.bmp	492	1	blank2r.bmp	786	1	BXCP	786	1	blank2r.bmp	866	3	stinken	866	1	!	1227	1	!	-1	0	0	0	0	0	0	0	0	0	0	0	0	0	0	0	0	0	0	0	0	0	0	0	0	0	0	0
062918	16:10:49	5.0.12.0	143	notassociated	Rpleas_acq	Oppo	Lpleas	Bmasked	CS_B	1pleas	cond_new_unple_456_masked_CS1	condtest_masked_4	9	48	400	0	300	300	0	0	551	46	0	0	0	0	0	1	blank2r.bmp	0	1	+	0	7	C3r.bmp	492	1	blank2r.bmp	786	1	BXCP	786	1	blank2r.bmp	866	1	sekte	866	1	!	1227	1	!	-1	0	0	0	0	0	0	0	0	0	0	0	0	0	0	0	0	0	0	0	0	0	0	0	0	0	0	0
062918	16:10:49	5.0.12.0	143	notassociated	Rpleas_acq	Oppo	Lpleas	Bmasked	CS_B	1pleas	cond_US_unple_456_masked_CS2	condtest_masked_5	10	1	400	0	300	300	0	0	1176	46	0	0	0	0	0	1	blank2r.bmp	0	1	+	0	7	C3r.bmp	492	1	blank2r.bmp	786	1	GFVZ	786	1	blank2r.bmp	866	3	pistole	866	1	!	1227	1	!	-1	0	0	0	0	0	0	0	0	0	0	0	0	0	0	0	0	0	0	0	0	0	0	0	0	0	0	0
062918	16:10:49	5.0.12.0	143	notassociated	Rpleas_acq	Oppo	Lpleas	Bmasked	CS_B	1pleas	cond_US_unple_456_masked_CS2	condtest_masked_5	10	2	400	0	300	300	0	0	671	50	0	1	0	0	0	1	blank2r.bmp	0	1	+	0	4	B4r.bmp	492	1	blank2r.bmp	786	1	GFVZ	786	1	blank2r.bmp	866	1	pleite	866	1	!	1227	1	!	-1	0	0	0	0	0	0	0	0	0	0	0	0	0	0	0	0	0	0	0	0	0	0	0	0	0	0	0
062918	16:10:49	5.0.12.0	143	notassociated	Rpleas_acq	Oppo	Lpleas	Bmasked	CS_B	1pleas	cond_new_unple_123_masked_CS1	condtest_masked_5	10	3	400	0	300	300	0	0	640	50	0	1	0	0	0	1	blank2r.bmp	0	1	+	0	3	B3r.bmp	492	1	blank2r.bmp	786	1	BXCP	786	1	blank2r.bmp	866	2	spott	866	1	!	1227	1	!	-1	0	0	0	0	0	0	0	0	0	0	0	0	0	0	0	0	0	0	0	0	0	0	0	0	0	0	0
062918	16:10:49	5.0.12.0	143	notassociated	Rpleas_acq	Oppo	Lpleas	Bmasked	CS_B	1pleas	cond_new_pleas_123_masked_CS1	condtest_masked_5	10	4	400	0	300	300	0	0	491	46	0	1	0	0	0	1	blank2r.bmp	0	1	+	0	1	B1r.bmp	492	1	blank2r.bmp	786	1	BXCP	786	1	blank2r.bmp	866	1	küken	866	1	!	1227	1	!	-1	0	0	0	0	0	0	0	0	0	0	0	0	0	0	0	0	0	0	0	0	0	0	0	0	0	0	0
062918	16:10:49	5.0.12.0	143	notassociated	Rpleas_acq	Oppo	Lpleas	Bmasked	CS_B	1pleas	cond_US_pleas_456_masked_CS1	condtest_masked_5	10	5	400	0	300	300	0	0	630	46	0	1	0	0	0	1	blank2r.bmp	0	1	+	0	6	C2r.bmp	492	1	blank2r.bmp	786	1	BXCP	786	1	blank2r.bmp	866	3	lippe	866	1	!	1227	1	!	-1	0	0	0	0	0	0	0	0	0	0	0	0	0	0	0	0	0	0	0	0	0	0	0	0	0	0	0
062918	16:10:49	5.0.12.0	143	notassociated	Rpleas_acq	Oppo	Lpleas	Bmasked	CS_B	1pleas	cond_US_pleas_456_masked_CS2	condtest_masked_5	10	6	400	1	300	300	0	0	462	46	0	1	0	0	0	1	blank2r.bmp	0	1	+	0	2	B2r.bmp	492	1	blank2r.bmp	786	1	GFVZ	786	1	blank2r.bmp	866	2	liebe	866	1	!	1227	1	!	1356	0	0	0	0	0	0	0	0	0	0	0	0	0	0	0	0	0	0	0	0	0	0	0	0	0	0	0
062918	16:10:49	5.0.12.0	143	notassociated	Rpleas_acq	Oppo	Lpleas	Bmasked	CS_B	1pleas	cond_US_unple_456_masked_CS1	condtest_masked_5	10	7	400	1	300	300	0	0	422	50	0	1	0	0	0	1	blank2r.bmp	0	1	+	0	5	C1r.bmp	492	1	blank2r.bmp	786	1	BXCP	786	1	blank2r.bmp	866	2	toxisch	866	1	!	1227	1	!	1316	0	0	0	0	0	0	0	0	0	0	0	0	0	0	0	0	0	0	0	0	0	0	0	0	0	0	0
062918	16:10:49	5.0.12.0	143	notassociated	Rpleas_acq	Oppo	Lpleas	Bmasked	CS_B	1pleas	cond_new_pleas_123_masked_CS1	condtest_masked_5	10	8	400	0	300	300	0	0	515	46	0	1	0	0	0	1	blank2r.bmp	0	1	+	0	8	C4r.bmp	492	1	blank2r.bmp	786	1	BXCP	786	1	blank2r.bmp	866	3	nähe	866	1	!	1227	1	!	-1	0	0	0	0	0	0	0	0	0	0	0	0	0	0	0	0	0	0	0	0	0	0	0	0	0	0	0
062918	16:10:49	5.0.12.0	143	notassociated	Rpleas_acq	Oppo	Lpleas	Bmasked	CS_B	1pleas	cond_US_pleas_456_masked_CS1	condtest_masked_5	10	9	400	0	300	300	0	0	516	46	0	1	0	0	0	1	blank2r.bmp	0	1	+	0	8	C4r.bmp	492	1	blank2r.bmp	786	1	BXCP	786	1	blank2r.bmp	866	1	leben	866	1	!	1227	1	!	-1	0	0	0	0	0	0	0	0	0	0	0	0	0	0	0	0	0	0	0	0	0	0	0	0	0	0	0
062918	16:10:49	5.0.12.0	143	notassociated	Rpleas_acq	Oppo	Lpleas	Bmasked	CS_B	1pleas	cond_new_pleas_123_masked_CS2	condtest_masked_5	10	10	400	0	300	300	0	0	550	46	0	1	0	0	0	1	blank2r.bmp	0	1	+	0	3	B3r.bmp	492	1	blank2r.bmp	786	1	GFVZ	786	1	blank2r.bmp	866	2	bonbon	866	1	!	1227	1	!	-1	0	0	0	0	0	0	0	0	0	0	0	0	0	0	0	0	0	0	0	0	0	0	0	0	0	0	0
