subject_nr,block,trialnr,trial_target,trial_prime,prime_color,prime_role,prime_us,prime_relation,correct_response,target_valence,prime_valence,color_counter,correct_first_response,response_first_response,response_time_first_response,fixation_show,prime_show,target_show
43,first,0,sonnig,IAT_yellow4.bmp,yellow,ending_melody,melody,ending,m,positive,negative,ES_purple,1,m,565,3345905,3346406,3346608
43,first,1,morsch,IAT_purple2.bmp,purple,ending_scream,scream,ending,c,negative,positive,ES_purple,1,c,556,3348250,3348751,3348953
43,first,2,witzig,IAT_purple1.bmp,purple,ending_scream,scream,ending,m,positive,positive,ES_purple,1,m,515,3350611,3351113,3351315
43,first,3,ehrlich,IAT_green1.bmp,green,starting_melody,melody,starting,m,positive,positive,ES_purple,1,m,541,3352906,3353407,3353609
43,first,4,gerecht,IAT_red1.bmp,red,starting_scream,scream,starting,m,positive,negative,ES_purple,1,m,466,3355220,3355722,3355924
43,first,5,feige,IAT_yellow1.bmp,yellow,ending_melody,melody,ending,c,negative,negative,ES_purple,1,c,571,3357467,3357968,3358170
43,first,6,geizig,IAT_purple2.bmp,purple,ending_scream,scream,ending,c,negative,positive,ES_purple,0,m,486,3359824,3360325,3360527
43,first,7,witzig,IAT_green1.bmp,green,starting_melody,melody,starting,m,positive,positive,ES_purple,1,m,533,3362593,3363094,3363296
43,first,8,heiter,IAT_red3.bmp,red,starting_scream,scream,starting,m,positive,negative,ES_purple,1,m,540,3364905,3365407,3365609
43,first,9,sanft,IAT_purple3.bmp,purple,ending_scream,scream,ending,m,positive,positive,ES_purple,1,m,496,3367223,3367724,3367926
43,first,10,human,IAT_purple3.bmp,purple,ending_scream,scream,ending,m,positive,positive,ES_purple,1,m,601,3369502,3370003,3370205
43,first,11,sonnig,IAT_red4.bmp,red,starting_scream,scream,starting,m,positive,negative,ES_purple,1,m,537,3371900,3372402,3372604
43,first,12,kaputt,IAT_purple1.bmp,purple,ending_scream,scream,ending,c,negative,positive,ES_purple,1,c,612,3374226,3374727,3374929
43,first,13,sanft,IAT_purple4.bmp,purple,ending_scream,scream,ending,m,positive,positive,ES_purple,1,m,893,3376617,3377118,3377320
43,first,14,witzig,IAT_green2.bmp,green,starting_melody,melody,starting,m,positive,positive,ES_purple,1,m,616,3379294,3379795,3379997
43,first,15,ehrlich,IAT_green1.bmp,green,starting_melody,melody,starting,m,positive,positive,ES_purple,1,m,598,3381696,3382197,3382399
43,first,16,lustig,IAT_yellow2.bmp,yellow,ending_melody,melody,ending,m,positive,negative,ES_purple,1,m,685,3384073,3384574,3384776
43,first,17,lästig,IAT_green2.bmp,green,starting_melody,melody,starting,c,negative,positive,ES_purple,1,c,602,3386541,3387042,3387244
43,first,18,munter,IAT_green2.bmp,green,starting_melody,melody,starting,m,positive,positive,ES_purple,1,m,567,3388927,3389428,3389630
43,first,19,krank,IAT_red2.bmp,red,starting_scream,scream,starting,c,negative,negative,ES_purple,0,m,499,3391299,3391800,3392002
43,first,20,einsam,IAT_red2.bmp,red,starting_scream,scream,starting,c,negative,negative,ES_purple,1,c,881,3394085,3394586,3394788
43,first,21,gesund,IAT_yellow4.bmp,yellow,ending_melody,melody,ending,m,positive,negative,ES_purple,1,m,495,3396743,3397244,3397446
43,first,22,krank,IAT_yellow2.bmp,yellow,ending_melody,melody,ending,c,negative,negative,ES_purple,1,c,624,3399015,3399516,3399717
43,first,23,morsch,IAT_green3.bmp,green,starting_melody,melody,starting,c,negative,positive,ES_purple,1,c,559,3401415,3401916,3402118
43,first,24,feige,IAT_purple2.bmp,purple,ending_scream,scream,ending,c,negative,positive,ES_purple,1,c,517,3403777,3404278,3404480
43,first,25,streng,IAT_red4.bmp,red,starting_scream,scream,starting,c,negative,negative,ES_purple,1,c,480,3406070,3406571,3406773
43,first,26,schön,IAT_yellow2.bmp,yellow,ending_melody,melody,ending,m,positive,negative,ES_purple,1,m,528,3408326,3408827,3409029
43,first,27,brutal,IAT_purple1.bmp,purple,ending_scream,scream,ending,c,negative,positive,ES_purple,1,c,531,3410643,3411144,3411346
43,first,28,lästig,IAT_purple4.bmp,purple,ending_scream,scream,ending,c,negative,positive,ES_purple,0,m,613,3412961,3413462,3413664
43,first,29,gierig,IAT_purple4.bmp,purple,ending_scream,scream,ending,c,negative,positive,ES_purple,0,m,653,3415849,3416350,3416552
43,first,30,gerecht,IAT_purple1.bmp,purple,ending_scream,scream,ending,m,positive,positive,ES_purple,0,c,966,3418783,3419284,3419486
43,first,31,sonnig,IAT_yellow1.bmp,yellow,ending_melody,melody,ending,m,positive,negative,ES_purple,1,m,779,3422027,3422528,3422730
43,first,32,falsch,IAT_green2.bmp,green,starting_melody,melody,starting,c,negative,positive,ES_purple,1,c,590,3424584,3425085,3425287
43,first,33,geizig,IAT_yellow4.bmp,yellow,ending_melody,melody,ending,c,negative,negative,ES_purple,1,c,541,3426953,3427454,3427656
43,first,34,sozial,IAT_purple2.bmp,purple,ending_scream,scream,ending,m,positive,positive,ES_purple,1,m,795,3429291,3429792,3429994
43,first,35,sanft,IAT_green3.bmp,green,starting_melody,melody,starting,m,positive,positive,ES_purple,1,m,642,3431876,3432377,3432579
43,first,36,teuer,IAT_green2.bmp,green,starting_melody,melody,starting,c,negative,positive,ES_purple,0,m,538,3434298,3434800,3435002
43,first,37,gierig,IAT_green1.bmp,green,starting_melody,melody,starting,c,negative,positive,ES_purple,1,c,633,3437117,3437618,3437820
43,first,38,lustig,IAT_purple3.bmp,purple,ending_scream,scream,ending,m,positive,positive,ES_purple,1,m,817,3439525,3440026,3440228
43,first,39,sozial,IAT_purple4.bmp,purple,ending_scream,scream,ending,m,positive,positive,ES_purple,0,c,732,3442122,3442623,3442825
43,first,40,brutal,IAT_red2.bmp,red,starting_scream,scream,starting,c,negative,negative,ES_purple,1,c,857,3445165,3445666,3445868
43,first,41,gerecht,IAT_yellow1.bmp,yellow,ending_melody,melody,ending,m,positive,negative,ES_purple,1,m,810,3447804,3448305,3448507
43,first,42,heiter,IAT_green3.bmp,green,starting_melody,melody,starting,m,positive,positive,ES_purple,1,m,610,3450403,3450904,3451106
43,first,43,streng,IAT_purple4.bmp,purple,ending_scream,scream,ending,c,negative,positive,ES_purple,1,c,649,3452812,3453313,3453515
43,first,44,munter,IAT_red2.bmp,red,starting_scream,scream,starting,m,positive,negative,ES_purple,1,m,628,3455267,3455768,3455969
43,first,45,kaputt,IAT_yellow4.bmp,yellow,ending_melody,melody,ending,c,negative,negative,ES_purple,1,c,852,3457682,3458183,3458385
43,first,46,einsam,IAT_red1.bmp,red,starting_scream,scream,starting,c,negative,negative,ES_purple,1,c,529,3460309,3460810,3461012
43,first,47,sanft,IAT_yellow3.bmp,yellow,ending_melody,melody,ending,m,positive,negative,ES_purple,1,m,589,3462617,3463118,3463320
43,first,48,schön,IAT_red3.bmp,red,starting_scream,scream,starting,m,positive,negative,ES_purple,1,m,597,3465009,3465510,3465712
43,first,49,falsch,IAT_red2.bmp,red,starting_scream,scream,starting,c,negative,negative,ES_purple,1,c,570,3467387,3467888,3468090
43,first,50,munter,IAT_red1.bmp,red,starting_scream,scream,starting,m,positive,negative,ES_purple,1,m,562,3469731,3470232,3470434
43,first,51,schön,IAT_green3.bmp,green,starting_melody,melody,starting,m,positive,positive,ES_purple,1,m,561,3472085,3472586,3472788
43,first,52,feige,IAT_red4.bmp,red,starting_scream,scream,starting,c,negative,negative,ES_purple,1,c,522,3474428,3474929,3475131
43,first,53,sonnig,IAT_purple2.bmp,purple,ending_scream,scream,ending,m,positive,positive,ES_purple,1,m,526,3476728,3477229,3477431
43,first,54,lästig,IAT_yellow4.bmp,yellow,ending_melody,melody,ending,c,negative,negative,ES_purple,1,c,512,3479030,3479531,3479733
43,first,55,gesund,IAT_red3.bmp,red,starting_scream,scream,starting,m,positive,negative,ES_purple,1,m,575,3481318,3481819,3482021
43,first,56,human,IAT_red2.bmp,red,starting_scream,scream,starting,m,positive,negative,ES_purple,1,m,556,3483673,3484174,3484376
43,first,57,kaputt,IAT_red4.bmp,red,starting_scream,scream,starting,c,negative,negative,ES_purple,1,c,589,3486025,3486526,3486727
43,first,58,geizig,IAT_green2.bmp,green,starting_melody,melody,starting,c,negative,positive,ES_purple,1,c,593,3488388,3488889,3489091
43,first,59,sozial,IAT_red4.bmp,red,starting_scream,scream,starting,m,positive,negative,ES_purple,1,m,577,3490757,3491258,3491460
43,first,60,teuer,IAT_purple2.bmp,purple,ending_scream,scream,ending,c,negative,positive,ES_purple,1,c,583,3493119,3493620,3493822
43,first,61,gesund,IAT_yellow3.bmp,yellow,ending_melody,melody,ending,m,positive,negative,ES_purple,1,m,488,3495486,3495987,3496189
43,first,62,streng,IAT_yellow3.bmp,yellow,ending_melody,melody,ending,c,negative,negative,ES_purple,1,c,510,3497751,3498252,3498454
43,first,63,gierig,IAT_green4.bmp,green,starting_melody,melody,starting,c,negative,positive,ES_purple,1,c,600,3500045,3500546,3500748
43,first,64,geizig,IAT_yellow2.bmp,yellow,ending_melody,melody,ending,c,negative,negative,ES_purple,1,c,546,3502435,3502936,3503138
43,first,65,gerecht,IAT_green4.bmp,green,starting_melody,melody,starting,m,positive,positive,ES_purple,1,m,523,3504762,3505263,3505465
43,first,66,morsch,IAT_red1.bmp,red,starting_scream,scream,starting,c,negative,negative,ES_purple,1,c,635,3507067,3507568,3507770
43,first,67,brutal,IAT_green1.bmp,green,starting_melody,melody,starting,c,negative,positive,ES_purple,1,c,558,3509480,3509981,3510183
43,first,68,kaputt,IAT_yellow2.bmp,yellow,ending_melody,melody,ending,c,negative,negative,ES_purple,1,c,529,3511829,3512330,3512532
43,first,69,einsam,IAT_yellow1.bmp,yellow,ending_melody,melody,ending,c,negative,negative,ES_purple,1,c,558,3514135,3514636,3514838
43,first,70,teuer,IAT_purple4.bmp,purple,ending_scream,scream,ending,c,negative,positive,ES_purple,1,c,697,3516492,3516993,3517195
43,first,71,brutal,IAT_red3.bmp,red,starting_scream,scream,starting,c,negative,negative,ES_purple,1,c,563,3518962,3519463,3519665
43,first,72,ehrlich,IAT_red1.bmp,red,starting_scream,scream,starting,m,positive,negative,ES_purple,1,m,782,3521303,3521804,3522006
43,first,73,falsch,IAT_purple3.bmp,purple,ending_scream,scream,ending,c,negative,positive,ES_purple,1,c,628,3523857,3524358,3524560
43,first,74,witzig,IAT_green1.bmp,green,starting_melody,melody,starting,m,positive,positive,ES_purple,1,m,636,3526282,3526783,3526985
43,first,75,gesund,IAT_purple1.bmp,purple,ending_scream,scream,ending,m,positive,positive,ES_purple,1,m,602,3528699,3529200,3529402
43,first,76,human,IAT_red3.bmp,red,starting_scream,scream,starting,m,positive,negative,ES_purple,1,m,719,3531077,3531579,3531781
43,first,77,krank,IAT_yellow3.bmp,yellow,ending_melody,melody,ending,c,negative,negative,ES_purple,1,c,721,3533572,3534073,3534275
43,first,78,morsch,IAT_green3.bmp,green,starting_melody,melody,starting,c,negative,positive,ES_purple,1,c,562,3536067,3536568,3536770
43,first,79,feige,IAT_yellow2.bmp,yellow,ending_melody,melody,ending,c,negative,negative,ES_purple,1,c,565,3538416,3538917,3539119
43,first,80,teuer,IAT_green4.bmp,green,starting_melody,melody,starting,c,negative,positive,ES_purple,1,c,732,3540761,3541262,3541464
43,first,81,ehrlich,IAT_red1.bmp,red,starting_scream,scream,starting,m,positive,negative,ES_purple,1,m,643,3543266,3543767,3543969
43,first,82,falsch,IAT_yellow4.bmp,yellow,ending_melody,melody,ending,c,negative,negative,ES_purple,1,c,558,3545687,3546188,3546389
43,first,83,human,IAT_yellow1.bmp,yellow,ending_melody,melody,ending,m,positive,negative,ES_purple,1,m,555,3548025,3548526,3548728
43,first,84,einsam,IAT_red3.bmp,red,starting_scream,scream,starting,c,negative,negative,ES_purple,1,c,576,3550372,3550873,3551075
43,first,85,heiter,IAT_yellow3.bmp,yellow,ending_melody,melody,ending,m,positive,negative,ES_purple,1,m,477,3552727,3553228,3553430
43,first,86,sozial,IAT_yellow1.bmp,yellow,ending_melody,melody,ending,m,positive,negative,ES_purple,1,m,542,3554998,3555499,3555701
43,first,87,lustig,IAT_purple1.bmp,purple,ending_scream,scream,ending,m,positive,positive,ES_purple,0,c,489,3557322,3557824,3558026
43,first,88,munter,IAT_yellow3.bmp,yellow,ending_melody,melody,ending,m,positive,negative,ES_purple,1,m,636,3560088,3560589,3560791
43,first,89,lustig,IAT_purple3.bmp,purple,ending_scream,scream,ending,m,positive,positive,ES_purple,1,m,687,3562518,3563019,3563220
43,first,90,streng,IAT_red4.bmp,red,starting_scream,scream,starting,c,negative,negative,ES_purple,1,c,625,3564979,3565480,3565682
43,first,91,gierig,IAT_green4.bmp,green,starting_melody,melody,starting,c,negative,positive,ES_purple,1,c,751,3567381,3567882,3568084
43,first,92,krank,IAT_purple3.bmp,purple,ending_scream,scream,ending,c,negative,positive,ES_purple,1,c,557,3569927,3570428,3570630
43,first,93,schön,IAT_green4.bmp,green,starting_melody,melody,starting,m,positive,positive,ES_purple,1,m,496,3572275,3572777,3572979
43,first,94,lästig,IAT_green4.bmp,green,starting_melody,melody,starting,c,negative,positive,ES_purple,1,c,558,3574549,3575050,3575252
43,first,95,heiter,IAT_green3.bmp,green,starting_melody,melody,starting,m,positive,positive,ES_purple,1,m,598,3576925,3577427,3577629
43,second,0,sozial,IAT_yellow4.bmp,yellow,ending_melody,melody,ending,m,positive,negative,ES_purple,1,m,540,3601048,3601549,3601751
43,second,1,lustig,IAT_green3.bmp,green,starting_melody,melody,starting,m,positive,positive,ES_purple,1,m,504,3603371,3603873,3604075
43,second,2,lästig,IAT_purple1.bmp,purple,ending_scream,scream,ending,c,negative,positive,ES_purple,1,c,619,3605656,3606157,3606359
43,second,3,streng,IAT_purple2.bmp,purple,ending_scream,scream,ending,c,negative,positive,ES_purple,1,c,657,3608066,3608567,3608769
43,second,4,einsam,IAT_red1.bmp,red,starting_scream,scream,starting,c,negative,negative,ES_purple,1,c,534,3610509,3611010,3611212
43,second,5,morsch,IAT_green4.bmp,green,starting_melody,melody,starting,c,negative,positive,ES_purple,1,c,529,3612835,3613336,3613538
43,second,6,einsam,IAT_green2.bmp,green,starting_melody,melody,starting,c,negative,positive,ES_purple,1,c,510,3615142,3615643,3615845
43,second,7,sozial,IAT_red1.bmp,red,starting_scream,scream,starting,m,positive,negative,ES_purple,0,c,521,3617435,3617936,3618138
43,second,8,witzig,IAT_red3.bmp,red,starting_scream,scream,starting,m,positive,negative,ES_purple,1,m,650,3620234,3620735,3620937
43,second,9,brutal,IAT_purple4.bmp,purple,ending_scream,scream,ending,c,negative,positive,ES_purple,1,c,587,3622664,3623166,3623367
43,second,10,gierig,IAT_red4.bmp,red,starting_scream,scream,starting,c,negative,negative,ES_purple,1,c,659,3625056,3625557,3625759
43,second,11,lästig,IAT_yellow2.bmp,yellow,ending_melody,melody,ending,c,negative,negative,ES_purple,1,c,685,3627495,3627996,3628197
43,second,12,munter,IAT_red1.bmp,red,starting_scream,scream,starting,m,positive,negative,ES_purple,1,m,592,3629956,3630457,3630659
43,second,13,feige,IAT_green3.bmp,green,starting_melody,melody,starting,c,negative,positive,ES_purple,1,c,621,3632327,3632828,3633030
43,second,14,sonnig,IAT_green1.bmp,green,starting_melody,melody,starting,m,positive,positive,ES_purple,1,m,546,3634738,3635239,3635441
43,second,15,sozial,IAT_yellow3.bmp,yellow,ending_melody,melody,ending,m,positive,negative,ES_purple,1,m,570,3637065,3637566,3637768
43,second,16,kaputt,IAT_green2.bmp,green,starting_melody,melody,starting,c,negative,positive,ES_purple,1,c,673,3639410,3639911,3640113
43,second,17,brutal,IAT_green2.bmp,green,starting_melody,melody,starting,c,negative,positive,ES_purple,1,c,764,3641864,3642365,3642566
43,second,18,lästig,IAT_green1.bmp,green,starting_melody,melody,starting,c,negative,positive,ES_purple,1,c,637,3644406,3644907,3645109
43,second,19,falsch,IAT_red3.bmp,red,starting_scream,scream,starting,c,negative,negative,ES_purple,1,c,686,3646822,3647323,3647525
43,second,20,einsam,IAT_green4.bmp,green,starting_melody,melody,starting,c,negative,positive,ES_purple,1,c,529,3649283,3649784,3649986
43,second,21,gerecht,IAT_green1.bmp,green,starting_melody,melody,starting,m,positive,positive,ES_purple,1,m,636,3651592,3652093,3652295
43,second,22,kaputt,IAT_yellow1.bmp,yellow,ending_melody,melody,ending,c,negative,negative,ES_purple,1,c,677,3654014,3654515,3654717
43,second,23,morsch,IAT_green2.bmp,green,starting_melody,melody,starting,c,negative,positive,ES_purple,1,c,550,3656493,3656994,3657196
43,second,24,schön,IAT_yellow2.bmp,yellow,ending_melody,melody,ending,m,positive,negative,ES_purple,1,m,672,3658818,3659320,3659522
43,second,25,feige,IAT_yellow4.bmp,yellow,ending_melody,melody,ending,c,negative,negative,ES_purple,1,c,478,3661269,3661770,3661972
43,second,26,witzig,IAT_red2.bmp,red,starting_scream,scream,starting,m,positive,negative,ES_purple,1,m,543,3663524,3664026,3664227
43,second,27,human,IAT_green2.bmp,green,starting_melody,melody,starting,m,positive,positive,ES_purple,1,m,544,3665844,3666345,3666547
43,second,28,sanft,IAT_green1.bmp,green,starting_melody,melody,starting,m,positive,positive,ES_purple,0,c,473,3668170,3668671,3668873
43,second,29,ehrlich,IAT_red3.bmp,red,starting_scream,scream,starting,m,positive,negative,ES_purple,1,m,593,3670930,3671431,3671633
43,second,30,gierig,IAT_red4.bmp,red,starting_scream,scream,starting,c,negative,negative,ES_purple,0,m,505,3673306,3673807,3674009
43,second,31,gesund,IAT_purple1.bmp,purple,ending_scream,scream,ending,m,positive,positive,ES_purple,0,c,697,3676090,3676591,3676793
43,second,32,gerecht,IAT_red3.bmp,red,starting_scream,scream,starting,m,positive,negative,ES_purple,1,m,840,3679067,3679568,3679770
43,second,33,witzig,IAT_purple1.bmp,purple,ending_scream,scream,ending,m,positive,positive,ES_purple,1,m,551,3681692,3682194,3682396
43,second,34,krank,IAT_green3.bmp,green,starting_melody,melody,starting,c,negative,positive,ES_purple,1,c,1023,3684021,3684522,3684723
43,second,35,munter,IAT_yellow3.bmp,yellow,ending_melody,melody,ending,m,positive,negative,ES_purple,1,m,931,3686816,3687317,3687519
43,second,36,teuer,IAT_purple3.bmp,purple,ending_scream,scream,ending,c,negative,positive,ES_purple,1,c,889,3689529,3690030,3690232
43,second,37,feige,IAT_green4.bmp,green,starting_melody,melody,starting,c,negative,positive,ES_purple,1,c,490,3692199,3692701,3692903
43,second,38,falsch,IAT_purple4.bmp,purple,ending_scream,scream,ending,c,negative,positive,ES_purple,1,c,470,3694476,3694977,3695179
43,second,39,gierig,IAT_red4.bmp,red,starting_scream,scream,starting,c,negative,negative,ES_purple,1,c,610,3696720,3697221,3697423
43,second,40,brutal,IAT_purple4.bmp,purple,ending_scream,scream,ending,c,negative,positive,ES_purple,1,c,520,3699114,3699615,3699817
43,second,41,morsch,IAT_red2.bmp,red,starting_scream,scream,starting,c,negative,negative,ES_purple,1,c,604,3701414,3701915,3702117
43,second,42,sonnig,IAT_red3.bmp,red,starting_scream,scream,starting,m,positive,negative,ES_purple,1,m,500,3703806,3704307,3704509
43,second,43,schön,IAT_green3.bmp,green,starting_melody,melody,starting,m,positive,positive,ES_purple,1,m,472,3706090,3706591,3706793
43,second,44,krank,IAT_red2.bmp,red,starting_scream,scream,starting,c,negative,negative,ES_purple,1,c,558,3708356,3708857,3709059
43,second,45,brutal,IAT_yellow4.bmp,yellow,ending_melody,melody,ending,c,negative,negative,ES_purple,1,c,592,3710690,3711191,3711393
43,second,46,falsch,IAT_purple2.bmp,purple,ending_scream,scream,ending,c,negative,positive,ES_purple,1,c,461,3713076,3713577,3713779
43,second,47,munter,IAT_green3.bmp,green,starting_melody,melody,starting,m,positive,positive,ES_purple,1,m,607,3715314,3715815,3716017
43,second,48,teuer,IAT_yellow3.bmp,yellow,ending_melody,melody,ending,c,negative,negative,ES_purple,1,c,575,3717731,3718232,3718434
43,second,49,gesund,IAT_yellow1.bmp,yellow,ending_melody,melody,ending,m,positive,negative,ES_purple,1,m,965,3720093,3720594,3720796
43,second,50,heiter,IAT_purple1.bmp,purple,ending_scream,scream,ending,m,positive,positive,ES_purple,1,m,724,3722830,3723331,3723533
43,second,51,geizig,IAT_red2.bmp,red,starting_scream,scream,starting,c,negative,negative,ES_purple,1,c,944,3725331,3725832,3726033
43,second,52,human,IAT_green4.bmp,green,starting_melody,melody,starting,m,positive,positive,ES_purple,1,m,629,3728060,3728562,3728764
43,second,53,krank,IAT_red2.bmp,red,starting_scream,scream,starting,c,negative,negative,ES_purple,1,c,575,3730466,3730967,3731169
43,second,54,sanft,IAT_purple3.bmp,purple,ending_scream,scream,ending,m,positive,positive,ES_purple,1,m,559,3732818,3733319,3733521
43,second,55,heiter,IAT_green1.bmp,green,starting_melody,melody,starting,m,positive,positive,ES_purple,1,m,557,3735173,3735674,3735876
43,second,56,kaputt,IAT_purple3.bmp,purple,ending_scream,scream,ending,c,negative,positive,ES_purple,1,c,495,3737507,3738008,3738210
43,second,57,lustig,IAT_purple2.bmp,purple,ending_scream,scream,ending,m,positive,positive,ES_purple,1,m,528,3739810,3740311,3740513
43,second,58,schön,IAT_yellow1.bmp,yellow,ending_melody,melody,ending,m,positive,negative,ES_purple,1,m,571,3742119,3742620,3742822
43,second,59,human,IAT_green4.bmp,green,starting_melody,melody,starting,m,positive,positive,ES_purple,1,m,619,3744471,3744972,3745174
43,second,60,ehrlich,IAT_purple3.bmp,purple,ending_scream,scream,ending,m,positive,positive,ES_purple,1,m,543,3746866,3747367,3747569
43,second,61,streng,IAT_purple1.bmp,purple,ending_scream,scream,ending,c,negative,positive,ES_purple,1,c,592,3749185,3749686,3749888
43,second,62,geizig,IAT_purple2.bmp,purple,ending_scream,scream,ending,c,negative,positive,ES_purple,1,c,536,3751562,3752063,3752265
43,second,63,sanft,IAT_green2.bmp,green,starting_melody,melody,starting,m,positive,positive,ES_purple,1,m,503,3753883,3754384,3754586
43,second,64,morsch,IAT_green4.bmp,green,starting_melody,melody,starting,c,negative,positive,ES_purple,1,c,556,3756167,3756668,3756869
43,second,65,falsch,IAT_yellow4.bmp,yellow,ending_melody,melody,ending,c,negative,negative,ES_purple,1,c,570,3758505,3759006,3759207
43,second,66,streng,IAT_red1.bmp,red,starting_scream,scream,starting,c,negative,negative,ES_purple,1,c,686,3760851,3761352,3761554
43,second,67,witzig,IAT_yellow2.bmp,yellow,ending_melody,melody,ending,m,positive,negative,ES_purple,1,m,546,3763311,3763812,3764014
43,second,68,kaputt,IAT_green1.bmp,green,starting_melody,melody,starting,c,negative,positive,ES_purple,1,c,521,3765640,3766141,3766343
43,second,69,gerecht,IAT_red1.bmp,red,starting_scream,scream,starting,m,positive,negative,ES_purple,1,m,550,3767946,3768448,3768650
43,second,70,sonnig,IAT_red4.bmp,red,starting_scream,scream,starting,m,positive,negative,ES_purple,1,m,529,3770273,3770774,3770976
43,second,71,heiter,IAT_yellow3.bmp,yellow,ending_melody,melody,ending,m,positive,negative,ES_purple,1,m,496,3772594,3773095,3773297
43,second,72,lustig,IAT_green3.bmp,green,starting_melody,melody,starting,m,positive,positive,ES_purple,0,c,480,3774866,3775367,3775569
43,second,73,ehrlich,IAT_purple4.bmp,purple,ending_scream,scream,ending,m,positive,positive,ES_purple,1,m,506,3777623,3778124,3778326
43,second,74,lustig,IAT_purple2.bmp,purple,ending_scream,scream,ending,m,positive,positive,ES_purple,1,m,521,3779928,3780429,3780631
43,second,75,geizig,IAT_red3.bmp,red,starting_scream,scream,starting,c,negative,negative,ES_purple,0,m,537,3782232,3782733,3782935
43,second,76,einsam,IAT_purple4.bmp,purple,ending_scream,scream,ending,c,negative,positive,ES_purple,1,c,738,3785055,3785556,3785758
43,second,77,gesund,IAT_yellow4.bmp,yellow,ending_melody,melody,ending,m,positive,negative,ES_purple,1,m,626,3787569,3788070,3788271
43,second,78,teuer,IAT_yellow2.bmp,yellow,ending_melody,melody,ending,c,negative,negative,ES_purple,1,c,714,3789976,3790477,3790679
43,second,79,munter,IAT_purple3.bmp,purple,ending_scream,scream,ending,m,positive,positive,ES_purple,1,m,629,3792476,3792977,3793179
43,second,80,human,IAT_yellow1.bmp,yellow,ending_melody,melody,ending,m,positive,negative,ES_purple,1,m,597,3794892,3795393,3795595
43,second,81,ehrlich,IAT_purple1.bmp,purple,ending_scream,scream,ending,m,positive,positive,ES_purple,1,m,699,3797269,3797770,3797972
43,second,82,gesund,IAT_yellow1.bmp,yellow,ending_melody,melody,ending,m,positive,negative,ES_purple,1,m,555,3799749,3800250,3800452
43,second,83,gierig,IAT_yellow2.bmp,yellow,ending_melody,melody,ending,c,negative,negative,ES_purple,1,c,646,3802090,3802591,3802793
43,second,84,sozial,IAT_yellow3.bmp,yellow,ending_melody,melody,ending,m,positive,negative,ES_purple,1,m,637,3804516,3805017,3805219
43,second,85,sonnig,IAT_red4.bmp,red,starting_scream,scream,starting,m,positive,negative,ES_purple,1,m,605,3806932,3807433,3807635
43,second,86,heiter,IAT_red1.bmp,red,starting_scream,scream,starting,m,positive,negative,ES_purple,1,m,583,3809321,3809822,3810024
43,second,87,krank,IAT_red4.bmp,red,starting_scream,scream,starting,c,negative,negative,ES_purple,1,c,887,3811689,3812190,3812392
43,second,88,teuer,IAT_yellow4.bmp,yellow,ending_melody,melody,ending,c,negative,negative,ES_purple,0,m,634,3814358,3814859,3815061
43,second,89,streng,IAT_yellow3.bmp,yellow,ending_melody,melody,ending,c,negative,negative,ES_purple,1,c,614,3817274,3817775,3817977
43,second,90,feige,IAT_purple2.bmp,purple,ending_scream,scream,ending,c,negative,positive,ES_purple,1,c,558,3819681,3820183,3820385
43,second,91,sanft,IAT_purple4.bmp,purple,ending_scream,scream,ending,m,positive,positive,ES_purple,1,m,659,3822031,3822532,3822733
43,second,92,geizig,IAT_yellow1.bmp,yellow,ending_melody,melody,ending,c,negative,negative,ES_purple,1,c,585,3824471,3824972,3825174
43,second,93,gerecht,IAT_purple3.bmp,purple,ending_scream,scream,ending,m,positive,positive,ES_purple,1,m,903,3826841,3827342,3827544
43,second,94,schön,IAT_red2.bmp,red,starting_scream,scream,starting,m,positive,negative,ES_purple,1,m,672,3829519,3830021,3830223
43,second,95,lästig,IAT_yellow2.bmp,yellow,ending_melody,melody,ending,c,negative,negative,ES_purple,1,c,650,3831975,3832476,3832677
