subject_nr,block,trialnr,trial_target,trial_prime,prime_color,prime_role,prime_us,prime_relation,correct_response,target_valence,prime_valence,color_counter,correct_first_response,response_first_response,response_time_first_response,fixation_show,prime_show,target_show
18,first,0,falsch,IAT_red2.bmp,red,starting_scream,scream,starting,c,negative,negative,ES_purple,1,c,662,925268,925769,925971
18,first,1,heiter,IAT_red3.bmp,red,starting_scream,scream,starting,m,positive,negative,ES_purple,1,m,653,927709,928210,928412
18,first,2,sozial,IAT_yellow1.bmp,yellow,ending_melody,melody,ending,m,positive,negative,ES_purple,1,m,594,930167,930668,930870
18,first,3,kaputt,IAT_yellow4.bmp,yellow,ending_melody,melody,ending,c,negative,negative,ES_purple,1,c,717,932540,933041,933243
18,first,4,krank,IAT_green4.bmp,green,starting_melody,melody,starting,c,negative,positive,ES_purple,1,c,610,935031,935532,935734
18,first,5,einsam,IAT_green2.bmp,green,starting_melody,melody,starting,c,negative,positive,ES_purple,1,c,622,937420,937921,938122
18,first,6,feige,IAT_red1.bmp,red,starting_scream,scream,starting,c,negative,negative,ES_purple,1,c,560,939833,940334,940536
18,first,7,brutal,IAT_purple3.bmp,purple,ending_scream,scream,ending,c,negative,positive,ES_purple,1,c,543,942171,942672,942874
18,first,8,morsch,IAT_red4.bmp,red,starting_scream,scream,starting,c,negative,negative,ES_purple,1,c,525,944509,945010,945212
18,first,9,gierig,IAT_yellow4.bmp,yellow,ending_melody,melody,ending,c,negative,negative,ES_purple,1,c,597,946820,947321,947523
18,first,10,witzig,IAT_purple1.bmp,purple,ending_scream,scream,ending,m,positive,positive,ES_purple,1,m,673,949192,949693,949895
18,first,11,streng,IAT_green4.bmp,green,starting_melody,melody,starting,c,negative,positive,ES_purple,1,c,588,951645,952146,952348
18,first,12,feige,IAT_yellow2.bmp,yellow,ending_melody,melody,ending,c,negative,negative,ES_purple,1,c,588,954012,954514,954716
18,first,13,kaputt,IAT_yellow3.bmp,yellow,ending_melody,melody,ending,c,negative,negative,ES_purple,1,c,602,956383,956884,957086
18,first,14,lustig,IAT_green1.bmp,green,starting_melody,melody,starting,m,positive,positive,ES_purple,1,m,723,958759,959260,959462
18,first,15,morsch,IAT_purple4.bmp,purple,ending_scream,scream,ending,c,negative,positive,ES_purple,1,c,594,961270,961772,961974
18,first,16,brutal,IAT_purple4.bmp,purple,ending_scream,scream,ending,c,negative,positive,ES_purple,1,c,602,963646,964148,964350
18,first,17,geizig,IAT_yellow2.bmp,yellow,ending_melody,melody,ending,c,negative,negative,ES_purple,1,c,741,966036,966537,966739
18,first,18,sonnig,IAT_red4.bmp,red,starting_scream,scream,starting,m,positive,negative,ES_purple,1,m,647,968561,969063,969265
18,first,19,teuer,IAT_purple4.bmp,purple,ending_scream,scream,ending,c,negative,positive,ES_purple,1,c,567,971010,971511,971713
18,first,20,einsam,IAT_green2.bmp,green,starting_melody,melody,starting,c,negative,positive,ES_purple,1,c,590,973371,973872,974074
18,first,21,lästig,IAT_purple1.bmp,purple,ending_scream,scream,ending,c,negative,positive,ES_purple,1,c,652,975741,976242,976444
18,first,22,munter,IAT_purple1.bmp,purple,ending_scream,scream,ending,m,positive,positive,ES_purple,1,m,816,978169,978670,978872
18,first,23,teuer,IAT_yellow1.bmp,yellow,ending_melody,melody,ending,c,negative,negative,ES_purple,1,c,681,980768,981269,981471
18,first,24,schön,IAT_green3.bmp,green,starting_melody,melody,starting,m,positive,positive,ES_purple,1,m,620,983229,983730,983932
18,first,25,krank,IAT_purple4.bmp,purple,ending_scream,scream,ending,c,negative,positive,ES_purple,1,c,748,985628,986130,986332
18,first,26,munter,IAT_green3.bmp,green,starting_melody,melody,starting,m,positive,positive,ES_purple,1,m,605,988156,988657,988859
18,first,27,gierig,IAT_purple1.bmp,purple,ending_scream,scream,ending,c,negative,positive,ES_purple,1,c,692,990533,991034,991236
18,first,28,witzig,IAT_green3.bmp,green,starting_melody,melody,starting,m,positive,positive,ES_purple,1,m,623,993000,993502,993704
18,first,29,ehrlich,IAT_red2.bmp,red,starting_scream,scream,starting,m,positive,negative,ES_purple,1,m,794,995407,995908,996110
18,first,30,gerecht,IAT_red2.bmp,red,starting_scream,scream,starting,m,positive,negative,ES_purple,0,c,869,997988,998489,998691
18,first,31,lustig,IAT_green3.bmp,green,starting_melody,melody,starting,m,positive,positive,ES_purple,1,m,823,1001138,1001639,1001841
18,first,32,kaputt,IAT_green2.bmp,green,starting_melody,melody,starting,c,negative,positive,ES_purple,1,c,663,1003746,1004247,1004449
18,first,33,schön,IAT_purple3.bmp,purple,ending_scream,scream,ending,m,positive,positive,ES_purple,1,m,608,1006185,1006686,1006888
18,first,34,witzig,IAT_purple3.bmp,purple,ending_scream,scream,ending,m,positive,positive,ES_purple,1,m,595,1008581,1009082,1009284
18,first,35,gierig,IAT_green4.bmp,green,starting_melody,melody,starting,c,negative,positive,ES_purple,1,c,638,1010954,1011455,1011657
18,first,36,lästig,IAT_red2.bmp,red,starting_scream,scream,starting,c,negative,negative,ES_purple,1,c,629,1013380,1013881,1014083
18,first,37,lustig,IAT_green1.bmp,green,starting_melody,melody,starting,m,positive,positive,ES_purple,0,c,768,1015786,1016287,1016488
18,first,38,ehrlich,IAT_yellow1.bmp,yellow,ending_melody,melody,ending,m,positive,negative,ES_purple,1,m,992,1018841,1019342,1019544
18,first,39,falsch,IAT_green1.bmp,green,starting_melody,melody,starting,c,negative,positive,ES_purple,1,c,624,1021608,1022110,1022312
18,first,40,gesund,IAT_red4.bmp,red,starting_scream,scream,starting,m,positive,negative,ES_purple,1,m,763,1024014,1024515,1024716
18,first,41,sonnig,IAT_purple4.bmp,purple,ending_scream,scream,ending,m,positive,positive,ES_purple,1,m,927,1026554,1027055,1027256
18,first,42,teuer,IAT_purple2.bmp,purple,ending_scream,scream,ending,c,negative,positive,ES_purple,1,c,656,1029273,1029774,1029976
18,first,43,sozial,IAT_purple1.bmp,purple,ending_scream,scream,ending,m,positive,positive,ES_purple,1,m,617,1031712,1032213,1032415
18,first,44,lästig,IAT_red2.bmp,red,starting_scream,scream,starting,c,negative,negative,ES_purple,1,c,640,1034136,1034638,1034840
18,first,45,einsam,IAT_yellow3.bmp,yellow,ending_melody,melody,ending,c,negative,negative,ES_purple,1,c,646,1036563,1037064,1037266
18,first,46,sanft,IAT_purple2.bmp,purple,ending_scream,scream,ending,m,positive,positive,ES_purple,1,m,706,1038981,1039483,1039685
18,first,47,feige,IAT_green3.bmp,green,starting_melody,melody,starting,c,negative,positive,ES_purple,1,c,876,1041468,1041969,1042171
18,first,48,human,IAT_green1.bmp,green,starting_melody,melody,starting,m,positive,positive,ES_purple,1,m,732,1044124,1044625,1044827
18,first,49,krank,IAT_yellow2.bmp,yellow,ending_melody,melody,ending,c,negative,negative,ES_purple,1,c,624,1046632,1047134,1047336
18,first,50,kaputt,IAT_green2.bmp,green,starting_melody,melody,starting,c,negative,positive,ES_purple,1,c,595,1049030,1049531,1049733
18,first,51,streng,IAT_red3.bmp,red,starting_scream,scream,starting,c,negative,negative,ES_purple,1,c,559,1051402,1051903,1052105
18,first,52,schön,IAT_yellow3.bmp,yellow,ending_melody,melody,ending,m,positive,negative,ES_purple,1,m,576,1053737,1054238,1054440
18,first,53,gesund,IAT_yellow4.bmp,yellow,ending_melody,melody,ending,m,positive,negative,ES_purple,1,m,855,1056097,1056598,1056800
18,first,54,heiter,IAT_green2.bmp,green,starting_melody,melody,starting,m,positive,positive,ES_purple,1,m,597,1058723,1059224,1059426
18,first,55,schön,IAT_yellow2.bmp,yellow,ending_melody,melody,ending,m,positive,negative,ES_purple,1,m,545,1061095,1061596,1061798
18,first,56,sanft,IAT_yellow3.bmp,yellow,ending_melody,melody,ending,m,positive,negative,ES_purple,1,m,541,1063419,1063920,1064122
18,first,57,einsam,IAT_yellow1.bmp,yellow,ending_melody,melody,ending,c,negative,negative,ES_purple,1,c,670,1065739,1066240,1066442
18,first,58,sozial,IAT_green2.bmp,green,starting_melody,melody,starting,m,positive,positive,ES_purple,1,m,588,1068189,1068690,1068892
18,first,59,gerecht,IAT_red1.bmp,red,starting_scream,scream,starting,m,positive,negative,ES_purple,1,m,650,1070558,1071059,1071261
18,first,60,sozial,IAT_yellow1.bmp,yellow,ending_melody,melody,ending,m,positive,negative,ES_purple,1,m,616,1072992,1073493,1073695
18,first,61,gesund,IAT_purple1.bmp,purple,ending_scream,scream,ending,m,positive,positive,ES_purple,1,m,601,1075391,1075892,1076094
18,first,62,streng,IAT_red4.bmp,red,starting_scream,scream,starting,c,negative,negative,ES_purple,1,c,574,1077769,1078271,1078473
18,first,63,brutal,IAT_purple2.bmp,purple,ending_scream,scream,ending,c,negative,positive,ES_purple,1,c,819,1080117,1080618,1080820
18,first,64,krank,IAT_red2.bmp,red,starting_scream,scream,starting,c,negative,negative,ES_purple,1,c,573,1082715,1083217,1083419
18,first,65,falsch,IAT_purple2.bmp,purple,ending_scream,scream,ending,c,negative,positive,ES_purple,1,c,772,1085062,1085563,1085764
18,first,66,witzig,IAT_yellow3.bmp,yellow,ending_melody,melody,ending,m,positive,negative,ES_purple,1,m,1131,1087613,1088115,1088316
18,first,67,morsch,IAT_red3.bmp,red,starting_scream,scream,starting,c,negative,negative,ES_purple,1,c,733,1090523,1091024,1091226
18,first,68,falsch,IAT_green4.bmp,green,starting_melody,melody,starting,c,negative,positive,ES_purple,1,c,653,1093035,1093536,1093738
18,first,69,geizig,IAT_red1.bmp,red,starting_scream,scream,starting,c,negative,negative,ES_purple,1,c,638,1095465,1095967,1096169
18,first,70,human,IAT_red1.bmp,red,starting_scream,scream,starting,m,positive,negative,ES_purple,1,m,707,1097909,1098410,1098612
18,first,71,heiter,IAT_purple3.bmp,purple,ending_scream,scream,ending,m,positive,positive,ES_purple,1,m,723,1100389,1100890,1101092
18,first,72,feige,IAT_yellow2.bmp,yellow,ending_melody,melody,ending,c,negative,negative,ES_purple,1,c,671,1102889,1103390,1103592
18,first,73,teuer,IAT_green3.bmp,green,starting_melody,melody,starting,c,negative,positive,ES_purple,0,None,1500,1105337,1105838,1106039
18,first,74,geizig,IAT_green1.bmp,green,starting_melody,melody,starting,c,negative,positive,ES_purple,1,c,627,1109140,1109642,1109844
18,first,75,sonnig,IAT_green4.bmp,green,starting_melody,melody,starting,m,positive,positive,ES_purple,1,m,511,1111545,1112046,1112248
18,first,76,gierig,IAT_red4.bmp,red,starting_scream,scream,starting,c,negative,negative,ES_purple,1,c,626,1113830,1114331,1114533
18,first,77,munter,IAT_purple2.bmp,purple,ending_scream,scream,ending,m,positive,positive,ES_purple,0,c,533,1116244,1116745,1116947
18,first,78,human,IAT_purple4.bmp,purple,ending_scream,scream,ending,m,positive,positive,ES_purple,1,m,941,1119051,1119552,1119754
18,first,79,streng,IAT_purple3.bmp,purple,ending_scream,scream,ending,c,negative,positive,ES_purple,1,c,618,1121774,1122276,1122477
18,first,80,sonnig,IAT_yellow1.bmp,yellow,ending_melody,melody,ending,m,positive,negative,ES_purple,1,m,649,1124175,1124676,1124878
18,first,81,brutal,IAT_red4.bmp,red,starting_scream,scream,starting,c,negative,negative,ES_purple,1,c,732,1126605,1127106,1127307
18,first,82,munter,IAT_yellow2.bmp,yellow,ending_melody,melody,ending,m,positive,negative,ES_purple,1,m,586,1129118,1129619,1129821
18,first,83,geizig,IAT_yellow4.bmp,yellow,ending_melody,melody,ending,c,negative,negative,ES_purple,1,c,583,1131488,1131989,1132191
18,first,84,gerecht,IAT_purple3.bmp,purple,ending_scream,scream,ending,m,positive,positive,ES_purple,1,m,777,1133855,1134356,1134558
18,first,85,lustig,IAT_red3.bmp,red,starting_scream,scream,starting,m,positive,negative,ES_purple,1,m,489,1136414,1136916,1137118
18,first,86,morsch,IAT_yellow4.bmp,yellow,ending_melody,melody,ending,c,negative,negative,ES_purple,1,c,873,1138687,1139188,1139390
18,first,87,ehrlich,IAT_red3.bmp,red,starting_scream,scream,starting,m,positive,negative,ES_purple,1,m,685,1141339,1141840,1142042
18,first,88,sanft,IAT_green1.bmp,green,starting_melody,melody,starting,m,positive,positive,ES_purple,1,m,1199,1143802,1144303,1144504
18,first,89,gesund,IAT_green4.bmp,green,starting_melody,melody,starting,m,positive,positive,ES_purple,1,m,597,1146787,1147288,1147490
18,first,90,ehrlich,IAT_red1.bmp,red,starting_scream,scream,starting,m,positive,negative,ES_purple,1,m,602,1149165,1149666,1149868
18,first,91,heiter,IAT_yellow4.bmp,yellow,ending_melody,melody,ending,m,positive,negative,ES_purple,1,m,565,1151555,1152056,1152258
18,first,92,gerecht,IAT_red3.bmp,red,starting_scream,scream,starting,m,positive,negative,ES_purple,1,m,664,1153905,1154406,1154607
18,first,93,lästig,IAT_purple2.bmp,purple,ending_scream,scream,ending,c,negative,positive,ES_purple,1,c,880,1156344,1156845,1157047
18,first,94,sanft,IAT_red1.bmp,red,starting_scream,scream,starting,m,positive,negative,ES_purple,1,m,605,1159003,1159504,1159706
18,first,95,human,IAT_yellow3.bmp,yellow,ending_melody,melody,ending,m,positive,negative,ES_purple,1,m,730,1161407,1161908,1162109
18,second,0,kaputt,IAT_purple4.bmp,purple,ending_scream,scream,ending,c,negative,positive,ES_purple,1,c,780,1182859,1183360,1183562
18,second,1,gesund,IAT_yellow4.bmp,yellow,ending_melody,melody,ending,m,positive,negative,ES_purple,1,m,643,1185428,1185929,1186131
18,second,2,heiter,IAT_red4.bmp,red,starting_scream,scream,starting,m,positive,negative,ES_purple,1,m,723,1187845,1188346,1188548
18,second,3,sozial,IAT_red3.bmp,red,starting_scream,scream,starting,m,positive,negative,ES_purple,1,m,619,1190349,1190850,1191052
18,second,4,lustig,IAT_yellow3.bmp,yellow,ending_melody,melody,ending,m,positive,negative,ES_purple,1,m,736,1192760,1193261,1193463
18,second,5,ehrlich,IAT_red1.bmp,red,starting_scream,scream,starting,m,positive,negative,ES_purple,1,m,606,1195289,1195790,1195992
18,second,6,schön,IAT_yellow3.bmp,yellow,ending_melody,melody,ending,m,positive,negative,ES_purple,1,m,554,1197677,1198178,1198380
18,second,7,streng,IAT_purple1.bmp,purple,ending_scream,scream,ending,c,negative,positive,ES_purple,1,c,555,1200012,1200513,1200715
18,second,8,gesund,IAT_yellow3.bmp,yellow,ending_melody,melody,ending,m,positive,negative,ES_purple,1,m,595,1202372,1202873,1203075
18,second,9,gerecht,IAT_green1.bmp,green,starting_melody,melody,starting,m,positive,positive,ES_purple,1,m,699,1204749,1205250,1205452
18,second,10,krank,IAT_green4.bmp,green,starting_melody,melody,starting,c,negative,positive,ES_purple,1,c,656,1207224,1207725,1207927
18,second,11,sonnig,IAT_purple1.bmp,purple,ending_scream,scream,ending,m,positive,positive,ES_purple,1,m,448,1209687,1210189,1210391
18,second,12,geizig,IAT_green1.bmp,green,starting_melody,melody,starting,c,negative,positive,ES_purple,1,c,631,1211919,1212421,1212623
18,second,13,sozial,IAT_purple1.bmp,purple,ending_scream,scream,ending,m,positive,positive,ES_purple,1,m,541,1214330,1214831,1215033
18,second,14,ehrlich,IAT_green3.bmp,green,starting_melody,melody,starting,m,positive,positive,ES_purple,1,m,583,1216655,1217157,1217359
18,second,15,gierig,IAT_yellow2.bmp,yellow,ending_melody,melody,ending,c,negative,negative,ES_purple,1,c,630,1219025,1219526,1219728
18,second,16,lustig,IAT_purple1.bmp,purple,ending_scream,scream,ending,m,positive,positive,ES_purple,1,m,545,1221447,1221948,1222150
18,second,17,human,IAT_purple4.bmp,purple,ending_scream,scream,ending,m,positive,positive,ES_purple,1,m,650,1223774,1224275,1224477
18,second,18,sozial,IAT_red1.bmp,red,starting_scream,scream,starting,m,positive,negative,ES_purple,1,m,555,1226204,1226705,1226907
18,second,19,feige,IAT_purple4.bmp,purple,ending_scream,scream,ending,c,negative,positive,ES_purple,1,c,633,1228542,1229043,1229245
18,second,20,gerecht,IAT_green3.bmp,green,starting_melody,melody,starting,m,positive,positive,ES_purple,1,m,577,1230950,1231451,1231653
18,second,21,morsch,IAT_green1.bmp,green,starting_melody,melody,starting,c,negative,positive,ES_purple,1,c,617,1233310,1233811,1234013
18,second,22,krank,IAT_yellow2.bmp,yellow,ending_melody,melody,ending,c,negative,negative,ES_purple,1,c,731,1235708,1236209,1236411
18,second,23,kaputt,IAT_purple2.bmp,purple,ending_scream,scream,ending,c,negative,positive,ES_purple,1,c,586,1238237,1238738,1238940
18,second,24,geizig,IAT_yellow1.bmp,yellow,ending_melody,melody,ending,c,negative,negative,ES_purple,1,c,828,1240604,1241105,1241307
18,second,25,streng,IAT_red1.bmp,red,starting_scream,scream,starting,c,negative,negative,ES_purple,1,c,585,1243215,1243716,1243917
18,second,26,kaputt,IAT_green4.bmp,green,starting_melody,melody,starting,c,negative,positive,ES_purple,1,c,636,1245580,1246081,1246282
18,second,27,geizig,IAT_red1.bmp,red,starting_scream,scream,starting,c,negative,negative,ES_purple,1,c,550,1248017,1248518,1248720
18,second,28,falsch,IAT_red2.bmp,red,starting_scream,scream,starting,c,negative,negative,ES_purple,1,c,535,1250351,1250853,1251055
18,second,29,feige,IAT_green3.bmp,green,starting_melody,melody,starting,c,negative,positive,ES_purple,1,c,684,1252668,1253169,1253370
18,second,30,sozial,IAT_red3.bmp,red,starting_scream,scream,starting,m,positive,negative,ES_purple,1,m,717,1255130,1255631,1255833
18,second,31,einsam,IAT_red4.bmp,red,starting_scream,scream,starting,c,negative,negative,ES_purple,1,c,823,1257633,1258134,1258335
18,second,32,feige,IAT_purple2.bmp,purple,ending_scream,scream,ending,c,negative,positive,ES_purple,1,c,893,1260234,1260735,1260937
18,second,33,einsam,IAT_yellow3.bmp,yellow,ending_melody,melody,ending,c,negative,negative,ES_purple,1,c,584,1262927,1263428,1263630
18,second,34,sanft,IAT_green1.bmp,green,starting_melody,melody,starting,m,positive,positive,ES_purple,1,m,586,1265293,1265794,1265996
18,second,35,munter,IAT_purple2.bmp,purple,ending_scream,scream,ending,m,positive,positive,ES_purple,0,c,1052,1267659,1268160,1268362
18,second,36,falsch,IAT_red3.bmp,red,starting_scream,scream,starting,c,negative,negative,ES_purple,1,c,1142,1270993,1271494,1271696
18,second,37,heiter,IAT_yellow1.bmp,yellow,ending_melody,melody,ending,m,positive,negative,ES_purple,1,m,725,1273921,1274423,1274625
18,second,38,human,IAT_yellow1.bmp,yellow,ending_melody,melody,ending,m,positive,negative,ES_purple,1,m,1003,1276444,1276945,1277147
18,second,39,morsch,IAT_yellow4.bmp,yellow,ending_melody,melody,ending,c,negative,negative,ES_purple,1,c,697,1279245,1279747,1279949
18,second,40,gerecht,IAT_yellow2.bmp,yellow,ending_melody,melody,ending,m,positive,negative,ES_purple,1,m,751,1281736,1282238,1282439
18,second,41,gierig,IAT_yellow1.bmp,yellow,ending_melody,melody,ending,c,negative,negative,ES_purple,1,c,686,1284265,1284766,1284968
18,second,42,teuer,IAT_yellow2.bmp,yellow,ending_melody,melody,ending,c,negative,negative,ES_purple,1,c,914,1286725,1287226,1287428
18,second,43,heiter,IAT_yellow1.bmp,yellow,ending_melody,melody,ending,m,positive,negative,ES_purple,1,m,665,1289421,1289922,1290124
18,second,44,sanft,IAT_purple3.bmp,purple,ending_scream,scream,ending,m,positive,positive,ES_purple,1,m,622,1291865,1292366,1292568
18,second,45,streng,IAT_green4.bmp,green,starting_melody,melody,starting,c,negative,positive,ES_purple,1,c,665,1294270,1294771,1294973
18,second,46,schön,IAT_green4.bmp,green,starting_melody,melody,starting,m,positive,positive,ES_purple,1,m,636,1296715,1297216,1297418
18,second,47,falsch,IAT_red4.bmp,red,starting_scream,scream,starting,c,negative,negative,ES_purple,1,c,585,1299134,1299635,1299837
18,second,48,einsam,IAT_yellow4.bmp,yellow,ending_melody,melody,ending,c,negative,negative,ES_purple,1,c,699,1301532,1302033,1302235
18,second,49,lästig,IAT_red4.bmp,red,starting_scream,scream,starting,c,negative,negative,ES_purple,1,c,739,1304003,1304504,1304706
18,second,50,sonnig,IAT_purple1.bmp,purple,ending_scream,scream,ending,m,positive,positive,ES_purple,1,m,608,1306518,1307019,1307221
18,second,51,human,IAT_purple3.bmp,purple,ending_scream,scream,ending,m,positive,positive,ES_purple,1,m,922,1308909,1309410,1309612
18,second,52,falsch,IAT_purple3.bmp,purple,ending_scream,scream,ending,c,negative,positive,ES_purple,1,c,621,1311610,1312111,1312313
18,second,53,sanft,IAT_red3.bmp,red,starting_scream,scream,starting,m,positive,negative,ES_purple,1,m,617,1314014,1314515,1314717
18,second,54,brutal,IAT_red4.bmp,red,starting_scream,scream,starting,c,negative,negative,ES_purple,1,c,700,1316411,1316912,1317114
18,second,55,lustig,IAT_red1.bmp,red,starting_scream,scream,starting,m,positive,negative,ES_purple,1,m,683,1318907,1319408,1319610
18,second,56,ehrlich,IAT_green3.bmp,green,starting_melody,melody,starting,m,positive,positive,ES_purple,1,m,659,1321379,1321880,1322082
18,second,57,lustig,IAT_yellow3.bmp,yellow,ending_melody,melody,ending,m,positive,negative,ES_purple,1,m,617,1323821,1324323,1324524
18,second,58,gesund,IAT_yellow4.bmp,yellow,ending_melody,melody,ending,m,positive,negative,ES_purple,1,m,716,1326219,1326720,1326922
18,second,59,heiter,IAT_red3.bmp,red,starting_scream,scream,starting,m,positive,negative,ES_purple,1,m,620,1328716,1329217,1329418
18,second,60,krank,IAT_green2.bmp,green,starting_melody,melody,starting,c,negative,positive,ES_purple,1,c,655,1331128,1331629,1331831
18,second,61,human,IAT_green2.bmp,green,starting_melody,melody,starting,m,positive,positive,ES_purple,1,m,684,1333563,1334064,1334266
18,second,62,brutal,IAT_purple2.bmp,purple,ending_scream,scream,ending,c,negative,positive,ES_purple,1,c,634,1336028,1336529,1336731
18,second,63,geizig,IAT_purple4.bmp,purple,ending_scream,scream,ending,c,negative,positive,ES_purple,1,c,592,1338439,1338940,1339141
18,second,64,sanft,IAT_yellow1.bmp,yellow,ending_melody,melody,ending,m,positive,negative,ES_purple,1,m,620,1340810,1341311,1341513
18,second,65,streng,IAT_purple2.bmp,purple,ending_scream,scream,ending,c,negative,positive,ES_purple,0,m,768,1343207,1343708,1343910
18,second,66,teuer,IAT_purple4.bmp,purple,ending_scream,scream,ending,c,negative,positive,ES_purple,1,c,964,1346259,1346760,1346962
18,second,67,witzig,IAT_purple4.bmp,purple,ending_scream,scream,ending,m,positive,positive,ES_purple,1,m,1069,1349002,1349503,1349705
18,second,68,krank,IAT_red2.bmp,red,starting_scream,scream,starting,c,negative,negative,ES_purple,1,c,705,1351861,1352362,1352564
18,second,69,munter,IAT_green4.bmp,green,starting_melody,melody,starting,m,positive,positive,ES_purple,1,m,741,1354353,1354854,1355056
18,second,70,einsam,IAT_yellow4.bmp,yellow,ending_melody,melody,ending,c,negative,negative,ES_purple,1,c,903,1356879,1357380,1357582
18,second,71,gerecht,IAT_purple3.bmp,purple,ending_scream,scream,ending,m,positive,positive,ES_purple,1,m,643,1359571,1360072,1360274
18,second,72,witzig,IAT_green2.bmp,green,starting_melody,melody,starting,m,positive,positive,ES_purple,1,m,672,1362007,1362508,1362710
18,second,73,schön,IAT_red2.bmp,red,starting_scream,scream,starting,m,positive,negative,ES_purple,1,m,572,1364459,1364960,1365162
18,second,74,munter,IAT_yellow2.bmp,yellow,ending_melody,melody,ending,m,positive,negative,ES_purple,1,m,500,1366866,1367367,1367569
18,second,75,gesund,IAT_purple3.bmp,purple,ending_scream,scream,ending,m,positive,positive,ES_purple,1,m,517,1369153,1369654,1369856
18,second,76,feige,IAT_green2.bmp,green,starting_melody,melody,starting,c,negative,positive,ES_purple,1,c,654,1371497,1371998,1372199
18,second,77,ehrlich,IAT_purple2.bmp,purple,ending_scream,scream,ending,m,positive,positive,ES_purple,1,m,726,1373984,1374485,1374687
18,second,78,teuer,IAT_green2.bmp,green,starting_melody,melody,starting,c,negative,positive,ES_purple,1,c,665,1376509,1377010,1377212
18,second,79,brutal,IAT_red2.bmp,red,starting_scream,scream,starting,c,negative,negative,ES_purple,1,c,654,1378969,1379470,1379672
18,second,80,lästig,IAT_green2.bmp,green,starting_melody,melody,starting,c,negative,positive,ES_purple,1,c,766,1381400,1381901,1382103
18,second,81,munter,IAT_green1.bmp,green,starting_melody,melody,starting,m,positive,positive,ES_purple,1,m,705,1384021,1384522,1384724
18,second,82,gierig,IAT_yellow4.bmp,yellow,ending_melody,melody,ending,c,negative,negative,ES_purple,1,c,639,1386504,1387005,1387206
18,second,83,sonnig,IAT_red4.bmp,red,starting_scream,scream,starting,m,positive,negative,ES_purple,1,m,618,1388924,1389425,1389627
18,second,84,schön,IAT_red1.bmp,red,starting_scream,scream,starting,m,positive,negative,ES_purple,0,c,861,1391385,1391886,1392088
18,second,85,morsch,IAT_yellow2.bmp,yellow,ending_melody,melody,ending,c,negative,negative,ES_purple,1,c,740,1394530,1395031,1395233
18,second,86,witzig,IAT_green3.bmp,green,starting_melody,melody,starting,m,positive,positive,ES_purple,1,m,685,1397113,1397614,1397816
18,second,87,lästig,IAT_purple3.bmp,purple,ending_scream,scream,ending,c,negative,positive,ES_purple,1,c,1028,1399602,1400103,1400305
18,second,88,gierig,IAT_yellow3.bmp,yellow,ending_melody,melody,ending,c,negative,negative,ES_purple,1,c,791,1402415,1402916,1403118
18,second,89,lästig,IAT_green4.bmp,green,starting_melody,melody,starting,c,negative,positive,ES_purple,1,c,751,1404983,1405484,1405686
18,second,90,sonnig,IAT_green1.bmp,green,starting_melody,melody,starting,m,positive,positive,ES_purple,1,m,697,1407516,1408018,1408220
18,second,91,brutal,IAT_red2.bmp,red,starting_scream,scream,starting,c,negative,negative,ES_purple,1,c,622,1409992,1410493,1410695
18,second,92,teuer,IAT_red3.bmp,red,starting_scream,scream,starting,c,negative,negative,ES_purple,1,c,746,1412443,1412944,1413147
18,second,93,kaputt,IAT_purple1.bmp,purple,ending_scream,scream,ending,c,negative,positive,ES_purple,1,c,655,1415015,1415516,1415718
18,second,94,witzig,IAT_red2.bmp,red,starting_scream,scream,starting,m,positive,negative,ES_purple,1,m,651,1417451,1417952,1418154
18,second,95,morsch,IAT_green3.bmp,green,starting_melody,melody,starting,c,negative,positive,ES_purple,1,c,590,1419896,1420397,1420599
