subject_nr,block,trialnr,trial_target,trial_prime,prime_color,prime_role,prime_us,prime_relation,correct_response,target_valence,prime_valence,color_counter,correct_first_response,response_first_response,response_time_first_response,fixation_show,prime_show,target_show
61,first,0,lustig,IAT_green3.bmp,green,ending_scream,scream,ending,m,positive,positive,ES_green,1,m,775,4419698,4420199,4420401
61,first,1,einsam,IAT_purple4.bmp,purple,starting_scream,scream,starting,c,negative,negative,ES_green,1,c,1004,4422253,4422755,4422956
61,first,2,krank,IAT_green4.bmp,green,ending_scream,scream,ending,c,negative,positive,ES_green,1,c,744,4425041,4425542,4425744
61,first,3,lästig,IAT_purple1.bmp,purple,starting_scream,scream,starting,c,negative,negative,ES_green,1,c,774,4427570,4428072,4428274
61,first,4,feige,IAT_yellow4.bmp,yellow,starting_melody,melody,starting,c,negative,positive,ES_green,1,c,702,4430122,4430623,4430825
61,first,5,einsam,IAT_green4.bmp,green,ending_scream,scream,ending,c,negative,positive,ES_green,1,c,778,4432606,4433107,4433309
61,first,6,human,IAT_purple3.bmp,purple,starting_scream,scream,starting,m,positive,negative,ES_green,1,m,731,4435165,4435666,4435868
61,first,7,heiter,IAT_purple2.bmp,purple,starting_scream,scream,starting,m,positive,negative,ES_green,1,m,875,4437678,4438179,4438381
61,first,8,ehrlich,IAT_purple4.bmp,purple,starting_scream,scream,starting,m,positive,negative,ES_green,1,m,682,4440351,4440852,4441054
61,first,9,human,IAT_yellow2.bmp,yellow,starting_melody,melody,starting,m,positive,positive,ES_green,1,m,684,4442813,4443314,4443516
61,first,10,brutal,IAT_green2.bmp,green,ending_scream,scream,ending,c,negative,positive,ES_green,1,c,767,4445273,4445774,4445976
61,first,11,krank,IAT_red2.bmp,red,ending_melody,melody,ending,c,negative,negative,ES_green,1,c,1226,4447821,4448322,4448524
61,first,12,witzig,IAT_purple3.bmp,purple,starting_scream,scream,starting,m,positive,negative,ES_green,1,m,607,4450824,4451325,4451527
61,first,13,kaputt,IAT_yellow4.bmp,yellow,starting_melody,melody,starting,c,negative,positive,ES_green,1,c,762,4453213,4453714,4453916
61,first,14,gerecht,IAT_yellow2.bmp,yellow,starting_melody,melody,starting,m,positive,positive,ES_green,1,m,695,4455761,4456262,4456464
61,first,15,sozial,IAT_yellow3.bmp,yellow,starting_melody,melody,starting,m,positive,positive,ES_green,1,m,681,4458238,4458740,4458942
61,first,16,human,IAT_red3.bmp,red,ending_melody,melody,ending,m,positive,negative,ES_green,1,m,672,4460696,4461197,4461399
61,first,17,feige,IAT_purple2.bmp,purple,starting_scream,scream,starting,c,negative,negative,ES_green,1,c,713,4463150,4463651,4463853
61,first,18,sozial,IAT_yellow1.bmp,yellow,starting_melody,melody,starting,m,positive,positive,ES_green,1,m,637,4465642,4466143,4466345
61,first,19,sanft,IAT_red3.bmp,red,ending_melody,melody,ending,m,positive,negative,ES_green,1,m,1005,4468074,4468575,4468777
61,first,20,krank,IAT_purple4.bmp,purple,starting_scream,scream,starting,c,negative,negative,ES_green,1,c,634,4470861,4471362,4471564
61,first,21,einsam,IAT_red3.bmp,red,ending_melody,melody,ending,c,negative,negative,ES_green,1,c,646,4473282,4473783,4473985
61,first,22,geizig,IAT_purple2.bmp,purple,starting_scream,scream,starting,c,negative,negative,ES_green,1,c,648,4475711,4476213,4476415
61,first,23,schön,IAT_red4.bmp,red,ending_melody,melody,ending,m,positive,negative,ES_green,1,m,532,4478131,4478632,4478834
61,first,24,morsch,IAT_yellow3.bmp,yellow,starting_melody,melody,starting,c,negative,positive,ES_green,1,c,702,4480441,4480942,4481144
61,first,25,teuer,IAT_yellow2.bmp,yellow,starting_melody,melody,starting,c,negative,positive,ES_green,1,c,654,4482921,4483422,4483624
61,first,26,brutal,IAT_red2.bmp,red,ending_melody,melody,ending,c,negative,negative,ES_green,1,c,641,4485366,4485867,4486069
61,first,27,geizig,IAT_green2.bmp,green,ending_scream,scream,ending,c,negative,positive,ES_green,1,c,608,4487783,4488284,4488486
61,first,28,ehrlich,IAT_green3.bmp,green,ending_scream,scream,ending,m,positive,positive,ES_green,1,m,665,4490175,4490676,4490878
61,first,29,falsch,IAT_green4.bmp,green,ending_scream,scream,ending,c,negative,positive,ES_green,1,c,719,4492616,4493117,4493320
61,first,30,feige,IAT_green1.bmp,green,ending_scream,scream,ending,c,negative,positive,ES_green,1,c,1090,4495125,4495626,4495829
61,first,31,heiter,IAT_purple1.bmp,purple,starting_scream,scream,starting,m,positive,negative,ES_green,1,m,582,4498001,4498502,4498704
61,first,32,geizig,IAT_red2.bmp,red,ending_melody,melody,ending,c,negative,negative,ES_green,1,c,560,4500359,4500860,4501062
61,first,33,schön,IAT_purple3.bmp,purple,starting_scream,scream,starting,m,positive,negative,ES_green,1,m,533,4502706,4503207,4503409
61,first,34,gierig,IAT_red4.bmp,red,ending_melody,melody,ending,c,negative,negative,ES_green,1,c,598,4505025,4505526,4505728
61,first,35,gesund,IAT_green2.bmp,green,ending_scream,scream,ending,m,positive,positive,ES_green,1,m,559,4507401,4507902,4508104
61,first,36,falsch,IAT_purple3.bmp,purple,starting_scream,scream,starting,c,negative,negative,ES_green,1,c,604,4509739,4510240,4510442
61,first,37,human,IAT_red3.bmp,red,ending_melody,melody,ending,m,positive,negative,ES_green,1,m,638,4512121,4512622,4512824
61,first,38,sonnig,IAT_purple3.bmp,purple,starting_scream,scream,starting,m,positive,negative,ES_green,1,m,811,4514540,4515041,4515243
61,first,39,gerecht,IAT_green2.bmp,green,ending_scream,scream,ending,m,positive,positive,ES_green,1,m,1088,4517127,4517628,4517830
61,first,40,brutal,IAT_yellow2.bmp,yellow,starting_melody,melody,starting,c,negative,positive,ES_green,1,c,619,4520012,4520513,4520715
61,first,41,sanft,IAT_red1.bmp,red,ending_melody,melody,ending,m,positive,negative,ES_green,1,m,536,4522431,4522932,4523134
61,first,42,kaputt,IAT_red3.bmp,red,ending_melody,melody,ending,c,negative,negative,ES_green,1,c,732,4524747,4525248,4525450
61,first,43,ehrlich,IAT_yellow4.bmp,yellow,starting_melody,melody,starting,m,positive,positive,ES_green,1,m,590,4527273,4527774,4527976
61,first,44,munter,IAT_yellow1.bmp,yellow,starting_melody,melody,starting,m,positive,positive,ES_green,1,m,629,4529666,4530167,4530369
61,first,45,streng,IAT_red1.bmp,red,ending_melody,melody,ending,c,negative,negative,ES_green,1,c,983,4532080,4532581,4532783
61,first,46,lästig,IAT_green4.bmp,green,ending_scream,scream,ending,c,negative,positive,ES_green,1,c,667,4534844,4535345,4535547
61,first,47,sanft,IAT_purple1.bmp,purple,starting_scream,scream,starting,m,positive,negative,ES_green,1,m,607,4537288,4537789,4537991
61,first,48,gerecht,IAT_red2.bmp,red,ending_melody,melody,ending,m,positive,negative,ES_green,1,m,907,4539675,4540176,4540378
61,first,49,geizig,IAT_yellow3.bmp,yellow,starting_melody,melody,starting,c,negative,positive,ES_green,1,c,612,4542371,4542872,4543074
61,first,50,kaputt,IAT_red2.bmp,red,ending_melody,melody,ending,c,negative,negative,ES_green,1,c,770,4544757,4545258,4545460
61,first,51,falsch,IAT_purple4.bmp,purple,starting_scream,scream,starting,c,negative,negative,ES_green,1,c,670,4547305,4547806,4548008
61,first,52,feige,IAT_green3.bmp,green,ending_scream,scream,ending,c,negative,positive,ES_green,1,c,666,4549757,4550258,4550460
61,first,53,gierig,IAT_green3.bmp,green,ending_scream,scream,ending,c,negative,positive,ES_green,1,c,688,4552198,4552700,4552902
61,first,54,sozial,IAT_green4.bmp,green,ending_scream,scream,ending,m,positive,positive,ES_green,1,m,676,4554658,4555159,4555361
61,first,55,sonnig,IAT_green1.bmp,green,ending_scream,scream,ending,m,positive,positive,ES_green,1,m,621,4557113,4557614,4557816
61,first,56,krank,IAT_purple2.bmp,purple,starting_scream,scream,starting,c,negative,negative,ES_green,1,c,592,4559511,4560012,4560214
61,first,57,sozial,IAT_yellow3.bmp,yellow,starting_melody,melody,starting,m,positive,positive,ES_green,1,m,636,4561883,4562384,4562586
61,first,58,witzig,IAT_red2.bmp,red,ending_melody,melody,ending,m,positive,negative,ES_green,1,m,663,4564304,4564805,4565007
61,first,59,brutal,IAT_red4.bmp,red,ending_melody,melody,ending,c,negative,negative,ES_green,1,c,644,4566755,4567256,4567458
61,first,60,gesund,IAT_green1.bmp,green,ending_scream,scream,ending,m,positive,positive,ES_green,1,m,634,4569180,4569681,4569883
61,first,61,heiter,IAT_red3.bmp,red,ending_melody,melody,ending,m,positive,negative,ES_green,1,m,699,4571595,4572096,4572298
61,first,62,schön,IAT_yellow1.bmp,yellow,starting_melody,melody,starting,m,positive,positive,ES_green,1,m,863,4574071,4574572,4574774
61,first,63,ehrlich,IAT_red4.bmp,red,ending_melody,melody,ending,m,positive,negative,ES_green,1,m,821,4576722,4577223,4577425
61,first,64,morsch,IAT_purple1.bmp,purple,starting_scream,scream,starting,c,negative,negative,ES_green,1,c,608,4579319,4579820,4580022
61,first,65,lustig,IAT_green3.bmp,green,ending_scream,scream,ending,m,positive,positive,ES_green,1,m,622,4581705,4582206,4582408
61,first,66,teuer,IAT_yellow1.bmp,yellow,starting_melody,melody,starting,c,negative,positive,ES_green,1,c,778,4584109,4584610,4584812
61,first,67,sanft,IAT_green4.bmp,green,ending_scream,scream,ending,m,positive,positive,ES_green,1,m,640,4586662,4587163,4587365
61,first,68,munter,IAT_green3.bmp,green,ending_scream,scream,ending,m,positive,positive,ES_green,1,m,599,4589086,4589587,4589789
61,first,69,kaputt,IAT_yellow1.bmp,yellow,starting_melody,melody,starting,c,negative,positive,ES_green,1,c,684,4591465,4591966,4592168
61,first,70,einsam,IAT_green2.bmp,green,ending_scream,scream,ending,c,negative,positive,ES_green,1,c,906,4593948,4594449,4594651
61,first,71,schön,IAT_red1.bmp,red,ending_melody,melody,ending,m,positive,negative,ES_green,1,m,581,4596640,4597142,4597344
61,first,72,lustig,IAT_purple2.bmp,purple,starting_scream,scream,starting,m,positive,negative,ES_green,1,m,638,4599000,4599501,4599703
61,first,73,gesund,IAT_red1.bmp,red,ending_melody,melody,ending,m,positive,negative,ES_green,1,m,682,4601419,4601920,4602122
61,first,74,streng,IAT_red4.bmp,red,ending_melody,melody,ending,c,negative,negative,ES_green,1,c,602,4603882,4604384,4604586
61,first,75,lustig,IAT_yellow4.bmp,yellow,starting_melody,melody,starting,m,positive,positive,ES_green,1,m,614,4606270,4606772,4606974
61,first,76,gierig,IAT_red1.bmp,red,ending_melody,melody,ending,c,negative,negative,ES_green,1,c,596,4608689,4609190,4609392
61,first,77,streng,IAT_red4.bmp,red,ending_melody,melody,ending,c,negative,negative,ES_green,1,c,594,4611075,4611577,4611778
61,first,78,witzig,IAT_red1.bmp,red,ending_melody,melody,ending,m,positive,negative,ES_green,1,m,574,4613448,4613949,4614151
61,first,79,teuer,IAT_green1.bmp,green,ending_scream,scream,ending,c,negative,positive,ES_green,1,c,689,4615798,4616299,4616500
61,first,80,falsch,IAT_purple3.bmp,purple,starting_scream,scream,starting,c,negative,negative,ES_green,1,c,1119,4618262,4618763,4618965
61,first,81,gesund,IAT_yellow1.bmp,yellow,starting_melody,melody,starting,m,positive,positive,ES_green,1,m,523,4621162,4621663,4621865
61,first,82,teuer,IAT_yellow2.bmp,yellow,starting_melody,melody,starting,c,negative,positive,ES_green,1,c,555,4623465,4623966,4624168
61,first,83,sonnig,IAT_green1.bmp,green,ending_scream,scream,ending,m,positive,positive,ES_green,1,m,534,4625805,4626307,4626509
61,first,84,gerecht,IAT_purple1.bmp,purple,starting_scream,scream,starting,m,positive,negative,ES_green,1,m,861,4628119,4628620,4628822
61,first,85,munter,IAT_yellow3.bmp,yellow,starting_melody,melody,starting,m,positive,positive,ES_green,1,m,793,4630764,4631265,4631467
61,first,86,gierig,IAT_yellow2.bmp,yellow,starting_melody,melody,starting,c,negative,positive,ES_green,1,c,567,4633341,4633842,4634044
61,first,87,sonnig,IAT_green1.bmp,green,ending_scream,scream,ending,m,positive,positive,ES_green,1,m,557,4635687,4636189,4636390
61,first,88,streng,IAT_purple4.bmp,purple,starting_scream,scream,starting,c,negative,negative,ES_green,1,c,527,4638021,4638522,4638724
61,first,89,lästig,IAT_yellow4.bmp,yellow,starting_melody,melody,starting,c,negative,positive,ES_green,1,c,731,4640330,4640831,4641032
61,first,90,morsch,IAT_green2.bmp,green,ending_scream,scream,ending,c,negative,positive,ES_green,1,c,682,4642842,4643343,4643545
61,first,91,lästig,IAT_purple2.bmp,purple,starting_scream,scream,starting,c,negative,negative,ES_green,1,c,1110,4645310,4645811,4646013
61,first,92,heiter,IAT_yellow3.bmp,yellow,starting_melody,melody,starting,m,positive,positive,ES_green,1,m,609,4648195,4648696,4648898
61,first,93,munter,IAT_purple1.bmp,purple,starting_scream,scream,starting,m,positive,negative,ES_green,1,m,636,4650600,4651101,4651303
61,first,94,morsch,IAT_yellow4.bmp,yellow,starting_melody,melody,starting,c,negative,positive,ES_green,1,c,553,4653019,4653520,4653722
61,first,95,witzig,IAT_purple4.bmp,purple,starting_scream,scream,starting,m,positive,negative,ES_green,1,m,639,4655381,4655882,4656084
61,second,0,sanft,IAT_purple3.bmp,purple,starting_scream,scream,starting,m,positive,negative,ES_green,1,m,670,4681494,4681995,4682196
61,second,1,gerecht,IAT_yellow1.bmp,yellow,starting_melody,melody,starting,m,positive,positive,ES_green,1,m,619,4683945,4684446,4684648
61,second,2,witzig,IAT_red1.bmp,red,ending_melody,melody,ending,m,positive,negative,ES_green,1,m,573,4686359,4686860,4687062
61,second,3,einsam,IAT_green2.bmp,green,ending_scream,scream,ending,c,negative,positive,ES_green,1,c,695,4688733,4689234,4689436
61,second,4,feige,IAT_green1.bmp,green,ending_scream,scream,ending,c,negative,positive,ES_green,1,c,617,4691211,4691712,4691914
61,second,5,einsam,IAT_yellow2.bmp,yellow,starting_melody,melody,starting,c,negative,positive,ES_green,1,c,669,4693607,4694108,4694310
61,second,6,sozial,IAT_purple3.bmp,purple,starting_scream,scream,starting,m,positive,negative,ES_green,1,m,530,4696065,4696566,4696768
61,second,7,sonnig,IAT_purple1.bmp,purple,starting_scream,scream,starting,m,positive,negative,ES_green,1,m,826,4698378,4698879,4699080
61,second,8,geizig,IAT_red4.bmp,red,ending_melody,melody,ending,c,negative,negative,ES_green,1,c,601,4700986,4701488,4701690
61,second,9,munter,IAT_red3.bmp,red,ending_melody,melody,ending,m,positive,negative,ES_green,1,m,558,4703366,4703867,4704069
61,second,10,sanft,IAT_green1.bmp,green,ending_scream,scream,ending,m,positive,positive,ES_green,1,m,607,4705701,4706202,4706404
61,second,11,krank,IAT_yellow3.bmp,yellow,starting_melody,melody,starting,c,negative,positive,ES_green,1,c,562,4708082,4708583,4708785
61,second,12,heiter,IAT_purple4.bmp,purple,starting_scream,scream,starting,m,positive,negative,ES_green,1,m,514,4710417,4710918,4711120
61,second,13,witzig,IAT_yellow1.bmp,yellow,starting_melody,melody,starting,m,positive,positive,ES_green,0,c,567,4712715,4713217,4713419
61,second,14,streng,IAT_green2.bmp,green,ending_scream,scream,ending,c,negative,positive,ES_green,1,c,934,4715564,4716065,4716267
61,second,15,lustig,IAT_red2.bmp,red,ending_melody,melody,ending,m,positive,negative,ES_green,1,m,571,4718280,4718781,4718983
61,second,16,feige,IAT_yellow1.bmp,yellow,starting_melody,melody,starting,c,negative,positive,ES_green,1,c,1289,4720633,4721135,4721337
61,second,17,munter,IAT_green3.bmp,green,ending_scream,scream,ending,m,positive,positive,ES_green,1,m,685,4723703,4724204,4724405
61,second,18,falsch,IAT_green4.bmp,green,ending_scream,scream,ending,c,negative,positive,ES_green,1,c,751,4726163,4726664,4726866
61,second,19,sozial,IAT_red4.bmp,red,ending_melody,melody,ending,m,positive,negative,ES_green,1,m,648,4728714,4729215,4729417
61,second,20,schön,IAT_red1.bmp,red,ending_melody,melody,ending,m,positive,negative,ES_green,1,m,732,4731141,4731643,4731845
61,second,21,gierig,IAT_yellow2.bmp,yellow,starting_melody,melody,starting,c,negative,positive,ES_green,1,c,1251,4733649,4734150,4734351
61,second,22,gerecht,IAT_red4.bmp,red,ending_melody,melody,ending,m,positive,negative,ES_green,1,m,656,4736674,4737176,4737378
61,second,23,einsam,IAT_purple3.bmp,purple,starting_scream,scream,starting,c,negative,negative,ES_green,1,c,1116,4739127,4739628,4739830
61,second,24,brutal,IAT_red2.bmp,red,ending_melody,melody,ending,c,negative,negative,ES_green,1,c,697,4742025,4742526,4742728
61,second,25,feige,IAT_purple4.bmp,purple,starting_scream,scream,starting,c,negative,negative,ES_green,1,c,685,4744501,4745002,4745204
61,second,26,schön,IAT_purple1.bmp,purple,starting_scream,scream,starting,m,positive,negative,ES_green,1,m,550,4746972,4747473,4747675
61,second,27,sonnig,IAT_red1.bmp,red,ending_melody,melody,ending,m,positive,negative,ES_green,1,m,780,4749302,4749803,4750005
61,second,28,gerecht,IAT_green2.bmp,green,ending_scream,scream,ending,m,positive,positive,ES_green,1,m,572,4751863,4752364,4752566
61,second,29,gierig,IAT_red2.bmp,red,ending_melody,melody,ending,c,negative,negative,ES_green,1,c,651,4754200,4754701,4754903
61,second,30,human,IAT_red2.bmp,red,ending_melody,melody,ending,m,positive,negative,ES_green,1,m,695,4756635,4757136,4757338
61,second,31,lästig,IAT_purple3.bmp,purple,starting_scream,scream,starting,c,negative,negative,ES_green,1,c,672,4759106,4759607,4759809
61,second,32,streng,IAT_green4.bmp,green,ending_scream,scream,ending,c,negative,positive,ES_green,1,c,1274,4761560,4762061,4762263
61,second,33,teuer,IAT_purple1.bmp,purple,starting_scream,scream,starting,c,negative,negative,ES_green,1,c,877,4764613,4765114,4765316
61,second,34,brutal,IAT_purple2.bmp,purple,starting_scream,scream,starting,c,negative,negative,ES_green,1,c,1280,4767267,4767768,4767969
61,second,35,munter,IAT_red1.bmp,red,ending_melody,melody,ending,m,positive,negative,ES_green,1,m,533,4770334,4770835,4771037
61,second,36,krank,IAT_yellow4.bmp,yellow,starting_melody,melody,starting,c,negative,positive,ES_green,1,c,660,4772653,4773155,4773357
61,second,37,witzig,IAT_green3.bmp,green,ending_scream,scream,ending,m,positive,positive,ES_green,1,m,622,4775093,4775594,4775795
61,second,38,lustig,IAT_yellow3.bmp,yellow,starting_melody,melody,starting,m,positive,positive,ES_green,1,m,619,4777495,4777996,4778198
61,second,39,munter,IAT_green4.bmp,green,ending_scream,scream,ending,m,positive,positive,ES_green,1,m,858,4779895,4780396,4780598
61,second,40,lästig,IAT_purple2.bmp,purple,starting_scream,scream,starting,c,negative,negative,ES_green,1,c,1180,4782533,4783034,4783236
61,second,41,kaputt,IAT_red2.bmp,red,ending_melody,melody,ending,c,negative,negative,ES_green,1,c,1051,4785494,4785995,4786197
61,second,42,schön,IAT_red3.bmp,red,ending_melody,melody,ending,m,positive,negative,ES_green,1,m,525,4788324,4788825,4789027
61,second,43,ehrlich,IAT_purple3.bmp,purple,starting_scream,scream,starting,m,positive,negative,ES_green,1,m,973,4790628,4791129,4791331
61,second,44,einsam,IAT_green3.bmp,green,ending_scream,scream,ending,c,negative,positive,ES_green,1,c,695,4793386,4793887,4794089
61,second,45,sonnig,IAT_yellow2.bmp,yellow,starting_melody,melody,starting,m,positive,positive,ES_green,1,m,640,4795857,4796358,4796560
61,second,46,lästig,IAT_red4.bmp,red,ending_melody,melody,ending,c,negative,negative,ES_green,1,c,709,4798284,4798785,4798987
61,second,47,schön,IAT_yellow3.bmp,yellow,starting_melody,melody,starting,m,positive,positive,ES_green,1,m,574,4800772,4801273,4801474
61,second,48,heiter,IAT_yellow3.bmp,yellow,starting_melody,melody,starting,m,positive,positive,ES_green,1,m,646,4803146,4803648,4803850
61,second,49,streng,IAT_purple1.bmp,purple,starting_scream,scream,starting,c,negative,negative,ES_green,1,c,654,4805571,4806072,4806274
61,second,50,kaputt,IAT_red4.bmp,red,ending_melody,melody,ending,c,negative,negative,ES_green,1,c,774,4808027,4808528,4808730
61,second,51,brutal,IAT_red4.bmp,red,ending_melody,melody,ending,c,negative,negative,ES_green,1,c,651,4810582,4811083,4811285
61,second,52,morsch,IAT_green4.bmp,green,ending_scream,scream,ending,c,negative,positive,ES_green,1,c,718,4813010,4813512,4813714
61,second,53,krank,IAT_yellow2.bmp,yellow,starting_melody,melody,starting,c,negative,positive,ES_green,1,c,706,4815519,4816020,4816222
61,second,54,feige,IAT_yellow4.bmp,yellow,starting_melody,melody,starting,c,negative,positive,ES_green,1,c,743,4818010,4818511,4818713
61,second,55,teuer,IAT_red1.bmp,red,ending_melody,melody,ending,c,negative,negative,ES_green,1,c,696,4820536,4821037,4821239
61,second,56,morsch,IAT_green1.bmp,green,ending_scream,scream,ending,c,negative,positive,ES_green,1,c,614,4823019,4823520,4823722
61,second,57,streng,IAT_purple2.bmp,purple,starting_scream,scream,starting,c,negative,negative,ES_green,1,c,604,4825412,4825913,4826115
61,second,58,human,IAT_green1.bmp,green,ending_scream,scream,ending,m,positive,positive,ES_green,1,m,652,4827795,4828297,4828500
61,second,59,witzig,IAT_yellow3.bmp,yellow,starting_melody,melody,starting,m,positive,positive,ES_green,1,m,619,4830229,4830730,4830932
61,second,60,gesund,IAT_green4.bmp,green,ending_scream,scream,ending,m,positive,positive,ES_green,1,m,621,4832627,4833128,4833330
61,second,61,teuer,IAT_green3.bmp,green,ending_scream,scream,ending,c,negative,positive,ES_green,1,c,597,4835033,4835535,4835737
61,second,62,kaputt,IAT_yellow3.bmp,yellow,starting_melody,melody,starting,c,negative,positive,ES_green,1,c,816,4837407,4837908,4838110
61,second,63,morsch,IAT_green4.bmp,green,ending_scream,scream,ending,c,negative,positive,ES_green,1,c,681,4840007,4840508,4840710
61,second,64,ehrlich,IAT_purple1.bmp,purple,starting_scream,scream,starting,m,positive,negative,ES_green,1,m,746,4842470,4842971,4843173
61,second,65,gesund,IAT_red3.bmp,red,ending_melody,melody,ending,m,positive,negative,ES_green,1,m,724,4845003,4845505,4845707
61,second,66,teuer,IAT_red2.bmp,red,ending_melody,melody,ending,c,negative,negative,ES_green,1,c,927,4847521,4848022,4848224
61,second,67,lustig,IAT_purple3.bmp,purple,starting_scream,scream,starting,m,positive,negative,ES_green,1,m,628,4850219,4850720,4850922
61,second,68,geizig,IAT_purple2.bmp,purple,starting_scream,scream,starting,c,negative,negative,ES_green,1,c,612,4852635,4853136,4853338
61,second,69,gerecht,IAT_green3.bmp,green,ending_scream,scream,ending,m,positive,positive,ES_green,1,m,1015,4855032,4855533,4855735
61,second,70,falsch,IAT_yellow4.bmp,yellow,starting_melody,melody,starting,c,negative,positive,ES_green,1,c,922,4857830,4858331,4858533
61,second,71,gierig,IAT_yellow4.bmp,yellow,starting_melody,melody,starting,c,negative,positive,ES_green,1,c,786,4860543,4861044,4861245
61,second,72,human,IAT_yellow2.bmp,yellow,starting_melody,melody,starting,m,positive,positive,ES_green,1,m,538,4863110,4863611,4863813
61,second,73,heiter,IAT_purple4.bmp,purple,starting_scream,scream,starting,m,positive,negative,ES_green,1,m,923,4865428,4865929,4866131
61,second,74,lästig,IAT_green2.bmp,green,ending_scream,scream,ending,c,negative,positive,ES_green,1,c,664,4868151,4868652,4868854
61,second,75,geizig,IAT_red1.bmp,red,ending_melody,melody,ending,c,negative,negative,ES_green,1,c,646,4870601,4871102,4871304
61,second,76,sozial,IAT_yellow1.bmp,yellow,starting_melody,melody,starting,m,positive,positive,ES_green,1,m,600,4873046,4873548,4873750
61,second,77,falsch,IAT_purple4.bmp,purple,starting_scream,scream,starting,c,negative,negative,ES_green,1,c,664,4875432,4875933,4876135
61,second,78,krank,IAT_red3.bmp,red,ending_melody,melody,ending,c,negative,negative,ES_green,1,c,653,4877875,4878376,4878578
61,second,79,gesund,IAT_yellow4.bmp,yellow,starting_melody,melody,starting,m,positive,positive,ES_green,1,m,640,4880305,4880806,4881007
61,second,80,kaputt,IAT_purple4.bmp,purple,starting_scream,scream,starting,c,negative,negative,ES_green,1,c,1000,4882727,4883228,4883430
61,second,81,lustig,IAT_green2.bmp,green,ending_scream,scream,ending,m,positive,positive,ES_green,1,m,706,4885501,4886002,4886204
61,second,82,sanft,IAT_purple1.bmp,purple,starting_scream,scream,starting,m,positive,negative,ES_green,1,m,666,4887989,4888490,4888692
61,second,83,heiter,IAT_red3.bmp,red,ending_melody,melody,ending,m,positive,negative,ES_green,1,m,633,4890437,4890939,4891141
61,second,84,morsch,IAT_yellow2.bmp,yellow,starting_melody,melody,starting,c,negative,positive,ES_green,1,c,673,4892847,4893348,4893550
61,second,85,ehrlich,IAT_green1.bmp,green,ending_scream,scream,ending,m,positive,positive,ES_green,1,m,602,4895302,4895803,4896005
61,second,86,human,IAT_purple2.bmp,purple,starting_scream,scream,starting,m,positive,negative,ES_green,1,m,593,4897678,4898179,4898381
61,second,87,falsch,IAT_green2.bmp,green,ending_scream,scream,ending,c,negative,positive,ES_green,1,c,608,4900048,4900549,4900750
61,second,88,gierig,IAT_yellow1.bmp,yellow,starting_melody,melody,starting,c,negative,positive,ES_green,1,c,779,4902436,4902937,4903139
61,second,89,geizig,IAT_red3.bmp,red,ending_melody,melody,ending,c,negative,negative,ES_green,1,c,667,4904996,4905497,4905699
61,second,90,gesund,IAT_yellow4.bmp,yellow,starting_melody,melody,starting,m,positive,positive,ES_green,1,m,747,4907444,4907945,4908147
61,second,91,sozial,IAT_yellow1.bmp,yellow,starting_melody,melody,starting,m,positive,positive,ES_green,1,m,1115,4909973,4910474,4910676
61,second,92,brutal,IAT_purple4.bmp,purple,starting_scream,scream,starting,c,negative,negative,ES_green,1,c,643,4912860,4913361,4913563
61,second,93,sonnig,IAT_purple2.bmp,purple,starting_scream,scream,starting,m,positive,negative,ES_green,1,m,667,4915283,4915785,4915987
61,second,94,ehrlich,IAT_green1.bmp,green,ending_scream,scream,ending,m,positive,positive,ES_green,1,m,762,4917733,4918235,4918436
61,second,95,sanft,IAT_green3.bmp,green,ending_scream,scream,ending,m,positive,positive,ES_green,1,m,975,4920272,4920773,4920975
