subject_nr,block,trialnr,trial_target,trial_prime,prime_color,prime_role,prime_us,prime_relation,correct_response,target_valence,prime_valence,color_counter,correct_first_response,response_first_response,response_time_first_response,fixation_show,prime_show,target_show
49,first,0,gerecht,IAT_red3.bmp,red,ending_melody,melody,ending,m,positive,negative,ES_green,1,m,852,4522925,4523426,4523628
49,first,1,heiter,IAT_purple2.bmp,purple,starting_scream,scream,starting,m,positive,negative,ES_green,1,m,682,4525560,4526061,4526263
49,first,2,sonnig,IAT_yellow3.bmp,yellow,starting_melody,melody,starting,m,positive,positive,ES_green,1,m,623,4528035,4528536,4528738
49,first,3,streng,IAT_purple1.bmp,purple,starting_scream,scream,starting,c,negative,negative,ES_green,0,m,656,4530434,4530935,4531137
49,first,4,brutal,IAT_yellow4.bmp,yellow,starting_melody,melody,starting,c,negative,positive,ES_green,1,c,811,4533367,4533868,4534070
49,first,5,gesund,IAT_yellow4.bmp,yellow,starting_melody,melody,starting,m,positive,positive,ES_green,1,m,560,4535954,4536455,4536657
49,first,6,lustig,IAT_purple4.bmp,purple,starting_scream,scream,starting,m,positive,negative,ES_green,1,m,610,4538303,4538804,4539006
49,first,7,falsch,IAT_purple3.bmp,purple,starting_scream,scream,starting,c,negative,negative,ES_green,1,c,577,4540704,4541205,4541407
49,first,8,morsch,IAT_red1.bmp,red,ending_melody,melody,ending,c,negative,negative,ES_green,1,c,672,4543058,4543559,4543761
49,first,9,lästig,IAT_purple2.bmp,purple,starting_scream,scream,starting,c,negative,negative,ES_green,1,c,647,4545515,4546016,4546218
49,first,10,geizig,IAT_purple4.bmp,purple,starting_scream,scream,starting,c,negative,negative,ES_green,1,c,573,4547955,4548456,4548658
49,first,11,heiter,IAT_red4.bmp,red,ending_melody,melody,ending,m,positive,negative,ES_green,1,m,641,4550303,4550804,4551006
49,first,12,sozial,IAT_purple2.bmp,purple,starting_scream,scream,starting,m,positive,negative,ES_green,1,m,836,4552732,4553233,4553435
49,first,13,falsch,IAT_purple4.bmp,purple,starting_scream,scream,starting,c,negative,negative,ES_green,1,c,534,4555353,4555854,4556056
49,first,14,krank,IAT_red4.bmp,red,ending_melody,melody,ending,c,negative,negative,ES_green,1,c,685,4557666,4558167,4558369
49,first,15,geizig,IAT_yellow1.bmp,yellow,starting_melody,melody,starting,c,negative,positive,ES_green,1,c,654,4560130,4560631,4560832
49,first,16,kaputt,IAT_green3.bmp,green,ending_scream,scream,ending,c,negative,positive,ES_green,1,c,653,4562563,4563064,4563266
49,first,17,streng,IAT_green3.bmp,green,ending_scream,scream,ending,c,negative,positive,ES_green,1,c,622,4564994,4565495,4565697
49,first,18,sonnig,IAT_yellow1.bmp,yellow,starting_melody,melody,starting,m,positive,positive,ES_green,1,m,640,4567392,4567893,4568095
49,first,19,teuer,IAT_green4.bmp,green,ending_scream,scream,ending,c,negative,positive,ES_green,1,c,773,4569834,4570335,4570537
49,first,20,brutal,IAT_yellow4.bmp,yellow,starting_melody,melody,starting,c,negative,positive,ES_green,1,c,601,4572390,4572891,4573093
49,first,21,sanft,IAT_yellow3.bmp,yellow,starting_melody,melody,starting,m,positive,positive,ES_green,0,c,493,4574785,4575287,4575489
49,first,22,gierig,IAT_green2.bmp,green,ending_scream,scream,ending,c,negative,positive,ES_green,1,c,729,4577559,4578060,4578261
49,first,23,gerecht,IAT_purple3.bmp,purple,starting_scream,scream,starting,m,positive,negative,ES_green,0,c,541,4580067,4580568,4580770
49,first,24,human,IAT_yellow4.bmp,yellow,starting_melody,melody,starting,m,positive,positive,ES_green,1,m,982,4582890,4583391,4583593
49,first,25,munter,IAT_green3.bmp,green,ending_scream,scream,ending,m,positive,positive,ES_green,1,m,603,4585652,4586153,4586355
49,first,26,feige,IAT_red2.bmp,red,ending_melody,melody,ending,c,negative,negative,ES_green,1,c,942,4588032,4588534,4588736
49,first,27,streng,IAT_yellow3.bmp,yellow,starting_melody,melody,starting,c,negative,positive,ES_green,0,None,1500,4590754,4591255,4591457
49,first,28,human,IAT_yellow3.bmp,yellow,starting_melody,melody,starting,m,positive,positive,ES_green,1,m,581,4594538,4595039,4595241
49,first,29,munter,IAT_yellow3.bmp,yellow,starting_melody,melody,starting,m,positive,positive,ES_green,1,m,555,4596901,4597402,4597604
49,first,30,sozial,IAT_purple3.bmp,purple,starting_scream,scream,starting,m,positive,negative,ES_green,0,c,507,4599253,4599754,4599956
49,first,31,witzig,IAT_red1.bmp,red,ending_melody,melody,ending,m,positive,negative,ES_green,1,m,686,4602049,4602550,4602752
49,first,32,einsam,IAT_green4.bmp,green,ending_scream,scream,ending,c,negative,positive,ES_green,0,m,562,4604509,4605010,4605212
49,first,33,brutal,IAT_yellow4.bmp,yellow,starting_melody,melody,starting,c,negative,positive,ES_green,1,c,763,4607348,4607849,4608051
49,first,34,gierig,IAT_yellow2.bmp,yellow,starting_melody,melody,starting,c,negative,positive,ES_green,1,c,686,4609905,4610406,4610608
49,first,35,ehrlich,IAT_yellow1.bmp,yellow,starting_melody,melody,starting,m,positive,positive,ES_green,1,m,545,4612365,4612867,4613069
49,first,36,human,IAT_red1.bmp,red,ending_melody,melody,ending,m,positive,negative,ES_green,1,m,554,4614695,4615196,4615397
49,first,37,morsch,IAT_green1.bmp,green,ending_scream,scream,ending,c,negative,positive,ES_green,1,c,637,4617042,4617543,4617745
49,first,38,feige,IAT_red3.bmp,red,ending_melody,melody,ending,c,negative,negative,ES_green,1,c,536,4619463,4619964,4620166
49,first,39,streng,IAT_red2.bmp,red,ending_melody,melody,ending,c,negative,negative,ES_green,1,c,1197,4621778,4622279,4622481
49,first,40,witzig,IAT_red2.bmp,red,ending_melody,melody,ending,m,positive,negative,ES_green,1,m,607,4624768,4625269,4625471
49,first,41,sozial,IAT_green1.bmp,green,ending_scream,scream,ending,m,positive,positive,ES_green,1,m,733,4627154,4627655,4627857
49,first,42,sonnig,IAT_yellow1.bmp,yellow,starting_melody,melody,starting,m,positive,positive,ES_green,1,m,616,4629671,4630172,4630374
49,first,43,brutal,IAT_yellow4.bmp,yellow,starting_melody,melody,starting,c,negative,positive,ES_green,1,c,652,4632067,4632568,4632770
49,first,44,einsam,IAT_purple3.bmp,purple,starting_scream,scream,starting,c,negative,negative,ES_green,1,c,1026,4634524,4635026,4635228
49,first,45,teuer,IAT_purple1.bmp,purple,starting_scream,scream,starting,c,negative,negative,ES_green,0,m,598,4637337,4637838,4638040
49,first,46,einsam,IAT_yellow2.bmp,yellow,starting_melody,melody,starting,c,negative,positive,ES_green,1,c,661,4640218,4640719,4640921
49,first,47,sanft,IAT_green3.bmp,green,ending_scream,scream,ending,m,positive,positive,ES_green,1,m,556,4642659,4643160,4643362
49,first,48,witzig,IAT_green4.bmp,green,ending_scream,scream,ending,m,positive,positive,ES_green,1,m,641,4645006,4645507,4645709
49,first,49,munter,IAT_green1.bmp,green,ending_scream,scream,ending,m,positive,positive,ES_green,1,m,553,4647429,4647930,4648132
49,first,50,lustig,IAT_green3.bmp,green,ending_scream,scream,ending,m,positive,positive,ES_green,1,m,557,4649762,4650263,4650465
49,first,51,schön,IAT_red1.bmp,red,ending_melody,melody,ending,m,positive,negative,ES_green,1,m,587,4652116,4652617,4652819
49,first,52,kaputt,IAT_red4.bmp,red,ending_melody,melody,ending,c,negative,negative,ES_green,1,c,704,4654479,4654980,4655182
49,first,53,teuer,IAT_purple2.bmp,purple,starting_scream,scream,starting,c,negative,negative,ES_green,1,c,1162,4656964,4657466,4657668
49,first,54,human,IAT_red3.bmp,red,ending_melody,melody,ending,m,positive,negative,ES_green,0,c,626,4659917,4660418,4660620
49,first,55,geizig,IAT_green2.bmp,green,ending_scream,scream,ending,c,negative,positive,ES_green,1,c,649,4662821,4663322,4663524
49,first,56,sanft,IAT_purple3.bmp,purple,starting_scream,scream,starting,m,positive,negative,ES_green,1,m,623,4665247,4665748,4665950
49,first,57,falsch,IAT_yellow1.bmp,yellow,starting_melody,melody,starting,c,negative,positive,ES_green,1,c,545,4667662,4668163,4668365
49,first,58,feige,IAT_purple4.bmp,purple,starting_scream,scream,starting,c,negative,negative,ES_green,1,c,638,4669985,4670486,4670688
49,first,59,schön,IAT_purple1.bmp,purple,starting_scream,scream,starting,m,positive,negative,ES_green,1,m,596,4672395,4672896,4673098
49,first,60,gierig,IAT_green2.bmp,green,ending_scream,scream,ending,c,negative,positive,ES_green,1,c,594,4674765,4675266,4675468
49,first,61,gesund,IAT_purple1.bmp,purple,starting_scream,scream,starting,m,positive,negative,ES_green,1,m,1054,4677136,4677637,4677839
49,first,62,morsch,IAT_green1.bmp,green,ending_scream,scream,ending,c,negative,positive,ES_green,1,c,618,4679972,4680473,4680675
49,first,63,schön,IAT_green3.bmp,green,ending_scream,scream,ending,m,positive,positive,ES_green,1,m,602,4682372,4682873,4683075
49,first,64,lästig,IAT_yellow2.bmp,yellow,starting_melody,melody,starting,c,negative,positive,ES_green,1,c,671,4684752,4685253,4685455
49,first,65,heiter,IAT_purple1.bmp,purple,starting_scream,scream,starting,m,positive,negative,ES_green,1,m,625,4687214,4687715,4687917
49,first,66,einsam,IAT_green4.bmp,green,ending_scream,scream,ending,c,negative,positive,ES_green,1,c,865,4689614,4690115,4690317
49,first,67,gierig,IAT_purple2.bmp,purple,starting_scream,scream,starting,c,negative,negative,ES_green,1,c,563,4692268,4692769,4692971
49,first,68,sonnig,IAT_red2.bmp,red,ending_melody,melody,ending,m,positive,negative,ES_green,1,m,620,4694626,4695127,4695329
49,first,69,munter,IAT_red3.bmp,red,ending_melody,melody,ending,m,positive,negative,ES_green,1,m,716,4697025,4697527,4697729
49,first,70,teuer,IAT_red4.bmp,red,ending_melody,melody,ending,c,negative,negative,ES_green,1,c,683,4699539,4700040,4700242
49,first,71,falsch,IAT_green2.bmp,green,ending_scream,scream,ending,c,negative,positive,ES_green,1,c,1073,4701998,4702499,4702701
49,first,72,schön,IAT_red4.bmp,red,ending_melody,melody,ending,m,positive,negative,ES_green,1,m,624,4704863,4705364,4705566
49,first,73,gesund,IAT_green4.bmp,green,ending_scream,scream,ending,m,positive,positive,ES_green,1,m,795,4707268,4707769,4707971
49,first,74,sanft,IAT_green2.bmp,green,ending_scream,scream,ending,m,positive,positive,ES_green,1,m,693,4709849,4710350,4710552
49,first,75,lästig,IAT_purple2.bmp,purple,starting_scream,scream,starting,c,negative,negative,ES_green,1,c,559,4712319,4712820,4713022
49,first,76,kaputt,IAT_red1.bmp,red,ending_melody,melody,ending,c,negative,negative,ES_green,1,c,685,4714657,4715158,4715360
49,first,77,feige,IAT_red2.bmp,red,ending_melody,melody,ending,c,negative,negative,ES_green,1,c,633,4717125,4717626,4717828
49,first,78,ehrlich,IAT_red1.bmp,red,ending_melody,melody,ending,m,positive,negative,ES_green,1,m,1274,4719541,4720042,4720244
49,first,79,krank,IAT_purple4.bmp,purple,starting_scream,scream,starting,c,negative,negative,ES_green,1,c,594,4722589,4723090,4723292
49,first,80,gerecht,IAT_purple1.bmp,purple,starting_scream,scream,starting,m,positive,negative,ES_green,1,m,963,4724955,4725456,4725658
49,first,81,lästig,IAT_yellow3.bmp,yellow,starting_melody,melody,starting,c,negative,positive,ES_green,1,c,568,4727702,4728203,4728405
49,first,82,sozial,IAT_purple3.bmp,purple,starting_scream,scream,starting,m,positive,negative,ES_green,1,m,671,4730047,4730548,4730750
49,first,83,ehrlich,IAT_yellow1.bmp,yellow,starting_melody,melody,starting,m,positive,positive,ES_green,1,m,673,4732493,4732994,4733196
49,first,84,gesund,IAT_red3.bmp,red,ending_melody,melody,ending,m,positive,negative,ES_green,1,m,753,4734941,4735442,4735644
49,first,85,witzig,IAT_yellow2.bmp,yellow,starting_melody,melody,starting,m,positive,positive,ES_green,1,m,1015,4737481,4737982,4738183
49,first,86,lustig,IAT_purple4.bmp,purple,starting_scream,scream,starting,m,positive,negative,ES_green,1,m,595,4740299,4740800,4741002
49,first,87,krank,IAT_green4.bmp,green,ending_scream,scream,ending,c,negative,positive,ES_green,1,c,554,4742675,4743177,4743379
49,first,88,kaputt,IAT_yellow2.bmp,yellow,starting_melody,melody,starting,c,negative,positive,ES_green,1,c,570,4745012,4745513,4745715
49,first,89,ehrlich,IAT_green1.bmp,green,ending_scream,scream,ending,m,positive,positive,ES_green,1,m,593,4747372,4747873,4748075
49,first,90,morsch,IAT_red2.bmp,red,ending_melody,melody,ending,c,negative,negative,ES_green,1,c,693,4749736,4750237,4750439
49,first,91,krank,IAT_red4.bmp,red,ending_melody,melody,ending,c,negative,negative,ES_green,1,c,598,4752216,4752717,4752918
49,first,92,geizig,IAT_red3.bmp,red,ending_melody,melody,ending,c,negative,negative,ES_green,1,c,737,4754589,4755090,4755292
49,first,93,heiter,IAT_green2.bmp,green,ending_scream,scream,ending,m,positive,positive,ES_green,1,m,527,4757118,4757619,4757821
49,first,94,gerecht,IAT_green1.bmp,green,ending_scream,scream,ending,m,positive,positive,ES_green,1,m,847,4759422,4759923,4760125
49,first,95,lustig,IAT_yellow2.bmp,yellow,starting_melody,melody,starting,m,positive,positive,ES_green,1,m,926,4762079,4762580,4762782
49,second,0,munter,IAT_green4.bmp,green,ending_scream,scream,ending,m,positive,positive,ES_green,1,m,589,4773873,4774374,4774575
49,second,1,krank,IAT_green1.bmp,green,ending_scream,scream,ending,c,negative,positive,ES_green,1,c,556,4776241,4776742,4776944
49,second,2,lästig,IAT_red2.bmp,red,ending_melody,melody,ending,c,negative,negative,ES_green,1,c,555,4778593,4779095,4779297
49,second,3,streng,IAT_green2.bmp,green,ending_scream,scream,ending,c,negative,positive,ES_green,1,c,718,4780927,4781428,4781630
49,second,4,lästig,IAT_green4.bmp,green,ending_scream,scream,ending,c,negative,positive,ES_green,1,c,571,4783424,4783926,4784128
49,second,5,lustig,IAT_red2.bmp,red,ending_melody,melody,ending,m,positive,negative,ES_green,1,m,692,4785768,4786269,4786471
49,second,6,falsch,IAT_green4.bmp,green,ending_scream,scream,ending,c,negative,positive,ES_green,1,c,794,4788242,4788743,4788945
49,second,7,krank,IAT_red2.bmp,red,ending_melody,melody,ending,c,negative,negative,ES_green,1,c,596,4790808,4791309,4791511
49,second,8,sonnig,IAT_purple2.bmp,purple,starting_scream,scream,starting,m,positive,negative,ES_green,1,m,584,4793187,4793688,4793890
49,second,9,ehrlich,IAT_red1.bmp,red,ending_melody,melody,ending,m,positive,negative,ES_green,1,m,593,4795546,4796047,4796249
49,second,10,munter,IAT_purple1.bmp,purple,starting_scream,scream,starting,m,positive,negative,ES_green,1,m,562,4797913,4798414,4798616
49,second,11,falsch,IAT_green4.bmp,green,ending_scream,scream,ending,c,negative,positive,ES_green,1,c,559,4800252,4800753,4800955
49,second,12,feige,IAT_green3.bmp,green,ending_scream,scream,ending,c,negative,positive,ES_green,1,c,622,4802587,4803089,4803291
49,second,13,gerecht,IAT_purple4.bmp,purple,starting_scream,scream,starting,m,positive,negative,ES_green,1,m,683,4804990,4805492,4805694
49,second,14,streng,IAT_purple4.bmp,purple,starting_scream,scream,starting,c,negative,negative,ES_green,0,m,404,4807463,4807964,4808166
49,second,15,sonnig,IAT_yellow3.bmp,yellow,starting_melody,melody,starting,m,positive,positive,ES_green,1,m,551,4810148,4810649,4810851
49,second,16,brutal,IAT_green1.bmp,green,ending_scream,scream,ending,c,negative,positive,ES_green,1,c,679,4812484,4812985,4813187
49,second,17,teuer,IAT_purple3.bmp,purple,starting_scream,scream,starting,c,negative,negative,ES_green,1,c,570,4814946,4815447,4815648
49,second,18,morsch,IAT_yellow4.bmp,yellow,starting_melody,melody,starting,c,negative,positive,ES_green,1,c,640,4817291,4817792,4817994
49,second,19,heiter,IAT_purple1.bmp,purple,starting_scream,scream,starting,m,positive,negative,ES_green,1,m,774,4819717,4820218,4820419
49,second,20,schön,IAT_yellow1.bmp,yellow,starting_melody,melody,starting,m,positive,positive,ES_green,1,m,690,4822280,4822781,4822983
49,second,21,geizig,IAT_yellow2.bmp,yellow,starting_melody,melody,starting,c,negative,positive,ES_green,1,c,967,4824756,4825257,4825459
49,second,22,munter,IAT_yellow1.bmp,yellow,starting_melody,melody,starting,m,positive,positive,ES_green,1,m,723,4827511,4828012,4828214
49,second,23,kaputt,IAT_red4.bmp,red,ending_melody,melody,ending,c,negative,negative,ES_green,1,c,585,4830033,4830534,4830736
49,second,24,ehrlich,IAT_yellow3.bmp,yellow,starting_melody,melody,starting,m,positive,positive,ES_green,1,m,576,4832410,4832911,4833113
49,second,25,geizig,IAT_purple4.bmp,purple,starting_scream,scream,starting,c,negative,negative,ES_green,1,c,592,4834761,4835262,4835464
49,second,26,morsch,IAT_red4.bmp,red,ending_melody,melody,ending,c,negative,negative,ES_green,1,c,627,4837125,4837627,4837829
49,second,27,gerecht,IAT_purple3.bmp,purple,starting_scream,scream,starting,m,positive,negative,ES_green,0,c,569,4839552,4840053,4840255
49,second,28,human,IAT_purple3.bmp,purple,starting_scream,scream,starting,m,positive,negative,ES_green,1,m,604,4842398,4842899,4843101
49,second,29,ehrlich,IAT_yellow1.bmp,yellow,starting_melody,melody,starting,m,positive,positive,ES_green,1,m,531,4844775,4845276,4845478
49,second,30,gesund,IAT_yellow3.bmp,yellow,starting_melody,melody,starting,m,positive,positive,ES_green,1,m,495,4847083,4847584,4847786
49,second,31,krank,IAT_yellow4.bmp,yellow,starting_melody,melody,starting,c,negative,positive,ES_green,1,c,573,4849356,4849857,4850059
49,second,32,teuer,IAT_green2.bmp,green,ending_scream,scream,ending,c,negative,positive,ES_green,0,m,592,4851705,4852206,4852408
49,second,33,feige,IAT_purple2.bmp,purple,starting_scream,scream,starting,c,negative,negative,ES_green,1,c,589,4854588,4855089,4855291
49,second,34,lästig,IAT_green3.bmp,green,ending_scream,scream,ending,c,negative,positive,ES_green,0,m,575,4856954,4857455,4857657
49,second,35,human,IAT_red3.bmp,red,ending_melody,melody,ending,m,positive,negative,ES_green,1,m,605,4859805,4860306,4860508
49,second,36,heiter,IAT_red3.bmp,red,ending_melody,melody,ending,m,positive,negative,ES_green,1,m,585,4862193,4862694,4862896
49,second,37,gierig,IAT_yellow2.bmp,yellow,starting_melody,melody,starting,c,negative,positive,ES_green,1,c,521,4864560,4865061,4865263
49,second,38,kaputt,IAT_purple2.bmp,purple,starting_scream,scream,starting,c,negative,negative,ES_green,1,c,654,4866859,4867360,4867562
49,second,39,gierig,IAT_green2.bmp,green,ending_scream,scream,ending,c,negative,positive,ES_green,0,m,521,4869296,4869797,4869999
49,second,40,gerecht,IAT_green1.bmp,green,ending_scream,scream,ending,m,positive,positive,ES_green,1,m,870,4872099,4872600,4872802
49,second,41,falsch,IAT_purple1.bmp,purple,starting_scream,scream,starting,c,negative,negative,ES_green,1,c,807,4874755,4875256,4875457
49,second,42,gesund,IAT_green1.bmp,green,ending_scream,scream,ending,m,positive,positive,ES_green,1,m,1063,4877346,4877848,4878050
49,second,43,heiter,IAT_purple2.bmp,purple,starting_scream,scream,starting,m,positive,negative,ES_green,1,m,890,4880191,4880692,4880895
49,second,44,lustig,IAT_yellow1.bmp,yellow,starting_melody,melody,starting,m,positive,positive,ES_green,1,m,795,4882877,4883378,4883580
49,second,45,sanft,IAT_purple1.bmp,purple,starting_scream,scream,starting,m,positive,negative,ES_green,1,m,607,4885449,4885950,4886152
49,second,46,witzig,IAT_red1.bmp,red,ending_melody,melody,ending,m,positive,negative,ES_green,1,m,631,4887841,4888342,4888544
49,second,47,gesund,IAT_yellow2.bmp,yellow,starting_melody,melody,starting,m,positive,positive,ES_green,1,m,510,4890250,4890751,4890953
49,second,48,einsam,IAT_purple1.bmp,purple,starting_scream,scream,starting,c,negative,negative,ES_green,1,c,612,4892563,4893065,4893267
49,second,49,brutal,IAT_yellow4.bmp,yellow,starting_melody,melody,starting,c,negative,positive,ES_green,1,c,750,4894955,4895456,4895658
49,second,50,schön,IAT_yellow4.bmp,yellow,starting_melody,melody,starting,m,positive,positive,ES_green,1,m,543,4897481,4897982,4898184
49,second,51,gerecht,IAT_yellow4.bmp,yellow,starting_melody,melody,starting,m,positive,positive,ES_green,1,m,514,4899798,4900299,4900501
49,second,52,heiter,IAT_green1.bmp,green,ending_scream,scream,ending,m,positive,positive,ES_green,1,m,556,4902092,4902593,4902795
49,second,53,einsam,IAT_red2.bmp,red,ending_melody,melody,ending,c,negative,negative,ES_green,1,c,826,4904430,4904931,4905133
49,second,54,morsch,IAT_yellow2.bmp,yellow,starting_melody,melody,starting,c,negative,positive,ES_green,1,c,692,4907028,4907529,4907731
49,second,55,munter,IAT_purple3.bmp,purple,starting_scream,scream,starting,m,positive,negative,ES_green,1,m,665,4909503,4910004,4910206
49,second,56,brutal,IAT_red1.bmp,red,ending_melody,melody,ending,c,negative,negative,ES_green,1,c,640,4911944,4912445,4912647
49,second,57,lästig,IAT_yellow2.bmp,yellow,starting_melody,melody,starting,c,negative,positive,ES_green,1,c,1208,4914367,4914868,4915070
49,second,58,witzig,IAT_purple4.bmp,purple,starting_scream,scream,starting,m,positive,negative,ES_green,1,m,699,4917356,4917858,4918059
49,second,59,sozial,IAT_red1.bmp,red,ending_melody,melody,ending,m,positive,negative,ES_green,1,m,590,4919833,4920334,4920536
49,second,60,sonnig,IAT_red2.bmp,red,ending_melody,melody,ending,m,positive,negative,ES_green,1,m,592,4922199,4922700,4922902
49,second,61,teuer,IAT_purple4.bmp,purple,starting_scream,scream,starting,c,negative,negative,ES_green,1,c,557,4924570,4925071,4925273
49,second,62,schön,IAT_green4.bmp,green,ending_scream,scream,ending,m,positive,positive,ES_green,1,m,1005,4926905,4927406,4927608
49,second,63,sanft,IAT_green3.bmp,green,ending_scream,scream,ending,m,positive,positive,ES_green,1,m,507,4929692,4930193,4930395
49,second,64,human,IAT_green3.bmp,green,ending_scream,scream,ending,m,positive,positive,ES_green,1,m,679,4931984,4932485,4932687
49,second,65,geizig,IAT_red2.bmp,red,ending_melody,melody,ending,c,negative,negative,ES_green,1,c,1008,4934439,4934940,4935142
49,second,66,einsam,IAT_red1.bmp,red,ending_melody,melody,ending,c,negative,negative,ES_green,1,c,605,4937226,4937727,4937929
49,second,67,feige,IAT_yellow4.bmp,yellow,starting_melody,melody,starting,c,negative,positive,ES_green,1,c,645,4939618,4940119,4940321
49,second,68,kaputt,IAT_red4.bmp,red,ending_melody,melody,ending,c,negative,negative,ES_green,1,c,501,4942066,4942567,4942769
49,second,69,sanft,IAT_red4.bmp,red,ending_melody,melody,ending,m,positive,negative,ES_green,1,m,608,4944342,4944843,4945045
49,second,70,krank,IAT_green4.bmp,green,ending_scream,scream,ending,c,negative,positive,ES_green,1,c,1015,4946735,4947237,4947439
49,second,71,gesund,IAT_purple3.bmp,purple,starting_scream,scream,starting,m,positive,negative,ES_green,1,m,591,4949528,4950029,4950231
49,second,72,schön,IAT_red3.bmp,red,ending_melody,melody,ending,m,positive,negative,ES_green,1,m,537,4951902,4952403,4952604
49,second,73,brutal,IAT_red3.bmp,red,ending_melody,melody,ending,c,negative,negative,ES_green,1,c,463,4954215,4954716,4954918
49,second,74,streng,IAT_yellow3.bmp,yellow,starting_melody,melody,starting,c,negative,positive,ES_green,1,c,694,4956480,4956981,4957183
49,second,75,sozial,IAT_purple1.bmp,purple,starting_scream,scream,starting,m,positive,negative,ES_green,1,m,527,4958950,4959451,4959653
49,second,76,gierig,IAT_purple2.bmp,purple,starting_scream,scream,starting,c,negative,negative,ES_green,1,c,615,4961262,4961763,4961965
49,second,77,lustig,IAT_green3.bmp,green,ending_scream,scream,ending,m,positive,positive,ES_green,1,m,544,4963654,4964155,4964357
49,second,78,sozial,IAT_green3.bmp,green,ending_scream,scream,ending,m,positive,positive,ES_green,0,c,539,4965979,4966480,4966682
49,second,79,streng,IAT_red4.bmp,red,ending_melody,melody,ending,c,negative,negative,ES_green,1,c,646,4968816,4969317,4969519
49,second,80,falsch,IAT_purple4.bmp,purple,starting_scream,scream,starting,c,negative,negative,ES_green,1,c,620,4971241,4971743,4971945
49,second,81,sanft,IAT_green1.bmp,green,ending_scream,scream,ending,m,positive,positive,ES_green,1,m,585,4973644,4974145,4974347
49,second,82,teuer,IAT_purple2.bmp,purple,starting_scream,scream,starting,c,negative,negative,ES_green,0,None,1500,4976023,4976525,4976726
49,second,83,gierig,IAT_purple3.bmp,purple,starting_scream,scream,starting,c,negative,negative,ES_green,1,c,760,4979804,4980306,4980508
49,second,84,geizig,IAT_red3.bmp,red,ending_melody,melody,ending,c,negative,negative,ES_green,1,c,574,4982344,4982845,4983047
49,second,85,sozial,IAT_yellow2.bmp,yellow,starting_melody,melody,starting,m,positive,positive,ES_green,1,m,463,4984695,4985196,4985398
49,second,86,witzig,IAT_green2.bmp,green,ending_scream,scream,ending,m,positive,positive,ES_green,0,c,526,4986935,4987437,4987639
49,second,87,feige,IAT_green2.bmp,green,ending_scream,scream,ending,c,negative,positive,ES_green,1,c,588,4989736,4990238,4990440
49,second,88,lustig,IAT_red3.bmp,red,ending_melody,melody,ending,m,positive,negative,ES_green,1,m,596,4992113,4992614,4992816
49,second,89,human,IAT_yellow3.bmp,yellow,starting_melody,melody,starting,m,positive,positive,ES_green,1,m,522,4994491,4994992,4995194
49,second,90,kaputt,IAT_yellow1.bmp,yellow,starting_melody,melody,starting,c,negative,positive,ES_green,1,c,632,4996797,4997298,4997500
49,second,91,morsch,IAT_yellow3.bmp,yellow,starting_melody,melody,starting,c,negative,positive,ES_green,1,c,605,4999209,4999710,4999912
49,second,92,witzig,IAT_green2.bmp,green,ending_scream,scream,ending,m,positive,positive,ES_green,1,m,529,5001589,5002090,5002292
49,second,93,einsam,IAT_yellow1.bmp,yellow,starting_melody,melody,starting,c,negative,positive,ES_green,1,c,767,5003895,5004396,5004598
49,second,94,ehrlich,IAT_red4.bmp,red,ending_melody,melody,ending,m,positive,negative,ES_green,1,m,575,5006438,5006939,5007141
49,second,95,sonnig,IAT_red1.bmp,red,ending_melody,melody,ending,m,positive,negative,ES_green,1,m,561,5008788,5009289,5009491
