subject_nr,block,trialnr,trial_target,trial_prime,prime_color,prime_role,prime_us,prime_relation,correct_response,target_valence,prime_valence,color_counter,correct_first_response,response_first_response,response_time_first_response,fixation_show,prime_show,target_show
11,first,0,einsam,IAT_yellow2.bmp,yellow,starting_melody,melody,starting,c,negative,positive,ES_green,1,c,565,843002,843503,843705
11,first,1,sanft,IAT_purple2.bmp,purple,starting_scream,scream,starting,m,positive,negative,ES_green,1,m,485,845354,845855,846057
11,first,2,ehrlich,IAT_green3.bmp,green,ending_scream,scream,ending,m,positive,positive,ES_green,1,m,512,847615,848116,848318
11,first,3,gesund,IAT_green4.bmp,green,ending_scream,scream,ending,m,positive,positive,ES_green,1,m,488,849926,850428,850630
11,first,4,human,IAT_green3.bmp,green,ending_scream,scream,ending,m,positive,positive,ES_green,1,m,446,852209,852710,852912
11,first,5,schön,IAT_red4.bmp,red,ending_melody,melody,ending,m,positive,negative,ES_green,1,m,547,854445,854946,855148
11,first,6,gesund,IAT_purple3.bmp,purple,starting_scream,scream,starting,m,positive,negative,ES_green,1,m,513,856766,857267,857469
11,first,7,witzig,IAT_yellow1.bmp,yellow,starting_melody,melody,starting,m,positive,positive,ES_green,1,m,482,859053,859554,859756
11,first,8,munter,IAT_red4.bmp,red,ending_melody,melody,ending,m,positive,negative,ES_green,1,m,523,861316,861817,862019
11,first,9,gerecht,IAT_green3.bmp,green,ending_scream,scream,ending,m,positive,positive,ES_green,1,m,560,863646,864148,864350
11,first,10,krank,IAT_green4.bmp,green,ending_scream,scream,ending,c,negative,positive,ES_green,1,c,568,865991,866492,866694
11,first,11,lästig,IAT_purple2.bmp,purple,starting_scream,scream,starting,c,negative,negative,ES_green,1,c,508,868339,868841,869042
11,first,12,sozial,IAT_purple4.bmp,purple,starting_scream,scream,starting,m,positive,negative,ES_green,1,m,593,870623,871124,871325
11,first,13,streng,IAT_red4.bmp,red,ending_melody,melody,ending,c,negative,negative,ES_green,1,c,525,872994,873495,873697
11,first,14,munter,IAT_green1.bmp,green,ending_scream,scream,ending,m,positive,positive,ES_green,1,m,620,875299,875800,876002
11,first,15,schön,IAT_green2.bmp,green,ending_scream,scream,ending,m,positive,positive,ES_green,1,m,443,877700,878201,878403
11,first,16,kaputt,IAT_red3.bmp,red,ending_melody,melody,ending,c,negative,negative,ES_green,1,c,494,879921,880422,880624
11,first,17,heiter,IAT_yellow1.bmp,yellow,starting_melody,melody,starting,m,positive,positive,ES_green,1,m,697,882198,882699,882901
11,first,18,witzig,IAT_red3.bmp,red,ending_melody,melody,ending,m,positive,negative,ES_green,1,m,464,884672,885173,885375
11,first,19,munter,IAT_purple1.bmp,purple,starting_scream,scream,starting,m,positive,negative,ES_green,0,c,456,886933,887435,887637
11,first,20,einsam,IAT_purple1.bmp,purple,starting_scream,scream,starting,c,negative,negative,ES_green,0,m,633,889670,890171,890373
11,first,21,witzig,IAT_yellow3.bmp,yellow,starting_melody,melody,starting,m,positive,positive,ES_green,1,m,727,892583,893085,893287
11,first,22,sanft,IAT_red3.bmp,red,ending_melody,melody,ending,m,positive,negative,ES_green,1,m,555,895092,895593,895795
11,first,23,sonnig,IAT_red2.bmp,red,ending_melody,melody,ending,m,positive,negative,ES_green,1,m,539,897443,897945,898147
11,first,24,streng,IAT_green3.bmp,green,ending_scream,scream,ending,c,negative,positive,ES_green,1,c,565,899770,900271,900473
11,first,25,sozial,IAT_yellow3.bmp,yellow,starting_melody,melody,starting,m,positive,positive,ES_green,1,m,524,902115,902616,902818
11,first,26,lästig,IAT_red1.bmp,red,ending_melody,melody,ending,c,negative,negative,ES_green,1,c,649,904437,904938,905140
11,first,27,feige,IAT_green2.bmp,green,ending_scream,scream,ending,c,negative,positive,ES_green,1,c,735,906863,907365,907567
11,first,28,falsch,IAT_red2.bmp,red,ending_melody,melody,ending,c,negative,negative,ES_green,1,c,556,909379,909880,910082
11,first,29,sonnig,IAT_yellow2.bmp,yellow,starting_melody,melody,starting,m,positive,positive,ES_green,1,m,490,911718,912219,912420
11,first,30,teuer,IAT_yellow1.bmp,yellow,starting_melody,melody,starting,c,negative,positive,ES_green,1,c,615,913993,914494,914695
11,first,31,kaputt,IAT_purple2.bmp,purple,starting_scream,scream,starting,c,negative,negative,ES_green,1,c,546,916381,916882,917084
11,first,32,gerecht,IAT_purple1.bmp,purple,starting_scream,scream,starting,m,positive,negative,ES_green,0,c,509,918722,919223,919424
11,first,33,brutal,IAT_green1.bmp,green,ending_scream,scream,ending,c,negative,positive,ES_green,1,c,604,921505,922007,922209
11,first,34,falsch,IAT_green4.bmp,green,ending_scream,scream,ending,c,negative,positive,ES_green,1,c,616,923895,924396,924598
11,first,35,witzig,IAT_yellow3.bmp,yellow,starting_melody,melody,starting,m,positive,positive,ES_green,1,m,506,926294,926795,926996
11,first,36,lustig,IAT_red3.bmp,red,ending_melody,melody,ending,m,positive,negative,ES_green,1,m,523,928580,929081,929283
11,first,37,feige,IAT_red2.bmp,red,ending_melody,melody,ending,c,negative,negative,ES_green,1,c,724,930876,931377,931578
11,first,38,heiter,IAT_green1.bmp,green,ending_scream,scream,ending,m,positive,positive,ES_green,1,m,554,933380,933881,934083
11,first,39,morsch,IAT_purple4.bmp,purple,starting_scream,scream,starting,c,negative,negative,ES_green,1,c,619,935715,936216,936418
11,first,40,kaputt,IAT_yellow3.bmp,yellow,starting_melody,melody,starting,c,negative,positive,ES_green,1,c,487,938119,938620,938822
11,first,41,sozial,IAT_yellow1.bmp,yellow,starting_melody,melody,starting,m,positive,positive,ES_green,1,m,544,940381,940883,941085
11,first,42,lustig,IAT_red1.bmp,red,ending_melody,melody,ending,m,positive,negative,ES_green,0,c,474,942709,943210,943412
11,first,43,sanft,IAT_green1.bmp,green,ending_scream,scream,ending,m,positive,positive,ES_green,1,m,615,945464,945965,946167
11,first,44,human,IAT_purple3.bmp,purple,starting_scream,scream,starting,m,positive,negative,ES_green,1,m,490,947878,948379,948580
11,first,45,brutal,IAT_purple4.bmp,purple,starting_scream,scream,starting,c,negative,negative,ES_green,1,c,574,950160,950661,950863
11,first,46,schön,IAT_purple4.bmp,purple,starting_scream,scream,starting,m,positive,negative,ES_green,1,m,539,952515,953016,953218
11,first,47,sonnig,IAT_red2.bmp,red,ending_melody,melody,ending,m,positive,negative,ES_green,1,m,493,954833,955334,955536
11,first,48,sozial,IAT_red3.bmp,red,ending_melody,melody,ending,m,positive,negative,ES_green,1,m,556,957106,957607,957809
11,first,49,gesund,IAT_yellow1.bmp,yellow,starting_melody,melody,starting,m,positive,positive,ES_green,1,m,553,959446,959947,960149
11,first,50,morsch,IAT_purple2.bmp,purple,starting_scream,scream,starting,c,negative,negative,ES_green,1,c,548,961770,962272,962474
11,first,51,kaputt,IAT_yellow4.bmp,yellow,starting_melody,melody,starting,c,negative,positive,ES_green,1,c,505,964118,964619,964821
11,first,52,human,IAT_purple2.bmp,purple,starting_scream,scream,starting,m,positive,negative,ES_green,1,m,508,966418,966919,967121
11,first,53,lästig,IAT_purple1.bmp,purple,starting_scream,scream,starting,c,negative,negative,ES_green,0,m,528,968702,969203,969405
11,first,54,morsch,IAT_red3.bmp,red,ending_melody,melody,ending,c,negative,negative,ES_green,1,c,521,971509,972010,972212
11,first,55,schön,IAT_purple3.bmp,purple,starting_scream,scream,starting,m,positive,negative,ES_green,1,m,505,973813,974314,974516
11,first,56,gierig,IAT_red1.bmp,red,ending_melody,melody,ending,c,negative,negative,ES_green,1,c,458,976100,976601,976803
11,first,57,gerecht,IAT_green3.bmp,green,ending_scream,scream,ending,m,positive,positive,ES_green,1,m,559,978333,978834,979036
11,first,58,munter,IAT_purple1.bmp,purple,starting_scream,scream,starting,m,positive,negative,ES_green,0,c,466,980682,981183,981385
11,first,59,brutal,IAT_red4.bmp,red,ending_melody,melody,ending,c,negative,negative,ES_green,1,c,652,983425,983926,984127
11,first,60,ehrlich,IAT_green2.bmp,green,ending_scream,scream,ending,m,positive,positive,ES_green,1,m,539,985857,986358,986560
11,first,61,falsch,IAT_purple4.bmp,purple,starting_scream,scream,starting,c,negative,negative,ES_green,1,c,588,988192,988693,988895
11,first,62,brutal,IAT_yellow2.bmp,yellow,starting_melody,melody,starting,c,negative,positive,ES_green,1,c,620,990561,991062,991263
11,first,63,heiter,IAT_red1.bmp,red,ending_melody,melody,ending,m,positive,negative,ES_green,1,m,701,992959,993460,993662
11,first,64,streng,IAT_yellow4.bmp,yellow,starting_melody,melody,starting,c,negative,positive,ES_green,1,c,615,995445,995946,996148
11,first,65,einsam,IAT_red4.bmp,red,ending_melody,melody,ending,c,negative,negative,ES_green,0,m,680,997844,998345,998547
11,first,66,lustig,IAT_green1.bmp,green,ending_scream,scream,ending,m,positive,positive,ES_green,1,m,556,1000800,1001301,1001503
11,first,67,falsch,IAT_green2.bmp,green,ending_scream,scream,ending,c,negative,positive,ES_green,1,c,452,1003144,1003645,1003847
11,first,68,geizig,IAT_green4.bmp,green,ending_scream,scream,ending,c,negative,positive,ES_green,1,c,730,1005378,1005879,1006081
11,first,69,ehrlich,IAT_purple1.bmp,purple,starting_scream,scream,starting,m,positive,negative,ES_green,1,m,580,1007880,1008381,1008583
11,first,70,krank,IAT_red4.bmp,red,ending_melody,melody,ending,c,negative,negative,ES_green,1,c,453,1010263,1010765,1010967
11,first,71,geizig,IAT_yellow3.bmp,yellow,starting_melody,melody,starting,c,negative,positive,ES_green,1,c,672,1012493,1012994,1013195
11,first,72,krank,IAT_green2.bmp,green,ending_scream,scream,ending,c,negative,positive,ES_green,0,m,548,1014952,1015453,1015655
11,first,73,streng,IAT_purple3.bmp,purple,starting_scream,scream,starting,c,negative,negative,ES_green,1,c,668,1017776,1018277,1018479
11,first,74,lästig,IAT_yellow4.bmp,yellow,starting_melody,melody,starting,c,negative,positive,ES_green,1,c,566,1020230,1020731,1020933
11,first,75,krank,IAT_purple2.bmp,purple,starting_scream,scream,starting,c,negative,negative,ES_green,1,c,515,1022585,1023086,1023288
11,first,76,geizig,IAT_green3.bmp,green,ending_scream,scream,ending,c,negative,positive,ES_green,1,c,553,1024884,1025385,1025586
11,first,77,teuer,IAT_red2.bmp,red,ending_melody,melody,ending,c,negative,negative,ES_green,1,c,472,1027219,1027721,1027922
11,first,78,gerecht,IAT_purple3.bmp,purple,starting_scream,scream,starting,m,positive,negative,ES_green,0,c,482,1029482,1029983,1030185
11,first,79,gesund,IAT_red1.bmp,red,ending_melody,melody,ending,m,positive,negative,ES_green,1,m,732,1032240,1032741,1032943
11,first,80,gierig,IAT_purple4.bmp,purple,starting_scream,scream,starting,c,negative,negative,ES_green,1,c,492,1034753,1035254,1035455
11,first,81,feige,IAT_yellow2.bmp,yellow,starting_melody,melody,starting,c,negative,positive,ES_green,1,c,889,1037027,1037528,1037730
11,first,82,human,IAT_red1.bmp,red,ending_melody,melody,ending,m,positive,negative,ES_green,1,m,538,1039698,1040199,1040401
11,first,83,morsch,IAT_green1.bmp,green,ending_scream,scream,ending,c,negative,positive,ES_green,1,c,539,1042016,1042517,1042719
11,first,84,gierig,IAT_yellow1.bmp,yellow,starting_melody,melody,starting,c,negative,positive,ES_green,1,c,546,1044329,1044830,1045032
11,first,85,heiter,IAT_yellow4.bmp,yellow,starting_melody,melody,starting,m,positive,positive,ES_green,0,c,616,1046659,1047161,1047363
11,first,86,ehrlich,IAT_yellow4.bmp,yellow,starting_melody,melody,starting,m,positive,positive,ES_green,1,m,671,1049549,1050050,1050252
11,first,87,sanft,IAT_yellow2.bmp,yellow,starting_melody,melody,starting,m,positive,positive,ES_green,1,m,554,1052002,1052503,1052705
11,first,88,lustig,IAT_yellow3.bmp,yellow,starting_melody,melody,starting,m,positive,positive,ES_green,1,m,540,1054336,1054837,1055039
11,first,89,einsam,IAT_green2.bmp,green,ending_scream,scream,ending,c,negative,positive,ES_green,0,m,573,1056655,1057156,1057358
11,first,90,feige,IAT_green4.bmp,green,ending_scream,scream,ending,c,negative,positive,ES_green,1,c,681,1059506,1060007,1060209
11,first,91,gierig,IAT_red2.bmp,red,ending_melody,melody,ending,c,negative,negative,ES_green,1,c,653,1061966,1062467,1062669
11,first,92,teuer,IAT_yellow2.bmp,yellow,starting_melody,melody,starting,c,negative,positive,ES_green,1,c,561,1064395,1064896,1065098
11,first,93,geizig,IAT_purple3.bmp,purple,starting_scream,scream,starting,c,negative,negative,ES_green,1,c,637,1066735,1067236,1067438
11,first,94,teuer,IAT_yellow4.bmp,yellow,starting_melody,melody,starting,c,negative,positive,ES_green,1,c,640,1069165,1069666,1069867
11,first,95,sonnig,IAT_green4.bmp,green,ending_scream,scream,ending,m,positive,positive,ES_green,0,None,1500,1071611,1072112,1072314
11,second,0,kaputt,IAT_yellow3.bmp,yellow,starting_melody,melody,starting,c,negative,positive,ES_green,1,c,733,1081070,1081571,1081773
11,second,1,einsam,IAT_red2.bmp,red,ending_melody,melody,ending,c,negative,negative,ES_green,1,c,596,1083608,1084109,1084311
11,second,2,falsch,IAT_purple1.bmp,purple,starting_scream,scream,starting,c,negative,negative,ES_green,1,c,568,1085988,1086489,1086691
11,second,3,schön,IAT_purple1.bmp,purple,starting_scream,scream,starting,m,positive,negative,ES_green,1,m,623,1088333,1088834,1089036
11,second,4,morsch,IAT_green4.bmp,green,ending_scream,scream,ending,c,negative,positive,ES_green,1,c,649,1090737,1091239,1091441
11,second,5,geizig,IAT_red2.bmp,red,ending_melody,melody,ending,c,negative,negative,ES_green,1,c,479,1093164,1093665,1093867
11,second,6,brutal,IAT_green3.bmp,green,ending_scream,scream,ending,c,negative,positive,ES_green,1,c,567,1095443,1095945,1096147
11,second,7,ehrlich,IAT_green3.bmp,green,ending_scream,scream,ending,m,positive,positive,ES_green,0,c,401,1097786,1098287,1098489
11,second,8,witzig,IAT_green1.bmp,green,ending_scream,scream,ending,m,positive,positive,ES_green,1,m,599,1100485,1100986,1101188
11,second,9,sonnig,IAT_red1.bmp,red,ending_melody,melody,ending,m,positive,negative,ES_green,1,m,606,1102861,1103363,1103565
11,second,10,schön,IAT_yellow2.bmp,yellow,starting_melody,melody,starting,m,positive,positive,ES_green,1,m,456,1105251,1105752,1105954
11,second,11,heiter,IAT_red3.bmp,red,ending_melody,melody,ending,m,positive,negative,ES_green,1,m,545,1107482,1107983,1108185
11,second,12,munter,IAT_yellow3.bmp,yellow,starting_melody,melody,starting,m,positive,positive,ES_green,1,m,506,1109809,1110310,1110512
11,second,13,gierig,IAT_purple4.bmp,purple,starting_scream,scream,starting,c,negative,negative,ES_green,1,c,478,1112093,1112594,1112796
11,second,14,ehrlich,IAT_red3.bmp,red,ending_melody,melody,ending,m,positive,negative,ES_green,1,m,702,1114349,1114850,1115052
11,second,15,human,IAT_green3.bmp,green,ending_scream,scream,ending,m,positive,positive,ES_green,1,m,541,1116832,1117333,1117534
11,second,16,heiter,IAT_purple4.bmp,purple,starting_scream,scream,starting,m,positive,negative,ES_green,1,m,496,1119147,1119649,1119851
11,second,17,gesund,IAT_yellow3.bmp,yellow,starting_melody,melody,starting,m,positive,positive,ES_green,1,m,539,1121424,1121925,1122127
11,second,18,gerecht,IAT_green1.bmp,green,ending_scream,scream,ending,m,positive,positive,ES_green,1,m,531,1123768,1124269,1124471
11,second,19,ehrlich,IAT_purple2.bmp,purple,starting_scream,scream,starting,m,positive,negative,ES_green,1,m,525,1126077,1126579,1126781
11,second,20,schön,IAT_yellow1.bmp,yellow,starting_melody,melody,starting,m,positive,positive,ES_green,1,m,430,1128381,1128882,1129084
11,second,21,sanft,IAT_yellow1.bmp,yellow,starting_melody,melody,starting,m,positive,positive,ES_green,1,m,533,1130598,1131099,1131301
11,second,22,human,IAT_yellow3.bmp,yellow,starting_melody,melody,starting,m,positive,positive,ES_green,1,m,430,1132909,1133410,1133612
11,second,23,geizig,IAT_green4.bmp,green,ending_scream,scream,ending,c,negative,positive,ES_green,1,c,653,1135135,1135636,1135837
11,second,24,einsam,IAT_green2.bmp,green,ending_scream,scream,ending,c,negative,positive,ES_green,1,c,699,1137567,1138069,1138271
11,second,25,brutal,IAT_purple4.bmp,purple,starting_scream,scream,starting,c,negative,negative,ES_green,1,c,588,1140063,1140564,1140766
11,second,26,streng,IAT_yellow4.bmp,yellow,starting_melody,melody,starting,c,negative,positive,ES_green,1,c,561,1142427,1142928,1143129
11,second,27,teuer,IAT_purple1.bmp,purple,starting_scream,scream,starting,c,negative,negative,ES_green,1,c,510,1144766,1145267,1145468
11,second,28,kaputt,IAT_purple2.bmp,purple,starting_scream,scream,starting,c,negative,negative,ES_green,1,c,573,1147054,1147555,1147757
11,second,29,lästig,IAT_red3.bmp,red,ending_melody,melody,ending,c,negative,negative,ES_green,1,c,636,1149407,1149908,1150110
11,second,30,streng,IAT_yellow1.bmp,yellow,starting_melody,melody,starting,c,negative,positive,ES_green,1,c,592,1151819,1152320,1152522
11,second,31,einsam,IAT_green2.bmp,green,ending_scream,scream,ending,c,negative,positive,ES_green,1,c,612,1154198,1154700,1154902
11,second,32,lustig,IAT_red4.bmp,red,ending_melody,melody,ending,m,positive,negative,ES_green,1,m,749,1156589,1157091,1157292
11,second,33,gierig,IAT_green4.bmp,green,ending_scream,scream,ending,c,negative,positive,ES_green,1,c,676,1159110,1159611,1159813
11,second,34,teuer,IAT_yellow2.bmp,yellow,starting_melody,melody,starting,c,negative,positive,ES_green,1,c,525,1161565,1162066,1162268
11,second,35,munter,IAT_red1.bmp,red,ending_melody,melody,ending,m,positive,negative,ES_green,1,m,577,1163881,1164382,1164584
11,second,36,morsch,IAT_red1.bmp,red,ending_melody,melody,ending,c,negative,negative,ES_green,1,c,522,1166240,1166741,1166943
11,second,37,heiter,IAT_yellow4.bmp,yellow,starting_melody,melody,starting,m,positive,positive,ES_green,1,m,746,1168544,1169045,1169247
11,second,38,gierig,IAT_red4.bmp,red,ending_melody,melody,ending,c,negative,negative,ES_green,1,c,667,1171072,1171573,1171774
11,second,39,streng,IAT_green4.bmp,green,ending_scream,scream,ending,c,negative,positive,ES_green,1,c,663,1173523,1174024,1174226
11,second,40,teuer,IAT_red4.bmp,red,ending_melody,melody,ending,c,negative,negative,ES_green,1,c,689,1175977,1176478,1176680
11,second,41,gerecht,IAT_yellow3.bmp,yellow,starting_melody,melody,starting,m,positive,positive,ES_green,0,c,505,1178449,1178950,1179152
11,second,42,krank,IAT_yellow2.bmp,yellow,starting_melody,melody,starting,c,negative,positive,ES_green,1,c,641,1181241,1181742,1181944
11,second,43,lästig,IAT_purple2.bmp,purple,starting_scream,scream,starting,c,negative,negative,ES_green,1,c,901,1183668,1184169,1184371
11,second,44,teuer,IAT_green2.bmp,green,ending_scream,scream,ending,c,negative,positive,ES_green,1,c,604,1186350,1186851,1187053
11,second,45,human,IAT_purple3.bmp,purple,starting_scream,scream,starting,m,positive,negative,ES_green,1,m,651,1188735,1189236,1189438
11,second,46,ehrlich,IAT_yellow1.bmp,yellow,starting_melody,melody,starting,m,positive,positive,ES_green,0,c,491,1191167,1191668,1191870
11,second,47,morsch,IAT_red3.bmp,red,ending_melody,melody,ending,c,negative,negative,ES_green,1,c,572,1193935,1194436,1194637
11,second,48,sonnig,IAT_red1.bmp,red,ending_melody,melody,ending,m,positive,negative,ES_green,1,m,503,1196307,1196808,1197010
11,second,49,human,IAT_purple3.bmp,purple,starting_scream,scream,starting,m,positive,negative,ES_green,1,m,496,1198585,1199086,1199288
11,second,50,streng,IAT_purple3.bmp,purple,starting_scream,scream,starting,c,negative,negative,ES_green,1,c,465,1200872,1201373,1201575
11,second,51,lustig,IAT_red3.bmp,red,ending_melody,melody,ending,m,positive,negative,ES_green,1,m,524,1203117,1203618,1203820
11,second,52,gesund,IAT_green3.bmp,green,ending_scream,scream,ending,m,positive,positive,ES_green,1,m,548,1205430,1205931,1206133
11,second,53,sonnig,IAT_purple1.bmp,purple,starting_scream,scream,starting,m,positive,negative,ES_green,1,m,537,1207760,1208262,1208464
11,second,54,kaputt,IAT_green1.bmp,green,ending_scream,scream,ending,c,negative,positive,ES_green,0,m,528,1210074,1210575,1210777
11,second,55,gerecht,IAT_red3.bmp,red,ending_melody,melody,ending,m,positive,negative,ES_green,0,c,707,1212887,1213388,1213589
11,second,56,sanft,IAT_green1.bmp,green,ending_scream,scream,ending,m,positive,positive,ES_green,1,m,559,1215898,1216399,1216601
11,second,57,sozial,IAT_purple1.bmp,purple,starting_scream,scream,starting,m,positive,negative,ES_green,1,m,602,1218239,1218740,1218942
11,second,58,witzig,IAT_purple3.bmp,purple,starting_scream,scream,starting,m,positive,negative,ES_green,1,m,506,1220623,1221124,1221326
11,second,59,lustig,IAT_green2.bmp,green,ending_scream,scream,ending,m,positive,positive,ES_green,1,m,524,1222910,1223411,1223613
11,second,60,gierig,IAT_yellow2.bmp,yellow,starting_melody,melody,starting,c,negative,positive,ES_green,1,c,522,1225216,1225717,1225919
11,second,61,schön,IAT_purple1.bmp,purple,starting_scream,scream,starting,m,positive,negative,ES_green,1,m,565,1227525,1228026,1228228
11,second,62,munter,IAT_green1.bmp,green,ending_scream,scream,ending,m,positive,positive,ES_green,1,m,490,1229871,1230372,1230574
11,second,63,witzig,IAT_green3.bmp,green,ending_scream,scream,ending,m,positive,positive,ES_green,1,m,475,1232158,1232659,1232861
11,second,64,sozial,IAT_green2.bmp,green,ending_scream,scream,ending,m,positive,positive,ES_green,0,c,560,1234409,1234910,1235112
11,second,65,witzig,IAT_red1.bmp,red,ending_melody,melody,ending,m,positive,negative,ES_green,1,m,616,1237249,1237750,1237952
11,second,66,lästig,IAT_purple4.bmp,purple,starting_scream,scream,starting,c,negative,negative,ES_green,1,c,690,1239672,1240173,1240375
11,second,67,heiter,IAT_red4.bmp,red,ending_melody,melody,ending,m,positive,negative,ES_green,1,m,765,1242142,1242643,1242844
11,second,68,sonnig,IAT_red2.bmp,red,ending_melody,melody,ending,m,positive,negative,ES_green,1,m,488,1244688,1245190,1245392
11,second,69,feige,IAT_yellow4.bmp,yellow,starting_melody,melody,starting,c,negative,positive,ES_green,1,c,707,1246950,1247451,1247653
11,second,70,morsch,IAT_green2.bmp,green,ending_scream,scream,ending,c,negative,positive,ES_green,1,c,669,1249436,1249937,1250139
11,second,71,einsam,IAT_yellow3.bmp,yellow,starting_melody,melody,starting,c,negative,positive,ES_green,1,c,651,1251886,1252387,1252589
11,second,72,gerecht,IAT_green4.bmp,green,ending_scream,scream,ending,m,positive,positive,ES_green,0,c,714,1254319,1254820,1255022
11,second,73,munter,IAT_yellow1.bmp,yellow,starting_melody,melody,starting,m,positive,positive,ES_green,1,m,627,1257319,1257821,1258022
11,second,74,sanft,IAT_purple4.bmp,purple,starting_scream,scream,starting,m,positive,negative,ES_green,1,m,583,1259747,1260248,1260450
11,second,75,krank,IAT_green1.bmp,green,ending_scream,scream,ending,c,negative,positive,ES_green,1,c,612,1262101,1262602,1262804
11,second,76,sozial,IAT_purple3.bmp,purple,starting_scream,scream,starting,m,positive,negative,ES_green,1,m,591,1264506,1265007,1265209
11,second,77,lustig,IAT_purple2.bmp,purple,starting_scream,scream,starting,m,positive,negative,ES_green,1,m,547,1266869,1267371,1267573
11,second,78,feige,IAT_purple4.bmp,purple,starting_scream,scream,starting,c,negative,negative,ES_green,1,c,616,1269200,1269702,1269904
11,second,79,gesund,IAT_yellow2.bmp,yellow,starting_melody,melody,starting,m,positive,positive,ES_green,1,m,1037,1271597,1272098,1272299
11,second,80,sozial,IAT_yellow4.bmp,yellow,starting_melody,melody,starting,m,positive,positive,ES_green,1,m,555,1274415,1274916,1275119
11,second,81,lästig,IAT_red2.bmp,red,ending_melody,melody,ending,c,negative,negative,ES_green,0,m,501,1276756,1277257,1277459
11,second,82,geizig,IAT_yellow2.bmp,yellow,starting_melody,melody,starting,c,negative,positive,ES_green,1,c,584,1279554,1280055,1280256
11,second,83,feige,IAT_green3.bmp,green,ending_scream,scream,ending,c,negative,positive,ES_green,1,c,505,1281920,1282421,1282623
11,second,84,sanft,IAT_green4.bmp,green,ending_scream,scream,ending,m,positive,positive,ES_green,1,m,575,1284202,1284703,1284905
11,second,85,krank,IAT_red1.bmp,red,ending_melody,melody,ending,c,negative,negative,ES_green,1,c,640,1286553,1287055,1287256
11,second,86,kaputt,IAT_red4.bmp,red,ending_melody,melody,ending,c,negative,negative,ES_green,1,c,526,1288971,1289472,1289674
11,second,87,falsch,IAT_purple3.bmp,purple,starting_scream,scream,starting,c,negative,negative,ES_green,1,c,585,1291279,1291780,1291982
11,second,88,gesund,IAT_red2.bmp,red,ending_melody,melody,ending,m,positive,negative,ES_green,1,m,698,1293646,1294147,1294349
11,second,89,feige,IAT_red4.bmp,red,ending_melody,melody,ending,c,negative,negative,ES_green,1,c,678,1296115,1296616,1296817
11,second,90,falsch,IAT_yellow1.bmp,yellow,starting_melody,melody,starting,c,negative,positive,ES_green,1,c,644,1298596,1299097,1299299
11,second,91,geizig,IAT_purple2.bmp,purple,starting_scream,scream,starting,c,negative,negative,ES_green,1,c,630,1301026,1301527,1301729
11,second,92,brutal,IAT_yellow4.bmp,yellow,starting_melody,melody,starting,c,negative,positive,ES_green,1,c,514,1303445,1303947,1304149
11,second,93,krank,IAT_purple2.bmp,purple,starting_scream,scream,starting,c,negative,negative,ES_green,1,c,536,1305744,1306245,1306447
11,second,94,brutal,IAT_red2.bmp,red,ending_melody,melody,ending,c,negative,negative,ES_green,1,c,512,1308056,1308557,1308758
11,second,95,falsch,IAT_yellow4.bmp,yellow,starting_melody,melody,starting,c,negative,positive,ES_green,1,c,633,1310367,1310868,1311070
