subject_nr,block,trialnr,trial_target,trial_prime,prime_color,prime_role,prime_us,prime_relation,correct_response,target_valence,prime_valence,color_counter,correct_first_response,response_first_response,response_time_first_response,fixation_show,prime_show,target_show
47,first,0,witzig,IAT_yellow4.bmp,yellow,starting_scream,scream,starting,m,positive,negative,ES_red,1,m,774,4946095,4946596,4946798
47,first,1,gerecht,IAT_green1.bmp,green,ending_melody,melody,ending,m,positive,negative,ES_red,1,m,1131,4948650,4949151,4949353
47,first,2,schön,IAT_red1.bmp,red,ending_scream,scream,ending,m,positive,positive,ES_red,1,m,620,4951561,4952062,4952264
47,first,3,geizig,IAT_purple1.bmp,purple,starting_melody,melody,starting,c,negative,positive,ES_red,1,c,600,4953966,4954467,4954668
47,first,4,brutal,IAT_yellow4.bmp,yellow,starting_scream,scream,starting,c,negative,negative,ES_red,1,c,585,4956364,4956865,4957067
47,first,5,falsch,IAT_green3.bmp,green,ending_melody,melody,ending,c,negative,negative,ES_red,0,None,1500,4958756,4959257,4959459
47,first,6,witzig,IAT_yellow2.bmp,yellow,starting_scream,scream,starting,m,positive,negative,ES_red,1,m,604,4962537,4963038,4963240
47,first,7,feige,IAT_green2.bmp,green,ending_melody,melody,ending,c,negative,negative,ES_red,1,c,702,4964919,4965420,4965622
47,first,8,munter,IAT_purple3.bmp,purple,starting_melody,melody,starting,m,positive,positive,ES_red,1,m,619,4967402,4967903,4968105
47,first,9,human,IAT_yellow3.bmp,yellow,starting_scream,scream,starting,m,positive,negative,ES_red,1,m,600,4969805,4970306,4970508
47,first,10,geizig,IAT_red2.bmp,red,ending_scream,scream,ending,c,negative,positive,ES_red,1,c,673,4972180,4972681,4972883
47,first,11,gesund,IAT_green1.bmp,green,ending_melody,melody,ending,m,positive,negative,ES_red,1,m,545,4974658,4975160,4975362
47,first,12,streng,IAT_green1.bmp,green,ending_melody,melody,ending,c,negative,negative,ES_red,1,c,770,4976993,4977495,4977697
47,first,13,heiter,IAT_yellow1.bmp,yellow,starting_scream,scream,starting,m,positive,negative,ES_red,1,m,715,4979547,4980048,4980249
47,first,14,lästig,IAT_yellow4.bmp,yellow,starting_scream,scream,starting,c,negative,negative,ES_red,1,c,748,4982041,4982542,4982744
47,first,15,gierig,IAT_red3.bmp,red,ending_scream,scream,ending,c,negative,positive,ES_red,1,c,590,4984567,4985068,4985270
47,first,16,sozial,IAT_green3.bmp,green,ending_melody,melody,ending,m,positive,negative,ES_red,1,m,734,4986935,4987436,4987638
47,first,17,lustig,IAT_red3.bmp,red,ending_scream,scream,ending,m,positive,positive,ES_red,1,m,775,4989454,4989955,4990157
47,first,18,schön,IAT_red1.bmp,red,ending_scream,scream,ending,m,positive,positive,ES_red,1,m,477,4992007,4992508,4992711
47,first,19,lustig,IAT_red4.bmp,red,ending_scream,scream,ending,m,positive,positive,ES_red,1,m,505,4994283,4994784,4994986
47,first,20,gesund,IAT_red1.bmp,red,ending_scream,scream,ending,m,positive,positive,ES_red,1,m,605,4996567,4997068,4997270
47,first,21,sonnig,IAT_green1.bmp,green,ending_melody,melody,ending,m,positive,negative,ES_red,0,c,593,4998948,4999449,4999651
47,first,22,krank,IAT_yellow1.bmp,yellow,starting_scream,scream,starting,c,negative,negative,ES_red,1,c,544,5001846,5002347,5002548
47,first,23,brutal,IAT_red4.bmp,red,ending_scream,scream,ending,c,negative,positive,ES_red,1,c,502,5004175,5004676,5004878
47,first,24,gesund,IAT_red2.bmp,red,ending_scream,scream,ending,m,positive,positive,ES_red,1,m,585,5006459,5006960,5007162
47,first,25,morsch,IAT_green4.bmp,green,ending_melody,melody,ending,c,negative,negative,ES_red,1,c,616,5008828,5009329,5009531
47,first,26,kaputt,IAT_green3.bmp,green,ending_melody,melody,ending,c,negative,negative,ES_red,1,c,711,5011229,5011730,5011932
47,first,27,sanft,IAT_green3.bmp,green,ending_melody,melody,ending,m,positive,negative,ES_red,1,m,558,5013734,5014235,5014437
47,first,28,witzig,IAT_yellow3.bmp,yellow,starting_scream,scream,starting,m,positive,negative,ES_red,1,m,606,5016071,5016572,5016774
47,first,29,sonnig,IAT_purple2.bmp,purple,starting_melody,melody,starting,m,positive,positive,ES_red,1,m,686,5018471,5018972,5019174
47,first,30,schön,IAT_purple3.bmp,purple,starting_melody,melody,starting,m,positive,positive,ES_red,1,m,543,5020934,5021435,5021637
47,first,31,brutal,IAT_purple2.bmp,purple,starting_melody,melody,starting,c,negative,positive,ES_red,1,c,577,5023267,5023768,5023970
47,first,32,teuer,IAT_purple3.bmp,purple,starting_melody,melody,starting,c,negative,positive,ES_red,1,c,726,5025629,5026131,5026333
47,first,33,krank,IAT_red1.bmp,red,ending_scream,scream,ending,c,negative,positive,ES_red,1,c,738,5028130,5028631,5028833
47,first,34,einsam,IAT_yellow4.bmp,yellow,starting_scream,scream,starting,c,negative,negative,ES_red,1,c,894,5030647,5031148,5031349
47,first,35,human,IAT_red3.bmp,red,ending_scream,scream,ending,m,positive,positive,ES_red,1,m,612,5033328,5033830,5034032
47,first,36,lustig,IAT_yellow3.bmp,yellow,starting_scream,scream,starting,m,positive,negative,ES_red,1,m,590,5035719,5036220,5036422
47,first,37,streng,IAT_green2.bmp,green,ending_melody,melody,ending,c,negative,negative,ES_red,1,c,671,5038085,5038587,5038788
47,first,38,munter,IAT_red3.bmp,red,ending_scream,scream,ending,m,positive,positive,ES_red,1,m,563,5040545,5041047,5041248
47,first,39,lästig,IAT_purple4.bmp,purple,starting_melody,melody,starting,c,negative,positive,ES_red,1,c,846,5042886,5043387,5043589
47,first,40,sanft,IAT_green3.bmp,green,ending_melody,melody,ending,m,positive,negative,ES_red,1,m,613,5045519,5046020,5046222
47,first,41,gesund,IAT_yellow2.bmp,yellow,starting_scream,scream,starting,m,positive,negative,ES_red,1,m,978,5047906,5048407,5048609
47,first,42,witzig,IAT_purple1.bmp,purple,starting_melody,melody,starting,m,positive,positive,ES_red,1,m,924,5050665,5051166,5051368
47,first,43,heiter,IAT_green2.bmp,green,ending_melody,melody,ending,m,positive,negative,ES_red,1,m,606,5053367,5053868,5054069
47,first,44,geizig,IAT_green2.bmp,green,ending_melody,melody,ending,c,negative,negative,ES_red,1,c,680,5055804,5056305,5056507
47,first,45,ehrlich,IAT_red4.bmp,red,ending_scream,scream,ending,m,positive,positive,ES_red,1,m,820,5058256,5058757,5058959
47,first,46,heiter,IAT_red1.bmp,red,ending_scream,scream,ending,m,positive,positive,ES_red,1,m,622,5060854,5061355,5061557
47,first,47,morsch,IAT_red2.bmp,red,ending_scream,scream,ending,c,negative,positive,ES_red,1,c,646,5063262,5063763,5063965
47,first,48,munter,IAT_red3.bmp,red,ending_scream,scream,ending,m,positive,positive,ES_red,1,m,598,5065710,5066211,5066413
47,first,49,sonnig,IAT_purple3.bmp,purple,starting_melody,melody,starting,m,positive,positive,ES_red,1,m,698,5068090,5068591,5068793
47,first,50,ehrlich,IAT_green4.bmp,green,ending_melody,melody,ending,m,positive,negative,ES_red,1,m,695,5070573,5071074,5071276
47,first,51,gerecht,IAT_purple2.bmp,purple,starting_melody,melody,starting,m,positive,positive,ES_red,1,m,799,5073044,5073546,5073748
47,first,52,teuer,IAT_yellow2.bmp,yellow,starting_scream,scream,starting,c,negative,negative,ES_red,1,c,792,5075644,5076145,5076347
47,first,53,ehrlich,IAT_green4.bmp,green,ending_melody,melody,ending,m,positive,negative,ES_red,1,m,1109,5078223,5078724,5078926
47,first,54,sozial,IAT_purple4.bmp,purple,starting_melody,melody,starting,m,positive,positive,ES_red,1,m,788,5081120,5081621,5081823
47,first,55,falsch,IAT_yellow1.bmp,yellow,starting_scream,scream,starting,c,negative,negative,ES_red,1,c,815,5083700,5084201,5084403
47,first,56,sanft,IAT_purple3.bmp,purple,starting_melody,melody,starting,m,positive,positive,ES_red,1,m,567,5086318,5086819,5087020
47,first,57,human,IAT_green3.bmp,green,ending_melody,melody,ending,m,positive,negative,ES_red,1,m,602,5088665,5089167,5089369
47,first,58,teuer,IAT_green1.bmp,green,ending_melody,melody,ending,c,negative,negative,ES_red,0,m,860,5091064,5091565,5091767
47,first,59,falsch,IAT_purple2.bmp,purple,starting_melody,melody,starting,c,negative,positive,ES_red,1,c,773,5094206,5094708,5094910
47,first,60,lästig,IAT_green2.bmp,green,ending_melody,melody,ending,c,negative,negative,ES_red,1,c,890,5096762,5097263,5097465
47,first,61,munter,IAT_yellow1.bmp,yellow,starting_scream,scream,starting,m,positive,negative,ES_red,1,m,668,5099431,5099932,5100134
47,first,62,feige,IAT_red4.bmp,red,ending_scream,scream,ending,c,negative,positive,ES_red,1,c,850,5101874,5102375,5102577
47,first,63,schön,IAT_yellow3.bmp,yellow,starting_scream,scream,starting,m,positive,negative,ES_red,1,m,684,5104503,5105005,5105207
47,first,64,lustig,IAT_yellow4.bmp,yellow,starting_scream,scream,starting,m,positive,negative,ES_red,1,m,621,5106967,5107468,5107670
47,first,65,kaputt,IAT_purple3.bmp,purple,starting_melody,melody,starting,c,negative,positive,ES_red,1,c,846,5109366,5109867,5110069
47,first,66,sanft,IAT_yellow1.bmp,yellow,starting_scream,scream,starting,m,positive,negative,ES_red,1,m,834,5111986,5112487,5112689
47,first,67,morsch,IAT_purple2.bmp,purple,starting_melody,melody,starting,c,negative,positive,ES_red,1,c,608,5114595,5115096,5115298
47,first,68,gerecht,IAT_purple1.bmp,purple,starting_melody,melody,starting,m,positive,positive,ES_red,1,m,912,5116979,5117480,5117682
47,first,69,streng,IAT_red1.bmp,red,ending_scream,scream,ending,c,negative,positive,ES_red,1,c,626,5119682,5120183,5120385
47,first,70,sozial,IAT_purple1.bmp,purple,starting_melody,melody,starting,m,positive,positive,ES_red,1,m,551,5122109,5122610,5122812
47,first,71,gierig,IAT_yellow2.bmp,yellow,starting_scream,scream,starting,c,negative,negative,ES_red,1,c,586,5124458,5124959,5125161
47,first,72,geizig,IAT_red4.bmp,red,ending_scream,scream,ending,c,negative,positive,ES_red,1,c,665,5126826,5127328,5127530
47,first,73,streng,IAT_yellow2.bmp,yellow,starting_scream,scream,starting,c,negative,negative,ES_red,1,c,580,5129264,5129765,5129967
47,first,74,krank,IAT_green4.bmp,green,ending_melody,melody,ending,c,negative,negative,ES_red,1,c,615,5131628,5132129,5132331
47,first,75,heiter,IAT_green2.bmp,green,ending_melody,melody,ending,m,positive,negative,ES_red,1,m,603,5134025,5134526,5134727
47,first,76,lästig,IAT_red4.bmp,red,ending_scream,scream,ending,c,negative,positive,ES_red,1,c,692,5136431,5136932,5137134
47,first,77,feige,IAT_yellow3.bmp,yellow,starting_scream,scream,starting,c,negative,negative,ES_red,1,c,644,5138896,5139397,5139599
47,first,78,sozial,IAT_red2.bmp,red,ending_scream,scream,ending,m,positive,positive,ES_red,1,m,591,5141317,5141818,5142020
47,first,79,morsch,IAT_purple4.bmp,purple,starting_melody,melody,starting,c,negative,positive,ES_red,1,c,603,5143689,5144190,5144392
47,first,80,ehrlich,IAT_purple4.bmp,purple,starting_melody,melody,starting,m,positive,positive,ES_red,1,m,675,5146064,5146565,5146767
47,first,81,gerecht,IAT_yellow1.bmp,yellow,starting_scream,scream,starting,m,positive,negative,ES_red,1,m,892,5148519,5149020,5149222
47,first,82,sonnig,IAT_green1.bmp,green,ending_melody,melody,ending,m,positive,negative,ES_red,1,m,560,5151187,5151689,5151890
47,first,83,human,IAT_purple1.bmp,purple,starting_melody,melody,starting,m,positive,positive,ES_red,1,m,733,5153526,5154027,5154229
47,first,84,kaputt,IAT_green4.bmp,green,ending_melody,melody,ending,c,negative,negative,ES_red,1,c,589,5156039,5156540,5156742
47,first,85,gierig,IAT_purple1.bmp,purple,starting_melody,melody,starting,c,negative,positive,ES_red,1,c,665,5158411,5158912,5159114
47,first,86,einsam,IAT_yellow2.bmp,yellow,starting_scream,scream,starting,c,negative,negative,ES_red,1,c,992,5160851,5161352,5161554
47,first,87,gierig,IAT_yellow3.bmp,yellow,starting_scream,scream,starting,c,negative,negative,ES_red,1,c,563,5163631,5164133,5164335
47,first,88,kaputt,IAT_purple4.bmp,purple,starting_melody,melody,starting,c,negative,positive,ES_red,1,c,573,5165974,5166475,5166677
47,first,89,einsam,IAT_purple4.bmp,purple,starting_melody,melody,starting,c,negative,positive,ES_red,1,c,596,5168335,5168836,5169038
47,first,90,falsch,IAT_red3.bmp,red,ending_scream,scream,ending,c,negative,positive,ES_red,1,c,669,5170725,5171227,5171429
47,first,91,feige,IAT_red2.bmp,red,ending_scream,scream,ending,c,negative,positive,ES_red,1,c,588,5173176,5173677,5173879
47,first,92,teuer,IAT_purple2.bmp,purple,starting_melody,melody,starting,c,negative,positive,ES_red,1,c,1035,5175545,5176046,5176248
47,first,93,krank,IAT_red2.bmp,red,ending_scream,scream,ending,c,negative,positive,ES_red,1,c,534,5178365,5178866,5179068
47,first,94,einsam,IAT_green4.bmp,green,ending_melody,melody,ending,c,negative,negative,ES_red,1,c,795,5180678,5181179,5181381
47,first,95,brutal,IAT_yellow4.bmp,yellow,starting_scream,scream,starting,c,negative,negative,ES_red,1,c,704,5183281,5183782,5183984
47,second,0,gerecht,IAT_green1.bmp,green,ending_melody,melody,ending,m,positive,negative,ES_red,1,m,798,5214036,5214537,5214738
47,second,1,gesund,IAT_red1.bmp,red,ending_scream,scream,ending,m,positive,positive,ES_red,1,m,621,5216612,5217113,5217315
47,second,2,teuer,IAT_purple3.bmp,purple,starting_melody,melody,starting,c,negative,positive,ES_red,1,c,604,5219013,5219514,5219716
47,second,3,witzig,IAT_red1.bmp,red,ending_scream,scream,ending,m,positive,positive,ES_red,1,m,658,5221391,5221892,5222094
47,second,4,sozial,IAT_yellow2.bmp,yellow,starting_scream,scream,starting,m,positive,negative,ES_red,1,m,793,5223847,5224349,5224551
47,second,5,sonnig,IAT_green1.bmp,green,ending_melody,melody,ending,m,positive,negative,ES_red,1,m,555,5226422,5226923,5227125
47,second,6,human,IAT_yellow1.bmp,yellow,starting_scream,scream,starting,m,positive,negative,ES_red,1,m,635,5228775,5229276,5229477
47,second,7,gierig,IAT_yellow2.bmp,yellow,starting_scream,scream,starting,c,negative,negative,ES_red,1,c,572,5231189,5231690,5231892
47,second,8,ehrlich,IAT_purple1.bmp,purple,starting_melody,melody,starting,m,positive,positive,ES_red,1,m,669,5233539,5234041,5234243
47,second,9,schön,IAT_green3.bmp,green,ending_melody,melody,ending,m,positive,negative,ES_red,1,m,582,5235995,5236496,5236698
47,second,10,kaputt,IAT_purple4.bmp,purple,starting_melody,melody,starting,c,negative,positive,ES_red,1,c,635,5238358,5238859,5239061
47,second,11,krank,IAT_yellow1.bmp,yellow,starting_scream,scream,starting,c,negative,negative,ES_red,1,c,638,5240770,5241271,5241473
47,second,12,ehrlich,IAT_yellow1.bmp,yellow,starting_scream,scream,starting,m,positive,negative,ES_red,1,m,584,5243193,5243694,5243897
47,second,13,sonnig,IAT_green2.bmp,green,ending_melody,melody,ending,m,positive,negative,ES_red,1,m,933,5245563,5246065,5246267
47,second,14,teuer,IAT_red1.bmp,red,ending_scream,scream,ending,c,negative,positive,ES_red,1,c,1010,5248271,5248772,5248974
47,second,15,falsch,IAT_purple2.bmp,purple,starting_melody,melody,starting,c,negative,positive,ES_red,1,c,717,5251060,5251561,5251763
47,second,16,lästig,IAT_red4.bmp,red,ending_scream,scream,ending,c,negative,positive,ES_red,1,c,866,5253551,5254052,5254254
47,second,17,krank,IAT_red3.bmp,red,ending_scream,scream,ending,c,negative,positive,ES_red,1,c,719,5256192,5256694,5256896
47,second,18,lustig,IAT_red4.bmp,red,ending_scream,scream,ending,m,positive,positive,ES_red,1,m,545,5258687,5259188,5259390
47,second,19,sanft,IAT_purple3.bmp,purple,starting_melody,melody,starting,m,positive,positive,ES_red,1,m,688,5261025,5261526,5261728
47,second,20,witzig,IAT_green3.bmp,green,ending_melody,melody,ending,m,positive,negative,ES_red,1,m,1100,5263509,5264010,5264212
47,second,21,heiter,IAT_purple4.bmp,purple,starting_melody,melody,starting,m,positive,positive,ES_red,1,m,637,5266388,5266889,5267091
47,second,22,witzig,IAT_green1.bmp,green,ending_melody,melody,ending,m,positive,negative,ES_red,1,m,552,5268809,5269310,5269512
47,second,23,geizig,IAT_yellow3.bmp,yellow,starting_scream,scream,starting,c,negative,negative,ES_red,1,c,569,5271158,5271660,5271862
47,second,24,gierig,IAT_yellow4.bmp,yellow,starting_scream,scream,starting,c,negative,negative,ES_red,1,c,581,5273515,5274016,5274218
47,second,25,gesund,IAT_yellow1.bmp,yellow,starting_scream,scream,starting,m,positive,negative,ES_red,1,m,634,5275878,5276379,5276581
47,second,26,ehrlich,IAT_green1.bmp,green,ending_melody,melody,ending,m,positive,negative,ES_red,1,m,670,5278292,5278793,5278994
47,second,27,kaputt,IAT_purple4.bmp,purple,starting_melody,melody,starting,c,negative,positive,ES_red,1,c,693,5280748,5281249,5281451
47,second,28,morsch,IAT_yellow2.bmp,yellow,starting_scream,scream,starting,c,negative,negative,ES_red,1,c,637,5283220,5283721,5283923
47,second,29,brutal,IAT_purple1.bmp,purple,starting_melody,melody,starting,c,negative,positive,ES_red,1,c,605,5285651,5286152,5286354
47,second,30,sonnig,IAT_red3.bmp,red,ending_scream,scream,ending,m,positive,positive,ES_red,1,m,676,5288044,5288545,5288747
47,second,31,kaputt,IAT_yellow4.bmp,yellow,starting_scream,scream,starting,c,negative,negative,ES_red,1,c,650,5290502,5291003,5291205
47,second,32,teuer,IAT_green3.bmp,green,ending_melody,melody,ending,c,negative,negative,ES_red,1,c,747,5292933,5293434,5293636
47,second,33,streng,IAT_yellow3.bmp,yellow,starting_scream,scream,starting,c,negative,negative,ES_red,1,c,1172,5295469,5295970,5296172
47,second,34,lustig,IAT_green3.bmp,green,ending_melody,melody,ending,m,positive,negative,ES_red,1,m,587,5298423,5298924,5299125
47,second,35,munter,IAT_purple1.bmp,purple,starting_melody,melody,starting,m,positive,positive,ES_red,1,m,476,5300789,5301290,5301492
47,second,36,human,IAT_yellow2.bmp,yellow,starting_scream,scream,starting,m,positive,negative,ES_red,1,m,571,5303045,5303546,5303748
47,second,37,krank,IAT_purple3.bmp,purple,starting_melody,melody,starting,c,negative,positive,ES_red,1,c,544,5305392,5305893,5306095
47,second,38,gerecht,IAT_purple1.bmp,purple,starting_melody,melody,starting,m,positive,positive,ES_red,0,c,612,5307708,5308209,5308411
47,second,39,witzig,IAT_yellow1.bmp,yellow,starting_scream,scream,starting,m,positive,negative,ES_red,1,m,582,5310602,5311103,5311305
47,second,40,heiter,IAT_green4.bmp,green,ending_melody,melody,ending,m,positive,negative,ES_red,1,m,595,5312958,5313459,5313661
47,second,41,geizig,IAT_red2.bmp,red,ending_scream,scream,ending,c,negative,positive,ES_red,1,c,554,5315335,5315836,5316038
47,second,42,schön,IAT_purple4.bmp,purple,starting_melody,melody,starting,m,positive,positive,ES_red,0,c,654,5317666,5318167,5318369
47,second,43,munter,IAT_red3.bmp,red,ending_scream,scream,ending,m,positive,positive,ES_red,1,m,587,5320597,5321098,5321300
47,second,44,feige,IAT_red2.bmp,red,ending_scream,scream,ending,c,negative,positive,ES_red,1,c,671,5322977,5323478,5323680
47,second,45,lästig,IAT_green2.bmp,green,ending_melody,melody,ending,c,negative,negative,ES_red,1,c,794,5325430,5325931,5326133
47,second,46,brutal,IAT_yellow2.bmp,yellow,starting_scream,scream,starting,c,negative,negative,ES_red,1,c,790,5328009,5328511,5328713
47,second,47,schön,IAT_purple3.bmp,purple,starting_melody,melody,starting,m,positive,positive,ES_red,1,m,844,5330581,5331082,5331284
47,second,48,morsch,IAT_red2.bmp,red,ending_scream,scream,ending,c,negative,positive,ES_red,1,c,627,5333228,5333730,5333932
47,second,49,einsam,IAT_red2.bmp,red,ending_scream,scream,ending,c,negative,positive,ES_red,0,m,638,5335634,5336135,5336337
47,second,50,sozial,IAT_red1.bmp,red,ending_scream,scream,ending,m,positive,positive,ES_red,1,m,1057,5338559,5339060,5339262
47,second,51,kaputt,IAT_yellow4.bmp,yellow,starting_scream,scream,starting,c,negative,negative,ES_red,1,c,1454,5341394,5341895,5342097
47,second,52,einsam,IAT_green1.bmp,green,ending_melody,melody,ending,c,negative,negative,ES_red,1,c,671,5344625,5345126,5345328
47,second,53,gerecht,IAT_red2.bmp,red,ending_scream,scream,ending,m,positive,positive,ES_red,1,m,753,5347072,5347573,5347775
47,second,54,human,IAT_red3.bmp,red,ending_scream,scream,ending,m,positive,positive,ES_red,1,m,683,5349606,5350107,5350308
47,second,55,sanft,IAT_red1.bmp,red,ending_scream,scream,ending,m,positive,positive,ES_red,1,m,716,5352068,5352569,5352771
47,second,56,sozial,IAT_yellow3.bmp,yellow,starting_scream,scream,starting,m,positive,negative,ES_red,1,m,696,5354583,5355085,5355287
47,second,57,feige,IAT_purple2.bmp,purple,starting_melody,melody,starting,c,negative,positive,ES_red,1,c,645,5357067,5357568,5357770
47,second,58,einsam,IAT_red4.bmp,red,ending_scream,scream,ending,c,negative,positive,ES_red,1,c,801,5359487,5359988,5360190
47,second,59,munter,IAT_purple2.bmp,purple,starting_melody,melody,starting,m,positive,positive,ES_red,1,m,817,5362063,5362564,5362766
47,second,60,falsch,IAT_purple1.bmp,purple,starting_melody,melody,starting,c,negative,positive,ES_red,1,c,835,5364668,5365170,5365372
47,second,61,lustig,IAT_yellow3.bmp,yellow,starting_scream,scream,starting,m,positive,negative,ES_red,1,m,810,5367285,5367787,5367989
47,second,62,morsch,IAT_green2.bmp,green,ending_melody,melody,ending,c,negative,negative,ES_red,1,c,666,5369878,5370379,5370581
47,second,63,sanft,IAT_yellow4.bmp,yellow,starting_scream,scream,starting,m,positive,negative,ES_red,1,m,607,5372320,5372821,5373023
47,second,64,heiter,IAT_green3.bmp,green,ending_melody,melody,ending,m,positive,negative,ES_red,1,m,640,5374703,5375204,5375406
47,second,65,sonnig,IAT_red4.bmp,red,ending_scream,scream,ending,m,positive,positive,ES_red,1,m,692,5377131,5377632,5377834
47,second,66,feige,IAT_red4.bmp,red,ending_scream,scream,ending,c,negative,positive,ES_red,1,c,665,5379604,5380105,5380307
47,second,67,falsch,IAT_yellow2.bmp,yellow,starting_scream,scream,starting,c,negative,negative,ES_red,1,c,809,5382053,5382554,5382756
47,second,68,munter,IAT_yellow4.bmp,yellow,starting_scream,scream,starting,m,positive,negative,ES_red,1,m,618,5384645,5385146,5385347
47,second,69,brutal,IAT_green4.bmp,green,ending_melody,melody,ending,c,negative,negative,ES_red,1,c,845,5387041,5387542,5387744
47,second,70,geizig,IAT_green3.bmp,green,ending_melody,melody,ending,c,negative,negative,ES_red,1,c,863,5389663,5390164,5390366
47,second,71,lästig,IAT_green4.bmp,green,ending_melody,melody,ending,c,negative,negative,ES_red,0,None,1500,5392302,5392803,5393005
47,second,72,schön,IAT_purple2.bmp,purple,starting_melody,melody,starting,m,positive,positive,ES_red,1,m,557,5396080,5396581,5396783
47,second,73,einsam,IAT_green4.bmp,green,ending_melody,melody,ending,c,negative,negative,ES_red,1,c,638,5398431,5398932,5399134
47,second,74,gierig,IAT_red1.bmp,red,ending_scream,scream,ending,c,negative,positive,ES_red,1,c,712,5400870,5401371,5401573
47,second,75,falsch,IAT_purple4.bmp,purple,starting_melody,melody,starting,c,negative,positive,ES_red,1,c,749,5403361,5403863,5404064
47,second,76,teuer,IAT_yellow1.bmp,yellow,starting_scream,scream,starting,c,negative,negative,ES_red,1,c,700,5405889,5406391,5406593
47,second,77,lästig,IAT_yellow4.bmp,yellow,starting_scream,scream,starting,c,negative,negative,ES_red,0,m,956,5408370,5408871,5409073
47,second,78,streng,IAT_purple4.bmp,purple,starting_melody,melody,starting,c,negative,positive,ES_red,1,c,1059,5411610,5412111,5412313
47,second,79,human,IAT_purple1.bmp,purple,starting_melody,melody,starting,m,positive,positive,ES_red,1,m,595,5414442,5414943,5415145
47,second,80,krank,IAT_green2.bmp,green,ending_melody,melody,ending,c,negative,negative,ES_red,1,c,610,5416811,5417312,5417514
47,second,81,lustig,IAT_yellow3.bmp,yellow,starting_scream,scream,starting,m,positive,negative,ES_red,1,m,619,5419203,5419704,5419905
47,second,82,sanft,IAT_red2.bmp,red,ending_scream,scream,ending,m,positive,positive,ES_red,1,m,668,5421601,5422102,5422304
47,second,83,gierig,IAT_purple2.bmp,purple,starting_melody,melody,starting,c,negative,positive,ES_red,1,c,737,5424044,5424545,5424747
47,second,84,streng,IAT_purple2.bmp,purple,starting_melody,melody,starting,c,negative,positive,ES_red,1,c,636,5426560,5427061,5427263
47,second,85,ehrlich,IAT_purple3.bmp,purple,starting_melody,melody,starting,m,positive,positive,ES_red,1,m,648,5428980,5429481,5429683
47,second,86,morsch,IAT_green2.bmp,green,ending_melody,melody,ending,c,negative,negative,ES_red,1,c,670,5431422,5431923,5432125
47,second,87,gesund,IAT_green2.bmp,green,ending_melody,melody,ending,m,positive,negative,ES_red,1,m,796,5433873,5434374,5434576
47,second,88,heiter,IAT_yellow3.bmp,yellow,starting_scream,scream,starting,m,positive,negative,ES_red,1,m,751,5436462,5436964,5437165
47,second,89,gerecht,IAT_green4.bmp,green,ending_melody,melody,ending,m,positive,negative,ES_red,1,m,886,5438998,5439500,5439702
47,second,90,brutal,IAT_green4.bmp,green,ending_melody,melody,ending,c,negative,negative,ES_red,1,c,648,5441668,5442169,5442371
47,second,91,sozial,IAT_red3.bmp,red,ending_scream,scream,ending,m,positive,positive,ES_red,1,m,695,5444101,5444602,5444804
47,second,92,feige,IAT_green1.bmp,green,ending_melody,melody,ending,c,negative,negative,ES_red,1,c,1156,5446584,5447085,5447287
47,second,93,geizig,IAT_red3.bmp,red,ending_scream,scream,ending,c,negative,positive,ES_red,1,c,609,5449515,5450016,5450218
47,second,94,gesund,IAT_purple3.bmp,purple,starting_melody,melody,starting,m,positive,positive,ES_red,1,m,733,5451904,5452405,5452606
47,second,95,streng,IAT_red4.bmp,red,ending_scream,scream,ending,c,negative,positive,ES_red,1,c,700,5454432,5454933,5455135
