subject_nr,block,trialnr,trial_target,trial_prime,prime_color,prime_role,prime_us,prime_relation,correct_response,target_valence,prime_valence,color_counter,correct_first_response,response_first_response,response_time_first_response,fixation_show,prime_show,target_show
84,first,0,gesund,IAT_green2.bmp,green,starting_melody,melody,starting,m,positive,positive,ES_purple,1,m,596,919942,920444,920646
84,first,1,lustig,IAT_red3.bmp,red,starting_scream,scream,starting,m,positive,negative,ES_purple,1,m,577,922331,922832,923034
84,first,2,sanft,IAT_red2.bmp,red,starting_scream,scream,starting,m,positive,negative,ES_purple,1,m,604,924704,925205,925407
84,first,3,geizig,IAT_yellow4.bmp,yellow,ending_melody,melody,ending,c,negative,negative,ES_purple,1,c,697,927090,927591,927793
84,first,4,munter,IAT_green3.bmp,green,starting_melody,melody,starting,m,positive,positive,ES_purple,1,m,855,929572,930073,930275
84,first,5,schön,IAT_red4.bmp,red,starting_scream,scream,starting,m,positive,negative,ES_purple,1,m,632,932211,932712,932914
84,first,6,sonnig,IAT_red4.bmp,red,starting_scream,scream,starting,m,positive,negative,ES_purple,1,m,542,934621,935122,935324
84,first,7,kaputt,IAT_yellow3.bmp,yellow,ending_melody,melody,ending,c,negative,negative,ES_purple,1,c,599,936963,937465,937667
84,first,8,sanft,IAT_yellow4.bmp,yellow,ending_melody,melody,ending,m,positive,negative,ES_purple,1,m,747,939362,939863,940064
84,first,9,falsch,IAT_yellow2.bmp,yellow,ending_melody,melody,ending,c,negative,negative,ES_purple,1,c,637,941887,942388,942590
84,first,10,einsam,IAT_green4.bmp,green,starting_melody,melody,starting,c,negative,positive,ES_purple,1,c,714,944305,944806,945008
84,first,11,geizig,IAT_yellow4.bmp,yellow,ending_melody,melody,ending,c,negative,negative,ES_purple,1,c,716,946799,947300,947502
84,first,12,teuer,IAT_purple1.bmp,purple,ending_scream,scream,ending,c,negative,positive,ES_purple,1,c,631,949348,949849,950051
84,first,13,brutal,IAT_green3.bmp,green,starting_melody,melody,starting,c,negative,positive,ES_purple,1,c,630,951781,952282,952484
84,first,14,gerecht,IAT_purple1.bmp,purple,ending_scream,scream,ending,m,positive,positive,ES_purple,1,m,768,954187,954688,954890
84,first,15,human,IAT_yellow3.bmp,yellow,ending_melody,melody,ending,m,positive,negative,ES_purple,1,m,701,956735,957236,957438
84,first,16,feige,IAT_purple1.bmp,purple,ending_scream,scream,ending,c,negative,positive,ES_purple,1,c,1176,959219,959720,959922
84,first,17,streng,IAT_green1.bmp,green,starting_melody,melody,starting,c,negative,positive,ES_purple,1,c,1188,962183,962684,962886
84,first,18,krank,IAT_red1.bmp,red,starting_scream,scream,starting,c,negative,negative,ES_purple,1,c,649,965154,965655,965857
84,first,19,geizig,IAT_green4.bmp,green,starting_melody,melody,starting,c,negative,positive,ES_purple,0,m,795,967633,968134,968335
84,first,20,teuer,IAT_red4.bmp,red,starting_scream,scream,starting,c,negative,negative,ES_purple,1,c,697,970707,971208,971409
84,first,21,streng,IAT_red2.bmp,red,starting_scream,scream,starting,c,negative,negative,ES_purple,1,c,566,973189,973690,973892
84,first,22,feige,IAT_purple2.bmp,purple,ending_scream,scream,ending,c,negative,positive,ES_purple,1,c,730,975538,976039,976240
84,first,23,schön,IAT_purple3.bmp,purple,ending_scream,scream,ending,m,positive,positive,ES_purple,1,m,619,978064,978565,978767
84,first,24,lustig,IAT_green3.bmp,green,starting_melody,melody,starting,m,positive,positive,ES_purple,1,m,638,980477,980978,981180
84,first,25,ehrlich,IAT_red3.bmp,red,starting_scream,scream,starting,m,positive,negative,ES_purple,1,m,703,982892,983393,983595
84,first,26,heiter,IAT_purple4.bmp,purple,ending_scream,scream,ending,m,positive,positive,ES_purple,1,m,905,985378,985879,986081
84,first,27,morsch,IAT_red3.bmp,red,starting_scream,scream,starting,c,negative,negative,ES_purple,1,c,767,988060,988561,988763
84,first,28,gesund,IAT_red2.bmp,red,starting_scream,scream,starting,m,positive,negative,ES_purple,1,m,618,990608,991109,991311
84,first,29,teuer,IAT_red1.bmp,red,starting_scream,scream,starting,c,negative,negative,ES_purple,1,c,911,993004,993505,993707
84,first,30,sanft,IAT_purple4.bmp,purple,ending_scream,scream,ending,m,positive,positive,ES_purple,1,m,712,995699,996200,996402
84,first,31,feige,IAT_green2.bmp,green,starting_melody,melody,starting,c,negative,positive,ES_purple,1,c,890,998193,998694,998896
84,first,32,sonnig,IAT_purple2.bmp,purple,ending_scream,scream,ending,m,positive,positive,ES_purple,1,m,620,1000863,1001364,1001566
84,first,33,witzig,IAT_purple3.bmp,purple,ending_scream,scream,ending,m,positive,positive,ES_purple,1,m,962,1003273,1003774,1003976
84,first,34,schön,IAT_yellow3.bmp,yellow,ending_melody,melody,ending,m,positive,negative,ES_purple,1,m,666,1006016,1006517,1006719
84,first,35,krank,IAT_green4.bmp,green,starting_melody,melody,starting,c,negative,positive,ES_purple,1,c,558,1008460,1008961,1009163
84,first,36,sozial,IAT_yellow4.bmp,yellow,ending_melody,melody,ending,m,positive,negative,ES_purple,1,m,855,1010820,1011321,1011523
84,first,37,kaputt,IAT_purple4.bmp,purple,ending_scream,scream,ending,c,negative,positive,ES_purple,1,c,714,1013457,1013958,1014160
84,first,38,feige,IAT_red2.bmp,red,starting_scream,scream,starting,c,negative,negative,ES_purple,1,c,910,1015954,1016455,1016657
84,first,39,morsch,IAT_red4.bmp,red,starting_scream,scream,starting,c,negative,negative,ES_purple,1,c,741,1018662,1019163,1019365
84,first,40,ehrlich,IAT_green3.bmp,green,starting_melody,melody,starting,m,positive,positive,ES_purple,1,m,687,1021194,1021696,1021898
84,first,41,kaputt,IAT_yellow1.bmp,yellow,ending_melody,melody,ending,c,negative,negative,ES_purple,1,c,715,1023664,1024165,1024366
84,first,42,krank,IAT_red4.bmp,red,starting_scream,scream,starting,c,negative,negative,ES_purple,1,c,911,1026172,1026673,1026875
84,first,43,gerecht,IAT_green2.bmp,green,starting_melody,melody,starting,m,positive,positive,ES_purple,1,m,544,1028859,1029360,1029562
84,first,44,human,IAT_green1.bmp,green,starting_melody,melody,starting,m,positive,positive,ES_purple,1,m,731,1031200,1031701,1031903
84,first,45,gesund,IAT_green3.bmp,green,starting_melody,melody,starting,m,positive,positive,ES_purple,1,m,708,1033734,1034236,1034439
84,first,46,witzig,IAT_yellow3.bmp,yellow,ending_melody,melody,ending,m,positive,negative,ES_purple,1,m,806,1036228,1036729,1036931
84,first,47,sonnig,IAT_green4.bmp,green,starting_melody,melody,starting,m,positive,positive,ES_purple,1,m,537,1038817,1039318,1039520
84,first,48,sozial,IAT_red3.bmp,red,starting_scream,scream,starting,m,positive,negative,ES_purple,1,m,787,1041143,1041644,1041846
84,first,49,munter,IAT_green1.bmp,green,starting_melody,melody,starting,m,positive,positive,ES_purple,1,m,607,1043707,1044208,1044410
84,first,50,lästig,IAT_purple2.bmp,purple,ending_scream,scream,ending,c,negative,positive,ES_purple,1,c,794,1046098,1046599,1046800
84,first,51,brutal,IAT_purple2.bmp,purple,ending_scream,scream,ending,c,negative,positive,ES_purple,1,c,745,1048674,1049175,1049377
84,first,52,heiter,IAT_yellow1.bmp,yellow,ending_melody,melody,ending,m,positive,negative,ES_purple,1,m,650,1051201,1051702,1051903
84,first,53,falsch,IAT_red4.bmp,red,starting_scream,scream,starting,c,negative,negative,ES_purple,1,c,669,1053629,1054131,1054332
84,first,54,gierig,IAT_purple4.bmp,purple,ending_scream,scream,ending,c,negative,positive,ES_purple,1,c,1038,1056108,1056609,1056811
84,first,55,munter,IAT_red3.bmp,red,starting_scream,scream,starting,m,positive,negative,ES_purple,1,m,911,1058923,1059424,1059626
84,first,56,ehrlich,IAT_purple1.bmp,purple,ending_scream,scream,ending,m,positive,positive,ES_purple,1,m,605,1061614,1062115,1062317
84,first,57,witzig,IAT_red1.bmp,red,starting_scream,scream,starting,m,positive,negative,ES_purple,1,m,582,1064005,1064506,1064708
84,first,58,einsam,IAT_green4.bmp,green,starting_melody,melody,starting,c,negative,positive,ES_purple,1,c,695,1066372,1066873,1067075
84,first,59,schön,IAT_purple3.bmp,purple,ending_scream,scream,ending,m,positive,positive,ES_purple,1,m,657,1068873,1069374,1069576
84,first,60,heiter,IAT_yellow2.bmp,yellow,ending_melody,melody,ending,m,positive,negative,ES_purple,1,m,735,1071323,1071824,1072026
84,first,61,falsch,IAT_red2.bmp,red,starting_scream,scream,starting,c,negative,negative,ES_purple,1,c,673,1073865,1074366,1074568
84,first,62,einsam,IAT_yellow2.bmp,yellow,ending_melody,melody,ending,c,negative,negative,ES_purple,1,c,1310,1076317,1076818,1077019
84,first,63,human,IAT_green4.bmp,green,starting_melody,melody,starting,m,positive,positive,ES_purple,1,m,721,1079402,1079903,1080105
84,first,64,streng,IAT_purple3.bmp,purple,ending_scream,scream,ending,c,negative,positive,ES_purple,1,c,1156,1081911,1082412,1082614
84,first,65,heiter,IAT_purple2.bmp,purple,ending_scream,scream,ending,m,positive,positive,ES_purple,1,m,863,1084843,1085344,1085546
84,first,66,gierig,IAT_purple4.bmp,purple,ending_scream,scream,ending,c,negative,positive,ES_purple,1,c,734,1087484,1087985,1088187
84,first,67,lästig,IAT_yellow1.bmp,yellow,ending_melody,melody,ending,c,negative,negative,ES_purple,1,c,944,1089994,1090495,1090697
84,first,68,lustig,IAT_yellow3.bmp,yellow,ending_melody,melody,ending,m,positive,negative,ES_purple,1,m,975,1092732,1093233,1093434
84,first,69,gerecht,IAT_yellow2.bmp,yellow,ending_melody,melody,ending,m,positive,negative,ES_purple,1,m,749,1095485,1095986,1096188
84,first,70,sozial,IAT_red1.bmp,red,starting_scream,scream,starting,m,positive,negative,ES_purple,1,m,859,1098048,1098549,1098750
84,first,71,geizig,IAT_yellow2.bmp,yellow,ending_melody,melody,ending,c,negative,negative,ES_purple,1,c,1040,1100682,1101183,1101385
84,first,72,brutal,IAT_red3.bmp,red,starting_scream,scream,starting,c,negative,negative,ES_purple,1,c,688,1103498,1103999,1104201
84,first,73,human,IAT_yellow1.bmp,yellow,ending_melody,melody,ending,m,positive,negative,ES_purple,1,m,705,1105961,1106462,1106664
84,first,74,lästig,IAT_purple2.bmp,purple,ending_scream,scream,ending,c,negative,positive,ES_purple,1,c,803,1108455,1108956,1109158
84,first,75,krank,IAT_yellow4.bmp,yellow,ending_melody,melody,ending,c,negative,negative,ES_purple,1,c,648,1111044,1111545,1111746
84,first,76,sonnig,IAT_purple1.bmp,purple,ending_scream,scream,ending,m,positive,positive,ES_purple,1,m,648,1113473,1113974,1114176
84,first,77,gierig,IAT_green2.bmp,green,starting_melody,melody,starting,c,negative,positive,ES_purple,1,c,732,1115918,1116419,1116621
84,first,78,teuer,IAT_red2.bmp,red,starting_scream,scream,starting,c,negative,negative,ES_purple,1,c,700,1118430,1118931,1119133
84,first,79,gesund,IAT_red1.bmp,red,starting_scream,scream,starting,m,positive,negative,ES_purple,1,m,917,1120918,1121419,1121620
84,first,80,falsch,IAT_green2.bmp,green,starting_melody,melody,starting,c,negative,positive,ES_purple,1,c,867,1123639,1124140,1124342
84,first,81,morsch,IAT_green3.bmp,green,starting_melody,melody,starting,c,negative,positive,ES_purple,1,c,713,1126289,1126790,1126992
84,first,82,sanft,IAT_purple3.bmp,purple,ending_scream,scream,ending,m,positive,positive,ES_purple,0,c,941,1128781,1129282,1129484
84,first,83,lästig,IAT_yellow2.bmp,yellow,ending_melody,melody,ending,c,negative,negative,ES_purple,1,c,791,1132002,1132504,1132706
84,first,84,gerecht,IAT_yellow1.bmp,yellow,ending_melody,melody,ending,m,positive,negative,ES_purple,1,m,1073,1134585,1135086,1135288
84,first,85,ehrlich,IAT_green1.bmp,green,starting_melody,melody,starting,m,positive,positive,ES_purple,1,m,965,1137442,1137943,1138145
84,first,86,sozial,IAT_green1.bmp,green,starting_melody,melody,starting,m,positive,positive,ES_purple,1,m,1074,1140184,1140685,1140887
84,first,87,streng,IAT_yellow3.bmp,yellow,ending_melody,melody,ending,c,negative,negative,ES_purple,1,c,1471,1143035,1143536,1143738
84,first,88,munter,IAT_yellow1.bmp,yellow,ending_melody,melody,ending,m,positive,negative,ES_purple,1,m,751,1146282,1146783,1146985
84,first,89,brutal,IAT_purple3.bmp,purple,ending_scream,scream,ending,c,negative,positive,ES_purple,1,c,636,1148814,1149315,1149517
84,first,90,einsam,IAT_purple4.bmp,purple,ending_scream,scream,ending,c,negative,positive,ES_purple,1,c,812,1151230,1151731,1151933
84,first,91,gierig,IAT_yellow4.bmp,yellow,ending_melody,melody,ending,c,negative,negative,ES_purple,1,c,714,1153824,1154325,1154527
84,first,92,kaputt,IAT_green2.bmp,green,starting_melody,melody,starting,c,negative,positive,ES_purple,1,c,756,1156342,1156843,1157045
84,first,93,witzig,IAT_red1.bmp,red,starting_scream,scream,starting,m,positive,negative,ES_purple,1,m,1077,1158885,1159386,1159588
84,first,94,morsch,IAT_green1.bmp,green,starting_melody,melody,starting,c,negative,positive,ES_purple,1,c,1095,1161746,1162247,1162449
84,first,95,lustig,IAT_purple1.bmp,purple,ending_scream,scream,ending,m,positive,positive,ES_purple,1,m,885,1164627,1165129,1165331
84,second,0,gesund,IAT_green3.bmp,green,starting_melody,melody,starting,m,positive,positive,ES_purple,1,m,1266,1182583,1183084,1183286
84,second,1,streng,IAT_red2.bmp,red,starting_scream,scream,starting,c,negative,negative,ES_purple,1,c,1133,1185629,1186130,1186332
84,second,2,heiter,IAT_green2.bmp,green,starting_melody,melody,starting,m,positive,positive,ES_purple,1,m,946,1188552,1189053,1189255
84,second,3,sonnig,IAT_green1.bmp,green,starting_melody,melody,starting,m,positive,positive,ES_purple,1,m,1100,1191277,1191778,1191980
84,second,4,falsch,IAT_green2.bmp,green,starting_melody,melody,starting,c,negative,positive,ES_purple,1,c,539,1194158,1194659,1194861
84,second,5,ehrlich,IAT_green4.bmp,green,starting_melody,melody,starting,m,positive,positive,ES_purple,1,m,703,1196474,1196975,1197177
84,second,6,heiter,IAT_yellow3.bmp,yellow,ending_melody,melody,ending,m,positive,negative,ES_purple,1,m,639,1198954,1199455,1199657
84,second,7,kaputt,IAT_green1.bmp,green,starting_melody,melody,starting,c,negative,positive,ES_purple,1,c,650,1201376,1201877,1202079
84,second,8,witzig,IAT_red2.bmp,red,starting_scream,scream,starting,m,positive,negative,ES_purple,1,m,763,1203807,1204308,1204510
84,second,9,sozial,IAT_green1.bmp,green,starting_melody,melody,starting,m,positive,positive,ES_purple,1,m,727,1206355,1206856,1207058
84,second,10,munter,IAT_yellow4.bmp,yellow,ending_melody,melody,ending,m,positive,negative,ES_purple,1,m,1295,1208890,1209391,1209593
84,second,11,sozial,IAT_purple4.bmp,purple,ending_scream,scream,ending,m,positive,positive,ES_purple,0,c,1480,1211969,1212470,1212672
84,second,12,lustig,IAT_yellow3.bmp,yellow,ending_melody,melody,ending,m,positive,negative,ES_purple,1,m,828,1215725,1216226,1216428
84,second,13,heiter,IAT_yellow4.bmp,yellow,ending_melody,melody,ending,m,positive,negative,ES_purple,1,m,668,1218333,1218834,1219036
84,second,14,gesund,IAT_red1.bmp,red,starting_scream,scream,starting,m,positive,negative,ES_purple,1,m,586,1220784,1221285,1221487
84,second,15,teuer,IAT_yellow2.bmp,yellow,ending_melody,melody,ending,c,negative,negative,ES_purple,1,c,707,1223158,1223659,1223861
84,second,16,feige,IAT_green4.bmp,green,starting_melody,melody,starting,c,negative,positive,ES_purple,1,c,714,1225647,1226148,1226350
84,second,17,lustig,IAT_purple1.bmp,purple,ending_scream,scream,ending,m,positive,positive,ES_purple,1,m,1035,1228142,1228643,1228845
84,second,18,krank,IAT_yellow1.bmp,yellow,ending_melody,melody,ending,c,negative,negative,ES_purple,1,c,618,1230959,1231460,1231662
84,second,19,schön,IAT_green4.bmp,green,starting_melody,melody,starting,m,positive,positive,ES_purple,1,m,889,1233360,1233861,1234063
84,second,20,kaputt,IAT_purple2.bmp,purple,ending_scream,scream,ending,c,negative,positive,ES_purple,1,c,670,1236043,1236544,1236746
84,second,21,falsch,IAT_red4.bmp,red,starting_scream,scream,starting,c,negative,negative,ES_purple,1,c,1003,1238493,1238995,1239197
84,second,22,human,IAT_yellow3.bmp,yellow,ending_melody,melody,ending,m,positive,negative,ES_purple,1,m,1176,1241281,1241782,1241984
84,second,23,ehrlich,IAT_green2.bmp,green,starting_melody,melody,starting,m,positive,positive,ES_purple,1,m,954,1244271,1244772,1244974
84,second,24,lustig,IAT_red3.bmp,red,starting_scream,scream,starting,m,positive,negative,ES_purple,1,m,652,1247005,1247506,1247708
84,second,25,lästig,IAT_purple2.bmp,purple,ending_scream,scream,ending,c,negative,positive,ES_purple,1,c,781,1249437,1249938,1250139
84,second,26,heiter,IAT_purple3.bmp,purple,ending_scream,scream,ending,m,positive,positive,ES_purple,1,m,671,1251995,1252496,1252697
84,second,27,sanft,IAT_green1.bmp,green,starting_melody,melody,starting,m,positive,positive,ES_purple,1,m,988,1254445,1254946,1255148
84,second,28,schön,IAT_red2.bmp,red,starting_scream,scream,starting,m,positive,negative,ES_purple,1,m,937,1257216,1257717,1257919
84,second,29,gesund,IAT_red1.bmp,red,starting_scream,scream,starting,m,positive,negative,ES_purple,1,m,715,1259934,1260435,1260637
84,second,30,krank,IAT_red1.bmp,red,starting_scream,scream,starting,c,negative,negative,ES_purple,1,c,665,1262432,1262933,1263135
84,second,31,sonnig,IAT_yellow1.bmp,yellow,ending_melody,melody,ending,m,positive,negative,ES_purple,1,m,1011,1264871,1265372,1265573
84,second,32,gierig,IAT_green4.bmp,green,starting_melody,melody,starting,c,negative,positive,ES_purple,0,None,1500,1267670,1268171,1268373
84,second,33,einsam,IAT_red1.bmp,red,starting_scream,scream,starting,c,negative,negative,ES_purple,0,m,636,1271453,1271954,1272156
84,second,34,streng,IAT_purple1.bmp,purple,ending_scream,scream,ending,c,negative,positive,ES_purple,1,c,581,1274372,1274873,1275075
84,second,35,brutal,IAT_yellow2.bmp,yellow,ending_melody,melody,ending,c,negative,negative,ES_purple,1,c,538,1276736,1277237,1277438
84,second,36,feige,IAT_green2.bmp,green,starting_melody,melody,starting,c,negative,positive,ES_purple,1,c,668,1279069,1279570,1279772
84,second,37,sanft,IAT_red3.bmp,red,starting_scream,scream,starting,m,positive,negative,ES_purple,1,m,591,1281513,1282015,1282217
84,second,38,lustig,IAT_yellow1.bmp,yellow,ending_melody,melody,ending,m,positive,negative,ES_purple,1,m,526,1283883,1284384,1284586
84,second,39,geizig,IAT_red3.bmp,red,starting_scream,scream,starting,c,negative,negative,ES_purple,1,c,566,1286194,1286695,1286897
84,second,40,sanft,IAT_red3.bmp,red,starting_scream,scream,starting,m,positive,negative,ES_purple,1,m,528,1288536,1289037,1289239
84,second,41,gierig,IAT_red4.bmp,red,starting_scream,scream,starting,c,negative,negative,ES_purple,1,c,748,1290845,1291346,1291548
84,second,42,human,IAT_purple2.bmp,purple,ending_scream,scream,ending,m,positive,positive,ES_purple,1,m,517,1293380,1293881,1294083
84,second,43,sozial,IAT_yellow2.bmp,yellow,ending_melody,melody,ending,m,positive,negative,ES_purple,1,m,606,1295675,1296176,1296378
84,second,44,brutal,IAT_green4.bmp,green,starting_melody,melody,starting,c,negative,positive,ES_purple,1,c,621,1298076,1298577,1298779
84,second,45,krank,IAT_purple1.bmp,purple,ending_scream,scream,ending,c,negative,positive,ES_purple,1,c,672,1300488,1300989,1301191
84,second,46,einsam,IAT_red4.bmp,red,starting_scream,scream,starting,c,negative,negative,ES_purple,1,c,751,1302936,1303438,1303640
84,second,47,morsch,IAT_purple2.bmp,purple,ending_scream,scream,ending,c,negative,positive,ES_purple,1,c,665,1305487,1305988,1306190
84,second,48,brutal,IAT_yellow1.bmp,yellow,ending_melody,melody,ending,c,negative,negative,ES_purple,1,c,523,1307950,1308451,1308653
84,second,49,falsch,IAT_red3.bmp,red,starting_scream,scream,starting,c,negative,negative,ES_purple,1,c,629,1310276,1310777,1310979
84,second,50,schön,IAT_purple3.bmp,purple,ending_scream,scream,ending,m,positive,positive,ES_purple,1,m,527,1312682,1313183,1313385
84,second,51,einsam,IAT_purple4.bmp,purple,ending_scream,scream,ending,c,negative,positive,ES_purple,1,c,618,1314991,1315492,1315694
84,second,52,lästig,IAT_green4.bmp,green,starting_melody,melody,starting,c,negative,positive,ES_purple,1,c,857,1317391,1317892,1318094
84,second,53,gierig,IAT_yellow4.bmp,yellow,ending_melody,melody,ending,c,negative,negative,ES_purple,0,m,697,1320031,1320532,1320734
84,second,54,streng,IAT_yellow3.bmp,yellow,ending_melody,melody,ending,c,negative,negative,ES_purple,1,c,734,1323018,1323519,1323721
84,second,55,sonnig,IAT_purple2.bmp,purple,ending_scream,scream,ending,m,positive,positive,ES_purple,1,m,690,1325527,1326029,1326230
84,second,56,teuer,IAT_purple3.bmp,purple,ending_scream,scream,ending,c,negative,positive,ES_purple,0,m,961,1327992,1328493,1328695
84,second,57,lästig,IAT_purple4.bmp,purple,ending_scream,scream,ending,c,negative,positive,ES_purple,1,c,962,1331239,1331740,1331942
84,second,58,ehrlich,IAT_red4.bmp,red,starting_scream,scream,starting,m,positive,negative,ES_purple,1,m,685,1333979,1334480,1334682
84,second,59,feige,IAT_red2.bmp,red,starting_scream,scream,starting,c,negative,negative,ES_purple,1,c,743,1336465,1336966,1337168
84,second,60,geizig,IAT_yellow4.bmp,yellow,ending_melody,melody,ending,c,negative,negative,ES_purple,1,c,618,1338990,1339491,1339693
84,second,61,gerecht,IAT_purple4.bmp,purple,ending_scream,scream,ending,m,positive,positive,ES_purple,1,m,670,1341388,1341889,1342090
84,second,62,munter,IAT_red1.bmp,red,starting_scream,scream,starting,m,positive,negative,ES_purple,1,m,614,1343843,1344344,1344546
84,second,63,morsch,IAT_yellow2.bmp,yellow,ending_melody,melody,ending,c,negative,negative,ES_purple,1,c,617,1346256,1346757,1346959
84,second,64,geizig,IAT_purple4.bmp,purple,ending_scream,scream,ending,c,negative,positive,ES_purple,1,c,666,1348653,1349155,1349357
84,second,65,teuer,IAT_yellow2.bmp,yellow,ending_melody,melody,ending,c,negative,negative,ES_purple,1,c,600,1351104,1351605,1351807
84,second,66,witzig,IAT_yellow1.bmp,yellow,ending_melody,melody,ending,m,positive,negative,ES_purple,1,m,698,1353486,1353987,1354189
84,second,67,sanft,IAT_green1.bmp,green,starting_melody,melody,starting,m,positive,positive,ES_purple,1,m,696,1355968,1356469,1356671
84,second,68,gierig,IAT_green3.bmp,green,starting_melody,melody,starting,c,negative,positive,ES_purple,0,None,1500,1358453,1358954,1359156
84,second,69,brutal,IAT_red4.bmp,red,starting_scream,scream,starting,c,negative,negative,ES_purple,1,c,1103,1362249,1362750,1362952
84,second,70,gerecht,IAT_green3.bmp,green,starting_melody,melody,starting,m,positive,positive,ES_purple,1,m,756,1365140,1365641,1365843
84,second,71,sozial,IAT_purple3.bmp,purple,ending_scream,scream,ending,m,positive,positive,ES_purple,1,m,734,1367673,1368175,1368377
84,second,72,streng,IAT_green2.bmp,green,starting_melody,melody,starting,c,negative,positive,ES_purple,1,c,631,1370193,1370694,1370896
84,second,73,krank,IAT_green2.bmp,green,starting_melody,melody,starting,c,negative,positive,ES_purple,1,c,622,1372633,1373135,1373337
84,second,74,ehrlich,IAT_purple1.bmp,purple,ending_scream,scream,ending,m,positive,positive,ES_purple,1,m,597,1375059,1375560,1375762
84,second,75,kaputt,IAT_yellow4.bmp,yellow,ending_melody,melody,ending,c,negative,negative,ES_purple,1,c,747,1377454,1377955,1378157
84,second,76,geizig,IAT_yellow4.bmp,yellow,ending_melody,melody,ending,c,negative,negative,ES_purple,1,c,624,1379976,1380477,1380679
84,second,77,schön,IAT_green3.bmp,green,starting_melody,melody,starting,m,positive,positive,ES_purple,1,m,606,1382378,1382879,1383081
84,second,78,gerecht,IAT_purple1.bmp,purple,ending_scream,scream,ending,m,positive,positive,ES_purple,1,m,815,1384777,1385278,1385480
84,second,79,lästig,IAT_green1.bmp,green,starting_melody,melody,starting,c,negative,positive,ES_purple,1,c,1032,1387376,1387877,1388079
84,second,80,sonnig,IAT_purple1.bmp,purple,ending_scream,scream,ending,m,positive,positive,ES_purple,1,m,589,1390186,1390688,1390890
84,second,81,munter,IAT_red4.bmp,red,starting_scream,scream,starting,m,positive,negative,ES_purple,1,m,759,1392577,1393078,1393280
84,second,82,falsch,IAT_green3.bmp,green,starting_melody,melody,starting,c,negative,positive,ES_purple,1,c,747,1395117,1395618,1395820
84,second,83,witzig,IAT_yellow1.bmp,yellow,ending_melody,melody,ending,m,positive,negative,ES_purple,1,m,1339,1397645,1398146,1398348
84,second,84,morsch,IAT_red2.bmp,red,starting_scream,scream,starting,c,negative,negative,ES_purple,1,c,766,1400762,1401263,1401465
84,second,85,feige,IAT_purple3.bmp,purple,ending_scream,scream,ending,c,negative,positive,ES_purple,1,c,936,1403311,1403813,1404015
84,second,86,einsam,IAT_purple2.bmp,purple,ending_scream,scream,ending,c,negative,positive,ES_purple,1,c,754,1406022,1406523,1406725
84,second,87,human,IAT_red1.bmp,red,starting_scream,scream,starting,m,positive,negative,ES_purple,1,m,1095,1408561,1409062,1409264
84,second,88,gerecht,IAT_purple3.bmp,purple,ending_scream,scream,ending,m,positive,positive,ES_purple,1,m,810,1411437,1411939,1412141
84,second,89,human,IAT_yellow2.bmp,yellow,ending_melody,melody,ending,m,positive,negative,ES_purple,1,m,683,1414029,1414530,1414732
84,second,90,munter,IAT_green3.bmp,green,starting_melody,melody,starting,m,positive,positive,ES_purple,1,m,711,1416513,1417014,1417216
84,second,91,gesund,IAT_red3.bmp,red,starting_scream,scream,starting,m,positive,negative,ES_purple,1,m,659,1419014,1419515,1419716
84,second,92,teuer,IAT_yellow3.bmp,yellow,ending_melody,melody,ending,c,negative,negative,ES_purple,1,c,856,1421457,1421958,1422159
84,second,93,kaputt,IAT_red2.bmp,red,starting_scream,scream,starting,c,negative,negative,ES_purple,1,c,810,1424094,1424595,1424797
84,second,94,morsch,IAT_purple4.bmp,purple,ending_scream,scream,ending,c,negative,positive,ES_purple,1,c,669,1426714,1427215,1427417
84,second,95,witzig,IAT_yellow3.bmp,yellow,ending_melody,melody,ending,m,positive,negative,ES_purple,1,m,603,1429165,1429666,1429868
