subject_nr,block,trialnr,trial_target,trial_prime,prime_color,prime_role,prime_us,prime_relation,correct_response,target_valence,prime_valence,color_counter,correct_first_response,response_first_response,response_time_first_response,fixation_show,prime_show,target_show
36,first,0,krank,IAT_yellow4.bmp,yellow,ending_melody,melody,ending,c,negative,negative,ES_purple,1,c,742,951274,951775,951977
36,first,1,morsch,IAT_yellow2.bmp,yellow,ending_melody,melody,ending,c,negative,negative,ES_purple,1,c,609,953791,954292,954494
36,first,2,sanft,IAT_yellow3.bmp,yellow,ending_melody,melody,ending,m,positive,negative,ES_purple,1,m,523,956180,956682,956883
36,first,3,falsch,IAT_red1.bmp,red,starting_scream,scream,starting,c,negative,negative,ES_purple,1,c,582,958489,958990,959192
36,first,4,sozial,IAT_green1.bmp,green,starting_melody,melody,starting,m,positive,positive,ES_purple,0,c,584,960856,961357,961559
36,first,5,feige,IAT_green4.bmp,green,starting_melody,melody,starting,c,negative,positive,ES_purple,1,c,715,963718,964219,964420
36,first,6,lästig,IAT_red2.bmp,red,starting_scream,scream,starting,c,negative,negative,ES_purple,0,m,577,966208,966709,966910
36,first,7,sonnig,IAT_yellow3.bmp,yellow,ending_melody,melody,ending,m,positive,negative,ES_purple,1,m,623,969073,969574,969776
36,first,8,heiter,IAT_red4.bmp,red,starting_scream,scream,starting,m,positive,negative,ES_purple,1,m,665,971478,971979,972181
36,first,9,gesund,IAT_yellow3.bmp,yellow,ending_melody,melody,ending,m,positive,negative,ES_purple,1,m,638,973921,974422,974624
36,first,10,einsam,IAT_red2.bmp,red,starting_scream,scream,starting,c,negative,negative,ES_purple,1,c,1183,976353,976854,977056
36,first,11,sozial,IAT_purple1.bmp,purple,ending_scream,scream,ending,m,positive,positive,ES_purple,1,m,621,979316,979817,980018
36,first,12,brutal,IAT_red4.bmp,red,starting_scream,scream,starting,c,negative,negative,ES_purple,1,c,670,981714,982215,982417
36,first,13,streng,IAT_purple2.bmp,purple,ending_scream,scream,ending,c,negative,positive,ES_purple,1,c,643,984157,984658,984860
36,first,14,geizig,IAT_purple3.bmp,purple,ending_scream,scream,ending,c,negative,positive,ES_purple,1,c,719,986576,987077,987279
36,first,15,gerecht,IAT_yellow1.bmp,yellow,ending_melody,melody,ending,m,positive,negative,ES_purple,1,m,719,989072,989573,989775
36,first,16,sonnig,IAT_purple4.bmp,purple,ending_scream,scream,ending,m,positive,positive,ES_purple,1,m,692,991563,992064,992266
36,first,17,human,IAT_purple2.bmp,purple,ending_scream,scream,ending,m,positive,positive,ES_purple,1,m,726,994042,994543,994745
36,first,18,feige,IAT_purple4.bmp,purple,ending_scream,scream,ending,c,negative,positive,ES_purple,1,c,691,996541,997042,997244
36,first,19,gierig,IAT_red2.bmp,red,starting_scream,scream,starting,c,negative,negative,ES_purple,1,c,846,999026,999527,999729
36,first,20,ehrlich,IAT_green1.bmp,green,starting_melody,melody,starting,m,positive,positive,ES_purple,1,m,597,1001658,1002159,1002361
36,first,21,geizig,IAT_green4.bmp,green,starting_melody,melody,starting,c,negative,positive,ES_purple,1,c,842,1004038,1004539,1004740
36,first,22,heiter,IAT_red1.bmp,red,starting_scream,scream,starting,m,positive,negative,ES_purple,1,m,595,1006652,1007153,1007355
36,first,23,streng,IAT_green2.bmp,green,starting_melody,melody,starting,c,negative,positive,ES_purple,1,c,764,1009026,1009528,1009730
36,first,24,ehrlich,IAT_green4.bmp,green,starting_melody,melody,starting,m,positive,positive,ES_purple,1,m,594,1011566,1012067,1012269
36,first,25,witzig,IAT_green2.bmp,green,starting_melody,melody,starting,m,positive,positive,ES_purple,1,m,581,1013963,1014464,1014666
36,first,26,lustig,IAT_yellow3.bmp,yellow,ending_melody,melody,ending,m,positive,negative,ES_purple,1,m,580,1016330,1016832,1017034
36,first,27,einsam,IAT_green3.bmp,green,starting_melody,melody,starting,c,negative,positive,ES_purple,1,c,739,1018684,1019185,1019387
36,first,28,schön,IAT_yellow4.bmp,yellow,ending_melody,melody,ending,m,positive,negative,ES_purple,1,m,590,1021201,1021702,1021904
36,first,29,gierig,IAT_green3.bmp,green,starting_melody,melody,starting,c,negative,positive,ES_purple,1,c,895,1023567,1024068,1024270
36,first,30,gerecht,IAT_green3.bmp,green,starting_melody,melody,starting,m,positive,positive,ES_purple,1,m,638,1026240,1026741,1026943
36,first,31,einsam,IAT_yellow1.bmp,yellow,ending_melody,melody,ending,c,negative,negative,ES_purple,1,c,606,1028672,1029173,1029375
36,first,32,kaputt,IAT_red1.bmp,red,starting_scream,scream,starting,c,negative,negative,ES_purple,1,c,568,1031063,1031564,1031766
36,first,33,ehrlich,IAT_yellow2.bmp,yellow,ending_melody,melody,ending,m,positive,negative,ES_purple,1,m,750,1033408,1033909,1034111
36,first,34,teuer,IAT_green2.bmp,green,starting_melody,melody,starting,c,negative,positive,ES_purple,1,c,790,1035959,1036461,1036663
36,first,35,human,IAT_yellow2.bmp,yellow,ending_melody,melody,ending,m,positive,negative,ES_purple,1,m,574,1038544,1039045,1039247
36,first,36,heiter,IAT_purple4.bmp,purple,ending_scream,scream,ending,m,positive,positive,ES_purple,1,m,618,1040901,1041402,1041603
36,first,37,gesund,IAT_red1.bmp,red,starting_scream,scream,starting,m,positive,negative,ES_purple,1,m,587,1043299,1043800,1044002
36,first,38,munter,IAT_green1.bmp,green,starting_melody,melody,starting,m,positive,positive,ES_purple,1,m,827,1045683,1046184,1046386
36,first,39,schön,IAT_purple1.bmp,purple,ending_scream,scream,ending,m,positive,positive,ES_purple,1,m,555,1048291,1048792,1048994
36,first,40,sonnig,IAT_green1.bmp,green,starting_melody,melody,starting,m,positive,positive,ES_purple,1,m,512,1050638,1051139,1051341
36,first,41,kaputt,IAT_purple2.bmp,purple,ending_scream,scream,ending,c,negative,positive,ES_purple,1,c,554,1052932,1053433,1053635
36,first,42,lästig,IAT_purple4.bmp,purple,ending_scream,scream,ending,c,negative,positive,ES_purple,1,c,695,1055271,1055772,1055974
36,first,43,falsch,IAT_yellow2.bmp,yellow,ending_melody,melody,ending,c,negative,negative,ES_purple,1,c,657,1057741,1058242,1058444
36,first,44,teuer,IAT_green2.bmp,green,starting_melody,melody,starting,c,negative,positive,ES_purple,1,c,616,1060198,1060699,1060901
36,first,45,krank,IAT_yellow1.bmp,yellow,ending_melody,melody,ending,c,negative,negative,ES_purple,1,c,576,1062606,1063107,1063309
36,first,46,teuer,IAT_purple4.bmp,purple,ending_scream,scream,ending,c,negative,positive,ES_purple,1,c,637,1064961,1065462,1065664
36,first,47,schön,IAT_red2.bmp,red,starting_scream,scream,starting,m,positive,negative,ES_purple,1,m,542,1067375,1067876,1068078
36,first,48,morsch,IAT_purple3.bmp,purple,ending_scream,scream,ending,c,negative,positive,ES_purple,1,c,618,1069699,1070200,1070402
36,first,49,geizig,IAT_yellow3.bmp,yellow,ending_melody,melody,ending,c,negative,negative,ES_purple,1,c,598,1072103,1072604,1072806
36,first,50,gesund,IAT_purple1.bmp,purple,ending_scream,scream,ending,m,positive,positive,ES_purple,1,m,544,1074477,1074978,1075180
36,first,51,human,IAT_green3.bmp,green,starting_melody,melody,starting,m,positive,positive,ES_purple,1,m,533,1076808,1077309,1077511
36,first,52,gerecht,IAT_green3.bmp,green,starting_melody,melody,starting,m,positive,positive,ES_purple,1,m,603,1079121,1079622,1079824
36,first,53,heiter,IAT_red2.bmp,red,starting_scream,scream,starting,m,positive,negative,ES_purple,1,m,527,1081502,1082003,1082205
36,first,54,witzig,IAT_purple3.bmp,purple,ending_scream,scream,ending,m,positive,positive,ES_purple,1,m,611,1083818,1084319,1084521
36,first,55,lustig,IAT_yellow1.bmp,yellow,ending_melody,melody,ending,m,positive,negative,ES_purple,1,m,508,1086209,1086710,1086912
36,first,56,morsch,IAT_red2.bmp,red,starting_scream,scream,starting,c,negative,negative,ES_purple,1,c,530,1088491,1088992,1089194
36,first,57,schön,IAT_purple3.bmp,purple,ending_scream,scream,ending,m,positive,positive,ES_purple,1,m,622,1090799,1091300,1091502
36,first,58,sanft,IAT_red1.bmp,red,starting_scream,scream,starting,m,positive,negative,ES_purple,1,m,576,1093197,1093698,1093900
36,first,59,lustig,IAT_purple1.bmp,purple,ending_scream,scream,ending,m,positive,positive,ES_purple,1,m,582,1095558,1096059,1096261
36,first,60,feige,IAT_yellow4.bmp,yellow,ending_melody,melody,ending,c,negative,negative,ES_purple,1,c,785,1097915,1098416,1098618
36,first,61,sozial,IAT_purple3.bmp,purple,ending_scream,scream,ending,m,positive,positive,ES_purple,1,m,719,1100494,1100995,1101197
36,first,62,falsch,IAT_green1.bmp,green,starting_melody,melody,starting,c,negative,positive,ES_purple,1,c,641,1102988,1103489,1103691
36,first,63,gierig,IAT_green4.bmp,green,starting_melody,melody,starting,c,negative,positive,ES_purple,1,c,783,1105406,1105907,1106109
36,first,64,munter,IAT_yellow4.bmp,yellow,ending_melody,melody,ending,m,positive,negative,ES_purple,1,m,709,1107976,1108477,1108679
36,first,65,krank,IAT_yellow3.bmp,yellow,ending_melody,melody,ending,c,negative,negative,ES_purple,1,c,617,1110467,1110968,1111170
36,first,66,sozial,IAT_red1.bmp,red,starting_scream,scream,starting,m,positive,negative,ES_purple,1,m,585,1112867,1113368,1113570
36,first,67,witzig,IAT_red3.bmp,red,starting_scream,scream,starting,m,positive,negative,ES_purple,1,m,576,1115228,1115729,1115931
36,first,68,brutal,IAT_purple2.bmp,purple,ending_scream,scream,ending,c,negative,positive,ES_purple,1,c,571,1117585,1118087,1118289
36,first,69,streng,IAT_green1.bmp,green,starting_melody,melody,starting,c,negative,positive,ES_purple,1,c,562,1119931,1120432,1120634
36,first,70,lustig,IAT_yellow1.bmp,yellow,ending_melody,melody,ending,m,positive,negative,ES_purple,1,m,616,1122293,1122794,1122996
36,first,71,gierig,IAT_purple1.bmp,purple,ending_scream,scream,ending,c,negative,positive,ES_purple,1,c,603,1124690,1125191,1125393
36,first,72,kaputt,IAT_purple2.bmp,purple,ending_scream,scream,ending,c,negative,positive,ES_purple,1,c,576,1127084,1127585,1127787
36,first,73,krank,IAT_red4.bmp,red,starting_scream,scream,starting,c,negative,negative,ES_purple,1,c,575,1129437,1129938,1130140
36,first,74,sanft,IAT_red4.bmp,red,starting_scream,scream,starting,m,positive,negative,ES_purple,1,m,689,1131787,1132288,1132490
36,first,75,teuer,IAT_yellow2.bmp,yellow,ending_melody,melody,ending,c,negative,negative,ES_purple,1,c,643,1134250,1134751,1134953
36,first,76,lästig,IAT_purple4.bmp,purple,ending_scream,scream,ending,c,negative,positive,ES_purple,1,c,913,1136668,1137170,1137371
36,first,77,ehrlich,IAT_yellow1.bmp,yellow,ending_melody,melody,ending,m,positive,negative,ES_purple,1,m,569,1139364,1139865,1140067
36,first,78,brutal,IAT_red3.bmp,red,starting_scream,scream,starting,c,negative,negative,ES_purple,1,c,576,1141708,1142209,1142411
36,first,79,streng,IAT_green2.bmp,green,starting_melody,melody,starting,c,negative,positive,ES_purple,1,c,581,1144071,1144572,1144774
36,first,80,kaputt,IAT_green4.bmp,green,starting_melody,melody,starting,c,negative,positive,ES_purple,1,c,489,1146435,1146936,1147138
36,first,81,sonnig,IAT_red3.bmp,red,starting_scream,scream,starting,m,positive,negative,ES_purple,1,m,543,1148701,1149202,1149404
36,first,82,geizig,IAT_yellow2.bmp,yellow,ending_melody,melody,ending,c,negative,negative,ES_purple,1,c,744,1151029,1151530,1151732
36,first,83,brutal,IAT_red4.bmp,red,starting_scream,scream,starting,c,negative,negative,ES_purple,1,c,603,1153554,1154055,1154257
36,first,84,munter,IAT_purple2.bmp,purple,ending_scream,scream,ending,m,positive,positive,ES_purple,1,m,522,1155955,1156456,1156658
36,first,85,einsam,IAT_purple1.bmp,purple,ending_scream,scream,ending,c,negative,positive,ES_purple,1,c,727,1158261,1158762,1158964
36,first,86,gerecht,IAT_red3.bmp,red,starting_scream,scream,starting,m,positive,negative,ES_purple,1,m,566,1160774,1161275,1161477
36,first,87,lästig,IAT_yellow4.bmp,yellow,ending_melody,melody,ending,c,negative,negative,ES_purple,1,c,694,1163126,1163627,1163829
36,first,88,feige,IAT_yellow4.bmp,yellow,ending_melody,melody,ending,c,negative,negative,ES_purple,1,c,596,1165624,1166125,1166327
36,first,89,sanft,IAT_green4.bmp,green,starting_melody,melody,starting,m,positive,positive,ES_purple,1,m,542,1167998,1168499,1168701
36,first,90,witzig,IAT_green2.bmp,green,starting_melody,melody,starting,m,positive,positive,ES_purple,1,m,581,1170343,1170845,1171047
36,first,91,morsch,IAT_red4.bmp,red,starting_scream,scream,starting,c,negative,negative,ES_purple,1,c,562,1172714,1173215,1173417
36,first,92,munter,IAT_red3.bmp,red,starting_scream,scream,starting,m,positive,negative,ES_purple,1,m,895,1175069,1175570,1175772
36,first,93,human,IAT_green3.bmp,green,starting_melody,melody,starting,m,positive,positive,ES_purple,1,m,606,1177742,1178243,1178445
36,first,94,falsch,IAT_red3.bmp,red,starting_scream,scream,starting,c,negative,negative,ES_purple,1,c,603,1180129,1180630,1180832
36,first,95,gesund,IAT_purple3.bmp,purple,ending_scream,scream,ending,m,positive,positive,ES_purple,1,m,790,1182535,1183036,1183237
36,second,0,ehrlich,IAT_yellow1.bmp,yellow,ending_melody,melody,ending,m,positive,negative,ES_purple,1,m,604,1195584,1196085,1196287
36,second,1,witzig,IAT_yellow4.bmp,yellow,ending_melody,melody,ending,m,positive,negative,ES_purple,1,m,572,1197984,1198485,1198687
36,second,2,gesund,IAT_red2.bmp,red,starting_scream,scream,starting,m,positive,negative,ES_purple,1,m,541,1200334,1200836,1201038
36,second,3,falsch,IAT_red4.bmp,red,starting_scream,scream,starting,c,negative,negative,ES_purple,1,c,539,1202657,1203158,1203360
36,second,4,sanft,IAT_green1.bmp,green,starting_melody,melody,starting,m,positive,positive,ES_purple,1,m,572,1204977,1205478,1205679
36,second,5,munter,IAT_yellow1.bmp,yellow,ending_melody,melody,ending,m,positive,negative,ES_purple,1,m,629,1207335,1207836,1208038
36,second,6,brutal,IAT_yellow4.bmp,yellow,ending_melody,melody,ending,c,negative,negative,ES_purple,1,c,570,1209745,1210247,1210449
36,second,7,falsch,IAT_green4.bmp,green,starting_melody,melody,starting,c,negative,positive,ES_purple,1,c,593,1212091,1212592,1212794
36,second,8,morsch,IAT_red4.bmp,red,starting_scream,scream,starting,c,negative,negative,ES_purple,1,c,591,1214459,1214961,1215163
36,second,9,gesund,IAT_purple3.bmp,purple,ending_scream,scream,ending,m,positive,positive,ES_purple,1,m,589,1216829,1217331,1217533
36,second,10,teuer,IAT_green1.bmp,green,starting_melody,melody,starting,c,negative,positive,ES_purple,1,c,755,1219207,1219708,1219910
36,second,11,kaputt,IAT_red2.bmp,red,starting_scream,scream,starting,c,negative,negative,ES_purple,1,c,552,1221746,1222247,1222449
36,second,12,sozial,IAT_green2.bmp,green,starting_melody,melody,starting,m,positive,positive,ES_purple,1,m,670,1224092,1224593,1224795
36,second,13,brutal,IAT_purple3.bmp,purple,ending_scream,scream,ending,c,negative,positive,ES_purple,1,c,602,1226543,1227045,1227247
36,second,14,gierig,IAT_yellow2.bmp,yellow,ending_melody,melody,ending,c,negative,negative,ES_purple,1,c,670,1228924,1229425,1229627
36,second,15,streng,IAT_green4.bmp,green,starting_melody,melody,starting,c,negative,positive,ES_purple,1,c,603,1231375,1231876,1232078
36,second,16,heiter,IAT_red3.bmp,red,starting_scream,scream,starting,m,positive,negative,ES_purple,1,m,646,1233764,1234265,1234467
36,second,17,teuer,IAT_green2.bmp,green,starting_melody,melody,starting,c,negative,positive,ES_purple,1,c,673,1236184,1236685,1236887
36,second,18,human,IAT_green4.bmp,green,starting_melody,melody,starting,m,positive,positive,ES_purple,1,m,630,1238660,1239161,1239363
36,second,19,ehrlich,IAT_red2.bmp,red,starting_scream,scream,starting,m,positive,negative,ES_purple,1,m,557,1241069,1241570,1241772
36,second,20,streng,IAT_purple1.bmp,purple,ending_scream,scream,ending,c,negative,positive,ES_purple,1,c,589,1243405,1243906,1244108
36,second,21,einsam,IAT_red4.bmp,red,starting_scream,scream,starting,c,negative,negative,ES_purple,0,m,617,1245777,1246278,1246480
36,second,22,brutal,IAT_green2.bmp,green,starting_melody,melody,starting,c,negative,positive,ES_purple,1,c,613,1248678,1249179,1249380
36,second,23,gerecht,IAT_red1.bmp,red,starting_scream,scream,starting,m,positive,negative,ES_purple,1,m,971,1251086,1251587,1251789
36,second,24,human,IAT_yellow4.bmp,yellow,ending_melody,melody,ending,m,positive,negative,ES_purple,1,m,679,1253842,1254343,1254545
36,second,25,morsch,IAT_purple2.bmp,purple,ending_scream,scream,ending,c,negative,positive,ES_purple,1,c,701,1256317,1256818,1257020
36,second,26,sozial,IAT_red1.bmp,red,starting_scream,scream,starting,m,positive,negative,ES_purple,1,m,754,1258808,1259309,1259511
36,second,27,gerecht,IAT_red4.bmp,red,starting_scream,scream,starting,m,positive,negative,ES_purple,1,m,1366,1261348,1261849,1262051
36,second,28,human,IAT_purple3.bmp,purple,ending_scream,scream,ending,m,positive,positive,ES_purple,1,m,606,1264508,1265009,1265211
36,second,29,falsch,IAT_yellow4.bmp,yellow,ending_melody,melody,ending,c,negative,negative,ES_purple,1,c,652,1266893,1267394,1267596
36,second,30,geizig,IAT_yellow1.bmp,yellow,ending_melody,melody,ending,c,negative,negative,ES_purple,1,c,716,1269326,1269827,1270028
36,second,31,lustig,IAT_green3.bmp,green,starting_melody,melody,starting,m,positive,positive,ES_purple,1,m,591,1271818,1272319,1272521
36,second,32,einsam,IAT_purple4.bmp,purple,ending_scream,scream,ending,c,negative,positive,ES_purple,1,c,782,1274187,1274689,1274891
36,second,33,schön,IAT_red1.bmp,red,starting_scream,scream,starting,m,positive,negative,ES_purple,1,m,595,1276743,1277244,1277446
36,second,34,feige,IAT_red3.bmp,red,starting_scream,scream,starting,c,negative,negative,ES_purple,1,c,624,1279114,1279615,1279817
36,second,35,gerecht,IAT_red4.bmp,red,starting_scream,scream,starting,m,positive,negative,ES_purple,1,m,657,1281512,1282013,1282215
36,second,36,gierig,IAT_purple4.bmp,purple,ending_scream,scream,ending,c,negative,positive,ES_purple,1,c,831,1283947,1284448,1284649
36,second,37,kaputt,IAT_purple1.bmp,purple,ending_scream,scream,ending,c,negative,positive,ES_purple,1,c,547,1286566,1287067,1287269
36,second,38,munter,IAT_purple1.bmp,purple,ending_scream,scream,ending,m,positive,positive,ES_purple,1,m,813,1288892,1289393,1289595
36,second,39,gerecht,IAT_purple4.bmp,purple,ending_scream,scream,ending,m,positive,positive,ES_purple,1,m,725,1291477,1291978,1292180
36,second,40,sonnig,IAT_purple2.bmp,purple,ending_scream,scream,ending,m,positive,positive,ES_purple,1,m,553,1293985,1294486,1294688
36,second,41,lästig,IAT_yellow4.bmp,yellow,ending_melody,melody,ending,c,negative,negative,ES_purple,1,c,831,1296332,1296833,1297034
36,second,42,sanft,IAT_purple1.bmp,purple,ending_scream,scream,ending,m,positive,positive,ES_purple,1,m,715,1298942,1299443,1299645
36,second,43,ehrlich,IAT_green3.bmp,green,starting_melody,melody,starting,m,positive,positive,ES_purple,1,m,629,1301444,1301945,1302147
36,second,44,feige,IAT_yellow4.bmp,yellow,ending_melody,melody,ending,c,negative,negative,ES_purple,1,c,617,1303856,1304357,1304559
36,second,45,lästig,IAT_yellow3.bmp,yellow,ending_melody,melody,ending,c,negative,negative,ES_purple,1,c,639,1306266,1306767,1306969
36,second,46,geizig,IAT_green3.bmp,green,starting_melody,melody,starting,c,negative,positive,ES_purple,1,c,987,1308687,1309189,1309390
36,second,47,teuer,IAT_green2.bmp,green,starting_melody,melody,starting,c,negative,positive,ES_purple,1,c,750,1311452,1311953,1312155
36,second,48,munter,IAT_yellow2.bmp,yellow,ending_melody,melody,ending,m,positive,negative,ES_purple,0,c,664,1314017,1314518,1314720
36,second,49,ehrlich,IAT_yellow2.bmp,yellow,ending_melody,melody,ending,m,positive,negative,ES_purple,1,m,581,1316964,1317465,1317667
36,second,50,krank,IAT_green4.bmp,green,starting_melody,melody,starting,c,negative,positive,ES_purple,1,c,608,1319321,1319822,1320024
36,second,51,sonnig,IAT_green1.bmp,green,starting_melody,melody,starting,m,positive,positive,ES_purple,1,m,621,1321708,1322209,1322412
36,second,52,lästig,IAT_yellow2.bmp,yellow,ending_melody,melody,ending,c,negative,negative,ES_purple,1,c,655,1324106,1324607,1324809
36,second,53,heiter,IAT_green1.bmp,green,starting_melody,melody,starting,m,positive,positive,ES_purple,1,m,783,1326540,1327041,1327243
36,second,54,gierig,IAT_purple4.bmp,purple,ending_scream,scream,ending,c,negative,positive,ES_purple,1,c,887,1329106,1329607,1329809
36,second,55,geizig,IAT_purple2.bmp,purple,ending_scream,scream,ending,c,negative,positive,ES_purple,1,c,846,1331787,1332288,1332489
36,second,56,sonnig,IAT_green1.bmp,green,starting_melody,melody,starting,m,positive,positive,ES_purple,1,m,611,1334405,1334906,1335108
36,second,57,gesund,IAT_yellow3.bmp,yellow,ending_melody,melody,ending,m,positive,negative,ES_purple,1,m,714,1336798,1337299,1337501
36,second,58,gierig,IAT_red4.bmp,red,starting_scream,scream,starting,c,negative,negative,ES_purple,1,c,672,1339288,1339789,1339992
36,second,59,sozial,IAT_purple1.bmp,purple,ending_scream,scream,ending,m,positive,positive,ES_purple,1,m,682,1341742,1342243,1342445
36,second,60,krank,IAT_green3.bmp,green,starting_melody,melody,starting,c,negative,positive,ES_purple,1,c,668,1344203,1344705,1344907
36,second,61,kaputt,IAT_yellow2.bmp,yellow,ending_melody,melody,ending,c,negative,negative,ES_purple,1,c,645,1346659,1347160,1347362
36,second,62,streng,IAT_red2.bmp,red,starting_scream,scream,starting,c,negative,negative,ES_purple,0,None,1500,1349090,1349591,1349793
36,second,63,morsch,IAT_red2.bmp,red,starting_scream,scream,starting,c,negative,negative,ES_purple,1,c,625,1352871,1353372,1353574
36,second,64,schön,IAT_purple3.bmp,purple,ending_scream,scream,ending,m,positive,positive,ES_purple,1,m,573,1355276,1355777,1355978
36,second,65,brutal,IAT_green2.bmp,green,starting_melody,melody,starting,c,negative,positive,ES_purple,1,c,642,1357621,1358123,1358325
36,second,66,gesund,IAT_yellow1.bmp,yellow,ending_melody,melody,ending,m,positive,negative,ES_purple,1,m,586,1360045,1360546,1360747
36,second,67,sanft,IAT_yellow3.bmp,yellow,ending_melody,melody,ending,m,positive,negative,ES_purple,1,m,672,1362424,1362925,1363126
36,second,68,schön,IAT_red3.bmp,red,starting_scream,scream,starting,m,positive,negative,ES_purple,1,m,571,1364876,1365377,1365579
36,second,69,falsch,IAT_red3.bmp,red,starting_scream,scream,starting,c,negative,negative,ES_purple,1,c,580,1367235,1367736,1367938
36,second,70,witzig,IAT_yellow3.bmp,yellow,ending_melody,melody,ending,m,positive,negative,ES_purple,1,m,556,1369595,1370096,1370298
36,second,71,heiter,IAT_red3.bmp,red,starting_scream,scream,starting,m,positive,negative,ES_purple,1,m,591,1371928,1372429,1372631
36,second,72,streng,IAT_yellow2.bmp,yellow,ending_melody,melody,ending,c,negative,negative,ES_purple,1,c,617,1374301,1374803,1375005
36,second,73,witzig,IAT_red3.bmp,red,starting_scream,scream,starting,m,positive,negative,ES_purple,1,m,686,1376712,1377213,1377415
36,second,74,krank,IAT_green4.bmp,green,starting_melody,melody,starting,c,negative,positive,ES_purple,0,m,580,1379202,1379704,1379906
36,second,75,feige,IAT_yellow3.bmp,yellow,ending_melody,melody,ending,c,negative,negative,ES_purple,1,c,665,1382062,1382563,1382765
36,second,76,kaputt,IAT_purple3.bmp,purple,ending_scream,scream,ending,c,negative,positive,ES_purple,1,c,611,1384516,1385017,1385219
36,second,77,munter,IAT_red1.bmp,red,starting_scream,scream,starting,m,positive,negative,ES_purple,1,m,703,1386904,1387405,1387607
36,second,78,sanft,IAT_purple2.bmp,purple,ending_scream,scream,ending,m,positive,positive,ES_purple,1,m,653,1389402,1389903,1390105
36,second,79,lästig,IAT_green1.bmp,green,starting_melody,melody,starting,c,negative,positive,ES_purple,1,c,789,1391825,1392326,1392528
36,second,80,lustig,IAT_purple4.bmp,purple,ending_scream,scream,ending,m,positive,positive,ES_purple,1,m,1051,1394395,1394896,1395098
36,second,81,sozial,IAT_green4.bmp,green,starting_melody,melody,starting,m,positive,positive,ES_purple,1,m,624,1397223,1397724,1397926
36,second,82,lustig,IAT_green2.bmp,green,starting_melody,melody,starting,m,positive,positive,ES_purple,1,m,578,1399621,1400122,1400324
36,second,83,human,IAT_green3.bmp,green,starting_melody,melody,starting,m,positive,positive,ES_purple,1,m,617,1401982,1402483,1402685
36,second,84,schön,IAT_yellow1.bmp,yellow,ending_melody,melody,ending,m,positive,negative,ES_purple,1,m,603,1404379,1404881,1405083
36,second,85,witzig,IAT_yellow3.bmp,yellow,ending_melody,melody,ending,m,positive,negative,ES_purple,1,m,642,1406772,1407273,1407475
36,second,86,heiter,IAT_green3.bmp,green,starting_melody,melody,starting,m,positive,positive,ES_purple,1,m,638,1409192,1409693,1409895
36,second,87,morsch,IAT_purple2.bmp,purple,ending_scream,scream,ending,c,negative,positive,ES_purple,1,c,617,1411613,1412114,1412316
36,second,88,geizig,IAT_red1.bmp,red,starting_scream,scream,starting,c,negative,negative,ES_purple,1,c,702,1414025,1414526,1414728
36,second,89,einsam,IAT_yellow1.bmp,yellow,ending_melody,melody,ending,c,negative,negative,ES_purple,1,c,748,1416507,1417008,1417210
36,second,90,feige,IAT_red1.bmp,red,starting_scream,scream,starting,c,negative,negative,ES_purple,1,c,852,1419043,1419544,1419746
36,second,91,teuer,IAT_purple2.bmp,purple,ending_scream,scream,ending,c,negative,positive,ES_purple,1,c,955,1421675,1422176,1422378
36,second,92,krank,IAT_purple4.bmp,purple,ending_scream,scream,ending,c,negative,positive,ES_purple,1,c,1027,1424435,1424936,1425138
36,second,93,lustig,IAT_purple1.bmp,purple,ending_scream,scream,ending,m,positive,positive,ES_purple,1,m,654,1427256,1427757,1427959
36,second,94,einsam,IAT_red2.bmp,red,starting_scream,scream,starting,c,negative,negative,ES_purple,1,c,672,1429686,1430187,1430389
36,second,95,sonnig,IAT_purple3.bmp,purple,ending_scream,scream,ending,m,positive,positive,ES_purple,1,m,594,1432149,1432650,1432852
