subject_nr,block,trialnr,trial_target,trial_prime,prime_color,prime_role,prime_us,prime_relation,correct_response,target_valence,prime_valence,color_counter,correct_first_response,response_first_response,response_time_first_response,fixation_show,prime_show,target_show
41,first,0,morsch,IAT_yellow2.bmp,yellow,ending_scream,scream,ending,c,negative,positive,ES_yellow,1,c,677,3356331,3356833,3357035
41,first,1,krank,IAT_red4.bmp,red,starting_melody,melody,starting,c,negative,positive,ES_yellow,1,c,636,3358789,3359290,3359492
41,first,2,gerecht,IAT_purple3.bmp,purple,ending_melody,melody,ending,m,positive,negative,ES_yellow,1,m,658,3361279,3361780,3361982
41,first,3,lästig,IAT_red2.bmp,red,starting_melody,melody,starting,c,negative,positive,ES_yellow,1,c,619,3363750,3364251,3364453
41,first,4,krank,IAT_red4.bmp,red,starting_melody,melody,starting,c,negative,positive,ES_yellow,1,c,640,3366143,3366645,3366847
41,first,5,einsam,IAT_green2.bmp,green,starting_scream,scream,starting,c,negative,negative,ES_yellow,1,c,922,3368566,3369067,3369269
41,first,6,gierig,IAT_purple3.bmp,purple,ending_melody,melody,ending,c,negative,negative,ES_yellow,1,c,782,3371266,3371767,3371969
41,first,7,feige,IAT_yellow4.bmp,yellow,ending_scream,scream,ending,c,negative,positive,ES_yellow,1,c,692,3373885,3374386,3374588
41,first,8,geizig,IAT_green3.bmp,green,starting_scream,scream,starting,c,negative,negative,ES_yellow,1,c,643,3376413,3376915,3377117
41,first,9,gierig,IAT_purple2.bmp,purple,ending_melody,melody,ending,c,negative,negative,ES_yellow,1,c,895,3378834,3379335,3379537
41,first,10,morsch,IAT_yellow4.bmp,yellow,ending_scream,scream,ending,c,negative,positive,ES_yellow,1,c,680,3381528,3382029,3382231
41,first,11,witzig,IAT_red1.bmp,red,starting_melody,melody,starting,m,positive,positive,ES_yellow,1,m,699,3384053,3384554,3384756
41,first,12,sanft,IAT_yellow1.bmp,yellow,ending_scream,scream,ending,m,positive,positive,ES_yellow,1,m,551,3386585,3387086,3387288
41,first,13,gerecht,IAT_yellow1.bmp,yellow,ending_scream,scream,ending,m,positive,positive,ES_yellow,1,m,526,3388914,3389415,3389617
41,first,14,geizig,IAT_green2.bmp,green,starting_scream,scream,starting,c,negative,negative,ES_yellow,0,m,527,3391217,3391719,3391921
41,first,15,einsam,IAT_green1.bmp,green,starting_scream,scream,starting,c,negative,negative,ES_yellow,1,c,1208,3394105,3394606,3394808
41,first,16,human,IAT_green2.bmp,green,starting_scream,scream,starting,m,positive,negative,ES_yellow,1,m,815,3397105,3397606,3397808
41,first,17,kaputt,IAT_yellow3.bmp,yellow,ending_scream,scream,ending,c,negative,positive,ES_yellow,1,c,763,3399733,3400234,3400436
41,first,18,munter,IAT_red1.bmp,red,starting_melody,melody,starting,m,positive,positive,ES_yellow,1,m,981,3402283,3402784,3402986
41,first,19,lästig,IAT_green4.bmp,green,starting_scream,scream,starting,c,negative,negative,ES_yellow,1,c,721,3405135,3405636,3405838
41,first,20,falsch,IAT_purple3.bmp,purple,ending_melody,melody,ending,c,negative,negative,ES_yellow,0,m,790,3407643,3408144,3408346
41,first,21,heiter,IAT_red4.bmp,red,starting_melody,melody,starting,m,positive,positive,ES_yellow,1,m,1231,3410738,3411239,3411441
41,first,22,munter,IAT_green4.bmp,green,starting_scream,scream,starting,m,positive,negative,ES_yellow,1,m,600,3413751,3414252,3414454
41,first,23,teuer,IAT_red3.bmp,red,starting_melody,melody,starting,c,negative,positive,ES_yellow,1,c,683,3416164,3416665,3416867
41,first,24,streng,IAT_purple4.bmp,purple,ending_melody,melody,ending,c,negative,negative,ES_yellow,1,c,668,3418707,3419208,3419410
41,first,25,krank,IAT_purple4.bmp,purple,ending_melody,melody,ending,c,negative,negative,ES_yellow,1,c,685,3421154,3421655,3421857
41,first,26,streng,IAT_red2.bmp,red,starting_melody,melody,starting,c,negative,positive,ES_yellow,1,c,603,3423620,3424121,3424323
41,first,27,gesund,IAT_green3.bmp,green,starting_scream,scream,starting,m,positive,negative,ES_yellow,1,m,692,3425996,3426497,3426699
41,first,28,sonnig,IAT_yellow3.bmp,yellow,ending_scream,scream,ending,m,positive,positive,ES_yellow,1,m,938,3428485,3428986,3429188
41,first,29,falsch,IAT_yellow4.bmp,yellow,ending_scream,scream,ending,c,negative,positive,ES_yellow,1,c,779,3431204,3431705,3431907
41,first,30,teuer,IAT_yellow1.bmp,yellow,ending_scream,scream,ending,c,negative,positive,ES_yellow,0,m,909,3433762,3434263,3434465
41,first,31,kaputt,IAT_red1.bmp,red,starting_melody,melody,starting,c,negative,positive,ES_yellow,0,None,1500,3436961,3437462,3437664
41,first,32,munter,IAT_green3.bmp,green,starting_scream,scream,starting,m,positive,negative,ES_yellow,1,m,566,3440745,3441246,3441448
41,first,33,witzig,IAT_purple1.bmp,purple,ending_melody,melody,ending,m,positive,negative,ES_yellow,1,m,776,3443159,3443660,3443862
41,first,34,sozial,IAT_green2.bmp,green,starting_scream,scream,starting,m,positive,negative,ES_yellow,1,m,840,3445719,3446220,3446422
41,first,35,morsch,IAT_green2.bmp,green,starting_scream,scream,starting,c,negative,negative,ES_yellow,1,c,664,3448343,3448844,3449046
41,first,36,kaputt,IAT_yellow2.bmp,yellow,ending_scream,scream,ending,c,negative,positive,ES_yellow,1,c,1033,3450838,3451339,3451541
41,first,37,ehrlich,IAT_purple4.bmp,purple,ending_melody,melody,ending,m,positive,negative,ES_yellow,1,m,740,3453675,3454176,3454378
41,first,38,streng,IAT_yellow4.bmp,yellow,ending_scream,scream,ending,c,negative,positive,ES_yellow,0,m,1150,3456209,3456710,3456912
41,first,39,sanft,IAT_yellow3.bmp,yellow,ending_scream,scream,ending,m,positive,positive,ES_yellow,1,m,789,3459642,3460143,3460345
41,first,40,schön,IAT_purple1.bmp,purple,ending_melody,melody,ending,m,positive,negative,ES_yellow,1,m,1117,3462210,3462711,3462913
41,first,41,human,IAT_green4.bmp,green,starting_scream,scream,starting,m,positive,negative,ES_yellow,1,m,662,3465193,3465694,3465896
41,first,42,sozial,IAT_yellow3.bmp,yellow,ending_scream,scream,ending,m,positive,positive,ES_yellow,1,m,718,3467713,3468214,3468416
41,first,43,teuer,IAT_red4.bmp,red,starting_melody,melody,starting,c,negative,positive,ES_yellow,1,c,730,3470517,3471018,3471220
41,first,44,heiter,IAT_red3.bmp,red,starting_melody,melody,starting,m,positive,positive,ES_yellow,1,m,713,3473030,3473531,3473733
41,first,45,kaputt,IAT_purple4.bmp,purple,ending_melody,melody,ending,c,negative,negative,ES_yellow,1,c,567,3475543,3476044,3476246
41,first,46,munter,IAT_red3.bmp,red,starting_melody,melody,starting,m,positive,positive,ES_yellow,1,m,687,3477888,3478389,3478591
41,first,47,witzig,IAT_purple1.bmp,purple,ending_melody,melody,ending,m,positive,negative,ES_yellow,1,m,555,3480356,3480857,3481059
41,first,48,lustig,IAT_purple2.bmp,purple,ending_melody,melody,ending,m,positive,negative,ES_yellow,1,m,530,3482701,3483202,3483404
41,first,49,einsam,IAT_green2.bmp,green,starting_scream,scream,starting,c,negative,negative,ES_yellow,0,m,603,3485011,3485513,3485715
41,first,50,gierig,IAT_green1.bmp,green,starting_scream,scream,starting,c,negative,negative,ES_yellow,1,c,1029,3487899,3488400,3488602
41,first,51,falsch,IAT_red4.bmp,red,starting_melody,melody,starting,c,negative,positive,ES_yellow,1,c,834,3490715,3491217,3491419
41,first,52,witzig,IAT_red3.bmp,red,starting_melody,melody,starting,m,positive,positive,ES_yellow,1,m,628,3493338,3493839,3494041
41,first,53,brutal,IAT_red2.bmp,red,starting_melody,melody,starting,c,negative,positive,ES_yellow,1,c,827,3495812,3496313,3496515
41,first,54,einsam,IAT_purple2.bmp,purple,ending_melody,melody,ending,c,negative,negative,ES_yellow,1,c,816,3498415,3498916,3499118
41,first,55,sozial,IAT_green1.bmp,green,starting_scream,scream,starting,m,positive,negative,ES_yellow,1,m,683,3501012,3501513,3501715
41,first,56,gerecht,IAT_purple3.bmp,purple,ending_melody,melody,ending,m,positive,negative,ES_yellow,1,m,975,3503552,3504053,3504255
41,first,57,brutal,IAT_purple4.bmp,purple,ending_melody,melody,ending,c,negative,negative,ES_yellow,1,c,911,3506303,3506804,3507006
41,first,58,streng,IAT_yellow2.bmp,yellow,ending_scream,scream,ending,c,negative,positive,ES_yellow,1,c,682,3508997,3509498,3509699
41,first,59,lustig,IAT_yellow4.bmp,yellow,ending_scream,scream,ending,m,positive,positive,ES_yellow,1,m,654,3511457,3511958,3512160
41,first,60,heiter,IAT_red2.bmp,red,starting_melody,melody,starting,m,positive,positive,ES_yellow,1,m,829,3513890,3514391,3514593
41,first,61,falsch,IAT_red2.bmp,red,starting_melody,melody,starting,c,negative,positive,ES_yellow,1,c,717,3516498,3516999,3517201
41,first,62,geizig,IAT_green3.bmp,green,starting_scream,scream,starting,c,negative,negative,ES_yellow,1,c,1309,3518994,3519495,3519697
41,first,63,feige,IAT_yellow3.bmp,yellow,ending_scream,scream,ending,c,negative,positive,ES_yellow,1,c,618,3522084,3522585,3522787
41,first,64,lustig,IAT_yellow1.bmp,yellow,ending_scream,scream,ending,m,positive,positive,ES_yellow,1,m,556,3524482,3524983,3525185
41,first,65,gerecht,IAT_purple3.bmp,purple,ending_melody,melody,ending,m,positive,negative,ES_yellow,1,m,653,3526816,3527318,3527520
41,first,66,teuer,IAT_yellow1.bmp,yellow,ending_scream,scream,ending,c,negative,positive,ES_yellow,1,c,603,3529251,3529753,3529955
41,first,67,sanft,IAT_red2.bmp,red,starting_melody,melody,starting,m,positive,positive,ES_yellow,1,m,600,3531639,3532140,3532342
41,first,68,sonnig,IAT_purple1.bmp,purple,ending_melody,melody,ending,m,positive,negative,ES_yellow,0,c,837,3534026,3534527,3534729
41,first,69,geizig,IAT_yellow2.bmp,yellow,ending_scream,scream,ending,c,negative,positive,ES_yellow,1,c,901,3537145,3537646,3537848
41,first,70,schön,IAT_green1.bmp,green,starting_scream,scream,starting,m,positive,negative,ES_yellow,1,m,646,3539847,3540349,3540551
41,first,71,ehrlich,IAT_purple4.bmp,purple,ending_melody,melody,ending,m,positive,negative,ES_yellow,1,m,655,3542271,3542772,3542974
41,first,72,lästig,IAT_purple1.bmp,purple,ending_melody,melody,ending,c,negative,negative,ES_yellow,1,c,784,3544702,3545203,3545405
41,first,73,gierig,IAT_purple2.bmp,purple,ending_melody,melody,ending,c,negative,negative,ES_yellow,1,c,1065,3547286,3547787,3547989
41,first,74,feige,IAT_purple2.bmp,purple,ending_melody,melody,ending,c,negative,negative,ES_yellow,1,c,655,3550128,3550629,3550831
41,first,75,human,IAT_green3.bmp,green,starting_scream,scream,starting,m,positive,negative,ES_yellow,1,m,651,3552562,3553063,3553265
41,first,76,krank,IAT_red3.bmp,red,starting_melody,melody,starting,c,negative,positive,ES_yellow,1,c,675,3555002,3555503,3555705
41,first,77,schön,IAT_red4.bmp,red,starting_melody,melody,starting,m,positive,positive,ES_yellow,1,m,717,3557520,3558021,3558223
41,first,78,ehrlich,IAT_purple3.bmp,purple,ending_melody,melody,ending,m,positive,negative,ES_yellow,1,m,635,3560098,3560599,3560801
41,first,79,lustig,IAT_green3.bmp,green,starting_scream,scream,starting,m,positive,negative,ES_yellow,1,m,602,3562515,3563016,3563218
41,first,80,feige,IAT_green4.bmp,green,starting_scream,scream,starting,c,negative,negative,ES_yellow,1,c,699,3564962,3565464,3565666
41,first,81,sanft,IAT_green1.bmp,green,starting_scream,scream,starting,m,positive,negative,ES_yellow,0,c,700,3567441,3567942,3568144
41,first,82,sozial,IAT_yellow2.bmp,yellow,ending_scream,scream,ending,m,positive,positive,ES_yellow,0,c,660,3570440,3570942,3571144
41,first,83,gesund,IAT_yellow4.bmp,yellow,ending_scream,scream,ending,m,positive,positive,ES_yellow,1,m,648,3573381,3573882,3574084
41,first,84,heiter,IAT_yellow1.bmp,yellow,ending_scream,scream,ending,m,positive,positive,ES_yellow,1,m,989,3575808,3576309,3576511
41,first,85,brutal,IAT_green4.bmp,green,starting_scream,scream,starting,c,negative,negative,ES_yellow,1,c,652,3578574,3579075,3579277
41,first,86,sonnig,IAT_red3.bmp,red,starting_melody,melody,starting,m,positive,positive,ES_yellow,1,m,1043,3581003,3581504,3581706
41,first,87,schön,IAT_yellow2.bmp,yellow,ending_scream,scream,ending,m,positive,positive,ES_yellow,1,m,543,3583822,3584323,3584525
41,first,88,morsch,IAT_green4.bmp,green,starting_scream,scream,starting,c,negative,negative,ES_yellow,1,c,879,3586142,3586643,3586845
41,first,89,gesund,IAT_red1.bmp,red,starting_melody,melody,starting,m,positive,positive,ES_yellow,1,m,795,3588802,3589303,3589505
41,first,90,brutal,IAT_purple1.bmp,purple,ending_melody,melody,ending,c,negative,negative,ES_yellow,1,c,729,3591379,3591881,3592082
41,first,91,human,IAT_red1.bmp,red,starting_melody,melody,starting,m,positive,positive,ES_yellow,1,m,791,3593893,3594394,3594596
41,first,92,gesund,IAT_yellow3.bmp,yellow,ending_scream,scream,ending,m,positive,positive,ES_yellow,1,m,560,3596460,3596961,3597163
41,first,93,sonnig,IAT_purple2.bmp,purple,ending_melody,melody,ending,m,positive,negative,ES_yellow,1,m,640,3598794,3599296,3599498
41,first,94,ehrlich,IAT_green1.bmp,green,starting_scream,scream,starting,m,positive,negative,ES_yellow,1,m,537,3601219,3601720,3601922
41,first,95,lästig,IAT_red1.bmp,red,starting_melody,melody,starting,c,negative,positive,ES_yellow,1,c,699,3603537,3604038,3604240
41,second,0,krank,IAT_red4.bmp,red,starting_melody,melody,starting,c,negative,positive,ES_yellow,1,c,851,3626376,3626877,3627079
41,second,1,sonnig,IAT_green4.bmp,green,starting_scream,scream,starting,m,positive,negative,ES_yellow,1,m,576,3629003,3629504,3629706
41,second,2,morsch,IAT_yellow4.bmp,yellow,ending_scream,scream,ending,c,negative,positive,ES_yellow,1,c,755,3631351,3631852,3632054
41,second,3,kaputt,IAT_purple1.bmp,purple,ending_melody,melody,ending,c,negative,negative,ES_yellow,1,c,619,3633887,3634389,3634591
41,second,4,lustig,IAT_yellow2.bmp,yellow,ending_scream,scream,ending,m,positive,positive,ES_yellow,1,m,527,3636300,3636801,3637003
41,second,5,falsch,IAT_purple4.bmp,purple,ending_melody,melody,ending,c,negative,negative,ES_yellow,1,c,511,3638604,3639105,3639307
41,second,6,einsam,IAT_yellow4.bmp,yellow,ending_scream,scream,ending,c,negative,positive,ES_yellow,1,c,1313,3640890,3641391,3641593
41,second,7,falsch,IAT_yellow2.bmp,yellow,ending_scream,scream,ending,c,negative,positive,ES_yellow,1,c,642,3643978,3644479,3644680
41,second,8,sanft,IAT_yellow4.bmp,yellow,ending_scream,scream,ending,m,positive,positive,ES_yellow,1,m,714,3646400,3646901,3647103
41,second,9,human,IAT_yellow1.bmp,yellow,ending_scream,scream,ending,m,positive,positive,ES_yellow,1,m,813,3648893,3649394,3649596
41,second,10,ehrlich,IAT_yellow4.bmp,yellow,ending_scream,scream,ending,m,positive,positive,ES_yellow,1,m,802,3651481,3651982,3652184
41,second,11,gierig,IAT_purple4.bmp,purple,ending_melody,melody,ending,c,negative,negative,ES_yellow,1,c,687,3654060,3654561,3654763
41,second,12,brutal,IAT_red2.bmp,red,starting_melody,melody,starting,c,negative,positive,ES_yellow,1,c,786,3656585,3657086,3657288
41,second,13,gierig,IAT_red4.bmp,red,starting_melody,melody,starting,c,negative,positive,ES_yellow,0,m,636,3659151,3659652,3659854
41,second,14,einsam,IAT_green4.bmp,green,starting_scream,scream,starting,c,negative,negative,ES_yellow,0,m,1099,3662063,3662564,3662766
41,second,15,human,IAT_red3.bmp,red,starting_melody,melody,starting,m,positive,positive,ES_yellow,1,m,789,3665445,3665947,3666148
41,second,16,munter,IAT_green3.bmp,green,starting_scream,scream,starting,m,positive,negative,ES_yellow,1,m,594,3668008,3668509,3668711
41,second,17,sozial,IAT_purple3.bmp,purple,ending_melody,melody,ending,m,positive,negative,ES_yellow,1,m,782,3670445,3670946,3671148
41,second,18,kaputt,IAT_red4.bmp,red,starting_melody,melody,starting,c,negative,positive,ES_yellow,1,c,1040,3673019,3673520,3673722
41,second,19,lästig,IAT_red3.bmp,red,starting_melody,melody,starting,c,negative,positive,ES_yellow,1,c,622,3675836,3676337,3676539
41,second,20,gesund,IAT_purple1.bmp,purple,ending_melody,melody,ending,m,positive,negative,ES_yellow,1,m,655,3678234,3678735,3678937
41,second,21,sozial,IAT_green2.bmp,green,starting_scream,scream,starting,m,positive,negative,ES_yellow,0,None,1500,3680667,3681168,3681370
41,second,22,heiter,IAT_red3.bmp,red,starting_melody,melody,starting,m,positive,positive,ES_yellow,1,m,608,3684473,3684974,3685176
41,second,23,witzig,IAT_purple3.bmp,purple,ending_melody,melody,ending,m,positive,negative,ES_yellow,1,m,578,3686903,3687405,3687607
41,second,24,feige,IAT_yellow3.bmp,yellow,ending_scream,scream,ending,c,negative,positive,ES_yellow,1,c,603,3689264,3689765,3689966
41,second,25,teuer,IAT_yellow4.bmp,yellow,ending_scream,scream,ending,c,negative,positive,ES_yellow,1,c,783,3691642,3692143,3692345
41,second,26,gierig,IAT_purple4.bmp,purple,ending_melody,melody,ending,c,negative,negative,ES_yellow,1,c,649,3694224,3694725,3694927
41,second,27,teuer,IAT_red4.bmp,red,starting_melody,melody,starting,c,negative,positive,ES_yellow,0,m,642,3696663,3697164,3697366
41,second,28,sanft,IAT_green1.bmp,green,starting_scream,scream,starting,m,positive,negative,ES_yellow,0,None,1500,3699602,3700103,3700305
41,second,29,heiter,IAT_purple4.bmp,purple,ending_melody,melody,ending,m,positive,negative,ES_yellow,1,m,654,3703386,3703888,3704090
41,second,30,morsch,IAT_purple2.bmp,purple,ending_melody,melody,ending,c,negative,negative,ES_yellow,1,c,653,3705837,3706338,3706540
41,second,31,munter,IAT_green1.bmp,green,starting_scream,scream,starting,m,positive,negative,ES_yellow,1,m,609,3708263,3708765,3708967
41,second,32,streng,IAT_green1.bmp,green,starting_scream,scream,starting,c,negative,negative,ES_yellow,1,c,1161,3710656,3711157,3711359
41,second,33,ehrlich,IAT_red1.bmp,red,starting_melody,melody,starting,m,positive,positive,ES_yellow,1,m,1050,3713598,3714100,3714302
41,second,34,gerecht,IAT_purple3.bmp,purple,ending_melody,melody,ending,m,positive,negative,ES_yellow,1,m,700,3716429,3716930,3717132
41,second,35,gesund,IAT_yellow3.bmp,yellow,ending_scream,scream,ending,m,positive,positive,ES_yellow,1,m,541,3718907,3719409,3719611
41,second,36,sozial,IAT_purple1.bmp,purple,ending_melody,melody,ending,m,positive,negative,ES_yellow,1,m,672,3721226,3721727,3721929
41,second,37,geizig,IAT_purple3.bmp,purple,ending_melody,melody,ending,c,negative,negative,ES_yellow,1,c,717,3723676,3724177,3724379
41,second,38,feige,IAT_green4.bmp,green,starting_scream,scream,starting,c,negative,negative,ES_yellow,1,c,655,3726170,3726671,3726873
41,second,39,kaputt,IAT_yellow1.bmp,yellow,ending_scream,scream,ending,c,negative,positive,ES_yellow,1,c,652,3728605,3729106,3729308
41,second,40,gerecht,IAT_red4.bmp,red,starting_melody,melody,starting,m,positive,positive,ES_yellow,1,m,1200,3731033,3731534,3731737
41,second,41,witzig,IAT_red1.bmp,red,starting_melody,melody,starting,m,positive,positive,ES_yellow,1,m,1137,3734008,3734510,3734712
41,second,42,sanft,IAT_yellow1.bmp,yellow,ending_scream,scream,ending,m,positive,positive,ES_yellow,1,m,772,3736933,3737434,3737636
41,second,43,sozial,IAT_red1.bmp,red,starting_melody,melody,starting,m,positive,positive,ES_yellow,1,m,887,3739490,3739991,3740193
41,second,44,einsam,IAT_purple3.bmp,purple,ending_melody,melody,ending,c,negative,negative,ES_yellow,0,m,608,3742169,3742670,3742872
41,second,45,brutal,IAT_green3.bmp,green,starting_scream,scream,starting,c,negative,negative,ES_yellow,1,c,707,3745062,3745563,3745765
41,second,46,heiter,IAT_red3.bmp,red,starting_melody,melody,starting,m,positive,positive,ES_yellow,1,m,602,3747551,3748052,3748254
41,second,47,teuer,IAT_red3.bmp,red,starting_melody,melody,starting,c,negative,positive,ES_yellow,1,c,877,3749932,3750433,3750635
41,second,48,schön,IAT_green3.bmp,green,starting_scream,scream,starting,m,positive,negative,ES_yellow,1,m,774,3752595,3753096,3753298
41,second,49,falsch,IAT_red1.bmp,red,starting_melody,melody,starting,c,negative,positive,ES_yellow,1,c,709,3755171,3755672,3755874
41,second,50,streng,IAT_red2.bmp,red,starting_melody,melody,starting,c,negative,positive,ES_yellow,0,m,634,3757663,3758164,3758366
41,second,51,morsch,IAT_green2.bmp,green,starting_scream,scream,starting,c,negative,negative,ES_yellow,1,c,838,3760579,3761080,3761282
41,second,52,heiter,IAT_yellow3.bmp,yellow,ending_scream,scream,ending,m,positive,positive,ES_yellow,1,m,676,3763204,3763706,3763908
41,second,53,gerecht,IAT_yellow2.bmp,yellow,ending_scream,scream,ending,m,positive,positive,ES_yellow,1,m,737,3765672,3766173,3766375
41,second,54,brutal,IAT_purple2.bmp,purple,ending_melody,melody,ending,c,negative,negative,ES_yellow,1,c,586,3768191,3768692,3768894
41,second,55,munter,IAT_yellow1.bmp,yellow,ending_scream,scream,ending,m,positive,positive,ES_yellow,1,m,728,3770560,3771061,3771263
41,second,56,gerecht,IAT_purple1.bmp,purple,ending_melody,melody,ending,m,positive,negative,ES_yellow,1,m,674,3773077,3773579,3773781
41,second,57,sonnig,IAT_purple2.bmp,purple,ending_melody,melody,ending,m,positive,negative,ES_yellow,1,m,558,3775531,3776032,3776234
41,second,58,schön,IAT_green3.bmp,green,starting_scream,scream,starting,m,positive,negative,ES_yellow,1,m,528,3777866,3778367,3778568
41,second,59,gesund,IAT_green2.bmp,green,starting_scream,scream,starting,m,positive,negative,ES_yellow,1,m,749,3780173,3780674,3780875
41,second,60,human,IAT_purple2.bmp,purple,ending_melody,melody,ending,m,positive,negative,ES_yellow,1,m,543,3782698,3783199,3783401
41,second,61,ehrlich,IAT_green3.bmp,green,starting_scream,scream,starting,m,positive,negative,ES_yellow,1,m,652,3785021,3785522,3785724
41,second,62,streng,IAT_yellow4.bmp,yellow,ending_scream,scream,ending,c,negative,positive,ES_yellow,1,c,719,3787481,3787982,3788184
41,second,63,geizig,IAT_green1.bmp,green,starting_scream,scream,starting,c,negative,negative,ES_yellow,1,c,989,3789978,3790480,3790682
41,second,64,morsch,IAT_red1.bmp,red,starting_melody,melody,starting,c,negative,positive,ES_yellow,1,c,783,3792746,3793247,3793449
41,second,65,lustig,IAT_green4.bmp,green,starting_scream,scream,starting,m,positive,negative,ES_yellow,1,m,993,3795304,3795805,3796007
41,second,66,sonnig,IAT_red4.bmp,red,starting_melody,melody,starting,m,positive,positive,ES_yellow,1,m,608,3798089,3798590,3798792
41,second,67,munter,IAT_red1.bmp,red,starting_melody,melody,starting,m,positive,positive,ES_yellow,1,m,540,3800477,3800978,3801180
41,second,68,feige,IAT_yellow2.bmp,yellow,ending_scream,scream,ending,c,negative,positive,ES_yellow,1,c,781,3802795,3803296,3803498
41,second,69,schön,IAT_yellow1.bmp,yellow,ending_scream,scream,ending,m,positive,positive,ES_yellow,1,m,1064,3805360,3805861,3806063
41,second,70,lästig,IAT_green2.bmp,green,starting_scream,scream,starting,c,negative,negative,ES_yellow,1,c,643,3808213,3808714,3808916
41,second,71,streng,IAT_purple2.bmp,purple,ending_melody,melody,ending,c,negative,negative,ES_yellow,1,c,829,3810652,3811153,3811355
41,second,72,lustig,IAT_yellow3.bmp,yellow,ending_scream,scream,ending,m,positive,positive,ES_yellow,1,m,1327,3813274,3813775,3813977
41,second,73,sonnig,IAT_yellow3.bmp,yellow,ending_scream,scream,ending,m,positive,positive,ES_yellow,1,m,603,3816382,3816883,3817085
41,second,74,feige,IAT_green4.bmp,green,starting_scream,scream,starting,c,negative,negative,ES_yellow,1,c,800,3818792,3819293,3819495
41,second,75,human,IAT_purple4.bmp,purple,ending_melody,melody,ending,m,positive,negative,ES_yellow,1,m,578,3821366,3821867,3822069
41,second,76,krank,IAT_yellow1.bmp,yellow,ending_scream,scream,ending,c,negative,positive,ES_yellow,1,c,571,3823725,3824226,3824428
41,second,77,gesund,IAT_green1.bmp,green,starting_scream,scream,starting,m,positive,negative,ES_yellow,1,m,783,3826074,3826575,3826777
41,second,78,ehrlich,IAT_purple1.bmp,purple,ending_melody,melody,ending,m,positive,negative,ES_yellow,1,m,581,3828628,3829129,3829331
41,second,79,witzig,IAT_red2.bmp,red,starting_melody,melody,starting,m,positive,positive,ES_yellow,1,m,521,3830992,3831493,3831695
41,second,80,einsam,IAT_red2.bmp,red,starting_melody,melody,starting,c,negative,positive,ES_yellow,0,m,715,3833293,3833794,3833996
41,second,81,lustig,IAT_red3.bmp,red,starting_melody,melody,starting,m,positive,positive,ES_yellow,1,m,754,3836294,3836795,3836997
41,second,82,falsch,IAT_purple4.bmp,purple,ending_melody,melody,ending,c,negative,negative,ES_yellow,1,c,591,3838824,3839325,3839527
41,second,83,lästig,IAT_green2.bmp,green,starting_scream,scream,starting,c,negative,negative,ES_yellow,1,c,830,3841193,3841694,3841896
41,second,84,geizig,IAT_purple2.bmp,purple,ending_melody,melody,ending,c,negative,negative,ES_yellow,1,c,690,3843799,3844300,3844501
41,second,85,gierig,IAT_yellow2.bmp,yellow,ending_scream,scream,ending,c,negative,positive,ES_yellow,1,c,819,3846277,3846778,3846980
41,second,86,brutal,IAT_green2.bmp,green,starting_scream,scream,starting,c,negative,negative,ES_yellow,1,c,815,3848871,3849373,3849575
41,second,87,teuer,IAT_red2.bmp,red,starting_melody,melody,starting,c,negative,positive,ES_yellow,1,c,726,3851473,3851974,3852176
41,second,88,sanft,IAT_green1.bmp,green,starting_scream,scream,starting,m,positive,negative,ES_yellow,1,m,639,3853976,3854477,3854679
41,second,89,geizig,IAT_yellow2.bmp,yellow,ending_scream,scream,ending,c,negative,positive,ES_yellow,1,c,700,3856395,3856896,3857098
41,second,90,witzig,IAT_purple3.bmp,purple,ending_melody,melody,ending,m,positive,negative,ES_yellow,1,m,823,3858880,3859381,3859583
41,second,91,krank,IAT_yellow3.bmp,yellow,ending_scream,scream,ending,c,negative,positive,ES_yellow,1,c,1221,3861475,3861976,3862178
41,second,92,kaputt,IAT_green4.bmp,green,starting_scream,scream,starting,c,negative,negative,ES_yellow,1,c,701,3864473,3864975,3865177
41,second,93,schön,IAT_red2.bmp,red,starting_melody,melody,starting,m,positive,positive,ES_yellow,1,m,748,3866970,3867472,3867674
41,second,94,lästig,IAT_purple1.bmp,purple,ending_melody,melody,ending,c,negative,negative,ES_yellow,1,c,737,3869494,3869995,3870197
41,second,95,krank,IAT_green3.bmp,green,starting_scream,scream,starting,c,negative,negative,ES_yellow,1,c,774,3872017,3872518,3872720
