subject_nr,block,trialnr,trial_target,trial_prime,prime_color,prime_role,prime_us,prime_relation,correct_response,target_valence,prime_valence,color_counter,correct_first_response,response_first_response,response_time_first_response,fixation_show,prime_show,target_show
59,first,0,einsam,IAT_yellow2.bmp,yellow,ending_melody,melody,ending,c,negative,negative,ES_purple,1,c,661,2132432,2132933,2133135
59,first,1,teuer,IAT_purple2.bmp,purple,ending_scream,scream,ending,c,negative,positive,ES_purple,1,c,505,2134877,2135378,2135579
59,first,2,lustig,IAT_green3.bmp,green,starting_melody,melody,starting,m,positive,positive,ES_purple,1,m,559,2137158,2137659,2137861
59,first,3,sanft,IAT_yellow2.bmp,yellow,ending_melody,melody,ending,m,positive,negative,ES_purple,1,m,631,2139502,2140003,2140205
59,first,4,witzig,IAT_purple4.bmp,purple,ending_scream,scream,ending,m,positive,positive,ES_purple,1,m,615,2141918,2142419,2142621
59,first,5,gierig,IAT_purple4.bmp,purple,ending_scream,scream,ending,c,negative,positive,ES_purple,1,c,1024,2144309,2144810,2145012
59,first,6,brutal,IAT_purple3.bmp,purple,ending_scream,scream,ending,c,negative,positive,ES_purple,1,c,538,2147115,2147616,2147818
59,first,7,kaputt,IAT_purple3.bmp,purple,ending_scream,scream,ending,c,negative,positive,ES_purple,1,c,589,2149432,2149933,2150135
59,first,8,human,IAT_red4.bmp,red,starting_scream,scream,starting,m,positive,negative,ES_purple,1,m,689,2151797,2152298,2152499
59,first,9,witzig,IAT_red4.bmp,red,starting_scream,scream,starting,m,positive,negative,ES_purple,1,m,799,2154262,2154763,2154965
59,first,10,schön,IAT_green3.bmp,green,starting_melody,melody,starting,m,positive,positive,ES_purple,1,m,591,2156837,2157339,2157541
59,first,11,falsch,IAT_green4.bmp,green,starting_melody,melody,starting,c,negative,positive,ES_purple,1,c,539,2159210,2159711,2159913
59,first,12,lästig,IAT_red4.bmp,red,starting_scream,scream,starting,c,negative,negative,ES_purple,1,c,754,2161522,2162023,2162225
59,first,13,streng,IAT_yellow1.bmp,yellow,ending_melody,melody,ending,c,negative,negative,ES_purple,1,c,577,2164068,2164569,2164771
59,first,14,witzig,IAT_green1.bmp,green,starting_melody,melody,starting,m,positive,positive,ES_purple,0,c,972,2166441,2166942,2167144
59,first,15,brutal,IAT_purple2.bmp,purple,ending_scream,scream,ending,c,negative,positive,ES_purple,1,c,594,2169699,2170200,2170402
59,first,16,krank,IAT_yellow2.bmp,yellow,ending_melody,melody,ending,c,negative,negative,ES_purple,1,c,617,2172076,2172577,2172779
59,first,17,human,IAT_purple1.bmp,purple,ending_scream,scream,ending,m,positive,positive,ES_purple,1,m,666,2174475,2174976,2175178
59,first,18,kaputt,IAT_purple1.bmp,purple,ending_scream,scream,ending,c,negative,positive,ES_purple,1,c,755,2176913,2177414,2177616
59,first,19,geizig,IAT_green3.bmp,green,starting_melody,melody,starting,c,negative,positive,ES_purple,1,c,707,2179474,2179975,2180176
59,first,20,heiter,IAT_green3.bmp,green,starting_melody,melody,starting,m,positive,positive,ES_purple,1,m,664,2181965,2182466,2182668
59,first,21,kaputt,IAT_green2.bmp,green,starting_melody,melody,starting,c,negative,positive,ES_purple,1,c,701,2184409,2184910,2185111
59,first,22,munter,IAT_purple3.bmp,purple,ending_scream,scream,ending,m,positive,positive,ES_purple,1,m,1322,2186891,2187392,2187594
59,first,23,krank,IAT_yellow4.bmp,yellow,ending_melody,melody,ending,c,negative,negative,ES_purple,1,c,719,2189989,2190491,2190693
59,first,24,schön,IAT_green1.bmp,green,starting_melody,melody,starting,m,positive,positive,ES_purple,1,m,688,2192485,2192986,2193188
59,first,25,sozial,IAT_red3.bmp,red,starting_scream,scream,starting,m,positive,negative,ES_purple,0,c,674,2194946,2195448,2195649
59,first,26,morsch,IAT_yellow3.bmp,yellow,ending_melody,melody,ending,c,negative,negative,ES_purple,1,c,779,2197914,2198415,2198617
59,first,27,ehrlich,IAT_yellow3.bmp,yellow,ending_melody,melody,ending,m,positive,negative,ES_purple,1,m,809,2200476,2200977,2201179
59,first,28,heiter,IAT_purple2.bmp,purple,ending_scream,scream,ending,m,positive,positive,ES_purple,1,m,668,2203065,2203566,2203768
59,first,29,krank,IAT_green1.bmp,green,starting_melody,melody,starting,c,negative,positive,ES_purple,1,c,643,2205506,2206007,2206209
59,first,30,kaputt,IAT_yellow4.bmp,yellow,ending_melody,melody,ending,c,negative,negative,ES_purple,1,c,956,2207928,2208429,2208631
59,first,31,gierig,IAT_red4.bmp,red,starting_scream,scream,starting,c,negative,negative,ES_purple,1,c,688,2210660,2211161,2211363
59,first,32,lustig,IAT_red1.bmp,red,starting_scream,scream,starting,m,positive,negative,ES_purple,1,m,624,2213124,2213625,2213827
59,first,33,heiter,IAT_purple3.bmp,purple,ending_scream,scream,ending,m,positive,positive,ES_purple,1,m,1308,2215545,2216046,2216248
59,first,34,lästig,IAT_purple2.bmp,purple,ending_scream,scream,ending,c,negative,positive,ES_purple,1,c,716,2218633,2219134,2219336
59,first,35,feige,IAT_purple4.bmp,purple,ending_scream,scream,ending,c,negative,positive,ES_purple,1,c,798,2221128,2221629,2221830
59,first,36,geizig,IAT_purple4.bmp,purple,ending_scream,scream,ending,c,negative,positive,ES_purple,1,c,589,2223703,2224204,2224406
59,first,37,munter,IAT_yellow1.bmp,yellow,ending_melody,melody,ending,m,positive,negative,ES_purple,1,m,617,2226075,2226577,2226778
59,first,38,streng,IAT_green4.bmp,green,starting_melody,melody,starting,c,negative,positive,ES_purple,0,m,1164,2228472,2228973,2229175
59,first,39,gierig,IAT_green2.bmp,green,starting_melody,melody,starting,c,negative,positive,ES_purple,1,c,565,2231919,2232420,2232622
59,first,40,falsch,IAT_green4.bmp,green,starting_melody,melody,starting,c,negative,positive,ES_purple,1,c,732,2234264,2234766,2234968
59,first,41,sonnig,IAT_purple3.bmp,purple,ending_scream,scream,ending,m,positive,positive,ES_purple,1,m,585,2236780,2237281,2237483
59,first,42,gerecht,IAT_red3.bmp,red,starting_scream,scream,starting,m,positive,negative,ES_purple,1,m,937,2239148,2239649,2239850
59,first,43,teuer,IAT_green4.bmp,green,starting_melody,melody,starting,c,negative,positive,ES_purple,1,c,815,2241861,2242362,2242564
59,first,44,falsch,IAT_yellow2.bmp,yellow,ending_melody,melody,ending,c,negative,negative,ES_purple,1,c,765,2244471,2244972,2245174
59,first,45,ehrlich,IAT_red2.bmp,red,starting_scream,scream,starting,m,positive,negative,ES_purple,1,m,822,2247037,2247539,2247741
59,first,46,sozial,IAT_purple1.bmp,purple,ending_scream,scream,ending,m,positive,positive,ES_purple,1,m,912,2249636,2250137,2250339
59,first,47,sanft,IAT_green4.bmp,green,starting_melody,melody,starting,m,positive,positive,ES_purple,1,m,555,2252331,2252832,2253033
59,first,48,gesund,IAT_red1.bmp,red,starting_scream,scream,starting,m,positive,negative,ES_purple,1,m,554,2254666,2255167,2255369
59,first,49,gierig,IAT_red4.bmp,red,starting_scream,scream,starting,c,negative,negative,ES_purple,1,c,697,2257003,2257504,2257706
59,first,50,munter,IAT_yellow1.bmp,yellow,ending_melody,melody,ending,m,positive,negative,ES_purple,1,m,687,2259476,2259978,2260180
59,first,51,falsch,IAT_red4.bmp,red,starting_scream,scream,starting,c,negative,negative,ES_purple,1,c,674,2261938,2262439,2262641
59,first,52,sanft,IAT_green3.bmp,green,starting_melody,melody,starting,m,positive,positive,ES_purple,1,m,556,2264392,2264893,2265095
59,first,53,streng,IAT_green3.bmp,green,starting_melody,melody,starting,c,negative,positive,ES_purple,1,c,703,2266725,2267226,2267428
59,first,54,ehrlich,IAT_purple3.bmp,purple,ending_scream,scream,ending,m,positive,positive,ES_purple,1,m,1114,2269210,2269711,2269913
59,first,55,lustig,IAT_yellow3.bmp,yellow,ending_melody,melody,ending,m,positive,negative,ES_purple,1,m,717,2272103,2272604,2272806
59,first,56,schön,IAT_red3.bmp,red,starting_scream,scream,starting,m,positive,negative,ES_purple,1,m,789,2274623,2275124,2275326
59,first,57,munter,IAT_yellow4.bmp,yellow,ending_melody,melody,ending,m,positive,negative,ES_purple,1,m,700,2277192,2277693,2277895
59,first,58,krank,IAT_red1.bmp,red,starting_scream,scream,starting,c,negative,negative,ES_purple,1,c,714,2279690,2280191,2280393
59,first,59,schön,IAT_green1.bmp,green,starting_melody,melody,starting,m,positive,positive,ES_purple,1,m,693,2282190,2282692,2282894
59,first,60,brutal,IAT_purple4.bmp,purple,ending_scream,scream,ending,c,negative,positive,ES_purple,1,c,623,2284661,2285162,2285364
59,first,61,sonnig,IAT_green2.bmp,green,starting_melody,melody,starting,m,positive,positive,ES_purple,1,m,555,2287065,2287566,2287768
59,first,62,lästig,IAT_purple2.bmp,purple,ending_scream,scream,ending,c,negative,positive,ES_purple,1,c,1077,2289407,2289908,2290110
59,first,63,human,IAT_purple4.bmp,purple,ending_scream,scream,ending,m,positive,positive,ES_purple,1,m,657,2292259,2292760,2292962
59,first,64,ehrlich,IAT_purple1.bmp,purple,ending_scream,scream,ending,m,positive,positive,ES_purple,1,m,1246,2294694,2295196,2295397
59,first,65,heiter,IAT_yellow4.bmp,yellow,ending_melody,melody,ending,m,positive,negative,ES_purple,1,m,673,2297716,2298217,2298418
59,first,66,einsam,IAT_purple1.bmp,purple,ending_scream,scream,ending,c,negative,positive,ES_purple,1,c,761,2300171,2300672,2300874
59,first,67,geizig,IAT_yellow2.bmp,yellow,ending_melody,melody,ending,c,negative,negative,ES_purple,1,c,659,2302703,2303205,2303407
59,first,68,einsam,IAT_green2.bmp,green,starting_melody,melody,starting,c,negative,positive,ES_purple,1,c,806,2305149,2305650,2305852
59,first,69,lustig,IAT_red1.bmp,red,starting_scream,scream,starting,m,positive,negative,ES_purple,1,m,1339,2307735,2308237,2308439
59,first,70,witzig,IAT_yellow3.bmp,yellow,ending_melody,melody,ending,m,positive,negative,ES_purple,1,m,691,2310880,2311381,2311583
59,first,71,sonnig,IAT_red3.bmp,red,starting_scream,scream,starting,m,positive,negative,ES_purple,1,m,728,2313372,2313873,2314074
59,first,72,teuer,IAT_yellow1.bmp,yellow,ending_melody,melody,ending,c,negative,negative,ES_purple,1,c,1030,2315884,2316385,2316587
59,first,73,geizig,IAT_red3.bmp,red,starting_scream,scream,starting,c,negative,negative,ES_purple,1,c,796,2318694,2319195,2319397
59,first,74,gesund,IAT_green2.bmp,green,starting_melody,melody,starting,m,positive,positive,ES_purple,1,m,561,2321266,2321767,2321969
59,first,75,feige,IAT_red3.bmp,red,starting_scream,scream,starting,c,negative,negative,ES_purple,1,c,812,2323607,2324108,2324310
59,first,76,human,IAT_purple2.bmp,purple,ending_scream,scream,ending,m,positive,positive,ES_purple,1,m,515,2326192,2326693,2326895
59,first,77,streng,IAT_red2.bmp,red,starting_scream,scream,starting,c,negative,negative,ES_purple,1,c,776,2328492,2328993,2329194
59,first,78,feige,IAT_red1.bmp,red,starting_scream,scream,starting,c,negative,negative,ES_purple,1,c,878,2331045,2331546,2331748
59,first,79,morsch,IAT_yellow4.bmp,yellow,ending_melody,melody,ending,c,negative,negative,ES_purple,1,c,1007,2333699,2334200,2334402
59,first,80,feige,IAT_green2.bmp,green,starting_melody,melody,starting,c,negative,positive,ES_purple,1,c,707,2336495,2336996,2337198
59,first,81,morsch,IAT_red2.bmp,red,starting_scream,scream,starting,c,negative,negative,ES_purple,1,c,796,2338983,2339484,2339686
59,first,82,lästig,IAT_red2.bmp,red,starting_scream,scream,starting,c,negative,negative,ES_purple,1,c,792,2341563,2342064,2342265
59,first,83,sonnig,IAT_yellow1.bmp,yellow,ending_melody,melody,ending,m,positive,negative,ES_purple,1,m,599,2344155,2344656,2344858
59,first,84,gerecht,IAT_green4.bmp,green,starting_melody,melody,starting,m,positive,positive,ES_purple,1,m,592,2346530,2347031,2347233
59,first,85,sozial,IAT_red2.bmp,red,starting_scream,scream,starting,m,positive,negative,ES_purple,1,m,635,2348899,2349400,2349602
59,first,86,gesund,IAT_red1.bmp,red,starting_scream,scream,starting,m,positive,negative,ES_purple,1,m,592,2351313,2351814,2352016
59,first,87,sanft,IAT_purple1.bmp,purple,ending_scream,scream,ending,m,positive,positive,ES_purple,1,m,617,2353688,2354189,2354391
59,first,88,teuer,IAT_green1.bmp,green,starting_melody,melody,starting,c,negative,positive,ES_purple,0,m,994,2356079,2356581,2356783
59,first,89,gerecht,IAT_green1.bmp,green,starting_melody,melody,starting,m,positive,positive,ES_purple,1,m,1013,2359357,2359858,2360060
59,first,90,sozial,IAT_yellow2.bmp,yellow,ending_melody,melody,ending,m,positive,negative,ES_purple,1,m,760,2362154,2362655,2362857
59,first,91,gesund,IAT_yellow3.bmp,yellow,ending_melody,melody,ending,m,positive,negative,ES_purple,1,m,712,2364697,2365198,2365400
59,first,92,einsam,IAT_yellow4.bmp,yellow,ending_melody,melody,ending,c,negative,negative,ES_purple,1,c,680,2367193,2367694,2367896
59,first,93,morsch,IAT_red2.bmp,red,starting_scream,scream,starting,c,negative,negative,ES_purple,1,c,701,2369652,2370153,2370355
59,first,94,brutal,IAT_yellow3.bmp,yellow,ending_melody,melody,ending,c,negative,negative,ES_purple,1,c,563,2372126,2372627,2372829
59,first,95,gerecht,IAT_yellow1.bmp,yellow,ending_melody,melody,ending,m,positive,negative,ES_purple,1,m,651,2374472,2374973,2375174
59,second,0,heiter,IAT_yellow4.bmp,yellow,ending_melody,melody,ending,m,positive,negative,ES_purple,1,m,1330,2391728,2392229,2392431
59,second,1,falsch,IAT_yellow4.bmp,yellow,ending_melody,melody,ending,c,negative,negative,ES_purple,1,c,625,2394832,2395333,2395535
59,second,2,feige,IAT_yellow4.bmp,yellow,ending_melody,melody,ending,c,negative,negative,ES_purple,1,c,607,2397234,2397735,2397937
59,second,3,sanft,IAT_yellow1.bmp,yellow,ending_melody,melody,ending,m,positive,negative,ES_purple,1,m,601,2399625,2400126,2400327
59,second,4,sonnig,IAT_red3.bmp,red,starting_scream,scream,starting,m,positive,negative,ES_purple,1,m,577,2402000,2402501,2402703
59,second,5,brutal,IAT_green2.bmp,green,starting_melody,melody,starting,c,negative,positive,ES_purple,1,c,714,2404359,2404860,2405062
59,second,6,gesund,IAT_yellow4.bmp,yellow,ending_melody,melody,ending,m,positive,negative,ES_purple,1,m,628,2406877,2407378,2407580
59,second,7,sozial,IAT_red3.bmp,red,starting_scream,scream,starting,m,positive,negative,ES_purple,1,m,780,2409286,2409787,2409989
59,second,8,krank,IAT_green1.bmp,green,starting_melody,melody,starting,c,negative,positive,ES_purple,1,c,689,2411840,2412341,2412543
59,second,9,munter,IAT_red1.bmp,red,starting_scream,scream,starting,m,positive,negative,ES_purple,1,m,800,2414305,2414806,2415008
59,second,10,teuer,IAT_purple2.bmp,purple,ending_scream,scream,ending,c,negative,positive,ES_purple,1,c,609,2416880,2417381,2417583
59,second,11,streng,IAT_red1.bmp,red,starting_scream,scream,starting,c,negative,negative,ES_purple,1,c,760,2419272,2419774,2419976
59,second,12,human,IAT_purple3.bmp,purple,ending_scream,scream,ending,m,positive,positive,ES_purple,1,m,695,2421817,2422319,2422521
59,second,13,kaputt,IAT_red4.bmp,red,starting_scream,scream,starting,c,negative,negative,ES_purple,1,c,706,2424303,2424804,2425006
59,second,14,sanft,IAT_red3.bmp,red,starting_scream,scream,starting,m,positive,negative,ES_purple,1,m,608,2426785,2427286,2427488
59,second,15,gierig,IAT_yellow1.bmp,yellow,ending_melody,melody,ending,c,negative,negative,ES_purple,1,c,615,2429177,2429679,2429881
59,second,16,gerecht,IAT_yellow1.bmp,yellow,ending_melody,melody,ending,m,positive,negative,ES_purple,1,m,971,2431575,2432076,2432277
59,second,17,ehrlich,IAT_purple3.bmp,purple,ending_scream,scream,ending,m,positive,positive,ES_purple,1,m,818,2434319,2434820,2435022
59,second,18,lustig,IAT_red4.bmp,red,starting_scream,scream,starting,m,positive,negative,ES_purple,1,m,780,2436918,2437419,2437620
59,second,19,witzig,IAT_purple1.bmp,purple,ending_scream,scream,ending,m,positive,positive,ES_purple,1,m,576,2439473,2439974,2440176
59,second,20,human,IAT_green1.bmp,green,starting_melody,melody,starting,m,positive,positive,ES_purple,1,m,621,2441827,2442328,2442530
59,second,21,sozial,IAT_yellow2.bmp,yellow,ending_melody,melody,ending,m,positive,negative,ES_purple,1,m,973,2444245,2444746,2444948
59,second,22,morsch,IAT_green1.bmp,green,starting_melody,melody,starting,c,negative,positive,ES_purple,1,c,665,2447000,2447501,2447703
59,second,23,einsam,IAT_purple4.bmp,purple,ending_scream,scream,ending,c,negative,positive,ES_purple,1,c,710,2449499,2450000,2450202
59,second,24,streng,IAT_purple1.bmp,purple,ending_scream,scream,ending,c,negative,positive,ES_purple,1,c,676,2451982,2452483,2452684
59,second,25,gerecht,IAT_green2.bmp,green,starting_melody,melody,starting,m,positive,positive,ES_purple,1,m,738,2454447,2454948,2455150
59,second,26,geizig,IAT_purple2.bmp,purple,ending_scream,scream,ending,c,negative,positive,ES_purple,1,c,862,2456962,2457463,2457665
59,second,27,morsch,IAT_red3.bmp,red,starting_scream,scream,starting,c,negative,negative,ES_purple,1,c,609,2459600,2460101,2460302
59,second,28,falsch,IAT_yellow2.bmp,yellow,ending_melody,melody,ending,c,negative,negative,ES_purple,1,c,583,2461995,2462496,2462697
59,second,29,feige,IAT_purple4.bmp,purple,ending_scream,scream,ending,c,negative,positive,ES_purple,1,c,728,2464360,2464862,2465064
59,second,30,lästig,IAT_red2.bmp,red,starting_scream,scream,starting,c,negative,negative,ES_purple,1,c,721,2466880,2467381,2467583
59,second,31,geizig,IAT_green2.bmp,green,starting_melody,melody,starting,c,negative,positive,ES_purple,1,c,701,2469380,2469881,2470083
59,second,32,sozial,IAT_purple3.bmp,purple,ending_scream,scream,ending,m,positive,positive,ES_purple,1,m,716,2471878,2472379,2472580
59,second,33,brutal,IAT_yellow2.bmp,yellow,ending_melody,melody,ending,c,negative,negative,ES_purple,1,c,680,2474376,2474877,2475079
59,second,34,ehrlich,IAT_purple3.bmp,purple,ending_scream,scream,ending,m,positive,positive,ES_purple,1,m,1030,2476842,2477343,2477545
59,second,35,sanft,IAT_green4.bmp,green,starting_melody,melody,starting,m,positive,positive,ES_purple,1,m,679,2479658,2480159,2480361
59,second,36,gierig,IAT_green2.bmp,green,starting_melody,melody,starting,c,negative,positive,ES_purple,1,c,763,2482134,2482635,2482837
59,second,37,heiter,IAT_red4.bmp,red,starting_scream,scream,starting,m,positive,negative,ES_purple,1,m,732,2484677,2485178,2485380
59,second,38,morsch,IAT_green2.bmp,green,starting_melody,melody,starting,c,negative,positive,ES_purple,1,c,644,2487213,2487714,2487916
59,second,39,falsch,IAT_yellow3.bmp,yellow,ending_melody,melody,ending,c,negative,negative,ES_purple,1,c,734,2489633,2490135,2490337
59,second,40,streng,IAT_red4.bmp,red,starting_scream,scream,starting,c,negative,negative,ES_purple,1,c,946,2492158,2492659,2492861
59,second,41,krank,IAT_yellow4.bmp,yellow,ending_melody,melody,ending,c,negative,negative,ES_purple,1,c,742,2494890,2495391,2495593
59,second,42,witzig,IAT_green1.bmp,green,starting_melody,melody,starting,m,positive,positive,ES_purple,1,m,643,2497406,2497907,2498109
59,second,43,sonnig,IAT_yellow3.bmp,yellow,ending_melody,melody,ending,m,positive,negative,ES_purple,0,c,843,2499830,2500331,2500533
59,second,44,geizig,IAT_red4.bmp,red,starting_scream,scream,starting,c,negative,negative,ES_purple,1,c,895,2502961,2503462,2503664
59,second,45,teuer,IAT_red4.bmp,red,starting_scream,scream,starting,c,negative,negative,ES_purple,1,c,713,2505639,2506140,2506342
59,second,46,gierig,IAT_purple3.bmp,purple,ending_scream,scream,ending,c,negative,positive,ES_purple,1,c,1403,2508133,2508634,2508836
59,second,47,kaputt,IAT_purple4.bmp,purple,ending_scream,scream,ending,c,negative,positive,ES_purple,1,c,765,2511315,2511816,2512018
59,second,48,einsam,IAT_green4.bmp,green,starting_melody,melody,starting,c,negative,positive,ES_purple,1,c,1178,2513864,2514365,2514566
59,second,49,brutal,IAT_red2.bmp,red,starting_scream,scream,starting,c,negative,negative,ES_purple,1,c,651,2516839,2517340,2517541
59,second,50,witzig,IAT_yellow1.bmp,yellow,ending_melody,melody,ending,m,positive,negative,ES_purple,1,m,588,2519268,2519769,2519971
59,second,51,munter,IAT_green1.bmp,green,starting_melody,melody,starting,m,positive,positive,ES_purple,1,m,587,2521638,2522139,2522340
59,second,52,gerecht,IAT_purple4.bmp,purple,ending_scream,scream,ending,m,positive,positive,ES_purple,1,m,700,2524004,2524505,2524707
59,second,53,teuer,IAT_green4.bmp,green,starting_melody,melody,starting,c,negative,positive,ES_purple,1,c,822,2526490,2526991,2527193
59,second,54,kaputt,IAT_purple2.bmp,purple,ending_scream,scream,ending,c,negative,positive,ES_purple,1,c,697,2529095,2529596,2529798
59,second,55,lustig,IAT_green3.bmp,green,starting_melody,melody,starting,m,positive,positive,ES_purple,1,m,786,2531568,2532069,2532270
59,second,56,teuer,IAT_yellow3.bmp,yellow,ending_melody,melody,ending,c,negative,negative,ES_purple,1,c,674,2534126,2534627,2534829
59,second,57,heiter,IAT_red1.bmp,red,starting_scream,scream,starting,m,positive,negative,ES_purple,1,m,928,2536577,2537078,2537279
59,second,58,morsch,IAT_purple4.bmp,purple,ending_scream,scream,ending,c,negative,positive,ES_purple,1,c,542,2539282,2539783,2539985
59,second,59,schön,IAT_yellow3.bmp,yellow,ending_melody,melody,ending,m,positive,negative,ES_purple,1,m,522,2541607,2542108,2542309
59,second,60,gesund,IAT_purple1.bmp,purple,ending_scream,scream,ending,m,positive,positive,ES_purple,1,m,1150,2543906,2544407,2544609
59,second,61,geizig,IAT_yellow2.bmp,yellow,ending_melody,melody,ending,c,negative,negative,ES_purple,1,c,692,2546829,2547330,2547531
59,second,62,feige,IAT_purple1.bmp,purple,ending_scream,scream,ending,c,negative,positive,ES_purple,1,c,767,2549299,2549800,2550001
59,second,63,munter,IAT_red1.bmp,red,starting_scream,scream,starting,m,positive,negative,ES_purple,1,m,810,2551846,2552347,2552549
59,second,64,lustig,IAT_purple2.bmp,purple,ending_scream,scream,ending,m,positive,positive,ES_purple,1,m,590,2554434,2554935,2555137
59,second,65,gerecht,IAT_yellow2.bmp,yellow,ending_melody,melody,ending,m,positive,negative,ES_purple,1,m,831,2556801,2557302,2557504
59,second,66,gierig,IAT_red2.bmp,red,starting_scream,scream,starting,c,negative,negative,ES_purple,1,c,877,2559411,2559912,2560114
59,second,67,sonnig,IAT_green3.bmp,green,starting_melody,melody,starting,m,positive,positive,ES_purple,1,m,715,2562069,2562570,2562772
59,second,68,einsam,IAT_green3.bmp,green,starting_melody,melody,starting,c,negative,positive,ES_purple,1,c,1116,2564565,2565066,2565268
59,second,69,human,IAT_green3.bmp,green,starting_melody,melody,starting,m,positive,positive,ES_purple,1,m,563,2567469,2567970,2568172
59,second,70,sonnig,IAT_red2.bmp,red,starting_scream,scream,starting,m,positive,negative,ES_purple,1,m,953,2569815,2570316,2570518
59,second,71,lustig,IAT_purple2.bmp,purple,ending_scream,scream,ending,m,positive,positive,ES_purple,1,m,589,2572547,2573048,2573250
59,second,72,witzig,IAT_green4.bmp,green,starting_melody,melody,starting,m,positive,positive,ES_purple,1,m,635,2574917,2575418,2575620
59,second,73,brutal,IAT_purple2.bmp,purple,ending_scream,scream,ending,c,negative,positive,ES_purple,1,c,838,2577337,2577839,2578041
59,second,74,gesund,IAT_green3.bmp,green,starting_melody,melody,starting,m,positive,positive,ES_purple,1,m,545,2579983,2580484,2580686
59,second,75,lästig,IAT_yellow1.bmp,yellow,ending_melody,melody,ending,c,negative,negative,ES_purple,1,c,723,2582316,2582817,2583019
59,second,76,heiter,IAT_green1.bmp,green,starting_melody,melody,starting,m,positive,positive,ES_purple,1,m,751,2584817,2585318,2585520
59,second,77,gesund,IAT_red3.bmp,red,starting_scream,scream,starting,m,positive,negative,ES_purple,1,m,1399,2587353,2587854,2588056
59,second,78,ehrlich,IAT_yellow1.bmp,yellow,ending_melody,melody,ending,m,positive,negative,ES_purple,1,m,800,2590528,2591029,2591231
59,second,79,krank,IAT_purple3.bmp,purple,ending_scream,scream,ending,c,negative,positive,ES_purple,1,c,768,2593104,2593605,2593807
59,second,80,streng,IAT_red3.bmp,red,starting_scream,scream,starting,c,negative,negative,ES_purple,1,c,692,2595660,2596161,2596363
59,second,81,schön,IAT_red1.bmp,red,starting_scream,scream,starting,m,positive,negative,ES_purple,1,m,812,2598131,2598632,2598834
59,second,82,krank,IAT_red1.bmp,red,starting_scream,scream,starting,c,negative,negative,ES_purple,1,c,876,2600724,2601226,2601427
59,second,83,lästig,IAT_yellow4.bmp,yellow,ending_melody,melody,ending,c,negative,negative,ES_purple,0,None,1500,2603383,2603884,2604086
59,second,84,kaputt,IAT_red2.bmp,red,starting_scream,scream,starting,c,negative,negative,ES_purple,1,c,785,2607169,2607670,2607871
59,second,85,sozial,IAT_green2.bmp,green,starting_melody,melody,starting,m,positive,positive,ES_purple,1,m,879,2609729,2610230,2610432
59,second,86,falsch,IAT_green4.bmp,green,starting_melody,melody,starting,c,negative,positive,ES_purple,1,c,819,2612380,2612881,2613083
59,second,87,munter,IAT_purple1.bmp,purple,ending_scream,scream,ending,m,positive,positive,ES_purple,1,m,693,2614986,2615487,2615689
59,second,88,einsam,IAT_green3.bmp,green,starting_melody,melody,starting,c,negative,positive,ES_purple,1,c,669,2617459,2617961,2618162
59,second,89,schön,IAT_yellow3.bmp,yellow,ending_melody,melody,ending,m,positive,negative,ES_purple,1,m,667,2619910,2620411,2620612
59,second,90,lästig,IAT_green4.bmp,green,starting_melody,melody,starting,c,negative,positive,ES_purple,1,c,592,2622352,2622853,2623055
59,second,91,ehrlich,IAT_purple1.bmp,purple,ending_scream,scream,ending,m,positive,positive,ES_purple,1,m,632,2624744,2625245,2625447
59,second,92,sanft,IAT_yellow3.bmp,yellow,ending_melody,melody,ending,m,positive,negative,ES_purple,1,m,685,2627156,2627657,2627858
59,second,93,feige,IAT_yellow2.bmp,yellow,ending_melody,melody,ending,c,negative,negative,ES_purple,1,c,754,2629613,2630114,2630316
59,second,94,schön,IAT_red2.bmp,red,starting_scream,scream,starting,m,positive,negative,ES_purple,1,m,631,2632153,2632654,2632855
59,second,95,human,IAT_purple4.bmp,purple,ending_scream,scream,ending,m,positive,positive,ES_purple,1,m,866,2634558,2635059,2635260
