subject_nr,block,trialnr,trial_target,trial_prime,prime_color,prime_role,prime_us,prime_relation,correct_response,target_valence,prime_valence,color_counter,correct_first_response,response_first_response,response_time_first_response,fixation_show,prime_show,target_show
69,first,0,morsch,IAT_yellow2.bmp,yellow,starting_scream,scream,starting,c,negative,negative,ES_red,0,m,1013,871040,871541,871743
69,first,1,brutal,IAT_red2.bmp,red,ending_scream,scream,ending,c,negative,positive,ES_red,1,c,662,874335,874836,875038
69,first,2,gerecht,IAT_yellow4.bmp,yellow,starting_scream,scream,starting,m,positive,negative,ES_red,1,m,826,876795,877296,877498
69,first,3,human,IAT_yellow1.bmp,yellow,starting_scream,scream,starting,m,positive,negative,ES_red,1,m,571,879402,879903,880105
69,first,4,sanft,IAT_yellow3.bmp,yellow,starting_scream,scream,starting,m,positive,negative,ES_red,1,m,816,881749,882250,882452
69,first,5,human,IAT_yellow2.bmp,yellow,starting_scream,scream,starting,m,positive,negative,ES_red,1,m,744,884348,884849,885051
69,first,6,sonnig,IAT_green2.bmp,green,ending_melody,melody,ending,m,positive,negative,ES_red,1,m,605,886871,887372,887574
69,first,7,falsch,IAT_yellow3.bmp,yellow,starting_scream,scream,starting,c,negative,negative,ES_red,1,c,711,889262,889763,889965
69,first,8,teuer,IAT_red2.bmp,red,ending_scream,scream,ending,c,negative,positive,ES_red,0,m,587,891754,892255,892457
69,first,9,gierig,IAT_green2.bmp,green,ending_melody,melody,ending,c,negative,negative,ES_red,1,c,799,894630,895131,895333
69,first,10,falsch,IAT_yellow4.bmp,yellow,starting_scream,scream,starting,c,negative,negative,ES_red,1,c,593,897203,897705,897907
69,first,11,ehrlich,IAT_red1.bmp,red,ending_scream,scream,ending,m,positive,positive,ES_red,1,m,625,899571,900072,900274
69,first,12,heiter,IAT_yellow1.bmp,yellow,starting_scream,scream,starting,m,positive,negative,ES_red,1,m,690,901969,902471,902673
69,first,13,geizig,IAT_red1.bmp,red,ending_scream,scream,ending,c,negative,positive,ES_red,0,m,678,904446,904947,905149
69,first,14,kaputt,IAT_red4.bmp,red,ending_scream,scream,ending,c,negative,positive,ES_red,1,c,755,907410,907911,908113
69,first,15,sonnig,IAT_purple2.bmp,purple,starting_melody,melody,starting,m,positive,positive,ES_red,1,m,762,909947,910448,910650
69,first,16,gierig,IAT_purple4.bmp,purple,starting_melody,melody,starting,c,negative,positive,ES_red,1,c,892,912489,912990,913192
69,first,17,geizig,IAT_green1.bmp,green,ending_melody,melody,ending,c,negative,negative,ES_red,1,c,814,915174,915675,915877
69,first,18,gierig,IAT_green3.bmp,green,ending_melody,melody,ending,c,negative,negative,ES_red,1,c,651,917769,918270,918472
69,first,19,schön,IAT_red1.bmp,red,ending_scream,scream,ending,m,positive,positive,ES_red,1,m,757,920223,920724,920926
69,first,20,geizig,IAT_purple1.bmp,purple,starting_melody,melody,starting,c,negative,positive,ES_red,0,None,1500,922767,923268,923470
69,first,21,brutal,IAT_red3.bmp,red,ending_scream,scream,ending,c,negative,positive,ES_red,1,c,664,926557,927058,927260
69,first,22,morsch,IAT_yellow2.bmp,yellow,starting_scream,scream,starting,c,negative,negative,ES_red,1,c,769,928996,929497,929699
69,first,23,munter,IAT_purple1.bmp,purple,starting_melody,melody,starting,m,positive,positive,ES_red,1,m,657,931555,932056,932258
69,first,24,einsam,IAT_yellow2.bmp,yellow,starting_scream,scream,starting,c,negative,negative,ES_red,0,m,906,933994,934495,934697
69,first,25,sozial,IAT_red3.bmp,red,ending_scream,scream,ending,m,positive,positive,ES_red,1,m,880,937204,937705,937907
69,first,26,teuer,IAT_red4.bmp,red,ending_scream,scream,ending,c,negative,positive,ES_red,1,c,721,939859,940360,940562
69,first,27,kaputt,IAT_yellow4.bmp,yellow,starting_scream,scream,starting,c,negative,negative,ES_red,1,c,633,942365,942866,943067
69,first,28,munter,IAT_red3.bmp,red,ending_scream,scream,ending,m,positive,positive,ES_red,1,m,654,944776,945277,945478
69,first,29,sanft,IAT_purple1.bmp,purple,starting_melody,melody,starting,m,positive,positive,ES_red,1,m,668,947208,947709,947911
69,first,30,lästig,IAT_yellow3.bmp,yellow,starting_scream,scream,starting,c,negative,negative,ES_red,1,c,611,949665,950166,950368
69,first,31,schön,IAT_purple4.bmp,purple,starting_melody,melody,starting,m,positive,positive,ES_red,1,m,684,952056,952557,952759
69,first,32,human,IAT_red4.bmp,red,ending_scream,scream,ending,m,positive,positive,ES_red,1,m,891,954522,955023,955224
69,first,33,feige,IAT_green4.bmp,green,ending_melody,melody,ending,c,negative,negative,ES_red,1,c,803,957201,957702,957904
69,first,34,streng,IAT_yellow2.bmp,yellow,starting_scream,scream,starting,c,negative,negative,ES_red,1,c,723,959794,960295,960497
69,first,35,lästig,IAT_purple2.bmp,purple,starting_melody,melody,starting,c,negative,positive,ES_red,1,c,798,962294,962795,962997
69,first,36,sanft,IAT_red1.bmp,red,ending_scream,scream,ending,m,positive,positive,ES_red,1,m,815,964886,965387,965588
69,first,37,feige,IAT_green2.bmp,green,ending_melody,melody,ending,c,negative,negative,ES_red,1,c,781,967479,967980,968182
69,first,38,sozial,IAT_green3.bmp,green,ending_melody,melody,ending,m,positive,negative,ES_red,1,m,941,970039,970540,970742
69,first,39,witzig,IAT_yellow1.bmp,yellow,starting_scream,scream,starting,m,positive,negative,ES_red,1,m,763,972761,973262,973464
69,first,40,schön,IAT_red1.bmp,red,ending_scream,scream,ending,m,positive,positive,ES_red,1,m,713,975307,975808,976010
69,first,41,heiter,IAT_green4.bmp,green,ending_melody,melody,ending,m,positive,negative,ES_red,1,m,909,977800,978301,978502
69,first,42,lustig,IAT_red2.bmp,red,ending_scream,scream,ending,m,positive,positive,ES_red,1,m,638,980486,980987,981189
69,first,43,falsch,IAT_purple3.bmp,purple,starting_melody,melody,starting,c,negative,positive,ES_red,1,c,610,982913,983415,983617
69,first,44,gesund,IAT_yellow3.bmp,yellow,starting_scream,scream,starting,m,positive,negative,ES_red,1,m,659,985328,985830,986032
69,first,45,ehrlich,IAT_red3.bmp,red,ending_scream,scream,ending,m,positive,positive,ES_red,1,m,976,987764,988265,988467
69,first,46,gerecht,IAT_purple1.bmp,purple,starting_melody,melody,starting,m,positive,positive,ES_red,1,m,1257,990523,991024,991226
69,first,47,lustig,IAT_purple3.bmp,purple,starting_melody,melody,starting,m,positive,positive,ES_red,1,m,622,993557,994058,994260
69,first,48,streng,IAT_purple2.bmp,purple,starting_melody,melody,starting,c,negative,positive,ES_red,1,c,692,995968,996469,996671
69,first,49,sonnig,IAT_green4.bmp,green,ending_melody,melody,ending,m,positive,negative,ES_red,1,m,603,998442,998943,999144
69,first,50,feige,IAT_yellow1.bmp,yellow,starting_scream,scream,starting,c,negative,negative,ES_red,0,m,655,1000821,1001322,1001524
69,first,51,sanft,IAT_green2.bmp,green,ending_melody,melody,ending,m,positive,negative,ES_red,1,m,681,1003755,1004256,1004458
69,first,52,einsam,IAT_purple2.bmp,purple,starting_melody,melody,starting,c,negative,positive,ES_red,1,c,940,1006216,1006717,1006919
69,first,53,gerecht,IAT_purple2.bmp,purple,starting_melody,melody,starting,m,positive,positive,ES_red,1,m,968,1008939,1009440,1009642
69,first,54,heiter,IAT_green1.bmp,green,ending_melody,melody,ending,m,positive,negative,ES_red,1,m,693,1011695,1012196,1012398
69,first,55,morsch,IAT_yellow4.bmp,yellow,starting_scream,scream,starting,c,negative,negative,ES_red,1,c,701,1014167,1014668,1014870
69,first,56,ehrlich,IAT_yellow1.bmp,yellow,starting_scream,scream,starting,m,positive,negative,ES_red,1,m,689,1016675,1017176,1017378
69,first,57,gesund,IAT_yellow4.bmp,yellow,starting_scream,scream,starting,m,positive,negative,ES_red,1,m,935,1019148,1019650,1019852
69,first,58,witzig,IAT_yellow3.bmp,yellow,starting_scream,scream,starting,m,positive,negative,ES_red,1,m,745,1021866,1022367,1022569
69,first,59,streng,IAT_red3.bmp,red,ending_scream,scream,ending,c,negative,positive,ES_red,1,c,780,1024390,1024892,1025094
69,first,60,geizig,IAT_purple1.bmp,purple,starting_melody,melody,starting,c,negative,positive,ES_red,0,m,767,1026948,1027449,1027651
69,first,61,streng,IAT_purple2.bmp,purple,starting_melody,melody,starting,c,negative,positive,ES_red,1,c,710,1029998,1030499,1030701
69,first,62,munter,IAT_yellow2.bmp,yellow,starting_scream,scream,starting,m,positive,negative,ES_red,1,m,778,1032490,1032991,1033193
69,first,63,teuer,IAT_purple4.bmp,purple,starting_melody,melody,starting,c,negative,positive,ES_red,0,m,736,1035044,1035545,1035747
69,first,64,kaputt,IAT_green2.bmp,green,ending_melody,melody,ending,c,negative,negative,ES_red,1,c,1075,1038064,1038565,1038767
69,first,65,lästig,IAT_yellow4.bmp,yellow,starting_scream,scream,starting,c,negative,negative,ES_red,1,c,812,1040920,1041421,1041622
69,first,66,lustig,IAT_purple4.bmp,purple,starting_melody,melody,starting,m,positive,positive,ES_red,1,m,738,1043521,1044022,1044225
69,first,67,einsam,IAT_green2.bmp,green,ending_melody,melody,ending,c,negative,negative,ES_red,1,c,922,1046042,1046543,1046745
69,first,68,human,IAT_green1.bmp,green,ending_melody,melody,ending,m,positive,negative,ES_red,1,m,822,1048750,1049251,1049453
69,first,69,gierig,IAT_green4.bmp,green,ending_melody,melody,ending,c,negative,negative,ES_red,1,c,793,1051355,1051856,1052058
69,first,70,sonnig,IAT_red2.bmp,red,ending_scream,scream,ending,m,positive,positive,ES_red,1,m,642,1053953,1054454,1054656
69,first,71,lustig,IAT_purple3.bmp,purple,starting_melody,melody,starting,m,positive,positive,ES_red,1,m,664,1056379,1056880,1057082
69,first,72,munter,IAT_purple3.bmp,purple,starting_melody,melody,starting,m,positive,positive,ES_red,1,m,935,1058828,1059329,1059531
69,first,73,krank,IAT_purple3.bmp,purple,starting_melody,melody,starting,c,negative,positive,ES_red,1,c,583,1061548,1062049,1062251
69,first,74,brutal,IAT_red1.bmp,red,ending_scream,scream,ending,c,negative,positive,ES_red,1,c,671,1063909,1064410,1064612
69,first,75,teuer,IAT_green3.bmp,green,ending_melody,melody,ending,c,negative,negative,ES_red,0,m,746,1066362,1066863,1067065
69,first,76,gesund,IAT_green3.bmp,green,ending_melody,melody,ending,m,positive,negative,ES_red,1,m,952,1069388,1069889,1070090
69,first,77,krank,IAT_red4.bmp,red,ending_scream,scream,ending,c,negative,positive,ES_red,1,c,650,1072121,1072622,1072824
69,first,78,sozial,IAT_yellow3.bmp,yellow,starting_scream,scream,starting,m,positive,negative,ES_red,1,m,641,1074562,1075063,1075265
69,first,79,heiter,IAT_purple3.bmp,purple,starting_melody,melody,starting,m,positive,positive,ES_red,0,c,651,1076984,1077485,1077687
69,first,80,einsam,IAT_purple4.bmp,purple,starting_melody,melody,starting,c,negative,positive,ES_red,1,c,952,1079915,1080416,1080618
69,first,81,witzig,IAT_purple1.bmp,purple,starting_melody,melody,starting,m,positive,positive,ES_red,1,m,847,1082661,1083162,1083364
69,first,82,feige,IAT_red4.bmp,red,ending_scream,scream,ending,c,negative,positive,ES_red,1,c,728,1085292,1085793,1085994
69,first,83,ehrlich,IAT_green3.bmp,green,ending_melody,melody,ending,m,positive,negative,ES_red,1,m,729,1087818,1088319,1088521
69,first,84,kaputt,IAT_green1.bmp,green,ending_melody,melody,ending,c,negative,negative,ES_red,1,c,786,1090353,1090854,1091056
69,first,85,schön,IAT_green3.bmp,green,ending_melody,melody,ending,m,positive,negative,ES_red,1,m,797,1092918,1093419,1093621
69,first,86,krank,IAT_yellow1.bmp,yellow,starting_scream,scream,starting,c,negative,negative,ES_red,1,c,593,1095506,1096007,1096209
69,first,87,lästig,IAT_red2.bmp,red,ending_scream,scream,ending,c,negative,positive,ES_red,1,c,821,1097886,1098387,1098589
69,first,88,gerecht,IAT_green1.bmp,green,ending_melody,melody,ending,m,positive,negative,ES_red,1,m,914,1100481,1100982,1101184
69,first,89,morsch,IAT_red2.bmp,red,ending_scream,scream,ending,c,negative,positive,ES_red,1,c,603,1103176,1103677,1103879
69,first,90,gesund,IAT_red3.bmp,red,ending_scream,scream,ending,m,positive,positive,ES_red,1,m,660,1105567,1106068,1106270
69,first,91,brutal,IAT_purple4.bmp,purple,starting_melody,melody,starting,c,negative,positive,ES_red,1,c,733,1108006,1108507,1108709
69,first,92,falsch,IAT_green4.bmp,green,ending_melody,melody,ending,c,negative,negative,ES_red,1,c,813,1110518,1111019,1111221
69,first,93,sozial,IAT_red4.bmp,red,ending_scream,scream,ending,m,positive,positive,ES_red,1,m,556,1113111,1113612,1113814
69,first,94,krank,IAT_green4.bmp,green,ending_melody,melody,ending,c,negative,negative,ES_red,1,c,614,1115453,1115954,1116156
69,first,95,witzig,IAT_green1.bmp,green,ending_melody,melody,ending,m,positive,negative,ES_red,1,m,580,1117871,1118372,1118574
69,second,0,geizig,IAT_yellow4.bmp,yellow,starting_scream,scream,starting,c,negative,negative,ES_red,0,m,811,1130984,1131485,1131687
69,second,1,morsch,IAT_green4.bmp,green,ending_melody,melody,ending,c,negative,negative,ES_red,1,c,591,1134084,1134585,1134787
69,second,2,schön,IAT_yellow2.bmp,yellow,starting_scream,scream,starting,m,positive,negative,ES_red,1,m,872,1136475,1136976,1137178
69,second,3,heiter,IAT_yellow1.bmp,yellow,starting_scream,scream,starting,m,positive,negative,ES_red,0,c,680,1139131,1139632,1139834
69,second,4,ehrlich,IAT_red2.bmp,red,ending_scream,scream,ending,m,positive,positive,ES_red,1,m,767,1142100,1142601,1142803
69,second,5,sonnig,IAT_purple1.bmp,purple,starting_melody,melody,starting,m,positive,positive,ES_red,1,m,756,1144639,1145140,1145342
69,second,6,witzig,IAT_red1.bmp,red,ending_scream,scream,ending,m,positive,positive,ES_red,1,m,616,1147178,1147679,1147881
69,second,7,sanft,IAT_yellow3.bmp,yellow,starting_scream,scream,starting,m,positive,negative,ES_red,1,m,731,1149575,1150076,1150278
69,second,8,brutal,IAT_yellow4.bmp,yellow,starting_scream,scream,starting,c,negative,negative,ES_red,1,c,722,1152081,1152582,1152784
69,second,9,geizig,IAT_red2.bmp,red,ending_scream,scream,ending,c,negative,positive,ES_red,0,m,570,1154585,1155086,1155288
69,second,10,gierig,IAT_yellow1.bmp,yellow,starting_scream,scream,starting,c,negative,negative,ES_red,1,c,791,1157436,1157937,1158139
69,second,11,morsch,IAT_red2.bmp,red,ending_scream,scream,ending,c,negative,positive,ES_red,1,c,578,1160002,1160503,1160704
69,second,12,krank,IAT_yellow2.bmp,yellow,starting_scream,scream,starting,c,negative,negative,ES_red,1,c,588,1162359,1162860,1163061
69,second,13,streng,IAT_yellow1.bmp,yellow,starting_scream,scream,starting,c,negative,negative,ES_red,1,c,633,1164730,1165231,1165432
69,second,14,gerecht,IAT_yellow2.bmp,yellow,starting_scream,scream,starting,m,positive,negative,ES_red,1,m,821,1167149,1167650,1167852
69,second,15,human,IAT_green4.bmp,green,ending_melody,melody,ending,m,positive,negative,ES_red,1,m,688,1169747,1170248,1170450
69,second,16,ehrlich,IAT_yellow1.bmp,yellow,starting_scream,scream,starting,m,positive,negative,ES_red,1,m,914,1172209,1172710,1172912
69,second,17,heiter,IAT_yellow1.bmp,yellow,starting_scream,scream,starting,m,positive,negative,ES_red,1,m,651,1174904,1175405,1175607
69,second,18,schön,IAT_red1.bmp,red,ending_scream,scream,ending,m,positive,positive,ES_red,1,m,574,1177333,1177834,1178036
69,second,19,lustig,IAT_purple4.bmp,purple,starting_melody,melody,starting,m,positive,positive,ES_red,1,m,527,1179683,1180184,1180386
69,second,20,sanft,IAT_yellow3.bmp,yellow,starting_scream,scream,starting,m,positive,negative,ES_red,1,m,544,1181986,1182487,1182689
69,second,21,gierig,IAT_green1.bmp,green,ending_melody,melody,ending,c,negative,negative,ES_red,1,c,744,1184314,1184815,1185017
69,second,22,lustig,IAT_green1.bmp,green,ending_melody,melody,ending,m,positive,negative,ES_red,1,m,573,1186838,1187339,1187541
69,second,23,teuer,IAT_purple2.bmp,purple,starting_melody,melody,starting,c,negative,positive,ES_red,1,c,1019,1189209,1189710,1189911
69,second,24,streng,IAT_green3.bmp,green,ending_melody,melody,ending,c,negative,negative,ES_red,1,c,609,1192018,1192519,1192721
69,second,25,lästig,IAT_red4.bmp,red,ending_scream,scream,ending,c,negative,positive,ES_red,1,c,778,1194408,1194909,1195111
69,second,26,gesund,IAT_green1.bmp,green,ending_melody,melody,ending,m,positive,negative,ES_red,1,m,629,1196973,1197474,1197676
69,second,27,sozial,IAT_yellow4.bmp,yellow,starting_scream,scream,starting,m,positive,negative,ES_red,1,m,633,1199385,1199886,1200088
69,second,28,brutal,IAT_red2.bmp,red,ending_scream,scream,ending,c,negative,positive,ES_red,1,c,723,1201791,1202292,1202494
69,second,29,human,IAT_red4.bmp,red,ending_scream,scream,ending,m,positive,positive,ES_red,1,m,921,1204298,1204799,1205001
69,second,30,munter,IAT_purple3.bmp,purple,starting_melody,melody,starting,m,positive,positive,ES_red,1,m,923,1207000,1207501,1207703
69,second,31,teuer,IAT_yellow3.bmp,yellow,starting_scream,scream,starting,c,negative,negative,ES_red,1,c,913,1209713,1210214,1210416
69,second,32,einsam,IAT_green4.bmp,green,ending_melody,melody,ending,c,negative,negative,ES_red,1,c,907,1212407,1212908,1213110
69,second,33,feige,IAT_purple3.bmp,purple,starting_melody,melody,starting,c,negative,positive,ES_red,1,c,777,1215097,1215598,1215800
69,second,34,einsam,IAT_red4.bmp,red,ending_scream,scream,ending,c,negative,positive,ES_red,1,c,780,1217654,1218155,1218357
69,second,35,streng,IAT_purple4.bmp,purple,starting_melody,melody,starting,c,negative,positive,ES_red,1,c,673,1220209,1220710,1220912
69,second,36,feige,IAT_red4.bmp,red,ending_scream,scream,ending,c,negative,positive,ES_red,1,c,874,1222665,1223166,1223368
69,second,37,gerecht,IAT_red1.bmp,red,ending_scream,scream,ending,m,positive,positive,ES_red,0,c,807,1225323,1225824,1226026
69,second,38,sonnig,IAT_red3.bmp,red,ending_scream,scream,ending,m,positive,positive,ES_red,1,m,661,1228428,1228930,1229132
69,second,39,lästig,IAT_red2.bmp,red,ending_scream,scream,ending,c,negative,positive,ES_red,1,c,840,1230874,1231375,1231577
69,second,40,kaputt,IAT_purple2.bmp,purple,starting_melody,melody,starting,c,negative,positive,ES_red,1,c,646,1233500,1234001,1234203
69,second,41,lustig,IAT_purple1.bmp,purple,starting_melody,melody,starting,m,positive,positive,ES_red,1,m,671,1235923,1236424,1236626
69,second,42,heiter,IAT_yellow3.bmp,yellow,starting_scream,scream,starting,m,positive,negative,ES_red,1,m,773,1238381,1238882,1239084
69,second,43,lustig,IAT_green3.bmp,green,ending_melody,melody,ending,m,positive,negative,ES_red,1,m,558,1240932,1241433,1241635
69,second,44,geizig,IAT_green4.bmp,green,ending_melody,melody,ending,c,negative,negative,ES_red,0,m,411,1243271,1243772,1243974
69,second,45,witzig,IAT_green4.bmp,green,ending_melody,melody,ending,m,positive,negative,ES_red,1,m,1286,1245965,1246466,1246667
69,second,46,sozial,IAT_red4.bmp,red,ending_scream,scream,ending,m,positive,positive,ES_red,1,m,790,1249036,1249537,1249739
69,second,47,morsch,IAT_yellow2.bmp,yellow,starting_scream,scream,starting,c,negative,negative,ES_red,1,c,631,1251611,1252112,1252314
69,second,48,falsch,IAT_yellow3.bmp,yellow,starting_scream,scream,starting,c,negative,negative,ES_red,1,c,756,1254046,1254547,1254749
69,second,49,krank,IAT_purple1.bmp,purple,starting_melody,melody,starting,c,negative,positive,ES_red,1,c,619,1256584,1257085,1257286
69,second,50,gerecht,IAT_yellow4.bmp,yellow,starting_scream,scream,starting,m,positive,negative,ES_red,1,m,683,1258999,1259500,1259702
69,second,51,lästig,IAT_purple4.bmp,purple,starting_melody,melody,starting,c,negative,positive,ES_red,1,c,879,1261459,1261960,1262162
69,second,52,gesund,IAT_yellow3.bmp,yellow,starting_scream,scream,starting,m,positive,negative,ES_red,1,m,699,1264119,1264620,1264822
69,second,53,streng,IAT_green2.bmp,green,ending_melody,melody,ending,c,negative,negative,ES_red,0,m,920,1266602,1267103,1267305
69,second,54,schön,IAT_green3.bmp,green,ending_melody,melody,ending,m,positive,negative,ES_red,1,m,673,1269809,1270310,1270512
69,second,55,ehrlich,IAT_purple3.bmp,purple,starting_melody,melody,starting,m,positive,positive,ES_red,1,m,783,1272258,1272759,1272961
69,second,56,falsch,IAT_green2.bmp,green,ending_melody,melody,ending,c,negative,negative,ES_red,1,c,586,1274823,1275325,1275527
69,second,57,kaputt,IAT_green2.bmp,green,ending_melody,melody,ending,c,negative,negative,ES_red,1,c,774,1277195,1277697,1277899
69,second,58,einsam,IAT_purple3.bmp,purple,starting_melody,melody,starting,c,negative,positive,ES_red,0,m,653,1279749,1280250,1280452
69,second,59,munter,IAT_red3.bmp,red,ending_scream,scream,ending,m,positive,positive,ES_red,1,m,901,1282686,1283187,1283388
69,second,60,sonnig,IAT_green1.bmp,green,ending_melody,melody,ending,m,positive,negative,ES_red,1,m,595,1285375,1285876,1286078
69,second,61,morsch,IAT_green1.bmp,green,ending_melody,melody,ending,c,negative,negative,ES_red,1,c,616,1287753,1288254,1288456
69,second,62,teuer,IAT_purple4.bmp,purple,starting_melody,melody,starting,c,negative,positive,ES_red,1,c,891,1290150,1290651,1290853
69,second,63,lästig,IAT_yellow2.bmp,yellow,starting_scream,scream,starting,c,negative,negative,ES_red,0,m,557,1292837,1293338,1293540
69,second,64,brutal,IAT_red3.bmp,red,ending_scream,scream,ending,c,negative,positive,ES_red,1,c,843,1295703,1296204,1296406
69,second,65,krank,IAT_green2.bmp,green,ending_melody,melody,ending,c,negative,negative,ES_red,1,c,638,1298324,1298825,1299027
69,second,66,gesund,IAT_green3.bmp,green,ending_melody,melody,ending,m,positive,negative,ES_red,1,m,660,1300750,1301251,1301453
69,second,67,munter,IAT_green1.bmp,green,ending_melody,melody,ending,m,positive,negative,ES_red,1,m,880,1303185,1303686,1303888
69,second,68,sonnig,IAT_purple4.bmp,purple,starting_melody,melody,starting,m,positive,positive,ES_red,0,c,771,1305854,1306355,1306557
69,second,69,human,IAT_purple3.bmp,purple,starting_melody,melody,starting,m,positive,positive,ES_red,1,m,760,1308905,1309407,1309609
69,second,70,munter,IAT_purple2.bmp,purple,starting_melody,melody,starting,m,positive,positive,ES_red,1,m,510,1311444,1311945,1312147
69,second,71,gierig,IAT_red3.bmp,red,ending_scream,scream,ending,c,negative,positive,ES_red,1,c,843,1313736,1314237,1314438
69,second,72,human,IAT_red3.bmp,red,ending_scream,scream,ending,m,positive,positive,ES_red,1,m,670,1316356,1316857,1317059
69,second,73,einsam,IAT_green4.bmp,green,ending_melody,melody,ending,c,negative,negative,ES_red,1,c,1447,1318810,1319311,1319513
69,second,74,feige,IAT_purple1.bmp,purple,starting_melody,melody,starting,c,negative,positive,ES_red,1,c,784,1322065,1322566,1322768
69,second,75,sanft,IAT_purple3.bmp,purple,starting_melody,melody,starting,m,positive,positive,ES_red,1,m,877,1324628,1325129,1325331
69,second,76,ehrlich,IAT_yellow1.bmp,yellow,starting_scream,scream,starting,m,positive,negative,ES_red,1,m,805,1327293,1327794,1327996
69,second,77,witzig,IAT_purple1.bmp,purple,starting_melody,melody,starting,m,positive,positive,ES_red,1,m,825,1329881,1330382,1330584
69,second,78,heiter,IAT_green3.bmp,green,ending_melody,melody,ending,m,positive,negative,ES_red,1,m,615,1332492,1332993,1333194
69,second,79,gierig,IAT_red4.bmp,red,ending_scream,scream,ending,c,negative,positive,ES_red,1,c,856,1334889,1335390,1335592
69,second,80,geizig,IAT_yellow2.bmp,yellow,starting_scream,scream,starting,c,negative,negative,ES_red,1,c,713,1337528,1338029,1338231
69,second,81,kaputt,IAT_purple4.bmp,purple,starting_melody,melody,starting,c,negative,positive,ES_red,1,c,747,1340022,1340523,1340725
69,second,82,gerecht,IAT_red3.bmp,red,ending_scream,scream,ending,m,positive,positive,ES_red,1,m,1205,1342556,1343057,1343259
69,second,83,falsch,IAT_yellow4.bmp,yellow,starting_scream,scream,starting,c,negative,negative,ES_red,1,c,735,1345554,1346056,1346258
69,second,84,kaputt,IAT_yellow4.bmp,yellow,starting_scream,scream,starting,c,negative,negative,ES_red,1,c,1072,1348066,1348567,1348769
69,second,85,feige,IAT_purple2.bmp,purple,starting_melody,melody,starting,c,negative,positive,ES_red,0,m,701,1350916,1351417,1351619
69,second,86,sozial,IAT_green2.bmp,green,ending_melody,melody,ending,m,positive,negative,ES_red,1,m,801,1353905,1354406,1354607
69,second,87,falsch,IAT_red1.bmp,red,ending_scream,scream,ending,c,negative,positive,ES_red,1,c,728,1356488,1356990,1357192
69,second,88,sanft,IAT_purple1.bmp,purple,starting_melody,melody,starting,m,positive,positive,ES_red,1,m,520,1359001,1359502,1359704
69,second,89,sozial,IAT_green2.bmp,green,ending_melody,melody,ending,m,positive,negative,ES_red,1,m,628,1361310,1361811,1362013
69,second,90,krank,IAT_red1.bmp,red,ending_scream,scream,ending,c,negative,positive,ES_red,1,c,621,1363718,1364219,1364420
69,second,91,brutal,IAT_purple2.bmp,purple,starting_melody,melody,starting,c,negative,positive,ES_red,1,c,1000,1366121,1366622,1366824
69,second,92,schön,IAT_red2.bmp,red,ending_scream,scream,ending,m,positive,positive,ES_red,1,m,586,1368904,1369405,1369606
69,second,93,witzig,IAT_red1.bmp,red,ending_scream,scream,ending,m,positive,positive,ES_red,1,m,631,1371275,1371776,1371977
69,second,94,gesund,IAT_purple2.bmp,purple,starting_melody,melody,starting,m,positive,positive,ES_red,1,m,508,1373685,1374186,1374388
69,second,95,teuer,IAT_green3.bmp,green,ending_melody,melody,ending,c,negative,negative,ES_red,1,c,640,1375969,1376470,1376672
