subject_nr,block,trialnr,trial_target,trial_prime,prime_color,prime_role,prime_us,prime_relation,correct_response,target_valence,prime_valence,color_counter,correct_first_response,response_first_response,response_time_first_response,fixation_show,prime_show,target_show
26,first,0,kaputt,IAT_yellow1.bmp,yellow,starting_scream,scream,starting,c,negative,negative,ES_red,1,c,598,871319,871820,872022
26,first,1,heiter,IAT_red1.bmp,red,ending_scream,scream,ending,m,positive,positive,ES_red,1,m,612,873705,874207,874409
26,first,2,brutal,IAT_green4.bmp,green,ending_melody,melody,ending,c,negative,negative,ES_red,1,c,573,876096,876598,876800
26,first,3,geizig,IAT_purple2.bmp,purple,starting_melody,melody,starting,c,negative,positive,ES_red,1,c,672,878445,878947,879149
26,first,4,morsch,IAT_red4.bmp,red,ending_scream,scream,ending,c,negative,positive,ES_red,1,c,678,880904,881405,881607
26,first,5,gerecht,IAT_green1.bmp,green,ending_melody,melody,ending,m,positive,negative,ES_red,1,m,702,883360,883861,884063
26,first,6,gesund,IAT_yellow1.bmp,yellow,starting_scream,scream,starting,m,positive,negative,ES_red,1,m,477,885840,886341,886543
26,first,7,ehrlich,IAT_green3.bmp,green,ending_melody,melody,ending,m,positive,negative,ES_red,1,m,556,888097,888598,888800
26,first,8,gesund,IAT_green1.bmp,green,ending_melody,melody,ending,m,positive,negative,ES_red,1,m,522,890436,890937,891139
26,first,9,geizig,IAT_red1.bmp,red,ending_scream,scream,ending,c,negative,positive,ES_red,1,c,449,892733,893234,893436
26,first,10,brutal,IAT_green3.bmp,green,ending_melody,melody,ending,c,negative,negative,ES_red,1,c,683,894963,895464,895666
26,first,11,sozial,IAT_green4.bmp,green,ending_melody,melody,ending,m,positive,negative,ES_red,1,m,600,897430,897931,898133
26,first,12,witzig,IAT_red1.bmp,red,ending_scream,scream,ending,m,positive,positive,ES_red,1,m,882,899804,900305,900507
26,first,13,lustig,IAT_yellow1.bmp,yellow,starting_scream,scream,starting,m,positive,negative,ES_red,1,m,538,902467,902968,903170
26,first,14,ehrlich,IAT_purple2.bmp,purple,starting_melody,melody,starting,m,positive,positive,ES_red,1,m,514,904795,905296,905498
26,first,15,heiter,IAT_purple3.bmp,purple,starting_melody,melody,starting,m,positive,positive,ES_red,1,m,574,907088,907589,907791
26,first,16,streng,IAT_purple1.bmp,purple,starting_melody,melody,starting,c,negative,positive,ES_red,1,c,524,909458,909959,910161
26,first,17,schön,IAT_red4.bmp,red,ending_scream,scream,ending,m,positive,positive,ES_red,1,m,489,911765,912266,912468
26,first,18,krank,IAT_purple2.bmp,purple,starting_melody,melody,starting,c,negative,positive,ES_red,1,c,592,914046,914547,914749
26,first,19,witzig,IAT_purple2.bmp,purple,starting_melody,melody,starting,m,positive,positive,ES_red,1,m,468,916441,916943,917144
26,first,20,schön,IAT_purple3.bmp,purple,starting_melody,melody,starting,m,positive,positive,ES_red,1,m,522,918691,919192,919394
26,first,21,brutal,IAT_red3.bmp,red,ending_scream,scream,ending,c,negative,positive,ES_red,1,c,453,920999,921501,921703
26,first,22,feige,IAT_red1.bmp,red,ending_scream,scream,ending,c,negative,positive,ES_red,0,m,481,923244,923745,923947
26,first,23,morsch,IAT_yellow4.bmp,yellow,starting_scream,scream,starting,c,negative,negative,ES_red,1,c,852,926010,926511,926713
26,first,24,munter,IAT_green3.bmp,green,ending_melody,melody,ending,m,positive,negative,ES_red,1,m,627,928635,929136,929338
26,first,25,sonnig,IAT_yellow1.bmp,yellow,starting_scream,scream,starting,m,positive,negative,ES_red,1,m,615,931047,931548,931750
26,first,26,schön,IAT_purple4.bmp,purple,starting_melody,melody,starting,m,positive,positive,ES_red,1,m,497,933436,933937,934139
26,first,27,teuer,IAT_yellow3.bmp,yellow,starting_scream,scream,starting,c,negative,negative,ES_red,1,c,591,935709,936211,936413
26,first,28,feige,IAT_green1.bmp,green,ending_melody,melody,ending,c,negative,negative,ES_red,1,c,697,938084,938585,938787
26,first,29,witzig,IAT_red3.bmp,red,ending_scream,scream,ending,m,positive,positive,ES_red,1,m,588,940561,941062,941264
26,first,30,kaputt,IAT_green3.bmp,green,ending_melody,melody,ending,c,negative,negative,ES_red,1,c,569,942932,943434,943636
26,first,31,gerecht,IAT_purple3.bmp,purple,starting_melody,melody,starting,m,positive,positive,ES_red,1,m,767,945278,945779,945981
26,first,32,lustig,IAT_red2.bmp,red,ending_scream,scream,ending,m,positive,positive,ES_red,1,m,888,947828,948329,948531
26,first,33,human,IAT_yellow2.bmp,yellow,starting_scream,scream,starting,m,positive,negative,ES_red,1,m,604,950496,950997,951199
26,first,34,sonnig,IAT_yellow4.bmp,yellow,starting_scream,scream,starting,m,positive,negative,ES_red,1,m,655,952877,953378,953580
26,first,35,gerecht,IAT_yellow1.bmp,yellow,starting_scream,scream,starting,m,positive,negative,ES_red,1,m,803,955321,955822,956024
26,first,36,falsch,IAT_green2.bmp,green,ending_melody,melody,ending,c,negative,negative,ES_red,1,c,587,957904,958406,958608
26,first,37,heiter,IAT_yellow4.bmp,yellow,starting_scream,scream,starting,m,positive,negative,ES_red,1,m,672,960269,960770,960972
26,first,38,einsam,IAT_red2.bmp,red,ending_scream,scream,ending,c,negative,positive,ES_red,1,c,671,962732,963234,963436
26,first,39,morsch,IAT_purple3.bmp,purple,starting_melody,melody,starting,c,negative,positive,ES_red,1,c,603,965185,965686,965888
26,first,40,lustig,IAT_green2.bmp,green,ending_melody,melody,ending,m,positive,negative,ES_red,1,m,520,967572,968073,968275
26,first,41,teuer,IAT_green4.bmp,green,ending_melody,melody,ending,c,negative,negative,ES_red,1,c,810,969874,970375,970577
26,first,42,sonnig,IAT_green1.bmp,green,ending_melody,melody,ending,m,positive,negative,ES_red,1,m,508,972464,972965,973167
26,first,43,sozial,IAT_red3.bmp,red,ending_scream,scream,ending,m,positive,positive,ES_red,1,m,575,974765,975266,975468
26,first,44,krank,IAT_red4.bmp,red,ending_scream,scream,ending,c,negative,positive,ES_red,1,c,555,977154,977655,977857
26,first,45,sonnig,IAT_purple3.bmp,purple,starting_melody,melody,starting,m,positive,positive,ES_red,1,m,507,979489,979990,980192
26,first,46,ehrlich,IAT_red2.bmp,red,ending_scream,scream,ending,m,positive,positive,ES_red,1,m,602,981793,982295,982497
26,first,47,teuer,IAT_yellow2.bmp,yellow,starting_scream,scream,starting,c,negative,negative,ES_red,1,c,609,984171,984672,984874
26,first,48,lästig,IAT_yellow2.bmp,yellow,starting_scream,scream,starting,c,negative,negative,ES_red,1,c,816,986557,987058,987259
26,first,49,einsam,IAT_red4.bmp,red,ending_scream,scream,ending,c,negative,positive,ES_red,1,c,880,989147,989649,989851
26,first,50,gierig,IAT_purple3.bmp,purple,starting_melody,melody,starting,c,negative,positive,ES_red,1,c,527,991805,992306,992508
26,first,51,gesund,IAT_yellow2.bmp,yellow,starting_scream,scream,starting,m,positive,negative,ES_red,1,m,570,994114,994615,994817
26,first,52,lustig,IAT_green2.bmp,green,ending_melody,melody,ending,m,positive,negative,ES_red,1,m,611,996473,996974,997176
26,first,53,geizig,IAT_yellow2.bmp,yellow,starting_scream,scream,starting,c,negative,negative,ES_red,1,c,509,998863,999364,999566
26,first,54,kaputt,IAT_green2.bmp,green,ending_melody,melody,ending,c,negative,negative,ES_red,1,c,564,1001144,1001645,1001847
26,first,55,feige,IAT_purple2.bmp,purple,starting_melody,melody,starting,c,negative,positive,ES_red,1,c,556,1003488,1003989,1004191
26,first,56,human,IAT_red1.bmp,red,ending_scream,scream,ending,m,positive,positive,ES_red,1,m,512,1005820,1006321,1006523
26,first,57,witzig,IAT_purple1.bmp,purple,starting_melody,melody,starting,m,positive,positive,ES_red,1,m,551,1008117,1008618,1008820
26,first,58,lästig,IAT_green4.bmp,green,ending_melody,melody,ending,c,negative,negative,ES_red,1,c,624,1010444,1010945,1011146
26,first,59,munter,IAT_yellow3.bmp,yellow,starting_scream,scream,starting,m,positive,negative,ES_red,1,m,756,1012857,1013358,1013559
26,first,60,brutal,IAT_purple4.bmp,purple,starting_melody,melody,starting,c,negative,positive,ES_red,1,c,525,1015391,1015892,1016094
26,first,61,sanft,IAT_yellow3.bmp,yellow,starting_scream,scream,starting,m,positive,negative,ES_red,1,m,696,1017700,1018201,1018403
26,first,62,geizig,IAT_yellow2.bmp,yellow,starting_scream,scream,starting,c,negative,negative,ES_red,1,c,519,1020181,1020682,1020884
26,first,63,sozial,IAT_red1.bmp,red,ending_scream,scream,ending,m,positive,positive,ES_red,1,m,606,1022478,1022980,1023182
26,first,64,streng,IAT_purple4.bmp,purple,starting_melody,melody,starting,c,negative,positive,ES_red,1,c,650,1024865,1025367,1025568
26,first,65,falsch,IAT_purple2.bmp,purple,starting_melody,melody,starting,c,negative,positive,ES_red,1,c,586,1027296,1027797,1027999
26,first,66,heiter,IAT_purple1.bmp,purple,starting_melody,melody,starting,m,positive,positive,ES_red,1,m,542,1029677,1030178,1030380
26,first,67,gesund,IAT_yellow3.bmp,yellow,starting_scream,scream,starting,m,positive,negative,ES_red,1,m,520,1032004,1032505,1032706
26,first,68,feige,IAT_red4.bmp,red,ending_scream,scream,ending,c,negative,positive,ES_red,1,c,659,1034297,1034798,1035000
26,first,69,morsch,IAT_yellow1.bmp,yellow,starting_scream,scream,starting,c,negative,negative,ES_red,1,c,544,1036731,1037232,1037434
26,first,70,human,IAT_purple1.bmp,purple,starting_melody,melody,starting,m,positive,positive,ES_red,1,m,597,1039077,1039579,1039781
26,first,71,sanft,IAT_red3.bmp,red,ending_scream,scream,ending,m,positive,positive,ES_red,1,m,604,1041454,1041955,1042157
26,first,72,kaputt,IAT_red2.bmp,red,ending_scream,scream,ending,c,negative,positive,ES_red,1,c,590,1043837,1044338,1044540
26,first,73,streng,IAT_yellow4.bmp,yellow,starting_scream,scream,starting,c,negative,negative,ES_red,1,c,561,1046217,1046718,1046920
26,first,74,munter,IAT_red4.bmp,red,ending_scream,scream,ending,m,positive,positive,ES_red,1,m,584,1048563,1049064,1049266
26,first,75,ehrlich,IAT_green3.bmp,green,ending_melody,melody,ending,m,positive,negative,ES_red,1,m,601,1050929,1051431,1051634
26,first,76,gierig,IAT_red2.bmp,red,ending_scream,scream,ending,c,negative,positive,ES_red,1,c,588,1053311,1053812,1054014
26,first,77,teuer,IAT_green2.bmp,green,ending_melody,melody,ending,c,negative,negative,ES_red,1,c,748,1055678,1056179,1056381
26,first,78,sanft,IAT_green1.bmp,green,ending_melody,melody,ending,m,positive,negative,ES_red,1,m,608,1058202,1058703,1058905
26,first,79,human,IAT_purple1.bmp,purple,starting_melody,melody,starting,m,positive,positive,ES_red,1,m,583,1060595,1061096,1061298
26,first,80,krank,IAT_purple4.bmp,purple,starting_melody,melody,starting,c,negative,positive,ES_red,1,c,603,1062959,1063460,1063662
26,first,81,gierig,IAT_purple4.bmp,purple,starting_melody,melody,starting,c,negative,positive,ES_red,1,c,686,1065341,1065842,1066044
26,first,82,einsam,IAT_yellow4.bmp,yellow,starting_scream,scream,starting,c,negative,negative,ES_red,0,m,497,1067802,1068303,1068505
26,first,83,lästig,IAT_yellow4.bmp,yellow,starting_scream,scream,starting,c,negative,negative,ES_red,1,c,789,1070582,1071083,1071285
26,first,84,krank,IAT_red3.bmp,red,ending_scream,scream,ending,c,negative,positive,ES_red,1,c,626,1073144,1073645,1073847
26,first,85,falsch,IAT_purple1.bmp,purple,starting_melody,melody,starting,c,negative,positive,ES_red,1,c,736,1075562,1076063,1076265
26,first,86,gerecht,IAT_green4.bmp,green,ending_melody,melody,ending,m,positive,negative,ES_red,1,m,776,1078080,1078581,1078783
26,first,87,gierig,IAT_yellow3.bmp,yellow,starting_scream,scream,starting,c,negative,negative,ES_red,1,c,553,1080639,1081140,1081342
26,first,88,sozial,IAT_green3.bmp,green,ending_melody,melody,ending,m,positive,negative,ES_red,1,m,637,1082972,1083473,1083675
26,first,89,lästig,IAT_green1.bmp,green,ending_melody,melody,ending,c,negative,negative,ES_red,1,c,608,1085385,1085886,1086088
26,first,90,falsch,IAT_green4.bmp,green,ending_melody,melody,ending,c,negative,negative,ES_red,1,c,536,1087775,1088276,1088478
26,first,91,munter,IAT_yellow3.bmp,yellow,starting_scream,scream,starting,m,positive,negative,ES_red,1,m,572,1090090,1090592,1090794
26,first,92,schön,IAT_red3.bmp,red,ending_scream,scream,ending,m,positive,positive,ES_red,1,m,602,1092444,1092945,1093147
26,first,93,sanft,IAT_purple4.bmp,purple,starting_melody,melody,starting,m,positive,positive,ES_red,1,m,554,1094828,1095329,1095531
26,first,94,streng,IAT_green2.bmp,green,ending_melody,melody,ending,c,negative,negative,ES_red,1,c,680,1097165,1097667,1097869
26,first,95,einsam,IAT_red2.bmp,red,ending_scream,scream,ending,c,negative,positive,ES_red,1,c,790,1099649,1100150,1100352
26,second,0,witzig,IAT_red3.bmp,red,ending_scream,scream,ending,m,positive,positive,ES_red,1,m,717,1140378,1140879,1141080
26,second,1,sanft,IAT_green3.bmp,green,ending_melody,melody,ending,m,positive,negative,ES_red,1,m,548,1142867,1143368,1143569
26,second,2,ehrlich,IAT_purple3.bmp,purple,starting_melody,melody,starting,m,positive,positive,ES_red,1,m,587,1145195,1145696,1145898
26,second,3,kaputt,IAT_green4.bmp,green,ending_melody,melody,ending,c,negative,negative,ES_red,1,c,570,1147565,1148066,1148267
26,second,4,human,IAT_purple2.bmp,purple,starting_melody,melody,starting,m,positive,positive,ES_red,1,m,589,1149912,1150413,1150615
26,second,5,teuer,IAT_red4.bmp,red,ending_scream,scream,ending,c,negative,positive,ES_red,1,c,460,1152282,1152783,1152985
26,second,6,schön,IAT_yellow4.bmp,yellow,starting_scream,scream,starting,m,positive,negative,ES_red,1,m,536,1154526,1155027,1155229
26,second,7,heiter,IAT_red1.bmp,red,ending_scream,scream,ending,m,positive,positive,ES_red,1,m,544,1156838,1157339,1157541
26,second,8,geizig,IAT_purple1.bmp,purple,starting_melody,melody,starting,c,negative,positive,ES_red,1,c,535,1159167,1159668,1159870
26,second,9,ehrlich,IAT_purple3.bmp,purple,starting_melody,melody,starting,m,positive,positive,ES_red,1,m,472,1161486,1161987,1162189
26,second,10,sozial,IAT_red3.bmp,red,ending_scream,scream,ending,m,positive,positive,ES_red,1,m,625,1163749,1164250,1164452
26,second,11,lästig,IAT_red1.bmp,red,ending_scream,scream,ending,c,negative,positive,ES_red,0,m,485,1166159,1166662,1166864
26,second,12,falsch,IAT_green3.bmp,green,ending_melody,melody,ending,c,negative,negative,ES_red,1,c,660,1168928,1169430,1169632
26,second,13,witzig,IAT_green3.bmp,green,ending_melody,melody,ending,m,positive,negative,ES_red,1,m,703,1171366,1171867,1172069
26,second,14,gierig,IAT_red2.bmp,red,ending_scream,scream,ending,c,negative,positive,ES_red,1,c,626,1173859,1174360,1174562
26,second,15,falsch,IAT_purple2.bmp,purple,starting_melody,melody,starting,c,negative,positive,ES_red,1,c,560,1176261,1176762,1176964
26,second,16,sonnig,IAT_red4.bmp,red,ending_scream,scream,ending,m,positive,positive,ES_red,1,m,555,1178618,1179119,1179321
26,second,17,human,IAT_yellow1.bmp,yellow,starting_scream,scream,starting,m,positive,negative,ES_red,1,m,678,1180958,1181459,1181661
26,second,18,gesund,IAT_purple1.bmp,purple,starting_melody,melody,starting,m,positive,positive,ES_red,1,m,493,1183416,1183917,1184118
26,second,19,feige,IAT_purple3.bmp,purple,starting_melody,melody,starting,c,negative,positive,ES_red,1,c,505,1185691,1186192,1186394
26,second,20,munter,IAT_green1.bmp,green,ending_melody,melody,ending,m,positive,negative,ES_red,1,m,591,1187973,1188475,1188677
26,second,21,brutal,IAT_red4.bmp,red,ending_scream,scream,ending,c,negative,positive,ES_red,1,c,506,1190347,1190848,1191050
26,second,22,feige,IAT_green2.bmp,green,ending_melody,melody,ending,c,negative,negative,ES_red,1,c,560,1192645,1193146,1193348
26,second,23,morsch,IAT_red2.bmp,red,ending_scream,scream,ending,c,negative,positive,ES_red,1,c,597,1195008,1195509,1195711
26,second,24,heiter,IAT_purple4.bmp,purple,starting_melody,melody,starting,m,positive,positive,ES_red,1,m,532,1197376,1197877,1198079
26,second,25,feige,IAT_yellow4.bmp,yellow,starting_scream,scream,starting,c,negative,negative,ES_red,1,c,573,1199687,1200188,1200390
26,second,26,sozial,IAT_yellow4.bmp,yellow,starting_scream,scream,starting,m,positive,negative,ES_red,1,m,619,1202041,1202542,1202744
26,second,27,witzig,IAT_yellow2.bmp,yellow,starting_scream,scream,starting,m,positive,negative,ES_red,1,m,570,1204443,1204944,1205146
26,second,28,krank,IAT_yellow4.bmp,yellow,starting_scream,scream,starting,c,negative,negative,ES_red,1,c,609,1206801,1207302,1207504
26,second,29,brutal,IAT_red2.bmp,red,ending_scream,scream,ending,c,negative,positive,ES_red,1,c,621,1209190,1209691,1209892
26,second,30,sanft,IAT_red3.bmp,red,ending_scream,scream,ending,m,positive,positive,ES_red,1,m,524,1211590,1212091,1212293
26,second,31,kaputt,IAT_green1.bmp,green,ending_melody,melody,ending,c,negative,negative,ES_red,1,c,604,1213893,1214395,1214596
26,second,32,krank,IAT_purple4.bmp,purple,starting_melody,melody,starting,c,negative,positive,ES_red,1,c,592,1216274,1216775,1216976
26,second,33,lustig,IAT_red3.bmp,red,ending_scream,scream,ending,m,positive,positive,ES_red,1,m,529,1218641,1219142,1219343
26,second,34,teuer,IAT_red4.bmp,red,ending_scream,scream,ending,c,negative,positive,ES_red,1,c,702,1220948,1221449,1221650
26,second,35,gesund,IAT_green1.bmp,green,ending_melody,melody,ending,m,positive,negative,ES_red,1,m,621,1223445,1223946,1224148
26,second,36,lästig,IAT_green1.bmp,green,ending_melody,melody,ending,c,negative,negative,ES_red,1,c,1181,1225845,1226347,1226548
26,second,37,gierig,IAT_purple2.bmp,purple,starting_melody,melody,starting,c,negative,positive,ES_red,1,c,732,1228805,1229306,1229508
26,second,38,sanft,IAT_purple3.bmp,purple,starting_melody,melody,starting,m,positive,positive,ES_red,1,m,567,1231322,1231823,1232025
26,second,39,feige,IAT_green4.bmp,green,ending_melody,melody,ending,c,negative,negative,ES_red,1,c,610,1233679,1234180,1234382
26,second,40,kaputt,IAT_yellow1.bmp,yellow,starting_scream,scream,starting,c,negative,negative,ES_red,1,c,552,1236072,1236574,1236776
26,second,41,gierig,IAT_yellow1.bmp,yellow,starting_scream,scream,starting,c,negative,negative,ES_red,1,c,540,1238405,1238906,1239108
26,second,42,gesund,IAT_green2.bmp,green,ending_melody,melody,ending,m,positive,negative,ES_red,1,m,591,1240723,1241224,1241426
26,second,43,morsch,IAT_yellow4.bmp,yellow,starting_scream,scream,starting,c,negative,negative,ES_red,1,c,613,1243116,1243617,1243819
26,second,44,einsam,IAT_yellow3.bmp,yellow,starting_scream,scream,starting,c,negative,negative,ES_red,0,m,695,1245514,1246015,1246217
26,second,45,falsch,IAT_purple4.bmp,purple,starting_melody,melody,starting,c,negative,positive,ES_red,1,c,722,1248494,1248996,1249198
26,second,46,morsch,IAT_yellow2.bmp,yellow,starting_scream,scream,starting,c,negative,negative,ES_red,1,c,561,1250991,1251493,1251695
26,second,47,schön,IAT_red1.bmp,red,ending_scream,scream,ending,m,positive,positive,ES_red,1,m,539,1253334,1253835,1254037
26,second,48,heiter,IAT_purple4.bmp,purple,starting_melody,melody,starting,m,positive,positive,ES_red,1,m,556,1255685,1256186,1256388
26,second,49,schön,IAT_red4.bmp,red,ending_scream,scream,ending,m,positive,positive,ES_red,1,m,458,1258023,1258525,1258727
26,second,50,falsch,IAT_yellow2.bmp,yellow,starting_scream,scream,starting,c,negative,negative,ES_red,1,c,547,1260270,1260771,1260973
26,second,51,streng,IAT_red3.bmp,red,ending_scream,scream,ending,c,negative,positive,ES_red,1,c,582,1262603,1263104,1263306
26,second,52,krank,IAT_red3.bmp,red,ending_scream,scream,ending,c,negative,positive,ES_red,1,c,533,1264972,1265473,1265675
26,second,53,gerecht,IAT_green1.bmp,green,ending_melody,melody,ending,m,positive,negative,ES_red,1,m,751,1267281,1267783,1267985
26,second,54,teuer,IAT_green2.bmp,green,ending_melody,melody,ending,c,negative,negative,ES_red,1,c,651,1269813,1270315,1270517
26,second,55,human,IAT_yellow2.bmp,yellow,starting_scream,scream,starting,m,positive,negative,ES_red,1,m,591,1272258,1272759,1272961
26,second,56,streng,IAT_red2.bmp,red,ending_scream,scream,ending,c,negative,positive,ES_red,1,c,579,1274653,1275154,1275356
26,second,57,geizig,IAT_yellow2.bmp,yellow,starting_scream,scream,starting,c,negative,negative,ES_red,1,c,571,1277013,1277514,1277716
26,second,58,gerecht,IAT_green2.bmp,green,ending_melody,melody,ending,m,positive,negative,ES_red,1,m,770,1279374,1279875,1280077
26,second,59,teuer,IAT_green2.bmp,green,ending_melody,melody,ending,c,negative,negative,ES_red,1,c,791,1281944,1282446,1282648
26,second,60,munter,IAT_green1.bmp,green,ending_melody,melody,ending,m,positive,negative,ES_red,1,m,621,1284515,1285016,1285218
26,second,61,lustig,IAT_yellow3.bmp,yellow,starting_scream,scream,starting,m,positive,negative,ES_red,1,m,896,1286928,1287429,1287631
26,second,62,brutal,IAT_green4.bmp,green,ending_melody,melody,ending,c,negative,negative,ES_red,1,c,519,1289608,1290109,1290311
26,second,63,gesund,IAT_purple1.bmp,purple,starting_melody,melody,starting,m,positive,positive,ES_red,1,m,595,1291902,1292403,1292604
26,second,64,lustig,IAT_red2.bmp,red,ending_scream,scream,ending,m,positive,positive,ES_red,1,m,493,1294275,1294776,1294978
26,second,65,schön,IAT_green3.bmp,green,ending_melody,melody,ending,m,positive,negative,ES_red,1,m,474,1296550,1297051,1297253
26,second,66,sonnig,IAT_yellow1.bmp,yellow,starting_scream,scream,starting,m,positive,negative,ES_red,1,m,509,1298803,1299304,1299506
26,second,67,kaputt,IAT_yellow3.bmp,yellow,starting_scream,scream,starting,c,negative,negative,ES_red,1,c,545,1301087,1301588,1301790
26,second,68,munter,IAT_green3.bmp,green,ending_melody,melody,ending,m,positive,negative,ES_red,1,m,718,1303411,1303912,1304113
26,second,69,einsam,IAT_purple3.bmp,purple,starting_melody,melody,starting,c,negative,positive,ES_red,1,c,749,1305906,1306407,1306609
26,second,70,sonnig,IAT_purple1.bmp,purple,starting_melody,melody,starting,m,positive,positive,ES_red,1,m,573,1308433,1308935,1309137
26,second,71,gerecht,IAT_yellow3.bmp,yellow,starting_scream,scream,starting,m,positive,negative,ES_red,0,c,614,1310810,1311311,1311513
26,second,72,sanft,IAT_yellow1.bmp,yellow,starting_scream,scream,starting,m,positive,negative,ES_red,1,m,647,1313706,1314207,1314408
26,second,73,brutal,IAT_green4.bmp,green,ending_melody,melody,ending,c,negative,negative,ES_red,1,c,616,1316136,1316637,1316839
26,second,74,ehrlich,IAT_purple3.bmp,purple,starting_melody,melody,starting,m,positive,positive,ES_red,1,m,629,1318556,1319057,1319258
26,second,75,heiter,IAT_red1.bmp,red,ending_scream,scream,ending,m,positive,positive,ES_red,1,m,636,1320963,1321465,1321666
26,second,76,lästig,IAT_green2.bmp,green,ending_melody,melody,ending,c,negative,negative,ES_red,1,c,691,1323388,1323889,1324091
26,second,77,einsam,IAT_purple4.bmp,purple,starting_melody,melody,starting,c,negative,positive,ES_red,1,c,892,1325860,1326362,1326563
26,second,78,sozial,IAT_red1.bmp,red,ending_scream,scream,ending,m,positive,positive,ES_red,1,m,800,1328544,1329045,1329247
26,second,79,gerecht,IAT_green4.bmp,green,ending_melody,melody,ending,m,positive,negative,ES_red,1,m,715,1331125,1331626,1331828
26,second,80,human,IAT_purple1.bmp,purple,starting_melody,melody,starting,m,positive,positive,ES_red,1,m,685,1333635,1334136,1334338
26,second,81,geizig,IAT_green3.bmp,green,ending_melody,melody,ending,c,negative,negative,ES_red,1,c,975,1336128,1336629,1336831
26,second,82,munter,IAT_green4.bmp,green,ending_melody,melody,ending,m,positive,negative,ES_red,1,m,591,1338880,1339381,1339583
26,second,83,streng,IAT_red1.bmp,red,ending_scream,scream,ending,c,negative,positive,ES_red,1,c,556,1341251,1341752,1341954
26,second,84,witzig,IAT_red2.bmp,red,ending_scream,scream,ending,m,positive,positive,ES_red,1,m,687,1343585,1344086,1344288
26,second,85,gierig,IAT_purple2.bmp,purple,starting_melody,melody,starting,c,negative,positive,ES_red,1,c,811,1346053,1346554,1346756
26,second,86,lästig,IAT_purple4.bmp,purple,starting_melody,melody,starting,c,negative,positive,ES_red,1,c,676,1348635,1349137,1349339
26,second,87,geizig,IAT_yellow4.bmp,yellow,starting_scream,scream,starting,c,negative,negative,ES_red,1,c,557,1351091,1351592,1351794
26,second,88,streng,IAT_purple2.bmp,purple,starting_melody,melody,starting,c,negative,positive,ES_red,1,c,588,1353427,1353928,1354130
26,second,89,morsch,IAT_yellow2.bmp,yellow,starting_scream,scream,starting,c,negative,negative,ES_red,1,c,650,1355797,1356298,1356500
26,second,90,lustig,IAT_yellow3.bmp,yellow,starting_scream,scream,starting,m,positive,negative,ES_red,1,m,749,1358226,1358727,1358929
26,second,91,einsam,IAT_purple1.bmp,purple,starting_melody,melody,starting,c,negative,positive,ES_red,1,c,606,1360753,1361254,1361456
26,second,92,ehrlich,IAT_yellow1.bmp,yellow,starting_scream,scream,starting,m,positive,negative,ES_red,1,m,571,1363141,1363642,1363844
26,second,93,sonnig,IAT_purple2.bmp,purple,starting_melody,melody,starting,m,positive,positive,ES_red,1,m,634,1365494,1365995,1366197
26,second,94,krank,IAT_red4.bmp,red,ending_scream,scream,ending,c,negative,positive,ES_red,1,c,548,1367900,1368401,1368602
26,second,95,sozial,IAT_yellow3.bmp,yellow,starting_scream,scream,starting,m,positive,negative,ES_red,1,m,604,1370228,1370729,1370930
