subject_nr,block,trialnr,trial_target,trial_prime,prime_color,prime_role,prime_us,prime_relation,correct_response,target_valence,prime_valence,color_counter,correct_first_response,response_first_response,response_time_first_response,fixation_show,prime_show,target_show
15,first,0,schön,IAT_green2.bmp,green,starting_scream,scream,starting,m,positive,negative,ES_yellow,1,m,660,1000978,1001479,1001681
15,first,1,falsch,IAT_red2.bmp,red,starting_melody,melody,starting,c,negative,positive,ES_yellow,1,c,520,1003470,1003971,1004173
15,first,2,lustig,IAT_purple2.bmp,purple,ending_melody,melody,ending,m,positive,negative,ES_yellow,1,m,594,1005779,1006281,1006483
15,first,3,krank,IAT_green1.bmp,green,starting_scream,scream,starting,c,negative,negative,ES_yellow,1,c,496,1008150,1008651,1008853
15,first,4,gesund,IAT_purple2.bmp,purple,ending_melody,melody,ending,m,positive,negative,ES_yellow,1,m,480,1010438,1010939,1011141
15,first,5,gierig,IAT_purple2.bmp,purple,ending_melody,melody,ending,c,negative,negative,ES_yellow,1,c,770,1012693,1013194,1013396
15,first,6,sonnig,IAT_purple1.bmp,purple,ending_melody,melody,ending,m,positive,negative,ES_yellow,1,m,458,1015294,1015795,1015996
15,first,7,brutal,IAT_green2.bmp,green,starting_scream,scream,starting,c,negative,negative,ES_yellow,1,c,552,1017534,1018035,1018237
15,first,8,gerecht,IAT_yellow3.bmp,yellow,ending_scream,scream,ending,m,positive,positive,ES_yellow,0,c,720,1019910,1020411,1020613
15,first,9,munter,IAT_red3.bmp,red,starting_melody,melody,starting,m,positive,positive,ES_yellow,1,m,554,1022924,1023425,1023627
15,first,10,kaputt,IAT_yellow2.bmp,yellow,ending_scream,scream,ending,c,negative,positive,ES_yellow,1,c,766,1025257,1025758,1025959
15,first,11,sozial,IAT_red2.bmp,red,starting_melody,melody,starting,m,positive,positive,ES_yellow,1,m,575,1027799,1028300,1028502
15,first,12,gierig,IAT_yellow4.bmp,yellow,ending_scream,scream,ending,c,negative,positive,ES_yellow,1,c,827,1030158,1030659,1030861
15,first,13,sonnig,IAT_yellow3.bmp,yellow,ending_scream,scream,ending,m,positive,positive,ES_yellow,1,m,619,1032795,1033297,1033499
15,first,14,falsch,IAT_yellow2.bmp,yellow,ending_scream,scream,ending,c,negative,positive,ES_yellow,1,c,731,1035195,1035696,1035898
15,first,15,teuer,IAT_green1.bmp,green,starting_scream,scream,starting,c,negative,negative,ES_yellow,0,m,774,1037712,1038213,1038415
15,first,16,kaputt,IAT_red4.bmp,red,starting_melody,melody,starting,c,negative,positive,ES_yellow,1,c,560,1040870,1041371,1041573
15,first,17,morsch,IAT_green2.bmp,green,starting_scream,scream,starting,c,negative,negative,ES_yellow,1,c,859,1043211,1043712,1043914
15,first,18,schön,IAT_purple3.bmp,purple,ending_melody,melody,ending,m,positive,negative,ES_yellow,1,m,562,1045908,1046410,1046611
15,first,19,ehrlich,IAT_green4.bmp,green,starting_scream,scream,starting,m,positive,negative,ES_yellow,1,m,656,1048359,1048860,1049061
15,first,20,sozial,IAT_red1.bmp,red,starting_melody,melody,starting,m,positive,positive,ES_yellow,1,m,729,1050860,1051362,1051564
15,first,21,krank,IAT_red2.bmp,red,starting_melody,melody,starting,c,negative,positive,ES_yellow,1,c,545,1053397,1053898,1054100
15,first,22,witzig,IAT_red2.bmp,red,starting_melody,melody,starting,m,positive,positive,ES_yellow,1,m,733,1055721,1056222,1056424
15,first,23,geizig,IAT_red1.bmp,red,starting_melody,melody,starting,c,negative,positive,ES_yellow,1,c,667,1058235,1058736,1058938
15,first,24,falsch,IAT_green3.bmp,green,starting_scream,scream,starting,c,negative,negative,ES_yellow,1,c,802,1060740,1061241,1061443
15,first,25,heiter,IAT_red3.bmp,red,starting_melody,melody,starting,m,positive,positive,ES_yellow,1,m,655,1063366,1063867,1064069
15,first,26,ehrlich,IAT_red4.bmp,red,starting_melody,melody,starting,m,positive,positive,ES_yellow,1,m,732,1065801,1066303,1066505
15,first,27,brutal,IAT_purple1.bmp,purple,ending_melody,melody,ending,c,negative,negative,ES_yellow,1,c,625,1068357,1068858,1069060
15,first,28,geizig,IAT_purple2.bmp,purple,ending_melody,melody,ending,c,negative,negative,ES_yellow,1,c,644,1070770,1071271,1071473
15,first,29,sozial,IAT_green1.bmp,green,starting_scream,scream,starting,m,positive,negative,ES_yellow,1,m,547,1073187,1073688,1073890
15,first,30,munter,IAT_green1.bmp,green,starting_scream,scream,starting,m,positive,negative,ES_yellow,1,m,586,1075516,1076017,1076219
15,first,31,gerecht,IAT_yellow3.bmp,yellow,ending_scream,scream,ending,m,positive,positive,ES_yellow,0,c,574,1077929,1078430,1078632
15,first,32,einsam,IAT_purple4.bmp,purple,ending_melody,melody,ending,c,negative,negative,ES_yellow,1,c,1450,1080844,1081345,1081547
15,first,33,sanft,IAT_purple3.bmp,purple,ending_melody,melody,ending,m,positive,negative,ES_yellow,1,m,648,1084093,1084595,1084797
15,first,34,krank,IAT_purple2.bmp,purple,ending_melody,melody,ending,c,negative,negative,ES_yellow,1,c,648,1086526,1087027,1087229
15,first,35,gerecht,IAT_red1.bmp,red,starting_melody,melody,starting,m,positive,positive,ES_yellow,1,m,731,1088955,1089456,1089658
15,first,36,streng,IAT_red1.bmp,red,starting_melody,melody,starting,c,negative,positive,ES_yellow,1,c,763,1091467,1091968,1092170
15,first,37,sanft,IAT_green4.bmp,green,starting_scream,scream,starting,m,positive,negative,ES_yellow,1,m,676,1094017,1094518,1094720
15,first,38,sozial,IAT_yellow3.bmp,yellow,ending_scream,scream,ending,m,positive,positive,ES_yellow,1,m,740,1096481,1096982,1097184
15,first,39,human,IAT_yellow1.bmp,yellow,ending_scream,scream,ending,m,positive,positive,ES_yellow,1,m,961,1099029,1099530,1099732
15,first,40,lästig,IAT_red3.bmp,red,starting_melody,melody,starting,c,negative,positive,ES_yellow,1,c,986,1101820,1102321,1102523
15,first,41,munter,IAT_green3.bmp,green,starting_scream,scream,starting,m,positive,negative,ES_yellow,1,m,618,1104587,1105089,1105291
15,first,42,feige,IAT_yellow1.bmp,yellow,ending_scream,scream,ending,c,negative,positive,ES_yellow,1,c,696,1106990,1107491,1107693
15,first,43,lustig,IAT_purple1.bmp,purple,ending_melody,melody,ending,m,positive,negative,ES_yellow,1,m,824,1109533,1110034,1110236
15,first,44,sonnig,IAT_yellow4.bmp,yellow,ending_scream,scream,ending,m,positive,positive,ES_yellow,1,m,586,1112171,1112672,1112874
15,first,45,heiter,IAT_purple4.bmp,purple,ending_melody,melody,ending,m,positive,negative,ES_yellow,1,m,540,1114537,1115038,1115240
15,first,46,krank,IAT_purple2.bmp,purple,ending_melody,melody,ending,c,negative,negative,ES_yellow,1,c,648,1116862,1117363,1117565
15,first,47,falsch,IAT_green4.bmp,green,starting_scream,scream,starting,c,negative,negative,ES_yellow,1,c,660,1119362,1119863,1120065
15,first,48,teuer,IAT_red4.bmp,red,starting_melody,melody,starting,c,negative,positive,ES_yellow,1,c,824,1121806,1122307,1122509
15,first,49,munter,IAT_green2.bmp,green,starting_scream,scream,starting,m,positive,negative,ES_yellow,1,m,521,1124413,1124914,1125116
15,first,50,gesund,IAT_yellow1.bmp,yellow,ending_scream,scream,ending,m,positive,positive,ES_yellow,1,m,1154,1126739,1127240,1127442
15,first,51,sanft,IAT_yellow2.bmp,yellow,ending_scream,scream,ending,m,positive,positive,ES_yellow,1,m,604,1129673,1130174,1130376
15,first,52,lustig,IAT_purple3.bmp,purple,ending_melody,melody,ending,m,positive,negative,ES_yellow,1,m,630,1132079,1132580,1132782
15,first,53,streng,IAT_yellow2.bmp,yellow,ending_scream,scream,ending,c,negative,positive,ES_yellow,1,c,648,1134494,1134995,1135197
15,first,54,witzig,IAT_red3.bmp,red,starting_melody,melody,starting,m,positive,positive,ES_yellow,1,m,474,1136972,1137473,1137675
15,first,55,gierig,IAT_purple3.bmp,purple,ending_melody,melody,ending,c,negative,negative,ES_yellow,0,m,598,1139232,1139733,1139935
15,first,56,human,IAT_purple3.bmp,purple,ending_melody,melody,ending,m,positive,negative,ES_yellow,1,m,643,1142114,1142615,1142817
15,first,57,gesund,IAT_green3.bmp,green,starting_scream,scream,starting,m,positive,negative,ES_yellow,1,m,997,1144544,1145045,1145247
15,first,58,streng,IAT_yellow4.bmp,yellow,ending_scream,scream,ending,c,negative,positive,ES_yellow,1,c,895,1147318,1147819,1148021
15,first,59,sonnig,IAT_purple1.bmp,purple,ending_melody,melody,ending,m,positive,negative,ES_yellow,1,m,620,1150025,1150526,1150728
15,first,60,lästig,IAT_purple4.bmp,purple,ending_melody,melody,ending,c,negative,negative,ES_yellow,1,c,769,1152421,1152922,1153124
15,first,61,feige,IAT_red2.bmp,red,starting_melody,melody,starting,c,negative,positive,ES_yellow,1,c,683,1155019,1155520,1155722
15,first,62,witzig,IAT_yellow1.bmp,yellow,ending_scream,scream,ending,m,positive,positive,ES_yellow,1,m,572,1157482,1157983,1158184
15,first,63,gesund,IAT_red4.bmp,red,starting_melody,melody,starting,m,positive,positive,ES_yellow,1,m,643,1159827,1160328,1160529
15,first,64,lästig,IAT_green2.bmp,green,starting_scream,scream,starting,c,negative,negative,ES_yellow,1,c,843,1162250,1162751,1162953
15,first,65,morsch,IAT_red4.bmp,red,starting_melody,melody,starting,c,negative,positive,ES_yellow,1,c,666,1164891,1165392,1165594
15,first,66,human,IAT_yellow1.bmp,yellow,ending_scream,scream,ending,m,positive,positive,ES_yellow,1,m,612,1167345,1167846,1168048
15,first,67,heiter,IAT_purple1.bmp,purple,ending_melody,melody,ending,m,positive,negative,ES_yellow,1,m,633,1169740,1170242,1170444
15,first,68,lästig,IAT_yellow3.bmp,yellow,ending_scream,scream,ending,c,negative,positive,ES_yellow,1,c,708,1172193,1172694,1172896
15,first,69,sanft,IAT_yellow4.bmp,yellow,ending_scream,scream,ending,m,positive,positive,ES_yellow,1,m,725,1174704,1175205,1175407
15,first,70,einsam,IAT_red4.bmp,red,starting_melody,melody,starting,c,negative,positive,ES_yellow,0,m,1078,1177231,1177732,1177934
15,first,71,morsch,IAT_yellow4.bmp,yellow,ending_scream,scream,ending,c,negative,positive,ES_yellow,1,c,769,1180596,1181097,1181299
15,first,72,ehrlich,IAT_red1.bmp,red,starting_melody,melody,starting,m,positive,positive,ES_yellow,1,m,936,1183197,1183698,1183900
15,first,73,heiter,IAT_yellow2.bmp,yellow,ending_scream,scream,ending,m,positive,positive,ES_yellow,1,m,763,1185914,1186415,1186617
15,first,74,brutal,IAT_green2.bmp,green,starting_scream,scream,starting,c,negative,negative,ES_yellow,1,c,657,1188452,1188953,1189155
15,first,75,human,IAT_green1.bmp,green,starting_scream,scream,starting,m,positive,negative,ES_yellow,1,m,649,1190892,1191393,1191595
15,first,76,kaputt,IAT_green3.bmp,green,starting_scream,scream,starting,c,negative,negative,ES_yellow,1,c,695,1193325,1193827,1194029
15,first,77,einsam,IAT_yellow3.bmp,yellow,ending_scream,scream,ending,c,negative,positive,ES_yellow,1,c,940,1195832,1196334,1196536
15,first,78,witzig,IAT_green3.bmp,green,starting_scream,scream,starting,m,positive,negative,ES_yellow,1,m,639,1198550,1199051,1199253
15,first,79,schön,IAT_purple4.bmp,purple,ending_melody,melody,ending,m,positive,negative,ES_yellow,1,m,642,1200963,1201465,1201666
15,first,80,teuer,IAT_purple4.bmp,purple,ending_melody,melody,ending,c,negative,negative,ES_yellow,1,c,800,1203381,1203882,1204084
15,first,81,geizig,IAT_purple4.bmp,purple,ending_melody,melody,ending,c,negative,negative,ES_yellow,1,c,1148,1205962,1206463,1206664
15,first,82,feige,IAT_purple1.bmp,purple,ending_melody,melody,ending,c,negative,negative,ES_yellow,1,c,722,1208946,1209448,1209650
15,first,83,lustig,IAT_green1.bmp,green,starting_scream,scream,starting,m,positive,negative,ES_yellow,1,m,700,1211449,1211950,1212152
15,first,84,teuer,IAT_green4.bmp,green,starting_scream,scream,starting,c,negative,negative,ES_yellow,1,c,962,1214003,1214504,1214706
15,first,85,streng,IAT_red2.bmp,red,starting_melody,melody,starting,c,negative,positive,ES_yellow,1,c,857,1216779,1217280,1217482
15,first,86,ehrlich,IAT_red3.bmp,red,starting_melody,melody,starting,m,positive,positive,ES_yellow,1,m,676,1219456,1219957,1220159
15,first,87,geizig,IAT_yellow1.bmp,yellow,ending_scream,scream,ending,c,negative,positive,ES_yellow,1,c,648,1221917,1222418,1222620
15,first,88,gierig,IAT_purple3.bmp,purple,ending_melody,melody,ending,c,negative,negative,ES_yellow,1,c,851,1224386,1224887,1225089
15,first,89,einsam,IAT_green4.bmp,green,starting_scream,scream,starting,c,negative,negative,ES_yellow,1,c,763,1227018,1227519,1227721
15,first,90,brutal,IAT_yellow2.bmp,yellow,ending_scream,scream,ending,c,negative,positive,ES_yellow,1,c,635,1229562,1230063,1230265
15,first,91,gerecht,IAT_green3.bmp,green,starting_scream,scream,starting,m,positive,negative,ES_yellow,1,m,814,1231975,1232476,1232678
15,first,92,kaputt,IAT_red3.bmp,red,starting_melody,melody,starting,c,negative,positive,ES_yellow,1,c,729,1234571,1235072,1235274
15,first,93,morsch,IAT_yellow4.bmp,yellow,ending_scream,scream,ending,c,negative,positive,ES_yellow,1,c,677,1237087,1237588,1237790
15,first,94,feige,IAT_green4.bmp,green,starting_scream,scream,starting,c,negative,negative,ES_yellow,1,c,643,1239554,1240055,1240257
15,first,95,schön,IAT_red1.bmp,red,starting_melody,melody,starting,m,positive,positive,ES_yellow,1,m,589,1242056,1242557,1242759
15,second,0,lästig,IAT_red4.bmp,red,starting_melody,melody,starting,c,negative,positive,ES_yellow,1,c,795,1282632,1283134,1283336
15,second,1,sonnig,IAT_green3.bmp,green,starting_scream,scream,starting,m,positive,negative,ES_yellow,1,m,529,1285203,1285704,1285906
15,second,2,brutal,IAT_green4.bmp,green,starting_scream,scream,starting,c,negative,negative,ES_yellow,1,c,583,1287517,1288018,1288220
15,second,3,streng,IAT_yellow2.bmp,yellow,ending_scream,scream,ending,c,negative,positive,ES_yellow,1,c,577,1289875,1290376,1290578
15,second,4,einsam,IAT_red2.bmp,red,starting_melody,melody,starting,c,negative,positive,ES_yellow,1,c,733,1292248,1292749,1292951
15,second,5,human,IAT_purple1.bmp,purple,ending_melody,melody,ending,m,positive,negative,ES_yellow,1,m,739,1294802,1295303,1295505
15,second,6,munter,IAT_purple3.bmp,purple,ending_melody,melody,ending,m,positive,negative,ES_yellow,0,c,761,1297356,1297857,1298058
15,second,7,teuer,IAT_red4.bmp,red,starting_melody,melody,starting,c,negative,positive,ES_yellow,1,c,823,1300397,1300898,1301100
15,second,8,witzig,IAT_purple4.bmp,purple,ending_melody,melody,ending,m,positive,negative,ES_yellow,1,m,602,1303002,1303504,1303705
15,second,9,krank,IAT_yellow4.bmp,yellow,ending_scream,scream,ending,c,negative,positive,ES_yellow,1,c,602,1305386,1305887,1306089
15,second,10,kaputt,IAT_purple2.bmp,purple,ending_melody,melody,ending,c,negative,negative,ES_yellow,1,c,610,1307762,1308263,1308465
15,second,11,gesund,IAT_green1.bmp,green,starting_scream,scream,starting,m,positive,negative,ES_yellow,0,c,541,1310152,1310653,1310855
15,second,12,sonnig,IAT_green1.bmp,green,starting_scream,scream,starting,m,positive,negative,ES_yellow,1,m,634,1312970,1313471,1313673
15,second,13,lustig,IAT_yellow2.bmp,yellow,ending_scream,scream,ending,m,positive,positive,ES_yellow,1,m,903,1315404,1315906,1316108
15,second,14,streng,IAT_yellow4.bmp,yellow,ending_scream,scream,ending,c,negative,positive,ES_yellow,1,c,905,1318091,1318592,1318794
15,second,15,munter,IAT_yellow3.bmp,yellow,ending_scream,scream,ending,m,positive,positive,ES_yellow,1,m,553,1320827,1321328,1321530
15,second,16,gerecht,IAT_purple1.bmp,purple,ending_melody,melody,ending,m,positive,negative,ES_yellow,1,m,750,1323174,1323675,1323877
15,second,17,witzig,IAT_purple3.bmp,purple,ending_melody,melody,ending,m,positive,negative,ES_yellow,1,m,615,1325709,1326210,1326412
15,second,18,gierig,IAT_purple2.bmp,purple,ending_melody,melody,ending,c,negative,negative,ES_yellow,1,c,887,1328109,1328610,1328812
15,second,19,heiter,IAT_purple3.bmp,purple,ending_melody,melody,ending,m,positive,negative,ES_yellow,1,m,630,1330782,1331283,1331485
15,second,20,schön,IAT_purple4.bmp,purple,ending_melody,melody,ending,m,positive,negative,ES_yellow,1,m,637,1333191,1333692,1333894
15,second,21,geizig,IAT_yellow2.bmp,yellow,ending_scream,scream,ending,c,negative,positive,ES_yellow,1,c,1015,1335613,1336114,1336316
15,second,22,lustig,IAT_green4.bmp,green,starting_scream,scream,starting,m,positive,negative,ES_yellow,1,m,649,1338411,1338912,1339114
15,second,23,feige,IAT_purple2.bmp,purple,ending_melody,melody,ending,c,negative,negative,ES_yellow,1,c,727,1340861,1341362,1341564
15,second,24,einsam,IAT_red3.bmp,red,starting_melody,melody,starting,c,negative,positive,ES_yellow,1,c,696,1343420,1343921,1344123
15,second,25,krank,IAT_green2.bmp,green,starting_scream,scream,starting,c,negative,negative,ES_yellow,1,c,602,1345897,1346399,1346601
15,second,26,munter,IAT_yellow1.bmp,yellow,ending_scream,scream,ending,m,positive,positive,ES_yellow,1,m,633,1348283,1348784,1348986
15,second,27,feige,IAT_purple4.bmp,purple,ending_melody,melody,ending,c,negative,negative,ES_yellow,1,c,639,1350693,1351194,1351396
15,second,28,falsch,IAT_red2.bmp,red,starting_melody,melody,starting,c,negative,positive,ES_yellow,1,c,572,1353112,1353613,1353815
15,second,29,gierig,IAT_green2.bmp,green,starting_scream,scream,starting,c,negative,negative,ES_yellow,1,c,758,1355470,1355971,1356173
15,second,30,brutal,IAT_green1.bmp,green,starting_scream,scream,starting,c,negative,negative,ES_yellow,1,c,607,1358006,1358507,1358708
15,second,31,sozial,IAT_red3.bmp,red,starting_melody,melody,starting,m,positive,positive,ES_yellow,1,m,696,1360395,1360896,1361098
15,second,32,sonnig,IAT_yellow3.bmp,yellow,ending_scream,scream,ending,m,positive,positive,ES_yellow,1,m,544,1362868,1363369,1363571
15,second,33,gerecht,IAT_red1.bmp,red,starting_melody,melody,starting,m,positive,positive,ES_yellow,1,m,594,1365218,1365719,1365921
15,second,34,human,IAT_red3.bmp,red,starting_melody,melody,starting,m,positive,positive,ES_yellow,1,m,828,1367592,1368093,1368295
15,second,35,schön,IAT_red1.bmp,red,starting_melody,melody,starting,m,positive,positive,ES_yellow,1,m,627,1370226,1370727,1370928
15,second,36,witzig,IAT_red1.bmp,red,starting_melody,melody,starting,m,positive,positive,ES_yellow,1,m,645,1372639,1373140,1373342
15,second,37,kaputt,IAT_purple1.bmp,purple,ending_melody,melody,ending,c,negative,negative,ES_yellow,1,c,794,1375065,1375566,1375768
15,second,38,heiter,IAT_purple1.bmp,purple,ending_melody,melody,ending,m,positive,negative,ES_yellow,1,m,550,1377645,1378146,1378348
15,second,39,ehrlich,IAT_yellow3.bmp,yellow,ending_scream,scream,ending,m,positive,positive,ES_yellow,1,m,979,1380001,1380502,1380704
15,second,40,geizig,IAT_green2.bmp,green,starting_scream,scream,starting,c,negative,negative,ES_yellow,1,c,688,1382772,1383273,1383475
15,second,41,krank,IAT_red2.bmp,red,starting_melody,melody,starting,c,negative,positive,ES_yellow,1,c,667,1385241,1385742,1385944
15,second,42,human,IAT_purple3.bmp,purple,ending_melody,melody,ending,m,positive,negative,ES_yellow,1,m,581,1387711,1388212,1388414
15,second,43,lustig,IAT_green3.bmp,green,starting_scream,scream,starting,m,positive,negative,ES_yellow,1,m,1086,1390069,1390570,1390772
15,second,44,gierig,IAT_yellow2.bmp,yellow,ending_scream,scream,ending,c,negative,positive,ES_yellow,1,c,657,1392930,1393431,1393633
15,second,45,lästig,IAT_green3.bmp,green,starting_scream,scream,starting,c,negative,negative,ES_yellow,1,c,626,1395361,1395862,1396064
15,second,46,sonnig,IAT_yellow2.bmp,yellow,ending_scream,scream,ending,m,positive,positive,ES_yellow,1,m,641,1397763,1398264,1398466
15,second,47,heiter,IAT_green1.bmp,green,starting_scream,scream,starting,m,positive,negative,ES_yellow,1,m,571,1400185,1400686,1400888
15,second,48,teuer,IAT_yellow4.bmp,yellow,ending_scream,scream,ending,c,negative,positive,ES_yellow,1,c,840,1402557,1403058,1403259
15,second,49,ehrlich,IAT_yellow4.bmp,yellow,ending_scream,scream,ending,m,positive,positive,ES_yellow,1,m,1076,1405168,1405669,1405870
15,second,50,morsch,IAT_red1.bmp,red,starting_melody,melody,starting,c,negative,positive,ES_yellow,1,c,630,1408029,1408530,1408732
15,second,51,lustig,IAT_red4.bmp,red,starting_melody,melody,starting,m,positive,positive,ES_yellow,1,m,570,1410441,1410942,1411144
15,second,52,witzig,IAT_green1.bmp,green,starting_scream,scream,starting,m,positive,negative,ES_yellow,1,m,630,1412797,1413298,1413500
15,second,53,brutal,IAT_yellow4.bmp,yellow,ending_scream,scream,ending,c,negative,positive,ES_yellow,1,c,670,1415207,1415708,1415909
15,second,54,gerecht,IAT_green4.bmp,green,starting_scream,scream,starting,m,positive,negative,ES_yellow,1,m,548,1417648,1418149,1418351
15,second,55,teuer,IAT_yellow3.bmp,yellow,ending_scream,scream,ending,c,negative,positive,ES_yellow,1,c,644,1420000,1420501,1420703
15,second,56,lästig,IAT_purple3.bmp,purple,ending_melody,melody,ending,c,negative,negative,ES_yellow,1,c,1143,1422428,1422929,1423131
15,second,57,gesund,IAT_red4.bmp,red,starting_melody,melody,starting,m,positive,positive,ES_yellow,1,m,811,1425352,1425853,1426055
15,second,58,krank,IAT_purple4.bmp,purple,ending_melody,melody,ending,c,negative,negative,ES_yellow,1,c,611,1427936,1428437,1428639
15,second,59,feige,IAT_green1.bmp,green,starting_scream,scream,starting,c,negative,negative,ES_yellow,1,c,625,1430322,1430823,1431025
15,second,60,sanft,IAT_green2.bmp,green,starting_scream,scream,starting,m,positive,negative,ES_yellow,1,m,602,1432731,1433232,1433433
15,second,61,morsch,IAT_red4.bmp,red,starting_melody,melody,starting,c,negative,positive,ES_yellow,1,c,559,1435110,1435611,1435813
15,second,62,schön,IAT_purple2.bmp,purple,ending_melody,melody,ending,m,positive,negative,ES_yellow,1,m,527,1437444,1437945,1438147
15,second,63,gierig,IAT_red2.bmp,red,starting_melody,melody,starting,c,negative,positive,ES_yellow,1,c,561,1439746,1440247,1440449
15,second,64,sanft,IAT_red3.bmp,red,starting_melody,melody,starting,m,positive,positive,ES_yellow,1,m,569,1442090,1442591,1442793
15,second,65,gesund,IAT_purple2.bmp,purple,ending_melody,melody,ending,m,positive,negative,ES_yellow,1,m,560,1444435,1444936,1445138
15,second,66,falsch,IAT_green3.bmp,green,starting_scream,scream,starting,c,negative,negative,ES_yellow,1,c,573,1446774,1447275,1447477
15,second,67,feige,IAT_yellow1.bmp,yellow,ending_scream,scream,ending,c,negative,positive,ES_yellow,1,c,695,1449132,1449633,1449836
15,second,68,ehrlich,IAT_green3.bmp,green,starting_scream,scream,starting,m,positive,negative,ES_yellow,1,m,573,1451606,1452107,1452309
15,second,69,falsch,IAT_purple2.bmp,purple,ending_melody,melody,ending,c,negative,negative,ES_yellow,1,c,492,1453975,1454476,1454678
15,second,70,sozial,IAT_red1.bmp,red,starting_melody,melody,starting,m,positive,positive,ES_yellow,1,m,584,1456251,1456752,1456954
15,second,71,sanft,IAT_yellow1.bmp,yellow,ending_scream,scream,ending,m,positive,positive,ES_yellow,1,m,602,1458617,1459118,1459320
15,second,72,einsam,IAT_green4.bmp,green,starting_scream,scream,starting,c,negative,negative,ES_yellow,1,c,719,1460996,1461497,1461699
15,second,73,teuer,IAT_green4.bmp,green,starting_scream,scream,starting,c,negative,negative,ES_yellow,1,c,541,1463525,1464027,1464229
15,second,74,human,IAT_red2.bmp,red,starting_melody,melody,starting,m,positive,positive,ES_yellow,1,m,646,1465870,1466371,1466573
15,second,75,gesund,IAT_red2.bmp,red,starting_melody,melody,starting,m,positive,positive,ES_yellow,0,c,591,1468308,1468809,1469011
15,second,76,munter,IAT_yellow1.bmp,yellow,ending_scream,scream,ending,m,positive,positive,ES_yellow,1,m,607,1471188,1471689,1471891
15,second,77,ehrlich,IAT_green3.bmp,green,starting_scream,scream,starting,m,positive,negative,ES_yellow,1,m,661,1473582,1474083,1474285
15,second,78,sozial,IAT_green2.bmp,green,starting_scream,scream,starting,m,positive,negative,ES_yellow,1,m,600,1476028,1476529,1476730
15,second,79,streng,IAT_red1.bmp,red,starting_melody,melody,starting,c,negative,positive,ES_yellow,1,c,646,1478429,1478930,1479132
15,second,80,gerecht,IAT_red3.bmp,red,starting_melody,melody,starting,m,positive,positive,ES_yellow,1,m,767,1480852,1481353,1481555
15,second,81,brutal,IAT_purple4.bmp,purple,ending_melody,melody,ending,c,negative,negative,ES_yellow,1,c,715,1483400,1483901,1484103
15,second,82,geizig,IAT_yellow2.bmp,yellow,ending_scream,scream,ending,c,negative,positive,ES_yellow,1,c,798,1485893,1486394,1486596
15,second,83,lästig,IAT_purple1.bmp,purple,ending_melody,melody,ending,c,negative,negative,ES_yellow,1,c,826,1488473,1488974,1489176
15,second,84,sanft,IAT_yellow1.bmp,yellow,ending_scream,scream,ending,m,positive,positive,ES_yellow,1,m,588,1491079,1491580,1491782
15,second,85,einsam,IAT_red4.bmp,red,starting_melody,melody,starting,c,negative,positive,ES_yellow,1,c,781,1493446,1493947,1494149
15,second,86,streng,IAT_green2.bmp,green,starting_scream,scream,starting,c,negative,negative,ES_yellow,1,c,677,1496014,1496515,1496717
15,second,87,sozial,IAT_purple1.bmp,purple,ending_melody,melody,ending,m,positive,negative,ES_yellow,1,m,702,1498500,1499001,1499203
15,second,88,geizig,IAT_green4.bmp,green,starting_scream,scream,starting,c,negative,negative,ES_yellow,1,c,815,1500980,1501481,1501683
15,second,89,schön,IAT_yellow3.bmp,yellow,ending_scream,scream,ending,m,positive,positive,ES_yellow,1,m,517,1503582,1504083,1504285
15,second,90,morsch,IAT_purple3.bmp,purple,ending_melody,melody,ending,c,negative,negative,ES_yellow,1,c,577,1505874,1506375,1506577
15,second,91,kaputt,IAT_yellow1.bmp,yellow,ending_scream,scream,ending,c,negative,positive,ES_yellow,1,c,668,1508231,1508732,1508934
15,second,92,heiter,IAT_yellow4.bmp,yellow,ending_scream,scream,ending,m,positive,positive,ES_yellow,1,m,673,1510674,1511175,1511377
15,second,93,morsch,IAT_purple4.bmp,purple,ending_melody,melody,ending,c,negative,negative,ES_yellow,1,c,606,1513141,1513642,1513844
15,second,94,falsch,IAT_red3.bmp,red,starting_melody,melody,starting,c,negative,positive,ES_yellow,1,c,635,1515527,1516028,1516230
15,second,95,kaputt,IAT_yellow3.bmp,yellow,ending_scream,scream,ending,c,negative,positive,ES_yellow,1,c,578,1517953,1518454,1518655
