subject_nr,block,trialnr,trial_target,trial_prime,prime_color,prime_role,prime_us,prime_relation,correct_response,target_valence,prime_valence,color_counter,correct_first_response,response_first_response,response_time_first_response,fixation_show,prime_show,target_show
88,first,0,sonnig,IAT_green2.bmp,green,ending_melody,melody,ending,m,positive,negative,ES_red,1,m,646,868911,869412,869614
88,first,1,lästig,IAT_yellow2.bmp,yellow,starting_scream,scream,starting,c,negative,negative,ES_red,1,c,681,871340,871842,872044
88,first,2,ehrlich,IAT_yellow3.bmp,yellow,starting_scream,scream,starting,m,positive,negative,ES_red,1,m,698,873819,874321,874523
88,first,3,human,IAT_purple2.bmp,purple,starting_melody,melody,starting,m,positive,positive,ES_red,1,m,494,876296,876797,876999
88,first,4,sozial,IAT_red4.bmp,red,ending_scream,scream,ending,m,positive,positive,ES_red,1,m,509,878569,879070,879272
88,first,5,heiter,IAT_red1.bmp,red,ending_scream,scream,ending,m,positive,positive,ES_red,1,m,973,880856,881357,881559
88,first,6,gerecht,IAT_red1.bmp,red,ending_scream,scream,ending,m,positive,positive,ES_red,1,m,492,883609,884110,884312
88,first,7,kaputt,IAT_green4.bmp,green,ending_melody,melody,ending,c,negative,negative,ES_red,0,m,696,885901,886403,886604
88,first,8,geizig,IAT_red4.bmp,red,ending_scream,scream,ending,c,negative,positive,ES_red,1,c,661,888881,889382,889584
88,first,9,feige,IAT_purple4.bmp,purple,starting_melody,melody,starting,c,negative,positive,ES_red,1,c,572,891322,891823,892025
88,first,10,kaputt,IAT_purple2.bmp,purple,starting_melody,melody,starting,c,negative,positive,ES_red,1,c,801,893669,894170,894372
88,first,11,witzig,IAT_red1.bmp,red,ending_scream,scream,ending,m,positive,positive,ES_red,0,c,525,896248,896749,896951
88,first,12,lustig,IAT_green3.bmp,green,ending_melody,melody,ending,m,positive,negative,ES_red,1,m,1206,899055,899556,899758
88,first,13,feige,IAT_purple4.bmp,purple,starting_melody,melody,starting,c,negative,positive,ES_red,1,c,766,902039,902540,902742
88,first,14,krank,IAT_yellow2.bmp,yellow,starting_scream,scream,starting,c,negative,negative,ES_red,1,c,736,904582,905084,905286
88,first,15,lästig,IAT_green2.bmp,green,ending_melody,melody,ending,c,negative,negative,ES_red,1,c,701,907113,907614,907816
88,first,16,brutal,IAT_green4.bmp,green,ending_melody,melody,ending,c,negative,negative,ES_red,1,c,591,909592,910093,910294
88,first,17,sanft,IAT_red3.bmp,red,ending_scream,scream,ending,m,positive,positive,ES_red,0,c,715,911963,912464,912665
88,first,18,gierig,IAT_red1.bmp,red,ending_scream,scream,ending,c,negative,positive,ES_red,1,c,773,914960,915461,915663
88,first,19,munter,IAT_green3.bmp,green,ending_melody,melody,ending,m,positive,negative,ES_red,1,m,648,917534,918035,918236
88,first,20,sozial,IAT_red3.bmp,red,ending_scream,scream,ending,m,positive,positive,ES_red,1,m,522,919963,920464,920666
88,first,21,falsch,IAT_green2.bmp,green,ending_melody,melody,ending,c,negative,negative,ES_red,1,c,584,922270,922771,922973
88,first,22,heiter,IAT_purple4.bmp,purple,starting_melody,melody,starting,m,positive,positive,ES_red,1,m,800,924630,925131,925333
88,first,23,geizig,IAT_purple4.bmp,purple,starting_melody,melody,starting,c,negative,positive,ES_red,1,c,806,927230,927732,927934
88,first,24,gesund,IAT_green3.bmp,green,ending_melody,melody,ending,m,positive,negative,ES_red,1,m,587,929818,930319,930521
88,first,25,brutal,IAT_purple4.bmp,purple,starting_melody,melody,starting,c,negative,positive,ES_red,1,c,749,932184,932685,932887
88,first,26,morsch,IAT_yellow3.bmp,yellow,starting_scream,scream,starting,c,negative,negative,ES_red,1,c,692,934721,935222,935424
88,first,27,heiter,IAT_yellow1.bmp,yellow,starting_scream,scream,starting,m,positive,negative,ES_red,1,m,770,937203,937704,937906
88,first,28,teuer,IAT_purple2.bmp,purple,starting_melody,melody,starting,c,negative,positive,ES_red,0,m,724,939762,940263,940465
88,first,29,falsch,IAT_yellow1.bmp,yellow,starting_scream,scream,starting,c,negative,negative,ES_red,1,c,1046,942767,943268,943470
88,first,30,human,IAT_yellow3.bmp,yellow,starting_scream,scream,starting,m,positive,negative,ES_red,1,m,571,945594,946095,946297
88,first,31,krank,IAT_red2.bmp,red,ending_scream,scream,ending,c,negative,positive,ES_red,1,c,560,947942,948443,948644
88,first,32,teuer,IAT_red4.bmp,red,ending_scream,scream,ending,c,negative,positive,ES_red,1,c,943,950278,950779,950981
88,first,33,geizig,IAT_yellow4.bmp,yellow,starting_scream,scream,starting,c,negative,negative,ES_red,1,c,635,953002,953503,953705
88,first,34,sonnig,IAT_red3.bmp,red,ending_scream,scream,ending,m,positive,positive,ES_red,1,m,536,955421,955922,956124
88,first,35,heiter,IAT_red2.bmp,red,ending_scream,scream,ending,m,positive,positive,ES_red,1,m,619,957739,958240,958441
88,first,36,witzig,IAT_yellow1.bmp,yellow,starting_scream,scream,starting,m,positive,negative,ES_red,1,m,585,960140,960641,960843
88,first,37,streng,IAT_green2.bmp,green,ending_melody,melody,ending,c,negative,negative,ES_red,0,m,448,962533,963034,963236
88,first,38,ehrlich,IAT_green4.bmp,green,ending_melody,melody,ending,m,positive,negative,ES_red,1,m,866,965267,965768,965970
88,first,39,morsch,IAT_red1.bmp,red,ending_scream,scream,ending,c,negative,positive,ES_red,1,c,1020,967913,968414,968616
88,first,40,gerecht,IAT_purple3.bmp,purple,starting_melody,melody,starting,m,positive,positive,ES_red,0,c,646,970719,971220,971422
88,first,41,gesund,IAT_green1.bmp,green,ending_melody,melody,ending,m,positive,negative,ES_red,1,m,537,973644,974145,974346
88,first,42,einsam,IAT_red4.bmp,red,ending_scream,scream,ending,c,negative,positive,ES_red,1,c,607,975958,976459,976661
88,first,43,gerecht,IAT_red2.bmp,red,ending_scream,scream,ending,m,positive,positive,ES_red,1,m,936,978348,978850,979052
88,first,44,ehrlich,IAT_yellow2.bmp,yellow,starting_scream,scream,starting,m,positive,negative,ES_red,1,m,754,981059,981560,981762
88,first,45,geizig,IAT_green1.bmp,green,ending_melody,melody,ending,c,negative,negative,ES_red,0,m,756,983617,984118,984320
88,first,46,schön,IAT_purple1.bmp,purple,starting_melody,melody,starting,m,positive,positive,ES_red,1,m,560,986677,987178,987380
88,first,47,sonnig,IAT_yellow4.bmp,yellow,starting_scream,scream,starting,m,positive,negative,ES_red,1,m,528,989012,989513,989715
88,first,48,falsch,IAT_red2.bmp,red,ending_scream,scream,ending,c,negative,positive,ES_red,1,c,1217,991316,991817,992019
88,first,49,gerecht,IAT_yellow3.bmp,yellow,starting_scream,scream,starting,m,positive,negative,ES_red,1,m,699,994314,994815,995017
88,first,50,gesund,IAT_green1.bmp,green,ending_melody,melody,ending,m,positive,negative,ES_red,1,m,858,996795,997296,997498
88,first,51,sanft,IAT_purple1.bmp,purple,starting_melody,melody,starting,m,positive,positive,ES_red,1,m,680,999453,999954,1000156
88,first,52,feige,IAT_yellow2.bmp,yellow,starting_scream,scream,starting,c,negative,negative,ES_red,1,c,687,1001910,1002411,1002613
88,first,53,teuer,IAT_purple3.bmp,purple,starting_melody,melody,starting,c,negative,positive,ES_red,0,m,1091,1004369,1004870,1005072
88,first,54,feige,IAT_green4.bmp,green,ending_melody,melody,ending,c,negative,negative,ES_red,1,c,895,1007748,1008250,1008452
88,first,55,munter,IAT_yellow2.bmp,yellow,starting_scream,scream,starting,m,positive,negative,ES_red,0,c,767,1010422,1010923,1011125
88,first,56,sozial,IAT_purple3.bmp,purple,starting_melody,melody,starting,m,positive,positive,ES_red,1,m,620,1013465,1013966,1014168
88,first,57,schön,IAT_purple4.bmp,purple,starting_melody,melody,starting,m,positive,positive,ES_red,1,m,466,1015858,1016360,1016562
88,first,58,ehrlich,IAT_purple3.bmp,purple,starting_melody,melody,starting,m,positive,positive,ES_red,1,m,569,1018108,1018609,1018811
88,first,59,krank,IAT_purple2.bmp,purple,starting_melody,melody,starting,c,negative,positive,ES_red,1,c,642,1020449,1020951,1021153
88,first,60,gierig,IAT_purple1.bmp,purple,starting_melody,melody,starting,c,negative,positive,ES_red,1,c,811,1022873,1023374,1023576
88,first,61,witzig,IAT_purple1.bmp,purple,starting_melody,melody,starting,m,positive,positive,ES_red,1,m,624,1025460,1025961,1026163
88,first,62,sozial,IAT_purple1.bmp,purple,starting_melody,melody,starting,m,positive,positive,ES_red,1,m,579,1027874,1028375,1028577
88,first,63,einsam,IAT_yellow4.bmp,yellow,starting_scream,scream,starting,c,negative,negative,ES_red,1,c,609,1030228,1030729,1030931
88,first,64,streng,IAT_red3.bmp,red,ending_scream,scream,ending,c,negative,positive,ES_red,1,c,762,1032619,1033120,1033322
88,first,65,einsam,IAT_red3.bmp,red,ending_scream,scream,ending,c,negative,positive,ES_red,1,c,848,1035155,1035657,1035859
88,first,66,lästig,IAT_red2.bmp,red,ending_scream,scream,ending,c,negative,positive,ES_red,1,c,679,1037788,1038290,1038492
88,first,67,sanft,IAT_red3.bmp,red,ending_scream,scream,ending,m,positive,positive,ES_red,1,m,591,1040245,1040746,1040948
88,first,68,schön,IAT_green3.bmp,green,ending_melody,melody,ending,m,positive,negative,ES_red,1,m,497,1042627,1043128,1043330
88,first,69,lustig,IAT_yellow3.bmp,yellow,starting_scream,scream,starting,m,positive,negative,ES_red,1,m,563,1044898,1045399,1045601
88,first,70,streng,IAT_green4.bmp,green,ending_melody,melody,ending,c,negative,negative,ES_red,1,c,758,1047263,1047765,1047966
88,first,71,sanft,IAT_yellow1.bmp,yellow,starting_scream,scream,starting,m,positive,negative,ES_red,0,c,680,1049805,1050306,1050508
88,first,72,kaputt,IAT_yellow2.bmp,yellow,starting_scream,scream,starting,c,negative,negative,ES_red,1,c,682,1052762,1053263,1053465
88,first,73,lustig,IAT_green2.bmp,green,ending_melody,melody,ending,m,positive,negative,ES_red,1,m,607,1055220,1055722,1055924
88,first,74,schön,IAT_red1.bmp,red,ending_scream,scream,ending,m,positive,positive,ES_red,1,m,725,1057632,1058133,1058334
88,first,75,human,IAT_red4.bmp,red,ending_scream,scream,ending,m,positive,positive,ES_red,1,m,589,1060135,1060636,1060838
88,first,76,witzig,IAT_yellow1.bmp,yellow,starting_scream,scream,starting,m,positive,negative,ES_red,1,m,971,1062506,1063007,1063209
88,first,77,streng,IAT_purple1.bmp,purple,starting_melody,melody,starting,c,negative,positive,ES_red,0,m,793,1065260,1065761,1065963
88,first,78,munter,IAT_green4.bmp,green,ending_melody,melody,ending,m,positive,negative,ES_red,1,m,465,1068339,1068840,1069042
88,first,79,einsam,IAT_purple3.bmp,purple,starting_melody,melody,starting,c,negative,positive,ES_red,1,c,735,1070580,1071082,1071284
88,first,80,falsch,IAT_green3.bmp,green,ending_melody,melody,ending,c,negative,negative,ES_red,1,c,719,1073093,1073594,1073796
88,first,81,brutal,IAT_red4.bmp,red,ending_scream,scream,ending,c,negative,positive,ES_red,1,c,829,1075591,1076092,1076294
88,first,82,teuer,IAT_green1.bmp,green,ending_melody,melody,ending,c,negative,negative,ES_red,1,c,494,1078198,1078699,1078901
88,first,83,gierig,IAT_yellow1.bmp,yellow,starting_scream,scream,starting,c,negative,negative,ES_red,1,c,780,1080473,1080974,1081176
88,first,84,lästig,IAT_red2.bmp,red,ending_scream,scream,ending,c,negative,positive,ES_red,1,c,765,1083030,1083532,1083734
88,first,85,morsch,IAT_yellow4.bmp,yellow,starting_scream,scream,starting,c,negative,negative,ES_red,1,c,524,1085573,1086074,1086276
88,first,86,lustig,IAT_green1.bmp,green,ending_melody,melody,ending,m,positive,negative,ES_red,0,c,653,1087879,1088380,1088582
88,first,87,sonnig,IAT_yellow4.bmp,yellow,starting_scream,scream,starting,m,positive,negative,ES_red,1,m,566,1090814,1091315,1091517
88,first,88,human,IAT_purple3.bmp,purple,starting_melody,melody,starting,m,positive,positive,ES_red,1,m,540,1093160,1093661,1093863
88,first,89,gesund,IAT_purple2.bmp,purple,starting_melody,melody,starting,m,positive,positive,ES_red,1,m,752,1095476,1095977,1096179
88,first,90,krank,IAT_purple2.bmp,purple,starting_melody,melody,starting,c,negative,positive,ES_red,0,m,454,1098014,1098515,1098717
88,first,91,kaputt,IAT_yellow3.bmp,yellow,starting_scream,scream,starting,c,negative,negative,ES_red,1,c,663,1100749,1101250,1101452
88,first,92,gierig,IAT_yellow4.bmp,yellow,starting_scream,scream,starting,c,negative,negative,ES_red,1,c,559,1103189,1103690,1103892
88,first,93,morsch,IAT_green2.bmp,green,ending_melody,melody,ending,c,negative,negative,ES_red,1,c,512,1105524,1106025,1106228
88,first,94,brutal,IAT_green3.bmp,green,ending_melody,melody,ending,c,negative,negative,ES_red,1,c,577,1107811,1108312,1108514
88,first,95,munter,IAT_green1.bmp,green,ending_melody,melody,ending,m,positive,negative,ES_red,1,m,698,1110169,1110671,1110873
88,second,0,munter,IAT_yellow1.bmp,yellow,starting_scream,scream,starting,m,positive,negative,ES_red,0,None,1500,1128433,1128934,1129136
88,second,1,schön,IAT_red3.bmp,red,ending_scream,scream,ending,m,positive,positive,ES_red,1,m,495,1132229,1132730,1132932
88,second,2,human,IAT_green1.bmp,green,ending_melody,melody,ending,m,positive,negative,ES_red,1,m,520,1134507,1135009,1135211
88,second,3,einsam,IAT_red1.bmp,red,ending_scream,scream,ending,c,negative,positive,ES_red,0,m,762,1136810,1137311,1137513
88,second,4,sozial,IAT_red3.bmp,red,ending_scream,scream,ending,m,positive,positive,ES_red,0,c,949,1139871,1140372,1140574
88,second,5,kaputt,IAT_yellow3.bmp,yellow,starting_scream,scream,starting,c,negative,negative,ES_red,1,c,852,1143104,1143605,1143807
88,second,6,einsam,IAT_red3.bmp,red,ending_scream,scream,ending,c,negative,positive,ES_red,1,c,678,1145741,1146242,1146444
88,second,7,sonnig,IAT_red2.bmp,red,ending_scream,scream,ending,m,positive,positive,ES_red,1,m,594,1148193,1148694,1148896
88,second,8,brutal,IAT_purple4.bmp,purple,starting_melody,melody,starting,c,negative,positive,ES_red,1,c,521,1150571,1151072,1151274
88,second,9,geizig,IAT_purple2.bmp,purple,starting_melody,melody,starting,c,negative,positive,ES_red,0,m,366,1152870,1153371,1153573
88,second,10,lustig,IAT_purple1.bmp,purple,starting_melody,melody,starting,m,positive,positive,ES_red,1,m,605,1155512,1156013,1156214
88,second,11,morsch,IAT_yellow2.bmp,yellow,starting_scream,scream,starting,c,negative,negative,ES_red,1,c,573,1157911,1158412,1158614
88,second,12,gierig,IAT_purple4.bmp,purple,starting_melody,melody,starting,c,negative,positive,ES_red,1,c,922,1160265,1160767,1160969
88,second,13,geizig,IAT_yellow4.bmp,yellow,starting_scream,scream,starting,c,negative,negative,ES_red,1,c,489,1162970,1163471,1163673
88,second,14,schön,IAT_purple1.bmp,purple,starting_melody,melody,starting,m,positive,positive,ES_red,1,m,488,1165243,1165744,1165946
88,second,15,streng,IAT_green3.bmp,green,ending_melody,melody,ending,c,negative,negative,ES_red,1,c,600,1167532,1168033,1168235
88,second,16,krank,IAT_green4.bmp,green,ending_melody,melody,ending,c,negative,negative,ES_red,1,c,593,1169907,1170408,1170610
88,second,17,gierig,IAT_green1.bmp,green,ending_melody,melody,ending,c,negative,negative,ES_red,1,c,575,1172277,1172778,1172980
88,second,18,munter,IAT_purple1.bmp,purple,starting_melody,melody,starting,m,positive,positive,ES_red,1,m,1015,1174637,1175139,1175340
88,second,19,schön,IAT_red3.bmp,red,ending_scream,scream,ending,m,positive,positive,ES_red,1,m,536,1177419,1177920,1178122
88,second,20,lästig,IAT_green4.bmp,green,ending_melody,melody,ending,c,negative,negative,ES_red,1,c,731,1179736,1180237,1180439
88,second,21,kaputt,IAT_yellow1.bmp,yellow,starting_scream,scream,starting,c,negative,negative,ES_red,1,c,613,1182238,1182739,1182941
88,second,22,gierig,IAT_green3.bmp,green,ending_melody,melody,ending,c,negative,negative,ES_red,1,c,542,1184630,1185132,1185333
88,second,23,krank,IAT_green2.bmp,green,ending_melody,melody,ending,c,negative,negative,ES_red,1,c,503,1186989,1187490,1187692
88,second,24,kaputt,IAT_purple3.bmp,purple,starting_melody,melody,starting,c,negative,positive,ES_red,1,c,475,1189272,1189774,1189976
88,second,25,brutal,IAT_purple1.bmp,purple,starting_melody,melody,starting,c,negative,positive,ES_red,1,c,508,1191527,1192028,1192230
88,second,26,lustig,IAT_yellow3.bmp,yellow,starting_scream,scream,starting,m,positive,negative,ES_red,0,c,477,1193815,1194316,1194517
88,second,27,heiter,IAT_red1.bmp,red,ending_scream,scream,ending,m,positive,positive,ES_red,1,m,633,1196570,1197071,1197273
88,second,28,feige,IAT_purple1.bmp,purple,starting_melody,melody,starting,c,negative,positive,ES_red,1,c,672,1198980,1199481,1199682
88,second,29,morsch,IAT_green2.bmp,green,ending_melody,melody,ending,c,negative,negative,ES_red,1,c,589,1201431,1201932,1202134
88,second,30,gierig,IAT_red4.bmp,red,ending_scream,scream,ending,c,negative,positive,ES_red,1,c,539,1203801,1204302,1204504
88,second,31,gesund,IAT_green2.bmp,green,ending_melody,melody,ending,m,positive,negative,ES_red,0,c,449,1206115,1206616,1206817
88,second,32,sonnig,IAT_red3.bmp,red,ending_scream,scream,ending,m,positive,positive,ES_red,1,m,505,1208858,1209359,1209561
88,second,33,falsch,IAT_purple2.bmp,purple,starting_melody,melody,starting,c,negative,positive,ES_red,1,c,573,1211158,1211659,1211861
88,second,34,schön,IAT_yellow3.bmp,yellow,starting_scream,scream,starting,m,positive,negative,ES_red,1,m,423,1213516,1214017,1214219
88,second,35,morsch,IAT_green2.bmp,green,ending_melody,melody,ending,c,negative,negative,ES_red,1,c,561,1215715,1216216,1216417
88,second,36,lustig,IAT_yellow2.bmp,yellow,starting_scream,scream,starting,m,positive,negative,ES_red,1,m,557,1218055,1218556,1218757
88,second,37,ehrlich,IAT_purple3.bmp,purple,starting_melody,melody,starting,m,positive,positive,ES_red,1,m,555,1220392,1220893,1221095
88,second,38,brutal,IAT_yellow3.bmp,yellow,starting_scream,scream,starting,c,negative,negative,ES_red,1,c,584,1222731,1223232,1223434
88,second,39,streng,IAT_green4.bmp,green,ending_melody,melody,ending,c,negative,negative,ES_red,1,c,716,1225111,1225612,1225814
88,second,40,munter,IAT_purple3.bmp,purple,starting_melody,melody,starting,m,positive,positive,ES_red,1,m,663,1227612,1228113,1228315
88,second,41,falsch,IAT_red1.bmp,red,ending_scream,scream,ending,c,negative,positive,ES_red,1,c,780,1230055,1230556,1230758
88,second,42,human,IAT_yellow1.bmp,yellow,starting_scream,scream,starting,m,positive,negative,ES_red,1,m,530,1232641,1233142,1233344
88,second,43,lästig,IAT_purple4.bmp,purple,starting_melody,melody,starting,c,negative,positive,ES_red,1,c,704,1234948,1235449,1235650
88,second,44,ehrlich,IAT_green2.bmp,green,ending_melody,melody,ending,m,positive,negative,ES_red,1,m,493,1237430,1237932,1238134
88,second,45,feige,IAT_red2.bmp,red,ending_scream,scream,ending,c,negative,positive,ES_red,1,c,581,1239710,1240211,1240413
88,second,46,witzig,IAT_yellow3.bmp,yellow,starting_scream,scream,starting,m,positive,negative,ES_red,1,m,520,1242075,1242576,1242778
88,second,47,ehrlich,IAT_green1.bmp,green,ending_melody,melody,ending,m,positive,negative,ES_red,0,c,660,1244383,1244884,1245086
88,second,48,sanft,IAT_green3.bmp,green,ending_melody,melody,ending,m,positive,negative,ES_red,1,m,678,1247341,1247842,1248044
88,second,49,falsch,IAT_purple4.bmp,purple,starting_melody,melody,starting,c,negative,positive,ES_red,1,c,681,1249818,1250319,1250521
88,second,50,lustig,IAT_purple4.bmp,purple,starting_melody,melody,starting,m,positive,positive,ES_red,1,m,573,1252278,1252779,1252981
88,second,51,teuer,IAT_red3.bmp,red,ending_scream,scream,ending,c,negative,positive,ES_red,1,c,893,1254630,1255131,1255333
88,second,52,sanft,IAT_yellow2.bmp,yellow,starting_scream,scream,starting,m,positive,negative,ES_red,1,m,612,1257311,1257812,1258014
88,second,53,human,IAT_red1.bmp,red,ending_scream,scream,ending,m,positive,positive,ES_red,1,m,575,1259716,1260217,1260419
88,second,54,sanft,IAT_red4.bmp,red,ending_scream,scream,ending,m,positive,positive,ES_red,1,m,529,1262066,1262567,1262769
88,second,55,ehrlich,IAT_yellow1.bmp,yellow,starting_scream,scream,starting,m,positive,negative,ES_red,1,m,593,1264386,1264887,1265089
88,second,56,witzig,IAT_green3.bmp,green,ending_melody,melody,ending,m,positive,negative,ES_red,1,m,592,1266755,1267256,1267458
88,second,57,geizig,IAT_yellow2.bmp,yellow,starting_scream,scream,starting,c,negative,negative,ES_red,1,c,662,1269132,1269633,1269835
88,second,58,teuer,IAT_green4.bmp,green,ending_melody,melody,ending,c,negative,negative,ES_red,1,c,636,1271574,1272076,1272278
88,second,59,heiter,IAT_green1.bmp,green,ending_melody,melody,ending,m,positive,negative,ES_red,1,m,632,1273995,1274496,1274698
88,second,60,einsam,IAT_purple2.bmp,purple,starting_melody,melody,starting,c,negative,positive,ES_red,1,c,718,1276406,1276907,1277108
88,second,61,gerecht,IAT_yellow3.bmp,yellow,starting_scream,scream,starting,m,positive,negative,ES_red,0,c,1184,1278898,1279400,1279602
88,second,62,feige,IAT_red2.bmp,red,ending_scream,scream,ending,c,negative,positive,ES_red,1,c,772,1282367,1282868,1283070
88,second,63,einsam,IAT_red4.bmp,red,ending_scream,scream,ending,c,negative,positive,ES_red,1,c,603,1284919,1285420,1285622
88,second,64,sanft,IAT_green3.bmp,green,ending_melody,melody,ending,m,positive,negative,ES_red,1,m,590,1287301,1287802,1288004
88,second,65,sozial,IAT_purple4.bmp,purple,starting_melody,melody,starting,m,positive,positive,ES_red,1,m,654,1289669,1290170,1290372
88,second,66,lästig,IAT_red2.bmp,red,ending_scream,scream,ending,c,negative,positive,ES_red,1,c,722,1292112,1292614,1292816
88,second,67,munter,IAT_yellow4.bmp,yellow,starting_scream,scream,starting,m,positive,negative,ES_red,1,m,572,1294615,1295116,1295318
88,second,68,teuer,IAT_green2.bmp,green,ending_melody,melody,ending,c,negative,negative,ES_red,1,c,633,1296986,1297487,1297689
88,second,69,witzig,IAT_yellow1.bmp,yellow,starting_scream,scream,starting,m,positive,negative,ES_red,1,m,554,1299401,1299902,1300104
88,second,70,sozial,IAT_purple3.bmp,purple,starting_melody,melody,starting,m,positive,positive,ES_red,1,m,591,1301731,1302232,1302434
88,second,71,morsch,IAT_yellow2.bmp,yellow,starting_scream,scream,starting,c,negative,negative,ES_red,1,c,606,1304100,1304601,1304803
88,second,72,sonnig,IAT_purple2.bmp,purple,starting_melody,melody,starting,m,positive,positive,ES_red,1,m,510,1306501,1307002,1307204
88,second,73,gesund,IAT_green4.bmp,green,ending_melody,melody,ending,m,positive,negative,ES_red,1,m,663,1308796,1309297,1309499
88,second,74,human,IAT_purple3.bmp,purple,starting_melody,melody,starting,m,positive,positive,ES_red,1,m,533,1311263,1311764,1311965
88,second,75,heiter,IAT_yellow4.bmp,yellow,starting_scream,scream,starting,m,positive,negative,ES_red,1,m,447,1313572,1314073,1314275
88,second,76,krank,IAT_green1.bmp,green,ending_melody,melody,ending,c,negative,negative,ES_red,1,c,606,1315796,1316297,1316499
88,second,77,sonnig,IAT_purple1.bmp,purple,starting_melody,melody,starting,m,positive,positive,ES_red,1,m,512,1318179,1318680,1318881
88,second,78,witzig,IAT_green3.bmp,green,ending_melody,melody,ending,m,positive,negative,ES_red,1,m,540,1320470,1320971,1321173
88,second,79,kaputt,IAT_yellow4.bmp,yellow,starting_scream,scream,starting,c,negative,negative,ES_red,1,c,1154,1322800,1323301,1323503
88,second,80,gesund,IAT_red1.bmp,red,ending_scream,scream,ending,m,positive,positive,ES_red,1,m,784,1325731,1326232,1326434
88,second,81,falsch,IAT_yellow4.bmp,yellow,starting_scream,scream,starting,c,negative,negative,ES_red,0,m,456,1328299,1328800,1329002
88,second,82,streng,IAT_yellow2.bmp,yellow,starting_scream,scream,starting,c,negative,negative,ES_red,1,c,617,1331032,1331534,1331736
88,second,83,teuer,IAT_purple2.bmp,purple,starting_melody,melody,starting,c,negative,positive,ES_red,1,c,538,1333432,1333933,1334135
88,second,84,gerecht,IAT_green1.bmp,green,ending_melody,melody,ending,m,positive,negative,ES_red,0,c,656,1335746,1336247,1336449
88,second,85,lästig,IAT_red4.bmp,red,ending_scream,scream,ending,c,negative,positive,ES_red,1,c,776,1338683,1339184,1339385
88,second,86,gesund,IAT_purple2.bmp,purple,starting_melody,melody,starting,m,positive,positive,ES_red,1,m,480,1341234,1341735,1341937
88,second,87,gerecht,IAT_red2.bmp,red,ending_scream,scream,ending,m,positive,positive,ES_red,0,c,1041,1343490,1343991,1344193
88,second,88,brutal,IAT_purple3.bmp,purple,starting_melody,melody,starting,c,negative,positive,ES_red,1,c,681,1346809,1347310,1347512
88,second,89,geizig,IAT_yellow1.bmp,yellow,starting_scream,scream,starting,c,negative,negative,ES_red,1,c,541,1349285,1349786,1349988
88,second,90,heiter,IAT_red1.bmp,red,ending_scream,scream,ending,m,positive,positive,ES_red,1,m,633,1351609,1352110,1352312
88,second,91,gerecht,IAT_green4.bmp,green,ending_melody,melody,ending,m,positive,negative,ES_red,1,m,686,1354020,1354521,1354723
88,second,92,feige,IAT_red2.bmp,red,ending_scream,scream,ending,c,negative,positive,ES_red,0,m,529,1356481,1356982,1357184
88,second,93,krank,IAT_yellow4.bmp,yellow,starting_scream,scream,starting,c,negative,negative,ES_red,1,c,518,1359293,1359794,1359996
88,second,94,sozial,IAT_red4.bmp,red,ending_scream,scream,ending,m,positive,positive,ES_red,1,m,769,1361586,1362087,1362288
88,second,95,streng,IAT_red4.bmp,red,ending_scream,scream,ending,c,negative,positive,ES_red,1,c,513,1364129,1364630,1364832
