subject_nr,block,trialnr,trial_target,trial_prime,prime_color,prime_role,prime_us,prime_relation,correct_response,target_valence,prime_valence,color_counter,correct_first_response,response_first_response,response_time_first_response,fixation_show,prime_show,target_show
89,first,0,gesund,IAT_yellow3.bmp,yellow,ending_scream,scream,ending,m,positive,positive,ES_yellow,1,m,630,848018,848519,848721
89,first,1,ehrlich,IAT_red3.bmp,red,starting_melody,melody,starting,m,positive,positive,ES_yellow,1,m,544,850425,850926,851127
89,first,2,einsam,IAT_red2.bmp,red,starting_melody,melody,starting,c,negative,positive,ES_yellow,1,c,618,852748,853250,853452
89,first,3,witzig,IAT_purple3.bmp,purple,ending_melody,melody,ending,m,positive,negative,ES_yellow,1,m,582,855154,855655,855857
89,first,4,lästig,IAT_yellow4.bmp,yellow,ending_scream,scream,ending,c,negative,positive,ES_yellow,1,c,608,857512,858013,858215
89,first,5,falsch,IAT_green2.bmp,green,starting_scream,scream,starting,c,negative,negative,ES_yellow,1,c,539,859901,860402,860604
89,first,6,ehrlich,IAT_red4.bmp,red,starting_melody,melody,starting,m,positive,positive,ES_yellow,1,m,558,862218,862719,862921
89,first,7,gierig,IAT_red4.bmp,red,starting_melody,melody,starting,c,negative,positive,ES_yellow,1,c,666,864558,865059,865261
89,first,8,lustig,IAT_green3.bmp,green,starting_scream,scream,starting,m,positive,negative,ES_yellow,1,m,732,867003,867504,867706
89,first,9,sonnig,IAT_red1.bmp,red,starting_melody,melody,starting,m,positive,positive,ES_yellow,1,m,528,869511,870012,870214
89,first,10,sanft,IAT_purple4.bmp,purple,ending_melody,melody,ending,m,positive,negative,ES_yellow,1,m,734,871818,872319,872521
89,first,11,teuer,IAT_red3.bmp,red,starting_melody,melody,starting,c,negative,positive,ES_yellow,1,c,571,874333,874834,875036
89,first,12,gesund,IAT_green4.bmp,green,starting_scream,scream,starting,m,positive,negative,ES_yellow,1,m,532,876692,877193,877395
89,first,13,krank,IAT_yellow4.bmp,yellow,ending_scream,scream,ending,c,negative,positive,ES_yellow,1,c,602,879022,879523,879725
89,first,14,teuer,IAT_purple3.bmp,purple,ending_melody,melody,ending,c,negative,negative,ES_yellow,1,c,699,881405,881906,882108
89,first,15,gerecht,IAT_red3.bmp,red,starting_melody,melody,starting,m,positive,positive,ES_yellow,1,m,637,883882,884383,884585
89,first,16,sanft,IAT_green4.bmp,green,starting_scream,scream,starting,m,positive,negative,ES_yellow,1,m,508,886299,886800,887002
89,first,17,gerecht,IAT_yellow2.bmp,yellow,ending_scream,scream,ending,m,positive,positive,ES_yellow,1,m,589,888586,889087,889289
89,first,18,gesund,IAT_red4.bmp,red,starting_melody,melody,starting,m,positive,positive,ES_yellow,1,m,542,890954,891455,891657
89,first,19,feige,IAT_green4.bmp,green,starting_scream,scream,starting,c,negative,negative,ES_yellow,1,c,593,893303,893804,894006
89,first,20,sonnig,IAT_purple4.bmp,purple,ending_melody,melody,ending,m,positive,negative,ES_yellow,1,m,532,895684,896185,896387
89,first,21,gerecht,IAT_yellow4.bmp,yellow,ending_scream,scream,ending,m,positive,positive,ES_yellow,1,m,568,897999,898500,898702
89,first,22,munter,IAT_green2.bmp,green,starting_scream,scream,starting,m,positive,negative,ES_yellow,1,m,527,900345,900846,901047
89,first,23,lästig,IAT_green1.bmp,green,starting_scream,scream,starting,c,negative,negative,ES_yellow,1,c,663,902655,903157,903359
89,first,24,falsch,IAT_purple2.bmp,purple,ending_melody,melody,ending,c,negative,negative,ES_yellow,1,c,532,905091,905592,905794
89,first,25,morsch,IAT_purple3.bmp,purple,ending_melody,melody,ending,c,negative,negative,ES_yellow,1,c,586,907406,907907,908109
89,first,26,heiter,IAT_green1.bmp,green,starting_scream,scream,starting,m,positive,negative,ES_yellow,1,m,609,909783,910284,910486
89,first,27,ehrlich,IAT_green3.bmp,green,starting_scream,scream,starting,m,positive,negative,ES_yellow,1,m,513,912167,912668,912870
89,first,28,falsch,IAT_purple2.bmp,purple,ending_melody,melody,ending,c,negative,negative,ES_yellow,1,c,481,914454,914955,915157
89,first,29,heiter,IAT_red3.bmp,red,starting_melody,melody,starting,m,positive,positive,ES_yellow,1,m,519,916720,917221,917423
89,first,30,einsam,IAT_green2.bmp,green,starting_scream,scream,starting,c,negative,negative,ES_yellow,1,c,695,919024,919525,919727
89,first,31,sozial,IAT_purple2.bmp,purple,ending_melody,melody,ending,m,positive,negative,ES_yellow,1,m,568,921519,922020,922222
89,first,32,krank,IAT_yellow4.bmp,yellow,ending_scream,scream,ending,c,negative,positive,ES_yellow,1,c,492,923866,924368,924570
89,first,33,einsam,IAT_green4.bmp,green,starting_scream,scream,starting,c,negative,negative,ES_yellow,1,c,657,926151,926652,926854
89,first,34,geizig,IAT_yellow3.bmp,yellow,ending_scream,scream,ending,c,negative,positive,ES_yellow,1,c,769,928582,929083,929285
89,first,35,schön,IAT_yellow1.bmp,yellow,ending_scream,scream,ending,m,positive,positive,ES_yellow,1,m,512,931126,931628,931830
89,first,36,morsch,IAT_red4.bmp,red,starting_melody,melody,starting,c,negative,positive,ES_yellow,1,c,530,933414,933915,934116
89,first,37,human,IAT_purple3.bmp,purple,ending_melody,melody,ending,m,positive,negative,ES_yellow,1,m,658,935717,936218,936420
89,first,38,gierig,IAT_purple4.bmp,purple,ending_melody,melody,ending,c,negative,negative,ES_yellow,1,c,625,938150,938651,938853
89,first,39,sozial,IAT_red2.bmp,red,starting_melody,melody,starting,m,positive,positive,ES_yellow,1,m,497,940550,941051,941253
89,first,40,geizig,IAT_green2.bmp,green,starting_scream,scream,starting,c,negative,negative,ES_yellow,1,c,571,942829,943330,943532
89,first,41,gerecht,IAT_purple1.bmp,purple,ending_melody,melody,ending,m,positive,negative,ES_yellow,1,m,623,945208,945709,945911
89,first,42,teuer,IAT_red1.bmp,red,starting_melody,melody,starting,c,negative,positive,ES_yellow,1,c,585,947630,948131,948333
89,first,43,human,IAT_yellow1.bmp,yellow,ending_scream,scream,ending,m,positive,positive,ES_yellow,1,m,653,949994,950495,950697
89,first,44,feige,IAT_yellow1.bmp,yellow,ending_scream,scream,ending,c,negative,positive,ES_yellow,1,c,735,952455,952957,953159
89,first,45,sonnig,IAT_green1.bmp,green,starting_scream,scream,starting,m,positive,negative,ES_yellow,1,m,573,954969,955471,955673
89,first,46,teuer,IAT_green3.bmp,green,starting_scream,scream,starting,c,negative,negative,ES_yellow,1,c,561,957317,957819,958021
89,first,47,sanft,IAT_yellow3.bmp,yellow,ending_scream,scream,ending,m,positive,positive,ES_yellow,1,m,575,959657,960158,960360
89,first,48,krank,IAT_red2.bmp,red,starting_melody,melody,starting,c,negative,positive,ES_yellow,1,c,731,962012,962514,962715
89,first,49,kaputt,IAT_yellow3.bmp,yellow,ending_scream,scream,ending,c,negative,positive,ES_yellow,1,c,640,964535,965036,965238
89,first,50,streng,IAT_yellow2.bmp,yellow,ending_scream,scream,ending,c,negative,positive,ES_yellow,1,c,675,966948,967449,967651
89,first,51,schön,IAT_yellow4.bmp,yellow,ending_scream,scream,ending,m,positive,positive,ES_yellow,1,m,508,969403,969904,970106
89,first,52,witzig,IAT_purple3.bmp,purple,ending_melody,melody,ending,m,positive,negative,ES_yellow,1,m,593,971686,972187,972389
89,first,53,brutal,IAT_yellow2.bmp,yellow,ending_scream,scream,ending,c,negative,positive,ES_yellow,1,c,574,974057,974558,974760
89,first,54,morsch,IAT_yellow2.bmp,yellow,ending_scream,scream,ending,c,negative,positive,ES_yellow,1,c,619,976412,976913,977115
89,first,55,krank,IAT_purple2.bmp,purple,ending_melody,melody,ending,c,negative,negative,ES_yellow,1,c,534,978817,979318,979520
89,first,56,lästig,IAT_yellow1.bmp,yellow,ending_scream,scream,ending,c,negative,positive,ES_yellow,1,c,541,981131,981632,981833
89,first,57,human,IAT_purple1.bmp,purple,ending_melody,melody,ending,m,positive,negative,ES_yellow,1,m,550,983457,983958,984160
89,first,58,streng,IAT_green3.bmp,green,starting_scream,scream,starting,c,negative,negative,ES_yellow,1,c,499,985796,986297,986499
89,first,59,munter,IAT_purple2.bmp,purple,ending_melody,melody,ending,m,positive,negative,ES_yellow,1,m,722,988069,988570,988772
89,first,60,geizig,IAT_red4.bmp,red,starting_melody,melody,starting,c,negative,positive,ES_yellow,1,c,625,990564,991065,991267
89,first,61,feige,IAT_red4.bmp,red,starting_melody,melody,starting,c,negative,positive,ES_yellow,1,c,631,992974,993475,993677
89,first,62,gierig,IAT_red2.bmp,red,starting_melody,melody,starting,c,negative,positive,ES_yellow,1,c,828,995386,995887,996089
89,first,63,streng,IAT_green1.bmp,green,starting_scream,scream,starting,c,negative,negative,ES_yellow,1,c,731,997995,998496,998698
89,first,64,geizig,IAT_green2.bmp,green,starting_scream,scream,starting,c,negative,negative,ES_yellow,1,c,590,1000519,1001021,1001223
89,first,65,gierig,IAT_purple4.bmp,purple,ending_melody,melody,ending,c,negative,negative,ES_yellow,1,c,522,1002892,1003393,1003595
89,first,66,sozial,IAT_green1.bmp,green,starting_scream,scream,starting,m,positive,negative,ES_yellow,1,m,536,1005198,1005699,1005901
89,first,67,lästig,IAT_red1.bmp,red,starting_melody,melody,starting,c,negative,positive,ES_yellow,1,c,577,1007508,1008009,1008211
89,first,68,munter,IAT_purple1.bmp,purple,ending_melody,melody,ending,m,positive,negative,ES_yellow,1,m,556,1009881,1010382,1010584
89,first,69,lustig,IAT_red1.bmp,red,starting_melody,melody,starting,m,positive,positive,ES_yellow,1,m,508,1012218,1012719,1012921
89,first,70,gesund,IAT_red2.bmp,red,starting_melody,melody,starting,m,positive,positive,ES_yellow,1,m,489,1014525,1015027,1015229
89,first,71,streng,IAT_green4.bmp,green,starting_scream,scream,starting,c,negative,negative,ES_yellow,1,c,478,1016808,1017309,1017511
89,first,72,kaputt,IAT_red3.bmp,red,starting_melody,melody,starting,c,negative,positive,ES_yellow,1,c,607,1019063,1019564,1019766
89,first,73,sonnig,IAT_yellow3.bmp,yellow,ending_scream,scream,ending,m,positive,positive,ES_yellow,1,m,484,1021474,1021975,1022177
89,first,74,brutal,IAT_yellow2.bmp,yellow,ending_scream,scream,ending,c,negative,positive,ES_yellow,1,c,524,1023737,1024238,1024440
89,first,75,schön,IAT_purple3.bmp,purple,ending_melody,melody,ending,m,positive,negative,ES_yellow,1,m,477,1026040,1026541,1026743
89,first,76,heiter,IAT_purple1.bmp,purple,ending_melody,melody,ending,m,positive,negative,ES_yellow,1,m,575,1028294,1028795,1028997
89,first,77,feige,IAT_purple2.bmp,purple,ending_melody,melody,ending,c,negative,negative,ES_yellow,1,c,559,1030646,1031147,1031349
89,first,78,kaputt,IAT_green4.bmp,green,starting_scream,scream,starting,c,negative,negative,ES_yellow,1,c,499,1032978,1033479,1033681
89,first,79,sanft,IAT_green3.bmp,green,starting_scream,scream,starting,m,positive,negative,ES_yellow,1,m,509,1035256,1035757,1035959
89,first,80,witzig,IAT_green3.bmp,green,starting_scream,scream,starting,m,positive,negative,ES_yellow,1,m,534,1037550,1038051,1038253
89,first,81,brutal,IAT_yellow4.bmp,yellow,ending_scream,scream,ending,c,negative,positive,ES_yellow,1,c,525,1039863,1040364,1040566
89,first,82,ehrlich,IAT_yellow1.bmp,yellow,ending_scream,scream,ending,m,positive,positive,ES_yellow,1,m,455,1042173,1042674,1042876
89,first,83,heiter,IAT_yellow3.bmp,yellow,ending_scream,scream,ending,m,positive,positive,ES_yellow,1,m,510,1044406,1044907,1045109
89,first,84,munter,IAT_green1.bmp,green,starting_scream,scream,starting,m,positive,negative,ES_yellow,1,m,757,1046688,1047189,1047391
89,first,85,falsch,IAT_red2.bmp,red,starting_melody,melody,starting,c,negative,positive,ES_yellow,1,c,570,1049241,1049742,1049944
89,first,86,sozial,IAT_red3.bmp,red,starting_melody,melody,starting,m,positive,positive,ES_yellow,1,m,585,1051594,1052095,1052297
89,first,87,einsam,IAT_purple1.bmp,purple,ending_melody,melody,ending,c,negative,negative,ES_yellow,0,m,518,1053965,1054466,1054667
89,first,88,witzig,IAT_yellow1.bmp,yellow,ending_scream,scream,ending,m,positive,positive,ES_yellow,1,m,585,1056761,1057263,1057464
89,first,89,lustig,IAT_red1.bmp,red,starting_melody,melody,starting,m,positive,positive,ES_yellow,1,m,519,1059131,1059632,1059834
89,first,90,kaputt,IAT_purple1.bmp,purple,ending_melody,melody,ending,c,negative,negative,ES_yellow,1,c,619,1061447,1061948,1062150
89,first,91,brutal,IAT_purple4.bmp,purple,ending_melody,melody,ending,c,negative,negative,ES_yellow,1,c,636,1063847,1064348,1064550
89,first,92,morsch,IAT_purple4.bmp,purple,ending_melody,melody,ending,c,negative,negative,ES_yellow,1,c,570,1066265,1066766,1066968
89,first,93,human,IAT_green2.bmp,green,starting_scream,scream,starting,m,positive,negative,ES_yellow,1,m,506,1068616,1069117,1069319
89,first,94,lustig,IAT_red1.bmp,red,starting_melody,melody,starting,m,positive,positive,ES_yellow,1,m,508,1070901,1071403,1071605
89,first,95,schön,IAT_yellow2.bmp,yellow,ending_scream,scream,ending,m,positive,positive,ES_yellow,1,m,477,1073221,1073722,1073924
89,second,0,gierig,IAT_purple1.bmp,purple,ending_melody,melody,ending,c,negative,negative,ES_yellow,1,c,700,1105462,1105963,1106165
89,second,1,sozial,IAT_purple1.bmp,purple,ending_melody,melody,ending,m,positive,negative,ES_yellow,1,m,632,1107946,1108447,1108649
89,second,2,feige,IAT_red3.bmp,red,starting_melody,melody,starting,c,negative,positive,ES_yellow,0,None,1500,1110363,1110864,1111066
89,second,3,einsam,IAT_yellow2.bmp,yellow,ending_scream,scream,ending,c,negative,positive,ES_yellow,1,c,708,1114158,1114659,1114861
89,second,4,sanft,IAT_yellow4.bmp,yellow,ending_scream,scream,ending,m,positive,positive,ES_yellow,1,m,593,1116657,1117158,1117360
89,second,5,ehrlich,IAT_purple1.bmp,purple,ending_melody,melody,ending,m,positive,negative,ES_yellow,1,m,504,1119034,1119535,1119737
89,second,6,gierig,IAT_green3.bmp,green,starting_scream,scream,starting,c,negative,negative,ES_yellow,1,c,568,1121322,1121823,1122025
89,second,7,sanft,IAT_purple4.bmp,purple,ending_melody,melody,ending,m,positive,negative,ES_yellow,1,m,544,1123666,1124167,1124369
89,second,8,krank,IAT_red2.bmp,red,starting_melody,melody,starting,c,negative,positive,ES_yellow,1,c,650,1125991,1126493,1126695
89,second,9,schön,IAT_yellow1.bmp,yellow,ending_scream,scream,ending,m,positive,positive,ES_yellow,1,m,553,1128425,1128926,1129128
89,second,10,gesund,IAT_green2.bmp,green,starting_scream,scream,starting,m,positive,negative,ES_yellow,1,m,554,1130759,1131260,1131462
89,second,11,lästig,IAT_purple4.bmp,purple,ending_melody,melody,ending,c,negative,negative,ES_yellow,1,c,659,1133101,1133603,1133805
89,second,12,human,IAT_red1.bmp,red,starting_melody,melody,starting,m,positive,positive,ES_yellow,1,m,560,1135555,1136056,1136257
89,second,13,witzig,IAT_green3.bmp,green,starting_scream,scream,starting,m,positive,negative,ES_yellow,1,m,687,1137891,1138392,1138594
89,second,14,teuer,IAT_purple2.bmp,purple,ending_melody,melody,ending,c,negative,negative,ES_yellow,1,c,514,1140351,1140853,1141055
89,second,15,schön,IAT_yellow3.bmp,yellow,ending_scream,scream,ending,m,positive,positive,ES_yellow,1,m,456,1142650,1143151,1143353
89,second,16,brutal,IAT_red4.bmp,red,starting_melody,melody,starting,c,negative,positive,ES_yellow,1,c,587,1144902,1145404,1145606
89,second,17,gerecht,IAT_purple3.bmp,purple,ending_melody,melody,ending,m,positive,negative,ES_yellow,1,m,683,1147271,1147772,1147973
89,second,18,geizig,IAT_red4.bmp,red,starting_melody,melody,starting,c,negative,positive,ES_yellow,1,c,577,1149744,1150245,1150447
89,second,19,gierig,IAT_yellow3.bmp,yellow,ending_scream,scream,ending,c,negative,positive,ES_yellow,1,c,571,1152104,1152605,1152806
89,second,20,morsch,IAT_purple2.bmp,purple,ending_melody,melody,ending,c,negative,negative,ES_yellow,1,c,638,1154452,1154953,1155155
89,second,21,witzig,IAT_purple3.bmp,purple,ending_melody,melody,ending,m,positive,negative,ES_yellow,1,m,588,1156871,1157372,1157573
89,second,22,munter,IAT_red1.bmp,red,starting_melody,melody,starting,m,positive,positive,ES_yellow,1,m,618,1159240,1159742,1159944
89,second,23,sonnig,IAT_red2.bmp,red,starting_melody,melody,starting,m,positive,positive,ES_yellow,1,m,549,1161661,1162162,1162364
89,second,24,kaputt,IAT_green2.bmp,green,starting_scream,scream,starting,c,negative,negative,ES_yellow,1,c,556,1163989,1164490,1164692
89,second,25,sozial,IAT_purple2.bmp,purple,ending_melody,melody,ending,m,positive,negative,ES_yellow,1,m,571,1166326,1166827,1167029
89,second,26,munter,IAT_red3.bmp,red,starting_melody,melody,starting,m,positive,positive,ES_yellow,1,m,499,1168670,1169171,1169373
89,second,27,witzig,IAT_red3.bmp,red,starting_melody,melody,starting,m,positive,positive,ES_yellow,1,m,493,1170949,1171450,1171652
89,second,28,teuer,IAT_yellow4.bmp,yellow,ending_scream,scream,ending,c,negative,positive,ES_yellow,1,c,573,1173221,1173722,1173924
89,second,29,morsch,IAT_green1.bmp,green,starting_scream,scream,starting,c,negative,negative,ES_yellow,1,c,534,1175580,1176081,1176283
89,second,30,sozial,IAT_yellow1.bmp,yellow,ending_scream,scream,ending,m,positive,positive,ES_yellow,1,m,622,1177923,1178424,1178626
89,second,31,gierig,IAT_green3.bmp,green,starting_scream,scream,starting,c,negative,negative,ES_yellow,1,c,553,1180328,1180829,1181031
89,second,32,witzig,IAT_green1.bmp,green,starting_scream,scream,starting,m,positive,negative,ES_yellow,1,m,583,1182666,1183167,1183369
89,second,33,streng,IAT_purple3.bmp,purple,ending_melody,melody,ending,c,negative,negative,ES_yellow,1,c,547,1185021,1185522,1185724
89,second,34,kaputt,IAT_red4.bmp,red,starting_melody,melody,starting,c,negative,positive,ES_yellow,1,c,859,1187350,1187851,1188053
89,second,35,teuer,IAT_green4.bmp,green,starting_scream,scream,starting,c,negative,negative,ES_yellow,1,c,608,1190001,1190502,1190704
89,second,36,falsch,IAT_yellow3.bmp,yellow,ending_scream,scream,ending,c,negative,positive,ES_yellow,1,c,570,1192391,1192892,1193094
89,second,37,lustig,IAT_green1.bmp,green,starting_scream,scream,starting,m,positive,negative,ES_yellow,1,m,544,1194736,1195237,1195439
89,second,38,brutal,IAT_yellow4.bmp,yellow,ending_scream,scream,ending,c,negative,positive,ES_yellow,1,c,565,1197066,1197568,1197770
89,second,39,gerecht,IAT_yellow1.bmp,yellow,ending_scream,scream,ending,m,positive,positive,ES_yellow,1,m,605,1199411,1199912,1200114
89,second,40,sozial,IAT_yellow1.bmp,yellow,ending_scream,scream,ending,m,positive,positive,ES_yellow,1,m,545,1201792,1202293,1202494
89,second,41,falsch,IAT_yellow1.bmp,yellow,ending_scream,scream,ending,c,negative,positive,ES_yellow,1,c,493,1204116,1204617,1204819
89,second,42,human,IAT_yellow2.bmp,yellow,ending_scream,scream,ending,m,positive,positive,ES_yellow,1,m,489,1206408,1206909,1207111
89,second,43,ehrlich,IAT_purple2.bmp,purple,ending_melody,melody,ending,m,positive,negative,ES_yellow,1,m,506,1208678,1209179,1209381
89,second,44,streng,IAT_green2.bmp,green,starting_scream,scream,starting,c,negative,negative,ES_yellow,1,c,507,1210964,1211466,1211668
89,second,45,human,IAT_yellow4.bmp,yellow,ending_scream,scream,ending,m,positive,positive,ES_yellow,1,m,447,1213249,1213750,1213952
89,second,46,gesund,IAT_yellow3.bmp,yellow,ending_scream,scream,ending,m,positive,positive,ES_yellow,1,m,597,1215498,1216000,1216202
89,second,47,lästig,IAT_yellow2.bmp,yellow,ending_scream,scream,ending,c,negative,positive,ES_yellow,1,c,584,1217880,1218381,1218583
89,second,48,morsch,IAT_green1.bmp,green,starting_scream,scream,starting,c,negative,negative,ES_yellow,1,c,597,1220267,1220768,1220970
89,second,49,schön,IAT_red1.bmp,red,starting_melody,melody,starting,m,positive,positive,ES_yellow,1,m,482,1222638,1223140,1223342
89,second,50,munter,IAT_green3.bmp,green,starting_scream,scream,starting,m,positive,negative,ES_yellow,1,m,498,1224894,1225395,1225597
89,second,51,krank,IAT_purple4.bmp,purple,ending_melody,melody,ending,c,negative,negative,ES_yellow,1,c,462,1227169,1227671,1227873
89,second,52,lustig,IAT_purple4.bmp,purple,ending_melody,melody,ending,m,positive,negative,ES_yellow,1,m,497,1229423,1229924,1230126
89,second,53,einsam,IAT_red2.bmp,red,starting_melody,melody,starting,c,negative,positive,ES_yellow,1,c,522,1231702,1232203,1232405
89,second,54,kaputt,IAT_green4.bmp,green,starting_scream,scream,starting,c,negative,negative,ES_yellow,1,c,587,1234005,1234506,1234708
89,second,55,streng,IAT_purple4.bmp,purple,ending_melody,melody,ending,c,negative,negative,ES_yellow,1,c,701,1236372,1236873,1237074
89,second,56,geizig,IAT_yellow4.bmp,yellow,ending_scream,scream,ending,c,negative,positive,ES_yellow,1,c,587,1238854,1239355,1239557
89,second,57,streng,IAT_red1.bmp,red,starting_melody,melody,starting,c,negative,positive,ES_yellow,1,c,522,1241239,1241740,1241941
89,second,58,sonnig,IAT_purple3.bmp,purple,ending_melody,melody,ending,m,positive,negative,ES_yellow,1,m,493,1243555,1244056,1244258
89,second,59,heiter,IAT_purple3.bmp,purple,ending_melody,melody,ending,m,positive,negative,ES_yellow,1,m,458,1245830,1246331,1246533
89,second,60,krank,IAT_red2.bmp,red,starting_melody,melody,starting,c,negative,positive,ES_yellow,0,m,492,1248068,1248569,1248771
89,second,61,gesund,IAT_purple1.bmp,purple,ending_melody,melody,ending,m,positive,negative,ES_yellow,1,m,504,1250840,1251341,1251543
89,second,62,teuer,IAT_green4.bmp,green,starting_scream,scream,starting,c,negative,negative,ES_yellow,1,c,498,1253118,1253619,1253821
89,second,63,lustig,IAT_green4.bmp,green,starting_scream,scream,starting,m,positive,negative,ES_yellow,1,m,526,1255393,1255894,1256096
89,second,64,sonnig,IAT_green4.bmp,green,starting_scream,scream,starting,m,positive,negative,ES_yellow,1,m,488,1257704,1258205,1258407
89,second,65,lästig,IAT_red1.bmp,red,starting_melody,melody,starting,c,negative,positive,ES_yellow,1,c,490,1259974,1260475,1260677
89,second,66,schön,IAT_purple1.bmp,purple,ending_melody,melody,ending,m,positive,negative,ES_yellow,1,m,460,1262244,1262745,1262947
89,second,67,feige,IAT_yellow2.bmp,yellow,ending_scream,scream,ending,c,negative,positive,ES_yellow,1,c,462,1264482,1264983,1265185
89,second,68,lustig,IAT_green1.bmp,green,starting_scream,scream,starting,m,positive,negative,ES_yellow,1,m,425,1266727,1267228,1267430
89,second,69,sanft,IAT_yellow2.bmp,yellow,ending_scream,scream,ending,m,positive,positive,ES_yellow,1,m,463,1268929,1269430,1269632
89,second,70,krank,IAT_yellow4.bmp,yellow,ending_scream,scream,ending,c,negative,positive,ES_yellow,1,c,490,1271173,1271674,1271876
89,second,71,gesund,IAT_red2.bmp,red,starting_melody,melody,starting,m,positive,positive,ES_yellow,1,m,471,1273448,1273949,1274151
89,second,72,feige,IAT_purple4.bmp,purple,ending_melody,melody,ending,c,negative,negative,ES_yellow,1,c,520,1275703,1276205,1276407
89,second,73,falsch,IAT_yellow1.bmp,yellow,ending_scream,scream,ending,c,negative,positive,ES_yellow,1,c,551,1278009,1278510,1278712
89,second,74,sanft,IAT_red4.bmp,red,starting_melody,melody,starting,m,positive,positive,ES_yellow,1,m,482,1280366,1280867,1281069
89,second,75,heiter,IAT_red1.bmp,red,starting_melody,melody,starting,m,positive,positive,ES_yellow,0,c,476,1282627,1283129,1283331
89,second,76,einsam,IAT_purple2.bmp,purple,ending_melody,melody,ending,c,negative,negative,ES_yellow,1,c,563,1285388,1285890,1286092
89,second,77,gerecht,IAT_green3.bmp,green,starting_scream,scream,starting,m,positive,negative,ES_yellow,1,m,668,1287731,1288232,1288434
89,second,78,brutal,IAT_red3.bmp,red,starting_melody,melody,starting,c,negative,positive,ES_yellow,1,c,615,1290200,1290701,1290903
89,second,79,ehrlich,IAT_green1.bmp,green,starting_scream,scream,starting,m,positive,negative,ES_yellow,1,m,574,1292594,1293095,1293297
89,second,80,geizig,IAT_green4.bmp,green,starting_scream,scream,starting,c,negative,negative,ES_yellow,1,c,548,1294940,1295441,1295643
89,second,81,gerecht,IAT_yellow3.bmp,yellow,ending_scream,scream,ending,m,positive,positive,ES_yellow,1,m,634,1297271,1297772,1297973
89,second,82,human,IAT_red3.bmp,red,starting_melody,melody,starting,m,positive,positive,ES_yellow,1,m,547,1299709,1300210,1300412
89,second,83,feige,IAT_purple3.bmp,purple,ending_melody,melody,ending,c,negative,negative,ES_yellow,0,m,521,1302038,1302540,1302741
89,second,84,kaputt,IAT_yellow2.bmp,yellow,ending_scream,scream,ending,c,negative,positive,ES_yellow,1,c,872,1304839,1305340,1305542
89,second,85,lästig,IAT_red2.bmp,red,starting_melody,melody,starting,c,negative,positive,ES_yellow,1,c,679,1307496,1307997,1308199
89,second,86,heiter,IAT_yellow3.bmp,yellow,ending_scream,scream,ending,m,positive,positive,ES_yellow,1,m,715,1309956,1310458,1310660
89,second,87,ehrlich,IAT_green3.bmp,green,starting_scream,scream,starting,m,positive,negative,ES_yellow,1,m,568,1312456,1312957,1313159
89,second,88,morsch,IAT_red4.bmp,red,starting_melody,melody,starting,c,negative,positive,ES_yellow,1,c,539,1314805,1315306,1315508
89,second,89,sonnig,IAT_green2.bmp,green,starting_scream,scream,starting,m,positive,negative,ES_yellow,1,m,518,1317130,1317631,1317833
89,second,90,falsch,IAT_green2.bmp,green,starting_scream,scream,starting,c,negative,negative,ES_yellow,1,c,564,1319420,1319921,1320123
89,second,91,munter,IAT_red4.bmp,red,starting_melody,melody,starting,m,positive,positive,ES_yellow,1,m,562,1321774,1322275,1322476
89,second,92,brutal,IAT_purple2.bmp,purple,ending_melody,melody,ending,c,negative,negative,ES_yellow,1,c,621,1324129,1324631,1324833
89,second,93,heiter,IAT_red3.bmp,red,starting_melody,melody,starting,m,positive,positive,ES_yellow,1,m,607,1326529,1327030,1327232
89,second,94,einsam,IAT_purple1.bmp,purple,ending_melody,melody,ending,c,negative,negative,ES_yellow,1,c,564,1328923,1329425,1329627
89,second,95,geizig,IAT_green2.bmp,green,starting_scream,scream,starting,c,negative,negative,ES_yellow,1,c,667,1331269,1331770,1331972
