subject_nr,block,trialnr,trial_target,trial_prime,prime_color,prime_role,prime_us,prime_relation,correct_response,target_valence,prime_valence,color_counter,correct_first_response,response_first_response,response_time_first_response,fixation_show,prime_show,target_show
91,first,0,brutal,IAT_purple2.bmp,purple,ending_melody,melody,ending,c,negative,negative,ES_yellow,1,c,660,861979,862481,862683
91,first,1,lästig,IAT_yellow4.bmp,yellow,ending_scream,scream,ending,c,negative,positive,ES_yellow,1,c,522,864421,864923,865125
91,first,2,streng,IAT_purple2.bmp,purple,ending_melody,melody,ending,c,negative,negative,ES_yellow,1,c,470,866730,867231,867433
91,first,3,munter,IAT_green4.bmp,green,starting_scream,scream,starting,m,positive,negative,ES_yellow,1,m,587,868982,869483,869684
91,first,4,geizig,IAT_purple1.bmp,purple,ending_melody,melody,ending,c,negative,negative,ES_yellow,1,c,560,871360,871861,872063
91,first,5,krank,IAT_purple4.bmp,purple,ending_melody,melody,ending,c,negative,negative,ES_yellow,1,c,492,873699,874201,874403
91,first,6,human,IAT_purple2.bmp,purple,ending_melody,melody,ending,m,positive,negative,ES_yellow,0,c,528,875984,876485,876687
91,first,7,kaputt,IAT_purple4.bmp,purple,ending_melody,melody,ending,c,negative,negative,ES_yellow,1,c,628,878796,879297,879499
91,first,8,lustig,IAT_purple4.bmp,purple,ending_melody,melody,ending,m,positive,negative,ES_yellow,1,m,513,881199,881700,881902
91,first,9,witzig,IAT_green3.bmp,green,starting_scream,scream,starting,m,positive,negative,ES_yellow,1,m,499,883501,884002,884204
91,first,10,sanft,IAT_green3.bmp,green,starting_scream,scream,starting,m,positive,negative,ES_yellow,1,m,604,885781,886282,886483
91,first,11,heiter,IAT_purple3.bmp,purple,ending_melody,melody,ending,m,positive,negative,ES_yellow,1,m,511,888162,888663,888864
91,first,12,streng,IAT_red2.bmp,red,starting_melody,melody,starting,c,negative,positive,ES_yellow,1,c,624,890447,890949,891151
91,first,13,kaputt,IAT_purple4.bmp,purple,ending_melody,melody,ending,c,negative,negative,ES_yellow,1,c,639,892849,893350,893552
91,first,14,sozial,IAT_green1.bmp,green,starting_scream,scream,starting,m,positive,negative,ES_yellow,1,m,495,895265,895766,895968
91,first,15,sanft,IAT_yellow1.bmp,yellow,ending_scream,scream,ending,m,positive,positive,ES_yellow,1,m,490,897543,898044,898245
91,first,16,teuer,IAT_red2.bmp,red,starting_melody,melody,starting,c,negative,positive,ES_yellow,1,c,738,899806,900307,900509
91,first,17,lästig,IAT_red4.bmp,red,starting_melody,melody,starting,c,negative,positive,ES_yellow,1,c,770,902334,902835,903036
91,first,18,geizig,IAT_green4.bmp,green,starting_scream,scream,starting,c,negative,negative,ES_yellow,1,c,668,904884,905385,905587
91,first,19,sozial,IAT_red2.bmp,red,starting_melody,melody,starting,m,positive,positive,ES_yellow,1,m,575,907361,907862,908064
91,first,20,feige,IAT_red3.bmp,red,starting_melody,melody,starting,c,negative,positive,ES_yellow,1,c,716,909717,910218,910419
91,first,21,teuer,IAT_red4.bmp,red,starting_melody,melody,starting,c,negative,positive,ES_yellow,1,c,690,912222,912724,912925
91,first,22,munter,IAT_yellow1.bmp,yellow,ending_scream,scream,ending,m,positive,positive,ES_yellow,1,m,509,914691,915192,915394
91,first,23,geizig,IAT_yellow3.bmp,yellow,ending_scream,scream,ending,c,negative,positive,ES_yellow,1,c,571,916981,917482,917684
91,first,24,lustig,IAT_red3.bmp,red,starting_melody,melody,starting,m,positive,positive,ES_yellow,1,m,508,919331,919832,920034
91,first,25,gesund,IAT_red1.bmp,red,starting_melody,melody,starting,m,positive,positive,ES_yellow,1,m,467,921612,922113,922315
91,first,26,ehrlich,IAT_purple1.bmp,purple,ending_melody,melody,ending,m,positive,negative,ES_yellow,1,m,477,923859,924360,924562
91,first,27,sonnig,IAT_red2.bmp,red,starting_melody,melody,starting,m,positive,positive,ES_yellow,1,m,578,926110,926611,926813
91,first,28,human,IAT_green1.bmp,green,starting_scream,scream,starting,m,positive,negative,ES_yellow,1,m,568,928472,928974,929175
91,first,29,lästig,IAT_red1.bmp,red,starting_melody,melody,starting,c,negative,positive,ES_yellow,1,c,543,930817,931318,931520
91,first,30,gerecht,IAT_red3.bmp,red,starting_melody,melody,starting,m,positive,positive,ES_yellow,1,m,623,933138,933639,933840
91,first,31,heiter,IAT_green2.bmp,green,starting_scream,scream,starting,m,positive,negative,ES_yellow,1,m,695,935544,936045,936247
91,first,32,streng,IAT_yellow4.bmp,yellow,ending_scream,scream,ending,c,negative,positive,ES_yellow,1,c,859,938019,938521,938723
91,first,33,gesund,IAT_purple3.bmp,purple,ending_melody,melody,ending,m,positive,negative,ES_yellow,1,m,528,940656,941157,941359
91,first,34,gerecht,IAT_green3.bmp,green,starting_scream,scream,starting,m,positive,negative,ES_yellow,1,m,494,942962,943463,943665
91,first,35,lustig,IAT_red1.bmp,red,starting_melody,melody,starting,m,positive,positive,ES_yellow,1,m,584,945240,945741,945943
91,first,36,human,IAT_green4.bmp,green,starting_scream,scream,starting,m,positive,negative,ES_yellow,1,m,538,947606,948107,948309
91,first,37,ehrlich,IAT_purple1.bmp,purple,ending_melody,melody,ending,m,positive,negative,ES_yellow,1,m,634,949925,950426,950628
91,first,38,human,IAT_purple3.bmp,purple,ending_melody,melody,ending,m,positive,negative,ES_yellow,1,m,551,952344,952845,953047
91,first,39,sonnig,IAT_purple2.bmp,purple,ending_melody,melody,ending,m,positive,negative,ES_yellow,1,m,483,954683,955185,955387
91,first,40,lästig,IAT_red2.bmp,red,starting_melody,melody,starting,c,negative,positive,ES_yellow,1,c,1103,956945,957446,957648
91,first,41,krank,IAT_yellow4.bmp,yellow,ending_scream,scream,ending,c,negative,positive,ES_yellow,0,None,1500,959827,960329,960531
91,first,42,feige,IAT_green2.bmp,green,starting_scream,scream,starting,c,negative,negative,ES_yellow,1,c,649,963606,964107,964309
91,first,43,kaputt,IAT_yellow2.bmp,yellow,ending_scream,scream,ending,c,negative,positive,ES_yellow,1,c,736,966032,966533,966734
91,first,44,falsch,IAT_purple4.bmp,purple,ending_melody,melody,ending,c,negative,negative,ES_yellow,1,c,586,968549,969050,969252
91,first,45,teuer,IAT_yellow4.bmp,yellow,ending_scream,scream,ending,c,negative,positive,ES_yellow,1,c,818,970942,971443,971644
91,first,46,munter,IAT_purple3.bmp,purple,ending_melody,melody,ending,m,positive,negative,ES_yellow,1,m,577,973550,974051,974253
91,first,47,morsch,IAT_green4.bmp,green,starting_scream,scream,starting,c,negative,negative,ES_yellow,1,c,556,975908,976409,976611
91,first,48,gierig,IAT_red2.bmp,red,starting_melody,melody,starting,c,negative,positive,ES_yellow,1,c,561,978255,978756,978958
91,first,49,schön,IAT_purple1.bmp,purple,ending_melody,melody,ending,m,positive,negative,ES_yellow,1,m,562,980605,981106,981308
91,first,50,geizig,IAT_purple2.bmp,purple,ending_melody,melody,ending,c,negative,negative,ES_yellow,1,c,586,982949,983450,983652
91,first,51,heiter,IAT_yellow1.bmp,yellow,ending_scream,scream,ending,m,positive,positive,ES_yellow,1,m,841,985317,985819,986021
91,first,52,lustig,IAT_red4.bmp,red,starting_melody,melody,starting,m,positive,positive,ES_yellow,1,m,492,987938,988440,988642
91,first,53,kaputt,IAT_green1.bmp,green,starting_scream,scream,starting,c,negative,negative,ES_yellow,1,c,559,990224,990725,990927
91,first,54,ehrlich,IAT_green2.bmp,green,starting_scream,scream,starting,m,positive,negative,ES_yellow,1,m,575,992561,993062,993264
91,first,55,gierig,IAT_yellow3.bmp,yellow,ending_scream,scream,ending,c,negative,positive,ES_yellow,1,c,623,994913,995414,995616
91,first,56,einsam,IAT_green3.bmp,green,starting_scream,scream,starting,c,negative,negative,ES_yellow,1,c,1052,997315,997816,998018
91,first,57,falsch,IAT_purple2.bmp,purple,ending_melody,melody,ending,c,negative,negative,ES_yellow,1,c,877,1000146,1000647,1000849
91,first,58,witzig,IAT_red4.bmp,red,starting_melody,melody,starting,m,positive,positive,ES_yellow,1,m,619,1002804,1003305,1003507
91,first,59,ehrlich,IAT_yellow4.bmp,yellow,ending_scream,scream,ending,m,positive,positive,ES_yellow,1,m,617,1005206,1005707,1005909
91,first,60,sonnig,IAT_green1.bmp,green,starting_scream,scream,starting,m,positive,negative,ES_yellow,1,m,552,1007607,1008108,1008310
91,first,61,witzig,IAT_yellow2.bmp,yellow,ending_scream,scream,ending,m,positive,positive,ES_yellow,1,m,644,1009932,1010433,1010635
91,first,62,gesund,IAT_red3.bmp,red,starting_melody,melody,starting,m,positive,positive,ES_yellow,1,m,506,1012357,1012858,1013060
91,first,63,sozial,IAT_yellow4.bmp,yellow,ending_scream,scream,ending,m,positive,positive,ES_yellow,1,m,624,1014655,1015156,1015358
91,first,64,einsam,IAT_purple1.bmp,purple,ending_melody,melody,ending,c,negative,negative,ES_yellow,1,c,568,1017063,1017564,1017766
91,first,65,heiter,IAT_green1.bmp,green,starting_scream,scream,starting,m,positive,negative,ES_yellow,1,m,522,1019413,1019914,1020116
91,first,66,morsch,IAT_green4.bmp,green,starting_scream,scream,starting,c,negative,negative,ES_yellow,1,c,796,1021715,1022216,1022418
91,first,67,sonnig,IAT_yellow3.bmp,yellow,ending_scream,scream,ending,m,positive,positive,ES_yellow,1,m,448,1024303,1024804,1025006
91,first,68,krank,IAT_red3.bmp,red,starting_melody,melody,starting,c,negative,positive,ES_yellow,1,c,729,1026535,1027037,1027238
91,first,69,falsch,IAT_green2.bmp,green,starting_scream,scream,starting,c,negative,negative,ES_yellow,1,c,707,1029051,1029553,1029755
91,first,70,gerecht,IAT_yellow1.bmp,yellow,ending_scream,scream,ending,m,positive,positive,ES_yellow,0,c,1435,1031572,1032073,1032275
91,first,71,einsam,IAT_green4.bmp,green,starting_scream,scream,starting,c,negative,negative,ES_yellow,1,c,605,1035282,1035783,1035985
91,first,72,brutal,IAT_red4.bmp,red,starting_melody,melody,starting,c,negative,positive,ES_yellow,1,c,635,1037668,1038169,1038371
91,first,73,falsch,IAT_green3.bmp,green,starting_scream,scream,starting,c,negative,negative,ES_yellow,1,c,651,1040084,1040585,1040787
91,first,74,schön,IAT_green3.bmp,green,starting_scream,scream,starting,m,positive,negative,ES_yellow,1,m,629,1042522,1043023,1043224
91,first,75,morsch,IAT_yellow1.bmp,yellow,ending_scream,scream,ending,c,negative,positive,ES_yellow,1,c,649,1044934,1045435,1045637
91,first,76,gesund,IAT_yellow3.bmp,yellow,ending_scream,scream,ending,m,positive,positive,ES_yellow,1,m,1230,1047377,1047878,1048080
91,first,77,feige,IAT_green1.bmp,green,starting_scream,scream,starting,c,negative,negative,ES_yellow,1,c,632,1050391,1050892,1051094
91,first,78,brutal,IAT_green2.bmp,green,starting_scream,scream,starting,c,negative,negative,ES_yellow,1,c,640,1052799,1053300,1053502
91,first,79,schön,IAT_purple4.bmp,purple,ending_melody,melody,ending,m,positive,negative,ES_yellow,1,m,462,1055233,1055734,1055936
91,first,80,teuer,IAT_yellow2.bmp,yellow,ending_scream,scream,ending,c,negative,positive,ES_yellow,1,c,693,1057482,1057983,1058185
91,first,81,sozial,IAT_red1.bmp,red,starting_melody,melody,starting,m,positive,positive,ES_yellow,1,m,684,1059970,1060471,1060673
91,first,82,schön,IAT_red3.bmp,red,starting_melody,melody,starting,m,positive,positive,ES_yellow,1,m,1002,1062454,1062955,1063156
91,first,83,krank,IAT_purple3.bmp,purple,ending_melody,melody,ending,c,negative,negative,ES_yellow,1,c,731,1065252,1065753,1065955
91,first,84,sanft,IAT_red1.bmp,red,starting_melody,melody,starting,m,positive,positive,ES_yellow,1,m,1086,1067762,1068263,1068464
91,first,85,gierig,IAT_yellow2.bmp,yellow,ending_scream,scream,ending,c,negative,positive,ES_yellow,1,c,1327,1070621,1071122,1071324
91,first,86,einsam,IAT_yellow1.bmp,yellow,ending_scream,scream,ending,c,negative,positive,ES_yellow,1,c,1243,1073732,1074233,1074434
91,first,87,gierig,IAT_red1.bmp,red,starting_melody,melody,starting,c,negative,positive,ES_yellow,1,c,604,1076770,1077271,1077473
91,first,88,witzig,IAT_yellow2.bmp,yellow,ending_scream,scream,ending,m,positive,positive,ES_yellow,1,m,1301,1079162,1079664,1079865
91,first,89,brutal,IAT_red4.bmp,red,starting_melody,melody,starting,c,negative,positive,ES_yellow,1,c,601,1082246,1082747,1082949
91,first,90,morsch,IAT_purple3.bmp,purple,ending_melody,melody,ending,c,negative,negative,ES_yellow,1,c,572,1084627,1085128,1085330
91,first,91,feige,IAT_green2.bmp,green,starting_scream,scream,starting,c,negative,negative,ES_yellow,1,c,567,1086983,1087485,1087687
91,first,92,munter,IAT_purple1.bmp,purple,ending_melody,melody,ending,m,positive,negative,ES_yellow,1,m,585,1089333,1089834,1090036
91,first,93,gerecht,IAT_yellow3.bmp,yellow,ending_scream,scream,ending,m,positive,positive,ES_yellow,1,m,525,1091697,1092198,1092400
91,first,94,streng,IAT_yellow2.bmp,yellow,ending_scream,scream,ending,c,negative,positive,ES_yellow,1,c,558,1094015,1094517,1094719
91,first,95,sanft,IAT_yellow3.bmp,yellow,ending_scream,scream,ending,m,positive,positive,ES_yellow,1,m,491,1096371,1096872,1097074
91,second,0,gerecht,IAT_red2.bmp,red,starting_melody,melody,starting,m,positive,positive,ES_yellow,1,m,657,1107293,1107794,1107996
91,second,1,feige,IAT_green2.bmp,green,starting_scream,scream,starting,c,negative,negative,ES_yellow,1,c,475,1109730,1110232,1110434
91,second,2,streng,IAT_green4.bmp,green,starting_scream,scream,starting,c,negative,negative,ES_yellow,1,c,526,1111983,1112485,1112687
91,second,3,kaputt,IAT_red4.bmp,red,starting_melody,melody,starting,c,negative,positive,ES_yellow,0,m,605,1114290,1114791,1114993
91,second,4,schön,IAT_yellow3.bmp,yellow,ending_scream,scream,ending,m,positive,positive,ES_yellow,1,m,762,1117173,1117674,1117876
91,second,5,krank,IAT_green4.bmp,green,starting_scream,scream,starting,c,negative,negative,ES_yellow,1,c,1045,1119738,1120239,1120441
91,second,6,ehrlich,IAT_red3.bmp,red,starting_melody,melody,starting,m,positive,positive,ES_yellow,1,m,600,1122566,1123067,1123269
91,second,7,geizig,IAT_yellow3.bmp,yellow,ending_scream,scream,ending,c,negative,positive,ES_yellow,0,m,1339,1124947,1125448,1125650
91,second,8,feige,IAT_yellow2.bmp,yellow,ending_scream,scream,ending,c,negative,positive,ES_yellow,1,c,635,1128563,1129064,1129266
91,second,9,kaputt,IAT_purple4.bmp,purple,ending_melody,melody,ending,c,negative,negative,ES_yellow,1,c,764,1130978,1131479,1131681
91,second,10,heiter,IAT_purple1.bmp,purple,ending_melody,melody,ending,m,positive,negative,ES_yellow,1,m,635,1133522,1134023,1134227
91,second,11,munter,IAT_purple3.bmp,purple,ending_melody,melody,ending,m,positive,negative,ES_yellow,1,m,629,1135946,1136447,1136649
91,second,12,lustig,IAT_yellow1.bmp,yellow,ending_scream,scream,ending,m,positive,positive,ES_yellow,1,m,957,1138354,1138855,1139056
91,second,13,heiter,IAT_yellow3.bmp,yellow,ending_scream,scream,ending,m,positive,positive,ES_yellow,1,m,635,1141091,1141592,1141794
91,second,14,geizig,IAT_yellow3.bmp,yellow,ending_scream,scream,ending,c,negative,positive,ES_yellow,1,c,602,1143508,1144009,1144211
91,second,15,sonnig,IAT_purple3.bmp,purple,ending_melody,melody,ending,m,positive,negative,ES_yellow,1,m,603,1145891,1146392,1146594
91,second,16,morsch,IAT_green3.bmp,green,starting_scream,scream,starting,c,negative,negative,ES_yellow,1,c,665,1148277,1148778,1148980
91,second,17,gierig,IAT_green1.bmp,green,starting_scream,scream,starting,c,negative,negative,ES_yellow,1,c,648,1150743,1151245,1151446
91,second,18,sanft,IAT_purple1.bmp,purple,ending_melody,melody,ending,m,positive,negative,ES_yellow,1,m,629,1153177,1153678,1153880
91,second,19,sonnig,IAT_purple1.bmp,purple,ending_melody,melody,ending,m,positive,negative,ES_yellow,1,m,926,1155583,1156085,1156287
91,second,20,brutal,IAT_red4.bmp,red,starting_melody,melody,starting,c,negative,positive,ES_yellow,1,c,769,1158286,1158787,1158988
91,second,21,kaputt,IAT_yellow4.bmp,yellow,ending_scream,scream,ending,c,negative,positive,ES_yellow,1,c,1195,1160835,1161336,1161538
91,second,22,heiter,IAT_yellow1.bmp,yellow,ending_scream,scream,ending,m,positive,positive,ES_yellow,1,m,739,1163819,1164320,1164522
91,second,23,human,IAT_purple3.bmp,purple,ending_melody,melody,ending,m,positive,negative,ES_yellow,1,m,705,1166366,1166867,1167069
91,second,24,teuer,IAT_green1.bmp,green,starting_scream,scream,starting,c,negative,negative,ES_yellow,1,c,651,1168851,1169353,1169555
91,second,25,sanft,IAT_green3.bmp,green,starting_scream,scream,starting,m,positive,negative,ES_yellow,1,m,651,1171299,1171800,1172002
91,second,26,sonnig,IAT_red3.bmp,red,starting_melody,melody,starting,m,positive,positive,ES_yellow,1,m,557,1173729,1174230,1174432
91,second,27,schön,IAT_green2.bmp,green,starting_scream,scream,starting,m,positive,negative,ES_yellow,1,m,514,1176076,1176577,1176779
91,second,28,ehrlich,IAT_red1.bmp,red,starting_melody,melody,starting,m,positive,positive,ES_yellow,1,m,600,1178373,1178875,1179077
91,second,29,schön,IAT_purple2.bmp,purple,ending_melody,melody,ending,m,positive,negative,ES_yellow,1,m,608,1180750,1181251,1181453
91,second,30,geizig,IAT_yellow4.bmp,yellow,ending_scream,scream,ending,c,negative,positive,ES_yellow,1,c,551,1183142,1183643,1183845
91,second,31,falsch,IAT_red3.bmp,red,starting_melody,melody,starting,c,negative,positive,ES_yellow,1,c,665,1185477,1185978,1186180
91,second,32,sonnig,IAT_green1.bmp,green,starting_scream,scream,starting,m,positive,negative,ES_yellow,1,m,621,1187921,1188422,1188624
91,second,33,krank,IAT_yellow2.bmp,yellow,ending_scream,scream,ending,c,negative,positive,ES_yellow,1,c,768,1190318,1190819,1191021
91,second,34,teuer,IAT_yellow4.bmp,yellow,ending_scream,scream,ending,c,negative,positive,ES_yellow,1,c,624,1192862,1193363,1193565
91,second,35,brutal,IAT_purple4.bmp,purple,ending_melody,melody,ending,c,negative,negative,ES_yellow,1,c,555,1195267,1195768,1195970
91,second,36,lästig,IAT_purple3.bmp,purple,ending_melody,melody,ending,c,negative,negative,ES_yellow,1,c,635,1197604,1198105,1198306
91,second,37,munter,IAT_red1.bmp,red,starting_melody,melody,starting,m,positive,positive,ES_yellow,1,m,609,1200012,1200513,1200715
91,second,38,geizig,IAT_yellow2.bmp,yellow,ending_scream,scream,ending,c,negative,positive,ES_yellow,1,c,620,1202402,1202903,1203105
91,second,39,human,IAT_green4.bmp,green,starting_scream,scream,starting,m,positive,negative,ES_yellow,1,m,622,1204800,1205301,1205503
91,second,40,gierig,IAT_red2.bmp,red,starting_melody,melody,starting,c,negative,positive,ES_yellow,1,c,604,1207202,1207703,1207905
91,second,41,feige,IAT_yellow1.bmp,yellow,ending_scream,scream,ending,c,negative,positive,ES_yellow,1,c,592,1209583,1210084,1210285
91,second,42,ehrlich,IAT_red2.bmp,red,starting_melody,melody,starting,m,positive,positive,ES_yellow,1,m,736,1211950,1212451,1212653
91,second,43,munter,IAT_yellow1.bmp,yellow,ending_scream,scream,ending,m,positive,positive,ES_yellow,1,m,810,1214467,1214968,1215170
91,second,44,krank,IAT_yellow2.bmp,yellow,ending_scream,scream,ending,c,negative,positive,ES_yellow,1,c,579,1217065,1217567,1217769
91,second,45,teuer,IAT_green4.bmp,green,starting_scream,scream,starting,c,negative,negative,ES_yellow,1,c,592,1219422,1219923,1220125
91,second,46,gesund,IAT_purple3.bmp,purple,ending_melody,melody,ending,m,positive,negative,ES_yellow,1,m,549,1221801,1222302,1222504
91,second,47,falsch,IAT_red4.bmp,red,starting_melody,melody,starting,c,negative,positive,ES_yellow,1,c,765,1224129,1224630,1224832
91,second,48,sozial,IAT_red3.bmp,red,starting_melody,melody,starting,m,positive,positive,ES_yellow,1,m,631,1226680,1227181,1227382
91,second,49,gesund,IAT_purple4.bmp,purple,ending_melody,melody,ending,m,positive,negative,ES_yellow,1,m,680,1229110,1229611,1229813
91,second,50,gerecht,IAT_green1.bmp,green,starting_scream,scream,starting,m,positive,negative,ES_yellow,1,m,542,1231567,1232068,1232270
91,second,51,einsam,IAT_purple2.bmp,purple,ending_melody,melody,ending,c,negative,negative,ES_yellow,1,c,771,1233898,1234399,1234601
91,second,52,lustig,IAT_red4.bmp,red,starting_melody,melody,starting,m,positive,positive,ES_yellow,1,m,589,1236465,1236966,1237168
91,second,53,human,IAT_purple2.bmp,purple,ending_melody,melody,ending,m,positive,negative,ES_yellow,1,m,510,1238832,1239333,1239535
91,second,54,lustig,IAT_green3.bmp,green,starting_scream,scream,starting,m,positive,negative,ES_yellow,1,m,821,1241128,1241630,1241832
91,second,55,gesund,IAT_yellow2.bmp,yellow,ending_scream,scream,ending,m,positive,positive,ES_yellow,1,m,507,1243731,1244232,1244434
91,second,56,lästig,IAT_green3.bmp,green,starting_scream,scream,starting,c,negative,negative,ES_yellow,1,c,616,1246021,1246522,1246724
91,second,57,krank,IAT_green4.bmp,green,starting_scream,scream,starting,c,negative,negative,ES_yellow,0,m,570,1248419,1248920,1249122
91,second,58,sanft,IAT_green3.bmp,green,starting_scream,scream,starting,m,positive,negative,ES_yellow,1,m,594,1251275,1251776,1251978
91,second,59,gerecht,IAT_green4.bmp,green,starting_scream,scream,starting,m,positive,negative,ES_yellow,1,m,527,1253646,1254147,1254349
91,second,60,witzig,IAT_red1.bmp,red,starting_melody,melody,starting,m,positive,positive,ES_yellow,1,m,843,1255954,1256456,1256658
91,second,61,gerecht,IAT_yellow1.bmp,yellow,ending_scream,scream,ending,m,positive,positive,ES_yellow,1,m,572,1258578,1259079,1259281
91,second,62,witzig,IAT_green2.bmp,green,starting_scream,scream,starting,m,positive,negative,ES_yellow,0,c,664,1260933,1261434,1261636
91,second,63,sozial,IAT_yellow3.bmp,yellow,ending_scream,scream,ending,m,positive,positive,ES_yellow,1,m,601,1263876,1264377,1264579
91,second,64,schön,IAT_green1.bmp,green,starting_scream,scream,starting,m,positive,negative,ES_yellow,1,m,516,1266265,1266766,1266968
91,second,65,sozial,IAT_yellow4.bmp,yellow,ending_scream,scream,ending,m,positive,positive,ES_yellow,1,m,541,1268577,1269078,1269279
91,second,66,ehrlich,IAT_red3.bmp,red,starting_melody,melody,starting,m,positive,positive,ES_yellow,1,m,539,1270898,1271399,1271601
91,second,67,brutal,IAT_red2.bmp,red,starting_melody,melody,starting,c,negative,positive,ES_yellow,1,c,582,1273240,1273741,1273943
91,second,68,human,IAT_purple1.bmp,purple,ending_melody,melody,ending,m,positive,negative,ES_yellow,1,m,667,1275603,1276104,1276306
91,second,69,lästig,IAT_red1.bmp,red,starting_melody,melody,starting,c,negative,positive,ES_yellow,1,c,710,1278055,1278556,1278758
91,second,70,streng,IAT_green2.bmp,green,starting_scream,scream,starting,c,negative,negative,ES_yellow,1,c,647,1280550,1281051,1281253
91,second,71,gesund,IAT_yellow2.bmp,yellow,ending_scream,scream,ending,m,positive,positive,ES_yellow,1,m,651,1282978,1283480,1283681
91,second,72,teuer,IAT_purple1.bmp,purple,ending_melody,melody,ending,c,negative,negative,ES_yellow,1,c,653,1285424,1285925,1286127
91,second,73,lästig,IAT_red4.bmp,red,starting_melody,melody,starting,c,negative,positive,ES_yellow,1,c,956,1287874,1288375,1288576
91,second,74,einsam,IAT_red3.bmp,red,starting_melody,melody,starting,c,negative,positive,ES_yellow,1,c,595,1290635,1291136,1291338
91,second,75,witzig,IAT_yellow4.bmp,yellow,ending_scream,scream,ending,m,positive,positive,ES_yellow,1,m,1005,1293008,1293509,1293711
91,second,76,morsch,IAT_purple3.bmp,purple,ending_melody,melody,ending,c,negative,negative,ES_yellow,1,c,596,1295817,1296318,1296520
91,second,77,streng,IAT_red2.bmp,red,starting_melody,melody,starting,c,negative,positive,ES_yellow,1,c,1286,1298199,1298700,1298902
91,second,78,gierig,IAT_purple2.bmp,purple,ending_melody,melody,ending,c,negative,negative,ES_yellow,1,c,692,1301273,1301774,1301976
91,second,79,lustig,IAT_green1.bmp,green,starting_scream,scream,starting,m,positive,negative,ES_yellow,1,m,459,1303746,1304247,1304449
91,second,80,einsam,IAT_purple2.bmp,purple,ending_melody,melody,ending,c,negative,negative,ES_yellow,1,c,544,1305981,1306482,1306684
91,second,81,sozial,IAT_green3.bmp,green,starting_scream,scream,starting,m,positive,negative,ES_yellow,1,m,606,1308319,1308820,1309022
91,second,82,morsch,IAT_yellow1.bmp,yellow,ending_scream,scream,ending,c,negative,positive,ES_yellow,1,c,740,1310729,1311230,1311432
91,second,83,einsam,IAT_yellow4.bmp,yellow,ending_scream,scream,ending,c,negative,positive,ES_yellow,1,c,667,1313267,1313768,1313969
91,second,84,streng,IAT_purple2.bmp,purple,ending_melody,melody,ending,c,negative,negative,ES_yellow,1,c,1018,1315715,1316216,1316419
91,second,85,gierig,IAT_purple4.bmp,purple,ending_melody,melody,ending,c,negative,negative,ES_yellow,1,c,818,1318523,1319024,1319226
91,second,86,brutal,IAT_red1.bmp,red,starting_melody,melody,starting,c,negative,positive,ES_yellow,1,c,1183,1321118,1321619,1321821
91,second,87,falsch,IAT_purple1.bmp,purple,ending_melody,melody,ending,c,negative,negative,ES_yellow,1,c,578,1324075,1324576,1324778
91,second,88,morsch,IAT_purple4.bmp,purple,ending_melody,melody,ending,c,negative,negative,ES_yellow,1,c,592,1326429,1326930,1327132
91,second,89,witzig,IAT_red1.bmp,red,starting_melody,melody,starting,m,positive,positive,ES_yellow,1,m,718,1328799,1329300,1329502
91,second,90,falsch,IAT_green2.bmp,green,starting_scream,scream,starting,c,negative,negative,ES_yellow,1,c,742,1331304,1331805,1332006
91,second,91,heiter,IAT_yellow3.bmp,yellow,ending_scream,scream,ending,m,positive,positive,ES_yellow,1,m,758,1333831,1334332,1334534
91,second,92,munter,IAT_purple4.bmp,purple,ending_melody,melody,ending,m,positive,negative,ES_yellow,1,m,558,1336367,1336868,1337070
91,second,93,feige,IAT_red2.bmp,red,starting_melody,melody,starting,c,negative,positive,ES_yellow,1,c,708,1338712,1339213,1339415
91,second,94,kaputt,IAT_green2.bmp,green,starting_scream,scream,starting,c,negative,negative,ES_yellow,1,c,587,1341202,1341703,1341905
91,second,95,sanft,IAT_red4.bmp,red,starting_melody,melody,starting,m,positive,positive,ES_yellow,1,m,567,1343574,1344076,1344277
