subject_nr,block,trialnr,trial_target,trial_prime,prime_color,prime_role,prime_us,prime_relation,correct_response,target_valence,prime_valence,color_counter,correct_first_response,response_first_response,response_time_first_response,fixation_show,prime_show,target_show
82,first,0,falsch,IAT_yellow1.bmp,yellow,ending_melody,melody,ending,c,negative,negative,ES_purple,1,c,612,869617,870118,870320
82,first,1,lästig,IAT_green2.bmp,green,starting_melody,melody,starting,c,negative,positive,ES_purple,1,c,833,872005,872506,872708
82,first,2,gesund,IAT_red2.bmp,red,starting_scream,scream,starting,m,positive,negative,ES_purple,1,m,704,874614,875115,875317
82,first,3,lustig,IAT_green3.bmp,green,starting_melody,melody,starting,m,positive,positive,ES_purple,1,m,636,877099,877600,877801
82,first,4,kaputt,IAT_green4.bmp,green,starting_melody,melody,starting,c,negative,positive,ES_purple,1,c,631,879518,880020,880222
82,first,5,gerecht,IAT_purple3.bmp,purple,ending_scream,scream,ending,m,positive,positive,ES_purple,1,m,651,881930,882431,882633
82,first,6,teuer,IAT_purple4.bmp,purple,ending_scream,scream,ending,c,negative,positive,ES_purple,1,c,670,884359,884860,885062
82,first,7,geizig,IAT_red1.bmp,red,starting_scream,scream,starting,c,negative,negative,ES_purple,1,c,625,886804,887305,887507
82,first,8,sozial,IAT_green2.bmp,green,starting_melody,melody,starting,m,positive,positive,ES_purple,1,m,760,889214,889715,889917
82,first,9,lustig,IAT_yellow3.bmp,yellow,ending_melody,melody,ending,m,positive,negative,ES_purple,1,m,549,891761,892262,892464
82,first,10,heiter,IAT_yellow3.bmp,yellow,ending_melody,melody,ending,m,positive,negative,ES_purple,1,m,850,894084,894585,894787
82,first,11,sanft,IAT_green1.bmp,green,starting_melody,melody,starting,m,positive,positive,ES_purple,1,m,649,896716,897217,897419
82,first,12,sonnig,IAT_red1.bmp,red,starting_scream,scream,starting,m,positive,negative,ES_purple,1,m,590,899159,899660,899862
82,first,13,sanft,IAT_yellow2.bmp,yellow,ending_melody,melody,ending,m,positive,negative,ES_purple,1,m,814,901526,902028,902231
82,first,14,munter,IAT_green3.bmp,green,starting_melody,melody,starting,m,positive,positive,ES_purple,1,m,539,904122,904623,904825
82,first,15,sanft,IAT_purple2.bmp,purple,ending_scream,scream,ending,m,positive,positive,ES_purple,1,m,573,906440,906942,907144
82,first,16,krank,IAT_green2.bmp,green,starting_melody,melody,starting,c,negative,positive,ES_purple,1,c,611,908787,909288,909490
82,first,17,ehrlich,IAT_red1.bmp,red,starting_scream,scream,starting,m,positive,negative,ES_purple,1,m,826,911179,911680,911882
82,first,18,geizig,IAT_purple1.bmp,purple,ending_scream,scream,ending,c,negative,positive,ES_purple,1,c,632,913789,914291,914492
82,first,19,lästig,IAT_red2.bmp,red,starting_scream,scream,starting,c,negative,negative,ES_purple,1,c,620,916218,916719,916920
82,first,20,geizig,IAT_purple4.bmp,purple,ending_scream,scream,ending,c,negative,positive,ES_purple,1,c,605,918616,919117,919319
82,first,21,feige,IAT_red4.bmp,red,starting_scream,scream,starting,c,negative,negative,ES_purple,1,c,591,920998,921499,921701
82,first,22,gerecht,IAT_yellow3.bmp,yellow,ending_melody,melody,ending,m,positive,negative,ES_purple,1,m,629,923376,923877,924079
82,first,23,munter,IAT_yellow1.bmp,yellow,ending_melody,melody,ending,m,positive,negative,ES_purple,1,m,603,925787,926288,926490
82,first,24,teuer,IAT_purple1.bmp,purple,ending_scream,scream,ending,c,negative,positive,ES_purple,0,None,1500,928165,928666,928868
82,first,25,sozial,IAT_purple1.bmp,purple,ending_scream,scream,ending,m,positive,positive,ES_purple,1,m,640,931942,932443,932644
82,first,26,einsam,IAT_red1.bmp,red,starting_scream,scream,starting,c,negative,negative,ES_purple,1,c,748,934377,934878,935080
82,first,27,gesund,IAT_yellow3.bmp,yellow,ending_melody,melody,ending,m,positive,negative,ES_purple,1,m,504,936909,937410,937612
82,first,28,streng,IAT_yellow2.bmp,yellow,ending_melody,melody,ending,c,negative,negative,ES_purple,1,c,810,939194,939695,939897
82,first,29,ehrlich,IAT_yellow1.bmp,yellow,ending_melody,melody,ending,m,positive,negative,ES_purple,1,m,545,941781,942282,942483
82,first,30,teuer,IAT_green3.bmp,green,starting_melody,melody,starting,c,negative,positive,ES_purple,1,c,529,944099,944600,944802
82,first,31,morsch,IAT_green2.bmp,green,starting_melody,melody,starting,c,negative,positive,ES_purple,1,c,560,946404,946905,947107
82,first,32,sozial,IAT_red4.bmp,red,starting_scream,scream,starting,m,positive,negative,ES_purple,1,m,528,948756,949257,949459
82,first,33,gerecht,IAT_purple3.bmp,purple,ending_scream,scream,ending,m,positive,positive,ES_purple,1,m,552,951068,951569,951771
82,first,34,ehrlich,IAT_purple3.bmp,purple,ending_scream,scream,ending,m,positive,positive,ES_purple,1,m,847,953397,953898,954100
82,first,35,gierig,IAT_yellow2.bmp,yellow,ending_melody,melody,ending,c,negative,negative,ES_purple,1,c,832,956036,956537,956739
82,first,36,brutal,IAT_purple3.bmp,purple,ending_scream,scream,ending,c,negative,positive,ES_purple,1,c,546,958656,959158,959360
82,first,37,krank,IAT_purple2.bmp,purple,ending_scream,scream,ending,c,negative,positive,ES_purple,1,c,542,960981,961482,961684
82,first,38,sozial,IAT_red3.bmp,red,starting_scream,scream,starting,m,positive,negative,ES_purple,1,m,485,963310,963811,964013
82,first,39,human,IAT_yellow4.bmp,yellow,ending_melody,melody,ending,m,positive,negative,ES_purple,1,m,640,965571,966072,966274
82,first,40,sanft,IAT_red1.bmp,red,starting_scream,scream,starting,m,positive,negative,ES_purple,1,m,487,967996,968497,968699
82,first,41,falsch,IAT_yellow4.bmp,yellow,ending_melody,melody,ending,c,negative,negative,ES_purple,1,c,535,970268,970769,970971
82,first,42,krank,IAT_yellow4.bmp,yellow,ending_melody,melody,ending,c,negative,negative,ES_purple,1,c,585,972586,973087,973289
82,first,43,witzig,IAT_purple1.bmp,purple,ending_scream,scream,ending,m,positive,positive,ES_purple,1,m,586,974952,975453,975655
82,first,44,gesund,IAT_green1.bmp,green,starting_melody,melody,starting,m,positive,positive,ES_purple,1,m,563,977343,977845,978047
82,first,45,witzig,IAT_red3.bmp,red,starting_scream,scream,starting,m,positive,negative,ES_purple,1,m,537,979690,980191,980393
82,first,46,kaputt,IAT_green1.bmp,green,starting_melody,melody,starting,c,negative,positive,ES_purple,1,c,509,982006,982507,982709
82,first,47,streng,IAT_purple2.bmp,purple,ending_scream,scream,ending,c,negative,positive,ES_purple,1,c,573,984294,984795,984997
82,first,48,lustig,IAT_red1.bmp,red,starting_scream,scream,starting,m,positive,negative,ES_purple,1,m,571,986648,987149,987351
82,first,49,human,IAT_green1.bmp,green,starting_melody,melody,starting,m,positive,positive,ES_purple,1,m,523,989000,989501,989702
82,first,50,schön,IAT_green2.bmp,green,starting_melody,melody,starting,m,positive,positive,ES_purple,1,m,540,991302,991803,992005
82,first,51,heiter,IAT_purple1.bmp,purple,ending_scream,scream,ending,m,positive,positive,ES_purple,1,m,588,993622,994123,994325
82,first,52,gesund,IAT_yellow4.bmp,yellow,ending_melody,melody,ending,m,positive,negative,ES_purple,1,m,495,995988,996489,996691
82,first,53,gierig,IAT_red4.bmp,red,starting_scream,scream,starting,c,negative,negative,ES_purple,1,c,585,998266,998767,998969
82,first,54,gerecht,IAT_green4.bmp,green,starting_melody,melody,starting,m,positive,positive,ES_purple,1,m,522,1000632,1001134,1001336
82,first,55,feige,IAT_red2.bmp,red,starting_scream,scream,starting,c,negative,negative,ES_purple,1,c,615,1002940,1003441,1003643
82,first,56,morsch,IAT_yellow2.bmp,yellow,ending_melody,melody,ending,c,negative,negative,ES_purple,1,c,598,1005340,1005841,1006043
82,first,57,falsch,IAT_green4.bmp,green,starting_melody,melody,starting,c,negative,positive,ES_purple,1,c,826,1007720,1008221,1008423
82,first,58,human,IAT_green1.bmp,green,starting_melody,melody,starting,m,positive,positive,ES_purple,1,m,603,1010327,1010828,1011030
82,first,59,sonnig,IAT_purple4.bmp,purple,ending_scream,scream,ending,m,positive,positive,ES_purple,1,m,599,1012716,1013217,1013419
82,first,60,kaputt,IAT_green1.bmp,green,starting_melody,melody,starting,c,negative,positive,ES_purple,1,c,537,1015098,1015599,1015801
82,first,61,lästig,IAT_yellow4.bmp,yellow,ending_melody,melody,ending,c,negative,negative,ES_purple,1,c,931,1017424,1017925,1018127
82,first,62,morsch,IAT_red4.bmp,red,starting_scream,scream,starting,c,negative,negative,ES_purple,1,c,568,1020138,1020640,1020841
82,first,63,gierig,IAT_yellow3.bmp,yellow,ending_melody,melody,ending,c,negative,negative,ES_purple,1,c,514,1022496,1022997,1023199
82,first,64,brutal,IAT_purple4.bmp,purple,ending_scream,scream,ending,c,negative,positive,ES_purple,1,c,523,1024791,1025292,1025494
82,first,65,morsch,IAT_green2.bmp,green,starting_melody,melody,starting,c,negative,positive,ES_purple,1,c,572,1027094,1027595,1027797
82,first,66,teuer,IAT_yellow2.bmp,yellow,ending_melody,melody,ending,c,negative,negative,ES_purple,1,c,607,1029444,1029945,1030147
82,first,67,witzig,IAT_red4.bmp,red,starting_scream,scream,starting,m,positive,negative,ES_purple,1,m,602,1031833,1032334,1032536
82,first,68,sonnig,IAT_green4.bmp,green,starting_melody,melody,starting,m,positive,positive,ES_purple,1,m,526,1034213,1034714,1034916
82,first,69,einsam,IAT_yellow4.bmp,yellow,ending_melody,melody,ending,c,negative,negative,ES_purple,1,c,668,1036518,1037019,1037221
82,first,70,munter,IAT_purple1.bmp,purple,ending_scream,scream,ending,m,positive,positive,ES_purple,1,m,666,1038984,1039485,1039687
82,first,71,schön,IAT_green3.bmp,green,starting_melody,melody,starting,m,positive,positive,ES_purple,1,m,557,1041445,1041946,1042148
82,first,72,brutal,IAT_red4.bmp,red,starting_scream,scream,starting,c,negative,negative,ES_purple,1,c,539,1043783,1044284,1044486
82,first,73,ehrlich,IAT_yellow2.bmp,yellow,ending_melody,melody,ending,m,positive,negative,ES_purple,1,m,655,1046099,1046600,1046802
82,first,74,streng,IAT_yellow3.bmp,yellow,ending_melody,melody,ending,c,negative,negative,ES_purple,0,m,885,1048541,1049043,1049245
82,first,75,einsam,IAT_green4.bmp,green,starting_melody,melody,starting,c,negative,positive,ES_purple,1,c,1135,1051715,1052216,1052418
82,first,76,schön,IAT_red3.bmp,red,starting_scream,scream,starting,m,positive,negative,ES_purple,1,m,521,1054633,1055134,1055336
82,first,77,streng,IAT_purple2.bmp,purple,ending_scream,scream,ending,c,negative,positive,ES_purple,1,c,573,1056933,1057434,1057636
82,first,78,falsch,IAT_yellow1.bmp,yellow,ending_melody,melody,ending,c,negative,negative,ES_purple,1,c,540,1059286,1059787,1059989
82,first,79,sonnig,IAT_purple4.bmp,purple,ending_scream,scream,ending,m,positive,positive,ES_purple,1,m,574,1061604,1062105,1062307
82,first,80,feige,IAT_red3.bmp,red,starting_scream,scream,starting,c,negative,negative,ES_purple,1,c,516,1063951,1064452,1064654
82,first,81,lästig,IAT_red2.bmp,red,starting_scream,scream,starting,c,negative,negative,ES_purple,1,c,731,1066248,1066749,1066951
82,first,82,kaputt,IAT_purple4.bmp,purple,ending_scream,scream,ending,c,negative,positive,ES_purple,1,c,523,1068759,1069260,1069462
82,first,83,witzig,IAT_green3.bmp,green,starting_melody,melody,starting,m,positive,positive,ES_purple,1,m,576,1071058,1071559,1071761
82,first,84,lustig,IAT_purple3.bmp,purple,ending_scream,scream,ending,m,positive,positive,ES_purple,1,m,880,1073410,1073911,1074113
82,first,85,schön,IAT_yellow1.bmp,yellow,ending_melody,melody,ending,m,positive,negative,ES_purple,1,m,559,1076083,1076584,1076786
82,first,86,geizig,IAT_red2.bmp,red,starting_scream,scream,starting,c,negative,negative,ES_purple,1,c,606,1078436,1078937,1079139
82,first,87,heiter,IAT_red2.bmp,red,starting_scream,scream,starting,m,positive,negative,ES_purple,1,m,697,1080825,1081326,1081528
82,first,88,munter,IAT_purple2.bmp,purple,ending_scream,scream,ending,m,positive,positive,ES_purple,1,m,639,1083298,1083800,1084002
82,first,89,einsam,IAT_green3.bmp,green,starting_melody,melody,starting,c,negative,positive,ES_purple,1,c,630,1085724,1086225,1086427
82,first,90,krank,IAT_green4.bmp,green,starting_melody,melody,starting,c,negative,positive,ES_purple,1,c,615,1088139,1088640,1088842
82,first,91,gierig,IAT_red3.bmp,red,starting_scream,scream,starting,c,negative,negative,ES_purple,1,c,593,1090529,1091030,1091232
82,first,92,brutal,IAT_purple2.bmp,purple,ending_scream,scream,ending,c,negative,positive,ES_purple,1,c,499,1092927,1093428,1093630
82,first,93,human,IAT_red3.bmp,red,starting_scream,scream,starting,m,positive,negative,ES_purple,1,m,782,1095204,1095705,1095907
82,first,94,feige,IAT_purple3.bmp,purple,ending_scream,scream,ending,c,negative,positive,ES_purple,1,c,534,1097757,1098258,1098459
82,first,95,heiter,IAT_yellow1.bmp,yellow,ending_melody,melody,ending,m,positive,negative,ES_purple,1,m,566,1100091,1100592,1100794
82,second,0,teuer,IAT_green3.bmp,green,starting_melody,melody,starting,c,negative,positive,ES_purple,1,c,749,1116164,1116665,1116867
82,second,1,morsch,IAT_yellow3.bmp,yellow,ending_melody,melody,ending,c,negative,negative,ES_purple,1,c,507,1118693,1119195,1119397
82,second,2,lustig,IAT_yellow1.bmp,yellow,ending_melody,melody,ending,m,positive,negative,ES_purple,1,m,559,1120978,1121479,1121681
82,second,3,munter,IAT_red1.bmp,red,starting_scream,scream,starting,m,positive,negative,ES_purple,1,m,548,1123325,1123826,1124028
82,second,4,gesund,IAT_red3.bmp,red,starting_scream,scream,starting,m,positive,negative,ES_purple,1,m,604,1125653,1126154,1126356
82,second,5,gerecht,IAT_green3.bmp,green,starting_melody,melody,starting,m,positive,positive,ES_purple,1,m,568,1128041,1128542,1128744
82,second,6,lästig,IAT_purple2.bmp,purple,ending_scream,scream,ending,c,negative,positive,ES_purple,1,c,745,1130391,1130892,1131094
82,second,7,morsch,IAT_yellow2.bmp,yellow,ending_melody,melody,ending,c,negative,negative,ES_purple,1,c,575,1132913,1133414,1133616
82,second,8,geizig,IAT_red2.bmp,red,starting_scream,scream,starting,c,negative,negative,ES_purple,1,c,525,1135268,1135769,1135971
82,second,9,gierig,IAT_yellow2.bmp,yellow,ending_melody,melody,ending,c,negative,negative,ES_purple,1,c,579,1137582,1138083,1138285
82,second,10,witzig,IAT_purple2.bmp,purple,ending_scream,scream,ending,m,positive,positive,ES_purple,1,m,610,1139935,1140436,1140638
82,second,11,schön,IAT_green4.bmp,green,starting_melody,melody,starting,m,positive,positive,ES_purple,0,c,537,1142328,1142829,1143031
82,second,12,falsch,IAT_yellow1.bmp,yellow,ending_melody,melody,ending,c,negative,negative,ES_purple,1,c,712,1145145,1145646,1145847
82,second,13,feige,IAT_purple4.bmp,purple,ending_scream,scream,ending,c,negative,positive,ES_purple,1,c,538,1147638,1148139,1148341
82,second,14,brutal,IAT_red2.bmp,red,starting_scream,scream,starting,c,negative,negative,ES_purple,1,c,798,1149954,1150455,1150657
82,second,15,lustig,IAT_green2.bmp,green,starting_melody,melody,starting,m,positive,positive,ES_purple,1,m,588,1152532,1153034,1153236
82,second,16,falsch,IAT_yellow4.bmp,yellow,ending_melody,melody,ending,c,negative,negative,ES_purple,1,c,557,1154899,1155400,1155602
82,second,17,teuer,IAT_yellow2.bmp,yellow,ending_melody,melody,ending,c,negative,negative,ES_purple,1,c,668,1157236,1157737,1157939
82,second,18,lästig,IAT_purple2.bmp,purple,ending_scream,scream,ending,c,negative,positive,ES_purple,1,c,807,1159689,1160190,1160392
82,second,19,streng,IAT_red1.bmp,red,starting_scream,scream,starting,c,negative,negative,ES_purple,1,c,842,1162278,1162779,1162980
82,second,20,munter,IAT_purple3.bmp,purple,ending_scream,scream,ending,m,positive,positive,ES_purple,1,m,605,1164898,1165399,1165601
82,second,21,ehrlich,IAT_red3.bmp,red,starting_scream,scream,starting,m,positive,negative,ES_purple,1,m,681,1167286,1167787,1167989
82,second,22,kaputt,IAT_green2.bmp,green,starting_melody,melody,starting,c,negative,positive,ES_purple,1,c,865,1169759,1170260,1170462
82,second,23,krank,IAT_green2.bmp,green,starting_melody,melody,starting,c,negative,positive,ES_purple,1,c,525,1172420,1172921,1173122
82,second,24,sonnig,IAT_green3.bmp,green,starting_melody,melody,starting,m,positive,positive,ES_purple,1,m,555,1174724,1175226,1175428
82,second,25,schön,IAT_purple2.bmp,purple,ending_scream,scream,ending,m,positive,positive,ES_purple,1,m,613,1177066,1177567,1177769
82,second,26,einsam,IAT_yellow4.bmp,yellow,ending_melody,melody,ending,c,negative,negative,ES_purple,1,c,745,1179462,1179963,1180165
82,second,27,kaputt,IAT_purple1.bmp,purple,ending_scream,scream,ending,c,negative,positive,ES_purple,1,c,521,1181990,1182491,1182693
82,second,28,gierig,IAT_red2.bmp,red,starting_scream,scream,starting,c,negative,negative,ES_purple,1,c,542,1184305,1184806,1185008
82,second,29,falsch,IAT_red4.bmp,red,starting_scream,scream,starting,c,negative,negative,ES_purple,1,c,603,1186628,1187129,1187332
82,second,30,kaputt,IAT_red4.bmp,red,starting_scream,scream,starting,c,negative,negative,ES_purple,1,c,540,1189012,1189513,1189715
82,second,31,lästig,IAT_green3.bmp,green,starting_melody,melody,starting,c,negative,positive,ES_purple,1,c,654,1191329,1191830,1192032
82,second,32,teuer,IAT_red3.bmp,red,starting_scream,scream,starting,c,negative,negative,ES_purple,1,c,734,1193761,1194262,1194464
82,second,33,sozial,IAT_purple1.bmp,purple,ending_scream,scream,ending,m,positive,positive,ES_purple,1,m,611,1196285,1196786,1196987
82,second,34,einsam,IAT_purple4.bmp,purple,ending_scream,scream,ending,c,negative,positive,ES_purple,1,c,684,1198675,1199176,1199378
82,second,35,brutal,IAT_purple1.bmp,purple,ending_scream,scream,ending,c,negative,positive,ES_purple,1,c,677,1201146,1201647,1201849
82,second,36,kaputt,IAT_red1.bmp,red,starting_scream,scream,starting,c,negative,negative,ES_purple,1,c,815,1203601,1204102,1204304
82,second,37,sonnig,IAT_yellow1.bmp,yellow,ending_melody,melody,ending,m,positive,negative,ES_purple,1,m,812,1206196,1206697,1206899
82,second,38,brutal,IAT_purple4.bmp,purple,ending_scream,scream,ending,c,negative,positive,ES_purple,1,c,509,1208786,1209287,1209489
82,second,39,krank,IAT_yellow4.bmp,yellow,ending_melody,melody,ending,c,negative,negative,ES_purple,1,c,588,1211075,1211576,1211778
82,second,40,gesund,IAT_purple3.bmp,purple,ending_scream,scream,ending,m,positive,positive,ES_purple,1,m,1123,1213453,1213954,1214155
82,second,41,sanft,IAT_yellow2.bmp,yellow,ending_melody,melody,ending,m,positive,negative,ES_purple,1,m,1000,1216359,1216860,1217062
82,second,42,gerecht,IAT_yellow4.bmp,yellow,ending_melody,melody,ending,m,positive,negative,ES_purple,1,m,606,1219136,1219638,1219840
82,second,43,witzig,IAT_green3.bmp,green,starting_melody,melody,starting,m,positive,positive,ES_purple,1,m,639,1221536,1222037,1222239
82,second,44,geizig,IAT_green2.bmp,green,starting_melody,melody,starting,c,negative,positive,ES_purple,1,c,953,1223957,1224459,1224661
82,second,45,sozial,IAT_green3.bmp,green,starting_melody,melody,starting,m,positive,positive,ES_purple,1,m,652,1226691,1227192,1227394
82,second,46,sanft,IAT_purple1.bmp,purple,ending_scream,scream,ending,m,positive,positive,ES_purple,1,m,605,1229122,1229623,1229825
82,second,47,ehrlich,IAT_yellow1.bmp,yellow,ending_melody,melody,ending,m,positive,negative,ES_purple,1,m,562,1231501,1232002,1232204
82,second,48,gerecht,IAT_yellow3.bmp,yellow,ending_melody,melody,ending,m,positive,negative,ES_purple,1,m,600,1233863,1234364,1234566
82,second,49,schön,IAT_purple1.bmp,purple,ending_scream,scream,ending,m,positive,positive,ES_purple,1,m,544,1236238,1236739,1236941
82,second,50,heiter,IAT_green1.bmp,green,starting_melody,melody,starting,m,positive,positive,ES_purple,1,m,639,1238575,1239076,1239278
82,second,51,sozial,IAT_green1.bmp,green,starting_melody,melody,starting,m,positive,positive,ES_purple,1,m,552,1240997,1241499,1241701
82,second,52,heiter,IAT_green4.bmp,green,starting_melody,melody,starting,m,positive,positive,ES_purple,1,m,474,1243332,1243833,1244035
82,second,53,streng,IAT_purple2.bmp,purple,ending_scream,scream,ending,c,negative,positive,ES_purple,0,m,681,1245590,1246091,1246292
82,second,54,feige,IAT_purple2.bmp,purple,ending_scream,scream,ending,c,negative,positive,ES_purple,1,c,710,1248552,1249053,1249255
82,second,55,krank,IAT_green4.bmp,green,starting_melody,melody,starting,c,negative,positive,ES_purple,1,c,569,1251045,1251546,1251748
82,second,56,human,IAT_purple4.bmp,purple,ending_scream,scream,ending,m,positive,positive,ES_purple,1,m,688,1253390,1253891,1254093
82,second,57,lustig,IAT_green1.bmp,green,starting_melody,melody,starting,m,positive,positive,ES_purple,1,m,863,1255855,1256356,1256558
82,second,58,sanft,IAT_red1.bmp,red,starting_scream,scream,starting,m,positive,negative,ES_purple,1,m,591,1258495,1258996,1259198
82,second,59,streng,IAT_green4.bmp,green,starting_melody,melody,starting,c,negative,positive,ES_purple,1,c,765,1260865,1261366,1261568
82,second,60,gerecht,IAT_red2.bmp,red,starting_scream,scream,starting,m,positive,negative,ES_purple,1,m,682,1263412,1263913,1264115
82,second,61,geizig,IAT_yellow4.bmp,yellow,ending_melody,melody,ending,c,negative,negative,ES_purple,1,c,875,1265875,1266376,1266578
82,second,62,witzig,IAT_red1.bmp,red,starting_scream,scream,starting,m,positive,negative,ES_purple,1,m,680,1268535,1269036,1269237
82,second,63,sonnig,IAT_red1.bmp,red,starting_scream,scream,starting,m,positive,negative,ES_purple,1,m,679,1270998,1271499,1271701
82,second,64,munter,IAT_purple3.bmp,purple,ending_scream,scream,ending,m,positive,positive,ES_purple,1,m,570,1273459,1273960,1274162
82,second,65,witzig,IAT_green1.bmp,green,starting_melody,melody,starting,m,positive,positive,ES_purple,1,m,610,1275804,1276305,1276507
82,second,66,feige,IAT_green2.bmp,green,starting_melody,melody,starting,c,negative,positive,ES_purple,1,c,810,1278196,1278697,1278899
82,second,67,heiter,IAT_red4.bmp,red,starting_scream,scream,starting,m,positive,negative,ES_purple,1,m,752,1280782,1281283,1281485
82,second,68,human,IAT_purple4.bmp,purple,ending_scream,scream,ending,m,positive,positive,ES_purple,1,m,569,1283333,1283834,1284036
82,second,69,ehrlich,IAT_purple3.bmp,purple,ending_scream,scream,ending,m,positive,positive,ES_purple,1,m,592,1285677,1286178,1286380
82,second,70,sonnig,IAT_yellow4.bmp,yellow,ending_melody,melody,ending,m,positive,negative,ES_purple,1,m,574,1288046,1288548,1288750
82,second,71,geizig,IAT_red4.bmp,red,starting_scream,scream,starting,c,negative,negative,ES_purple,1,c,637,1290417,1290918,1291119
82,second,72,gesund,IAT_yellow3.bmp,yellow,ending_melody,melody,ending,m,positive,negative,ES_purple,1,m,680,1292838,1293339,1293541
82,second,73,sozial,IAT_red4.bmp,red,starting_scream,scream,starting,m,positive,negative,ES_purple,1,m,621,1295298,1295799,1296000
82,second,74,schön,IAT_red3.bmp,red,starting_scream,scream,starting,m,positive,negative,ES_purple,1,m,517,1297720,1298222,1298424
82,second,75,morsch,IAT_green4.bmp,green,starting_melody,melody,starting,c,negative,positive,ES_purple,1,c,671,1300014,1300515,1300717
82,second,76,einsam,IAT_yellow3.bmp,yellow,ending_melody,melody,ending,c,negative,negative,ES_purple,1,c,664,1302469,1302970,1303172
82,second,77,human,IAT_yellow1.bmp,yellow,ending_melody,melody,ending,m,positive,negative,ES_purple,1,m,626,1304923,1305424,1305626
82,second,78,streng,IAT_red4.bmp,red,starting_scream,scream,starting,c,negative,negative,ES_purple,1,c,649,1307332,1307833,1308035
82,second,79,einsam,IAT_red2.bmp,red,starting_scream,scream,starting,c,negative,negative,ES_purple,1,c,688,1309759,1310260,1310461
82,second,80,gesund,IAT_yellow3.bmp,yellow,ending_melody,melody,ending,m,positive,negative,ES_purple,1,m,576,1312222,1312723,1312925
82,second,81,human,IAT_yellow3.bmp,yellow,ending_melody,melody,ending,m,positive,negative,ES_purple,1,m,647,1314583,1315084,1315286
82,second,82,ehrlich,IAT_green2.bmp,green,starting_melody,melody,starting,m,positive,positive,ES_purple,1,m,772,1317016,1317518,1317720
82,second,83,morsch,IAT_purple4.bmp,purple,ending_scream,scream,ending,c,negative,positive,ES_purple,1,c,586,1319571,1320072,1320274
82,second,84,falsch,IAT_green1.bmp,green,starting_melody,melody,starting,c,negative,positive,ES_purple,1,c,699,1321938,1322439,1322641
82,second,85,lustig,IAT_purple1.bmp,purple,ending_scream,scream,ending,m,positive,positive,ES_purple,1,m,698,1324434,1324936,1325138
82,second,86,gierig,IAT_purple3.bmp,purple,ending_scream,scream,ending,c,negative,positive,ES_purple,1,c,605,1326913,1327414,1327616
82,second,87,brutal,IAT_yellow2.bmp,yellow,ending_melody,melody,ending,c,negative,negative,ES_purple,1,c,659,1329307,1329808,1330010
82,second,88,gierig,IAT_yellow1.bmp,yellow,ending_melody,melody,ending,c,negative,negative,ES_purple,1,c,580,1331746,1332247,1332457
82,second,89,teuer,IAT_green4.bmp,green,starting_melody,melody,starting,c,negative,positive,ES_purple,1,c,579,1334122,1334623,1334825
82,second,90,heiter,IAT_red2.bmp,red,starting_scream,scream,starting,m,positive,negative,ES_purple,0,c,557,1336496,1336997,1337199
82,second,91,feige,IAT_green1.bmp,green,starting_melody,melody,starting,c,negative,positive,ES_purple,1,c,658,1339339,1339840,1340042
82,second,92,munter,IAT_yellow2.bmp,yellow,ending_melody,melody,ending,m,positive,negative,ES_purple,1,m,628,1341785,1342286,1342488
82,second,93,sanft,IAT_red3.bmp,red,starting_scream,scream,starting,m,positive,negative,ES_purple,1,m,650,1344196,1344697,1344899
82,second,94,krank,IAT_purple3.bmp,purple,ending_scream,scream,ending,c,negative,positive,ES_purple,1,c,604,1346626,1347127,1347329
82,second,95,lästig,IAT_red3.bmp,red,starting_scream,scream,starting,c,negative,negative,ES_purple,1,c,974,1349007,1349508,1349710
