subject_nr,block,trialnr,trial_target,trial_prime,prime_color,prime_role,prime_us,prime_relation,correct_response,target_valence,prime_valence,color_counter,correct_first_response,response_first_response,response_time_first_response,fixation_show,prime_show,target_show
66,first,0,lästig,IAT_red4.bmp,red,ending_scream,scream,ending,c,negative,positive,ES_red,1,c,917,863833,864334,864536
66,first,1,heiter,IAT_yellow2.bmp,yellow,starting_scream,scream,starting,m,positive,negative,ES_red,1,m,721,866557,867058,867260
66,first,2,streng,IAT_purple4.bmp,purple,starting_melody,melody,starting,c,negative,positive,ES_red,1,c,796,869057,869558,869760
66,first,3,gesund,IAT_purple3.bmp,purple,starting_melody,melody,starting,m,positive,positive,ES_red,1,m,698,871636,872137,872339
66,first,4,lustig,IAT_red1.bmp,red,ending_scream,scream,ending,m,positive,positive,ES_red,1,m,839,874119,874620,874822
66,first,5,einsam,IAT_yellow2.bmp,yellow,starting_scream,scream,starting,c,negative,negative,ES_red,0,m,795,876755,877256,877458
66,first,6,teuer,IAT_purple2.bmp,purple,starting_melody,melody,starting,c,negative,positive,ES_red,1,c,938,879828,880329,880531
66,first,7,feige,IAT_purple1.bmp,purple,starting_melody,melody,starting,c,negative,positive,ES_red,1,c,922,882565,883066,883267
66,first,8,sonnig,IAT_green2.bmp,green,ending_melody,melody,ending,m,positive,negative,ES_red,1,m,808,885287,885788,885989
66,first,9,gesund,IAT_purple1.bmp,purple,starting_melody,melody,starting,m,positive,positive,ES_red,1,m,852,887880,888382,888584
66,first,10,streng,IAT_red1.bmp,red,ending_scream,scream,ending,c,negative,positive,ES_red,1,c,959,890511,891012,891214
66,first,11,teuer,IAT_purple3.bmp,purple,starting_melody,melody,starting,c,negative,positive,ES_red,1,c,855,893271,893772,893974
66,first,12,munter,IAT_red3.bmp,red,ending_scream,scream,ending,m,positive,positive,ES_red,1,m,770,895916,896417,896619
66,first,13,human,IAT_green4.bmp,green,ending_melody,melody,ending,m,positive,negative,ES_red,1,m,726,898487,898989,899191
66,first,14,feige,IAT_red2.bmp,red,ending_scream,scream,ending,c,negative,positive,ES_red,1,c,692,901000,901502,901704
66,first,15,krank,IAT_green2.bmp,green,ending_melody,melody,ending,c,negative,negative,ES_red,1,c,989,903473,903974,904176
66,first,16,lustig,IAT_red2.bmp,red,ending_scream,scream,ending,m,positive,positive,ES_red,1,m,772,906235,906736,906937
66,first,17,lästig,IAT_yellow2.bmp,yellow,starting_scream,scream,starting,c,negative,negative,ES_red,1,c,862,908785,909286,909487
66,first,18,krank,IAT_green2.bmp,green,ending_melody,melody,ending,c,negative,negative,ES_red,1,c,896,911421,911923,912125
66,first,19,falsch,IAT_green4.bmp,green,ending_melody,melody,ending,c,negative,negative,ES_red,1,c,1018,914116,914618,914819
66,first,20,geizig,IAT_green4.bmp,green,ending_melody,melody,ending,c,negative,negative,ES_red,1,c,814,916910,917413,917614
66,first,21,morsch,IAT_green1.bmp,green,ending_melody,melody,ending,c,negative,negative,ES_red,1,c,683,919522,920023,920225
66,first,22,gierig,IAT_green4.bmp,green,ending_melody,melody,ending,c,negative,negative,ES_red,1,c,686,921983,922484,922686
66,first,23,schön,IAT_yellow1.bmp,yellow,starting_scream,scream,starting,m,positive,negative,ES_red,1,m,834,924444,924945,925147
66,first,24,sonnig,IAT_yellow4.bmp,yellow,starting_scream,scream,starting,m,positive,negative,ES_red,1,m,653,927056,927558,927760
66,first,25,sanft,IAT_green1.bmp,green,ending_melody,melody,ending,m,positive,negative,ES_red,1,m,998,929496,929997,930199
66,first,26,morsch,IAT_purple1.bmp,purple,starting_melody,melody,starting,c,negative,positive,ES_red,1,c,970,932275,932776,932978
66,first,27,falsch,IAT_green1.bmp,green,ending_melody,melody,ending,c,negative,negative,ES_red,1,c,944,935037,935538,935740
66,first,28,ehrlich,IAT_green1.bmp,green,ending_melody,melody,ending,m,positive,negative,ES_red,1,m,1149,937760,938261,938463
66,first,29,lustig,IAT_yellow3.bmp,yellow,starting_scream,scream,starting,m,positive,negative,ES_red,1,m,1002,940691,941192,941394
66,first,30,witzig,IAT_green4.bmp,green,ending_melody,melody,ending,m,positive,negative,ES_red,1,m,838,943480,943981,944183
66,first,31,brutal,IAT_yellow3.bmp,yellow,starting_scream,scream,starting,c,negative,negative,ES_red,1,c,960,946109,946610,946812
66,first,32,gerecht,IAT_yellow3.bmp,yellow,starting_scream,scream,starting,m,positive,negative,ES_red,1,m,807,948855,949356,949557
66,first,33,heiter,IAT_yellow1.bmp,yellow,starting_scream,scream,starting,m,positive,negative,ES_red,1,m,749,951440,951941,952143
66,first,34,einsam,IAT_purple2.bmp,purple,starting_melody,melody,starting,c,negative,positive,ES_red,1,c,818,953996,954497,954698
66,first,35,human,IAT_red3.bmp,red,ending_scream,scream,ending,m,positive,positive,ES_red,1,m,761,956596,957097,957299
66,first,36,kaputt,IAT_red2.bmp,red,ending_scream,scream,ending,c,negative,positive,ES_red,1,c,1402,959140,959641,959843
66,first,37,sozial,IAT_green3.bmp,green,ending_melody,melody,ending,m,positive,negative,ES_red,1,m,1237,962329,962830,963031
66,first,38,geizig,IAT_green4.bmp,green,ending_melody,melody,ending,c,negative,negative,ES_red,1,c,725,965352,965853,966055
66,first,39,lästig,IAT_yellow1.bmp,yellow,starting_scream,scream,starting,c,negative,negative,ES_red,1,c,1054,967855,968356,968558
66,first,40,falsch,IAT_green2.bmp,green,ending_melody,melody,ending,c,negative,negative,ES_red,1,c,662,970695,971196,971398
66,first,41,sonnig,IAT_yellow4.bmp,yellow,starting_scream,scream,starting,m,positive,negative,ES_red,1,m,795,973138,973639,973841
66,first,42,kaputt,IAT_yellow2.bmp,yellow,starting_scream,scream,starting,c,negative,negative,ES_red,1,c,811,975714,976215,976417
66,first,43,human,IAT_yellow2.bmp,yellow,starting_scream,scream,starting,m,positive,negative,ES_red,1,m,658,978299,978800,979002
66,first,44,sonnig,IAT_yellow1.bmp,yellow,starting_scream,scream,starting,m,positive,negative,ES_red,1,m,660,980745,981246,981448
66,first,45,sanft,IAT_green3.bmp,green,ending_melody,melody,ending,m,positive,negative,ES_red,1,m,903,983206,983707,983909
66,first,46,geizig,IAT_red4.bmp,red,ending_scream,scream,ending,c,negative,positive,ES_red,1,c,1062,985895,986396,986598
66,first,47,krank,IAT_yellow2.bmp,yellow,starting_scream,scream,starting,c,negative,negative,ES_red,1,c,699,988738,989239,989441
66,first,48,sozial,IAT_yellow3.bmp,yellow,starting_scream,scream,starting,m,positive,negative,ES_red,1,m,798,991230,991732,991934
66,first,49,munter,IAT_yellow3.bmp,yellow,starting_scream,scream,starting,m,positive,negative,ES_red,1,m,665,993813,994314,994515
66,first,50,morsch,IAT_green2.bmp,green,ending_melody,melody,ending,c,negative,negative,ES_red,1,c,626,996251,996752,996954
66,first,51,ehrlich,IAT_red1.bmp,red,ending_scream,scream,ending,m,positive,positive,ES_red,1,m,749,998657,999158,999359
66,first,52,brutal,IAT_purple2.bmp,purple,starting_melody,melody,starting,c,negative,positive,ES_red,1,c,687,1001183,1001684,1001885
66,first,53,witzig,IAT_green3.bmp,green,ending_melody,melody,ending,m,positive,negative,ES_red,1,m,791,1003653,1004155,1004357
66,first,54,heiter,IAT_purple3.bmp,purple,starting_melody,melody,starting,m,positive,positive,ES_red,1,m,766,1006223,1006724,1006926
66,first,55,krank,IAT_purple4.bmp,purple,starting_melody,melody,starting,c,negative,positive,ES_red,1,c,749,1008767,1009268,1009470
66,first,56,streng,IAT_red4.bmp,red,ending_scream,scream,ending,c,negative,positive,ES_red,1,c,1187,1011306,1011807,1012009
66,first,57,gesund,IAT_green2.bmp,green,ending_melody,melody,ending,m,positive,negative,ES_red,1,m,793,1014292,1014793,1014995
66,first,58,sozial,IAT_red2.bmp,red,ending_scream,scream,ending,m,positive,positive,ES_red,1,m,650,1016868,1017369,1017570
66,first,59,lästig,IAT_yellow4.bmp,yellow,starting_scream,scream,starting,c,negative,negative,ES_red,1,c,588,1019297,1019798,1020000
66,first,60,gesund,IAT_yellow1.bmp,yellow,starting_scream,scream,starting,m,positive,negative,ES_red,1,m,602,1021667,1022168,1022370
66,first,61,gerecht,IAT_red3.bmp,red,ending_scream,scream,ending,m,positive,positive,ES_red,1,m,653,1024047,1024548,1024750
66,first,62,kaputt,IAT_purple4.bmp,purple,starting_melody,melody,starting,c,negative,positive,ES_red,1,c,765,1026479,1026980,1027182
66,first,63,witzig,IAT_green3.bmp,green,ending_melody,melody,ending,m,positive,negative,ES_red,1,m,728,1029045,1029546,1029748
66,first,64,gierig,IAT_green3.bmp,green,ending_melody,melody,ending,c,negative,negative,ES_red,0,m,552,1031573,1032074,1032276
66,first,65,sanft,IAT_purple1.bmp,purple,starting_melody,melody,starting,m,positive,positive,ES_red,1,m,1412,1034409,1034910,1035112
66,first,66,brutal,IAT_red3.bmp,red,ending_scream,scream,ending,c,negative,positive,ES_red,1,c,763,1037602,1038103,1038305
66,first,67,einsam,IAT_yellow1.bmp,yellow,starting_scream,scream,starting,c,negative,negative,ES_red,1,c,778,1040145,1040647,1040849
66,first,68,heiter,IAT_green1.bmp,green,ending_melody,melody,ending,m,positive,negative,ES_red,1,m,736,1042716,1043217,1043419
66,first,69,gerecht,IAT_red4.bmp,red,ending_scream,scream,ending,m,positive,positive,ES_red,1,m,870,1045239,1045740,1045941
66,first,70,gierig,IAT_yellow4.bmp,yellow,starting_scream,scream,starting,c,negative,negative,ES_red,1,c,607,1047918,1048419,1048621
66,first,71,streng,IAT_red4.bmp,red,ending_scream,scream,ending,c,negative,positive,ES_red,1,c,739,1050299,1050800,1051001
66,first,72,witzig,IAT_purple2.bmp,purple,starting_melody,melody,starting,m,positive,positive,ES_red,1,m,625,1052812,1053313,1053515
66,first,73,schön,IAT_purple1.bmp,purple,starting_melody,melody,starting,m,positive,positive,ES_red,1,m,766,1055214,1055715,1055917
66,first,74,ehrlich,IAT_red1.bmp,red,ending_scream,scream,ending,m,positive,positive,ES_red,1,m,700,1057759,1058261,1058463
66,first,75,munter,IAT_red4.bmp,red,ending_scream,scream,ending,m,positive,positive,ES_red,1,m,871,1060244,1060746,1060948
66,first,76,schön,IAT_red1.bmp,red,ending_scream,scream,ending,m,positive,positive,ES_red,1,m,861,1062894,1063396,1063598
66,first,77,gerecht,IAT_purple4.bmp,purple,starting_melody,melody,starting,m,positive,positive,ES_red,1,m,677,1065544,1066045,1066247
66,first,78,schön,IAT_red3.bmp,red,ending_scream,scream,ending,m,positive,positive,ES_red,1,m,780,1068001,1068502,1068704
66,first,79,brutal,IAT_red3.bmp,red,ending_scream,scream,ending,c,negative,positive,ES_red,1,c,776,1070564,1071065,1071267
66,first,80,sozial,IAT_purple3.bmp,purple,starting_melody,melody,starting,m,positive,positive,ES_red,1,m,814,1073118,1073619,1073821
66,first,81,human,IAT_purple3.bmp,purple,starting_melody,melody,starting,m,positive,positive,ES_red,1,m,648,1075732,1076233,1076435
66,first,82,teuer,IAT_red1.bmp,red,ending_scream,scream,ending,c,negative,positive,ES_red,1,c,939,1078160,1078662,1078864
66,first,83,gierig,IAT_purple2.bmp,purple,starting_melody,melody,starting,c,negative,positive,ES_red,1,c,1033,1080884,1081385,1081587
66,first,84,teuer,IAT_yellow4.bmp,yellow,starting_scream,scream,starting,c,negative,negative,ES_red,1,c,1039,1083710,1084211,1084413
66,first,85,feige,IAT_purple3.bmp,purple,starting_melody,melody,starting,c,negative,positive,ES_red,1,c,753,1086552,1087053,1087255
66,first,86,munter,IAT_purple4.bmp,purple,starting_melody,melody,starting,m,positive,positive,ES_red,1,m,720,1089085,1089586,1089787
66,first,87,ehrlich,IAT_purple2.bmp,purple,starting_melody,melody,starting,m,positive,positive,ES_red,1,m,754,1091594,1092095,1092297
66,first,88,lustig,IAT_green1.bmp,green,ending_melody,melody,ending,m,positive,negative,ES_red,1,m,1115,1094145,1094646,1094848
66,first,89,sanft,IAT_purple1.bmp,purple,starting_melody,melody,starting,m,positive,positive,ES_red,1,m,722,1097034,1097535,1097737
66,first,90,kaputt,IAT_green3.bmp,green,ending_melody,melody,ending,c,negative,negative,ES_red,1,c,1004,1099553,1100054,1100256
66,first,91,feige,IAT_purple4.bmp,purple,starting_melody,melody,starting,c,negative,positive,ES_red,1,c,1004,1102336,1102837,1103039
66,first,92,morsch,IAT_red2.bmp,red,ending_scream,scream,ending,c,negative,positive,ES_red,1,c,1304,1105124,1105625,1105827
66,first,93,falsch,IAT_yellow3.bmp,yellow,starting_scream,scream,starting,c,negative,negative,ES_red,1,c,715,1108210,1108711,1108912
66,first,94,geizig,IAT_red2.bmp,red,ending_scream,scream,ending,c,negative,positive,ES_red,1,c,827,1110706,1111207,1111408
66,first,95,einsam,IAT_yellow4.bmp,yellow,starting_scream,scream,starting,c,negative,negative,ES_red,1,c,646,1113318,1113819,1114021
66,second,0,krank,IAT_red4.bmp,red,ending_scream,scream,ending,c,negative,positive,ES_red,1,c,737,1123931,1124432,1124634
66,second,1,falsch,IAT_red2.bmp,red,ending_scream,scream,ending,c,negative,positive,ES_red,1,c,589,1126463,1126964,1127166
66,second,2,witzig,IAT_yellow3.bmp,yellow,starting_scream,scream,starting,m,positive,negative,ES_red,1,m,655,1128829,1129330,1129532
66,second,3,sozial,IAT_yellow4.bmp,yellow,starting_scream,scream,starting,m,positive,negative,ES_red,1,m,967,1131269,1131770,1131972
66,second,4,morsch,IAT_red3.bmp,red,ending_scream,scream,ending,c,negative,positive,ES_red,1,c,926,1134030,1134531,1134733
66,second,5,human,IAT_yellow4.bmp,yellow,starting_scream,scream,starting,m,positive,negative,ES_red,1,m,691,1136746,1137247,1137448
66,second,6,heiter,IAT_purple1.bmp,purple,starting_melody,melody,starting,m,positive,positive,ES_red,1,m,748,1139216,1139717,1139919
66,second,7,kaputt,IAT_purple4.bmp,purple,starting_melody,melody,starting,c,negative,positive,ES_red,1,c,612,1141752,1142253,1142455
66,second,8,gesund,IAT_purple1.bmp,purple,starting_melody,melody,starting,m,positive,positive,ES_red,1,m,811,1144161,1144662,1144864
66,second,9,streng,IAT_yellow2.bmp,yellow,starting_scream,scream,starting,c,negative,negative,ES_red,1,c,1030,1146759,1147260,1147461
66,second,10,lästig,IAT_green4.bmp,green,ending_melody,melody,ending,c,negative,negative,ES_red,1,c,783,1149564,1150065,1150267
66,second,11,ehrlich,IAT_green3.bmp,green,ending_melody,melody,ending,m,positive,negative,ES_red,1,m,775,1152133,1152634,1152837
66,second,12,teuer,IAT_purple4.bmp,purple,starting_melody,melody,starting,c,negative,positive,ES_red,1,c,686,1154702,1155203,1155405
66,second,13,heiter,IAT_red1.bmp,red,ending_scream,scream,ending,m,positive,positive,ES_red,1,m,843,1157185,1157686,1157888
66,second,14,ehrlich,IAT_red3.bmp,red,ending_scream,scream,ending,m,positive,positive,ES_red,0,c,924,1159808,1160309,1160511
66,second,15,brutal,IAT_green2.bmp,green,ending_melody,melody,ending,c,negative,negative,ES_red,1,c,754,1163033,1163534,1163736
66,second,16,krank,IAT_yellow1.bmp,yellow,starting_scream,scream,starting,c,negative,negative,ES_red,1,c,856,1165571,1166072,1166274
66,second,17,sozial,IAT_green2.bmp,green,ending_melody,melody,ending,m,positive,negative,ES_red,0,None,1500,1168215,1168716,1168918
66,second,18,gierig,IAT_red4.bmp,red,ending_scream,scream,ending,c,negative,positive,ES_red,1,c,720,1171996,1172497,1172699
66,second,19,krank,IAT_purple4.bmp,purple,starting_melody,melody,starting,c,negative,positive,ES_red,1,c,864,1174508,1175010,1175211
66,second,20,brutal,IAT_purple3.bmp,purple,starting_melody,melody,starting,c,negative,positive,ES_red,1,c,891,1177153,1177654,1177856
66,second,21,krank,IAT_green2.bmp,green,ending_melody,melody,ending,c,negative,negative,ES_red,1,c,773,1179830,1180332,1180533
66,second,22,falsch,IAT_red1.bmp,red,ending_scream,scream,ending,c,negative,positive,ES_red,1,c,785,1182394,1182895,1183097
66,second,23,feige,IAT_green2.bmp,green,ending_melody,melody,ending,c,negative,negative,ES_red,1,c,719,1184987,1185489,1185691
66,second,24,gerecht,IAT_purple3.bmp,purple,starting_melody,melody,starting,m,positive,positive,ES_red,1,m,849,1187483,1187984,1188186
66,second,25,teuer,IAT_red3.bmp,red,ending_scream,scream,ending,c,negative,positive,ES_red,1,c,857,1190115,1190616,1190818
66,second,26,geizig,IAT_green1.bmp,green,ending_melody,melody,ending,c,negative,negative,ES_red,1,c,681,1192755,1193256,1193458
66,second,27,sanft,IAT_green3.bmp,green,ending_melody,melody,ending,m,positive,negative,ES_red,1,m,797,1195229,1195731,1195933
66,second,28,sonnig,IAT_red1.bmp,red,ending_scream,scream,ending,m,positive,positive,ES_red,1,m,761,1197809,1198311,1198513
66,second,29,schön,IAT_green3.bmp,green,ending_melody,melody,ending,m,positive,negative,ES_red,1,m,573,1200350,1200851,1201053
66,second,30,witzig,IAT_green4.bmp,green,ending_melody,melody,ending,m,positive,negative,ES_red,0,c,773,1202709,1203211,1203413
66,second,31,streng,IAT_red4.bmp,red,ending_scream,scream,ending,c,negative,positive,ES_red,1,c,728,1205763,1206265,1206467
66,second,32,brutal,IAT_green3.bmp,green,ending_melody,melody,ending,c,negative,negative,ES_red,1,c,636,1208272,1208773,1208975
66,second,33,heiter,IAT_yellow2.bmp,yellow,starting_scream,scream,starting,m,positive,negative,ES_red,1,m,777,1210690,1211191,1211393
66,second,34,teuer,IAT_green4.bmp,green,ending_melody,melody,ending,c,negative,negative,ES_red,1,c,828,1213248,1213749,1213950
66,second,35,human,IAT_purple4.bmp,purple,starting_melody,melody,starting,m,positive,positive,ES_red,1,m,666,1215857,1216358,1216560
66,second,36,morsch,IAT_red2.bmp,red,ending_scream,scream,ending,c,negative,positive,ES_red,1,c,785,1218298,1218799,1219001
66,second,37,gesund,IAT_green1.bmp,green,ending_melody,melody,ending,m,positive,negative,ES_red,1,m,572,1220863,1221364,1221566
66,second,38,gerecht,IAT_red1.bmp,red,ending_scream,scream,ending,m,positive,positive,ES_red,1,m,991,1223213,1223714,1223916
66,second,39,geizig,IAT_yellow2.bmp,yellow,starting_scream,scream,starting,c,negative,negative,ES_red,1,c,721,1225979,1226480,1226682
66,second,40,lustig,IAT_green1.bmp,green,ending_melody,melody,ending,m,positive,negative,ES_red,1,m,665,1228482,1228983,1229185
66,second,41,einsam,IAT_purple2.bmp,purple,starting_melody,melody,starting,c,negative,positive,ES_red,1,c,766,1230925,1231426,1231628
66,second,42,schön,IAT_green4.bmp,green,ending_melody,melody,ending,m,positive,negative,ES_red,1,m,1037,1233470,1233971,1234173
66,second,43,sozial,IAT_yellow3.bmp,yellow,starting_scream,scream,starting,m,positive,negative,ES_red,1,m,1307,1236288,1236789,1236991
66,second,44,witzig,IAT_red3.bmp,red,ending_scream,scream,ending,m,positive,positive,ES_red,1,m,651,1239378,1239879,1240080
66,second,45,schön,IAT_red3.bmp,red,ending_scream,scream,ending,m,positive,positive,ES_red,1,m,582,1241813,1242314,1242516
66,second,46,falsch,IAT_purple3.bmp,purple,starting_melody,melody,starting,c,negative,positive,ES_red,1,c,689,1244186,1244687,1244889
66,second,47,lästig,IAT_red1.bmp,red,ending_scream,scream,ending,c,negative,positive,ES_red,1,c,609,1246666,1247167,1247369
66,second,48,einsam,IAT_green3.bmp,green,ending_melody,melody,ending,c,negative,negative,ES_red,1,c,779,1249072,1249573,1249775
66,second,49,human,IAT_yellow1.bmp,yellow,starting_scream,scream,starting,m,positive,negative,ES_red,1,m,680,1251651,1252152,1252354
66,second,50,sonnig,IAT_purple2.bmp,purple,starting_melody,melody,starting,m,positive,positive,ES_red,1,m,557,1254110,1254611,1254813
66,second,51,sozial,IAT_purple2.bmp,purple,starting_melody,melody,starting,m,positive,positive,ES_red,1,m,668,1256449,1256950,1257151
66,second,52,lästig,IAT_purple1.bmp,purple,starting_melody,melody,starting,c,negative,positive,ES_red,1,c,667,1258913,1259414,1259615
66,second,53,brutal,IAT_yellow1.bmp,yellow,starting_scream,scream,starting,c,negative,negative,ES_red,1,c,487,1261365,1261866,1262067
66,second,54,gierig,IAT_purple2.bmp,purple,starting_melody,melody,starting,c,negative,positive,ES_red,1,c,502,1263637,1264138,1264340
66,second,55,ehrlich,IAT_red2.bmp,red,ending_scream,scream,ending,m,positive,positive,ES_red,1,m,557,1265934,1266435,1266637
66,second,56,lustig,IAT_green2.bmp,green,ending_melody,melody,ending,m,positive,negative,ES_red,1,m,476,1268271,1268772,1268974
66,second,57,witzig,IAT_yellow3.bmp,yellow,starting_scream,scream,starting,m,positive,negative,ES_red,1,m,577,1270522,1271023,1271225
66,second,58,gerecht,IAT_purple4.bmp,purple,starting_melody,melody,starting,m,positive,positive,ES_red,1,m,635,1272895,1273396,1273598
66,second,59,gesund,IAT_green1.bmp,green,ending_melody,melody,ending,m,positive,negative,ES_red,1,m,523,1275312,1275813,1276015
66,second,60,kaputt,IAT_purple2.bmp,purple,starting_melody,melody,starting,c,negative,positive,ES_red,1,c,646,1277621,1278122,1278324
66,second,61,munter,IAT_purple1.bmp,purple,starting_melody,melody,starting,m,positive,positive,ES_red,1,m,632,1280051,1280552,1280754
66,second,62,geizig,IAT_red2.bmp,red,ending_scream,scream,ending,c,negative,positive,ES_red,1,c,699,1282464,1282965,1283167
66,second,63,lustig,IAT_purple3.bmp,purple,starting_melody,melody,starting,m,positive,positive,ES_red,1,m,687,1284956,1285457,1285659
66,second,64,kaputt,IAT_yellow4.bmp,yellow,starting_scream,scream,starting,c,negative,negative,ES_red,1,c,821,1287430,1287931,1288133
66,second,65,sanft,IAT_purple3.bmp,purple,starting_melody,melody,starting,m,positive,positive,ES_red,1,m,695,1290035,1290536,1290738
66,second,66,streng,IAT_purple1.bmp,purple,starting_melody,melody,starting,c,negative,positive,ES_red,1,c,668,1292527,1293028,1293230
66,second,67,heiter,IAT_red1.bmp,red,ending_scream,scream,ending,m,positive,positive,ES_red,1,m,645,1294982,1295483,1295685
66,second,68,feige,IAT_yellow2.bmp,yellow,starting_scream,scream,starting,c,negative,negative,ES_red,1,c,632,1297411,1297912,1298114
66,second,69,sonnig,IAT_red3.bmp,red,ending_scream,scream,ending,m,positive,positive,ES_red,1,m,623,1299836,1300337,1300539
66,second,70,einsam,IAT_yellow3.bmp,yellow,starting_scream,scream,starting,c,negative,negative,ES_red,1,c,879,1302237,1302738,1302939
66,second,71,gierig,IAT_green4.bmp,green,ending_melody,melody,ending,c,negative,negative,ES_red,1,c,668,1304895,1305396,1305597
66,second,72,munter,IAT_purple3.bmp,purple,starting_melody,melody,starting,m,positive,positive,ES_red,1,m,660,1307349,1307851,1308053
66,second,73,ehrlich,IAT_yellow1.bmp,yellow,starting_scream,scream,starting,m,positive,negative,ES_red,1,m,635,1309792,1310293,1310495
66,second,74,sanft,IAT_green3.bmp,green,ending_melody,melody,ending,m,positive,negative,ES_red,1,m,810,1312241,1312742,1312944
66,second,75,streng,IAT_purple4.bmp,purple,starting_melody,melody,starting,c,negative,positive,ES_red,1,c,655,1314828,1315329,1315531
66,second,76,feige,IAT_green2.bmp,green,ending_melody,melody,ending,c,negative,negative,ES_red,1,c,526,1317261,1317762,1317964
66,second,77,teuer,IAT_yellow4.bmp,yellow,starting_scream,scream,starting,c,negative,negative,ES_red,0,m,665,1319569,1320070,1320272
66,second,78,gesund,IAT_yellow2.bmp,yellow,starting_scream,scream,starting,m,positive,negative,ES_red,1,m,955,1322511,1323012,1323214
66,second,79,schön,IAT_yellow1.bmp,yellow,starting_scream,scream,starting,m,positive,negative,ES_red,1,m,746,1325248,1325749,1325951
66,second,80,kaputt,IAT_yellow4.bmp,yellow,starting_scream,scream,starting,c,negative,negative,ES_red,1,c,601,1327778,1328279,1328481
66,second,81,munter,IAT_yellow3.bmp,yellow,starting_scream,scream,starting,m,positive,negative,ES_red,1,m,974,1330172,1330674,1330876
66,second,82,morsch,IAT_purple2.bmp,purple,starting_melody,melody,starting,c,negative,positive,ES_red,1,c,948,1332934,1333436,1333638
66,second,83,feige,IAT_green4.bmp,green,ending_melody,melody,ending,c,negative,negative,ES_red,1,c,738,1335688,1336189,1336391
66,second,84,lustig,IAT_red4.bmp,red,ending_scream,scream,ending,m,positive,positive,ES_red,1,m,733,1338205,1338706,1338908
66,second,85,sonnig,IAT_green1.bmp,green,ending_melody,melody,ending,m,positive,negative,ES_red,1,m,604,1340719,1341220,1341421
66,second,86,einsam,IAT_yellow2.bmp,yellow,starting_scream,scream,starting,c,negative,negative,ES_red,1,c,723,1343096,1343597,1343798
66,second,87,sanft,IAT_purple1.bmp,purple,starting_melody,melody,starting,m,positive,positive,ES_red,0,c,797,1345598,1346099,1346301
66,second,88,gierig,IAT_red4.bmp,red,ending_scream,scream,ending,c,negative,positive,ES_red,1,c,784,1348683,1349184,1349386
66,second,89,geizig,IAT_yellow4.bmp,yellow,starting_scream,scream,starting,c,negative,negative,ES_red,1,c,794,1351247,1351749,1351951
66,second,90,falsch,IAT_yellow3.bmp,yellow,starting_scream,scream,starting,c,negative,negative,ES_red,1,c,566,1353828,1354329,1354531
66,second,91,munter,IAT_red2.bmp,red,ending_scream,scream,ending,m,positive,positive,ES_red,1,m,663,1356196,1356697,1356898
66,second,92,lästig,IAT_green1.bmp,green,ending_melody,melody,ending,c,negative,negative,ES_red,1,c,702,1358636,1359137,1359339
66,second,93,gerecht,IAT_red4.bmp,red,ending_scream,scream,ending,m,positive,positive,ES_red,1,m,926,1361117,1361618,1361820
66,second,94,human,IAT_yellow1.bmp,yellow,starting_scream,scream,starting,m,positive,negative,ES_red,1,m,652,1363822,1364324,1364526
66,second,95,morsch,IAT_red2.bmp,red,ending_scream,scream,ending,c,negative,positive,ES_red,1,c,658,1366263,1366765,1366967
