subject_nr,block,trialnr,trial_target,trial_prime,prime_color,prime_role,prime_us,prime_relation,correct_response,target_valence,prime_valence,color_counter,correct_first_response,response_first_response,response_time_first_response,fixation_show,prime_show,target_show
45,first,0,sonnig,IAT_purple1.bmp,purple,ending_scream,scream,ending,m,positive,positive,ES_purple,1,m,550,3245012,3245513,3245715
45,first,1,witzig,IAT_red1.bmp,red,starting_scream,scream,starting,m,positive,negative,ES_purple,1,m,488,3247345,3247846,3248048
45,first,2,teuer,IAT_yellow4.bmp,yellow,ending_melody,melody,ending,c,negative,negative,ES_purple,1,c,526,3249612,3250113,3250315
45,first,3,gesund,IAT_yellow1.bmp,yellow,ending_melody,melody,ending,m,positive,negative,ES_purple,1,m,492,3251918,3252419,3252621
45,first,4,lustig,IAT_purple4.bmp,purple,ending_scream,scream,ending,m,positive,positive,ES_purple,1,m,512,3254186,3254687,3254889
45,first,5,streng,IAT_green1.bmp,green,starting_melody,melody,starting,c,negative,positive,ES_purple,1,c,576,3256474,3256975,3257177
45,first,6,feige,IAT_red1.bmp,red,starting_scream,scream,starting,c,negative,negative,ES_purple,1,c,592,3258843,3259344,3259545
45,first,7,heiter,IAT_red2.bmp,red,starting_scream,scream,starting,m,positive,negative,ES_purple,1,m,478,3261212,3261713,3261915
45,first,8,brutal,IAT_red2.bmp,red,starting_scream,scream,starting,c,negative,negative,ES_purple,0,m,516,3263477,3263978,3264180
45,first,9,gesund,IAT_green3.bmp,green,starting_melody,melody,starting,m,positive,positive,ES_purple,1,m,505,3266272,3266773,3266975
45,first,10,human,IAT_yellow1.bmp,yellow,ending_melody,melody,ending,m,positive,negative,ES_purple,1,m,511,3268555,3269056,3269258
45,first,11,schön,IAT_green2.bmp,green,starting_melody,melody,starting,m,positive,positive,ES_purple,1,m,474,3270864,3271365,3271567
45,first,12,munter,IAT_red2.bmp,red,starting_scream,scream,starting,m,positive,negative,ES_purple,0,c,380,3273118,3273619,3273821
45,first,13,gerecht,IAT_red3.bmp,red,starting_scream,scream,starting,m,positive,negative,ES_purple,1,m,666,3275792,3276293,3276495
45,first,14,gierig,IAT_purple2.bmp,purple,ending_scream,scream,ending,c,negative,positive,ES_purple,1,c,586,3278239,3278740,3278942
45,first,15,munter,IAT_red4.bmp,red,starting_scream,scream,starting,m,positive,negative,ES_purple,1,m,586,3280607,3281108,3281310
45,first,16,witzig,IAT_green4.bmp,green,starting_melody,melody,starting,m,positive,positive,ES_purple,1,m,613,3282980,3283481,3283683
45,first,17,falsch,IAT_yellow2.bmp,yellow,ending_melody,melody,ending,c,negative,negative,ES_purple,1,c,483,3285367,3285868,3286070
45,first,18,kaputt,IAT_green2.bmp,green,starting_melody,melody,starting,c,negative,positive,ES_purple,1,c,587,3287631,3288132,3288334
45,first,19,sanft,IAT_purple4.bmp,purple,ending_scream,scream,ending,m,positive,positive,ES_purple,1,m,483,3290023,3290524,3290726
45,first,20,krank,IAT_red4.bmp,red,starting_scream,scream,starting,c,negative,negative,ES_purple,1,c,461,3292285,3292786,3292988
45,first,21,ehrlich,IAT_purple3.bmp,purple,ending_scream,scream,ending,m,positive,positive,ES_purple,1,m,537,3294528,3295029,3295231
45,first,22,lästig,IAT_purple1.bmp,purple,ending_scream,scream,ending,c,negative,positive,ES_purple,1,c,619,3296846,3297347,3297549
45,first,23,krank,IAT_purple2.bmp,purple,ending_scream,scream,ending,c,negative,positive,ES_purple,1,c,429,3299244,3299745,3299947
45,first,24,teuer,IAT_green4.bmp,green,starting_melody,melody,starting,c,negative,positive,ES_purple,1,c,488,3301457,3301958,3302160
45,first,25,falsch,IAT_purple2.bmp,purple,ending_scream,scream,ending,c,negative,positive,ES_purple,1,c,466,3303720,3304221,3304423
45,first,26,brutal,IAT_purple3.bmp,purple,ending_scream,scream,ending,c,negative,positive,ES_purple,1,c,456,3305969,3306470,3306672
45,first,27,geizig,IAT_red3.bmp,red,starting_scream,scream,starting,c,negative,negative,ES_purple,1,c,649,3308208,3308709,3308911
45,first,28,brutal,IAT_yellow4.bmp,yellow,ending_melody,melody,ending,c,negative,negative,ES_purple,1,c,502,3310642,3311143,3311345
45,first,29,krank,IAT_yellow4.bmp,yellow,ending_melody,melody,ending,c,negative,negative,ES_purple,1,c,476,3312924,3313425,3313627
45,first,30,feige,IAT_purple4.bmp,purple,ending_scream,scream,ending,c,negative,positive,ES_purple,1,c,605,3315179,3315680,3315882
45,first,31,sozial,IAT_purple2.bmp,purple,ending_scream,scream,ending,m,positive,positive,ES_purple,1,m,516,3317556,3318057,3318259
45,first,32,morsch,IAT_green3.bmp,green,starting_melody,melody,starting,c,negative,positive,ES_purple,1,c,651,3319853,3320355,3320557
45,first,33,ehrlich,IAT_green1.bmp,green,starting_melody,melody,starting,m,positive,positive,ES_purple,1,m,525,3322284,3322785,3322987
45,first,34,streng,IAT_green4.bmp,green,starting_melody,melody,starting,c,negative,positive,ES_purple,1,c,522,3324590,3325091,3325293
45,first,35,sozial,IAT_yellow1.bmp,yellow,ending_melody,melody,ending,m,positive,negative,ES_purple,1,m,609,3326887,3327388,3327590
45,first,36,sanft,IAT_green3.bmp,green,starting_melody,melody,starting,m,positive,positive,ES_purple,1,m,493,3329275,3329776,3329978
45,first,37,morsch,IAT_green4.bmp,green,starting_melody,melody,starting,c,negative,positive,ES_purple,1,c,705,3331575,3332076,3332278
45,first,38,lästig,IAT_purple4.bmp,purple,ending_scream,scream,ending,c,negative,positive,ES_purple,1,c,559,3334057,3334558,3334760
45,first,39,human,IAT_purple1.bmp,purple,ending_scream,scream,ending,m,positive,positive,ES_purple,0,c,399,3336394,3336895,3337097
45,first,40,falsch,IAT_yellow1.bmp,yellow,ending_melody,melody,ending,c,negative,negative,ES_purple,1,c,561,3339079,3339581,3339783
45,first,41,morsch,IAT_red2.bmp,red,starting_scream,scream,starting,c,negative,negative,ES_purple,1,c,600,3341424,3341925,3342127
45,first,42,brutal,IAT_red2.bmp,red,starting_scream,scream,starting,c,negative,negative,ES_purple,1,c,524,3343804,3344305,3344507
45,first,43,morsch,IAT_yellow1.bmp,yellow,ending_melody,melody,ending,c,negative,negative,ES_purple,1,c,684,3346108,3346609,3346811
45,first,44,einsam,IAT_yellow2.bmp,yellow,ending_melody,melody,ending,c,negative,negative,ES_purple,0,m,507,3348573,3349074,3349275
45,first,45,lästig,IAT_red2.bmp,red,starting_scream,scream,starting,c,negative,negative,ES_purple,1,c,611,3351380,3351881,3352084
45,first,46,sozial,IAT_green1.bmp,green,starting_melody,melody,starting,m,positive,positive,ES_purple,1,m,542,3353769,3354270,3354472
45,first,47,feige,IAT_purple2.bmp,purple,ending_scream,scream,ending,c,negative,positive,ES_purple,1,c,729,3356094,3356595,3356797
45,first,48,teuer,IAT_yellow2.bmp,yellow,ending_melody,melody,ending,c,negative,negative,ES_purple,1,c,487,3358608,3359109,3359311
45,first,49,feige,IAT_green2.bmp,green,starting_melody,melody,starting,c,negative,positive,ES_purple,1,c,494,3360873,3361374,3361576
45,first,50,gesund,IAT_red3.bmp,red,starting_scream,scream,starting,m,positive,negative,ES_purple,1,m,526,3363145,3363646,3363848
45,first,51,lustig,IAT_purple1.bmp,purple,ending_scream,scream,ending,m,positive,positive,ES_purple,1,m,574,3365449,3365950,3366152
45,first,52,ehrlich,IAT_green3.bmp,green,starting_melody,melody,starting,m,positive,positive,ES_purple,1,m,507,3367804,3368305,3368507
45,first,53,teuer,IAT_red4.bmp,red,starting_scream,scream,starting,c,negative,negative,ES_purple,1,c,481,3370086,3370587,3370789
45,first,54,schön,IAT_purple3.bmp,purple,ending_scream,scream,ending,m,positive,positive,ES_purple,1,m,634,3372349,3372850,3373052
45,first,55,munter,IAT_purple3.bmp,purple,ending_scream,scream,ending,m,positive,positive,ES_purple,1,m,512,3374759,3375260,3375462
45,first,56,gierig,IAT_purple1.bmp,purple,ending_scream,scream,ending,c,negative,positive,ES_purple,1,c,582,3377057,3377558,3377760
45,first,57,kaputt,IAT_red3.bmp,red,starting_scream,scream,starting,c,negative,negative,ES_purple,1,c,643,3379412,3379913,3380115
45,first,58,einsam,IAT_green4.bmp,green,starting_melody,melody,starting,c,negative,positive,ES_purple,1,c,781,3381835,3382336,3382537
45,first,59,gerecht,IAT_red3.bmp,red,starting_scream,scream,starting,m,positive,negative,ES_purple,1,m,497,3384390,3384891,3385093
45,first,60,geizig,IAT_yellow3.bmp,yellow,ending_melody,melody,ending,c,negative,negative,ES_purple,1,c,636,3386666,3387167,3387369
45,first,61,gesund,IAT_yellow3.bmp,yellow,ending_melody,melody,ending,m,positive,negative,ES_purple,1,m,514,3389077,3389578,3389779
45,first,62,gierig,IAT_red4.bmp,red,starting_scream,scream,starting,c,negative,negative,ES_purple,0,m,633,3391374,3391875,3392077
45,first,63,heiter,IAT_yellow3.bmp,yellow,ending_melody,melody,ending,m,positive,negative,ES_purple,1,m,624,3394295,3394796,3394998
45,first,64,witzig,IAT_purple3.bmp,purple,ending_scream,scream,ending,m,positive,positive,ES_purple,1,m,629,3396706,3397207,3397409
45,first,65,lästig,IAT_purple4.bmp,purple,ending_scream,scream,ending,c,negative,positive,ES_purple,1,c,669,3399114,3399615,3399817
45,first,66,sanft,IAT_red1.bmp,red,starting_scream,scream,starting,m,positive,negative,ES_purple,1,m,610,3401556,3402057,3402259
45,first,67,gerecht,IAT_yellow3.bmp,yellow,ending_melody,melody,ending,m,positive,negative,ES_purple,1,m,695,3403950,3404452,3404653
45,first,68,lustig,IAT_red3.bmp,red,starting_scream,scream,starting,m,positive,negative,ES_purple,1,m,444,3406425,3406926,3407128
45,first,69,human,IAT_yellow3.bmp,yellow,ending_melody,melody,ending,m,positive,negative,ES_purple,1,m,490,3408652,3409153,3409355
45,first,70,krank,IAT_purple3.bmp,purple,ending_scream,scream,ending,c,negative,positive,ES_purple,1,c,504,3410941,3411443,3411645
45,first,71,sonnig,IAT_yellow2.bmp,yellow,ending_melody,melody,ending,m,positive,negative,ES_purple,1,m,513,3413221,3413722,3413924
45,first,72,kaputt,IAT_yellow3.bmp,yellow,ending_melody,melody,ending,c,negative,negative,ES_purple,1,c,687,3415527,3416028,3416230
45,first,73,human,IAT_yellow1.bmp,yellow,ending_melody,melody,ending,m,positive,negative,ES_purple,1,m,524,3417992,3418494,3418696
45,first,74,sonnig,IAT_green3.bmp,green,starting_melody,melody,starting,m,positive,positive,ES_purple,1,m,510,3420295,3420796,3420998
45,first,75,falsch,IAT_red4.bmp,red,starting_scream,scream,starting,c,negative,negative,ES_purple,1,c,607,3422582,3423084,3423286
45,first,76,sozial,IAT_purple2.bmp,purple,ending_scream,scream,ending,m,positive,positive,ES_purple,1,m,750,3424969,3425470,3425671
45,first,77,schön,IAT_green1.bmp,green,starting_melody,melody,starting,m,positive,positive,ES_purple,1,m,604,3427497,3427999,3428201
45,first,78,geizig,IAT_green3.bmp,green,starting_melody,melody,starting,c,negative,positive,ES_purple,0,m,628,3429874,3430375,3430577
45,first,79,streng,IAT_green2.bmp,green,starting_melody,melody,starting,c,negative,positive,ES_purple,1,c,650,3432780,3433281,3433483
45,first,80,gerecht,IAT_red1.bmp,red,starting_scream,scream,starting,m,positive,negative,ES_purple,1,m,630,3435231,3435732,3435934
45,first,81,heiter,IAT_green1.bmp,green,starting_melody,melody,starting,m,positive,positive,ES_purple,1,m,653,3437640,3438141,3438343
45,first,82,witzig,IAT_red1.bmp,red,starting_scream,scream,starting,m,positive,negative,ES_purple,1,m,576,3440069,3440570,3440772
45,first,83,gierig,IAT_red1.bmp,red,starting_scream,scream,starting,c,negative,negative,ES_purple,1,c,685,3442425,3442926,3443128
45,first,84,schön,IAT_yellow4.bmp,yellow,ending_melody,melody,ending,m,positive,negative,ES_purple,1,m,491,3444891,3445392,3445594
45,first,85,munter,IAT_yellow4.bmp,yellow,ending_melody,melody,ending,m,positive,negative,ES_purple,1,m,534,3447166,3447667,3447868
45,first,86,einsam,IAT_yellow4.bmp,yellow,ending_melody,melody,ending,c,negative,negative,ES_purple,0,m,574,3449494,3449996,3450198
45,first,87,sonnig,IAT_green2.bmp,green,starting_melody,melody,starting,m,positive,positive,ES_purple,1,m,562,3452355,3452856,3453058
45,first,88,lustig,IAT_red4.bmp,red,starting_scream,scream,starting,m,positive,negative,ES_purple,1,m,600,3454701,3455202,3455404
45,first,89,geizig,IAT_green2.bmp,green,starting_melody,melody,starting,c,negative,positive,ES_purple,1,c,658,3457076,3457577,3457778
45,first,90,einsam,IAT_green1.bmp,green,starting_melody,melody,starting,c,negative,positive,ES_purple,1,c,848,3459510,3460011,3460213
45,first,91,ehrlich,IAT_yellow2.bmp,yellow,ending_melody,melody,ending,m,positive,negative,ES_purple,1,m,683,3462139,3462640,3462842
45,first,92,sanft,IAT_purple1.bmp,purple,ending_scream,scream,ending,m,positive,positive,ES_purple,1,m,711,3464606,3465107,3465309
45,first,93,streng,IAT_yellow2.bmp,yellow,ending_melody,melody,ending,c,negative,negative,ES_purple,1,c,604,3467098,3467599,3467800
45,first,94,kaputt,IAT_purple4.bmp,purple,ending_scream,scream,ending,c,negative,positive,ES_purple,1,c,612,3469504,3470006,3470209
45,first,95,heiter,IAT_green4.bmp,green,starting_melody,melody,starting,m,positive,positive,ES_purple,1,m,655,3471910,3472411,3472613
45,second,0,einsam,IAT_purple4.bmp,purple,ending_scream,scream,ending,c,negative,positive,ES_purple,1,c,819,3491571,3492072,3492273
45,second,1,witzig,IAT_purple1.bmp,purple,ending_scream,scream,ending,m,positive,positive,ES_purple,1,m,616,3494174,3494675,3494877
45,second,2,sonnig,IAT_yellow2.bmp,yellow,ending_melody,melody,ending,m,positive,negative,ES_purple,1,m,482,3496563,3497064,3497266
45,second,3,lästig,IAT_red4.bmp,red,starting_scream,scream,starting,c,negative,negative,ES_purple,1,c,432,3498821,3499322,3499524
45,second,4,gerecht,IAT_purple3.bmp,purple,ending_scream,scream,ending,m,positive,positive,ES_purple,1,m,624,3501030,3501531,3501732
45,second,5,gierig,IAT_red3.bmp,red,starting_scream,scream,starting,c,negative,negative,ES_purple,1,c,700,3503433,3503934,3504136
45,second,6,lästig,IAT_red3.bmp,red,starting_scream,scream,starting,c,negative,negative,ES_purple,1,c,668,3505913,3506415,3506616
45,second,7,morsch,IAT_yellow1.bmp,yellow,ending_melody,melody,ending,c,negative,negative,ES_purple,0,m,483,3508370,3508871,3509073
45,second,8,sozial,IAT_red2.bmp,red,starting_scream,scream,starting,m,positive,negative,ES_purple,1,m,808,3511132,3511633,3511835
45,second,9,gierig,IAT_green4.bmp,green,starting_melody,melody,starting,c,negative,positive,ES_purple,1,c,669,3513720,3514221,3514423
45,second,10,kaputt,IAT_yellow2.bmp,yellow,ending_melody,melody,ending,c,negative,negative,ES_purple,1,c,522,3516170,3516672,3516874
45,second,11,gierig,IAT_green4.bmp,green,starting_melody,melody,starting,c,negative,positive,ES_purple,1,c,524,3518473,3518974,3519176
45,second,12,geizig,IAT_purple3.bmp,purple,ending_scream,scream,ending,c,negative,positive,ES_purple,1,c,610,3520771,3521272,3521474
45,second,13,teuer,IAT_purple1.bmp,purple,ending_scream,scream,ending,c,negative,positive,ES_purple,1,c,601,3523164,3523665,3523867
45,second,14,ehrlich,IAT_yellow3.bmp,yellow,ending_melody,melody,ending,m,positive,negative,ES_purple,1,m,593,3525540,3526041,3526243
45,second,15,munter,IAT_yellow3.bmp,yellow,ending_melody,melody,ending,m,positive,negative,ES_purple,1,m,557,3527911,3528412,3528614
45,second,16,gerecht,IAT_red2.bmp,red,starting_scream,scream,starting,m,positive,negative,ES_purple,0,c,414,3530247,3530748,3530950
45,second,17,gierig,IAT_yellow2.bmp,yellow,ending_melody,melody,ending,c,negative,negative,ES_purple,1,c,966,3532943,3533444,3533646
45,second,18,witzig,IAT_green2.bmp,green,starting_melody,melody,starting,m,positive,positive,ES_purple,1,m,611,3535682,3536183,3536385
45,second,19,lustig,IAT_purple4.bmp,purple,ending_scream,scream,ending,m,positive,positive,ES_purple,1,m,539,3538074,3538575,3538777
45,second,20,human,IAT_red1.bmp,red,starting_scream,scream,starting,m,positive,negative,ES_purple,1,m,945,3540389,3540890,3541091
45,second,21,krank,IAT_red2.bmp,red,starting_scream,scream,starting,c,negative,negative,ES_purple,1,c,553,3543115,3543616,3543818
45,second,22,munter,IAT_red1.bmp,red,starting_scream,scream,starting,m,positive,negative,ES_purple,1,m,538,3545451,3545952,3546153
45,second,23,human,IAT_yellow3.bmp,yellow,ending_melody,melody,ending,m,positive,negative,ES_purple,1,m,558,3547800,3548301,3548502
45,second,24,feige,IAT_purple4.bmp,purple,ending_scream,scream,ending,c,negative,positive,ES_purple,1,c,815,3550135,3550636,3550837
45,second,25,teuer,IAT_red4.bmp,red,starting_scream,scream,starting,c,negative,negative,ES_purple,1,c,632,3552733,3553234,3553436
45,second,26,ehrlich,IAT_purple3.bmp,purple,ending_scream,scream,ending,m,positive,positive,ES_purple,1,m,635,3555146,3555647,3555849
45,second,27,gesund,IAT_purple1.bmp,purple,ending_scream,scream,ending,m,positive,positive,ES_purple,1,m,518,3557566,3558067,3558269
45,second,28,sanft,IAT_red1.bmp,red,starting_scream,scream,starting,m,positive,negative,ES_purple,1,m,571,3559865,3560366,3560568
45,second,29,brutal,IAT_green4.bmp,green,starting_melody,melody,starting,c,negative,positive,ES_purple,1,c,520,3562219,3562720,3562922
45,second,30,schön,IAT_green1.bmp,green,starting_melody,melody,starting,m,positive,positive,ES_purple,1,m,642,3564514,3565015,3565217
45,second,31,feige,IAT_purple2.bmp,purple,ending_scream,scream,ending,c,negative,positive,ES_purple,1,c,542,3566934,3567435,3567637
45,second,32,heiter,IAT_yellow3.bmp,yellow,ending_melody,melody,ending,m,positive,negative,ES_purple,1,m,669,3569255,3569756,3569958
45,second,33,sonnig,IAT_yellow1.bmp,yellow,ending_melody,melody,ending,m,positive,negative,ES_purple,1,m,540,3571704,3572205,3572407
45,second,34,sanft,IAT_green3.bmp,green,starting_melody,melody,starting,m,positive,positive,ES_purple,1,m,573,3574022,3574523,3574725
45,second,35,heiter,IAT_purple1.bmp,purple,ending_scream,scream,ending,m,positive,positive,ES_purple,1,m,524,3576391,3576892,3577094
45,second,36,munter,IAT_green3.bmp,green,starting_melody,melody,starting,m,positive,positive,ES_purple,1,m,503,3578700,3579201,3579403
45,second,37,morsch,IAT_yellow3.bmp,yellow,ending_melody,melody,ending,c,negative,negative,ES_purple,1,c,601,3581003,3581504,3581705
45,second,38,heiter,IAT_red3.bmp,red,starting_scream,scream,starting,m,positive,negative,ES_purple,1,m,626,3583379,3583880,3584081
45,second,39,einsam,IAT_purple1.bmp,purple,ending_scream,scream,ending,c,negative,positive,ES_purple,1,c,638,3585782,3586283,3586485
45,second,40,sozial,IAT_green1.bmp,green,starting_melody,melody,starting,m,positive,positive,ES_purple,1,m,512,3588212,3588713,3588915
45,second,41,teuer,IAT_green2.bmp,green,starting_melody,melody,starting,c,negative,positive,ES_purple,1,c,674,3590496,3590998,3591200
45,second,42,gesund,IAT_yellow1.bmp,yellow,ending_melody,melody,ending,m,positive,negative,ES_purple,1,m,594,3592961,3593462,3593664
45,second,43,falsch,IAT_yellow2.bmp,yellow,ending_melody,melody,ending,c,negative,negative,ES_purple,1,c,626,3595330,3595831,3596032
45,second,44,krank,IAT_red2.bmp,red,starting_scream,scream,starting,c,negative,negative,ES_purple,1,c,458,3597737,3598238,3598440
45,second,45,kaputt,IAT_yellow4.bmp,yellow,ending_melody,melody,ending,c,negative,negative,ES_purple,1,c,496,3599972,3600473,3600675
45,second,46,falsch,IAT_purple3.bmp,purple,ending_scream,scream,ending,c,negative,positive,ES_purple,1,c,462,3602246,3602747,3602949
45,second,47,human,IAT_green3.bmp,green,starting_melody,melody,starting,m,positive,positive,ES_purple,1,m,506,3604489,3604990,3605192
45,second,48,schön,IAT_yellow1.bmp,yellow,ending_melody,melody,ending,m,positive,negative,ES_purple,1,m,488,3606779,3607280,3607482
45,second,49,munter,IAT_red4.bmp,red,starting_scream,scream,starting,m,positive,negative,ES_purple,1,m,536,3609066,3609568,3609770
45,second,50,lustig,IAT_yellow1.bmp,yellow,ending_melody,melody,ending,m,positive,negative,ES_purple,1,m,460,3611399,3611900,3612102
45,second,51,geizig,IAT_green2.bmp,green,starting_melody,melody,starting,c,negative,positive,ES_purple,1,c,633,3613642,3614143,3614345
45,second,52,gerecht,IAT_purple3.bmp,purple,ending_scream,scream,ending,m,positive,positive,ES_purple,1,m,599,3616076,3616577,3616779
45,second,53,heiter,IAT_red3.bmp,red,starting_scream,scream,starting,m,positive,negative,ES_purple,1,m,543,3618453,3618954,3619156
45,second,54,krank,IAT_green4.bmp,green,starting_melody,melody,starting,c,negative,positive,ES_purple,1,c,492,3620790,3621292,3621494
45,second,55,ehrlich,IAT_red1.bmp,red,starting_scream,scream,starting,m,positive,negative,ES_purple,1,m,555,3623063,3623565,3623766
45,second,56,sozial,IAT_green1.bmp,green,starting_melody,melody,starting,m,positive,positive,ES_purple,1,m,601,3625401,3625902,3626104
45,second,57,streng,IAT_red1.bmp,red,starting_scream,scream,starting,c,negative,negative,ES_purple,1,c,578,3627792,3628293,3628495
45,second,58,falsch,IAT_green2.bmp,green,starting_melody,melody,starting,c,negative,positive,ES_purple,1,c,477,3630149,3630650,3630852
45,second,59,streng,IAT_purple4.bmp,purple,ending_scream,scream,ending,c,negative,positive,ES_purple,1,c,450,3632400,3632901,3633103
45,second,60,ehrlich,IAT_green3.bmp,green,starting_melody,melody,starting,m,positive,positive,ES_purple,1,m,482,3634625,3635127,3635328
45,second,61,feige,IAT_purple2.bmp,purple,ending_scream,scream,ending,c,negative,positive,ES_purple,1,c,713,3636888,3637390,3637592
45,second,62,brutal,IAT_green3.bmp,green,starting_melody,melody,starting,c,negative,positive,ES_purple,1,c,489,3639385,3639886,3640088
45,second,63,sanft,IAT_purple3.bmp,purple,ending_scream,scream,ending,m,positive,positive,ES_purple,1,m,635,3641655,3642156,3642358
45,second,64,lustig,IAT_purple2.bmp,purple,ending_scream,scream,ending,m,positive,positive,ES_purple,1,m,493,3644069,3644570,3644772
45,second,65,geizig,IAT_green2.bmp,green,starting_melody,melody,starting,c,negative,positive,ES_purple,1,c,605,3646356,3646857,3647059
45,second,66,lästig,IAT_yellow2.bmp,yellow,ending_melody,melody,ending,c,negative,negative,ES_purple,0,m,481,3648752,3649253,3649455
45,second,67,sonnig,IAT_red3.bmp,red,starting_scream,scream,starting,m,positive,negative,ES_purple,1,m,561,3651521,3652022,3652223
45,second,68,sozial,IAT_green2.bmp,green,starting_melody,melody,starting,m,positive,positive,ES_purple,1,m,489,3653864,3654365,3654567
45,second,69,kaputt,IAT_red4.bmp,red,starting_scream,scream,starting,c,negative,negative,ES_purple,1,c,525,3656132,3656633,3656835
45,second,70,falsch,IAT_purple2.bmp,purple,ending_scream,scream,ending,c,negative,positive,ES_purple,1,c,555,3658438,3658939,3659141
45,second,71,lustig,IAT_yellow2.bmp,yellow,ending_melody,melody,ending,m,positive,negative,ES_purple,1,m,513,3660768,3661269,3661471
45,second,72,kaputt,IAT_yellow3.bmp,yellow,ending_melody,melody,ending,c,negative,negative,ES_purple,1,c,673,3663072,3663573,3663775
45,second,73,einsam,IAT_red2.bmp,red,starting_scream,scream,starting,c,negative,negative,ES_purple,1,c,541,3665523,3666025,3666227
45,second,74,morsch,IAT_yellow4.bmp,yellow,ending_melody,melody,ending,c,negative,negative,ES_purple,1,c,493,3667875,3668376,3668578
45,second,75,schön,IAT_red4.bmp,red,starting_scream,scream,starting,m,positive,negative,ES_purple,1,m,502,3670155,3670656,3670858
45,second,76,krank,IAT_green1.bmp,green,starting_melody,melody,starting,c,negative,positive,ES_purple,1,c,503,3672442,3672943,3673145
45,second,77,gesund,IAT_yellow4.bmp,yellow,ending_melody,melody,ending,m,positive,negative,ES_purple,1,m,507,3674727,3675228,3675429
45,second,78,sonnig,IAT_purple4.bmp,purple,ending_scream,scream,ending,m,positive,positive,ES_purple,1,m,525,3677012,3677513,3677715
45,second,79,gerecht,IAT_purple2.bmp,purple,ending_scream,scream,ending,m,positive,positive,ES_purple,1,m,666,3679318,3679820,3680022
45,second,80,brutal,IAT_red2.bmp,red,starting_scream,scream,starting,c,negative,negative,ES_purple,1,c,553,3681767,3682269,3682471
45,second,81,streng,IAT_yellow4.bmp,yellow,ending_melody,melody,ending,c,negative,negative,ES_purple,0,m,463,3684097,3684598,3684800
45,second,82,sanft,IAT_yellow4.bmp,yellow,ending_melody,melody,ending,m,positive,negative,ES_purple,1,m,534,3686843,3687344,3687546
45,second,83,morsch,IAT_green3.bmp,green,starting_melody,melody,starting,c,negative,positive,ES_purple,1,c,603,3689157,3689658,3689860
45,second,84,feige,IAT_purple4.bmp,purple,ending_scream,scream,ending,c,negative,positive,ES_purple,1,c,599,3691545,3692046,3692248
45,second,85,schön,IAT_purple1.bmp,purple,ending_scream,scream,ending,m,positive,positive,ES_purple,1,m,568,3693928,3694429,3694631
45,second,86,geizig,IAT_red4.bmp,red,starting_scream,scream,starting,c,negative,negative,ES_purple,1,c,605,3696275,3696776,3696978
45,second,87,einsam,IAT_yellow4.bmp,yellow,ending_melody,melody,ending,c,negative,negative,ES_purple,1,c,547,3698668,3699169,3699371
45,second,88,human,IAT_green1.bmp,green,starting_melody,melody,starting,m,positive,positive,ES_purple,1,m,470,3701001,3701502,3701704
45,second,89,brutal,IAT_yellow1.bmp,yellow,ending_melody,melody,ending,c,negative,negative,ES_purple,1,c,683,3703253,3703754,3703955
45,second,90,streng,IAT_red1.bmp,red,starting_scream,scream,starting,c,negative,negative,ES_purple,1,c,578,3705726,3706227,3706429
45,second,91,witzig,IAT_green4.bmp,green,starting_melody,melody,starting,m,positive,positive,ES_purple,1,m,500,3708093,3708594,3708795
45,second,92,gesund,IAT_green4.bmp,green,starting_melody,melody,starting,m,positive,positive,ES_purple,1,m,621,3710370,3710872,3711074
45,second,93,teuer,IAT_green1.bmp,green,starting_melody,melody,starting,c,negative,positive,ES_purple,1,c,593,3712768,3713269,3713470
45,second,94,lästig,IAT_purple2.bmp,purple,ending_scream,scream,ending,c,negative,positive,ES_purple,1,c,507,3715139,3715640,3715842
45,second,95,witzig,IAT_red3.bmp,red,starting_scream,scream,starting,m,positive,negative,ES_purple,1,m,843,3717427,3717928,3718130
