subject_nr,block,trialnr,trial_target,trial_prime,prime_color,prime_role,prime_us,prime_relation,correct_response,target_valence,prime_valence,color_counter,correct_first_response,response_first_response,response_time_first_response,fixation_show,prime_show,target_show
99,first,0,lustig,IAT_purple3.bmp,purple,starting_scream,scream,starting,m,positive,negative,ES_green,1,m,758,863362,863864,864066
99,first,1,munter,IAT_red1.bmp,red,ending_melody,melody,ending,m,positive,negative,ES_green,1,m,621,865900,866401,866603
99,first,2,witzig,IAT_yellow1.bmp,yellow,starting_melody,melody,starting,m,positive,positive,ES_green,1,m,541,868300,868801,869003
99,first,3,krank,IAT_purple2.bmp,purple,starting_scream,scream,starting,c,negative,negative,ES_green,1,c,677,870628,871129,871331
99,first,4,gierig,IAT_yellow1.bmp,yellow,starting_melody,melody,starting,c,negative,positive,ES_green,1,c,631,873090,873591,873793
99,first,5,geizig,IAT_red3.bmp,red,ending_melody,melody,ending,c,negative,negative,ES_green,0,m,571,875503,876004,876205
99,first,6,falsch,IAT_red2.bmp,red,ending_melody,melody,ending,c,negative,negative,ES_green,1,c,582,878355,878856,879058
99,first,7,human,IAT_yellow3.bmp,yellow,starting_melody,melody,starting,m,positive,positive,ES_green,1,m,685,880732,881233,881435
99,first,8,streng,IAT_yellow3.bmp,yellow,starting_melody,melody,starting,c,negative,positive,ES_green,1,c,817,883191,883693,883895
99,first,9,feige,IAT_green4.bmp,green,ending_scream,scream,ending,c,negative,positive,ES_green,1,c,558,885820,886321,886522
99,first,10,ehrlich,IAT_purple3.bmp,purple,starting_scream,scream,starting,m,positive,negative,ES_green,1,m,636,888156,888657,888859
99,first,11,morsch,IAT_purple2.bmp,purple,starting_scream,scream,starting,c,negative,negative,ES_green,1,c,893,890572,891073,891275
99,first,12,feige,IAT_green1.bmp,green,ending_scream,scream,ending,c,negative,positive,ES_green,1,c,755,893238,893739,893941
99,first,13,schön,IAT_green1.bmp,green,ending_scream,scream,ending,m,positive,positive,ES_green,1,m,729,895776,896277,896479
99,first,14,geizig,IAT_green2.bmp,green,ending_scream,scream,ending,c,negative,positive,ES_green,1,c,616,898289,898790,898992
99,first,15,kaputt,IAT_red2.bmp,red,ending_melody,melody,ending,c,negative,negative,ES_green,1,c,705,900680,901181,901383
99,first,16,brutal,IAT_purple3.bmp,purple,starting_scream,scream,starting,c,negative,negative,ES_green,1,c,576,903161,903662,903863
99,first,17,gesund,IAT_green4.bmp,green,ending_scream,scream,ending,m,positive,positive,ES_green,1,m,565,905523,906024,906226
99,first,18,schön,IAT_yellow3.bmp,yellow,starting_melody,melody,starting,m,positive,positive,ES_green,1,m,541,907868,908369,908571
99,first,19,krank,IAT_red2.bmp,red,ending_melody,melody,ending,c,negative,negative,ES_green,1,c,632,910209,910710,910912
99,first,20,heiter,IAT_yellow3.bmp,yellow,starting_melody,melody,starting,m,positive,positive,ES_green,1,m,561,912615,913117,913319
99,first,21,teuer,IAT_green3.bmp,green,ending_scream,scream,ending,c,negative,positive,ES_green,1,c,970,914959,915460,915662
99,first,22,human,IAT_green3.bmp,green,ending_scream,scream,ending,m,positive,positive,ES_green,1,m,684,917710,918211,918412
99,first,23,sozial,IAT_yellow1.bmp,yellow,starting_melody,melody,starting,m,positive,positive,ES_green,1,m,605,920171,920672,920874
99,first,24,falsch,IAT_green4.bmp,green,ending_scream,scream,ending,c,negative,positive,ES_green,1,c,561,922551,923052,923254
99,first,25,lästig,IAT_yellow2.bmp,yellow,starting_melody,melody,starting,c,negative,positive,ES_green,1,c,709,924900,925401,925603
99,first,26,ehrlich,IAT_red4.bmp,red,ending_melody,melody,ending,m,positive,negative,ES_green,1,m,553,927392,927893,928095
99,first,27,heiter,IAT_purple3.bmp,purple,starting_scream,scream,starting,m,positive,negative,ES_green,1,m,631,929729,930231,930433
99,first,28,gerecht,IAT_purple1.bmp,purple,starting_scream,scream,starting,m,positive,negative,ES_green,1,m,1058,932150,932651,932853
99,first,29,sanft,IAT_yellow1.bmp,yellow,starting_melody,melody,starting,m,positive,positive,ES_green,1,m,511,935000,935502,935704
99,first,30,krank,IAT_green2.bmp,green,ending_scream,scream,ending,c,negative,positive,ES_green,1,c,556,937291,937793,937995
99,first,31,falsch,IAT_purple4.bmp,purple,starting_scream,scream,starting,c,negative,negative,ES_green,1,c,731,939629,940130,940332
99,first,32,morsch,IAT_red4.bmp,red,ending_melody,melody,ending,c,negative,negative,ES_green,1,c,542,942139,942640,942842
99,first,33,kaputt,IAT_purple4.bmp,purple,starting_scream,scream,starting,c,negative,negative,ES_green,1,c,556,944477,944978,945180
99,first,34,ehrlich,IAT_red3.bmp,red,ending_melody,melody,ending,m,positive,negative,ES_green,1,m,638,946811,947312,947514
99,first,35,lästig,IAT_purple4.bmp,purple,starting_scream,scream,starting,c,negative,negative,ES_green,1,c,659,949222,949723,949925
99,first,36,gierig,IAT_purple1.bmp,purple,starting_scream,scream,starting,c,negative,negative,ES_green,1,c,729,951663,952164,952366
99,first,37,morsch,IAT_red3.bmp,red,ending_melody,melody,ending,c,negative,negative,ES_green,1,c,725,954179,954680,954882
99,first,38,lustig,IAT_red4.bmp,red,ending_melody,melody,ending,m,positive,negative,ES_green,1,m,590,956682,957183,957385
99,first,39,kaputt,IAT_purple2.bmp,purple,starting_scream,scream,starting,c,negative,negative,ES_green,1,c,541,959052,959553,959755
99,first,40,sanft,IAT_green3.bmp,green,ending_scream,scream,ending,m,positive,positive,ES_green,1,m,623,961386,961887,962089
99,first,41,feige,IAT_green2.bmp,green,ending_scream,scream,ending,c,negative,positive,ES_green,1,c,1003,963790,964291,964493
99,first,42,lustig,IAT_yellow1.bmp,yellow,starting_melody,melody,starting,m,positive,positive,ES_green,1,m,518,966578,967079,967281
99,first,43,munter,IAT_red1.bmp,red,ending_melody,melody,ending,m,positive,negative,ES_green,1,m,596,968884,969385,969587
99,first,44,ehrlich,IAT_green2.bmp,green,ending_scream,scream,ending,m,positive,positive,ES_green,1,m,506,971262,971763,971965
99,first,45,teuer,IAT_yellow4.bmp,yellow,starting_melody,melody,starting,c,negative,positive,ES_green,1,c,648,973568,974069,974271
99,first,46,gierig,IAT_purple1.bmp,purple,starting_scream,scream,starting,c,negative,negative,ES_green,1,c,652,975996,976497,976699
99,first,47,morsch,IAT_red4.bmp,red,ending_melody,melody,ending,c,negative,negative,ES_green,1,c,775,978434,978935,979137
99,first,48,munter,IAT_purple1.bmp,purple,starting_scream,scream,starting,m,positive,negative,ES_green,1,m,655,980985,981486,981688
99,first,49,heiter,IAT_yellow4.bmp,yellow,starting_melody,melody,starting,m,positive,positive,ES_green,1,m,606,983418,983919,984121
99,first,50,gerecht,IAT_red2.bmp,red,ending_melody,melody,ending,m,positive,negative,ES_green,1,m,683,985805,986306,986508
99,first,51,gesund,IAT_red1.bmp,red,ending_melody,melody,ending,m,positive,negative,ES_green,1,m,509,988267,988769,988970
99,first,52,brutal,IAT_green4.bmp,green,ending_scream,scream,ending,c,negative,positive,ES_green,1,c,588,990556,991057,991259
99,first,53,kaputt,IAT_yellow2.bmp,yellow,starting_melody,melody,starting,c,negative,positive,ES_green,1,c,735,992921,993422,993624
99,first,54,geizig,IAT_red2.bmp,red,ending_melody,melody,ending,c,negative,negative,ES_green,1,c,633,995440,995941,996143
99,first,55,sozial,IAT_purple2.bmp,purple,starting_scream,scream,starting,m,positive,negative,ES_green,1,m,619,997869,998370,998572
99,first,56,gerecht,IAT_purple3.bmp,purple,starting_scream,scream,starting,m,positive,negative,ES_green,1,m,635,1000269,1000770,1000972
99,first,57,schön,IAT_green3.bmp,green,ending_scream,scream,ending,m,positive,positive,ES_green,1,m,515,1002677,1003179,1003380
99,first,58,sozial,IAT_purple4.bmp,purple,starting_scream,scream,starting,m,positive,negative,ES_green,1,m,513,1004967,1005468,1005670
99,first,59,munter,IAT_yellow2.bmp,yellow,starting_melody,melody,starting,m,positive,positive,ES_green,1,m,426,1007262,1007763,1007965
99,first,60,brutal,IAT_green2.bmp,green,ending_scream,scream,ending,c,negative,positive,ES_green,1,c,563,1009461,1009962,1010164
99,first,61,geizig,IAT_yellow2.bmp,yellow,starting_melody,melody,starting,c,negative,positive,ES_green,1,c,641,1011799,1012300,1012502
99,first,62,gesund,IAT_yellow4.bmp,yellow,starting_melody,melody,starting,m,positive,positive,ES_green,1,m,617,1014223,1014724,1014926
99,first,63,human,IAT_red2.bmp,red,ending_melody,melody,ending,m,positive,negative,ES_green,1,m,619,1016622,1017123,1017324
99,first,64,krank,IAT_purple2.bmp,purple,starting_scream,scream,starting,c,negative,negative,ES_green,1,c,523,1019021,1019522,1019724
99,first,65,streng,IAT_purple4.bmp,purple,starting_scream,scream,starting,c,negative,negative,ES_green,1,c,584,1021328,1021829,1022031
99,first,66,lästig,IAT_red4.bmp,red,ending_melody,melody,ending,c,negative,negative,ES_green,1,c,501,1023699,1024200,1024402
99,first,67,schön,IAT_green3.bmp,green,ending_scream,scream,ending,m,positive,positive,ES_green,1,m,525,1025979,1026480,1026682
99,first,68,sonnig,IAT_purple2.bmp,purple,starting_scream,scream,starting,m,positive,negative,ES_green,1,m,636,1028299,1028800,1029002
99,first,69,gerecht,IAT_green1.bmp,green,ending_scream,scream,ending,m,positive,positive,ES_green,0,c,619,1030717,1031218,1031420
99,first,70,gierig,IAT_red1.bmp,red,ending_melody,melody,ending,c,negative,negative,ES_green,1,c,840,1033648,1034149,1034351
99,first,71,einsam,IAT_yellow3.bmp,yellow,starting_melody,melody,starting,c,negative,positive,ES_green,0,m,541,1036267,1036768,1036970
99,first,72,streng,IAT_green3.bmp,green,ending_scream,scream,ending,c,negative,positive,ES_green,1,c,616,1039088,1039589,1039791
99,first,73,teuer,IAT_yellow2.bmp,yellow,starting_melody,melody,starting,c,negative,positive,ES_green,1,c,615,1041489,1041990,1042192
99,first,74,sanft,IAT_yellow3.bmp,yellow,starting_melody,melody,starting,m,positive,positive,ES_green,1,m,602,1043885,1044386,1044588
99,first,75,einsam,IAT_yellow4.bmp,yellow,starting_melody,melody,starting,c,negative,positive,ES_green,1,c,733,1046266,1046768,1046970
99,first,76,sozial,IAT_yellow2.bmp,yellow,starting_melody,melody,starting,m,positive,positive,ES_green,1,m,716,1048780,1049281,1049483
99,first,77,brutal,IAT_red1.bmp,red,ending_melody,melody,ending,c,negative,negative,ES_green,1,c,619,1051276,1051778,1051980
99,first,78,einsam,IAT_purple3.bmp,purple,starting_scream,scream,starting,c,negative,negative,ES_green,1,c,1104,1053672,1054173,1054375
99,first,79,sonnig,IAT_purple1.bmp,purple,starting_scream,scream,starting,m,positive,negative,ES_green,1,m,596,1056564,1057065,1057267
99,first,80,sanft,IAT_green1.bmp,green,ending_scream,scream,ending,m,positive,positive,ES_green,1,m,825,1058942,1059443,1059645
99,first,81,falsch,IAT_yellow1.bmp,yellow,starting_melody,melody,starting,c,negative,positive,ES_green,1,c,565,1061554,1062055,1062257
99,first,82,human,IAT_green4.bmp,green,ending_scream,scream,ending,m,positive,positive,ES_green,1,m,751,1063898,1064399,1064600
99,first,83,witzig,IAT_red3.bmp,red,ending_melody,melody,ending,m,positive,negative,ES_green,1,m,881,1066438,1066940,1067142
99,first,84,streng,IAT_red4.bmp,red,ending_melody,melody,ending,c,negative,negative,ES_green,1,c,546,1069095,1069596,1069797
99,first,85,sonnig,IAT_red3.bmp,red,ending_melody,melody,ending,m,positive,negative,ES_green,1,m,675,1071426,1071928,1072129
99,first,86,heiter,IAT_purple1.bmp,purple,starting_scream,scream,starting,m,positive,negative,ES_green,1,m,618,1073885,1074386,1074588
99,first,87,lästig,IAT_yellow4.bmp,yellow,starting_melody,melody,starting,c,negative,positive,ES_green,0,m,730,1076285,1076786,1076988
99,first,88,witzig,IAT_red1.bmp,red,ending_melody,melody,ending,m,positive,negative,ES_green,1,m,648,1079295,1079796,1079998
99,first,89,sonnig,IAT_red3.bmp,red,ending_melody,melody,ending,m,positive,negative,ES_green,1,m,637,1081723,1082224,1082426
99,first,90,witzig,IAT_green1.bmp,green,ending_scream,scream,ending,m,positive,positive,ES_green,1,m,637,1084139,1084640,1084842
99,first,91,lustig,IAT_purple4.bmp,purple,starting_scream,scream,starting,m,positive,negative,ES_green,1,m,528,1086552,1087053,1087255
99,first,92,gesund,IAT_green2.bmp,green,ending_scream,scream,ending,m,positive,positive,ES_green,1,m,474,1088862,1089363,1089565
99,first,93,feige,IAT_yellow4.bmp,yellow,starting_melody,melody,starting,c,negative,positive,ES_green,1,c,750,1091113,1091614,1091816
99,first,94,einsam,IAT_green4.bmp,green,ending_scream,scream,ending,c,negative,positive,ES_green,1,c,624,1093639,1094140,1094342
99,first,95,teuer,IAT_green1.bmp,green,ending_scream,scream,ending,c,negative,positive,ES_green,1,c,546,1096053,1096554,1096756
99,second,0,brutal,IAT_purple2.bmp,purple,starting_scream,scream,starting,c,negative,negative,ES_green,1,c,595,1113427,1113929,1114131
99,second,1,schön,IAT_green1.bmp,green,ending_scream,scream,ending,m,positive,positive,ES_green,1,m,611,1115812,1116313,1116515
99,second,2,kaputt,IAT_yellow4.bmp,yellow,starting_melody,melody,starting,c,negative,positive,ES_green,1,c,543,1118201,1118702,1118904
99,second,3,falsch,IAT_purple1.bmp,purple,starting_scream,scream,starting,c,negative,negative,ES_green,1,c,545,1120519,1121020,1121222
99,second,4,sozial,IAT_green3.bmp,green,ending_scream,scream,ending,m,positive,positive,ES_green,1,m,651,1122860,1123361,1123563
99,second,5,geizig,IAT_red3.bmp,red,ending_melody,melody,ending,c,negative,negative,ES_green,1,c,576,1125288,1125789,1125990
99,second,6,morsch,IAT_red2.bmp,red,ending_melody,melody,ending,c,negative,negative,ES_green,1,c,553,1127646,1128147,1128349
99,second,7,kaputt,IAT_red4.bmp,red,ending_melody,melody,ending,c,negative,negative,ES_green,1,c,447,1129976,1130477,1130679
99,second,8,lästig,IAT_purple3.bmp,purple,starting_scream,scream,starting,c,negative,negative,ES_green,1,c,459,1132204,1132705,1132907
99,second,9,teuer,IAT_purple4.bmp,purple,starting_scream,scream,starting,c,negative,negative,ES_green,1,c,534,1134450,1134951,1135153
99,second,10,streng,IAT_purple3.bmp,purple,starting_scream,scream,starting,c,negative,negative,ES_green,1,c,553,1136765,1137267,1137469
99,second,11,feige,IAT_yellow1.bmp,yellow,starting_melody,melody,starting,c,negative,positive,ES_green,1,c,647,1139105,1139606,1139807
99,second,12,munter,IAT_yellow1.bmp,yellow,starting_melody,melody,starting,m,positive,positive,ES_green,1,m,639,1141543,1142045,1142247
99,second,13,geizig,IAT_yellow2.bmp,yellow,starting_melody,melody,starting,c,negative,positive,ES_green,1,c,631,1143968,1144469,1144671
99,second,14,krank,IAT_green1.bmp,green,ending_scream,scream,ending,c,negative,positive,ES_green,1,c,560,1146375,1146876,1147078
99,second,15,ehrlich,IAT_green2.bmp,green,ending_scream,scream,ending,m,positive,positive,ES_green,1,m,637,1148714,1149215,1149417
99,second,16,witzig,IAT_red1.bmp,red,ending_melody,melody,ending,m,positive,negative,ES_green,1,m,764,1151133,1151634,1151835
99,second,17,gierig,IAT_yellow1.bmp,yellow,starting_melody,melody,starting,c,negative,positive,ES_green,1,c,848,1153671,1154172,1154374
99,second,18,sanft,IAT_green1.bmp,green,ending_scream,scream,ending,m,positive,positive,ES_green,1,m,714,1156301,1156802,1157004
99,second,19,teuer,IAT_purple4.bmp,purple,starting_scream,scream,starting,c,negative,negative,ES_green,1,c,508,1158796,1159297,1159498
99,second,20,gierig,IAT_red2.bmp,red,ending_melody,melody,ending,c,negative,negative,ES_green,1,c,569,1161086,1161587,1161789
99,second,21,lustig,IAT_green3.bmp,green,ending_scream,scream,ending,m,positive,positive,ES_green,1,m,828,1163451,1163952,1164154
99,second,22,munter,IAT_yellow3.bmp,yellow,starting_melody,melody,starting,m,positive,positive,ES_green,1,m,547,1166067,1166569,1166771
99,second,23,sonnig,IAT_purple1.bmp,purple,starting_scream,scream,starting,m,positive,negative,ES_green,1,m,541,1168424,1168926,1169128
99,second,24,lustig,IAT_red1.bmp,red,ending_melody,melody,ending,m,positive,negative,ES_green,1,m,551,1170752,1171253,1171455
99,second,25,geizig,IAT_red1.bmp,red,ending_melody,melody,ending,c,negative,negative,ES_green,1,c,689,1173078,1173579,1173781
99,second,26,sanft,IAT_red2.bmp,red,ending_melody,melody,ending,m,positive,negative,ES_green,1,m,528,1175543,1176044,1176246
99,second,27,schön,IAT_green4.bmp,green,ending_scream,scream,ending,m,positive,positive,ES_green,1,m,646,1177858,1178359,1178560
99,second,28,lästig,IAT_green2.bmp,green,ending_scream,scream,ending,c,negative,positive,ES_green,1,c,768,1180295,1180796,1180998
99,second,29,witzig,IAT_yellow1.bmp,yellow,starting_melody,melody,starting,m,positive,positive,ES_green,1,m,492,1182858,1183359,1183561
99,second,30,krank,IAT_green4.bmp,green,ending_scream,scream,ending,c,negative,positive,ES_green,1,c,587,1185131,1185632,1185834
99,second,31,einsam,IAT_red1.bmp,red,ending_melody,melody,ending,c,negative,negative,ES_green,1,c,747,1187499,1188001,1188203
99,second,32,munter,IAT_purple2.bmp,purple,starting_scream,scream,starting,m,positive,negative,ES_green,1,m,664,1190031,1190532,1190734
99,second,33,gesund,IAT_red3.bmp,red,ending_melody,melody,ending,m,positive,negative,ES_green,1,m,713,1192478,1192979,1193181
99,second,34,heiter,IAT_yellow1.bmp,yellow,starting_melody,melody,starting,m,positive,positive,ES_green,1,m,559,1194983,1195485,1195687
99,second,35,gesund,IAT_yellow2.bmp,yellow,starting_melody,melody,starting,m,positive,positive,ES_green,1,m,511,1197319,1197820,1198022
99,second,36,streng,IAT_green4.bmp,green,ending_scream,scream,ending,c,negative,positive,ES_green,1,c,840,1199630,1200131,1200333
99,second,37,gerecht,IAT_purple3.bmp,purple,starting_scream,scream,starting,m,positive,negative,ES_green,1,m,837,1202256,1202758,1202960
99,second,38,human,IAT_yellow2.bmp,yellow,starting_melody,melody,starting,m,positive,positive,ES_green,1,m,623,1204872,1205373,1205575
99,second,39,teuer,IAT_green1.bmp,green,ending_scream,scream,ending,c,negative,positive,ES_green,1,c,621,1207274,1207775,1207977
99,second,40,witzig,IAT_yellow3.bmp,yellow,starting_melody,melody,starting,m,positive,positive,ES_green,1,m,576,1209672,1210173,1210374
99,second,41,sanft,IAT_red1.bmp,red,ending_melody,melody,ending,m,positive,negative,ES_green,1,m,594,1212021,1212522,1212724
99,second,42,feige,IAT_purple4.bmp,purple,starting_scream,scream,starting,c,negative,negative,ES_green,1,c,566,1214400,1214901,1215103
99,second,43,streng,IAT_red2.bmp,red,ending_melody,melody,ending,c,negative,negative,ES_green,1,c,637,1216761,1217262,1217464
99,second,44,lustig,IAT_red4.bmp,red,ending_melody,melody,ending,m,positive,negative,ES_green,1,m,612,1219186,1219687,1219889
99,second,45,human,IAT_purple1.bmp,purple,starting_scream,scream,starting,m,positive,negative,ES_green,1,m,618,1221581,1222082,1222284
99,second,46,kaputt,IAT_green3.bmp,green,ending_scream,scream,ending,c,negative,positive,ES_green,1,c,612,1224003,1224504,1224706
99,second,47,sozial,IAT_yellow4.bmp,yellow,starting_melody,melody,starting,m,positive,positive,ES_green,1,m,565,1226402,1226903,1227105
99,second,48,heiter,IAT_red4.bmp,red,ending_melody,melody,ending,m,positive,negative,ES_green,1,m,615,1228753,1229254,1229455
99,second,49,gesund,IAT_purple1.bmp,purple,starting_scream,scream,starting,m,positive,negative,ES_green,1,m,563,1231170,1231672,1231874
99,second,50,gerecht,IAT_green3.bmp,green,ending_scream,scream,ending,m,positive,positive,ES_green,1,m,635,1233515,1234016,1234218
99,second,51,heiter,IAT_purple3.bmp,purple,starting_scream,scream,starting,m,positive,negative,ES_green,1,m,508,1235930,1236431,1236633
99,second,52,ehrlich,IAT_yellow3.bmp,yellow,starting_melody,melody,starting,m,positive,positive,ES_green,1,m,430,1238232,1238733,1238935
99,second,53,gierig,IAT_purple1.bmp,purple,starting_scream,scream,starting,c,negative,negative,ES_green,0,m,440,1240446,1240948,1241150
99,second,54,morsch,IAT_purple2.bmp,purple,starting_scream,scream,starting,c,negative,negative,ES_green,1,c,579,1243172,1243673,1243875
99,second,55,lustig,IAT_green2.bmp,green,ending_scream,scream,ending,m,positive,positive,ES_green,1,m,627,1245539,1246040,1246242
99,second,56,krank,IAT_purple2.bmp,purple,starting_scream,scream,starting,c,negative,negative,ES_green,1,c,761,1247949,1248450,1248652
99,second,57,sanft,IAT_red3.bmp,red,ending_melody,melody,ending,m,positive,negative,ES_green,1,m,601,1250493,1250994,1251196
99,second,58,morsch,IAT_yellow4.bmp,yellow,starting_melody,melody,starting,c,negative,positive,ES_green,1,c,576,1252902,1253403,1253605
99,second,59,feige,IAT_red3.bmp,red,ending_melody,melody,ending,c,negative,negative,ES_green,1,c,616,1255262,1255763,1255965
99,second,60,teuer,IAT_green4.bmp,green,ending_scream,scream,ending,c,negative,positive,ES_green,1,c,499,1257652,1258153,1258355
99,second,61,brutal,IAT_green2.bmp,green,ending_scream,scream,ending,c,negative,positive,ES_green,1,c,512,1259927,1260428,1260630
99,second,62,falsch,IAT_yellow2.bmp,yellow,starting_melody,melody,starting,c,negative,positive,ES_green,1,c,539,1262219,1262720,1262922
99,second,63,gerecht,IAT_purple4.bmp,purple,starting_scream,scream,starting,m,positive,negative,ES_green,1,m,672,1264550,1265051,1265253
99,second,64,gierig,IAT_red4.bmp,red,ending_melody,melody,ending,c,negative,negative,ES_green,1,c,631,1267007,1267508,1267710
99,second,65,gesund,IAT_red2.bmp,red,ending_melody,melody,ending,m,positive,negative,ES_green,1,m,1108,1269410,1269911,1270113
99,second,66,human,IAT_green1.bmp,green,ending_scream,scream,ending,m,positive,positive,ES_green,1,m,962,1272292,1272793,1272995
99,second,67,streng,IAT_green2.bmp,green,ending_scream,scream,ending,c,negative,positive,ES_green,1,c,1041,1275046,1275547,1275749
99,second,68,feige,IAT_yellow3.bmp,yellow,starting_melody,melody,starting,c,negative,positive,ES_green,1,c,780,1277866,1278367,1278569
99,second,69,falsch,IAT_red2.bmp,red,ending_melody,melody,ending,c,negative,negative,ES_green,1,c,631,1280431,1280932,1281134
99,second,70,brutal,IAT_yellow4.bmp,yellow,starting_melody,melody,starting,c,negative,positive,ES_green,1,c,651,1282843,1283344,1283546
99,second,71,ehrlich,IAT_purple1.bmp,purple,starting_scream,scream,starting,m,positive,negative,ES_green,1,m,627,1285283,1285784,1285987
99,second,72,human,IAT_yellow3.bmp,yellow,starting_melody,melody,starting,m,positive,positive,ES_green,1,m,567,1287695,1288196,1288398
99,second,73,einsam,IAT_purple2.bmp,purple,starting_scream,scream,starting,c,negative,negative,ES_green,1,c,795,1290043,1290544,1290746
99,second,74,munter,IAT_purple4.bmp,purple,starting_scream,scream,starting,m,positive,negative,ES_green,1,m,574,1292648,1293149,1293351
99,second,75,ehrlich,IAT_red1.bmp,red,ending_melody,melody,ending,m,positive,negative,ES_green,1,m,704,1294998,1295499,1295701
99,second,76,heiter,IAT_yellow4.bmp,yellow,starting_melody,melody,starting,m,positive,positive,ES_green,1,m,713,1297485,1297986,1298188
99,second,77,sonnig,IAT_purple2.bmp,purple,starting_scream,scream,starting,m,positive,negative,ES_green,1,m,924,1299978,1300479,1300681
99,second,78,gerecht,IAT_green1.bmp,green,ending_scream,scream,ending,m,positive,positive,ES_green,1,m,628,1302706,1303207,1303409
99,second,79,morsch,IAT_red4.bmp,red,ending_melody,melody,ending,c,negative,negative,ES_green,1,c,779,1305115,1305616,1305818
99,second,80,witzig,IAT_red3.bmp,red,ending_melody,melody,ending,m,positive,negative,ES_green,1,m,709,1307664,1308165,1308367
99,second,81,lästig,IAT_yellow2.bmp,yellow,starting_melody,melody,starting,c,negative,positive,ES_green,1,c,884,1310162,1310663,1310865
99,second,82,einsam,IAT_red4.bmp,red,ending_melody,melody,ending,c,negative,negative,ES_green,0,m,548,1312834,1313335,1313537
99,second,83,krank,IAT_purple4.bmp,purple,starting_scream,scream,starting,c,negative,negative,ES_green,1,c,632,1315662,1316163,1316365
99,second,84,sonnig,IAT_green3.bmp,green,ending_scream,scream,ending,m,positive,positive,ES_green,1,m,633,1318061,1318562,1318764
99,second,85,schön,IAT_green4.bmp,green,ending_scream,scream,ending,m,positive,positive,ES_green,1,m,655,1320471,1320972,1321174
99,second,86,brutal,IAT_yellow4.bmp,yellow,starting_melody,melody,starting,c,negative,positive,ES_green,1,c,582,1322911,1323412,1323614
99,second,87,falsch,IAT_yellow2.bmp,yellow,starting_melody,melody,starting,c,negative,positive,ES_green,1,c,543,1325270,1325771,1325973
99,second,88,lästig,IAT_green2.bmp,green,ending_scream,scream,ending,c,negative,positive,ES_green,1,c,603,1327595,1328096,1328298
99,second,89,sozial,IAT_red3.bmp,red,ending_melody,melody,ending,m,positive,negative,ES_green,1,m,656,1329975,1330476,1330677
99,second,90,geizig,IAT_green4.bmp,green,ending_scream,scream,ending,c,negative,positive,ES_green,1,c,622,1332408,1332909,1333111
99,second,91,kaputt,IAT_yellow3.bmp,yellow,starting_melody,melody,starting,c,negative,positive,ES_green,1,c,607,1334807,1335308,1335510
99,second,92,sonnig,IAT_yellow1.bmp,yellow,starting_melody,melody,starting,m,positive,positive,ES_green,1,m,646,1337200,1337701,1337903
99,second,93,schön,IAT_purple3.bmp,purple,starting_scream,scream,starting,m,positive,negative,ES_green,1,m,654,1339623,1340124,1340326
99,second,94,einsam,IAT_green3.bmp,green,ending_scream,scream,ending,c,negative,positive,ES_green,1,c,615,1342062,1342563,1342765
99,second,95,sozial,IAT_purple3.bmp,purple,starting_scream,scream,starting,m,positive,negative,ES_green,1,m,718,1344457,1344958,1345159
