subject_nr,block,trialnr,trial_target,trial_prime,prime_color,prime_role,prime_us,prime_relation,correct_response,target_valence,prime_valence,color_counter,correct_first_response,response_first_response,response_time_first_response,fixation_show,prime_show,target_show
83,first,0,brutal,IAT_green1.bmp,green,starting_melody,melody,starting,c,negative,positive,ES_purple,1,c,600,889542,890043,890245
83,first,1,teuer,IAT_green4.bmp,green,starting_melody,melody,starting,c,negative,positive,ES_purple,1,c,671,891967,892468,892670
83,first,2,lustig,IAT_green3.bmp,green,starting_melody,melody,starting,m,positive,positive,ES_purple,1,m,625,894524,895026,895228
83,first,3,sanft,IAT_purple1.bmp,purple,ending_scream,scream,ending,m,positive,positive,ES_purple,1,m,861,896929,897430,897632
83,first,4,streng,IAT_purple3.bmp,purple,ending_scream,scream,ending,c,negative,positive,ES_purple,1,c,611,899579,900080,900281
83,first,5,lästig,IAT_red3.bmp,red,starting_scream,scream,starting,c,negative,negative,ES_purple,1,c,597,902024,902525,902727
83,first,6,munter,IAT_yellow3.bmp,yellow,ending_melody,melody,ending,m,positive,negative,ES_purple,1,m,637,904448,904949,905151
83,first,7,heiter,IAT_green1.bmp,green,starting_melody,melody,starting,m,positive,positive,ES_purple,1,m,572,906866,907367,907569
83,first,8,human,IAT_green1.bmp,green,starting_melody,melody,starting,m,positive,positive,ES_purple,1,m,641,909213,909714,909916
83,first,9,gerecht,IAT_yellow2.bmp,yellow,ending_melody,melody,ending,m,positive,negative,ES_purple,1,m,722,911692,912193,912395
83,first,10,witzig,IAT_red1.bmp,red,starting_scream,scream,starting,m,positive,negative,ES_purple,1,m,900,914235,914736,914937
83,first,11,schön,IAT_red3.bmp,red,starting_scream,scream,starting,m,positive,negative,ES_purple,1,m,647,916918,917419,917621
83,first,12,ehrlich,IAT_purple2.bmp,purple,ending_scream,scream,ending,m,positive,positive,ES_purple,1,m,589,919408,919909,920111
83,first,13,munter,IAT_yellow3.bmp,yellow,ending_melody,melody,ending,m,positive,negative,ES_purple,1,m,587,921778,922279,922481
83,first,14,feige,IAT_purple2.bmp,purple,ending_scream,scream,ending,c,negative,positive,ES_purple,1,c,1133,924145,924646,924848
83,first,15,sanft,IAT_purple3.bmp,purple,ending_scream,scream,ending,m,positive,positive,ES_purple,1,m,540,927057,927559,927761
83,first,16,falsch,IAT_yellow4.bmp,yellow,ending_melody,melody,ending,c,negative,negative,ES_purple,1,c,496,929374,929875,930077
83,first,17,lästig,IAT_red2.bmp,red,starting_scream,scream,starting,c,negative,negative,ES_purple,1,c,526,931711,932212,932414
83,first,18,krank,IAT_green2.bmp,green,starting_melody,melody,starting,c,negative,positive,ES_purple,1,c,605,934096,934597,934799
83,first,19,witzig,IAT_red1.bmp,red,starting_scream,scream,starting,m,positive,negative,ES_purple,0,c,575,936510,937011,937213
83,first,20,gesund,IAT_purple1.bmp,purple,ending_scream,scream,ending,m,positive,positive,ES_purple,1,m,553,939364,939865,940067
83,first,21,witzig,IAT_yellow1.bmp,yellow,ending_melody,melody,ending,m,positive,negative,ES_purple,1,m,508,941746,942247,942449
83,first,22,brutal,IAT_green4.bmp,green,starting_melody,melody,starting,c,negative,positive,ES_purple,0,m,572,944033,944535,944737
83,first,23,gerecht,IAT_yellow2.bmp,yellow,ending_melody,melody,ending,m,positive,negative,ES_purple,1,m,683,946898,947399,947601
83,first,24,einsam,IAT_yellow1.bmp,yellow,ending_melody,melody,ending,c,negative,negative,ES_purple,1,c,816,949358,949859,950060
83,first,25,sozial,IAT_red2.bmp,red,starting_scream,scream,starting,m,positive,negative,ES_purple,1,m,556,951969,952470,952672
83,first,26,lästig,IAT_purple2.bmp,purple,ending_scream,scream,ending,c,negative,positive,ES_purple,1,c,652,954306,954807,955008
83,first,27,munter,IAT_red1.bmp,red,starting_scream,scream,starting,m,positive,negative,ES_purple,1,m,609,956732,957233,957435
83,first,28,ehrlich,IAT_green1.bmp,green,starting_melody,melody,starting,m,positive,positive,ES_purple,1,m,539,959123,959624,959826
83,first,29,sanft,IAT_purple3.bmp,purple,ending_scream,scream,ending,m,positive,positive,ES_purple,1,m,702,961439,961940,962142
83,first,30,streng,IAT_yellow2.bmp,yellow,ending_melody,melody,ending,c,negative,negative,ES_purple,1,c,633,963924,964425,964627
83,first,31,sonnig,IAT_green2.bmp,green,starting_melody,melody,starting,m,positive,positive,ES_purple,1,m,544,966333,966834,967036
83,first,32,einsam,IAT_green2.bmp,green,starting_melody,melody,starting,c,negative,positive,ES_purple,1,c,711,968662,969163,969365
83,first,33,kaputt,IAT_purple2.bmp,purple,ending_scream,scream,ending,c,negative,positive,ES_purple,1,c,1020,971153,971654,971856
83,first,34,witzig,IAT_yellow4.bmp,yellow,ending_melody,melody,ending,m,positive,negative,ES_purple,1,m,890,973954,974456,974658
83,first,35,falsch,IAT_green3.bmp,green,starting_melody,melody,starting,c,negative,positive,ES_purple,1,c,913,976621,977122,977324
83,first,36,morsch,IAT_yellow2.bmp,yellow,ending_melody,melody,ending,c,negative,negative,ES_purple,1,c,680,979317,979818,980020
83,first,37,geizig,IAT_purple3.bmp,purple,ending_scream,scream,ending,c,negative,positive,ES_purple,1,c,685,981776,982277,982479
83,first,38,lästig,IAT_red4.bmp,red,starting_scream,scream,starting,c,negative,negative,ES_purple,1,c,512,984301,984802,985004
83,first,39,morsch,IAT_yellow3.bmp,yellow,ending_melody,melody,ending,c,negative,negative,ES_purple,1,c,576,986589,987090,987292
83,first,40,schön,IAT_red3.bmp,red,starting_scream,scream,starting,m,positive,negative,ES_purple,1,m,570,988947,989448,989650
83,first,41,gerecht,IAT_yellow3.bmp,yellow,ending_melody,melody,ending,m,positive,negative,ES_purple,1,m,625,991292,991793,991995
83,first,42,sozial,IAT_purple3.bmp,purple,ending_scream,scream,ending,m,positive,positive,ES_purple,1,m,570,993698,994199,994401
83,first,43,ehrlich,IAT_yellow1.bmp,yellow,ending_melody,melody,ending,m,positive,negative,ES_purple,1,m,553,996051,996553,996755
83,first,44,sanft,IAT_purple4.bmp,purple,ending_scream,scream,ending,m,positive,positive,ES_purple,1,m,571,998435,998936,999137
83,first,45,geizig,IAT_purple4.bmp,purple,ending_scream,scream,ending,c,negative,positive,ES_purple,1,c,680,1000788,1001290,1001492
83,first,46,sonnig,IAT_green1.bmp,green,starting_melody,melody,starting,m,positive,positive,ES_purple,1,m,532,1003241,1003742,1003944
83,first,47,kaputt,IAT_yellow3.bmp,yellow,ending_melody,melody,ending,c,negative,negative,ES_purple,1,c,561,1005548,1006049,1006251
83,first,48,geizig,IAT_yellow1.bmp,yellow,ending_melody,melody,ending,c,negative,negative,ES_purple,1,c,577,1007884,1008385,1008587
83,first,49,gierig,IAT_red1.bmp,red,starting_scream,scream,starting,c,negative,negative,ES_purple,1,c,536,1010244,1010745,1010947
83,first,50,kaputt,IAT_red1.bmp,red,starting_scream,scream,starting,c,negative,negative,ES_purple,1,c,863,1012558,1013059,1013261
83,first,51,gierig,IAT_green2.bmp,green,starting_melody,melody,starting,c,negative,positive,ES_purple,1,c,684,1015200,1015702,1015904
83,first,52,einsam,IAT_yellow4.bmp,yellow,ending_melody,melody,ending,c,negative,negative,ES_purple,1,c,1119,1017662,1018163,1018365
83,first,53,lustig,IAT_purple4.bmp,purple,ending_scream,scream,ending,m,positive,positive,ES_purple,1,m,631,1020566,1021068,1021270
83,first,54,sonnig,IAT_red3.bmp,red,starting_scream,scream,starting,m,positive,negative,ES_purple,1,m,564,1022985,1023486,1023688
83,first,55,gesund,IAT_purple1.bmp,purple,ending_scream,scream,ending,m,positive,positive,ES_purple,1,m,560,1025324,1025825,1026027
83,first,56,feige,IAT_yellow4.bmp,yellow,ending_melody,melody,ending,c,negative,negative,ES_purple,1,c,551,1027669,1028170,1028372
83,first,57,falsch,IAT_red4.bmp,red,starting_scream,scream,starting,c,negative,negative,ES_purple,1,c,511,1029998,1030499,1030701
83,first,58,lustig,IAT_green3.bmp,green,starting_melody,melody,starting,m,positive,positive,ES_purple,1,m,628,1032281,1032782,1032984
83,first,59,sonnig,IAT_red3.bmp,red,starting_scream,scream,starting,m,positive,negative,ES_purple,1,m,745,1034691,1035193,1035395
83,first,60,sozial,IAT_purple1.bmp,purple,ending_scream,scream,ending,m,positive,positive,ES_purple,1,m,495,1037230,1037731,1037933
83,first,61,munter,IAT_yellow3.bmp,yellow,ending_melody,melody,ending,m,positive,negative,ES_purple,1,m,544,1039501,1040002,1040203
83,first,62,gierig,IAT_green3.bmp,green,starting_melody,melody,starting,c,negative,positive,ES_purple,0,m,453,1041831,1042332,1042534
83,first,63,human,IAT_green4.bmp,green,starting_melody,melody,starting,m,positive,positive,ES_purple,1,m,664,1044564,1045065,1045267
83,first,64,brutal,IAT_red2.bmp,red,starting_scream,scream,starting,c,negative,negative,ES_purple,1,c,609,1047004,1047505,1047707
83,first,65,teuer,IAT_yellow2.bmp,yellow,ending_melody,melody,ending,c,negative,negative,ES_purple,1,c,809,1049395,1049897,1050099
83,first,66,krank,IAT_red4.bmp,red,starting_scream,scream,starting,c,negative,negative,ES_purple,1,c,526,1051983,1052484,1052686
83,first,67,falsch,IAT_yellow4.bmp,yellow,ending_melody,melody,ending,c,negative,negative,ES_purple,1,c,637,1054288,1054789,1054991
83,first,68,streng,IAT_green4.bmp,green,starting_melody,melody,starting,c,negative,positive,ES_purple,1,c,672,1056700,1057201,1057403
83,first,69,sozial,IAT_purple3.bmp,purple,ending_scream,scream,ending,m,positive,positive,ES_purple,1,m,540,1059153,1059654,1059855
83,first,70,feige,IAT_red3.bmp,red,starting_scream,scream,starting,c,negative,negative,ES_purple,1,c,538,1061490,1061991,1062193
83,first,71,teuer,IAT_purple4.bmp,purple,ending_scream,scream,ending,c,negative,positive,ES_purple,1,c,674,1063803,1064304,1064506
83,first,72,streng,IAT_purple1.bmp,purple,ending_scream,scream,ending,c,negative,positive,ES_purple,1,c,441,1066260,1066761,1066963
83,first,73,krank,IAT_purple2.bmp,purple,ending_scream,scream,ending,c,negative,positive,ES_purple,1,c,398,1068479,1068980,1069182
83,first,74,schön,IAT_yellow4.bmp,yellow,ending_melody,melody,ending,m,positive,negative,ES_purple,1,m,634,1070658,1071159,1071361
83,first,75,morsch,IAT_green1.bmp,green,starting_melody,melody,starting,c,negative,positive,ES_purple,1,c,958,1073069,1073571,1073773
83,first,76,feige,IAT_purple1.bmp,purple,ending_scream,scream,ending,c,negative,positive,ES_purple,1,c,561,1075819,1076320,1076522
83,first,77,heiter,IAT_green2.bmp,green,starting_melody,melody,starting,m,positive,positive,ES_purple,1,m,626,1078154,1078655,1078857
83,first,78,lustig,IAT_purple2.bmp,purple,ending_scream,scream,ending,m,positive,positive,ES_purple,1,m,620,1080560,1081061,1081263
83,first,79,geizig,IAT_yellow2.bmp,yellow,ending_melody,melody,ending,c,negative,negative,ES_purple,1,c,651,1082962,1083463,1083665
83,first,80,human,IAT_red4.bmp,red,starting_scream,scream,starting,m,positive,negative,ES_purple,1,m,634,1085394,1085895,1086097
83,first,81,gesund,IAT_yellow1.bmp,yellow,ending_melody,melody,ending,m,positive,negative,ES_purple,1,m,506,1087810,1088311,1088513
83,first,82,ehrlich,IAT_red1.bmp,red,starting_scream,scream,starting,m,positive,negative,ES_purple,1,m,564,1090088,1090589,1090791
83,first,83,krank,IAT_green2.bmp,green,starting_melody,melody,starting,c,negative,positive,ES_purple,1,c,641,1092427,1092928,1093130
83,first,84,teuer,IAT_red2.bmp,red,starting_scream,scream,starting,c,negative,negative,ES_purple,1,c,605,1094847,1095348,1095550
83,first,85,brutal,IAT_purple4.bmp,purple,ending_scream,scream,ending,c,negative,positive,ES_purple,0,m,945,1097227,1097728,1097930
83,first,86,heiter,IAT_yellow1.bmp,yellow,ending_melody,melody,ending,m,positive,negative,ES_purple,1,m,647,1100454,1100955,1101157
83,first,87,morsch,IAT_green4.bmp,green,starting_melody,melody,starting,c,negative,positive,ES_purple,1,c,681,1102883,1103384,1103586
83,first,88,kaputt,IAT_red4.bmp,red,starting_scream,scream,starting,c,negative,negative,ES_purple,1,c,670,1105358,1105859,1106061
83,first,89,gesund,IAT_green3.bmp,green,starting_melody,melody,starting,m,positive,positive,ES_purple,1,m,473,1107811,1108312,1108514
83,first,90,heiter,IAT_red2.bmp,red,starting_scream,scream,starting,m,positive,negative,ES_purple,1,m,575,1110061,1110562,1110764
83,first,91,gierig,IAT_red2.bmp,red,starting_scream,scream,starting,c,negative,negative,ES_purple,1,c,727,1112421,1112922,1113124
83,first,92,gerecht,IAT_red4.bmp,red,starting_scream,scream,starting,m,positive,negative,ES_purple,0,c,481,1114923,1115424,1115626
83,first,93,schön,IAT_green3.bmp,green,starting_melody,melody,starting,m,positive,positive,ES_purple,1,m,1126,1117686,1118187,1118389
83,first,94,einsam,IAT_purple4.bmp,purple,ending_scream,scream,ending,c,negative,positive,ES_purple,1,c,685,1120591,1121092,1121294
83,first,95,human,IAT_green4.bmp,green,starting_melody,melody,starting,m,positive,positive,ES_purple,1,m,581,1123079,1123580,1123782
83,second,0,streng,IAT_green1.bmp,green,starting_melody,melody,starting,c,negative,positive,ES_purple,1,c,636,1132879,1133380,1133582
83,second,1,gesund,IAT_yellow2.bmp,yellow,ending_melody,melody,ending,m,positive,negative,ES_purple,1,m,848,1135292,1135793,1135995
83,second,2,gerecht,IAT_purple1.bmp,purple,ending_scream,scream,ending,m,positive,positive,ES_purple,1,m,536,1137924,1138425,1138627
83,second,3,morsch,IAT_red1.bmp,red,starting_scream,scream,starting,c,negative,negative,ES_purple,1,c,1067,1140241,1140742,1140944
83,second,4,ehrlich,IAT_yellow1.bmp,yellow,ending_melody,melody,ending,m,positive,negative,ES_purple,1,m,478,1143086,1143587,1143789
83,second,5,teuer,IAT_red4.bmp,red,starting_scream,scream,starting,c,negative,negative,ES_purple,0,m,592,1145340,1145841,1146043
83,second,6,sanft,IAT_green4.bmp,green,starting_melody,melody,starting,m,positive,positive,ES_purple,1,m,1124,1148215,1148716,1148918
83,second,7,sozial,IAT_yellow3.bmp,yellow,ending_melody,melody,ending,m,positive,negative,ES_purple,1,m,552,1151123,1151624,1151826
83,second,8,sanft,IAT_red4.bmp,red,starting_scream,scream,starting,m,positive,negative,ES_purple,1,m,983,1153444,1153946,1154148
83,second,9,gesund,IAT_green3.bmp,green,starting_melody,melody,starting,m,positive,positive,ES_purple,1,m,558,1156206,1156707,1156909
83,second,10,lustig,IAT_purple2.bmp,purple,ending_scream,scream,ending,m,positive,positive,ES_purple,1,m,575,1158541,1159042,1159244
83,second,11,krank,IAT_yellow4.bmp,yellow,ending_melody,melody,ending,c,negative,negative,ES_purple,1,c,535,1160901,1161402,1161604
83,second,12,morsch,IAT_yellow3.bmp,yellow,ending_melody,melody,ending,c,negative,negative,ES_purple,1,c,564,1163240,1163741,1163943
83,second,13,kaputt,IAT_yellow4.bmp,yellow,ending_melody,melody,ending,c,negative,negative,ES_purple,1,c,585,1165587,1166088,1166289
83,second,14,gierig,IAT_yellow4.bmp,yellow,ending_melody,melody,ending,c,negative,negative,ES_purple,1,c,588,1167951,1168452,1168654
83,second,15,schön,IAT_purple1.bmp,purple,ending_scream,scream,ending,m,positive,positive,ES_purple,1,m,489,1170323,1170824,1171026
83,second,16,krank,IAT_purple4.bmp,purple,ending_scream,scream,ending,c,negative,positive,ES_purple,1,c,563,1172585,1173086,1173288
83,second,17,sozial,IAT_yellow1.bmp,yellow,ending_melody,melody,ending,m,positive,negative,ES_purple,1,m,590,1174925,1175427,1175629
83,second,18,brutal,IAT_green1.bmp,green,starting_melody,melody,starting,c,negative,positive,ES_purple,1,c,848,1177292,1177793,1177995
83,second,19,sonnig,IAT_green1.bmp,green,starting_melody,melody,starting,m,positive,positive,ES_purple,1,m,517,1179926,1180427,1180629
83,second,20,feige,IAT_purple4.bmp,purple,ending_scream,scream,ending,c,negative,positive,ES_purple,1,c,758,1182229,1182730,1182932
83,second,21,lustig,IAT_red1.bmp,red,starting_scream,scream,starting,m,positive,negative,ES_purple,1,m,591,1184765,1185266,1185467
83,second,22,gerecht,IAT_green3.bmp,green,starting_melody,melody,starting,m,positive,positive,ES_purple,1,m,510,1187135,1187636,1187837
83,second,23,lustig,IAT_purple3.bmp,purple,ending_scream,scream,ending,m,positive,positive,ES_purple,1,m,459,1189441,1189942,1190144
83,second,24,ehrlich,IAT_yellow3.bmp,yellow,ending_melody,melody,ending,m,positive,negative,ES_purple,1,m,508,1191680,1192181,1192383
83,second,25,gesund,IAT_red1.bmp,red,starting_scream,scream,starting,m,positive,negative,ES_purple,1,m,487,1193973,1194474,1194676
83,second,26,lästig,IAT_purple1.bmp,purple,ending_scream,scream,ending,c,negative,positive,ES_purple,1,c,651,1196256,1196757,1196959
83,second,27,falsch,IAT_green3.bmp,green,starting_melody,melody,starting,c,negative,positive,ES_purple,1,c,605,1198686,1199187,1199389
83,second,28,gerecht,IAT_purple3.bmp,purple,ending_scream,scream,ending,m,positive,positive,ES_purple,1,m,583,1201076,1201577,1201779
83,second,29,heiter,IAT_purple3.bmp,purple,ending_scream,scream,ending,m,positive,positive,ES_purple,1,m,630,1203428,1203930,1204132
83,second,30,munter,IAT_yellow4.bmp,yellow,ending_melody,melody,ending,m,positive,negative,ES_purple,1,m,546,1205834,1206335,1206537
83,second,31,kaputt,IAT_red2.bmp,red,starting_scream,scream,starting,c,negative,negative,ES_purple,1,c,604,1208160,1208661,1208863
83,second,32,streng,IAT_green3.bmp,green,starting_melody,melody,starting,c,negative,positive,ES_purple,0,m,608,1210539,1211040,1211242
83,second,33,teuer,IAT_yellow1.bmp,yellow,ending_melody,melody,ending,c,negative,negative,ES_purple,0,m,595,1213432,1213933,1214135
83,second,34,human,IAT_green1.bmp,green,starting_melody,melody,starting,m,positive,positive,ES_purple,1,m,479,1216316,1216817,1217019
83,second,35,sanft,IAT_yellow2.bmp,yellow,ending_melody,melody,ending,m,positive,negative,ES_purple,1,m,544,1218571,1219072,1219274
83,second,36,human,IAT_purple4.bmp,purple,ending_scream,scream,ending,m,positive,positive,ES_purple,1,m,561,1220890,1221391,1221593
83,second,37,feige,IAT_red3.bmp,red,starting_scream,scream,starting,c,negative,negative,ES_purple,1,c,595,1223241,1223742,1223944
83,second,38,witzig,IAT_green3.bmp,green,starting_melody,melody,starting,m,positive,positive,ES_purple,1,m,1065,1225619,1226120,1226322
83,second,39,morsch,IAT_purple4.bmp,purple,ending_scream,scream,ending,c,negative,positive,ES_purple,1,c,553,1228466,1228967,1229169
83,second,40,sonnig,IAT_red3.bmp,red,starting_scream,scream,starting,m,positive,negative,ES_purple,1,m,560,1230795,1231296,1231498
83,second,41,einsam,IAT_purple4.bmp,purple,ending_scream,scream,ending,c,negative,positive,ES_purple,1,c,656,1233130,1233632,1233834
83,second,42,geizig,IAT_green4.bmp,green,starting_melody,melody,starting,c,negative,positive,ES_purple,1,c,723,1235560,1236061,1236263
83,second,43,krank,IAT_green2.bmp,green,starting_melody,melody,starting,c,negative,positive,ES_purple,1,c,604,1238063,1238564,1238766
83,second,44,einsam,IAT_red3.bmp,red,starting_scream,scream,starting,c,negative,negative,ES_purple,0,m,558,1240446,1240947,1241149
83,second,45,brutal,IAT_purple2.bmp,purple,ending_scream,scream,ending,c,negative,positive,ES_purple,1,c,711,1243285,1243786,1243987
83,second,46,falsch,IAT_purple2.bmp,purple,ending_scream,scream,ending,c,negative,positive,ES_purple,1,c,743,1245780,1246281,1246483
83,second,47,human,IAT_red3.bmp,red,starting_scream,scream,starting,m,positive,negative,ES_purple,1,m,541,1248302,1248803,1249005
83,second,48,schön,IAT_green1.bmp,green,starting_melody,melody,starting,m,positive,positive,ES_purple,1,m,555,1250657,1251158,1251359
83,second,49,streng,IAT_purple2.bmp,purple,ending_scream,scream,ending,c,negative,positive,ES_purple,1,c,1107,1253000,1253501,1253703
83,second,50,teuer,IAT_yellow4.bmp,yellow,ending_melody,melody,ending,c,negative,negative,ES_purple,1,c,830,1255886,1256387,1256589
83,second,51,sonnig,IAT_green2.bmp,green,starting_melody,melody,starting,m,positive,positive,ES_purple,1,m,569,1258498,1258999,1259201
83,second,52,morsch,IAT_green2.bmp,green,starting_melody,melody,starting,c,negative,positive,ES_purple,1,c,640,1260843,1261344,1261546
83,second,53,geizig,IAT_green4.bmp,green,starting_melody,melody,starting,c,negative,positive,ES_purple,1,c,824,1263266,1263768,1263970
83,second,54,feige,IAT_yellow2.bmp,yellow,ending_melody,melody,ending,c,negative,negative,ES_purple,1,c,539,1265872,1266373,1266575
83,second,55,schön,IAT_red1.bmp,red,starting_scream,scream,starting,m,positive,negative,ES_purple,1,m,556,1268191,1268692,1268894
83,second,56,streng,IAT_red2.bmp,red,starting_scream,scream,starting,c,negative,negative,ES_purple,1,c,637,1270526,1271028,1271229
83,second,57,gierig,IAT_green2.bmp,green,starting_melody,melody,starting,c,negative,positive,ES_purple,1,c,655,1272939,1273440,1273642
83,second,58,feige,IAT_green2.bmp,green,starting_melody,melody,starting,c,negative,positive,ES_purple,1,c,664,1275379,1275880,1276082
83,second,59,gierig,IAT_red2.bmp,red,starting_scream,scream,starting,c,negative,negative,ES_purple,1,c,521,1277825,1278327,1278529
83,second,60,geizig,IAT_green4.bmp,green,starting_melody,melody,starting,c,negative,positive,ES_purple,1,c,554,1280130,1280631,1280832
83,second,61,lästig,IAT_yellow2.bmp,yellow,ending_melody,melody,ending,c,negative,negative,ES_purple,1,c,520,1282467,1282968,1283170
83,second,62,munter,IAT_red1.bmp,red,starting_scream,scream,starting,m,positive,negative,ES_purple,1,m,648,1284771,1285272,1285474
83,second,63,kaputt,IAT_red4.bmp,red,starting_scream,scream,starting,c,negative,negative,ES_purple,1,c,635,1287200,1287701,1287903
83,second,64,gesund,IAT_red4.bmp,red,starting_scream,scream,starting,m,positive,negative,ES_purple,1,m,619,1289615,1290116,1290318
83,second,65,witzig,IAT_green2.bmp,green,starting_melody,melody,starting,m,positive,positive,ES_purple,1,m,548,1292023,1292524,1292726
83,second,66,munter,IAT_red3.bmp,red,starting_scream,scream,starting,m,positive,negative,ES_purple,1,m,490,1294353,1294854,1295056
83,second,67,heiter,IAT_yellow1.bmp,yellow,ending_melody,melody,ending,m,positive,negative,ES_purple,1,m,571,1296624,1297125,1297327
83,second,68,sonnig,IAT_red2.bmp,red,starting_scream,scream,starting,m,positive,negative,ES_purple,1,m,701,1298975,1299476,1299677
83,second,69,lästig,IAT_yellow1.bmp,yellow,ending_melody,melody,ending,c,negative,negative,ES_purple,0,m,556,1301455,1301956,1302158
83,second,70,sozial,IAT_yellow1.bmp,yellow,ending_melody,melody,ending,m,positive,negative,ES_purple,1,m,1163,1304287,1304788,1304990
83,second,71,falsch,IAT_yellow2.bmp,yellow,ending_melody,melody,ending,c,negative,negative,ES_purple,1,c,757,1307237,1307738,1307940
83,second,72,brutal,IAT_purple2.bmp,purple,ending_scream,scream,ending,c,negative,positive,ES_purple,1,c,830,1309773,1310274,1310476
83,second,73,ehrlich,IAT_red3.bmp,red,starting_scream,scream,starting,m,positive,negative,ES_purple,1,m,860,1312383,1312884,1313086
83,second,74,witzig,IAT_yellow3.bmp,yellow,ending_melody,melody,ending,m,positive,negative,ES_purple,1,m,679,1315044,1315545,1315747
83,second,75,schön,IAT_purple3.bmp,purple,ending_scream,scream,ending,m,positive,positive,ES_purple,1,m,668,1317503,1318004,1318206
83,second,76,witzig,IAT_purple4.bmp,purple,ending_scream,scream,ending,m,positive,positive,ES_purple,1,m,686,1319947,1320449,1320651
83,second,77,heiter,IAT_purple1.bmp,purple,ending_scream,scream,ending,m,positive,positive,ES_purple,1,m,531,1322407,1322908,1323110
83,second,78,human,IAT_green3.bmp,green,starting_melody,melody,starting,m,positive,positive,ES_purple,1,m,606,1324716,1325217,1325419
83,second,79,gierig,IAT_red4.bmp,red,starting_scream,scream,starting,c,negative,negative,ES_purple,0,m,528,1327115,1327616,1327818
83,second,80,sanft,IAT_red2.bmp,red,starting_scream,scream,starting,m,positive,negative,ES_purple,1,m,887,1329924,1330425,1330627
83,second,81,sozial,IAT_purple2.bmp,purple,ending_scream,scream,ending,m,positive,positive,ES_purple,1,m,537,1332594,1333095,1333297
83,second,82,lustig,IAT_yellow4.bmp,yellow,ending_melody,melody,ending,m,positive,negative,ES_purple,1,m,489,1334913,1335414,1335616
83,second,83,einsam,IAT_yellow3.bmp,yellow,ending_melody,melody,ending,c,negative,negative,ES_purple,0,m,424,1337186,1337687,1337889
83,second,84,geizig,IAT_yellow2.bmp,yellow,ending_melody,melody,ending,c,negative,negative,ES_purple,1,c,679,1339891,1340392,1340594
83,second,85,gerecht,IAT_green1.bmp,green,starting_melody,melody,starting,m,positive,positive,ES_purple,0,c,540,1342350,1342851,1343053
83,second,86,kaputt,IAT_purple1.bmp,purple,ending_scream,scream,ending,c,negative,positive,ES_purple,1,c,619,1345169,1345670,1345871
83,second,87,krank,IAT_red2.bmp,red,starting_scream,scream,starting,c,negative,negative,ES_purple,1,c,569,1347570,1348071,1348273
83,second,88,lästig,IAT_red4.bmp,red,starting_scream,scream,starting,c,negative,negative,ES_purple,1,c,545,1349914,1350415,1350617
83,second,89,falsch,IAT_purple3.bmp,purple,ending_scream,scream,ending,c,negative,positive,ES_purple,1,c,528,1352233,1352735,1352937
83,second,90,heiter,IAT_purple1.bmp,purple,ending_scream,scream,ending,m,positive,positive,ES_purple,1,m,629,1354549,1355050,1355252
83,second,91,einsam,IAT_green4.bmp,green,starting_melody,melody,starting,c,negative,positive,ES_purple,1,c,619,1356959,1357460,1357662
83,second,92,brutal,IAT_purple3.bmp,purple,ending_scream,scream,ending,c,negative,positive,ES_purple,1,c,689,1359353,1359854,1360056
83,second,93,ehrlich,IAT_yellow3.bmp,yellow,ending_melody,melody,ending,m,positive,negative,ES_purple,1,m,816,1361835,1362336,1362538
83,second,94,munter,IAT_green4.bmp,green,starting_melody,melody,starting,m,positive,positive,ES_purple,1,m,735,1364428,1364929,1365131
83,second,95,teuer,IAT_red1.bmp,red,starting_scream,scream,starting,c,negative,negative,ES_purple,1,c,694,1366948,1367449,1367651
