subject_nr,block,trialnr,trial_target,trial_prime,prime_color,prime_role,prime_us,prime_relation,correct_response,target_valence,prime_valence,color_counter,correct_first_response,response_first_response,response_time_first_response,fixation_show,prime_show,target_show
52,first,0,witzig,IAT_yellow3.bmp,yellow,starting_scream,scream,starting,m,positive,negative,ES_red,1,m,742,1569357,1569858,1570060
52,first,1,falsch,IAT_red2.bmp,red,ending_scream,scream,ending,c,negative,positive,ES_red,1,c,604,1571880,1572381,1572583
52,first,2,sozial,IAT_green3.bmp,green,ending_melody,melody,ending,m,positive,negative,ES_red,1,m,611,1574257,1574758,1574960
52,first,3,kaputt,IAT_yellow1.bmp,yellow,starting_scream,scream,starting,c,negative,negative,ES_red,1,c,571,1576649,1577150,1577352
52,first,4,teuer,IAT_green4.bmp,green,ending_melody,melody,ending,c,negative,negative,ES_red,1,c,785,1578994,1579495,1579697
52,first,5,sonnig,IAT_red1.bmp,red,ending_scream,scream,ending,m,positive,positive,ES_red,1,m,918,1581565,1582066,1582268
52,first,6,falsch,IAT_purple2.bmp,purple,starting_melody,melody,starting,c,negative,positive,ES_red,1,c,588,1584263,1584764,1584966
52,first,7,ehrlich,IAT_yellow3.bmp,yellow,starting_scream,scream,starting,m,positive,negative,ES_red,1,m,649,1586633,1587135,1587337
52,first,8,gesund,IAT_green3.bmp,green,ending_melody,melody,ending,m,positive,negative,ES_red,1,m,541,1589063,1589564,1589766
52,first,9,schön,IAT_red3.bmp,red,ending_scream,scream,ending,m,positive,positive,ES_red,1,m,622,1591382,1591883,1592085
52,first,10,krank,IAT_red4.bmp,red,ending_scream,scream,ending,c,negative,positive,ES_red,1,c,691,1593792,1594293,1594495
52,first,11,falsch,IAT_red4.bmp,red,ending_scream,scream,ending,c,negative,positive,ES_red,1,c,681,1596266,1596767,1596969
52,first,12,gerecht,IAT_green2.bmp,green,ending_melody,melody,ending,m,positive,negative,ES_red,1,m,622,1598726,1599227,1599428
52,first,13,teuer,IAT_purple4.bmp,purple,starting_melody,melody,starting,c,negative,positive,ES_red,1,c,589,1601127,1601628,1601829
52,first,14,human,IAT_yellow3.bmp,yellow,starting_scream,scream,starting,m,positive,negative,ES_red,1,m,573,1603494,1603995,1604197
52,first,15,gierig,IAT_red2.bmp,red,ending_scream,scream,ending,c,negative,positive,ES_red,0,m,784,1605844,1606345,1606547
52,first,16,lustig,IAT_purple3.bmp,purple,starting_melody,melody,starting,m,positive,positive,ES_red,1,m,797,1608903,1609404,1609606
52,first,17,geizig,IAT_green4.bmp,green,ending_melody,melody,ending,c,negative,negative,ES_red,1,c,652,1611479,1611980,1612182
52,first,18,schön,IAT_yellow1.bmp,yellow,starting_scream,scream,starting,m,positive,negative,ES_red,1,m,605,1613910,1614411,1614613
52,first,19,sonnig,IAT_yellow2.bmp,yellow,starting_scream,scream,starting,m,positive,negative,ES_red,1,m,660,1616319,1616820,1617022
52,first,20,munter,IAT_purple2.bmp,purple,starting_melody,melody,starting,m,positive,positive,ES_red,1,m,602,1618761,1619262,1619464
52,first,21,ehrlich,IAT_yellow1.bmp,yellow,starting_scream,scream,starting,m,positive,negative,ES_red,1,m,573,1621141,1621643,1621845
52,first,22,witzig,IAT_red3.bmp,red,ending_scream,scream,ending,m,positive,positive,ES_red,1,m,593,1623491,1623992,1624194
52,first,23,einsam,IAT_green4.bmp,green,ending_melody,melody,ending,c,negative,negative,ES_red,0,m,640,1625859,1626360,1626562
52,first,24,krank,IAT_purple4.bmp,purple,starting_melody,melody,starting,c,negative,positive,ES_red,1,c,790,1628781,1629282,1629484
52,first,25,schön,IAT_red1.bmp,red,ending_scream,scream,ending,m,positive,positive,ES_red,1,m,707,1631345,1631846,1632047
52,first,26,munter,IAT_green1.bmp,green,ending_melody,melody,ending,m,positive,negative,ES_red,1,m,861,1633830,1634331,1634533
52,first,27,heiter,IAT_purple1.bmp,purple,starting_melody,melody,starting,m,positive,positive,ES_red,1,m,655,1636468,1636969,1637171
52,first,28,lästig,IAT_yellow4.bmp,yellow,starting_scream,scream,starting,c,negative,negative,ES_red,1,c,685,1638902,1639403,1639605
52,first,29,lustig,IAT_purple4.bmp,purple,starting_melody,melody,starting,m,positive,positive,ES_red,1,m,674,1641362,1641863,1642064
52,first,30,munter,IAT_green1.bmp,green,ending_melody,melody,ending,m,positive,negative,ES_red,1,m,662,1643821,1644322,1644524
52,first,31,sozial,IAT_yellow2.bmp,yellow,starting_scream,scream,starting,m,positive,negative,ES_red,1,m,850,1646257,1646758,1646960
52,first,32,brutal,IAT_yellow4.bmp,yellow,starting_scream,scream,starting,c,negative,negative,ES_red,1,c,859,1648889,1649390,1649591
52,first,33,sanft,IAT_red3.bmp,red,ending_scream,scream,ending,m,positive,positive,ES_red,1,m,829,1651526,1652027,1652229
52,first,34,falsch,IAT_yellow2.bmp,yellow,starting_scream,scream,starting,c,negative,negative,ES_red,1,c,826,1654137,1654638,1654840
52,first,35,feige,IAT_red3.bmp,red,ending_scream,scream,ending,c,negative,positive,ES_red,1,c,830,1656755,1657257,1657459
52,first,36,witzig,IAT_yellow4.bmp,yellow,starting_scream,scream,starting,m,positive,negative,ES_red,1,m,687,1659364,1659865,1660067
52,first,37,geizig,IAT_purple2.bmp,purple,starting_melody,melody,starting,c,negative,positive,ES_red,1,c,1059,1661856,1662357,1662559
52,first,38,teuer,IAT_red1.bmp,red,ending_scream,scream,ending,c,negative,positive,ES_red,0,m,1018,1664696,1665198,1665400
52,first,39,lästig,IAT_purple2.bmp,purple,starting_melody,melody,starting,c,negative,positive,ES_red,1,c,778,1668009,1668510,1668712
52,first,40,brutal,IAT_green1.bmp,green,ending_melody,melody,ending,c,negative,negative,ES_red,1,c,579,1670560,1671062,1671263
52,first,41,einsam,IAT_purple1.bmp,purple,starting_melody,melody,starting,c,negative,positive,ES_red,0,m,669,1672917,1673418,1673620
52,first,42,sonnig,IAT_green3.bmp,green,ending_melody,melody,ending,m,positive,negative,ES_red,1,m,635,1675864,1676365,1676567
52,first,43,feige,IAT_yellow2.bmp,yellow,starting_scream,scream,starting,c,negative,negative,ES_red,1,c,716,1678295,1678796,1678998
52,first,44,krank,IAT_yellow2.bmp,yellow,starting_scream,scream,starting,c,negative,negative,ES_red,1,c,775,1680812,1681313,1681515
52,first,45,teuer,IAT_purple2.bmp,purple,starting_melody,melody,starting,c,negative,positive,ES_red,0,m,984,1683387,1683888,1684090
52,first,46,kaputt,IAT_green2.bmp,green,ending_melody,melody,ending,c,negative,negative,ES_red,1,c,903,1686652,1687153,1687355
52,first,47,schön,IAT_red3.bmp,red,ending_scream,scream,ending,m,positive,positive,ES_red,1,m,637,1689333,1689834,1690036
52,first,48,morsch,IAT_green1.bmp,green,ending_melody,melody,ending,c,negative,negative,ES_red,1,c,746,1691752,1692253,1692455
52,first,49,brutal,IAT_yellow4.bmp,yellow,starting_scream,scream,starting,c,negative,negative,ES_red,1,c,731,1694280,1694781,1694983
52,first,50,sozial,IAT_green2.bmp,green,ending_melody,melody,ending,m,positive,negative,ES_red,1,m,1002,1696793,1697294,1697496
52,first,51,kaputt,IAT_yellow2.bmp,yellow,starting_scream,scream,starting,c,negative,negative,ES_red,1,c,847,1699572,1700073,1700275
52,first,52,gerecht,IAT_green4.bmp,green,ending_melody,melody,ending,m,positive,negative,ES_red,1,m,782,1702197,1702698,1702900
52,first,53,streng,IAT_red1.bmp,red,ending_scream,scream,ending,c,negative,positive,ES_red,1,c,991,1704755,1705256,1705458
52,first,54,morsch,IAT_green2.bmp,green,ending_melody,melody,ending,c,negative,negative,ES_red,1,c,793,1707529,1708030,1708232
52,first,55,sanft,IAT_green4.bmp,green,ending_melody,melody,ending,m,positive,negative,ES_red,1,m,945,1710097,1710598,1710800
52,first,56,geizig,IAT_red3.bmp,red,ending_scream,scream,ending,c,negative,positive,ES_red,1,c,996,1712831,1713332,1713534
52,first,57,streng,IAT_green2.bmp,green,ending_melody,melody,ending,c,negative,negative,ES_red,1,c,827,1715608,1716109,1716311
52,first,58,brutal,IAT_yellow4.bmp,yellow,starting_scream,scream,starting,c,negative,negative,ES_red,1,c,1211,1718215,1718716,1718918
52,first,59,human,IAT_red1.bmp,red,ending_scream,scream,ending,m,positive,positive,ES_red,1,m,852,1721197,1721699,1721901
52,first,60,heiter,IAT_red2.bmp,red,ending_scream,scream,ending,m,positive,positive,ES_red,1,m,795,1723831,1724332,1724534
52,first,61,sanft,IAT_yellow3.bmp,yellow,starting_scream,scream,starting,m,positive,negative,ES_red,1,m,813,1726404,1726906,1727108
52,first,62,geizig,IAT_yellow1.bmp,yellow,starting_scream,scream,starting,c,negative,negative,ES_red,1,c,736,1728995,1729496,1729698
52,first,63,lästig,IAT_red2.bmp,red,ending_scream,scream,ending,c,negative,positive,ES_red,1,c,654,1731508,1732010,1732212
52,first,64,sonnig,IAT_purple2.bmp,purple,starting_melody,melody,starting,m,positive,positive,ES_red,1,m,1105,1733954,1734455,1734656
52,first,65,morsch,IAT_green3.bmp,green,ending_melody,melody,ending,c,negative,negative,ES_red,1,c,1001,1736841,1737342,1737544
52,first,66,ehrlich,IAT_purple1.bmp,purple,starting_melody,melody,starting,m,positive,positive,ES_red,1,m,625,1739617,1740118,1740320
52,first,67,gesund,IAT_purple4.bmp,purple,starting_melody,melody,starting,m,positive,positive,ES_red,1,m,851,1742015,1742516,1742718
52,first,68,gerecht,IAT_red1.bmp,red,ending_scream,scream,ending,m,positive,positive,ES_red,0,c,698,1744647,1745149,1745351
52,first,69,krank,IAT_green2.bmp,green,ending_melody,melody,ending,c,negative,negative,ES_red,1,c,718,1747621,1748122,1748324
52,first,70,kaputt,IAT_red4.bmp,red,ending_scream,scream,ending,c,negative,positive,ES_red,1,c,761,1750137,1750638,1750840
52,first,71,human,IAT_red4.bmp,red,ending_scream,scream,ending,m,positive,positive,ES_red,1,m,695,1752683,1753184,1753386
52,first,72,lustig,IAT_yellow1.bmp,yellow,starting_scream,scream,starting,m,positive,negative,ES_red,1,m,1293,1755157,1755658,1755860
52,first,73,gierig,IAT_red2.bmp,red,ending_scream,scream,ending,c,negative,positive,ES_red,0,None,1500,1758240,1758741,1758942
52,first,74,munter,IAT_yellow1.bmp,yellow,starting_scream,scream,starting,m,positive,negative,ES_red,1,m,783,1762020,1762521,1762722
52,first,75,lästig,IAT_purple3.bmp,purple,starting_melody,melody,starting,c,negative,positive,ES_red,1,c,880,1764579,1765080,1765281
52,first,76,sanft,IAT_green3.bmp,green,ending_melody,melody,ending,m,positive,negative,ES_red,1,m,668,1767238,1767739,1767941
52,first,77,gerecht,IAT_purple3.bmp,purple,starting_melody,melody,starting,m,positive,positive,ES_red,1,m,623,1769683,1770184,1770386
52,first,78,witzig,IAT_purple1.bmp,purple,starting_melody,melody,starting,m,positive,positive,ES_red,1,m,613,1772077,1772578,1772780
52,first,79,ehrlich,IAT_green1.bmp,green,ending_melody,melody,ending,m,positive,negative,ES_red,1,m,585,1774473,1774974,1775176
52,first,80,heiter,IAT_purple1.bmp,purple,starting_melody,melody,starting,m,positive,positive,ES_red,1,m,589,1776837,1777338,1777540
52,first,81,gesund,IAT_purple3.bmp,purple,starting_melody,melody,starting,m,positive,positive,ES_red,1,m,635,1779207,1779708,1779910
52,first,82,einsam,IAT_purple1.bmp,purple,starting_melody,melody,starting,c,negative,positive,ES_red,1,c,763,1781639,1782140,1782342
52,first,83,streng,IAT_green3.bmp,green,ending_melody,melody,ending,c,negative,negative,ES_red,1,c,553,1784185,1784686,1784888
52,first,84,gierig,IAT_purple4.bmp,purple,starting_melody,melody,starting,c,negative,positive,ES_red,1,c,567,1786523,1787024,1787226
52,first,85,feige,IAT_yellow3.bmp,yellow,starting_scream,scream,starting,c,negative,negative,ES_red,1,c,652,1788871,1789372,1789573
52,first,86,einsam,IAT_red4.bmp,red,ending_scream,scream,ending,c,negative,positive,ES_red,1,c,642,1791312,1791813,1792015
52,first,87,human,IAT_red4.bmp,red,ending_scream,scream,ending,m,positive,positive,ES_red,1,m,733,1793732,1794234,1794436
52,first,88,feige,IAT_purple4.bmp,purple,starting_melody,melody,starting,c,negative,positive,ES_red,1,c,1357,1796244,1796745,1796947
52,first,89,lustig,IAT_yellow4.bmp,yellow,starting_scream,scream,starting,m,positive,negative,ES_red,1,m,835,1799391,1799892,1800094
52,first,90,morsch,IAT_yellow3.bmp,yellow,starting_scream,scream,starting,c,negative,negative,ES_red,1,c,716,1802005,1802507,1802709
52,first,91,sozial,IAT_red2.bmp,red,ending_scream,scream,ending,m,positive,positive,ES_red,1,m,668,1804501,1805003,1805205
52,first,92,gesund,IAT_purple3.bmp,purple,starting_melody,melody,starting,m,positive,positive,ES_red,1,m,657,1806945,1807446,1807648
52,first,93,gierig,IAT_green4.bmp,green,ending_melody,melody,ending,c,negative,negative,ES_red,1,c,1082,1809384,1809885,1810087
52,first,94,heiter,IAT_green1.bmp,green,ending_melody,melody,ending,m,positive,negative,ES_red,1,m,784,1812241,1812742,1812944
52,first,95,streng,IAT_purple3.bmp,purple,starting_melody,melody,starting,c,negative,positive,ES_red,1,c,862,1814835,1815336,1815538
52,second,0,heiter,IAT_green2.bmp,green,ending_melody,melody,ending,m,positive,negative,ES_red,1,m,589,1832596,1833097,1833299
52,second,1,human,IAT_green3.bmp,green,ending_melody,melody,ending,m,positive,negative,ES_red,1,m,548,1834957,1835460,1835661
52,second,2,teuer,IAT_green1.bmp,green,ending_melody,melody,ending,c,negative,negative,ES_red,1,c,683,1837287,1837788,1837990
52,second,3,gerecht,IAT_red3.bmp,red,ending_scream,scream,ending,m,positive,positive,ES_red,0,c,734,1839748,1840249,1840451
52,second,4,schön,IAT_purple1.bmp,purple,starting_melody,melody,starting,m,positive,positive,ES_red,1,m,795,1842758,1843259,1843461
52,second,5,falsch,IAT_red3.bmp,red,ending_scream,scream,ending,c,negative,positive,ES_red,1,c,622,1845331,1845832,1846034
52,second,6,sanft,IAT_green1.bmp,green,ending_melody,melody,ending,m,positive,negative,ES_red,1,m,1101,1847732,1848233,1848435
52,second,7,gierig,IAT_purple3.bmp,purple,starting_melody,melody,starting,c,negative,positive,ES_red,1,c,654,1850612,1851113,1851315
52,second,8,falsch,IAT_yellow3.bmp,yellow,starting_scream,scream,starting,c,negative,negative,ES_red,1,c,832,1853042,1853543,1853745
52,second,9,feige,IAT_green3.bmp,green,ending_melody,melody,ending,c,negative,negative,ES_red,1,c,793,1855657,1856158,1856360
52,second,10,heiter,IAT_yellow1.bmp,yellow,starting_scream,scream,starting,m,positive,negative,ES_red,1,m,626,1858240,1858741,1858943
52,second,11,munter,IAT_yellow2.bmp,yellow,starting_scream,scream,starting,m,positive,negative,ES_red,0,c,754,1860639,1861140,1861342
52,second,12,ehrlich,IAT_purple3.bmp,purple,starting_melody,melody,starting,m,positive,positive,ES_red,1,m,707,1863678,1864179,1864381
52,second,13,teuer,IAT_red4.bmp,red,ending_scream,scream,ending,c,negative,positive,ES_red,1,c,691,1866158,1866659,1866861
52,second,14,gesund,IAT_green1.bmp,green,ending_melody,melody,ending,m,positive,negative,ES_red,1,m,613,1868621,1869122,1869324
52,second,15,lustig,IAT_green1.bmp,green,ending_melody,melody,ending,m,positive,negative,ES_red,1,m,685,1871013,1871514,1871716
52,second,16,sonnig,IAT_yellow1.bmp,yellow,starting_scream,scream,starting,m,positive,negative,ES_red,1,m,593,1873473,1873974,1874176
52,second,17,einsam,IAT_red2.bmp,red,ending_scream,scream,ending,c,negative,positive,ES_red,1,c,844,1875845,1876347,1876548
52,second,18,lustig,IAT_green4.bmp,green,ending_melody,melody,ending,m,positive,negative,ES_red,1,m,891,1878471,1878972,1879173
52,second,19,brutal,IAT_red2.bmp,red,ending_scream,scream,ending,c,negative,positive,ES_red,1,c,873,1881144,1881645,1881847
52,second,20,einsam,IAT_green4.bmp,green,ending_melody,melody,ending,c,negative,negative,ES_red,1,c,1442,1883792,1884293,1884494
52,second,21,feige,IAT_purple2.bmp,purple,starting_melody,melody,starting,c,negative,positive,ES_red,1,c,770,1887024,1887525,1887727
52,second,22,sanft,IAT_purple1.bmp,purple,starting_melody,melody,starting,m,positive,positive,ES_red,1,m,763,1889574,1890076,1890277
52,second,23,gierig,IAT_yellow2.bmp,yellow,starting_scream,scream,starting,c,negative,negative,ES_red,1,c,875,1892134,1892635,1892837
52,second,24,schön,IAT_yellow3.bmp,yellow,starting_scream,scream,starting,m,positive,negative,ES_red,1,m,720,1894801,1895303,1895504
52,second,25,brutal,IAT_red3.bmp,red,ending_scream,scream,ending,c,negative,positive,ES_red,1,c,868,1897309,1897810,1898012
52,second,26,munter,IAT_green3.bmp,green,ending_melody,melody,ending,m,positive,negative,ES_red,1,m,989,1899956,1900457,1900659
52,second,27,human,IAT_red1.bmp,red,ending_scream,scream,ending,m,positive,positive,ES_red,1,m,715,1902726,1903227,1903429
52,second,28,lästig,IAT_yellow2.bmp,yellow,starting_scream,scream,starting,c,negative,negative,ES_red,1,c,706,1905215,1905716,1905918
52,second,29,sonnig,IAT_yellow4.bmp,yellow,starting_scream,scream,starting,m,positive,negative,ES_red,1,m,670,1907700,1908201,1908402
52,second,30,feige,IAT_green4.bmp,green,ending_melody,melody,ending,c,negative,negative,ES_red,1,c,768,1910145,1910646,1910848
52,second,31,heiter,IAT_red3.bmp,red,ending_scream,scream,ending,m,positive,positive,ES_red,1,m,647,1912697,1913199,1913401
52,second,32,ehrlich,IAT_green1.bmp,green,ending_melody,melody,ending,m,positive,negative,ES_red,1,m,691,1915118,1915619,1915821
52,second,33,streng,IAT_purple4.bmp,purple,starting_melody,melody,starting,c,negative,positive,ES_red,1,c,692,1917581,1918082,1918284
52,second,34,munter,IAT_yellow3.bmp,yellow,starting_scream,scream,starting,m,positive,negative,ES_red,1,m,924,1920053,1920554,1920756
52,second,35,human,IAT_red1.bmp,red,ending_scream,scream,ending,m,positive,positive,ES_red,1,m,641,1922768,1923269,1923471
52,second,36,morsch,IAT_purple1.bmp,purple,starting_melody,melody,starting,c,negative,positive,ES_red,1,c,856,1925193,1925694,1925896
52,second,37,gerecht,IAT_yellow4.bmp,yellow,starting_scream,scream,starting,m,positive,negative,ES_red,0,None,1500,1927828,1928329,1928531
52,second,38,teuer,IAT_red1.bmp,red,ending_scream,scream,ending,c,negative,positive,ES_red,1,c,741,1931612,1932113,1932315
52,second,39,einsam,IAT_purple4.bmp,purple,starting_melody,melody,starting,c,negative,positive,ES_red,0,m,656,1934129,1934630,1934832
52,second,40,geizig,IAT_purple1.bmp,purple,starting_melody,melody,starting,c,negative,positive,ES_red,1,c,917,1937067,1937568,1937770
52,second,41,streng,IAT_purple3.bmp,purple,starting_melody,melody,starting,c,negative,positive,ES_red,1,c,922,1939767,1940269,1940470
52,second,42,schön,IAT_yellow3.bmp,yellow,starting_scream,scream,starting,m,positive,negative,ES_red,1,m,672,1942481,1942982,1943184
52,second,43,ehrlich,IAT_purple1.bmp,purple,starting_melody,melody,starting,m,positive,positive,ES_red,1,m,1055,1944930,1945431,1945633
52,second,44,witzig,IAT_red3.bmp,red,ending_scream,scream,ending,m,positive,positive,ES_red,1,m,834,1947759,1948260,1948462
52,second,45,gesund,IAT_red2.bmp,red,ending_scream,scream,ending,m,positive,positive,ES_red,1,m,582,1950378,1950879,1951081
52,second,46,lustig,IAT_green3.bmp,green,ending_melody,melody,ending,m,positive,negative,ES_red,1,m,591,1952737,1953238,1953440
52,second,47,sozial,IAT_red4.bmp,red,ending_scream,scream,ending,m,positive,positive,ES_red,1,m,815,1955105,1955606,1955808
52,second,48,geizig,IAT_green2.bmp,green,ending_melody,melody,ending,c,negative,negative,ES_red,1,c,719,1957730,1958231,1958433
52,second,49,munter,IAT_yellow3.bmp,yellow,starting_scream,scream,starting,m,positive,negative,ES_red,0,c,978,1960239,1960740,1960942
52,second,50,witzig,IAT_red1.bmp,red,ending_scream,scream,ending,m,positive,positive,ES_red,1,m,825,1963496,1963997,1964199
52,second,51,sanft,IAT_purple3.bmp,purple,starting_melody,melody,starting,m,positive,positive,ES_red,1,m,1260,1966116,1966618,1966820
52,second,52,human,IAT_purple2.bmp,purple,starting_melody,melody,starting,m,positive,positive,ES_red,1,m,949,1969148,1969649,1969851
52,second,53,kaputt,IAT_green2.bmp,green,ending_melody,melody,ending,c,negative,negative,ES_red,1,c,685,1971875,1972377,1972578
52,second,54,krank,IAT_purple4.bmp,purple,starting_melody,melody,starting,c,negative,positive,ES_red,1,c,735,1974338,1974839,1975041
52,second,55,gerecht,IAT_red3.bmp,red,ending_scream,scream,ending,m,positive,positive,ES_red,1,m,697,1976855,1977357,1977559
52,second,56,streng,IAT_yellow3.bmp,yellow,starting_scream,scream,starting,c,negative,negative,ES_red,1,c,699,1979334,1979835,1980037
52,second,57,teuer,IAT_green3.bmp,green,ending_melody,melody,ending,c,negative,negative,ES_red,0,m,660,1981821,1982322,1982524
52,second,58,gierig,IAT_red4.bmp,red,ending_scream,scream,ending,c,negative,positive,ES_red,1,c,867,1984764,1985266,1985468
52,second,59,brutal,IAT_red4.bmp,red,ending_scream,scream,ending,c,negative,positive,ES_red,1,c,765,1987412,1987913,1988114
52,second,60,heiter,IAT_purple2.bmp,purple,starting_melody,melody,starting,m,positive,positive,ES_red,0,c,1214,1989955,1990456,1990658
52,second,61,sanft,IAT_purple4.bmp,purple,starting_melody,melody,starting,m,positive,positive,ES_red,1,m,843,1993446,1993947,1994149
52,second,62,sozial,IAT_red2.bmp,red,ending_scream,scream,ending,m,positive,positive,ES_red,1,m,612,1996061,1996562,1996764
52,second,63,morsch,IAT_purple2.bmp,purple,starting_melody,melody,starting,c,negative,positive,ES_red,1,c,698,1998454,1998955,1999157
52,second,64,einsam,IAT_yellow2.bmp,yellow,starting_scream,scream,starting,c,negative,negative,ES_red,0,m,826,2000950,2001451,2001653
52,second,65,brutal,IAT_purple2.bmp,purple,starting_melody,melody,starting,c,negative,positive,ES_red,0,m,696,2004056,2004557,2004759
52,second,66,gerecht,IAT_green2.bmp,green,ending_melody,melody,ending,m,positive,negative,ES_red,1,m,903,2007033,2007534,2007736
52,second,67,ehrlich,IAT_green4.bmp,green,ending_melody,melody,ending,m,positive,negative,ES_red,1,m,852,2009709,2010210,2010412
52,second,68,falsch,IAT_yellow4.bmp,yellow,starting_scream,scream,starting,c,negative,negative,ES_red,1,c,813,2012341,2012842,2013043
52,second,69,lästig,IAT_red2.bmp,red,ending_scream,scream,ending,c,negative,positive,ES_red,1,c,690,2014926,2015427,2015629
52,second,70,kaputt,IAT_green4.bmp,green,ending_melody,melody,ending,c,negative,negative,ES_red,1,c,691,2017389,2017890,2018092
52,second,71,krank,IAT_yellow4.bmp,yellow,starting_scream,scream,starting,c,negative,negative,ES_red,1,c,792,2019863,2020365,2020567
52,second,72,sozial,IAT_yellow2.bmp,yellow,starting_scream,scream,starting,m,positive,negative,ES_red,1,m,1017,2022439,2022940,2023142
52,second,73,witzig,IAT_green3.bmp,green,ending_melody,melody,ending,m,positive,negative,ES_red,1,m,762,2025239,2025740,2025942
52,second,74,falsch,IAT_yellow4.bmp,yellow,starting_scream,scream,starting,c,negative,negative,ES_red,1,c,660,2027806,2028307,2028508
52,second,75,morsch,IAT_red1.bmp,red,ending_scream,scream,ending,c,negative,positive,ES_red,1,c,745,2030247,2030748,2030950
52,second,76,lästig,IAT_green2.bmp,green,ending_melody,melody,ending,c,negative,negative,ES_red,1,c,730,2032774,2033275,2033477
52,second,77,sonnig,IAT_red1.bmp,red,ending_scream,scream,ending,m,positive,positive,ES_red,1,m,716,2035284,2035785,2035987
52,second,78,krank,IAT_green1.bmp,green,ending_melody,melody,ending,c,negative,negative,ES_red,1,c,729,2037783,2038284,2038486
52,second,79,feige,IAT_red4.bmp,red,ending_scream,scream,ending,c,negative,positive,ES_red,1,c,698,2040293,2040795,2040997
52,second,80,witzig,IAT_purple3.bmp,purple,starting_melody,melody,starting,m,positive,positive,ES_red,1,m,692,2042765,2043266,2043468
52,second,81,schön,IAT_purple4.bmp,purple,starting_melody,melody,starting,m,positive,positive,ES_red,1,m,642,2045230,2045731,2045933
52,second,82,gesund,IAT_red4.bmp,red,ending_scream,scream,ending,m,positive,positive,ES_red,1,m,622,2047650,2048151,2048353
52,second,83,lustig,IAT_purple3.bmp,purple,starting_melody,melody,starting,m,positive,positive,ES_red,1,m,588,2050052,2050553,2050755
52,second,84,geizig,IAT_purple4.bmp,purple,starting_melody,melody,starting,c,negative,positive,ES_red,1,c,687,2052417,2052918,2053120
52,second,85,sozial,IAT_yellow1.bmp,yellow,starting_scream,scream,starting,m,positive,negative,ES_red,1,m,746,2054886,2055387,2055589
52,second,86,lästig,IAT_purple2.bmp,purple,starting_melody,melody,starting,c,negative,positive,ES_red,1,c,807,2057417,2057918,2058120
52,second,87,morsch,IAT_green2.bmp,green,ending_melody,melody,ending,c,negative,negative,ES_red,1,c,650,2060006,2060507,2060709
52,second,88,streng,IAT_yellow4.bmp,yellow,starting_scream,scream,starting,c,negative,negative,ES_red,1,c,970,2062438,2062939,2063141
52,second,89,kaputt,IAT_red2.bmp,red,ending_scream,scream,ending,c,negative,positive,ES_red,1,c,584,2065192,2065693,2065895
52,second,90,sonnig,IAT_yellow1.bmp,yellow,starting_scream,scream,starting,m,positive,negative,ES_red,1,m,692,2067548,2068049,2068251
52,second,91,krank,IAT_yellow2.bmp,yellow,starting_scream,scream,starting,c,negative,negative,ES_red,1,c,632,2070024,2070525,2070727
52,second,92,gesund,IAT_purple1.bmp,purple,starting_melody,melody,starting,m,positive,positive,ES_red,1,m,592,2072432,2072933,2073135
52,second,93,kaputt,IAT_yellow1.bmp,yellow,starting_scream,scream,starting,c,negative,negative,ES_red,1,c,620,2074804,2075305,2075507
52,second,94,geizig,IAT_yellow1.bmp,yellow,starting_scream,scream,starting,c,negative,negative,ES_red,1,c,668,2077203,2077704,2077906
52,second,95,gierig,IAT_green4.bmp,green,ending_melody,melody,ending,c,negative,negative,ES_red,1,c,697,2079655,2080156,2080358
