subject_nr,block,trialnr,trial_target,trial_prime,prime_color,prime_role,prime_us,prime_relation,correct_response,target_valence,prime_valence,color_counter,correct_first_response,response_first_response,response_time_first_response,fixation_show,prime_show,target_show
24,first,0,streng,IAT_purple1.bmp,purple,starting_melody,melody,starting,c,negative,positive,ES_red,0,m,642,868300,868801,869003
24,first,1,munter,IAT_purple1.bmp,purple,starting_melody,melody,starting,m,positive,positive,ES_red,1,m,749,871247,871749,871951
24,first,2,lustig,IAT_red4.bmp,red,ending_scream,scream,ending,m,positive,positive,ES_red,1,m,718,873792,874293,874495
24,first,3,morsch,IAT_red4.bmp,red,ending_scream,scream,ending,c,negative,positive,ES_red,1,c,682,876292,876793,876995
24,first,4,gesund,IAT_green1.bmp,green,ending_melody,melody,ending,m,positive,negative,ES_red,1,m,652,878754,879255,879457
24,first,5,teuer,IAT_yellow4.bmp,yellow,starting_scream,scream,starting,c,negative,negative,ES_red,1,c,635,881187,881688,881890
24,first,6,lästig,IAT_yellow3.bmp,yellow,starting_scream,scream,starting,c,negative,negative,ES_red,1,c,839,883607,884108,884310
24,first,7,munter,IAT_purple2.bmp,purple,starting_melody,melody,starting,m,positive,positive,ES_red,1,m,684,886225,886726,886928
24,first,8,heiter,IAT_yellow4.bmp,yellow,starting_scream,scream,starting,m,positive,negative,ES_red,1,m,638,888703,889204,889406
24,first,9,witzig,IAT_yellow1.bmp,yellow,starting_scream,scream,starting,m,positive,negative,ES_red,1,m,605,891122,891623,891824
24,first,10,gesund,IAT_green2.bmp,green,ending_melody,melody,ending,m,positive,negative,ES_red,1,m,617,893509,894010,894212
24,first,11,feige,IAT_yellow4.bmp,yellow,starting_scream,scream,starting,c,negative,negative,ES_red,1,c,674,895900,896401,896603
24,first,12,human,IAT_red2.bmp,red,ending_scream,scream,ending,m,positive,positive,ES_red,1,m,703,898351,898852,899054
24,first,13,krank,IAT_yellow4.bmp,yellow,starting_scream,scream,starting,c,negative,negative,ES_red,1,c,599,900838,901339,901541
24,first,14,sozial,IAT_purple1.bmp,purple,starting_melody,melody,starting,m,positive,positive,ES_red,1,m,606,903215,903716,903918
24,first,15,schön,IAT_red3.bmp,red,ending_scream,scream,ending,m,positive,positive,ES_red,1,m,568,905604,906106,906308
24,first,16,munter,IAT_yellow1.bmp,yellow,starting_scream,scream,starting,m,positive,negative,ES_red,1,m,607,907951,908452,908654
24,first,17,gierig,IAT_yellow2.bmp,yellow,starting_scream,scream,starting,c,negative,negative,ES_red,1,c,834,910332,910833,911035
24,first,18,ehrlich,IAT_green1.bmp,green,ending_melody,melody,ending,m,positive,negative,ES_red,1,m,633,912949,913450,913652
24,first,19,krank,IAT_yellow2.bmp,yellow,starting_scream,scream,starting,c,negative,negative,ES_red,1,c,620,915362,915863,916065
24,first,20,sozial,IAT_green1.bmp,green,ending_melody,melody,ending,m,positive,negative,ES_red,1,m,606,917759,918260,918462
24,first,21,falsch,IAT_purple2.bmp,purple,starting_melody,melody,starting,c,negative,positive,ES_red,1,c,582,920152,920653,920854
24,first,22,ehrlich,IAT_green2.bmp,green,ending_melody,melody,ending,m,positive,negative,ES_red,0,c,672,922509,923010,923212
24,first,23,geizig,IAT_yellow2.bmp,yellow,starting_scream,scream,starting,c,negative,negative,ES_red,0,m,930,925468,925969,926171
24,first,24,teuer,IAT_green2.bmp,green,ending_melody,melody,ending,c,negative,negative,ES_red,1,c,809,928677,929178,929380
24,first,25,lästig,IAT_green2.bmp,green,ending_melody,melody,ending,c,negative,negative,ES_red,0,m,898,931292,931793,931995
24,first,26,sozial,IAT_green3.bmp,green,ending_melody,melody,ending,m,positive,negative,ES_red,1,m,985,934468,934969,935171
24,first,27,witzig,IAT_purple2.bmp,purple,starting_melody,melody,starting,m,positive,positive,ES_red,1,m,944,937230,937731,937932
24,first,28,ehrlich,IAT_red1.bmp,red,ending_scream,scream,ending,m,positive,positive,ES_red,1,m,633,939956,940457,940659
24,first,29,human,IAT_purple3.bmp,purple,starting_melody,melody,starting,m,positive,positive,ES_red,1,m,640,942366,942867,943069
24,first,30,heiter,IAT_purple1.bmp,purple,starting_melody,melody,starting,m,positive,positive,ES_red,1,m,794,944789,945290,945491
24,first,31,einsam,IAT_green1.bmp,green,ending_melody,melody,ending,c,negative,negative,ES_red,1,c,826,947363,947864,948066
24,first,32,morsch,IAT_red2.bmp,red,ending_scream,scream,ending,c,negative,positive,ES_red,1,c,747,949986,950487,950689
24,first,33,gierig,IAT_red1.bmp,red,ending_scream,scream,ending,c,negative,positive,ES_red,1,c,867,952506,953007,953209
24,first,34,kaputt,IAT_green3.bmp,green,ending_melody,melody,ending,c,negative,negative,ES_red,1,c,689,955148,955649,955851
24,first,35,brutal,IAT_purple3.bmp,purple,starting_melody,melody,starting,c,negative,positive,ES_red,1,c,681,957620,958121,958323
24,first,36,feige,IAT_purple4.bmp,purple,starting_melody,melody,starting,c,negative,positive,ES_red,1,c,822,960088,960589,960791
24,first,37,falsch,IAT_green1.bmp,green,ending_melody,melody,ending,c,negative,negative,ES_red,1,c,708,962682,963183,963385
24,first,38,lustig,IAT_yellow1.bmp,yellow,starting_scream,scream,starting,m,positive,negative,ES_red,1,m,654,965167,965668,965870
24,first,39,human,IAT_green3.bmp,green,ending_melody,melody,ending,m,positive,negative,ES_red,1,m,687,967598,968099,968301
24,first,40,brutal,IAT_purple2.bmp,purple,starting_melody,melody,starting,c,negative,positive,ES_red,1,c,656,970058,970559,970761
24,first,41,lustig,IAT_green3.bmp,green,ending_melody,melody,ending,m,positive,negative,ES_red,1,m,675,972490,972991,973193
24,first,42,munter,IAT_yellow1.bmp,yellow,starting_scream,scream,starting,m,positive,negative,ES_red,1,m,671,974942,975443,975645
24,first,43,geizig,IAT_red3.bmp,red,ending_scream,scream,ending,c,negative,positive,ES_red,1,c,689,977421,977922,978124
24,first,44,morsch,IAT_purple1.bmp,purple,starting_melody,melody,starting,c,negative,positive,ES_red,1,c,748,979889,980390,980592
24,first,45,geizig,IAT_red2.bmp,red,ending_scream,scream,ending,c,negative,positive,ES_red,0,m,878,982415,982916,983118
24,first,46,human,IAT_yellow2.bmp,yellow,starting_scream,scream,starting,m,positive,negative,ES_red,1,m,963,985578,986079,986281
24,first,47,sonnig,IAT_red3.bmp,red,ending_scream,scream,ending,m,positive,positive,ES_red,1,m,701,988320,988821,989023
24,first,48,brutal,IAT_red1.bmp,red,ending_scream,scream,ending,c,negative,positive,ES_red,1,c,636,990801,991302,991504
24,first,49,schön,IAT_yellow3.bmp,yellow,starting_scream,scream,starting,m,positive,negative,ES_red,1,m,702,993214,993716,993918
24,first,50,streng,IAT_purple3.bmp,purple,starting_melody,melody,starting,c,negative,positive,ES_red,1,c,669,995696,996197,996399
24,first,51,kaputt,IAT_red4.bmp,red,ending_scream,scream,ending,c,negative,positive,ES_red,1,c,1257,998164,998665,998867
24,first,52,heiter,IAT_red3.bmp,red,ending_scream,scream,ending,m,positive,positive,ES_red,1,m,834,1001195,1001697,1001898
24,first,53,gesund,IAT_red1.bmp,red,ending_scream,scream,ending,m,positive,positive,ES_red,1,m,606,1003807,1004308,1004510
24,first,54,morsch,IAT_purple2.bmp,purple,starting_melody,melody,starting,c,negative,positive,ES_red,1,c,733,1006192,1006693,1006895
24,first,55,lästig,IAT_yellow4.bmp,yellow,starting_scream,scream,starting,c,negative,negative,ES_red,1,c,804,1008712,1009213,1009415
24,first,56,schön,IAT_red3.bmp,red,ending_scream,scream,ending,m,positive,positive,ES_red,1,m,653,1011296,1011797,1011999
24,first,57,sanft,IAT_purple4.bmp,purple,starting_melody,melody,starting,m,positive,positive,ES_red,1,m,700,1013728,1014230,1014432
24,first,58,brutal,IAT_green4.bmp,green,ending_melody,melody,ending,c,negative,negative,ES_red,1,c,568,1016213,1016714,1016916
24,first,59,kaputt,IAT_red4.bmp,red,ending_scream,scream,ending,c,negative,positive,ES_red,0,m,779,1018562,1019063,1019265
24,first,60,gesund,IAT_purple3.bmp,purple,starting_melody,melody,starting,m,positive,positive,ES_red,1,m,937,1021620,1022121,1022323
24,first,61,feige,IAT_red4.bmp,red,ending_scream,scream,ending,c,negative,positive,ES_red,1,c,789,1024344,1024845,1025047
24,first,62,ehrlich,IAT_red2.bmp,red,ending_scream,scream,ending,m,positive,positive,ES_red,1,m,665,1026915,1027416,1027618
24,first,63,einsam,IAT_red3.bmp,red,ending_scream,scream,ending,c,negative,positive,ES_red,0,m,1007,1029358,1029859,1030061
24,first,64,streng,IAT_yellow2.bmp,yellow,starting_scream,scream,starting,c,negative,negative,ES_red,1,c,1387,1032642,1033143,1033345
24,first,65,sanft,IAT_yellow3.bmp,yellow,starting_scream,scream,starting,m,positive,negative,ES_red,1,m,706,1035819,1036320,1036522
24,first,66,sonnig,IAT_yellow4.bmp,yellow,starting_scream,scream,starting,m,positive,negative,ES_red,1,m,589,1038304,1038805,1039007
24,first,67,sozial,IAT_red1.bmp,red,ending_scream,scream,ending,m,positive,positive,ES_red,1,m,734,1040670,1041171,1041373
24,first,68,geizig,IAT_purple4.bmp,purple,starting_melody,melody,starting,c,negative,positive,ES_red,1,c,793,1043187,1043688,1043890
24,first,69,gerecht,IAT_green3.bmp,green,ending_melody,melody,ending,m,positive,negative,ES_red,1,m,715,1045762,1046263,1046464
24,first,70,lustig,IAT_purple1.bmp,purple,starting_melody,melody,starting,m,positive,positive,ES_red,1,m,943,1048270,1048771,1048973
24,first,71,schön,IAT_purple3.bmp,purple,starting_melody,melody,starting,m,positive,positive,ES_red,1,m,655,1050990,1051491,1051693
24,first,72,sonnig,IAT_red1.bmp,red,ending_scream,scream,ending,m,positive,positive,ES_red,1,m,686,1053423,1053924,1054126
24,first,73,krank,IAT_green4.bmp,green,ending_melody,melody,ending,c,negative,negative,ES_red,1,c,593,1055883,1056385,1056587
24,first,74,einsam,IAT_purple2.bmp,purple,starting_melody,melody,starting,c,negative,positive,ES_red,1,c,731,1058257,1058758,1058960
24,first,75,falsch,IAT_red2.bmp,red,ending_scream,scream,ending,c,negative,positive,ES_red,1,c,604,1060768,1061269,1061471
24,first,76,streng,IAT_green2.bmp,green,ending_melody,melody,ending,c,negative,negative,ES_red,1,c,650,1063171,1063672,1063873
24,first,77,krank,IAT_yellow3.bmp,yellow,starting_scream,scream,starting,c,negative,negative,ES_red,1,c,655,1065598,1066099,1066301
24,first,78,falsch,IAT_green4.bmp,green,ending_melody,melody,ending,c,negative,negative,ES_red,1,c,733,1068032,1068533,1068735
24,first,79,sanft,IAT_red4.bmp,red,ending_scream,scream,ending,m,positive,positive,ES_red,1,m,622,1070559,1071060,1071262
24,first,80,gerecht,IAT_green1.bmp,green,ending_melody,melody,ending,m,positive,negative,ES_red,1,m,640,1072956,1073457,1073659
24,first,81,witzig,IAT_green4.bmp,green,ending_melody,melody,ending,m,positive,negative,ES_red,1,m,570,1075378,1075879,1076081
24,first,82,teuer,IAT_green4.bmp,green,ending_melody,melody,ending,c,negative,negative,ES_red,1,c,625,1077723,1078224,1078426
24,first,83,kaputt,IAT_yellow1.bmp,yellow,starting_scream,scream,starting,c,negative,negative,ES_red,1,c,686,1080126,1080627,1080829
24,first,84,einsam,IAT_green3.bmp,green,ending_melody,melody,ending,c,negative,negative,ES_red,0,m,803,1082586,1083087,1083289
24,first,85,gerecht,IAT_purple4.bmp,purple,starting_melody,melody,starting,m,positive,positive,ES_red,1,m,952,1085669,1086171,1086372
24,first,86,teuer,IAT_purple4.bmp,purple,starting_melody,melody,starting,c,negative,positive,ES_red,1,c,671,1088398,1088899,1089100
24,first,87,gierig,IAT_yellow1.bmp,yellow,starting_scream,scream,starting,c,negative,negative,ES_red,1,c,1190,1090854,1091355,1091557
24,first,88,lästig,IAT_red2.bmp,red,ending_scream,scream,ending,c,negative,positive,ES_red,1,c,731,1093825,1094326,1094528
24,first,89,sanft,IAT_green4.bmp,green,ending_melody,melody,ending,m,positive,negative,ES_red,1,m,691,1096329,1096830,1097032
24,first,90,witzig,IAT_yellow2.bmp,yellow,starting_scream,scream,starting,m,positive,negative,ES_red,1,m,571,1098802,1099303,1099505
24,first,91,sonnig,IAT_yellow3.bmp,yellow,starting_scream,scream,starting,m,positive,negative,ES_red,1,m,595,1101162,1101663,1101865
24,first,92,gerecht,IAT_yellow3.bmp,yellow,starting_scream,scream,starting,m,positive,negative,ES_red,0,c,599,1103540,1104042,1104244
24,first,93,heiter,IAT_purple3.bmp,purple,starting_melody,melody,starting,m,positive,positive,ES_red,1,m,598,1106422,1106923,1107125
24,first,94,gierig,IAT_purple4.bmp,purple,starting_melody,melody,starting,c,negative,positive,ES_red,1,c,700,1108800,1109301,1109503
24,first,95,feige,IAT_green2.bmp,green,ending_melody,melody,ending,c,negative,negative,ES_red,1,c,899,1111273,1111774,1111976
24,second,0,gerecht,IAT_yellow3.bmp,yellow,starting_scream,scream,starting,m,positive,negative,ES_red,1,m,746,1123794,1124295,1124497
24,second,1,falsch,IAT_red3.bmp,red,ending_scream,scream,ending,c,negative,positive,ES_red,1,c,909,1126318,1126820,1127022
24,second,2,lästig,IAT_green1.bmp,green,ending_melody,melody,ending,c,negative,negative,ES_red,1,c,680,1129012,1129513,1129715
24,second,3,teuer,IAT_purple4.bmp,purple,starting_melody,melody,starting,c,negative,positive,ES_red,1,c,653,1131487,1131988,1132190
24,second,4,krank,IAT_purple1.bmp,purple,starting_melody,melody,starting,c,negative,positive,ES_red,1,c,634,1133939,1134440,1134642
24,second,5,geizig,IAT_green4.bmp,green,ending_melody,melody,ending,c,negative,negative,ES_red,1,c,672,1136347,1136849,1137051
24,second,6,falsch,IAT_red4.bmp,red,ending_scream,scream,ending,c,negative,positive,ES_red,1,c,537,1138803,1139304,1139506
24,second,7,witzig,IAT_purple3.bmp,purple,starting_melody,melody,starting,m,positive,positive,ES_red,1,m,626,1141114,1141615,1141817
24,second,8,munter,IAT_purple2.bmp,purple,starting_melody,melody,starting,m,positive,positive,ES_red,1,m,881,1143514,1144017,1144219
24,second,9,gesund,IAT_yellow1.bmp,yellow,starting_scream,scream,starting,m,positive,negative,ES_red,1,m,554,1146178,1146679,1146881
24,second,10,ehrlich,IAT_red3.bmp,red,ending_scream,scream,ending,m,positive,positive,ES_red,1,m,538,1148514,1149015,1149217
24,second,11,schön,IAT_purple3.bmp,purple,starting_melody,melody,starting,m,positive,positive,ES_red,1,m,555,1150832,1151333,1151535
24,second,12,brutal,IAT_red1.bmp,red,ending_scream,scream,ending,c,negative,positive,ES_red,1,c,541,1153167,1153668,1153870
24,second,13,morsch,IAT_red4.bmp,red,ending_scream,scream,ending,c,negative,positive,ES_red,1,c,782,1155487,1155988,1156189
24,second,14,kaputt,IAT_red2.bmp,red,ending_scream,scream,ending,c,negative,positive,ES_red,0,m,628,1158040,1158541,1158743
24,second,15,sozial,IAT_red3.bmp,red,ending_scream,scream,ending,m,positive,positive,ES_red,1,m,618,1160946,1161447,1161649
24,second,16,munter,IAT_red2.bmp,red,ending_scream,scream,ending,m,positive,positive,ES_red,1,m,671,1163340,1163842,1164044
24,second,17,lustig,IAT_green1.bmp,green,ending_melody,melody,ending,m,positive,negative,ES_red,1,m,551,1165796,1166297,1166499
24,second,18,einsam,IAT_yellow4.bmp,yellow,starting_scream,scream,starting,c,negative,negative,ES_red,1,c,715,1168144,1168645,1168848
24,second,19,brutal,IAT_green2.bmp,green,ending_melody,melody,ending,c,negative,negative,ES_red,1,c,607,1170637,1171138,1171340
24,second,20,gierig,IAT_yellow1.bmp,yellow,starting_scream,scream,starting,c,negative,negative,ES_red,1,c,619,1173025,1173526,1173728
24,second,21,morsch,IAT_yellow2.bmp,yellow,starting_scream,scream,starting,c,negative,negative,ES_red,1,c,569,1175426,1175928,1176130
24,second,22,ehrlich,IAT_yellow1.bmp,yellow,starting_scream,scream,starting,m,positive,negative,ES_red,1,m,620,1177777,1178278,1178479
24,second,23,streng,IAT_red4.bmp,red,ending_scream,scream,ending,c,negative,positive,ES_red,1,c,603,1180177,1180678,1180880
24,second,24,falsch,IAT_green4.bmp,green,ending_melody,melody,ending,c,negative,negative,ES_red,1,c,530,1182553,1183054,1183256
24,second,25,sozial,IAT_yellow4.bmp,yellow,starting_scream,scream,starting,m,positive,negative,ES_red,1,m,595,1184869,1185370,1185572
24,second,26,krank,IAT_purple4.bmp,purple,starting_melody,melody,starting,c,negative,positive,ES_red,1,c,654,1187246,1187747,1187949
24,second,27,lästig,IAT_purple3.bmp,purple,starting_melody,melody,starting,c,negative,positive,ES_red,1,c,682,1189682,1190183,1190385
24,second,28,gierig,IAT_purple3.bmp,purple,starting_melody,melody,starting,c,negative,positive,ES_red,1,c,605,1192143,1192644,1192846
24,second,29,gerecht,IAT_green4.bmp,green,ending_melody,melody,ending,m,positive,negative,ES_red,1,m,631,1194533,1195034,1195236
24,second,30,gesund,IAT_purple1.bmp,purple,starting_melody,melody,starting,m,positive,positive,ES_red,1,m,582,1196965,1197466,1197668
24,second,31,munter,IAT_red4.bmp,red,ending_scream,scream,ending,m,positive,positive,ES_red,1,m,546,1199352,1199854,1200056
24,second,32,streng,IAT_yellow2.bmp,yellow,starting_scream,scream,starting,c,negative,negative,ES_red,1,c,603,1201681,1202182,1202383
24,second,33,schön,IAT_red3.bmp,red,ending_scream,scream,ending,m,positive,positive,ES_red,1,m,772,1204056,1204557,1204759
24,second,34,einsam,IAT_green2.bmp,green,ending_melody,melody,ending,c,negative,negative,ES_red,1,c,815,1206605,1207106,1207308
24,second,35,sozial,IAT_green2.bmp,green,ending_melody,melody,ending,m,positive,negative,ES_red,1,m,602,1209202,1209703,1209905
24,second,36,kaputt,IAT_red2.bmp,red,ending_scream,scream,ending,c,negative,positive,ES_red,1,c,844,1211584,1212085,1212287
24,second,37,lästig,IAT_purple2.bmp,purple,starting_melody,melody,starting,c,negative,positive,ES_red,1,c,706,1214201,1214702,1214904
24,second,38,feige,IAT_yellow3.bmp,yellow,starting_scream,scream,starting,c,negative,negative,ES_red,1,c,848,1216683,1217184,1217386
24,second,39,witzig,IAT_green1.bmp,green,ending_melody,melody,ending,m,positive,negative,ES_red,1,m,649,1219314,1219815,1220017
24,second,40,kaputt,IAT_green2.bmp,green,ending_melody,melody,ending,c,negative,negative,ES_red,1,c,793,1221747,1222248,1222450
24,second,41,schön,IAT_green1.bmp,green,ending_melody,melody,ending,m,positive,negative,ES_red,1,m,585,1224322,1224824,1225026
24,second,42,geizig,IAT_red1.bmp,red,ending_scream,scream,ending,c,negative,positive,ES_red,1,c,663,1226692,1227193,1227395
24,second,43,sonnig,IAT_yellow2.bmp,yellow,starting_scream,scream,starting,m,positive,negative,ES_red,1,m,621,1229134,1229635,1229837
24,second,44,munter,IAT_red4.bmp,red,ending_scream,scream,ending,m,positive,positive,ES_red,1,m,941,1231534,1232035,1232237
24,second,45,streng,IAT_yellow4.bmp,yellow,starting_scream,scream,starting,c,negative,negative,ES_red,1,c,842,1234257,1234758,1234960
24,second,46,kaputt,IAT_purple4.bmp,purple,starting_melody,melody,starting,c,negative,positive,ES_red,1,c,785,1236874,1237375,1237577
24,second,47,teuer,IAT_yellow4.bmp,yellow,starting_scream,scream,starting,c,negative,negative,ES_red,1,c,722,1239434,1239935,1240137
24,second,48,heiter,IAT_yellow1.bmp,yellow,starting_scream,scream,starting,m,positive,negative,ES_red,1,m,922,1241938,1242439,1242641
24,second,49,gesund,IAT_yellow2.bmp,yellow,starting_scream,scream,starting,m,positive,negative,ES_red,1,m,634,1244641,1245142,1245344
24,second,50,schön,IAT_green3.bmp,green,ending_melody,melody,ending,m,positive,negative,ES_red,1,m,595,1247047,1247549,1247751
24,second,51,sonnig,IAT_yellow1.bmp,yellow,starting_scream,scream,starting,m,positive,negative,ES_red,1,m,558,1249421,1249922,1250124
24,second,52,gerecht,IAT_red1.bmp,red,ending_scream,scream,ending,m,positive,positive,ES_red,1,m,705,1251754,1252255,1252457
24,second,53,sozial,IAT_green2.bmp,green,ending_melody,melody,ending,m,positive,negative,ES_red,1,m,570,1254241,1254742,1254944
24,second,54,brutal,IAT_yellow4.bmp,yellow,starting_scream,scream,starting,c,negative,negative,ES_red,1,c,754,1256586,1257087,1257289
24,second,55,sonnig,IAT_yellow3.bmp,yellow,starting_scream,scream,starting,m,positive,negative,ES_red,1,m,712,1259138,1259640,1259842
24,second,56,geizig,IAT_red3.bmp,red,ending_scream,scream,ending,c,negative,positive,ES_red,1,c,897,1261626,1262127,1262329
24,second,57,gesund,IAT_red1.bmp,red,ending_scream,scream,ending,m,positive,positive,ES_red,1,m,727,1264307,1264809,1265011
24,second,58,sanft,IAT_purple1.bmp,purple,starting_melody,melody,starting,m,positive,positive,ES_red,1,m,652,1266814,1267316,1267518
24,second,59,human,IAT_purple4.bmp,purple,starting_melody,melody,starting,m,positive,positive,ES_red,1,m,628,1269255,1269756,1269959
24,second,60,streng,IAT_yellow3.bmp,yellow,starting_scream,scream,starting,c,negative,negative,ES_red,1,c,569,1271666,1272167,1272369
24,second,61,lustig,IAT_purple2.bmp,purple,starting_melody,melody,starting,m,positive,positive,ES_red,1,m,577,1274011,1274512,1274714
24,second,62,heiter,IAT_red2.bmp,red,ending_scream,scream,ending,m,positive,positive,ES_red,1,m,544,1276363,1276864,1277066
24,second,63,einsam,IAT_yellow1.bmp,yellow,starting_scream,scream,starting,c,negative,negative,ES_red,0,m,555,1278688,1279189,1279391
24,second,64,brutal,IAT_green2.bmp,green,ending_melody,melody,ending,c,negative,negative,ES_red,1,c,641,1281530,1282031,1282233
24,second,65,gierig,IAT_purple1.bmp,purple,starting_melody,melody,starting,c,negative,positive,ES_red,1,c,783,1283948,1284449,1284651
24,second,66,witzig,IAT_yellow3.bmp,yellow,starting_scream,scream,starting,m,positive,negative,ES_red,1,m,556,1286527,1287029,1287230
24,second,67,sanft,IAT_green3.bmp,green,ending_melody,melody,ending,m,positive,negative,ES_red,1,m,576,1288860,1289361,1289562
24,second,68,feige,IAT_green1.bmp,green,ending_melody,melody,ending,c,negative,negative,ES_red,1,c,713,1291234,1291735,1291937
24,second,69,krank,IAT_green3.bmp,green,ending_melody,melody,ending,c,negative,negative,ES_red,1,c,626,1293753,1294254,1294456
24,second,70,morsch,IAT_green4.bmp,green,ending_melody,melody,ending,c,negative,negative,ES_red,1,c,591,1296156,1296657,1296859
24,second,71,gerecht,IAT_red1.bmp,red,ending_scream,scream,ending,m,positive,positive,ES_red,1,m,753,1298523,1299024,1299225
24,second,72,heiter,IAT_purple3.bmp,purple,starting_melody,melody,starting,m,positive,positive,ES_red,1,m,578,1301049,1301550,1301752
24,second,73,human,IAT_yellow3.bmp,yellow,starting_scream,scream,starting,m,positive,negative,ES_red,1,m,557,1303406,1303907,1304109
24,second,74,heiter,IAT_green1.bmp,green,ending_melody,melody,ending,m,positive,negative,ES_red,1,m,555,1305743,1306244,1306446
24,second,75,feige,IAT_green3.bmp,green,ending_melody,melody,ending,c,negative,negative,ES_red,1,c,767,1308075,1308576,1308778
24,second,76,morsch,IAT_red4.bmp,red,ending_scream,scream,ending,c,negative,positive,ES_red,1,c,607,1310620,1311121,1311323
24,second,77,sanft,IAT_green4.bmp,green,ending_melody,melody,ending,m,positive,negative,ES_red,1,m,650,1313010,1313511,1313712
24,second,78,krank,IAT_green4.bmp,green,ending_melody,melody,ending,c,negative,negative,ES_red,1,c,557,1315438,1315939,1316141
24,second,79,lustig,IAT_red1.bmp,red,ending_scream,scream,ending,m,positive,positive,ES_red,1,m,538,1317777,1318278,1318480
24,second,80,gierig,IAT_purple4.bmp,purple,starting_melody,melody,starting,c,negative,positive,ES_red,1,c,652,1320095,1320596,1320798
24,second,81,teuer,IAT_purple2.bmp,purple,starting_melody,melody,starting,c,negative,positive,ES_red,1,c,647,1322547,1323048,1323250
24,second,82,human,IAT_yellow4.bmp,yellow,starting_scream,scream,starting,m,positive,negative,ES_red,1,m,619,1324975,1325476,1325678
24,second,83,sanft,IAT_red3.bmp,red,ending_scream,scream,ending,m,positive,positive,ES_red,1,m,613,1327414,1327915,1328117
24,second,84,geizig,IAT_red2.bmp,red,ending_scream,scream,ending,c,negative,positive,ES_red,1,c,608,1329819,1330320,1330522
24,second,85,ehrlich,IAT_green3.bmp,green,ending_melody,melody,ending,m,positive,negative,ES_red,1,m,634,1332209,1332710,1332912
24,second,86,lustig,IAT_purple4.bmp,purple,starting_melody,melody,starting,m,positive,positive,ES_red,1,m,579,1334616,1335117,1335319
24,second,87,falsch,IAT_yellow2.bmp,yellow,starting_scream,scream,starting,c,negative,negative,ES_red,1,c,569,1336977,1337478,1337680
24,second,88,sonnig,IAT_purple1.bmp,purple,starting_melody,melody,starting,m,positive,positive,ES_red,1,m,511,1339322,1339824,1340026
24,second,89,ehrlich,IAT_green3.bmp,green,ending_melody,melody,ending,m,positive,negative,ES_red,1,m,622,1341612,1342113,1342315
24,second,90,feige,IAT_red2.bmp,red,ending_scream,scream,ending,c,negative,positive,ES_red,0,m,728,1344019,1344520,1344722
24,second,91,lästig,IAT_purple2.bmp,purple,starting_melody,melody,starting,c,negative,positive,ES_red,1,c,790,1347029,1347530,1347732
24,second,92,witzig,IAT_purple3.bmp,purple,starting_melody,melody,starting,m,positive,positive,ES_red,1,m,569,1349601,1350103,1350305
24,second,93,einsam,IAT_yellow2.bmp,yellow,starting_scream,scream,starting,c,negative,negative,ES_red,0,m,695,1351954,1352456,1352658
24,second,94,human,IAT_purple1.bmp,purple,starting_melody,melody,starting,m,positive,positive,ES_red,1,m,1132,1354926,1355427,1355629
24,second,95,teuer,IAT_purple2.bmp,purple,starting_melody,melody,starting,c,negative,positive,ES_red,1,c,659,1357847,1358348,1358550
