subjnr;loop_m;blocknr;trialnr;cue_left_learn;cue_right_learn; congruence;cue_dur;cue;SOA;mask_dur;mask;target_dur;target;response;RT;kb_rt;response_absolute; fix_onset;cue_onset;cue_offset;mask_onset;mask_offset;target_offset;blank_onset;response_during_mask;response_during_targetalone;response_during_RW;response_during_blank;frame_dur
11;1;4;1;letter181;letter357;congruent;0.04;letter357;0.05;0.07;fullmask;0.2;arrow_right.png;m;0.24874830001499504;0.25035720004234463;356498.866995;3.00002284348011e-06;0.5045527000329457;0.5445759000140242;0.5560678000329062;0.6258544000447728;0.7564649000414647;1.0048720000195317;0;0;1;0;0.01
11;1;4;2;letter181;letter357;incongruent;0.04;letter357;0.05;0.07;fullmask;0.2;arrow_left.png;m;0.1669846000149846;0.16956030001165345;356500.3868968;2.700020559132099e-06;0.4975777000072412;0.5376039000111632;0.549721600022167;0.6194946999894455;0.7192826999817044;0.7192854000022635;0;1;0;0;0.01
11;1;4;3;letter181;letter357;incongruent;0.04;letter181;0.05;0.07;fullmask;0.2;arrow_right.png;m;0.2084247000166215;0.20950270001776516;356501.7390557;2.6999623514711857e-06;0.4951747999875806;0.5351793000008911;0.5471760999644175;0.6170818000100553;0.7466453000088222;0.9554692999809049;0;0;1;0;0.01
11;1;4;4;letter181;letter357;incongruent;0.04;letter181;0.05;0.07;fullmask;0.2;arrow_right.png;m;0.25514269998529926;0.2593242999864742;356503.3469232;2.7999631129205227e-06;0.4972738999640569;0.5373081999714486;0.5494250999763608;0.6191988000064157;0.7488514999859035;1.0076206999947317;0;0;1;0;0.01
11;1;4;5;letter181;letter357;congruent;0.04;letter357;0.05;0.07;fullmask;0.2;arrow_right.png;m;0.292775200039614;0.3003937000175938;356504.9949122;2.700020559132099e-06;0.5015330000314862;0.5415452999877743;0.552987800037954;0.6228915000101551;0.753591199987568;1.0518792000366375;0;0;1;0;0.01
11;1;4;6;letter181;letter357;incongruent;0.04;letter357;0.05;0.07;fullmask;0.2;arrow_left.png;m;0.2579330999869853;0.26034869998693466;356506.6110026;2.7999631129205227e-06;0.49934689997462556;0.5393698000116274;0.550669000018388;0.6213386000017636;0.751011100015603;1.0096801000181586;0;0;1;0;0.01
11;1;4;7;letter181;letter357;incongruent;0.04;letter181;0.05;0.07;fullmask;0.2;arrow_right.png;m;0.23880529997404665;0.24050859996350482;356508.2029104;2.700020559132099e-06;0.5042926000314765;0.5442870000260882;0.5555730999913067;0.6254827000084333;0.7561311000026762;0.9945771999773569;0;0;1;0;0.01
11;1;4;8;letter181;letter357;incongruent;0.04;letter357;0.05;0.07;fullmask;0.2;arrow_left.png;m;0.27098880003904924;0.2793167000054382;356509.8269129;2.700020559132099e-06;0.5047077999915928;0.5447234000312164;0.55680930003291;0.626717799983453;0.7562791000236757;1.03505830001086;0;0;1;0;0.01
11;1;4;9;letter181;letter357;congruent;0.04;letter181;0.05;0.07;fullmask;0.2;arrow_left.png;m;0.2185835000127554;0.22033620002912357;356511.3948919;2.700020559132099e-06;0.4991623000241816;0.5391821000375785;0.5505907000042498;0.621266900037881;0.7509260000078939;0.9694655000348575;0;0;1;0;0.01
11;1;4;10;letter181;letter357;congruent;0.04;letter357;0.05;0.07;fullmask;0.2;arrow_right.png;m;0.2555603999644518;0.2603625999763608;356513.0029018;2.700020559132099e-06;0.5034042000188492;0.5433984000119381;0.5548462999868207;0.6247587999678217;0.7553249999764375;1.0137317000189796;0;0;1;0;0.01
11;1;4;11;letter181;letter357;congruent;0.04;letter181;0.05;0.07;fullmask;0.2;arrow_left.png;m;0.2500719000236131;0.2503916000132449;356514.6190561;2.900022082030773e-06;0.5042157000279985;0.5442376999999397;0.556257700023707;0.6259436000254937;0.7556090999860317;1.0045297000324354;0;0;1;0;0.01
11;1;4;12;letter181;letter357;congruent;0.04;letter181;0.05;0.07;fullmask;0.2;arrow_left.png;m;0.29903230001218617;0.3002146000508219;356516.2589499;2.900022082030773e-06;0.4966765000135638;0.5366930000018328;0.548594799998682;0.618368300027214;0.748021500010509;1.0470184999867342;0;0;1;0;0.01
11;1;4;13;letter181;letter357;incongruent;0.04;letter357;0.05;0.07;fullmask;0.2;arrow_left.png;m;0.2960276000085287;0.300263500015717;356517.9068904;2.700020559132099e-06;0.49720320000778884;0.5372300000162795;0.5490132000413723;0.618925400020089;0.7484850000473671;1.0475493000121787;0;0;1;0;0.01
11;1;4;14;letter181;letter357;incongruent;0.04;letter357;0.05;0.07;fullmask;0.2;arrow_left.png;m;0.2929215999902226;0.300207499996759;356519.5548863;2.800021320581436e-06;0.4983481999952346;0.5383736999938264;0.5501976999803446;0.6199762999895029;0.7496247999952175;1.048691299976781;0;0;1;0;0.01
11;1;4;15;letter181;letter357;incongruent;0.04;letter181;0.05;0.07;fullmask;0.2;arrow_right.png;m;0.3361484999768436;0.340254399983678;356521.2589737;2.600019797682762e-06;0.5039845000137575;0.544002000009641;0.5556300000171177;0.625531800033059;0.756093800009694;0.8857521000318229;0;0;0;1;0.01
11;1;4;16;letter181;letter357;congruent;0.04;letter357;0.05;0.07;fullmask;0.2;arrow_right.png;m;0.29518840002128854;0.30023330001858994;356522.698961;2.800021320581436e-06;0.5001317000132985;0.5401438000262715;0.551750099984929;0.6214333000243641;0.7520857999916188;1.050492900016252;0;0;1;0;0.01
11;1;4;17;letter181;letter357;congruent;0.04;letter181;0.05;0.07;fullmask;0.2;arrow_left.png;m;0.24378210003487766;0.2502879000385292;356524.2990018;2.700020559132099e-06;0.5003413999802433;0.5403505999711342;0.5523472999921069;0.62203710002359;0.7516924000228755;1.0006603000219911;0;0;1;0;0.01
11;1;4;18;letter181;letter357;congruent;0.04;letter357;0.05;0.07;fullmask;0.2;arrow_right.png;m;0.29258150001987815;0.3002610999974422;356525.9388904;2.800021320581436e-06;0.4964876000303775;0.5365058000315912;0.5485439000185579;0.6186091999989003;0.7480139000108466;1.0468481000280008;0;0;1;0;0.01
11;1;4;19;letter181;letter357;congruent;0.04;letter181;0.05;0.07;fullmask;0.2;arrow_left.png;m;0.26621289999457076;0.2702926000347361;356527.5628862;2.600019797682762e-06;0.501505599997472;0.5415028000134043;0.5528627000167035;0.6236408000113443;0.7532869999995455;1.02189490001183;0;0;1;0;0.01
11;1;4;20;letter181;letter357;congruent;0.04;letter181;0.05;0.07;fullmask;0.2;arrow_left.png;m;0.2211931999772787;0.23044409998692572;356529.1388806;3.00002284348011e-06;0.49625040002865717;0.5362765000318177;0.5475726000149734;0.6174944000085816;0.7480394000303932;0.9765656000236049;0;0;1;0;0.01
11;1;4;21;letter181;letter357;incongruent;0.04;letter357;0.05;0.07;fullmask;0.2;arrow_left.png;m;0.36203700001351535;0.37093000003369525;356530.8508811;2.8999638743698597e-06;0.4977498999796808;0.5377710000029765;0.5492076000082307;0.6189755999948829;0.7495353000122122;0.8791889999993145;0;0;0;1;0.01
11;1;4;22;letter181;letter357;incongruent;0.04;letter181;0.05;0.07;fullmask;0.2;arrow_right.png;m;0.10480329999700189;0.10969529999420047;356532.1149991;2.700020559132099e-06;0.49554480001097545;0.5355768000008538;0.5473653000080958;0.617059700016398;0.6570578999817371;0.6570626000175253;0;1;0;0;0.01
11;1;4;23;letter181;letter357;incongruent;0.04;letter181;0.05;0.07;fullmask;0.2;arrow_right.png;m;0.4204842000035569;0.4207029999815859;356533.6909589;2.5999615900218487e-06;0.4983330999966711;0.5383661999949254;0.5496299999649636;0.620332199963741;0.7499503999715671;0.8805949999950826;0;0;0;1;0.01
11;1;4;24;letter181;letter357;congruent;0.04;letter357;0.05;0.07;fullmask;0.2;arrow_right.png;m;0.23151539999525994;0.2404198000440374;356535.0829221;2.700020559132099e-06;0.5047756000421941;0.5447936000418849;0.5559766000369564;0.6268825000151992;0.7564431999926455;0.9951105000218377;0;0;1;0;0.01
11;1;4;25;letter181;letter357;incongruent;0.04;letter181;0.05;0.07;fullmask;0.2;arrow_right.png;m;0.2556120000081137;0.260317699983716;356536.6988699;2.700020559132099e-06;0.49518849997548386;0.5352141999755986;0.5471998999710195;0.6169696999713778;0.7466300000087358;1.0055182999931276;0;0;1;0;0.01
11;1;4;26;letter181;letter357;incongruent;0.04;letter181;0.05;0.07;fullmask;0.2;arrow_right.png;m;0.21322680002776906;0.2204263000166975;356538.2668886;2.700020559132099e-06;0.5016090999706648;0.541639800008852;0.55299150000792;0.6237624000059441;0.753416899999138;0.9719257999677211;0;0;1;0;0.01
11;1;4;27;letter181;letter357;congruent;0.04;letter357;0.05;0.07;fullmask;0.2;arrow_right.png;m;0.2401646000216715;0.24036250001518056;356539.8749562;2.700020559132099e-06;0.5028439000016078;0.5428705000085756;0.5543236000230536;0.6240965999895707;0.7547546999994665;0.9931549000320956;0;0;1;0;0.01
11;1;4;28;letter181;letter357;incongruent;0.04;letter357;0.05;0.07;fullmask;0.2;arrow_left.png;m;0.2032552000018768;0.21037620003335178;356541.4188693;2.800021320581436e-06;0.49559609999414533;0.5356100000208244;0.5468758000060916;0.61754559999099;0.7472176000010222;0.9558879999676719;0;0;1;0;0.01
11;1;4;29;letter181;letter357;incongruent;0.04;letter181;0.05;0.07;fullmask;0.2;arrow_right.png;m;0.18829889997141436;0.19041509996168315;356542.9548661;2.700020559132099e-06;0.49661879998166114;0.5366484000114724;0.5478520999895409;0.6186153999879025;0.7382668000063859;0.7382693999679759;0;1;0;0;0.01
11;1;4;30;letter181;letter357;incongruent;0.04;letter181;0.05;0.07;fullmask;0.2;arrow_right.png;m;0.26301760005299;0.2702938000438735;356544.3708756;2.800021320581436e-06;0.5012419000267982;0.5412689999793656;0.5528992000035942;0.6226715000229888;0.7533263000077568;1.021576500032097;0;0;1;0;0.01
11;1;4;31;letter181;letter357;congruent;0.04;letter357;0.05;0.07;fullmask;0.2;arrow_right.png;m;0.29769460001261905;0.3003612000029534;356546.0269521;2.800021320581436e-06;0.501508700021077;0.5415309999953024;0.5535124000161886;0.6234183000051416;0.7529680000152439;1.0518720999825746;0;0;1;0;0.01
11;1;4;32;letter181;letter357;incongruent;0.04;letter181;0.05;0.07;fullmask;0.2;arrow_right.png;m;0.2249318000394851;0.2302804000210017;356547.5948773;2.6999623514711857e-06;0.4970375999691896;0.5370606000069529;0.5486578000127338;0.6183100999915041;0.7489586999872699;0.9773459999705665;0;0;1;0;0.01
11;1;4;33;letter181;letter357;incongruent;0.04;letter357;0.05;0.07;fullmask;0.2;arrow_left.png;m;0.18775669997557998;0.18955609999829903;356549.1388733;2.5999615900218487e-06;0.4965769999544136;0.5366088000009768;0.5483552999794483;0.6182576999999583;0.7379105999716558;0.7379132999922149;0;1;0;0;0.01
11;1;4;34;letter181;letter357;congruent;0.04;letter181;0.05;0.07;fullmask;0.2;arrow_left.png;m;0.2249936999869533;0.2303093999507837;356550.5068661;2.700020559132099e-06;0.4959050000179559;0.535945100011304;0.5475738000241108;0.6172527000308037;0.7479046999942511;0.976222500030417;0;0;1;0;0.01
11;1;4;35;letter181;letter357;incongruent;0.04;letter357;0.05;0.07;fullmask;0.2;arrow_left.png;m;0.27838059997884557;0.28017630003159866;356552.1308295;2.5999615900218487e-06;0.5006762999692;0.5406992000062019;0.5518931999686174;0.6225729999714531;0.7522248000022955;1.0310008999658749;0;0;1;0;0.01
11;1;4;36;letter181;letter357;congruent;0.04;letter357;0.05;0.07;fullmask;0.2;arrow_right.png;m;0.26872930000536144;0.2703225000295788;356553.7629543;2.700020559132099e-06;0.5018695999751799;0.5418989000027068;0.5538072999916039;0.6235000999877229;0.7531445000204258;1.0221951000276022;0;0;1;0;0.01
11;1;4;37;letter181;letter357;congruent;0.04;letter181;0.05;0.07;fullmask;0.2;arrow_left.png;m;0.1918599999626167;0.20039139996515587;356555.3068647;2.600019797682762e-06;0.49728090001735836;0.5373226000228897;0.5489596999832429;0.6186417000135407;0.7493447000160813;0.7493470999761485;0;1;0;0;0.01
11;1;4;38;letter181;letter357;incongruent;0.04;letter181;0.05;0.07;fullmask;0.2;arrow_right.png;m;0.27526909997686744;0.28018070000689477;356556.7308626;2.600019797682762e-06;0.49523000000044703;0.5352470999932848;0.5466108999680728;0.6172917999792844;0.7469420999987051;1.0255592999747023;0;0;1;0;0.01
11;1;4;39;letter181;letter357;congruent;0.04;letter357;0.05;0.07;fullmask;0.2;arrow_right.png;m;0.29000430001178756;0.29019919998245314;356558.3869361;2.6999623514711857e-06;0.5029850999708287;0.542992000002414;0.5546449999674223;0.6245619999826886;0.7551102999714203;1.0433197999955155;0;0;1;0;0.01
11;1;4;40;letter181;letter357;congruent;0.04;letter181;0.05;0.07;fullmask;0.2;arrow_left.png;m;0.3231462999829091;0.33101779996650293;356560.0508575;2.600019797682762e-06;0.4974917999934405;0.5375274000107311;0.5488762999884784;0.6196232999791391;0.7491847000201233;1.0778735000058077;0;0;1;0;0.01
11;1;4;41;letter181;letter357;incongruent;0.04;letter357;0.05;0.07;fullmask;0.2;arrow_left.png;m;0.4201236999942921;0.4209049999481067;356561.8191684;2.800021320581436e-06;0.49696090002544224;0.5369901000522077;0.5485996000352316;0.6182570000528358;0.7489242000156082;0.8785782000049949;0;0;0;1;0.01
11;1;4;42;letter181;letter357;congruent;0.04;letter181;0.05;0.07;fullmask;0.2;arrow_left.png;m;0.46476320002693683;0.47073010000167415;356563.4349105;2.5999615900218487e-06;0.49966989998938516;0.539676399959717;0.551387200015597;0.6211593999760225;0.7517742000054568;0.8814285999978893;0;0;0;1;0.01
11;1;4;43;letter181;letter357;incongruent;0.04;letter357;0.05;0.07;fullmask;0.2;arrow_left.png;m;0.08607159997336566;0.09076940000522882;356564.6668577;2.6999623514711857e-06;0.5008801999501884;0.5408913999563083;0.5521884999470785;0.6229598999489099;0.6429587999591604;0.6429612999781966;0;1;0;0;0.01
11;1;4;44;letter181;letter357;congruent;0.04;letter357;0.05;0.07;fullmask;0.2;arrow_right.png;m;0.28649199998471886;0.29023709998000413;356566.098856;2.900022082030773e-06;0.4972053000237793;0.537219499994535;0.5492967999889515;0.6190692000091076;0.7487220999901183;1.0375635999953374;0;0;1;0;0.01
11;1;4;45;letter181;letter357;congruent;0.04;letter181;0.05;0.07;fullmask;0.2;arrow_left.png;m;0.27163649996509776;0.280268199974671;356567.7148653;2.800021320581436e-06;0.5010041000205092;0.5410177999874577;0.5529060999979265;0.6226804000325501;0.752332000003662;1.031334400002379;0;0;1;0;0.01
11;1;4;46;letter181;letter357;incongruent;0.04;letter357;0.05;0.07;fullmask;0.2;arrow_left.png;m;0.4124335999949835;0.4199402999947779;356569.4668591;2.600019797682762e-06;0.4970030999975279;0.5370158000150695;0.5490506000351161;0.6188689999980852;0.7485237999935634;0.879175000009127;0;0;0;1;0.01
11;1;4;47;letter181;letter357;congruent;0.04;letter357;0.05;0.07;fullmask;0.2;arrow_right.png;m;0.26195720001123846;0.2703000999754295;356570.8670071;2.600019797682762e-06;0.4996285000233911;0.5396385000203736;0.5512942000059411;0.6209486000007018;0.7516171000315808;1.0199541000183672;0;0;1;0;0.01
11;1;4;48;letter181;letter357;congruent;0.04;letter181;0.05;0.07;fullmask;0.2;arrow_left.png;m;0.2271391000249423;0.23039570002583787;356572.4428538;2.700020559132099e-06;0.5037407000199892;0.5437541999854147;0.5550254000118002;0.625793099985458;0.7554481999832205;0.9840373999904841;0;0;1;0;0.01
11;1;5;1;letter181;letter357;incongruent;0.04;letter357;0.05;0.07;fullmask;0.2;arrow_left.png;m;0.34839739999733865;0.3499936999869533;356576.6268438;2.900022082030773e-06;0.49756040005013347;0.5375963000115007;0.5489705000072718;0.6187764000496827;0.7494281000108458;0.8790811000508256;0;0;0;1;0.01
11;1;5;2;letter181;letter357;congruent;0.04;letter357;0.05;0.07;fullmask;0.2;arrow_right.png;m;0.22755239997059107;0.23030629998538643;356577.9868786;2.700020559132099e-06;0.4964794000261463;0.5365015999996103;0.547807399998419;0.6184791999985464;0.7481346999993548;0.9768067999975756;0;0;1;0;0.01
11;1;5;3;letter181;letter357;incongruent;0.04;letter181;0.05;0.07;fullmask;0.2;arrow_right.png;m;0.2798684000154026;0.2801377000287175;356579.6109733;2.800021320581436e-06;0.49824200000148267;0.538264499977231;0.5503394000115804;0.6200320000061765;0.749685299990233;1.0285991000127979;0;0;1;0;0.01
11;1;5;4;letter181;letter357;incongruent;0.04;letter357;0.05;0.07;fullmask;0.2;arrow_left.png;m;0.25335549999726936;0.26022929995087907;356581.1948411;2.700020559132099e-06;0.49524750001728535;0.535265900020022;0.5466720000258647;0.6173505000188015;0.7470011000405066;1.0055921000312082;0;0;1;0;0.01
11;1;5;5;letter181;letter357;congruent;0.04;letter181;0.05;0.07;fullmask;0.2;arrow_left.png;m;0.34207120002247393;0.3499848999781534;356582.8748353;3.00002284348011e-06;0.49504330003401265;0.53507990000071;0.5467140999971889;0.6163899000384845;0.7470390000380576;0.8766933000297286;0;0;0;1;0.01
11;1;5;6;letter181;letter357;congruent;0.04;letter181;0.05;0.07;fullmask;0.2;arrow_left.png;m;0.31698170001618564;0.32020830002147704;356584.3308541;2.700020559132099e-06;0.5007518000202253;0.5407708999700844;0.5525649000192061;0.6226307000033557;0.7520371999708004;1.0711250000167638;0;0;1;0;0.01
11;1;5;7;letter181;letter357;incongruent;0.04;letter181;0.05;0.07;fullmask;0.2;arrow_right.png;m;0.19392099999822676;0.20062850002432242;356585.858839;2.5999615900218487e-06;0.49685449997195974;0.536875499994494;0.5486510999617167;0.618451299960725;0.7492876999895088;0.7492956999922171;0;1;0;0;0.01
11;1;5;8;letter181;letter357;congruent;0.04;letter181;0.05;0.07;fullmask;0.2;arrow_left.png;m;0.46144169999752194;0.47079130000201985;356587.4670374;2.8999638743698597e-06;0.5026853000163101;0.542705699976068;0.5542994000134058;0.6240887999883853;0.7547391999978572;0.8843723000027239;0;0;0;1;0.01
11;1;5;9;letter181;letter357;congruent;0.04;letter357;0.05;0.07;fullmask;0.2;arrow_right.png;m;0.1805117999901995;0.1904159000259824;356588.7869115;2.6999623514711857e-06;0.4970554999890737;0.5370597000000998;0.5484189999988303;0.6191211999976076;0.7388340999605134;0.7388369999825954;0;1;0;0;0.01
11;1;5;10;letter181;letter357;congruent;0.04;letter357;0.05;0.07;fullmask;0.2;arrow_right.png;m;0.4729321000049822;0.4797859999816865;356590.4108316;2.7999631129205227e-06;0.5000754999928176;0.5400993999792263;0.5520942999864928;0.6219989999663085;0.7515658999909647;0.8822150999912992;0;0;0;1;0.01
11;1;5;11;letter181;letter357;incongruent;0.04;letter357;0.05;0.07;fullmask;0.2;arrow_left.png;m;0.285940199973993;0.2901543999905698;356591.8348736;2.700020559132099e-06;0.4977188999764621;0.5377396999974735;0.5497188000008464;0.6194019999820739;0.7490564999752678;1.0380646000267006;0;0;1;0;0.01
11;1;5;12;letter181;letter357;incongruent;0.04;letter181;0.05;0.07;fullmask;0.2;arrow_right.png;m;0.20755819999612868;0.21059440000681207;356593.3869244;2.700020559132099e-06;0.5019288000185043;0.5419414000352845;0.5533017999841832;0.6233723000041209;0.7537443999899551;0.9622206999920309;0;0;1;0;0.01
11;1;5;13;letter181;letter357;incongruent;0.04;letter181;0.05;0.07;fullmask;0.2;arrow_right.png;m;0.24833490001037717;0.2503479000297375;356594.9788316;2.7999631129205227e-06;0.5006960000027902;0.5407185999793;0.5522008999832906;0.6219740999513306;0.7526244999608025;1.0010952999582514;0;0;1;0;0.01
11;1;5;14;letter181;letter357;congruent;0.04;letter181;0.05;0.07;fullmask;0.2;arrow_left.png;m;0.25941379996947944;0.2602292000083253;356596.5707983;2.9999646358191967e-06;0.49908609996782616;0.5391027999576181;0.5504487999714911;0.6211263999575749;0.7507804000051692;1.0094020999968052;0;0;1;0;0.01
11;1;5;15;letter181;letter357;congruent;0.04;letter357;0.05;0.07;fullmask;0.2;arrow_right.png;m;0.22227779997047037;0.23030509997624904;356598.1548324;2.600019797682762e-06;0.4968438000069;0.5368238000082783;0.5482940999791026;0.6189660999807529;0.7486199999693781;0.9771260999841616;0;0;1;0;0.01
11;1;5;16;letter181;letter357;incongruent;0.04;letter357;0.05;0.07;fullmask;0.2;arrow_left.png;m;0.16371669998625293;0.17066910001449287;356599.667063;3.0999653972685337e-06;0.4989458000054583;0.5389848999911919;0.5502003000001423;0.6209778999909759;0.7208792999736033;0.7208880999824032;0;1;0;0;0.01
11;1;5;17;letter181;letter357;congruent;0.04;letter181;0.05;0.07;fullmask;0.2;arrow_left.png;m;0.4839891000301577;0.49070610001217574;356601.2988192;2.800021320581436e-06;0.5026754999998957;0.542707699991297;0.5545773000339977;0.6243359000072815;0.754897000035271;0.8845530999824405;0;0;0;1;0.01
11;1;5;18;letter181;letter357;congruent;0.04;letter357;0.05;0.07;fullmask;0.2;arrow_right.png;m;0.3334278999827802;0.34030370000982657;356602.778833;2.700020559132099e-06;0.4997190000140108;0.5397267000516877;0.5511251999996603;0.6219900000141934;0.7516455000150017;0.8812872000271454;0;0;0;1;0.01
11;1;5;19;letter181;letter357;incongruent;0.04;letter357;0.05;0.07;fullmask;0.2;arrow_left.png;m;32.22775829996681;32.23086660000263;356636.1548092;2.6999623514711857e-06;0.49936439999146387;0.5394036999787204;0.5514654999715276;0.6213688999996521;0.7509370999759994;0.8816120999981649;0;0;0;1;0.01
11;1;5;20;letter181;letter357;incongruent;0.04;letter357;0.05;0.07;fullmask;0.2;arrow_left.png;m;0.16616269998485222;0.16951169999083504;356637.4747831;2.800021320581436e-06;0.49645640002563596;0.5364690000424162;0.5485055000171997;0.6182301000226289;0.7180184000171721;0.7180210000369698;0;1;0;0;0.01
11;1;5;21;letter181;letter357;congruent;0.04;letter181;0.05;0.07;fullmask;0.2;arrow_left.png;m;0.1319804000086151;0.14063979999627918;356638.770829;2.800021320581436e-06;0.5005576999974437;0.5405756999971345;0.5519674000097439;0.6217371000093408;0.6926081000128761;0.6926107000326738;0;1;0;0;0.01
11;1;5;22;letter181;letter357;incongruent;0.04;letter181;0.05;0.07;fullmask;0.2;arrow_right.png;m;0.122685200010892;0.1298279999755323;356640.0430251;2.600019797682762e-06;0.5015922000166029;0.5416145999915898;0.5536865000030957;0.6235013999976218;0.6835226999828592;0.6835309999878518;0;1;0;0;0.01
11;1;5;23;letter181;letter357;congruent;0.04;letter357;0.05;0.07;fullmask;0.2;arrow_right.png;m;0.4579597000265494;0.4598300000070594;356641.6588063;2.700020559132099e-06;0.49744700000155717;0.5374717000522651;0.5492149000056088;0.6192774000228383;0.7496917000389658;0.8793327000457793;0;0;0;1;0.01
11;1;5;24;letter181;letter357;incongruent;0.04;letter181;0.05;0.07;fullmask;0.2;arrow_right.png;m;0.023017500003334135;0.029966100002638996;356642.8350948;2.7999631129205227e-06;0.5033013999927789;0.5433171999757178;0.5552510999841616;0.6233610999770463;0.6233640999998897;0.6233664999599569;1;0;0;0;0.01
11;1;5;25;letter181;letter357;incongruent;0.04;letter181;0.05;0.07;fullmask;0.2;arrow_right.png;m;0.3637336000101641;0.3700721999630332;356644.3867834;2.7999631129205227e-06;0.49921390000963584;0.5392031999654137;0.5513214999809861;0.6211409000097774;0.7507956000044942;0.8814427999895997;0;0;0;1;0.01
11;1;5;26;letter181;letter357;incongruent;0.04;letter181;0.05;0.07;fullmask;0.2;arrow_right.png;m;0.283591500017792;0.2902319999993779;356645.8267874;2.700020559132099e-06;0.5007176999934018;0.5407368000014685;0.5520132000092417;0.622780799982138;0.7524360999814235;1.0410674000158906;0;0;1;0;0.01
11;1;5;27;letter181;letter357;incongruent;0.04;letter357;0.05;0.07;fullmask;0.2;arrow_left.png;m;0.28458979999413714;0.29028130002552643;356647.4587874;2.700020559132099e-06;0.4983627999899909;0.5383706000284292;0.549593600037042;0.6204922000179067;0.7500559000181966;1.0387045000097714;0;0;1;0;0.01
11;1;5;28;letter181;letter357;congruent;0.04;letter181;0.05;0.07;fullmask;0.2;arrow_left.png;m;0.27963659999659285;0.2801754999672994;356649.0749311;2.900022082030773e-06;0.4963534999988042;0.5363806000095792;0.5476386999944225;0.6183118000044487;0.7479542000219226;1.0266831999761052;0;0;1;0;0.01
11;1;5;29;letter181;letter357;congruent;0.04;letter357;0.05;0.07;fullmask;0.2;arrow_right.png;m;0.28824570000870153;0.2902759999851696;356650.7148456;2.800021320581436e-06;0.49773760000243783;0.5377528999815695;0.5492788000265136;0.6190630000201054;0.7497078999876976;1.038107600004878;0;0;1;0;0.01
11;1;5;30;letter181;letter357;incongruent;0.04;letter357;0.05;0.07;fullmask;0.2;arrow_left.png;m;0.2568038000026718;0.2603649999946356;356652.3148119;2.700020559132099e-06;0.5000392000074498;0.5400565000018105;0.5519361000042409;0.6217510999995284;0.7514014000189491;1.0103830000152811;0;0;1;0;0.01
11;1;5;31;letter181;letter357;incongruent;0.04;letter357;0.05;0.07;fullmask;0.2;arrow_left.png;m;0.1819944999879226;0.19050649995915592;356653.8507832;2.6999623514711857e-06;0.5014296000008471;0.5414433999685571;0.5530545999645256;0.6228286999976262;0.7435618999879807;0.7435646000085399;0;1;0;0;0.01
11;1;5;32;letter181;letter357;incongruent;0.04;letter357;0.05;0.07;fullmask;0.2;arrow_left.png;m;0.16514649998862296;0.17039320000912994;356655.1548205;2.700020559132099e-06;0.49878000002354383;0.5387908000266179;0.5504297000006773;0.6201049000374041;0.720822200004477;0.7208247000235133;0;1;0;0;0.01
11;1;5;33;letter181;letter357;congruent;0.04;letter181;0.05;0.07;fullmask;0.2;arrow_left.png;m;0.4446481999475509;0.4509699999471195;356656.7550496;2.800021320581436e-06;0.5023607999901287;0.5423759000259452;0.5538859000080265;0.6237856000079773;0.7543506000074558;0.8840061000082642;0;0;0;1;0.01
11;1;5;34;letter181;letter357;incongruent;0.04;letter181;0.05;0.07;fullmask;0.2;arrow_right.png;m;0.30732839996926486;0.3102157000103034;356658.2188612;2.700020559132099e-06;0.5030282000079751;0.5430481000221334;0.5546529000275768;0.6244370000204071;0.7550844000070356;1.063394500000868;0;0;1;0;0.01
11;1;5;35;letter181;letter357;incongruent;0.04;letter181;0.05;0.07;fullmask;0.2;arrow_right.png;m;0.3282013999996707;0.3301809999975376;356659.8907788;2.600019797682762e-06;0.49497210001572967;0.5349935999838635;0.5465747999842279;0.6164776000077836;0.7470439000171609;1.0753471999778412;0;0;1;0;0.01
11;1;5;36;letter181;letter357;congruent;0.04;letter357;0.05;0.07;fullmask;0.2;arrow_right.png;m;0.40700659999856725;0.4099704999825917;356661.6508132;2.900022082030773e-06;0.5014826999977231;0.541491899988614;0.5532169000362046;0.6232796999975108;0.7536840999964625;0.8833375000394881;0;0;0;1;0.01
11;1;5;37;letter181;letter357;incongruent;0.04;letter357;0.05;0.07;fullmask;0.2;arrow_left.png;m;0.20785020000766963;0.21044400002574548;356663.0027753;2.600019797682762e-06;0.49568220000946894;0.5357077000080608;0.5475357000250369;0.617304100014735;0.7469552999828011;0.9559958999743685;0;0;1;0;0.01
11;1;5;38;letter181;letter357;incongruent;0.04;letter357;0.05;0.07;fullmask;0.2;arrow_left.png;m;0.2388067999854684;0.240388999984134;356664.5948944;2.900022082030773e-06;0.5044306000345387;0.5444570000399835;0.5564378999988548;0.6262069999938831;0.7557722000055946;0.9947526000323705;0;0;1;0;0.01
11;1;5;39;letter181;letter357;congruent;0.04;letter181;0.05;0.07;fullmask;0.2;arrow_left.png;m;0.3318020000006072;0.340016900037881;356666.298776;2.700020559132099e-06;0.4998011999996379;0.5398079000297002;0.5516408000257798;0.6213049999787472;0.7519518000190146;0.8816282000043429;0;0;0;1;0.01
11;1;5;40;letter181;letter357;congruent;0.04;letter181;0.05;0.07;fullmask;0.2;arrow_left.png;m;0.2086929000215605;0.20936779998010024;356667.6668017;2.6999623514711857e-06;0.4983047999558039;0.5383171999710612;0.5503168999566697;0.6199988999869674;0.749647399992682;0.9586039999849163;0;0;1;0;0.01
11;1;5;41;letter181;letter357;congruent;0.04;letter357;0.05;0.07;fullmask;0.2;arrow_right.png;m;0.2982783999759704;0.30012049997458234;356669.3067674;2.800021320581436e-06;0.5002301000058651;0.5402553000021726;0.5516255000256933;0.6223030000110157;0.7519520000205375;1.050616800028365;0;0;1;0;0.01
11;1;5;42;letter181;letter357;incongruent;0.04;letter181;0.05;0.07;fullmask;0.2;arrow_right.png;m;0.20739250001497567;0.21045030001550913;356670.8667984;2.700020559132099e-06;0.5021012999932282;0.5421063000103459;0.5533367000170983;0.6241052999976091;0.7537596999900416;0.9623830000055023;0;0;1;0;0.01
11;1;5;43;letter181;letter357;incongruent;0.04;letter181;0.05;0.07;fullmask;0.2;arrow_right.png;m;0.27193200000328943;0.2802811999572441;356672.4829411;2.5999615900218487e-06;0.5026540999533609;0.5426806999603286;0.5544862999813631;0.6241815999965183;0.7548138999845833;1.0329816999728791;0;0;1;0;0.01
11;1;5;44;letter181;letter357;congruent;0.04;letter181;0.05;0.07;fullmask;0.2;arrow_left.png;m;0.29671999998390675;0.30013389996020123;356674.1388056;2.800021320581436e-06;0.49911179998889565;0.5391445999848656;0.5509761999710463;0.6206728999968618;0.7513117999769747;1.0494536000187509;0;0;1;0;0.01
11;1;5;45;letter181;letter357;congruent;0.04;letter357;0.05;0.07;fullmask;0.2;arrow_right.png;m;0.23805970000103116;0.2404196999850683;356675.7307588;2.700020559132099e-06;0.5010615999926813;0.5410822000121698;0.5524743999703787;0.6223794000106864;0.7529817000031471;0.9913887999719009;0;0;1;0;0.01
11;1;5;46;letter181;letter357;congruent;0.04;letter357;0.05;0.07;fullmask;0.2;arrow_right.png;m;0.20829979999689385;0.20936909998999909;356677.2827174;2.700020559132099e-06;0.4995562999974936;0.5395728999865241;0.5516442999942228;0.621324600011576;0.7509774999925867;0.9598463000147603;0;0;1;0;0.01
11;1;5;47;letter181;letter357;congruent;0.04;letter181;0.05;0.07;fullmask;0.2;arrow_left.png;m;0.26557560003129765;0.2703427000087686;356678.8907486;2.800021320581436e-06;0.5030063000158407;0.54301470000064;0.5548538000439294;0.6247601000359282;0.7543256000499241;1.0233358000405133;0;0;1;0;0.01
11;1;5;48;letter181;letter357;congruent;0.04;letter357;0.05;0.07;fullmask;0.2;arrow_right.png;m;0.20115749997785315;0.21036249998724088;356680.4267648;2.700020559132099e-06;0.49742710002465174;0.5374487999943085;0.5486761999782175;0.6194407999864779;0.7490069000050426;0.9577758000232279;0;0;1;0;0.01
11;2;12;1;letter169;letter190;congruent;0.04;letter169;0.09;0.07;fullmask;0.2;arrow_left.png;m;0.17793830001028255;0.18056629999773577;357690.5379372;3.200024366378784e-06;0.4972453999798745;0.5372593000065535;0.588454200013075;0.6592598999850452;0.7690209000138566;0.7690235000336543;0;1;0;0;0.01
11;2;12;2;letter169;letter190;congruent;0.04;letter169;0.09;0.07;fullmask;0.2;arrow_left.png;m;0.23901909997221082;0.2404164999607019;357691.9699335;2.800021320581436e-06;0.4997237999923527;0.5397599000134505;0.5909682000055909;0.6618688000016846;0.791431299992837;1.0300789999892004;0;0;1;0;0.01
11;2;12;3;letter169;letter190;incongruent;0.04;letter190;0.09;0.07;fullmask;0.2;arrow_left.png;m;0.26373559999046847;0.27020120003726333;357693.6259299;2.600019797682762e-06;0.5032295000273734;0.5432469000224955;0.5946888000471517;0.66445790004218;0.7950177000020631;1.0636083999997936;0;0;1;0;0.01
11;2;12;4;letter169;letter190;incongruent;0.04;letter169;0.09;0.07;fullmask;0.2;arrow_right.png;m;0.24193239997839555;0.24938220001058653;357695.2661028;2.800021320581436e-06;0.4984524000319652;0.5384769000229426;0.5908011000137776;0.6605043000308797;0.7901578000164591;1.0387882000068203;0;0;1;0;0.01
11;2;12;5;letter169;letter190;congruent;0.04;letter169;0.09;0.07;fullmask;0.2;arrow_left.png;m;0.24984479998238385;0.25030459999106824;357696.9139772;2.800021320581436e-06;0.4962379999924451;0.5362434000126086;0.5874930999707431;0.6582599999965169;0.7879122999729589;1.0365832999814302;0;0;1;0;0.01
11;2;12;6;letter169;letter190;congruent;0.04;letter190;0.09;0.07;fullmask;0.2;arrow_right.png;m;0.24869529996067286;0.25024999998277053;357698.5539277;2.800021320581436e-06;0.4983343000058085;0.5383654999895953;0.58962350001093;0.6602940000011586;0.789901899988763;1.038693200040143;0;0;1;0;0.01
11;2;12;7;letter169;letter190;incongruent;0.04;letter169;0.09;0.07;fullmask;0.2;arrow_right.png;m;0.29562889999942854;0.3002583000343293;357700.2419649;2.800021320581436e-06;0.4977993000065908;0.5378765999921598;0.5891155999852344;0.6590261000092141;0.7895825000014156;1.0881665000342764;0;0;1;0;0.01
11;2;12;8;letter169;letter190;incongruent;0.04;letter190;0.09;0.07;fullmask;0.2;arrow_left.png;m;0.22816990001592785;0.23051279998617247;357701.8660118;2.700020559132099e-06;0.4961020000046119;0.5361253999872133;0.5878300000331365;0.657602199993562;0.788262800022494;1.016447500034701;0;0;1;0;0.01
11;2;12;9;letter169;letter190;incongruent;0.04;letter169;0.09;0.07;fullmask;0.2;arrow_right.png;m;0.28926320001482964;0.29016820003744215;357703.5379231;2.7999631129205227e-06;0.5000215999898501;0.5400569999474101;0.5915378999779932;0.6622277999995276;0.7918824999942444;1.0804103999980725;0;0;1;0;0.01
11;2;12;10;letter169;letter190;congruent;0.04;letter190;0.09;0.07;fullmask;0.2;arrow_right.png;m;0.25635480001801625;0.2603639000444673;357705.1859321;2.800021320581436e-06;0.4967799999867566;0.5368124999804422;0.5881192000233568;0.6590295000351034;0.788583200017456;1.0471263999934308;0;0;1;0;0.01
11;2;12;11;letter169;letter190;congruent;0.04;letter190;0.09;0.07;fullmask;0.2;arrow_right.png;m;0.2126795999938622;0.21957319998182356;357706.7939728;3.00002284348011e-06;0.4986341000185348;0.5386468999786302;0.5905990999890491;0.6605143999913707;0.7901697999914177;1.0089471000246704;0;0;1;0;0.01
11;2;12;12;letter169;letter190;incongruent;0.04;letter190;0.09;0.07;fullmask;0.2;arrow_left.png;m;0.20947840000735596;0.2194321000133641;357708.4020289;2.700020559132099e-06;0.503578900010325;0.5435987000237219;0.595772200031206;0.6655452999984846;0.795197100029327;1.013902600039728;0;0;1;0;0.01
11;2;12;13;letter169;letter190;congruent;0.04;letter190;0.09;0.07;fullmask;0.2;arrow_right.png;m;0.2946624999749474;0.30022350000217557;357710.0980436;2.800021320581436e-06;0.5045227000373416;0.5445429000537843;0.5965190000133589;0.6662956000072882;0.7958494000486098;1.094913800014183;0;0;1;0;0.01
11;2;12;14;letter169;letter190;congruent;0.04;letter169;0.09;0.07;fullmask;0.2;arrow_left.png;m;0.1479412000044249;0.1505223999847658;357711.6419162;2.7999631129205227e-06;0.5042333999881521;0.5442474000155926;0.5957089000148699;0.6663878000108525;0.7462309999973513;0.7462335999589413;0;1;0;0;0.01
11;2;12;15;letter169;letter190;incongruent;0.04;letter190;0.09;0.07;fullmask;0.2;arrow_left.png;m;0.1805748000042513;0.1895084999850951;357713.0259163;2.600019797682762e-06;0.5026802000356838;0.542694500007201;0.5946513999952003;0.664425500028301;0.784161000046879;0.7841640000115149;0;1;0;0;0.01
11;2;12;16;letter169;letter190;congruent;0.04;letter169;0.09;0.07;fullmask;0.2;arrow_left.png;m;0.28240950003964826;0.29114600003231317;357714.4979167;2.6999623514711857e-06;0.5026729999808595;0.542686499946285;0.5939175999956205;0.6645933999679983;0.7942461999482475;1.0830521999741904;0;0;1;0;0.01
11;2;12;17;letter169;letter190;incongruent;0.04;letter169;0.09;0.07;fullmask;0.2;arrow_right.png;m;0.2973262000014074;0.3002595999860205;357716.1939768;2.5999615900218487e-06;0.5001769999507815;0.5401956999558024;0.5914826999651268;0.6615534999873489;0.791950499988161;1.0905889999703504;0;0;1;0;0.01
11;2;12;18;letter169;letter190;incongruent;0.04;letter190;0.09;0.07;fullmask;0.2;arrow_left.png;m;0.20006490004016086;0.20050929998978972;357717.7780119;2.700020559132099e-06;0.49910519999684766;0.539143799978774;0.590626000019256;0.6604219999862835;0.7911378999706358;0.7911428000079468;0;1;0;0;0.01
11;2;12;19;letter169;letter190;incongruent;0.04;letter190;0.09;0.07;fullmask;0.2;arrow_left.png;m;0.2032428000238724;0.2103604000294581;357719.1619148;2.800021320581436e-06;0.49611030000960454;0.5361231000279076;0.5874392000259832;0.6582056999905035;0.7877685999847017;0.9964202999835834;0;0;1;0;0.01
11;2;12;20;letter169;letter190;incongruent;0.04;letter169;0.09;0.07;fullmask;0.2;arrow_right.png;m;0.28383780003059655;0.2902485000086017;357720.8341191;2.7999631129205227e-06;0.49628899997333065;0.5362738999538124;0.5881759999901988;0.657848299946636;0.7885006999713369;1.076643799955491;0;0;1;0;0.01
11;2;12;21;letter169;letter190;congruent;0.04;letter169;0.09;0.07;fullmask;0.2;arrow_left.png;m;0.32231879996834323;0.33013419999042526;357722.5539137;2.800021320581436e-06;0.502781400049571;0.5426001000450924;0.5947217000066303;0.6644994000089355;0.7941486000199802;1.122994400036987;0;0;1;0;0.01
11;2;12;22;letter169;letter190;congruent;0.04;letter190;0.09;0.07;fullmask;0.2;arrow_right.png;m;0.2281313000130467;0.23030830000061542;357724.1699123;3.00002284348011e-06;0.49616290000267327;0.5361828000168316;0.5873715999769047;0.6580493000219576;0.7876994999824092;1.0164918000227772;0;0;1;0;0.01
11;2;12;23;letter169;letter190;congruent;0.04;letter190;0.09;0.07;fullmask;0.2;arrow_right.png;m;0.23829260002821684;0.2393752000061795;357725.8020981;2.6999623514711857e-06;0.5037236000061966;0.5437459999811836;0.5959196999901906;0.6656926999567077;0.7953434999799356;1.0340586999664083;0;0;1;0;0.01
11;2;12;24;letter169;letter190;incongruent;0.04;letter169;0.09;0.07;fullmask;0.2;arrow_right.png;m;0.2638370000058785;0.2702914999681525;357727.4579137;2.600019797682762e-06;0.49781170004280284;0.5378228999907151;0.5892175000044517;0.6600045000086538;0.7896416000439785;1.058163100038655;0;0;1;0;0.01
11;2;12;25;letter169;letter190;congruent;0.04;letter190;0.09;0.07;fullmask;0.2;arrow_right.png;m;0.2265000999905169;0.23031479999190196;357729.081907;3.100023604929447e-06;0.5022716000094078;0.5422769000288099;0.5939379000337794;0.6636350000044331;0.7942653000354767;1.0226172000402585;0;0;1;0;0.01
11;2;12;26;letter169;letter190;incongruent;0.04;letter190;0.09;0.07;fullmask;0.2;arrow_left.png;m;0.20779440004844218;0.21044769999571145;357730.6738966;2.700020559132099e-06;0.4963084000046365;0.5363292000256479;0.5876266999985091;0.65839340002276;0.7880463000037707;0.9966336999787018;0;0;1;0;0.01
11;2;12;27;letter169;letter190;incongruent;0.04;letter169;0.09;0.07;fullmask;0.2;arrow_right.png;m;0.333941999997478;0.34015519998501986;357732.401902;2.7999631129205227e-06;0.4964068999979645;0.5364235999877565;0.5885560999740846;0.6584692999604158;0.7880296999937855;0.9186807000078261;0;0;0;1;0.01
11;2;12;28;letter169;letter190;congruent;0.04;letter190;0.09;0.07;fullmask;0.2;arrow_right.png;m;0.23001060000387952;0.23021959996549413;357733.8180363;2.5999615900218487e-06;0.5017260999884456;0.5417432999820448;0.5929434999707155;0.6636182999936864;0.7932723999838345;1.0220681999926455;0;0;1;0;0.01
11;2;12;29;letter169;letter190;congruent;0.04;letter190;0.09;0.07;fullmask;0.2;arrow_right.png;m;0.23266520001925528;0.24052809999557212;357735.4421585;2.700020559132099e-06;0.4977063999976963;0.537712300021667;0.5893167000031099;0.6593901000451297;0.789779799990356;1.028038699994795;0;0;1;0;0.01
11;2;12;30;letter169;letter190;incongruent;0.04;letter169;0.09;0.07;fullmask;0.2;arrow_right.png;m;0.2833805999835022;0.2901469999924302;357737.1139506;2.600019797682762e-06;0.5020323999924585;0.5420473999693058;0.5936999000259675;0.6633757000090554;0.7940234999987297;1.08241440000711;0;0;1;0;0.01
11;2;12;31;letter169;letter190;incongruent;0.04;letter190;0.09;0.07;fullmask;0.2;arrow_left.png;m;0.17855860001873225;0.18044989998452365;357738.689911;2.7999631129205227e-06;0.4968688999651931;0.5368737999815494;0.5882174000144005;0.6589072999777272;0.7686615000129677;0.7686642999760807;0;1;0;0;0.01
11;2;12;32;letter169;letter190;congruent;0.04;letter169;0.09;0.07;fullmask;0.2;arrow_left.png;m;0.20898450003005564;0.20942560001276433;357740.0819658;2.6999623514711857e-06;0.4972355999634601;0.5372724999906495;0.5893549000029452;0.6591329000075348;0.7887829999672249;0.9975796999642625;0;0;1;0;0.01
11;2;12;33;letter169;letter190;incongruent;0.04;letter190;0.09;0.07;fullmask;0.2;arrow_left.png;m;0.24244200001703575;0.25034789997152984;357741.7059026;2.7999631129205227e-06;0.4971809000126086;0.5371928999666125;0.588714900019113;0.6584881999879144;0.7891637000138871;1.0375135999638587;0;0;1;0;0.01
11;2;12;34;letter169;letter190;incongruent;0.04;letter169;0.09;0.07;fullmask;0.2;arrow_right.png;m;0.4010653999866918;0.40996640000957996;357743.5058792;2.600019797682762e-06;0.5012036000262015;0.5412318999879062;0.5930386999971233;0.6629439999815077;0.7925094999955036;0.9231582999927923;0;0;0;1;0.01
11;2;12;35;letter169;letter190;congruent;0.04;letter169;0.09;0.07;fullmask;0.2;arrow_left.png;m;0.09658389998367056;0.10109379998175427;357744.8018827;2.7999631129205227e-06;0.5009978999732994;0.5410234999726526;0.5922859999700449;0.6631995000061579;0.6933899999712594;0.6933981999754906;0;1;0;0;0.01
11;2;12;36;letter169;letter190;congruent;0.04;letter169;0.09;0.07;fullmask;0.2;arrow_left.png;m;0.213605800003279;0.2204765999922529;357746.2099622;2.700020559132099e-06;0.5023608000483364;0.5423753000213765;0.5938750000204891;0.6637825000216253;0.7943380000069737;1.012700900027994;0;0;1;0;0.01
11;2;12;37;letter169;letter190;congruent;0.04;letter169;0.09;0.07;fullmask;0.2;arrow_left.png;m;0.35381180001422763;0.35995549999643117;357747.9618962;2.700020559132099e-06;0.5043741000117734;0.5444074000115506;0.5965561000048183;0.6662309000384994;0.7958843000233173;0.9265364999882877;0;0;0;1;0.01
11;2;12;38;letter169;letter190;incongruent;0.04;letter190;0.09;0.07;fullmask;0.2;arrow_left.png;m;0.23562139994464815;0.24041939998278394;357749.3938932;2.700020559132099e-06;0.4967373000108637;0.5367612999980338;0.5881116000236943;0.6580204000347294;0.7885782000375912;1.027074299985543;0;0;1;0;0.01
11;2;12;39;letter169;letter190;incongruent;0.04;letter169;0.09;0.07;fullmask;0.2;arrow_right.png;m;0.19596679997630417;0.1994776999927126;357750.9858872;2.6999623514711857e-06;0.5015317999641411;0.5415461999946274;0.5934915999532677;0.6632638999726623;0.7929702999535948;0.7929726999718696;0;1;0;0;0.01
11;2;12;40;letter169;letter190;incongruent;0.04;letter190;0.09;0.07;fullmask;0.2;arrow_left.png;m;0.21342869999352843;0.2206321000121534;357752.3940431;2.700020559132099e-06;0.5010344000183977;0.5410511000081897;0.5928053000243381;0.662871600012295;0.7932699000230059;1.0113898000563495;0;0;1;0;0.01
11;2;12;41;letter169;letter190;incongruent;0.04;letter190;0.09;0.07;fullmask;0.2;arrow_left.png;m;0.23293230001581833;0.24054200004320592;357754.0340547;2.700020559132099e-06;0.5032145000295714;0.5432178000337444;0.5944131000433117;0.66522350005107;0.7948828000226058;1.0335489000426605;0;0;1;0;0.01
11;2;12;42;letter169;letter190;congruent;0.04;letter169;0.09;0.07;fullmask;0.2;arrow_left.png;m;0.2388725999626331;0.23933789995498955;357755.6819336;2.600019797682762e-06;0.4980284000048414;0.5380485000205226;0.5901132000144571;0.6598855000338517;0.7895381000125781;1.028371300024446;0;0;1;0;0.01
11;2;12;43;letter169;letter190;incongruent;0.04;letter169;0.09;0.07;fullmask;0.2;arrow_right.png;m;0.19180980004603043;0.19952900003409013;357757.2658885;2.700020559132099e-06;0.5042104999884032;0.5442292999941856;0.5962533000274561;0.6661629999871366;0.7957815999980085;0.7957841000170447;0;1;0;0;0.01
11;2;12;44;letter169;letter190;congruent;0.04;letter190;0.09;0.07;fullmask;0.2;arrow_right.png;m;0.24371559999417514;0.25034640001831576;357758.6978801;2.6999623514711857e-06;0.49534689995925874;0.5353696999954991;0.5865961000090465;0.6573667000047863;0.7870192999835126;1.0356881999759935;0;0;1;0;0.01
11;2;12;45;letter169;letter190;congruent;0.04;letter190;0.09;0.07;fullmask;0.2;arrow_right.png;m;0.24398199998540804;0.25035099999513477;357760.3300753;2.700020559132099e-06;0.497463500010781;0.5374676000210457;0.5895620000083;0.6592143999878317;0.7888887000153773;1.0378209000336938;0;0;1;0;0.01
11;2;12;46;letter169;letter190;incongruent;0.04;letter169;0.09;0.07;fullmask;0.2;arrow_right.png;m;0.22961219999706373;0.23030609998386353;357761.9459038;2.9999646358191967e-06;0.4954611000139266;0.5354733999702148;0.5867083999910392;0.6573795999865979;0.7870364999980666;1.0157946000108495;0;0;1;0;0.01
11;2;12;47;letter169;letter190;congruent;0.04;letter169;0.09;0.07;fullmask;0.2;arrow_left.png;m;0.14451589999953285;0.15060799999628216;357763.4819018;2.7999631129205227e-06;0.49792819999856874;0.5379343999666162;0.5892141999793239;0.6599895000108518;0.7398231999832205;0.7398256000014953;0;1;0;0;0.01
11;2;12;48;letter169;letter190;congruent;0.04;letter190;0.09;0.07;fullmask;0.2;arrow_right.png;m;0.18084849999286234;0.18965009995736182;357764.8498986;2.700020559132099e-06;0.500019200029783;0.5400371000287123;0.5921313000144437;0.6618990999995731;0.7817824000376277;0.7817850999999791;0;1;0;0;0.01
11;2;13;1;letter169;letter190;incongruent;0.04;letter190;0.09;0.07;fullmask;0.2;arrow_left.png;m;0.3597431000089273;0.36119580001104623;357767.9299699;2.900022082030773e-06;0.501038399990648;0.5410721999942325;0.592444300011266;0.6622513000038452;0.7928943000151776;0.9225610999856144;0;0;0;1;0.01
11;2;13;2;letter169;letter190;congruent;0.04;letter190;0.09;0.07;fullmask;0.2;arrow_right.png;m;2.2782372999936342;2.281766699976288;357771.4098643;2.700020559132099e-06;0.5022423000191338;0.5422742000082508;0.5940360000240617;0.6636302000260912;0.7942850000108592;0.923964400019031;0;0;0;1;0.01
11;2;13;3;letter169;letter190;incongruent;0.04;letter169;0.09;0.07;fullmask;0.2;arrow_right.png;m;0.1422457000007853;0.15060980000998825;357772.7458684;2.700020559132099e-06;0.5002111000358127;0.5402389000519179;0.5917573000187986;0.6615315000526607;0.7423681000364013;0.7423705999972299;0;1;0;0;0.01
11;2;13;4;letter169;letter190;congruent;0.04;letter169;0.09;0.07;fullmask;0.2;arrow_left.png;m;0.16339939995668828;0.1704654999775812;357774.0978599;2.800021320581436e-06;0.49750360002508387;0.5375121000106446;0.5890040000085719;0.6587656000046991;0.7594686999800615;0.7594714000006206;0;1;0;0;0.01
11;2;13;5;letter169;letter190;incongruent;0.04;letter169;0.09;0.07;fullmask;0.2;arrow_right.png;m;0.5376763999811374;0.5397370000137016;357775.833939;2.600019797682762e-06;0.5031509000109509;0.5431694000144489;0.5955890999757685;0.6644996000104584;0.7950436000246555;0.9247136000194587;0;0;0;1;0.01
11;2;13;6;letter169;letter190;incongruent;0.04;letter169;0.09;0.07;fullmask;0.2;arrow_right.png;m;0.2694822000339627;0.27045800001360476;357777.3059819;2.800021320581436e-06;0.5019399999873713;0.5419607000076212;0.593479200033471;0.6635536000248976;0.7939418000169098;1.0623207000317052;0;0;1;0;0.01
11;2;13;7;letter169;letter190;congruent;0.04;letter169;0.09;0.07;fullmask;0.2;arrow_left.png;m;0.37867579999146983;0.381005399976857;357779.0659043;2.6999623514711857e-06;0.4968026999849826;0.5368245000136085;0.5879934999975376;0.6586649999953806;0.7883171999710612;0.9189522999804467;0;0;0;1;0.01
11;2;13;8;letter169;letter190;incongruent;0.04;letter190;0.09;0.07;fullmask;0.2;arrow_left.png;m;0.10118300002068281;0.10987719998229295;357780.3698809;2.6999623514711857e-06;0.5039735999889672;0.5440291999839246;0.5956252999603748;0.6655309000052512;0.7055031000054441;0.7055057999677956;0;1;0;0;0.01
11;2;13;9;letter169;letter190;congruent;0.04;letter169;0.09;0.07;fullmask;0.2;arrow_left.png;m;0.5137791999732144;0.5195822999812663;357782.0738566;2.800021320581436e-06;0.49759639997500926;0.5376111000077799;0.5897863000282086;0.6595143000013195;0.7891693999990821;0.9198190000024624;0;0;0;1;0.01
11;2;13;10;letter169;letter190;congruent;0.04;letter190;0.09;0.07;fullmask;0.2;arrow_right.png;m;0.17913270002463832;0.17945749999489635;357783.4499408;3.00002284348011e-06;0.501130800053943;0.5411601000232622;0.5929389000521041;0.6627130000269972;0.7723976000561379;0.7724001000169665;0;1;0;0;0.01
11;2;13;11;letter169;letter190;incongruent;0.04;letter190;0.09;0.07;fullmask;0.2;arrow_left.png;m;0.1358959999633953;0.1395502999657765;357784.7778602;2.7999631129205227e-06;0.5049470000085421;0.5449644000036642;0.5970313999569044;0.6666933000087738;0.7365752999903634;0.7365778000093997;0;1;0;0;0.01
11;2;13;12;letter169;letter190;congruent;0.04;letter190;0.09;0.07;fullmask;0.2;arrow_right.png;m;0.04536960000405088;0.04999079997651279;357786.017983;2.900022082030773e-06;0.49610250000841916;0.5361213000142016;0.5879625999950804;0.6562286000116728;0.6562335999915376;0.6562375000212342;1;0;0;0;0.01
11;2;13;13;letter169;letter190;incongruent;0.04;letter169;0.09;0.07;fullmask;0.2;arrow_right.png;m;0.20875349995912984;0.21067889995174482;357787.442092;2.6999623514711857e-06;0.4943696999689564;0.5343903999892063;0.5861484999768436;0.6560536999604665;0.7857088999589905;0.994696700014174;0;0;1;0;0.01
11;2;13;14;letter169;letter190;incongruent;0.04;letter169;0.09;0.07;fullmask;0.2;arrow_right.png;m;0.42538369999965653;0.42977019998943433;357789.2498877;3.0999653972685337e-06;0.4961460999911651;0.5361767999711446;0.5880459999898449;0.6577202000189573;0.7883724999846891;0.9180239000124857;0;0;0;1;0.01
11;2;13;15;letter169;letter190;congruent;0.04;letter169;0.09;0.07;fullmask;0.2;arrow_left.png;m;0.14839819999178872;0.1496647999738343;357790.5940029;2.700020559132099e-06;0.5023588999756612;0.542376899975352;0.5943151999963447;0.6642231000005268;0.7439799000276253;0.7439824999892153;0;1;0;0;0.01
11;2;13;16;letter169;letter190;incongruent;0.04;letter169;0.09;0.07;fullmask;0.2;arrow_right.png;m;0.16959399997722358;0.1704909999971278;357791.9459689;2.800021320581436e-06;0.4981853000354022;0.5382047999883071;0.5900365000125021;0.6596957000438124;0.7605304000317119;0.7605352000100538;0;1;0;0;0.01
11;2;13;17;letter169;letter190;congruent;0.04;letter190;0.09;0.07;fullmask;0.2;arrow_right.png;m;0.13680559996282682;0.13969079998787493;357793.273956;2.600019797682762e-06;0.4987468000035733;0.5387657000101171;0.5905058000353165;0.660412700031884;0.7301961000193842;0.7301989000407048;0;1;0;0;0.01
11;2;13;18;letter169;letter190;incongruent;0.04;letter190;0.09;0.07;fullmask;0.2;arrow_left.png;m;0.18217260000528768;0.19050110003445297;357794.6498499;2.700020559132099e-06;0.49617729999590665;0.5361955999978818;0.5876070000231266;0.6573830000124872;0.7781091000069864;0.7781116000260226;0;1;0;0;0.01
11;2;13;19;letter169;letter190;congruent;0.04;letter190;0.09;0.07;fullmask;0.2;arrow_right.png;m;0.2986183000029996;0.30021560000022873;357796.1378518;2.500019036233425e-06;0.49821609997889027;0.538209900027141;0.5902838999754749;0.660057200002484;0.7897116999956779;1.0885821999982;0;0;1;0;0.01
11;2;13;20;letter169;letter190;congruent;0.04;letter169;0.09;0.07;fullmask;0.2;arrow_left.png;m;0.5123109000269324;0.5206186000141315;357798.0418404;2.7999631129205227e-06;0.5022428999654949;0.5422540999716148;0.5935202999971807;0.664291699999012;0.7939455999876373;0.9245971000054851;0;0;0;1;0.01
11;2;13;21;letter169;letter190;congruent;0.04;letter190;0.09;0.07;fullmask;0.2;arrow_right.png;m;0.1585998999653384;0.1595011000172235;357799.4098087;2.7999631129205227e-06;0.5034770999918692;0.5434902999550104;0.5953251000028104;0.6650246999925002;0.7548202999751084;0.7548227999941446;0;1;0;0;0.01
11;2;13;22;letter169;letter190;incongruent;0.04;letter190;0.09;0.07;fullmask;0.2;arrow_left.png;m;0.17335450003156438;0.179465799999889;357800.7858991;2.5999615900218487e-06;0.4992103999829851;0.5391891999752261;0.5915082999854349;0.6611793999909423;0.7709697000100277;0.7709731999784708;0;1;0;0;0.01
11;2;13;23;letter169;letter190;incongruent;0.04;letter190;0.09;0.07;fullmask;0.2;arrow_left.png;m;0.16118550003739074;0.1706086000194773;357802.153943;2.700020559132099e-06;0.504231900034938;0.5442551000160165;0.5958631000248715;0.6657704000244848;0.7664712999830954;0.7664738000021316;0;1;0;0;0.01
11;2;13;24;letter169;letter190;congruent;0.04;letter169;0.09;0.07;fullmask;0.2;arrow_left.png;m;0.11244379996787757;0.12074069998925552;357803.4658422;2.6999623514711857e-06;0.5005942999850959;0.5406056999927387;0.5919793999637477;0.6618901999900118;0.7127198999514803;0.7127225999720395;0;1;0;0;0.01
11;2;13;25;letter169;letter190;congruent;0.04;letter169;0.09;0.07;fullmask;0.2;arrow_left.png;m;0.22739329998148605;0.23039539996534586;357804.8818404;2.600019797682762e-06;0.49848650000058115;0.5385230000247248;0.5900650999974459;0.6598354000016116;0.7904895000392571;1.0188169000321068;0;0;1;0;0.01
11;2;13;26;letter169;letter190;congruent;0.04;letter169;0.09;0.07;fullmask;0.2;arrow_left.png;m;0.31244109995895997;0.32006679999176413;357806.5778398;2.700020559132099e-06;0.49664490000577644;0.5366641000146046;0.5881487000151537;0.6588216000236571;0.7884626000304706;1.1070603000116535;0;0;1;0;0.01
11;2;13;27;letter169;letter190;congruent;0.04;letter190;0.09;0.07;fullmask;0.2;arrow_right.png;m;0.22471899999072775;0.22943090001353994;357808.2018923;2.600019797682762e-06;0.49659860000247136;0.5366194000234827;0.5887765000225045;0.6584644999820739;0.7881265000323765;1.0169428000226617;0;0;1;0;0.01
11;2;13;28;letter169;letter190;congruent;0.04;letter190;0.09;0.07;fullmask;0.2;arrow_right.png;m;0.20982220000587404;0.22042249998776242;357809.8178345;2.700020559132099e-06;0.4991827000048943;0.5391948000178672;0.5911312000243925;0.6609036000445485;0.7905566000263207;1.0095293000340462;0;0;1;0;0.01
11;2;13;29;letter169;letter190;congruent;0.04;letter190;0.09;0.07;fullmask;0.2;arrow_right.png;m;0.2231482999632135;0.2304463000036776;357811.4418461;2.6999623514711857e-06;0.5026585999876261;0.5427094000042416;0.5942443999811076;0.6641499999677762;0.7947122000041418;1.0229945000028238;0;0;1;0;0.01
11;2;13;30;letter169;letter190;incongruent;0.04;letter190;0.09;0.07;fullmask;0.2;arrow_left.png;m;0.2342715000268072;0.24037240003235638;357813.0738319;2.700020559132099e-06;0.4986852000001818;0.5387118000071496;0.5900904000154696;0.6608629999682307;0.7905133999884129;1.0290418000076897;0;0;1;0;0.01
11;2;13;31;letter169;letter190;incongruent;0.04;letter190;0.09;0.07;fullmask;0.2;arrow_left.png;m;0.3148096000077203;0.320274600002449;357814.7859368;2.700020559132099e-06;0.49656030000187457;0.5365741000277922;0.5884669000515714;0.6582531000021845;0.7878911000443622;1.1069764000130817;0;0;1;0;0.01
11;2;13;32;letter169;letter190;incongruent;0.04;letter169;0.09;0.07;fullmask;0.2;arrow_right.png;m;0.3235450000502169;0.3300409000366926;357816.5058361;2.700020559132099e-06;0.5049186000251211;0.5449367000255734;0.5968823000439443;0.6666568000218831;0.7962173000560142;1.1253168000257574;0;0;1;0;0.01
11;2;13;33;letter169;letter190;incongruent;0.04;letter190;0.09;0.07;fullmask;0.2;arrow_left.png;m;0.14893549995031208;0.150523999996949;357818.0418342;2.8999638743698597e-06;0.4987447999883443;0.5387483999948017;0.5902007999829948;0.6608763999538496;0.7407235999708064;0.7407260999898426;0;1;0;0;0.01
11;2;13;34;letter169;letter190;congruent;0.04;letter169;0.09;0.07;fullmask;0.2;arrow_left.png;m;0.16780880000442266;0.1696114999940619;357819.4018328;2.7999631129205227e-06;0.49720579996937886;0.5372330999816768;0.5889294999651611;0.6588369999662973;0.7585405999561772;0.7585432999767363;0;1;0;0;0.01
11;2;13;35;letter169;letter190;congruent;0.04;letter169;0.09;0.07;fullmask;0.2;arrow_left.png;m;0.06521249999059364;0.07082419999642298;357820.6498117;2.700020559132099e-06;0.4966833000071347;0.5367040999699384;0.5881023000110872;0.6589302999782376;0.6589327999972738;0.6589350000140257;1;0;0;0;0.01
11;2;13;36;letter169;letter190;congruent;0.04;letter169;0.09;0.07;fullmask;0.2;arrow_left.png;m;0.16025580000132322;0.1605615000007674;357821.9859337;2.800021320581436e-06;0.4958180999965407;0.5358374000061303;0.5875098000396974;0.6572802000446245;0.7480763000203297;0.7480810999986716;0;1;0;0;0.01
11;2;13;37;letter169;letter190;congruent;0.04;letter190;0.09;0.07;fullmask;0.2;arrow_right.png;m;0.2378448999952525;0.24138919997494668;357823.3939066;2.6999623514711857e-06;0.49366889998782426;0.5336809000000358;0.5848874999792315;0.6556560999597423;0.7852134999702685;1.0240157999796793;0;0;1;0;0.01
11;2;13;38;letter169;letter190;incongruent;0.04;letter190;0.09;0.07;fullmask;0.2;arrow_left.png;m;0.3103770999587141;0.3201595999998972;357825.0979288;2.900022082030773e-06;0.4950628000078723;0.5350889000110328;0.5867072999826632;0.656478299992159;0.7871293000061996;1.1054444999899715;0;0;1;0;0.01
11;2;13;39;letter169;letter190;incongruent;0.04;letter190;0.09;0.07;fullmask;0.2;arrow_left.png;m;0.18341999995755032;0.1905032999929972;357826.6818331;2.700020559132099e-06;0.5008034000056796;0.5408234000205994;0.5921850000158884;0.6629550000070594;0.7826892000157386;0.7826916000340134;0;1;0;0;0.01
11;2;13;40;letter169;letter190;incongruent;0.04;letter190;0.09;0.07;fullmask;0.2;arrow_left.png;m;0.2365888999775052;0.2404200999881141;357828.1058824;2.700020559132099e-06;0.4976666999864392;0.5376914999797009;0.5890736000146717;0.658889900019858;0.7895407000323758;1.028015099989716;0;0;1;0;0.01
11;2;13;41;letter169;letter190;incongruent;0.04;letter169;0.09;0.07;fullmask;0.2;arrow_right.png;m;0.25531159999081865;0.2604728000005707;357829.7459617;3.00002284348011e-06;0.4964517999906093;0.5364713000017218;0.588151799980551;0.6580585000338033;0.7886164000374265;1.0468158000148833;0;0;1;0;0.01
11;2;13;42;letter169;letter190;incongruent;0.04;letter169;0.09;0.07;fullmask;0.2;arrow_right.png;m;0.28648599999723956;0.29014810000080615;357831.4178457;2.6999623514711857e-06;0.5021356999641284;0.5421491999877617;0.5934845999581739;0.6642571999691427;0.7937872000038624;1.0824998999596573;0;0;1;0;0.01
11;2;13;43;letter169;letter190;incongruent;0.04;letter169;0.09;0.07;fullmask;0.2;arrow_right.png;m;1.6364831000100821;1.640402199991513;357834.4498332;2.700020559132099e-06;0.498204400006216;0.538245800009463;0.5904686999856494;0.6600203000125475;0.7896605000132695;0.9203026000177488;0;0;0;1;0.01
11;2;13;44;letter169;letter190;congruent;0.04;letter190;0.09;0.07;fullmask;0.2;arrow_right.png;m;0.23761290003312752;0.24036649998743087;357835.8818145;2.6999623514711857e-06;0.49625269998796284;0.5362867999938317;0.5875202000024728;0.6582863999647088;0.7879403000115417;1.02660579996882;0;0;1;0;0.01
11;2;13;45;letter169;letter190;incongruent;0.04;letter169;0.09;0.07;fullmask;0.2;arrow_right.png;m;0.4164129999699071;0.42079800000647083;357837.6818251;2.700020559132099e-06;0.5034923999919556;0.5435124000068754;0.5949186999932863;0.6646901000058278;0.7952489000163041;0.9249020999995992;0;0;0;1;0.01
11;2;13;46;letter169;letter190;incongruent;0.04;letter169;0.09;0.07;fullmask;0.2;arrow_right.png;m;0.07181300001684576;0.0808064000448212;357838.9380957;2.8999638743698597e-06;0.5047201999695972;0.5447337999939919;0.5959735999931581;0.666641499963589;0.6767882999847643;0.6767961999867111;0;1;0;0;0.01
11;2;13;47;letter169;letter190;congruent;0.04;letter169;0.09;0.07;fullmask;0.2;arrow_left.png;m;0.17632970004342496;0.18055879999883473;357840.3138476;2.600019797682762e-06;0.497381100023631;0.5374224000261165;0.5890630999929272;0.6587616999750026;0.7696250000153668;0.7696330000180751;0;1;0;0;0.01
11;2;13;48;letter169;letter190;congruent;0.04;letter190;0.09;0.07;fullmask;0.2;arrow_right.png;m;0.11157909996109083;0.12074069998925552;357841.6098311;2.6999623514711857e-06;0.49442209996050224;0.5344446999952197;0.5859339999733493;0.6558380999485962;0.7066736999549903;0.706676299974788;0;1;0;0;0.01
