subjnr;loop_m;blocknr;trialnr;cue_left_learn;cue_right_learn; congruence;cue_dur;cue;SOA;mask_dur;mask;target_dur;target;response;RT;kb_rt;response_absolute; fix_onset;cue_onset;cue_offset;mask_onset;mask_offset;target_offset;blank_onset;response_during_mask;response_during_targetalone;response_during_RW;response_during_blank;frame_dur
5;1;4;1;letter181;letter357;congruent;0.04;letter181;0.05;0.07;fullmask;0.2;arrow_left.png;m;1.3676550999989558;1.3714053000003332;23307.8353516;3.1999989005271345e-06;0.5026736999971035;0.5426912999973865;0.5542290999983379;0.624030799997854;0.7546817999973428;0.8843335999990813;0;0;0;1;0.01
5;1;4;2;letter181;letter357;incongruent;0.04;letter357;0.05;0.07;fullmask;0.2;arrow_left.png;c;0.32617839999875287;0.3302603000011004;23309.3153082;3.1000017770566046e-06;0.5011721000009857;0.541197700000339;0.552550299998984;0.6224419999998645;0.7529902999995102;1.0815597000000707;0;0;1;0;0.01
5;1;4;3;letter181;letter357;congruent;0.04;letter357;0.05;0.07;fullmask;0.2;arrow_right.png;m;0.2952434999970137;0.3011503999987326;23310.9552772;2.9000002541579306e-06;0.495752499999071;0.535781999999017;0.5469602999983181;0.6176353999981075;0.747284099998069;1.046103699998639;0;0;1;0;0.01
5;1;4;4;letter181;letter357;congruent;0.04;letter357;0.05;0.07;fullmask;0.2;arrow_right.png;m;0.28136629999789875;0.2902729999987059;23312.6033539;2.9999973776284605e-06;0.5028186999988975;0.5428657999982534;0.5549049000001105;0.6249581999982183;0.7543557999997574;1.043158599997696;0;0;1;0;0.01
5;1;4;5;letter181;letter357;congruent;0.04;letter357;0.05;0.07;fullmask;0.2;arrow_right.png;m;0.28080680000130087;0.2902867000011611;23314.2432721;2.9000002541579306e-06;0.49666200000137906;0.5366833000007318;0.5481862000015099;0.6180944000007003;0.7486547000007704;1.037011899999925;0;0;1;0;0.01
5;1;4;6;letter181;letter357;congruent;0.04;letter181;0.05;0.07;fullmask;0.2;arrow_left.png;c;0.29546059999847785;0.3002234999985376;23315.8993571;3.0000010156072676e-06;0.504274599999917;0.5442965000002005;0.5561791000000085;0.6258576000000176;0.7565060000015364;1.0546374000005017;0;0;1;0;0.01
5;1;4;7;letter181;letter357;incongruent;0.04;letter357;0.05;0.07;fullmask;0.2;arrow_left.png;c;0.340370999998413;0.35044879999986733;23317.5953682;3.1999989005271345e-06;0.4960041000013007;0.5360293000012462;0.54793939999945;0.6176080000004731;0.7472745000013674;0.8779251000014483;0;0;0;1;0.01
5;1;4;8;letter181;letter357;incongruent;0.04;letter181;0.05;0.07;fullmask;0.2;arrow_right.png;m;0.3216872999983025;0.33003610000014305;23319.0672918;2.9999973776284605e-06;0.4958852999989176;0.5359118999986094;0.5474599999979546;0.6171348999996553;0.7477926999999909;1.0762474999974074;0;0;1;0;0.01
5;1;4;9;letter181;letter357;congruent;0.04;letter181;0.05;0.07;fullmask;0.2;arrow_left.png;c;0.26066759999957867;0.2702888999992865;23320.7072619;3.1000017770566046e-06;0.501819200002501;0.5418544000021939;0.553305100002035;0.623080100001971;0.7537220000012894;1.02216000000044;0;0;1;0;0.01
5;1;4;10;letter181;letter357;incongruent;0.04;letter181;0.05;0.07;fullmask;0.2;arrow_right.png;m;0.24762399999963236;0.2502502000024833;23322.3152436;3.0000010156072676e-06;0.5031361000001198;0.5431318000009924;0.5545820000006643;0.6243462999991607;0.7549091000000772;1.003453500001342;0;0;1;0;0.01
5;1;4;11;letter181;letter357;incongruent;0.04;letter181;0.05;0.07;fullmask;0.2;arrow_right.png;c;0.24627939999845694;0.2503437000013946;23323.9153403;2.9000002541579306e-06;0.5031423000000359;0.5431719999978668;0.5550229999971634;0.6246861999970861;0.755339899998944;1.0034603999993124;0;0;1;0;0.01
5;1;4;12;letter181;letter357;incongruent;0.04;letter357;0.05;0.07;fullmask;0.2;arrow_left.png;c;0.36725099999966915;0.36993580000125803;23325.6272597;3.1000017770566046e-06;0.49401960000250256;0.5340455000005022;0.5458261000021594;0.6155934000016714;0.7461595999993733;0.8758120000020426;0;0;0;1;0.01
5;1;4;13;letter181;letter357;congruent;0.04;letter357;0.05;0.07;fullmask;0.2;arrow_right.png;m;0.40480220000245026;0.41090680000343127;23327.1952954;3.1000017770566046e-06;0.5018945000010717;0.5419260000016948;0.5531980999985535;0.6239601999986917;0.7536228999997547;0.8832699000013235;0;0;0;1;0.01
5;1;4;14;letter181;letter357;congruent;0.04;letter181;0.05;0.07;fullmask;0.2;arrow_left.png;c;0.30703100000027916;0.31023000000277534;23328.659267;2.9999973776284605e-06;0.5020927999976266;0.5421010999998543;0.5541296999981569;0.6240312000008998;0.7535982999979751;1.0624434999990626;0;0;1;0;0.01
5;1;4;15;letter181;letter357;incongruent;0.04;letter181;0.05;0.07;fullmask;0.2;arrow_right.png;m;0.29242100000192295;0.30024820000107866;23330.3152573;2.8999966161791235e-06;0.5034832999990613;0.5435084999990067;0.5550597999972524;0.6249562999983027;0.7555154000001494;1.053831099998206;0;0;1;0;0.01
5;1;4;16;letter181;letter357;congruent;0.04;letter357;0.05;0.07;fullmask;0.2;arrow_right.png;m;0.2749967999989167;0.2801796999992803;23331.9392777;3.0000010156072676e-06;0.49735320000036154;0.5373540000000503;0.5493089000010514;0.6189864000007219;0.7486300999989908;1.0276835000004212;0;0;1;0;0.01
5;1;4;17;letter181;letter357;incongruent;0.04;letter181;0.05;0.07;fullmask;0.2;arrow_right.png;m;0.26824760000090464;0.27033529999971506;23333.5633983;2.9999973776284605e-06;0.49752429999716696;0.5375414999980421;0.5493132999981754;0.6192154999989725;0.7497823999983666;1.0178639000005205;0;0;1;0;0.01
5;1;4;18;letter181;letter357;congruent;0.04;letter181;0.05;0.07;fullmask;0.2;arrow_left.png;c;0.3174323999992339;0.3202028000014252;23335.2432661;2.8999966161791235e-06;0.4986555999967095;0.538729499996407;0.5500768999991124;0.6199783999982174;0.7505427999967651;1.069006799996714;0;0;1;0;0.01
5;1;4;19;letter181;letter357;incongruent;0.04;letter357;0.05;0.07;fullmask;0.2;arrow_left.png;c;0.3719191999989562;0.379999199998565;23336.9792857;3.2999996619764715e-06;0.5008436999996775;0.5408587999991141;0.5527296000000206;0.6225057000010565;0.7521558000007644;0.8828068000002531;0;0;0;1;0.01
5;1;4;20;letter181;letter357;incongruent;0.04;letter357;0.05;0.07;fullmask;0.2;arrow_left.png;c;0.33070129999759956;0.340150399999402;23338.4593239;2.9999973776284605e-06;0.49559819999922183;0.5356205999996746;0.5477568999995128;0.6176624999970954;0.747224599999754;0.877876999998989;0;0;0;1;0.01
5;1;4;21;letter181;letter357;incongruent;0.04;letter357;0.05;0.07;fullmask;0.2;arrow_left.png;c;0.2722576999985904;0.28026909999971394;23339.891247;2.9000002541579306e-06;0.49993580000227666;0.5399563999999373;0.5515096000017365;0.6212804999995569;0.7519252999991295;1.0302836000009847;0;0;1;0;0.01
5;1;4;22;letter181;letter357;incongruent;0.04;letter181;0.05;0.07;fullmask;0.2;arrow_right.png;m;0.25890200000139885;0.2603353000013158;23341.4993282;3.0999981390777975e-06;0.503104199997324;0.5431287999999768;0.5550740999970003;0.624841099997866;0.7544067999988329;1.013431600000331;0;0;1;0;0.01
5;1;4;23;letter181;letter357;congruent;0.04;letter181;0.05;0.07;fullmask;0.2;arrow_left.png;c;0.2605151999996451;0.27030050000030315;23343.0914147;2.9999973776284605e-06;0.49561699999685516;0.5356407999970543;0.5470408000001044;0.617712199997186;0.7473656000001938;1.01595709999674;0;0;1;0;0.01
5;1;4;24;letter181;letter357;congruent;0.04;letter357;0.05;0.07;fullmask;0.2;arrow_right.png;m;0.3050539999967441;0.3102300999998988;23344.7472459;2.9000002541579306e-06;0.4955365999994683;0.5355545999991591;0.5472155999996176;0.6171689999973751;0.7476825999983703;1.0559185999991314;0;0;1;0;0.01
5;1;4;25;letter181;letter357;congruent;0.04;letter357;0.05;0.07;fullmask;0.2;arrow_right.png;m;0.3020977000014682;0.31009500000072876;23346.395261;3.0000010156072676e-06;0.5032186999997066;0.5432469999977911;0.5548108000002685;0.6245758999975806;0.7550561999996717;1.0635779000003822;0;0;1;0;0.01
5;1;4;26;letter181;letter357;congruent;0.04;letter181;0.05;0.07;fullmask;0.2;arrow_left.png;c;0.3170451999976649;0.3200665999975172;23348.051279;2.9999973776284605e-06;0.4978336999993189;0.537848899999517;0.5494378999974288;0.6191091000000597;0.7497680999986187;1.0682047999980568;0;0;1;0;0.01
5;1;4;27;letter181;letter357;congruent;0.04;letter181;0.05;0.07;fullmask;0.2;arrow_left.png;c;0.29623309999806224;0.30028349999702186;23349.69125;2.9999973776284605e-06;0.4999547999977949;0.5400190000000293;0.5512931999983266;0.6211909999983618;0.751738099999784;1.0503238999990572;0;0;1;0;0.01
5;1;4;28;letter181;letter357;incongruent;0.04;letter181;0.05;0.07;fullmask;0.2;arrow_right.png;m;0.2866911000019172;0.2900797000002058;23351.3233437;3.0000010156072676e-06;0.504990600002202;0.5450010000022303;0.5568979000017862;0.6264945000002626;0.7570568000010098;1.0453336000027775;0;0;1;0;0.01
5;1;4;29;letter181;letter357;congruent;0.04;letter181;0.05;0.07;fullmask;0.2;arrow_left.png;c;0.2714850000011211;0.28021950000038487;23352.9394613;3.0000010156072676e-06;0.5030834999997751;0.5431051999985357;0.5552782999984629;0.6249736999998277;0.7546312999984366;1.0334325000003446;0;0;1;0;0.01
5;1;4;30;letter181;letter357;incongruent;0.04;letter357;0.05;0.07;fullmask;0.2;arrow_left.png;c;0.30701369999951567;0.31022500000108266;23354.5953619;3.1000017770566046e-06;0.5005079000002297;0.5405255000005127;0.5520204000022204;0.6219283000027644;0.7524893000008888;1.0608716000024287;0;0;1;0;0.01
5;1;4;31;letter181;letter357;incongruent;0.04;letter181;0.05;0.07;fullmask;0.2;arrow_right.png;c;0.21581119999973453;0.2203442999998515;23356.1552072;3.2999996619764715e-06;0.5044625000009546;0.5444769999994605;0.555960599998798;0.6256742999976268;0.756293899998127;0.9747575000001234;0;0;1;0;0.01
5;1;4;32;letter181;letter357;congruent;0.04;letter357;0.05;0.07;fullmask;0.2;arrow_right.png;m;0.3083129000006011;0.3102331000009144;23357.8193733;2.7999994927085936e-06;0.5033819999989646;0.5434036000006017;0.5555454999994254;0.6254485999997996;0.7550185000000056;1.0637473999995564;0;0;1;0;0.01
5;1;4;33;letter181;letter357;congruent;0.04;letter357;0.05;0.07;fullmask;0.2;arrow_right.png;m;0.3055249000026379;0.31021810000311234;23359.4673369;3.2999996619764715e-06;0.502736400001595;0.542705300002126;0.554543599999306;0.6242584000028728;0.7548874000021897;1.06304850000015;0;0;1;0;0.01
5;1;4;34;letter181;letter357;congruent;0.04;letter357;0.05;0.07;fullmask;0.2;arrow_right.png;m;0.3526739999979327;0.36078859999906854;23361.1552882;2.9000002541579306e-06;0.496213300000818;0.5362433999980567;0.5478232999994361;0.6174228999989282;0.7479821999986598;0.8776486999995541;0;0;0;1;0.01
5;1;4;35;letter181;letter357;incongruent;0.04;letter357;0.05;0.07;fullmask;0.2;arrow_left.png;m;0.2735214000022097;0.28031280000141123;23362.5872539;2.9000002541579306e-06;0.5044262000010349;0.5444444000022486;0.5561706000007689;0.6260753000024124;0.7566393000015523;1.034757500001433;0;0;1;0;0.01
5;1;4;36;letter181;letter357;congruent;0.04;letter181;0.05;0.07;fullmask;0.2;arrow_left.png;c;0.33284740000090096;0.34093550000034156;23364.2672369;3.2999996619764715e-06;0.5039051999992807;0.5439239999977872;0.5552733000004082;0.6258756999995967;0.7555281999993895;0.8861810999987938;0;0;0;1;0.01
5;1;4;37;letter181;letter357;congruent;0.04;letter181;0.05;0.07;fullmask;0.2;arrow_left.png;c;0.3400266999997257;0.350080700001854;23365.7554006;3.0000010156072676e-06;0.49674940000113565;0.5367747000018426;0.5481469000005745;0.6179233000002569;0.7485745000012685;0.8782261000014842;0;0;0;1;0.01
5;1;4;38;letter181;letter357;incongruent;0.04;letter357;0.05;0.07;fullmask;0.2;arrow_left.png;c;0.442511099998228;0.4507149999990361;23367.3392315;2.9000002541579306e-06;0.4954728000011528;0.5354862999993202;0.5472399999998743;0.6169163000013214;0.7475731000013184;0.8772232999981497;0;0;0;1;0.01
5;1;4;39;letter181;letter357;incongruent;0.04;letter357;0.05;0.07;fullmask;0.2;arrow_left.png;m;0.2272348000005877;0.22943920000034268;23368.7152424;2.9999973776284605e-06;0.502843499998562;0.5428653999988455;0.554892000000109;0.6248034999989613;0.7543533999996725;0.9831567999972322;0;0;1;0;0.01
5;1;4;40;letter181;letter357;incongruent;0.04;letter181;0.05;0.07;fullmask;0.2;arrow_right.png;m;0.2828810999999405;0.29024850000132574;23370.3314855;3.2999996619764715e-06;0.49699470000268775;0.5370118000028015;0.5486344000019017;0.6183080000009795;0.7489629000010609;1.037338300000556;0;0;1;0;0.01
5;1;4;41;letter181;letter357;incongruent;0.04;letter357;0.05;0.07;fullmask;0.2;arrow_left.png;c;0.315594499999861;0.320092999998451;23371.9952497;2.9000002541579306e-06;0.49892040000122506;0.5389505999992252;0.5505736000013712;0.6202498999991803;0.7509014999995998;1.0692780000026687;0;0;1;0;0.01
5;1;4;42;letter181;letter357;incongruent;0.04;letter357;0.05;0.07;fullmask;0.2;arrow_left.png;c;0.19244830000025104;0.20038670000212733;23373.5233027;3.0999981390777975e-06;0.4959932999990997;0.5360139000003983;0.5477910000008706;0.6174620999991021;0.7481765999982599;0.7481788999975834;0;1;0;0;0.01
5;1;4;43;letter181;letter357;incongruent;0.04;letter181;0.05;0.07;fullmask;0.2;arrow_right.png;m;0.33397409999815864;0.3401300999976229;23374.9952433;3.0000010156072676e-06;0.49566000000049826;0.535697600000276;0.5470015999999305;0.6168930999992881;0.7474565000011353;0.8771032000004197;0;0;0;1;0.01
5;1;4;44;letter181;letter357;congruent;0.04;letter181;0.05;0.07;fullmask;0.2;arrow_left.png;c;0.2690242999997281;0.2702010999964841;23376.4113547;2.9999973776284605e-06;0.503669899997476;0.5436995999989449;0.5551408999999694;0.6258192999994208;0.7554705000002286;1.0240144999988843;0;0;1;0;0.01
5;1;4;45;letter181;letter357;incongruent;0.04;letter181;0.05;0.07;fullmask;0.2;arrow_right.png;m;0.239187099999981;0.2492562999977963;23378.0033326;3.1000017770566046e-06;0.49584820000018226;0.5358553000005486;0.5480740999992122;0.6177693999998155;0.747439900002064;0.9961589000013191;0;0;1;0;0.01
5;1;4;46;letter181;letter357;congruent;0.04;letter357;0.05;0.07;fullmask;0.2;arrow_right.png;m;0.29084599999987404;0.30022850000023027;23379.6354265;3.0999981390777975e-06;0.4975717999986955;0.5375899999999092;0.549236299997574;0.6190091999997094;0.7495702999985951;1.0479341999998724;0;0;1;0;0.01
5;1;4;47;letter181;letter357;congruent;0.04;letter357;0.05;0.07;fullmask;0.2;arrow_right.png;m;0.31351989999893703;0.3200524000021687;23381.2992799;3.0000010156072676e-06;0.4986008999985643;0.5386160000016389;0.5503822999999102;0.6200328999984777;0.7506949999988137;1.0689496000013605;0;0;1;0;0.01
5;1;4;48;letter181;letter357;incongruent;0.04;letter181;0.05;0.07;fullmask;0.2;arrow_right.png;m;0.29205279999951017;0.30026019999786513;23382.9392354;3.0999981390777975e-06;0.4961220000004687;0.536156199999823;0.5482679000015196;0.6181724999987637;0.7477378000003227;1.0464810999983456;0;0;1;0;0.01
5;1;5;1;letter181;letter357;incongruent;0.04;letter181;0.05;0.07;fullmask;0.2;arrow_right.png;m;0.2956021999998484;0.3002439999982016;23390.9872361;3.0000010156072676e-06;0.4959627000025648;0.53597880000234;0.5473934000001464;0.6171966000001703;0.7478479000019433;1.0463306999990891;0;0;1;0;0.01
5;1;5;2;letter181;letter357;congruent;0.04;letter181;0.05;0.07;fullmask;0.2;arrow_left.png;m;0.1819541000004392;0.18951150000066264;23392.5152275;3.0999981390777975e-06;0.4965924999996787;0.5366089999988617;0.5485981999991054;0.6183748999974341;0.7381104999985837;0.73811299999943;0;1;0;0;0.01
5;1;5;3;letter181;letter357;congruent;0.04;letter181;0.05;0.07;fullmask;0.2;arrow_left.png;c;0.32367819999853964;0.33003459999963525;23393.9872282;2.9000002541579306e-06;0.5037974000006216;0.5438377000027685;0.5552388000032806;0.6259151000012935;0.7555684000035399;1.0841802000031748;0;0;1;0;0.01
5;1;5;4;letter181;letter357;incongruent;0.04;letter181;0.05;0.07;fullmask;0.2;arrow_right.png;m;0.2768495999989682;0.2812874000010197;23395.6112354;3.0000010156072676e-06;0.5050078999993275;0.5450301999990188;0.5562035000002652;0.6269702999998117;0.75653610000154;1.0353383000001486;0;0;1;0;0.01
5;1;5;5;letter181;letter357;congruent;0.04;letter181;0.05;0.07;fullmask;0.2;arrow_left.png;c;0.35374679999949876;0.361056900001131;23397.2993735;3.2000025385059416e-06;0.4958781000023009;0.5359018000017386;0.5472961000014038;0.6179704000023776;0.7476185000014084;0.8782707000027585;0;0;0;1;0.01
5;1;5;6;letter181;letter357;congruent;0.04;letter357;0.05;0.07;fullmask;0.2;arrow_right.png;m;0.28264599999965867;0.2902785000005679;23398.7392247;3.0000010156072676e-06;0.5047196000014083;0.5447335999997449;0.5560824999993201;0.6259774999998626;0.7565386999995098;1.0450368000019807;0;0;1;0;0.01
5;1;5;7;letter181;letter357;congruent;0.04;letter357;0.05;0.07;fullmask;0.2;arrow_right.png;m;0.275422200000321;0.28020139999716775;23400.3632547;3.0999981390777975e-06;0.5041963000003307;0.5442302999981621;0.555773500000214;0.625442299999122;0.7561010999997961;1.0345114000010653;0;0;1;0;0.01
5;1;5;8;letter181;letter357;incongruent;0.04;letter357;0.05;0.07;fullmask;0.2;arrow_left.png;m;0.2704902999976184;0.2803081999991264;23401.9792837;2.9999973776284605e-06;0.503674299998238;0.5436936999976751;0.555192599997099;0.6250946999971347;0.7556836999974621;1.0340216999975382;0;0;1;0;0.01
5;1;5;9;letter181;letter357;incongruent;0.04;letter357;0.05;0.07;fullmask;0.2;arrow_left.png;c;0.33131409999987227;0.33995929999946384;23403.6512205;3.0000010156072676e-06;0.49868740000238176;0.5387255999994522;0.5502806000004057;0.6199955000010959;0.7505574999995588;0.8802238000025682;0;0;0;1;0.01
5;1;5;10;letter181;letter357;incongruent;0.04;letter357;0.05;0.07;fullmask;0.2;arrow_left.png;c;0.2827389000012772;0.29026770000200486;23405.0834063;2.9000002541579306e-06;0.49755999999979394;0.5375738999973692;0.5489753000001656;0.6196454999990237;0.7493184999984805;1.0379104999992705;0;0;1;0;0.01
5;1;5;11;letter181;letter357;incongruent;0.04;letter181;0.05;0.07;fullmask;0.2;arrow_right.png;m;0.32547990000239224;0.3301757000008365;23406.7472209;3.2999996619764715e-06;0.5007929999992484;0.54077789999792;0.5522254999996221;0.6221296999974584;0.7526919999982056;1.0811633999983314;0;0;1;0;0.01
5;1;5;12;letter181;letter357;congruent;0.04;letter357;0.05;0.07;fullmask;0.2;arrow_right.png;c;0.22382270000161952;0.23030600000129198;23408.3072231;3.0000010156072676e-06;0.4950676000007661;0.535089600001811;0.5471070000021427;0.6167860000023211;0.7464386999999988;0.9753837999996904;0;0;1;0;0.01
5;1;5;13;letter181;letter357;incongruent;0.04;letter181;0.05;0.07;fullmask;0.2;arrow_right.png;m;0.3646712999980082;0.3700714999977208;23410.0192216;3.0000010156072676e-06;0.49602059999961057;0.5360388000008243;0.5482047000004968;0.6181075999993482;0.7476748999979463;0.8783263000004808;0;0;0;1;0.01
5;1;5;14;letter181;letter357;incongruent;0.04;letter357;0.05;0.07;fullmask;0.2;arrow_left.png;c;0.25404619999972056;0.2603521999990335;23411.4193467;3.4000004234258085e-06;0.5022537000004377;0.5422812000033446;0.5542097000034119;0.6238886000028288;0.7534547000032035;1.0125844000031066;0;0;1;0;0.01
5;1;5;15;letter181;letter357;congruent;0.04;letter181;0.05;0.07;fullmask;0.2;arrow_left.png;c;0.2770629000006011;0.28018019999944954;23413.0433003;3.0999981390777975e-06;0.502622899999551;0.5426369999986491;0.554485199998453;0.6241635999977007;0.754810999998881;1.0329553999981727;0;0;1;0;0.01
5;1;5;16;letter181;letter357;congruent;0.04;letter357;0.05;0.07;fullmask;0.2;arrow_right.png;m;0.2800446000001102;0.29026410000005853;23414.6674455;2.7999994927085936e-06;0.504324400000769;0.5443812000012258;0.5563210000000254;0.6262477999989642;0.7556547000021965;1.0447048000023642;0;0;1;0;0.01
5;1;5;17;letter181;letter357;congruent;0.04;letter181;0.05;0.07;fullmask;0.2;arrow_left.png;c;0.29700050000246847;0.3001194000025862;23416.3151623;2.9000002541579306e-06;0.5046376000027522;0.5446571000029508;0.5563309999997728;0.6260094999997818;0.7566738000023179;1.054983900001389;0;0;1;0;0.01
5;1;5;18;letter181;letter357;incongruent;0.04;letter181;0.05;0.07;fullmask;0.2;arrow_right.png;m;0.25565959999948973;0.25947110000197426;23417.9153131;2.9000002541579306e-06;0.4981506000003719;0.5381597000014153;0.5502699999997276;0.6201729999993404;0.7497350000012375;1.0084619000008388;0;0;1;0;0.01
5;1;5;19;letter181;letter357;congruent;0.04;letter357;0.05;0.07;fullmask;0.2;arrow_right.png;m;0.23728549999941606;0.24037569999927655;23419.5072018;3.0000010156072676e-06;0.5049278999977105;0.544933499997569;0.5562933000001067;0.6270659000001615;0.7567213000002084;0.995252699998673;0;0;1;0;0.01
5;1;5;20;letter181;letter357;congruent;0.04;letter357;0.05;0.07;fullmask;0.2;arrow_right.png;m;0.3601509000000078;0.3700295000016922;23421.2112636;2.9999973776284605e-06;0.4965537999996741;0.536575999998604;0.5480925999981991;0.6178648999994039;0.7485133999980462;0.8786641999977292;0;0;0;1;0.01
5;1;5;21;letter181;letter357;incongruent;0.04;letter181;0.05;0.07;fullmask;0.2;arrow_right.png;m;0.3045397000023513;0.3102165000018431;23422.6672111;3.3000032999552786e-06;0.4989857000000484;0.5389869000027829;0.5510968000016874;0.6209832000022288;0.7505546000029426;1.0593274000020756;0;0;1;0;0.01
5;1;5;22;letter181;letter357;incongruent;0.04;letter357;0.05;0.07;fullmask;0.2;arrow_left.png;c;0.31035590000101365;0.3201595999998972;23424.3232593;2.9000002541579306e-06;0.504781899999216;0.5448131999983161;0.556082899998728;0.6268531999994593;0.7565077999970526;1.0751347999976133;0;0;1;0;0.01
5;1;5;23;letter181;letter357;incongruent;0.04;letter357;0.05;0.07;fullmask;0.2;arrow_left.png;c;0.2951558999993722;0.30026079999879585;23425.9792112;3.1999989005271345e-06;0.5044490000000224;0.5444600999981049;0.5558321999997133;0.625735599998734;0.7562973999993119;1.0548036999971373;0;0;1;0;0.01
5;1;5;24;letter181;letter357;congruent;0.04;letter181;0.05;0.07;fullmask;0.2;arrow_left.png;c;0.33600339999975404;0.34014790000219364;23427.6512136;3.0999981390777975e-06;0.49950360000002547;0.5395222999977705;0.5509934999972756;0.620807799998147;0.7514565999990737;0.8810978999972576;0;0;0;1;0.01
5;1;5;25;letter181;letter357;incongruent;0.04;letter181;0.05;0.07;fullmask;0.2;arrow_right.png;m;0.3008778000003076;0.3103317999994033;23429.107389;3.0000010156072676e-06;0.5047784000016691;0.5447994000023755;0.5566214000027685;0.626524999999674;0.7561089000009815;1.065144700001838;0;0;1;0;0.01
5;1;5;26;letter181;letter357;incongruent;0.04;letter181;0.05;0.07;fullmask;0.2;arrow_right.png;m;0.25781369999822346;0.2602318999997806;23430.7152153;2.8999966161791235e-06;0.503499999998894;0.5435199999992619;0.5551724999968428;0.6249422999972012;0.7555060999984562;1.0138365999991947;0;0;1;0;0.01
5;1;5;27;letter181;letter357;congruent;0.04;letter181;0.05;0.07;fullmask;0.2;arrow_left.png;c;0.29894700000295416;0.30020520000107354;23432.3472226;2.9000002541579306e-06;0.4988554999981716;0.5388751999998931;0.5503726999995706;0.6201484000011988;0.7507990000012796;1.0492014000010386;0;0;1;0;0.01
5;1;5;28;letter181;letter357;congruent;0.04;letter181;0.05;0.07;fullmask;0.2;arrow_left.png;c;0.2897460000021965;0.29006550000121933;23433.979296;3.0000010156072676e-06;0.5024167000010493;0.5424411999993026;0.554165199999261;0.623837300001469;0.7544985999993514;1.0427673000012874;0;0;1;0;0.01
5;1;5;29;letter181;letter357;congruent;0.04;letter181;0.05;0.07;fullmask;0.2;arrow_left.png;c;0.29045659999974305;0.30021839999972144;23435.6113893;2.9999973776284605e-06;0.5001742999993439;0.5401855999989493;0.552248399999371;0.6219253999988723;0.7515772999977344;1.0505295999973896;0;0;1;0;0.01
5;1;5;30;letter181;letter357;incongruent;0.04;letter357;0.05;0.07;fullmask;0.2;arrow_left.png;c;0.29789419999724487;0.3002115999988746;23437.259206;2.9000002541579306e-06;0.4961708999981056;0.5362234999993234;0.5475643999998283;0.6183474999997998;0.7479738999973051;1.0465120999979263;0;0;1;0;0.01
5;1;5;31;letter181;letter357;congruent;0.04;letter357;0.05;0.07;fullmask;0.2;arrow_right.png;m;1.8165382000006502;1.8210572999996657;23440.4192011;3.1999989005271345e-06;0.5021392000016931;0.5421702999992704;0.5538425000013376;0.6236109000019496;0.7541751999997359;0.8838284000012209;0;0;0;1;0.01
5;1;5;32;letter181;letter357;congruent;0.04;letter357;0.05;0.07;fullmask;0.2;arrow_right.png;m;0.8066204999995534;0.8108146999984456;23442.371292;2.9999973776284605e-06;0.5023497000001953;0.5423706000001403;0.5541556999996828;0.6239274999970803;0.7544869999983348;0.884141799997451;0;0;0;1;0.01
5;1;5;33;letter181;letter357;incongruent;0.04;letter357;0.05;0.07;fullmask;0.2;arrow_left.png;c;0.31176830000185873;0.32017009999981383;23443.827366;3.0999981390777975e-06;0.5045155999978306;0.5445470999984536;0.555981099998462;0.6257482000000891;0.7563077999984671;1.074863900001219;0;0;1;0;0.01
5;1;5;34;letter181;letter357;congruent;0.04;letter357;0.05;0.07;fullmask;0.2;arrow_right.png;m;0.2843871999975818;0.2902431999973487;23445.4511995;2.9000002541579306e-06;0.49724369999967166;0.5372596000015619;0.5488831000002392;0.6186578000015288;0.7493087000002561;1.0375978000010946;0;0;1;0;0.01
5;1;5;35;letter181;letter357;incongruent;0.04;letter181;0.05;0.07;fullmask;0.2;arrow_right.png;m;0.34135629999946104;0.3499807000007422;23447.1392013;2.9999973776284605e-06;0.5032140000002983;0.5432311999975354;0.5548429999980726;0.62460640000063;0.7551696999980777;0.8848187999974471;0;0;0;1;0.01
5;1;5;36;letter181;letter357;incongruent;0.04;letter357;0.05;0.07;fullmask;0.2;arrow_left.png;c;0.29073259999859147;0.301120299998729;23448.5792007;3.2999996619764715e-06;0.5022171000018716;0.5422409000020707;0.5535049000027357;0.6241793000008329;0.753833200000372;1.0525733000031323;0;0;1;0;0.01
5;1;5;37;letter181;letter357;incongruent;0.04;letter181;0.05;0.07;fullmask;0.2;arrow_right.png;m;0.2816200999986904;0.290285799997946;23450.2112347;3.1000017770566046e-06;0.5018369999997958;0.5418521999999939;0.5532144000026165;0.6231275000027381;0.7536809000011999;1.0421779000025708;0;0;1;0;0.01
5;1;5;38;letter181;letter357;congruent;0.04;letter357;0.05;0.07;fullmask;0.2;arrow_right.png;m;0.3240545000007842;0.33017710000058287;23451.8752082;3.0000010156072676e-06;0.4983780000002298;0.5384072999986529;0.5502534000006563;0.6201550000005227;0.7497226999985287;1.0787595000001602;0;0;1;0;0.01
5;1;5;39;letter181;letter357;congruent;0.04;letter181;0.05;0.07;fullmask;0.2;arrow_left.png;c;0.30935669999962556;0.3101253999993787;23453.5312657;2.9999973776284605e-06;0.5022140000000945;0.5422341999983473;0.5537767999994685;0.6244587999972282;0.7541103000003204;1.062577999997302;0;0;1;0;0.01
5;1;5;40;letter181;letter357;incongruent;0.04;letter357;0.05;0.07;fullmask;0.2;arrow_left.png;c;0.6897911999985809;0.6901280000020051;23455.5632857;3.0999981390777975e-06;0.49848320000091917;0.5385113000011188;0.55056649999824;0.6204694000007294;0.7500360999983968;0.8806893000000855;0;0;0;1;0.01
5;1;5;41;letter181;letter357;congruent;0.04;letter181;0.05;0.07;fullmask;0.2;arrow_left.png;c;0.3547837000005529;0.36009550000017043;23457.0592;3.0999981390777975e-06;0.5016982999986794;0.5417124000014155;0.5535281999982544;0.6234469999981229;0.7529963999986649;0.8836468999979843;0;0;0;1;0.01
5;1;5;42;letter181;letter357;congruent;0.04;letter181;0.05;0.07;fullmask;0.2;arrow_left.png;c;0.3343722000026901;0.34100930000204244;23458.5392285;2.9999973776284605e-06;0.5020533999995678;0.5420816000005289;0.5533670000004349;0.6240433999992092;0.7536930999995093;0.8843438999974751;0;0;0;1;0.01
5;1;5;43;letter181;letter357;congruent;0.04;letter357;0.05;0.07;fullmask;0.2;arrow_right.png;m;0.30121820000204025;0.3102918000004138;23459.9873402;3.0000010156072676e-06;0.4976717000026838;0.5377036000027147;0.5492884000013873;0.6190568000019994;0.7497199999997974;1.0580322000023443;0;0;1;0;0.01
5;1;5;44;letter181;letter357;incongruent;0.04;letter357;0.05;0.07;fullmask;0.2;arrow_left.png;c;0.3061588999989908;0.3101003999981913;23461.6433109;3.0000010156072676e-06;0.5045649999992747;0.5445762999988801;0.5561491000007663;0.6258334999984072;0.7564824000000954;1.064908899999864;0;0;1;0;0.01
5;1;5;45;letter181;letter357;incongruent;0.04;letter181;0.05;0.07;fullmask;0.2;arrow_right.png;m;0.27917320000051404;0.2801802000030875;23463.267212;3.0000010156072676e-06;0.5026297000003979;0.5426532999990741;0.5540500999995857;0.6238219000006211;0.7543909999985772;1.0329878000011377;0;0;1;0;0.01
5;1;5;46;letter181;letter357;congruent;0.04;letter357;0.05;0.07;fullmask;0.2;arrow_right.png;m;0.33756739999807905;0.3399381999988691;23464.9472802;3.1000017770566046e-06;0.5029198000011093;0.5429387000003771;0.554975300001388;0.6245621000016399;0.7551248000017949;0.8847993000017595;0;0;0;1;0.01
5;1;5;47;letter181;letter357;incongruent;0.04;letter357;0.05;0.07;fullmask;0.2;arrow_left.png;c;0.2884787000002689;0.2902014999999665;23466.3792923;3.0999981390777975e-06;0.49869159999798285;0.5387067999981809;0.5508960000006482;0.6206034999995609;0.7502545999996073;1.0390606000000844;0;0;1;0;0.01
5;1;5;48;letter181;letter357;incongruent;0.04;letter181;0.05;0.07;fullmask;0.2;arrow_right.png;m;0.3217707999974664;0.3301839999985532;23468.0431592;2.9000002541579306e-06;0.5025658000013209;0.5425969999996596;0.5542868000011367;0.6241918999985501;0.7547522999993816;1.0829327999999805;0;0;1;0;0.01
5;2;12;1;letter190;letter169;congruent;0.04;letter169;0.09;0.07;fullmask;0.2;arrow_right.png;m;0.2573607999984233;0.26049330000023474;24639.2506439;3.1999989005271345e-06;0.49536910000097123;0.5353821999997308;0.5870842000003904;0.6570229999997537;0.7866706999993767;1.0457260000002861;0;0;1;0;0.01
5;2;12;2;letter190;letter169;congruent;0.04;letter169;0.09;0.07;fullmask;0.2;arrow_right.png;m;0.29413299999941955;0.30012149999674875;24640.9386439;3.0999981390777975e-06;0.5004598999985319;0.5404918999993242;0.5923427999987325;0.6620222999990801;0.7926580999992439;1.0908365999966918;0;0;1;0;0.01
5;2;12;3;letter190;letter169;incongruent;0.04;letter190;0.09;0.07;fullmask;0.2;arrow_right.png;c;0.3656436000019312;0.37102670000240323;24642.6907399;3.1999989005271345e-06;0.5009252999989258;0.5409488000004785;0.5923206000006758;0.6630938000016613;0.7926427999991574;0.9232947999989847;0;0;0;1;0.01
5;2;12;4;letter190;letter169;congruent;0.04;letter169;0.09;0.07;fullmask;0.2;arrow_right.png;m;0.3101838000002317;0.3200686999989557;24644.1867102;3.1999989005271345e-06;0.4994014000003517;0.5394156000002113;0.5912323999982618;0.660910700000386;0.7915625999994518;1.1098184999973455;0;0;1;0;0.01
5;2;12;5;letter190;letter169;incongruent;0.04;letter190;0.09;0.07;fullmask;0.2;arrow_right.png;m;0.2154061000001093;0.22042200000214507;24645.8026378;2.7999994927085936e-06;0.5025889000025927;0.5426162000003387;0.594015999999101;0.6637972000025911;0.7944427000002179;1.0129242000002705;0;0;1;0;0.01
5;2;12;6;letter190;letter169;congruent;0.04;letter190;0.09;0.07;fullmask;0.2;arrow_left.png;c;0.19588670000302955;0.1994786000032036;24647.3946284;2.9999973776284605e-06;0.4990364999976009;0.5390403999990667;0.5909312999974645;0.6607074999992619;0.7904107999966072;0.7904130999995687;0;1;0;0;0.01
5;2;12;7;letter190;letter169;congruent;0.04;letter190;0.09;0.07;fullmask;0.2;arrow_left.png;c;0.3332802000004449;0.34011109999846667;24648.9226439;3.0000010156072676e-06;0.4957508000006783;0.5357822000005399;0.5873783999995794;0.6571578000002773;0.7878004000012879;0.9174626000021817;0;0;0;1;0.01
5;2;12;8;letter190;letter169;incongruent;0.04;letter169;0.09;0.07;fullmask;0.2;arrow_left.png;c;0.2608335000004445;0.2704389999998966;24650.3708841;3.2999996619764715e-06;0.4982650999991165;0.538275099999737;0.589578300001449;0.6594822000006388;0.7900407000015548;1.0588126000002376;0;0;1;0;0.01
5;2;12;9;letter190;letter169;incongruent;0.04;letter169;0.09;0.07;fullmask;0.2;arrow_left.png;m;0.23698479999802657;0.24038019999716198;24652.0185924;3.0000010156072676e-06;0.5048515000016778;0.5448720999993384;0.5966843999995035;0.6664610000007087;0.7971089999991818;1.0351971000018239;0;0;1;0;0.01
5;2;12;10;letter190;letter169;incongruent;0.04;letter190;0.09;0.07;fullmask;0.2;arrow_right.png;m;0.3023974999996426;0.31019240000023274;24653.7146348;2.9000002541579306e-06;0.49575710000135587;0.5357771000017237;0.5871631000009074;0.657940500001132;0.7875955999988946;1.096147000000201;0;0;1;0;0.01
5;2;12;11;letter190;letter169;incongruent;0.04;letter169;0.09;0.07;fullmask;0.2;arrow_left.png;c;0.30947329999980866;0.3110868000003393;24655.4025894;2.9999973776284605e-06;0.49508699999933015;0.535152599997673;0.5862990999994508;0.6570707999999286;0.7866264999975101;1.0955004999996163;0;0;1;0;0.01
5;2;12;12;letter190;letter169;congruent;0.04;letter190;0.09;0.07;fullmask;0.2;arrow_left.png;c;0.2758635000027425;0.2803736999994726;24657.0506969;3.0000010156072676e-06;0.4952432999998564;0.5352636000025086;0.5870966000002227;0.6568798000007519;0.7875268000025244;1.0656230999993568;0;0;1;0;0.01
5;2;12;13;letter190;letter169;congruent;0.04;letter169;0.09;0.07;fullmask;0.2;arrow_right.png;c;0.25346429999990505;0.26040329999887035;24658.6990009;3.0000010156072676e-06;0.49532449999969685;0.5353425000030256;0.5868069000025571;0.6567047000025923;0.7872655999999552;1.0456838999998581;0;0;1;0;0.01
5;2;12;14;letter190;letter169;incongruent;0.04;letter190;0.09;0.07;fullmask;0.2;arrow_right.png;m;0.3159841000015149;0.3201093999996374;24660.4026372;3.0000010156072676e-06;0.49693760000081966;0.5369605999985652;0.5884833999989496;0.6592092999999295;0.788864599999215;1.1073322000011103;0;0;1;0;0.01
5;2;12;15;letter190;letter169;incongruent;0.04;letter190;0.09;0.07;fullmask;0.2;arrow_right.png;m;0.31662729999879957;0.32009760000073584;24662.1147054;3.0999981390777975e-06;0.49935159999949974;0.5393757999991067;0.5912245999970764;0.6609063999967475;0.7915287999967404;1.1097759999975096;0;0;1;0;0.01
5;2;12;16;letter190;letter169;congruent;0.04;letter169;0.09;0.07;fullmask;0.2;arrow_right.png;m;0.277412399998866;0.28031170000031125;24663.7866263;3.0000010156072676e-06;0.5048807000021043;0.5448952000006102;0.5967812000017148;0.6666891000022588;0.7962461000024632;1.0752659999998286;0;0;1;0;0.01
5;2;12;17;letter190;letter169;congruent;0.04;letter190;0.09;0.07;fullmask;0.2;arrow_left.png;c;0.32881950000228244;0.3300767000000633;24665.4986371;3.2000025385059416e-06;0.4981368000007933;0.5381382000014128;0.5895643000003474;0.6593341000007058;0.7898989000022993;1.1185275000025285;0;0;1;0;0.01
5;2;12;18;letter190;letter169;incongruent;0.04;letter169;0.09;0.07;fullmask;0.2;arrow_left.png;m;0.23298240000076476;0.239727899999707;24667.1146257;2.7999994927085936e-06;0.5000688000000082;0.5400833999992756;0.5922457000015129;0.6613658999995096;0.792022800000268;1.0304166999994777;0;0;1;0;0.01
5;2;12;19;letter190;letter169;congruent;0.04;letter169;0.09;0.07;fullmask;0.2;arrow_right.png;m;0.26802219999808585;0.2702079999980924;24668.8106528;2.9000002541579306e-06;0.49722900000051595;0.5372471000009682;0.58932509999795;0.6590236999982153;0.7886791999990237;1.057601299999078;0;0;1;0;0.01
5;2;12;20;letter190;letter169;incongruent;0.04;letter190;0.09;0.07;fullmask;0.2;arrow_right.png;m;0.24129520000133198;0.25025400000231457;24670.4346229;3.0000010156072676e-06;0.504954900003213;0.5449755000008736;0.5966813000013644;0.6663196000008611;0.7970084000007773;1.0453004000009969;0;0;1;0;0.01
5;2;12;21;letter190;letter169;incongruent;0.04;letter169;0.09;0.07;fullmask;0.2;arrow_left.png;m;0.24829379999937373;0.25034690000029514;24672.0826283;3.0000010156072676e-06;0.4960281000021496;0.5360484000011638;0.587709100000211;0.6574833000013314;0.7881350999996357;1.036379199998919;0;0;1;0;0.01
5;2;12;22;letter190;letter169;incongruent;0.04;letter169;0.09;0.07;fullmask;0.2;arrow_left.png;c;0.4489453999995021;0.4497188000023016;24673.914618;3.0999981390777975e-06;0.5033301000003121;0.5433596000002581;0.5953104999971401;0.6654887000004237;0.7946431999989727;0.9252921000006609;0;0;0;1;0.01
5;2;12;23;letter190;letter169;congruent;0.04;letter190;0.09;0.07;fullmask;0.2;arrow_left.png;c;0.3301869999995688;0.34001269999862416;24675.4267072;3.1999989005271345e-06;0.4997942999980296;0.5398223000011058;0.5915700000005018;0.6612494000000879;0.7918678999994881;0.9215508999986923;0;0;0;1;0.01
5;2;12;24;letter190;letter169;congruent;0.04;letter190;0.09;0.07;fullmask;0.2;arrow_left.png;c;0.36734030000297935;0.3710571000010532;24676.9946845;3.0000010156072676e-06;0.49884840000231634;0.5388514000005671;0.5904569000012998;0.66015900000275;0.790793100000883;0.9204639000017778;0;0;0;1;0.01
5;2;12;25;letter190;letter169;congruent;0.04;letter169;0.09;0.07;fullmask;0.2;arrow_right.png;m;0.2558253000024706;0.2602284000022337;24678.4346201;3.0000010156072676e-06;0.49836620000132825;0.538385500000004;0.590437999999267;0.6601209000000381;0.7897703999988153;1.0487339999999676;0;0;1;0;0.01
5;2;12;26;letter190;letter169;incongruent;0.04;letter169;0.09;0.07;fullmask;0.2;arrow_left.png;c;0.2788251999991189;0.2802628999997978;24680.0986857;3.3999967854470015e-06;0.500101599998743;0.5401238999984344;0.5921851999992214;0.6619580999977188;0.7916124999974272;1.0704639999967185;0;0;1;0;0.01
5;2;12;27;letter190;letter169;incongruent;0.04;letter190;0.09;0.07;fullmask;0.2;arrow_right.png;m;0.19371189999947092;0.19952439999906346;24681.6746347;3.1000017770566046e-06;0.49628170000141836;0.5362988999986555;0.5883653999990202;0.6582627999996475;0.7878892000007909;0.7878917000016372;0;1;0;0;0.01
5;2;12;28;letter190;letter169;incongruent;0.04;letter169;0.09;0.07;fullmask;0.2;arrow_left.png;c;0.32093370000075083;0.33013840000057826;24683.2026777;3.0000010156072676e-06;0.502917100002378;0.5429258000003756;0.5948917999994592;0.6646648000023561;0.7943185000003723;1.1232971999997972;0;0;1;0;0.01
5;2;12;29;letter190;letter169;incongruent;0.04;letter190;0.09;0.07;fullmask;0.2;arrow_right.png;c;0.23260940000182018;0.24039530000300147;24684.8347751;2.9000002541579306e-06;0.49545130000115023;0.5354665000013483;0.5867639999996754;0.6574228999998013;0.7871038999983284;1.0257798999991792;0;0;1;0;0.01
5;2;12;30;letter190;letter169;incongruent;0.04;letter190;0.09;0.07;fullmask;0.2;arrow_right.png;m;0.2425755999975081;0.24923959999796352;24686.4666171;2.9000002541579306e-06;0.5022508000001835;0.542281300000468;0.594410900001094;0.6640810999997484;0.7937335000024177;1.0426153000007616;0;0;1;0;0.01
5;2;12;31;letter190;letter169;congruent;0.04;letter190;0.09;0.07;fullmask;0.2;arrow_left.png;c;0.258321999997861;0.2603181999984372;24688.1226191;2.9000002541579306e-06;0.5012821999989683;0.5413028000002669;0.5926422999982606;0.6634129000012763;0.7930693999987852;1.0516476999982842;0;0;1;0;0.01
5;2;12;32;letter190;letter169;congruent;0.04;letter169;0.09;0.07;fullmask;0.2;arrow_right.png;m;0.2491291000005731;0.2502596000013;24689.7546111;2.9000002541579306e-06;0.5011097000024165;0.5411461000003328;0.5925980000029085;0.662380600002507;0.7929363000002922;1.041460600001301;0;0;1;0;0.01
5;2;12;33;letter190;letter169;incongruent;0.04;letter169;0.09;0.07;fullmask;0.2;arrow_left.png;c;0.33782050000081654;0.33996990000014193;24691.4746327;3.0000010156072676e-06;0.49901020000106655;0.5390360999990662;0.5907829999996466;0.6604213999999047;0.7910671999998158;0.9206550999988394;0;0;0;1;0.01
5;2;12;34;letter190;letter169;congruent;0.04;letter190;0.09;0.07;fullmask;0.2;arrow_left.png;c;0.40677040000082343;0.4100656999980856;24693.0747827;3.0000010156072676e-06;0.49683749999894644;0.5368061000008311;0.5887775000010151;0.6587005000001227;0.788243599999987;0.9188955999998143;0;0;0;1;0.01
5;2;12;35;letter190;letter169;incongruent;0.04;letter169;0.09;0.07;fullmask;0.2;arrow_left.png;c;0.3561620000000403;0.36105939999833936;24694.6346181;2.9000002541579306e-06;0.5036737000009452;0.5436968000030902;0.5950759000006656;0.6658483999999589;0.7955000000001746;0.9251541000012367;0;0;0;1;0.01
5;2;12;36;letter190;letter169;incongruent;0.04;letter190;0.09;0.07;fullmask;0.2;arrow_right.png;m;0.24498949999906472;0.250390499997593;24696.0746096;3.0000010156072676e-06;0.5014877000030538;0.5414836000018113;0.5930244000010134;0.6629292000034184;0.793490700001712;1.0418065000012575;0;0;1;0;0.01
5;2;12;37;letter190;letter169;congruent;0.04;letter169;0.09;0.07;fullmask;0.2;arrow_right.png;c;0.2681326000019908;0.27031450000140467;24697.7386211;2.7999994927085936e-06;0.4980658999993466;0.5380826000000525;0.589429999999993;0.6594881999990321;0.7898843999973906;1.0584295999979076;0;0;1;0;0.01
5;2;12;38;letter190;letter169;congruent;0.04;letter190;0.09;0.07;fullmask;0.2;arrow_left.png;c;0.32691720000002533;0.33031920000212267;24699.4586718;2.9999973776284605e-06;0.5038141999975778;0.5438116999976046;0.5953673000003619;0.6652248999998847;0.7958737999979348;1.1242237999977078;0;0;1;0;0.01
5;2;12;39;letter190;letter169;incongruent;0.04;letter190;0.09;0.07;fullmask;0.2;arrow_right.png;m;0.3039922999996634;0.3103344000010111;24701.1467828;3.0000010156072676e-06;0.49957310000172583;0.5395940000016708;0.5910861000011209;0.6609879999996338;0.7915505999990273;1.0999583000011626;0;0;1;0;0.01
5;2;12;40;letter190;letter169;incongruent;0.04;letter169;0.09;0.07;fullmask;0.2;arrow_left.png;c;0.3249197000004642;0.33115990000078455;24702.8587931;3.0000010156072676e-06;0.4979520999986562;0.5379705999985163;0.5894660999983898;0.659234099999594;0.7897922999982256;1.1183517999998003;0;0;1;0;0.01
5;2;12;41;letter190;letter169;congruent;0.04;letter190;0.09;0.07;fullmask;0.2;arrow_left.png;c;0.3092436999977508;0.31009069999709027;24704.5546688;3.2000025385059416e-06;0.49923540000236244;0.5392554999998538;0.5912032000014733;0.6608775000022433;0.7905228000017814;1.0996292000018002;0;0;1;0;0.01
5;2;12;42;letter190;letter169;congruent;0.04;letter169;0.09;0.07;fullmask;0.2;arrow_right.png;m;0.49647919999915757;0.5007218999999168;24706.4426057;2.9000002541579306e-06;0.5013995000008435;0.541428000000451;0.5929704000009224;0.6628758000006201;0.793437600001198;0.9230905000003986;0;0;0;1;0.01
5;2;12;43;letter190;letter169;congruent;0.04;letter169;0.09;0.07;fullmask;0.2;arrow_right.png;m;0.24535629999809316;0.2503913000000466;24707.8826069;3.0999981390777975e-06;0.504745099999127;0.5447716999988188;0.5963655999985349;0.6662685999981477;0.7968326999980491;1.0450919999966573;0;0;1;0;0.01
5;2;12;44;letter190;letter169;congruent;0.04;letter190;0.09;0.07;fullmask;0.2;arrow_left.png;c;0.398461300002964;0.40093310000156634;24709.6667248;3.1000017770566046e-06;0.49808130000019446;0.5381082000021706;0.5896740999996837;0.6593284000009589;0.7899858000018867;0.9196460000021034;0;0;0;1;0.01
5;2;12;45;letter190;letter169;incongruent;0.04;letter169;0.09;0.07;fullmask;0.2;arrow_left.png;c;0.41547669999999925;0.42103620000125375;24711.2746777;3.1000017770566046e-06;0.49802700000145705;0.5380656000015733;0.5895258999989892;0.6594303999991098;0.7899929000013799;0.9196453000004112;0;0;0;1;0.01
5;2;12;46;letter190;letter169;congruent;0.04;letter169;0.09;0.07;fullmask;0.2;arrow_right.png;m;0.2458076999973855;0.2502566000002844;24712.7066063;3.1999989005271345e-06;0.4984500999999;0.5384986999997636;0.5905204999980924;0.6602882000006502;0.7898566000003484;1.0388031999973464;0;0;1;0;0.01
5;2;12;47;letter190;letter169;congruent;0.04;letter190;0.09;0.07;fullmask;0.2;arrow_left.png;c;0.3113497999984247;0.32015749999845866;24714.4026709;2.9000002541579306e-06;0.49646109999957844;0.5364750000007916;0.5879998000018531;0.6577719999986584;0.7884245999994164;1.1068540999985998;0;0;1;0;0.01
5;2;12;48;letter190;letter169;incongruent;0.04;letter190;0.09;0.07;fullmask;0.2;arrow_right.png;c;2.618304100000387;2.6220740000026126;24718.4106764;2.9000002541579306e-06;0.4976567999983672;0.5376709000011033;0.5891516000010597;0.6590581999989809;0.7896188000013353;0.9192723999985901;0;0;0;1;0.01
5;2;13;1;letter190;letter169;incongruent;0.04;letter190;0.09;0.07;fullmask;0.2;arrow_right.png;m;0.28433700000095996;0.29031490000124904;24727.7945931;3.1999989005271345e-06;0.49596849999943515;0.5359867000006489;0.587815099999716;0.6577489999981481;0.7873058000004676;1.0763272999975015;0;0;1;0;0.01
5;2;13;2;letter190;letter169;incongruent;0.04;letter190;0.09;0.07;fullmask;0.2;arrow_right.png;m;0.24387209999986226;0.25037950000114506;24729.4345923;3.0000010156072676e-06;0.5045361000011326;0.5445619999991322;0.5957756999996491;0.6666694000014104;0.7962308999995003;1.0448754999997618;0;0;1;0;0.01
5;2;13;3;letter190;letter169;congruent;0.04;letter169;0.09;0.07;fullmask;0.2;arrow_right.png;c;0.2284351999987848;0.23042789999817614;24731.0506527;2.9000002541579306e-06;0.4973658999988402;0.5373852000011539;0.5890556000013021;0.6587502000002132;0.7894109000008029;1.0176869999995688;0;0;1;0;0.01
5;2;13;4;letter190;letter169;congruent;0.04;letter169;0.09;0.07;fullmask;0.2;arrow_right.png;m;0.18546860000060406;0.19037790000220411;24732.6185939;2.9999973776284605e-06;0.49685629999657976;0.536898199999996;0.5884211999982654;0.658150499999465;0.7787981999972544;0.7788006999981008;0;1;0;0;0.01
5;2;13;5;letter190;letter169;incongruent;0.04;letter190;0.09;0.07;fullmask;0.2;arrow_right.png;m;0.2508205000012822;0.26031670000156737;24734.0745919;2.9000002541579306e-06;0.5000962000012805;0.5401201000022411;0.5914181000007375;0.6621899999991001;0.7918405000018538;1.0504393000010168;0;0;1;0;0.01
5;2;13;6;letter190;letter169;congruent;0.04;letter190;0.09;0.07;fullmask;0.2;arrow_left.png;c;0.2654562999996415;0.2703256999993755;24735.7305931;3.0000010156072676e-06;0.49648900000102003;0.5365216000027431;0.5881153000009363;0.6580104000022402;0.7885707000023103;1.0568473000021186;0;0;1;0;0.01
5;2;13;7;letter190;letter169;congruent;0.04;letter190;0.09;0.07;fullmask;0.2;arrow_left.png;m;0.21864199999981793;0.22063790000174777;24737.3545963;3.1999989005271345e-06;0.5030532000018866;0.5430683000013232;0.5944128000010096;0.6651801000007254;0.7950189000002865;1.0133576000007452;0;0;1;0;0.01
5;2;13;8;letter190;letter169;incongruent;0.04;letter169;0.09;0.07;fullmask;0.2;arrow_left.png;c;0.24090249999790103;0.2493819999981497;24738.9785843;3.0000010156072676e-06;0.49691100000200095;0.5369303000006767;0.5889774999996007;0.6588702000008198;0.7884353000008559;1.037249500001053;0;0;1;0;0.01
5;2;13;9;letter190;letter169;incongruent;0.04;letter169;0.09;0.07;fullmask;0.2;arrow_left.png;m;0.25074030000178027;0.26025920000029146;24740.6188742;3.1999989005271345e-06;0.5002688999993552;0.5402788999999757;0.5917473999979848;0.6623559999970894;0.7920242999971379;1.0506181999990076;0;0;1;0;0.01
5;2;13;10;letter190;letter169;incongruent;0.04;letter169;0.09;0.07;fullmask;0.2;arrow_left.png;c;0.3591061000006448;0.36009719999856316;24742.3787052;3.1999989005271345e-06;0.49878739999985555;0.5388062999991234;0.5906808999970963;0.6605913999992481;0.7901518999969994;0.9208016999982647;0;0;0;1;0.01
5;2;13;11;letter190;letter169;congruent;0.04;letter190;0.09;0.07;fullmask;0.2;arrow_left.png;c;0.3219119999994291;0.3300410000010743;24743.882596;2.9999973776284605e-06;0.4991880999987188;0.5391896000000997;0.591158399998676;0.6609266999985266;0.7904875999993237;1.119568399997661;0;0;1;0;0.01
5;2;13;12;letter190;letter169;congruent;0.04;letter169;0.09;0.07;fullmask;0.2;arrow_right.png;m;0.2748777999986487;0.28017149999868707;24745.5465879;3.2999996619764715e-06;0.5023347999995167;0.5423578000009002;0.5942461000013282;0.6639242000019294;0.7945738999987952;1.072728899998765;0;0;1;0;0.01
5;2;13;13;letter190;letter169;congruent;0.04;letter169;0.09;0.07;fullmask;0.2;arrow_right.png;m;0.2919204999998328;0.30034799999702955;24747.2348811;3.0000010156072676e-06;0.4983213000014075;0.5383322999987286;0.5903986999983317;0.6602922999991279;0.7898562000009406;1.0887041999994835;0;0;1;0;0.01
5;2;13;14;letter190;letter169;incongruent;0.04;letter169;0.09;0.07;fullmask;0.2;arrow_left.png;c;0.37890900000274996;0.37991280000278493;24749.0025639;2.9999973776284605e-06;0.4963747000001604;0.5363890999979049;0.5880770999974629;0.657845499998075;0.7884277999983169;0.9180634999975155;0;0;0;1;0.01
5;2;13;15;letter190;letter169;congruent;0.04;letter190;0.09;0.07;fullmask;0.2;arrow_left.png;c;2.277901800000109;2.2819158999991487;24752.4825911;2.9999973776284605e-06;0.5015889999995125;0.541609600000811;0.5933138000000326;0.6630966999982775;0.7937483999994583;0.9233746999998402;0;0;0;1;0.01
5;2;13;16;letter190;letter169;incongruent;0.04;letter190;0.09;0.07;fullmask;0.2;arrow_right.png;m;0.40520760000072187;0.4099227000006067;24754.08261;3.1999989005271345e-06;0.49692639999921084;0.5369395000016084;0.589128300001903;0.6589037000012468;0.7885582000017166;0.9192081000001053;0;0;0;1;0.01
5;2;13;17;letter190;letter169;congruent;0.04;letter169;0.09;0.07;fullmask;0.2;arrow_right.png;c;0.294939900002646;0.3002159000025131;24755.5625828;2.9000002541579306e-06;0.49952760000087437;0.5395483000029344;0.5909447000012733;0.6617160000023432;0.7913724000027287;1.0898926000008942;0;0;1;0;0.01
5;2;13;18;letter190;letter169;congruent;0.04;letter190;0.09;0.07;fullmask;0.2;arrow_left.png;c;0.3079287000000477;0.31033640000168816;24757.2666731;2.9999973776284605e-06;0.4968570999990334;0.5368969999981346;0.588304099997913;0.6582095999983721;0.7887690999996266;1.0972459000004164;0;0;1;0;0.01
5;2;13;19;letter190;letter169;incongruent;0.04;letter169;0.09;0.07;fullmask;0.2;arrow_left.png;c;1.7183430000004591;1.7213965999981156;24760.3785758;2.9000002541579306e-06;0.499621399998432;0.5396404999992228;0.5914553000002343;0.6614670999988448;0.7918637000002491;0.9215156999998726;0;0;0;1;0.01
5;2;13;20;letter190;letter169;incongruent;0.04;letter190;0.09;0.07;fullmask;0.2;arrow_right.png;m;0.2622049000019615;0.27019900000232155;24761.8345707;3.1999989005271345e-06;0.5022445999966294;0.5422572999996191;0.5943417999988014;0.6641079999972135;0.7936646999987715;1.0625851999975566;0;0;1;0;0.01
5;2;13;21;letter190;letter169;incongruent;0.04;letter190;0.09;0.07;fullmask;0.2;arrow_right.png;m;0.2954719000008481;0.30021059999853605;24763.5385816;3.1000017770566046e-06;0.49781650000295485;0.5378362000010384;0.5895895000030578;0.6593637000005401;0.7900130000016361;1.0882233000011183;0;0;1;0;0.01
5;2;13;22;letter190;letter169;congruent;0.04;letter169;0.09;0.07;fullmask;0.2;arrow_right.png;m;0.2946773999974539;0.3002340999992157;24765.218747;3.0000010156072676e-06;0.4986791000010271;0.5386997999994492;0.5903260999984923;0.6599940000014612;0.7906476999996812;1.089052700001048;0;0;1;0;0.01
5;2;13;23;letter190;letter169;incongruent;0.04;letter169;0.09;0.07;fullmask;0.2;arrow_left.png;c;0.3257155999999668;0.33107209999798215;24766.9305738;3.0000010156072676e-06;0.4953672000010556;0.535404500002187;0.5867273000003479;0.6574908000002324;0.7870545000005222;1.1157712000022002;0;0;1;0;0.01
5;2;13;24;letter190;letter169;congruent;0.04;letter190;0.09;0.07;fullmask;0.2;arrow_left.png;c;0.33214890000090236;0.34010439999838127;24768.6585549;3.0000010156072676e-06;0.5007766999988235;0.5407988000006299;0.5925845999990997;0.6623584000008123;0.7930071000009775;0.922659299998486;0;0;0;1;0.01
5;2;13;25;letter190;letter169;congruent;0.04;letter169;0.09;0.07;fullmask;0.2;arrow_right.png;m;0.25681900000199676;0.25936640000145417;24770.1145742;2.9000002541579306e-06;0.5003950999998779;0.5404023000010056;0.5925650999997742;0.6616272999999637;0.7920371000000159;1.0507570000008855;0;0;1;0;0.01
5;2;13;26;letter190;letter169;incongruent;0.04;letter169;0.09;0.07;fullmask;0.2;arrow_left.png;c;0.22425080000175512;0.23051439999835566;24771.7227076;2.9999973776284605e-06;0.4969208999973489;0.536946899999748;0.588743299998896;0.6585177999986627;0.7891649999983201;1.017263899997488;0;0;1;0;0.01
5;2;13;27;letter190;letter169;incongruent;0.04;letter190;0.09;0.07;fullmask;0.2;arrow_right.png;m;0.2676539000021876;0.2704325000013341;24773.3866506;3.2999996619764715e-06;0.5026985000004061;0.5427294000000984;0.5940133000003698;0.6639126000009128;0.7944692999990366;1.0630831999988004;0;0;1;0;0.01
5;2;13;28;letter190;letter169;congruent;0.04;letter190;0.09;0.07;fullmask;0.2;arrow_left.png;c;0.32644860000073095;0.3310363000018697;24775.1065742;3.2000025385059416e-06;0.5040881999993871;0.5441033999995852;0.5954638000002888;0.6661396000017703;0.7957854000014777;1.1244866000015463;0;0;1;0;0.01
5;2;13;29;letter190;letter169;congruent;0.04;letter169;0.09;0.07;fullmask;0.2;arrow_right.png;c;0.33345380000173463;0.3411020000021381;24776.8345754;2.7999994927085936e-06;0.5010258000002068;0.5410469999987981;0.5922939999982191;0.6630673999970895;0.7927199000005203;0.9233690999972168;0;0;0;1;0.01
5;2;13;30;letter190;letter169;congruent;0.04;letter169;0.09;0.07;fullmask;0.2;arrow_right.png;m;0.33758449999731965;0.3401510000003327;24778.370579;3.1000017770566046e-06;0.49545230000148877;0.5354741000010108;0.5876204000014695;0.6575225999986287;0.7870880000009493;0.9177414000005228;0;0;0;1;0.01
5;2;13;31;letter190;letter169;incongruent;0.04;letter169;0.09;0.07;fullmask;0.2;arrow_left.png;c;0.31920670000181417;0.32007660000090254;24779.8825727;3.1000017770566046e-06;0.5038373000024876;0.543854100000317;0.5953881000023102;0.6650737000018125;0.7957212000001164;1.1142188000012538;0;0;1;0;0.01
5;2;13;32;letter190;letter169;incongruent;0.04;letter190;0.09;0.07;fullmask;0.2;arrow_right.png;m;0.2984844999991765;0.30121890000009444;24781.5626457;2.9000002541579306e-06;0.4986045000005106;0.5386273000003712;0.5898698000019067;0.6605390000004263;0.7902125000000524;1.0889992000011262;0;0;1;0;0.01
5;2;13;33;letter190;letter169;congruent;0.04;letter190;0.09;0.07;fullmask;0.2;arrow_left.png;c;0.31865380000090227;0.3200575000009849;24783.2745724;2.9000002541579306e-06;0.5047970999985409;0.544823299998825;0.5967262999984086;0.666490799998428;0.7970543000010366;1.1151915000009467;0;0;1;0;0.01
5;2;13;34;letter190;letter169;incongruent;0.04;letter190;0.09;0.07;fullmask;0.2;arrow_right.png;m;0.2499083000002429;0.25033970000004047;24784.906661;3.0000010156072676e-06;0.49754440000106115;0.5375703999998223;0.5892118000010669;0.6591040999992401;0.7896669000001566;1.0378836000018055;0;0;1;0;0.01
5;2;13;35;letter190;letter169;incongruent;0.04;letter169;0.09;0.07;fullmask;0.2;arrow_left.png;c;0.34660400000211666;0.34997240000302554;24786.6345999;3.2999996619764715e-06;0.49654089999967255;0.5365673000014795;0.5884088000020711;0.6580795000008948;0.7887316000014835;0.918386699999246;0;0;0;1;0.01
5;2;13;36;letter190;letter169;congruent;0.04;letter190;0.09;0.07;fullmask;0.2;arrow_left.png;c;0.34597280000161845;0.3501782999992429;24788.1946523;3.1999989005271345e-06;0.49943649999841;0.539444199999707;0.5909758999987389;0.660880299998098;0.7914419999979145;0.9211107999981323;0;0;0;1;0.01
5;2;13;37;letter190;letter169;incongruent;0.04;letter190;0.09;0.07;fullmask;0.2;arrow_right.png;m;0.24450419999993755;0.25038209999911487;24789.6345852;2.8999966161791235e-06;0.5029878999994253;0.5430045999964932;0.5949579999978596;0.6646560999979556;0.795304599996598;1.043338199997379;0;0;1;0;0.01
5;2;13;38;letter190;letter169;incongruent;0.04;letter190;0.09;0.07;fullmask;0.2;arrow_right.png;c;0.26190430000133347;0.27019360000122106;24791.2825748;2.9999973776284605e-06;0.49524019999807933;0.5352676000002248;0.5867493999976432;0.6565153999981703;0.7870820999996795;1.0556120999972336;0;0;1;0;0.01
5;2;13;39;letter190;letter169;incongruent;0.04;letter169;0.09;0.07;fullmask;0.2;arrow_left.png;c;0.19446940000125323;0.20038670000212733;24792.866576;3.1000017770566046e-06;0.49784859999999753;0.5378722000023117;0.5897274000017205;0.6594030000014754;0.7901129000019864;0.7901153000020713;0;1;0;0;0.01
5;2;13;40;letter190;letter169;incongruent;0.04;letter169;0.09;0.07;fullmask;0.2;arrow_left.png;c;0.30158859999937704;0.3102288000009139;24794.3545852;3.0000010156072676e-06;0.49749530000190134;0.5375112000001536;0.5893716999999015;0.6592780000028142;0.788841700003104;1.097880700002861;0;0;1;0;0.01
5;2;13;41;letter190;letter169;incongruent;0.04;letter190;0.09;0.07;fullmask;0.2;arrow_right.png;c;0.2805995000016992;0.2903937000010046;24796.0347131;2.9000002541579306e-06;0.5030676999995194;0.5430914999997185;0.5949561999987054;0.6648543999981484;0.7944146000008914;1.0834230000000389;0;0;1;0;0.01
5;2;13;42;letter190;letter169;congruent;0.04;letter169;0.09;0.07;fullmask;0.2;arrow_right.png;c;0.22331400000257418;0.23017600000093807;24797.6585692;3.2999996619764715e-06;0.5009294999981648;0.5409523999987869;0.5928992999979528;0.6624424000001454;0.7930921999977727;1.0212716999994882;0;0;1;0;0.01
5;2;13;43;letter190;letter169;congruent;0.04;letter190;0.09;0.07;fullmask;0.2;arrow_left.png;c;0.3269295999998576;0.330170299999736;24799.362577;2.9000002541579306e-06;0.4951352999996743;0.5351484000020719;0.5864464000005682;0.6572593999990204;0.7869137999987288;1.1155333999995491;0;0;1;0;0.01
5;2;13;44;letter190;letter169;incongruent;0.04;letter169;0.09;0.07;fullmask;0.2;arrow_left.png;c;0.3112848999990092;0.32006790000014007;24801.0585836;3.2000025385059416e-06;0.49663520000103745;0.5366698000034376;0.5885199000003922;0.6582826000012574;0.7888504000002285;1.1070209000026807;0;0;1;0;0.01
5;2;13;45;letter190;letter169;congruent;0.04;letter169;0.09;0.07;fullmask;0.2;arrow_right.png;m;2.046143600000505;2.051640599998791;24804.5146294;2.9000002541579306e-06;0.5008164000028046;0.5408356000007188;0.5927804000020842;0.6625520000015968;0.7922103000018978;0.9228565000012168;0;0;0;1;0.01
5;2;13;46;letter190;letter169;congruent;0.04;letter190;0.09;0.07;fullmask;0.2;arrow_left.png;c;0.36595149999993737;0.3699357000004966;24806.0665631;2.9999973776284605e-06;0.5011206999988644;0.5411314999983006;0.5931382999988273;0.6628207999965525;0.7924732999999833;0.9231228999997256;0;0;0;1;0.01
5;2;13;47;letter190;letter169;congruent;0.04;letter190;0.09;0.07;fullmask;0.2;arrow_left.png;m;0.23779759999888483;0.2403716999979224;24807.4986298;2.9000002541579306e-06;0.5047273999989557;0.5447547000003397;0.595967400000518;0.6667401999984577;0.7963965999988432;1.0350938999981736;0;0;1;0;0.01
5;2;13;48;letter190;letter169;congruent;0.04;letter169;0.09;0.07;fullmask;0.2;arrow_right.png;m;0.32782139999835636;0.33017719999770634;24809.2105538;3.0000010156072676e-06;0.4950286000021151;0.5350670000007085;0.5871234000005643;0.6571930999998585;0.7865923000026669;1.1154249999999593;0;0;1;0;0.01
