subjnr;loop_m;blocknr;trialnr;cue_left_learn;cue_right_learn; congruence;cue_dur;cue;SOA;mask_dur;mask;target_dur;target;response;RT;kb_rt;response_absolute; fix_onset;cue_onset;cue_offset;mask_onset;mask_offset;target_offset;blank_onset;response_during_mask;response_during_targetalone;response_during_RW;response_during_blank;frame_dur
9;1;4;1;letter190;letter169;congruent;0.04;letter190;0.05;0.07;fullmask;0.2;arrow_left.png;c;0.34507290000328794;0.3501687999814749;278473.9026897;2.600019797682762e-06;0.5030876999953762;0.5430951000307687;0.5548353000194766;0.6246948000043631;0.7543483000481501;0.8849998000077903;0;0;0;1;0.01
9;1;4;2;letter190;letter169;congruent;0.04;letter169;0.05;0.07;fullmask;0.2;arrow_right.png;m;0.24208559998078272;0.2503368000034243;278475.3107161;2.800021320581436e-06;0.5003143000067212;0.5403206999762915;0.5520981000154279;0.6218617999693379;0.7525153000024147;1.0006153999711387;0;0;1;0;0.01
9;1;4;3;letter190;letter169;incongruent;0.04;letter190;0.05;0.07;fullmask;0.2;arrow_right.png;m;0.26479429996106774;0.27044469997053966;278476.9346928;2.700020559132099e-06;0.49628520000260323;0.5363085000426508;0.5483090000343509;0.6182257000473328;0.7477814000449143;1.0166236000368372;0;0;1;0;0.01
9;1;4;4;letter190;letter169;incongruent;0.04;letter169;0.05;0.07;fullmask;0.2;arrow_left.png;c;0.2997083000373095;0.3000553000019863;278478.5907016;2.6999623514711857e-06;0.4974983999854885;0.5375158999813721;0.5495616999687627;0.6192384999594651;0.7488979999907315;1.047837599995546;0;0;1;0;0.01
9;1;4;5;letter190;letter169;incongruent;0.04;letter169;0.05;0.07;fullmask;0.2;arrow_left.png;m;0.28688080003485084;0.2902883000206202;278480.2387045;2.6999623514711857e-06;0.4996235999860801;0.5396666000015102;0.5514550000079907;0.6213631000136957;0.750926700013224;1.039983199967537;0;0;1;0;0.01
9;1;4;6;letter190;letter169;incongruent;0.04;letter169;0.05;0.07;fullmask;0.2;arrow_left.png;m;0.2557395999901928;0.2602290000068024;278481.8386755;2.6999623514711857e-06;0.4952544000116177;0.5352830999763682;0.5471329999854788;0.6168128999997862;0.7474604999879375;1.0055894000106491;0;0;1;0;0.01
9;1;4;7;letter190;letter169;congruent;0.04;letter169;0.05;0.07;fullmask;0.2;arrow_right.png;m;0.33111049997387454;0.3401100999908522;278483.534679;2.700020559132099e-06;0.5046585000236519;0.544676800025627;0.5561155000468716;0.625890800030902;0.756542100047227;0.886195500032045;0;0;0;1;0.01
9;1;4;8;letter190;letter169;incongruent;0.04;letter190;0.05;0.07;fullmask;0.2;arrow_right.png;m;0.354081200028304;0.3600661000236869;278485.0388729;2.6999623514711857e-06;0.4974126999732107;0.5374274000059813;0.5491389000089839;0.6188327000127174;0.749466500012204;0.8791207000031136;0;0;0;1;0.01
9;1;4;9;letter190;letter169;incongruent;0.04;letter190;0.05;0.07;fullmask;0.2;arrow_right.png;m;0.2751949999947101;0.28025839995825663;278486.4706555;2.800021320581436e-06;0.49623170000268146;0.5362461000331677;0.5476398000027984;0.6174068000400439;0.7480571999913082;1.0265663000172935;0;0;1;0;0.01
9;1;4;10;letter190;letter169;congruent;0.04;letter190;0.05;0.07;fullmask;0.2;arrow_left.png;c;0.23587829997995868;0.2404067000024952;278488.0627142;2.700020559132099e-06;0.4959287000237964;0.5359469000250101;0.5476557000074536;0.617551600036677;0.748116500035394;0.9862423000158742;0;0;1;0;0.01
9;1;4;11;letter190;letter169;congruent;0.04;letter169;0.05;0.07;fullmask;0.2;arrow_right.png;m;0.3305743999662809;0.3395842000027187;278489.7588881;2.700020559132099e-06;0.503066300007049;0.5430808000382967;0.5552301999996416;0.6250092000118457;0.7546580000198446;0.885307600023225;0;0;0;1;0.01
9;1;4;12;letter190;letter169;congruent;0.04;letter190;0.05;0.07;fullmask;0.2;arrow_left.png;c;0.2614521000068635;0.26929779996862635;278491.1906815;2.700020559132099e-06;0.5049419000279158;0.5449502000119537;0.5570532000274397;0.6268267999985255;0.7564804999856278;1.0252731000073254;0;0;1;0;0.01
9;1;4;13;letter190;letter169;incongruent;0.04;letter169;0.05;0.07;fullmask;0.2;arrow_left.png;c;0.3352145000244491;0.34025629999814555;278492.8948138;2.900022082030773e-06;0.5015717000351287;0.5415987000451423;0.5530174000305124;0.622927599994;0.7534834000398405;0.8831370000261813;0;0;0;1;0.01
9;1;4;14;letter190;letter169;incongruent;0.04;letter190;0.05;0.07;fullmask;0.2;arrow_right.png;m;0.2653912999667227;0.2693431999650784;278494.3266791;2.6999623514711857e-06;0.49840459995903075;0.5384305999614298;0.5505493999808095;0.6204602999496274;0.7500208999845199;1.0187477999716066;0;0;1;0;0.01
9;1;4;15;letter190;letter169;congruent;0.04;letter190;0.05;0.07;fullmask;0.2;arrow_left.png;c;0.33507839997764677;0.34001429995987564;278496.0067652;2.800021320581436e-06;0.49829860002500936;0.5383229000144638;0.5498025999986567;0.6195682000252418;0.7501291999942623;0.8797857000026852;0;0;0;1;0.01
9;1;4;16;letter190;letter169;congruent;0.04;letter169;0.05;0.07;fullmask;0.2;arrow_right.png;m;0.28800180001417175;0.29027709999354556;278497.4706712;2.800021320581436e-06;0.5024286000407301;0.5424546000431292;0.5539445000467822;0.6237219000468031;0.7543689000303857;1.0427799000171944;0;0;1;0;0.01
9;1;4;17;letter190;letter169;congruent;0.04;letter169;0.05;0.07;fullmask;0.2;arrow_right.png;m;0.2812028999906033;0.29014749999623746;278499.0947462;2.900022082030773e-06;0.49707340000895783;0.537114400009159;0.548397800012026;0.6190737999859266;0.7487272000289522;1.0374198000063188;0;0;1;0;0.01
9;1;4;18;letter190;letter169;congruent;0.04;letter169;0.05;0.07;fullmask;0.2;arrow_right.png;m;0.27147150004748255;0.28018689999589697;278500.726711;2.600019797682762e-06;0.4977466000127606;0.5377664000261575;0.5497057000175118;0.6193998000235297;0.75006150000263;1.0280995000503026;0;0;1;0;0.01
9;1;4;19;letter190;letter169;incongruent;0.04;letter190;0.05;0.07;fullmask;0.2;arrow_right.png;m;0.24924560001818463;0.2504011999699287;278502.3348318;2.600019797682762e-06;0.5001310000079684;0.5401525999768637;0.5513755999854766;0.6222984999767505;0.75184869999066;1.0004589000018314;0;0;1;0;0.01
9;1;4;20;letter190;letter169;congruent;0.04;letter190;0.05;0.07;fullmask;0.2;arrow_left.png;c;0.35128860000986606;0.3602270999690518;278504.0386986;2.6999623514711857e-06;0.5035212999791838;0.5435379999689758;0.5555451999534853;0.6254541999660432;0.7551049999892712;0.885756199946627;0;0;0;1;0.01
9;1;4;21;letter190;letter169;congruent;0.04;letter190;0.05;0.07;fullmask;0.2;arrow_left.png;m;0.26454430003650486;0.2703283000155352;278505.46266;2.700020559132099e-06;0.4950001999968663;0.535016399982851;0.5467561000259593;0.6166532000061125;0.747214300034102;1.0153400999843143;0;0;1;0;0.01
9;1;4;22;letter190;letter169;incongruent;0.04;letter190;0.05;0.07;fullmask;0.2;arrow_right.png;m;0.3332761999918148;0.34003199997823685;278507.1427127;2.6999623514711857e-06;0.49796329997479916;0.5379694000002928;0.5499965999624692;0.6196738999569789;0.7493293999577872;0.8799647999694571;0;0;0;1;0.01
9;1;4;23;letter190;letter169;incongruent;0.04;letter169;0.05;0.07;fullmask;0.2;arrow_left.png;m;0.2588143000029959;0.2603588000056334;278508.5587623;2.700020559132099e-06;0.49835469998652115;0.5383631999720819;0.5499268000130542;0.6206191999954171;0.7502644999767654;1.0086591999861412;0;0;1;0;0.01
9;1;4;24;letter190;letter169;incongruent;0.04;letter169;0.05;0.07;fullmask;0.2;arrow_left.png;c;0.2656058999709785;0.27033999998820946;278510.1666654;2.6999623514711857e-06;0.4986748999799602;0.5387027999968268;0.5503387999488041;0.620154999953229;0.7508055999642238;1.019013399956748;0;0;1;0;0.01
9;1;4;25;letter190;letter169;congruent;0.04;letter190;0.05;0.07;fullmask;0.2;arrow_left.png;c;0.3746949000051245;0.38090519997058436;278511.8866589;2.7999631129205227e-06;0.49631399998907;0.5363308999803849;0.5478335999650881;0.6175108999595977;0.7481627999804914;0.8778181999805383;0;0;0;1;0.01
9;1;4;26;letter190;letter169;incongruent;0.04;letter169;0.05;0.07;fullmask;0.2;arrow_left.png;c;0.32334570004604757;0.33013400004711;278513.3666627;2.800021320581436e-06;0.5036947000189684;0.5437196000129916;0.5555671000038274;0.6253433999954723;0.7549948000232689;1.0840807000058703;0;0;1;0;0.01
9;1;4;27;letter190;letter169;incongruent;0.04;letter190;0.05;0.07;fullmask;0.2;arrow_right.png;m;0.23658379999687895;0.24052589997882023;278514.9507412;2.700020559132099e-06;0.4952701000147499;0.5352626999956556;0.5468742999946699;0.6167800999828614;0.7473402000032365;0.9855542000150308;0;0;1;0;0.01
9;1;4;28;letter190;letter169;congruent;0.04;letter169;0.05;0.07;fullmask;0.2;arrow_right.png;m;0.2857964000431821;0.2902765999897383;278516.5907261;2.8999638743698597e-06;0.4941712999716401;0.5342055999790318;0.545565499982331;0.6162552000023425;0.7459062999696471;1.0345461000106297;0;0;1;0;0.01
9;1;4;29;letter190;letter169;incongruent;0.04;letter169;0.05;0.07;fullmask;0.2;arrow_left.png;c;0.2627970000030473;0.27020000002812594;278518.1986581;2.900022082030773e-06;0.5002348000416532;0.5402492000139318;0.5514902000431903;0.6214130000444129;0.751818600052502;1.020575100032147;0;0;1;0;0.01
9;1;4;30;letter190;letter169;congruent;0.04;letter169;0.05;0.07;fullmask;0.2;arrow_right.png;m;0.2729665000224486;0.28026760002830997;278519.8306567;2.7999631129205227e-06;0.49907809996511787;0.5391072999918833;0.5511152999824844;0.6208886999520473;0.7505427999421954;1.0294392999494448;0;0;1;0;0.01
9;1;4;31;letter190;letter169;congruent;0.04;letter169;0.05;0.07;fullmask;0.2;arrow_right.png;m;0.2662595000001602;0.2703006000374444;278521.4546448;2.5999615900218487e-06;0.5009310999885201;0.5409667000058107;0.5525991999893449;0.622375299979467;0.7530246999813244;1.021275999955833;0;0;1;0;0.01
9;1;4;32;letter190;letter169;congruent;0.04;letter190;0.05;0.07;fullmask;0.2;arrow_left.png;c;0.27711460000136867;0.28038830001605675;278523.0867327;2.900022082030773e-06;0.5002451000036672;0.5402642000117339;0.5521002000314184;0.6218849000288174;0.7515411000349559;1.0305863000103272;0;0;1;0;0.01
9;1;4;33;letter190;letter169;incongruent;0.04;letter190;0.05;0.07;fullmask;0.2;arrow_right.png;m;0.28580300003523007;0.2901440000277944;278524.7266958;2.700020559132099e-06;0.49719680001726374;0.5372228000196628;0.5492680000024848;0.6189473000122234;0.7485902999760583;1.0375469999853522;0;0;1;0;0.01
9;1;4;34;letter190;letter169;incongruent;0.04;letter190;0.05;0.07;fullmask;0.2;arrow_right.png;m;0.25500510004349053;0.2602243000292219;278526.3266522;2.6999623514711857e-06;0.49832859996240586;0.5383282999973744;0.5500616999925114;0.6197357999626547;0.7503910000086762;1.0086355999810621;0;0;1;0;0.01
9;1;4;35;letter190;letter169;congruent;0.04;letter169;0.05;0.07;fullmask;0.2;arrow_right.png;m;0.2618494000053033;0.2702938999864273;278527.9346485;2.6999623514711857e-06;0.49728839995805174;0.5373036999953911;0.549167999997735;0.6189438999863341;0.7485945000080392;1.0176299999584444;0;0;1;0;0.01
9;1;4;36;letter190;letter169;incongruent;0.04;letter190;0.05;0.07;fullmask;0.2;arrow_right.png;c;0.24095990002388135;0.2503932000254281;278529.5346397;2.700020559132099e-06;0.5045625999919139;0.5445770000224002;0.5562690999940969;0.6261816000333056;0.7567375000216998;1.0048859000089578;0;0;1;0;0.01
9;1;4;37;letter190;letter169;incongruent;0.04;letter169;0.05;0.07;fullmask;0.2;arrow_left.png;c;0.3275902000023052;0.330144899955485;278531.2627542;2.700020559132099e-06;0.49849980004364625;0.5385006000287831;0.5506091000279412;0.6202836000011303;0.7499607000499964;1.0788626000285149;0;0;1;0;0.01
9;1;4;38;letter190;letter169;congruent;0.04;letter190;0.05;0.07;fullmask;0.2;arrow_left.png;c;0.28059410001151264;0.29014669999014586;278532.8866724;3.00002284348011e-06;0.5037809999776073;0.5437931999913417;0.5557383000268601;0.6254180999821983;0.7550698000122793;1.0441303999978118;0;0;1;0;0.01
9;1;4;39;letter190;letter169;congruent;0.04;letter190;0.05;0.07;fullmask;0.2;arrow_left.png;c;0.3019095999770798;0.31023439997807145;278534.5586749;2.800021320581436e-06;0.5035819000331685;0.5435961000039242;0.5551542000030167;0.6250636000186205;0.7556230000336654;1.0639419000362977;0;0;1;0;0.01
9;1;4;40;letter190;letter169;incongruent;0.04;letter169;0.05;0.07;fullmask;0.2;arrow_left.png;c;0.3147230999893509;0.3200298000010662;278536.222625;2.7999631129205227e-06;0.49836209998466074;0.5383761000121012;0.5500057999743149;0.6197888000169769;0.7503357999958098;1.0687180999666452;0;0;1;0;0.01
9;1;4;41;letter190;letter169;congruent;0.04;letter169;0.05;0.07;fullmask;0.2;arrow_right.png;m;0.28379720001248643;0.29029609996359795;278537.8630096;2.6999623514711857e-06;0.5008229999803007;0.5408508999971673;0.5527032999671064;0.6224774000002071;0.7521299999789335;1.04117739998037;0;0;1;0;0.01
9;1;4;42;letter190;letter169;incongruent;0.04;letter169;0.05;0.07;fullmask;0.2;arrow_left.png;c;0.3415075999801047;0.3510823000106029;278539.5512673;2.700020559132099e-06;0.5000070999958552;0.5400133000221103;0.551367099978961;0.6221221000305377;0.7516874999855645;0.8823393000056967;0;0;0;1;0.01
9;1;4;43;letter190;letter169;incongruent;0.04;letter190;0.05;0.07;fullmask;0.2;arrow_right.png;m;0.314099500013981;0.32115769997471943;278541.0146497;2.6999623514711857e-06;0.499648500001058;0.5396927999681793;0.5508454999653623;0.6216157000162639;0.7512713000178337;1.0700285999919288;0;0;1;0;0.01
9;1;4;44;letter190;letter169;incongruent;0.04;letter190;0.05;0.07;fullmask;0.2;arrow_right.png;m;0.25890590000199154;0.26032120001036674;278542.6306314;2.700020559132099e-06;0.503448200004641;0.5434586000046693;0.5547211000230163;0.6254943000385538;0.75514620001195;1.013769700017292;0;0;1;0;0.01
9;1;4;45;letter190;letter169;congruent;0.04;letter190;0.05;0.07;fullmask;0.2;arrow_left.png;c;0.3778080999618396;0.3809015000006184;278544.3506422;2.900022082030773e-06;0.5006487999926321;0.5406735999858938;0.5520117999985814;0.6227804999798536;0.7523370999842882;0.8829877999960445;0;0;0;1;0.01
9;1;4;46;letter190;letter169;congruent;0.04;letter190;0.05;0.07;fullmask;0.2;arrow_left.png;c;0.3661279999651015;0.3700719999615103;278545.8707163;3.00002284348011e-06;0.4956229000235908;0.535639000008814;0.5477358000352979;0.6174292999785393;0.7470792999956757;0.8777387000154704;0;0;0;1;0.01
9;1;4;47;letter190;letter169;incongruent;0.04;letter169;0.05;0.07;fullmask;0.2;arrow_left.png;c;0.21360230003483593;0.22057910001603886;278547.2388113;2.800021320581436e-06;0.49950850004097447;0.539561000012327;0.5512521000346169;0.6211584000266157;0.751716100028716;0.9697991000139154;0;0;1;0;0.01
9;1;4;48;letter190;letter169;congruent;0.04;letter169;0.05;0.07;fullmask;0.2;arrow_right.png;m;0.3283744000364095;0.33024989999830723;278548.9347113;2.7999631129205227e-06;0.5009380999836139;0.540955499978736;0.5527969999820925;0.6225801999680698;0.753235699958168;1.0813128000008874;0;0;1;0;0.01
9;1;5;1;letter190;letter169;congruent;0.04;letter190;0.05;0.07;fullmask;0.2;arrow_left.png;m;0.2591940000420436;0.2604109999956563;278554.4786149;2.800021320581436e-06;0.5046479000011459;0.5446740000043064;0.5559524999698624;0.6259044000180438;0.7564652999863029;1.0149832000024617;0;0;1;0;0.01
9;1;5;2;letter190;letter169;congruent;0.04;letter169;0.05;0.07;fullmask;0.2;arrow_right.png;m;0.2635428999783471;0.27021380001679063;278556.0946266;2.7999631129205227e-06;0.49527069996111095;0.5352884999592789;0.5471955999964848;0.6168906999519095;0.7475492999656126;1.015614599979017;0;0;1;0;0.01
9;1;5;3;letter190;letter169;incongruent;0.04;letter190;0.05;0.07;fullmask;0.2;arrow_right.png;c;0.29074149997904897;0.3002138999872841;278557.7426273;2.700020559132099e-06;0.49925639998400584;0.5392971999826841;0.5509204000118189;0.6206971000065096;0.7513451999984682;1.0496064000180922;0;0;1;0;0.01
9;1;5;4;letter190;letter169;congruent;0.04;letter169;0.05;0.07;fullmask;0.2;arrow_right.png;m;0.32921379996696487;0.3299985000048764;278559.4226224;2.700020559132099e-06;0.5009265000117011;0.5409445000113919;0.553068200009875;0.6227930000168271;0.7523541999980807;1.081306800013408;0;0;1;0;0.01
9;1;5;5;letter190;letter169;incongruent;0.04;letter169;0.05;0.07;fullmask;0.2;arrow_left.png;c;0.3202395999687724;0.33013600000413135;278561.0946947;3.00002284348011e-06;0.5030437000095844;0.543074399989564;0.5551417000242509;0.6249156999983825;0.754567899974063;1.0834299999987707;0;0;1;0;0.01
9;1;5;6;letter190;letter169;incongruent;0.04;letter190;0.05;0.07;fullmask;0.2;arrow_right.png;m;0.24974390002898872;0.25019669998437166;278562.6947186;3.00002284348011e-06;0.49816550000105053;0.5381781000178307;0.549691200023517;0.6193424999946728;0.7499918999965303;0.9984908999758773;0;0;1;0;0.01
9;1;5;7;letter190;letter169;incongruent;0.04;letter190;0.05;0.07;fullmask;0.2;arrow_right.png;m;0.31415769999148324;0.3201831000042148;278564.3507027;2.800021320581436e-06;0.497629199991934;0.5376528999768198;0.5497049000114202;0.6194778999779373;0.7490388000151142;1.0680135000147857;0;0;1;0;0.01
9;1;5;8;letter190;letter169;incongruent;0.04;letter169;0.05;0.07;fullmask;0.2;arrow_left.png;c;0.2670562999555841;0.270292499975767;278565.9746107;2.600019797682762e-06;0.5005861000390723;0.5406097000231966;0.5525636000093073;0.6223364000325091;0.7519893000135198;1.0209408000227995;0;0;1;0;0.01
9;1;5;9;letter190;letter169;congruent;0.04;letter190;0.05;0.07;fullmask;0.2;arrow_left.png;c;0.3321497999713756;0.34010659996420145;278567.6706188;2.7999631129205227e-06;0.5031106999958865;0.5431077999528497;0.5549340999568813;0.6247059999732301;0.7543591999565251;0.8850193999824114;0;0;0;1;0.01
9;1;5;10;letter190;letter169;incongruent;0.04;letter169;0.05;0.07;fullmask;0.2;arrow_left.png;m;0.28344040003139526;0.29027609998593107;278569.1026206;2.700020559132099e-06;0.50235760002397;0.5423810000065714;0.5539524999912828;0.6238834999967366;0.7544135000207461;1.0426901000319049;0;0;1;0;0.01
9;1;5;11;letter190;letter169;congruent;0.04;letter169;0.05;0.07;fullmask;0.2;arrow_right.png;m;0.392036699980963;0.39998359995661303;278570.8627844;2.900022082030773e-06;0.5010189000167884;0.5410477999830619;0.5531254999805242;0.6228361999965273;0.7524623000063002;0.8831310999812558;0;0;0;1;0.01
9;1;5;12;letter190;letter169;congruent;0.04;letter190;0.05;0.07;fullmask;0.2;arrow_left.png;c;0.34495440003229305;0.350016999989748;278572.3666944;2.800021320581436e-06;0.5045246999943629;0.5445462000207044;0.5565962999826297;0.6263634000206366;0.7559257000102662;0.8865599000127986;0;0;0;1;0.01
9;1;5;13;letter190;letter169;incongruent;0.04;letter190;0.05;0.07;fullmask;0.2;arrow_right.png;m;0.3418305999948643;0.35007929999846965;278573.8546174;2.700020559132099e-06;0.4962762000504881;0.5363009000429884;0.5484385000308976;0.6182156000286341;0.7478663000511006;0.8785202000290155;0;0;0;1;0.01
9;1;5;14;letter190;letter169;congruent;0.04;letter190;0.05;0.07;fullmask;0.2;arrow_left.png;c;0.35509530000854284;0.35995999997248873;278575.3586132;2.6999623514711857e-06;0.503212999959942;0.5432251999736764;0.5551339999656193;0.624817899952177;0.7554622999741696;0.8851156999589875;0;0;0;1;0.01
9;1;5;15;letter190;letter169;incongruent;0.04;letter169;0.05;0.07;fullmask;0.2;arrow_left.png;m;0.19850430003134534;0.2004812000086531;278576.7025848;2.700020559132099e-06;0.49798919999739155;0.5380045000347309;0.549507400020957;0.6192873999825679;0.749989700037986;0.7499920999980532;0;1;0;0;0.01
9;1;5;16;letter190;letter169;congruent;0.04;letter169;0.05;0.07;fullmask;0.2;arrow_right.png;m;0.3518426999798976;0.3611603999743238;278578.2066347;2.6999623514711857e-06;0.5049518999876454;0.5449564000009559;0.556305899983272;0.6270827999687754;0.756726499996148;0.8863796999794431;0;0;0;1;0.01
9;1;5;17;letter190;letter169;congruent;0.04;letter190;0.05;0.07;fullmask;0.2;arrow_left.png;c;0.2107462999993004;0.22057800000766292;278579.5667902;2.700020559132099e-06;0.4996554999961518;0.5396999000222422;0.5512951000127941;0.6212022000108846;0.7517611000221223;0.9699677000171505;0;0;1;0;0.01
9;1;5;18;letter190;letter169;incongruent;0.04;letter190;0.05;0.07;fullmask;0.2;arrow_right.png;m;0.3058405999909155;0.3102187999757007;278581.2226887;2.5999615900218487e-06;0.5015842999564484;0.5416102999588475;0.5530089999665506;0.6237012000055984;0.7533559000003152;1.06193979998352;0;0;1;0;0.01
9;1;5;19;letter190;letter169;congruent;0.04;letter169;0.05;0.07;fullmask;0.2;arrow_right.png;c;0.20476079999934882;0.2104531999793835;278582.7826264;2.6999623514711857e-06;0.4982190000009723;0.5382481999695301;0.5495891000027768;0.6203604000038467;0.7500144999939948;0.9585383999510668;0;0;1;0;0.01
9;1;5;20;letter190;letter169;congruent;0.04;letter190;0.05;0.07;fullmask;0.2;arrow_left.png;c;0.6876084000105038;0.6910763999912888;278584.8066095;2.6999623514711857e-06;0.4952394999563694;0.535250399960205;0.5467272999812849;0.6164908999926411;0.7470558999921195;0.8767117999959737;0;0;0;1;0.01
9;1;5;21;letter190;letter169;congruent;0.04;letter169;0.05;0.07;fullmask;0.2;arrow_right.png;m;0.28869090002262965;0.2918004000093788;278586.2386336;2.700020559132099e-06;0.500250999990385;0.5402662000269629;0.5515119000338018;0.6221890000160784;0.7518418999970891;1.0406292999978177;0;0;1;0;0.01
9;1;5;22;letter190;letter169;incongruent;0.04;letter190;0.05;0.07;fullmask;0.2;arrow_right.png;m;0.2634980999864638;0.2704127000179142;278587.8547859;2.700020559132099e-06;0.49793459998909384;0.5379541000002064;0.5494765000184998;0.6192513999994844;0.7499103000154719;1.018270600005053;0;0;1;0;0.01
9;1;5;23;letter190;letter169;incongruent;0.04;letter169;0.05;0.07;fullmask;0.2;arrow_left.png;c;0.23591460002353415;0.24052069999743253;278589.4386026;2.700020559132099e-06;0.49615090002771467;0.5361642999923788;0.5480493000359274;0.6179625000222586;0.7475176000152715;0.9864641000167467;0;0;1;0;0.01
9;1;5;24;letter190;letter169;incongruent;0.04;letter169;0.05;0.07;fullmask;0.2;arrow_left.png;c;0.3112908999901265;0.3200675999978557;278591.0946383;2.700020559132099e-06;0.5011834000470117;0.5412073000334203;0.5527266000281088;0.6224051000317559;0.7530565000488423;1.0715553000336513;0;0;1;0;0.01
9;1;5;25;letter190;letter169;incongruent;0.04;letter169;0.05;0.07;fullmask;0.2;arrow_left.png;c;0.29846630000974983;0.3002617000020109;278592.7426299;2.700020559132099e-06;0.49744860001374036;0.5374683000263758;0.54871230002027;0.6196199000114575;0.7491813999949954;1.0477911999914795;0;0;1;0;0.01
9;1;5;26;letter190;letter169;congruent;0.04;letter190;0.05;0.07;fullmask;0.2;arrow_left.png;c;0.273415700008627;0.28116939996834844;278594.3585909;2.6999623514711857e-06;0.50306689995341;0.5430804999778047;0.5542941999738105;0.6250573999714106;0.754622099979315;1.0334227999555878;0;0;1;0;0.01
9;1;5;27;letter190;letter169;congruent;0.04;letter169;0.05;0.07;fullmask;0.2;arrow_right.png;m;0.15975689998595044;0.16053110000211746;278595.8866466;2.7999631129205227e-06;0.5007887999527156;0.5408300999552011;0.5526749999844469;0.6223660999676213;0.7132039999705739;0.7132088000071235;0;1;0;0;0.01
9;1;5;28;letter190;letter169;congruent;0.04;letter190;0.05;0.07;fullmask;0.2;arrow_left.png;c;0.33911379997152835;0.3400116999982856;278597.3665904;2.700020559132099e-06;0.5041880999924615;0.544215300003998;0.5558058000169694;0.62547780002933;0.7561327000148594;0.8857844000449404;0;0;0;1;0.01
9;1;5;29;letter190;letter169;congruent;0.04;letter190;0.05;0.07;fullmask;0.2;arrow_left.png;c;0.2478298000060022;0.25041340000461787;278598.7666285;2.7999631129205227e-06;0.5024144999915734;0.5424520999658853;0.554387099982705;0.6242944999830797;0.7538579999818467;1.002757299982477;0;0;1;0;0.01
9;1;5;30;letter190;letter169;incongruent;0.04;letter169;0.05;0.07;fullmask;0.2;arrow_left.png;c;0.3109662999631837;0.32031959999585524;278600.4305728;2.800021320581436e-06;0.5039709000266157;0.5439928999985568;0.5557136000134051;0.6254866000381298;0.7561390000046231;1.0743336000014096;0;0;1;0;0.01
9;1;5;31;letter190;letter169;congruent;0.04;letter169;0.05;0.07;fullmask;0.2;arrow_right.png;m;0.23419669998111203;0.24037549999775365;278602.0146205;2.700020559132099e-06;0.4994091999833472;0.5394305000081658;0.5509053000132553;0.6206815000041388;0.7513311000075191;0.9897361000184901;0;0;1;0;0.01
9;1;5;32;letter190;letter169;incongruent;0.04;letter190;0.05;0.07;fullmask;0.2;arrow_right.png;m;0.3511389999766834;0.3599612999823876;278603.7025883;2.6999623514711857e-06;0.49564479995751753;0.5356613000039943;0.54713169997558;0.6169036999926902;0.7474606999894604;0.8771153999841772;0;0;0;1;0.01
9;1;5;33;letter190;letter169;incongruent;0.04;letter169;0.05;0.07;fullmask;0.2;arrow_left.png;c;0.35374779999256134;0.36005920002935454;278605.206777;2.7999631129205227e-06;0.5048224999918602;0.5448373999679461;0.5569286000099964;0.6266004999633878;0.7562560999649577;0.8869045999599621;0;0;0;1;0.01
9;1;5;34;letter190;letter169;incongruent;0.04;letter190;0.05;0.07;fullmask;0.2;arrow_right.png;m;0.2927250000066124;0.3002601000480354;278606.6465783;2.6999623514711857e-06;0.496540299966;0.5365535999881104;0.5484795999946073;0.6183952999999747;0.7479495999868959;1.0468864999711514;0;0;1;0;0.01
9;1;5;35;letter190;letter169;incongruent;0.04;letter190;0.05;0.07;fullmask;0.2;arrow_right.png;m;0.26832390000345185;0.270444999972824;278608.2627008;2.800021320581436e-06;0.5050159000093117;0.545040000055451;0.5564192000310868;0.6262365000438876;0.7568867000518367;1.0253416000050493;0;0;1;0;0.01
9;1;5;36;letter190;letter169;congruent;0.04;letter169;0.05;0.07;fullmask;0.2;arrow_right.png;m;0.23845150001579896;0.23937359999399632;278609.8545822;2.7999631129205227e-06;0.49771069997223094;0.5377350999624468;0.5498306999797933;0.619604499952402;0.7492569999885745;0.9880475999671035;0;0;1;0;0.01
9;1;5;37;letter190;letter169;congruent;0.04;letter169;0.05;0.07;fullmask;0.2;arrow_right.png;m;0.25764570001047105;0.260227799997665;278611.4545794;2.800021320581436e-06;0.49895580002339557;0.5389708000002429;0.5508494999958202;0.620615900028497;0.7511763999937102;1.009274500014726;0;0;1;0;0.01
9;1;5;38;letter190;letter169;congruent;0.04;letter169;0.05;0.07;fullmask;0.2;arrow_right.png;m;0.2631402999977581;0.2702922999742441;278613.0705904;2.700020559132099e-06;0.502894599980209;0.5429122000350617;0.5542664999957196;0.6250366999884136;0.7546902000322007;1.0232360000372864;0;0;1;0;0.01
9;1;5;39;letter190;letter169;congruent;0.04;letter190;0.05;0.07;fullmask;0.2;arrow_left.png;m;0.2352820999803953;0.23927800002275035;278614.6545733;3.00002284348011e-06;0.5045419000089169;0.5445741000003181;0.5567043999908492;0.6263803000329062;0.7560315000009723;0.9948628999991342;0;0;1;0;0.01
9;1;5;40;letter190;letter169;congruent;0.04;letter190;0.05;0.07;fullmask;0.2;arrow_left.png;c;0.351271599996835;0.3610853999853134;278616.3508131;2.7999631129205227e-06;0.49512569996295497;0.5351448999717832;0.5465219999896362;0.6172016999917105;0.7468641999876127;0.8775207999860868;0;0;0;1;0.01
9;1;5;41;letter190;letter169;incongruent;0.04;letter169;0.05;0.07;fullmask;0.2;arrow_left.png;c;0.3293108000070788;0.33013089996529743;278617.8305805;2.800021320581436e-06;0.4957604000228457;0.535780500038527;0.5479069000575691;0.6176773000042886;0.7473359000287019;1.0761185000301339;0;0;1;0;0.01
9;1;5;42;letter190;letter169;incongruent;0.04;letter169;0.05;0.07;fullmask;0.2;arrow_left.png;m;0.25117379997391254;0.2602704999735579;278619.4226853;2.600019797682762e-06;0.5001912000006996;0.5402092000003904;0.5515008000074886;0.6222678999765776;0.7518306000274606;1.0105263000004925;0;0;1;0;0.01
9;1;5;43;letter190;letter169;incongruent;0.04;letter190;0.05;0.07;fullmask;0.2;arrow_right.png;m;0.23403870000038296;0.24066389998188242;278621.006577;2.800021320581436e-06;0.4956328999833204;0.5356206999858841;0.5468971999944188;0.6176688999985345;0.7476194000337273;0.9859204000094905;0;0;1;0;0.01
9;1;5;44;letter190;letter169;congruent;0.04;letter169;0.05;0.07;fullmask;0.2;arrow_right.png;c;0.3564440999762155;0.36010210000677034;278622.7105677;3.00002284348011e-06;0.49915109999710694;0.5391814000322483;0.5510088999872096;0.6209185000043362;0.7504805999924429;0.8811323000118136;0;0;0;1;0.01
9;1;5;45;letter190;letter169;incongruent;0.04;letter190;0.05;0.07;fullmask;0.2;arrow_right.png;m;0.2476955999736674;0.2503953999839723;278624.102547;2.800021320581436e-06;0.5004175000358373;0.5404402000131086;0.5520295000169426;0.6219434000086039;0.7524840999976732;1.0007502000080422;0;0;1;0;0.01
9;1;5;46;letter190;letter169;incongruent;0.04;letter169;0.05;0.07;fullmask;0.2;arrow_left.png;c;0.3291109999991022;0.3311682000057772;278625.7747623;2.700020559132099e-06;0.49927709996700287;0.5392974999849685;0.5506624999688938;0.6213325000135228;0.7510107000125572;1.0796650999691337;0;0;1;0;0.01
9;1;5;47;letter190;letter169;congruent;0.04;letter190;0.05;0.07;fullmask;0.2;arrow_left.png;c;0.321785899985116;0.33004640002036467;278627.4385606;2.800021320581436e-06;0.5031835000263527;0.5432028000359423;0.5545956999994814;0.6252770000137389;0.7549302999977954;1.083552600000985;0;0;1;0;0.01
9;1;5;48;letter190;letter169;incongruent;0.04;letter190;0.05;0.07;fullmask;0.2;arrow_right.png;m;0.3361320999683812;0.3401042000041343;278629.1345305;2.800021320581436e-06;0.49922940001124516;0.5392354000359774;0.5511708999983966;0.620940699998755;0.7505963000003248;0.8812450999976136;0;0;0;1;0.01
9;2;12;1;letter181;letter357;incongruent;0.04;letter357;0.09;0.07;fullmask;0.2;arrow_left.png;c;0.34731510002166033;0.35017579997656867;279731.5496676;2.800021320581436e-06;0.5003965000505559;0.540413000038825;0.5920308000058867;0.6619823000510223;0.7925461000413634;0.9221978000132367;0;0;0;1;0.01
9;2;12;2;letter181;letter357;incongruent;0.04;letter181;0.09;0.07;fullmask;0.2;arrow_right.png;m;0.30451769998762757;0.31009879999328405;279733.037664;2.600019797682762e-06;0.5047592000337318;0.5447803999995813;0.5961835000198334;0.6668607000028715;0.7965283000376076;1.105142300017178;0;0;1;0;0.01
9;2;12;3;letter181;letter357;incongruent;0.04;letter357;0.09;0.07;fullmask;0.2;arrow_left.png;c;0.24508600000990555;0.2504973000031896;279734.6696949;2.7999631129205227e-06;0.49688659998355433;0.5369090999593027;0.5886819000006653;0.6585853999713436;0.7891479000099935;1.0372352999984287;0;0;1;0;0.01
9;2;12;4;letter181;letter357;incongruent;0.04;letter181;0.09;0.07;fullmask;0.2;arrow_right.png;m;0.26174709998304024;0.27020319999428466;279736.3176666;2.700020559132099e-06;0.4981924000312574;0.5382236000150442;0.5902359000174329;0.6599149000248872;0.7895706000272185;1.0585528000374325;0;0;1;0;0.01
9;2;12;5;letter181;letter357;incongruent;0.04;letter181;0.09;0.07;fullmask;0.2;arrow_right.png;c;0.275197200011462;0.28031490003922954;279737.9816453;2.6999623514711857e-06;0.5033457999816164;0.5433611999615096;0.5948508000001311;0.6646663999999873;0.795318899967242;1.0737079999526031;0;0;1;0;0.01
9;2;12;6;letter181;letter357;incongruent;0.04;letter357;0.09;0.07;fullmask;0.2;arrow_left.png;m;0.24748119997093454;0.2492558999801986;279739.6056728;2.900022082030773e-06;0.4952835000003688;0.5353173000039533;0.5874641999835148;0.6571409999742173;0.7867961999727413;1.0356377999996766;0;0;1;0;0.01
9;2;12;7;letter181;letter357;congruent;0.04;letter181;0.09;0.07;fullmask;0.2;arrow_left.png;c;0.2806962000322528;0.2901456000399776;279741.2696926;3.00002284348011e-06;0.49775310000404716;0.5377628999995068;0.5896805000375025;0.6593566000228748;0.7900068000308238;1.0781151000410318;0;0;1;0;0.01
9;2;12;8;letter181;letter357;congruent;0.04;letter181;0.09;0.07;fullmask;0.2;arrow_left.png;c;0.2582004999858327;0.2603590000071563;279742.9177383;2.700020559132099e-06;0.49755630001891404;0.537588200008031;0.5889615000342019;0.6596408000332303;0.789312000037171;1.0479182000271976;0;0;1;0;0.01
9;2;12;9;letter181;letter357;congruent;0.04;letter357;0.09;0.07;fullmask;0.2;arrow_right.png;m;0.3364762999699451;0.3401531000272371;279744.6376553;2.6999623514711857e-06;0.5003607999533415;0.5403823999804445;0.5923303999588825;0.6622371999546885;0.7918023999664001;0.9224517999682575;0;0;0;1;0.01
9;2;12;10;letter181;letter357;congruent;0.04;letter181;0.09;0.07;fullmask;0.2;arrow_left.png;c;0.30382339999778196;0.3101880999747664;279746.1256532;2.700020559132099e-06;0.49880459997802973;0.5388163999887183;0.5904388999915682;0.660214499977883;0.7908633999759331;1.099186200008262;0;0;1;0;0.01
9;2;12;11;letter181;letter357;congruent;0.04;letter357;0.09;0.07;fullmask;0.2;arrow_right.png;m;0.19629709998844191;0.19953059998806566;279747.7096509;2.8999638743698597e-06;0.5035548000014387;0.5435889000073075;0.595633499964606;0.6655405000201426;0.7951634000055492;0.7951658999663778;0;1;0;0;0.01
9;2;12;12;letter181;letter357;congruent;0.04;letter357;0.09;0.07;fullmask;0.2;arrow_right.png;m;0.3299911000067368;0.3400073000229895;279749.2137273;2.800021320581436e-06;0.49542819999624044;0.5354675999842584;0.5869797000195831;0.6566511999699287;0.7873024999862537;0.9168680000002496;0;0;0;1;0.01
9;2;12;13;letter181;letter357;incongruent;0.04;letter357;0.09;0.07;fullmask;0.2;arrow_left.png;c;0.270361699978821;0.2793188999639824;279750.6856656;2.7999631129205227e-06;0.49828139995224774;0.5383168999687769;0.5904222999815829;0.6603330999496393;0.7898929999792017;1.0686590999830514;0;0;1;0;0.01
9;2;12;14;letter181;letter357;incongruent;0.04;letter357;0.09;0.07;fullmask;0.2;arrow_left.png;c;0.3297049000393599;0.3299514999962412;279752.405711;2.700020559132099e-06;0.5038282999885269;0.5438191000139341;0.5955946000176482;0.6652688999893144;0.7959192999987863;1.1242348999949172;0;0;1;0;0.01
9;2;12;15;letter181;letter357;incongruent;0.04;letter181;0.09;0.07;fullmask;0.2;arrow_right.png;m;0.2592162000364624;0.2613277999917045;279754.0458536;2.900022082030773e-06;0.4970241999835707;0.5370518999989145;0.5883038000320084;0.6589817000203766;0.7886285000131465;1.047381000011228;0;0;1;0;0.01
9;2;12;16;letter181;letter357;incongruent;0.04;letter357;0.09;0.07;fullmask;0.2;arrow_left.png;c;0.36795949999941513;0.3710276000201702;279755.8056412;3.100023604929447e-06;0.4974843999953009;0.5374992999713868;0.588744200009387;0.6595157000119798;0.7891628000070341;0.9198149999720044;0;0;0;1;0.01
9;2;12;17;letter181;letter357;congruent;0.04;letter181;0.09;0.07;fullmask;0.2;arrow_left.png;m;0.24815709999529645;0.25025470001855865;279757.2376381;2.700020559132099e-06;0.49891970003955066;0.5389093999983743;0.5909429999883287;0.6606228000018746;0.790273700025864;1.0392500000307336;0;0;1;0;0.01
9;2;12;18;letter181;letter357;congruent;0.04;letter181;0.09;0.07;fullmask;0.2;arrow_left.png;c;0.33745140000246465;0.3401532999705523;279758.9576007;2.7999631129205227e-06;0.5000048999791034;0.5400239999871701;0.5916762999841012;0.661581699969247;0.7921438000048511;0.9218003999558277;0;0;0;1;0.01
9;2;12;19;letter181;letter357;congruent;0.04;letter181;0.09;0.07;fullmask;0.2;arrow_left.png;m;0.24690090003423393;0.2503380000125617;279760.3976373;2.600019797682762e-06;0.5024136999854818;0.5424138000234962;0.5936660000006668;0.6644459000090137;0.7940860000089742;1.042776699992828;0;0;1;0;0.01
9;2;12;20;letter181;letter357;congruent;0.04;letter357;0.09;0.07;fullmask;0.2;arrow_right.png;m;0.25420889997622;0.26046919997315854;279762.0460117;2.700020559132099e-06;0.5023672999814153;0.5423773999791592;0.5936196999973617;0.664527699991595;0.7940800999640487;1.0527084000059403;0;0;1;0;0.01
9;2;12;21;letter181;letter357;congruent;0.04;letter357;0.09;0.07;fullmask;0.2;arrow_right.png;m;0.2640599000151269;0.27042359998449683;279763.7176424;2.800021320581436e-06;0.5036099000135437;0.5436153000337072;0.5955568000208586;0.6654604999930598;0.7951212000334635;1.0639782000216655;0;0;1;0;0.01
9;2;12;22;letter181;letter357;congruent;0.04;letter357;0.09;0.07;fullmask;0.2;arrow_right.png;m;0.32315720000769943;0.3301387000246905;279765.4376315;2.7999631129205227e-06;0.4995945999980904;0.5396090999711305;0.5913741000113077;0.6611475999816321;0.7917976999888197;1.1199970999732614;0;0;1;0;0.01
9;2;12;23;letter181;letter357;incongruent;0.04;letter181;0.09;0.07;fullmask;0.2;arrow_right.png;c;0.3104737999965437;0.32017810002435;279767.1256409;2.800021320581436e-06;0.49510230001760647;0.535106600029394;0.5864703000406735;0.6572391000227071;0.7868929000105709;1.1055193000356667;0;0;1;0;0.01
9;2;12;24;letter181;letter357;incongruent;0.04;letter181;0.09;0.07;fullmask;0.2;arrow_right.png;m;0.3289245999767445;0.33009119995404035;279768.845707;3.00002284348011e-06;0.4959828000282869;0.5359948000404984;0.5878565000020899;0.657465800002683;0.7881295999977738;1.1163781000068411;0;0;1;0;0.01
9;2;12;25;letter181;letter357;congruent;0.04;letter181;0.09;0.07;fullmask;0.2;arrow_left.png;c;0.24744479998480529;0.24934789998224005;279770.4856271;2.700020559132099e-06;0.4967849000240676;0.5367636000155471;0.5889103000517935;0.6586827000137419;0.7883369000046514;1.0371038000448607;0;0;1;0;0.01
9;2;12;26;letter181;letter357;incongruent;0.04;letter357;0.09;0.07;fullmask;0.2;arrow_left.png;c;0.34496680001029745;0.35007809998933226;279772.2136298;2.700020559132099e-06;0.4957590000121854;0.5357811999856494;0.5873490000376478;0.6571204999927431;0.787771100003738;0.9174249999923632;0;0;0;1;0.01
9;2;12;27;letter181;letter357;congruent;0.04;letter181;0.09;0.07;fullmask;0.2;arrow_left.png;c;0.28588340000715107;0.29023749998304993;279773.685622;2.700020559132099e-06;0.4956765999668278;0.5357086000149138;0.5873476999695413;0.6571180999744684;0.787767999980133;1.076049899973441;0;0;1;0;0.01
9;2;12;28;letter181;letter357;incongruent;0.04;letter357;0.09;0.07;fullmask;0.2;arrow_left.png;c;0.2709057000465691;0.28026470000622794;279775.3416513;2.7999631129205227e-06;0.497926699987147;0.5379632000112906;0.5895292999921367;0.6593015000107698;0.789951300015673;1.068301799998153;0;0;1;0;0.01
9;2;12;29;letter181;letter357;congruent;0.04;letter357;0.09;0.07;fullmask;0.2;arrow_right.png;c;0.24808639998082072;0.2503850000211969;279776.989707;2.600019797682762e-06;0.5024689999991097;0.5424827999668196;0.593864599999506;0.6645455000107177;0.7942158000078052;1.0428106000181288;0;0;1;0;0.01
9;2;12;30;letter181;letter357;incongruent;0.04;letter181;0.09;0.07;fullmask;0.2;arrow_right.png;m;0.2568127000122331;0.26017869997303933;279778.6296126;2.700020559132099e-06;0.5026672999956645;0.5426696999929845;0.5941636000061408;0.6647921000258066;0.7943774000159465;1.0530254000332206;0;0;1;0;0.01
9;2;12;31;letter181;letter357;incongruent;0.04;letter357;0.09;0.07;fullmask;0.2;arrow_left.png;m;0.28600809996714815;0.29023360001156107;279780.3096158;2.7999631129205227e-06;0.5032110000029206;0.5432196999900043;0.5944565999670886;0.6652228999882936;0.7948759999708273;1.0835836000042036;0;0;1;0;0.01
9;2;12;32;letter181;letter357;congruent;0.04;letter357;0.09;0.07;fullmask;0.2;arrow_right.png;c;0.20425320003414527;0.20950410002842546;279781.9096239;2.800021320581436e-06;0.49969880003482103;0.5397187999915332;0.5916227000416256;0.6615318999974988;0.7910989000229165;1.0000266000279225;0;0;1;0;0.01
9;2;12;33;letter181;letter357;incongruent;0.04;letter181;0.09;0.07;fullmask;0.2;arrow_right.png;m;0.26149060000898317;0.27030209999065846;279783.557924;2.5999615900218487e-06;0.4991882999893278;0.5391946000163443;0.5911176999798045;0.6607950999750756;0.7904496999690309;1.0595218999660574;0;0;1;0;0.01
9;2;12;34;letter181;letter357;congruent;0.04;letter357;0.09;0.07;fullmask;0.2;arrow_right.png;m;0.2648287999909371;0.27033199998550117;279785.2217096;2.700020559132099e-06;0.5010664000292309;0.5410717000486329;0.5923971000011079;0.6630954000283964;0.7927293000393547;1.061428600049112;0;0;1;0;0.01
9;2;12;35;letter181;letter357;incongruent;0.04;letter181;0.09;0.07;fullmask;0.2;arrow_right.png;m;0.2610193999717012;0.27034200000343844;279786.8696155;2.8999638743698597e-06;0.49745669995900244;0.5374727000016719;0.5894263999653049;0.6593328999588266;0.7888986999751069;1.057814400002826;0;0;1;0;0.01
9;2;12;36;letter181;letter357;congruent;0.04;letter181;0.09;0.07;fullmask;0.2;arrow_left.png;c;0.2981782000279054;0.30021790001774207;279788.5576184;2.7999631129205227e-06;0.49883329996373504;0.538868099974934;0.5905772999976762;0.6603510999702848;0.7910013999789953;1.089212899969425;0;0;1;0;0.01
9;2;12;37;letter181;letter357;congruent;0.04;letter181;0.09;0.07;fullmask;0.2;arrow_left.png;c;0.33680240000830963;0.3401062000193633;279790.2776094;2.7999631129205227e-06;0.5036009999457747;0.543613399961032;0.5956270999740809;0.6653154999949038;0.795054699992761;0.9257043999969028;0;0;0;1;0.01
9;2;12;38;letter181;letter357;incongruent;0.04;letter181;0.09;0.07;fullmask;0.2;arrow_right.png;m;0.326219399983529;0.33028470003046095;279791.7977668;2.700020559132099e-06;0.5008184000034817;0.5408405000343919;0.5925881000002846;0.6624955000006594;0.7930547000141814;1.1212145000463352;0;0;1;0;0.01
9;2;12;39;letter181;letter357;congruent;0.04;letter357;0.09;0.07;fullmask;0.2;arrow_right.png;m;0.26855749997776;0.2702265999978408;279793.4616143;2.8999638743698597e-06;0.5017587000038475;0.5417551000136882;0.5938962000072934;0.6635959999985062;0.7932464999612421;1.062108799989801;0;0;1;0;0.01
9;2;12;40;letter181;letter357;incongruent;0.04;letter181;0.09;0.07;fullmask;0.2;arrow_right.png;m;0.28034900000784546;0.2902345000184141;279795.1336392;2.700020559132099e-06;0.49805039999773726;0.5380733000347391;0.5893742000334896;0.6601316999876872;0.7897851000307128;1.0784250000142492;0;0;1;0;0.01
9;2;12;41;letter181;letter357;incongruent;0.04;letter357;0.09;0.07;fullmask;0.2;arrow_left.png;c;0.35927220003213733;0.36109840002609417;279796.8935612;2.800021320581436e-06;0.5046253000036813;0.5446431000018492;0.5958626000210643;0.6667660999810323;0.7963272000197321;0.9269799999892712;0;0;0;1;0.01
9;2;12;42;letter181;letter357;congruent;0.04;letter357;0.09;0.07;fullmask;0.2;arrow_right.png;m;0.24978210002882406;0.2502235000138171;279798.3256749;2.700020559132099e-06;0.49597840005299076;0.5362964000087231;0.5878262000042014;0.6575035999994725;0.7881565000279807;1.0363278000149876;0;0;1;0;0.01
9;2;12;43;letter181;letter357;incongruent;0.04;letter357;0.09;0.07;fullmask;0.2;arrow_left.png;c;0.2686490000342019;0.27034019998973235;279799.9655802;3.0999653972685337e-06;0.49395480001112446;0.5339657999575138;0.5857858000090346;0.6556058999849483;0.7852566000074148;1.0543151999590918;0;0;1;0;0.01
9;2;12;44;letter181;letter357;congruent;0.04;letter181;0.09;0.07;fullmask;0.2;arrow_left.png;c;0.2978677999926731;0.3003610000014305;279801.645676;2.800021320581436e-06;0.5038486999692395;0.5438605999806896;0.5954805000219494;0.6653880999656394;0.7959497999981977;1.0942328000091948;0;0;1;0;0.01
9;2;12;45;letter181;letter357;incongruent;0.04;letter181;0.09;0.07;fullmask;0.2;arrow_right.png;m;0.26312349998624995;0.27029010001569986;279803.3016194;2.800021320581436e-06;0.5022863000049256;0.5423281000112183;0.5935084000229836;0.6642804000293836;0.7939269000198692;1.0626548000145704;0;0;1;0;0.01
9;2;12;46;letter181;letter357;congruent;0.04;letter181;0.09;0.07;fullmask;0.2;arrow_left.png;c;0.25757369998609647;0.26031799998600036;279804.9576098;2.7999631129205227e-06;0.504669499990996;0.5447009999770671;0.5963569000014104;0.6661301999702118;0.7967911000014283;1.0550320000038482;0;0;1;0;0.01
9;2;12;47;letter181;letter357;congruent;0.04;letter357;0.09;0.07;fullmask;0.2;arrow_right.png;m;0.2628749999566935;0.2703426999505609;279806.6136;2.6999623514711857e-06;0.5050085999537259;0.5450103999464773;0.5963227999745868;0.6662331999978051;0.796790599997621;1.0653722999850288;0;0;1;0;0.01
9;2;12;48;letter181;letter357;incongruent;0.04;letter357;0.09;0.07;fullmask;0.2;arrow_left.png;c;0.33963430003495887;0.3400695000309497;279808.3416956;2.600019797682762e-06;0.49860970000736415;0.538607900030911;0.5901680000242777;0.6599431000067852;0.7906116000376642;0.9202460999949835;0;0;0;1;0.01
9;2;13;1;letter181;letter357;incongruent;0.04;letter181;0.09;0.07;fullmask;0.2;arrow_right.png;m;0.3309204999823123;0.340135200007353;279811.5655876;2.6999623514711857e-06;0.4979270999901928;0.5379646999645047;0.590015499969013;0.6598151999642141;0.7894687000080012;0.9201194999623112;0;0;0;1;0.01
9;2;13;2;letter181;letter357;incongruent;0.04;letter357;0.09;0.07;fullmask;0.2;arrow_left.png;m;0.2746731999795884;0.2801690999767743;279813.0295985;2.5999615900218487e-06;0.50211489998037;0.5421574999927543;0.5934878999833018;0.6642478000139818;0.7938135999720544;1.0725360999931581;0;0;1;0;0.01
9;2;13;3;letter181;letter357;incongruent;0.04;letter181;0.09;0.07;fullmask;0.2;arrow_right.png;m;0.26929859997471794;0.2701863999827765;279814.7256824;2.700020559132099e-06;0.5008986000320874;0.5409410000429489;0.5926201000111178;0.6622531000175513;0.7929036000277847;1.0612823000410572;0;0;1;0;0.01
9;2;13;4;letter181;letter357;congruent;0.04;letter181;0.09;0.07;fullmask;0.2;arrow_left.png;c;0.25635520002106205;0.2604756000218913;279816.3736882;2.6999623514711857e-06;0.4969396999804303;0.5369612999493256;0.5885231999563985;0.6583403999684379;0.788989299966488;1.0472878000000492;0;0;1;0;0.01
9;2;13;5;letter181;letter357;congruent;0.04;letter181;0.09;0.07;fullmask;0.2;arrow_left.png;c;0.3328935999888927;0.3402542000403628;279818.1017654;2.6999623514711857e-06;0.4968218999565579;0.5368468999513425;0.5888878999976441;0.6587942999904044;0.7883584999945015;0.9190080999978818;0;0;0;1;0.01
9;2;13;6;letter181;letter357;congruent;0.04;letter357;0.09;0.07;fullmask;0.2;arrow_right.png;m;0.2562817999860272;0.26033190003363416;279819.5655845;2.700020559132099e-06;0.5033736000186764;0.5433971000020392;0.5948514000046998;0.6656213999958709;0.7952705000061542;1.0537124000256881;0;0;1;0;0.01
9;2;13;7;letter181;letter357;incongruent;0.04;letter357;0.09;0.07;fullmask;0.2;arrow_left.png;c;0.3410158999613486;0.3500843999790959;279821.3015895;2.700020559132099e-06;0.49892260000342503;0.5389512000256218;0.5906066999887116;0.6603762999875471;0.7910260999924503;0.9206876999814995;0;0;0;1;0.01
9;2;13;8;letter181;letter357;congruent;0.04;letter181;0.09;0.07;fullmask;0.2;arrow_left.png;m;0.24758309999015182;0.24939429998630658;279822.7495457;2.700020559132099e-06;0.49601760000223294;0.5360371000133455;0.5881057000369765;0.6581686999998055;0.7875752000254579;1.0363740000175312;0;0;1;0;0.01
9;2;13;9;letter181;letter357;congruent;0.04;letter357;0.09;0.07;fullmask;0.2;arrow_right.png;m;0.26515370002016425;0.27029050001874566;279824.3976188;3.100023604929447e-06;0.4999168000067584;0.5399326999904588;0.591434300004039;0.6611993000260554;0.7918496000347659;1.0602704000193626;0;0;1;0;0.01
9;2;13;10;letter181;letter357;congruent;0.04;letter357;0.09;0.07;fullmask;0.2;arrow_right.png;m;0.3079109999816865;0.3103339999797754;279826.1016622;2.700020559132099e-06;0.4979551999713294;0.5379806999699213;0.5897052999935113;0.6596164000220597;0.7901571000111289;1.098358699993696;0;0;1;0;0.01
9;2;13;11;letter181;letter357;incongruent;0.04;letter357;0.09;0.07;fullmask;0.2;arrow_left.png;c;0.28116810001665726;0.2901772999903187;279827.7656712;2.800021320581436e-06;0.499056400032714;0.5390631000045687;0.5904295000364073;0.6611004000296816;0.7907525000046007;1.0794083999935538;0;0;1;0;0.01
9;2;13;12;letter181;letter357;incongruent;0.04;letter181;0.09;0.07;fullmask;0.2;arrow_right.png;m;0.2901972999679856;0.29114589997334406;279829.445654;2.7999631129205227e-06;0.5047791000106372;0.5447946999920532;0.5960326999775134;0.6668080000090413;0.7963615999906324;1.0851371999597177;0;0;1;0;0.01
9;2;13;13;letter181;letter357;incongruent;0.04;letter357;0.09;0.07;fullmask;0.2;arrow_left.png;c;0.24071279994677752;0.25039409997407347;279831.0775634;2.700020559132099e-06;0.5035238999989815;0.5435321000404656;0.5950830000219867;0.6649957000045106;0.7955528000020422;1.0438593000289984;0;0;1;0;0.01
9;2;13;14;letter181;letter357;incongruent;0.04;letter357;0.09;0.07;fullmask;0.2;arrow_left.png;m;0.2737022999790497;0.2803148999810219;279832.7415823;2.800021320581436e-06;0.4989097000216134;0.5389294000342488;0.5904568000114523;0.6602745000272989;0.7909106000442989;1.0692775000352412;0;0;1;0;0.01
9;2;13;15;letter181;letter357;incongruent;0.04;letter181;0.09;0.07;fullmask;0.2;arrow_right.png;m;0.29087929998058826;0.30025569995632395;279834.429757;2.6999623514711857e-06;0.5027750000008382;0.5427967999712564;0.5942353999707848;0.6649391999817453;0.7945749000064097;1.0931502999737859;0;0;1;0;0.01
9;2;13;16;letter181;letter357;incongruent;0.04;letter181;0.09;0.07;fullmask;0.2;arrow_right.png;c;0.2634484999580309;0.2702978999586776;279836.0935709;2.700020559132099e-06;0.5032077999785542;0.543229800008703;0.5948185999877751;0.6645931000239216;0.7952458999934606;1.0635733000235632;0;0;1;0;0.01
9;2;13;17;letter181;letter357;congruent;0.04;letter181;0.09;0.07;fullmask;0.2;arrow_left.png;c;0.28430100000696257;0.29014549998100847;279837.7655715;2.800021320581436e-06;0.495490700006485;0.5355138000450097;0.5871828000526875;0.6568589000380598;0.7875088000437245;1.0758679000427946;0;0;1;0;0.01
9;2;13;18;letter181;letter357;congruent;0.04;letter181;0.09;0.07;fullmask;0.2;arrow_left.png;c;0.3550090999924578;0.3600602999795228;279839.5176145;3.200024366378784e-06;0.5005172999808565;0.5405437999870628;0.5924566999892704;0.6622161000268534;0.7918789000250399;0.9225274000200443;0;0;0;1;0.01
9;2;13;19;letter181;letter357;congruent;0.04;letter181;0.09;0.07;fullmask;0.2;arrow_left.png;c;0.30844240001169965;0.31024050002451986;279841.0216507;2.700020559132099e-06;0.502048599999398;0.5420723999850452;0.5935716000385582;0.6633554000291042;0.7940042000263929;1.1024384000338614;0;0;1;0;0.01
9;2;13;20;letter181;letter357;congruent;0.04;letter357;0.09;0.07;fullmask;0.2;arrow_right.png;m;0.16707880003377795;0.17046739999204874;279842.5815896;2.6999623514711857e-06;0.5034056999720633;0.5434266999945976;0.5951383999781683;0.6648217999609187;0.7655997999827377;0.7656026000040583;0;1;0;0;0.01
9;2;13;21;letter181;letter357;congruent;0.04;letter357;0.09;0.07;fullmask;0.2;arrow_right.png;m;0.27782949997344986;0.2802711999975145;279844.0535714;2.800021320581436e-06;0.4987251000129618;0.5387441000202671;0.5907978999894112;0.6605740999802947;0.7902325000031851;1.0691478999797255;0;0;1;0;0.01
9;2;13;22;letter181;letter357;incongruent;0.04;letter181;0.09;0.07;fullmask;0.2;arrow_right.png;m;0.2647061999887228;0.2701991000212729;279845.7015715;2.700020559132099e-06;0.5010554000036791;0.5410825000144541;0.5931907999911346;0.6629605999914929;0.7925185000058264;1.0614298000000417;0;0;1;0;0.01
9;2;13;23;letter181;letter357;congruent;0.04;letter357;0.09;0.07;fullmask;0.2;arrow_right.png;m;0.25435810000635684;0.26033139997161925;279847.3416195;2.7999631129205227e-06;0.49511659995187074;0.5351353999576531;0.5865726999472827;0.6563460999750532;0.7870016999659128;1.0454844999476336;0;0;1;0;0.01
9;2;13;24;letter181;letter357;incongruent;0.04;letter357;0.09;0.07;fullmask;0.2;arrow_left.png;m;0.2615351999993436;0.2703141000238247;279848.9897528;2.700020559132099e-06;0.5020507000153884;0.5420795000391081;0.5933947000303306;0.664061599993147;0.7937140000285581;1.062421600043308;0;0;1;0;0.01
9;2;13;25;letter181;letter357;congruent;0.04;letter181;0.09;0.07;fullmask;0.2;arrow_left.png;c;0.2906110000330955;0.300362000009045;279850.6698498;3.0999653972685337e-06;0.5031150999711826;0.543128399993293;0.5943975999834947;0.6652083999942988;0.7948625999852084;1.093478899972979;0;0;1;0;0.01
9;2;13;26;letter181;letter357;incongruent;0.04;letter357;0.09;0.07;fullmask;0.2;arrow_left.png;m;0.3092892999993637;0.31117790000280365;279852.3895772;2.600019797682762e-06;0.49767230002908036;0.5376653000130318;0.5888984000193886;0.6596580999903381;0.7893107000272721;1.0980468000052497;0;0;1;0;0.01
9;2;13;27;letter181;letter357;congruent;0.04;letter181;0.09;0.07;fullmask;0.2;arrow_left.png;c;1.8734818000230007;1.8808933999971487;279855.6455634;2.800021320581436e-06;0.4956040999968536;0.5356297999969684;0.5875474000349641;0.6572254000348039;0.7878771999967285;0.9175348000135273;0;0;0;1;0.01
9;2;13;28;letter181;letter357;congruent;0.04;letter181;0.09;0.07;fullmask;0.2;arrow_left.png;c;0.3454486000118777;0.3501370000303723;279857.1895627;2.800021320581436e-06;0.5012009000056423;0.5411853999830782;0.5931713000172749;0.6630803000298329;0.7926417000126094;0.9232934000319801;0;0;0;1;0.01
9;2;13;29;letter181;letter357;incongruent;0.04;letter181;0.09;0.07;fullmask;0.2;arrow_right.png;m;0.28708599996753037;0.29024479998042807;279858.6616209;2.7999631129205227e-06;0.4975152999977581;0.5375754999695346;0.588921099959407;0.659591699950397;0.7892409999622032;1.0778827999602072;0;0;1;0;0.01
9;2;13;30;letter181;letter357;congruent;0.04;letter357;0.09;0.07;fullmask;0.2;arrow_right.png;m;0.27729330002330244;0.28031729999929667;279860.3335525;2.7999631129205227e-06;0.5037913999985904;0.5438076999853365;0.5958377000060864;0.6657481999718584;0.7953085000044666;1.0741763999685645;0;0;1;0;0.01
9;2;13;31;letter181;letter357;congruent;0.04;letter357;0.09;0.07;fullmask;0.2;arrow_right.png;m;0.24863270000787452;0.2502528000040911;279861.965675;2.7999631129205227e-06;0.4994005999760702;0.5394286999944597;0.5911648999899626;0.660840799973812;0.7914908999809995;1.039758900005836;0;0;1;0;0.01
9;2;13;32;letter181;letter357;congruent;0.04;letter181;0.09;0.07;fullmask;0.2;arrow_left.png;c;0.36938869999721646;0.37002319999737665;279863.7175972;2.600019797682762e-06;0.49960570002440363;0.5396321999724023;0.591476799978409;0.6612496000016108;0.7919003000133671;0.9215478000114672;0;0;0;1;0.01
9;2;13;33;letter181;letter357;incongruent;0.04;letter357;0.09;0.07;fullmask;0.2;arrow_left.png;c;0.35237370000686496;0.36021850001998246;279865.2617258;2.7999631129205227e-06;0.5009931999957189;0.5410289000137709;0.592994800012093;0.6629007000010461;0.7924644000013359;0.9231116999872029;0;0;0;1;0.01
9;2;13;34;letter181;letter357;congruent;0.04;letter357;0.09;0.07;fullmask;0.2;arrow_right.png;m;0.27357040002243593;0.2801842999760993;279866.7335444;2.700020559132099e-06;0.502064700005576;0.5420789000345394;0.5936697000288405;0.6633676000055857;0.7939867000095546;1.0724126999848522;0;0;1;0;0.01
9;2;13;35;letter181;letter357;congruent;0.04;letter357;0.09;0.07;fullmask;0.2;arrow_right.png;m;0.2685500999796204;0.2702966000069864;279868.389546;2.7999631129205227e-06;0.4981565999914892;0.5381891999859363;0.5897148999501951;0.6594949999707751;0.7901411999482661;1.0585224999813363;0;0;1;0;0.01
9;2;13;36;letter181;letter357;incongruent;0.04;letter181;0.09;0.07;fullmask;0.2;arrow_right.png;m;0.33764420001534745;0.34011129999998957;279870.1095839;2.6999623514711857e-06;0.49900730000808835;0.539025500009302;0.5904410000075586;0.6602098000003025;0.7908669000025839;0.9205125999869779;0;0;0;1;0.01
9;2;13;37;letter181;letter357;congruent;0.04;letter357;0.09;0.07;fullmask;0.2;arrow_right.png;m;0.23837460001232103;0.24042240000562742;279871.541549;2.7999631129205227e-06;0.5036154999979772;0.5436326999915764;0.5952860999968834;0.6650680999737233;0.7957165999687277;1.03394929994829;0;0;1;0;0.01
9;2;13;38;letter181;letter357;incongruent;0.04;letter357;0.09;0.07;fullmask;0.2;arrow_left.png;c;0.35213289997773245;0.36113590002059937;279873.2859718;2.700020559132099e-06;0.5007898000185378;0.5408185999840498;0.5920785000198521;0.662865000020247;0.7924963000114076;0.923177799966652;0;0;0;1;0.01
9;2;13;39;letter181;letter357;congruent;0.04;letter181;0.09;0.07;fullmask;0.2;arrow_left.png;c;0.27235749998362735;0.2802720000036061;279874.7578776;2.6999623514711857e-06;0.5036748999846168;0.5436810999526642;0.5956233000033535;0.665295899962075;0.7959505000035278;1.0740548999747261;0;0;1;0;0.01
9;2;13;40;letter181;letter357;incongruent;0.04;letter181;0.09;0.07;fullmask;0.2;arrow_right.png;m;0.3271985999890603;0.3301313999691047;279876.4935403;2.800021320581436e-06;0.5038505999837071;0.543880800018087;0.5955495999660343;0.6653253000113182;0.7959754000185058;1.1242538999649696;0;0;1;0;0.01
9;2;13;41;letter181;letter357;incongruent;0.04;letter181;0.09;0.07;fullmask;0.2;arrow_right.png;m;0.22370460000820458;0.22931300004711375;279878.1015379;2.700020559132099e-06;0.5017127000028268;0.5417291999910958;0.5937902000150643;0.6635734000010416;0.7931228000088595;1.02204830001574;0;0;1;0;0.01
9;2;13;42;letter181;letter357;congruent;0.04;letter181;0.09;0.07;fullmask;0.2;arrow_left.png;c;0.29341959999874234;0.30012169998371974;279879.7815441;2.900022082030773e-06;0.49680080002872273;0.5368167000124231;0.5881123000290245;0.6587827000184916;0.7884375000139698;1.0871799000306055;0;0;1;0;0.01
9;2;13;43;letter181;letter357;incongruent;0.04;letter181;0.09;0.07;fullmask;0.2;arrow_right.png;m;0.34045389998937026;0.3411076999618672;279881.5095705;2.5999615900218487e-06;0.49759919999632984;0.5376276999595575;0.5888199999462813;0.6596085999626666;0.7892619999474846;0.9198980999644846;0;0;0;1;0.01
9;2;13;44;letter181;letter357;congruent;0.04;letter357;0.09;0.07;fullmask;0.2;arrow_right.png;m;0.25951660005375743;0.26090940000722185;279882.9496199;2.8999638743698597e-06;0.49865519994637;0.5386811999487691;0.58988019998651;0.6604964999714866;0.7907843999564648;1.049018099962268;0;0;1;0;0.01
9;2;13;45;letter181;letter357;incongruent;0.04;letter357;0.09;0.07;fullmask;0.2;arrow_left.png;c;0.31193640001583844;0.32016520004253834;279884.6535355;2.600019797682762e-06;0.49690490000648424;0.5369106000289321;0.5885444000014104;0.6583180999732576;0.7889670000295155;1.1072829000186175;0;0;1;0;0.01
9;2;13;46;letter181;letter357;incongruent;0.04;letter181;0.09;0.07;fullmask;0.2;arrow_right.png;m;0.3445911000017077;0.3501274000154808;279886.3975247;2.700020559132099e-06;0.5028906000079587;0.5429109000251628;0.594770600029733;0.6646772000240162;0.7942413000273518;0.9248995000380091;0;0;0;1;0.01
9;2;13;47;letter181;letter357;incongruent;0.04;letter357;0.09;0.07;fullmask;0.2;arrow_left.png;c;0.35016149998409674;0.35097119997953996;279887.9335414;2.700020559132099e-06;0.500763599993661;0.5407911000074819;0.5920991000020877;0.6627592999720946;0.7924119000090286;0.923067900002934;0;0;0;1;0.01
9;2;13;48;letter181;letter357;incongruent;0.04;letter357;0.09;0.07;fullmask;0.2;arrow_left.png;m;0.26493470004061237;0.2703431000118144;279889.3895347;2.600019797682762e-06;0.5001781000173651;0.5401979999733157;0.5917419000179507;0.6616777000017464;0.7922097999835387;1.0605483999825083;0;0;1;0;0.01
