subjnr;loop_m;blocknr;trialnr;cue_left_learn;cue_right_learn; congruence;cue_dur;cue;SOA;mask_dur;mask;target_dur;target;response;RT;kb_rt;response_absolute; fix_onset;cue_onset;cue_offset;mask_onset;mask_offset;target_offset;blank_onset;response_during_mask;response_during_targetalone;response_during_RW;response_during_blank;frame_dur
12;1;4;1;letter190;letter169;incongruent;0.04;letter190;0.05;0.07;fullmask;0.2;arrow_right.png;m;0.3016042000381276;0.3102657000417821;436572.2692813;2.800021320581436e-06;0.49969000002602115;0.5397017999785021;0.5508840000256896;0.6218205000041053;0.7513805999769829;1.0600439999834634;0;0;1;0;0.01
12;1;4;2;letter190;letter169;congruent;0.04;letter190;0.05;0.07;fullmask;0.2;arrow_left.png;c;0.22641969996038824;0.23030769999604672;436573.8452238;2.800021320581436e-06;0.4990233000135049;0.5390478000044823;0.5502927000052296;0.6209703999920748;0.7506203000084497;0.9793343999772333;0;0;1;0;0.01
12;1;4;3;letter190;letter169;incongruent;0.04;letter169;0.05;0.07;fullmask;0.2;arrow_left.png;c;0.26324770000064746;0.27019800001289696;436575.4531936;2.800021320581436e-06;0.5039452000055462;0.5439674999797717;0.5553256999701262;0.6260000999900512;0.755650200007949;1.0242780999979004;0;0;1;0;0.01
12;1;4;4;letter190;letter169;congruent;0.04;letter169;0.05;0.07;fullmask;0.2;arrow_right.png;m;0.2443385999649763;0.2503543999628164;436577.045336;2.8999638743698597e-06;0.49817009997786954;0.5381837000022642;0.5495633999817073;0.6203221000032499;0.7498904999811202;0.9984968999633566;0;0;1;0;0.01
12;1;4;5;letter190;letter169;congruent;0.04;letter169;0.05;0.07;fullmask;0.2;arrow_right.png;m;0.2512851000064984;0.2603910000179894;436578.6533064;2.700020559132099e-06;0.49996300000930205;0.5399346000049263;0.5513263000175357;0.6220998999779113;0.7517519000102766;1.0102651999914087;0;0;1;0;0.01
12;1;4;6;letter190;letter169;incongruent;0.04;letter169;0.05;0.07;fullmask;0.2;arrow_left.png;m;0.2875833999714814;0.2902646999573335;436580.3012857;2.7999631129205227e-06;0.4953154999529943;0.5353510999702848;0.5473292999668047;0.6171063999645412;0.7467580999946222;1.035663399961777;0;0;1;0;0.01
12;1;4;7;letter190;letter169;incongruent;0.04;letter190;0.05;0.07;fullmask;0.2;arrow_right.png;m;0.21485069999471307;0.22044659999664873;436581.8691899;2.700020559132099e-06;0.5018577000009827;0.5418751999968663;0.553456699999515;0.6233358000172302;0.753896500042174;0.9721744999988005;0;0;1;0;0.01
12;1;4;8;letter190;letter169;congruent;0.04;letter190;0.05;0.07;fullmask;0.2;arrow_left.png;c;0.15782889997353777;0.16050439997343346;436583.3732253;2.7999631129205227e-06;0.4950737999752164;0.5350792999961413;0.5467047999845818;0.6163815999752842;0.7072097999625839;0.7072131999884732;0;1;0;0;0.01
12;1;4;9;letter190;letter169;incongruent;0.04;letter190;0.05;0.07;fullmask;0.2;arrow_right.png;m;0.19916570000350475;0.20063360000494868;436584.7253183;2.7999631129205227e-06;0.5016743000014685;0.5416723999660462;0.5532080999691971;0.6231232999707572;0.7538501999806613;0.7538583999848925;0;1;0;0;0.01
12;1;4;10;letter190;letter169;incongruent;0.04;letter169;0.05;0.07;fullmask;0.2;arrow_left.png;c;0.2137009000289254;0.21943160000955686;436586.1011757;2.700020559132099e-06;0.49946760002058;0.539497299992945;0.5514481000136584;0.6212249000091106;0.7508785999962129;0.9697692000190727;0;0;1;0;0.01
12;1;4;11;letter190;letter169;congruent;0.04;letter190;0.05;0.07;fullmask;0.2;arrow_left.png;c;0.3092015999718569;0.310324199963361;436587.7571759;2.6999623514711857e-06;0.49941849999595433;0.5394293999997899;0.5508825999568217;0.6207914999686182;0.751440999971237;1.0597889999626204;0;0;1;0;0.01
12;1;4;12;letter190;letter169;congruent;0.04;letter169;0.05;0.07;fullmask;0.2;arrow_right.png;m;0.3138257000246085;0.3201663999934681;436589.4131795;2.800021320581436e-06;0.499222100013867;0.5392436999827623;0.5510063000256196;0.6207800999982283;0.7514347999822348;1.0695970000233501;0;0;1;0;0.01
12;1;4;13;letter190;letter169;congruent;0.04;letter190;0.05;0.07;fullmask;0.2;arrow_left.png;c;0.1870230999775231;0.1905038999975659;436590.9572722;2.900022082030773e-06;0.5032179999980144;0.5432266999850981;0.5547977000242099;0.6245738000143319;0.7453025000286289;0.745304899988696;0;1;0;0;0.01
12;1;4;14;letter190;letter169;congruent;0.04;letter169;0.05;0.07;fullmask;0.2;arrow_right.png;m;0.24808210000628605;0.25037250004243106;436592.3492665;2.600019797682762e-06;0.5012702000094578;0.5412605000310577;0.552916600019671;0.622624600015115;0.7532419000053778;1.0015752000035718;0;0;1;0;0.01
12;1;4;15;letter190;letter169;congruent;0.04;letter190;0.05;0.07;fullmask;0.2;arrow_left.png;c;0.18528239999432117;0.19041440001456067;436593.8772057;2.800021320581436e-06;0.5011652000248432;0.5411752000218257;0.5525336000137031;0.6232093999860808;0.7429472000221722;0.7429496999830008;0;1;0;0;0.01
12;1;4;16;letter190;letter169;incongruent;0.04;letter190;0.05;0.07;fullmask;0.2;arrow_right.png;m;0.22802859998773783;0.23040040000341833;436595.2611804;2.8999638743698597e-06;0.49620579998008907;0.5362409999943338;0.5479292999953032;0.6177041999762878;0.7483532999758609;0.9765156999928877;0;0;1;0;0.01
12;1;4;17;letter190;letter169;congruent;0.04;letter169;0.05;0.07;fullmask;0.2;arrow_right.png;m;0.3053098999662325;0.31009539996739477;436596.9091842;2.700020559132099e-06;0.49653240002226084;0.5365616000490263;0.5479640000266954;0.6177316000103019;0.7483157000388019;1.0568927000276744;0;0;1;0;0.01
12;1;4;18;letter190;letter169;incongruent;0.04;letter190;0.05;0.07;fullmask;0.2;arrow_right.png;c;0.22762010002043098;0.23041920003015548;436598.4931737;2.5999615900218487e-06;0.504200299968943;0.5442210999899544;0.5562238999991678;0.6258972999639809;0.7555520999594592;0.9844914999557659;0;0;1;0;0.01
12;1;4;19;letter190;letter169;congruent;0.04;letter169;0.05;0.07;fullmask;0.2;arrow_right.png;m;0.23084460000973195;0.24041520000901073;436600.0772027;2.700020559132099e-06;0.5031294000218622;0.5431423000409268;0.5549498000182211;0.6248586000292562;0.7544219000265002;0.9934456000337377;0;0;1;0;0.01
12;1;4;20;letter190;letter169;incongruent;0.04;letter190;0.05;0.07;fullmask;0.2;arrow_right.png;c;0.2919553999672644;0.3003364999894984;436601.7493176;2.800021320581436e-06;0.5007933999877423;0.5408062000060454;0.552576299989596;0.6223838999867439;0.7530073000234552;1.0511776999919675;0;0;1;0;0.01
12;1;4;21;letter190;letter169;incongruent;0.04;letter169;0.05;0.07;fullmask;0.2;arrow_left.png;c;0.2704255999997258;0.28026869997847825;436603.3891828;2.7999631129205227e-06;0.4981102999881841;0.5381238000118174;0.5502043999731541;0.6199775999994017;0.7496367999701761;1.0284486999735236;0;0;1;0;0.01
12;1;4;22;letter190;letter169;congruent;0.04;letter190;0.05;0.07;fullmask;0.2;arrow_left.png;m;0.20953329995973036;0.21035870001651347;436604.9491768;2.700020559132099e-06;0.49553249997552484;0.5355534999980591;0.5474543999880552;0.61712599999737;0.7477779000182636;0.9558184000197798;0;0;1;0;0.01
12;1;4;23;letter190;letter169;incongruent;0.04;letter169;0.05;0.07;fullmask;0.2;arrow_left.png;c;0.3386319999699481;0.3400095999822952;436606.629187;2.600019797682762e-06;0.4961364999762736;0.5361749000148848;0.5479735999833792;0.6176502999733202;0.7482995999744162;0.8779516000067815;0;0;0;1;0.01
12;1;4;24;letter190;letter169;incongruent;0.04;letter169;0.05;0.07;fullmask;0.2;arrow_left.png;m;0.32182780001312494;0.3301797999884002;436608.0931638;2.6999623514711857e-06;0.4961427999660373;0.536165900004562;0.5478038999717683;0.6176241000066511;0.7482499000034295;1.0765224999631755;0;0;1;0;0.01
12;1;4;25;letter190;letter169;incongruent;0.04;letter169;0.05;0.07;fullmask;0.2;arrow_left.png;m;0.3290456000249833;0.33091479999711737;436609.7814131;2.800021320581436e-06;0.4994101999909617;0.5394214999978431;0.550997800019104;0.6215532000060193;0.7511795000173151;1.0797702000127174;0;0;1;0;0.01
12;1;4;26;letter190;letter169;incongruent;0.04;letter169;0.05;0.07;fullmask;0.2;arrow_left.png;c;0.3135149000445381;0.32006750005530193;436611.437166;2.600019797682762e-06;0.4963661999790929;0.5364112000097521;0.5481461000163108;0.6178318000165746;0.7484732000157237;1.066708300029859;0;0;1;0;0.01
12;1;4;27;letter190;letter169;incongruent;0.04;letter190;0.05;0.07;fullmask;0.2;arrow_right.png;c;0.17261190002318472;0.18058040004689246;436612.9571759;2.800021320581436e-06;0.4994907000218518;0.539513600000646;0.5511355000198819;0.621045799984131;0.7317151000024751;0.7317176000215113;0;1;0;0;0.01
12;1;4;28;letter190;letter169;incongruent;0.04;letter190;0.05;0.07;fullmask;0.2;arrow_right.png;m;0.34357359999557957;0.3500713999965228;436614.4691691;2.6999623514711857e-06;0.503144699963741;0.543161399953533;0.5549392999964766;0.6247125999652781;0.7553633999777958;0.8850158999557607;0;0;0;1;0.01
12;1;4;29;letter190;letter169;congruent;0.04;letter190;0.05;0.07;fullmask;0.2;arrow_left.png;c;0.42842539999401197;0.4299139999784529;436616.0453329;2.900022082030773e-06;0.497944800008554;0.5379557000123896;0.5500866000074893;0.6199928999994881;0.7495588000165299;0.880203899985645;0;0;0;1;0.01
12;1;4;30;letter190;letter169;congruent;0.04;letter190;0.05;0.07;fullmask;0.2;arrow_left.png;c;0.22950820002006367;0.2305175000219606;436617.4373189;2.700020559132099e-06;0.5017632999806665;0.5417850000085309;0.5537733000237495;0.6235554000013508;0.7532168999896385;0.9820801999885589;0;0;1;0;0.01
12;1;4;31;letter190;letter169;incongruent;0.04;letter169;0.05;0.07;fullmask;0.2;arrow_left.png;c;0.19837539998115972;0.19962369999848306;436618.9971414;2.700020559132099e-06;0.504048100032378;0.54403699998511;0.555955299991183;0.6258653000113554;0.7555802999995649;0.7555828000186011;0;1;0;0;0.01
12;1;4;32;letter190;letter169;incongruent;0.04;letter169;0.05;0.07;fullmask;0.2;arrow_left.png;c;0.25027780001983047;0.26022540003759786;436620.3892261;2.6999623514711857e-06;0.49567520001437515;0.5356941999634728;0.5469288000022061;0.6176040999707766;0.7472552999970503;1.0060095000080764;0;0;1;0;0.01
12;1;4;33;letter190;letter169;incongruent;0.04;letter169;0.05;0.07;fullmask;0.2;arrow_left.png;m;0.3104280999978073;0.32019419997232035;436622.0611491;2.7999631129205227e-06;0.5007686999742873;0.5407764000119641;0.5527284999843687;0.6226264999713749;0.7521869000047445;1.0711181999649853;0;0;1;0;0.01
12;1;4;34;letter190;letter169;congruent;0.04;letter190;0.05;0.07;fullmask;0.2;arrow_left.png;c;0.2394512000028044;0.24033419997431338;436623.661253;2.7999631129205227e-06;0.5036927000037394;0.5437191000091843;0.5556569999898784;0.6252845000126399;0.7559316999977455;0.9939976999885403;0;0;1;0;0.01
12;1;4;35;letter190;letter169;congruent;0.04;letter169;0.05;0.07;fullmask;0.2;arrow_right.png;c;0.20669530000304803;0.21062750002602115;436625.229231;2.700020559132099e-06;0.5031725000008009;0.5431699000182562;0.5548252000007778;0.624730100040324;0.7552910000085831;0.9634442999958992;0;0;1;0;0.01
12;1;4;36;letter190;letter169;incongruent;0.04;letter190;0.05;0.07;fullmask;0.2;arrow_right.png;m;0.3658156999736093;0.37091489997692406;436626.9491463;3.00002284348011e-06;0.5027759000076912;0.5427862000069581;0.554203099978622;0.624006099998951;0.7545150999794714;0.8841759000206366;0;0;0;1;0.01
12;1;4;37;letter190;letter169;congruent;0.04;letter169;0.05;0.07;fullmask;0.2;arrow_right.png;m;0.2042109000030905;0.20945229998324066;436628.309147;2.700020559132099e-06;0.4971219999715686;0.5371435999986716;0.5491889999830164;0.618964999972377;0.7486160999978893;0.9574170000269078;0;0;1;0;0.01
12;1;4;38;letter190;letter169;incongruent;0.04;letter190;0.05;0.07;fullmask;0.2;arrow_right.png;c;0.3019268000498414;0.3100929000065662;436629.9571495;2.900022082030773e-06;0.4961327000055462;0.5361498999991454;0.5474900000263005;0.6182503000018187;0.7478184000356123;1.0565100000239909;0;0;1;0;0.01
12;1;4;39;letter190;letter169;congruent;0.04;letter169;0.05;0.07;fullmask;0.2;arrow_right.png;m;0.1710495000006631;0.18044039997039363;436631.4771457;2.7999631129205227e-06;0.49695729999803007;0.5369936999632046;0.5481256999773905;0.618780099961441;0.7285648999968544;0.7285673999576829;0;1;0;0;0.01
12;1;4;40;letter190;letter169;congruent;0.04;letter169;0.05;0.07;fullmask;0.2;arrow_right.png;m;0.19194249995052814;0.20059979998040944;436632.8295056;2.700020559132099e-06;0.5033419000101276;0.5433666000026278;0.5551148999948055;0.6248978999792598;0.7557171999942511;0.7557247999939136;0;1;0;0;0.01
12;1;4;41;letter190;letter169;congruent;0.04;letter190;0.05;0.07;fullmask;0.2;arrow_left.png;m;0.1505359000293538;0.15973810001742095;436634.1493567;2.6999623514711857e-06;0.5017557999817654;0.541773299977649;0.5538931000046432;0.6238085000077263;0.7136392999673262;0.7136471999692731;0;1;0;0;0.01
12;1;4;42;letter190;letter169;congruent;0.04;letter169;0.05;0.07;fullmask;0.2;arrow_right.png;m;0.2515422999858856;0.2593289999640547;436635.5811746;2.700020559132099e-06;0.5050261000287719;0.54504719999386;0.5571101999958046;0.6268932000384666;0.7565474000293761;1.0153549000388011;0;0;1;0;0.01
12;1;4;43;letter190;letter169;congruent;0.04;letter190;0.05;0.07;fullmask;0.2;arrow_left.png;c;0.280656699964311;0.29024109995225444;436637.2211332;2.700020559132099e-06;0.496458999987226;0.5364875000086613;0.5483401999808848;0.6181089999736287;0.7477691000094637;1.036806499992963;0;0;1;0;0.01
12;1;4;44;letter190;letter169;congruent;0.04;letter169;0.05;0.07;fullmask;0.2;arrow_right.png;m;0.32606470002792776;0.3301305000204593;436638.9171069;2.7999631129205227e-06;0.5047551000025123;0.5447684999671765;0.5561314999940805;0.6268992999684997;0.7565520000061952;1.0851395999779925;0;0;1;0;0.01
12;1;4;45;letter190;letter169;incongruent;0.04;letter190;0.05;0.07;fullmask;0.2;arrow_right.png;m;0.4103577999630943;0.41945609997492284;436640.693216;2.700020559132099e-06;0.49670570000307634;0.5367283000377938;0.548796700022649;0.6186929999967106;0.7482519000186585;0.8788990000030026;0;0;0;1;0.01
12;1;4;46;letter190;letter169;incongruent;0.04;letter169;0.05;0.07;fullmask;0.2;arrow_left.png;c;0.3678927999571897;0.3700049999752082;436642.221231;2.700020559132099e-06;0.49648319999687374;0.5365209000301547;0.5480546000180766;0.6179611000115983;0.7485046000219882;0.8781933000427671;0;0;0;1;0.01
12;1;4;47;letter190;letter169;incongruent;0.04;letter190;0.05;0.07;fullmask;0.2;arrow_right.png;m;0.25640529999509454;0.2602265999885276;436643.6211349;2.7999631129205227e-06;0.4970121000078507;0.5370515999966301;0.548991699994076;0.6186697999946773;0.7483207999612205;1.0073445999878459;0;0;1;0;0.01
12;1;4;48;letter190;letter169;congruent;0.04;letter190;0.05;0.07;fullmask;0.2;arrow_left.png;c;0.2873521999572404;0.2902502999641001;436645.2531246;2.700020559132099e-06;0.49507920001633465;0.5351202000165358;0.5470660999999382;0.6168406000360847;0.7465004000114277;1.0354382999939844;0;0;1;0;0.01
12;1;5;1;letter190;letter169;congruent;0.04;letter190;0.05;0.07;fullmask;0.2;arrow_left.png;c;0.3093681000173092;0.3102639999706298;436716.7411363;2.700020559132099e-06;0.49844679998932406;0.5384571999893524;0.5500622999970801;0.6199955000192858;0.7505578999989666;1.0587866000132635;0;0;1;0;0.01
12;1;5;2;letter190;letter169;incongruent;0.04;letter169;0.05;0.07;fullmask;0.2;arrow_left.png;c;0.3763654000358656;0.38016320002498105;436718.4691736;2.800021320581436e-06;0.50457649998134;0.5445959999924526;0.5561747000319883;0.6260786000057124;0.756667000008747;0.8862934000208043;0;0;0;1;0.01
12;1;5;3;letter190;letter169;incongruent;0.04;letter190;0.05;0.07;fullmask;0.2;arrow_right.png;m;0.29884629999287426;0.30012979998718947;436719.9331375;2.700020559132099e-06;0.49772859999211505;0.5377460999879986;0.5498242999892682;0.6195191000006162;0.7492237000260502;1.0480910000042059;0;0;1;0;0.01
12;1;5;4;letter190;letter169;congruent;0.04;letter169;0.05;0.07;fullmask;0.2;arrow_right.png;m;0.27219200000399724;0.2803157999878749;436721.5570721;2.900022082030773e-06;0.503159300016705;0.5431725000380538;0.5547564000007696;0.6245762000326067;0.755225800035987;1.0335107000428252;0;0;1;0;0.01
12;1;5;5;letter190;letter169;incongruent;0.04;letter169;0.05;0.07;fullmask;0.2;arrow_left.png;c;0.3073789999471046;0.3115809999871999;436723.213021;2.700020559132099e-06;0.496378600015305;0.5363881000084803;0.547689100028947;0.6183656000066549;0.7480171000352129;1.056730400014203;0;0;1;0;0.01
12;1;5;6;letter190;letter169;congruent;0.04;letter169;0.05;0.07;fullmask;0.2;arrow_right.png;m;0.2598158000037074;0.26027230004547164;436724.8371734;2.800021320581436e-06;0.5017291000112891;0.5417148999986239;0.5536420000134967;0.6234139000298455;0.7530682000215165;1.0120353000238538;0;0;1;0;0.01
12;1;5;7;letter190;letter169;congruent;0.04;letter190;0.05;0.07;fullmask;0.2;arrow_left.png;c;0.2670219999854453;0.27030249999370426;436726.4452361;3.0999653972685337e-06;0.49855469999602064;0.538578099978622;0.5503204999840818;0.6199952999595553;0.7506459999713115;1.0188963999971747;0;0;1;0;0.01
12;1;5;8;letter190;letter169;congruent;0.04;letter169;0.05;0.07;fullmask;0.2;arrow_right.png;m;0.2523010000004433;0.260318000044208;436728.0610668;2.700020559132099e-06;0.504538599983789;0.5445727999904193;0.5557872999925166;0.6265591999981552;0.7562107000267133;1.01485059998231;0;0;1;0;0.01
12;1;5;9;letter190;letter169;incongruent;0.04;letter190;0.05;0.07;fullmask;0.2;arrow_right.png;c;0.26672559999860823;0.27020060003269464;436729.6771018;2.700020559132099e-06;0.49778560001868755;0.537803300016094;0.549625100044068;0.6195477000437677;0.7499530999921262;1.0181193000171334;0;0;1;0;0.01
12;1;5;10;letter190;letter169;incongruent;0.04;letter190;0.05;0.07;fullmask;0.2;arrow_right.png;m;0.20742839999729767;0.20935999997891486;436731.2290715;2.700020559132099e-06;0.49938430002657697;0.5394115000381134;0.5514491000212729;0.6212123000295833;0.7507768000359647;0.9596900000469759;0;0;1;0;0.01
12;1;5;11;letter190;letter169;congruent;0.04;letter190;0.05;0.07;fullmask;0.2;arrow_left.png;c;0.26040710002416745;0.2693419000133872;436732.853185;2.700020559132099e-06;0.4989689000067301;0.5389915000414476;0.551132700056769;0.6210396000533365;0.7506008000345901;1.01928940002108;0;0;1;0;0.01
12;1;5;12;letter190;letter169;incongruent;0.04;letter169;0.05;0.07;fullmask;0.2;arrow_left.png;c;0.35030240000924096;0.3512231999775395;436734.5732572;2.800021320581436e-06;0.5047837000456639;0.5447955999989063;0.556071900005918;0.6261385999969207;0.7565365000045858;0.8871866000117734;0;0;0;1;0.01
12;1;5;13;letter190;letter169;congruent;0.04;letter169;0.05;0.07;fullmask;0.2;arrow_right.png;m;0.28059060004306957;0.29023780004354194;436736.0050549;2.700020559132099e-06;0.49943299998994917;0.5394551000208594;0.5512632000027224;0.6210374000365846;0.7516904000076465;1.0397876999923028;0;0;1;0;0.01
12;1;5;14;letter190;letter169;incongruent;0.04;letter190;0.05;0.07;fullmask;0.2;arrow_right.png;m;0.1915131999994628;0.19953919999534264;436737.55706;2.6999623514711857e-06;0.5042216000147164;0.5442621000111103;0.55607739998959;0.6259881000150926;0.7556161999818869;0.7556188000016846;0;1;0;0;0.01
12;1;5;15;letter190;letter169;incongruent;0.04;letter169;0.05;0.07;fullmask;0.2;arrow_left.png;c;0.35522689996287227;0.3610486999968998;436739.0610539;2.800021320581436e-06;0.49405070004286245;0.5340548999956809;0.5452788000111468;0.6161257000057958;0.745691700023599;0.8753513999981806;0;0;0;1;0.01
12;1;5;16;letter190;letter169;congruent;0.04;letter190;0.05;0.07;fullmask;0.2;arrow_left.png;c;0.30010669998591766;0.31023100001038983;436740.5171225;2.700020559132099e-06;0.5046576000167988;0.5446515000076033;0.5561076999874786;0.6261834999895655;0.7565713999792933;1.06500080000842;0;0;1;0;0.01
12;1;5;17;letter190;letter169;incongruent;0.04;letter190;0.05;0.07;fullmask;0.2;arrow_right.png;m;0.24711200001183897;0.25037799996789545;436742.1251259;2.800021320581436e-06;0.49762909999117255;0.5376569000072777;0.5490218999912031;0.6196914000320248;0.7493639999884181;0.9979502999922261;0;0;1;0;0.01
12;1;5;18;letter190;letter169;incongruent;0.04;letter169;0.05;0.07;fullmask;0.2;arrow_left.png;c;0.30228529998566955;0.31119909998960793;436743.7811216;2.700020559132099e-06;0.4994189999997616;0.5394367999979295;0.5505910000065342;0.6213620000053197;0.751015699992422;1.0597996999858879;0;0;1;0;0.01
12;1;5;19;letter190;letter169;incongruent;0.04;letter190;0.05;0.07;fullmask;0.2;arrow_right.png;m;0.18656310002552345;0.1903998000198044;436745.3170663;2.700020559132099e-06;0.4976656000362709;0.537683000031393;0.5494355999981053;0.6190995000069961;0.739833900006488;0.7398363000247627;0;1;0;0;0.01
12;1;5;20;letter190;letter169;incongruent;0.04;letter169;0.05;0.07;fullmask;0.2;arrow_left.png;c;0.3655957000446506;0.3700755000463687;436746.8370562;2.700020559132099e-06;0.5040719999815337;0.5440931000048295;0.555936400021892;0.6259991999831982;0.7553212000057101;0.8860577000305057;0;0;0;1;0.01
12;1;5;21;letter190;letter169;congruent;0.04;letter190;0.05;0.07;fullmask;0.2;arrow_left.png;c;0.3011669999687001;0.31028629996581003;436748.2931821;2.700020559132099e-06;0.5021476999972947;0.5421673000091687;0.5535704999929294;0.6233460999792442;0.7539945999742486;1.0625059999874793;0;0;1;0;0.01
12;1;5;22;letter190;letter169;congruent;0.04;letter190;0.05;0.07;fullmask;0.2;arrow_left.png;c;0.29720670002279803;0.3002287999843247;436749.94114;2.700020559132099e-06;0.4941398000228219;0.5341545999981463;0.5464188000187278;0.616090500028804;0.7457538000307977;1.0444979000021704;0;0;1;0;0.01
12;1;5;23;letter190;letter169;congruent;0.04;letter169;0.05;0.07;fullmask;0.2;arrow_right.png;m;0.2705426999600604;0.28030079999007285;436751.5650591;2.800021320581436e-06;0.5041590000037104;0.5441805000300519;0.555934400006663;0.625985499995295;0.7563944000285119;1.0344856000156142;0;0;1;0;0.01
12;1;5;24;letter190;letter169;congruent;0.04;letter169;0.05;0.07;fullmask;0.2;arrow_right.png;c;0.21731269999872893;0.22033229999942705;436753.1330564;2.6999623514711857e-06;0.49950959999114275;0.5395208999980241;0.5514710999559611;0.6211465999949723;0.7507990999729373;0.9698240999714471;0;0;1;0;0.01
12;1;5;25;letter190;letter169;congruent;0.04;letter169;0.05;0.07;fullmask;0.2;arrow_right.png;m;0.28887090005446225;0.29002610000316054;436754.7650937;2.5999615900218487e-06;0.5028070999542251;0.5428337999619544;0.5542197999893688;0.6248516999767162;0.7545024999999441;1.0431449000025168;0;0;1;0;0.01
12;1;5;26;letter190;letter169;congruent;0.04;letter190;0.05;0.07;fullmask;0.2;arrow_left.png;c;0.2492435000021942;0.2503756000078283;436756.3571711;2.6999623514711857e-06;0.5001271999790333;0.5401482000015676;0.552202999999281;0.6218592000077479;0.751534899987746;1.000454599969089;0;0;1;0;0.01
12;1;5;27;letter190;letter169;incongruent;0.04;letter169;0.05;0.07;fullmask;0.2;arrow_left.png;c;0.23244739999063313;0.24035039998125285;436757.9412369;2.800021320581436e-06;0.4997555000009015;0.5397716000443324;0.5516531000030227;0.6212970000342466;0.7519480000482872;0.990077399997972;0;0;1;0;0.01
12;1;5;28;letter190;letter169;incongruent;0.04;letter190;0.05;0.07;fullmask;0.2;arrow_right.png;m;0.2758783999597654;0.28112389997113496;436759.5650363;2.7999631129205227e-06;0.4991798999835737;0.5391883999691345;0.550421699997969;0.6212943000136875;0.7507003999780864;1.0295423999777995;0;0;1;0;0.01
12;1;5;29;letter190;letter169;incongruent;0.04;letter190;0.05;0.07;fullmask;0.2;arrow_right.png;m;0.2940099000115879;0.3002036999678239;436761.2050307;3.0999653972685337e-06;0.4951763999997638;0.5351825999678113;0.5472217999631539;0.6169872999889776;0.7466389000182971;1.045490799995605;0;0;1;0;0.01
12;1;5;30;letter190;letter169;incongruent;0.04;letter190;0.05;0.07;fullmask;0.2;arrow_right.png;c;0.25344580004457384;0.26034889998845756;436762.8050351;2.6999623514711857e-06;0.4959175999974832;0.5359427999937907;0.5474769999855198;0.6172528999741189;0.7479034999851137;1.0062524999957532;0;0;1;0;0.01
12;1;5;31;letter190;letter169;congruent;0.04;letter169;0.05;0.07;fullmask;0.2;arrow_right.png;m;0.25252109998837113;0.2604921999736689;436764.405256;2.700020559132099e-06;0.5044134000199847;0.5444376000086777;0.5560788000002503;0.625895400007721;0.7565423999913037;1.0147356999805197;0;0;1;0;0.01
12;1;5;32;letter190;letter169;incongruent;0.04;letter190;0.05;0.07;fullmask;0.2;arrow_right.png;m;0.20949379994999617;0.21038119995500892;436765.9730882;2.6999623514711857e-06;0.49455149995628744;0.5345686999498866;0.5460363999591209;0.6167076999554411;0.7463627999532036;0.9548366999952123;0;0;1;0;0.01
12;1;5;33;letter190;letter169;incongruent;0.04;letter169;0.05;0.07;fullmask;0.2;arrow_left.png;c;0.29793230001814663;0.3001191000221297;436767.653038;2.600019797682762e-06;0.5034059000317939;0.5434170000371523;0.5553563000285067;0.6251239000121132;0.7546838000416756;1.053742100019008;0;0;1;0;0.01
12;1;5;34;letter190;letter169;congruent;0.04;letter169;0.05;0.07;fullmask;0.2;arrow_right.png;m;0.3148063999833539;0.3200671999948099;436769.3010266;2.700020559132099e-06;0.49622899998212233;0.5362462000339292;0.5482446000096388;0.6179217000026256;0.747575199988205;1.066601999977138;0;0;1;0;0.01
12;1;5;35;letter190;letter169;congruent;0.04;letter169;0.05;0.07;fullmask;0.2;arrow_right.png;m;0.2604353999486193;0.270264099992346;436770.9170554;2.700020559132099e-06;0.5014112000353634;0.541433300008066;0.5527454999973997;0.6235158999916166;0.7531428000074811;1.0217625999939628;0;0;1;0;0.01
12;1;5;36;letter190;letter169;congruent;0.04;letter190;0.05;0.07;fullmask;0.2;arrow_left.png;c;0.3026858000084758;0.3104235000209883;436772.5811823;2.700020559132099e-06;0.5038205999881029;0.5438335000071675;0.5559811000130139;0.625866100017447;0.7555361000122502;1.064178999979049;0;0;1;0;0.01
12;1;5;37;letter190;letter169;congruent;0.04;letter190;0.05;0.07;fullmask;0.2;arrow_left.png;m;0.2679366000229493;0.27026020002085716;436774.1970267;2.800021320581436e-06;0.4986724000191316;0.5387047000112943;0.5503564000246115;0.6200097000109963;0.7507471999851987;1.0190083000343293;0;0;1;0;0.01
12;1;5;38;letter190;letter169;congruent;0.04;letter169;0.05;0.07;fullmask;0.2;arrow_right.png;m;0.3049758999841288;0.31019089999608696;436775.8450339;2.6999623514711857e-06;0.4937353999703191;0.5337539999745786;0.5453413999639452;0.6151127999764867;0.7457666000118479;1.0541162999579683;0;0;1;0;0.01
12;1;5;39;letter190;letter169;incongruent;0.04;letter190;0.05;0.07;fullmask;0.2;arrow_right.png;m;0.2861991999670863;0.2901502999593504;436777.4770264;2.700020559132099e-06;0.5016677000094205;0.5416800000239164;0.5529685000074096;0.6236472000018694;0.7533006999874488;1.042011099983938;0;0;1;0;0.01
12;1;5;40;letter190;letter169;incongruent;0.04;letter169;0.05;0.07;fullmask;0.2;arrow_left.png;m;0.27689710003323853;0.2802646000054665;436779.1090953;2.700020559132099e-06;0.5020965000148863;0.54211729997769;0.5537103000096977;0.6234830999746919;0.7541276999982074;1.0324450000189245;0;0;1;0;0.01
12;1;5;41;letter190;letter169;incongruent;0.04;letter169;0.05;0.07;fullmask;0.2;arrow_left.png;c;0.3435180999804288;0.35023219999857247;436780.7971717;2.700020559132099e-06;0.4973036000155844;0.5373178000445478;0.5493229000130668;0.6191420000395738;0.7487944000167772;0.8794472000445239;0;0;0;1;0.01
12;1;5;42;letter190;letter169;congruent;0.04;letter190;0.05;0.07;fullmask;0.2;arrow_left.png;c;0.25244349997956306;0.26022809999994934;436782.1970302;2.700020559132099e-06;0.4965612000087276;0.5365753000369295;0.5485429000109434;0.61821670003701;0.7478698000195436;1.006885000038892;0;0;1;0;0.01
12;1;5;43;letter190;letter169;incongruent;0.04;letter169;0.05;0.07;fullmask;0.2;arrow_left.png;c;0.3156015999848023;0.32019619998754933;436783.8610241;2.6999623514711857e-06;0.49905599997146055;0.5390662999707274;0.5508301999652758;0.620637199957855;0.7512867999612354;1.069435000012163;0;0;1;0;0.01
12;1;5;44;letter190;letter169;congruent;0.04;letter190;0.05;0.07;fullmask;0.2;arrow_left.png;c;0.31057430000510067;0.320062400016468;436785.5170084;2.800021320581436e-06;0.5008362000226043;0.5408570999861695;0.5525375999859534;0.62221140001202;0.7528642000397667;1.0711828999919817;0;0;1;0;0.01
12;1;5;45;letter190;letter169;congruent;0.04;letter169;0.05;0.07;fullmask;0.2;arrow_right.png;m;0.30153080000309274;0.31019049999304116;436787.189007;2.600019797682762e-06;0.5027958000428043;0.5428225000505336;0.5544723000493832;0.6242484000395052;0.7549101000186056;1.0631613000296056;0;0;1;0;0.01
12;1;5;46;letter190;letter169;incongruent;0.04;letter169;0.05;0.07;fullmask;0.2;arrow_left.png;c;0.3462353000068106;0.35008609999204054;436788.8850986;2.700020559132099e-06;0.499584200035315;0.5395889999927022;0.5515528999967501;0.6213232000009157;0.7518781000399031;0.8815314000239596;0;0;0;1;0.01
12;1;5;47;letter190;letter169;congruent;0.04;letter190;0.05;0.07;fullmask;0.2;arrow_left.png;c;0.26917829999001697;0.27029239997500554;436790.3090998;2.800021320581436e-06;0.4980507000000216;0.5380678999936208;0.5501227999920957;0.6198989999829791;0.7495477999909781;1.0184043000335805;0;0;1;0;0.01
12;1;5;48;letter190;letter169;incongruent;0.04;letter190;0.05;0.07;fullmask;0.2;arrow_right.png;m;0.29050960001768544;0.3002136000432074;436791.9410087;2.700020559132099e-06;0.496746200020425;0.5367756000487134;0.5483547000330873;0.6181363000068814;0.7487786000128835;1.047125600045547;0;0;1;0;0.01
12;2;12;1;letter357;letter181;incongruent;0.04;letter181;0.09;0.07;fullmask;0.2;arrow_left.png;c;0.3471133999992162;0.3501113999518566;438418.1717017;2.700020559132099e-06;0.4964164000120945;0.5364545000484213;0.587766400014516;0.6585713000386022;0.7882130000507459;0.9178759000496939;0;0;0;1;0.01
12;2;12;2;letter357;letter181;incongruent;0.04;letter181;0.09;0.07;fullmask;0.2;arrow_left.png;c;0.23809449997497723;0.24040680000325665;438419.6037257;2.700020559132099e-06;0.502181300020311;0.5421994000207633;0.5935825000051409;0.6642535999999382;0.7939308000495657;1.0325332999927923;0;0;1;0;0.01
12;2;12;3;letter357;letter181;incongruent;0.04;letter357;0.09;0.07;fullmask;0.2;arrow_right.png;m;0.286821499990765;0.29027279996080324;438421.2836901;2.800021320581436e-06;0.4967153000179678;0.5367289999849163;0.5882840999984182;0.658358299988322;0.7887386999791488;1.0770731000229716;0;0;1;0;0.01
12;2;12;4;letter357;letter181;incongruent;0.04;letter181;0.09;0.07;fullmask;0.2;arrow_left.png;c;0.2501079000066966;0.25029240001458675;438422.9077707;2.6999623514711857e-06;0.49652320001041517;0.5365284999716096;0.5878025999991223;0.6585741000017151;0.788227699988056;1.036877500009723;0;0;1;0;0.01
12;2;12;5;letter357;letter181;incongruent;0.04;letter357;0.09;0.07;fullmask;0.2;arrow_right.png;m;0.2667397999903187;0.2701954999938607;438424.5556808;2.6999623514711857e-06;0.4989136999938637;0.538943899970036;0.5904359999694861;0.6611051000072621;0.7907576999859884;1.0592785999760963;0;0;1;0;0.01
12;2;12;6;letter357;letter181;congruent;0.04;letter357;0.09;0.07;fullmask;0.2;arrow_left.png;c;0.2700685999589041;0.2702531999675557;438426.2197709;2.6999623514711857e-06;0.5023076999932528;0.542357099999208;0.593531799968332;0.6635966000030749;0.794000199995935;1.0626804999774322;0;0;1;0;0.01
12;2;12;7;letter357;letter181;congruent;0.04;letter357;0.09;0.07;fullmask;0.2;arrow_left.png;c;0.3410380999557674;0.3510799999930896;438427.9319478;5.499983672052622e-06;0.49633880000328645;0.5363625999889337;0.5876868999912404;0.6583493999787606;0.7880050999810919;0.9186751999659464;0;0;0;1;0.01
12;2;12;8;letter357;letter181;congruent;0.04;letter181;0.09;0.07;fullmask;0.2;arrow_right.png;m;0.24003220000304282;0.2403809999814257;438429.3719442;2.700020559132099e-06;0.5017292000120506;0.5417377999983728;0.5930827000411227;0.6637803000048734;0.7934201000025496;1.0320731000392698;0;0;1;0;0.01
12;2;12;9;letter357;letter181;incongruent;0.04;letter357;0.09;0.07;fullmask;0.2;arrow_right.png;m;0.2743447999819182;0.2801804000046104;438431.0276642;2.600019797682762e-06;0.49692320002941415;0.5369403000222519;0.5886282999999821;0.6583099000272341;0.7889622999937274;1.0673062999849208;0;0;1;0;0.01
12;2;12;10;letter357;letter181;congruent;0.04;letter357;0.09;0.07;fullmask;0.2;arrow_left.png;c;0.2673557000234723;0.27032760001020506;438432.6916683;2.6999623514711857e-06;0.5011134999804199;0.541134399943985;0.5927237999858335;0.662496899953112;0.7930973999900743;1.0614841999486089;0;0;1;0;0.01
12;2;12;11;letter357;letter181;congruent;0.04;letter181;0.09;0.07;fullmask;0.2;arrow_right.png;m;0.24013629998080432;0.240270700014662;438434.3157323;2.6999623514711857e-06;0.49675869999919087;0.5367814999772236;0.5885839999536984;0.658357199979946;0.789011099957861;1.0271030999720097;0;0;1;0;0.01
12;2;12;12;letter357;letter181;congruent;0.04;letter181;0.09;0.07;fullmask;0.2;arrow_right.png;m;0.24915500002680346;0.25039090000791475;438435.9557558;2.6999623514711857e-06;0.5017742999480106;0.5417974999872968;0.5935406999778934;0.6632100999704562;0.7938921999884769;1.0421271999948658;0;0;1;0;0.01
12;2;12;13;letter357;letter181;congruent;0.04;letter357;0.09;0.07;fullmask;0.2;arrow_left.png;c;0.20248219999484718;0.21045569999841973;438437.5398398;2.5999615900218487e-06;0.49770129995886236;0.5377229999867268;0.5891707999981008;0.6598379999632016;0.7894896999932826;0.9980296999565326;0;0;1;0;0.01
12;2;12;14;letter357;letter181;congruent;0.04;letter181;0.09;0.07;fullmask;0.2;arrow_right.png;m;0.23862919997191057;0.23940660001244396;438439.187665;2.6999623514711857e-06;0.4950018000090495;0.5350416000001132;0.58713150001131;0.6569022999610752;0.7865583999664523;1.0253660999587737;0;0;1;0;0.01
12;2;12;15;letter357;letter181;congruent;0.04;letter181;0.09;0.07;fullmask;0.2;arrow_right.png;m;0.28577979997498915;0.29029009997611865;438440.8756715;2.700020559132099e-06;0.4985974000301212;0.5386187999974936;0.5904964000219479;0.6604058000375517;0.7899662000127137;1.0789930000319146;0;0;1;0;0.01
12;2;12;16;letter357;letter181;incongruent;0.04;letter181;0.09;0.07;fullmask;0.2;arrow_left.png;c;0.24712409998755902;0.2503772999625653;438442.5076752;2.800021320581436e-06;0.4973394999979064;0.5373775000334717;0.5888175999862142;0.6585925000254065;0.789242600032594;1.037688500015065;0;0;1;0;0.01
12;2;12;17;letter357;letter181;congruent;0.04;letter357;0.09;0.07;fullmask;0.2;arrow_left.png;c;0.3437476000399329;0.3499928000383079;438444.2356705;2.800021320581436e-06;0.4950797000201419;0.5351050000172108;0.5868755000410601;0.6565534000401385;0.7871963999932632;0.9168611000059173;0;0;0;1;0.01
12;2;12;18;letter357;letter181;incongruent;0.04;letter357;0.09;0.07;fullmask;0.2;arrow_right.png;c;0.228989300027024;0.2304032000247389;438445.6517049;2.6999623514711857e-06;0.5008345000096597;0.5408519000047818;0.5924075999646448;0.6630725999712013;0.7927287999773398;1.0211551999673247;0;0;1;0;0.01
12;2;12;19;letter357;letter181;congruent;0.04;letter357;0.09;0.07;fullmask;0.2;arrow_left.png;m;0.2773849000222981;0.2803138000308536;438447.3316646;2.9999646358191967e-06;0.5040252999751829;0.5440490999608301;0.5961194999981672;0.6660295999608934;0.7955894999904558;1.0743939999956638;0;0;1;0;0.01
12;2;12;20;letter357;letter181;incongruent;0.04;letter181;0.09;0.07;fullmask;0.2;arrow_left.png;m;0.2543932999833487;0.2603190999943763;438448.9796516;2.6999623514711857e-06;0.5042278000037186;0.5442387000075541;0.5962092999834567;0.6662233999813907;0.7956334999762475;1.0545698999776505;0;0;1;0;0.01
12;2;12;21;letter357;letter181;incongruent;0.04;letter181;0.09;0.07;fullmask;0.2;arrow_left.png;c;0.3080418999888934;0.3110888000228442;438450.6836617;2.700020559132099e-06;0.5045246999943629;0.5445569999865256;0.5958108999766409;0.6664827999775298;0.7961360000190325;1.1049192000064068;0;0;1;0;0.01
12;2;12;22;letter357;letter181;incongruent;0.04;letter357;0.09;0.07;fullmask;0.2;arrow_right.png;m;0.32439509994583204;0.3302788999862969;438452.4118037;2.800021320581436e-06;0.501924299984239;0.5419492999790236;0.5938730000052601;0.6637735000113025;0.7933306000195444;1.1223096000030637;0;0;1;0;0.01
12;2;12;23;letter357;letter181;incongruent;0.04;letter357;0.09;0.07;fullmask;0.2;arrow_right.png;m;0.2853485000086948;0.2903876999625936;438454.0837473;3.0999653972685337e-06;0.5018166999798268;0.5418401999631897;0.593664699990768;0.6635727999964729;0.7941301999962889;1.0821930000092834;0;0;1;0;0.01
12;2;12;24;letter357;letter181;congruent;0.04;letter181;0.09;0.07;fullmask;0.2;arrow_right.png;m;0.2782518999883905;0.2801746999612078;438455.747663;2.6999623514711857e-06;0.4973286999738775;0.537355899985414;0.5891009999904782;0.6587816000101157;0.7894318999606185;1.0677152999560349;0;0;1;0;0.01
12;2;12;25;letter357;letter181;incongruent;0.04;letter357;0.09;0.07;fullmask;0.2;arrow_right.png;m;0.27110829995945096;0.2803136999718845;438457.4116585;2.600019797682762e-06;0.5040548000251874;0.5440728000248782;0.5958778000203893;0.6657866000314243;0.7953513000393286;1.0744219000334851;0;0;1;0;0.01
12;2;12;26;letter357;letter181;congruent;0.04;letter357;0.09;0.07;fullmask;0.2;arrow_left.png;c;0.23404870001832023;0.24027760000899434;438459.0356467;2.500019036233425e-06;0.4973532999865711;0.5373855999787338;0.5891599000315182;0.6588342000031844;0.7894885999849066;1.0276977000175975;0;0;1;0;0.01
12;2;12;27;letter357;letter181;incongruent;0.04;letter181;0.09;0.07;fullmask;0.2;arrow_left.png;c;0.29924949997803196;0.3002328000147827;438460.7317505;2.700020559132099e-06;0.5031776000396349;0.5431990000070073;0.5948058000067249;0.6644873000332154;0.7951301000430249;1.093550999998115;0;0;1;0;0.01
12;2;12;28;letter357;letter181;congruent;0.04;letter357;0.09;0.07;fullmask;0.2;arrow_left.png;c;7.264102300046943;7.264642200025264;438469.3877381;2.700020559132099e-06;0.5028225000132807;0.5428411000175402;0.5945017000194639;0.6644134999951348;0.7949728000094183;0.9246253999881446;0;0;0;1;0.01
12;2;12;29;letter357;letter181;incongruent;0.04;letter181;0.09;0.07;fullmask;0.2;arrow_left.png;c;0.23819919995730743;0.24037119996501133;438470.8276248;2.800021320581436e-06;0.5040601000073366;0.5440857000066899;0.5960421999916434;0.6658158000209369;0.7954687000019476;1.0344280999852344;0;0;1;0;0.01
12;2;12;30;letter357;letter181;incongruent;0.04;letter181;0.09;0.07;fullmask;0.2;arrow_left.png;c;0.273365700035356;0.28017280000494793;438472.4836508;2.6999623514711857e-06;0.49794579995796084;0.537947999953758;0.5897201999905519;0.6594878999749199;0.7900454999762587;1.0683033999521285;0;0;1;0;0.01
12;2;12;31;letter357;letter181;congruent;0.04;letter181;0.09;0.07;fullmask;0.2;arrow_right.png;c;0.24409500003093854;0.2502622000174597;438474.1156306;2.800021320581436e-06;0.500512600003276;0.5405337000265718;0.5924777000327595;0.6622449000133201;0.7918085000128485;1.04087129997788;0;0;1;0;0.01
12;2;12;32;letter357;letter181;incongruent;0.04;letter357;0.09;0.07;fullmask;0.2;arrow_right.png;m;0.2778905999730341;0.28126189997419715;438475.7797252;2.700020559132099e-06;0.49832499999320135;0.538345200009644;0.5895288999890909;0.6601889000157826;0.7898429000051692;1.06869700003881;0;0;1;0;0.01
12;2;12;33;letter357;letter181;incongruent;0.04;letter181;0.09;0.07;fullmask;0.2;arrow_left.png;c;0.3258172000059858;0.3302800999954343;438477.4997225;3.2999669201672077e-06;0.5026903999969363;0.5426886000204831;0.5948672000085935;0.6639318999950774;0.7943337999749929;1.1230828000116162;0;0;1;0;0.01
12;2;12;34;letter357;letter181;incongruent;0.04;letter181;0.09;0.07;fullmask;0.2;arrow_left.png;c;0.3007897999486886;0.3102311999537051;438479.1956377;2.800021320581436e-06;0.4980082000256516;0.5380287000443786;0.5900314000318758;0.6599384000292048;0.7895009000203572;1.0983935000258498;0;0;1;0;0.01
12;2;12;35;letter357;letter181;congruent;0.04;letter357;0.09;0.07;fullmask;0.2;arrow_left.png;c;0.2737124999985099;0.28017450001789257;438480.859632;2.7999631129205227e-06;0.49848489998839796;0.5384994999621995;0.5904772999929264;0.6601521999691613;0.7898054999532178;1.0688741999911144;0;0;1;0;0.01
12;2;12;36;letter357;letter181;incongruent;0.04;letter357;0.09;0.07;fullmask;0.2;arrow_right.png;c;0.24323279998498037;0.25049700000090525;438482.4998078;2.6999623514711857e-06;0.4974279999732971;0.5374442999600433;0.5889900999609381;0.6588978999643587;0.7894549999618903;1.0377759999828413;0;0;1;0;0.01
12;2;12;37;letter357;letter181;congruent;0.04;letter181;0.09;0.07;fullmask;0.2;arrow_right.png;m;0.2519825999625027;0.26022150000790134;438484.1396364;2.5999615900218487e-06;0.4998098999494687;0.5398241999791935;0.5913993999711238;0.6611630999832414;0.7917213999899104;1.0501775000011548;0;0;1;0;0.01
12;2;12;38;letter357;letter181;incongruent;0.04;letter357;0.09;0.07;fullmask;0.2;arrow_right.png;c;0.24057189997984096;0.25034829997457564;438485.7796898;2.700020559132099e-06;0.5037849000073038;0.5438253000029363;0.595766399987042;0.6655396000132896;0.7951926999958232;1.0441387000028044;0;0;1;0;0.01
12;2;12;39;letter357;letter181;congruent;0.04;letter357;0.09;0.07;fullmask;0.2;arrow_left.png;m;0.2496907000313513;0.25020980002591386;438487.4197077;2.800021320581436e-06;0.4994662000099197;0.5394902000552975;0.5912889000028372;0.6610045000561513;0.7915713000111282;1.0398214000160806;0;0;1;0;0.01
12;2;12;40;letter357;letter181;congruent;0.04;letter357;0.09;0.07;fullmask;0.2;arrow_left.png;c;0.22648660000413656;0.23042929999064654;438489.0277128;2.700020559132099e-06;0.4973821999737993;0.5373728999984451;0.5893074999912642;0.6590744000277482;0.7886367000173777;1.0176971000037156;0;0;1;0;0.01
12;2;12;41;letter357;letter181;congruent;0.04;letter181;0.09;0.07;fullmask;0.2;arrow_right.png;m;0.3002299000509083;0.301253900048323;438490.7318784;2.700020559132099e-06;0.50497190002352;0.544985499989707;0.5963171999901533;0.6670039999880828;0.7966649999725632;1.0953482000040822;0;0;1;0;0.01
12;2;12;42;letter357;letter181;congruent;0.04;letter181;0.09;0.07;fullmask;0.2;arrow_right.png;m;0.27002439997158945;0.2793466000002809;438492.4036263;2.800021320581436e-06;0.5000804999726824;0.5401045000180602;0.5922735999920405;0.6621865999768488;0.7917478000163101;1.0704484999878332;0;0;1;0;0.01
12;2;12;43;letter357;letter181;congruent;0.04;letter181;0.09;0.07;fullmask;0.2;arrow_right.png;m;0.2951937000034377;0.3003540000063367;438494.0996192;2.700020559132099e-06;0.5007531000301242;0.5407684000092559;0.5926743000163697;0.6625865999958478;0.7922394000343047;1.0911285000038333;0;0;1;0;0.01
12;2;12;44;letter357;letter181;congruent;0.04;letter357;0.09;0.07;fullmask;0.2;arrow_left.png;c;0.4126113000093028;0.42089420004049316;438495.9076245;2.6999623514711857e-06;0.5012695000041276;0.5413127999636345;0.5926849999814294;0.6634591000038199;0.7931110999779776;0.922760899993591;0;0;0;1;0.01
12;2;12;45;letter357;letter181;incongruent;0.04;letter357;0.09;0.07;fullmask;0.2;arrow_right.png;m;0.35132190003059804;0.3600497000152245;438497.4680246;2.700020559132099e-06;0.5023686999920756;0.542400699981954;0.5944384000031278;0.6641446999856271;0.793773700017482;0.9244385000201873;0;0;0;1;0.01
12;2;12;46;letter357;letter181;congruent;0.04;letter181;0.09;0.07;fullmask;0.2;arrow_right.png;m;0.26266589999431744;0.2702106999931857;438498.9396219;2.700020559132099e-06;0.5035996999940835;0.5436222000280395;0.5948919000220485;0.6655891000409611;0.7952203000313602;1.0639541000127792;0;0;1;0;0.01
12;2;12;47;letter357;letter181;incongruent;0.04;letter181;0.09;0.07;fullmask;0.2;arrow_left.png;c;0.2812963000033051;0.29023660003440455;438500.619618;2.700020559132099e-06;0.4956421999959275;0.5356630000169389;0.5872265000361949;0.6569972000434063;0.7876481999992393;1.0760099000181071;0;0;1;0;0.01
12;2;12;48;letter357;letter181;incongruent;0.04;letter357;0.09;0.07;fullmask;0.2;arrow_right.png;m;0.22564220003550872;0.22930780000751838;438502.2356234;2.700020559132099e-06;0.4980881999945268;0.5381036000326276;0.5902450000285171;0.6599212000146508;0.7895769000169821;1.0184245000127703;0;0;1;0;0.01
12;2;13;1;letter357;letter181;congruent;0.04;letter181;0.09;0.07;fullmask;0.2;arrow_right.png;m;0.2297969000064768;0.23939740000059828;438514.5476216;2.7999631129205227e-06;0.49617790000047535;0.5361928999773227;0.5882063999888487;0.657980999967549;0.7876471999916248;1.0265221999725327;0;0;1;0;0.01
12;2;13;2;letter357;letter181;congruent;0.04;letter357;0.09;0.07;fullmask;0.2;arrow_left.png;c;0.21465169999282807;0.21933659998467192;438516.1636034;2.6999623514711857e-06;0.49675339995883405;0.5367689999984577;0.5888380999676883;0.658766700013075;0.7881692000082694;1.007083699980285;0;0;1;0;0.01
12;2;13;3;letter357;letter181;incongruent;0.04;letter357;0.09;0.07;fullmask;0.2;arrow_right.png;c;0.24428709998028353;0.25034749996848404;438517.8036077;2.5999615900218487e-06;0.4958832999691367;0.5359055000008084;0.5873074000119232;0.6580775000038557;0.7877305999863893;1.0362336999969557;0;0;1;0;0.01
12;2;13;4;letter357;letter181;congruent;0.04;letter181;0.09;0.07;fullmask;0.2;arrow_right.png;c;0.22904469998320565;0.23026320000644773;438519.419563;2.800021320581436e-06;0.4997328000026755;0.5397569999913685;0.5913011000375263;0.6619342000340112;0.7915843999944627;1.0200688000186346;0;0;1;0;0.01
12;2;13;5;letter357;letter181;incongruent;0.04;letter181;0.09;0.07;fullmask;0.2;arrow_left.png;c;0.38574230001540855;0.3898697000113316;438521.1877679;2.6999623514711857e-06;0.49666229996364564;0.5366868999553844;0.5886945999809541;0.6582357999868691;0.7888702999916859;0.9185380999697372;0;0;0;1;0.01
12;2;13;6;letter357;letter181;incongruent;0.04;letter357;0.09;0.07;fullmask;0.2;arrow_right.png;m;0.244397200003732;0.2493862000410445;438522.6275979;2.700020559132099e-06;0.5042576999985613;0.5442803999758326;0.5964209000230767;0.6654880000278354;0.795881099998951;1.0445954999886453;0;0;1;0;0.01
12;2;13;7;letter357;letter181;congruent;0.04;letter181;0.09;0.07;fullmask;0.2;arrow_right.png;m;0.14146559999790043;0.14962810004362836;438524.155597;2.700020559132099e-06;0.4986684999894351;0.5386888000066392;0.5907089000102133;0.6604878000216559;0.7403362999903038;0.7403389000101015;0;1;0;0;0.01
12;2;13;8;letter357;letter181;incongruent;0.04;letter357;0.09;0.07;fullmask;0.2;arrow_right.png;c;0.20099099999060854;0.21040959999663755;438525.5555889;2.800021320581436e-06;0.5034806000185199;0.5434960999991745;0.5951256000553258;0.6648565000505187;0.7955071000033058;1.0038039000355639;0;0;1;0;0.01
12;2;13;9;letter357;letter181;congruent;0.04;letter357;0.09;0.07;fullmask;0.2;arrow_left.png;m;0.2441786000272259;0.25025510002160445;438527.1795967;2.5999615900218487e-06;0.496309999958612;0.5363556999946013;0.5877486999961548;0.6576775999856181;0.7880772000062279;1.0366578999673948;0;0;1;0;0.01
12;2;13;10;letter357;letter181;congruent;0.04;letter357;0.09;0.07;fullmask;0.2;arrow_left.png;c;0.26064059999771416;0.27019680000375956;438528.8276289;2.6999623514711857e-06;0.49833299999590963;0.5383576999884099;0.590291399974376;0.6599679999635555;0.790615500009153;1.0586959999636747;0;0;1;0;0.01
12;2;13;11;letter357;letter181;incongruent;0.04;letter181;0.09;0.07;fullmask;0.2;arrow_left.png;c;0.297429500031285;0.3002404000144452;438530.5156736;2.700020559132099e-06;0.5025618000072427;0.5425902000279166;0.5947130999993533;0.6644807000411674;0.7940449000452645;1.092968600045424;0;0;1;0;0.01
12;2;13;12;letter357;letter181;incongruent;0.04;letter181;0.09;0.07;fullmask;0.2;arrow_left.png;c;0.2327662999741733;0.24038109998218715;438532.1315484;2.700020559132099e-06;0.5011569000198506;0.5411761000286788;0.5927334000007249;0.66250780003611;0.7930614000069909;1.0314917000359856;0;0;1;0;0.01
12;2;13;13;letter357;letter181;incongruent;0.04;letter181;0.09;0.07;fullmask;0.2;arrow_left.png;m;0.21783610002603382;0.2204261000151746;438533.7475861;2.600019797682762e-06;0.49813690001610667;0.538155900023412;0.5896335000288673;0.6594064999953844;0.7900563000002876;1.00847669999348;0;0;1;0;0.01
12;2;13;14;letter357;letter181;incongruent;0.04;letter357;0.09;0.07;fullmask;0.2;arrow_right.png;m;0.294221899996046;0.3001193000236526;438535.4355873;2.800021320581436e-06;0.5015886000473984;0.5416013000067323;0.5936579000554048;0.6634217000100762;0.7929849000065587;1.0919770000036806;0;0;1;0;0.01
12;2;13;15;letter357;letter181;incongruent;0.04;letter357;0.09;0.07;fullmask;0.2;arrow_right.png;m;0.26161190000129864;0.2701943999854848;438537.0835601;2.700020559132099e-06;0.4984522999729961;0.5384693999658339;0.5900080999708734;0.659675300004892;0.7903215999831446;1.0588082000031136;0;0;1;0;0.01
12;2;13;16;letter357;letter181;congruent;0.04;letter357;0.09;0.07;fullmask;0.2;arrow_left.png;m;0.26476259995251894;0.2704439999652095;438538.7477798;2.7999631129205227e-06;0.49824369995621964;0.5382651999825612;0.5898028999799863;0.6597118999925442;0.7902678999816999;1.0586108999559656;0;0;1;0;0.01
12;2;13;17;letter357;letter181;congruent;0.04;letter181;0.09;0.07;fullmask;0.2;arrow_right.png;c;0.2692795000039041;0.27029950002906844;438540.4037808;2.7999631129205227e-06;0.5037646999699064;0.5437767999828793;0.5957302999449894;0.665653099946212;0.7960468999808654;1.064120999944862;0;0;1;0;0.01
12;2;13;18;letter357;letter181;incongruent;0.04;letter357;0.09;0.07;fullmask;0.2;arrow_right.png;c;0.2384829000220634;0.24040309997508302;438542.0436215;2.6999623514711857e-06;0.5036597999860533;0.5436862999922596;0.595188400009647;0.665877899969928;0.7955348999821581;1.0340107000083663;0;0;1;0;0.01
12;2;13;19;letter357;letter181;incongruent;0.04;letter181;0.09;0.07;fullmask;0.2;arrow_left.png;c;0.23151059995871037;0.2404224999481812;438543.6676915;2.700020559132099e-06;0.5042119999998249;0.5442321000155061;0.5957113000331447;0.6657825000002049;0.7961803000071086;1.0345453000045381;0;0;1;0;0.01
12;2;13;20;letter357;letter181;congruent;0.04;letter181;0.09;0.07;fullmask;0.2;arrow_right.png;c;0.3120002999785356;0.32015729998238385;438545.3795686;2.700020559132099e-06;0.5035589999752119;0.5435822000144981;0.5953815000248142;0.6651538999867626;0.7958050000015646;1.1139460999984294;0;0;1;0;0.01
12;2;13;21;letter357;letter181;congruent;0.04;letter357;0.09;0.07;fullmask;0.2;arrow_left.png;m;0.2514422999811359;0.2601794999791309;438547.0195908;2.700020559132099e-06;0.49594739999156445;0.5359779000282288;0.5872503999853507;0.6578745000297204;0.7875273000099696;1.0463000999880023;0;0;1;0;0.01
12;2;13;22;letter357;letter181;incongruent;0.04;letter181;0.09;0.07;fullmask;0.2;arrow_left.png;c;0.295593100017868;0.30011880001984537;438548.7155766;2.700020559132099e-06;0.5043083000346087;0.5443274000426754;0.5963842000346631;0.6660594000131823;0.7957122000516392;1.0946780000231229;0;0;1;0;0.01
12;2;13;23;letter357;letter181;congruent;0.04;letter181;0.09;0.07;fullmask;0.2;arrow_right.png;c;0.24707079998916015;0.2504614000208676;438550.3476619;2.700020559132099e-06;0.4964969999855384;0.5365209999727085;0.5881029000156559;0.6578807000187226;0.7885331999859773;1.0368592999875546;0;0;1;0;0.01
12;2;13;24;letter357;letter181;congruent;0.04;letter357;0.09;0.07;fullmask;0.2;arrow_left.png;m;0.2698621000163257;0.2701764000230469;438552.0116104;2.700020559132099e-06;0.503386500000488;0.5433953999890946;0.5950588000123389;0.6648243000381626;0.7954844000050798;1.0637355000362732;0;0;1;0;0.01
12;2;13;25;letter357;letter181;congruent;0.04;letter357;0.09;0.07;fullmask;0.2;arrow_left.png;c;0.24438749998807907;0.24940059997607023;438553.6675802;2.700020559132099e-06;0.5027652000426315;0.5427889000275172;0.5948080000234768;0.6647174000390805;0.794281700043939;1.0431103000300936;0;0;1;0;0.01
12;2;13;26;letter357;letter181;incongruent;0.04;letter181;0.09;0.07;fullmask;0.2;arrow_left.png;c;0.27806280000368133;0.2803116000141017;438555.3315665;2.700020559132099e-06;0.5025542000075802;0.5425689999829046;0.593848499993328;0.6637545999838039;0.7943150000064634;1.0729398999828845;0;0;1;0;0.01
12;2;13;27;letter357;letter181;incongruent;0.04;letter181;0.09;0.07;fullmask;0.2;arrow_left.png;c;0.3106021999847144;0.32015829998999834;438557.0355764;2.800021320581436e-06;0.5028171000303701;0.5428443999844603;0.5945054999901913;0.66427670000121;0.794855699990876;1.1132460000226274;0;0;1;0;0.01
12;2;13;28;letter357;letter181;incongruent;0.04;letter357;0.09;0.07;fullmask;0.2;arrow_right.png;m;0.27356479997979477;0.28018319996772334;438558.6996839;2.700020559132099e-06;0.49591689999215305;0.5359348999918438;0.5876352000050247;0.6573937000357546;0.7879573000245728;1.0662748999893665;0;0;1;0;0.01
12;2;13;29;letter357;letter181;incongruent;0.04;letter357;0.09;0.07;fullmask;0.2;arrow_right.png;m;0.26066670002182946;0.270726700022351;438560.3478656;2.6999623514711857e-06;0.4990913000074215;0.5391464999993332;0.5908554999623448;0.6607975999941118;0.791180300002452;1.0595098999910988;0;0;1;0;0.01
12;2;13;30;letter357;letter181;congruent;0.04;letter181;0.09;0.07;fullmask;0.2;arrow_right.png;m;0.28154400002676994;0.2901601000339724;438562.019587;2.5999615900218487e-06;0.4996627999935299;0.5396771999658085;0.5911655999952927;0.6618606999982148;0.7915171000058763;1.0800330999772996;0;0;1;0;0.01
12;2;13;31;letter357;letter181;congruent;0.04;letter357;0.09;0.07;fullmask;0.2;arrow_left.png;c;0.33078600000590086;0.3310156000079587;438563.7396291;2.700020559132099e-06;0.49817060003988445;0.5381830999976955;0.5893844999955036;0.6601620999863371;0.7898070000228472;1.118573000014294;0;0;1;0;0.01
12;2;13;32;letter357;letter181;congruent;0.04;letter181;0.09;0.07;fullmask;0.2;arrow_right.png;m;0.24334499996621162;0.25025410001398996;438565.3635605;2.700020559132099e-06;0.4988329000188969;0.5388563000014983;0.5903162999893539;0.6609897000016645;0.7906446999986656;1.039190499985125;0;0;1;0;0.01
12;2;13;33;letter357;letter181;congruent;0.04;letter181;0.09;0.07;fullmask;0.2;arrow_right.png;m;0.2664327000384219;0.27029190002940595;438567.0275595;2.800021320581436e-06;0.49647040001582354;0.536493799998425;0.5878016999922693;0.6585731999948621;0.7882258999743499;1.0568430999992415;0;0;1;0;0.01
12;2;13;34;letter357;letter181;incongruent;0.04;letter181;0.09;0.07;fullmask;0.2;arrow_left.png;c;0.28532570000970736;0.2904604999930598;438568.7076768;2.8999638743698597e-06;0.5020601999713108;0.5420714999781922;0.5935301999561489;0.6633993999566883;0.7940776999457739;1.0824272999889217;0;0;1;0;0.01
12;2;13;35;letter357;letter181;incongruent;0.04;letter357;0.09;0.07;fullmask;0.2;arrow_right.png;m;0.25590539997210726;0.2602231999626383;438570.3395597;2.4999608285725117e-06;0.49578150000888854;0.5357976999948733;0.5874791999813169;0.6571549999644049;0.7878007999970578;1.0461376999737695;0;0;1;0;0.01
12;2;13;36;letter357;letter181;congruent;0.04;letter357;0.09;0.07;fullmask;0.2;arrow_left.png;m;0.27059279999230057;0.2803039000136778;438571.9955584;2.800021320581436e-06;0.49736900004791096;0.5373667000094429;0.5893027000129223;0.6593569000251591;0.7887663000146858;1.067730400012806;0;0;1;0;0.01
12;2;13;37;letter357;letter181;incongruent;0.04;letter357;0.09;0.07;fullmask;0.2;arrow_right.png;m;0.24821740004699677;0.2503930000239052;438573.6435637;3.00002284348011e-06;0.502649600035511;0.5426729000173509;0.5938918000319973;0.6639601000351831;0.7943608000059612;1.0429954000283033;0;0;1;0;0.01
12;2;13;38;letter357;letter181;congruent;0.04;letter181;0.09;0.07;fullmask;0.2;arrow_right.png;m;0.29704259999562055;0.30026180000277236;438575.3235554;2.800021320581436e-06;0.4970244999858551;0.5370295000029728;0.588366899988614;0.6591787000070326;0.788834200007841;1.0873979000025429;0;0;1;0;0.01
12;2;13;39;letter357;letter181;incongruent;0.04;letter181;0.09;0.07;fullmask;0.2;arrow_left.png;c;0.3840739000006579;0.3910084000090137;438577.1317059;2.700020559132099e-06;0.49933309998596087;0.5393516999902204;0.5906978999846615;0.6613898000214249;0.7910427000024356;0.9217006000108086;0;0;0;1;0.01
12;2;13;40;letter357;letter181;incongruent;0.04;letter181;0.09;0.07;fullmask;0.2;arrow_left.png;c;0.30078529997263104;0.31009199999971315;438578.6195642;2.500019036233425e-06;0.4982571000000462;0.5382679000031203;0.5897359999944456;0.6594986999989487;0.7900655000121333;1.0986417999956757;0;0;1;0;0.01
12;2;13;41;letter357;letter181;congruent;0.04;letter357;0.09;0.07;fullmask;0.2;arrow_left.png;c;0.2733320000115782;0.280174600018654;438580.2835527;2.600019797682762e-06;0.49748070002533495;0.5375015999889001;0.5893066999851726;0.6589844999834895;0.7896345999906771;1.0678383000195026;0;0;1;0;0.01
12;2;13;42;letter357;letter181;congruent;0.04;letter181;0.09;0.07;fullmask;0.2;arrow_right.png;m;0.2343514999956824;0.24034810002194718;438581.9155732;2.600019797682762e-06;0.5018183999927714;0.5418354000430554;0.5935692000202835;0.6633430999936536;0.7939732000231743;1.0321734999888577;0;0;1;0;0.01
12;2;13;43;letter357;letter181;incongruent;0.04;letter357;0.09;0.07;fullmask;0.2;arrow_right.png;c;0.2748740999959409;0.279317100008484;438583.5875857;2.700020559132099e-06;0.4983131000190042;0.5383345000445843;0.5904911000397988;0.6595626000198536;0.7899572000023909;1.0686830999911763;0;0;1;0;0.01
12;2;13;44;letter357;letter181;incongruent;0.04;letter357;0.09;0.07;fullmask;0.2;arrow_right.png;c;0.2626944000367075;0.27029610000317916;438585.2355843;2.700020559132099e-06;0.5025555000174791;0.5425497000105679;0.5938148000277579;0.6645821999991313;0.7942345000337809;1.0628865000326186;0;0;1;0;0.01
12;2;13;45;letter357;letter181;congruent;0.04;letter181;0.09;0.07;fullmask;0.2;arrow_right.png;m;0.22746540000662208;0.23032159998547286;438586.8515781;2.700020559132099e-06;0.49711880000540987;0.5371403999743052;0.5885614000144415;0.6592532999929972;0.7888875000062399;1.017457399982959;0;0;1;0;0.01
12;2;13;46;letter357;letter181;congruent;0.04;letter357;0.09;0.07;fullmask;0.2;arrow_left.png;c;0.35262660001171753;0.36096109997015446;438588.5875464;2.6999623514711857e-06;0.4977870999719016;0.5377857999992557;0.5889683999703266;0.6597332999808714;0.7893005999503657;0.9199491999461316;0;0;0;1;0.01
12;2;13;47;letter357;letter181;congruent;0.04;letter357;0.09;0.07;fullmask;0.2;arrow_left.png;m;0.27329979999922216;0.28026729996781796;438590.0595373;2.700020559132099e-06;0.500198099995032;0.5402166999992914;0.5916996999876574;0.6614794000051916;0.7921254999819212;1.0705672000185587;0;0;1;0;0.01
12;2;13;48;letter357;letter181;incongruent;0.04;letter181;0.09;0.07;fullmask;0.2;arrow_left.png;c;0.25252360000740737;0.26022709999233484;438591.69958;2.6999623514711857e-06;0.5023705999483354;0.5424235999817029;0.5936452999594621;0.66441109997686;0.793976399989333;1.052757399971597;0;0;1;0;0.01
