subjnr;loop_m;blocknr;trialnr;cue_left_learn;cue_right_learn; congruence;cue_dur;cue;SOA;mask_dur;mask;target_dur;target;response;RT;kb_rt;response_absolute; fix_onset;cue_onset;cue_offset;mask_onset;mask_offset;target_offset;blank_onset;response_during_mask;response_during_targetalone;response_during_RW;response_during_blank;frame_dur
2;1;4;1;letter181;letter357;congruent;0.04;letter357;0.05;0.07;fullmask;0.2;arrow_right.png;m;0.3713870999927167;0.38002979999873787;255996.5803407;2.6999914553016424e-06;0.4958803000045009;0.5359046999947168;0.5475313999922946;0.6173329000012018;0.7479914999858011;0.8776367999962531;0;0;0;1;0.01
2;1;4;2;letter181;letter357;incongruent;0.04;letter357;0.05;0.07;fullmask;0.2;arrow_left.png;c;0.3903553000127431;0.4000098000105936;255998.1405805;2.4999899324029684e-06;0.49887569999555126;0.5389016999979503;0.5508181999903172;0.6205408999812789;0.7501540999801364;0.8808236999902874;0;0;0;1;0.01
2;1;4;3;letter181;letter357;incongruent;0.04;letter181;0.05;0.07;fullmask;0.2;arrow_right.png;m;0.24971420000656508;0.2502421000099275;255999.5404375;2.5999906938523054e-06;0.49915849999524653;0.5391969999764115;0.5505913999804761;0.62051799998153;0.7509125999931712;0.9994772999780253;0;0;1;0;0.01
2;1;4;4;letter181;letter357;incongruent;0.04;letter181;0.05;0.07;fullmask;0.2;arrow_right.png;m;0.3148083999985829;0.32106370001565665;256001.196347;2.6999914553016424e-06;0.49584009998943657;0.5358554999984335;0.5470757999864873;0.6177524999948218;0.7474088000017218;1.0662030999956187;0;0;1;0;0.01
2;1;4;5;letter181;letter357;congruent;0.04;letter357;0.05;0.07;fullmask;0.2;arrow_right.png;m;0.24315210001077503;0.250391400011722;256002.7963327;2.6999914553016424e-06;0.5010542999953032;0.5410780999809504;0.5528668999904767;0.6227764999784995;0.7523360000050161;1.0013696999812964;0;0;1;0;0.01
2;1;4;6;letter181;letter357;congruent;0.04;letter357;0.05;0.07;fullmask;0.2;arrow_right.png;m;0.27395020000403747;0.27946990000782534;256004.4283732;2.6999914553016424e-06;0.5046177000040188;0.5446440000087023;0.5566481999994721;0.6267086000007112;0.7562734999810345;1.0349710999871604;0;0;1;0;0.01
2;1;4;7;letter181;letter357;congruent;0.04;letter181;0.05;0.07;fullmask;0.2;arrow_left.png;c;0.2829677000117954;0.2901609000109602;256006.0683593;2.700020559132099e-06;0.49635200001648627;0.5363694000116084;0.5483020000101533;0.618005299998913;0.7486517000070307;1.0367072000226472;0;0;1;0;0.01
2;1;4;8;letter181;letter357;congruent;0.04;letter181;0.05;0.07;fullmask;0.2;arrow_left.png;c;0.27667340001789853;0.2811674000113271;256007.6923433;2.7999922167509794e-06;0.4970577000058256;0.5370790000015404;0.5482357000000775;0.6189964000077453;0.7485629000002518;1.0274018000054639;0;0;1;0;0.01
2;1;4;9;letter181;letter357;congruent;0.04;letter181;0.05;0.07;fullmask;0.2;arrow_left.png;c;0.3015374999959022;0.31018539998331107;256009.3483979;2.700020559132099e-06;0.5024774000048637;0.5425031000049785;0.5537982000096235;0.6245692000084091;0.7542240000038873;1.0628343000134919;0;0;1;0;0.01
2;1;4;10;letter181;letter357;incongruent;0.04;letter181;0.05;0.07;fullmask;0.2;arrow_right.png;m;0.29435599999851547;0.30021479999413714;256011.0123314;2.400018274784088e-06;0.49672429999918677;0.5367383999982849;0.5480876000074204;0.618860799993854;0.7485130999993999;1.0471131000085734;0;0;1;0;0.01
2;1;4;11;letter181;letter357;incongruent;0.04;letter357;0.05;0.07;fullmask;0.2;arrow_left.png;c;0.28527709998888895;0.29023670000606216;256012.6443274;2.6999914553016424e-06;0.4987251000129618;0.5387696000107098;0.5501042999967467;0.6208932000154164;0.7505280000041239;1.0390916999895126;0;0;1;0;0.01
2;1;4;12;letter181;letter357;incongruent;0.04;letter357;0.05;0.07;fullmask;0.2;arrow_left.png;c;0.3023160999873653;0.31021130000590347;256014.292585;2.5999906938523054e-06;0.4985772999934852;0.5385997999983374;0.5501384999952279;0.6208296999975573;0.7504601999826264;1.0589408999949228;0;0;1;0;0.01
2;1;4;13;letter181;letter357;incongruent;0.04;letter181;0.05;0.07;fullmask;0.2;arrow_right.png;m;0.24922500000684522;0.2503474999975879;256015.9003772;2.5999906938523054e-06;0.49928089999593794;0.5393084000097588;0.5506514000007883;0.621313600015128;0.7510771999950521;0.99961150001036;0;0;1;0;0.01
2;1;4;14;letter181;letter357;congruent;0.04;letter357;0.05;0.07;fullmask;0.2;arrow_right.png;m;0.26414420001674443;0.2704741000197828;256017.5163328;2.5999906938523054e-06;0.49735369998961687;0.5373573999968357;0.5487482000025921;0.6187936999776866;0.7493552999803796;1.0176976999791805;0;0;1;0;0.01
2;1;4;15;letter181;letter357;congruent;0.04;letter357;0.05;0.07;fullmask;0.2;arrow_right.png;m;0.27698749999399297;0.2802640000008978;256019.1804317;2.5999906938523054e-06;0.4981559999869205;0.5381892999866977;0.5497285999881569;0.6195038000005297;0.750153600005433;1.0285637000051793;0;0;1;0;0.01
2;1;4;16;letter181;letter357;congruent;0.04;letter181;0.05;0.07;fullmask;0.2;arrow_left.png;c;0.27807989998837;0.28035499999532476;256020.812464;2.6999914553016424e-06;0.49848199999541976;0.5384814999997616;0.5499374000064563;0.6198478000005707;0.7504033999866806;1.0288127000094391;0;0;1;0;0.01
2;1;4;17;letter181;letter357;incongruent;0.04;letter357;0.05;0.07;fullmask;0.2;arrow_left.png;c;0.3191157999972347;0.3211598999914713;256022.4844163;2.6999914553016424e-06;0.5036608999944292;0.543663699994795;0.5549814999976661;0.6257373999978881;0.7553157999936957;1.0740070999891032;0;0;1;0;0.01
2;1;4;18;letter181;letter357;congruent;0.04;letter357;0.05;0.07;fullmask;0.2;arrow_right.png;m;0.2877392999944277;0.2903853000025265;256024.1243991;2.4999899324029684e-06;0.49805989998276345;0.5380630999861751;0.5496720999944955;0.6195810999779496;0.750139699986903;1.0384026999818161;0;0;1;0;0.01
2;1;4;19;letter181;letter357;incongruent;0.04;letter357;0.05;0.07;fullmask;0.2;arrow_left.png;c;0.35288210000726394;0.36094869999215007;256025.8203325;2.700020559132099e-06;0.496498500026064;0.5365198000217788;0.5478597000183072;0.6186175000038929;0.7481797000218648;0.8788322000182234;0;0;0;1;0.01
2;1;4;20;letter181;letter357;congruent;0.04;letter181;0.05;0.07;fullmask;0.2;arrow_left.png;c;0.2514448000001721;0.2603184999898076;256027.2203206;2.700020559132099e-06;0.49953349999850616;0.5395480000006501;0.5513584000000264;0.6211341000162065;0.7517828000127338;1.009881600009976;0;0;1;0;0.01
2;1;4;21;letter181;letter357;congruent;0.04;letter181;0.05;0.07;fullmask;0.2;arrow_left.png;c;0.37897660001181066;0.38089420000324026;256028.9483127;2.6999914553016424e-06;0.498441300005652;0.5384580999962054;0.5497096999897622;0.6203744999947958;0.7500273000041489;0.8806786999921314;0;0;0;1;0.01
2;1;4;22;letter181;letter357;incongruent;0.04;letter181;0.05;0.07;fullmask;0.2;arrow_right.png;m;0.2893558999930974;0.29014090000418946;256030.3803038;2.6999914553016424e-06;0.5031160000071395;0.5431024999998044;0.5549811999953818;0.62465839998913;0.7553084999963176;1.0434315000020433;0;0;1;0;0.01
2;1;4;23;letter181;letter357;incongruent;0.04;letter181;0.05;0.07;fullmask;0.2;arrow_right.png;m;0.27311889998964034;0.2804149999865331;256032.0045737;2.5999906938523054e-06;0.503458999999566;0.5434762999939267;0.554806500003906;0.6247115999867674;0.7552714000048582;1.0337921000027563;0;0;1;0;0.01
2;1;4;24;letter181;letter357;incongruent;0.04;letter357;0.05;0.07;fullmask;0.2;arrow_left.png;c;0.27588259999174625;0.28017139999428764;256033.6283091;2.700020559132099e-06;0.49579370001447387;0.5358487000048626;0.5470873000158463;0.6184027999988757;0.7474149000190664;1.0261427000223193;0;0;1;0;0.01
2;1;4;25;letter181;letter357;congruent;0.04;letter357;0.05;0.07;fullmask;0.2;arrow_right.png;m;0.2624480000231415;0.2703062000218779;256035.236578;2.6999914553016424e-06;0.5006496999994852;0.5406918000080623;0.5525918999919668;0.6222682000079658;0.751920999988215;1.0209804000041913;0;0;1;0;0.01
2;1;4;26;letter181;letter357;congruent;0.04;letter357;0.05;0.07;fullmask;0.2;arrow_right.png;c;0.2753110000048764;0.2801679999975022;256036.8603148;2.800021320581436e-06;0.49676259999978356;0.5368022000184283;0.5485421000048518;0.6182174000132363;0.7488654000044335;1.0270921000046656;0;0;1;0;0.01
2;1;4;27;letter181;letter357;incongruent;0.04;letter181;0.05;0.07;fullmask;0.2;arrow_right.png;c;0.2502225000062026;0.25036089998320676;256038.4763344;2.6999914553016424e-06;0.49733369998284616;0.5372975000063889;0.5491556999913882;0.6190322999900673;0.7486804999934975;0.9976502000063192;0;0;1;0;0.01
2;1;4;28;letter181;letter357;congruent;0.04;letter181;0.05;0.07;fullmask;0.2;arrow_left.png;c;0.29931140001281165;0.3002135000133421;256040.1164192;2.5999906938523054e-06;0.4961005999939516;0.5361306999984663;0.547921999997925;0.6176941000157967;0.7483438999915961;1.046462900005281;0;0;1;0;0.01
2;1;4;29;letter181;letter357;congruent;0.04;letter357;0.05;0.07;fullmask;0.2;arrow_right.png;m;0.2586418999999296;0.2602303000167012;256041.7162913;2.5999906938523054e-06;0.4956495999940671;0.535663199989358;0.5469504999928176;0.6176271000003908;0.7472806999867316;1.005976299988106;0;0;1;0;0.01
2;1;4;30;letter181;letter357;incongruent;0.04;letter357;0.05;0.07;fullmask;0.2;arrow_left.png;m;0.23905249999370426;0.24032420001458377;256043.3084968;2.600019797682762e-06;0.4977666000195313;0.5377909000089858;0.5498434000182897;0.6195412000233773;0.7491949000104796;0.9881095000018831;0;0;1;0;0.01
2;1;4;31;letter181;letter357;congruent;0.04;letter181;0.05;0.07;fullmask;0.2;arrow_left.png;c;0.02421959998901002;0.030085899983532727;256044.6843164;2.6999914553016424e-06;0.495742999977665;0.5357589999912307;0.547430099977646;0.6157917999953497;0.6157945999875665;0.6157964999729302;1;0;0;0;0.01
2;1;4;32;letter181;letter357;incongruent;0.04;letter181;0.05;0.07;fullmask;0.2;arrow_right.png;m;0.27755939998314716;0.2802644000039436;256046.1483025;2.5999906938523054e-06;0.5015019999991637;0.5415081999963149;0.5530479000008199;0.622819599986542;0.7534693999914452;1.031820100004552;0;0;1;0;0.01
2;1;4;33;letter181;letter357;congruent;0.04;letter181;0.05;0.07;fullmask;0.2;arrow_left.png;c;0.28968459999305196;0.29920680000213906;256047.812297;2.7999922167509794e-06;0.5004246000025887;0.5404455999960192;0.5527830999926664;0.622549199993955;0.7522028000093997;1.050764799991157;0;0;1;0;0.01
2;1;4;34;letter181;letter357;congruent;0.04;letter181;0.05;0.07;fullmask;0.2;arrow_left.png;c;0.2975694999913685;0.30025850000674836;256049.4603446;2.6999914553016424e-06;0.5003858999989461;0.5404083000030369;0.5518704999994952;0.6216891999938525;0.752339899976505;1.0507452999881934;0;0;1;0;0.01
2;1;4;35;letter181;letter357;incongruent;0.04;letter357;0.05;0.07;fullmask;0.2;arrow_left.png;m;0.28663879999658093;0.29025109999929555;256051.1003897;2.6999914553016424e-06;0.5030405999859795;0.5430628999893088;0.5544473999761976;0.6251167999871541;0.7547812999982852;1.0433897999755573;0;0;1;0;0.01
2;1;4;36;letter181;letter357;congruent;0.04;letter357;0.05;0.07;fullmask;0.2;arrow_right.png;m;0.2529781000048388;0.26031899999361485;256052.7082975;2.6999914553016424e-06;0.5024511000083294;0.5424851000134367;0.5543718000117224;0.6242322000034619;0.7537991999997757;1.0128048000042327;0;0;1;0;0.01
2;1;4;37;letter181;letter357;incongruent;0.04;letter181;0.05;0.07;fullmask;0.2;arrow_right.png;m;0.26046319998567924;0.27028950001113117;256054.3163052;2.5999906938523054e-06;0.5019016999867745;0.5419226999802049;0.5533090999815613;0.6230781999765895;0.7537277999799699;1.0222529000020586;0;0;1;0;0.01
2;1;4;38;letter181;letter357;incongruent;0.04;letter357;0.05;0.07;fullmask;0.2;arrow_left.png;c;0.2808198999846354;0.29029870001249947;256055.9482767;2.6999914553016424e-06;0.49665570000070147;0.5366778000025079;0.5486020999960601;0.6183246999862604;0.7479713000066113;1.0369694999826606;0;0;1;0;0.01
2;1;4;39;letter181;letter357;congruent;0.04;letter357;0.05;0.07;fullmask;0.2;arrow_right.png;m;0.2940115999954287;0.3003585999831557;256057.6126889;2.800021320581436e-06;0.5040605000103824;0.5440735000011045;0.5562078000220936;0.6261161000002176;0.7556751000229269;1.0544055000063963;0;0;1;0;0.01
2;1;4;40;letter181;letter357;incongruent;0.04;letter181;0.05;0.07;fullmask;0.2;arrow_right.png;m;0.31540169997606426;0.3212117999792099;256059.2843863;2.7999922167509794e-06;0.4986324999772478;0.5386444999894593;0.5500369999790564;0.6207267999998294;0.7504071999865118;1.069011599989608;0;0;1;0;0.01
2;1;4;41;letter181;letter357;incongruent;0.04;letter357;0.05;0.07;fullmask;0.2;arrow_left.png;c;0.21387760000652634;0.2203336000093259;256060.8442921;2.600019797682762e-06;0.49556400001165457;0.5355657000036445;0.5473150000034366;0.6170829000184312;0.7476453999988735;0.9658608000027016;0;0;1;0;0.01
2;1;4;42;letter181;letter357;incongruent;0.04;letter357;0.05;0.07;fullmask;0.2;arrow_left.png;m;0.24476760000106879;0.2503455000114627;256062.4362867;2.7999922167509794e-06;0.4969007000036072;0.5369410999992397;0.5487589999975171;0.6185335000045598;0.7481864999863319;0.9971896999923047;0;0;1;0;0.01
2;1;4;43;letter181;letter357;incongruent;0.04;letter357;0.05;0.07;fullmask;0.2;arrow_left.png;c;0.36573820002377033;0.3700296000170056;256064.148328;2.6999914553016424e-06;0.5038568000018131;0.5438728999870364;0.5557754999899771;0.6257977999921422;0.7562026999949012;0.8858526000112761;0;0;0;1;0.01
2;1;4;44;letter181;letter357;incongruent;0.04;letter181;0.05;0.07;fullmask;0.2;arrow_right.png;m;0.3176425000128802;0.32116380002116784;256065.6205172;2.800021320581436e-06;0.5028213000041433;0.5428629000089131;0.5540468000108376;0.6247080000175629;0.7543777000100818;1.0731857000209857;0;0;1;0;0.01
2;1;4;45;letter181;letter357;congruent;0.04;letter181;0.05;0.07;fullmask;0.2;arrow_left.png;c;0.25417090000701137;0.2603650000237394;256067.2282932;2.800021320581436e-06;0.4955607000156306;0.5355879999988247;0.5469555000017863;0.6168619000236504;0.7474117000238039;1.0058778999955393;0;0;1;0;0.01
2;1;4;46;letter181;letter357;congruent;0.04;letter181;0.05;0.07;fullmask;0.2;arrow_left.png;c;0.2369124999968335;0.24057380002341233;256068.8123797;2.6999914553016424e-06;0.49743769998895004;0.5374559999909252;0.549135400011437;0.6190167999884579;0.7496690000116359;0.9877548000076786;0;0;1;0;0.01
2;1;4;47;letter181;letter357;incongruent;0.04;letter181;0.05;0.07;fullmask;0.2;arrow_right.png;c;0.24788469998748042;0.2503932999970857;256070.4042892;2.8999929782003164e-06;0.49722160000237636;0.5372347999946214;0.5488561999809463;0.6186753000074532;0.7493264999939129;0.997541499993531;0;0;1;0;0.01
2;1;4;48;letter181;letter357;congruent;0.04;letter357;0.05;0.07;fullmask;0.2;arrow_right.png;m;0.27269140002317727;0.2802263000048697;256072.0202822;2.6999914553016424e-06;0.49594860000070184;0.535974400001578;0.5477545000030659;0.6174855999997817;0.7481369999877643;1.0263193999999203;0;0;1;0;0.01
2;1;5;1;letter181;letter357;congruent;0.04;letter181;0.05;0.07;fullmask;0.2;arrow_left.png;c;0.2937425999843981;0.30033470000489615;256098.5486657;2.7999922167509794e-06;0.4976250999898184;0.5376604000048246;0.5497478999895975;0.6195403999881819;0.7491762999852654;1.047977299982449;0;0;1;0;0.01
2;1;5;2;letter181;letter357;congruent;0.04;letter357;0.05;0.07;fullmask;0.2;arrow_right.png;m;0.28529540001181886;0.29124329998739995;256100.1804003;2.6999914553016424e-06;0.4958180999965407;0.5358282999950461;0.5470671000075527;0.617832299991278;0.747396499995375;1.0361631000123452;0;0;1;0;0.01
2;1;5;3;letter181;letter357;incongruent;0.04;letter357;0.05;0.07;fullmask;0.2;arrow_left.png;m;0.24612910000723787;0.2502512999926694;256101.7722491;2.600019797682762e-06;0.5006070000235923;0.5406325000221841;0.5518188000132795;0.6224976000085007;0.752147999999579;1.0009232000156771;0;0;1;0;0.01
2;1;5;4;letter181;letter357;congruent;0.04;letter181;0.05;0.07;fullmask;0.2;arrow_left.png;c;0.2429439999978058;0.2503013999958057;256103.3803211;2.7999922167509794e-06;0.5027647000097204;0.5427746000059415;0.5541912000044249;0.6249181000166573;0.7545718000037596;1.003098699991824;0;0;1;0;0.01
2;1;5;5;letter181;letter357;congruent;0.04;letter357;0.05;0.07;fullmask;0.2;arrow_right.png;m;0.2753466999856755;0.28027190000284463;256105.004249;2.7999922167509794e-06;0.5029727999935858;0.5429796999960672;0.5548965999914799;0.624670299992431;0.7543240999802947;1.0332959000079427;0;0;1;0;0.01
2;1;5;6;letter181;letter357;incongruent;0.04;letter181;0.05;0.07;fullmask;0.2;arrow_right.png;m;0.22855880000861362;0.23039840001729317;256106.5883608;2.6999914553016424e-06;0.5022746000031475;0.5422943999874406;0.5540634999924805;0.6237351000017952;0.754381899983855;0.9825868000043556;0;0;1;0;0.01
2;1;5;7;letter181;letter357;incongruent;0.04;letter357;0.05;0.07;fullmask;0.2;arrow_left.png;m;0.2539210999966599;0.2602363000041805;256108.2042893;2.5999906938523054e-06;0.5044114000047557;0.544431699992856;0.5557568999938667;0.6264271999825723;0.7560813000018243;1.0147820999845862;0;0;1;0;0.01
2;1;5;8;letter181;letter357;incongruent;0.04;letter357;0.05;0.07;fullmask;0.2;arrow_left.png;m;0.17270340002141893;0.18049080000491813;256109.7242399;2.7999922167509794e-06;0.5003857999981847;0.5404253999877255;0.5518662999966182;0.6215998999832664;0.7323584999830928;0.7323604999983218;0;1;0;0;0.01
2;1;5;9;letter181;letter357;congruent;0.04;letter357;0.05;0.07;fullmask;0.2;arrow_right.png;m;0.2916626999794971;0.30021379998652264;256111.1642526;2.700020559132099e-06;0.4965867999999318;0.5365850999951363;0.54825280001387;0.6180287000024691;0.748679100011941;1.0469253000046592;0;0;1;0;0.01
2;1;5;10;letter181;letter357;incongruent;0.04;letter181;0.05;0.07;fullmask;0.2;arrow_right.png;m;0.29858979998971336;0.30025749999913387;256112.8123781;2.6999914553016424e-06;0.49555659998441115;0.5355781999824103;0.5473964999837335;0.6172150000056718;0.7468660000013188;1.0459135999844875;0;0;1;0;0.01
2;1;5;11;letter181;letter357;incongruent;0.04;letter181;0.05;0.07;fullmask;0.2;arrow_right.png;c;0.2878408000105992;0.29010819998802617;256114.4522588;2.8999929782003164e-06;0.5043021999881603;0.5443218000000343;0.5557032999931835;0.6263380999735091;0.7559876999875996;1.0446625999757089;0;0;1;0;0.01
2;1;5;12;letter181;letter357;congruent;0.04;letter181;0.05;0.07;fullmask;0.2;arrow_left.png;c;0.27273240001522936;0.2802823000238277;256116.0684093;2.7999922167509794e-06;0.5019850000098813;0.5419918000116013;0.5535856999922544;0.6235640000086278;0.7539180000021588;1.032317500008503;0;0;1;0;0.01
2;1;5;13;letter181;letter357;incongruent;0.04;letter357;0.05;0.07;fullmask;0.2;arrow_left.png;c;0.29763079999247566;0.30021149999811314;256117.724247;3.00002284348011e-06;0.5030548000067938;0.5430897000187542;0.554559700016398;0.6243478000105824;0.7549838999984786;1.053408700012369;0;0;1;0;0.01
2;1;5;14;letter181;letter357;congruent;0.04;letter357;0.05;0.07;fullmask;0.2;arrow_right.png;m;0.2948673999926541;0.3002569999953266;256119.372305;2.5999906938523054e-06;0.5008428999863099;0.5408710000046995;0.5521123000071384;0.6229261999833398;0.7526045999838971;1.0511996999848634;0;0;1;0;0.01
2;1;5;15;letter181;letter357;congruent;0.04;letter181;0.05;0.07;fullmask;0.2;arrow_left.png;c;0.31556540000019595;0.32015600000158884;256121.0442561;2.700020559132099e-06;0.49573580001015216;0.5357640000001993;0.547202899993863;0.6169708000088576;0.7476189000008162;1.066108200000599;0;0;1;0;0.01
2;1;5;16;letter181;letter357;congruent;0.04;letter357;0.05;0.07;fullmask;0.2;arrow_right.png;m;0.2859185000124853;0.2903580999991391;256122.6763217;2.700020559132099e-06;0.49634950002655387;0.5363880000077188;0.5484539000026416;0.6182298000203446;0.7479048000241164;1.0367220000189263;0;0;1;0;0.01
2;1;5;17;letter181;letter357;congruent;0.04;letter357;0.05;0.07;fullmask;0.2;arrow_right.png;m;0.23764520001714118;0.24039429999538697;256124.2683136;2.6999914553016424e-06;0.5001247999898624;0.5398627999820746;0.551162599993404;0.6218422999954782;0.7515094999980647;0.9901756999897771;0;0;1;0;0.01
2;1;5;18;letter181;letter357;congruent;0.04;letter181;0.05;0.07;fullmask;0.2;arrow_left.png;c;0.29552139999577776;0.29921910000848584;256125.9082283;2.6999914553016424e-06;0.5018329999875277;0.5418963999836706;0.5542153999849688;0.6239904999965802;0.7536446999874897;1.052239799988456;0;0;1;0;0.01
2;1;5;19;letter181;letter357;congruent;0.04;letter181;0.05;0.07;fullmask;0.2;arrow_left.png;c;0.2852247999981046;0.29028280000784434;256127.5482311;2.700020559132099e-06;0.5047768000222277;0.5448020000185352;0.5563554000109434;0.6261701000039466;0.7568220000248402;1.0451143000100274;0;0;1;0;0.01
2;1;5;20;letter181;letter357;incongruent;0.04;letter181;0.05;0.07;fullmask;0.2;arrow_right.png;m;0.29610149998916313;0.3002589999814518;256129.2202328;2.800021320581436e-06;0.497735900018597;0.5377450000087265;0.5493669000279624;0.6192702000262216;0.7498333000112325;1.0480825000267942;0;0;1;0;0.01
2;1;5;21;letter181;letter357;incongruent;0.04;letter181;0.05;0.07;fullmask;0.2;arrow_right.png;c;0.2692365999973845;0.2702949999948032;256130.8442612;2.5999906938523054e-06;0.4977385999809485;0.5377507999946829;0.5492031999747269;0.6189791999931913;0.7496301999781281;1.0180700999917462;0;0;1;0;0.01
2;1;5;22;letter181;letter357;incongruent;0.04;letter357;0.05;0.07;fullmask;0.2;arrow_left.png;c;0.2504693000228144;0.26021220002439804;256132.4364769;3.0999945010989904e-06;0.5007517999911215;0.5407664999947883;0.5521794999949634;0.6227368999971077;0.7523954999924172;1.0110850000055507;0;0;1;0;0.01
2;1;5;23;letter181;letter357;incongruent;0.04;letter181;0.05;0.07;fullmask;0.2;arrow_right.png;m;0.3373872999800369;0.34110159997362643;256134.1242461;2.6999914553016424e-06;0.4986743000044953;0.5387018999899738;0.5499110000091605;0.6206808999995701;0.7503327000013087;0.8809825000062119;0;0;0;1;0.01
2;1;5;24;letter181;letter357;incongruent;0.04;letter357;0.05;0.07;fullmask;0.2;arrow_left.png;c;0.2220800000068266;0.23039810001500882;256135.500233;2.600019797682762e-06;0.4950345999968704;0.5350641999975778;0.5466253000195138;0.616398800018942;0.7470749000203796;0.9753554000053555;0;0;1;0;0.01
2;1;5;25;letter181;letter357;congruent;0.04;letter181;0.05;0.07;fullmask;0.2;arrow_left.png;c;0.2508009000157472;0.26020790002075955;256137.1002637;2.800021320581436e-06;0.4983719000010751;0.5384140000096522;0.5502660000056494;0.6200096000102349;0.7505762000218965;1.008708800014574;0;0;1;0;0.01
2;1;5;26;letter181;letter357;incongruent;0.04;letter357;0.05;0.07;fullmask;0.2;arrow_left.png;m;0.2541077999921981;0.2604355000075884;256138.7244747;2.6999914553016424e-06;0.5036619000020437;0.5436943999957293;0.5554011999920476;0.6251756999990903;0.7558518000005279;1.013975300011225;0;0;1;0;0.01
2;1;5;27;letter181;letter357;incongruent;0.04;letter357;0.05;0.07;fullmask;0.2;arrow_left.png;c;0.29885510000167415;0.30012400000123307;256140.3802083;2.700020559132099e-06;0.5044076000049245;0.544427100016037;0.5560910000058357;0.62580990002607;0.7563690000097267;1.0547449000005145;0;0;1;0;0.01
2;1;5;28;letter181;letter357;incongruent;0.04;letter181;0.05;0.07;fullmask;0.2;arrow_right.png;m;0.27812460000859573;0.2803079000150319;256142.0202224;2.6999914553016424e-06;0.5041269999928772;0.5441810000047553;0.5555469999962952;0.6254521000082605;0.7560137000109535;1.0345032000041101;0;0;1;0;0.01
2;1;5;29;letter181;letter357;congruent;0.04;letter357;0.05;0.07;fullmask;0.2;arrow_right.png;m;0.26309480000054464;0.2702951999963261;256143.6362759;2.700020559132099e-06;0.4962946000159718;0.5363190000061877;0.5477168000070378;0.6174899000034202;0.7481417000235524;1.0166278000106104;0;0;1;0;0.01
2;1;5;30;letter181;letter357;congruent;0.04;letter181;0.05;0.07;fullmask;0.2;arrow_left.png;c;0.3213386999850627;0.3301774999999907;256145.3162593;2.900022082030773e-06;0.5033661000197753;0.5433897000038996;0.5554810000176076;0.6253853000234812;0.7549511000106577;1.0837393999972846;0;0;1;0;0.01
2;1;5;31;letter181;letter357;incongruent;0.04;letter357;0.05;0.07;fullmask;0.2;arrow_left.png;c;0.2730866000056267;0.28017260000342503;256146.948207;2.800021320581436e-06;0.49909220001427457;0.5390978000068571;0.5503064000222366;0.6209800000069663;0.750615500001004;1.0294166000094265;0;0;1;0;0.01
2;1;5;32;letter181;letter357;congruent;0.04;letter357;0.05;0.07;fullmask;0.2;arrow_right.png;c;0.11352089999127202;0.1196042999799829;256148.4204613;2.6999914553016424e-06;0.4940677999984473;0.5340581999917049;0.546033599996008;0.6157037999946624;0.6656361999921501;0.6656400999927428;0;1;0;0;0.01
2;1;5;33;letter181;letter357;congruent;0.04;letter357;0.05;0.07;fullmask;0.2;arrow_right.png;m;0.2928840999957174;0.30012309999438;256149.8602078;2.5999906938523054e-06;0.50038849998964;0.5404315999767277;0.5519654999952763;0.6216470999934245;0.7522969999990892;1.050740799983032;0;0;1;0;0.01
2;1;5;34;letter181;letter357;congruent;0.04;letter181;0.05;0.07;fullmask;0.2;arrow_left.png;c;0.3000324000022374;0.3100890000059735;256151.5083635;2.5999906938523054e-06;0.498799399996642;0.538824699993711;0.5503379000001587;0.6201082000043243;0.7506686999986414;1.0591603000066243;0;0;1;0;0.01
2;1;5;35;letter181;letter357;incongruent;0.04;letter181;0.05;0.07;fullmask;0.2;arrow_right.png;m;0.3128050999948755;0.32019679999211803;256153.1722154;2.7999922167509794e-06;0.4957021999871358;0.5357260000018869;0.547258900012821;0.6171587000135332;0.747718900005566;1.0660904000105802;0;0;1;0;0.01
2;1;5;36;letter181;letter357;incongruent;0.04;letter181;0.05;0.07;fullmask;0.2;arrow_right.png;m;0.24402850001933984;0.2504666000022553;256154.7643688;2.5999906938523054e-06;0.4951070999959484;0.5351391999865882;0.5465320000075735;0.616814200009685;0.7469639999908395;0.9954433999955654;0;0;1;0;0.01
2;1;5;37;letter181;letter357;incongruent;0.04;letter357;0.05;0.07;fullmask;0.2;arrow_left.png;c;0.38074980000965297;0.3899694999854546;256156.492212;2.700020559132099e-06;0.4937512000033166;0.5337702000106219;0.5452745000075083;0.6150431999994908;0.7456790000142064;0.8753485000052024;0;0;0;1;0.01
2;1;5;38;letter181;letter357;incongruent;0.04;letter357;0.05;0.07;fullmask;0.2;arrow_left.png;c;0.2793510000046808;0.28017220000037923;256157.9323182;2.700020559132099e-06;0.5025776000111364;0.5426280999963637;0.5545942000171635;0.6242703000025358;0.7539226000080816;1.0328718000091612;0;0;1;0;0.01
2;1;5;39;letter181;letter357;congruent;0.04;letter181;0.05;0.07;fullmask;0.2;arrow_left.png;c;0.2804558000061661;0.2901445000024978;256159.5642179;2.6999914553016424e-06;0.5001827999949455;0.5402193999907468;0.5519603999855462;0.6217260000121314;0.7522917999885976;1.0405382000026293;0;0;1;0;0.01
2;1;5;40;letter181;letter357;incongruent;0.04;letter357;0.05;0.07;fullmask;0.2;arrow_left.png;c;0.2719163000001572;0.2802640000008978;256161.1962036;2.6999914553016424e-06;0.5050127999857068;0.5450323999975808;0.5562649999919813;0.6270365999953356;0.7566921999969054;1.0353445000073407;0;0;1;0;0.01
2;1;5;41;letter181;letter357;congruent;0.04;letter357;0.05;0.07;fullmask;0.2;arrow_right.png;m;0.3109526999760419;0.31117939998512156;256162.8763133;2.5999906938523054e-06;0.502512699982617;0.5425315999891609;0.5537664000003133;0.6245535000052769;0.7542049000039697;1.062872399983462;0;0;1;0;0.01
2;1;5;42;letter181;letter357;incongruent;0.04;letter181;0.05;0.07;fullmask;0.2;arrow_right.png;m;0.2978958000021521;0.30112069999449886;256164.5241993;2.6999914553016424e-06;0.5041029000130948;0.5441162000061013;0.5552515999879688;0.625932399998419;0.7555839999986347;1.0544472000037786;0;0;1;0;0.01
2;1;5;43;letter181;letter357;congruent;0.04;letter181;0.05;0.07;fullmask;0.2;arrow_left.png;c;0.3039448000199627;0.31009480002103373;256166.1722053;2.5999906938523054e-06;0.50099629999022;0.5410098999855109;0.5530547999951523;0.6227369999978691;0.7523891000018921;1.0613550000125542;0;0;1;0;0.01
2;1;5;44;letter181;letter357;congruent;0.04;letter181;0.05;0.07;fullmask;0.2;arrow_left.png;c;0.2610084000043571;0.270338600006653;256167.7802055;2.6999914553016424e-06;0.49680389999412;0.5368198999785818;0.5487373999785632;0.6186537999892607;0.748208099976182;1.0171357999788597;0;0;1;0;0.01
2;1;5;45;letter181;letter357;incongruent;0.04;letter181;0.05;0.07;fullmask;0.2;arrow_right.png;c;0.21660039998823777;0.22042619998683222;256169.3562021;2.7999922167509794e-06;0.49749700000393204;0.5375044999818783;0.5487696999916807;0.6195350000052713;0.749186999979429;0.9677679000014905;0;0;1;0;0.01
2;1;5;46;letter181;letter357;congruent;0.04;letter357;0.05;0.07;fullmask;0.2;arrow_right.png;c;0.33975730001111515;0.34112690002075396;256171.0602755;2.600019797682762e-06;0.4973148000135552;0.5373303000233136;0.5485099000215996;0.6192800000135321;0.7489344000059646;0.879582900000969;0;0;0;1;0.01
2;1;5;47;letter181;letter357;incongruent;0.04;letter181;0.05;0.07;fullmask;0.2;arrow_right.png;m;2.0658330000005662;2.071474299998954;256174.2681547;2.7999922167509794e-06;0.4971938999951817;0.5372059000073932;0.5492454000050202;0.619106300000567;0.7486684999894351;0.8792379999940749;0;0;0;1;0.01
2;1;5;48;letter181;letter357;congruent;0.04;letter357;0.05;0.07;fullmask;0.2;arrow_right.png;m;0.251992200006498;0.2603625000047032;256175.6761876;2.5999906938523054e-06;0.5010235999943689;0.5410371999896597;0.5528756999992765;0.6227856999903452;0.7523443999816664;1.011361399985617;0;0;1;0;0.01
2;2;12;1;letter169;letter190;congruent;0.04;letter169;0.09;0.07;fullmask;0.2;arrow_left.png;c;0.29652609999175183;0.3002989999949932;257308.5472611;2.800021320581436e-06;0.5011705000069924;0.5412001000076998;0.592496299999766;0.6626105000032112;0.7930033000011463;1.0915687000087928;0;0;1;0;0.01
2;2;12;2;letter169;letter190;incongruent;0.04;letter169;0.09;0.07;fullmask;0.2;arrow_right.png;c;0.22154299999237992;0.23056029999861494;257310.1634733;4.599976819008589e-06;0.4971413999737706;0.5371635999763384;0.5885722999810241;0.6593475999834482;0.788995699986117;1.0174763999821153;0;0;1;0;0.01
2;2;12;3;letter169;letter190;incongruent;0.04;letter190;0.09;0.07;fullmask;0.2;arrow_left.png;c;0.2880894999834709;0.2902409999805968;257311.8512559;2.6999914553016424e-06;0.4978795000060927;0.5378831000125501;0.5894834999926388;0.6593594000150915;0.789921100018546;1.078241600014735;0;0;1;0;0.01
2;2;12;4;letter169;letter190;congruent;0.04;letter169;0.09;0.07;fullmask;0.2;arrow_left.png;m;0.2671668000111822;0.27033319999463856;257313.4913094;2.3999891709536314e-06;0.4958951000007801;0.5359375999832992;0.5874273999943398;0.6573277999996208;0.7878710999793839;1.0562519999803044;0;0;1;0;0.01
2;2;12;5;letter169;letter190;incongruent;0.04;letter169;0.09;0.07;fullmask;0.2;arrow_right.png;c;0.27762150001944974;0.2801311000075657;257315.1632613;2.6999914553016424e-06;0.5039819999947213;0.5440006999997422;0.5959441000013612;0.665580900007626;0.7962297000049148;1.0743387000111397;0;0;1;0;0.01
2;2;12;6;letter169;letter190;congruent;0.04;letter190;0.09;0.07;fullmask;0.2;arrow_right.png;m;0.2707090999756474;0.2803107999789063;257316.8272902;2.6999914553016424e-06;0.5039217000012286;0.5439473000005819;0.5957631999917794;0.6658350999932736;0.7952336000162177;1.0742890000110492;0;0;1;0;0.01
2;2;12;7;letter169;letter190;congruent;0.04;letter190;0.09;0.07;fullmask;0.2;arrow_right.png;m;0.24950039997929707;0.25025579999783076;257318.4673421;2.6999914553016424e-06;0.4973834000120405;0.5374060999893118;0.5894135999842547;0.6591830000106711;0.7887481999932788;1.0377352999930736;0;0;1;0;0.01
2;2;12;8;letter169;letter190;congruent;0.04;letter190;0.09;0.07;fullmask;0.2;arrow_right.png;m;0.2505471999756992;0.2603293999854941;257320.0995239;2.600019797682762e-06;0.4941838000086136;0.5342116999963764;0.58629999999539;0.6559760000091046;0.7856358000135515;1.044534200016642;0;0;1;0;0.01
2;2;12;9;letter169;letter190;congruent;0.04;letter169;0.09;0.07;fullmask;0.2;arrow_left.png;c;0.2618388000119012;0.2704205999907572;257321.7714633;2.6999914553016424e-06;0.504177199996775;0.544202499993844;0.5958664999925531;0.6657890999922529;0.7963162999949418;1.0645250999950804;0;0;1;0;0.01
2;2;12;10;letter169;letter190;incongruent;0.04;letter190;0.09;0.07;fullmask;0.2;arrow_left.png;m;0.2430952000140678;0.2503710000019055;257323.4034723;2.7999922167509794e-06;0.49867500000982545;0.53870440000901;0.590058500005398;0.6607324999931734;0.7903854000032879;1.0390140000090469;0;0;1;0;0.01
2;2;12;11;letter169;letter190;incongruent;0.04;letter169;0.09;0.07;fullmask;0.2;arrow_right.png;m;0.2598821000137832;0.2601229000138119;257325.051322;4.3000036384910345e-06;0.49525989999528974;0.5352777999942191;0.5866710999980569;0.6573391999991145;0.7869998999813106;1.045614000002388;0;0;1;0;0.01
2;2;12;12;letter169;letter190;incongruent;0.04;letter190;0.09;0.07;fullmask;0.2;arrow_left.png;c;0.31884309998713434;0.32040889997733757;257326.7712509;2.6999914553016424e-06;0.5038241999864113;0.5438533999840729;0.5951342999760527;0.6654178999888245;0.795802199980244;1.1142139000003226;0;0;1;0;0.01
2;2;12;13;letter169;letter190;congruent;0.04;letter169;0.09;0.07;fullmask;0.2;arrow_left.png;c;0.2792734999966342;0.2803142999764532;257328.4433948;2.700020559132099e-06;0.4956345000246074;0.535693000012543;0.587592299998505;0.6576468000130262;0.7870641000044998;1.0660032000159845;0;0;1;0;0.01
2;2;12;14;letter169;letter190;congruent;0.04;letter169;0.09;0.07;fullmask;0.2;arrow_left.png;c;0.21872410000651143;0.22042500000679865;257330.0432397;2.9999937396496534e-06;0.49573130000499077;0.5357522999984212;0.5869716000161134;0.6577426000148989;0.7873986000195146;1.0060456999926828;0;0;1;0;0.01
2;2;12;15;letter169;letter190;congruent;0.04;letter190;0.09;0.07;fullmask;0.2;arrow_right.png;m;0.22952470000018366;0.23035620001610368;257331.6753949;2.5999906938523054e-06;0.5038248999917414;0.5438392999931239;0.5953855999978259;0.6650561999995261;0.7957460999896284;1.0241427999862935;0;0;1;0;0.01
2;2;12;16;letter169;letter190;incongruent;0.04;letter169;0.09;0.07;fullmask;0.2;arrow_right.png;c;0.24272400001063943;0.2503413000085857;257333.2992805;2.5999906938523054e-06;0.4976432000112254;0.5376507000182755;0.5888495999970473;0.6596136000007391;0.7892663000093307;1.0379781000083312;0;0;1;0;0.01
2;2;12;17;letter169;letter190;congruent;0.04;letter190;0.09;0.07;fullmask;0.2;arrow_right.png;m;0.2892252000165172;0.2902730000205338;257334.9873568;2.600019797682762e-06;0.5047848999965936;0.5448042000061832;0.5965251000015996;0.6664167999988422;0.7969806000182871;1.085151900013443;0;0;1;0;0.01
2;2;12;18;letter169;letter190;incongruent;0.04;letter190;0.09;0.07;fullmask;0.2;arrow_left.png;c;0.2784576000121888;0.2803067000058945;257336.6672731;2.5999906938523054e-06;0.4974813000007998;0.5374878000002354;0.5888293999887537;0.6587290999887045;0.7892930000089109;1.0678602999832947;0;0;1;0;0.01
2;2;12;19;letter169;letter190;incongruent;0.04;letter169;0.09;0.07;fullmask;0.2;arrow_right.png;m;0.3150078000035137;0.3201563000038732;257338.3552345;3.1999952625483274e-06;0.4954155999876093;0.5354347999964375;0.587100200005807;0.6568702000076883;0.7875197999819648;1.1058160999964457;0;0;1;0;0.01
2;2;12;20;letter169;letter190;incongruent;0.04;letter169;0.09;0.07;fullmask;0.2;arrow_right.png;c;0.23600020000594668;0.24029919999884441;257339.9872681;2.6999914553016424e-06;0.5043182999943383;0.5443419000075664;0.5959550999978092;0.6656366999959573;0.7963041999901179;1.0346719000081066;0;0;1;0;0.01
2;2;12;21;letter169;letter190;incongruent;0.04;letter190;0.09;0.07;fullmask;0.2;arrow_left.png;c;0.27492369999527;0.28017469999031164;257341.6672238;2.600019797682762e-06;0.5031627000134904;0.5431848000152968;0.594774299999699;0.6654651999997441;0.7951110000140034;1.0735248000128195;0;0;1;0;0.01
2;2;12;22;letter169;letter190;congruent;0.04;letter169;0.09;0.07;fullmask;0.2;arrow_left.png;c;0.22740549998707138;0.2294015999941621;257343.2912719;2.8999929782003164e-06;0.5037464999768417;0.5437911999761127;0.5958740999922156;0.6656745999935083;0.7952951999905054;1.0241052999917883;0;0;1;0;0.01
2;2;12;23;letter169;letter190;incongruent;0.04;letter190;0.09;0.07;fullmask;0.2;arrow_left.png;m;0.23892429997795261;0.24037409998709336;257344.9232415;2.6999914553016424e-06;0.49550730001647025;0.5355194000003394;0.5869928000029176;0.6567673000099603;0.7874212999886367;1.0258171999885235;0;0;1;0;0.01
2;2;12;24;letter169;letter190;congruent;0.04;letter190;0.09;0.07;fullmask;0.2;arrow_right.png;m;0.2622832999913953;0.2702943000185769;257346.5873576;2.7999922167509794e-06;0.5026507999864407;0.5426764999865554;0.5938696999801323;0.6646394999988843;0.7942958000057843;1.0630120999994688;0;0;1;0;0.01
2;2;12;25;letter169;letter190;congruent;0.04;letter169;0.09;0.07;fullmask;0.2;arrow_left.png;c;0.2590796999866143;0.26034019998041913;257348.2354601;2.700020559132099e-06;0.496749500016449;0.5367619000026025;0.5881997000251431;0.6588858000177424;0.7885244000062812;1.0470975000062026;0;0;1;0;0.01
2;2;12;26;letter169;letter190;congruent;0.04;letter169;0.09;0.07;fullmask;0.2;arrow_left.png;c;0.2478852000203915;0.25047870000707917;257349.8753147;2.4999899324029684e-06;0.4990749999997206;0.5391063999850303;0.590524999977788;0.6604197999986354;0.7909763999923598;1.0394177999987733;0;0;1;0;0.01
2;2;12;27;letter169;letter190;incongruent;0.04;letter190;0.09;0.07;fullmask;0.2;arrow_left.png;m;0.2950332000036724;0.3004916000063531;257351.5634389;2.5999906938523054e-06;0.4952434999868274;0.5352438999980222;0.5866303000075277;0.6566654999915045;0.7872256000118796;1.085659600008512;0;0;1;0;0.01
2;2;12;28;letter169;letter190;incongruent;0.04;letter169;0.09;0.07;fullmask;0.2;arrow_right.png;c;0.2138181999907829;0.22038259997498244;257353.1632261;2.7999922167509794e-06;0.49618839999311604;0.5359608999860939;0.587236599996686;0.6579634999798145;0.7876180000021122;1.0065386999922339;0;0;1;0;0.01
2;2;12;29;letter169;letter190;incongruent;0.04;letter169;0.09;0.07;fullmask;0.2;arrow_right.png;m;0.33072890000767075;0.34013679999043234;257354.8912988;2.700020559132099e-06;0.5000122000055853;0.5400303000060376;0.5914476000180002;0.6613429000135511;0.7918956000066828;0.9215565000195056;0;0;0;1;0.01
2;2;12;30;letter169;letter190;incongruent;0.04;letter190;0.09;0.07;fullmask;0.2;arrow_left.png;c;0.3169867999968119;0.32008620002307;257356.4192055;2.600019797682762e-06;0.5025435000134166;0.542287899996154;0.5943447000172455;0.6641187999921385;0.793772800010629;1.1126484000124037;0;0;1;0;0.01
2;2;12;31;letter169;letter190;congruent;0.04;letter190;0.09;0.07;fullmask;0.2;arrow_right.png;m;0.26276599999982864;0.2703375999990385;257358.0752156;2.5999906938523054e-06;0.5045517999969888;0.5445753999811132;0.5957817999878898;0.6666803999978583;0.7962592999974731;1.0649029999913182;0;0;1;0;0.01
2;2;12;32;letter169;letter190;incongruent;0.04;letter190;0.09;0.07;fullmask;0.2;arrow_left.png;c;0.35304440002073534;0.3599599000008311;257359.8272095;2.9999937396496534e-06;0.5037815000105184;0.543808699992951;0.5956607999978587;0.6654292999883182;0.7959973000106402;0.925645400013309;0;0;0;1;0.01
2;2;12;33;letter169;letter190;congruent;0.04;letter169;0.09;0.07;fullmask;0.2;arrow_left.png;c;0.24774270001216792;0.2493780000077095;257361.2832229;2.6999914553016424e-06;0.504321099986555;0.5443519999971613;0.5965041999879759;0.6663980000012089;0.7959564999910071;1.0446979999833275;0;0;1;0;0.01
2;2;12;34;letter169;letter190;congruent;0.04;letter190;0.09;0.07;fullmask;0.2;arrow_right.png;m;0.2652906999865081;0.2702600999909919;257362.9313446;2.6999914553016424e-06;0.49594679998699576;0.5359635999775492;0.5876562999910675;0.6577364999975543;0.788104499981273;1.0563260999915656;0;0;1;0;0.01
2;2;12;35;letter169;letter190;incongruent;0.04;letter169;0.09;0.07;fullmask;0.2;arrow_right.png;m;0.4205906999995932;0.42101700001512654;257364.7474989;2.8999929782003164e-06;0.5044861999922432;0.5444970999960788;0.5959735999931581;0.6658815999981016;0.7964393000002019;0.9260917000065092;0;0;0;1;0.01
2;2;12;36;letter169;letter190;congruent;0.04;letter190;0.09;0.07;fullmask;0.2;arrow_right.png;m;0.2735116000112612;0.2802724000066519;257366.2112011;2.800021320581436e-06;0.5035582999989856;0.5435851000074763;0.5948068000143394;0.6655797999992501;0.7952311999979429;1.0739261000126135;0;0;1;0;0.01
2;2;12;37;letter169;letter190;congruent;0.04;letter169;0.09;0.07;fullmask;0.2;arrow_left.png;c;0.24446469999384135;0.2502507999888621;257367.8432107;2.6999914553016424e-06;0.4952239000122063;0.535230200010119;0.5864476000133436;0.6572107000101823;0.7867741000081878;1.0355560000170954;0;0;1;0;0.01
2;2;12;38;letter169;letter190;incongruent;0.04;letter169;0.09;0.07;fullmask;0.2;arrow_right.png;c;0.2374507999920752;0.24036629998590797;257369.4672295;2.600019797682762e-06;0.49585259999730624;0.5358636000019033;0.5870626000105403;0.6578363000007812;0.787481100007426;1.0261788000061642;0;0;1;0;0.01
2;2;12;39;letter169;letter190;congruent;0.04;letter190;0.09;0.07;fullmask;0.2;arrow_right.png;m;0.28810529998736456;0.29014620001544245;257371.1392051;2.8999929782003164e-06;0.49887609999859706;0.5389077999861911;0.5903896999952849;0.6610774000000674;0.7907203999930061;1.079257899982622;0;0;1;0;0.01
2;2;12;40;letter169;letter190;congruent;0.04;letter169;0.09;0.07;fullmask;0.2;arrow_left.png;c;0.25487230002181605;0.2603296000161208;257372.7874011;2.600019797682762e-06;0.5035943000111729;0.5435843000013847;0.5954012000001967;0.6653241000021808;0.7957291000057012;1.0539025000180118;0;0;1;0;0.01
2;2;12;41;letter169;letter190;congruent;0.04;letter190;0.09;0.07;fullmask;0.2;arrow_right.png;m;0.2382721999892965;0.24037839999073185;257374.4112908;2.6999914553016424e-06;0.4957391999778338;0.5357596999965608;0.587023300002329;0.6576984999992419;0.7873519999848213;1.0260765999846626;0;0;1;0;0.01
2;2;12;42;letter169;letter190;congruent;0.04;letter190;0.09;0.07;fullmask;0.2;arrow_right.png;m;0.27036650001537055;0.27940090000629425;257376.0753479;2.5999906938523054e-06;0.5006463000026997;0.5406979999970645;0.5928824000002351;0.6627941000042483;0.7923521999910008;1.0710607999935746;0;0;1;0;0.01
2;2;12;43;letter169;letter190;incongruent;0.04;letter169;0.09;0.07;fullmask;0.2;arrow_right.png;m;0.3856429000152275;0.3898852000129409;257377.8512008;2.800021320581436e-06;0.49677759999758564;0.5367955000256188;0.5884925000136718;0.6581766000017524;0.7888269000104629;0.9184845999989193;0;0;0;1;0.01
2;2;12;44;letter169;letter190;congruent;0.04;letter169;0.09;0.07;fullmask;0.2;arrow_left.png;c;0.25233960000332445;0.26031710000825115;257379.2992397;2.5999906938523054e-06;0.5029683999891859;0.5429709999880288;0.59497000000556;0.6647444999834988;0.7944037999841385;1.053278000006685;0;0;1;0;0.01
2;2;12;45;letter169;letter190;incongruent;0.04;letter190;0.09;0.07;fullmask;0.2;arrow_left.png;m;0.235168999992311;0.24037489999318495;257380.9231601;2.6999914553016424e-06;0.5017786000098567;0.5417703999846708;0.5938282999850344;0.6635068999894429;0.7931592999957502;1.0320875000033993;0;0;1;0;0.01
2;2;12;46;letter169;letter190;incongruent;0.04;letter169;0.09;0.07;fullmask;0.2;arrow_right.png;m;0.32430619999649934;0.3300538999901619;257382.6432062;2.800021320581436e-06;0.4998440000053961;0.53985850000754;0.5917750000080559;0.6614518999995198;0.7921014000021387;1.1202359000162687;0;0;1;0;0.01
2;2;12;47;letter169;letter190;incongruent;0.04;letter190;0.09;0.07;fullmask;0.2;arrow_left.png;c;0.323855900001945;0.3311334000027273;257384.3631663;2.6999914553016424e-06;0.5033447000023443;0.5433496999903582;0.5945928999863099;0.6653640999866184;0.7950203999935184;1.1237500999995973;0;0;1;0;0.01
2;2;12;48;letter169;letter190;incongruent;0.04;letter190;0.09;0.07;fullmask;0.2;arrow_left.png;m;0.24419089997536503;0.24959369999123737;257385.995198;2.7999922167509794e-06;0.4981670999841299;0.5381821999908425;0.5900101999868639;0.6602758000080939;0.7896815999993123;1.03851179999765;0;0;1;0;0.01
2;2;13;1;letter169;letter190;incongruent;0.04;letter190;0.09;0.07;fullmask;0.2;arrow_left.png;c;0.3444944999937434;0.3501135999977123;257398.6431789;2.8999929782003164e-06;0.49923700001090765;0.5392643999948632;0.5907089000102133;0.6605163000058383;0.7911678999953438;0.920823799999198;0;0;0;1;0.01
2;2;13;2;letter169;letter190;incongruent;0.04;letter190;0.09;0.07;fullmask;0.2;arrow_left.png;c;0.27522209999733604;0.28026499997940846;257400.1151893;2.8999929782003164e-06;0.49582419998478144;0.5358578999876045;0.5875862000102643;0.6574519999849144;0.788009299983969;1.0661794999905396;0;0;1;0;0.01
2;2;13;3;letter169;letter190;incongruent;0.04;letter169;0.09;0.07;fullmask;0.2;arrow_right.png;m;0.3505777999816928;0.3600529999821447;257401.8512594;2.7999922167509794e-06;0.497913899976993;0.5379612999968231;0.5893302999902517;0.6601009999867529;0.7897546000021975;0.9193027000001166;0;0;0;1;0.01
2;2;13;4;letter169;letter190;congruent;0.04;letter190;0.09;0.07;fullmask;0.2;arrow_right.png;m;0.22147819999372587;0.23044660000596195;257403.2832605;2.6999914553016424e-06;0.5015508999931626;0.54156840001815;0.5930643000174314;0.6629694000002928;0.7935310000029858;1.0218661999970209;0;0;1;0;0.01
2;2;13;5;letter169;letter190;congruent;0.04;letter190;0.09;0.07;fullmask;0.2;arrow_right.png;m;0.23263220000080764;0.24038350000046194;257404.915444;2.5999906938523054e-06;0.5035298999864608;0.5435290999885183;0.5950129999837372;0.6647809999994934;0.7953435000090394;1.0338435999874491;0;0;1;0;0.01
2;2;13;6;letter169;letter190;incongruent;0.04;letter190;0.09;0.07;fullmask;0.2;arrow_left.png;m;0.20884289999958128;0.20955279999179766;257406.5232438;2.8999929782003164e-06;0.5029006999975536;0.5429320000112057;0.5949530999932904;0.6647700000030454;0.7954211000178475;1.0032362000201829;0;0;1;0;0.01
2;2;13;7;letter169;letter190;congruent;0.04;letter169;0.09;0.07;fullmask;0.2;arrow_left.png;c;0.2359456000267528;0.24028240001644008;257408.1712192;2.5999906938523054e-06;0.5037091999838594;0.543748099997174;0.5955858999805059;0.6652723999868613;0.7958369999832939;1.0340354999934789;0;0;1;0;0.01
2;2;13;8;letter169;letter190;incongruent;0.04;letter169;0.09;0.07;fullmask;0.2;arrow_right.png;m;0.23096809998969547;0.2402787999890279;257409.7871364;2.7999922167509794e-06;0.5039168999937829;0.543935199995758;0.5956398999842349;0.6655918000033125;0.795968599995831;1.0342549000051804;0;0;1;0;0.01
2;2;13;9;letter169;letter190;incongruent;0.04;letter169;0.09;0.07;fullmask;0.2;arrow_right.png;m;0.3362730999942869;0.34017020001192577;257411.5231759;2.6999914553016424e-06;0.5024396000080742;0.5424644000013359;0.5938313000078779;0.6646271999925375;0.7942547999846283;0.9239745999802835;0;0;0;1;0.01
2;2;13;10;letter169;letter190;congruent;0.04;letter169;0.09;0.07;fullmask;0.2;arrow_left.png;c;0.24335289999726228;0.25039050000486895;257412.9711991;2.800021320581436e-06;0.5045045000151731;0.5445255000086036;0.5958730000129435;0.6659419000206981;0.7963430000236258;1.0448444000212476;0;0;1;0;0.01
2;2;13;11;letter169;letter190;congruent;0.04;letter190;0.09;0.07;fullmask;0.2;arrow_right.png;m;0.21803710001404397;0.22044189998996444;257414.5872542;2.5999906938523054e-06;0.49977169997873716;0.5398053999815602;0.5914604999998119;0.6611441999848466;0.791795600001933;1.0100880999816582;0;0;1;0;0.01
2;2;13;12;letter169;letter190;congruent;0.04;letter169;0.09;0.07;fullmask;0.2;arrow_left.png;c;0.24666869998327456;0.25025290000485256;257416.2272147;2.700020559132099e-06;0.5046826000034343;0.544716000003973;0.5966731000225991;0.6663505000178702;0.7960033999988809;1.0450342000112869;0;0;1;0;0.01
2;2;13;13;letter169;letter190;incongruent;0.04;letter169;0.09;0.07;fullmask;0.2;arrow_right.png;m;0.28798470000037923;0.2901525000052061;257417.8991714;2.4999899324029684e-06;0.5006972999835853;0.5407279999926686;0.5922705999983009;0.6620461999846157;0.7926077999873087;1.081057300005341;0;0;1;0;0.01
2;2;13;14;letter169;letter190;congruent;0.04;letter190;0.09;0.07;fullmask;0.2;arrow_right.png;m;0.24883219998446293;0.2503448999777902;257419.5311887;2.5999906938523054e-06;0.49664160000975244;0.5366517000074964;0.5883164000115357;0.6580902000132482;0.7887464000086766;1.0369862999941688;0;0;1;0;0.01
2;2;13;15;letter169;letter190;congruent;0.04;letter169;0.09;0.07;fullmask;0.2;arrow_left.png;c;0.28173200000310317;0.29024940001545474;257421.1953768;2.800021320581436e-06;0.4958786000206601;0.5358866000024136;0.5877765000041109;0.6574642000196036;0.788106299994979;1.0765049000037834;0;0;1;0;0.01
2;2;13;16;letter169;letter190;incongruent;0.04;letter190;0.09;0.07;fullmask;0.2;arrow_left.png;c;0.31535049999365583;0.32116570000653155;257422.8994226;2.5999906938523054e-06;0.49872629999299534;0.5387375999998767;0.5899974000058137;0.6607687000068836;0.7903277000004891;1.1091153000015765;0;0;1;0;0.01
2;2;13;17;letter169;letter190;incongruent;0.04;letter190;0.09;0.07;fullmask;0.2;arrow_left.png;m;0.24577980002504773;0.25048690001131035;257424.5312516;2.6999914553016424e-06;0.5024646999954712;0.5424895999894943;0.5940473999944516;0.6641286000085529;0.7945076999894809;1.0428498999972362;0;0;1;0;0.01
2;2;13;18;letter169;letter190;congruent;0.04;letter190;0.09;0.07;fullmask;0.2;arrow_right.png;m;0.19891420000931248;0.20062610000604764;257426.1154293;2.7999922167509794e-06;0.49767339997924864;0.5376808999862988;0.5892384999897331;0.6591431999986526;0.7898723999969661;0.7898792999912985;0;1;0;0;0.01
2;2;13;19;letter169;letter190;incongruent;0.04;letter169;0.09;0.07;fullmask;0.2;arrow_right.png;m;0.30596080000395887;0.31006020001950674;257427.6032095;2.800021320581436e-06;0.49660290000610985;0.5366070000163745;0.5880062000069302;0.6587695000052918;0.7883342000131961;1.096992600010708;0;0;1;0;0.01
2;2;13;20;letter169;letter190;incongruent;0.04;letter190;0.09;0.07;fullmask;0.2;arrow_left.png;m;0.2047411999956239;0.21050290000857785;257429.2031654;2.6999914553016424e-06;0.5048604999901727;0.5448822999896947;0.5963715999969281;0.6661881000036374;0.7968381000100635;1.0051886000146624;0;0;1;0;0.01
2;2;13;21;letter169;letter190;congruent;0.04;letter169;0.09;0.07;fullmask;0.2;arrow_left.png;c;0.23537120001856238;0.24037460002000444;257430.835255;2.9999937396496534e-06;0.5001193000061903;0.5401459999848157;0.5920583999832161;0.6618325999879744;0.7914853999973275;1.030464799987385;0;0;1;0;0.01
2;2;13;22;letter169;letter190;incongruent;0.04;letter169;0.09;0.07;fullmask;0.2;arrow_right.png;m;0.3002959000004921;0.31023269999423064;257432.5312719;2.7999922167509794e-06;0.49617830000352114;0.5361978999862913;0.5881616999977268;0.6580697000026703;0.787630300008459;1.0965291000029538;0;0;1;0;0.01
2;2;13;23;letter169;letter190;congruent;0.04;letter169;0.09;0.07;fullmask;0.2;arrow_left.png;c;0.2317425000073854;0.2404044000140857;257434.163424;2.7999922167509794e-06;0.4963281999807805;0.5363321999902837;0.5879006999894045;0.6575870999949984;0.7882519999984652;1.026634899986675;0;0;1;0;0.01
2;2;13;24;letter169;letter190;congruent;0.04;letter190;0.09;0.07;fullmask;0.2;arrow_right.png;m;0.2903410000144504;0.3002093000104651;257435.8431357;3.0999945010989904e-06;0.5019229999743402;0.5419465999875683;0.5935936999740079;0.6633634999743663;0.7940145999891683;1.0923271999927238;0;0;1;0;0.01
2;2;13;25;letter169;letter190;congruent;0.04;letter190;0.09;0.07;fullmask;0.2;arrow_right.png;m;0.18566640000790358;0.19006009999429807;257437.4192278;2.6999914553016424e-06;0.49887819998548366;0.5388965999882203;0.5902329999953508;0.6608060999715235;0.7802927999873646;0.7802948999742512;0;1;0;0;0.01
2;2;13;26;letter169;letter190;incongruent;0.04;letter190;0.09;0.07;fullmask;0.2;arrow_left.png;m;0.23813369998242706;0.2404167999920901;257438.8431407;2.6999914553016424e-06;0.49539179998100735;0.5354056999785826;0.5873097000003327;0.6572164999961387;0.7867790999880526;1.025731999980053;0;0;1;0;0.01
2;2;13;27;letter169;letter190;congruent;0.04;letter169;0.09;0.07;fullmask;0.2;arrow_left.png;c;0.19167129998095334;0.20048769999993965;257440.4271868;2.700020559132099e-06;0.5022691000194754;0.5422733000013977;0.5936581999994814;0.6636975000146776;0.7941458999994211;0.7941480000154115;0;1;0;0;0.01
2;2;13;28;letter169;letter190;congruent;0.04;letter190;0.09;0.07;fullmask;0.2;arrow_right.png;m;0.2664900000090711;0.27030120001290925;257441.8832335;2.5999906938523054e-06;0.4986293999827467;0.5386509999807458;0.5903424999851268;0.6600089999847114;0.7906705999921542;1.0592384999908973;0;0;1;0;0.01
2;2;13;29;letter169;letter190;incongruent;0.04;letter190;0.09;0.07;fullmask;0.2;arrow_left.png;c;0.3412536999967415;0.3500789999961853;257443.6191865;2.6999914553016424e-06;0.502206400007708;0.5422048000036739;0.5940358999941964;0.6638141000003088;0.794462099991506;0.9241143999970518;0;0;0;1;0.01
2;2;13;30;letter169;letter190;incongruent;0.04;letter190;0.09;0.07;fullmask;0.2;arrow_left.png;c;0.3148861000081524;0.32120159998885356;257445.1231554;2.7999922167509794e-06;0.49878199998056516;0.5388356999901589;0.5900123000028543;0.660913800005801;0.7904816999798641;1.1091974999872036;0;0;1;0;0.01
2;2;13;31;letter169;letter190;incongruent;0.04;letter169;0.09;0.07;fullmask;0.2;arrow_right.png;c;0.21956389999832027;0.22047449997626245;257446.7393145;2.800021320581436e-06;0.5048241000040434;0.5448631000181194;0.5964098999975249;0.6663184000062756;0.7968789000005927;1.0151441000052728;0;0;1;0;0.01
2;2;13;32;letter169;letter190;incongruent;0.04;letter169;0.09;0.07;fullmask;0.2;arrow_right.png;m;0.3460480999783613;0.3500802000053227;257448.4671734;2.700020559132099e-06;0.4958989000006113;0.5359115000173915;0.5878154000092763;0.6575896000140347;0.7872426999965683;0.9178954000235535;0;0;0;1;0.01
2;2;13;33;letter169;letter190;congruent;0.04;letter169;0.09;0.07;fullmask;0.2;arrow_left.png;c;0.23175419998005964;0.2405058000003919;257449.8834189;2.700020559132099e-06;0.49945850000949576;0.5394713999994565;0.5909322999941651;0.6608291000011377;0.7913854999933392;1.0297751000034623;0;0;1;0;0.01
2;2;13;34;letter169;letter190;congruent;0.04;letter169;0.09;0.07;fullmask;0.2;arrow_left.png;c;0.23472149998997338;0.24027290000231005;257451.5071808;2.700020559132099e-06;0.4982204000116326;0.5382343000092078;0.5894528000208084;0.6601260000024922;0.7897729000251275;1.0285669000004418;0;0;1;0;0.01
2;2;13;35;letter169;letter190;incongruent;0.04;letter190;0.09;0.07;fullmask;0.2;arrow_left.png;m;0.20357169999624602;0.2104445000004489;257453.1071464;2.5999906938523054e-06;0.5027888999902643;0.5427993999910541;0.5940766999847256;0.6648420999990776;0.7944945999770425;1.0030837999947835;0;0;1;0;0.01
2;2;13;36;letter169;letter190;congruent;0.04;letter169;0.09;0.07;fullmask;0.2;arrow_left.png;c;0.20984840000164695;0.2203367999754846;257454.7151742;2.6999914553016424e-06;0.5047222999855876;0.5447597999882419;0.5967623999749776;0.6664429999946151;0.7960966999817174;1.0150636999751441;0;0;1;0;0.01
2;2;13;37;letter169;letter190;congruent;0.04;letter169;0.09;0.07;fullmask;0.2;arrow_left.png;c;0.2072219999972731;0.21049769999808632;257456.323137;2.7999922167509794e-06;0.5013180999958422;0.5413510999933351;0.5929132000019308;0.6628206000023056;0.7933708000055049;1.001641999988351;0;0;1;0;0.01
2;2;13;38;letter169;letter190;congruent;0.04;letter190;0.09;0.07;fullmask;0.2;arrow_right.png;m;0.23761989999911748;0.23940129997208714;257457.9552709;2.4999899324029684e-06;0.4969377999950666;0.5369532000040635;0.5892374999821186;0.6589184000040404;0.7885695000004489;1.0272789000009652;0;0;1;0;0.01
2;2;13;39;letter169;letter190;incongruent;0.04;letter169;0.09;0.07;fullmask;0.2;arrow_right.png;c;0.25550959998508915;0.26032089997897856;257459.6031446;4.3000036384910345e-06;0.49835030001122504;0.5383191999862902;0.589565100002801;0.660336400003871;0.7899952000007033;1.048684300010791;0;0;1;0;0.01
2;2;13;40;letter169;letter190;incongruent;0.04;letter190;0.09;0.07;fullmask;0.2;arrow_left.png;m;0.21422809999785386;0.2203287000011187;257461.2031317;2.700020559132099e-06;0.49687810000614263;0.5368950999982189;0.588327700010268;0.6590009000210557;0.7886538000020664;1.0072112000198103;0;0;1;0;0.01
2;2;13;41;letter169;letter190;congruent;0.04;letter190;0.09;0.07;fullmask;0.2;arrow_right.png;m;0.25289870001142845;0.2603155999968294;257462.8431357;2.5999906938523054e-06;0.5029843999946024;0.5430357999866828;0.5947460999886971;0.6645161999913398;0.7951663999992888;1.0533358000102453;0;0;1;0;0.01
2;2;13;42;letter169;letter190;congruent;0.04;letter190;0.09;0.07;fullmask;0.2;arrow_right.png;m;0.2341465000063181;0.24036769999656826;257464.4751804;2.800021320581436e-06;0.5002551999932621;0.5402876000152901;0.5917363000044134;0.6615052999986801;0.7921166000014637;1.0305895000055898;0;0;1;0;0.01
2;2;13;43;letter169;letter190;congruent;0.04;letter169;0.09;0.07;fullmask;0.2;arrow_left.png;c;0.2774251999799162;0.2812654000008479;257466.1392786;2.600019797682762e-06;0.4950620000017807;0.5350692000065465;0.5863267999957316;0.6569979000196327;0.7866519000090193;1.0654175000090618;0;0;1;0;0.01
2;2;13;44;letter169;letter190;incongruent;0.04;letter190;0.09;0.07;fullmask;0.2;arrow_left.png;c;0.30932919998303987;0.31018430000403896;257467.843091;2.6999914553016424e-06;0.4988622000091709;0.5389260000083596;0.5910050999955274;0.6607893999898806;0.7904236000031233;1.099255799985258;0;0;1;0;0.01
2;2;13;45;letter169;letter190;incongruent;0.04;letter169;0.09;0.07;fullmask;0.2;arrow_right.png;m;0.302402399975108;0.3100968999788165;257469.5471334;2.600019797682762e-06;0.5020965000148863;0.542144000006374;0.5940740999940317;0.6638366999977734;0.7934083000000101;1.102480600005947;0;0;1;0;0.01
2;2;13;46;letter169;letter190;incongruent;0.04;letter169;0.09;0.07;fullmask;0.2;arrow_right.png;m;0.3536558000196237;0.3599619000160601;257471.2991697;2.4999899324029684e-06;0.5037484999920707;0.5437792000011541;0.5954268999921624;0.6651079999865033;0.7957615999912377;0.9254141999990679;0;0;0;1;0.01
2;2;13;47;letter169;letter190;incongruent;0.04;letter169;0.09;0.07;fullmask;0.2;arrow_right.png;m;0.29856850000214763;0.3003617999784183;257472.795237;2.6999914553016424e-06;0.5002830000012182;0.5402960999927018;0.5921053999918513;0.6620107000053395;0.7915762000193354;1.0906758999917656;0;0;1;0;0.01
2;2;13;48;letter169;letter190;congruent;0.04;letter190;0.09;0.07;fullmask;0.2;arrow_right.png;m;0.23578689998248592;0.24051800000597723;257474.4432048;2.6999914553016424e-06;0.501201899984153;0.5412176999961957;0.5926880000042729;0.6627644999825861;0.7931526000029407;1.031546399986837;0;0;1;0;0.01
