subjnr;loop_m;blocknr;trialnr;cue_left_learn;cue_right_learn; congruence;cue_dur;cue;SOA;mask_dur;mask;target_dur;target;response;RT;kb_rt;response_absolute; fix_onset;cue_onset;cue_offset;mask_onset;mask_offset;target_offset;blank_onset;response_during_mask;response_during_targetalone;response_during_RW;response_during_blank;frame_dur
8;1;4;1;letter181;letter357;incongruent;0.04;letter181;0.05;0.07;fullmask;0.2;arrow_right.png;m;0.3225413999753073;0.3303227999713272;272115.3881001;2.6999623514711857e-06;0.49804429995128885;0.5380725999712013;0.5500349999638274;0.6198911999817938;0.7495513999601826;1.0784002000000328;0;0;1;0;0.01
8;1;4;2;letter181;letter357;congruent;0.04;letter357;0.05;0.07;fullmask;0.2;arrow_right.png;m;0.27540939999744296;0.2801776999840513;272117.0118865;2.7999631129205227e-06;0.4990508999908343;0.5390746999764815;0.5508911999640986;0.6205696999677457;0.751222399994731;1.0294109999667853;0;0;1;0;0.01
8;1;4;3;letter181;letter357;incongruent;0.04;letter181;0.05;0.07;fullmask;0.2;arrow_right.png;m;0.4064938999945298;0.4099633999867365;272118.7638879;2.6999623514711857e-06;0.498566199967172;0.5385855999775231;0.5502600999898277;0.6200324999517761;0.7506831999635324;0.8803511000005528;0;0;0;1;0.01
8;1;4;4;letter181;letter357;congruent;0.04;letter181;0.05;0.07;fullmask;0.2;arrow_left.png;m;0.23956570000154898;0.24037279997719452;272120.147902;2.9999646358191967e-06;0.499516699986998;0.5395378000102937;0.551156900008209;0.6209297999739647;0.7515801999834366;0.989830799982883;0;0;1;0;0.01
8;1;4;5;letter181;letter357;incongruent;0.04;letter357;0.05;0.07;fullmask;0.2;arrow_left.png;c;0.32077650004066527;0.3301334999850951;272121.819888;2.7999631129205227e-06;0.5049804999725893;0.5450143999769352;0.5563478000112809;0.6262056999839842;0.7567641999921761;1.0853303999756463;0;0;1;0;0.01
8;1;4;6;letter181;letter357;incongruent;0.04;letter181;0.05;0.07;fullmask;0.2;arrow_right.png;m;0.2753754000295885;0.2803068000357598;272123.4359188;2.900022082030773e-06;0.5023367999820039;0.5423665000125766;0.5540849000099115;0.6238802999723703;0.7545286000240594;1.0326919999788515;0;0;1;0;0.01
8;1;4;7;letter181;letter357;incongruent;0.04;letter357;0.05;0.07;fullmask;0.2;arrow_left.png;c;0.3664965000352822;0.3699322000029497;272125.1478897;2.700020559132099e-06;0.5032657000119798;0.5432903000037186;0.5548043000162579;0.6244843999738805;0.7551291999989189;0.8847806999692693;0;0;0;1;0.01
8;1;4;8;letter181;letter357;congruent;0.04;letter181;0.05;0.07;fullmask;0.2;arrow_left.png;c;0.2974182000034489;0.3002597999875434;272126.5798834;2.6999623514711857e-06;0.4982482999912463;0.538297799997963;0.5498876999481581;0.6197929999907501;0.7503567999810912;1.048597399960272;0;0;1;0;0.01
8;1;4;9;letter181;letter357;congruent;0.04;letter181;0.05;0.07;fullmask;0.2;arrow_left.png;c;0.40621240000473335;0.40991139999823645;272128.3398768;2.7999631129205227e-06;0.5046566000091843;0.5446971000055782;0.5564180999645032;0.6261855000047944;0.7568359999568202;0.8864896000013687;0;0;0;1;0.01
8;1;4;10;letter181;letter357;congruent;0.04;letter357;0.05;0.07;fullmask;0.2;arrow_right.png;c;0.3509088999708183;0.3600985999801196;272129.8358816;2.7999631129205227e-06;0.5008200000156648;0.5408406999777071;0.5528877999749966;0.6227945999708027;0.7523571999627165;0.8830155999748968;0;0;0;1;0.01
8;1;4;11;letter181;letter357;congruent;0.04;letter357;0.05;0.07;fullmask;0.2;arrow_right.png;c;0.2487228999962099;0.25041029998101294;272131.2439562;2.700020559132099e-06;0.4983498000074178;0.538339700025972;0.549694899993483;0.6204455000115559;0.7500863000168465;0.998682799981907;0;0;1;0;0.01
8;1;4;12;letter181;letter357;incongruent;0.04;letter357;0.05;0.07;fullmask;0.2;arrow_left.png;c;0.0633936999947764;0.06998500000918284;272132.6598936;2.700020559132099e-06;0.4994470000383444;0.5394494000356644;0.5510011000442319;0.620992100040894;0.6209946000017226;0.6209968000184745;1;0;0;0;0.01
8;1;4;13;letter181;letter357;congruent;0.04;letter357;0.05;0.07;fullmask;0.2;arrow_right.png;m;0.19618440000340343;0.1994828999741003;272134.003879;2.5999615900218487e-06;0.5008766999817453;0.5408946999814361;0.5528549999580719;0.6226288999896497;0.7523389999987558;0.7523413999588229;0;1;0;0;0.01
8;1;4;14;letter181;letter357;incongruent;0.04;letter357;0.05;0.07;fullmask;0.2;arrow_left.png;c;0.2333218000130728;0.2402758999960497;272135.3718822;2.6999623514711857e-06;0.49703089997638017;0.5370405999710783;0.5490179999615066;0.6187828999827616;0.7483459999784827;0.987345399975311;0;0;1;0;0.01
8;1;4;15;letter181;letter357;incongruent;0.04;letter357;0.05;0.07;fullmask;0.2;arrow_left.png;m;0.04234889999497682;0.04988160001812503;272136.7718694;2.6999623514711857e-06;0.49906459997873753;0.5390763999894261;0.5509806000045501;0.6191217000014149;0.6191245999652892;0.6191267999820411;1;0;0;0;0.01
8;1;4;16;letter181;letter357;incongruent;0.04;letter181;0.05;0.07;fullmask;0.2;arrow_right.png;m;0.2080275999614969;0.21045089996187016;272138.1478691;2.6999623514711857e-06;0.49934549996396527;0.5393702000146732;0.5508077999693342;0.6205812999978662;0.7512149999965914;0.9596406999626197;0;0;1;0;0.01
8;1;4;17;letter181;letter357;incongruent;0.04;letter181;0.05;0.07;fullmask;0.2;arrow_right.png;c;0.0811900999979116;0.09082139999372885;272139.572055;2.600019797682762e-06;0.5004071000148542;0.5404368999879807;0.5518763000145555;0.6225698000052944;0.6427004000288434;0.6427082999725826;0;1;0;0;0.01
8;1;4;18;letter181;letter357;incongruent;0.04;letter357;0.05;0.07;fullmask;0.2;arrow_left.png;c;1.4738311999826692;1.4811503000091761;272142.1958679;2.6999623514711857e-06;0.4959110000054352;0.5359181999810971;0.5477458999957889;0.6175210999790579;0.7471722000045702;0.8778225999558344;0;0;0;1;0.01
8;1;4;19;letter181;letter357;congruent;0.04;letter357;0.05;0.07;fullmask;0.2;arrow_right.png;m;0.3146816000225954;0.320158300048206;272143.6678691;2.700020559132099e-06;0.49935900000855327;0.5393828999949619;0.5506530000129715;0.6214243000140414;0.7510802000178955;1.0697308999951929;0;0;1;0;0.01
8;1;4;20;letter181;letter357;congruent;0.04;letter357;0.05;0.07;fullmask;0.2;arrow_right.png;m;1.4233355000033043;1.4312008999986574;272146.4280982;2.6999623514711857e-06;0.49630919995252043;0.5363464999827556;0.5481152999564074;0.6177873999695294;0.7484379999805242;0.878093599982094;0;0;0;1;0.01
8;1;4;21;letter181;letter357;congruent;0.04;letter181;0.05;0.07;fullmask;0.2;arrow_left.png;c;0.2796585999894887;0.2804121000226587;272147.8760454;2.6999623514711857e-06;0.5047004999942146;0.5447081999736838;0.5564471999532543;0.626349099969957;0.7569103999994695;1.0350413999985904;0;0;1;0;0.01
8;1;4;22;letter181;letter357;incongruent;0.04;letter181;0.05;0.07;fullmask;0.2;arrow_right.png;m;0.26878010004293174;0.27029270003549755;272149.47587;2.6999623514711857e-06;0.4953331999713555;0.5353444999782369;0.5467362999916077;0.6165086000110023;0.7471607999759726;1.01565799996024;0;0;1;0;0.01
8;1;4;23;letter181;letter357;congruent;0.04;letter181;0.05;0.07;fullmask;0.2;arrow_left.png;c;0.21574379998492077;0.22042480000527576;272151.0438626;2.800021320581436e-06;0.5007827000226825;0.5407966000493616;0.552157600002829;0.6229295000084676;0.7525821000454016;0.9710718000424094;0;0;1;0;0.01
8;1;4;24;letter181;letter357;congruent;0.04;letter181;0.05;0.07;fullmask;0.2;arrow_left.png;m;0.2885050000040792;0.29028650000691414;272152.6678647;2.700020559132099e-06;0.49405790003947914;0.5340752000338398;0.5456682000076398;0.6157422999967821;0.74613710003905;1.0344433999853209;0;0;1;0;0.01
8;1;4;25;letter181;letter357;incongruent;0.04;letter357;0.05;0.07;fullmask;0.2;arrow_left.png;c;0.3191798999905586;0.32011239998973906;272154.3400182;2.800021320581436e-06;0.49628770002163947;0.5363021999946795;0.548322000016924;0.6180183999822475;0.7476649000309408;1.0666504999971949;0;0;1;0;0.01
8;1;4;26;letter181;letter357;incongruent;0.04;letter181;0.05;0.07;fullmask;0.2;arrow_right.png;m;0.4105796000221744;0.41080509999301285;272156.0919308;2.700020559132099e-06;0.49538729997584596;0.5354004999971949;0.5468603000044823;0.6166280999896117;0.7472841999842785;0.8769370000227354;0;0;0;1;0.01
8;1;4;27;letter181;letter357;incongruent;0.04;letter357;0.05;0.07;fullmask;0.2;arrow_left.png;c;0.37937589996727183;0.37990289996378124;272157.611942;2.600019797682762e-06;0.5035083999973722;0.5435292000183836;0.5552006000070833;0.6249623000039719;0.755527000001166;0.885181299992837;0;0;0;1;0.01
8;1;4;28;letter181;letter357;incongruent;0.04;letter357;0.05;0.07;fullmask;0.2;arrow_left.png;m;0.08074519998626783;0.09076930000446737;272158.8439419;2.800021320581436e-06;0.49952950002625585;0.5395612000138499;0.5508434000075795;0.6216151000116952;0.6416136000188999;0.6416160000371747;0;1;0;0;0.01
8;1;4;29;letter181;letter357;incongruent;0.04;letter181;0.05;0.07;fullmask;0.2;arrow_right.png;m;0.20957619999535382;0.21045389998471364;272160.20389;2.6999623514711857e-06;0.49988309998298064;0.5399002999765798;0.551523299945984;0.6212982999859378;0.7519509999547154;0.9601835999637842;0;0;1;0;0.01
8;1;4;30;letter181;letter357;congruent;0.04;letter357;0.05;0.07;fullmask;0.2;arrow_right.png;c;0.2640970000065863;0.27031849999912083;272161.819915;2.6999623514711857e-06;0.5008564000017941;0.5408552999724634;0.5529745999956504;0.6226742999861017;0.75230819999706;1.0211937999702059;0;0;1;0;0.01
8;1;4;31;letter181;letter357;incongruent;0.04;letter181;0.05;0.07;fullmask;0.2;arrow_right.png;c;7.30935470003169;7.31462580000516;272170.475947;2.6999623514711857e-06;0.5035237999982201;0.5435442999587394;0.5553920999518596;0.6252070000045933;0.7558400999987498;0.8855160999810323;0;0;0;1;0.01
8;1;4;32;letter181;letter357;incongruent;0.04;letter357;0.05;0.07;fullmask;0.2;arrow_left.png;c;0.36361340002622455;0.37002299999585375;272171.9958447;2.700020559132099e-06;0.504020499996841;0.5440288999816403;0.5560357000213116;0.6258083999855444;0.7554689000244252;0.8861143999965861;0;0;0;1;0.01
8;1;4;33;letter181;letter357;congruent;0.04;letter357;0.05;0.07;fullmask;0.2;arrow_right.png;c;0.1494125000317581;0.15051380003569648;272173.2918483;2.800021320581436e-06;0.49859130004188046;0.5385912000201643;0.5498237999854609;0.6204937000293285;0.7003368000150658;0.7003392000333406;0;1;0;0;0.01
8;1;4;34;letter181;letter357;incongruent;0.04;letter181;0.05;0.07;fullmask;0.2;arrow_right.png;m;0.346165299997665;0.350126100005582;272174.7798584;2.700020559132099e-06;0.4982349000056274;0.5382548000197858;0.5499026000034064;0.6198068000376225;0.750370700028725;0.8800249000196345;0;0;0;1;0.01
8;1;4;35;letter181;letter357;congruent;0.04;letter181;0.05;0.07;fullmask;0.2;arrow_left.png;c;0.2133837000001222;0.22042359999613836;272176.1478442;2.700020559132099e-06;0.5003342000418343;0.5403528000460938;0.5517910000053234;0.621565300039947;0.7522159999934956;0.9706356000388041;0;0;1;0;0.01
8;1;4;36;letter181;letter357;congruent;0.04;letter181;0.05;0.07;fullmask;0.2;arrow_left.png;c;0.25266349996672943;0.2602315999683924;272177.7478798;2.600019797682762e-06;0.5015506999916397;0.5415635000099428;0.5527438999852166;0.6235175000037998;0.7530771999736317;1.0118667000206187;0;0;1;0;0.01
8;1;4;37;letter181;letter357;congruent;0.04;letter181;0.05;0.07;fullmask;0.2;arrow_left.png;m;0.17747120000422;0.1806819000048563;272179.2839274;2.700020559132099e-06;0.5043845000327565;0.5444717000355013;0.5557668000110425;0.6255648000515066;0.73645690002013;0.7364650000235997;0;1;0;0;0.01
8;1;4;38;letter181;letter357;congruent;0.04;letter181;0.05;0.07;fullmask;0.2;arrow_left.png;c;0.16665570001350716;0.17056009999942034;272180.6038331;2.5999615900218487e-06;0.5009531999821775;0.5409655999974348;0.552208699984476;0.6229794999817386;0.7227697999915108;0.7227720999508165;0;1;0;0;0.01
8;1;4;39;letter181;letter357;incongruent;0.04;letter181;0.05;0.07;fullmask;0.2;arrow_right.png;m;0.1669481999706477;0.16961059998720884;272181.9158431;2.700020559132099e-06;0.49690189998364076;0.5369222000008449;0.5490376999950968;0.6189464000053704;0.7186475999769755;0.7186500999960117;0;1;0;0;0.01
8;1;4;40;letter181;letter357;congruent;0.04;letter357;0.05;0.07;fullmask;0.2;arrow_right.png;c;0.14251759997569025;0.14961379999294877;272183.2119212;2.700020559132099e-06;0.4980824000085704;0.5381031000288203;0.5498701000469737;0.6196415000013076;0.6994849999900907;0.6994874000083655;0;1;0;0;0.01
8;1;4;41;letter181;letter357;incongruent;0.04;letter357;0.05;0.07;fullmask;0.2;arrow_left.png;c;0.22594169998774305;0.2303910999908112;272184.5958305;2.800021320581436e-06;0.5000257000210695;0.540040299994871;0.5514454999938607;0.6212116000242531;0.7518624999793246;0.9803273000288755;0;0;1;0;0.01
8;1;4;42;letter181;letter357;congruent;0.04;letter181;0.05;0.07;fullmask;0.2;arrow_left.png;m;0.19415010005468503;0.19937640003627166;272186.1558331;2.600019797682762e-06;0.5041712999809533;0.5441793000209145;0.5563609999953769;0.6260573000181466;0.7557314999867231;0.7557340000057593;0;1;0;0;0.01
8;1;4;43;letter181;letter357;congruent;0.04;letter181;0.05;0.07;fullmask;0.2;arrow_left.png;m;0.15769530000397936;0.1605926000047475;272187.4598344;2.800021320581436e-06;0.5002273000427522;0.5402665000292473;0.5520015000365674;0.6216826000018045;0.7126030000508763;0.7126111999968998;0;1;0;0;0.01
8;1;4;44;letter181;letter357;incongruent;0.04;letter181;0.05;0.07;fullmask;0.2;arrow_right.png;m;0.270935200038366;0.28030159999616444;272188.883847;2.700020559132099e-06;0.499273199995514;0.5393205000436865;0.5509812000091188;0.62068019999424;0.7513144999975339;1.029637300001923;0;0;1;0;0.01
8;1;4;45;letter181;letter357;congruent;0.04;letter357;0.05;0.07;fullmask;0.2;arrow_right.png;m;0.43348960002185777;0.4397449000389315;272190.6678304;2.700020559132099e-06;0.49861910002073273;0.5386394999804907;0.5506982000079006;0.6203758000046946;0.7500287999864668;0.8806763999746181;0;0;0;1;0.01
8;1;4;46;letter181;letter357;congruent;0.04;letter357;0.05;0.07;fullmask;0.2;arrow_right.png;m;0.3807142000296153;0.3900196000467986;272192.1958634;2.900022082030773e-06;0.49977670004591346;0.5397957000532188;0.5516421000356786;0.6215497000375763;0.7511151000508107;0.8817647999967448;0;0;0;1;0.01
8;1;4;47;letter181;letter357;congruent;0.04;letter357;0.05;0.07;fullmask;0.2;arrow_right.png;m;0.2982472000294365;0.30021190003026277;272193.6438384;2.6999623514711857e-06;0.4977868999703787;0.5378044999670237;0.5491056999890134;0.6198729999596253;0.7495280999573879;1.048158699995838;0;0;1;0;0.01
8;1;4;48;letter181;letter357;incongruent;0.04;letter357;0.05;0.07;fullmask;0.2;arrow_left.png;c;0.21498290001181886;0.22041650000028312;272195.2118487;2.700020559132099e-06;0.4978036000393331;0.5378308000508696;0.5493196000461467;0.6190913000027649;0.7497372000361793;0.9681062000454403;0;0;1;0;0.01
8;1;5;1;letter181;letter357;congruent;0.04;letter357;0.05;0.07;fullmask;0.2;arrow_right.png;m;0.12492240004939958;0.1312478000181727;272201.7558277;2.600019797682762e-06;0.5003013000241481;0.5403512999764644;0.5515856000129133;0.6215407000272535;0.6828323000227101;0.6828347999835387;0;1;0;0;0.01
8;1;5;2;letter181;letter357;incongruent;0.04;letter357;0.05;0.07;fullmask;0.2;arrow_left.png;c;0.1892335000447929;0.18936380004743114;272203.0918641;2.600019797682762e-06;0.503369800047949;0.5433807999943383;0.5555218000081368;0.625240900029894;0.7448806000174955;0.744883400038816;0;1;0;0;0.01
8;1;5;3;letter181;letter357;congruent;0.04;letter181;0.05;0.07;fullmask;0.2;arrow_left.png;c;0.25144159997580573;0.2603458999656141;272204.4841128;2.6999623514711857e-06;0.49791469995398074;0.537733799952548;0.5490531999967061;0.6197434999630786;0.7493957999977283;1.008034999947995;0;0;1;0;0.01
8;1;5;4;letter181;letter357;incongruent;0.04;letter181;0.05;0.07;fullmask;0.2;arrow_right.png;c;0.19944050000049174;0.20950230001471937;272206.0438981;2.700020559132099e-06;0.4963620000053197;0.5363786999951117;0.5484458000282757;0.6183527000248432;0.7478318000212312;0.9566583000123501;0;0;1;0;0.01
8;1;5;5;letter181;letter357;incongruent;0.04;letter181;0.05;0.07;fullmask;0.2;arrow_right.png;c;0.023208500002510846;0.030185199982952327;272207.4278398;2.700020559132099e-06;0.5032753000268713;0.5433113999897614;0.5545181999914348;0.6233340000035241;0.6233370000263676;0.6233391999849118;1;0;0;0;0.01
8;1;5;6;letter181;letter357;incongruent;0.04;letter181;0.05;0.07;fullmask;0.2;arrow_right.png;c;0.1715451999916695;0.17957979999482632;272208.7878245;2.700020559132099e-06;0.4985945000080392;0.5386289000161923;0.5507143000140786;0.6206217000144534;0.730293000000529;0.7302955000195652;0;1;0;0;0.01
8;1;5;7;letter181;letter357;incongruent;0.04;letter357;0.05;0.07;fullmask;0.2;arrow_left.png;c;0.30488920002244413;0.3102410000283271;272210.2520787;2.6999623514711857e-06;0.5033419000101276;0.5433522000093944;0.5554793999763206;0.625253799953498;0.754906399990432;1.0636999999987893;0;0;1;0;0.01
8;1;5;8;letter181;letter357;congruent;0.04;letter181;0.05;0.07;fullmask;0.2;arrow_left.png;c;0.24853490001987666;0.25039270002162084;272211.8358167;2.6999623514711857e-06;0.49611629999708384;0.5361419999971986;0.5473035000031814;0.6182103999890387;0.7477707999642007;0.996451299986802;0;0;1;0;0.01
8;1;5;9;letter181;letter357;congruent;0.04;letter181;0.05;0.07;fullmask;0.2;arrow_left.png;c;0.19291990000056103;0.2004995999741368;272213.3718696;2.800021320581436e-06;0.5031417999998666;0.5431696000159718;0.5549665000289679;0.6246161000453867;0.7554737000027671;0.755481600004714;0;1;0;0;0.01
8;1;5;10;letter181;letter357;congruent;0.04;letter357;0.05;0.07;fullmask;0.2;arrow_right.png;m;0.26660430000629276;0.27040159999160096;272214.7959121;2.600019797682762e-06;0.503529800043907;0.5435685000265948;0.5548386000446044;0.6256066000205465;0.7552667999989353;1.0238667000085115;0;0;1;0;0.01
8;1;5;11;letter181;letter357;congruent;0.04;letter357;0.05;0.07;fullmask;0.2;arrow_right.png;m;0.25502400001278147;0.2603190000518225;272216.3958141;2.700020559132099e-06;0.5011270000250079;0.5411432000109926;0.552870100014843;0.6226428000372835;0.7532931999885477;1.0114589000004344;0;0;1;0;0.01
8;1;5;12;letter181;letter357;incongruent;0.04;letter357;0.05;0.07;fullmask;0.2;arrow_left.png;m;0.1237635999568738;0.12973149999743327;272217.8758916;2.700020559132099e-06;0.4992578999954276;0.53928620001534;0.5512924999929965;0.6213545000064187;0.6810235999873839;0.6810261000064202;0;1;0;0;0.01
8;1;5;13;letter181;letter357;incongruent;0.04;letter357;0.05;0.07;fullmask;0.2;arrow_left.png;m;0.23754770000232384;0.24040570005308837;272219.2598123;2.7999631129205227e-06;0.49876569997286424;0.5387786999926902;0.5501138999825343;0.6209184000035748;0.7505709999823011;0.9890754999942146;0;0;1;0;0.01
8;1;5;14;letter181;letter357;congruent;0.04;letter181;0.05;0.07;fullmask;0.2;arrow_left.png;m;0.2241908999858424;0.23030860000289977;272220.8278198;2.700020559132099e-06;0.5005982000147924;0.5408213000046089;0.5522878000047058;0.6220557999913581;0.7526196999824606;0.980906100012362;0;0;1;0;0.01
8;1;5;15;letter181;letter357;incongruent;0.04;letter181;0.05;0.07;fullmask;0.2;arrow_right.png;m;0.21359810000285506;0.22043240000493824;272222.3881577;2.500019036233425e-06;0.4959880000096746;0.536021800013259;0.5475773999933153;0.6172324999934062;0.7478993000113405;0.9662851000321098;0;0;1;0;0.01
8;1;5;16;letter181;letter357;incongruent;0.04;letter181;0.05;0.07;fullmask;0.2;arrow_right.png;m;0.2423743000254035;0.25039150001248345;272223.9877998;2.6999623514711857e-06;0.5031509999535047;0.5431590999942273;0.5546023999922909;0.6245069999713451;0.7550697999540716;1.0034871999523602;0;0;1;0;0.01
8;1;5;17;letter181;letter357;congruent;0.04;letter181;0.05;0.07;fullmask;0.2;arrow_left.png;c;0.3070284000132233;0.3100574999698438;272225.6438079;2.700020559132099e-06;0.49997459998121485;0.5399897000170313;0.5517501999856904;0.6213942000176758;0.7520443000248633;1.0603496999829076;0;0;1;0;0.01
8;1;5;18;letter181;letter357;congruent;0.04;letter181;0.05;0.07;fullmask;0.2;arrow_left.png;m;6.976345300034154;6.984339500020724;272233.9638078;2.7999631129205227e-06;0.4967115999897942;0.5367492999648675;0.5480981000000611;0.6188672999851406;0.7485202999669127;0.8781740999547765;0;0;0;1;0.01
8;1;5;19;letter181;letter357;congruent;0.04;letter357;0.05;0.07;fullmask;0.2;arrow_right.png;m;0.31469180004205555;0.3201579000451602;272235.4278025;2.700020559132099e-06;0.4977406000252813;0.537761399988085;0.5495067000156268;0.6192794000380673;0.7499309999984689;1.0681019999901764;0;0;1;0;0.01
8;1;5;20;letter181;letter357;congruent;0.04;letter357;0.05;0.07;fullmask;0.2;arrow_right.png;c;0.1834722000057809;0.18941749999066815;272236.9477903;2.700020559132099e-06;0.49966969998786226;0.5397103999857791;0.5515736999805085;0.6212518999818712;0.7409906000248156;0.7409930999856442;0;1;0;0;0.01
8;1;5;21;letter181;letter357;incongruent;0.04;letter181;0.05;0.07;fullmask;0.2;arrow_right.png;m;0.2685395000153221;0.2702383999712765;272238.363896;2.700020559132099e-06;0.4993990000220947;0.5394131999928504;0.5514796000206843;0.6211642000125721;0.750826200004667;1.0197461000061594;0;0;1;0;0.01
8;1;5;22;letter181;letter357;congruent;0.04;letter357;0.05;0.07;fullmask;0.2;arrow_right.png;c;0.1878104999777861;0.190411799994763;272239.88379;2.800021320581436e-06;0.4982179999933578;0.5382262999773957;0.549870099988766;0.6196324999909848;0.7402814999804832;0.7402841000002809;0;1;0;0;0.01
8;1;5;23;letter181;letter357;incongruent;0.04;letter357;0.05;0.07;fullmask;0.2;arrow_left.png;c;0.26449619996128604;0.2693460999871604;272241.2917817;2.600019797682762e-06;0.4970487999962643;0.5370824999990873;0.5491541000083089;0.6182211000123061;0.7486285000341013;1.01737990003312;0;0;1;0;0.01
8;1;5;24;letter181;letter357;incongruent;0.04;letter357;0.05;0.07;fullmask;0.2;arrow_left.png;c;0.2718688000459224;0.28017410001484677;272242.8998394;2.700020559132099e-06;0.500580899999477;0.5405953000299633;0.5523294000304304;0.6222712000017054;0.7526595999952406;1.0309000000124797;0;0;1;0;0.01
8;1;5;25;letter181;letter357;congruent;0.04;letter357;0.05;0.07;fullmask;0.2;arrow_right.png;m;0.2663633999763988;0.27031130000250414;272244.5157779;2.600019797682762e-06;0.49867490003816783;0.5387041000067256;0.5508486999897286;0.6205196999944746;0.7501754999975674;1.019018299994059;0;0;1;0;0.01
8;1;5;26;letter181;letter357;congruent;0.04;letter357;0.05;0.07;fullmask;0.2;arrow_right.png;c;0.18363500002305955;0.18966240005102009;272246.0440465;2.800021320581436e-06;0.5047559000086039;0.544783000019379;0.5568752000108361;0.6267863999819383;0.7465462000109255;0.7465543000143953;0;1;0;0;0.01
8;1;5;27;letter181;letter357;congruent;0.04;letter181;0.05;0.07;fullmask;0.2;arrow_left.png;c;0.29258649999974295;0.3002124999766238;272247.48378;2.800021320581436e-06;0.5015338999801315;0.5415527999866754;0.5535536999814212;0.6233225000323728;0.7529724999913014;1.0518868999788538;0;0;1;0;0.01
8;1;5;28;letter181;letter357;congruent;0.04;letter181;0.05;0.07;fullmask;0.2;arrow_left.png;c;0.2778076999820769;0.28017470001941547;272249.099793;2.6999623514711857e-06;0.4995916999760084;0.5396165999700315;0.5513400000054389;0.6211056999745779;0.7516704999725334;1.0299136999528855;0;0;1;0;0.01
8;1;5;29;letter181;letter357;incongruent;0.04;letter181;0.05;0.07;fullmask;0.2;arrow_right.png;m;0.31272200000239536;0.3202070000115782;272250.7557804;2.6999623514711857e-06;0.5040363000007346;0.5440546000027098;0.5558292999630794;0.6256458999705501;0.7562964999815449;1.0744326999993064;0;0;1;0;0.01
8;1;5;30;letter181;letter357;congruent;0.04;letter181;0.05;0.07;fullmask;0.2;arrow_left.png;c;0.3275194999878295;0.3301709999796003;272252.4518556;2.7999631129205227e-06;0.4964810999808833;0.5364974999683909;0.5484435000107624;0.6181200999999419;0.7477728999801911;1.0768503999570385;0;0;1;0;0.01
8;1;5;31;letter181;letter357;incongruent;0.04;letter357;0.05;0.07;fullmask;0.2;arrow_left.png;m;0.3453082999913022;0.3512233999790624;272254.1399824;2.700020559132099e-06;0.5011261000181548;0.541148999996949;0.5523532999795862;0.623256599996239;0.7528218000079505;0.883469199994579;0;0;0;1;0.01
8;1;5;32;letter181;letter357;incongruent;0.04;letter181;0.05;0.07;fullmask;0.2;arrow_right.png;m;0.18368029996054247;0.18953379994491115;272255.4600798;2.700020559132099e-06;0.49915820005116984;0.5391733000287786;0.5511573000112548;0.6208520000218414;0.7406936000334099;0.7407015000353567;0;1;0;0;0.01
8;1;5;33;letter181;letter357;congruent;0.04;letter181;0.05;0.07;fullmask;0.2;arrow_left.png;c;0.35090159997344017;0.35996269999304786;272256.9477882;2.700020559132099e-06;0.49698280001757666;0.537001800024882;0.5486057000234723;0.6182857000385411;0.748939800017979;0.87859150004806;0;0;0;1;0.01
8;1;5;34;letter181;letter357;incongruent;0.04;letter357;0.05;0.07;fullmask;0.2;arrow_left.png;c;0.31384700001217425;0.32016140001360327;272258.4117788;2.6999623514711857e-06;0.5005716999876313;0.540576700004749;0.5522588000167161;0.6220359000144526;0.7526845000102185;1.0709351999685168;0;0;1;0;0.01
8;1;5;35;letter181;letter357;congruent;0.04;letter357;0.05;0.07;fullmask;0.2;arrow_right.png;m;0.34078570001292974;0.35007829999085516;272260.0997902;2.6999623514711857e-06;0.49883249995764345;0.5388558999984525;0.5505281999940053;0.620201499958057;0.7509485999471508;0.8806023999932222;0;0;0;1;0.01
8;1;5;36;letter181;letter357;congruent;0.04;letter357;0.05;0.07;fullmask;0.2;arrow_right.png;m;0.28974430001107976;0.29029840003931895;272261.5398416;2.6999623514711857e-06;0.4979149000137113;0.5379678999888711;0.549733699997887;0.6195054000127129;0.7492050000000745;1.0382783999666572;0;0;1;0;0.01
8;1;5;37;letter181;letter357;incongruent;0.04;letter357;0.05;0.07;fullmask;0.2;arrow_left.png;c;0.3152517999988049;0.3211738000391051;272263.1958593;3.00002284348011e-06;0.4988048000377603;0.5388287000241689;0.5500729000195861;0.6208439000183716;0.7504070000140928;1.0691587000037543;0;0;1;0;0.01
8;1;5;38;letter181;letter357;incongruent;0.04;letter181;0.05;0.07;fullmask;0.2;arrow_right.png;m;0.31946139998035505;0.32006769999861717;272264.8518278;2.700020559132099e-06;0.4967175999772735;0.5367203999776393;0.5486690999823622;0.6183473999844864;0.747998800012283;1.0670767999836244;0;0;1;0;0.01
8;1;5;39;letter181;letter357;incongruent;0.04;letter181;0.05;0.07;fullmask;0.2;arrow_right.png;c;0.1865379000082612;0.1905049000051804;272266.3797476;2.6999623514711857e-06;0.5016756000113674;0.5416947999619879;0.5534033000003546;0.6231763999676332;0.7439095999579877;0.7439120999770239;0;1;0;0;0.01
8;1;5;40;letter181;letter357;congruent;0.04;letter181;0.05;0.07;fullmask;0.2;arrow_left.png;c;0.19173469999805093;0.20038400002522394;272267.7157739;2.800021320581436e-06;0.5028812999953516;0.5429085000068881;0.5545609000255354;0.6242367000086233;0.7549441999872215;0.7549467000062577;0;1;0;0;0.01
8;1;5;41;letter181;letter357;congruent;0.04;letter181;0.05;0.07;fullmask;0.2;arrow_left.png;c;0.31514220003737137;0.3200692000100389;272269.1797825;2.500019036233425e-06;0.5021538000437431;0.5421720000449568;0.5535852000466548;0.6242575000505894;0.7539124000468291;1.0725398000213318;0;0;1;0;0.01
8;1;5;42;letter181;letter357;incongruent;0.04;letter181;0.05;0.07;fullmask;0.2;arrow_right.png;m;0.34183359995950013;0.350112599960994;272270.8680101;2.6999623514711857e-06;0.5006340999971144;0.5406574999797158;0.552519399963785;0.6223050999687985;0.7529515000060201;0.8825834000017494;0;0;0;1;0.01
8;1;5;43;letter181;letter357;congruent;0.04;letter357;0.05;0.07;fullmask;0.2;arrow_right.png;m;0.3789165000198409;0.3800496000330895;272272.3957763;2.600019797682762e-06;0.5007543000392616;0.5407723000389524;0.5523596000275575;0.6222703999956138;0.7528280999977142;0.8825097000226378;0;0;0;1;0.01
8;1;5;44;letter181;letter357;incongruent;0.04;letter357;0.05;0.07;fullmask;0.2;arrow_left.png;c;0.25740289996610954;0.2593229999765754;272273.7957732;2.6999623514711857e-06;0.5028559999773279;0.5428823999827728;0.5549966999678873;0.6247707000002265;0.7544234999804758;1.013204599963501;0;0;1;0;0.01
8;1;5;45;letter181;letter357;incongruent;0.04;letter181;0.05;0.07;fullmask;0.2;arrow_right.png;c;0.3285590999876149;0.3301797999884002;272275.4677703;2.7999631129205227e-06;0.5049247000133619;0.5449503000127152;0.5568540999665856;0.6267598000122234;0.7563227000064217;1.085298599966336;0;0;1;0;0.01
8;1;5;46;letter181;letter357;incongruent;0.04;letter357;0.05;0.07;fullmask;0.2;arrow_left.png;c;0.1872970000258647;0.1894177999929525;272276.9877642;2.800021320581436e-06;0.49921290000202134;0.5392355000367388;0.5513294999836944;0.621098100033123;0.7407464000280015;0.7407489999895915;0;1;0;0;0.01
8;1;5;47;letter181;letter357;incongruent;0.04;letter357;0.05;0.07;fullmask;0.2;arrow_left.png;c;0.3371210999903269;0.34015400003409013;272278.4678449;2.600019797682762e-06;0.5007157000363804;0.5407685000100173;0.5522234000382014;0.6222959000151604;0.752692100009881;0.8823456999962218;0;0;0;1;0.01
8;1;5;48;letter181;letter357;congruent;0.04;letter357;0.05;0.07;fullmask;0.2;arrow_right.png;c;0.2905244000139646;0.29126550001092255;272279.9320438;2.700020559132099e-06;0.5049223999958485;0.5449547000462189;0.5562595000374131;0.6269203000119887;0.7566024000407197;1.0452823000377975;0;0;1;0;0.01
8;2;12;1;letter190;letter169;congruent;0.04;letter190;0.09;0.07;fullmask;0.2;arrow_left.png;c;0.43516359996283427;0.44086109998170286;273311.6350037;2.700020559132099e-06;0.49710310000227764;0.5371419999864884;0.5884041999815963;0.6591770999948494;0.7888107000035234;0.9194711999734864;0;0;0;1;0.01
8;2;12;2;letter190;letter169;congruent;0.04;letter190;0.09;0.07;fullmask;0.2;arrow_left.png;c;0.34733189997496083;0.3500814999570139;273313.1789157;2.700020559132099e-06;0.503023800032679;0.5430286999908276;0.5949806999997236;0.66475709999213;0.7944028000347316;0.9250539999920875;0;0;0;1;0.01
8;2;12;3;letter190;letter169;incongruent;0.04;letter169;0.09;0.07;fullmask;0.2;arrow_left.png;c;0.3182158000417985;0.31930260005174205;273314.6910182;2.4999608285725117e-06;0.5028075999580324;0.5428196999710053;0.5949923999723978;0.6649048999533989;0.7945594000048004;1.1132047999999486;0;0;1;0;0.01
8;2;12;4;letter190;letter169;incongruent;0.04;letter169;0.09;0.07;fullmask;0.2;arrow_left.png;c;0.19191069999942556;0.20052829995984212;273316.2749164;2.700020559132099e-06;0.5038086000131443;0.5438063000328839;0.5950821000151336;0.665900000021793;0.7956098000286147;0.7956123999902047;0;1;0;0;0.01
8;2;12;5;letter190;letter169;congruent;0.04;letter169;0.09;0.07;fullmask;0.2;arrow_right.png;m;0.42513180000241846;0.43098090001149103;273317.8991861;2.600019797682762e-06;0.5043372000218369;0.5443647000356577;0.5957791000255384;0.6655478000175208;0.7962178000016138;0.9258497999981046;0;0;0;1;0.01
8;2;12;6;letter190;letter169;incongruent;0.04;letter190;0.09;0.07;fullmask;0.2;arrow_right.png;m;0.2936938999919221;0.3001145999878645;273319.37892;2.6999623514711857e-06;0.4986250000074506;0.5386229999712668;0.590167099959217;0.6598397999769077;0.7904895999818109;1.0889894999563694;0;0;1;0;0.01
8;2;12;7;letter190;letter169;congruent;0.04;letter190;0.09;0.07;fullmask;0.2;arrow_left.png;c;0.39221340004587546;0.40009810001356527;273321.1791095;2.700020559132099e-06;0.5019606000278145;0.5419735999894328;0.5940970000228845;0.6640110000153072;0.7935552999842912;0.9242180000292137;0;0;0;1;0.01
8;2;12;8;letter190;letter169;incongruent;0.04;letter169;0.09;0.07;fullmask;0.2;arrow_left.png;c;0.199269299977459;0.1994439999689348;273322.5869521;2.700020559132099e-06;0.5016507999971509;0.5416795000201091;0.593529200006742;0.663435099995695;0.7929727000300772;0.7929753000498749;0;1;0;0;0.01
8;2;12;9;letter190;letter169;congruent;0.04;letter169;0.09;0.07;fullmask;0.2;arrow_right.png;c;0.22435050003696233;0.23040010000113398;273324.0029156;2.800021320581436e-06;0.5019046000088565;0.5419309000135399;0.5937608000240289;0.6635291000129655;0.7941520999884233;1.0222467000130564;0;0;1;0;0.01
8;2;12;10;letter190;letter169;congruent;0.04;letter169;0.09;0.07;fullmask;0.2;arrow_right.png;c;0.20172390004154295;0.21045100002083927;273325.6108986;2.600019797682762e-06;0.5049663999816403;0.5449880000087433;0.5963877000031061;0.6661626999848522;0.796804899990093;1.0052972999983467;0;0;1;0;0.01
8;2;12;11;letter190;letter169;incongruent;0.04;letter190;0.09;0.07;fullmask;0.2;arrow_right.png;m;0.46266910003032535;0.4707569000311196;273327.4829313;2.700020559132099e-06;0.4963782000122592;0.5364026000024751;0.5878482999978587;0.657625799998641;0.7882718999753706;0.9179259000229649;0;0;0;1;0.01
8;2;12;12;letter190;letter169;incongruent;0.04;letter190;0.09;0.07;fullmask;0.2;arrow_right.png;c;0.32164630002807826;0.33027979999314994;273329.0030529;2.700020559132099e-06;0.5015007000183687;0.5415311999968253;0.5930359999765642;0.6629421000252478;0.7935003000311553;1.1218968000030145;0;0;1;0;0.01
8;2;12;13;letter190;letter169;congruent;0.04;letter190;0.09;0.07;fullmask;0.2;arrow_left.png;c;0.12665789999300614;0.13081280002370477;273330.5389979;2.900022082030773e-06;0.5043857999844477;0.5443860000232235;0.5957322000176646;0.6656387000111863;0.7265526999835856;0.7265607999870554;0;1;0;0;0.01
8;2;12;14;letter190;letter169;congruent;0.04;letter190;0.09;0.07;fullmask;0.2;arrow_left.png;c;0.27730920002795756;0.28033020003931597;273332.0109107;2.6999623514711857e-06;0.4983896999619901;0.5384125999989919;0.5901346000027843;0.6601956999511458;0.7906275999848731;1.0687619999516755;0;0;1;0;0.01
8;2;12;15;letter190;letter169;incongruent;0.04;letter169;0.09;0.07;fullmask;0.2;arrow_left.png;c;0.19874619995243847;0.20048279996262863;273333.6028901;2.6999623514711857e-06;0.4994149999693036;0.5394381000078283;0.5906130999792367;0.661383599974215;0.7910969000076875;0.7910993999685161;0;1;0;0;0.01
8;2;12;16;letter190;letter169;incongruent;0.04;letter190;0.09;0.07;fullmask;0.2;arrow_right.png;m;0.3271150999935344;0.3301015999750234;273335.1228988;2.6999623514711857e-06;0.5008951000054367;0.5409052000031807;0.5928352999617346;0.662566099956166;0.792226399993524;1.1212836999911815;0;0;1;0;0.01
8;2;12;17;letter190;letter169;congruent;0.04;letter169;0.09;0.07;fullmask;0.2;arrow_right.png;m;0.34406550001585856;0.3499786999891512;273336.8509004;2.600019797682762e-06;0.498255800048355;0.538277100014966;0.5901428000070155;0.659813700011;0.7904631000128575;0.9201180000090972;0;0;0;1;0.01
8;2;12;18;letter190;letter169;incongruent;0.04;letter169;0.09;0.07;fullmask;0.2;arrow_left.png;c;0.38537660002475604;0.3910020000184886;273338.4429751;2.500019036233425e-06;0.4989439999917522;0.5389674000325613;0.5905943000107072;0.6602713000029325;0.790949099988211;0.9206012000213377;0;0;0;1;0.01
8;2;12;19;letter190;letter169;incongruent;0.04;letter190;0.09;0.07;fullmask;0.2;arrow_right.png;m;0.2605551000451669;0.2703406999935396;273339.8988841;2.5999615900218487e-06;0.4964270999771543;0.5364408000023104;0.587779599998612;0.6576848999829963;0.7882500999839976;1.0568046999978833;0;0;1;0;0.01
8;2;12;20;letter190;letter169;congruent;0.04;letter169;0.09;0.07;fullmask;0.2;arrow_right.png;m;0.3596382000250742;0.3610552999889478;273341.6590124;2.7999631129205227e-06;0.49981329997535795;0.5398241999791935;0.5911290000076406;0.6619053999893367;0.7915636000107042;0.9212053999654017;0;0;0;1;0.01
8;2;12;21;letter190;letter169;incongruent;0.04;letter169;0.09;0.07;fullmask;0.2;arrow_left.png;c;0.390181599999778;0.39999409997835755;273343.2509862;2.5999615900218487e-06;0.5014659999869764;0.5414793000090867;0.5932024999638088;0.6631103999679908;0.7936703999876045;0.9233233999693766;0;0;0;1;0.01
8;2;12;22;letter190;letter169;congruent;0.04;letter190;0.09;0.07;fullmask;0.2;arrow_left.png;c;0.4852536999969743;0.490045300044585;273344.9468918;2.500019036233425e-06;0.500510599988047;0.5405406000209041;0.5920401000184938;0.6621548000257462;0.7918047000421211;0.9224551999941468;0;0;0;1;0.01
8;2;12;23;letter190;letter169;incongruent;0.04;letter190;0.09;0.07;fullmask;0.2;arrow_right.png;m;0.37762059998931363;0.3799610999994911;273346.5308778;2.600019797682762e-06;0.5017478000372648;0.5417682999977842;0.593798500020057;0.663547300035134;0.7932032000389881;0.9238281000289135;0;0;0;1;0.01
8;2;12;24;letter190;letter169;congruent;0.04;letter169;0.09;0.07;fullmask;0.2;arrow_right.png;m;0.4165902999811806;0.419938099978026;273348.1308829;2.900022082030773e-06;0.49441720003960654;0.534425400022883;0.586493699986022;0.6564004000392742;0.7859658999950625;0.9166122000315227;0;0;0;1;0.01
8;2;12;25;letter190;letter169;congruent;0.04;letter190;0.09;0.07;fullmask;0.2;arrow_left.png;m;0.25628109998069704;0.2603209999506362;273349.5708867;2.700020559132099e-06;0.49583470000652596;0.5358471000217833;0.5871929000131786;0.6579631000058725;0.7876166000496596;1.0461904000258073;0;0;1;0;0.01
8;2;12;26;letter190;letter169;incongruent;0.04;letter190;0.09;0.07;fullmask;0.2;arrow_right.png;m;0.3433627000194974;0.3509984000120312;273351.2989165;2.6999623514711857e-06;0.4951477999566123;0.5351412000018172;0.586386599985417;0.6571583999902941;0.7868106999667361;0.9174550999887288;0;0;0;1;0.01
8;2;12;27;letter190;letter169;incongruent;0.04;letter169;0.09;0.07;fullmask;0.2;arrow_left.png;c;0.26012590003665537;0.2602799000451341;273352.7469517;2.600019797682762e-06;0.498402500001248;0.5384053000016138;0.5899151000194252;0.6598237000289373;0.7903612999944016;1.0487366000306793;0;0;1;0;0.01
8;2;12;28;letter190;letter169;congruent;0.04;letter169;0.09;0.07;fullmask;0.2;arrow_right.png;c;0.2812151000252925;0.29027649998897687;273354.4191252;2.5999615900218487e-06;0.5011365999816917;0.541149900003802;0.5926858999882825;0.6633846999611706;0.7929084000061266;1.0815110999974422;0;0;1;0;0.01
8;2;12;29;letter190;letter169;congruent;0.04;letter169;0.09;0.07;fullmask;0.2;arrow_right.png;m;0.36005660000955686;0.3610090000438504;273356.1789448;2.700020559132099e-06;0.49701950000599027;0.5370432999916375;0.5884536000085063;0.6591778000001796;0.7888303999789059;0.9184895000071265;0;0;0;1;0.01
8;2;12;30;letter190;letter169;congruent;0.04;letter190;0.09;0.07;fullmask;0.2;arrow_left.png;c;0.5068720999988727;0.5105564999976195;273357.866885;2.6999623514711857e-06;0.49909349996596575;0.5391321999486536;0.5906429999740794;0.6603245999431238;0.7909680999582633;0.9206238999613561;0;0;0;1;0.01
8;2;12;31;letter190;letter169;congruent;0.04;letter190;0.09;0.07;fullmask;0.2;arrow_left.png;m;0.18958619999466464;0.19051599997328594;273359.2509498;2.7999631129205227e-06;0.4985627999994904;0.5385798999923281;0.590358599962201;0.6601322999922559;0.7808757000020705;0.7808781999628991;0;1;0;0;0.01
8;2;12;32;letter190;letter169;congruent;0.04;letter169;0.09;0.07;fullmask;0.2;arrow_right.png;m;0.3469735999824479;0.35108989995205775;273360.778874;2.700020559132099e-06;0.4965558999683708;0.5365775999962352;0.5880092000006698;0.6586792999878526;0.7883350999909453;0.9179913999978453;0;0;0;1;0.01
8;2;12;33;letter190;letter169;congruent;0.04;letter169;0.09;0.07;fullmask;0.2;arrow_right.png;m;0.32566059997770935;0.3301659999997355;273362.2989593;2.800021320581436e-06;0.4984588000224903;0.5384771000244655;0.5903094000532292;0.6600978000205941;0.7907488000346348;1.1188759000506252;0;0;1;0;0.01
8;2;12;34;letter190;letter169;incongruent;0.04;letter169;0.09;0.07;fullmask;0.2;arrow_left.png;c;0.29513599997153506;0.3011123999604024;273363.9788851;2.800021320581436e-06;0.49852480000117794;0.5385401000385173;0.5897157000144944;0.6604766999953426;0.7900391000439413;1.0889220000244677;0;0;1;0;0.01
8;2;12;35;letter190;letter169;incongruent;0.04;letter190;0.09;0.07;fullmask;0.2;arrow_right.png;m;0.2971318999771029;0.3002116000279784;273365.6828867;2.5999615900218487e-06;0.501780399994459;0.5418522999971174;0.5939323999918997;0.6637052999576554;0.7933573999907821;1.0922204999951646;0;0;1;0;0.01
8;2;12;36;letter190;letter169;congruent;0.04;letter190;0.09;0.07;fullmask;0.2;arrow_left.png;c;0.34221579995937645;0.3500757999718189;273367.4188687;2.6999623514711857e-06;0.4965881999814883;0.5365994999883696;0.588479699974414;0.6582542000105605;0.7879025999573059;0.9185627999831922;0;0;0;1;0.01
8;2;12;37;letter190;letter169;congruent;0.04;letter190;0.09;0.07;fullmask;0.2;arrow_left.png;m;0.2415867000236176;0.2503523000050336;273368.8590715;3.00002284348011e-06;0.5040337999816984;0.5440552000072785;0.5957580999820493;0.6655143999960274;0.7960786999901757;1.0443796000326984;0;0;1;0;0.01
8;2;12;38;letter190;letter169;incongruent;0.04;letter190;0.09;0.07;fullmask;0.2;arrow_right.png;m;0.1739475000067614;0.17944870004430413;273370.4428881;2.700020559132099e-06;0.5042986000189558;0.5443102000281215;0.5964180000009947;0.6661006999784149;0.7758613000041805;0.7758640000247397;0;1;0;0;0.01
8;2;12;39;letter190;letter169;incongruent;0.04;letter169;0.09;0.07;fullmask;0.2;arrow_left.png;c;0.27499509998597205;0.2793338999617845;273371.9148725;2.6999623514711857e-06;0.5015644999803044;0.5415948999579996;0.5937292999587953;0.6636264999979176;0.7931969999917783;1.0719373999745585;0;0;1;0;0.01
8;2;12;40;letter190;letter169;congruent;0.04;letter190;0.09;0.07;fullmask;0.2;arrow_left.png;c;0.14023070002440363;0.14961700001731515;273373.4509701;2.6999623514711857e-06;0.4978670999989845;0.537871400010772;0.5897964999894612;0.6595756000024267;0.7394144999561831;0.7394168999744579;0;1;0;0;0.01
8;2;12;41;letter190;letter169;congruent;0.04;letter169;0.09;0.07;fullmask;0.2;arrow_right.png;m;0.3137263000244275;0.32020410004770383;273374.9548597;2.700020559132099e-06;0.4981184999924153;0.5381374999997206;0.5895937000168487;0.6596667999983765;0.7900622999877669;1.1085161000373773;0;0;1;0;0.01
8;2;12;42;letter190;letter169;congruent;0.04;letter169;0.09;0.07;fullmask;0.2;arrow_right.png;c;0.16448789997957647;0.1705671999952756;273376.5070162;2.700020559132099e-06;0.499210000038147;0.5392294999910519;0.5909906000015326;0.6606668999884278;0.7615657999995165;0.7615738000022247;0;1;0;0;0.01
8;2;12;43;letter190;letter169;incongruent;0.04;letter190;0.09;0.07;fullmask;0.2;arrow_right.png;m;0.36723269999492913;0.36995379999279976;273378.0509772;2.700020559132099e-06;0.49583830003393814;0.5358642000355758;0.5879600000334904;0.6576326999929734;0.7872847000253387;0.9179364999872632;0;0;0;1;0.01
8;2;12;44;letter190;letter169;incongruent;0.04;letter169;0.09;0.07;fullmask;0.2;arrow_left.png;c;0.31239500001538545;0.3201583999907598;273379.5468941;2.6999623514711857e-06;0.5007745999610052;0.5408166999695823;0.5926520999637432;0.6624252999899909;0.7930825999937952;1.1111874000052921;0;0;1;0;0.01
8;2;12;45;letter190;letter169;incongruent;0.04;letter169;0.09;0.07;fullmask;0.2;arrow_left.png;m;0.27161550003802404;0.28026840003440157;273381.226878;2.600019797682762e-06;0.4949145999853499;0.5349201000062749;0.5864127000095323;0.6561883999966085;0.7868324000155553;1.0652616000152193;0;0;1;0;0.01
8;2;12;46;letter190;letter169;incongruent;0.04;letter190;0.09;0.07;fullmask;0.2;arrow_right.png;m;0.31404399999883026;0.3202101999777369;273382.9308493;2.4999608285725117e-06;0.49793399998452514;0.5379567999625579;0.5899233999662101;0.6597399999736808;0.7893955999752507;1.108346699969843;0;0;1;0;0.01
8;2;12;47;letter190;letter169;incongruent;0.04;letter190;0.09;0.07;fullmask;0.2;arrow_right.png;m;0.33285559999058023;0.34001569997053593;273384.650861;2.700020559132099e-06;0.49557430000277236;0.5355980999884196;0.5876423000008799;0.6573221000144258;0.7869775000144728;0.9176569000119343;0;0;0;1;0.01
8;2;12;48;letter190;letter169;incongruent;0.04;letter169;0.09;0.07;fullmask;0.2;arrow_left.png;c;0.28216770000290126;0.2902885000221431;273386.1308099;2.800021320581436e-06;0.5046955000143498;0.5447152000269853;0.5964309999835677;0.6663370000314899;0.7969024999765679;1.085088599997107;0;0;1;0;0.01
8;2;13;1;letter190;letter169;congruent;0.04;letter190;0.09;0.07;fullmask;0.2;arrow_left.png;c;0.40682530001504347;0.4100126000121236;273391.5388521;2.800021320581436e-06;0.49643530003959313;0.5364512000232935;0.5881174000096507;0.6580611999961548;0.7886266999994405;0.9182815999956802;0;0;0;1;0.01
8;2;13;2;letter190;letter169;incongruent;0.04;letter190;0.09;0.07;fullmask;0.2;arrow_right.png;m;0.30820650001987815;0.3101854000124149;273393.0508499;2.600019797682762e-06;0.5019200000097044;0.5419118000427261;0.5931574000278488;0.6639282000251114;0.7935810000053607;1.1022955000516959;0;0;1;0;0.01
8;2;13;3;letter190;letter169;congruent;0.04;letter190;0.09;0.07;fullmask;0.2;arrow_left.png;c;0.3506904999958351;0.36005189997376874;273394.7948366;2.600019797682762e-06;0.4997138000326231;0.5397278000018559;0.5913741000113077;0.6611474000383168;0.7918138999957591;0.9214513000333682;0;0;0;1;0.01
8;2;13;4;letter190;letter169;congruent;0.04;letter169;0.09;0.07;fullmask;0.2;arrow_right.png;m;0.36138259997824207;0.37005309999221936;273396.3471195;2.900022082030773e-06;0.4989229000057094;0.5389313000487164;0.5911648000474088;0.6608592999982648;0.7905100000207312;0.921160800033249;0;0;0;1;0.01
8;2;13;5;letter190;letter169;incongruent;0.04;letter169;0.09;0.07;fullmask;0.2;arrow_left.png;c;0.28929570002947;0.2903169000055641;273397.8349614;2.5999615900218487e-06;0.49917419999837875;0.539163599954918;0.5903325999970548;0.6611817000084557;0.790834299987182;1.079546399996616;0;0;1;0;0.01
8;2;13;6;letter190;letter169;incongruent;0.04;letter169;0.09;0.07;fullmask;0.2;arrow_left.png;c;0.27388900000369176;0.28026820003287867;273399.4908407;2.700020559132099e-06;0.5013771000085399;0.5414008999941871;0.5927488000015728;0.6635184999904595;0.7931740999920294;1.0717379999696277;0;0;1;0;0.01
8;2;13;7;letter190;letter169;incongruent;0.04;letter190;0.09;0.07;fullmask;0.2;arrow_right.png;m;0.2744937000097707;0.28031790000386536;273401.1628426;2.700020559132099e-06;0.49943740002345294;0.5394607000052929;0.5911308000213467;0.6610482000396587;0.7916001999983564;1.0698187000234611;0;0;1;0;0.01
8;2;13;8;letter190;letter169;incongruent;0.04;letter190;0.09;0.07;fullmask;0.2;arrow_right.png;m;0.27176109998254105;0.28027809999184683;273402.8111307;2.600019797682762e-06;0.4967958999914117;0.5368190000299364;0.5884366999962367;0.6581198000349104;0.7887642999994569;1.0671677000354975;0;0;1;0;0.01
8;2;13;9;letter190;letter169;incongruent;0.04;letter169;0.09;0.07;fullmask;0.2;arrow_left.png;c;0.22669859998859465;0.23032099998090416;273404.4268435;2.700020559132099e-06;0.5008256000000983;0.5408362000016496;0.5921568000339903;0.6628574000205845;0.7924949000007473;1.0211648999829777;0;0;1;0;0.01
8;2;13;10;letter190;letter169;congruent;0.04;letter169;0.09;0.07;fullmask;0.2;arrow_right.png;m;0.3734237999888137;0.3800479000201449;273406.1948301;2.5999615900218487e-06;0.5019998999778181;0.5420225999550894;0.5935541999642737;0.6633718999801204;0.7940224999911152;0.9236776999896392;0;0;0;1;0.01
8;2;13;11;letter190;letter169;congruent;0.04;letter169;0.09;0.07;fullmask;0.2;arrow_right.png;c;0.2438442999846302;0.24934889998985454;273407.6268438;2.5999615900218487e-06;0.49811260000569746;0.5381283999886364;0.5902369999676012;0.660010899999179;0.7896635999786668;1.038456899987068;0;0;1;0;0.01
8;2;13;12;letter190;letter169;congruent;0.04;letter190;0.09;0.07;fullmask;0.2;arrow_left.png;c;0.2698067000019364;0.2713122999994084;273409.2829125;2.6999623514711857e-06;0.4972487000050023;0.5372557999799028;0.5884131999919191;0.6591821999754757;0.7887398999882862;1.0576146999956109;0;0;1;0;0.01
8;2;13;13;letter190;letter169;congruent;0.04;letter190;0.09;0.07;fullmask;0.2;arrow_left.png;c;0.34036070003639907;0.3500861000502482;273410.9950479;2.6999623514711857e-06;0.4959628999931738;0.535993299970869;0.5876487999921665;0.6573232999653555;0.7879734999733046;0.9176277999649756;0;0;0;1;0.01
8;2;13;14;letter190;letter169;congruent;0.04;letter169;0.09;0.07;fullmask;0.2;arrow_right.png;m;0.3508365000016056;0.36005220003426075;273412.5468337;2.5999615900218487e-06;0.49970159999793395;0.5397329999832436;0.5917060999781825;0.6614816999644972;0.7921300999587402;0.9217836000025272;0;0;0;1;0.01
8;2;13;15;letter190;letter169;congruent;0.04;letter169;0.09;0.07;fullmask;0.2;arrow_right.png;m;0.40173540002433583;0.40983000001870096;273414.1388366;2.800021320581436e-06;0.4969985000207089;0.5370043000439182;0.5891080000437796;0.658785900042858;0.7884408000390977;0.9190992000512779;0;0;0;1;0.01
8;2;13;16;letter190;letter169;incongruent;0.04;letter169;0.09;0.07;fullmask;0.2;arrow_left.png;c;0.447339300008025;0.4508172000059858;273415.7948322;2.600019797682762e-06;0.5026657999842428;0.5426800000132062;0.5941248000017367;0.6638969000196084;0.7945474999723956;0.9242302000056952;0;0;0;1;0.01
8;2;13;17;letter190;letter169;incongruent;0.04;letter190;0.09;0.07;fullmask;0.2;arrow_right.png;m;0.1963866000296548;0.20053290005307645;273417.1948316;2.700020559132099e-06;0.5036278999759816;0.5436299999710172;0.5949664000072517;0.6648884000023827;0.7954984999960288;0.7955010000150651;0;1;0;0;0.01
8;2;13;18;letter190;letter169;congruent;0.04;letter190;0.09;0.07;fullmask;0.2;arrow_left.png;m;0.27748769999016076;0.2802897000219673;273418.6669132;2.600019797682762e-06;0.49864220002200454;0.5386612000293098;0.5900703000370413;0.6607480000238866;0.79040990001522;1.06901520001702;0;0;1;0;0.01
8;2;13;19;letter190;letter169;incongruent;0.04;letter169;0.09;0.07;fullmask;0.2;arrow_left.png;m;0.27755910000996664;0.2792608999880031;273420.3388287;2.700020559132099e-06;0.5008085000445135;0.5408072000136599;0.5929838000447489;0.6627490000100806;0.7924035000032745;1.0711719000246376;0;0;1;0;0.01
8;2;13;20;letter190;letter169;congruent;0.04;letter190;0.09;0.07;fullmask;0.2;arrow_left.png;m;0.2549970000400208;0.26045990001875907;273421.9868398;2.6999623514711857e-06;0.4988082000054419;0.5388393999892287;0.5904778999974951;0.6603922999929637;0.7910411999910139;1.0491628000163473;0;0;1;0;0.01
8;2;13;21;letter190;letter169;congruent;0.04;letter169;0.09;0.07;fullmask;0.2;arrow_right.png;m;0.21204120002221316;0.2204193000216037;273423.5948201;2.700020559132099e-06;0.5047811000258662;0.5447853000368923;0.5963216000236571;0.6660877999966033;0.796738600009121;1.015137100010179;0;0;1;0;0.01
8;2;13;22;letter190;letter169;incongruent;0.04;letter190;0.09;0.07;fullmask;0.2;arrow_right.png;c;0.10238019999815151;0.10977109998930246;273425.1068352;2.700020559132099e-06;0.5011397000052966;0.541160500026308;0.593315200007055;0.6631135999923572;0.7030800000065938;0.7030824000248685;0;1;0;0;0.01
8;2;13;23;letter190;letter169;incongruent;0.04;letter190;0.09;0.07;fullmask;0.2;arrow_right.png;c;0.13615860004210845;0.14056000002892688;273426.4508794;2.700020559132099e-06;0.5050318000139669;0.5450570000102744;0.5966185000143014;0.6673270000028424;0.7371727999998257;0.7371753000188619;0;1;0;0;0.01
8;2;13;24;letter190;letter169;incongruent;0.04;letter169;0.09;0.07;fullmask;0.2;arrow_left.png;c;0.25548110000090674;0.26031799998600036;273427.8908223;2.800021320581436e-06;0.501038399990648;0.5410667000105605;0.5923999000224285;0.663170000014361;0.7928232999984175;1.0514168000081554;0;0;1;0;0.01
8;2;13;25;letter190;letter169;congruent;0.04;letter190;0.09;0.07;fullmask;0.2;arrow_left.png;c;0.24992849997943267;0.25035300001036376;273429.5468968;2.600019797682762e-06;0.5015152000123635;0.5415223999880254;0.5933956999797374;0.6632947999751195;0.792854700004682;1.0418522999971174;0;0;1;0;0.01
8;2;13;26;letter190;letter169;congruent;0.04;letter190;0.09;0.07;fullmask;0.2;arrow_left.png;c;0.39481660001911223;0.3998573000426404;273431.3228581;2.700020559132099e-06;0.49659420002717525;0.5366252000094391;0.5885084000183269;0.6581880999729037;0.7888406999991275;0.9184912000200711;0;0;0;1;0.01
8;2;13;27;letter190;letter169;congruent;0.04;letter190;0.09;0.07;fullmask;0.2;arrow_left.png;c;0.13987610000185668;0.149611700035166;273432.6588163;2.600019797682762e-06;0.4971512000192888;0.5371564000379294;0.5889207000145689;0.6586893000057898;0.7385336000006646;0.7385360000189394;0;1;0;0;0.01
8;2;13;28;letter190;letter169;incongruent;0.04;letter169;0.09;0.07;fullmask;0.2;arrow_left.png;c;0.23073989996919408;0.2394886999973096;273434.0909654;2.800021320581436e-06;0.4987559000146575;0.5387786000501364;0.5909524000016972;0.6607384000089951;0.7903913000482135;1.0291075000423007;0;0;1;0;0.01
8;2;13;29;letter190;letter169;incongruent;0.04;letter169;0.09;0.07;fullmask;0.2;arrow_left.png;c;0.24826650001341477;0.25034040003083646;273435.7388784;2.700020559132099e-06;0.5000700000091456;0.5401051000226289;0.5916001000441611;0.6613676000270061;0.7920177000341937;1.0404364000423811;0;0;1;0;0.01
8;2;13;30;letter190;letter169;congruent;0.04;letter169;0.09;0.07;fullmask;0.2;arrow_right.png;c;0.22520149999763817;0.2304461000021547;273437.3468155;2.9999646358191967e-06;0.4984866000013426;0.5384965999983251;0.5899549999739975;0.6598624999751337;0.7904227999970317;1.0188365000067279;0;0;1;0;0.01
8;2;13;31;letter190;letter169;incongruent;0.04;letter190;0.09;0.07;fullmask;0.2;arrow_right.png;c;0.022361100011039525;0.030928200052585453;273438.7548139;2.6999623514711857e-06;0.49863469996489584;0.5386533999699168;0.5898871999816038;0.6587028999929316;0.6587061999598518;0.6587084999773651;1;0;0;0;0.01
8;2;13;32;letter190;letter169;congruent;0.04;letter190;0.09;0.07;fullmask;0.2;arrow_left.png;c;0.3792503000004217;0.37990849994821474;273440.3628263;2.6999623514711857e-06;0.5026400999631733;0.542681899969466;0.5942213999805972;0.6638982999720611;0.7945520999492146;0.9242012999602593;0;0;0;1;0.01
8;2;13;33;letter190;letter169;incongruent;0.04;letter169;0.09;0.07;fullmask;0.2;arrow_left.png;c;0.23192450002534315;0.24039799999445677;273441.7869926;2.6999623514711857e-06;0.5039198999875225;0.543943099968601;0.595960600010585;0.6656381000066176;0.7952916999929585;1.0342597999842837;0;0;1;0;0.01
8;2;13;34;letter190;letter169;incongruent;0.04;letter169;0.09;0.07;fullmask;0.2;arrow_left.png;c;0.24277329997858033;0.2504925999674015;273443.4188095;2.800021320581436e-06;0.49527760001365095;0.5352985999779776;0.5872522999998182;0.657317699980922;0.7867219999898225;1.0356352999806404;0;0;1;0;0.01
8;2;13;35;letter190;letter169;congruent;0.04;letter169;0.09;0.07;fullmask;0.2;arrow_right.png;c;0.22573939996073022;0.23051029996713623;273445.0429289;2.800021320581436e-06;0.5043112999992445;0.5443279999890365;0.5963731000083499;0.6661514000152238;0.7958048000000417;1.0246470000129193;0;0;1;0;0.01
8;2;13;36;letter190;letter169;incongruent;0.04;letter190;0.09;0.07;fullmask;0.2;arrow_right.png;c;0.13295040000230074;0.1396373999887146;273446.5710854;2.6999623514711857e-06;0.49660239997319877;0.5366196999675594;0.5885533000109717;0.6583290999988094;0.7281917000073008;0.728194099967368;0;1;0;0;0.01
8;2;13;37;letter190;letter169;congruent;0.04;letter190;0.09;0.07;fullmask;0.2;arrow_left.png;c;4.428470200044103;4.433168700023089;273452.1868756;2.700020559132099e-06;0.49968609999632463;0.5397040999960154;0.5910628000274301;0.6617348000290804;0.7913903000298887;0.9220418999902904;0;0;0;1;0.01
8;2;13;38;letter190;letter169;incongruent;0.04;letter169;0.09;0.07;fullmask;0.2;arrow_left.png;c;0.3722495000110939;0.38004760001786053;273453.7547913;2.5999615900218487e-06;0.5012275999761187;0.5412413000012748;0.5930996999959461;0.6630096999579109;0.7935501000029035;0.9232246999745257;0;0;0;1;0.01
8;2;13;39;letter190;letter169;congruent;0.04;letter169;0.09;0.07;fullmask;0.2;arrow_right.png;c;0.21922769997036085;0.22032189997844398;273455.1628775;2.5999615900218487e-06;0.49724649998825043;0.5372604999574833;0.5891837999806739;0.6588486999971792;0.7894985999446362;1.0075559999677353;0;0;1;0;0.01
8;2;13;40;letter190;letter169;congruent;0.04;letter169;0.09;0.07;fullmask;0.2;arrow_right.png;m;13.166460899985395;13.16897009999957;273469.7307717;2.9999646358191967e-06;0.5006182999932207;0.5406538000097498;0.5922059000004083;0.6620123999891803;0.7926647999556735;0.9223166999872774;0;0;0;1;0.01
8;2;13;41;letter190;letter169;incongruent;0.04;letter190;0.09;0.07;fullmask;0.2;arrow_right.png;m;3.9132418999797665;3.922429700032808;273474.8267534;2.600019797682762e-06;0.49842269998043776;0.5384394999709912;0.5898779999697581;0.6605493000242859;0.7902112000156194;0.9198561999946833;0;0;0;1;0.01
8;2;13;42;letter190;letter169;incongruent;0.04;letter190;0.09;0.07;fullmask;0.2;arrow_right.png;m;0.3214935000287369;0.33014179999008775;273476.3389969;2.600019797682762e-06;0.4958986000274308;0.5359115999890491;0.5880663000280038;0.6578333000070415;0.7873926000320353;1.1163008000003174;0;0;1;0;0.01
8;2;13;43;letter190;letter169;incongruent;0.04;letter169;0.09;0.07;fullmask;0.2;arrow_left.png;c;0.3789484000299126;0.38089780003065243;273478.1068005;2.700020559132099e-06;0.49929160001920536;0.5392998000024818;0.5906864000135101;0.6613551999907941;0.791010599990841;0.9206634999718517;0;0;0;1;0.01
8;2;13;44;letter190;letter169;incongruent;0.04;letter190;0.09;0.07;fullmask;0.2;arrow_right.png;c;0.1678342000232078;0.17060690000653267;273479.4667737;3.100023604929447e-06;0.4984112000092864;0.5384518000064418;0.5898880999884568;0.6597971000010148;0.7604945999919437;0.7604970000102185;0;1;0;0;0.01
8;2;13;45;letter190;letter169;congruent;0.04;letter169;0.09;0.07;fullmask;0.2;arrow_right.png;c;0.26038559997687116;0.26929799997014925;273480.9308488;2.700020559132099e-06;0.49619460001122206;0.5362276000087149;0.5883086000103503;0.6580816000350751;0.7877348000183702;1.056574400048703;0;0;1;0;0.01
8;2;13;46;letter190;letter169;congruent;0.04;letter190;0.09;0.07;fullmask;0.2;arrow_left.png;c;0.3037608999875374;0.310334799985867;273482.6349385;2.6999623514711857e-06;0.5029948999872431;0.543013799993787;0.5947399999713525;0.6648016999824904;0.7952025999547914;1.1033806999912485;0;0;1;0;0.01
8;2;13;47;letter190;letter169;incongruent;0.04;letter190;0.09;0.07;fullmask;0.2;arrow_right.png;m;0.4020569000276737;0.40983419999247417;273484.4347812;2.700020559132099e-06;0.49856769997859374;0.5386108999955468;0.5907850000075996;0.6604848999995738;0.790123799990397;0.9207876999862492;0;0;0;1;0.01
8;2;13;48;letter190;letter169;congruent;0.04;letter169;0.09;0.07;fullmask;0.2;arrow_right.png;m;0.4919291000114754;0.5006775999790989;273486.1147728;2.700020559132099e-06;0.4954845000174828;0.535525300016161;0.5867615000461228;0.6575413000537083;0.7871864000335336;0.917835800035391;0;0;0;1;0.01
