subjnr;loop_m;blocknr;trialnr;cue_left_learn;cue_right_learn; congruence;cue_dur;cue;SOA;mask_dur;mask;target_dur;target;response;RT;kb_rt;response_absolute; fix_onset;cue_onset;cue_offset;mask_onset;mask_offset;target_offset;blank_onset;response_during_mask;response_during_targetalone;response_during_RW;response_during_blank;frame_dur
10;1;4;1;letter357;letter181;congruent;0.04;letter181;0.05;0.07;fullmask;0.2;arrow_right.png;m;0.43730109999887645;0.44002540000656154;97176.0670915;2.7000060072168708e-06;0.4974503999983426;0.5374853999965126;0.5491531000006944;0.6190981999970973;0.7496568000060506;0.8793125000083819;0;0;0;1;0.01
10;1;4;2;letter357;letter181;congruent;0.04;letter181;0.05;0.07;fullmask;0.2;arrow_right.png;c;2.4700733999925433;2.47145620000083;97179.6909703;2.6000052457675338e-06;0.4981357999931788;0.5381716999982018;0.5499191999988398;0.619828700000653;0.7503888000064762;0.880041299998993;0;0;0;1;0.01
10;1;4;3;letter357;letter181;congruent;0.04;letter357;0.05;0.07;fullmask;0.2;arrow_left.png;m;2.6741209000028903;2.6819929000048432;97183.5071319;2.7000060072168708e-06;0.5043947000085609;0.5444290000014007;0.5559673000097973;0.6257806000066921;0.7564351000037277;0.8860858000116423;0;0;0;1;0.01
10;1;4;4;letter357;letter181;congruent;0.04;letter357;0.05;0.07;fullmask;0.2;arrow_left.png;c;0.3318823000008706;0.34104119999392424;97184.9871767;2.7000060072168708e-06;0.5032320000027539;0.5432462000026135;0.5546389000082854;0.6253298000083305;0.7549517000006745;0.8846385000069859;0;0;0;1;0.01
10;1;4;5;letter357;letter181;incongruent;0.04;letter357;0.05;0.07;fullmask;0.2;arrow_right.png;m;0.3525106000015512;0.36009040000499226;97186.4989903;2.6999914553016424e-06;0.5037615000037476;0.5437960999988718;0.5553892000025371;0.6252792000013869;0.7558432999940123;0.8855030999984592;0;0;0;1;0.01
10;1;4;6;letter357;letter181;incongruent;0.04;letter181;0.05;0.07;fullmask;0.2;arrow_left.png;c;0.17114029999356717;0.179539399992791;97187.8189592;2.6999914553016424e-06;0.49469890000182204;0.5347292999940692;0.546698699996341;0.6164779999962775;0.7262389999959851;0.7262416000012308;0;1;0;0;0.01
10;1;4;7;letter357;letter181;congruent;0.04;letter181;0.05;0.07;fullmask;0.2;arrow_right.png;m;2.786278500003391;2.7916297000047052;97191.7550167;2.7999922167509794e-06;0.4967915999877732;0.5367966999911005;0.5488452999998117;0.6185995999985607;0.748247999988962;0.8789001999975881;0;0;0;1;0.01
10;1;4;8;letter357;letter181;incongruent;0.04;letter357;0.05;0.07;fullmask;0.2;arrow_right.png;c;0.25374650000594556;0.26022219999867957;97193.1549585;5.2000104915350676e-06;0.49676320000435226;0.5368079000036232;0.5487856000108877;0.618457300006412;0.7481098000134807;1.0070967000065139;0;0;1;0;0.01
10;1;4;9;letter357;letter181;incongruent;0.04;letter181;0.05;0.07;fullmask;0.2;arrow_left.png;c;0.3949237000051653;0.3999880000046687;97194.9069599;2.6000052457675338e-06;0.5002321000065422;0.5402571000013268;0.5520384999981616;0.6219398999965051;0.7515066000050865;0.8821545000100741;0;0;0;1;0.01
10;1;4;10;letter357;letter181;incongruent;0.04;letter357;0.05;0.07;fullmask;0.2;arrow_right.png;m;0.1979085000057239;0.20022910000989214;97196.2509918;2.6999914553016424e-06;0.5009626999963075;0.540957499993965;0.5527937000006204;0.6223941999924136;0.7530223999929149;0.7530248999973992;0;1;0;0;0.01
10;1;4;11;letter357;letter181;incongruent;0.04;letter181;0.05;0.07;fullmask;0.2;arrow_left.png;c;0.3033529000094859;0.31021740000869613;97197.7069652;2.6000052457675338e-06;0.5009556000004523;0.5409864000102971;0.5524720000103116;0.6223687000019709;0.7529212000081316;1.0613009000080638;0;0;1;0;0.01
10;1;4;12;letter357;letter181;congruent;0.04;letter357;0.05;0.07;fullmask;0.2;arrow_left.png;c;0.3546014000021387;0.36095380000188015;97199.4189553;2.800006768666208e-06;0.5023254999978235;0.5423087999952259;0.5535152999946149;0.6242050000000745;0.7538373999996111;0.8844888000021456;0;0;0;1;0.01
10;1;4;13;letter357;letter181;congruent;0.04;letter357;0.05;0.07;fullmask;0.2;arrow_left.png;c;0.419475099988631;0.4209381999971811;97200.9949864;2.6000052457675338e-06;0.4972784999990836;0.5373010000039358;0.54866949999996;0.6185705999960192;0.7491357999970205;0.8787865999911446;0;0;0;1;0.01
10;1;4;14;letter357;letter181;congruent;0.04;letter181;0.05;0.07;fullmask;0.2;arrow_right.png;m;0.25769040000159293;0.2602318999997806;97202.3949519;2.6000052457675338e-06;0.4989229000057094;0.5389588999969419;0.5510504999983823;0.6209779000055278;0.750383899998269;1.0092635000037262;0;0;1;0;0.01
10;1;4;15;letter357;letter181;congruent;0.04;letter357;0.05;0.07;fullmask;0.2;arrow_left.png;c;0.23164990000077523;0.24047790000622626;97203.9790998;3.1999952625483274e-06;0.5023889000003692;0.542377799996757;0.5536614000011468;0.6244294999924023;0.7540825000032783;0.9926825000002282;0;0;1;0;0.01
10;1;4;16;letter357;letter181;incongruent;0.04;letter181;0.05;0.07;fullmask;0.2;arrow_left.png;m;0.18434049999632407;0.19054969999706373;97205.5229861;2.6000052457675338e-06;0.5027600000030361;0.5427764000050956;0.5542238999914844;0.6241265999997267;0.7447732000000542;0.7447758000053;0;1;0;0;0.01
10;1;4;17;letter357;letter181;incongruent;0.04;letter357;0.05;0.07;fullmask;0.2;arrow_right.png;m;0.23488150000048336;0.23940910000237636;97206.9149738;2.6000052457675338e-06;0.504165100006503;0.544183999998495;0.5562074000044959;0.6261034000053769;0.7556636999943294;0.9944713000004413;0;0;1;0;0.01
10;1;4;18;letter357;letter181;congruent;0.04;letter181;0.05;0.07;fullmask;0.2;arrow_right.png;c;0.2380425000010291;0.24028089999046642;97208.4989876;3.200009814463556e-06;0.49819560001196805;0.5382236000004923;0.5500764000025811;0.6198426000046311;0.750404400008847;0.9885112000047229;0;0;1;0;0.01
10;1;4;19;letter357;letter181;incongruent;0.04;letter181;0.05;0.07;fullmask;0.2;arrow_left.png;c;0.3612282999965828;0.370073300000513;97210.2429541;3.000008291564882e-06;0.4967850999964867;0.5367828000016743;0.5483906000008574;0.6182088000059593;0.7488537000026554;0.8785094000049867;0;0;0;1;0.01
10;1;4;20;letter357;letter181;incongruent;0.04;letter357;0.05;0.07;fullmask;0.2;arrow_right.png;m;0.17577830000664108;0.17963520000921562;97211.6190435;2.6999914553016424e-06;0.5005919999966864;0.5406100999971386;0.5527555000007851;0.6226109999988694;0.7323996999912197;0.7324075999931665;0;1;0;0;0.01
10;1;4;21;letter357;letter181;incongruent;0.04;letter357;0.05;0.07;fullmask;0.2;arrow_right.png;m;0.26169599998684134;0.2702011999936076;97213.0349586;2.8999929782003164e-06;0.5026804999943124;0.5427172999916365;0.5539868999912869;0.6246816999919247;0.7543241999956081;1.0230095000006258;0;0;1;0;0.01
10;1;4;22;letter357;letter181;congruent;0.04;letter357;0.05;0.07;fullmask;0.2;arrow_left.png;m;0.2585611999966204;0.26022769999690354;97214.6429411;2.6000052457675338e-06;0.4964479000045685;0.5364629999967292;0.5478165999957127;0.6177442000043811;0.748123299999861;1.0067542000033427;0;0;1;0;0.01
10;1;4;23;letter357;letter181;congruent;0.04;letter181;0.05;0.07;fullmask;0.2;arrow_right.png;c;0.21671140000398736;0.21938670000236016;97216.2029586;2.6999914553016424e-06;0.49834439999540336;0.5383656999911182;0.5505724999966333;0.6203045000002021;0.749957899999572;0.9686561999988044;0;0;1;0;0.01
10;1;4;24;letter357;letter181;incongruent;0.04;letter181;0.05;0.07;fullmask;0.2;arrow_left.png;c;0.19054710000636987;0.20050999999511987;97217.7470273;2.6999914553016424e-06;0.5022893999994267;0.5423053999984404;0.5537330999941332;0.6236601999989944;0.7542423999984749;0.7542449000029592;0;1;0;0;0.01
10;1;4;25;letter357;letter181;congruent;0.04;letter357;0.05;0.07;fullmask;0.2;arrow_left.png;c;0.2875196000095457;0.29038790000777226;97219.1950264;2.800006768666208e-06;0.5036151000094833;0.5436492000008002;0.5552203000115696;0.6250370000052499;0.7556831000110833;1.0439607000007527;0;0;1;0;0.01
10;1;4;26;letter357;letter181;incongruent;0.04;letter357;0.05;0.07;fullmask;0.2;arrow_right.png;m;0.2847068999981275;0.2903890000015963;97220.8431025;2.6000052457675338e-06;0.49963750000461005;0.539656399996602;0.5510547000012593;0.6211144999979297;0.7515034999960335;1.0399639999959618;0;0;1;0;0.01
10;1;4;27;letter357;letter181;congruent;0.04;letter181;0.05;0.07;fullmask;0.2;arrow_right.png;m;0.21711890000733547;0.22047030000248924;97222.466954;2.4999899324029684e-06;0.5028460999892559;0.5428602999891154;0.5546144999971148;0.6245149999886053;0.7540802000003168;0.9731353999959538;0;0;1;0;0.01
10;1;4;28;letter357;letter181;incongruent;0.04;letter181;0.05;0.07;fullmask;0.2;arrow_left.png;m;0.24036949999572244;0.25033799999800976;97224.0510347;2.6000052457675338e-06;0.49945790000492707;0.5394950000045355;0.5510618000116665;0.6208289000060176;0.751480500010075;0.9997701000102097;0;0;1;0;0.01
10;1;4;29;letter357;letter181;incongruent;0.04;letter181;0.05;0.07;fullmask;0.2;arrow_left.png;m;0.2332538999908138;0.2404301999922609;97225.6349541;2.800006768666208e-06;0.4982209000008879;0.5382318000047235;0.5498424999968847;0.6197474000073271;0.750311600000714;0.9885288000077708;0;0;1;0;0.01
10;1;4;30;letter357;letter181;congruent;0.04;letter357;0.05;0.07;fullmask;0.2;arrow_left.png;c;0.2839583000022685;0.2901465000031749;97227.2669796;2.5000044843181968e-06;0.4957184000086272;0.5357435000041733;0.5476368000090588;0.6173135999997612;0.7479643000115175;1.0360435000038706;0;0;1;0;0.01
10;1;4;31;letter357;letter181;congruent;0.04;letter357;0.05;0.07;fullmask;0.2;arrow_left.png;m;0.3013111000036588;0.31033360000583343;97228.9151514;2.7000060072168708e-06;0.4957150999980513;0.535725800000364;0.5474138999998104;0.6173175000003539;0.7478606999939075;1.0560656000016024;0;0;1;0;0.01
10;1;4;32;letter357;letter181;congruent;0.04;letter181;0.05;0.07;fullmask;0.2;arrow_right.png;c;0.27411209999991115;0.2803118000010727;97230.5389093;2.7000060072168708e-06;0.4971362000069348;0.5371619000070496;0.5487357000092743;0.6186383000022033;0.7491999000048963;1.0274934000044595;0;0;1;0;0.01
10;1;4;33;letter357;letter181;incongruent;0.04;letter357;0.05;0.07;fullmask;0.2;arrow_right.png;m;0.24662309999985155;0.2502494999935152;97232.1629485;2.5999906938523054e-06;0.4967587999999523;0.5367717999906745;0.5488191999902483;0.6187415000022156;0.7481465000018943;0.9970718999975361;0;0;1;0;0.01
10;1;4;34;letter357;letter181;congruent;0.04;letter181;0.05;0.07;fullmask;0.2;arrow_right.png;m;0.27037869999185205;0.2802662999893073;97233.7869772;2.5999906938523054e-06;0.4993283999938285;0.5393401999899652;0.5506311999924947;0.621402599994326;0.7510551999876043;1.0296641999884741;0;0;1;0;0.01
10;1;4;35;letter357;letter181;incongruent;0.04;letter357;0.05;0.07;fullmask;0.2;arrow_right.png;m;0.26282780000474304;0.27019779999682214;97235.4109369;2.5999906938523054e-06;0.5031404999899678;0.5431568999920273;0.5548984999913955;0.6245733999967342;0.7552271999884397;1.0234584999998333;0;0;1;0;0.01
10;1;4;36;letter357;letter181;incongruent;0.04;letter181;0.05;0.07;fullmask;0.2;arrow_left.png;c;0.33743369999865536;0.3402551000035601;97237.1070278;2.6999914553016424e-06;0.4981625999935204;0.538223299998208;0.5503821999882348;0.6202803999913158;0.7498348999943119;0.8804875999921933;0;0;0;1;0.01
10;1;4;37;letter357;letter181;congruent;0.04;letter181;0.05;0.07;fullmask;0.2;arrow_right.png;m;0.3751901000068756;0.38090020000527147;97238.6349474;2.6999914553016424e-06;0.501290300002438;0.5413262999936705;0.5527192000008654;0.6224813000007998;0.7530441999988398;0.8826963000028627;0;0;0;1;0.01
10;1;4;38;letter357;letter181;incongruent;0.04;letter357;0.05;0.07;fullmask;0.2;arrow_right.png;m;0.2680582999892067;0.2702881999866804;97240.0589505;2.800006768666208e-06;0.5048416000063298;0.5448800000012852;0.5564196000050288;0.6261823000095319;0.7568317000113893;1.0251832000067225;0;0;1;0;0.01
10;1;4;39;letter357;letter181;congruent;0.04;letter181;0.05;0.07;fullmask;0.2;arrow_right.png;m;0.25721309999062214;0.26037009998981375;97241.6589917;2.800006768666208e-06;0.49884499999461696;0.5388629999943078;0.550272499996936;0.620173799994518;0.7507416000007652;1.0091711999994004;0;0;1;0;0.01
10;1;4;40;letter357;letter181;congruent;0.04;letter357;0.05;0.07;fullmask;0.2;arrow_left.png;m;0.25439790000382345;0.26022899999225046;97243.2669558;2.7000060072168708e-06;0.5047604999999749;0.5447867000038968;0.5559251999948174;0.6266896000015549;0.756256199994823;1.0150998000026448;0;0;1;0;0.01
10;1;4;41;letter357;letter181;incongruent;0.04;letter181;0.05;0.07;fullmask;0.2;arrow_left.png;c;0.18051079999713693;0.18955119999009185;97244.7949167;2.7000060072168708e-06;0.4964514000021154;0.5364765000122134;0.5484431000077166;0.6183483000058914;0.7379938000085531;0.7379965000000084;0;1;0;0;0.01
10;1;4;42;letter357;letter181;incongruent;0.04;letter357;0.05;0.07;fullmask;0.2;arrow_right.png;c;0.2816879999882076;0.2901430999918375;97246.2269459;2.7000060072168708e-06;0.5017795000021579;0.5417980000056559;0.5537460000050487;0.6234193000127561;0.7530741000082344;1.0421000000060303;0;0;1;0;0.01
10;1;4;43;letter357;letter181;incongruent;0.04;letter357;0.05;0.07;fullmask;0.2;arrow_right.png;m;0.3027579999907175;0.3102276999998139;97247.898949;2.7000060072168708e-06;0.5022558000055142;0.5422766999981832;0.5541197999991709;0.6240209999959916;0.7545819000079064;1.0626239999983227;0;0;1;0;0.01
10;1;4;44;letter357;letter181;congruent;0.04;letter181;0.05;0.07;fullmask;0.2;arrow_right.png;m;0.23362899999483489;0.24041489999217447;97249.4909452;2.5999906938523054e-06;0.5032926999992924;0.543290599991451;0.5551820999971824;0.6250890999945113;0.7546472999965772;0.9935772999888286;0;0;1;0;0.01
10;1;4;45;letter357;letter181;incongruent;0.04;letter181;0.05;0.07;fullmask;0.2;arrow_left.png;c;0.31442019999667536;0.3202025000064168;97251.1629459;2.6000052457675338e-06;0.499061199996504;0.5390817000006791;0.5511548999929801;0.6210610999987694;0.7506219999922905;1.0693901000049664;0;0;1;0;0.01
10;1;4;46;letter357;letter181;incongruent;0.04;letter181;0.05;0.07;fullmask;0.2;arrow_left.png;c;0.3173973999946611;0.3200609999912558;97252.8269342;2.7000060072168708e-06;0.496496699997806;0.5365142000082415;0.5485262000001967;0.6181986000010511;0.7478503000020282;1.0668633000022965;0;0;1;0;0.01
10;1;4;47;letter357;letter181;congruent;0.04;letter357;0.05;0.07;fullmask;0.2;arrow_left.png;m;0.27850149999721907;0.28029109998897184;97254.4592333;2.6000052457675338e-06;0.49658110000018496;0.5365837999997893;0.5487360999977682;0.6184112000046298;0.7480651000078069;1.0269063000014285;0;0;1;0;0.01
10;1;4;48;letter357;letter181;congruent;0.04;letter357;0.05;0.07;fullmask;0.2;arrow_left.png;c;0.2722094000055222;0.2803033000091091;97256.0831532;2.7000060072168708e-06;0.4983951000031084;0.5384115000051679;0.5497299999988172;0.6204531999974279;0.7500774999934947;1.028734399995301;0;0;1;0;0.01
10;1;5;1;letter357;letter181;congruent;0.04;letter357;0.05;0.07;fullmask;0.2;arrow_left.png;c;0.5144818999979179;0.5197132000030251;97279.2909325;2.900007530115545e-06;0.4955950000003213;0.5356134000030579;0.5476755999989109;0.6176253000012366;0.747184699997888;0.877838200001861;0;0;0;1;0.01
10;1;5;2;letter357;letter181;congruent;0.04;letter181;0.05;0.07;fullmask;0.2;arrow_right.png;m;0.2533570000086911;0.2603314000007231;97280.6909268;2.7000060072168708e-06;0.4960997000016505;0.5360998999967705;0.5482147000002442;0.6179815999930725;0.747547899998608;1.006404100000509;0;0;1;0;0.01
10;1;5;3;letter357;letter181;congruent;0.04;letter181;0.05;0.07;fullmask;0.2;arrow_right.png;m;0.24914349999744445;0.25028910000401083;97282.3070685;2.800006768666208e-06;0.4955121999955736;0.5355324999982258;0.5469673000043258;0.6176640000048792;0.7473041000048397;0.9958381000033114;0;0;1;0;0.01
10;1;5;4;letter357;letter181;congruent;0.04;letter357;0.05;0.07;fullmask;0.2;arrow_left.png;c;0.2101779000076931;0.2102796999970451;97283.8589933;5.599998985417187e-06;0.500449800005299;0.5404879999987315;0.5517700000054901;0.6224470000015572;0.7520975999941584;0.9607566000049701;0;0;1;0;0.01
10;1;5;5;letter357;letter181;incongruent;0.04;letter181;0.05;0.07;fullmask;0.2;arrow_left.png;c;0.21851560000504833;0.22042810000129975;97285.4589393;2.6999914553016424e-06;0.5038391999987653;0.5438807999889832;0.5557505999895511;0.6255228999943938;0.7551784999959636;0.9741486999992048;0;0;1;0;0.01
10;1;5;6;letter357;letter181;incongruent;0.04;letter181;0.05;0.07;fullmask;0.2;arrow_left.png;m;0.1501066000055289;0.15062060000491329;97286.9709998;2.7000060072168708e-06;0.503675400002976;0.5436570000019856;0.554980600005365;0.6248722000018461;0.7056008000072325;0.7056033999979263;0;1;0;0;0.01
10;1;5;7;letter357;letter181;congruent;0.04;letter181;0.05;0.07;fullmask;0.2;arrow_right.png;m;0.26534019999962766;0.2703001000045333;97288.3869338;2.5999906938523054e-06;0.4972047999908682;0.5372352999984287;0.5484397999971407;0.6192118999897502;0.7488735999941127;1.0175242999976035;0;0;1;0;0.01
10;1;5;8;letter357;letter181;incongruent;0.04;letter357;0.05;0.07;fullmask;0.2;arrow_right.png;m;0.2677594999986468;0.27060099999653175;97290.0110155;2.6999914553016424e-06;0.5028117000038037;0.5428256000013789;0.5546462999918731;0.624411600001622;0.7549880000005942;1.023135600000387;0;0;1;0;0.01
10;1;5;9;letter357;letter181;incongruent;0.04;letter181;0.05;0.07;fullmask;0.2;arrow_left.png;c;0.25714370000059716;0.2603307999961544;97291.6110203;2.6999914553016424e-06;0.49747970000316855;0.5375041999941459;0.548910600002273;0.6195846999908099;0.7492383999924641;1.0078184000012698;0;0;1;0;0.01
10;1;5;10;letter357;letter181;congruent;0.04;letter357;0.05;0.07;fullmask;0.2;arrow_left.png;c;0.24575829999230336;0.2503889999934472;97293.2109373;2.6999914553016424e-06;0.5041884999955073;0.5442188000015449;0.5558929999970132;0.6257975999906193;0.7563580999994883;1.0045125000033295;0;0;1;0;0.01
10;1;5;11;letter357;letter181;incongruent;0.04;letter357;0.05;0.07;fullmask;0.2;arrow_right.png;c;0.24864740000339225;0.2502669999958016;97294.834906;2.7000060072168708e-06;0.5021954999974696;0.5422230999975;0.5539334999921266;0.6237050000054296;0.7542678000027081;1.0025164999970002;0;0;1;0;0.01
10;1;5;12;letter357;letter181;incongruent;0.04;letter357;0.05;0.07;fullmask;0.2;arrow_right.png;m;0.4015893999894615;0.4099639999913052;97296.5789424;2.6000052457675338e-06;0.49542839999776334;0.5354427999991458;0.547236200000043;0.6170476999977836;0.7477002000086941;0.8773522999981651;0;0;0;1;0.01
10;1;5;13;letter357;letter181;congruent;0.04;letter181;0.05;0.07;fullmask;0.2;arrow_right.png;m;0.28346640001109336;0.29125670000212267;97298.0112092;2.5999906938523054e-06;0.5005099999980303;0.5405510999989929;0.5517170999955852;0.6224820999923395;0.7520456999918679;1.0408667999872705;0;0;1;0;0.01
10;1;5;14;letter357;letter181;incongruent;0.04;letter357;0.05;0.07;fullmask;0.2;arrow_right.png;m;0.2661301999905845;0.2703051999997115;97299.6350133;2.5999906938523054e-06;0.5041066999983741;0.544127799992566;0.5553916999924695;0.6260609000019031;0.7557215999986511;1.024450099997921;0;0;1;0;0.01
10;1;5;15;letter357;letter181;incongruent;0.04;letter181;0.05;0.07;fullmask;0.2;arrow_left.png;m;0.23619079998752568;0.23937289998866618;97301.2269457;2.6000052457675338e-06;0.49461670000164304;0.5346207999973558;0.5467164000001503;0.6164882000011858;0.7461349999939557;0.9849128000059864;0;0;1;0;0.01
10;1;5;16;letter357;letter181;congruent;0.04;letter357;0.05;0.07;fullmask;0.2;arrow_left.png;c;0.2133272999926703;0.22033189999638125;97302.7949306;2.7000060072168708e-06;0.5031166999979177;0.5431284000078449;0.5550371999997878;0.6249576999980491;0.755380000002333;0.9733987000072375;0;0;1;0;0.01
10;1;5;17;letter357;letter181;congruent;0.04;letter181;0.05;0.07;fullmask;0.2;arrow_right.png;c;0.2786114000045927;0.2802561999997124;97304.4509313;2.6000052457675338e-06;0.5044599000102608;0.544485500009614;0.5560976000124356;0.6258557000110159;0.7565070000127889;1.0348159000132;0;0;1;0;0.01
10;1;5;18;letter357;letter181;incongruent;0.04;letter357;0.05;0.07;fullmask;0.2;arrow_right.png;m;0.1715338000067277;0.18049969999992754;97305.9951045;2.800006768666208e-06;0.4950620000017807;0.5350763000024017;0.5468779000075301;0.6165971000009449;0.7273857999971369;0.7273940000013681;0;1;0;0;0.01
10;1;5;19;letter357;letter181;congruent;0.04;letter357;0.05;0.07;fullmask;0.2;arrow_left.png;m;0.19682829998782836;0.2003864999860525;97307.3709402;2.7000060072168708e-06;0.4997388000047067;0.5397865000122692;0.5512439000012819;0.6219380000111414;0.7516243999998551;0.751626800003578;0;1;0;0;0.01
10;1;5;20;letter357;letter181;congruent;0.04;letter181;0.05;0.07;fullmask;0.2;arrow_right.png;m;0.2479062999918824;0.25038969999877736;97308.7629278;2.7000060072168708e-06;0.4978001999988919;0.537819799996214;0.5493416999961482;0.619154999993043;0.7498043999949005;0.9981195000000298;0;0;1;0;0.01
10;1;5;21;letter357;letter181;incongruent;0.04;letter181;0.05;0.07;fullmask;0.2;arrow_left.png;c;0.23836309999751393;0.2393794999952661;97310.3549391;2.6000052457675338e-06;0.4998506999982055;0.5398574999999255;0.5519082999962848;0.621681400007219;0.751341199997114;0.9901465000002645;0;0;1;0;0.01
10;1;5;22;letter357;letter181;incongruent;0.04;letter181;0.05;0.07;fullmask;0.2;arrow_left.png;m;0.2794145999941975;0.28030899999430403;97311.9868914;2.7000060072168708e-06;0.5022597000061069;0.5422830000024987;0.5542167999956291;0.6241178000054788;0.7536850000033155;1.0326270000077784;0;0;1;0;0.01
10;1;5;23;letter357;letter181;incongruent;0.04;letter357;0.05;0.07;fullmask;0.2;arrow_right.png;m;0.3283962999994401;0.3302202000049874;97313.6669322;2.7000060072168708e-06;0.49580400000559166;0.5358240000059595;0.5477611000096658;0.6174923000071431;0.7471458000072744;1.076174900008482;0;0;1;0;0.01
10;1;5;24;letter357;letter181;congruent;0.04;letter357;0.05;0.07;fullmask;0.2;arrow_left.png;m;0.27746969999861903;0.2802804999955697;97315.3070064;2.7999922167509794e-06;0.5028892999980599;0.5429119000036735;0.5547618999989936;0.6244384000019636;0.7550869999977294;1.0332377000013366;0;0;1;0;0.01
10;1;5;25;letter357;letter181;congruent;0.04;letter357;0.05;0.07;fullmask;0.2;arrow_left.png;c;0.2804550000000745;0.28999010000552516;97316.9309622;2.8999929782003164e-06;0.49891979999665637;0.5389364000002388;0.550726699992083;0.6205161999969278;0.7509016999974847;1.039283099991735;0;0;1;0;0.01
10;1;5;26;letter357;letter181;incongruent;0.04;letter181;0.05;0.07;fullmask;0.2;arrow_left.png;c;0.1774913999979617;0.18060209999384824;97318.4589232;2.6999914553016424e-06;0.49691420000453945;0.5369375000009313;0.5485961999947904;0.6184049000003142;0.7291971999948146;0.729199499997776;0;1;0;0;0.01
10;1;5;27;letter357;letter181;congruent;0.04;letter181;0.05;0.07;fullmask;0.2;arrow_right.png;m;0.2005819999903906;0.21020239999052137;97319.8029288;2.5999906938523054e-06;0.5020063999982085;0.5420255999924848;0.5537465999950655;0.6233525999996345;0.7539189999952214;0.9623065999912797;0;0;1;0;0.01
10;1;5;28;letter357;letter181;incongruent;0.04;letter357;0.05;0.07;fullmask;0.2;arrow_right.png;m;0.22586669999873266;0.2304298000090057;97321.3788996;2.8999929782003164e-06;0.4963091999961762;0.5363257999997586;0.5477383999968879;0.617799899991951;0.7481716999900527;0.9765736999979708;0;0;1;0;0.01
10;1;5;29;letter357;letter181;incongruent;0.04;letter181;0.05;0.07;fullmask;0.2;arrow_left.png;m;0.2790835999912815;0.2801967999985209;97323.0032008;2.6999914553016424e-06;0.4986802999919746;0.5387003999931039;0.5501937999943038;0.6201323999994202;0.7505175999976927;1.0290187999926275;0;0;1;0;0.01
10;1;5;30;letter357;letter181;congruent;0.04;letter181;0.05;0.07;fullmask;0.2;arrow_right.png;m;0.30544369999552146;0.3101899999892339;97324.650964;2.6000052457675338e-06;0.4957099000021117;0.5357421000080649;0.5475861000013538;0.6173663000081433;0.7470121000078507;1.0560821999970358;0;0;1;0;0.01
10;1;5;31;letter357;letter181;congruent;0.04;letter181;0.05;0.07;fullmask;0.2;arrow_right.png;m;0.32689579999714624;0.33102889999281615;97326.3229249;2.6000052457675338e-06;0.49617960001342;0.5361957000131952;0.5475007000059122;0.6181668000062928;0.7478240000054939;1.0765701000054833;0;0;1;0;0.01
10;1;5;32;letter357;letter181;congruent;0.04;letter357;0.05;0.07;fullmask;0.2;arrow_left.png;m;0.27933829999528825;0.280174999992596;97327.9469847;2.5000044843181968e-06;0.5006822000141256;0.540702100013732;0.5525460000062594;0.6223181000095792;0.7528729000041494;1.031026100012241;0;0;1;0;0.01
10;1;5;33;letter357;letter181;incongruent;0.04;letter181;0.05;0.07;fullmask;0.2;arrow_left.png;c;0.2265122000098927;0.23050090001197532;97329.5150138;2.7000060072168708e-06;0.49722900000051595;0.5372509000007994;0.548891200000071;0.6186624999972992;0.7493130999937421;0.9775176999974065;0;0;1;0;0.01
10;1;5;34;letter357;letter181;incongruent;0.04;letter357;0.05;0.07;fullmask;0.2;arrow_right.png;m;0.26352540000516456;0.27030760000343435;97331.1233106;2.7000060072168708e-06;0.4955760000011651;0.5355962000030559;0.5475298000092153;0.6174555000034161;0.747855100009474;1.0159176000015577;0;0;1;0;0.01
10;1;5;35;letter357;letter181;incongruent;0.04;letter357;0.05;0.07;fullmask;0.2;arrow_right.png;c;0.21206510000047274;0.22033519999240525;97332.6829213;2.5999906938523054e-06;0.49446159999934025;0.5344668999896385;0.5464399999909801;0.616116699995473;0.7457738999946741;0.9647581000026548;0;0;1;0;0.01
10;1;5;36;letter357;letter181;congruent;0.04;letter357;0.05;0.07;fullmask;0.2;arrow_left.png;m;0.272909699997399;0.2792963999963831;97334.314918;2.800006768666208e-06;0.4998102000099607;0.5398151999979746;0.5519321000028867;0.6218198999995366;0.7513829000090482;1.030135799999698;0;0;1;0;0.01
10;1;5;37;letter357;letter181;congruent;0.04;letter181;0.05;0.07;fullmask;0.2;arrow_right.png;m;0.3466406000079587;0.3507724999944912;97336.018934;2.6000052457675338e-06;0.49733719999494497;0.5373447000019951;0.5487298000080045;0.6195412999950349;0.7491966999950819;0.8795029000029899;0;0;0;1;0.01
10;1;5;38;letter357;letter181;congruent;0.04;letter357;0.05;0.07;fullmask;0.2;arrow_left.png;c;0.49404869999852963;0.5009006000036607;97337.6670795;2.6000052457675338e-06;0.4984234000003198;0.5384282000013627;0.5495495999930426;0.620443299994804;0.750111300003482;0.8807532000064384;0;0;0;1;0.01
10;1;5;39;letter357;letter181;incongruent;0.04;letter181;0.05;0.07;fullmask;0.2;arrow_left.png;c;0.5603381000109948;0.5604739999980666;97339.3950386;2.6000052457675338e-06;0.5034346000029473;0.5434519999980694;0.5551778000080958;0.6250940000027185;0.7556256000098074;0.8852934000024106;0;0;0;1;0.01
10;1;5;40;letter357;letter181;incongruent;0.04;letter357;0.05;0.07;fullmask;0.2;arrow_right.png;c;0.12970029999269173;0.13057709998975042;97340.6749747;2.7000060072168708e-06;0.5044683000014629;0.5444826000020839;0.555685800005449;0.626361700007692;0.6862624000059441;0.6862649000104284;0;1;0;0;0.01
10;1;5;41;letter357;letter181;congruent;0.04;letter181;0.05;0.07;fullmask;0.2;arrow_right.png;m;0.2980307999969227;0.3001206000044476;97342.1149016;2.6000052457675338e-06;0.5010387000074843;0.5410524000035366;0.553028299997095;0.6227056000061566;0.7523585000017192;1.0513958999945316;0;0;1;0;0.01
10;1;5;42;letter357;letter181;congruent;0.04;letter357;0.05;0.07;fullmask;0.2;arrow_left.png;c;0.39966179999464657;0.4008534999884432;97343.8669947;2.8999929782003164e-06;0.5043681999959517;0.5443764999945415;0.5557553999969969;0.626431099997717;0.7560836999909952;0.8857371999911265;0;0;0;1;0.01
10;1;5;43;letter357;letter181;congruent;0.04;letter357;0.05;0.07;fullmask;0.2;arrow_left.png;m;0.2986821999948006;0.3002169999963371;97345.3069212;2.7000060072168708e-06;0.4962072000053013;0.5362181999953464;0.547516499995254;0.61831119999988;0.7479521999921417;1.0465490999922622;0;0;1;0;0.01
10;1;5;44;letter357;letter181;incongruent;0.04;letter181;0.05;0.07;fullmask;0.2;arrow_left.png;c;0.28089660000114236;0.2901455000101123;97346.9309251;2.6000052457675338e-06;0.500674800001434;0.5407370000029914;0.5527254000044195;0.6224012000020593;0.7520533000060823;1.0410247999971034;0;0;1;0;0.01
10;1;5;45;letter357;letter181;incongruent;0.04;letter181;0.05;0.07;fullmask;0.2;arrow_left.png;c;0.27036840000073425;0.28025789999810513;97348.5709885;2.6000052457675338e-06;0.5006094999989728;0.5406035000050906;0.5521678000077372;0.6219402999995509;0.7525891000113916;1.0309246000106214;0;0;1;0;0.01
10;1;5;46;letter357;letter181;congruent;0.04;letter181;0.05;0.07;fullmask;0.2;arrow_right.png;m;0.29548630000499543;0.3001204000029247;97350.226922;2.7000060072168708e-06;0.4972602000052575;0.5372684000030858;0.5486074000073131;0.61928369999805;0.7489369999966584;1.0476101000094786;0;0;1;0;0.01
10;1;5;47;letter357;letter181;incongruent;0.04;letter357;0.05;0.07;fullmask;0.2;arrow_right.png;m;0.2522885999933351;0.2602240999985952;97351.8350028;2.6000052457675338e-06;0.5034092999994755;0.5434343999950215;0.554977499996312;0.6246541000000434;0.755306399994879;1.0137380999949528;0;0;1;0;0.01
10;1;5;48;letter357;letter181;incongruent;0.04;letter357;0.05;0.07;fullmask;0.2;arrow_right.png;m;0.20921369999996386;0.21044720000645611;97353.4430834;2.6000052457675338e-06;0.49908290000166744;0.5390972000022884;0.5507445999974152;0.6204177000035997;0.7510521999938646;0.9593688000022667;0;0;1;0;0.01
10;2;12;1;letter169;letter190;incongruent;0.04;letter190;0.09;0.07;fullmask;0.2;arrow_left.png;m;0.17603170000074897;0.18057229999976698;98429.1706661;3.100009053014219e-06;0.5043638000061037;0.5443901000107871;0.5956374000088545;0.666440800006967;0.776210700001684;0.7762133000069298;0;1;0;0;0.01
10;2;12;2;letter169;letter190;incongruent;0.04;letter190;0.09;0.07;fullmask;0.2;arrow_left.png;m;0.206577599994489;0.21048949999385513;98430.5627596;2.6999914553016424e-06;0.4960133999993559;0.536016700003529;0.5879413999937242;0.6578695999924093;0.7882463999994798;0.9963179999904241;0;0;1;0;0.01
10;2;12;3;letter169;letter190;incongruent;0.04;letter169;0.09;0.07;fullmask;0.2;arrow_right.png;m;0.37197110000124667;0.38003160001244396;98432.338985;2.6999914553016424e-06;0.4987426999869058;0.538750899999286;0.5904809999919962;0.66020220000064;0.7908275999943726;0.9204827999928966;0;0;0;1;0.01
10;2;12;4;letter169;letter190;congruent;0.04;letter169;0.09;0.07;fullmask;0.2;arrow_left.png;c;0.22480730000825133;0.23039640000206418;98433.7626997;2.7000060072168708e-06;0.5023901999957161;0.5424150000035297;0.594000800003414;0.6637738999997964;0.7944217000040226;1.022727899995516;0;0;1;0;0.01
10;2;12;5;letter169;letter190;incongruent;0.04;letter190;0.09;0.07;fullmask;0.2;arrow_left.png;m;0.12606009999581147;0.13056809999397956;98435.2747411;2.7000060072168708e-06;0.500707400002284;0.5407299000071362;0.5920633000059752;0.662733200006187;0.7226303000061307;0.7226328999968246;0;1;0;0;0.01
10;2;12;6;letter169;letter190;congruent;0.04;letter190;0.09;0.07;fullmask;0.2;arrow_right.png;c;0.22274800000013784;0.23030809999909252;98436.6827103;2.7000060072168708e-06;0.5032247000053758;0.5432371000060812;0.595016500010388;0.6646945000102278;0.795343400008278;1.0235473000066122;0;0;1;0;0.01
10;2;12;7;letter169;letter190;congruent;0.04;letter190;0.09;0.07;fullmask;0.2;arrow_right.png;c;0.269608500006143;0.27041040000040084;98438.3308407;2.7999922167509794e-06;0.4961633999919286;0.5361957999994047;0.5881965000007767;0.6579681000002893;0.7876203999912832;1.0565275999979349;0;0;1;0;0.01
10;2;12;8;letter169;letter190;incongruent;0.04;letter169;0.09;0.07;fullmask;0.2;arrow_right.png;m;0.3444506999949226;0.34985820000292733;98440.0666711;2.6000052457675338e-06;0.4985415999981342;0.5385600000008708;0.5904995000018971;0.6600544999964768;0.7907153999985894;0.9203439999982947;0;0;0;1;0.01
10;2;12;9;letter169;letter190;incongruent;0.04;letter169;0.09;0.07;fullmask;0.2;arrow_right.png;c;0.25335469999117777;0.26022670000384096;98441.5066612;2.7999922167509794e-06;0.49509690000559203;0.5351305999938631;0.5871655999944778;0.656841699994402;0.7864952999952948;1.0454702999995789;0;0;1;0;0.01
10;2;12;10;letter169;letter190;congruent;0.04;letter169;0.09;0.07;fullmask;0.2;arrow_left.png;c;0.2343267999967793;0.23940759999095462;98443.138676;2.6999914553016424e-06;0.4975884000014048;0.5376142999884905;0.5896271999954479;0.6596764999994775;0.7890802999900188;1.0278865000000224;0;0;1;0;0.01
10;2;12;11;letter169;letter190;congruent;0.04;letter169;0.09;0.07;fullmask;0.2;arrow_left.png;c;0.24584780000441242;0.25025510000705253;98444.7707046;2.7000060072168708e-06;0.5007419000030495;0.5407553000113694;0.5922510000091279;0.6620193000126164;0.7925797000061721;1.0410909000056563;0;0;1;0;0.01
10;2;12;12;letter169;letter190;congruent;0.04;letter190;0.09;0.07;fullmask;0.2;arrow_right.png;m;0.21493610000470653;0.22029500000644475;98446.3706829;2.8999929782003164e-06;0.4997750999900745;0.5398032999946736;0.5911339000012958;0.6617897999967681;0.7914199999941047;1.0101110999967204;0;0;1;0;0.01
10;2;12;13;letter169;letter190;incongruent;0.04;letter190;0.09;0.07;fullmask;0.2;arrow_left.png;m;0.16403519999585114;0.170711200000369;98447.9308287;2.7000060072168708e-06;0.5022511999995913;0.5422743999952218;0.5936029000004055;0.6634961999952793;0.764322799994261;0.7643307999969693;0;1;0;0;0.01
10;2;12;14;letter169;letter190;incongruent;0.04;letter169;0.09;0.07;fullmask;0.2;arrow_right.png;m;0.3727600000129314;0.37990920001175255;98449.4907072;2.7000060072168708e-06;0.5030070000066189;0.5430362000042805;0.5946470000053523;0.6643259999982547;0.794976700010011;0.9246301000093808;0;0;0;1;0.01
10;2;12;15;letter169;letter190;congruent;0.04;letter190;0.09;0.07;fullmask;0.2;arrow_right.png;m;0.06522089999634773;0.06913540000095963;98450.7546793;2.5999906938523054e-06;0.5014303999923868;0.5414581999939401;0.5935839000012493;0.6627242999966256;0.6627271999896038;0.6627294999925653;1;0;0;0;0.01
10;2;12;16;letter169;letter190;incongruent;0.04;letter190;0.09;0.07;fullmask;0.2;arrow_left.png;m;0.18239089999406133;0.18945049999456387;98452.1226618;2.6000052457675338e-06;0.49894760000461247;0.5389605999953346;0.5911060999933397;0.6607799000048544;0.7805553999933181;0.7805578999978025;0;1;0;0;0.01
10;2;12;17;letter169;letter190;congruent;0.04;letter169;0.09;0.07;fullmask;0.2;arrow_left.png;c;0.31370839998999145;0.32014329999219626;98453.6346941;2.6999914553016424e-06;0.5037532999995165;0.5437623999896459;0.5957366999937221;0.6654158999881474;0.795068799998262;1.1141540999960853;0;0;1;0;0.01
10;2;12;18;letter169;letter190;incongruent;0.04;letter190;0.09;0.07;fullmask;0.2;arrow_left.png;m;0.2583602999948198;0.259277099990868;98455.2906699;2.800006768666208e-06;0.5023734999995213;0.5423920000030193;0.594589200001792;0.664316599999438;0.7939700999995694;1.0527314000064507;0;0;1;0;0.01
10;2;12;19;letter169;letter190;incongruent;0.04;letter169;0.09;0.07;fullmask;0.2;arrow_right.png;m;0.4094022000062978;0.40998620000027586;98457.08271;2.6999914553016424e-06;0.5002825999981724;0.5403092999913497;0.592448900002637;0.6623549999931129;0.7919139000005089;0.9225653000030434;0;0;0;1;0.01
10;2;12;20;letter169;letter190;incongruent;0.04;letter169;0.09;0.07;fullmask;0.2;arrow_right.png;m;0.26668790000258014;0.27020110000739805;98458.5307299;2.900007530115545e-06;0.4977580999984639;0.5377805000025546;0.5896187000034843;0.6592995999963023;0.789946200005943;1.0581113000080222;0;0;1;0;0.01
10;2;12;21;letter169;letter190;congruent;0.04;letter190;0.09;0.07;fullmask;0.2;arrow_right.png;m;0.2062352000066312;0.21048930000688415;98460.1307513;2.6000052457675338e-06;0.5045650000101887;0.5445835999998963;0.5958404999983031;0.6667398999998113;0.7963036000001011;1.0048869000020204;0;0;1;0;0.01
10;2;12;22;letter169;letter190;congruent;0.04;letter169;0.09;0.07;fullmask;0.2;arrow_left.png;c;0.2928894000069704;0.3002559000015026;98461.8187039;2.6000052457675338e-06;0.5033662000059849;0.5433895000023767;0.5949090000067372;0.6648090999951819;0.7953734000038821;1.093746500002453;0;0;1;0;0.01
10;2;12;23;letter169;letter190;congruent;0.04;letter169;0.09;0.07;fullmask;0.2;arrow_left.png;c;0.2438685999950394;0.2503902000025846;98463.4506589;2.7000060072168708e-06;0.501090200006729;0.5411278000101447;0.5925324999989243;0.6623455000080867;0.7929956000007223;1.0414402000023983;0;0;1;0;0.01
10;2;12;24;letter169;letter190;congruent;0.04;letter190;0.09;0.07;fullmask;0.2;arrow_right.png;m;0.34703669999726117;0.3511075999995228;98465.1947046;2.6999914553016424e-06;0.5000587999966228;0.5401038999989396;0.5913106999942102;0.662202299994533;0.7917648000002373;0.9224141000013333;0;0;0;1;0.01
10;2;12;25;letter169;letter190;incongruent;0.04;letter190;0.09;0.07;fullmask;0.2;arrow_left.png;m;0.1998637999931816;0.20063209999352694;98466.5787612;2.7999922167509794e-06;0.49799269999493845;0.5380163999943761;0.589500499991118;0.6592296999879181;0.7901407999888761;0.7901486999908229;0;1;0;0;0.01
10;2;12;26;letter169;letter190;congruent;0.04;letter190;0.09;0.07;fullmask;0.2;arrow_right.png;m;0.2493668999959482;0.25041540000529494;98468.0189211;2.5999906938523054e-06;0.4972341999964556;0.537247500004014;0.5885109999944689;0.6594108999997843;0.7889708000002429;1.0375777000008384;0;0;1;0;0.01
10;2;12;27;letter169;letter190;incongruent;0.04;letter169;0.09;0.07;fullmask;0.2;arrow_right.png;c;0.1116174999915529;0.11959589998878073;98469.5226765;2.6000052457675338e-06;0.5048549000057392;0.5448785000044154;0.596582700003637;0.666254800002207;0.716178000002401;0.7161803000053624;0;1;0;0;0.01
10;2;12;28;letter169;letter190;incongruent;0.04;letter169;0.09;0.07;fullmask;0.2;arrow_right.png;c;0.24108990000968333;0.2503727000002982;98470.9626503;2.6999914553016424e-06;0.49910109999473207;0.539114300001529;0.5904836999980034;0.6603730999922846;0.7909341999911703;1.0394492999912472;0;0;1;0;0.01
10;2;12;29;letter169;letter190;incongruent;0.04;letter190;0.09;0.07;fullmask;0.2;arrow_left.png;m;0.16964620001090225;0.1704669000027934;98472.5226412;2.800006768666208e-06;0.49646860000211746;0.5364879999979166;0.5882430000056047;0.6579190000047674;0.7587094000045909;0.7587119000090752;0;1;0;0;0.01
10;2;12;30;letter169;letter190;incongruent;0.04;letter190;0.09;0.07;fullmask;0.2;arrow_left.png;c;0.2073353000014322;0.21048410001094453;98473.9306807;2.6000052457675338e-06;0.4980260000011185;0.5380082000046968;0.5892195000051288;0.6601076000079047;0.7896722000004956;0.9983088000008138;0;0;1;0;0.01
10;2;12;31;letter169;letter190;congruent;0.04;letter190;0.09;0.07;fullmask;0.2;arrow_right.png;m;0.2634749999997439;0.2703248000034364;98475.5788591;2.7000060072168708e-06;0.5008921999979066;0.5408931999991182;0.5931311000022106;0.6628271999943536;0.7924799000029452;1.0612393000046723;0;0;1;0;0.01
10;2;12;32;letter169;letter190;congruent;0.04;letter169;0.09;0.07;fullmask;0.2;arrow_left.png;m;0.13721909999730997;0.1406828999897698;98477.1227777;2.7000060072168708e-06;0.5028993000014452;0.5428940999991028;0.5942370999982813;0.6641367999982322;0.7349194999987958;0.734922200004803;0;1;0;0;0.01
10;2;12;33;letter169;letter190;incongruent;0.04;letter169;0.09;0.07;fullmask;0.2;arrow_right.png;c;0.11969289999979082;0.12957319999986794;98478.4267088;2.6999914553016424e-06;0.5006613000005018;0.5406993999931728;0.5926353999966523;0.6623096999974223;0.7222074000019347;0.7222097999911057;0;1;0;0;0.01
10;2;12;34;letter169;letter190;incongruent;0.04;letter169;0.09;0.07;fullmask;0.2;arrow_right.png;m;0.09527620000881143;0.0997512000030838;98479.7226954;2.6999914553016424e-06;0.49900489998981357;0.5391278000024613;0.5905281000013929;0.660301800002344;0.6902807000005851;0.6902832999912789;0;1;0;0;0.01
10;2;12;35;letter169;letter190;congruent;0.04;letter169;0.09;0.07;fullmask;0.2;arrow_left.png;m;0.17476339999120682;0.180440299998736;98481.0826595;2.6000052457675338e-06;0.5020661000016844;0.5420794999954524;0.5932398000004468;0.6640023000072688;0.7736797999968985;0.7736823000013828;0;1;0;0;0.01
10;2;12;36;letter169;letter190;incongruent;0.04;letter190;0.09;0.07;fullmask;0.2;arrow_left.png;c;0.35718289999931585;0.3600614000024507;98482.6267478;2.5999906938523054e-06;0.4963124999922002;0.5363145999872359;0.5882682999945246;0.657954799986328;0.7885988999914844;0.918249399997876;0;0;0;1;0.01
10;2;12;37;letter169;letter190;incongruent;0.04;letter190;0.09;0.07;fullmask;0.2;arrow_left.png;c;0.15869349999411497;0.1606203999981517;98483.978744;2.7000060072168708e-06;0.4956084000004921;0.5356262999994215;0.587070900000981;0.6577627999940887;0.7476946999959182;0.747702599997865;0;1;0;0;0.01
10;2;12;38;letter169;letter190;congruent;0.04;letter169;0.09;0.07;fullmask;0.2;arrow_left.png;c;0.2636966999998549;0.2703246000019135;98485.4346528;2.5999906938523054e-06;0.4973399000009522;0.5373645999934524;0.5888280999934068;0.6587214000028325;0.7892790999903809;1.0576915999990888;0;0;1;0;0.01
10;2;12;39;letter169;letter190;congruent;0.04;letter190;0.09;0.07;fullmask;0.2;arrow_right.png;m;0.2282264999957988;0.23042909998912364;98487.0506685;2.7000060072168708e-06;0.49859380000270903;0.5386097000009613;0.590508499997668;0.6605619000038132;0.7899614000052679;1.0189179000008153;0;0;1;0;0.01
10;2;12;40;letter169;letter190;congruent;0.04;letter190;0.09;0.07;fullmask;0.2;arrow_right.png;m;0.20099680000566877;0.2094247000059113;98488.6346706;2.4999899324029684e-06;0.5028094000008423;0.5428303999942727;0.5949330000003101;0.6646738999988884;0.7943303999927593;1.003135699997074;0;0;1;0;0.01
10;2;12;41;letter169;letter190;congruent;0.04;letter169;0.09;0.07;fullmask;0.2;arrow_left.png;m;0.2587978999945335;0.26036000000021886;98490.2826677;2.6999914553016424e-06;0.5024646999954712;0.5424774999992223;0.5937548999936553;0.6646542999951635;0.7942354999977397;1.052820500000962;0;0;1;0;0.01
10;2;12;42;letter169;letter190;congruent;0.04;letter190;0.09;0.07;fullmask;0.2;arrow_right.png;m;0.2737319000007119;0.28017179999733344;98491.9387064;2.7000060072168708e-06;0.5010359000007156;0.5410405000002356;0.5923646000010194;0.6631254000094486;0.792688100002124;1.0713898000103654;0;0;1;0;0.01
10;2;12;43;letter169;letter190;incongruent;0.04;letter169;0.09;0.07;fullmask;0.2;arrow_right.png;m;0.30024309999134857;0.3100780999957351;98493.6267286;2.800006768666208e-06;0.4953156000119634;0.5353292000072543;0.5870844000019133;0.6567458000063198;0.7873790000012377;1.0956800999992993;0;0;1;0;0.01
10;2;12;44;letter169;letter190;congruent;0.04;letter169;0.09;0.07;fullmask;0.2;arrow_left.png;m;0.2154956000013044;0.2204685999895446;98495.2426566;2.6000052457675338e-06;0.49821170000359416;0.5382310000131838;0.5895789000060176;0.6594877000025008;0.790038100007223;1.008541300005163;0;0;1;0;0.01
10;2;12;45;letter169;letter190;congruent;0.04;letter190;0.09;0.07;fullmask;0.2;arrow_right.png;m;0.24446200000238605;0.25039030000334606;98496.8826719;2.800006768666208e-06;0.4996157999994466;0.5395807000022614;0.5909619000012754;0.66086859999632;0.7914253000053577;1.0399218999955337;0;0;1;0;0.01
10;2;12;46;letter169;letter190;incongruent;0.04;letter169;0.09;0.07;fullmask;0.2;arrow_right.png;c;0.3047549000038998;0.31018450000556186;98498.5946484;2.800006768666208e-06;0.5010035000013886;0.5410520000004908;0.5930064999993192;0.6627793000079691;0.7924339000019245;1.1013967000035336;0;0;1;0;0.01
10;2;12;47;letter169;letter190;congruent;0.04;letter169;0.09;0.07;fullmask;0.2;arrow_left.png;c;0.3658720999956131;0.37005799998587463;98500.3466571;2.800006768666208e-06;0.49554440000792965;0.5355560000025434;0.5873525000060908;0.6572368000051938;0.787803500003065;0.9174597000092035;0;0;0;1;0.01
10;2;12;48;letter169;letter190;incongruent;0.04;letter190;0.09;0.07;fullmask;0.2;arrow_left.png;c;0.2372853999986546;0.24038109999673907;98501.7787582;2.7000060072168708e-06;0.5022656000073766;0.5422854000062216;0.593755499998224;0.664426999996067;0.7940803999954369;1.0325854999973672;0;0;1;0;0.01
10;2;13;1;letter169;letter190;congruent;0.04;letter190;0.09;0.07;fullmask;0.2;arrow_right.png;m;0.14858869998715818;0.14964899999904446;98508.3946585;2.6999914553016424e-06;0.49617359999683686;0.5362042999913683;0.587963400001172;0.6577753000019584;0.7376129000040237;0.7376152999931946;0;1;0;0;0.01
10;2;13;2;letter169;letter190;incongruent;0.04;letter169;0.09;0.07;fullmask;0.2;arrow_right.png;c;0.9459839999908581;0.9503870999906212;98510.5226497;2.6999914553016424e-06;0.49597459999495186;0.5359931999992114;0.5874981999950251;0.657186799988267;0.7878328999941004;0.9174847999966005;0;0;0;1;0.01
10;2;13;3;letter169;letter190;incongruent;0.04;letter169;0.09;0.07;fullmask;0.2;arrow_right.png;c;0.054626199998892844;0.06069939999724738;98511.7626584;2.800006768666208e-06;0.5017690000095172;0.5418241000006674;0.5932979000062915;0.6618864000047324;0.6618897000007564;0.6618920000037178;1;0;0;0;0.01
10;2;13;4;letter169;letter190;incongruent;0.04;letter190;0.09;0.07;fullmask;0.2;arrow_left.png;c;0.12235130000044592;0.13076090000686236;98513.0910949;2.7000060072168708e-06;0.4966316000063671;0.5366501000098651;0.5880559000070207;0.6579562999977497;0.7188254000066081;0.7188335000100778;0;1;0;0;0.01
10;2;13;5;letter169;letter190;congruent;0.04;letter190;0.09;0.07;fullmask;0.2;arrow_right.png;c;0.03270540000812616;0.04004900000290945;98514.3226559;2.6000052457675338e-06;0.5022066000092309;0.5422310000139987;0.5939824000088265;0.6623121000011452;0.6623155000124825;0.6623179000016535;1;0;0;0;0.01
10;2;13;6;letter169;letter190;congruent;0.04;letter169;0.09;0.07;fullmask;0.2;arrow_left.png;m;2.4457037999964086;2.4514447999972617;98517.9867259;2.6999914553016424e-06;0.501941499998793;0.5419509999919683;0.5939845999964746;0.663637599995127;0.7932909999944968;0.9239421999955084;0;0;0;1;0.01
10;2;13;7;letter169;letter190;congruent;0.04;letter169;0.09;0.07;fullmask;0.2;arrow_left.png;m;0.11562490000505932;0.11974399999598972;98519.2986685;2.7000060072168708e-06;0.5025695000076666;0.5426089999964461;0.594305999999051;0.6642120000033174;0.7140496000065468;0.7140522999980021;0;1;0;0;0.01
10;2;13;8;letter169;letter190;incongruent;0.04;letter169;0.09;0.07;fullmask;0.2;arrow_right.png;c;0.32474130000628065;0.33013309999660123;98520.8186714;2.5999906938523054e-06;0.5012425999884726;0.5412830999994185;0.59301989999949;0.6627918999874964;0.7934439999953611;1.1216421999997692;0;0;1;0;0.01
10;2;13;9;letter169;letter190;congruent;0.04;letter190;0.09;0.07;fullmask;0.2;arrow_right.png;c;0.1473715999891283;0.1496593999909237;98522.3626423;2.7000060072168708e-06;0.5032555000070715;0.543261300001177;0.5952623000048334;0.6651631999993697;0.7449210000049789;0.7449235000094632;0;1;0;0;0.01
10;2;13;10;letter169;letter190;congruent;0.04;letter169;0.09;0.07;fullmask;0.2;arrow_left.png;c;0.39830950000032317;0.3998733999906108;98523.9547251;2.7000060072168708e-06;0.5043872999958694;0.5444026000041049;0.5966845999937505;0.6663563000038266;0.7960122999938903;0.9266724000044633;0;0;0;1;0.01
10;2;13;11;letter169;letter190;incongruent;0.04;letter190;0.09;0.07;fullmask;0.2;arrow_left.png;m;0.24038950000249315;0.25051990000065416;98525.3869164;2.5999906938523054e-06;0.5013769999932265;0.5413904000015464;0.5927589999919292;0.6626735999889206;0.793221399988397;1.0417193999892334;0;0;1;0;0.01
10;2;13;12;letter169;letter190;incongruent;0.04;letter190;0.09;0.07;fullmask;0.2;arrow_left.png;m;0.27127099999052007;0.2802629999932833;98527.0587119;2.6999914553016424e-06;0.5019568999996409;0.541990400000941;0.5932055000012042;0.6639719999948284;0.7936263000010513;1.072329599992372;0;0;1;0;0.01
10;2;13;13;letter169;letter190;incongruent;0.04;letter190;0.09;0.07;fullmask;0.2;arrow_left.png;m;0.3933902999997372;0.3998488999932306;98528.8426779;2.7000060072168708e-06;0.5023248000070453;0.5423485000064829;0.5943361000099685;0.6640077000047313;0.7936625000002095;0.9243114999990212;0;0;0;1;0.01
10;2;13;14;letter169;letter190;incongruent;0.04;letter190;0.09;0.07;fullmask;0.2;arrow_left.png;c;0.2821554000111064;0.29010750001179986;98530.3226541;2.800006768666208e-06;0.5040946999943117;0.544120299993665;0.596316700000898;0.666039699994144;0.7956075999973109;1.0844809999980498;0;0;1;0;0.01
10;2;13;15;letter169;letter190;incongruent;0.04;letter169;0.09;0.07;fullmask;0.2;arrow_right.png;c;0.22727540000050794;0.2304082000046037;98531.9387054;2.7000060072168708e-06;0.49757010000757873;0.5375946999993175;0.589629000009154;0.6593942000035895;0.7889587000099709;1.017888700007461;0;0;1;0;0.01
10;2;13;16;letter169;letter190;congruent;0.04;letter190;0.09;0.07;fullmask;0.2;arrow_right.png;m;0.21671010000864044;0.22045259999867994;98533.5387306;2.7000060072168708e-06;0.49550650001037866;0.5355273000022862;0.5871364000049653;0.656830899999477;0.7874775000091176;1.005828500012285;0;0;1;0;0.01
10;2;13;17;letter169;letter190;incongruent;0.04;letter169;0.09;0.07;fullmask;0.2;arrow_right.png;m;0.2555382999998983;0.2602278000122169;98535.1786337;2.7000060072168708e-06;0.5024714000028325;0.542504100012593;0.5941487000091001;0.6638262000051327;0.7944778000091901;1.0528170000034152;0;0;1;0;0.01
10;2;13;18;letter169;letter190;congruent;0.04;letter190;0.09;0.07;fullmask;0.2;arrow_right.png;m;0.27897590000065975;0.28117370000109076;98536.8426873;2.6000052457675338e-06;0.5017189000063809;0.5417637000064133;0.5929332000087015;0.6636085000063758;0.7932641000079457;1.0720647999987705;0;0;1;0;0.01
10;2;13;19;letter169;letter190;congruent;0.04;letter169;0.09;0.07;fullmask;0.2;arrow_left.png;c;0.27926350000780076;0.2801735000102781;98538.5147101;2.800006768666208e-06;0.4970208000013372;0.5370471000060206;0.5889220000099158;0.6586016000073869;0.7892481000017142;1.0674030000081984;0;0;1;0;0.01
10;2;13;20;letter169;letter190;incongruent;0.04;letter169;0.09;0.07;fullmask;0.2;arrow_right.png;c;0.2728382000059355;0.28036489999794867;98540.1788186;2.6000052457675338e-06;0.5009177000029013;0.5409331999981077;0.5922723999974551;0.662216199998511;0.7927343000046676;1.0712893000018084;0;0;1;0;0.01
10;2;13;21;letter169;letter190;incongruent;0.04;letter190;0.09;0.07;fullmask;0.2;arrow_left.png;c;0.3855201999976998;0.3909717000060482;98541.9627103;2.7000060072168708e-06;0.4966757000074722;0.5367120000009891;0.5881695000134641;0.6579303000034997;0.7885855000058655;0.9182471000094665;0;0;0;1;0.01
10;2;13;22;letter169;letter190;congruent;0.04;letter169;0.09;0.07;fullmask;0.2;arrow_left.png;c;0.2119098999974085;0.21947179999551736;98543.3706433;2.6999914553016424e-06;0.5044934000034118;0.5444816999952309;0.5964784999960102;0.666379499991308;0.7959442999999737;1.014781199992285;0;0;1;0;0.01
10;2;13;23;letter169;letter190;congruent;0.04;letter169;0.09;0.07;fullmask;0.2;arrow_left.png;c;0.29166829999303445;0.3011186999938218;98545.0506415;2.6999914553016424e-06;0.4965325999946799;0.5365556999895489;0.5877446999948006;0.6585084999969695;0.7880743999994593;1.0869120999996085;0;0;1;0;0.01
10;2;13;24;letter169;letter190;congruent;0.04;letter190;0.09;0.07;fullmask;0.2;arrow_right.png;m;0.34431420000328217;0.35011970000050496;98546.7946468;2.6999914553016424e-06;0.49705449999601115;0.5370636000006925;0.5885410999908345;0.6589929000037955;0.7890024999942398;0.918653999993694;0;0;0;1;0.01
10;2;13;25;letter169;letter190;incongruent;0.04;letter190;0.09;0.07;fullmask;0.2;arrow_left.png;m;0.2507123999967007;0.2602361000026576;98548.2426397;2.6000052457675338e-06;0.5050431999989087;0.5450662000075681;0.5971598000032827;0.6668548000016017;0.7965156999998726;1.0554138000006787;0;0;1;0;0.01
10;2;13;26;letter169;letter190;incongruent;0.04;letter169;0.09;0.07;fullmask;0.2;arrow_right.png;m;0.2976162999984808;0.30012269999133423;98549.9306451;2.7000060072168708e-06;0.5037473000120372;0.5437908000021707;0.5959078000014415;0.6655862000043271;0.7952411000005668;1.0941300000122283;0;0;1;0;0.01
10;2;13;27;letter169;letter190;congruent;0.04;letter169;0.09;0.07;fullmask;0.2;arrow_left.png;m;0.20053200000256766;0.20945650000066962;98551.5146543;2.5999906938523054e-06;0.49658269999781623;0.5366080999956466;0.5887261999887414;0.6584998999896925;0.7881581999972695;0.9968839999928605;0;0;1;0;0.01
10;2;13;28;letter169;letter190;incongruent;0.04;letter190;0.09;0.07;fullmask;0.2;arrow_left.png;m;0.242345499995281;0.25025660000392236;98553.1466827;2.6999914553016424e-06;0.5008857999928296;0.5408982999942964;0.5922331999900052;0.6630020000011427;0.7925619000016013;1.0412280000018654;0;0;1;0;0.01
10;2;13;29;letter169;letter190;incongruent;0.04;letter190;0.09;0.07;fullmask;0.2;arrow_left.png;m;0.28313719999277964;0.2902396999998018;98554.8186452;2.6999914553016424e-06;0.4983986000006553;0.5384195999940857;0.589859499988961;0.6595493999921018;0.7902870999969309;1.0787524999905145;0;0;1;0;0.01
10;2;13;30;letter169;letter190;congruent;0.04;letter169;0.09;0.07;fullmask;0.2;arrow_left.png;c;0.14012200001161546;0.14041800000995863;98556.3467167;2.6999914553016424e-06;0.4971181000000797;0.5371525999944424;0.5886230999894906;0.6592697999876691;0.7290351999981795;0.7290376999881119;0;1;0;0;0.01
10;2;13;31;letter169;letter190;incongruent;0.04;letter169;0.09;0.07;fullmask;0.2;arrow_right.png;c;0.2593697000120301;0.2603655999992043;98557.7866402;2.5999906938523054e-06;0.4989056999911554;0.5389494999981252;0.590229299996281;0.6610397999902489;0.79069479998725;1.0492641999881016;0;0;1;0;0.01
10;2;13;32;letter169;letter190;incongruent;0.04;letter169;0.09;0.07;fullmask;0.2;arrow_right.png;c;0.34634160000132397;0.35098370000196155;98559.514639;2.5999906938523054e-06;0.49973389999649953;0.5397627999918768;0.5910310999897774;0.6617935999965994;0.7913602999906288;0.9220092000032309;0;0;0;1;0.01
10;2;13;33;letter169;letter190;incongruent;0.04;letter190;0.09;0.07;fullmask;0.2;arrow_left.png;m;0.3185664999909932;0.3200646000041161;98561.0186455;2.6000052457675338e-06;0.49566909999703057;0.5357230000081472;0.5877642999985255;0.6574420999968424;0.787090600002557;1.1060780999978306;0;0;1;0;0.01
10;2;13;34;letter169;letter190;congruent;0.04;letter169;0.09;0.07;fullmask;0.2;arrow_left.png;c;0.4246792999911122;0.4309761999902548;98562.8351594;2.6999914553016424e-06;0.5005715000006603;0.5405943999940064;0.5919647999980953;0.6627528999961214;0.7923873999970965;0.9220427999971434;0;0;0;1;0.01
10;2;13;35;letter169;letter190;congruent;0.04;letter190;0.09;0.07;fullmask;0.2;arrow_right.png;m;0.2613184999936493;0.2704416999913519;98564.2827974;2.7000060072168708e-06;0.4955315000115661;0.535526600011508;0.5868800000025658;0.6567815000016708;0.7873432000051253;1.055876200000057;0;0;1;0;0.01
10;2;13;36;letter169;letter190;incongruent;0.04;letter190;0.09;0.07;fullmask;0.2;arrow_left.png;c;0.3616115000040736;0.36992720000853296;98566.0346401;2.6000052457675338e-06;0.5043210000003455;0.5443609000067227;0.5961690000112867;0.6658391000091797;0.7964915000047768;0.9261444000003394;0;0;0;1;0.01
10;2;13;37;letter169;letter190;congruent;0.04;letter190;0.09;0.07;fullmask;0.2;arrow_right.png;m;0.23299129999941215;0.24041589999978896;98567.4666787;2.6999914553016424e-06;0.501350899998215;0.5413737000053516;0.5928586999943946;0.6627599000057671;0.7933233999938238;1.031700199993793;0;0;1;0;0.01
10;2;13;38;letter169;letter190;incongruent;0.04;letter190;0.09;0.07;fullmask;0.2;arrow_left.png;m;0.27610899999854155;0.28017659999022726;98569.1306436;2.800006768666208e-06;0.5013820000021951;0.5414006000064546;0.5926795999985188;0.6633551999984775;0.793009200002416;1.071736099998816;0;0;1;0;0.01
10;2;13;39;letter169;letter190;congruent;0.04;letter169;0.09;0.07;fullmask;0.2;arrow_left.png;c;0.2610270000004675;0.2702904000034323;98570.786654;2.6000052457675338e-06;0.49719829999958165;0.5372206000029109;0.5885320000088541;0.6593132999987574;0.7889546000078553;1.0575621000025421;0;0;1;0;0.01
10;2;13;40;letter169;letter190;congruent;0.04;letter190;0.09;0.07;fullmask;0.2;arrow_right.png;m;0.26604969998879824;0.2704383999953279;98572.4426899;2.9999937396496534e-06;0.49867629999062046;0.5386962999909883;0.5899556999938795;0.6608665999956429;0.7904264999961015;1.0590274999995017;0;0;1;0;0.01
10;2;13;41;letter169;letter190;congruent;0.04;letter169;0.09;0.07;fullmask;0.2;arrow_left.png;c;0.35902859999623615;0.36095529999875;98574.1866354;3.000008291564882e-06;0.5000757000088925;0.5401224000088405;0.5912611999956425;0.6619347999949241;0.7915878000058001;0.9222367000038503;0;0;0;1;0.01
10;2;13;42;letter169;letter190;congruent;0.04;letter190;0.09;0.07;fullmask;0.2;arrow_right.png;m;0.2551640000019688;0.2593232000072021;98575.6346504;2.6000052457675338e-06;0.5032465000113007;0.5432354000076884;0.5952838000084739;0.6650578000117093;0.7947112000110792;1.0535707000090042;0;0;1;0;0.01
10;2;13;43;letter169;letter190;incongruent;0.04;letter169;0.09;0.07;fullmask;0.2;arrow_right.png;m;0.2526011000009021;0.2603570000064792;98577.2826867;2.6999914553016424e-06;0.49583359999815;0.5359012999979313;0.5874832999979844;0.657379199998104;0.7879405999992741;1.0462372999900253;0;0;1;0;0.01
10;2;13;44;letter169;letter190;incongruent;0.04;letter169;0.09;0.07;fullmask;0.2;arrow_right.png;m;0.27579500000865664;0.2802351999998791;98578.9466778;2.6000052457675338e-06;0.5010022000060417;0.5410464000015054;0.5923561000090558;0.6630936000001384;0.7927630000049248;1.0713675000006333;0;0;1;0;0.01
10;2;13;45;letter169;letter190;congruent;0.04;letter190;0.09;0.07;fullmask;0.2;arrow_right.png;m;0.23552180000115186;0.23972569999750704;98580.5786759;2.6999914553016424e-06;0.49702789999719243;0.5370567999925697;0.5895807999913814;0.6586833999899682;0.789349399987259;1.02738459999091;0;0;1;0;0.01
10;2;13;46;letter169;letter190;congruent;0.04;letter169;0.09;0.07;fullmask;0.2;arrow_left.png;c;0.3337013999989722;0.3410109999967972;98582.3066732;2.5999906938523054e-06;0.5038216999964789;0.5438485999911791;0.5951307999930577;0.6658042999915779;0.7954587999993237;0.9261113999964437;0;0;0;1;0.01
10;2;13;47;letter169;letter190;incongruent;0.04;letter169;0.09;0.07;fullmask;0.2;arrow_right.png;m;0.34789650001039263;0.3499885000055656;98583.842694;2.6000052457675338e-06;0.4996255000005476;0.539643399999477;0.591788000005181;0.6615545999957249;0.791119700006675;0.9217699000000721;0;0;0;1;0.01
10;2;13;48;letter169;letter190;congruent;0.04;letter190;0.09;0.07;fullmask;0.2;arrow_right.png;m;0.26355180000246037;0.2703361000021687;98585.2986455;2.6999914553016424e-06;0.4962591999938013;0.5362820000009378;0.5877369999943767;0.6576379999896744;0.7882008000015048;1.0566163999901619;0;0;1;0;0.01
