subjnr;loop_m;blocknr;trialnr;cue_left_learn;cue_right_learn;option_up;option_down;practice;motivation; congruence;cue_dur;cue;SOA;mask_dur;mask;target_dur;target;response;RT;kb_rt;response_absolute;response_target;RT_target;kb_rt_target;response_absolute_target; fix_onset;cue_onset;cue_offset;mask_onset;mask_offset;target_offset;blank_onset;frame_dur
4;1;9;1;letter181;letter357;letter181;letter357;0;0;incongruent;0.04;letter357;0.05;0.07;fullmask;0.2;arrow_left.png;up;0.811423900000591;0.8198056000001088;9610.665803;c;1.40717930000028;1.4112779000006412;9612.2817664;2.5000008463393897e-06;0.5004616000005626;0.5404748000000836;0.550481199999922;0.6205212000004394;0.7505837000007887;0.8806893000000855;0.01
4;1;9;2;letter181;letter357;letter181;letter357;0;0;congruent;0.04;letter357;0.05;0.07;fullmask;0.2;arrow_right.png;up;1.1635170000008657;1.1709181000005628;9614.929803;m;0.5122040000005654;0.5206460999997944;9615.649926;2.4000000848900527e-06;0.5030585000004066;0.543096900000819;0.553082300000824;0.6231141000007483;0.753201600000466;0.8833054999995511;0.01
4;1;9;3;letter181;letter357;letter181;letter357;0;0;congruent;0.04;letter357;0.05;0.07;fullmask;0.2;arrow_right.png;down;0.8049663000001601;0.810765000000174;9617.9537888;m;0.752231499998743;0.7580239999988407;9618.7137601;2.4000000848900527e-06;0.49908350000077917;0.539104600000428;0.5491079000003083;0.6191546000009112;0.7492242000007536;0.8793289000004734;0.01
4;1;9;4;letter181;letter357;letter181;letter357;0;0;incongruent;0.04;letter357;0.05;0.07;fullmask;0.2;arrow_left.png;down;0.45763829999850714;0.4608269000000291;9620.6578858;c;0.4187380999992456;0.42793859999983397;9621.0817546;2.2999993234407157e-06;0.49625120000018796;0.5362988999986555;0.54631259999951;0.6163373999988835;0.7464290999996592;0.8765460999984498;0.01
4;1;9;5;letter181;letter357;letter181;letter357;0;0;incongruent;0.04;letter181;0.05;0.07;fullmask;0.2;arrow_right.png;down;1.0933487999991485;1.1000757999991038;9623.6657817;m;0.1287811000001966;0.1298172999995586;9624.0018287;2.4000000848900527e-06;0.5024665000000823;0.5424817000002804;0.5524970999995276;0.622532899998987;0.7526115000000573;0.882703199999014;0.01
4;1;9;6;letter181;letter357;letter181;letter357;0;0;congruent;0.04;letter181;0.05;0.07;fullmask;0.2;arrow_left.png;up;0.8699534000006679;0.8707343000005494;9626.3537741;c;0.7172131999996054;0.7191249000006792;9627.0737082;2.4000000848900527e-06;0.49628429999938817;0.5363036999988253;0.5463033999985782;0.6163551999998163;0.7464342000002944;0.8765303999989555;0.01
4;1;9;7;letter181;letter357;letter181;letter357;0;0;congruent;0.04;letter181;0.05;0.07;fullmask;0.2;arrow_left.png;up;0.5257870000004914;0.5305780999988201;9629.0817834;c;0.5373153000000457;0.538615800000116;9629.6258293;2.499999027349986e-06;0.49940539999988687;0.5394393999995373;0.5494435000000522;0.6194600999988324;0.7496245999991515;0.8796457999997074;0.01
4;1;9;8;letter181;letter357;letter181;letter357;0;0;congruent;0.04;letter181;0.05;0.07;fullmask;0.2;arrow_left.png;down;0.9020307999999204;0.9105909999998403;9632.0099283;c;0.3430960000005143;0.3501157000009698;9632.5619898;2.4000000848900527e-06;0.5018306999991182;0.5418488999985129;0.5518553000001702;0.6218885999987833;0.7519732999990083;0.8820722000000387;0.01
4;1;9;9;letter181;letter357;letter181;letter357;0;1;congruent;0.12;letter357;0.14;0.07;fullmask;0.2;arrow_right.png;down;0.5900968999994802;0.5902588000008109;9634.7298306;m;0.5178181999999651;0.5186653999990085;9635.2498371;2.4000000848900527e-06;0.5033794000009948;0.6234456000001956;0.6434558000000834;0.7134970999995858;0.8435777000013331;0.9736735000005865;0.01
4;1;9;10;letter181;letter357;letter181;letter357;0;0;incongruent;0.04;letter181;0.05;0.07;fullmask;0.2;arrow_right.png;up;0.44661509999968985;0.4508083999990049;9637.1778462;m;0.48980680000022403;0.49772379999922123;9637.673784;2.4000000848900527e-06;0.501452500000596;0.5414698999993561;0.5514641999998275;0.6215195000004314;0.7515827000006539;0.8816917999993166;0.01
4;1;9;11;letter181;letter357;letter181;letter357;0;0;incongruent;0.04;letter181;0.05;0.07;fullmask;0.2;arrow_right.png;up;0.5052256999988458;0.5107915999997203;9639.6579176;m;0.4964981000011903;0.49884040000142704;9640.161818;2.4000000848900527e-06;0.49707240000134334;0.5370960000000196;0.5470946000004915;0.617122700001346;0.7472097999998368;0.8772939000009501;0.01
4;1;9;12;letter181;letter357;letter181;letter357;0;0;congruent;0.04;letter357;0.05;0.07;fullmask;0.2;arrow_right.png;down;0.7018279999992956;0.7111117999993439;9642.345903;m;0.40465280000171333;0.4079635000016424;9642.7617793;2.4000000848900527e-06;0.500544100001207;0.5405511999997543;0.5505812999999762;0.6206093000000692;0.7506872000012663;0.8807839000000968;0.01
4;1;9;13;letter181;letter357;letter181;letter357;0;0;incongruent;0.04;letter357;0.05;0.07;fullmask;0.2;arrow_left.png;up;0.6031147000012425;0.6103804000013042;9644.8497891;c;0.23322600000028615;0.24037379999936093;9645.2897279;2.499999027349986e-06;0.5012853999996878;0.5413375999996788;0.5513169000005291;0.6213513999991847;0.751430899999832;0.8815429000005679;0.01
4;1;9;14;letter181;letter357;letter181;letter357;0;0;congruent;0.04;letter181;0.05;0.07;fullmask;0.2;arrow_left.png;up;0.75231679999888;0.7611152999998012;9647.5297777;c;0.41322649999892747;0.41794149999986985;9647.9537393;2.4000000848900527e-06;0.5058650999999372;0.5458899000004749;0.5558743000001414;0.6259362000000692;0.7559904000008828;0.886096300000645;0.01
4;1;9;15;letter181;letter357;letter181;letter357;0;0;congruent;0.04;letter357;0.05;0.07;fullmask;0.2;arrow_right.png;down;0.2925350999994407;0.30021660000056727;9649.7617734;m;0.4943511999990733;0.49871969999912835;9650.2657427;2.4000000848900527e-06;0.5025669999995444;0.5425914999996166;0.5525964000007662;0.6226282999996329;0.7527337000010448;0.8828289000011864;0.01
4;1;9;16;letter181;letter357;letter181;letter357;0;0;incongruent;0.04;letter181;0.05;0.07;fullmask;0.2;arrow_right.png;down;0.6992105000008451;0.701141200001075;9652.4497766;m;0.29449579999891284;0.300276699999813;9652.9457498;2.2999993234407157e-06;0.49733829999968293;0.5373431999996683;0.5473528999991686;0.6173956000002363;0.7474770999997418;0.8775925999998435;0.01
4;1;9;17;letter181;letter357;letter181;letter357;0;0;congruent;0.04;letter181;0.05;0.07;fullmask;0.2;arrow_left.png;down;0.7453929999992397;0.7510497999992367;9655.1777806;c;0.21002880000014557;0.21946750000097381;9655.5939714;2.4000000848900527e-06;0.4952510999992228;0.5352626000003511;0.5452771999989636;0.6153149000001576;0.7453951999996207;0.8754986000003555;0.01
4;1;9;18;letter181;letter357;letter181;letter357;0;0;incongruent;0.04;letter181;0.05;0.07;fullmask;0.2;arrow_right.png;up;0.6055771999999706;0.6104357000003802;9657.6897665;m;0.4332205000009708;0.4388369000007515;9658.129779;2.499999027349986e-06;0.5059958000001643;0.5460129999992205;0.5560144999999466;0.6260571999991953;0.7561390999999276;0.8862404999999853;0.01
4;1;9;19;letter181;letter357;letter181;letter357;0;0;incongruent;0.04;letter357;0.05;0.07;fullmask;0.2;arrow_left.png;down;0.46795120000024326;0.47080129999994824;9660.0737765;c;0.4511869999987539;0.4584943999998359;9660.5297559;2.499999027349986e-06;0.49633969999922556;0.5363575999999739;0.546376499998587;0.6164021999993565;0.7464906999994128;0.8765852999986237;0.01
4;1;9;20;letter181;letter357;letter181;letter357;0;0;incongruent;0.04;letter357;0.05;0.07;fullmask;0.2;arrow_left.png;down;0.6225248999999167;0.6304760999992141;9662.6499631;c;0.4300823000012315;0.4389798000011069;9663.0898278;2.499999027349986e-06;0.504935299999488;0.5449472999989666;0.5549681999982568;0.6249926999989839;0.7550883999992948;0.8851695999983349;0.01
4;1;9;21;letter181;letter357;letter181;letter357;0;0;congruent;0.04;letter357;0.05;0.07;fullmask;0.2;arrow_right.png;down;0.4947489999995014;0.5006751999990229;9665.0737498;m;0.3761380999985704;0.37862609999865526;9665.4577557;2.4000000848900527e-06;0.5022252999988268;0.5422363999987283;0.5522557000003872;0.6222846000000573;0.7523822000002838;0.8824625999986893;0.01
4;1;9;22;letter181;letter357;letter181;letter357;0;1;incongruent;0.12;letter181;0.14;0.07;fullmask;0.2;arrow_right.png;up;0.5233838999993168;0.5306393000009848;9667.553761;m;0.4468166000006022;0.4488584000009723;9668.009768;2.5000008463393897e-06;0.5034979000010935;0.6235814000010578;0.6435756999999285;0.7136067000010371;0.843695800000205;0.9737994999995863;0.01
4;1;9;23;letter181;letter357;letter181;letter357;0;0;congruent;0.04;letter357;0.05;0.07;fullmask;0.2;arrow_right.png;down;0.4777549000009458;0.48087020000093617;9669.9698088;m;0.36307029999989027;0.36805160000039905;9670.3378332;2.5000008463393897e-06;0.5007719000004727;0.5407797999996546;0.5507907999999588;0.6208459999998013;0.7509176000003208;0.8810131999998703;0.01
4;1;9;24;letter181;letter357;letter181;letter357;0;0;incongruent;0.04;letter181;0.05;0.07;fullmask;0.2;arrow_right.png;up;0.47432470000057947;0.4807282000001578;9672.2977754;m;0.3516280999992887;0.3580961000006937;9672.6577482;2.4000000848900527e-06;0.4967655000000377;0.5367676000005304;0.5467943999992713;0.6168204000005062;0.7469060000003083;0.8770179000002827;0.01
4;1;9;25;letter181;letter357;letter181;letter357;0;0;incongruent;0.04;letter357;0.05;0.07;fullmask;0.2;arrow_left.png;up;0.8704975999989983;0.8706782999997813;9675.0258351;c;0.19119590000082098;0.19950420000168378;9675.4177399;2.5000008463393897e-06;0.5053269;0.5453453000009176;0.5553502000002482;0.6253833000009763;0.7554696000006516;0.8855672999998205;0.01
4;1;9;26;letter181;letter357;letter181;letter357;0;0;congruent;0.04;letter181;0.05;0.07;fullmask;0.2;arrow_left.png;up;0.5986456999999064;0.6005179000003409;9677.5057119;c;0.38825120000001334;0.39799259999927017;9677.8977575;2.3000011424301192e-06;0.502663000001121;0.5426943000002211;0.5526910000007774;0.6227233999998134;0.7528082000007998;0.882914100000562;0.01
4;1;9;27;letter181;letter357;letter181;letter357;0;0;incongruent;0.04;letter357;0.05;0.07;fullmask;0.2;arrow_left.png;down;0.4530168999990565;0.4597016999996413;9679.842034;c;0.40721269999994547;0.4089559999993071;9680.2578732;2.599999788799323e-06;0.4954622000004747;0.5354796999999962;0.5455007000000478;0.6155211000004783;0.7456223999997746;0.8757046999999147;0.01
4;1;9;28;letter181;letter357;letter181;letter357;0;0;incongruent;0.04;letter181;0.05;0.07;fullmask;0.2;arrow_right.png;down;0.6218239999998332;0.6303749999988213;9682.3617474;m;0.1749854999998206;0.1805304999998043;9682.7457301;2.4000000848900527e-06;0.4996068999989802;0.5396240999998554;0.5496464999996533;0.6196829999989859;0.7497728999987885;0.8798514999998588;0.01
4;1;9;29;letter181;letter357;letter181;letter357;0;0;incongruent;0.04;letter181;0.05;0.07;fullmask;0.2;arrow_right.png;up;0.49787669999932405;0.5007162000001699;9684.7297415;m;0.4031689000003098;0.40796550000050047;9685.1376872;2.5000008463393897e-06;0.5030808999999863;0.5431125000013708;0.5531284999997297;0.6231425000005402;0.7532244000012724;0.8833293999996386;0.01
4;1;9;30;letter181;letter357;letter181;letter357;0;0;incongruent;0.04;letter357;0.05;0.07;fullmask;0.2;arrow_left.png;up;2.984183500000654;2.992061000000831;9689.6177587;c;0.39191659999960393;0.39999409999836644;9690.2178024;2.7999994927085936e-06;0.5054670000008628;0.5454984000007244;0.5554989000011119;0.625519200000781;0.7556110999994416;0.8857055999997101;0.01
4;1;9;31;letter181;letter357;letter181;letter357;0;0;congruent;0.04;letter181;0.05;0.07;fullmask;0.2;arrow_left.png;up;0.5755126000003656;0.5804668000000675;9692.2817601;c;0.42505870000059076;0.42890190000071016;9692.7137188;2.2999993234407157e-06;0.49857349999911094;0.5385623000001942;0.54855359999965;0.6186228999995365;0.7486926999990828;0.8788067999994382;0.01
4;1;9;32;letter181;letter357;letter181;letter357;0;0;congruent;0.04;letter181;0.05;0.07;fullmask;0.2;arrow_left.png;up;0.5874622999999701;0.5905789000007644;9694.7858021;c;0.44306030000007013;0.4478051999994932;9695.2338158;2.9000002541579306e-06;0.49687530000119295;0.5368820000003325;0.5469004000005953;0.6169531000014103;0.7470147000003635;0.877115600000252;0.01
4;1;9;33;letter181;letter357;letter181;letter357;0;0;congruent;0.04;letter357;0.05;0.07;fullmask;0.2;arrow_right.png;down;0.4019834999999148;0.40991769999891403;9697.121762;m;0.43016050000005635;0.4388782000005449;9697.5617993;2.4000000848900527e-06;0.5009499999996478;0.5409670000008191;0.5509775999998965;0.6210028000004968;0.7510990999999194;0.881194300000061;0.01
4;1;9;34;letter181;letter357;letter181;letter357;0;0;congruent;0.04;letter357;0.05;0.07;fullmask;0.2;arrow_right.png;down;0.5439971999985573;0.5504718999982288;9699.5857585;m;0.5035755000008066;0.5076757999995607;9700.0977481;2.4000000848900527e-06;0.497399800000494;0.5374090000004799;0.5473963000004005;0.6174425999997766;0.7475338999993255;0.8776330000000598;0.01
4;1;9;35;letter181;letter357;letter181;letter357;0;1;incongruent;0.12;letter357;0.14;0.07;fullmask;0.2;arrow_left.png;down;0.4087470000013127;0.40982870000152616;9702.0818333;c;0.4369005999997171;0.438867200000459;9702.5217719;2.2999993234407157e-06;0.49895269999979064;0.6190138000001753;0.639049100000193;0.7090686999999889;0.8391431000000011;0.9692704999997659;0.01
4;1;9;36;letter181;letter357;letter181;letter357;0;0;incongruent;0.04;letter181;0.05;0.07;fullmask;0.2;arrow_right.png;up;0.5416731999994226;0.550634799999898;9704.5459978;m;0.33314810000047146;0.338182900000902;9704.889942;2.4000000848900527e-06;0.5008151000001817;0.5408371000012266;0.5508415000003879;0.6208873000014137;0.7509631000011723;0.8810644000004686;0.01
4;1;9;37;letter181;letter357;letter181;letter357;0;0;congruent;0.04;letter357;0.05;0.07;fullmask;0.2;arrow_right.png;up;0.5952649999999267;0.6004549999997835;9706.9617555;m;0.17122620000009192;0.18043780000152765;9707.3377147;2.4000000848900527e-06;0.49728309999954945;0.5372975999998744;0.5473094999997556;0.617339999998876;0.7474325999992288;0.8775219999988622;0.01
4;1;9;38;letter181;letter357;letter181;letter357;0;0;congruent;0.04;letter181;0.05;0.07;fullmask;0.2;arrow_left.png;up;0.45401510000010603;0.459818000001178;9709.2817411;c;0.36823329999970156;0.369069500000478;9709.6577169;2.599999788799323e-06;0.501144399999248;0.5411547000003338;0.551158199999918;0.6212097999996331;0.751270900000236;0.8813848999998299;0.01
4;1;9;39;letter181;letter357;letter181;letter357;0;0;incongruent;0.04;letter357;0.05;0.07;fullmask;0.2;arrow_left.png;down;0.4170168000000558;0.42103339999994205;9711.5458091;c;0.35413080000034824;0.3581931999997323;9711.9057905;2.4000000848900527e-06;0.4966784000007465;0.5367031000005227;0.5467212000003201;0.6167392999996082;0.7468293000001722;0.8769037000001845;0.01
4;1;9;40;letter181;letter357;letter181;letter357;0;0;incongruent;0.04;letter181;0.05;0.07;fullmask;0.2;arrow_right.png;up;0.5734377000007953;0.5805273999994824;9713.9538066;m;0.35092400000030466;0.35809320000043954;9714.3137396;2.2999993234407157e-06;0.49635379999926954;0.5363739999993413;0.5463834000001953;0.6164138999993156;0.7465006999991601;0.8765770999998495;0.01
4;1;9;41;letter181;letter357;letter181;letter357;0;0;incongruent;0.04;letter181;0.05;0.07;fullmask;0.2;arrow_right.png;up;0.5680477999994764;0.5705154000006587;9716.3698954;m;0.3477210000000923;0.3481772000013734;9716.7219307;2.2999993234407157e-06;0.4989439000000857;0.5389654999999038;0.5489710000001651;0.619016399999964;0.749087000000145;0.8791744999998627;0.01
4;1;9;42;letter181;letter357;letter181;letter357;0;0;congruent;0.04;letter181;0.05;0.07;fullmask;0.2;arrow_left.png;up;0.5039474000004702;0.5097014000002673;9718.6977594;c;0.3042433999999048;0.3092274999999063;9719.0096919;2.4000000848900527e-06;0.5007670000013604;0.5408124000005046;0.5507895999999164;0.6208316000011109;0.7509052000004885;0.8810155999999552;0.01
4;1;9;43;letter181;letter357;letter181;letter357;0;0;congruent;0.04;letter357;0.05;0.07;fullmask;0.2;arrow_right.png;down;0.4362522999999783;0.439748700000564;9720.9217565;m;0.33052150000003166;0.3381539000001794;9721.2577058;2.4000000848900527e-06;0.5005388999998104;0.5405591999988246;0.5505567000000156;0.6206180999997741;0.7506882999987283;0.8807829999987007;0.01
4;1;9;44;letter181;letter357;letter181;letter357;0;0;incongruent;0.04;letter181;0.05;0.07;fullmask;0.2;arrow_right.png;up;0.5095480999989377;0.5107970999997633;9723.2658117;m;0.3811588999997184;0.3881172000001243;9723.65005;2.5000008463393897e-06;0.5032253000008495;0.5432104999999865;0.5532481000009284;0.6232801000005566;0.753356299999723;0.8834466999996948;0.01
4;1;9;45;letter181;letter357;letter181;letter357;0;0;congruent;0.04;letter357;0.05;0.07;fullmask;0.2;arrow_right.png;up;0.5679575000012846;0.5705361000000266;9725.7057483;m;0.18900880000001052;0.18949650000104157;9726.0977756;2.4000000848900527e-06;0.49647969999932684;0.5364841999999044;0.5465019999992364;0.6165373000003456;0.7466205999990052;0.8767188000001624;0.01
4;1;9;46;letter181;letter357;letter181;letter357;0;1;congruent;0.12;letter181;0.14;0.07;fullmask;0.2;arrow_left.png;up;0.5243927999999869;0.5306400999998004;9728.1937423;c;0.32783460000064224;0.3280954000001657;9728.5297589;2.4000000848900527e-06;0.5023445000006177;0.6224127000004955;0.6424161000013555;0.7124480000002222;0.8425334000003204;0.9726349000011396;0.01
4;1;9;47;letter181;letter357;letter181;letter357;0;0;incongruent;0.04;letter357;0.05;0.07;fullmask;0.2;arrow_left.png;down;0.6869349999997212;0.6912786000011693;9730.6978429;c;0.3698644999985845;0.3781227999988914;9731.0739143;2.2999993234407157e-06;0.4998364999992191;0.5398578999993333;0.5498661999990873;0.6199053999989701;0.7499845999991521;0.8800890000002255;0.01
4;1;9;48;letter181;letter357;letter181;letter357;0;0;congruent;0.04;letter181;0.05;0.07;fullmask;0.2;arrow_left.png;up;0.45321010000043316;0.4608275999999023;9733.025744;c;0.40642639999896346;0.40795859999889217;9733.4417275;2.499999027349986e-06;0.504170799998974;0.5441953999998077;0.5541911999989679;0.6242330000004586;0.7543028999989474;0.8844231000002765;0.01
4;1;9;49;letter181;letter357;letter181;letter357;0;0;incongruent;0.04;letter357;0.05;0.07;fullmask;0.2;arrow_left.png;up;0.6930747999995219;0.7002334999997402;9735.6177307;c;0.18440740000005462;0.18951430000015534;9736.0096944;2.4000000848900527e-06;0.5008887000003597;0.5409094000006007;0.5509098000002268;0.6209543999993912;0.7510251000003336;0.8811310000000958;0.01
4;1;9;50;letter181;letter357;letter181;letter357;0;0;incongruent;0.04;letter357;0.05;0.07;fullmask;0.2;arrow_left.png;down;0.3854492999998911;0.3899729999993724;9737.8817332;c;0.34555089999958;0.3481197000000975;9738.2337482;2.70000055024866e-06;0.5021900000010646;0.5422135000007984;0.5521962000002532;0.6222424999996292;0.7522924999993847;0.8824356000004627;0.01
4;1;9;51;letter181;letter357;letter181;letter357;0;0;congruent;0.04;letter181;0.05;0.07;fullmask;0.2;arrow_left.png;up;0.44239659999948344;0.45072479999907955;9740.1699372;c;0.2935027000003174;0.2982517000000371;9740.4737086;2.4000000848900527e-06;0.501637600000322;0.5416549000001396;0.5516588000009506;0.6217030000007071;0.751792100001694;0.8818938000003982;0.01
4;1;9;52;letter181;letter357;letter181;letter357;0;0;congruent;0.04;letter357;0.05;0.07;fullmask;0.2;arrow_right.png;up;0.5931521999991674;0.6004523999999947;9742.5616825;m;0.06422100000054343;0.06982590000006894;9742.8336483;2.200000380980782e-06;0.5028721999988193;0.5429105000002892;0.5528924999998708;0.6229353999988234;0.7530131000003166;0.8831381999989389;0.01
4;1;10;1;letter181;letter357;letter181;letter357;0;0;congruent;0.04;letter181;0.05;0.07;fullmask;0.2;arrow_left.png;down;0.4810343000008288;0.48978080000051705;9747.9937205;c;0.09479839999949036;0.09974340000007942;9748.2977127;2.4000000848900527e-06;0.5032137999987754;0.5432370999988052;0.5532480999991094;0.623290999999881;0.7533641999998508;0.8834736999997403;0.01
4;1;10;2;letter181;letter357;letter181;letter357;0;0;congruent;0.04;letter181;0.05;0.07;fullmask;0.2;arrow_left.png;up;0.4736460999993142;0.47972029999982624;9750.2577121;c;0.38400929999988875;0.38901979999900504;9750.6497356;2.6000016077887267e-06;0.5018221999998786;0.5418272000006255;0.5518200000005891;0.6218619999999646;0.7519503000003169;0.8820543000001635;0.01
4;1;10;3;letter181;letter357;letter181;letter357;0;0;incongruent;0.04;letter181;0.05;0.07;fullmask;0.2;arrow_right.png;up;0.34576080000078946;0.35008320000088133;9752.481723;m;0.3937177000007068;0.39797770000041055;9752.881713;2.9000002541579306e-06;0.5026393000007374;0.5426657000007253;0.5526749000000564;0.6227138000012928;0.7528027999996993;0.8828897000003053;0.01
4;1;10;4;letter181;letter357;letter181;letter357;0;0;incongruent;0.04;letter181;0.05;0.07;fullmask;0.2;arrow_right.png;up;0.4373856000001979;0.4408856000009109;9754.7938201;m;0.3065411999996286;0.3082345000002533;9755.1057964;2.4000000848900527e-06;0.4967701000005036;0.5367805000005319;0.546801399999822;0.6168208999988565;0.7469215000000986;0.8770007999992231;0.01
4;1;10;5;letter181;letter357;letter181;letter357;0;0;congruent;0.04;letter357;0.05;0.07;fullmask;0.2;arrow_right.png;up;0.5657443000000058;0.5706501000004209;9757.1538338;m;0.1385162999995373;0.139542299999448;9757.4976885;2.4000000848900527e-06;0.5051351999991311;0.5451549999997951;0.5551553999994212;0.6251980999986699;0.7552927999986423;0.8853800999986561;0.01
4;1;10;6;letter181;letter357;letter181;letter357;0;0;congruent;0.04;letter357;0.05;0.07;fullmask;0.2;arrow_right.png;up;0.5239526000004844;0.5306413000016619;9759.5137196;m;0.13680049999857147;0.1395591999989847;9759.8577125;2.4000000848900527e-06;0.505164700000023;0.5451898999999685;0.5551976999995532;0.6252244999996037;0.7553081999994902;0.8854169000005641;0.01
4;1;10;7;letter181;letter357;letter181;letter357;0;0;incongruent;0.04;letter357;0.05;0.07;fullmask;0.2;arrow_left.png;up;0.6305680000004941;0.640352400001575;9761.9617401;c;0.14978440000049886;0.15958920000048238;9762.3217478;2.4000000848900527e-06;0.49689629999920726;0.5369140000002517;0.5469594999995024;0.6169735999992554;0.7470622999990155;0.8771087000004627;0.01
4;1;10;8;letter181;letter357;letter181;letter357;0;0;congruent;0.04;letter357;0.05;0.07;fullmask;0.2;arrow_right.png;down;0.5730321000010008;0.580506800000876;9764.3857566;m;0.4065176000003703;0.4079633000001195;9764.8016865;2.499999027349986e-06;0.5041767000002437;0.5441924999995535;0.5542120999998588;0.6242356999991898;0.7543270999995002;0.8844177999999374;0.01
4;1;10;9;letter181;letter357;letter181;letter357;0;0;incongruent;0.04;letter181;0.05;0.07;fullmask;0.2;arrow_right.png;up;0.655127199999697;0.6603952000004938;9766.9298348;m;0.336958500000037;0.3382515000012063;9767.2738951;2.499999027349986e-06;0.4990648999992118;0.5390953000005538;0.5491010999994614;0.6191412999996828;0.7492124999989755;0.8793105000004289;0.01
4;1;10;10;letter181;letter357;letter181;letter357;0;0;incongruent;0.04;letter357;0.05;0.07;fullmask;0.2;arrow_left.png;down;0.4057930999988457;0.4109157000002597;9769.1616645;c;0.3209172999995644;0.3281755999996676;9769.4896447;2.4000000848900527e-06;0.504041000000143;0.5440545000001293;0.5540650000002643;0.6240939000017534;0.7541837000007945;0.8842808000008517;0.01
4;1;10;11;letter181;letter357;letter181;letter357;0;0;congruent;0.04;letter357;0.05;0.07;fullmask;0.2;arrow_right.png;down;0.3383659999999509;0.34010289999969245;9771.3057272;m;0.3402937999999267;0.34811959999933606;9771.6497014;2.2999993234407157e-06;0.5033344999992551;0.5433448999992834;0.553360399999292;0.623388399999385;0.7534787999993569;0.8835756999997102;0.01
4;1;10;12;letter181;letter357;letter181;letter357;0;1;congruent;0.12;letter181;0.14;0.07;fullmask;0.2;arrow_left.png;up;0.22115340000163997;0.23039730000164127;9773.4498679;c;0.3726872999995976;0.3780429999987973;9773.8337379;2.3000011424301192e-06;0.5006771000007575;0.62075139999979;0.6407705000001442;0.7108034000011685;0.840893500000675;0.9709935000009864;0.01
4;1;10;13;letter181;letter357;letter181;letter357;0;0;congruent;0.04;letter181;0.05;0.07;fullmask;0.2;arrow_left.png;up;0.34535499999947206;0.35012169999936305;9775.6657205;c;0.3533563000000868;0.3580906999995932;9776.025785;2.4000000848900527e-06;0.5033244999995077;0.5433475999998336;0.553346299999248;0.6233868999988772;0.7534739999991871;0.8835779000000912;0.01
4;1;10;14;letter181;letter357;letter181;letter357;0;0;congruent;0.04;letter357;0.05;0.07;fullmask;0.2;arrow_right.png;down;0.37202390000129526;0.38004300000102376;9777.8737094;m;0.2940254000004643;0.2982449999999517;9778.1777008;2.4000000848900527e-06;0.4944617000001017;0.5344805999993696;0.5444984999994631;0.6145023000008223;0.7446075999996538;0.8747081000001344;0.01
4;1;10;15;letter181;letter357;letter181;letter357;0;1;incongruent;0.12;letter181;0.14;0.07;fullmask;0.2;arrow_right.png;up;0.4481371999991097;0.4499335999989853;9780.2017055;m;0.3402284999992844;0.34810099999958766;9780.5456772;2.499999027349986e-06;0.49956659999952535;0.6196344999989378;0.6396457999999257;0.709679599998708;0.8397552999995241;0.9698674999999639;0.01
4;1;10;16;letter181;letter357;letter181;letter357;0;0;incongruent;0.04;letter357;0.05;0.07;fullmask;0.2;arrow_left.png;down;0.4151164000013523;0.41994310000154655;9782.4497231;c;0.3452941000014107;0.3492331000015838;9782.8017715;2.4000000848900527e-06;0.4972768999996333;0.5372979000003397;0.5473134000003483;0.6173362000008638;0.7474431999999069;0.8775340000011056;0.01
4;1;10;17;letter181;letter357;letter181;letter357;0;0;incongruent;0.04;letter357;0.05;0.07;fullmask;0.2;arrow_left.png;down;0.2680292000004556;0.27030829999966954;9784.5538211;c;0.3799768999997468;0.3891119999989314;9784.9379243;2.5000008463393897e-06;0.4973561000006157;0.5373722000003909;0.547370400001455;0.6174215000010008;0.7475170000016078;0.8776048000017909;0.01
4;1;10;18;letter181;letter357;letter181;letter357;0;0;incongruent;0.04;letter357;0.05;0.07;fullmask;0.2;arrow_left.png;up;0.37435919999916223;0.3800433999986126;9786.8017769;c;0.1298518999992666;0.13964110000051733;9787.1377564;2.6000016077887267e-06;0.5013916000007157;0.5414221000010002;0.5514244000005419;0.6214860000000044;0.7515426000009029;0.8816655000009632;0.01
4;1;10;19;letter181;letter357;letter181;letter357;0;0;congruent;0.04;letter181;0.05;0.07;fullmask;0.2;arrow_left.png;up;0.2708182000005763;0.2801720999996178;9788.8897257;c;0.30874519999997574;0.318203300001187;9789.2097564;2.4000000848900527e-06;0.49518280000120285;0.5352168999997957;0.5452182000008179;0.6152461000001495;0.74532519999957;0.8754280000011931;0.01
4;1;10;20;letter181;letter357;letter181;letter357;0;0;incongruent;0.04;letter181;0.05;0.07;fullmask;0.2;arrow_right.png;up;0.29152020000037737;0.30025879999993776;9791.0017185;m;0.30157020000115153;0.3085101000015129;9791.3139649;2.70000055024866e-06;0.5039106000003812;0.5439391999989311;0.5539515000000392;0.6239793000004283;0.7540709999993851;0.8841644000003726;0.01
4;1;10;21;letter181;letter357;letter181;letter357;0;0;incongruent;0.04;letter181;0.05;0.07;fullmask;0.2;arrow_right.png;up;0.3260639000000083;0.33028010000089125;9793.1376936;m;0.2819677000006777;0.28828600000088045;9793.4257079;2.599999788799323e-06;0.5055857999996078;0.5455932000004395;0.5555929999991349;0.62563819999923;0.7557079999987764;0.8858261999994284;0.01
4;1;10;22;letter181;letter357;letter181;letter357;0;0;incongruent;0.04;letter357;0.05;0.07;fullmask;0.2;arrow_left.png;down;0.3288088000008429;0.33013449999998556;9795.2416799;c;0.30082020000008924;0.30822710000029474;9795.5457628;2.4000000848900527e-06;0.49871560000065074;0.5387277999998332;0.548745100000815;0.618789400001333;0.7488570000004984;0.8789486000005127;0.01
4;1;10;23;letter181;letter357;letter181;letter357;0;0;incongruent;0.04;letter181;0.05;0.07;fullmask;0.2;arrow_right.png;up;0.49526719999994384;0.5006713999991916;9797.5296983;m;0.3206129999998666;0.32816189999903145;9797.8576608;2.4000000848900527e-06;0.5033055000003515;0.5433351000010589;0.5533292000000074;0.6233736000012868;0.7534520000008342;0.8835533000001305;0.01
4;1;10;24;letter181;letter357;letter181;letter357;0;0;incongruent;0.04;letter357;0.05;0.07;fullmask;0.2;arrow_left.png;down;0.31234300000141957;0.32115260000136914;9799.657698;c;0.3093992999984039;0.3183205999994243;9799.9778495;2.4000000848900527e-06;0.4988528000012593;0.5388594000014564;0.548893200000748;0.61891260000084;0.7490062000015314;0.8790900000003603;0.01
4;1;10;25;letter181;letter357;letter181;letter357;0;0;congruent;0.04;letter181;0.05;0.07;fullmask;0.2;arrow_left.png;up;0.406707500000266;0.4099189999997179;9801.8737105;c;0.34679689999939;0.3491169000008085;9802.2256618;2.4000000848900527e-06;0.5022847000000183;0.5423022999984823;0.5523176999995485;0.6223455999988801;0.7524393999992753;0.8825227999986964;0.01
4;1;10;26;letter181;letter357;letter181;letter357;0;0;congruent;0.04;letter357;0.05;0.07;fullmask;0.2;arrow_right.png;down;0.39695580000079644;0.3999887000009039;9804.1056945;m;0.306957799999509;0.3082324000006338;9804.4176206;2.4000000848900527e-06;0.5003997000003437;0.5404226999999082;0.550424799999746;0.6204643000000942;0.7505488000006153;0.8806478000005882;0.01
4;1;10;27;letter181;letter357;letter181;letter357;0;0;congruent;0.04;letter181;0.05;0.07;fullmask;0.2;arrow_left.png;up;0.3172121999996307;0.3203025000002526;9806.2176984;c;0.34716520000074524;0.34822020000137854;9806.5697927;2.3000011424301192e-06;0.5027663000000757;0.5427997000006144;0.5527835000011692;0.6228287000012642;0.7529035999996267;0.8830250000009983;0.01
4;1;10;28;letter181;letter357;letter181;letter357;0;0;incongruent;0.04;letter357;0.05;0.07;fullmask;0.2;arrow_left.png;up;0.34873999999945227;0.3502972000005684;9808.4096911;c;0.1258907999999792;0.12959699999919394;9808.7376561;2.499999027349986e-06;0.5025518000002194;0.5426095999991958;0.5525778999999602;0.6226188000000548;0.7527002999995602;0.8828068000002531;0.01
4;1;10;29;letter181;letter357;letter181;letter357;0;0;congruent;0.04;letter357;0.05;0.07;fullmask;0.2;arrow_right.png;down;0.27506699999867124;0.28030669999861857;9810.4977064;m;0.3927346000000398;0.39797809999981837;9810.8976282;2.4000000848900527e-06;0.49430240000037884;0.5343228000001545;0.5443352999991475;0.6143733999997494;0.7444625999996788;0.8745481999994809;0.01
4;1;10;30;letter181;letter357;letter181;letter357;0;0;incongruent;0.04;letter181;0.05;0.07;fullmask;0.2;arrow_right.png;up;0.4759090000006836;0.4807297000006656;9812.8497666;m;0.297193000000334;0.2982398000003741;9813.1537382;2.4000000848900527e-06;0.5012532999990071;0.5412814999999682;0.5512925000002724;0.6213195000000269;0.7514012999999977;0.8815018000004784;0.01
4;1;10;31;letter181;letter357;letter181;letter357;0;0;incongruent;0.04;letter357;0.05;0.07;fullmask;0.2;arrow_left.png;down;2.07616919999964;2.0815932000004977;9816.7218483;c;0.37686570000005304;0.3780735000000277;9817.1059737;2.4000000848900527e-06;0.5046861000009812;0.544716200000039;0.5547378999999637;0.6247734000007767;0.7548466000007465;0.8849417000001267;0.01
4;1;10;32;letter181;letter357;letter181;letter357;0;1;congruent;0.12;letter357;0.14;0.07;fullmask;0.2;arrow_right.png;down;0.45190550000006624;0.460830399999395;9819.1297792;m;0.4450151000000915;0.44785310000042955;9819.5856587;2.6000016077887267e-06;0.5060609000011027;0.6261136000011902;0.6461324000010791;0.7161665000003268;0.8462469000005512;0.9763453000014124;0.01
4;1;10;33;letter181;letter357;letter181;letter357;0;0;incongruent;0.04;letter181;0.05;0.07;fullmask;0.2;arrow_right.png;up;0.30004169999847363;0.30018549999840616;9821.3697442;m;0.3898384999993141;0.39799130000028526;9821.7617323;2.499999027349986e-06;0.4997635999989143;0.5397802999996202;0.5497961999990366;0.6198348999987502;0.749912499999482;0.8800081999997929;0.01
4;1;10;34;letter181;letter357;letter181;letter357;0;0;congruent;0.04;letter181;0.05;0.07;fullmask;0.2;arrow_left.png;up;0.3988500999985263;0.40105019999828073;9823.6497477;c;0.5799440999999206;0.5885435000000143;9824.2337353;2.499999027349986e-06;0.4971043000005011;0.5371042999995552;0.5471073999997316;0.6171400000002905;0.747235400000136;0.8773249999994732;0.01
4;1;10;35;letter181;letter357;letter181;letter357;0;0;congruent;0.04;letter181;0.05;0.07;fullmask;0.2;arrow_left.png;up;0.4154154000007111;0.4209636000014143;9826.1378114;c;0.3925235000006069;0.39810080000097514;9826.5377711;2.599999788799323e-06;0.5016883999996935;0.5416968999998062;0.5516939999997703;0.6217343999996956;0.7518027999994956;0.8819129999992583;0.01
4;1;10;36;letter181;letter357;letter181;letter357;0;0;incongruent;0.04;letter357;0.05;0.07;fullmask;0.2;arrow_left.png;down;0.3636920999997528;0.3700665000014851;9828.377684;c;0.4396500000002561;0.44885579999936454;9828.8256411;2.399998265900649e-06;0.49818949999826145;0.5381957999998122;0.5481982999990578;0.6182218999983888;0.7483106999989104;0.8784261999990122;0.01
4;1;10;37;letter181;letter357;letter181;letter357;0;0;incongruent;0.04;letter181;0.05;0.07;fullmask;0.2;arrow_right.png;up;0.3503039000006538;0.36009809999995923;9830.6656853;m;0.3562331000011909;0.35908910000034666;9831.0336523;2.599999788799323e-06;0.5027205000005779;0.5427414000005228;0.552738500000487;0.6227732000006654;0.7528590000001714;0.8829574000010325;0.01
4;1;10;38;letter181;letter357;letter181;letter357;0;0;congruent;0.04;letter357;0.05;0.07;fullmask;0.2;arrow_right.png;down;0.4683077999998204;0.4698041999999987;9832.9856878;m;0.3645259000004444;0.3680688000004011;9833.3536506;2.5000008463393897e-06;0.49741110000104527;0.5374305000004824;0.547435200000109;0.6174836000009236;0.74754589999975;0.8776651000007405;0.01
4;1;10;39;letter181;letter357;letter181;letter357;0;0;congruent;0.04;letter181;0.05;0.07;fullmask;0.2;arrow_left.png;up;0.3334515000005922;0.34015090000139026;9835.1616985;c;0.32730439999977534;0.3291685999993206;9835.4976422;2.4000000848900527e-06;0.49776049999854877;0.5377927999998064;0.5477885999989667;0.6178399999989779;0.7479051999998774;0.8780083000001468;0.01
4;1;10;40;letter181;letter357;letter181;letter357;0;1;incongruent;0.12;letter357;0.14;0.07;fullmask;0.2;arrow_left.png;down;0.2681733000008535;0.2703410000012809;9837.3377022;c;0.3633679000013217;0.3685715000010532;9837.7056711;2.4000000848900527e-06;0.5006338999992295;0.6207023999995727;0.6407254000005196;0.7107553000005282;0.8408361000001605;0.9709383999997954;0.01
4;1;10;41;letter181;letter357;letter181;letter357;0;0;congruent;0.04;letter357;0.05;0.07;fullmask;0.2;arrow_right.png;down;0.4247558000006393;0.4309696000000258;9839.6256679;m;0.31981769999947574;0.3281650000008085;9839.9536471;2.499999027349986e-06;0.5048393999986729;0.5448705999988306;0.5548683999986679;0.6249142999986361;0.7549976999998762;0.8850739999998041;0.01
4;1;10;42;letter181;letter357;letter181;letter357;0;0;congruent;0.04;letter357;0.05;0.07;fullmask;0.2;arrow_right.png;down;0.3672865999997157;0.371082399999068;9841.8097416;m;0.3704168000003847;0.3781240999996953;9842.1858197;2.70000055024866e-06;0.49776899999960733;0.5377908999998908;0.5477855000008276;0.617827899999611;0.747914600000513;0.8780087000013737;0.01
4;1;10;43;letter181;letter357;letter181;letter357;0;0;incongruent;0.04;letter181;0.05;0.07;fullmask;0.2;arrow_right.png;up;0.3752641000010044;0.3800444000007701;9844.0496855;m;0.3452661999999691;0.3481721000007383;9844.4016712;2.399998265900649e-06;0.5009697999994387;0.5409819999986212;0.550985199999559;0.6210338000000775;0.7511077999988629;0.8812065999991319;0.01
4;1;10;44;letter181;letter357;letter181;letter357;0;0;incongruent;0.04;letter357;0.05;0.07;fullmask;0.2;arrow_left.png;down;0.47835829999894486;0.48087630000009085;9846.3538175;c;0.2917056999995111;0.2979916000003868;9846.6498729;2.599999788799323e-06;0.4954064000012295;0.5354191000005812;0.5454327000006742;0.615466600000218;0.7455527000001894;0.8756253999999899;0.01
4;1;10;45;letter181;letter357;letter181;letter357;0;0;incongruent;0.04;letter181;0.05;0.07;fullmask;0.2;arrow_right.png;up;0.3468788999998651;0.3501247999993211;9848.4736912;m;0.3067847000002075;0.3082240000003367;9848.7856631;2.4000000848900527e-06;0.49707719999969413;0.5371046000000206;0.547085899999729;0.6171374000005017;0.7472219000010227;0.8773213000004034;0.01
4;1;10;46;letter181;letter357;letter181;letter357;0;0;congruent;0.04;letter357;0.05;0.07;fullmask;0.2;arrow_right.png;down;0.34897649999948044;0.35012579999965965;9850.6177505;m;0.3167880000000878;0.31820609999886074;9850.93762;2.499999027349986e-06;0.499409399999422;0.5394384999999602;0.5494624999992084;0.6194789999990462;0.7495577999998204;0.8796578999990743;0.01
4;1;10;47;letter181;letter357;letter181;letter357;0;0;congruent;0.04;letter181;0.05;0.07;fullmask;0.2;arrow_left.png;up;0.2942416999994748;0.30021300000043993;9852.7136865;c;0.28807989999950223;0.2982381000001624;9853.0096934;2.599999788799323e-06;0.5004454999998416;0.5404643999991094;0.5504843999988225;0.6205132999984926;0.7505929999988439;0.880688299999747;0.01
4;1;10;48;letter181;letter357;letter181;letter357;0;0;congruent;0.04;letter357;0.05;0.07;fullmask;0.2;arrow_right.png;down;0.2910160999999789;0.3003798000008828;9854.8018559;m;0.2606119000010949;0.2683238000008714;9855.073668;2.2999993234407157e-06;0.5052655999988929;0.5452891999993881;0.5552783999992243;0.6253285999991931;0.7554038999987824;0.8855045000000246;0.01
4;1;10;49;letter181;letter357;letter181;letter357;0;0;congruent;0.04;letter181;0.05;0.07;fullmask;0.2;arrow_left.png;up;0.2374868000006245;0.24037270000007993;9856.8097455;c;0.2990578999997524;0.3082192000001669;9857.1136355;2.5000008463393897e-06;0.5021293999998306;0.5421648000010464;0.5521473000007973;0.622190000000046;0.7522764000004827;0.8823996000010084;0.01
4;1;10;50;letter181;letter357;letter181;letter357;0;0;incongruent;0.04;letter181;0.05;0.07;fullmask;0.2;arrow_right.png;up;0.39233280000007653;0.40094409999983327;9858.9856772;m;0.2374699000010878;0.2384154999999737;9859.2336995;2.4000000848900527e-06;0.4969894000005297;0.5370008000008966;0.54699840000103;0.6170411000002787;0.7471256000007997;0.8772254000014073;0.01
4;1;10;51;letter181;letter357;letter181;letter357;0;0;incongruent;0.04;letter357;0.05;0.07;fullmask;0.2;arrow_left.png;down;0.14210020000064105;0.14952180000000226;9860.8577458;c;0.3825596000006044;0.3880183000001125;9861.2496642;2.4000000848900527e-06;0.5008629000003566;0.5406712999993033;0.5506715999999869;0.6207171999994898;0.7507944999997562;0.8808920999999827;0.01
4;1;10;52;letter181;letter357;letter181;letter357;0;0;congruent;0.04;letter181;0.05;0.07;fullmask;0.2;arrow_left.png;up;0.17957930000011402;0.18068099999982223;9862.905785;c;0.3411512999991828;0.3482229000001098;9863.2498662;2.4000000848900527e-06;0.4967666000011377;0.5367813000011665;0.5467969000001176;0.6168367999998736;0.7468939999998838;0.8770039000010001;0.01
4;2;17;1;letter169;letter190;letter169;letter190;0;0;congruent;0.04;letter190;0.09;0.07;fullmask;0.2;arrow_right.png;down;0.2755223999993177;0.2802838999996311;10608.8413219;m;0.9853456999990158;0.9885895000006713;10609.8333708;2.4000000848900527e-06;0.4950979000004736;0.5351088000006712;0.5851459999994404;0.655174800000168;0.7852633999991667;0.9153583999996044;0.01
4;2;17;2;letter169;letter190;letter169;letter190;0;0;incongruent;0.04;letter190;0.09;0.07;fullmask;0.2;arrow_left.png;down;0.22627950000060082;0.23042999999961467;10611.5934113;c;0.40180899999904796;0.40797380000003614;10612.0012699;2.5000008463393897e-06;0.505689400000847;0.545706799999607;0.5957336999999825;0.6657680999996956;0.7958467000007658;0.9259621000001061;0.01
4;2;17;3;letter169;letter190;letter169;letter190;0;0;incongruent;0.04;letter169;0.09;0.07;fullmask;0.2;arrow_right.png;up;0.4328730000015639;0.44088140000167186;10613.9613167;c;0.42205310000099416;0.4279158000008465;10614.3933106;2.4000000848900527e-06;0.5023908999992273;0.5424193999988347;0.5924582999996346;0.6624868999988394;0.792572399999699;0.9226560999995854;0.01
4;2;17;4;letter169;letter190;letter169;letter190;0;0;incongruent;0.04;letter169;0.09;0.07;fullmask;0.2;arrow_right.png;up;1.8234909999991942;1.831116800000018;10617.7533266;m;0.4064693000000261;0.4090687000007165;10618.1693616;2.499999027349986e-06;0.5056950999987748;0.5457183999988047;0.5957527999999002;0.6657957999996142;0.7958626999989065;0.9259812000000238;0.01
4;2;17;5;letter169;letter190;letter169;letter190;0;0;incongruent;0.04;letter169;0.09;0.07;fullmask;0.2;arrow_right.png;up;0.4765330999998696;0.4798521000011533;10620.1692768;m;0.3547831000014412;0.3580829000002268;10620.5293168;2.3000011424301192e-06;0.5023505000008299;0.54236149999997;0.5924071999997977;0.6624362000002293;0.7925451000010071;0.9226211999994121;0.01
4;2;17;6;letter169;letter190;letter169;letter190;0;0;congruent;0.04;letter169;0.09;0.07;fullmask;0.2;arrow_left.png;up;0.3634801999996853;0.3702040999996825;10622.4173249;c;0.3112827999993897;0.3181944999996631;10622.7372727;2.499999027349986e-06;0.5005691000005754;0.5405754999992496;0.5906123999993724;0.6606429999992542;0.7907147000005352;0.9208337000000029;0.01
4;2;17;7;letter169;letter190;letter169;letter190;0;0;congruent;0.04;letter169;0.09;0.07;fullmask;0.2;arrow_left.png;up;0.40006560000074387;0.40110700000150246;10624.6653367;c;0.3251588000002812;0.3282730000009906;10624.9933516;2.9000002541579306e-06;0.4976308000004792;0.5376300000007177;0.5876717999999528;0.6577025999995385;0.7877750999996351;0.9178883000004134;0.01
4;2;17;8;letter169;letter190;letter169;letter190;0;0;congruent;0.04;letter169;0.09;0.07;fullmask;0.2;arrow_left.png;up;0.3086036000004242;0.3101935000013327;10626.8253214;c;0.3886137999998027;0.38908570000057807;10627.2174674;2.4000000848900527e-06;0.49484830000074;0.5348598000000493;0.5849049000007653;0.6549429000006057;0.7850066000009974;0.9151176000013947;0.01
4;2;17;9;letter169;letter190;letter169;letter190;0;0;incongruent;0.04;letter190;0.09;0.07;fullmask;0.2;arrow_left.png;down;0.5404259999995702;0.5495472000002337;10629.2893071;c;0.3329090000006545;0.3381418000008125;10629.6332824;2.4000000848900527e-06;0.5045079999999871;0.5445340999995096;0.5945608000001812;0.6646028999984992;0.7946783999996114;0.9247815999988234;0.01
4;2;17;10;letter169;letter190;letter169;letter190;0;0;congruent;0.04;letter190;0.09;0.07;fullmask;0.2;arrow_right.png;down;0.606900200000382;0.610290000000532;10631.777322;m;0.3306133999994927;0.33815149999827554;10632.1132598;2.499999027349986e-06;0.504502699999648;0.5445085999999719;0.594541799999206;0.6645783999993;0.7946565999991435;0.9252460999996401;0.01
4;2;17;11;letter169;letter190;letter169;letter190;0;1;congruent;0.12;letter190;0.18;0.07;fullmask;0.2;arrow_right.png;down;0.38228560000061407;0.3910563999997976;10634.1134571;m;0.34139929999946617;0.34825760000057926;10634.4655049;2.4000000848900527e-06;0.5015651999983675;0.621638399999938;0.6816791000001103;0.7517207999990205;0.8817997999994986;1.0119007999983296;0.01
4;2;17;12;letter169;letter190;letter169;letter190;0;0;incongruent;0.04;letter190;0.09;0.07;fullmask;0.2;arrow_left.png;down;0.3364603999998508;0.3400144999995973;10636.3293161;c;0.3224576000011439;0.32916930000101274;10636.6572694;2.2999993234407157e-06;0.500747500000216;0.5407617000000755;0.5908180000005814;0.6608405999995739;0.7909197999997559;0.9210177000004478;0.01
4;2;17;13;letter169;letter190;letter169;letter190;0;0;congruent;0.04;letter190;0.09;0.07;fullmask;0.2;arrow_right.png;down;0.2969857999996748;0.3002589999996417;10638.4813455;m;0.4827126000000135;0.48874179999984335;10638.9692691;2.4000000848900527e-06;0.4958593999999721;0.5358806000003824;0.5859139999993204;0.65594720000081;0.7860273999995115;0.9161459000006289;0.01
4;2;17;14;letter169;letter190;letter169;letter190;0;0;incongruent;0.04;letter169;0.09;0.07;fullmask;0.2;arrow_right.png;up;0.27292279999892344;0.2792735000002722;10640.7692992;m;0.3116860000009183;0.31920110000100976;10641.0892681;2.5000008463393897e-06;0.49859189999915543;0.5386010000001988;0.5886367999992217;0.6586736000008386;0.7887589999991178;0.9188596999993024;0.01
4;2;17;15;letter169;letter190;letter169;letter190;0;0;incongruent;0.04;letter190;0.09;0.07;fullmask;0.2;arrow_left.png;down;0.23965649999991;0.24934159999975236;10642.8572968;c;0.3324759000006452;0.33915239999987534;10643.2014029;2.4000000848900527e-06;0.5026491999997234;0.5426594999989902;0.5926935999996203;0.6627308999995876;0.7928203999999823;0.9229140000006737;0.01
4;2;17;16;letter169;letter190;letter169;letter190;0;0;congruent;0.04;letter190;0.09;0.07;fullmask;0.2;arrow_right.png;down;0.2649237000005087;0.2704364000001078;10644.993412;m;0.2725384999994276;0.27831160000096133;10645.2732955;2.599999788799323e-06;0.5003029999988939;0.5403259999984584;0.5903411999988748;0.6603825999991386;0.7904583999988972;0.9205668999984482;0.01
4;2;17;17;letter169;letter190;letter169;letter190;0;0;congruent;0.04;letter169;0.09;0.07;fullmask;0.2;arrow_left.png;up;0.21180639999874984;0.22077129999888712;10647.00131;c;0.32508989999951154;0.32781230000000505;10647.3373122;2.4000000848900527e-06;0.49765110000043933;0.5376696000002994;0.5876829000008001;0.6577302999994572;0.787805699999808;0.9179122999994433;0.01
4;2;17;18;letter169;letter190;letter169;letter190;0;0;incongruent;0.04;letter190;0.09;0.07;fullmask;0.2;arrow_left.png;down;0.555805899999541;0.5604714000000968;10649.4172872;c;0.2573281999993924;0.268332299998292;10649.6812981;2.5000008463393897e-06;0.49516790000052424;0.5351792000001296;0.5852025000003778;0.655242000000726;0.7853188000008231;0.9154331999998249;0.01
4;2;17;19;letter169;letter190;letter169;letter190;0;0;incongruent;0.04;letter190;0.09;0.07;fullmask;0.2;arrow_left.png;down;0.37315440000020317;0.3811081000003469;10651.5855443;c;0.3181287000006705;0.3282801000004838;10651.9134646;2.4000000848900527e-06;0.49744539999846893;0.5374677999989217;0.5875023999997211;0.6575198999998975;0.7876136999984737;0.9176993000000948;0.01
4;2;17;20;letter169;letter190;letter169;letter190;0;0;congruent;0.04;letter169;0.09;0.07;fullmask;0.2;arrow_left.png;up;0.33142119999865827;0.34024999999928696;10653.7855429;c;0.3412895000001299;0.34821820000070147;10654.137498;2.4000000848900527e-06;0.50484250000045;0.544870700001411;0.5949015000005602;0.6649554000014177;0.7950194000004558;0.9251400000011927;0.01
4;2;17;21;letter169;letter190;letter169;letter190;0;0;congruent;0.04;letter169;0.09;0.07;fullmask;0.2;arrow_left.png;up;0.2954392999999982;0.30025779999959923;10655.9613402;c;0.3211262999993778;0.3281723999989481;10656.2892247;2.4000000848900527e-06;0.5052628000012191;0.545280600001206;0.5953190000000177;0.6653470000001107;0.7954405000000406;0.9255377000008593;0.01
4;2;17;22;letter169;letter190;letter169;letter190;0;0;congruent;0.04;letter190;0.09;0.07;fullmask;0.2;arrow_right.png;down;0.23452010000073642;0.24028160000125354;10658.0412992;m;0.34430069999871193;0.3481170999984897;10658.3933021;2.4000000848900527e-06;0.49784270000054676;0.5378559000000678;0.587896200000614;0.6579293000013422;0.7880163999998331;0.9181102000002284;0.01
4;2;17;23;letter169;letter190;letter169;letter190;0;0;congruent;0.04;letter190;0.09;0.07;fullmask;0.2;arrow_right.png;down;0.42716960000143445;0.43090720000145666;10660.3452933;m;0.258250599999883;0.26768209999863757;10660.6092229;2.4000000848900527e-06;0.5002014000001509;0.5402163999988261;0.5902537000001757;0.6602929000000586;0.790373499999987;0.9204665999986901;0.01
4;2;17;24;letter169;letter190;letter169;letter190;0;0;incongruent;0.04;letter169;0.09;0.07;fullmask;0.2;arrow_right.png;up;0.32578840000132914;0.3311370999999781;10662.4653472;m;0.32893330000115384;0.3381660000013653;10662.8014724;2.5000008463393897e-06;0.4962678000010783;0.5362942000010662;0.5863334000005125;0.6563636999999289;0.7864441000001534;0.9165444000009302;0.01
4;2;17;25;letter169;letter190;letter169;letter190;0;0;incongruent;0.04;letter169;0.09;0.07;fullmask;0.2;arrow_right.png;up;0.34772440000051574;0.35007729999961157;10664.6892934;m;0.3156600000002072;0.31820150000021385;10665.0092504;2.6999987312592566e-06;0.5050048999983119;0.5450276999999915;0.5950546999993094;0.6650942999986;0.7951825000000099;0.925278899998375;0.01
4;2;17;26;letter169;letter190;letter169;letter190;0;1;congruent;0.12;letter169;0.18;0.07;fullmask;0.2;arrow_left.png;up;0.5448212999999669;0.5505400000001828;10667.1773015;c;0.28835890000118525;0.29824980000012147;10667.4733223;2.4000000848900527e-06;0.5043576000007306;0.6244292000010319;0.684466099999554;0.7545028000004095;0.8845880000008037;1.0146750000003522;0.01
4;2;17;27;letter169;letter190;letter169;letter190;0;0;congruent;0.04;letter169;0.09;0.07;fullmask;0.2;arrow_left.png;up;0.38888760000008915;0.3899887999996281;10669.3933891;c;0.3011471000008896;0.3083351999994193;10669.6974678;2.2999993234407157e-06;0.5032040000005509;0.5432457000006252;0.5932534000003216;0.6632891000008385;0.7933635000008508;0.923484400000234;0.01
4;2;17;28;letter169;letter190;letter169;letter190;0;0;congruent;0.04;letter169;0.09;0.07;fullmask;0.2;arrow_left.png;up;0.3995832000000519;0.39989349999996193;10671.6253491;c;0.3336567999995168;0.33822849999887694;10671.9612581;2.4000000848900527e-06;0.5003280000000814;0.5403430000005756;0.5903835000008257;0.660413100000369;0.7904976999998325;0.9205959000009898;0.01
4;2;17;29;letter169;letter190;letter169;letter190;0;1;incongruent;0.12;letter190;0.18;0.07;fullmask;0.2;arrow_left.png;down;0.3199734999998327;0.3201309999985824;10673.8973177;c;0.3417671999995946;0.34812739999870246;10674.2412461;2.5000008463393897e-06;0.49856700000054843;0.6186340000003838;0.6786744000000908;0.7486996999996336;0.8787914000004093;1.0088892999992822;0.01
4;2;17;30;letter169;letter190;letter169;letter190;0;0;congruent;0.04;letter190;0.09;0.07;fullmask;0.2;arrow_right.png;down;0.2087412000000768;0.21044909999909578;10675.9772501;m;0.31642699999974866;0.31820649999826855;10676.2973292;2.499999027349986e-06;0.5025160999994114;0.5425294999986363;0.5925718999988021;0.6625961999998253;0.7926870999999664;0.9227814999994735;0.01
4;2;17;31;letter169;letter190;letter169;letter190;0;0;incongruent;0.04;letter169;0.09;0.07;fullmask;0.2;arrow_right.png;up;0.3333596000011312;0.3401628999999957;10678.153297;m;0.26334440000027826;0.26844080000046233;10678.4253554;2.5000008463393897e-06;0.4979891000002681;0.5380079000005935;0.5880410000008851;0.6580818000002182;0.7881575999999768;0.918262400000458;0.01
4;2;17;32;letter169;letter190;letter169;letter190;0;0;incongruent;0.04;letter190;0.09;0.07;fullmask;0.2;arrow_left.png;down;0.5542658000013034;0.5606431000014709;10680.5053855;c;0.29572639999969397;0.29835090000051423;10680.8093273;2.5000008463393897e-06;0.5000983000009;0.5401244999993651;0.5901615000002494;0.6602057000000059;0.7902715000000171;0.9203749999996944;0.01
4;2;17;33;letter169;letter190;letter169;letter190;0;0;incongruent;0.04;letter169;0.09;0.07;fullmask;0.2;arrow_right.png;up;0.2847250000013446;0.29014830000051006;10682.6172719;m;0.31259899999895424;0.3181989999993675;10682.9372338;2.499999027349986e-06;0.49601909999910276;0.5360162999986642;0.5860807999997633;0.6561198999988846;0.7861960999998701;0.9162949999990815;0.01
4;2;17;34;letter169;letter190;letter169;letter190;0;0;congruent;0.04;letter190;0.09;0.07;fullmask;0.2;arrow_right.png;down;0.4633255000007921;0.47080129999994824;10684.9372793;m;0.23856009999872185;0.24839160000010452;10685.1852482;2.499999027349986e-06;0.5041560999998183;0.5441923999987921;0.5942028999998001;0.6642455000001064;0.7943243999998231;0.9244332999987819;0.01
4;2;17;35;letter169;letter190;letter169;letter190;0;0;incongruent;0.04;letter190;0.09;0.07;fullmask;0.2;arrow_left.png;down;0.547988099999202;0.5505410999994638;10687.2732925;c;0.29945110000153363;0.308219000000463;10687.5772436;2.4000000848900527e-06;0.5053064999992785;0.5453247000004922;0.5953642999993463;0.6653943999990588;0.7954793999997491;0.9255855999999767;0.01
4;2;17;36;letter169;letter190;letter169;letter190;0;0;incongruent;0.04;letter190;0.09;0.07;fullmask;0.2;arrow_left.png;down;0.46210770000107004;0.47082100000079663;10689.5692741;c;0.34133160000055796;0.3481184000011126;10689.9212408;2.5000008463393897e-06;0.5000274000012723;0.5400540999999066;0.590096200001426;0.6601305000003777;0.7902097000005597;0.9203176000009989;0.01
4;2;17;37;letter169;letter190;letter169;letter190;0;0;congruent;0.04;letter169;0.09;0.07;fullmask;0.2;arrow_left.png;up;0.3268315999994229;0.33013170000049286;10691.7853533;c;0.32261450000078185;0.3281709000002593;10692.1132101;2.4000000848900527e-06;0.5036036000001332;0.5436295999988943;0.5936678999987635;0.6636945999998716;0.7937825999997585;0.9238766999988002;0.01
4;2;17;38;letter169;letter190;letter169;letter190;0;0;congruent;0.04;letter190;0.09;0.07;fullmask;0.2;arrow_right.png;down;0.311250700000528;0.32016380000095523;10693.9612875;m;0.30908090000048105;0.3181904000011855;10694.2812285;2.4000000848900527e-06;0.5035742000000027;0.5436021000004985;0.5936211000007461;0.6636469000004581;0.7937369999999646;0.9238366000008682;0.01
4;2;17;39;letter169;letter190;letter169;letter190;0;0;incongruent;0.04;letter169;0.09;0.07;fullmask;0.2;arrow_right.png;up;0.9342509999987669;0.940668100000039;10696.7454224;m;0.27961210000103165;0.28837770000063756;10697.0332658;2.4000000848900527e-06;0.5052522999994835;0.54527969999981;0.5953112000006513;0.6653511999993498;0.7954329000003781;0.9255243000006885;0.01
4;2;17;40;letter169;letter190;letter169;letter190;0;0;incongruent;0.04;letter169;0.09;0.07;fullmask;0.2;arrow_right.png;up;0.37424619999910647;0.38004479999835894;10698.9372697;m;0.2802173000000039;0.2882757000006677;10699.2252271;2.4000000848900527e-06;0.5052770000002056;0.5452792999985832;0.5953133999992133;0.6653422999988834;0.795431099999405;0.9255202999993344;0.01
4;2;17;41;letter169;letter190;letter169;letter190;0;0;congruent;0.04;letter169;0.09;0.07;fullmask;0.2;arrow_left.png;up;0.33490639999945415;0.34031599999980244;10701.0892668;c;0.3286595000008674;0.33815300000060233;10701.425268;2.1999985619913787e-06;0.5045581999984279;0.5445829999989655;0.5946139999996376;0.6646434999984194;0.7947286999988137;0.9248467999987042;0.01
4;2;17;42;letter169;letter190;letter169;letter190;0;0;incongruent;0.04;letter190;0.09;0.07;fullmask;0.2;arrow_left.png;down;0.15740720000030706;0.1607296000001952;10703.1133289;c;0.34685519999948156;0.3482241999990947;10703.4653413;2.599999788799323e-06;0.5023402999995596;0.5423745999996754;0.5924028999997972;0.6624435999983689;0.7925206999989314;0.9226113999993686;0.01
4;2;17;43;letter169;letter190;letter169;letter190;0;0;congruent;0.04;letter190;0.09;0.07;fullmask;0.2;arrow_right.png;down;0.30192150000038964;0.31023000000095635;10705.2892868;m;0.3097892999994656;0.3182321000003867;10705.6093255;2.4000000848900527e-06;0.49975070000073174;0.5397752999997465;0.5898008000003756;0.6598417999994126;0.7899244000000181;0.9200239000001602;0.01
4;2;17;44;letter169;letter190;letter169;letter190;0;1;incongruent;0.12;letter169;0.18;0.07;fullmask;0.2;arrow_right.png;up;0.2761571000010008;0.28030370000124094;10707.5052789;m;0.290002400000958;0.2982606000005035;10707.8013618;2.70000055024866e-06;0.505983600000036;0.626046999999744;0.6860956999989867;0.7561291000001802;0.8862071999992622;1.0163195000004634;0.01
4;2;17;45;letter169;letter190;letter169;letter190;0;0;incongruent;0.04;letter190;0.09;0.07;fullmask;0.2;arrow_left.png;down;0.3828713000002608;0.389881900000546;10709.7133058;c;0.29507879999982833;0.2982570999993186;10710.0173271;2.3000011424301192e-06;0.49692030000005616;0.5369470000005094;0.5869824000001245;0.6570241999997961;0.7871018999994703;0.9171851000010065;0.01
4;2;17;46;letter169;letter190;letter169;letter190;0;0;incongruent;0.04;letter169;0.09;0.07;fullmask;0.2;arrow_right.png;up;0.4338573000004544;0.4408973999998125;10711.9854003;m;0.3111953999996331;0.3182974999999715;10712.305446;2.2999993234407157e-06;0.5053769999994984;0.5453902999997808;0.5954177000003256;0.6654663999997865;0.7955368000002636;0.9256384000000253;0.01
4;2;17;47;letter169;letter190;letter169;letter190;0;0;incongruent;0.04;letter190;0.09;0.07;fullmask;0.2;arrow_left.png;down;0.17580499999894528;0.17953119999947376;10714.009278;c;0.314325800000006;0.318194699999367;10714.3292796;2.5000008463393897e-06;0.49707670000134385;0.5370837000009487;0.5871280999999726;0.6571592000000237;0.7872357000014745;0.9173703000014939;0.01
4;2;17;48;letter169;letter190;letter169;letter190;0;0;congruent;0.04;letter169;0.09;0.07;fullmask;0.2;arrow_left.png;up;0.22682259999965027;0.2304426999999123;10716.0812918;c;0.33839090000037686;0.34811749999971653;10716.425246;2.4000000848900527e-06;0.4985787000005075;0.5385894000010012;0.5886109000002762;0.6586536000013439;0.7887331000001723;0.9188389999999345;0.01
4;2;17;49;letter169;letter190;letter169;letter190;0;0;congruent;0.04;letter190;0.09;0.07;fullmask;0.2;arrow_right.png;down;0.22968110000147135;0.23044240000126592;10718.1852321;m;0.3493333000005805;0.35809080000035465;10718.5372687;2.4000000848900527e-06;0.5014410999992833;0.5414569999993546;0.5914833999995608;0.6615222000000358;0.7916038000003027;0.9217136999996001;0.01
4;2;17;50;letter169;letter190;letter169;letter190;0;0;incongruent;0.04;letter169;0.09;0.07;fullmask;0.2;arrow_right.png;up;0.29247899999973015;0.30025770000065677;10720.3692552;m;0.3343346000001475;0.33815970000068774;10720.7133091;2.5000008463393897e-06;0.5049576000001252;0.5449812999995629;0.5950380000012956;0.6650580000004993;0.7951481000000058;0.9252243999999337;0.01
4;2;17;51;letter169;letter190;letter169;letter190;0;0;congruent;0.04;letter190;0.09;0.07;fullmask;0.2;arrow_right.png;down;0.2610722000008536;0.270638300000428;10722.4892701;m;0.3004512999996223;0.30824810000012803;10722.8012287;2.5000008463393897e-06;0.49637750000147207;0.5364032000015868;0.5864421000005677;0.6564649000010832;0.7865572000009706;0.9166493000011542;0.01
4;2;17;52;letter169;letter190;letter169;letter190;0;0;congruent;0.04;letter169;0.09;0.07;fullmask;0.2;arrow_left.png;up;0.3513219999986177;0.3601056999996217;10724.6812624;c;0.2773237000001245;0.27830619999986084;10724.9693024;2.4000000848900527e-06;0.49604339999859803;0.5360623999986274;0.5860854999991716;0.6561329999985901;0.7862147999985609;0.9163190999988728;0.01
4;2;18;1;letter169;letter190;letter169;letter190;0;0;congruent;0.04;letter190;0.09;0.07;fullmask;0.2;arrow_right.png;down;0.2539999999989959;0.2603393999997934;10730.0572734;m;0.2556741000007605;0.2583637000007002;10730.3212277;2.599999788799323e-06;0.5030151999999362;0.5430263999987801;0.5930580999993253;0.6630962999988697;0.7931754999990517;0.9232794999988982;0.01
4;2;18;2;letter169;letter190;letter169;letter190;0;0;congruent;0.04;letter190;0.09;0.07;fullmask;0.2;arrow_right.png;down;0.24421719999918423;0.2493482000008953;10732.0892524;m;0.280905999999959;0.28912510000009206;10732.3772291;2.5000008463393897e-06;0.49866990000009537;0.5386804999998276;0.5888517000003048;0.658772200000385;0.7888567999998486;0.91895040000054;0.01
4;2;18;3;letter169;letter190;letter169;letter190;0;0;incongruent;0.04;letter169;0.09;0.07;fullmask;0.2;arrow_right.png;up;0.2874859000003198;0.29035970000040834;10734.1933455;m;0.27507130000049074;0.27831370000058087;10734.4732243;2.5000008463393897e-06;0.4960201000012603;0.5360405999999784;0.5860642000006919;0.6561025999999401;0.7861843000009685;0.9162845000009838;0.01
4;2;18;4;letter169;letter190;letter169;letter190;0;1;congruent;0.12;letter169;0.18;0.07;fullmask;0.2;arrow_left.png;down;0.22628240000085498;0.2304044000011345;10736.3133629;c;0.2115587999996933;0.22045710000020335;10736.7294513;2.499999027349986e-06;0.49979809999967983;0.6198693000005733;0.6799147999990964;0.7499279000003298;0.880011100000047;1.0101123000004009;0.01
4;2;18;5;letter169;letter190;letter169;letter190;0;0;incongruent;0.04;letter169;0.09;0.07;fullmask;0.2;arrow_right.png;up;0.23896489999970072;0.2404170999998314;10738.4972458;m;0.300572000000102;0.30822710000029474;10738.8012093;2.499999027349986e-06;0.4961607000004733;0.5361694999992324;0.5862123999995674;0.6562376999991102;0.7863354999990406;0.9164292000004934;0.01
4;2;18;6;letter169;letter190;letter169;letter190;0;0;incongruent;0.04;letter169;0.09;0.07;fullmask;0.2;arrow_right.png;up;0.239374200000384;0.240373600001476;10740.5693046;m;0.3089811000008922;0.31820479999987583;10740.8812175;2.70000055024866e-06;0.49875800000154413;0.5387836000008974;0.5888154000003851;0.6588539000003948;0.7889465000007476;0.9190323000002536;0.01
4;2;18;7;letter169;letter190;letter169;letter190;0;0;congruent;0.04;letter169;0.09;0.07;fullmask;0.2;arrow_left.png;up;0.23815429999922344;0.24042269999881682;10742.6492485;c;0.3078542999992351;0.3081511000000319;10742.9612999;2.499999027349986e-06;0.5046904999999242;0.5447136999991926;0.59473109999999;0.6647826999997051;0.7948613000007754;0.9249729999992269;0.01
4;2;18;8;letter169;letter190;letter169;letter190;0;0;incongruent;0.04;letter169;0.09;0.07;fullmask;0.2;arrow_right.png;up;0.20664439999927708;0.21036570000069332;10744.6892483;m;0.2824276999999711;0.2883899000007659;10744.977341;2.4000000848900527e-06;0.49803499999870837;0.5380557999997109;0.5881009999993694;0.6581310000001395;0.7882073000000673;0.9183085999993637;0.01
4;2;18;9;letter169;letter190;letter169;letter190;0;0;incongruent;0.04;letter190;0.09;0.07;fullmask;0.2;arrow_left.png;down;0.43336050000107207;0.4407489000004716;10746.937254;c;0.30259919999843987;0.3082263999986026;10747.2491817;2.5000008463393897e-06;0.49899350000123377;0.5390323999999964;0.5890392000001157;0.6590859000007185;0.7891584000008152;0.91926820000117;0.01
4;2;18;10;letter169;letter190;letter169;letter190;0;0;incongruent;0.04;letter190;0.09;0.07;fullmask;0.2;arrow_left.png;up;0.3061479000007239;0.3102314000007027;10749.0812471;c;0.08382779999919876;0.09077260000049137;10749.369179;2.4000000848900527e-06;0.5008434999999736;0.5408571999996639;0.590878299999531;0.6609201000010216;0.7910045000007813;0.921114700000544;0.01
4;2;18;11;letter169;letter190;letter169;letter190;0;0;congruent;0.04;letter190;0.09;0.07;fullmask;0.2;arrow_right.png;down;0.20693350000146893;0.21043509999981325;10751.1133222;m;0.30644759999995586;0.3082252000003791;10751.4252095;2.3000011424301192e-06;0.49946540000019013;0.5394923000003473;0.5895216000008077;0.6595491000007314;0.7896433000005345;0.9197364999999991;0.01
4;2;18;12;letter169;letter190;letter169;letter190;0;0;congruent;0.04;letter190;0.09;0.07;fullmask;0.2;arrow_right.png;down;0.20353419999992184;0.21039240000027348;10753.1614373;m;0.3590272000001278;0.36808079999900656;10753.5292227;2.5000008463393897e-06;0.50278310000067;0.5427876000012475;0.5928371000009065;0.6628684000006615;0.7929511000002094;0.9230456000004779;0.01
4;2;18;13;letter169;letter190;letter169;letter190;0;0;congruent;0.04;letter190;0.09;0.07;fullmask;0.2;arrow_right.png;down;0.3575271999998222;0.3600956000009319;10755.4172472;m;0.3314548999987892;0.33814629999869794;10755.753211;2.5000008463393897e-06;0.503103099999862;0.5431246000007377;0.5931639000009454;0.6631983000006585;0.7932393999999476;0.9233693999995012;0.01
4;2;18;14;letter169;letter190;letter169;letter190;0;0;congruent;0.04;letter169;0.09;0.07;fullmask;0.2;arrow_left.png;up;0.16618340000059106;0.16960780000044906;10757.4572626;c;0.27459020000060264;0.27831549999973504;10757.7372089;2.4000000848900527e-06;0.5060020000000804;0.5460332999991806;0.5960512999990897;0.6660892999989301;0.7961753999989014;0.9262808000003133;0.01
4;2;18;15;letter169;letter190;letter169;letter190;0;0;incongruent;0.04;letter190;0.09;0.07;fullmask;0.2;arrow_left.png;down;0.3315001000009943;0.3411496000007901;10759.5932541;c;0.2765089000004082;0.27840520000063407;10759.8813486;2.4000000848900527e-06;0.498633900000641;0.5386412000007113;0.5886848000009195;0.6587350999998307;0.7887957999992068;0.9189017999997304;0.01
4;2;18;16;letter169;letter190;letter169;letter190;0;0;incongruent;0.04;letter190;0.09;0.07;fullmask;0.2;arrow_left.png;down;0.25601260000075854;0.2606611999999586;10761.6492562;c;0.3133993000010378;0.3181994000005943;10761.9692443;2.5000008463393897e-06;0.4960404000012204;0.5360553000009531;0.5860822000013286;0.6561265000000276;0.7862048000006325;0.9163086999997176;0.01
4;2;18;17;letter169;letter190;letter169;letter190;0;0;congruent;0.04;letter169;0.09;0.07;fullmask;0.2;arrow_left.png;up;0.23404940000000352;0.2394070999998803;10763.7292407;c;0.31266820000018924;0.3191958000006707;10764.0492082;2.399998265900649e-06;0.5009159999990516;0.540929299999334;0.5909959000000526;0.6610212999985379;0.7911040999988472;0.9211994999986928;0.01
4;2;18;18;letter169;letter190;letter169;letter190;0;0;congruent;0.04;letter190;0.09;0.07;fullmask;0.2;arrow_right.png;down;0.19911709999905725;0.20069100000000617;10765.7852138;m;0.2605046999997285;0.26843860000008135;10766.0492347;2.5000008463393897e-06;0.5044634999994742;0.5444874999993772;0.5945332000010239;0.6645482999992964;0.7946429000003263;0.9247479999994539;0.01
4;2;18;19;letter169;letter190;letter169;letter190;0;0;incongruent;0.04;letter190;0.09;0.07;fullmask;0.2;arrow_left.png;down;0.32023260000096343;0.3303042000006826;10767.8974362;c;0.2759729999997944;0.27840869999999995;10768.1852862;2.4000000848900527e-06;0.49828080000042974;0.5383099000009679;0.5883563999996113;0.6583709000005911;0.7884733999999298;0.9185524000004079;0.01
4;2;18;20;letter169;letter190;letter169;letter190;0;0;incongruent;0.04;letter169;0.09;0.07;fullmask;0.2;arrow_right.png;up;0.18082409999988158;0.1905482000001939;10769.8892844;m;0.3162951000012981;0.31819960000029823;10770.2172427;2.499999027349986e-06;0.49707759999910195;0.5370721999988746;0.5871398999988742;0.6571690999990096;0.7872480999994877;0.9173503999991226;0.01
4;2;18;21;letter169;letter190;letter169;letter190;0;0;congruent;0.04;letter169;0.09;0.07;fullmask;0.2;arrow_left.png;up;0.22887559999981022;0.2304121999986819;10771.9692013;c;0.2846332999997685;0.28826649999973597;10772.2573122;2.4000000848900527e-06;0.49414839999917604;0.534170400000221;0.5841934999989462;0.6542498999988311;0.7843092999992223;0.9144132999990688;0.01
4;2;18;22;letter169;letter190;letter169;letter190;0;0;incongruent;0.04;letter190;0.09;0.07;fullmask;0.2;arrow_left.png;up;0.33980350000092585;0.3399814000003971;10774.121262;c;0.0713830999993661;0.07980080000015732;10774.3933002;2.3000011424301192e-06;0.5019396999996388;0.5419791000003897;0.5920282000006409;0.6620554000000993;0.7921480000004522;0.9222456000006787;0.01
4;2;18;23;letter169;letter190;letter169;letter190;0;1;congruent;0.12;letter190;0.18;0.07;fullmask;0.2;arrow_right.png;down;0.23376449999886972;0.23941159999958472;10776.2572307;m;0.2803894000007858;0.28828640000028827;10776.5451988;2.2999993234407157e-06;0.5049832999993669;0.6250636999993731;0.6851038000004337;0.7551354999995965;0.8852071999990585;1.0153411999999662;0.01
4;2;18;24;letter169;letter190;letter169;letter190;0;0;congruent;0.04;letter169;0.09;0.07;fullmask;0.2;arrow_left.png;up;0.3267468000012741;0.3301759000005404;10778.4012868;c;0.25856410000051255;0.26833190000070317;10778.6652206;2.4000000848900527e-06;0.49643900000046415;0.5364663000000292;0.5864667999994708;0.6565071000004536;0.7866039000000455;0.9166944999997213;0.01
4;2;18;25;letter169;letter190;letter169;letter190;0;0;incongruent;0.04;letter169;0.09;0.07;fullmask;0.2;arrow_right.png;up;0.14986390000012761;0.15069089999997232;10780.3452014;m;0.34931869999854825;0.3580906999995932;10780.6972543;2.599999788799323e-06;0.5023722999994789;0.5423998999995092;0.5924221000004763;0.6624599000006128;0.7925443000003725;0.9226532000011503;0.01
4;2;18;26;letter169;letter190;letter169;letter190;0;0;incongruent;0.04;letter169;0.09;0.07;fullmask;0.2;arrow_right.png;up;0.27073659999950905;0.2803085999985342;10782.4972297;m;0.28443659999902593;0.2882792000000336;10782.7931796;2.5000008463393897e-06;0.49974870000005467;0.5397415999996156;0.5897996000003332;0.6598451000008936;0.7899194000001444;0.9200252999999066;0.01
4;2;18;27;letter169;letter190;letter169;letter190;0;0;congruent;0.04;letter169;0.09;0.07;fullmask;0.2;arrow_left.png;up;0.5153984000007767;0.5206766999999672;10784.8332389;c;0.2807489999995596;0.28828799999973853;10785.1211912;2.4000000848900527e-06;0.49975830000039423;0.5397637999994913;0.5898233000007167;0.6598391000006814;0.789936500001204;0.9200412000009237;0.01
4;2;18;28;letter169;letter190;letter169;letter190;0;0;incongruent;0.04;letter169;0.09;0.07;fullmask;0.2;arrow_right.png;up;0.3356640999991214;0.3401383000000351;10786.9852232;m;0.2255795000000944;0.22842619999937597;10787.217231;2.4000000848900527e-06;0.49809360000108427;0.5381051000003936;0.5881497000009404;0.6581717999997636;0.7882623000004969;0.9183783000007679;0.01
4;2;18;29;letter169;letter190;letter169;letter190;0;0;incongruent;0.04;letter190;0.09;0.07;fullmask;0.2;arrow_left.png;up;0.40160409999953117;0.40996329999870795;10789.1532432;c;0.03909600000042701;0.03990159999921161;10789.4011475;2.4000000848900527e-06;0.5034779999987222;0.5434972000002745;0.5935379000002285;0.6635636999999406;0.7936485999998695;0.9237610000000132;0.01
4;2;18;30;letter169;letter190;letter169;letter190;0;0;incongruent;0.04;letter190;0.09;0.07;fullmask;0.2;arrow_left.png;down;0.2792537999994238;0.2812622999990708;10791.2014382;c;0.28400089999922784;0.2873835999998846;10791.4892804;2.499999027349986e-06;0.5009315999996033;0.5409701999997196;0.5909854999990785;0.6610292999994272;0.7910964999991847;0.9212055999996664;0.01
4;2;18;31;letter169;letter190;letter169;letter190;0;0;incongruent;0.04;letter169;0.09;0.07;fullmask;0.2;arrow_right.png;up;0.323840699998982;0.33112899999832734;10793.3372511;m;0.28682259999914095;0.28828359999897657;10793.6333031;2.5000008463393897e-06;0.4956872000002477;0.5357017000005726;0.5857267999999749;0.6557668999994348;0.7858532000009291;0.9159620000009454;0.01
4;2;18;32;letter169;letter190;letter169;letter190;0;0;congruent;0.04;letter190;0.09;0.07;fullmask;0.2;arrow_right.png;down;0.3182288999996672;0.3201556999993045;10795.4732394;m;0.3240699999987555;0.32817289999911736;10795.8011794;2.4000000848900527e-06;0.49924250000003667;0.5392604999997275;0.5893094000002748;0.6593384000007063;0.7894293000008474;0.919526899999255;0.01
4;2;18;33;letter169;letter190;letter169;letter190;0;0;incongruent;0.04;letter169;0.09;0.07;fullmask;0.2;arrow_right.png;up;0.348927699998967;0.35012099999948987;10797.6652463;m;0.27678930000001856;0.27829100000053586;10797.9451853;2.4000000848900527e-06;0.49681969999983266;0.5368480999986787;0.5869090999985929;0.656916199999614;0.7870121999985713;0.9171032999984163;0.01
4;2;18;34;letter169;letter190;letter169;letter190;0;0;incongruent;0.04;letter190;0.09;0.07;fullmask;0.2;arrow_left.png;down;0.40373579999868525;0.41092249999928754;10799.8813655;m;0.4708479000000807;0.4779850000013539;10800.3612332;2.4000000848900527e-06;0.4994425999993837;0.539473500000895;0.5895189000002574;0.6595330000000104;0.789635700000872;0.9197153000004619;0.01
4;2;18;35;letter169;letter190;letter169;letter190;0;0;incongruent;0.04;letter190;0.09;0.07;fullmask;0.2;arrow_left.png;down;0.27194710000003397;0.28026390000013635;10802.1612256;c;0.3017007000016747;0.30821840000135126;10802.4731917;2.70000055024866e-06;0.5017107000003307;0.5417362000007415;0.5917568000004394;0.661786700000448;0.7918687000001228;0.9219577000003483;0.01
4;2;18;36;letter169;letter190;letter169;letter190;0;0;congruent;0.04;letter190;0.09;0.07;fullmask;0.2;arrow_right.png;down;0.32861880000018573;0.3301274999994348;10804.3292282;m;0.38857569999890984;0.3889407000006031;10804.7212534;2.499999027349986e-06;0.4953753999998298;0.5353978000002826;0.5854543999994348;0.655456000000413;0.7855485999989469;0.9156506999988778;0.01
4;2;18;37;letter169;letter190;letter169;letter190;0;0;congruent;0.04;letter169;0.09;0.07;fullmask;0.2;arrow_left.png;up;0.3428195999986201;0.3501264999995328;10806.5852291;c;0.3187489000010828;0.3281705999997939;10806.9132248;2.4000000848900527e-06;0.4975488999989466;0.5375745999990613;0.5876035999990563;0.6576478999995743;0.7877254999984871;0.9178348999994341;0.01
4;2;18;38;letter169;letter190;letter169;letter190;0;0;incongruent;0.04;letter190;0.09;0.07;fullmask;0.2;arrow_left.png;down;0.33331100000032166;0.34010480000142707;10808.7772527;c;0.25537620000068273;0.25847719999910623;10809.0413516;2.5000008463393897e-06;0.4987037999999302;0.5387286000004678;0.5887725000011415;0.6587980000003881;0.7888814000016282;0.918991400001687;0.01
4;2;18;39;letter169;letter190;letter169;letter190;0;1;incongruent;0.12;letter169;0.18;0.07;fullmask;0.2;arrow_right.png;up;0.31360859999949753;0.3202028999985487;10810.9692345;m;0.30341020000014396;0.3082260999999562;10811.2811825;2.4000000848900527e-06;0.5041027999996004;0.6241594000002806;0.6841922000003251;0.7542378999987704;0.8843157999999676;1.0144153000001097;0.01
4;2;18;40;letter169;letter190;letter169;letter190;0;0;congruent;0.04;letter169;0.09;0.07;fullmask;0.2;arrow_left.png;up;0.2667094000007637;0.2702947000016138;10813.0732202;c;0.2664201999996294;0.2683238999998139;10813.3451769;2.5000008463393897e-06;0.4967711999997846;0.5367879000004905;0.5868155999996816;0.6568612999999459;0.7869461000009323;0.9170485000013286;0.01
4;2;18;41;letter169;letter190;letter169;letter190;0;0;congruent;0.04;letter169;0.09;0.07;fullmask;0.2;arrow_left.png;up;0.2535518000004231;0.26037949999954435;10815.1212522;c;0.2472608999996737;0.24850169999990612;10815.377246;2.499999027349986e-06;0.4992659999988973;0.5392912999996042;0.5893340999991779;0.6593601999993552;0.7894436999995378;0.9195546999999351;0.01
4;2;18;42;letter169;letter190;letter169;letter190;0;0;congruent;0.04;letter190;0.09;0.07;fullmask;0.2;arrow_right.png;down;0.2464404000002105;0.2503897999995388;10817.1452071;m;0.2740929999999935;0.27831110000079207;10817.4251833;2.4000000848900527e-06;0.49880579999990005;0.5387895999992907;0.5888447999986965;0.658873999998832;0.7889556999998604;0.9190545999990718;0.01
4;2;18;43;letter169;letter190;letter169;letter190;0;0;congruent;0.04;letter190;0.09;0.07;fullmask;0.2;arrow_right.png;down;0.3308863999991445;0.3401142000002437;10819.2813966;m;0.27681049999955576;0.2784076999996614;10819.5692683;2.5000008463393897e-06;0.4973410000002332;0.5373519000004308;0.5873834000012721;0.6574288000010711;0.7875080000012531;0.9176138000002538;0.01
4;2;18;44;letter169;letter190;letter169;letter190;0;0;congruent;0.04;letter169;0.09;0.07;fullmask;0.2;arrow_left.png;up;0.33287250000103086;0.34011199999986275;10821.4252345;c;0.270822100001169;0.2783121000011306;10821.7052268;2.7999994927085936e-06;0.49955839999893215;0.5395535999996355;0.5896090999995067;0.6596435999999812;0.7897268999986409;0.9198236999982328;0.01
4;2;18;45;letter169;letter190;letter169;letter190;0;0;incongruent;0.04;letter190;0.09;0.07;fullmask;0.2;arrow_left.png;down;0.2634522999996989;0.2692938999989565;10823.497186;c;0.2882445999985066;0.29825069999969855;10823.7932152;2.5000008463393897e-06;0.4993291999999201;0.5393258000003698;0.5894034000011743;0.6594049000013911;0.7895458000002691;0.9195897000008699;0.01
4;2;18;46;letter169;letter190;letter169;letter190;0;0;congruent;0.04;letter169;0.09;0.07;fullmask;0.2;arrow_left.png;up;0.44458989999839105;0.44985819999965315;10825.7692256;c;0.296783100000539;0.2982594999994035;10826.0732091;2.4000000848900527e-06;0.49881449999884353;0.5388199999997596;0.588863199998741;0.6588943999995536;0.788974799999778;0.9190964999997959;0.01
4;2;18;47;letter169;letter190;letter169;letter190;0;1;incongruent;0.12;letter190;0.18;0.07;fullmask;0.2;arrow_left.png;down;0.29152590000012424;0.30025340000065626;10827.977267;c;0.29334879999987606;0.2983523000002606;10828.2812841;2.5000008463393897e-06;0.5022165000009409;0.622293800000989;0.6823282000004838;0.7523750000000291;0.8824495000008028;1.0125546000017493;0.01
4;2;18;48;letter169;letter190;letter169;letter190;0;0;incongruent;0.04;letter169;0.09;0.07;fullmask;0.2;arrow_right.png;up;0.37816469999961555;0.3809481999996933;10830.1852287;m;0.2991400999999314;0.30822299999999814;10830.4891754;2.499999027349986e-06;0.4987072000003536;0.5387329999994108;0.5887623999988136;0.6587975999991613;0.788852699999552;0.918963399999484;0.01
4;2;18;49;letter169;letter190;letter169;letter190;0;0;congruent;0.04;letter190;0.09;0.07;fullmask;0.2;arrow_right.png;down;0.29406120000021474;0.3002113000002282;10832.3132012;m;0.2879362999992736;0.2881684000003588;10832.6092337;2.4000000848900527e-06;0.5006061000003683;0.5406394000001455;0.5906665000002249;0.6606995999991341;0.7907832000000781;0.9208775000006426;0.01
4;2;18;50;letter169;letter190;letter169;letter190;0;0;congruent;0.04;letter169;0.09;0.07;fullmask;0.2;arrow_left.png;up;0.22117040000011912;0.23043970000071567;10834.3612282;c;0.28475260000050184;0.288284799999019;10834.6571846;2.6000016077887267e-06;0.5048246000005747;0.5448521000016626;0.5948627000016131;0.6649021000011999;0.7949872000008327;0.925061400001141;0.01
4;2;18;51;letter169;letter190;letter169;letter190;0;0;congruent;0.04;letter190;0.09;0.07;fullmask;0.2;arrow_right.png;down;0.2440755999996327;0.25039639999886276;10836.4254172;m;0.4398686999993515;0.4489572999991651;10836.8734157;2.2999993234407157e-06;0.4968048999999155;0.5368164999999863;0.586890399999902;0.6568891999995685;0.7870060000004742;0.9170735999996396;0.01
4;2;18;52;letter169;letter190;letter169;letter190;0;0;incongruent;0.04;letter169;0.09;0.07;fullmask;0.2;arrow_right.png;up;0.32024470000033034;0.3299877999997989;10838.7132593;m;2.068147099998896;2.069522899999356;10840.7931433;2.599999788799323e-06;0.49882919999981823;0.5388490999994247;0.5888904999992519;0.6589192000010371;0.7890337999997428;0.9191026000007696;0.01
subjnr;loop_m;blocknr;trialnr;cue_left_learn;cue_right_learn;option_up;option_down;practice;motivation; congruence;cue_dur;cue;SOA;mask_dur;mask;target_dur;target;response;RT;kb_rt;response_absolute;response_target;RT_target;kb_rt_target;response_absolute_target; fix_onset;cue_onset;cue_offset;mask_onset;mask_offset;target_offset;blank_onset;frame_dur
