subjnr;loop_m;blocknr;trialnr;cue_left_learn;cue_right_learn;option_up;option_down;practice;motivation; congruence;cue_dur;cue;SOA;mask_dur;mask;target_dur;target;response;RT;kb_rt;response_absolute;response_target;RT_target;kb_rt_target;response_absolute_target; fix_onset;cue_onset;cue_offset;mask_onset;mask_offset;target_offset;blank_onset;frame_dur
5;1;9;1;letter181;letter357;letter357;letter181;0;0;incongruent;0.04;letter357;0.05;0.07;fullmask;0.2;arrow_left.png;down;0.7756200000003446;0.7798192999980529;23863.5710217;m;1.6672912999965774;1.6714852999975847;23865.4430013;3.0999981390777975e-06;0.49732719999883557;0.5373408999985259;0.5473625999984506;0.6173818999996001;0.747480900001392;0.8775639999985287;0.01
5;1;9;2;letter181;letter357;letter357;letter181;0;0;incongruent;0.04;letter181;0.05;0.07;fullmask;0.2;arrow_right.png;down;1.409345599997323;1.4112765999998373;23868.3471558;m;0.7880460999986099;0.797929500000464;23869.1390702;3.1000017770566046e-06;0.5004272000005585;0.540443800000503;0.550469300000259;0.6204939000017475;0.750582000000577;0.8806756000012683;0.01
5;1;9;3;letter181;letter357;letter357;letter181;0;0;congruent;0.04;letter357;0.05;0.07;fullmask;0.2;arrow_right.png;up;0.4135845999990124;0.421037799998885;23871.0432514;c;1.0786272000004828;1.0882500000006985;23872.1311509;3.1000017770566046e-06;0.504667100001825;0.5446961000016017;0.5547097999988182;0.6247287000005599;0.7548160000005737;0.8849116000019421;0.01
5;1;9;4;letter181;letter357;letter357;letter181;0;0;congruent;0.04;letter181;0.05;0.07;fullmask;0.2;arrow_left.png;up;0.9670976000015798;0.9704587000014726;23874.5790415;c;0.4841371000002255;0.48969960000249557;23875.2669899;2.9999973776284605e-06;0.49729149999984656;0.5373185999997077;0.5473278999998001;0.6173590999969747;0.7474594999985129;0.8775304999981017;0.01
5;1;9;5;letter181;letter357;letter357;letter181;0;0;incongruent;0.04;letter357;0.05;0.07;fullmask;0.2;arrow_left.png;down;1.5952022999990731;1.6014562000018486;23878.3390381;c;0.2421892000020307;0.25024480000138283;23878.7870245;3.0000010156072676e-06;0.4946110000018962;0.5346315999995568;0.5446446999994805;0.6146865000009711;0.7447676000010688;0.8748469999991357;0.01
5;1;9;6;letter181;letter357;letter357;letter181;0;0;incongruent;0.04;letter181;0.05;0.07;fullmask;0.2;arrow_right.png;down;1.383168199998181;1.3913656000004266;23881.6589641;c;0.37393259999953443;0.3780421000010392;23882.043034;2.9999973776284605e-06;0.5021724999969592;0.5421854999985953;0.552188899997418;0.6222240999995847;0.7523041999993438;0.8824061999985133;0.01
5;1;9;7;letter181;letter357;letter357;letter181;0;0;incongruent;0.04;letter181;0.05;0.07;fullmask;0.2;arrow_right.png;down;0.9621950000000652;0.9706424000032712;23884.4910134;m;0.33363269999972545;0.33815320000212523;23884.8349932;2.7999994927085936e-06;0.4985381000005873;0.5385545999997703;0.5485668000001169;0.6186153999988164;0.7486973999984912;0.8788182999996934;0.01
5;1;9;8;letter181;letter357;letter357;letter181;0;0;congruent;0.04;letter181;0.05;0.07;fullmask;0.2;arrow_left.png;down;0.9067079000014928;0.9106672999987495;23887.2270285;c;0.37005719999797293;0.37804049999976996;23887.6029852;3.2999996619764715e-06;0.5038572000012209;0.5438480000011623;0.553855800000747;0.6238948999998684;0.7539815999989514;0.8840635000015027;0.01
5;1;9;9;letter181;letter357;letter357;letter181;0;0;congruent;0.04;letter181;0.05;0.07;fullmask;0.2;arrow_left.png;down;0.599623199999769;0.6004838999979256;23889.6910575;c;0.37319470000147703;0.3790563000002294;23890.0670068;3.0000010156072676e-06;0.49722839999958524;0.5372806000013952;0.5472441999991133;0.6172856999983196;0.7473643000012089;0.8774612000015622;0.01
5;1;9;10;letter181;letter357;letter357;letter181;0;0;incongruent;0.04;letter357;0.05;0.07;fullmask;0.2;arrow_left.png;down;2.0317462000020896;2.0415901000014856;23893.5950822;c;0.08557010000004084;0.08980779999910737;23893.890936;2.9000002541579306e-06;0.4966640000020561;0.5366916000020865;0.5467234999996435;0.6167402999999467;0.7468188000020746;0.8769281000022602;0.01
5;1;9;11;letter181;letter357;letter357;letter181;0;0;congruent;0.04;letter357;0.05;0.07;fullmask;0.2;arrow_right.png;down;1.443348299999343;1.4512759999997797;23896.8192045;m;0.551442700001644;0.5595570000004955;23897.578977;3.0000010156072676e-06;0.5027315000006638;0.5427307999998447;0.5527742999984184;0.6227780000008352;0.752893299999414;0.8829747999989195;0.01
5;1;9;12;letter181;letter357;letter357;letter181;0;1;congruent;0.12;letter181;0.14;0.07;fullmask;0.2;arrow_left.png;down;1.0565843999975186;1.0602181999965978;23900.2350968;m;0.4183960999980627;0.41893139999956475;23900.6590745;2.9000002541579306e-06;0.49962030000097;0.6196768000008888;0.6396963000006508;0.7097319000022253;0.8398132000002079;0.9699104000028456;0.01
5;1;9;13;letter181;letter357;letter357;letter181;0;0;congruent;0.04;letter357;0.05;0.07;fullmask;0.2;arrow_right.png;down;1.68443059999845;1.6905320000005304;23903.8350601;m;0.009282999999413732;0.019973999998910585;23904.0510889;2.9000002541579306e-06;0.5015748999976495;0.5415943999978481;0.5516158999998879;0.6216277999992599;0.7517329000002064;0.8818100999997114;0.01
5;1;9;14;letter181;letter357;letter357;letter181;0;0;congruent;0.04;letter357;0.05;0.07;fullmask;0.2;arrow_right.png;up;0.8923697999998694;0.9005133999999089;23906.4349918;m;0.3739120999998704;0.37803839999833144;23906.8189906;3.0000010156072676e-06;0.5024707999982638;0.5424783999987994;0.55249940000067;0.622530699998606;0.7526061999997182;0.8827029999993101;0.01
5;1;9;15;letter181;letter357;letter357;letter181;0;0;congruent;0.04;letter357;0.05;0.07;fullmask;0.2;arrow_right.png;down;0.7284199000023364;0.7300666000010096;23909.043011;m;0.3658899999973073;0.37002989999746205;23909.6109916;3.3000032999552786e-06;0.5050689000017883;0.5450702000016463;0.5550903000003018;0.6251118000000133;0.755205700002989;0.8852974000001268;0.01
5;1;9;16;letter181;letter357;letter357;letter181;0;0;incongruent;0.04;letter181;0.05;0.07;fullmask;0.2;arrow_right.png;up;1.4753118999979051;1.4810623999983363;23912.5710242;m;0.3778094000008423;0.38014560000010533;23913.1551276;3.0000010156072676e-06;0.4965711000004376;0.5365959000009752;0.5466044000022521;0.6166257000004407;0.7467176000027393;0.8768169000031776;0.01
5;1;9;17;letter181;letter357;letter357;letter181;0;0;incongruent;0.04;letter181;0.05;0.07;fullmask;0.2;arrow_right.png;down;0.8470487000013236;0.8507653000015125;23915.4750533;m;0.266468600002554;0.268445800000336;23915.7470542;2.7999994927085936e-06;0.4969889999993029;0.5370043999973859;0.5470139999997627;0.6170562000006612;0.7471384999989823;0.8772300999989966;0.01
5;1;9;18;letter181;letter357;letter357;letter181;0;0;congruent;0.04;letter181;0.05;0.07;fullmask;0.2;arrow_left.png;down;1.4752534999970521;1.4810328999992635;23918.7149936;c;0.4003015000016603;0.4079507000024023;23919.1230106;2.9000002541579306e-06;0.49888609999834443;0.5389096999970207;0.5489046000002418;0.618958199996996;0.7490168000003905;0.8791275000003225;0.01
5;1;9;19;letter181;letter357;letter357;letter181;0;0;incongruent;0.04;letter357;0.05;0.07;fullmask;0.2;arrow_left.png;up;1.4212894000011147;1.4312166000017896;23922.0430801;c;0.45227670000167564;0.45892190000085975;23922.5072259;2.9999973776284605e-06;0.5032686999984435;0.5433173999990686;0.5533064999981434;0.6233265999981086;0.7534185000004072;0.8835171999999147;0.01
5;1;9;20;letter181;letter357;letter357;letter181;0;0;congruent;0.04;letter357;0.05;0.07;fullmask;0.2;arrow_right.png;up;0.6149018999967666;0.6204951999970945;23924.6192111;m;0.3924944999998843;0.3980907000004663;23925.0191307;3.0000010156072676e-06;0.5004614000026777;0.5404858000001695;0.5505019000011089;0.6205302000016673;0.750619700000243;0.8807178000024578;0.01
5;1;9;21;letter181;letter357;letter357;letter181;0;1;congruent;0.12;letter357;0.14;0.07;fullmask;0.2;arrow_right.png;up;0.7809082999992825;0.7899298000011186;23927.3870149;m;0.6369922000012593;0.6393416000028083;23928.0349775;2.9000002541579306e-06;0.49696639999820036;0.6170286999986274;0.6370443999985582;0.7070564999994531;0.8371541999986221;0.9672470000004978;0.01
5;1;9;22;letter181;letter357;letter357;letter181;0;0;congruent;0.04;letter181;0.05;0.07;fullmask;0.2;arrow_left.png;up;1.0371731999985059;1.0402690000009898;23930.5549587;c;0.06048069999815198;0.06982319999951869;23930.8189769;2.9000002541579306e-06;0.4995635000013863;0.5395917000023474;0.5495819999996456;0.6196225000021514;0.7496959000018251;0.879823999999644;0.01
5;1;9;23;letter181;letter357;letter357;letter181;0;0;congruent;0.04;letter181;0.05;0.07;fullmask;0.2;arrow_left.png;up;0.7319745999993756;0.7411119999997027;23933.0511769;c;0.19820500000059837;0.2001099000008253;23933.4589801;2.9000002541579306e-06;0.5009904999969876;0.5410013999971852;0.5509975999993912;0.6210419999988517;0.7511185999974259;0.8812518999984604;0.01
5;1;9;24;letter181;letter357;letter357;letter181;0;0;incongruent;0.04;letter357;0.05;0.07;fullmask;0.2;arrow_left.png;up;0.6774494999990566;0.6802310000020952;23935.6189985;c;0.34726729999965755;0.3481266999988293;23935.9709873;2.8999966161791235e-06;0.5025515999986965;0.5425741999970342;0.5525803999989876;0.6226081999993767;0.7526976999979524;0.8828118999990693;0.01
5;1;9;25;letter181;letter357;letter357;letter181;0;0;incongruent;0.04;letter357;0.05;0.07;fullmask;0.2;arrow_left.png;up;0.7336895000007644;0.739940999999817;23938.1869961;c;0.4078324000001885;0.40791900000112946;23938.6030272;2.9000002541579306e-06;0.5047611000009056;0.5447791000005964;0.5547989000006055;0.6248234000013326;0.7549091000000772;0.8850149000027159;0.01
5;1;9;26;letter181;letter357;letter357;letter181;0;0;incongruent;0.04;letter181;0.05;0.07;fullmask;0.2;arrow_right.png;down;0.7185701999987941;0.72007400000075;23940.8030955;m;0.30836920000001555;0.3193006000001333;23941.114919;3.0999981390777975e-06;0.5035433000011835;0.5435741000001144;0.553570200001559;0.6235998000011023;0.7536919000012858;0.8837851999996928;0.01
5;1;9;27;letter181;letter357;letter357;letter181;0;0;incongruent;0.04;letter357;0.05;0.07;fullmask;0.2;arrow_left.png;up;0.9743931999983033;0.9803041999984998;23943.571007;c;0.6321201999999175;0.6383464999998978;23944.2109764;3.0999981390777975e-06;0.49992790000032983;0.5399647999984154;0.5499466999972356;0.6199821999980486;0.7500830999997561;0.8801661999968928;0.01
5;1;9;28;letter181;letter357;letter357;letter181;0;0;congruent;0.04;letter357;0.05;0.07;fullmask;0.2;arrow_right.png;down;0.47046750000299653;0.4797336000010546;23946.1789739;m;0.3903110999999626;0.3999479000012798;23946.7789954;2.9000002541579306e-06;0.5026298999982828;0.5426447999998345;0.5527173000009498;0.622678799998539;0.7527736999982153;0.8828725999992457;0.01
5;1;9;29;letter181;letter357;letter357;letter181;0;0;congruent;0.04;letter181;0.05;0.07;fullmask;0.2;arrow_left.png;up;0.414704900002107;0.4197989000022062;23948.6750227;c;0.21031029999721795;0.21932659999947646;23949.0909725;2.9999973776284605e-06;0.5002270000004501;0.540225199998531;0.5502205999982834;0.620288399997662;0.7503407999975025;0.8804693999991287;0.01
5;1;9;30;letter181;letter357;letter357;letter181;0;1;incongruent;0.12;letter181;0.14;0.07;fullmask;0.2;arrow_right.png;down;0.8097343999979785;0.8107416999991983;23951.491034;m;0.2770682000009401;0.2783445999994001;23951.7710411;2.9000002541579306e-06;0.49734990000069956;0.6173998000012944;0.6374113000019861;0.707437300003221;0.8375301000014588;0.967621900002996;0.01
5;1;9;31;letter181;letter357;letter357;letter181;0;0;incongruent;0.04;letter181;0.05;0.07;fullmask;0.2;arrow_right.png;down;0.8941692999978841;0.9005126999982167;23954.146996;m;0.18365670000275713;0.18855180000173277;23954.3389428;3.0000010156072676e-06;0.5018973000005644;0.5419145999985631;0.5519386000014492;0.6219625999983691;0.7520447999995667;0.8821478999998362;0.01
5;1;9;32;letter181;letter357;letter357;letter181;0;0;congruent;0.04;letter181;0.05;0.07;fullmask;0.2;arrow_left.png;up;0.5623589999995602;0.5704001000012795;23956.3870048;c;0.11140940000041155;0.11969410000165226;23956.7068946;2.9000002541579306e-06;0.5025018000014825;0.5425188000008347;0.5525086000016017;0.6225616999981867;0.7526389000013296;0.8827369999999064;0.01
5;1;9;33;letter181;letter357;letter357;letter181;0;0;congruent;0.04;letter357;0.05;0.07;fullmask;0.2;arrow_right.png;up;0.91689100000076;0.9207022000009601;23959.1230827;c;0.4183983000002627;0.41900470000109635;23959.547133;3.0999981390777975e-06;0.5001023000004352;0.5401351000000432;0.550123099998018;0.620176000000356;0.750223899998673;0.880337700000382;0.01
5;1;9;34;letter181;letter357;letter357;letter181;0;0;incongruent;0.04;letter181;0.05;0.07;fullmask;0.2;arrow_right.png;down;0.9832182999998622;0.9914102999973693;23962.0109961;c;0.2378188999973645;0.24738819999765838;23962.2589475;3.1000017770566046e-06;0.49642990000211284;0.5364494000023114;0.5464613000003737;0.6164863000012701;0.7465817000011157;0.8766749000023992;0.01
5;1;9;35;letter181;letter357;letter357;letter181;0;0;incongruent;0.04;letter357;0.05;0.07;fullmask;0.2;arrow_left.png;up;0.7148718000025838;0.7200908000013442;23964.4749942;c;0.26478080000015325;0.2683566999985487;23964.746942;3.1000017770566046e-06;0.4998669999986305;0.5398940999984916;0.5498986999991757;0.6199263000016799;0.7500072000002547;0.8801113000008627;0.01
5;1;9;36;letter181;letter357;letter357;letter181;0;0;congruent;0.04;letter357;0.05;0.07;fullmask;0.2;arrow_right.png;down;0.47324139999909676;0.47976529999868944;23966.7151902;m;0.049015500000678;0.049912100002984516;23966.9710642;2.9999973776284605e-06;0.4980515999995987;0.5380401000002166;0.5480403000001388;0.6180969999986701;0.7481564999980037;0.8782738999980211;0.01
5;1;9;37;letter181;letter357;letter357;letter181;0;0;incongruent;0.04;letter357;0.05;0.07;fullmask;0.2;arrow_left.png;up;0.36004160000084084;0.36993359999905806;23968.8030685;m;0.3160543999983929;0.31820259999949485;23969.1309553;3.0000010156072676e-06;0.501008000002912;0.5410307000020111;0.5510668000024452;0.6210815000013099;0.751169300001493;0.8812535000033677;0.01
5;1;9;38;letter181;letter357;letter357;letter181;0;0;incongruent;0.04;letter181;0.05;0.07;fullmask;0.2;arrow_right.png;down;0.8831318000011379;0.8906667999981437;23971.5070487;m;0.9024468000025081;0.9086311999999452;23972.4189651;3.0000010156072676e-06;0.5034584000022733;0.5434886000002734;0.553520400000707;0.6235293000027013;0.753630900002463;0.8837122000004456;0.01
5;1;9;39;letter181;letter357;letter357;letter181;0;0;congruent;0.04;letter181;0.05;0.07;fullmask;0.2;arrow_left.png;up;0.4765618999990693;0.48087110000051325;23974.4030311;c;0.1323978000000352;0.14067290000093635;23974.7391494;3.1000017770566046e-06;0.4996102000004612;0.5396246000018436;0.5496280000006664;0.6196665999996185;0.7497538999996323;0.8798621999994793;0.01
5;1;9;40;letter181;letter357;letter357;letter181;0;0;incongruent;0.04;letter357;0.05;0.07;fullmask;0.2;arrow_left.png;up;0.6294574000021385;0.6303761999988637;23976.8669708;c;0.3172346999999718;0.3181938999987324;23977.1870639;2.9000002541579306e-06;0.5033188000015798;0.5433569000015268;0.5533562999989954;0.6233896000012464;0.7534876999998232;0.8835633999988204;0.01
5;1;9;41;letter181;letter357;letter357;letter181;0;0;incongruent;0.04;letter181;0.05;0.07;fullmask;0.2;arrow_right.png;down;0.430090999998356;0.4309268999968481;23979.0989959;m;0.4212048000008508;0.42791270000088844;23979.5229401;3.0000010156072676e-06;0.49810790000265115;0.5381112000031862;0.5481242000023485;0.6181509000016376;0.7482362000009743;0.8783295000030193;0.01
5;1;9;42;letter181;letter357;letter357;letter181;0;0;congruent;0.04;letter181;0.05;0.07;fullmask;0.2;arrow_left.png;down;1.0745320999994874;1.081147199998668;23982.0751145;c;0.42344500000035623;0.42800999999963096;23982.5070018;3.0000010156072676e-06;0.4977756000007503;0.5377803000010317;0.5477783999995154;0.61782569999923;0.7479029999994964;0.8780040999990888;0.01
5;1;9;43;letter181;letter357;letter357;letter181;0;1;incongruent;0.12;letter357;0.14;0.07;fullmask;0.2;arrow_left.png;up;0.6902042000001529;0.7001455000026908;23984.7630979;c;1.2439685999997891;1.248711899999762;23986.0189498;3.0000010156072676e-06;0.4996069000007992;0.6196745000015653;0.6396903000022576;0.7097136000011233;0.8398090000009688;0.9699022000022524;0.01
5;1;9;44;letter181;letter357;letter357;letter181;0;0;congruent;0.04;letter181;0.05;0.07;fullmask;0.2;arrow_left.png;down;0.4238264000014169;0.42990439999994123;23987.9389787;m;0.9119711000021198;0.9185943000011321;23988.8589767;3.3999967854470015e-06;0.499492699997063;0.5395289999978559;0.5495092999990447;0.6195469999984198;0.7496270999981789;0.8797476999970968;0.01
5;1;9;45;letter181;letter357;letter357;letter181;0;0;congruent;0.04;letter181;0.05;0.07;fullmask;0.2;arrow_left.png;up;0.6943374000002223;0.7012781000012183;23991.0511241;c;0.04163490000064485;0.04987299999993411;23991.2990413;3.0000010156072676e-06;0.4980408000010357;0.5380604000019957;0.5480956999999762;0.61809920000087;0.7481994000008854;0.8782854000019142;0.01
5;1;9;46;letter181;letter357;letter357;letter181;0;0;congruent;0.04;letter357;0.05;0.07;fullmask;0.2;arrow_right.png;up;0.5262349000004178;0.5296305000010761;23993.3150589;c;0.5225742000002356;0.5286383999991813;23993.8429661;2.9000002541579306e-06;0.49596549999841955;0.5359881000003952;0.5459854000000632;0.6160215999989305;0.7461051999998745;0.8762170000009064;0.01
5;1;9;47;letter181;letter357;letter357;letter181;0;0;congruent;0.04;letter357;0.05;0.07;fullmask;0.2;arrow_right.png;down;1.3105567999991763;1.320529799999349;23996.6510518;m;0.08547749999706866;0.08981039999707718;23996.9470113;3.1000017770566046e-06;0.5003160000014759;0.5403411000006599;0.55035560000033;0.6203754999987723;0.750478000001749;0.8805686999985483;0.01
5;1;9;48;letter181;letter357;letter357;letter181;0;0;incongruent;0.04;letter357;0.05;0.07;fullmask;0.2;arrow_left.png;up;0.5464780000002065;0.5498461999995925;23998.9789566;m;0.6026777000006405;0.6084322000024258;23999.5869378;3.0999981390777975e-06;0.5030960000003688;0.5431220999998914;0.5531448999972781;0.6231609999995271;0.7532539999992878;0.8833458999979484;0.01
5;1;9;49;letter181;letter357;letter357;letter181;0;0;incongruent;0.04;letter181;0.05;0.07;fullmask;0.2;arrow_right.png;down;0.37107490000198595;0.37999540000237175;24001.4349746;m;0.26905080000142334;0.2783405000009225;24001.7148836;3.0999981390777975e-06;0.4981015999983356;0.538117299998703;0.548131799998373;0.6181671999984246;0.7482367999982671;0.8783431999981985;0.01
5;1;9;50;letter181;letter357;letter357;letter181;0;0;incongruent;0.04;letter357;0.05;0.07;fullmask;0.2;arrow_left.png;up;0.3953994000003149;0.3999470000017027;24003.6109793;c;0.42546199999924283;0.42790100000274833;24004.0429389;2.9000002541579306e-06;0.49984309999854304;0.5398848999975598;0.5498776999993424;0.6199170999971102;0.749995799997123;0.880100999998831;0.01
5;1;9;51;letter181;letter357;letter357;letter181;0;0;congruent;0.04;letter357;0.05;0.07;fullmask;0.2;arrow_right.png;up;0.6227270000017597;0.630337700000382;24006.1391191;m;0.798419599999761;0.7988850000001548;24006.9469804;3.2999996619764715e-06;0.4957213000016054;0.5357552999994368;0.545725300002232;0.61577380000017;0.7458461999995052;0.8759651000000304;0.01
5;1;9;52;letter181;letter357;letter357;letter181;0;0;incongruent;0.04;letter181;0.05;0.07;fullmask;0.2;arrow_right.png;down;0.5429113999998663;0.5504561999987345;24008.9710396;m;0.27848720000110916;0.28827799999999115;24009.25901;2.9999973776284605e-06;0.5046695999990334;0.5446817999982159;0.5546939999985625;0.6247020999981032;0.754774199998792;0.884890199999063;0.01
5;1;10;1;letter181;letter357;letter357;letter181;0;0;congruent;0.04;letter357;0.05;0.07;fullmask;0.2;arrow_right.png;down;1.9368893999999273;1.9408556000016688;24025.115014;m;0.8834833999972034;0.8906150000002526;24026.2029404;3.0000010156072676e-06;0.5017454000008001;0.5417586000003212;0.5517572000026121;0.6218203999997058;0.751878700000816;0.8819858000024396;0.01
5;1;10;2;letter181;letter357;letter357;letter181;0;0;incongruent;0.04;letter181;0.05;0.07;fullmask;0.2;arrow_right.png;down;1.3424233000005188;1.351446600001509;24029.0429729;m;0.5811450999972294;0.5885721999984526;24029.6350879;2.9999973776284605e-06;0.5004060999999638;0.5404096999991452;0.5503988999989815;0.6204600999990362;0.7505170999975235;0.8806390999998257;0.01
5;1;10;3;letter181;letter357;letter357;letter181;0;0;incongruent;0.04;letter357;0.05;0.07;fullmask;0.2;arrow_left.png;down;1.0839104000006046;1.0911038000012923;24032.226959;c;0.08135109999784618;0.09066449999954784;24032.5149469;2.9000002541579306e-06;0.4995893999985128;0.539610799998627;0.5495988000002399;0.6196419000007154;0.7497116999984428;0.8798478999997315;0.01
5;1;10;4;letter181;letter357;letter357;letter181;0;0;congruent;0.04;letter181;0.05;0.07;fullmask;0.2;arrow_left.png;down;0.5004449000007298;0.5006246999982977;24034.5150513;c;0.3976958999992348;0.3979055999989214;24034.9149477;3.1000017770566046e-06;0.49958150000020396;0.5396154000009119;0.549569300001167;0.6196532000030857;0.7497103000023344;0.8798332000005757;0.01
5;1;10;5;letter181;letter357;letter357;letter181;0;1;congruent;0.12;letter357;0.14;0.07;fullmask;0.2;arrow_right.png;up;0.5649186000009649;0.5704022999998415;24037.050951;m;1.6166300000004412;1.6197276000020793;24038.6749985;3.0000010156072676e-06;0.5033640000001469;0.6234406000003219;0.6434627999988152;0.7135153999988688;0.8435872000009113;0.9736894999987271;0.01
5;1;10;6;letter181;letter357;letter357;letter181;0;0;incongruent;0.04;letter181;0.05;0.07;fullmask;0.2;arrow_right.png;down;0.5636027000000468;0.5695267000010062;24040.7229585;m;0.33612189999985276;0.33814519999941695;24041.0669447;3.0000010156072676e-06;0.49692160000267904;0.5369304000014381;0.546914900001866;0.6169678000005661;0.7470542000010028;0.87715770000068;0.01
5;1;10;7;letter181;letter357;letter357;letter181;0;0;congruent;0.04;letter181;0.05;0.07;fullmask;0.2;arrow_left.png;up;0.4763691000007384;0.4806404000009934;24043.0269396;c;0.0842451999997138;0.08976919999986421;24043.3149072;3.0000010156072676e-06;0.5057774000015343;0.5458026000014797;0.5557959000034316;0.625851300002978;0.7559035000012955;0.8860217000001285;0.01
5;1;10;8;letter181;letter357;letter357;letter181;0;0;congruent;0.04;letter181;0.05;0.07;fullmask;0.2;arrow_left.png;up;0.6414245000014489;0.6503124000009848;24045.4429366;c;0.2227167000019108;0.23043850000249222;24045.875046;3.0000010156072676e-06;0.5006619000014325;0.5406832000007853;0.5506814000000304;0.6207159000005049;0.7507913000008557;0.8809027999996033;0.01
5;1;10;9;letter181;letter357;letter357;letter181;0;0;incongruent;0.04;letter181;0.05;0.07;fullmask;0.2;arrow_right.png;down;0.6812012999980652;0.6900663999986136;24048.034955;m;0.22915389999980107;0.23841539999921224;24048.2749094;2.9000002541579306e-06;0.5005971999999019;0.5406071999968844;0.5506352999982482;0.6206340999997337;0.7507272000002558;0.8808086999997613;0.01
5;1;10;10;letter181;letter357;letter357;letter181;0;0;incongruent;0.04;letter357;0.05;0.07;fullmask;0.2;arrow_left.png;down;1.0774904999998398;1.0801706999991438;24050.8429475;c;0.06887790000109817;0.06986470000265399;24051.1149463;3.2999996619764715e-06;0.49957569999969564;0.5396002999987104;0.549627699998382;0.6196393999998691;0.7497346999989531;0.8798180999983742;0.01
5;1;10;11;letter181;letter357;letter357;letter181;0;0;incongruent;0.04;letter357;0.05;0.07;fullmask;0.2;arrow_left.png;down;1.3606220000001485;1.3613081000003149;24053.9470075;c;0.1268850000014936;0.12976980000166805;24054.2749937;2.9000002541579306e-06;0.5018229000015708;0.5418484000001627;0.5518498999990697;0.6218880000014906;0.7519687999993039;0.8820679000018572;0.01
5;1;10;12;letter181;letter357;letter357;letter181;0;0;congruent;0.04;letter181;0.05;0.07;fullmask;0.2;arrow_left.png;down;0.5081456000007165;0.5107137000013608;24056.2669394;c;0.2595092999981716;0.26833260000057635;24056.5309274;2.9000002541579306e-06;0.496703199998592;0.5367383000011614;0.5467653999985487;0.6167755999995279;0.7468842999987828;0.8769687999993039;0.01
5;1;10;13;letter181;letter357;letter357;letter181;0;0;incongruent;0.04;letter357;0.05;0.07;fullmask;0.2;arrow_left.png;up;0.9331581999977061;0.9415447999999742;24058.9630204;c;0.3576720999990357;0.3580118999998376;24059.3310117;3.1000017770566046e-06;0.4991239000009955;0.539150000000518;0.5491375000019616;0.6191877000019304;0.7492664999990666;0.879368500001874;0.01
5;1;10;14;letter181;letter357;letter357;letter181;0;0;congruent;0.04;letter357;0.05;0.07;fullmask;0.2;arrow_right.png;up;0.8311056000020471;0.8409080999990692;24061.6430981;m;0.844259500001499;0.8489141000027303;24062.4989957;3.0999981390777975e-06;0.49868639999840525;0.5387183999991976;0.54871490000005;0.6187510999989172;0.7488420999980008;0.8789539999997942;0.01
5;1;10;15;letter181;letter357;letter357;letter181;0;0;incongruent;0.04;letter357;0.05;0.07;fullmask;0.2;arrow_left.png;up;1.0189213999983622;1.0203284999988682;24065.0029343;c;0.4286580000007234;0.42881889999989653;24065.4349406;2.9000002541579306e-06;0.499375900002633;0.5393896999994467;0.5494075999995403;0.6194378000000142;0.7495200000012119;0.8796193000016501;0.01
5;1;10;16;letter181;letter357;letter357;letter181;0;0;incongruent;0.04;letter181;0.05;0.07;fullmask;0.2;arrow_right.png;down;0.46279779999895254;0.46980640000037965;24067.3790333;c;0.3429154999976163;0.348119799997221;24067.7308934;3.2000025385059416e-06;0.500061700000515;0.540070500002912;0.5500786000011431;0.6201132999995025;0.7502000000022235;0.8803069000023243;0.01
5;1;10;17;letter181;letter357;letter357;letter181;0;0;congruent;0.04;letter181;0.05;0.07;fullmask;0.2;arrow_left.png;down;1.4815707000016118;1.4911747000005562;24070.6992098;c;0.2603091000019049;0.26833819999956177;24070.970956;2.9000002541579306e-06;0.5014401999978872;0.5414612999993551;0.5514712999975018;0.621497799998906;0.7515978999981598;0.8816903000006278;0.01
5;1;10;18;letter181;letter357;letter357;letter181;0;0;congruent;0.04;letter181;0.05;0.07;fullmask;0.2;arrow_left.png;down;0.8493883000010101;0.850480900000548;24073.2988926;c;0.3090009999978065;0.31819850000101724;24073.610928;3.2999996619764715e-06;0.49897199999759323;0.5390043999977934;0.5489929999966989;0.6190366999981052;0.7491117999998096;0.8792184999983874;0.01
5;1;10;19;letter181;letter357;letter357;letter181;0;0;congruent;0.04;letter357;0.05;0.07;fullmask;0.2;arrow_right.png;down;0.7977592999995977;0.8008723999992071;24075.8989321;m;0.04539269999804674;0.05087749999802327;24076.1468861;2.9999973776284605e-06;0.49670379999952274;0.5367124999975204;0.546718099998543;0.6167561999973259;0.7468407999986084;0.8769272999998066;0.01
5;1;10;20;letter181;letter357;letter357;letter181;0;0;congruent;0.04;letter357;0.05;0.07;fullmask;0.2;arrow_right.png;up;1.2039592000000994;1.2107885000004899;24078.8271111;m;0.23920209999778308;0.24848980000024312;24079.0749758;3.3000032999552786e-06;0.4980321000002732;0.5380480000021635;0.5480676000006497;0.6180929000001925;0.7481840000000375;0.8782767000011518;0.01
5;1;10;21;letter181;letter357;letter357;letter181;0;0;incongruent;0.04;letter357;0.05;0.07;fullmask;0.2;arrow_left.png;up;0.7125262999979896;0.7209917999971367;24081.2669182;m;0.4135686000008718;0.4179385999996157;24081.6908924;3.2999996619764715e-06;0.49655189999975846;0.5365674000022409;0.5465691000026709;0.6166128000004392;0.746688000002905;0.8767870000010589;0.01
5;1;10;22;letter181;letter357;letter357;letter181;0;0;congruent;0.04;letter181;0.05;0.07;fullmask;0.2;arrow_left.png;down;0.4560631000022113;0.4598215000005439;24083.6429443;c;0.3062592999995104;0.30824500000016997;24083.9548954;2.9000002541579306e-06;0.5013017999990552;0.5413268999982392;0.5513351999979932;0.6213626999997359;0.7514572000000044;0.881589199998416;0.01
5;1;10;23;letter181;letter357;letter357;letter181;0;1;incongruent;0.12;letter181;0.14;0.07;fullmask;0.2;arrow_right.png;down;0.7451270000019576;0.7510641000008036;24086.2829305;m;0.5841235000007146;0.5884753999998793;24086.8749228;3.1000017770566046e-06;0.4952149000018835;0.615287000000535;0.6353017000001273;0.7053420000011101;0.8354144000004453;0.9655345000028319;0.01
5;1;10;24;letter181;letter357;letter357;letter181;0;0;incongruent;0.04;letter357;0.05;0.07;fullmask;0.2;arrow_left.png;down;1.0511217000021134;1.0601807000020926;24089.4110394;c;0.07028840000202763;0.07995110000047134;24089.6909214;3.0000010156072676e-06;0.4979338999983156;0.5379377999997814;0.5479699999996228;0.6179741999985708;0.7480719000013778;0.8781589999998687;0.01
5;1;10;25;letter181;letter357;letter357;letter181;0;0;congruent;0.04;letter357;0.05;0.07;fullmask;0.2;arrow_right.png;up;0.49358399999982794;0.5008237000001827;24091.6751452;m;0.5027063999987149;0.5076999999982945;24092.1869143;3.0000010156072676e-06;0.49957609999910346;0.5395811999987927;0.5495933999991394;0.6196211999995285;0.7497140999985277;0.8798089000010805;0.01
5;1;10;26;letter181;letter357;letter357;letter181;0;0;incongruent;0.04;letter181;0.05;0.07;fullmask;0.2;arrow_right.png;up;1.607363399998576;1.6108637999968778;24095.2909741;c;0.06814160000067204;0.06979680000222288;24095.56297;2.9999973776284605e-06;0.5035743999978877;0.5435913000001165;0.5536118999989412;0.6236347999983991;0.7537271000001056;0.8838260999982595;0.01
5;1;10;27;letter181;letter357;letter357;letter181;0;0;congruent;0.04;letter357;0.05;0.07;fullmask;0.2;arrow_right.png;down;0.6354162000025099;0.640377300002001;24097.6908842;c;0.7866360999978497;0.789898600000015;24098.6828979;2.9999973776284605e-06;0.49911489999794867;0.5391381999979785;0.5491430000001856;0.6191814999983762;0.749272099998052;0.8793674999978975;0.01
5;1;10;28;letter181;letter357;letter357;letter181;0;0;congruent;0.04;letter357;0.05;0.07;fullmask;0.2;arrow_right.png;up;0.7216919000020425;0.7312089000006381;24100.8989168;m;0.47664960000111023;0.4777855000029376;24101.3869155;3.0999981390777975e-06;0.5020746999980474;0.5420883999977377;0.5521338999969885;0.6221451999990677;0.75226389999807;0.882319299998926;0.01
5;1;10;29;letter181;letter357;letter357;letter181;0;0;incongruent;0.04;letter181;0.05;0.07;fullmask;0.2;arrow_right.png;down;0.5081505000016477;0.5110775000030117;24103.3869199;m;0.25950490000104764;0.2683321000004071;24103.6509057;3.1000017770566046e-06;0.501799800000299;0.5417722000020149;0.5518054000021948;0.6218410000001313;0.7519336000004841;0.8820412999994005;0.01
5;1;10;30;letter181;letter357;letter357;letter181;0;0;incongruent;0.04;letter181;0.05;0.07;fullmask;0.2;arrow_right.png;down;0.5719687000018894;0.5795122999988962;24105.7229818;m;1.1264562999967893;1.1290326999987883;24106.8589214;3.1000017770566046e-06;0.5000846000002639;0.5401115999993635;0.5501019000002998;0.6201571000019612;0.7502227000004495;0.8803321000013966;0.01
5;1;10;31;letter181;letter357;letter357;letter181;0;0;congruent;0.04;letter181;0.05;0.07;fullmask;0.2;arrow_left.png;down;0.8284850000018196;0.8311156000017945;24109.1709889;c;0.3155762999995204;0.31830320000153733;24109.491026;3.4000004234258085e-06;0.5022501000021293;0.5422758000022441;0.5522472000011476;0.6223028000022168;0.7523700000019744;0.8824744000012288;0.01
5;1;10;32;letter181;letter357;letter357;letter181;0;1;congruent;0.12;letter181;0.14;0.07;fullmask;0.2;arrow_left.png;down;0.5244730000013078;0.530509100000927;24111.5789296;c;1.2000311000010697;1.20884020000085;24112.7869349;3.0000010156072676e-06;0.49867270000322605;0.6187385000012;0.6387482000027376;0.7087872000010975;0.8388706000005186;0.96897810000155;0.01
5;1;10;33;letter181;letter357;letter357;letter181;0;0;incongruent;0.04;letter357;0.05;0.07;fullmask;0.2;arrow_left.png;down;0.5566896999989694;0.5610510999977123;24114.8429148;c;0.10764579999886337;0.10972670000046492;24115.1548748;3.0000010156072676e-06;0.49668320000273525;0.5367029000008188;0.5467265000006591;0.6167518000002019;0.7468461000025854;0.8769420000026003;0.01
5;1;10;34;letter181;letter357;letter357;letter181;0;0;incongruent;0.04;letter181;0.05;0.07;fullmask;0.2;arrow_right.png;up;0.3792561999980535;0.38004259999797796;24117.026927;m;0.5427158999991661;0.5505493999989994;24117.7708736;3.0000010156072676e-06;0.5049111000007542;0.5449307000017143;0.5549428000012995;0.6249773999988975;0.7550649000004341;0.8851691999989271;0.01
5;1;10;35;letter181;letter357;letter357;letter181;0;0;congruent;0.04;letter357;0.05;0.07;fullmask;0.2;arrow_right.png;down;0.357643300001655;0.3610776999994414;24119.6270067;m;0.09317809999993187;0.10078049999719951;24119.9230328;3.0999981390777975e-06;0.49717949999831035;0.5371960999982548;0.5472163999984332;0.6172341999990749;0.7473341999975673;0.8774263999985124;0.01
5;1;10;36;letter181;letter357;letter357;letter181;0;0;congruent;0.04;letter357;0.05;0.07;fullmask;0.2;arrow_right.png;down;0.4936190999978862;0.499709099996835;24121.9149138;m;0.48146190000261413;0.49070660000143107;24122.6029066;2.9000002541579306e-06;0.4996145000004617;0.5396365999986301;0.5496330999994825;0.6196815000002971;0.7497669999975187;0.8798722999999882;0.01
5;1;10;37;letter181;letter357;letter357;letter181;0;0;congruent;0.04;letter357;0.05;0.07;fullmask;0.2;arrow_right.png;down;0.8599899000000732;0.8607683999980509;24124.963003;m;0.0716906999987259;0.07979809999960708;24125.234912;2.9000002541579306e-06;0.49865000000136206;0.5386776000013924;0.5486904000026698;0.6187109999991662;0.7488018000003649;0.8788989999993646;0.01
5;1;10;38;letter181;letter357;letter357;letter181;0;0;incongruent;0.04;letter181;0.05;0.07;fullmask;0.2;arrow_right.png;down;0.40652310000223224;0.41005280000172206;24127.1309622;m;0.2507764000001771;0.25846589999855496;24127.3871045;3.1000017770566046e-06;0.498167800000374;0.5381822000017564;0.5481620999998995;0.6182121000019833;0.7482827000021643;0.878394000003027;0.01
5;1;10;39;letter181;letter357;letter357;letter181;0;0;incongruent;0.04;letter181;0.05;0.07;fullmask;0.2;arrow_right.png;down;0.47162220000245725;0.48063570000158506;24129.3469459;m;0.22092179999890504;0.22843819999980042;24129.5788235;3.1000017770566046e-06;0.5024264000021503;0.5424038000019209;0.5524148000004061;0.6224849999998696;0.7525212000000465;0.8826560000015888;0.01
5;1;10;40;letter181;letter357;letter357;letter181;0;0;incongruent;0.04;letter357;0.05;0.07;fullmask;0.2;arrow_left.png;up;1.611514599997463;1.6205886999996437;24132.6990771;c;0.2687705000025744;0.2783130000025267;24132.978856;3.0999981390777975e-06;0.505947699999524;0.545944800000143;0.5559609000010823;0.6259903999998642;0.7560806000001321;0.886177399999724;0.01
5;1;10;41;letter181;letter357;letter357;letter181;0;0;congruent;0.04;letter181;0.05;0.07;fullmask;0.2;arrow_left.png;up;0.7238986000011209;0.7310592000030738;24135.2029405;c;0.040399499997874955;0.049922299996978836;24135.4510313;3.1000017770566046e-06;0.5011137000001327;0.5411264000031224;0.5511055999995733;0.6211541000011493;0.7512261000010767;0.8813354000012623;0.01
5;1;10;42;letter181;letter357;letter357;letter181;0;0;congruent;0.04;letter181;0.05;0.07;fullmask;0.2;arrow_left.png;up;0.44803220000176225;0.4507171000004746;24137.3789016;c;0.06906760000128997;0.06983000000036554;24137.6508318;2.9000002541579306e-06;0.49779400000261376;0.5378215000018827;0.5478316000007908;0.6178455000008398;0.7479286000016145;0.878038300001208;0.01
5;1;10;43;letter181;letter357;letter357;letter181;0;0;congruent;0.04;letter357;0.05;0.07;fullmask;0.2;arrow_right.png;up;1.9180718999996316;1.9209154000018316;24141.0509087;c;0.3311539999995148;0.33785160000115866;24141.386851;3.1000017770566046e-06;0.50085129999934;0.540874199999962;0.5509055000002263;0.6209090000011201;0.7510201000004599;0.8811021000001347;0.01
5;1;10;44;letter181;letter357;letter357;letter181;0;0;congruent;0.04;letter181;0.05;0.07;fullmask;0.2;arrow_left.png;up;0.4220357999984117;0.4301622999992105;24143.3072368;c;0.0633306999989145;0.06978249999883701;24143.5790919;3.1000017770566046e-06;0.4971222999993188;0.5371555000019725;0.5471517000005406;0.617185300001438;0.7472827000019606;0.8773728000014671;0.01
5;1;10;45;letter181;letter357;letter357;letter181;0;0;incongruent;0.04;letter181;0.05;0.07;fullmask;0.2;arrow_right.png;down;0.4728240000004007;0.4806400000015856;24145.5388995;m;0.2542061999993166;0.25836229999913485;24145.8028611;3.0000010156072676e-06;0.5029561999981524;0.5429757999991125;0.5529672000011487;0.6230049000005238;0.7530827000009594;0.8832077999977628;0.01
5;1;10;46;letter181;letter357;letter357;letter181;0;0;congruent;0.04;letter357;0.05;0.07;fullmask;0.2;arrow_right.png;up;0.7389820999997028;0.7400851999991573;24148.0268687;m;0.30893250000008265;0.31819850000101724;24148.3388414;3.2999996619764715e-06;0.4970331999975315;0.5370599999987462;0.5470798999995168;0.6171060999986366;0.7471881999990728;0.8772827999964647;0.01
5;1;10;47;letter181;letter357;letter357;letter181;0;0;incongruent;0.04;letter357;0.05;0.07;fullmask;0.2;arrow_left.png;down;0.972241400002531;0.9815660000022035;24150.8111829;c;0.04716470000130357;0.05091250000259606;24151.0670541;3.1000017770566046e-06;0.502063800002361;0.5420728000026429;0.5520960000030755;0.6221686000026239;0.7522203000007721;0.8823331000021426;0.01
5;1;10;48;letter181;letter357;letter357;letter181;0;0;incongruent;0.04;letter357;0.05;0.07;fullmask;0.2;arrow_left.png;up;0.37029439999969327;0.38017780000154744;24152.9310075;c;0.2520574000009219;0.25835730000108015;24153.1948917;3.0999981390777975e-06;0.4984789999980421;0.538505599997734;0.5484997999992629;0.6185355999987223;0.7486402999966231;0.878733799996553;0.01
5;1;10;49;letter181;letter357;letter357;letter181;0;0;congruent;0.04;letter181;0.05;0.07;fullmask;0.2;arrow_left.png;down;0.38468030000149156;0.38999970000077155;24155.0669781;c;0.24860749999788823;0.25836269999854267;24155.322847;2.8000031306874007e-06;0.5004267000003892;0.5404128000009223;0.5504258000000846;0.6204728000011528;0.7505598000025202;0.8806639000031282;0.01
5;1;10;50;letter181;letter357;letter357;letter181;0;0;incongruent;0.04;letter357;0.05;0.07;fullmask;0.2;arrow_left.png;down;0.5247196000018448;0.5295048000007228;24157.3388892;c;0.07467339999857359;0.07980329999918467;24157.618896;2.9999973776284605e-06;0.5028791000004276;0.5429062000002887;0.5530610999994678;0.62294699999984;0.7530418999995163;0.8831438999986858;0.01
5;1;10;51;letter181;letter357;letter357;letter181;0;1;incongruent;0.12;letter357;0.14;0.07;fullmask;0.2;arrow_left.png;up;0.6340449999988778;0.6413074000010965;24159.8190802;m;2.1666946000004828;2.169257800000196;24161.9948701;2.9000002541579306e-06;0.4980896999986726;0.6181567999992694;0.638170700000046;0.708209699998406;0.8382806999979948;0.9683850000001257;0.01
5;1;10;52;letter181;letter357;letter357;letter181;0;0;incongruent;0.04;letter181;0.05;0.07;fullmask;0.2;arrow_right.png;down;0.38086850000036065;0.3898769000006723;24163.8589353;m;0.23707909999939147;0.2384128999983659;24164.1069689;2.9999973776284605e-06;0.5058231000002706;0.5458399999988615;0.555877299997519;0.6258764999984123;0.7559949999995297;0.886062800000218;0.01
5;2;17;1;letter190;letter169;letter169;letter190;0;0;congruent;0.04;letter169;0.09;0.07;fullmask;0.2;arrow_right.png;up;0.9031607999968401;0.9105740999984846;25209.6423935;m;0.406758400000399;0.40795869999783463;25210.0584902;2.9000002541579306e-06;0.49899920000098064;0.5390006000016001;0.5890212999984215;0.6590647000011813;0.7891333000006853;0.9192517000010412;0.01
5;2;17;2;letter190;letter169;letter169;letter190;0;0;incongruent;0.04;letter169;0.09;0.07;fullmask;0.2;arrow_left.png;up;0.46787290000065695;0.47079200000007404;25212.0583917;m;0.47509960000024876;0.47887030000129016;25212.5383515;2.9000002541579306e-06;0.5014165000029607;0.5414314000008744;0.5914785000022675;0.6615032000008796;0.7916121000016574;0.9216898000013316;0.01
5;2;17;3;letter190;letter169;letter169;letter190;0;0;incongruent;0.04;letter169;0.09;0.07;fullmask;0.2;arrow_left.png;up;0.460346899999422;0.4604560000007041;25214.5223872;c;0.36588839999967604;0.36806799999976647;25214.8903863;2.9000002541579306e-06;0.5044292000020505;0.5444422000000486;0.5944689000025392;0.6645102000002225;0.7945824000016728;0.9246789999997418;0.01
5;2;17;4;letter190;letter169;letter169;letter190;0;0;incongruent;0.04;letter190;0.09;0.07;fullmask;0.2;arrow_right.png;down;0.7327317999988736;0.7410677000007126;25217.1463854;m;0.3097882000001846;0.31823789999907603;25217.4664445;3.0000010156072676e-06;0.4959347000003618;0.5359547000007296;0.5859984999988228;0.6560161000015796;0.7861310000007506;0.9162245000006806;0.01
5;2;17;5;letter190;letter169;letter169;letter190;0;0;congruent;0.04;letter190;0.09;0.07;fullmask;0.2;arrow_left.png;down;0.3293926999976975;0.33114369999748305;25219.3145973;c;0.30015110000022105;0.3082302000002528;25219.6183289;2.9999973776284605e-06;0.501254599999811;0.5412703000001784;0.5912943999974232;0.6613351999985753;0.7914075999979104;0.9215091000005486;0.01
5;2;17;6;letter190;letter169;letter169;letter190;0;0;congruent;0.04;letter190;0.09;0.07;fullmask;0.2;arrow_left.png;up;0.5415011000004597;0.5505909999992582;25221.6983955;c;0.007173199999670032;0.009991099999751896;25221.914375;3.0000010156072676e-06;0.5023982999991858;0.5424180000009073;0.5924448000005214;0.6624851999986276;0.7925796999988961;0.9226555999994162;0.01
5;2;17;7;letter190;letter169;letter169;letter190;0;0;congruent;0.04;letter169;0.09;0.07;fullmask;0.2;arrow_right.png;up;0.5098203999987163;0.5106832999990729;25223.9383953;m;0.25315450000198325;0.25737170000138576;25224.1943481;2.9999973776284605e-06;0.50042289999692;0.5404306999989785;0.5904745999978331;0.6605023999982222;0.7905858999984048;0.920683199998166;0.01
5;2;17;8;letter190;letter169;letter169;letter190;0;0;incongruent;0.04;letter190;0.09;0.07;fullmask;0.2;arrow_right.png;down;0.42595649999930174;0.4298988000009558;25226.1463955;m;0.9382163000009314;0.9385250999985146;25227.0904946;3.0000010156072676e-06;0.4998029000016686;0.5398214999986521;0.5898675999997067;0.6599060000007739;0.7900005000010424;0.9200897000009718;0.01
5;2;17;9;letter190;letter169;letter169;letter190;0;0;incongruent;0.04;letter190;0.09;0.07;fullmask;0.2;arrow_right.png;down;0.7722003999988374;0.7799651999994239;25229.3944006;m;0.3422734000014316;0.34812090000195894;25229.7463766;3.0000010156072676e-06;0.5019807999997283;0.5420125999989978;0.592013900000893;0.6620585000018764;0.7921352000012121;0.9222518000024138;0.01
5;2;17;10;letter190;letter169;letter169;letter190;0;0;congruent;0.04;letter169;0.09;0.07;fullmask;0.2;arrow_right.png;up;0.7577079000002414;0.7589498000015737;25232.0423868;m;0.20477720000053523;0.20849290000114706;25232.2503422;2.9000002541579306e-06;0.5021291000011843;0.5421539000017219;0.5922027000015078;0.6622279000002891;0.7923313000028429;0.9224044000002323;0.01
5;2;17;11;letter190;letter169;letter169;letter190;0;0;congruent;0.04;letter190;0.09;0.07;fullmask;0.2;arrow_left.png;down;0.5308523999992758;0.5396082000006572;25234.306393;c;0.2853240000004007;0.2882821999992302;25234.6024117;3.0000010156072676e-06;0.4965204000000085;0.5365551000031701;0.5866083000000799;0.6566396000016539;0.7867274000018369;0.9168186000024434;0.01
5;2;17;12;letter190;letter169;letter169;letter190;0;0;incongruent;0.04;letter169;0.09;0.07;fullmask;0.2;arrow_left.png;up;0.2834542999989935;0.2901504000001296;25236.4103818;c;0.3353659999993397;0.3381487000006018;25236.7543819;2.9000002541579306e-06;0.5036508999983198;0.5436532999992778;0.5937115999986418;0.6637191000008897;0.7938126000008197;0.9239102999999886;0.01
5;2;17;13;letter190;letter169;letter169;letter190;0;1;congruent;0.12;letter190;0.18;0.07;fullmask;0.2;arrow_left.png;down;0.13848270000016782;0.14055409999855328;25238.5064157;c;0.44400390000009793;0.44797689999904833;25238.9544227;2.9999973776284605e-06;0.5020019000003231;0.622052499998972;0.6820883000000322;0.7521138999982213;0.8821992999983195;1.012295799999265;0.01
5;2;17;14;letter190;letter169;letter169;letter190;0;0;incongruent;0.04;letter169;0.09;0.07;fullmask;0.2;arrow_left.png;up;0.2245450999980676;0.22938309999881312;25240.7143811;c;0.48122499999954016;0.4888310999995156;25241.202363;2.9000002541579306e-06;0.5036287999973865;0.5436584999988554;0.5936746999977913;0.6637121999992814;0.7938176999996358;0.9239051999975345;0.01
5;2;17;15;letter190;letter169;letter169;letter190;0;0;incongruent;0.04;letter190;0.09;0.07;fullmask;0.2;arrow_right.png;down;0.26160819999859086;0.27033879999726196;25243.0023889;m;0.3173212000001513;0.31820670000161044;25243.3303756;2.9999973776284605e-06;0.5035529999986466;0.5435732999976608;0.593585599999642;0.6636350999979186;0.7937052999986918;0.9238168999982008;0.01
5;2;17;16;letter190;letter169;letter169;letter190;0;0;congruent;0.04;letter190;0.09;0.07;fullmask;0.2;arrow_left.png;down;0.4839358999997785;0.4897061000010581;25245.346383;c;0.2882805000008375;0.29825260000143317;25245.6423757;2.9000002541579306e-06;0.5034185999975307;0.5434370000002673;0.5934691000002204;0.6635133999989193;0.7935835999996925;0.9236840999983542;0.01
5;2;17;17;letter190;letter169;letter169;letter190;0;0;incongruent;0.04;letter169;0.09;0.07;fullmask;0.2;arrow_left.png;up;0.2445618999990984;0.25026619999698596;25247.4183764;c;0.4643720000021858;0.4678010000025097;25247.89039;3.0999981390777975e-06;0.49786829999720794;0.5378808999994362;0.5879238999987138;0.6579623999969044;0.7880465999987791;0.9181351999977778;0.01
5;2;17;18;letter190;letter169;letter169;letter190;0;1;incongruent;0.12;letter169;0.18;0.07;fullmask;0.2;arrow_left.png;up;0.29662910000115517;0.2994183000009798;25249.8023738;c;0.4032544000001508;0.40895649999947636;25250.2103615;2.7999994927085936e-06;0.49691470000107074;0.6169988000001467;0.6770395000021381;0.7470673000025272;0.8771520000009332;1.0072448999999324;0.01
5;2;17;19;letter190;letter169;letter169;letter190;0;0;congruent;0.04;letter190;0.09;0.07;fullmask;0.2;arrow_left.png;down;0.23949980000179494;0.24043739999979152;25251.9863957;c;0.5093125000021246;0.5183055000015884;25252.4985563;2.9000002541579306e-06;0.5001991999997699;0.5402095999997982;0.5902482999990752;0.6602753000006487;0.7903882999999041;0.9204737000000023;0.01
5;2;17;20;letter190;letter169;letter169;letter190;0;0;congruent;0.04;letter169;0.09;0.07;fullmask;0.2;arrow_right.png;up;0.3508694000011019;0.3610612000011315;25254.3785648;m;0.275812700001552;0.27840930000093067;25254.6664013;2.9999973776284605e-06;0.5029493000001821;0.5429722000008042;0.5929977999985567;0.6630325999976776;0.7931255000003148;0.9232147000002442;0.01
5;2;17;21;letter190;letter169;letter169;letter190;0;0;incongruent;0.04;letter169;0.09;0.07;fullmask;0.2;arrow_left.png;up;0.5004665999986173;0.5095556999986002;25256.6904765;c;0.2848569000016141;0.2882800000006682;25256.9863689;3.1999989005271345e-06;0.5007009000000835;0.5407219999979134;0.5907673000001523;0.6608033999982581;0.7908766000000469;0.9212058999983128;0.01
5;2;17;22;letter190;letter169;letter169;letter190;0;0;congruent;0.04;letter169;0.09;0.07;fullmask;0.2;arrow_right.png;up;0.2972759000003862;0.3001820999998017;25258.818414;m;0.26706280000144034;0.26833320000150707;25259.0903994;2.9000002541579306e-06;0.5000278000006801;0.5400422999991861;0.5900762999990548;0.6601177000011376;0.7902021000008972;0.9202982999995584;0.01
5;2;17;23;letter190;letter169;letter169;letter190;0;0;congruent;0.04;letter169;0.09;0.07;fullmask;0.2;arrow_right.png;up;0.2599078000021109;0.2602760000008857;25260.882472;m;0.25368520000120043;0.25848129999940284;25261.1384666;3.1000017770566046e-06;0.49960680000003777;0.5396273000005749;0.5896737000002759;0.6596983000017644;0.7897838999997475;0.9198789000001852;0.01
5;2;17;24;letter190;letter169;letter169;letter190;0;0;congruent;0.04;letter190;0.09;0.07;fullmask;0.2;arrow_left.png;down;0.4023806000004697;0.4098448000004282;25263.0663858;c;0.33454770000025746;0.3381474999987404;25263.4103342;2.9999973776284605e-06;0.49782609999965644;0.537852199999179;0.5878646999990451;0.6579222999971535;0.7879880999971647;0.9180955999981961;0.01
5;2;17;25;letter190;letter169;letter169;letter190;0;0;incongruent;0.04;letter190;0.09;0.07;fullmask;0.2;arrow_right.png;down;0.353048699998908;0.36004419999881065;25265.2983747;m;0.20697780000045896;0.2085051000030944;25265.5142876;3.0000010156072676e-06;0.499162799998885;0.5391845000012836;0.5892062999992049;0.6592501000013726;0.7893268000007083;0.9194371999983559;0.01
5;2;17;26;letter190;letter169;letter169;letter190;0;0;incongruent;0.04;letter190;0.09;0.07;fullmask;0.2;arrow_right.png;down;0.4714242000009108;0.4797502000001259;25267.4983633;m;0.1496579999984533;0.1586286999990989;25267.6582815;3.0000010156072676e-06;0.5048036000007414;0.5448131000011927;0.5948505000014848;0.6648746000028041;0.7949625000001106;0.9250729000013962;0.01
5;2;17;27;letter190;letter169;letter169;letter190;0;0;congruent;0.04;letter169;0.09;0.07;fullmask;0.2;arrow_right.png;up;2.871058400000038;2.872241600001871;25272.0585067;m;0.4287393999984488;0.4388878999998269;25272.4903279;2.9999973776284605e-06;0.4977701999996498;0.5377899999984947;0.5878109999976004;0.6578704999992624;0.7879357999991043;0.918058100000053;0.01
5;2;17;28;letter190;letter169;letter169;letter190;0;0;incongruent;0.04;letter169;0.09;0.07;fullmask;0.2;arrow_left.png;up;0.4430438999988837;0.44981259999985923;25274.4743723;c;0.407239699998172;0.40796169999885024;25274.8903205;3.2000025385059416e-06;0.5056933000014396;0.5457058000029065;0.5957199000004039;0.6657634000002872;0.7958435000000463;0.9259504000001471;0.01
5;2;17;29;letter190;letter169;letter169;letter190;0;0;incongruent;0.04;letter169;0.09;0.07;fullmask;0.2;arrow_left.png;up;0.41612289999829954;0.4206403999996837;25276.8183583;c;0.2975010000009206;0.2982551000022795;25277.1223111;2.9000002541579306e-06;0.4971847999986494;0.537216199998511;0.5872441999999864;0.6572807999982615;0.787357900000643;0.9174443999982032;0.01
5;2;17;30;letter190;letter169;letter169;letter190;0;0;incongruent;0.04;letter190;0.09;0.07;fullmask;0.2;arrow_right.png;down;0.3328121000013198;0.3402602999994997;25278.986569;m;0.3027094999997644;0.3083446999989974;25279.2985535;3.0999981390777975e-06;0.5017885999986902;0.5417266999975254;0.591744800000015;0.6617915999995603;0.7918676999979652;0.9219844999970519;0.01
5;2;17;31;letter190;letter169;letter169;letter190;0;0;congruent;0.04;letter190;0.09;0.07;fullmask;0.2;arrow_left.png;down;0.3029031000005489;0.31021980000150506;25281.1383828;c;0.2706426000004285;0.2783073999999033;25281.4182802;3.0000010156072676e-06;0.5035663000016939;0.5435940999996092;0.5936172000001534;0.6636674000001221;0.7937515999983589;0.9238385999997263;0.01
5;2;17;32;letter190;letter169;letter169;letter190;0;1;congruent;0.12;letter169;0.18;0.07;fullmask;0.2;arrow_right.png;up;0.10199070000089705;0.11077479999948991;25283.1383766;m;0.38923570000042673;0.39798680000239983;25283.5383224;3.1000017770566046e-06;0.4989382999992813;0.619009999998525;0.6790523999989091;0.7490987000019231;0.8791789999995672;1.0092590999993263;0.01
5;2;17;33;letter190;letter169;letter169;letter190;0;0;congruent;0.04;letter169;0.09;0.07;fullmask;0.2;arrow_right.png;up;0.3041147000003548;0.31008289999954286;25285.4024074;m;0.28020910000122967;0.2883404000021983;25285.6905253;3.1999989005271345e-06;0.5022673000021314;0.5422904000006383;0.5923804000012751;0.6623643999992055;0.7924611999987974;0.9225350000015169;0.01
5;2;17;34;letter190;letter169;letter169;letter190;0;0;incongruent;0.04;letter190;0.09;0.07;fullmask;0.2;arrow_right.png;down;0.2627491999992344;0.2702991000005568;25287.482543;m;0.43039349999889964;0.4378856999974232;25287.9223193;3.2999996619764715e-06;0.5052453000025707;0.545270900001924;0.5953040000022156;0.6653333000031125;0.7954502000029606;0.9255101000017021;0.01
5;2;17;35;letter190;letter169;letter169;letter190;0;0;incongruent;0.04;letter190;0.09;0.07;fullmask;0.2;arrow_right.png;up;0.2475492999983544;0.25024719999782974;25289.6984304;m;0.3488656000008632;0.3500827999996545;25290.2504393;3.0000010156072676e-06;0.5038285000009637;0.543856100000994;0.5938872000006086;0.663943499999732;0.7941958000010345;0.9240989999998419;0.01
5;2;17;36;letter190;letter169;letter169;letter190;0;0;congruent;0.04;letter190;0.09;0.07;fullmask;0.2;arrow_left.png;down;0.25648980000187294;0.26035179999962565;25292.0184325;c;0.2981748999991396;0.3082255000008445;25292.322404;2.9999973776284605e-06;0.49670049999986077;0.5367397999980312;0.5867495999991661;0.656818999999814;0.7868662000000768;0.9169937999977265;0.01
5;2;17;37;letter190;letter169;letter169;letter190;0;0;incongruent;0.04;letter169;0.09;0.07;fullmask;0.2;arrow_left.png;up;0.27076020000095014;0.2802760999984457;25294.114493;c;0.4365629000021727;0.43899810000220896;25294.5624036;3.0000010156072676e-06;0.49635359999956563;0.5363768999995955;0.5864207000013266;0.6564374000008684;0.7865480000000389;0.9166232999996282;0.01
5;2;17;38;letter190;letter169;letter169;letter190;0;0;congruent;0.04;letter190;0.09;0.07;fullmask;0.2;arrow_left.png;up;0.3032815999977174;0.31021999999939;25296.3783562;c;0.1605801000005158;0.16956370000116294;25296.7463173;3.0000010156072676e-06;0.49780249999821535;0.5378166000009514;0.5878606000005675;0.6579309000007925;0.7879891999982647;0.9180808999990404;0.01
5;2;17;39;letter190;letter169;letter169;letter190;0;0;congruent;0.04;letter169;0.09;0.07;fullmask;0.2;arrow_right.png;up;0.5022262999991653;0.5103902999981074;25298.778393;m;0.3257954000000609;0.3281764999992447;25299.1142996;3.1999989005271345e-06;0.503355199998623;0.5433814999996684;0.5934226999997918;0.6634468999982346;0.7935341999982484;0.9236281000012241;0.01
5;2;17;40;letter190;letter169;letter169;letter190;0;0;congruent;0.04;letter190;0.09;0.07;fullmask;0.2;arrow_left.png;down;0.34878519999983837;0.351222899997083;25300.9864305;c;0.28360579999935;0.2872898999994504;25301.2743067;2.9000002541579306e-06;0.4994241999993392;0.5394501999981003;0.5894875000012689;0.6595119999983581;0.7896011999982875;0.9196959000000788;0.01
5;2;17;41;letter190;letter169;letter169;letter190;0;1;incongruent;0.12;letter190;0.18;0.07;fullmask;0.2;arrow_right.png;down;0.33491959999810206;0.34011330000066664;25303.2344045;m;0.26479119999930845;0.2683448000025237;25303.5063102;3.1000017770566046e-06;0.5019546000003174;0.6220185000020138;0.6820770000012999;0.7520862999990641;0.8821845999991638;1.0122639000001072;0.01
5;2;17;42;letter190;letter169;letter169;letter190;0;0;congruent;0.04;letter190;0.09;0.07;fullmask;0.2;arrow_left.png;down;0.34910239999953774;0.3499852999993891;25305.3704268;c;0.27714299999934155;0.27830510000057984;25305.6503924;3.0999981390777975e-06;0.4991002999995544;0.5391223999977228;0.5891381999972509;0.6591971999987436;0.7892571999982465;0.9193631999987701;0.01
5;2;17;43;letter190;letter169;letter169;letter190;0;0;congruent;0.04;letter190;0.09;0.07;fullmask;0.2;arrow_left.png;down;0.21222819999820786;0.22092630000042845;25307.3943438;c;0.3338187999979709;0.3381231999992451;25307.738303;3.0000010156072676e-06;0.5053571999997075;0.54537049999999;0.5954111999999441;0.6654419000005873;0.7955201000004308;0.9256167999992613;0.01
5;2;17;44;letter190;letter169;letter169;letter190;0;0;incongruent;0.04;letter169;0.09;0.07;fullmask;0.2;arrow_left.png;up;0.3248459000024013;0.3300378999992972;25309.5783149;c;0.32896310000069207;0.3382689999998547;25309.9144084;3.1000017770566046e-06;0.4981039999984205;0.5381334999983665;0.5881642999993346;0.6581877999997232;0.7882949999984703;0.9183717999985674;0.01
5;2;17;45;letter190;letter169;letter169;letter190;0;0;congruent;0.04;letter169;0.09;0.07;fullmask;0.2;arrow_right.png;up;0.201005000002624;0.2094959000023664;25311.6664238;m;0.2934449000022141;0.29824960000041756;25311.970302;3.4000004234258085e-06;0.5028864999985672;0.542946599998686;0.5929370999983803;0.6629845999996178;0.7930632999996305;0.9231805999988865;0.01
5;2;17;46;letter190;letter169;letter169;letter190;0;0;incongruent;0.04;letter190;0.09;0.07;fullmask;0.2;arrow_right.png;down;0.115690500002529;0.11972940000123344;25313.6023544;m;0.3059863000016776;0.30822900000202935;25313.9143192;3.0000010156072676e-06;0.4981695000024047;0.5381427000029362;0.5881808000012825;0.6582180000004882;0.7882891000008385;0.9183929000028002;0.01
5;2;17;47;letter190;letter169;letter169;letter190;0;0;incongruent;0.04;letter190;0.09;0.07;fullmask;0.2;arrow_right.png;down;0.1732367999975395;0.1804439999978058;25315.6103413;m;0.2708280000006198;0.27830549999998766;25315.890316;2.9999973776284605e-06;0.4981359999983397;0.538147499999468;0.5882139999994251;0.6582226999998966;0.78833129999839;0.9184160999975575;0.01
5;2;17;48;letter190;letter169;letter169;letter190;0;0;congruent;0.04;letter169;0.09;0.07;fullmask;0.2;arrow_right.png;down;0.3895789000016521;0.39091710000138846;25317.8184253;m;0.031237499999406282;0.039946900000359165;25318.0504965;2.9000002541579306e-06;0.5018772000003082;0.5418883999991522;0.5919405999993614;0.6619682999989891;0.7920586000000185;0.9221495999991021;0.01
5;2;17;49;letter190;letter169;letter169;letter190;0;0;incongruent;0.04;letter169;0.09;0.07;fullmask;0.2;arrow_left.png;up;0.45661249999830034;0.4608293999990565;25320.0263555;c;0.3698112000020046;0.3781066000010469;25320.4023223;2.9000002541579306e-06;0.4985665999993216;0.5385903999995207;0.5886342000012519;0.6586677000013879;0.7887521000011475;0.9188431000002311;0.01
5;2;17;50;letter190;letter169;letter169;letter190;0;0;congruent;0.04;letter169;0.09;0.07;fullmask;0.2;arrow_right.png;up;0.2951262999995379;0.30025929999828804;25322.2264058;m;0.2567992999975104;0.25835599999845726;25322.4902791;3.2999996619764715e-06;0.5041815000004135;0.5441939000011189;0.5942209000022558;0.6642577999991772;0.7943373999987671;0.924459099998785;0.01
5;2;17;51;letter190;letter169;letter169;letter190;0;0;incongruent;0.04;letter169;0.09;0.07;fullmask;0.2;arrow_left.png;up;0.515801300000021;0.5206700999988243;25324.538429;c;0.18532100000084029;0.18864940000275965;25324.7305556;3.1999989005271345e-06;0.49542959999962477;0.5354659000004176;0.585471400001552;0.6555236999993213;0.7855973000005179;0.9157132000000274;0.01
5;2;17;52;letter190;letter169;letter169;letter190;0;0;incongruent;0.04;letter190;0.09;0.07;fullmask;0.2;arrow_right.png;down;0.5712831999990158;0.5793610000000626;25326.8263358;m;0.23798680000254535;0.23829730000215932;25327.0743422;3.2999996619764715e-06;0.501218900000822;0.5412261999990733;0.5912628000005498;0.6612855999992462;0.7913795999993454;0.921471500001644;0.01
5;2;18;1;letter190;letter169;letter169;letter190;0;0;incongruent;0.04;letter190;0.09;0.07;fullmask;0.2;arrow_right.png;down;0.42014470000140136;0.4299032000017178;25332.1783373;m;0.22029730000213021;0.2284313000018301;25332.4103313;3.0000010156072676e-06;0.49624390000099083;0.536256700001104;0.5862812000013946;0.6563248999991629;0.7863953999985824;0.9165087000001222;0.01
5;2;18;2;letter190;letter169;letter169;letter190;0;1;incongruent;0.12;letter190;0.18;0.07;fullmask;0.2;arrow_right.png;down;0.3954693000014231;0.40108039999904577;25334.4345332;m;0.20036249999975553;0.20749720000094385;25334.6423383;3.0000010156072676e-06;0.5042969999994966;0.6243682999993325;0.6844119999987015;0.7544361000000208;0.8845360999985132;1.0146170999978494;0.01
5;2;18;3;letter190;letter169;letter169;letter190;0;0;congruent;0.04;letter190;0.09;0.07;fullmask;0.2;arrow_left.png;down;0.39759699999922304;0.39999099999840837;25336.5784495;c;0.17155229999843868;0.17857139999978244;25336.754337;2.9000002541579306e-06;0.49858019999737735;0.5386024999970687;0.5886190999990504;0.658659799999441;0.7887416999983543;0.9188546000004862;0.01
5;2;18;4;letter190;letter169;letter169;letter190;0;0;incongruent;0.04;letter169;0.09;0.07;fullmask;0.2;arrow_left.png;up;0.7181506999986595;0.7200917000009213;25339.0103531;m;0.17205049999756739;0.17857079999885173;25339.1862825;3.0000010156072676e-06;0.5014689000017825;0.5414894999994431;0.591544499999145;0.6615525000015623;0.7916503000014927;0.9217514000010851;0.01
5;2;18;5;letter190;letter169;letter169;letter190;0;0;incongruent;0.04;letter169;0.09;0.07;fullmask;0.2;arrow_left.png;up;0.5064808999995876;0.5105640000001586;25341.2103355;c;0.20992630000182544;0.21746790000179317;25341.4262836;2.9000002541579306e-06;0.49819120000029216;0.5381941000014194;0.5882286999985809;0.6582697999983793;0.7883516000001691;0.9184467000013683;0.01
5;2;18;6;letter190;letter169;letter169;letter190;0;0;congruent;0.04;letter169;0.09;0.07;fullmask;0.2;arrow_right.png;up;0.27962720000141417;0.28032830000302056;25343.2344013;m;0.2533341999987897;0.2584787999985565;25343.4903276;3.1000017770566046e-06;0.5007385000026261;0.5407653000002028;0.5907869000002393;0.6608301000014762;0.7909201000002213;0.9210133000015048;0.01
5;2;18;7;letter190;letter169;letter169;letter190;0;0;incongruent;0.04;letter190;0.09;0.07;fullmask;0.2;arrow_right.png;down;0.20969219999824418;0.21947580000050948;25345.226432;m;0.3162155999998504;0.3191961000011361;25345.5543696;3.2999996619764715e-06;0.4965569999985746;0.5365837999997893;0.5866236000001663;0.656643800000893;0.786734900000738;0.9168458999993163;0.01
5;2;18;8;letter190;letter169;letter169;letter190;0;0;incongruent;0.04;letter169;0.09;0.07;fullmask;0.2;arrow_left.png;up;0.28097490000072867;0.29107289999956265;25347.3784444;c;0.2837927000000491;0.2872678000021551;25347.6742795;3.0000010156072676e-06;0.5054333000007318;0.5454443000016909;0.595477300001221;0.6655209000018658;0.7956211000018811;0.9257155000013881;0.01
5;2;18;9;letter190;letter169;letter169;letter190;0;0;congruent;0.04;letter169;0.09;0.07;fullmask;0.2;arrow_right.png;up;0.29694459999882383;0.3003484999971988;25349.5065316;m;0.3146970000016154;0.31829320000178996;25349.8264764;3.0000010156072676e-06;0.5018015000023297;0.541820700000244;0.5918553000010434;0.6618818000024476;0.79198069999984;0.922084800000448;0.01
5;2;18;10;letter190;letter169;letter169;letter190;0;0;congruent;0.04;letter190;0.09;0.07;fullmask;0.2;arrow_left.png;down;0.3515860999978031;0.3600879999976314;25351.7223972;c;0.23751580000316608;0.23841730000276584;25351.9703536;2.9000002541579306e-06;0.5037712000012107;0.5437745000017458;0.5938261999981478;0.663867899998877;0.7939431999984663;0.9240423000010196;0.01
5;2;18;11;letter190;letter169;letter169;letter190;0;0;incongruent;0.04;letter169;0.09;0.07;fullmask;0.2;arrow_left.png;up;0.388789500000712;0.39101490000030026;25353.8903712;c;0.2197044000022288;0.22731900000144378;25354.1142828;2.9000002541579306e-06;0.5013562999993155;0.5413804999989225;0.5914068000020052;0.6614485999998578;0.7915204000019003;0.9216481000003114;0.01
5;2;18;12;letter190;letter169;letter169;letter190;0;0;incongruent;0.04;letter190;0.09;0.07;fullmask;0.2;arrow_right.png;down;0.25520289999985835;0.26022609999927226;25355.8983328;m;0.25697500000023865;0.25835600000209524;25356.1622726;3.0000010156072676e-06;0.5023523999989266;0.5423690999996325;0.5924101999989944;0.6624330000013288;0.7925327000011748;0.9226210999986506;0.01
5;2;18;13;letter190;letter169;letter169;letter190;0;0;incongruent;0.04;letter169;0.09;0.07;fullmask;0.2;arrow_left.png;up;0.189641600001778;0.19043750000128057;25357.8743862;c;0.30139580000104615;0.30836469999849214;25358.1784732;3.1999989005271345e-06;0.5023617000006197;0.5423780000019178;0.5924167000011948;0.6624569000014162;0.7925357000021904;0.9226503999998386;0.01
5;2;18;14;letter190;letter169;letter169;letter190;0;0;incongruent;0.04;letter190;0.09;0.07;fullmask;0.2;arrow_right.png;down;0.22417540000242298;0.23030909999943106;25359.9303293;m;0.23986779999904684;0.2483922999999777;25360.17827;2.9999973776284605e-06;0.501377999997203;0.5413869000003615;0.591398599997774;0.6614505999968969;0.7915205999997852;0.9216310999981943;0.01
5;2;18;15;letter190;letter169;letter169;letter190;0;0;congruent;0.04;letter169;0.09;0.07;fullmask;0.2;arrow_right.png;up;0.25419760000295355;0.2596709000026749;25361.9623333;m;0.2084979999999632;0.21746730000086245;25362.1782393;2.9000002541579306e-06;0.5029931999997643;0.5429996999992;0.5930291000004217;0.6630642999989504;0.7931485000008252;0.9232535999981337;0.01
5;2;18;16;letter190;letter169;letter169;letter190;0;1;congruent;0.12;letter169;0.18;0.07;fullmask;0.2;arrow_right.png;up;0.18797010000344017;0.1904716000026383;25363.986336;m;0.2594626000027347;0.26833430000260705;25364.2503222;2.9000002541579306e-06;0.503013399997144;0.6231109999971522;0.683124899998802;0.7531792999980098;0.8832454999974289;1.0133578999993915;0.01
5;2;18;17;letter190;letter169;letter169;letter190;0;0;congruent;0.04;letter190;0.09;0.07;fullmask;0.2;arrow_left.png;down;0.15068909999899915;0.16062980000060634;25365.9304486;c;0.29160810000030324;0.2978629999997793;25366.2344292;2.9000002541579306e-06;0.5016390999990108;0.5416623999990406;0.5916781999985687;0.6617234999976063;0.7918064999976195;0.9219042000004265;0.01
5;2;18;18;letter190;letter169;letter169;letter190;0;0;incongruent;0.04;letter190;0.09;0.07;fullmask;0.2;arrow_right.png;down;0.2310962000010477;0.2403703999989375;25368.0022906;m;0.22072670000125072;0.2274442000016279;25368.234234;3.0000010156072676e-06;0.5042252000021108;0.544244600001548;0.5942730000024312;0.6643097000014677;0.7943902000006346;0.9244917000032729;0.01
5;2;18;19;letter190;letter169;letter169;letter190;0;0;incongruent;0.04;letter169;0.09;0.07;fullmask;0.2;arrow_left.png;up;0.2819326999997429;0.290178699997341;25370.0343322;c;0.22979969999869354;0.23802839999916614;25370.2742882;3.1000017770566046e-06;0.4951191000000108;0.5351332999998704;0.5851842000010947;0.6552016999994521;0.7852835000012419;0.9153846000008343;0.01
5;2;18;20;letter190;letter169;letter169;letter190;0;0;congruent;0.04;letter190;0.09;0.07;fullmask;0.2;arrow_left.png;down;0.31628319999799714;0.3201932999982091;25372.1304096;c;0.22602259999985108;0.22743939999782015;25372.3622823;2.9000002541579306e-06;0.4960968999985198;0.5361568000007537;0.5861370999991777;0.656207899999572;0.7862777999980608;0.9164077999994333;0.01
5;2;18;21;letter190;letter169;letter169;letter190;0;0;congruent;0.04;letter190;0.09;0.07;fullmask;0.2;arrow_left.png;down;0.20336519999909797;0.21061249999911524;25374.09849;c;0.24683370000275318;0.24739250000129687;25374.3543787;3.0000010156072676e-06;0.5010972000018228;0.541120800000499;0.5911642000028223;0.6612125999999989;0.7912945000025502;0.9213725000008708;0.01
5;2;18;22;letter190;letter169;letter169;letter190;0;0;congruent;0.04;letter190;0.09;0.07;fullmask;0.2;arrow_left.png;down;0.11567110000032699;0.11960969999927329;25376.0023893;c;0.33009429999947315;0.3381456999995862;25376.3383652;2.9000002541579306e-06;0.5014769000008528;0.5414858000003733;0.5914998000007472;0.6615569000023243;0.7916052000000491;0.9217233000017586;0.01
5;2;18;23;letter190;letter169;letter169;letter190;0;0;incongruent;0.04;letter190;0.09;0.07;fullmask;0.2;arrow_right.png;down;1.6548239000003377;1.661487400000624;25379.5223163;m;0.41533590000108234;0.4179156999998668;25379.9462721;2.9000002541579306e-06;0.502712600002269;0.542725999999675;0.5927574000015738;0.6627962000020489;0.7928711000022304;0.9229833000026701;0.01
5;2;18;24;letter190;letter169;letter169;letter190;0;0;congruent;0.04;letter169;0.09;0.07;fullmask;0.2;arrow_right.png;up;0.466265499999281;0.4697608999995282;25381.9463599;m;0.2585256999991543;0.2683218999991368;25382.210338;2.9000002541579306e-06;0.5038064000000304;0.5438289000012446;0.5938678000020445;0.6638964000012493;0.793985000000248;0.9240819000006013;0.01
5;2;18;25;letter190;letter169;letter169;letter190;0;0;congruent;0.04;letter169;0.09;0.07;fullmask;0.2;arrow_right.png;up;0.26851889999670675;0.2703449999971781;25384.0103392;c;0.2282459000016388;0.2374310000013793;25384.242311;3.0000010156072676e-06;0.5025149000030069;0.5425518000010925;0.5925764000021445;0.6626766000008502;0.7927071000012802;0.9228184000021429;0.01
5;2;18;26;letter190;letter169;letter169;letter190;0;0;incongruent;0.04;letter169;0.09;0.07;fullmask;0.2;arrow_left.png;up;0.309936599998764;0.32005429999844637;25386.0823528;c;0.28388960000302177;0.2882701000016823;25386.3783073;2.9999973776284605e-06;0.504018100000394;0.5440299000001687;0.5940477999974973;0.6641090999983135;0.7941657999981544;0.9242688999984239;0.01
5;2;18;27;letter190;letter169;letter169;letter190;0;0;incongruent;0.04;letter190;0.09;0.07;fullmask;0.2;arrow_right.png;down;0.7344128000004275;0.7410353999985091;25388.6583304;m;0.26339260000167997;0.2682974000017566;25388.9302962;2.9000002541579306e-06;0.5054897000009078;0.5454958000009356;0.5955374000004667;0.6655405999990762;0.7956575999996858;0.9257646000005479;0.01
5;2;18;28;letter190;letter169;letter169;letter190;0;0;incongruent;0.04;letter190;0.09;0.07;fullmask;0.2;arrow_right.png;down;0.3690150000002177;0.37102500000037253;25390.8343559;m;0.2920525000008638;0.2983752000000095;25391.1303519;2.9000002541579306e-06;0.5005383000025176;0.5405621999998402;0.5905848000002152;0.6606292000033136;0.7907197000022279;0.9208072000001266;0.01
5;2;18;29;letter190;letter169;letter169;letter190;0;0;congruent;0.04;letter190;0.09;0.07;fullmask;0.2;arrow_left.png;down;0.5771849000011571;0.5801950000022771;25393.2343434;c;0.3150108000008913;0.3181917000001704;25393.5543143;3.1000017770566046e-06;0.5029324000024644;0.5429361000024073;0.5929644000025291;0.6630002000019886;0.7930890000025101;0.9231791999991401;0.01
5;2;18;30;letter190;letter169;letter169;letter190;0;0;incongruent;0.04;letter169;0.09;0.07;fullmask;0.2;arrow_left.png;up;0.39157369999884395;0.39999859999807086;25395.4903021;c;0.22157330000118236;0.228445600001578;25395.7222283;3.0000010156072676e-06;0.505743400000938;0.5457758999982616;0.5957846999990579;0.665842900001735;0.7959057000007306;0.9260141999984626;0.01
5;2;18;31;letter190;letter169;letter169;letter190;0;0;incongruent;0.04;letter169;0.09;0.07;fullmask;0.2;arrow_left.png;up;0.23243059999731486;0.2404032999984338;25397.4822979;c;0.20613679999951273;0.20859270000073593;25397.6983481;2.9000002541579306e-06;0.49651060000178404;0.5365276000011363;0.5865618000025279;0.6566032000009727;0.7866842000003089;0.9167847000026086;0.01
5;2;18;32;letter190;letter169;letter169;letter190;0;1;congruent;0.12;letter190;0.18;0.07;fullmask;0.2;arrow_left.png;down;0.24311590000070282;0.2504914999990433;25399.5545595;c;0.24675589999969816;0.24830539999675239;25399.8105246;2.9000002541579306e-06;0.4971893999972963;0.61726329999874;0.6772954000007303;0.7473389999977371;0.8774188999996113;1.007563899998786;0.01
5;2;18;33;letter190;letter169;letter169;letter190;0;0;incongruent;0.04;letter190;0.09;0.07;fullmask;0.2;arrow_right.png;down;0.2610101999998733;0.26920220000101835;25401.5942405;m;0.20604319999984;0.20859380000183592;25401.8104115;2.9000002541579306e-06;0.5053953999995429;0.5454183000001649;0.595454600002995;0.6654853000000003;0.7955704000014521;0.9256703999999445;0.01
5;2;18;34;letter190;letter169;letter169;letter190;0;0;incongruent;0.04;letter169;0.09;0.07;fullmask;0.2;arrow_left.png;up;0.20208890000139945;0.20948780000253464;25403.5463055;c;0.40657410000130767;0.4089563999987149;25403.9622214;2.9000002541579306e-06;0.5002635000018927;0.5402923000001465;0.5903333000023849;0.6603623000009975;0.7904615000006743;0.9205571000020427;0.01
5;2;18;35;letter190;letter169;letter169;letter190;0;0;congruent;0.04;letter169;0.09;0.07;fullmask;0.2;arrow_right.png;up;0.41845199999806937;0.4198255999981484;25405.9143037;m;0.26065029999881517;0.26841609999974025;25406.1782556;3.0999981390777975e-06;0.5032033999996202;0.5432322999986354;0.5932472999993479;0.6632908999999927;0.7933588999985659;0.9234751999974833;0.01
5;2;18;36;letter190;letter169;letter169;letter190;0;0;congruent;0.04;letter169;0.09;0.07;fullmask;0.2;arrow_right.png;up;0.16735909999988507;0.17045390000203042;25407.8743095;m;0.27486900000076275;0.2772986999989371;25408.1542144;2.9999973776284605e-06;0.5055957000004128;0.5456231999996817;0.5956618999989587;0.6656917000000249;0.7957811999986006;0.9258659999977681;0.01
5;2;18;37;letter190;letter169;letter169;letter190;0;0;congruent;0.04;letter190;0.09;0.07;fullmask;0.2;arrow_left.png;down;0.190524199999345;0.2005070999985037;25409.8583846;c;0.25217069999780506;0.2584562999982154;25410.1224735;2.9000002541579306e-06;0.4947245000003022;0.5347507000005862;0.5847685000007914;0.6548201000005065;0.7848900999997568;0.9149647999984154;0.01
5;2;18;38;letter190;letter169;letter169;letter190;0;0;congruent;0.04;letter169;0.09;0.07;fullmask;0.2;arrow_right.png;up;0.1989791999985755;0.20052669999859063;25411.8582929;m;0.19648210000013933;0.19752199999857112;25412.0582613;2.9999973776284605e-06;0.4963557999981276;0.5363832999973965;0.586412399999972;0.6564534999997704;0.786536999999953;0.9166299999997136;0.01
5;2;18;39;letter190;letter169;letter169;letter190;0;0;incongruent;0.04;letter190;0.09;0.07;fullmask;0.2;arrow_right.png;down;0.17370110000047134;0.18056939999951283;25413.7542981;m;0.1991675999997824;0.20751519999976153;25413.9622693;3.1000017770566046e-06;0.4985631999988982;0.5385946000023978;0.5886319000019284;0.658666400002403;0.7887487000007241;0.9188484000005701;0.01
5;2;18;40;letter190;letter169;letter169;letter190;0;0;congruent;0.04;letter169;0.09;0.07;fullmask;0.2;arrow_right.png;up;0.2682578999992984;0.2694959000000381;25415.7703433;m;0.1887234999994689;0.1985060999977577;25415.9622447;2.8999966161791235e-06;0.5015884999993432;0.5416096999979345;0.591653799998312;0.6616677999991225;0.7917788999984623;0.921857799999998;0.01
5;2;18;41;letter190;letter169;letter169;letter190;0;0;congruent;0.04;letter169;0.09;0.07;fullmask;0.2;arrow_right.png;up;0.8033920999987458;0.8109827999978734;25418.3065173;m;0.21430669999972451;0.21747189999950933;25418.5302465;3.0000010156072676e-06;0.5019255000006524;0.5419513000015286;0.591990299999452;0.6620464000006905;0.7921099000013783;0.922222299999703;0.01
5;2;18;42;letter190;letter169;letter169;letter190;0;0;congruent;0.04;letter169;0.09;0.07;fullmask;0.2;arrow_right.png;up;1.125826199997391;1.1308815999982471;25421.170388;m;0.2328656999998202;0.23840820000259555;25421.4102497;3.0000010156072676e-06;0.49700680000023567;0.5370265999990806;0.5870767000014894;0.657096899998578;0.7871844000001147;0.9172787999996217;0.01
5;2;18;43;letter190;letter169;letter169;letter190;0;0;incongruent;0.04;letter169;0.09;0.07;fullmask;0.2;arrow_left.png;down;1.0416605999998865;1.0501444000001356;25423.9783873;c;0.12693379999836907;0.13076649999857182;25424.3142175;3.1000017770566046e-06;0.5020833000016864;0.5421167999993486;0.592119000000821;0.662161100000958;0.7922384000012244;0.9223511999989569;0.01
5;2;18;44;letter190;letter169;letter169;letter190;0;0;incongruent;0.04;letter190;0.09;0.07;fullmask;0.2;arrow_right.png;down;0.4202383000010741;0.4208218999992823;25426.2583693;m;0.23744319999968866;0.23842919999879086;25426.4982921;3.1000017770566046e-06;0.5025253999992856;0.5425348999997368;0.5925620999987586;0.6625974999988102;0.7926871999989089;0.9227852000003622;0.01
5;2;18;45;letter190;letter169;letter169;letter190;0;0;incongruent;0.04;letter190;0.09;0.07;fullmask;0.2;arrow_right.png;up;0.390528700001596;0.4006014000005962;25428.4104243;m;0.7023020999986329;0.7110923000000184;25429.3222554;2.9999973776284605e-06;0.5024749000003794;0.5424925000006624;0.5925322999974014;0.6625614000004134;0.7926422999989882;0.9227441000002727;0.01
5;2;18;46;letter190;letter169;letter169;letter190;0;0;incongruent;0.04;letter169;0.09;0.07;fullmask;0.2;arrow_left.png;up;0.3750122999990708;0.38073739999890677;25431.2263002;c;0.6243052000027092;0.6283782000027713;25431.8582668;3.5000011848751456e-06;0.5009751000034157;0.5409883000029367;0.591011400003481;0.6610601000029419;0.7911323000007542;0.9212355000017851;0.01
5;2;18;47;letter190;letter169;letter169;letter190;0;0;congruent;0.04;letter169;0.09;0.07;fullmask;0.2;arrow_right.png;up;0.41330509999897913;0.4209272999978566;25433.8263357;m;0.3423202999983914;0.348125100001198;25434.1782086;3.0000010156072676e-06;0.5030337999996846;0.5430505000003905;0.5930847999989055;0.6631182999990415;0.7932001000008313;0.9233015999998315;0.01
5;2;18;48;letter190;letter169;letter169;letter190;0;0;congruent;0.04;letter190;0.09;0.07;fullmask;0.2;arrow_left.png;down;0.151260500002536;0.159626799999387;25435.8665537;c;0.30170539999744506;0.3082464999970398;25436.178448;2.9999973776284605e-06;0.5005936999987171;0.5405949999985751;0.5906288000005588;0.6606764999996813;0.7907477999979164;0.9208679999974265;0.01
5;2;18;49;letter190;letter169;letter169;letter190;0;0;congruent;0.04;letter190;0.09;0.07;fullmask;0.2;arrow_left.png;down;0.31865280000056373;0.3201933000018471;25438.0342896;c;0.29243660000065574;0.2982455999990634;25438.3302052;2.9000002541579306e-06;0.5031702000014775;0.5432190999999875;0.5932126000006974;0.6632745000024443;0.7933478000013565;0.9234517000004416;0.01
5;2;18;50;letter190;letter169;letter169;letter190;0;0;congruent;0.04;letter190;0.09;0.07;fullmask;0.2;arrow_left.png;down;0.19122109999807435;0.20047359999807668;25440.0582731;c;0.3327537000004668;0.3382278999997652;25440.4022438;3.0000010156072676e-06;0.5025443000013183;0.5425408000010066;0.592565700000705;0.66260450000118;0.7926960000004328;0.9227952000001096;0.01
5;2;18;51;letter190;letter169;letter169;letter190;0;0;congruent;0.04;letter190;0.09;0.07;fullmask;0.2;arrow_left.png;down;0.13716800000111107;0.13967390000107116;25442.0662901;c;0.3475704999982554;0.34812509999756003;25442.4183026;3.0000010156072676e-06;0.5029308999983186;0.5429598999980954;0.5929862999983015;0.6630192999982683;0.793109899997944;0.9232016999994812;0.01
5;2;18;52;letter190;letter169;letter169;letter190;0;1;incongruent;0.12;letter169;0.18;0.07;fullmask;0.2;arrow_left.png;up;0.4979858000006061;0.4996759000023303;25444.5382813;m;0.4524920000003476;0.45894160000170814;25444.9944076;3.0000010156072676e-06;0.5055049000002327;0.6255918000024394;0.6856129000007058;0.7556450000010955;0.8857301000025473;1.0158190000001923;0.01
