subjnr;loop_m;blocknr;trialnr;cue_left_learn;cue_right_learn;option_up;option_down;practice;motivation; congruence;cue_dur;cue;SOA;mask_dur;mask;target_dur;target;response;RT;kb_rt;response_absolute;response_target;RT_target;kb_rt_target;response_absolute_target; fix_onset;cue_onset;cue_offset;mask_onset;mask_offset;target_offset;blank_onset;frame_dur
8;1;9;1;letter181;letter357;letter357;letter181;0;0;congruent;0.04;letter181;0.05;0.07;fullmask;0.2;arrow_left.png;up;2.1574673000141047;2.1612173999892548;272704.5637099;c;2.2596008999971673;2.2609740999760106;272707.0273993;2.700020559132099e-06;0.5009234999888577;0.5409403000376187;0.5509630999877118;0.6209908000309952;0.7510849999962375;0.8811618000036106;0.01
8;1;9;2;letter181;letter357;letter357;letter181;0;0;congruent;0.04;letter357;0.05;0.07;fullmask;0.2;arrow_right.png;down;1.023438600008376;1.0303472999949008;272709.5235508;m;0.7284900999511592;0.730002099997364;272710.4594892;2.6999623514711857e-06;0.49421069998061284;0.5342336000176147;0.5442317000124604;0.6142714999732561;0.7443516000057571;0.874445499968715;0.01
8;1;9;3;letter181;letter357;letter357;letter181;0;0;congruent;0.04;letter357;0.05;0.07;fullmask;0.2;arrow_right.png;up;0.7238038000068627;0.7310596000170335;272712.675513;m;0.7989316000021063;0.8089982999954373;272713.483648;2.700020559132099e-06;0.49679280002601445;0.5368153000017628;0.5468397000222467;0.6168595000053756;0.7469491000520065;0.8770430000149645;0.01
8;1;9;4;letter181;letter357;letter357;letter181;0;0;congruent;0.04;letter357;0.05;0.07;fullmask;0.2;arrow_right.png;up;1.0718567000003532;1.0809054999845102;272716.0356684;m;0.7807823999901302;0.7889408000046387;272716.8274256;2.700020559132099e-06;0.4993569999933243;0.5393592999898829;0.5493685000110418;0.6194003000273369;0.7494885000050999;0.8795847999863327;0.01
8;1;9;5;letter181;letter357;letter357;letter181;0;0;incongruent;0.04;letter181;0.05;0.07;fullmask;0.2;arrow_right.png;down;0.5274171999772079;0.5307257000240497;272718.8435028;c;0.8186436999822035;0.8278385999728926;272719.6673952;2.700020559132099e-06;0.5022472000564449;0.5422753000166267;0.5522664000163786;0.6223107000114396;0.7523822000366636;0.8824895000434481;0.01
8;1;9;6;letter181;letter357;letter357;letter181;0;0;congruent;0.04;letter181;0.05;0.07;fullmask;0.2;arrow_left.png;down;0.9280204999959096;0.9306806999957189;272722.075722;c;0.5153652000008151;0.5186878999811597;272722.5955786;2.6999623514711857e-06;0.49523939995560795;0.5352616999880411;0.545246199995745;0.6152982999919914;0.7453614000114612;0.875468899961561;0.01
8;1;9;7;letter181;letter357;letter357;letter181;0;0;congruent;0.04;letter181;0.05;0.07;fullmask;0.2;arrow_left.png;down;0.6698641999973916;0.6700504999607801;272724.7395593;c;0.5736325000179932;0.5785025999648497;272725.3154082;2.7999631129205227e-06;0.4978828000021167;0.5379097000113688;0.547896399977617;0.6179339999798685;0.7480133000062779;0.8781213000183925;0.01
8;1;9;8;letter181;letter357;letter357;letter181;0;1;congruent;0.12;letter357;0.14;0.07;fullmask;0.2;arrow_right.png;up;0.8975317999720573;0.9005130999721587;272727.7795289;c;0.6269148999708705;0.6283653000136837;272728.4113695;2.5999615900218487e-06;0.5031946999952197;0.6232678999658674;0.6432754999841563;0.7133076000027359;0.8434043999877758;0.973507399961818;0.01
8;1;9;9;letter181;letter357;letter357;letter181;0;0;incongruent;0.04;letter357;0.05;0.07;fullmask;0.2;arrow_left.png;down;0.7099034999846481;0.7100812999997288;272730.6034941;c;0.42341180000221357;0.43089899996994063;272731.2276731;2.6999623514711857e-06;0.5042895000078715;0.5443354999879375;0.5543356999987736;0.6243638999876566;0.7544483999954537;0.8845337999518961;0.01
8;1;9;10;letter181;letter357;letter357;letter181;0;0;incongruent;0.04;letter181;0.05;0.07;fullmask;0.2;arrow_right.png;up;0.4563880999921821;0.46078389999456704;272733.1714556;m;0.6191442999988794;0.6203554000239819;272733.9954439;2.700020559132099e-06;0.49908470001537353;0.5391074999934062;0.5490998000022955;0.6191487000323832;0.7492179000400938;0.8793314000358805;0.01
8;1;9;11;letter181;letter357;letter357;letter181;0;0;incongruent;0.04;letter357;0.05;0.07;fullmask;0.2;arrow_left.png;down;0.444453899981454;0.450857299962081;272735.9314765;c;0.49808419996406883;0.5006725999992341;272736.6354172;2.600019797682762e-06;0.5007016000454314;0.5407287000562064;0.5507345000514761;0.6207623000373133;0.7508395000477321;0.8809566000127234;0.01
8;1;9;12;letter181;letter357;letter357;letter181;0;0;incongruent;0.04;letter357;0.05;0.07;fullmask;0.2;arrow_left.png;down;0.7811799999908544;0.7909098000382073;272738.8998632;c;0.6055193999782205;0.6104178999667056;272739.7155235;2.7999631129205227e-06;0.5058544999919832;0.5458789999829605;0.5558717999956571;0.6259380999836139;0.7560030999593437;0.8861026999657042;0.01
8;1;9;13;letter181;letter357;letter357;letter181;0;0;incongruent;0.04;letter181;0.05;0.07;fullmask;0.2;arrow_right.png;down;0.6168259000405669;0.6204162000212818;272741.8274703;m;0.4984577000141144;0.49860709998756647;272742.3314609;2.700020559132099e-06;0.5000730000319891;0.5401107000070624;0.5501054000342265;0.6201321000116877;0.7502194999833591;0.8803297000122257;0.01
8;1;9;14;letter181;letter357;letter357;letter181;0;0;incongruent;0.04;letter357;0.05;0.07;fullmask;0.2;arrow_left.png;up;0.7923676000209525;0.7997510000132024;272744.5955029;c;0.5586265999590978;0.568534699967131;272745.1634475;2.6999623514711857e-06;0.4979831000091508;0.5380010000080802;0.5480040999827906;0.6180507999961264;0.7481254999875091;0.8782430999563076;0.01
8;1;9;15;letter181;letter357;letter357;letter181;0;0;incongruent;0.04;letter181;0.05;0.07;fullmask;0.2;arrow_right.png;up;0.5970444999984466;0.6003263000166044;272747.2515191;m;0.45206129999132827;0.4597074000048451;272747.9073743;2.6999623514711857e-06;0.4964128999854438;0.5364330999436788;0.5464289999799803;0.6164751999895088;0.7465521999984048;0.8766633999766782;0.01
8;1;9;16;letter181;letter357;letter357;letter181;0;0;congruent;0.04;letter181;0.05;0.07;fullmask;0.2;arrow_left.png;down;0.3195759999798611;0.3201577999861911;272749.7155079;c;0.6693477999651805;0.6792317000217736;272750.38738;2.700020559132099e-06;0.5027555000269786;0.5427805000217631;0.5528008000110276;0.622836000053212;0.7529150000191294;0.8829881999990903;0.01
8;1;9;17;letter181;letter357;letter357;letter181;0;0;incongruent;0.04;letter357;0.05;0.07;fullmask;0.2;arrow_left.png;up;0.6480879000155255;0.6511772000230849;272752.5154878;c;0.7548973999801092;0.7580244999844581;272753.2754147;2.600019797682762e-06;0.49722139997174963;0.5372342999908142;0.5472447000211105;0.6172810000134632;0.7473597999778576;0.8774641000200063;0.01
8;1;9;18;letter181;letter357;letter357;letter181;0;0;congruent;0.04;letter357;0.05;0.07;fullmask;0.2;arrow_right.png;up;0.4501802999875508;0.45075929997256026;272755.2196067;m;0.5092845000326633;0.5186823000549339;272755.731364;3.0999653972685337e-06;0.5017667000065558;0.5417780999559909;0.5517754000029527;0.621808499970939;0.7519028999959119;0.8820009999908507;0.01
8;1;9;19;letter181;letter357;letter357;letter181;0;0;congruent;0.04;letter357;0.05;0.07;fullmask;0.2;arrow_right.png;down;0.5366714000119828;0.5404709000140429;272757.7474863;m;0.33171940001193434;0.34010339999804273;272758.2834515;2.600019797682762e-06;0.4990048000472598;0.5390374000417069;0.5490564000210725;0.6190602000569925;0.7491630000295117;0.8792514000087976;0.01
8;1;9;20;letter181;letter357;letter357;letter181;0;0;congruent;0.04;letter181;0.05;0.07;fullmask;0.2;arrow_left.png;up;0.8460322000319138;0.8497262000455521;272760.6194812;c;0.3398047000519;0.3400231000268832;272761.1634237;2.600019797682762e-06;0.5012928000069223;0.5412976000225171;0.5513032000162639;0.621336100040935;0.7514176000258885;0.8815188000444323;0.01
8;1;9;21;letter181;letter357;letter357;letter181;0;0;congruent;0.04;letter357;0.05;0.07;fullmask;0.2;arrow_right.png;down;0.43136029999004677;0.440984999993816;272763.0757838;m;0.37360210000770167;0.38000150001607835;272763.6593527;2.600019797682762e-06;0.49660319997929037;0.5366383999935351;0.5466305000009015;0.616661700012628;0.7467406999785453;0.8768480999860913;0.01
8;1;9;22;letter181;letter357;letter357;letter181;0;0;incongruent;0.04;letter181;0.05;0.07;fullmask;0.2;arrow_right.png;down;0.529160599980969;0.5306401000125334;272765.6754573;c;0.6364788000355475;0.6383516000350937;272766.3153541;2.700020559132099e-06;0.4997478000004776;0.5397788999835029;0.5497991999727674;0.6197999999858439;0.7498764999909326;0.8799950000247918;0.01
8;1;9;23;letter181;letter357;letter357;letter181;0;0;congruent;0.04;letter181;0.05;0.07;fullmask;0.2;arrow_left.png;down;1.3576818000292405;1.3613797000143677;272769.1554198;c;0.5942839999916032;0.5984452999546193;272769.7553452;2.700020559132099e-06;0.5046074999845587;0.5446022999822162;0.5546349000069313;0.6246631999965757;0.7547379999887198;0.8848394000087865;0.01
8;1;9;24;letter181;letter357;letter357;letter181;0;0;incongruent;0.04;letter181;0.05;0.07;fullmask;0.2;arrow_right.png;down;0.6748297999729402;0.6801166000077501;272771.9154599;m;0.4726978999678977;0.47876659996109083;272772.3953849;2.6999623514711857e-06;0.5037097999593243;0.5437227999791503;0.5537496999604627;0.6237738999770954;0.7538681000005454;0.8839518000022508;0.01
8;1;9;25;letter181;letter357;letter357;letter181;0;1;incongruent;0.12;letter181;0.14;0.07;fullmask;0.2;arrow_right.png;down;0.9131325000198558;0.9205547000165097;272774.8754733;m;0.35050280002178624;0.358094000024721;272775.2353379;2.600019797682762e-06;0.49431850004475564;0.6143755000084639;0.6343957000062801;0.7044414000120014;0.834514299989678;0.9646157000097446;0.01
8;1;9;26;letter181;letter357;letter357;letter181;0;0;incongruent;0.04;letter357;0.05;0.07;fullmask;0.2;arrow_left.png;up;0.5280008999980055;0.5305945999571122;272777.2514852;c;0.39555010001640767;0.39909160003298894;272777.6515783;2.5999615900218487e-06;0.5054798999917693;0.5452235999982804;0.5552422999753617;0.6252771999570541;0.7553696999675594;0.8854579000035301;0.01
8;1;9;27;letter181;letter357;letter357;letter181;0;0;congruent;0.04;letter181;0.05;0.07;fullmask;0.2;arrow_left.png;down;0.7019615999888629;0.7111198999918997;272779.8274059;c;0.42109140002867207;0.4280111999833025;272780.2594899;2.5999615900218487e-06;0.49796949996380135;0.5380486999638379;0.5479903999948874;0.6180150999571197;0.7481109999935143;0.8782145999721251;0.01
8;1;9;28;letter181;letter357;letter357;letter181;0;0;incongruent;0.04;letter181;0.05;0.07;fullmask;0.2;arrow_right.png;down;0.39996330003486946;0.40995960001600906;272782.1474676;m;0.3799932000110857;0.3880213999655098;272782.5393937;2.600019797682762e-06;0.5031172000453807;0.5431386000127532;0.5531384000205435;0.6231782000395469;0.7532589000184089;0.8833594000316225;0.01
8;1;9;29;letter181;letter357;letter357;letter181;0;0;congruent;0.04;letter181;0.05;0.07;fullmask;0.2;arrow_left.png;down;0.4872332999948412;0.4907460999675095;272784.5154418;c;0.41844290000153705;0.4279075000085868;272784.9393353;2.6999623514711857e-06;0.49893299996620044;0.5389318999950774;0.548944299982395;0.618963899964001;0.74906010000268;0.8791612999630161;0.01
8;1;9;30;letter181;letter357;letter357;letter181;0;0;incongruent;0.04;letter357;0.05;0.07;fullmask;0.2;arrow_left.png;down;0.41480819997377694;0.41992840002058074;272786.8353757;m;0.5303144999779761;0.5405768000055104;272787.5713487;2.6999623514711857e-06;0.49498509999830276;0.5350087999831885;0.5450446999748237;0.615038399992045;0.7451212999876589;0.8752302999491803;0.01
8;1;9;31;letter181;letter357;letter357;letter181;0;0;incongruent;0.04;letter357;0.05;0.07;fullmask;0.2;arrow_left.png;down;0.6771253999904729;0.6801094000111334;272789.7394125;c;0.23652239999501035;0.23937940003816038;272790.1793568;2.700020559132099e-06;0.5010431000264362;0.5410868999897502;0.5510730000096373;0.6210950000095181;0.7511757999891415;0.8812875000294298;0.01
8;1;9;32;letter181;letter357;letter357;letter181;0;0;incongruent;0.04;letter181;0.05;0.07;fullmask;0.2;arrow_right.png;down;0.4840655999723822;0.4907577999983914;272792.1474664;m;0.503245199972298;0.5087001000065356;272792.659335;2.700020559132099e-06;0.5045431000180542;0.544557600049302;0.5545799999963492;0.6245883000083268;0.7547023000079207;0.8847776000038721;0.01
8;1;9;33;letter181;letter357;letter357;letter181;0;0;congruent;0.04;letter357;0.05;0.07;fullmask;0.2;arrow_right.png;up;0.8280702999909408;0.8307975999778137;272794.9636195;m;0.51527899998473;0.5177175999851897;272795.4834618;2.6999623514711857e-06;0.5000405999599025;0.5400647000060417;0.5500837999861687;0.620116300007794;0.7502298000035807;0.8802939999732189;0.01
8;1;9;34;letter181;letter357;letter357;letter181;0;0;congruent;0.04;letter357;0.05;0.07;fullmask;0.2;arrow_right.png;up;0.450542000005953;0.45072560000699013;272797.4274143;m;0.39774379995651543;0.3978991999756545;272797.8273657;3.1999661587178707e-06;0.4967571999877691;0.536778699955903;0.5467936999630183;0.6167948999791406;0.7469204999506474;0.8770036000059918;0.01
8;1;9;35;letter181;letter357;letter357;letter181;0;0;incongruent;0.04;letter357;0.05;0.07;fullmask;0.2;arrow_left.png;up;0.3588014999986626;0.36009989999001846;272799.6675507;c;0.4285750000271946;0.4378813999937847;272800.0993635;2.600019797682762e-06;0.4946067000273615;0.5346495000412688;0.5446421000524424;0.6146683000260964;0.7447624000487849;0.8748510000295937;0.01
8;1;9;36;letter181;letter357;letter357;letter181;0;0;congruent;0.04;letter357;0.05;0.07;fullmask;0.2;arrow_right.png;up;0.46134320000419393;0.47092709998833016;272802.0514035;m;0.4364662999869324;0.4379185999860056;272802.4992712;2.800021320581436e-06;0.5020626000477932;0.5420761000132188;0.5520815000054426;0.6221332000568509;0.7522167999995872;0.8823145000496879;0.01
8;1;9;37;letter181;letter357;letter357;letter181;0;1;congruent;0.12;letter181;0.14;0.07;fullmask;0.2;arrow_left.png;down;0.40153520001331344;0.4098388999700546;272804.4834599;m;0.40564370003994554;0.4081241000094451;272804.8993493;2.700020559132099e-06;0.5039461000123993;0.6240176999708638;0.6440334999933839;0.7140812000143342;0.8441533999866806;0.974261800001841;0.01
8;1;9;38;letter181;letter357;letter357;letter181;0;0;congruent;0.04;letter181;0.05;0.07;fullmask;0.2;arrow_left.png;down;0.5658395999926142;0.5704001999692991;272806.9393662;c;0.3534583000000566;0.3580989000038244;272807.2993168;2.700020559132099e-06;0.49790640000719577;0.5379354000324383;0.5479341000318527;0.6179801000398584;0.7480409000418149;0.8781459000310861;0.01
8;1;9;39;letter181;letter357;letter357;letter181;0;0;incongruent;0.04;letter181;0.05;0.07;fullmask;0.2;arrow_right.png;down;0.2505981999565847;0.2603188999928534;272809.0354743;m;0.372123199980706;0.37802899995585904;272809.4192691;2.600019797682762e-06;0.5038696000119671;0.5438831999781542;0.5538837999920361;0.6239324000198394;0.7540081000188366;0.8841101999860257;0.01
8;1;9;40;letter181;letter357;letter357;letter181;0;1;incongruent;0.12;letter357;0.14;0.07;fullmask;0.2;arrow_left.png;up;0.8655648999847472;0.8707345000002533;272811.8515218;m;0.3687254000105895;0.37804020004114136;272812.2273554;2.600019797682762e-06;0.4972542999894358;0.6173286000266671;0.6373366999905556;0.7073918000096455;0.8374509999994189;0.9675458000274375;0.01
8;1;9;41;letter181;letter357;letter357;letter181;0;0;congruent;0.04;letter357;0.05;0.07;fullmask;0.2;arrow_right.png;down;0.4371273000142537;0.4398861000081524;272814.155454;m;2.3646640999941155;2.371675900008995;272816.7233205;2.500019036233425e-06;0.5001163000124507;0.5401441000285558;0.5501677999855019;0.6201730000320822;0.7502877999795601;0.8803595000063069;0.01
8;1;9;42;letter181;letter357;letter357;letter181;0;0;incongruent;0.04;letter357;0.05;0.07;fullmask;0.2;arrow_left.png;up;0.7367583999875933;0.7410335000022314;272818.9474224;c;0.40985759999603033;0.41795959998853505;272819.363498;2.700020559132099e-06;0.5018141000182368;0.5418395000160672;0.5518300000112504;0.6218563999864273;0.7519514000159688;0.8820628999965265;0.01
8;1;9;43;letter181;letter357;letter357;letter181;0;0;congruent;0.04;letter181;0.05;0.07;fullmask;0.2;arrow_left.png;down;0.44674449996091425;0.4498609000002034;272821.2994558;c;0.5387974000186659;0.5485831999685615;272821.8433102;2.700020559132099e-06;0.5042300000204705;0.5442435000441037;0.5542394000221975;0.6242753000115044;0.7543587000109255;0.8844629999948665;0.01
8;1;9;44;letter181;letter357;letter357;letter181;0;0;congruent;0.04;letter181;0.05;0.07;fullmask;0.2;arrow_left.png;up;2.413340400031302;2.421664400026202;272825.7477456;m;0.12690909998491406;0.1296985999797471;272826.0833754;2.6999623514711857e-06;0.5012109999661334;0.5412376999738626;0.5512440999737009;0.6212973999790847;0.7513439999893308;0.8814635999733582;0.01
8;1;9;45;letter181;letter357;letter357;letter181;0;0;congruent;0.04;letter357;0.05;0.07;fullmask;0.2;arrow_right.png;up;0.6608515999978408;0.6610503999982029;272828.2274737;m;0.3815686000161804;0.38791430002311245;272828.6112939;2.700020559132099e-06;0.4970566000556573;0.5370693000149913;0.5470894000027329;0.6171156000345945;0.7472049000207335;0.8772922000498511;0.01
8;1;9;46;letter181;letter357;letter357;letter181;0;0;incongruent;0.04;letter357;0.05;0.07;fullmask;0.2;arrow_left.png;down;0.58726589998696;0.59034920000704;272830.6753598;m;2.228529800020624;2.232148799987044;272833.1074132;2.6999623514711857e-06;0.49658509995788336;0.536602399952244;0.5465863999561407;0.6166312999557704;0.7467062000068836;0.8768207999528386;0.01
8;1;9;47;letter181;letter357;letter357;letter181;0;0;incongruent;0.04;letter357;0.05;0.07;fullmask;0.2;arrow_left.png;up;0.5243846000521444;0.5307387000066228;272835.1153639;m;0.3997331999707967;0.4089647000073455;272835.5232835;2.700020559132099e-06;0.5022467999951914;0.5422880999976769;0.5523077000398189;0.6223389999940991;0.7524408000172116;0.882520499988459;0.01
8;1;9;48;letter181;letter357;letter357;letter181;0;0;congruent;0.04;letter181;0.05;0.07;fullmask;0.2;arrow_left.png;up;0.6720449000131339;0.6800992000498809;272837.6754286;c;0.43941769999219105;0.4397515999735333;272838.3233462;2.700020559132099e-06;0.5042514000087976;0.5442660000408068;0.5542796000372618;0.6243107000482269;0.7543918000301346;0.8844904000288807;0.01
8;1;9;49;letter181;letter357;letter357;letter181;0;0;incongruent;0.04;letter181;0.05;0.07;fullmask;0.2;arrow_right.png;down;0.37495979998493567;0.3809971999726258;272840.1794201;m;0.37589230004232377;0.3780405000434257;272840.5632895;2.6999623514711857e-06;0.5060534999938682;0.5460089999833144;0.5560185999493115;0.626063899951987;0.7561539999442175;0.8862332999706268;0.01
8;1;9;50;letter181;letter357;letter357;letter181;0;0;incongruent;0.04;letter181;0.05;0.07;fullmask;0.2;arrow_right.png;down;0.2592798999976367;0.26027039997279644;272842.3155651;m;0.53295290004462;0.5387374000274576;272842.8514042;2.500019036233425e-06;0.5035058000357822;0.5435295000206679;0.5535398999927565;0.6235654000192881;0.7536666000378318;0.883776200003922;0.01
8;1;9;51;letter181;letter357;letter357;letter181;0;0;incongruent;0.04;letter181;0.05;0.07;fullmask;0.2;arrow_right.png;down;0.4017735999659635;0.4108245999668725;272844.7393355;m;0.32499719999032095;0.3282306999899447;272845.0753244;2.700020559132099e-06;0.5058661999646574;0.5458827000111341;0.555878399987705;0.6259057999704964;0.7559871000121348;0.8860948999645188;0.01
8;1;9;52;letter181;letter357;letter357;letter181;0;0;congruent;0.04;letter357;0.05;0.07;fullmask;0.2;arrow_right.png;up;0.43636039999546483;0.44088740000734106;272846.9953515;m;0.4095441999961622;0.4179401999572292;272847.4113519;2.6999623514711857e-06;0.5020618999842554;0.5420803999877535;0.5520965000032447;0.6221188000054099;0.7522232999908738;0.8822937000077218;0.01
8;1;10;1;letter181;letter357;letter357;letter181;0;0;incongruent;0.04;letter181;0.05;0.07;fullmask;0.2;arrow_right.png;up;0.27316839998820797;0.2803581000189297;272852.1153895;m;0.1442551000509411;0.1496161000104621;272852.4672776;2.6999623514711857e-06;0.5022354999673553;0.5422801999957301;0.5522719000000507;0.6223004999919794;0.7523855999461375;0.8824910999974236;0.01
8;1;10;2;letter181;letter357;letter357;letter181;0;0;congruent;0.04;letter357;0.05;0.07;fullmask;0.2;arrow_right.png;up;0.2432249000412412;0.2503946000360884;272854.1873656;m;0.5588479000143707;0.568537599989213;272854.7553156;2.700020559132099e-06;0.4951670000446029;0.5351809000130743;0.5451978000346571;0.6152161000063643;0.745315300009679;0.8754068000125699;0.01
8;1;10;3;letter181;letter357;letter357;letter181;0;1;incongruent;0.12;letter357;0.14;0.07;fullmask;0.2;arrow_left.png;up;0.46937840001191944;0.46962420002091676;272856.7954393;m;0.4537358999950811;0.45892850001109764;272857.251428;2.7999631129205227e-06;0.4956055000075139;0.6156869999831542;0.6356947000022046;0.7057367999805138;0.8358439999865368;0.9659481999697164;0.01
8;1;10;4;letter181;letter357;letter357;letter181;0;0;congruent;0.04;letter357;0.05;0.07;fullmask;0.2;arrow_right.png;up;0.40227899997262284;0.40991940000094473;272859.2593855;m;0.3183355000219308;0.3291721999994479;272859.5873014;2.500019036233425e-06;0.501066200027708;0.5410809000022709;0.5511025000014342;0.6211391999968328;0.7512178000179119;0.8813183000311255;0.01
8;1;10;5;letter181;letter357;letter357;letter181;0;0;congruent;0.04;letter181;0.05;0.07;fullmask;0.2;arrow_left.png;down;0.7867600000463426;0.7910208000103012;272861.8753387;c;0.16968749999068677;0.1775764999911189;272862.0512266;2.8999638743698597e-06;0.5003809999907389;0.5404100999585353;0.5503924999502487;0.6204464999609627;0.7505072999629192;0.8806306999758817;0.01
8;1;10;6;letter181;letter357;letter357;letter181;0;0;congruent;0.04;letter181;0.05;0.07;fullmask;0.2;arrow_left.png;down;0.3110234999912791;0.3202820000005886;272863.8516892;c;0.2045219000428915;0.20748169999569654;272864.0672961;2.700020559132099e-06;0.49889420002000406;0.538919500017073;0.5489027000148781;0.6189360999851488;0.7490175000275485;0.8791147000156343;0.01
8;1;10;7;letter181;letter357;letter357;letter181;0;0;incongruent;0.04;letter181;0.05;0.07;fullmask;0.2;arrow_right.png;down;0.6778635999653488;0.6801508999778889;272866.2195876;m;0.2196741999941878;0.22855749999871477;272866.4434214;2.5999615900218487e-06;0.5022365999757312;0.5422607999644242;0.5522607999737374;0.622287799953483;0.7523900999804027;0.8824715999653563;0.01
8;1;10;8;letter181;letter357;letter357;letter181;0;0;congruent;0.04;letter357;0.05;0.07;fullmask;0.2;arrow_right.png;up;0.3983991999994032;0.3999461999628693;272868.3314606;m;0.30031420005252585;0.30822710000211373;272868.6352625;2.700020559132099e-06;0.5025572000304237;0.5425860000541434;0.5525915000471286;0.622623700008262;0.7527113000396639;0.8828021000372246;0.01
8;1;10;9;letter181;letter357;letter357;letter181;0;0;congruent;0.04;letter357;0.05;0.07;fullmask;0.2;arrow_right.png;up;0.2710706999641843;0.279982200008817;272870.3955071;m;0.2529029999859631;0.2583602999802679;272870.6592619;2.5999615900218487e-06;0.5054622999741696;0.5454844999476336;0.5554978000000119;0.6255219999584369;0.7556309999781661;0.8857108999509364;0.01
8;1;10;10;letter181;letter357;letter357;letter181;0;0;incongruent;0.04;letter181;0.05;0.07;fullmask;0.2;arrow_right.png;up;0.415672299975995;0.41993779997574165;272872.5713216;m;0.03519600001163781;0.039907899976242334;272872.8112246;2.700020559132099e-06;0.5051308000111021;0.5451537999906577;0.555163300014101;0.625216200016439;0.7552747000008821;0.88538430002518;0.01
8;1;10;11;letter181;letter357;letter357;letter181;0;0;congruent;0.04;letter357;0.05;0.07;fullmask;0.2;arrow_right.png;down;0.4719069999991916;0.47978059999877587;272874.7794109;m;0.007482799992430955;0.00998749997233972;272874.9952089;2.700020559132099e-06;0.501087800017558;0.5411067000241019;0.5511268000118434;0.6211511000292376;0.7512439000420272;0.8813397000194527;0.01
8;1;10;12;letter181;letter357;letter357;letter181;0;0;incongruent;0.04;letter357;0.05;0.07;fullmask;0.2;arrow_left.png;down;0.15527839999413118;0.1607196000404656;272876.643725;c;2.242624500009697;2.251870400039479;272879.0912636;2.700020559132099e-06;0.5056615999783389;0.5456802999833599;0.555686199979391;0.625732299988158;0.7558060999726877;0.8859251000103541;0.01
8;1;10;13;letter181;letter357;letter357;letter181;0;0;congruent;0.04;letter181;0.05;0.07;fullmask;0.2;arrow_left.png;down;0.38217830000212416;0.39002130000153556;272880.9634174;c;0.31813520001014695;0.3281738999648951;272881.2913361;2.700020559132099e-06;0.50018120004097;0.5402159999939613;0.5502182000200264;0.6202574000344612;0.7503392000216991;0.8804385000257753;0.01
8;1;10;14;letter181;letter357;letter357;letter181;0;0;incongruent;0.04;letter357;0.05;0.07;fullmask;0.2;arrow_left.png;down;0.20512499997857958;0.21045040001627058;272882.9873854;c;0.15413229999830946;0.15959920000750571;272883.3472909;2.5999615900218487e-06;0.5019407999934629;0.5419717999757268;0.5519809999968857;0.6220064999652095;0.7521041000145487;0.8821955000166781;0.01
8;1;10;15;letter181;letter357;letter357;letter181;0;0;congruent;0.04;letter181;0.05;0.07;fullmask;0.2;arrow_left.png;down;0.4416460000211373;0.45095289999153465;272885.2756554;c;0.2847093000309542;0.28838420001557097;272885.5715064;2.6999623514711857e-06;0.5036912999930792;0.5437008999870159;0.5537261000135913;0.6237412999616936;0.7538338999729604;0.8839288000017405;0.01
8;1;10;16;letter181;letter357;letter357;letter181;0;0;congruent;0.04;letter181;0.05;0.07;fullmask;0.2;arrow_left.png;down;0.3640657999785617;0.37007349997293204;272887.4192972;c;0.33609459997387603;0.3391463999869302;272887.7633378;2.6999623514711857e-06;0.49755309999454767;0.5375758999725804;0.5475766999879852;0.6176040999707766;0.7476955999736674;0.8777649999829009;0.01
8;1;10;17;letter181;letter357;letter357;letter181;0;0;congruent;0.04;letter357;0.05;0.07;fullmask;0.2;arrow_right.png;up;0.33872190001420677;0.34010770003078505;272889.595355;m;0.6925680999993347;0.6991819000104442;272890.2912482;2.700020559132099e-06;0.505012399982661;0.5450316999922507;0.5550244000041857;0.6250554000143893;0.7551466000149958;0.8852379000163637;0.01
8;1;10;18;letter181;letter357;letter357;letter181;0;1;congruent;0.12;letter357;0.14;0.07;fullmask;0.2;arrow_right.png;up;0.3273386000073515;0.33113619999494404;272892.1955184;m;0.3061875000130385;0.308329000021331;272892.5073396;3.00002284348011e-06;0.49563489999854937;0.615714100014884;0.6357168999966234;0.7057405000086874;0.8358062000479549;0.9659465000149794;0.01
8;1;10;19;letter181;letter357;letter357;letter181;0;0;incongruent;0.04;letter357;0.05;0.07;fullmask;0.2;arrow_left.png;up;0.2773899000021629;0.2803098000003956;272894.2673225;c;0.3471422999864444;0.34812629997031763;272894.6193289;2.6999623514711857e-06;0.5029284000047483;0.5429509999812581;0.5529571999795735;0.6229870999814011;0.7530746000120416;0.883174299960956;0.01
8;1;10;20;letter181;letter357;letter357;letter181;0;0;congruent;0.04;letter181;0.05;0.07;fullmask;0.2;arrow_left.png;up;0.1960502999718301;0.19956569996429607;272896.3073688;c;0.24382689996855333;0.2503473999677226;272896.7552426;2.6999623514711857e-06;0.5011888999724761;0.5412031000014395;0.5512009999947622;0.621240799955558;0.7513311999500729;0.8814398999675177;0.01
8;1;10;21;letter181;letter357;letter357;letter181;0;0;incongruent;0.04;letter357;0.05;0.07;fullmask;0.2;arrow_left.png;up;0.5308694000123069;0.5406271999818273;272898.7632868;c;0.3882701999973506;0.3979898000252433;272899.1632409;2.600019797682762e-06;0.4968757000169717;0.536896399979014;0.5468944999738596;0.6169377000187524;0.7470236999797635;0.8771199000184424;0.01
8;1;10;22;letter181;letter357;letter357;letter181;0;0;incongruent;0.04;letter181;0.05;0.07;fullmask;0.2;arrow_right.png;up;0.4553504000068642;0.4606880999635905;272901.0993794;m;0.586024800024461;0.5893799000186846;272901.8912527;2.700020559132099e-06;0.4998980999807827;0.5399012999841943;0.549907999986317;0.619940200005658;0.7500479000154883;0.8801241000182927;0.01
8;1;10;23;letter181;letter357;letter357;letter181;0;0;incongruent;0.04;letter181;0.05;0.07;fullmask;0.2;arrow_right.png;down;1.2368555999710225;1.2406710999784991;272904.6033121;m;0.3141716999816708;0.31820659997174516;272904.9232347;2.800021320581436e-06;0.4956234999699518;0.5356457000016235;0.5456805999856442;0.6156973000033759;0.7458011999842711;0.8758936999947764;0.01
8;1;10;24;letter181;letter357;letter357;letter181;0;0;incongruent;0.04;letter181;0.05;0.07;fullmask;0.2;arrow_right.png;down;0.5476378999883309;0.5505432999925688;272906.9552826;m;0.33909939997829497;0.3481215999927372;272907.2992259;2.7999631129205227e-06;0.505535600008443;0.5455560999689624;0.5555646999855526;0.6256155999726616;0.755679499998223;0.8857912999810651;0.01
8;1;10;25;letter181;letter357;letter357;letter181;0;0;congruent;0.04;letter181;0.05;0.07;fullmask;0.2;arrow_left.png;down;0.3575975999701768;0.3600776999955997;272909.147533;c;0.3634553999872878;0.3680737999966368;272909.5153094;2.5999615900218487e-06;0.5040000999579206;0.5440365999820642;0.5540121999802068;0.62405319995014;0.7541366999503225;0.8842480999883264;0.01
8;1;10;26;letter181;letter357;letter357;letter181;0;0;incongruent;0.04;letter357;0.05;0.07;fullmask;0.2;arrow_left.png;down;0.15466870000818744;0.16063350002514198;272911.155339;c;0.7695994999958202;0.7698740999912843;272912.1313463;2.6999623514711857e-06;0.4963541000033729;0.5363829999696463;0.5463604999822564;0.6164090000092983;0.746487399970647;0.8766073999577202;0.01
8;1;10;27;letter181;letter357;letter357;letter181;0;0;incongruent;0.04;letter181;0.05;0.07;fullmask;0.2;arrow_right.png;up;0.6941967000020668;0.7002494999906048;272914.3073659;m;0.03428560000611469;0.04005949996644631;272914.5472525;3.00002284348011e-06;0.4975243000080809;0.537563499994576;0.5475624999962747;0.617602700018324;0.7476845000055619;0.8778122999938205;0.01
8;1;10;28;letter181;letter357;letter357;letter181;0;0;incongruent;0.04;letter181;0.05;0.07;fullmask;0.2;arrow_right.png;down;0.4117079999996349;0.4209059000131674;272916.4354805;m;0.1806180999847129;0.18755370000144467;272916.6272134;2.6999623514711857e-06;0.4972096999990754;0.5372208000044338;0.5472369999624789;0.6172604999737814;0.7473621999961324;0.8774429999757558;0.01
8;1;10;29;letter181;letter357;letter357;letter181;0;0;incongruent;0.04;letter181;0.05;0.07;fullmask;0.2;arrow_right.png;down;0.40810649999184534;0.4108569999807514;272918.5235995;m;0.29095960000995547;0.29829720000270754;272918.8192139;2.600019797682762e-06;0.5046121000195853;0.5446295000147074;0.5546473999856971;0.6246704999939539;0.7547638000105508;0.8848650000290945;0.01
8;1;10;30;letter181;letter357;letter357;letter181;0;0;incongruent;0.04;letter357;0.05;0.07;fullmask;0.2;arrow_left.png;down;0.5584546999889426;0.5605667000054382;272920.8752661;c;0.149450600030832;0.14959470002213493;272921.2272687;2.700020559132099e-06;0.4999842999968678;0.5400039000087418;0.5500226999865845;0.6200445999857038;0.7501443999935873;0.8802388000185601;0.01
8;1;10;31;letter181;letter357;letter357;letter181;0;0;congruent;0.04;letter357;0.05;0.07;fullmask;0.2;arrow_right.png;up;0.014864300028420985;0.01997050002682954;272922.723399;m;0.3207490000058897;0.32808349997503683;272923.0511805;2.6999623514711857e-06;0.5055669999564998;0.5455877999775112;0.5556066999561153;0.6256312999757938;0.7557436999632046;0.8858139999792911;0.01
8;1;10;32;letter181;letter357;letter357;letter181;0;0;incongruent;0.04;letter181;0.05;0.07;fullmask;0.2;arrow_right.png;up;0.42372189997695386;0.43001109996112064;272924.963268;m;1.5134643000201322;1.5209281999850646;272926.6832525;2.700020559132099e-06;0.4992717999848537;0.5392930000089109;0.5492920000106096;0.6193409999832511;0.7494107999955304;0.8795287000248209;0.01
8;1;10;33;letter181;letter357;letter357;letter181;0;0;incongruent;0.04;letter357;0.05;0.07;fullmask;0.2;arrow_left.png;down;0.49669649999123067;0.49972730001900345;272928.6592533;c;0.08441259997198358;0.08978549996390939;272928.9472375;2.600019797682762e-06;0.4941572999814525;0.5341793000116013;0.5441795000224374;0.6142222000053152;0.7442958999890834;0.8743991000228561;0.01
8;1;10;34;letter181;letter357;letter357;letter181;0;0;congruent;0.04;letter357;0.05;0.07;fullmask;0.2;arrow_right.png;up;0.025794300017878413;0.029933199984952807;272930.4593103;m;0.2818113000248559;0.2882790000294335;272930.7472032;2.700020559132099e-06;0.505660499969963;0.5456759000080638;0.5557038999977522;0.6257261999999173;0.7558288999716751;0.8859135999809951;0.01
8;1;10;35;letter181;letter357;letter357;letter181;0;0;congruent;0.04;letter357;0.05;0.07;fullmask;0.2;arrow_right.png;up;0.5924544999725185;0.6004107999615371;272932.8272611;m;0.15017819998320192;0.15764919994398952;272932.9873349;2.600019797682762e-06;0.49778999999398366;0.5378173000062816;0.5478161000064574;0.617865200038068;0.7479371000081301;0.878042500000447;0.01
8;1;10;36;letter181;letter357;letter357;letter181;0;0;congruent;0.04;letter357;0.05;0.07;fullmask;0.2;arrow_right.png;up;0.08487349998904392;0.08988959999987856;272934.5715246;m;0.12900559999980032;0.13778889999957755;272934.7073848;2.700020559132099e-06;0.5027871000347659;0.5427927999990061;0.5528047000407241;0.6228515999973752;0.7529331000405364;0.8830403999891132;0.01
8;1;10;37;letter181;letter357;letter357;letter181;0;0;incongruent;0.04;letter181;0.05;0.07;fullmask;0.2;arrow_right.png;up;0.07595019997097552;0.07994030002737418;272936.2833332;m;2.443160699971486;2.4514376999577507;272938.931184;3.100023604929447e-06;0.5003247000277042;0.5403464999981225;0.5503730000345968;0.6203966999892145;0.7504857000312768;0.8805740000098012;0.01
8;1;10;38;letter181;letter357;letter357;letter181;0;1;congruent;0.12;letter181;0.14;0.07;fullmask;0.2;arrow_left.png;down;0.7808099000249058;0.7899031999986619;272941.2912965;c;0.4131620999542065;0.41904969996539876;272941.7154904;2.5999615900218487e-06;0.5014644999755546;0.621550899988506;0.641557399998419;0.711581599956844;0.841671000001952;0.9717711999546736;0.01
8;1;10;39;letter181;letter357;letter357;letter181;0;0;congruent;0.04;letter181;0.05;0.07;fullmask;0.2;arrow_left.png;down;0.2260115999961272;0.23031369998352602;272943.4273949;c;0.37778169999364763;0.37906700000166893;272943.8114058;2.5999615900218487e-06;0.49889749998692423;0.5388976999674924;0.5489035999635234;0.6189847000059672;0.7490231999545358;0.8791249999776483;0.01
8;1;10;40;letter181;letter357;letter357;letter181;0;0;incongruent;0.04;letter357;0.05;0.07;fullmask;0.2;arrow_left.png;down;0.25607609999133274;0.26036889996612445;272945.539347;c;0.06804070004727691;0.069836100039538;272945.8112269;2.700020559132099e-06;0.4993457000236958;0.53937810001662;0.5494026999804191;0.6194148000213318;0.7494971000123769;0.8795956000103615;0.01
8;1;10;41;letter181;letter357;letter357;letter181;0;0;incongruent;0.04;letter357;0.05;0.07;fullmask;0.2;arrow_left.png;up;0.22083000000566244;0.2304481000173837;272947.515301;c;0.16433240001788363;0.16760760004399344;272947.6911839;2.600019797682762e-06;0.4994351000059396;0.5394570000353269;0.5494710000348277;0.6194980000145733;0.7495828000246547;0.8796823000302538;0.01
8;1;10;42;letter181;letter357;letter357;letter181;0;0;incongruent;0.04;letter357;0.05;0.07;fullmask;0.2;arrow_left.png;down;1.243930900003761;1.250663299986627;272950.4193137;m;1.4249018000555225;1.4314412000239827;272952.0513964;2.800021320581436e-06;0.49757440004032105;0.5376014000503346;0.5476381000480615;0.6176451000501402;0.7477510000462644;0.8778371000080369;0.01
8;1;10;43;letter181;letter357;letter357;letter181;0;1;incongruent;0.12;letter181;0.14;0.07;fullmask;0.2;arrow_right.png;up;0.6131675999495201;0.620358899992425;272954.2513264;m;0.06419860001187772;0.06979520001914352;272954.5231914;2.700020559132099e-06;0.4989855000167154;0.6190451000002213;0.6390600000158884;0.7090932999853976;0.8391772999893874;0.9692868000129238;0.01
8;1;10;44;letter181;letter357;letter357;letter181;0;0;congruent;0.04;letter181;0.05;0.07;fullmask;0.2;arrow_left.png;down;0.059512400010135025;0.06074839999200776;272956.059334;c;0.22064790001604706;0.22744470002362505;272956.2831525;2.600019797682762e-06;0.49883360002422705;0.5388624000479467;0.548872500017751;0.6188898000400513;0.7489976999931969;0.8791009000269696;0.01
8;1;10;45;letter181;letter357;letter357;letter181;0;0;incongruent;0.04;letter357;0.05;0.07;fullmask;0.2;arrow_left.png;down;0.05386250000447035;0.06000810000114143;272957.8353887;c;2.137259599985555;2.1412502999883145;272960.1792733;2.7999631129205227e-06;0.4976501999772154;0.5376727999537252;0.5476658999687061;0.6177036999724805;0.7477938999654725;0.8778939999756403;0.01
8;1;10;46;letter181;letter357;letter357;letter181;0;0;incongruent;0.04;letter357;0.05;0.07;fullmask;0.2;arrow_left.png;down;0.5477903000428341;0.5506845000199974;272962.2113378;c;0.14847740001277998;0.14961740002036095;272962.5631498;2.600019797682762e-06;0.504633600008674;0.5446421999949962;0.5546565999975428;0.6246974000241607;0.7547740999725647;0.8848887999774888;0.01
8;1;10;47;letter181;letter357;letter357;letter181;0;0;congruent;0.04;letter357;0.05;0.07;fullmask;0.2;arrow_right.png;up;0.7743565000128001;0.780966599995736;272964.8192424;m;0.3033955999999307;0.30823309998959303;272965.1311788;2.6999623514711857e-06;0.5051469999598339;0.5451961999642663;0.5551887999754399;0.6252113999798894;0.7553135000052862;0.8853987999609672;0.01
8;1;10;48;letter181;letter357;letter357;letter181;0;0;congruent;0.04;letter181;0.05;0.07;fullmask;0.2;arrow_left.png;down;0.3068124999990687;0.3102964000427164;272966.9234923;c;0.4184901000116952;0.418882499972824;272967.3473068;2.700020559132099e-06;0.4966340000391938;0.5366471000015736;0.5466523000504822;0.6166822999948636;0.7467619000235572;0.8768413999932818;0.01
8;1;10;49;letter181;letter357;letter357;letter181;0;0;congruent;0.04;letter181;0.05;0.07;fullmask;0.2;arrow_left.png;down;0.48685639997711405;0.49075399996945634;272969.3152348;c;0.41011799999978393;0.4179363999865018;272969.7311872;2.700020559132099e-06;0.5032677000272088;0.543288599990774;0.5532866999856196;0.6233304000343196;0.7534144000383094;0.8835203000344336;0.01
8;1;10;50;letter181;letter357;letter357;letter181;0;0;incongruent;0.04;letter181;0.05;0.07;fullmask;0.2;arrow_right.png;down;0.4957532999687828;0.5007306999759749;272971.7152779;m;0.37699329998577014;0.3780517000122927;272972.0991754;2.700020559132099e-06;0.5043365000165068;0.5443356999894604;0.5543599000084214;0.6243822000105865;0.754470499989111;0.8845582000212744;0.01
8;1;10;51;letter181;letter357;letter357;letter181;0;0;congruent;0.04;letter181;0.05;0.07;fullmask;0.2;arrow_left.png;down;0.21927170001436025;0.22932320000836626;272973.8113186;c;0.395988300035242;0.399106600030791;272974.2192952;2.700020559132099e-06;0.5023815000313334;0.5424192000064068;0.5524176000035368;0.6224580000271089;0.7525536000030115;0.8826277999905869;0.01
8;1;10;52;letter181;letter357;letter357;letter181;0;0;congruent;0.04;letter357;0.05;0.07;fullmask;0.2;arrow_right.png;down;0.290956599987112;0.3001257000141777;272976.0034689;m;0.14224939997075126;0.15061179996700957;272976.355331;2.600019797682762e-06;0.5058619000483304;0.5459020000416785;0.5558796999976039;0.6259139000321738;0.7560049000312574;0.8861044000368565;0.01
8;2;17;1;letter190;letter169;letter190;letter169;0;0;congruent;0.04;letter190;0.09;0.07;fullmask;0.2;arrow_left.png;down;0.9598206999944523;0.960427499958314;273720.1146373;c;0.13488099997630343;0.13964840001426637;273720.4505701;2.6999623514711857e-06;0.5014171999646351;0.5414497999590822;0.5914552999893203;0.6615130999707617;0.7915755999856628;0.9216832999954931;0.01
8;2;17;2;letter190;letter169;letter190;letter169;0;0;congruent;0.04;letter190;0.09;0.07;fullmask;0.2;arrow_left.png;down;0.7085410000290722;0.711081700050272;273722.6746882;c;0.13329410000005737;0.13963539997348562;273723.0105593;2.800021320581436e-06;0.4978539000148885;0.5378683999879286;0.5878942999988794;0.6579334000125527;0.7880097000161186;0.9181226000073366;0.01
8;2;17;3;letter190;letter169;letter190;letter169;0;0;incongruent;0.04;letter169;0.09;0.07;fullmask;0.2;arrow_left.png;down;0.1703725999686867;0.1795698999776505;273724.6987033;c;0.380857499956619;0.38903119997121394;273725.0906975;2.600019797682762e-06;0.49888329999521375;0.5389053000253625;0.588927100005094;0.6589682000339963;0.789047300000675;0.9191805000300519;0.01
8;2;17;4;letter190;letter169;letter190;letter169;0;0;incongruent;0.04;letter190;0.09;0.07;fullmask;0.2;arrow_right.png;up;0.4794716000324115;0.4807794999796897;273727.0987071;m;0.33260590001009405;0.3381515999790281;273727.4345582;2.800021320581436e-06;0.49927840003510937;0.5393129999865778;0.5893352000275627;0.6593666999833658;0.7894497999805026;0.9195503999944776;0.01
8;2;17;5;letter190;letter169;letter190;letter169;0;0;congruent;0.04;letter169;0.09;0.07;fullmask;0.2;arrow_right.png;down;0.1381058000260964;0.1406864000018686;273729.0986651;c;0.3793978000176139;0.38862850004807115;273729.4825771;2.700020559132099e-06;0.49844360002316535;0.5384679000126198;0.5885565999778919;0.6586115999962203;0.78863409999758;0.9187185000046156;0.01
8;2;17;6;letter190;letter169;letter190;letter169;0;0;congruent;0.04;letter169;0.09;0.07;fullmask;0.2;arrow_right.png;down;0.23999500001082197;0.2501278000418097;273731.2427368;m;0.2998236000421457;0.30821769998874515;273731.5546222;2.6999623514711857e-06;0.500634900003206;0.5406367999967188;0.5907705000136048;0.6607220000005327;0.7907941999728791;0.9208917999640107;0.01
8;2;17;7;letter190;letter169;letter190;letter169;0;0;incongruent;0.04;letter190;0.09;0.07;fullmask;0.2;arrow_right.png;up;0.19274259998928756;0.19958889996632934;273733.2666871;m;0.2472270000143908;0.24841130001004785;273733.5225975;2.6999623514711857e-06;0.497586399957072;0.5376268999534659;0.5876419999985956;0.6576941999956034;0.7877635999466293;0.9178669999819249;0.01
8;2;17;8;letter190;letter169;letter190;letter169;0;0;congruent;0.04;letter190;0.09;0.07;fullmask;0.2;arrow_left.png;up;0.8599228000384755;0.8607981000095606;273735.9146769;c;0.28505910001695156;0.28827760001877323;273736.202551;2.500019036233425e-06;0.5031291000195779;0.5431443999987096;0.5931840999983251;0.6632202999899164;0.7933041999931447;0.923362800036557;0.01
8;2;17;9;letter190;letter169;letter190;letter169;0;1;congruent;0.12;letter169;0.18;0.07;fullmask;0.2;arrow_right.png;down;0.2436965000233613;0.25026360002812;273738.0506134;c;0.36752879997948185;0.36807590001262724;273738.4266353;2.700020559132099e-06;0.49826439999742433;0.6183330999920145;0.6783731000032276;0.748407099978067;0.8784855999983847;1.0085929000051692;0.01
8;2;17;10;letter190;letter169;letter190;letter169;0;0;congruent;0.04;letter169;0.09;0.07;fullmask;0.2;arrow_right.png;down;0.14041069999802858;0.14960509998491034;273740.0986103;c;0.2928245999501087;0.29824659996666014;273740.4025851;2.700020559132099e-06;0.5004933000309393;0.5405128999846056;0.5905519000370987;0.6606227000011131;0.7906809999840334;0.9207677000085823;0.01
8;2;17;11;letter190;letter169;letter190;letter169;0;0;incongruent;0.04;letter169;0.09;0.07;fullmask;0.2;arrow_left.png;down;0.009202999994158745;0.010138300014659762;273741.9388266;c;0.38086129998555407;0.3879285999573767;273742.3225463;2.6999623514711857e-06;0.5032350000110455;0.5432293000048958;0.5932659999816678;0.6633049999945797;0.7933986999560148;0.9234762999694794;0.01
8;2;17;12;letter190;letter169;letter190;letter169;0;0;incongruent;0.04;letter190;0.09;0.07;fullmask;0.2;arrow_right.png;up;0.7525115000316873;0.7609891000320204;273744.6029618;m;0.30127659998834133;0.30833730002632365;273744.9145494;2.600019797682762e-06;0.49867569998605177;0.5386986000230536;0.5887352999998257;0.6587643999955617;0.7888535999809392;0.9189478000043891;0.01
8;2;17;13;letter190;letter169;letter190;letter169;0;0;incongruent;0.04;letter169;0.09;0.07;fullmask;0.2;arrow_left.png;down;0.33019619999686256;0.34000780002679676;273746.7627472;c;0.1639961000182666;0.16859900002600625;273746.9384948;2.700020559132099e-06;0.49634490004973486;0.5363791000563651;0.5863860000390559;0.6564201000146568;0.7865065000369214;0.916614500049036;0.01
8;2;17;14;letter190;letter169;letter190;letter169;0;1;congruent;0.12;letter190;0.18;0.07;fullmask;0.2;arrow_left.png;up;0.18521429999964312;0.19055440003285185;273748.7386304;c;0.2806261000223458;0.2882755000027828;273749.0265372;2.600019797682762e-06;0.5049534999998286;0.6250289999879897;0.6850592999835499;0.7550870000268333;0.8851921000168659;1.0152801999938674;0.01
8;2;17;15;letter190;letter169;letter190;letter169;0;0;congruent;0.04;letter169;0.09;0.07;fullmask;0.2;arrow_right.png;down;0.6574668000102974;0.6602539999876171;273751.2028293;m;0.291298900032416;0.2983609000220895;273751.4987497;2.700020559132099e-06;0.5022340000141412;0.5422498999978416;0.5922982000047341;0.66231709998101;0.7924128000158817;0.9225165999960154;0.01
8;2;17;16;letter190;letter169;letter190;letter169;0;0;congruent;0.04;letter169;0.09;0.07;fullmask;0.2;arrow_right.png;down;0.5836333999759518;0.5894414999638684;273753.6106744;m;0.38411800004541874;0.38900439999997616;273754.0025416;2.700020559132099e-06;0.4995611000340432;0.5395896999980323;0.5896130999899469;0.6596594000002369;0.7897249999805354;0.9198330999934115;0.01
8;2;17;17;letter190;letter169;letter190;letter169;0;0;incongruent;0.04;letter190;0.09;0.07;fullmask;0.2;arrow_right.png;up;0.473887600004673;0.4797835999634117;273756.002579;m;0.5601772000081837;0.5685403000097722;273756.5705802;2.700020559132099e-06;0.504318899998907;0.5443252000259236;0.5943758999928832;0.6644338000332937;0.7945055000018328;0.9246551000396721;0.01
8;2;17;18;letter190;letter169;letter190;letter169;0;0;incongruent;0.04;letter169;0.09;0.07;fullmask;0.2;arrow_left.png;down;0.486972099984996;0.4908123000059277;273758.5867623;c;0.6423420999781229;0.6483375999960117;273759.2347798;2.6999623514711857e-06;0.4982915999717079;0.5382936999667436;0.5883482999633998;0.6583664999925531;0.7884611999616027;0.918559399957303;0.01
8;2;17;19;letter190;letter169;letter190;letter169;0;0;incongruent;0.04;letter190;0.09;0.07;fullmask;0.2;arrow_right.png;up;0.8887753000017256;0.8897339999675751;273761.6507624;m;0.3409169999649748;0.3491167999454774;273761.9945714;2.700020559132099e-06;0.5034941000049002;0.5435051000094973;0.5935393000254408;0.6635857000364922;0.7936590000172146;0.9237612999859266;0.01
8;2;17;20;letter190;letter169;letter190;letter169;0;0;incongruent;0.04;letter169;0.09;0.07;fullmask;0.2;arrow_left.png;down;0.7116478999960236;0.7210751999518834;273764.2345766;c;0.24467450001975521;0.24838840001029894;273764.4906193;2.700020559132099e-06;0.49655410001287237;0.5365281999693252;0.5865978999645449;0.6566190000157803;0.7867205999791622;0.916802599967923;0.01
8;2;17;21;letter190;letter169;letter190;letter169;0;0;congruent;0.04;letter190;0.09;0.07;fullmask;0.2;arrow_left.png;up;0.8433490000315942;0.8507290999987163;273766.858575;c;0.35081020003417507;0.35820920002879575;273767.2185997;2.6999623514711857e-06;0.4946741999592632;0.534688499988988;0.584717899968382;0.6547565999790095;0.7848331999848597;0.9149461999768391;0.01
8;2;17;22;letter190;letter169;letter190;letter169;0;0;incongruent;0.04;letter169;0.09;0.07;fullmask;0.2;arrow_left.png;down;0.526367099955678;0.5306079000001773;273769.2826462;c;0.32171379995997995;0.3281752999755554;273769.6105352;2.700020559132099e-06;0.5021714000031352;0.5421902000089176;0.5922259000362828;0.6622590000042692;0.7923456000280567;0.9224445000290871;0.01
8;2;17;23;letter190;letter169;letter190;letter169;0;0;congruent;0.04;letter190;0.09;0.07;fullmask;0.2;arrow_left.png;up;0.7347630000440404;0.7411659000208601;273771.8825942;c;0.2715504000079818;0.2783062999951653;273772.1624874;2.5999615900218487e-06;0.5002833999460563;0.5402843999909237;0.5903214999707416;0.6603446999797598;0.7904379999963567;0.9205316999577917;0.01
8;2;17;24;letter190;letter169;letter190;letter169;0;0;congruent;0.04;letter190;0.09;0.07;fullmask;0.2;arrow_left.png;up;0.5511430000187829;0.5606658000033349;273774.2509417;c;0.3323799000354484;0.3383107000263408;273774.5946766;2.5999615900218487e-06;0.5059316999977455;0.5459488999913447;0.5959720999817364;0.6660317999776453;0.7960925999796018;0.9262042999616824;0.01
8;2;17;25;letter190;letter169;letter190;letter169;0;0;congruent;0.04;letter169;0.09;0.07;fullmask;0.2;arrow_right.png;down;0.19958280003629625;0.20048330002464354;273776.3306184;m;0.3490700999973342;0.3580964999855496;273776.68253;2.600019797682762e-06;0.5034873000113294;0.5435279000084847;0.5935448000091128;0.6635679000173695;0.7936672000214458;0.9237508000223897;0.01
8;2;17;26;letter190;letter169;letter190;letter169;0;0;incongruent;0.04;letter190;0.09;0.07;fullmask;0.2;arrow_right.png;up;0.9013916000258178;0.910686600022018;273779.114567;m;0.3406745999818668;0.34812089998740703;273779.4664759;2.700020559132099e-06;0.5003465000190772;0.5403901999816298;0.5904149999842048;0.6604493000195362;0.790524700016249;0.9206253999727778;0.01
8;2;17;27;letter190;letter169;letter190;letter169;0;0;congruent;0.04;letter169;0.09;0.07;fullmask;0.2;arrow_right.png;down;0.5441131999832578;0.5505898999981582;273781.5385729;m;0.2875076999771409;0.2882806999841705;273781.8344984;2.800021320581436e-06;0.5054028000449762;0.5454271000344306;0.5954544999985956;0.6654929000069387;0.7955730000394396;0.9256601000088267;0.01
8;2;17;28;letter190;letter169;letter190;letter169;0;0;congruent;0.04;letter190;0.09;0.07;fullmask;0.2;arrow_left.png;up;0.4449991000001319;0.4509472000063397;273783.8109155;c;0.25597200001357123;0.2584822000353597;273784.0746683;2.700020559132099e-06;0.5057553000515327;0.5457641000393778;0.5957962000393309;0.6658343000453897;0.7959184000501409;0.9260242000455037;0.01
8;2;17;29;letter190;letter169;letter190;letter169;0;0;incongruent;0.04;letter169;0.09;0.07;fullmask;0.2;arrow_left.png;down;0.3974861000315286;0.4009893000475131;273785.9947269;c;0.25036740000359714;0.2583638000069186;273786.2505373;2.7999631129205227e-06;0.50142980000237;0.541453999991063;0.591473699954804;0.661517400003504;0.7915955999633297;0.9217208999907598;0.01
8;2;17;30;letter190;letter169;letter190;letter169;0;0;incongruent;0.04;letter190;0.09;0.07;fullmask;0.2;arrow_right.png;up;0.18320070003392175;0.18955619999906048;273787.9626889;m;0.24750199995469302;0.24838919995818287;273788.2184867;2.6999623514711857e-06;0.5050951999728568;0.5451179999508895;0.595175999973435;0.6651749999728054;0.7952591999783181;0.925362599955406;0.01
8;2;17;31;letter190;letter169;letter190;letter169;0;0;congruent;0.04;letter190;0.09;0.07;fullmask;0.2;arrow_left.png;up;0.7123603000072762;0.7201379999751225;273790.4425567;c;0.28634440002497286;0.2882992000086233;273790.7386113;2.600019797682762e-06;0.4982636000495404;0.5382840000092983;0.5883022000198252;0.6583585000480525;0.788427000050433;0.9185416999971494;0.01
8;2;17;32;letter190;letter169;letter190;letter169;0;0;incongruent;0.04;letter190;0.09;0.07;fullmask;0.2;arrow_right.png;up;0.5090232999646105;0.5105498999473639;273792.7706536;m;0.34039929998107255;0.34813380002742633;273793.1145095;2.7999631129205227e-06;0.503416899999138;0.5434367999550886;0.5934618999599479;0.6635035999934189;0.7935931999818422;0.9236904999706894;0.01
8;2;17;33;letter190;letter169;letter190;letter169;0;0;incongruent;0.04;letter190;0.09;0.07;fullmask;0.2;arrow_right.png;up;0.25555320002604276;0.26022589998319745;273794.8986154;m;0.31323369999881834;0.3181985999690369;273795.2184615;2.600019797682762e-06;0.5014559000264853;0.5414854999980889;0.5915145000326447;0.6615541999926791;0.7916452999925241;0.9217629000195302;0.01
8;2;17;34;letter190;letter169;letter190;letter169;0;0;congruent;0.04;letter169;0.09;0.07;fullmask;0.2;arrow_right.png;up;0.23623600002611056;0.24042099999496713;273796.9706251;m;0.16325360001064837;0.16956130001926795;273797.3385084;2.700020559132099e-06;0.5031678000232205;0.5431952000362799;0.5932125000399537;0.663258999993559;0.793334300047718;0.923443200008478;0.01
8;2;17;35;letter190;letter169;letter190;letter169;0;0;congruent;0.04;letter169;0.09;0.07;fullmask;0.2;arrow_right.png;down;0.8722470999928191;0.8808264000108466;273799.7388846;m;0.2691981000243686;0.2773157000192441;273800.018477;2.7999631129205227e-06;0.5043141999631189;0.5443491999758407;0.5943834999925457;0.6644221000024118;0.7944990999531001;0.9246118000010028;0.01
8;2;17;36;letter190;letter169;letter190;letter169;0;1;incongruent;0.12;letter190;0.18;0.07;fullmask;0.2;arrow_right.png;up;0.3451822000206448;0.3510956999962218;273802.0428847;m;0.27191900002071634;0.2783095000195317;273802.322532;2.5999615900218487e-06;0.49955569999292493;0.6196281000156887;0.6796974000171758;0.7497051999671385;0.8797931000008248;1.009896099974867;0.01
8;2;17;37;letter190;letter169;letter190;letter169;0;0;incongruent;0.04;letter169;0.09;0.07;fullmask;0.2;arrow_left.png;down;0.6411918000085279;0.6501369000179693;273804.4908513;m;0.4127808000193909;0.4189399000024423;273804.9145078;2.600019797682762e-06;0.4994689999730326;0.5394921000115573;0.5895177000202239;0.6595608000061475;0.7896406999789178;0.9197445000172593;0.01
8;2;17;38;letter190;letter169;letter190;letter169;0;0;congruent;0.04;letter190;0.09;0.07;fullmask;0.2;arrow_left.png;up;0.5792433000169694;0.5803686000290327;273807.0106947;m;0.3087365999817848;0.31819760001963004;273807.3224959;2.800021320581436e-06;0.49988960003247485;0.5399077000329271;0.5899223000160418;0.6599617000319995;0.7900438000215217;0.9201539999921806;0.01
8;2;17;39;letter190;letter169;letter190;letter169;0;0;incongruent;0.04;letter169;0.09;0.07;fullmask;0.2;arrow_left.png;down;0.6401998999645002;0.6503216999699362;273809.4827513;m;0.4278440000489354;0.4289310000021942;273809.9226578;2.500019036233425e-06;0.4961654999642633;0.5362001999747008;0.5862167999730445;0.6562547999783419;0.786337099969387;0.9164365999749862;0.01
8;2;17;40;letter190;letter169;letter190;letter169;0;0;incongruent;0.04;letter169;0.09;0.07;fullmask;0.2;arrow_left.png;down;0.6742662999895401;0.6802439999883063;273812.1386467;c;0.17587899998761714;0.17856979998759925;273812.3224463;2.6999623514711857e-06;0.4996951000066474;0.5397239999729209;0.5897532000089996;0.6597854999708943;0.7898755999631248;0.9199675999698229;0.01
8;2;17;41;letter190;letter169;letter190;letter169;0;0;congruent;0.04;letter169;0.09;0.07;fullmask;0.2;arrow_right.png;down;0.9907932000351138;1.0003873000387102;273814.8265367;m;0.11645820003468543;0.11881640000501648;273814.9544433;2.9999646358191967e-06;0.4948566000093706;0.5348822000087239;0.5849118999904022;0.6549430000013672;0.7850434000138193;0.9150991999777034;0.01
8;2;17;42;letter190;letter169;letter190;letter169;0;0;congruent;0.04;letter190;0.09;0.07;fullmask;0.2;arrow_left.png;up;0.3349805999896489;0.34015229996293783;273816.8026158;c;0.24089409998850897;0.2484847999876365;273817.0506212;2.700020559132099e-06;0.4966122999903746;0.5366301000467502;0.5866719000041485;0.6566967000253499;0.7868016000138596;0.9168818000471219;0.01
8;2;17;43;letter190;letter169;letter190;letter169;0;1;incongruent;0.12;letter169;0.18;0.07;fullmask;0.2;arrow_left.png;down;0.5680685000261292;0.57049630000256;273819.2267712;c;0.09945820004213601;0.10886550002032891;273819.3304905;2.600019797682762e-06;0.5055119000026025;0.6255773000302725;0.6856141000171192;0.7556404999922961;0.8857380999834277;1.0158266000216827;0.01
8;2;17;44;letter190;letter169;letter190;letter169;0;0;incongruent;0.04;letter190;0.09;0.07;fullmask;0.2;arrow_right.png;down;0.381683100014925;0.3899528000038117;273821.2426192;m;1.8880313000408933;1.891976600047201;273823.3384923;2.600019797682762e-06;0.5038105000276119;0.543803200009279;0.593845599971246;0.6638854999910109;0.7939644000143744;0.9240754999918863;0.01
8;2;17;45;letter190;letter169;letter190;letter169;0;0;congruent;0.04;letter190;0.09;0.07;fullmask;0.2;arrow_left.png;up;0.9412838999996893;0.9503800999955274;273825.7945262;c;0.149392599996645;0.15879299998050556;273825.9549477;2.5999615900218487e-06;0.4967676000087522;0.5367929000058211;0.5868148999870755;0.656851599982474;0.7869286999921314;0.9170503999921493;0.01
8;2;17;46;letter190;letter169;letter190;letter169;0;0;congruent;0.04;letter190;0.09;0.07;fullmask;0.2;arrow_left.png;up;1.5522484000539407;1.5617466000257991;273829.0266289;c;0.3405637000105344;0.34813980001490563;273829.378632;2.6999623514711857e-06;0.49666889995569363;0.5366958999657072;0.5867365999729373;0.6567628000047989;0.7868538000038825;0.9169568999786861;0.01
8;2;17;47;letter190;letter169;letter190;letter169;0;0;congruent;0.04;letter169;0.09;0.07;fullmask;0.2;arrow_right.png;down;0.5671463999897242;0.5704711000435054;273831.4745488;m;0.13064580003265291;0.1376847000210546;273831.6104618;2.600019797682762e-06;0.5004329000366852;0.5404407000169158;0.590497300028801;0.6605116000282578;0.7906020000227727;0.920692500018049;0.01
8;2;17;48;letter190;letter169;letter190;letter169;0;0;congruent;0.04;letter169;0.09;0.07;fullmask;0.2;arrow_right.png;down;0.29598340002121404;0.30026940000243485;273833.4346897;m;0.15356340003199875;0.1576471000444144;273833.5944472;2.600019797682762e-06;0.4977809999836609;0.537796700024046;0.5878352000145242;0.6578669000300579;0.7879545000032522;0.9180520999943838;0.01
8;2;17;49;letter190;letter169;letter190;letter169;0;0;incongruent;0.04;letter190;0.09;0.07;fullmask;0.2;arrow_right.png;up;0.4612391000264324;0.4707829999970272;273835.5708659;m;0.22036519995890558;0.2284360000048764;273835.8026133;2.700020559132099e-06;0.49943760002497584;0.539459399995394;0.5895070999977179;0.6595286999945529;0.7896253999788314;0.9197241999791004;0.01
8;2;17;50;letter190;letter169;letter190;letter169;0;0;incongruent;0.04;letter190;0.09;0.07;fullmask;0.2;arrow_right.png;up;0.33738839998841286;0.3401544999796897;273837.6586061;m;0.19511219998821616;0.19851509999716654;273837.8584246;3.00002284348011e-06;0.49506620003376156;0.5350878000026569;0.5851135000120848;0.6551488999975845;0.7852337000076659;0.9153535999939777;0.01
8;2;17;51;letter190;letter169;letter190;letter169;0;0;incongruent;0.04;letter169;0.09;0.07;fullmask;0.2;arrow_left.png;down;0.500189499987755;0.5006314999773167;273839.882561;c;0.2134139999980107;0.2184658999904059;273840.0984064;2.7999631129205227e-06;0.5015867999754846;0.5416320000076666;0.5916386999888346;0.6616802999633364;0.7917701000114903;0.9218661999912001;0.01
8;2;17;52;letter190;letter169;letter190;letter169;0;0;incongruent;0.04;letter169;0.09;0.07;fullmask;0.2;arrow_left.png;down;0.2750419999938458;0.2803295000339858;273841.8987018;c;0.17665560002205893;0.17868599999928847;273842.0825507;2.700020559132099e-06;0.5024624000070617;0.5424824000219814;0.5925137000158429;0.6625528000295162;0.7926392999943346;0.922751700039953;0.01
8;2;18;1;letter190;letter169;letter190;letter169;0;0;congruent;0.04;letter169;0.09;0.07;fullmask;0.2;arrow_right.png;up;1.0733100000070408;1.0812642999808304;273849.051081;m;0.007053700042888522;0.019993700028862804;273849.2665455;2.600019797682762e-06;0.5028414000407793;0.5428553000092506;0.5928814000217244;0.6629260000190698;0.7930014000157826;0.92312099999981;0.01
8;2;18;2;letter190;letter169;letter190;letter169;0;0;incongruent;0.04;letter169;0.09;0.07;fullmask;0.2;arrow_left.png;down;0.08134709997102618;0.0907770000048913;273850.8908842;c;0.22844769997755066;0.23851769999600947;273851.1306003;2.600019797682762e-06;0.49853350000921637;0.5385408999864012;0.5885960999876261;0.6586132000084035;0.7887121000094339;0.9187931999913417;0.01
8;2;18;3;letter190;letter169;letter190;letter169;0;0;incongruent;0.04;letter190;0.09;0.07;fullmask;0.2;arrow_right.png;up;0.5912730999989435;0.6002254000050016;273853.2427496;m;0.2688287000055425;0.2783031999715604;273853.5224612;2.6999623514711857e-06;0.49524229997769;0.5352951000095345;0.5853492000023834;0.6553720000083558;0.7854570000199601;0.9155479000182822;0.01
8;2;18;4;letter190;letter169;letter190;letter169;0;0;congruent;0.04;letter169;0.09;0.07;fullmask;0.2;arrow_right.png;down;0.5341573999612592;0.5406234999536537;273855.5865011;m;0.24753339996095747;0.24839470000006258;273855.8424328;2.600019797682762e-06;0.4967964999959804;0.5368320000125095;0.5868312999955378;0.6568820999818854;0.7869675999972969;0.9170649999869056;0.01
8;2;18;5;letter190;letter169;letter190;letter169;0;0;congruent;0.04;letter190;0.09;0.07;fullmask;0.2;arrow_left.png;up;0.38804130000062287;0.3900026000337675;273857.7627117;c;0.8040498999762349;0.808982599992305;273858.5705642;2.700020559132099e-06;0.49733799998648465;0.5373404999845661;0.587406300008297;0.6574339999933727;0.7875162999844179;0.9176039000158198;0.01
8;2;18;6;letter190;letter169;letter190;letter169;0;0;incongruent;0.04;letter190;0.09;0.07;fullmask;0.2;arrow_right.png;down;0.38077940000221133;0.3898948999703862;273860.4667047;m;0.03810280002653599;0.03981520002707839;273860.7144612;2.600019797682762e-06;0.4982478999882005;0.5382752000004984;0.5882673999876715;0.6583196999854408;0.7883852000231855;0.9185087999794632;0.01
8;2;18;7;letter190;letter169;letter190;letter169;0;0;incongruent;0.04;letter169;0.09;0.07;fullmask;0.2;arrow_left.png;down;0.41333599999779835;0.419897600018885;273862.6505826;c;0.22334990004310384;0.22843429999193177;273862.8824416;2.700020559132099e-06;0.4967911000130698;0.5368206999846734;0.5868495000177063;0.6568863000138663;0.7869850000133738;0.9170832000090741;0.01
8;2;18;8;letter190;letter169;letter190;letter169;0;0;incongruent;0.04;letter169;0.09;0.07;fullmask;0.2;arrow_left.png;down;0.1084504000027664;0.11091300001135096;273864.5067545;c;0.21938040002714843;0.22743090003496036;273864.730439;2.700020559132099e-06;0.49642079998739064;0.5364374000346288;0.5864849000354297;0.6565111000090837;0.786609300004784;0.9166966000339016;0.01
8;2;18;9;letter190;letter169;letter190;letter169;0;0;congruent;0.04;letter190;0.09;0.07;fullmask;0.2;arrow_left.png;up;0.11326989997178316;0.12085189996287227;273866.3629508;c;0.2140909000299871;0.21747299999697134;273866.5864456;3.200024366378784e-06;0.4974654000252485;0.5374930000398308;0.5875297000166029;0.65754799998831;0.7876391999889165;0.9177552000037394;0.01
8;2;18;10;letter190;letter169;letter190;letter169;0;0;incongruent;0.04;letter190;0.09;0.07;fullmask;0.2;arrow_right.png;up;0.689394999993965;0.6902207999955863;273868.8104761;m;0.20522190001793206;0.20848939998541027;273869.0184616;2.600019797682762e-06;0.5032212999649346;0.5432426999905147;0.593278799962718;0.6633264999836683;0.7933987000142224;0.9234865999897011;0.01
8;2;18;11;letter190;letter169;letter190;letter169;0;0;incongruent;0.04;letter190;0.09;0.07;fullmask;0.2;arrow_right.png;up;0.39615889999549836;0.40094100002897903;273870.9385511;m;0.18510310002602637;0.1875387000036426;273871.1303922;2.600019797682762e-06;0.5051258000312373;0.5451493000146002;0.5951793999993242;0.6652126000262797;0.7952914000488818;0.9253977000480518;0.01
8;2;18;12;letter190;letter169;letter190;letter169;0;0;congruent;0.04;letter169;0.09;0.07;fullmask;0.2;arrow_right.png;up;0.24412539997138083;0.24934569996548817;273872.8985959;m;0.010297300003003329;0.019970100023783743;273873.1145656;2.600019797682762e-06;0.4977274999837391;0.5377421000157483;0.5877763000316918;0.6578076999867335;0.787882599979639;0.9179871000233106;0.01
8;2;18;13;letter190;letter169;letter190;letter169;0;1;incongruent;0.12;letter190;0.18;0.07;fullmask;0.2;arrow_right.png;up;0.8575954000116326;0.8606162999640219;273875.6025822;m;0.22699070000089705;0.2284804999944754;273875.834537;2.6999623514711857e-06;0.5003532999544404;0.6204198999912478;0.6804598000016995;0.7504754000110552;0.8805801999988034;1.0106687999796122;0.01
8;2;18;14;letter190;letter169;letter190;letter169;0;0;incongruent;0.04;letter169;0.09;0.07;fullmask;0.2;arrow_left.png;down;0.6931316000409424;0.7001898000016809;273878.0504851;c;0.2549900999874808;0.258360999985598;273878.3144737;2.700020559132099e-06;0.5030321999802254;0.5430577999795787;0.5930839999928139;0.6631292999954894;0.7932001000153832;0.9233056000084616;0.01
8;2;18;15;letter190;letter169;letter190;letter169;0;0;congruent;0.04;letter190;0.09;0.07;fullmask;0.2;arrow_left.png;down;1.185757700004615;1.1908330000005662;273881.034554;c;1.7463491999660619;1.7504105999832973;273882.9864441;2.5999615900218487e-06;0.4976949999690987;0.5377116999588907;0.5877511999569833;0.657776499981992;0.7878719999571331;0.9179556999588385;0.01
8;2;18;16;letter190;letter169;letter190;letter169;0;0;incongruent;0.04;letter190;0.09;0.07;fullmask;0.2;arrow_right.png;up;0.2671934000100009;0.2703388999798335;273884.7785393;m;0.42681909998646006;0.42891090002376586;273885.2104374;2.8999638743698597e-06;0.5008233999833465;0.5408613999607041;0.5908660999848507;0.6609067999524996;0.7909805999952368;0.92108159995405;0.01
8;2;18;17;letter190;letter169;letter190;letter169;0;0;incongruent;0.04;letter169;0.09;0.07;fullmask;0.2;arrow_left.png;down;0.33580569998594;0.34100329998182133;273887.0585561;c;0.2649223000044003;0.26844950002850965;273887.3306148;2.600019797682762e-06;0.5042907000170089;0.5443421000381932;0.5943624000065029;0.6643878000322729;0.794483500008937;0.9245675000129268;0.01
8;2;18;18;letter190;letter169;letter190;letter169;0;0;congruent;0.04;letter190;0.09;0.07;fullmask;0.2;arrow_left.png;up;0.22665939998114482;0.23054619994945824;273889.0907465;c;0.29004960000747815;0.2983603999600746;273889.3865161;2.800021320581436e-06;0.4979194999905303;0.5379378999932669;0.5879618999897502;0.6580073999939486;0.7880785000161268;0.9181888999883085;0.01
8;2;18;19;letter190;letter169;letter190;letter169;0;0;incongruent;0.04;letter169;0.09;0.07;fullmask;0.2;arrow_left.png;down;0.264587500016205;0.2701991000212729;273891.1704755;c;0.2563949999748729;0.2583650999586098;273891.4344253;2.800021320581436e-06;0.5042773999739438;0.5443000000086613;0.5943244000081904;0.6643748999922536;0.7944431999931112;0.9245446000131778;0.01
8;2;18;20;letter190;letter169;letter190;letter169;0;0;congruent;0.04;letter190;0.09;0.07;fullmask;0.2;arrow_left.png;up;0.06962990004103631;0.07082439999794587;273893.0265355;c;0.2368570999824442;0.23740570002701133;273893.2665401;2.600019797682762e-06;0.5033319999929518;0.5433635999797843;0.5933794999727979;0.6634267999907024;0.793495999998413;0.9235866999952123;0.01
8;2;18;21;letter190;letter169;letter190;letter169;0;1;congruent;0.12;letter169;0.18;0.07;fullmask;0.2;arrow_right.png;down;0.23794530000304803;0.2403829999966547;273895.1067254;c;0.23543209995841607;0.23758959997212514;273895.3464235;2.700020559132099e-06;0.5005434000049718;0.6206346999970265;0.6806579999974929;0.7506944999913685;0.8807705999934115;1.0108809000230394;0.01
8;2;18;22;letter190;letter169;letter190;letter169;0;0;congruent;0.04;letter190;0.09;0.07;fullmask;0.2;arrow_left.png;up;0.7403639000258408;0.7500555000151508;273897.6104623;c;0.24432749999687076;0.24838639999506995;273897.8664198;2.600019797682762e-06;0.4989546000142582;0.5389369000331499;0.588963899994269;0.6590043000178412;0.7890620999969542;0.9191868000198156;0.01
8;2;18;23;letter190;letter169;letter190;letter169;0;0;congruent;0.04;letter169;0.09;0.07;fullmask;0.2;arrow_right.png;down;0.5975296000251547;0.6004585000337102;273899.978558;m;0.21095099998638034;0.21846310002729297;273900.1943777;2.600019797682762e-06;0.4985389999928884;0.5385485999868251;0.5885942000313662;0.6586184999905527;0.7887295000255108;0.9188064000336453;0.01
8;2;18;24;letter190;letter169;letter190;letter169;0;0;incongruent;0.04;letter169;0.09;0.07;fullmask;0.2;arrow_left.png;down;0.4817468000110239;0.4907074000220746;273902.1945701;c;0.3170212999684736;0.3182122000143863;273902.5224858;2.6999623514711857e-06;0.49765400000615045;0.5376653999555856;0.5877000999753363;0.6577373999753036;0.7878129999735393;0.9179231000016443;0.01
8;2;18;25;letter190;letter169;letter190;letter169;0;0;congruent;0.04;letter190;0.09;0.07;fullmask;0.2;arrow_left.png;up;0.45366150001063943;0.45983450004132465;273904.498463;c;0.27993349998723716;0.2882753000012599;273904.7865135;2.700020559132099e-06;0.4990016000228934;0.5390107000130229;0.5890703999903053;0.6590828000335023;0.7891881000250578;0.9192691000062041;0.01
8;2;18;26;letter190;letter169;letter190;letter169;0;0;congruent;0.04;letter169;0.09;0.07;fullmask;0.2;arrow_right.png;down;0.37674700003117323;0.3801645000348799;273906.6826926;c;0.4344713000464253;0.43887470004847273;273907.1224037;2.6999623514711857e-06;0.49777929997071624;0.5378037999616936;0.5878227999783121;0.6578706000000238;0.787942299968563;0.9180583999841474;0.01
8;2;18;27;letter190;letter169;letter190;letter169;0;0;congruent;0.04;letter190;0.09;0.07;fullmask;0.2;arrow_left.png;up;0.45081770000979304;0.45983519998844713;273909.09865;c;0.2768220999860205;0.27830639999592677;273909.386426;2.700020559132099e-06;0.5037455999990925;0.5437657000147738;0.5938047000090592;0.6638313999865204;0.7939300999860279;0.9240113999694586;0.01
8;2;18;28;letter190;letter169;letter190;letter169;0;1;incongruent;0.12;letter169;0.18;0.07;fullmask;0.2;arrow_left.png;down;0.13916359998984262;0.13946380000561476;273911.138529;c;0.31762200000230223;0.31820179999340326;273911.458474;2.700020559132099e-06;0.4986955000204034;0.6187596000381745;0.6787971000303514;0.7488573000300676;0.8789149000076577;1.0090186999877915;0.01
8;2;18;29;letter190;letter169;letter190;letter169;0;0;incongruent;0.04;letter190;0.09;0.07;fullmask;0.2;arrow_right.png;up;0.734775000018999;0.741065600013826;273913.7146517;m;0.2956615000148304;0.29838029999518767;273914.0184995;2.5999615900218487e-06;0.5054253999842331;0.5454397999565117;0.5954860000056215;0.6654989999951795;0.7956010999623686;0.9256586999981664;0.01
8;2;18;30;letter190;letter169;letter190;letter169;0;0;congruent;0.04;letter169;0.09;0.07;fullmask;0.2;arrow_right.png;down;0.21331500000087544;0.2205973999807611;273915.7548184;m;0.3586393999867141;0.3681844000238925;273916.1225511;2.700020559132099e-06;0.49654020002344623;0.5365601999801584;0.5865757000283338;0.656629899982363;0.7867050999775529;0.9168059999938123;0.01
8;2;18;31;letter190;letter169;letter190;letter169;0;0;congruent;0.04;letter169;0.09;0.07;fullmask;0.2;arrow_right.png;down;0.23680569999851286;0.2393477000296116;273917.8904542;m;0.25142300000879914;0.25836229999549687;273918.146361;2.600019797682762e-06;0.503190400020685;0.5432087000226602;0.5932418999727815;0.6632829000009224;0.7933599000098184;0.9234633999876678;0.01
8;2;18;32;letter190;letter169;letter190;letter169;0;0;congruent;0.04;letter169;0.09;0.07;fullmask;0.2;arrow_right.png;down;1.1177544000092894;1.1200308999978006;273920.8025531;m;0.3476874000043608;0.34912640001857653;273921.1544465;2.700020559132099e-06;0.5052365000010468;0.54526139999507;0.5952912999782711;0.6653256000136025;0.7954046999802813;0.9255053999950178;0.01
8;2;18;33;letter190;letter169;letter190;letter169;0;0;incongruent;0.04;letter169;0.09;0.07;fullmask;0.2;arrow_left.png;down;1.6624168999842368;1.6716920000035316;273924.3388661;c;1.0844401000067592;1.0881524999858811;273925.4344153;2.700020559132099e-06;0.5019494000007398;0.5419760000077076;0.5920125999837182;0.6620420999825001;0.7921303000184707;0.9222326999879442;0.01
8;2;18;34;letter190;letter169;letter190;letter169;0;0;incongruent;0.04;letter190;0.09;0.07;fullmask;0.2;arrow_right.png;down;0.36361509998096153;0.3710583999636583;273927.3225133;m;0.10495159996207803;0.11071989999618381;273927.6343534;2.600019797682762e-06;0.4998726000194438;0.5398950999951921;0.5899733999976888;0.6599583000061102;0.7900873000035062;0.9201556000043638;0.01
8;2;18;35;letter190;letter169;letter190;letter169;0;0;congruent;0.04;letter190;0.09;0.07;fullmask;0.2;arrow_left.png;up;0.4977008000132628;0.500725100049749;273929.658442;m;0.3070245999842882;0.308227600005921;273929.9704326;2.500019036233425e-06;0.5044240000424907;0.5444361999980174;0.5944631000165828;0.6644956000382081;0.7945889999973588;0.9246822000131942;0.01
8;2;18;36;letter190;letter169;letter190;letter169;0;0;congruent;0.04;letter169;0.09;0.07;fullmask;0.2;arrow_right.png;down;0.6389942000387236;0.6414464000263251;273932.1307059;m;0.21135230001527816;0.21747100003995;273932.3463488;2.700020559132099e-06;0.4992554999771528;0.5392534999991767;0.5892841999884695;0.6593354999786243;0.7894073000061326;0.9195204999996349;0.01
8;2;18;37;letter190;letter169;letter190;letter169;0;0;incongruent;0.04;letter190;0.09;0.07;fullmask;0.2;arrow_right.png;up;0.6064547999994829;0.6103910999954678;273934.4905495;m;0.13807480002287775;0.14766230003442615;273934.6343947;2.8999638743698597e-06;0.500506000011228;0.5405251999618486;0.5904964999645017;0.6605279999785125;0.7906250999658369;0.9207120999926701;0.01
8;2;18;38;letter190;letter169;letter190;letter169;0;0;incongruent;0.04;letter169;0.09;0.07;fullmask;0.2;arrow_left.png;down;0.5907846000045538;0.6002983000362292;273936.7464428;c;0.1804870999767445;0.18754559999797493;273936.9383871;2.6999623514711857e-06;0.49801379995187744;0.5380656999768689;0.5880535999895073;0.6580951999640092;0.7881717999698594;0.9182809999911115;0.01
8;2;18;39;letter190;letter169;letter190;letter169;0;0;incongruent;0.04;letter190;0.09;0.07;fullmask;0.2;arrow_right.png;up;0.4453219000133686;0.44981110002845526;273938.9224645;m;0.23349559999769554;0.23840909998398274;273939.1623963;2.700020559132099e-06;0.4963827999890782;0.5363931999891065;0.5864385000313632;0.6564703999902122;0.7865528999827802;0.9166605999926105;0.01
8;2;18;40;letter190;letter169;letter190;letter169;0;0;congruent;0.04;letter190;0.09;0.07;fullmask;0.2;arrow_left.png;up;0.35625970002729446;0.36050240002805367;273941.0344309;m;0.21772920002695173;0.22744099999545142;273941.2583417;2.6999623514711857e-06;0.4968875999911688;0.5369319000164978;0.586935099971015;0.6569724999717437;0.787056399974972;0.9171673000091687;0.01
8;2;18;41;letter190;letter169;letter190;letter169;0;0;congruent;0.04;letter190;0.09;0.07;fullmask;0.2;arrow_left.png;up;0.39151859999401495;0.40095219999784604;273943.1707656;m;0.3085154999862425;0.3183046000194736;273943.4905485;2.700020559132099e-06;0.4973057999741286;0.5373299000202678;0.5873713999753818;0.657401199976448;0.7875040000071749;0.9175924999872223;0.01
8;2;18;42;letter190;letter169;letter190;letter169;0;0;incongruent;0.04;letter169;0.09;0.07;fullmask;0.2;arrow_left.png;down;0.6480795000097714;0.6511755000101402;273945.6585076;c;0.22695129999192432;0.22844209999311715;273945.8904946;3.00002284348011e-06;0.5027824999997392;0.5427986000431702;0.5928329000016674;0.6628685000468977;0.7929427000344731;0.9230544000165537;0.01
8;2;18;43;letter190;letter169;letter190;letter169;0;0;incongruent;0.04;letter190;0.09;0.07;fullmask;0.2;arrow_right.png;up;0.8957655999693088;0.9005181000102311;273948.2984252;m;0.3612277999636717;0.3680727999890223;273948.6663386;2.700020559132099e-06;0.5031055000144988;0.5431355999899097;0.5931772000039928;0.6631827999954112;0.7932786000310443;0.9233790999860503;0.01
8;2;18;44;letter190;letter169;letter190;letter169;0;0;congruent;0.04;letter169;0.09;0.07;fullmask;0.2;arrow_right.png;down;0.761806299968157;0.7699994999566115;273950.9465259;m;0.17390110000269488;0.17866869998397306;273951.1305593;3.00002284348011e-06;0.4979043999919668;0.5379184000194073;0.5879471999942325;0.6580017000087537;0.788070400012657;0.9181826999993064;0.01
8;2;18;45;letter190;letter169;letter190;letter169;0;0;congruent;0.04;letter169;0.09;0.07;fullmask;0.2;arrow_right.png;down;0.37897169997449964;0.3809248000034131;273953.0345181;m;0.20393439999315888;0.20749929995508865;273953.2423342;2.700020559132099e-06;0.49873470002785325;0.5387374000274576;0.5887675000121817;0.6588035000022501;0.7888824000256136;0.918990800040774;0.01
8;2;18;46;letter190;letter169;letter190;letter169;0;0;incongruent;0.04;letter169;0.09;0.07;fullmask;0.2;arrow_left.png;down;0.3411212000064552;0.35007849999237806;273955.0985268;c;0.17289729998447;0.17856529995333403;273955.2823282;2.600019797682762e-06;0.4963590000406839;0.5363877000054345;0.5864204000099562;0.6564552999916486;0.7865307999891229;0.9166376999928616;0.01
8;2;18;47;letter190;letter169;letter190;letter169;0;1;congruent;0.12;letter190;0.18;0.07;fullmask;0.2;arrow_left.png;up;1.6815347000374459;1.6904674000106752;273958.5705813;m;0.1410457999445498;0.1487455999595113;273958.7224997;2.700020559132099e-06;0.4961407000082545;0.6161944000050426;0.676253599987831;0.746277199999895;0.8763765000039712;1.0064621000201441;0.01
8;2;18;48;letter190;letter169;letter190;letter169;0;0;incongruent;0.04;letter190;0.09;0.07;fullmask;0.2;arrow_right.png;up;0.41758870001649484;0.4198001000331715;273960.6585368;m;0.19588539999676868;0.19862199999624863;273960.8585742;2.7999631129205227e-06;0.5011329999542795;0.5411562999943271;0.5912006999715231;0.6612391999806277;0.7913108999491669;0.9214004999957979;0.01
8;2;18;49;letter190;letter169;letter190;letter169;0;0;incongruent;0.04;letter169;0.09;0.07;fullmask;0.2;arrow_left.png;down;0.3324949000380002;0.3401156000327319;273962.7144252;c;0.33441180002409965;0.3391455000382848;273963.0583876;2.9999646358191967e-06;0.4997715000063181;0.5397824000101537;0.5898179999785498;0.6598410999868065;0.7899404999916442;0.9200425000162795;0.01
8;2;18;50;letter190;letter169;letter190;letter169;0;0;congruent;0.04;letter169;0.09;0.07;fullmask;0.2;arrow_right.png;down;0.7328229999984615;0.740943500015419;273965.3064926;m;0.31788260000757873;0.3181219999678433;273965.6344276;2.6999623514711857e-06;0.5001195999793708;0.5401363999699242;0.5901622999808751;0.6602313999901526;0.7902755999821238;0.9203877999680117;0.01
8;2;18;51;letter190;letter169;letter190;letter169;0;0;incongruent;0.04;letter190;0.09;0.07;fullmask;0.2;arrow_right.png;up;0.5295368999941275;0.5305067999870516;273967.6744739;m;0.2529747999506071;0.2583584999665618;273967.9303568;2.6999623514711857e-06;0.49684609996620566;0.5368599999928847;0.5869024999556132;0.6569465000065975;0.7870535000110976;0.9171024999814108;0.01
8;2;18;52;letter190;letter169;letter190;letter169;0;0;congruent;0.04;letter190;0.09;0.07;fullmask;0.2;arrow_left.png;up;0.7940715000149794;0.8008865999872796;273970.2507877;c;0.3191289000096731;0.32828000001609325;273970.5785637;2.700020559132099e-06;0.5008957000100054;0.5408834000118077;0.5909304000088014;0.6609536000178196;0.7910355000058189;0.921142500010319;0.01
