subjnr;loop_m;blocknr;trialnr;cue_left_learn;cue_right_learn;option_up;option_down;practice;motivation; congruence;cue_dur;cue;SOA;mask_dur;mask;target_dur;target;response;RT;kb_rt;response_absolute;response_target;RT_target;kb_rt_target;response_absolute_target; fix_onset;cue_onset;cue_offset;mask_onset;mask_offset;target_offset;blank_onset;frame_dur
7;1;9;1;letter357;letter181;letter357;letter181;0;0;congruent;0.04;letter181;0.05;0.07;fullmask;0.2;arrow_right.png;up;6.441155000007711;6.445041100028902;268591.3987966;m;14.644674099981785;14.649980899994262;268606.2467587;2.900022082030773e-06;0.4944963000016287;0.5345033000339754;0.5445216000080109;0.614580699999351;0.7446364000206813;0.8747294000349939;0.01
7;1;9;2;letter357;letter181;letter357;letter181;0;0;incongruent;0.04;letter357;0.05;0.07;fullmask;0.2;arrow_right.png;up;3.2804617999936454;3.2822365999454632;268611.0227828;c;4.57229229999939;4.581806100031827;268615.5987853;3.00002284348011e-06;0.5009342000121251;0.5409616000251845;0.5509741000132635;0.6210050000227056;0.7510947000118904;0.8811753000481986;0.01
7;1;9;3;letter357;letter181;letter357;letter181;0;0;congruent;0.04;letter181;0.05;0.07;fullmask;0.2;arrow_right.png;up;18.00626029999694;18.011927299958188;268635.0949518;m;2.6338228000095114;2.6409881999716163;268637.9347436;2.900022082030773e-06;0.5002186000347137;0.5402533000451513;0.5502647000248544;0.6202825999935158;0.7503785000299104;0.8804662000038661;0.01
7;1;9;4;letter357;letter181;letter357;letter181;0;0;incongruent;0.04;letter181;0.05;0.07;fullmask;0.2;arrow_left.png;down;3.0901264999993145;3.092905600031372;268642.502947;m;1.2432104999898002;1.2488206999842077;268643.7507566;2.9999646358191967e-06;0.4958633999922313;0.5358822999987751;0.5458732999977656;0.6159238999825902;0.7459984999732114;0.876103599963244;0.01
7;1;9;5;letter357;letter181;letter357;letter181;0;0;congruent;0.04;letter357;0.05;0.07;fullmask;0.2;arrow_left.png;down;3.979870099981781;3.9823623999836855;268649.2067876;c;22.669025200011674;22.67446830001427;268672.0787217;2.8999638743698597e-06;0.5015587999951094;0.5415941000101157;0.5516179999685846;0.6216379000106826;0.7517261999892071;0.8818095999886282;0.01
7;1;9;6;letter357;letter181;letter357;letter181;0;0;congruent;0.04;letter357;0.05;0.07;fullmask;0.2;arrow_left.png;down;6.859050699975342;6.864661999978125;268680.4147663;m;1.9870788999833167;1.9919104999862611;268682.6068687;3.00002284348011e-06;0.4978768000146374;0.5378970000310801;0.547910800029058;0.6179394000209868;0.7480230000219308;0.8781297000241466;0.01
7;1;9;7;letter357;letter181;letter357;letter181;0;0;incongruent;0.04;letter181;0.05;0.07;fullmask;0.2;arrow_left.png;up;3.932376499986276;3.932513799984008;268688.0147228;m;1.7432869999902323;1.7502785999677144;268689.9586818;2.900022082030773e-06;0.4960191000136547;0.5360384000232443;0.5460245999856852;0.616066700022202;0.7461463999934494;0.8762556000147015;0.01
7;1;9;8;letter357;letter181;letter357;letter181;0;0;congruent;0.04;letter181;0.05;0.07;fullmask;0.2;arrow_right.png;up;5.410034100001212;5.413585899979807;268696.8467256;m;0.9959957000100985;1.0003747000009753;268698.0466846;3.00002284348011e-06;0.5055738000082783;0.5456084000179544;0.5555888999952003;0.6256423000013456;0.7557088999892585;0.8858316999976523;0.01
7;1;9;9;letter357;letter181;letter357;letter181;0;0;incongruent;0.04;letter357;0.05;0.07;fullmask;0.2;arrow_right.png;down;1.6928648999892175;1.7014691999647766;268701.214714;c;0.9269286000053398;0.9305262999841943;268702.3507482;2.8999638743698597e-06;0.5042546999757178;0.5442902999930084;0.5542977000004612;0.6243539999704808;0.7543947999947704;0.8844943999429233;0.01
7;1;9;10;letter357;letter181;letter357;letter181;0;1;congruent;0.12;letter181;0.14;0.07;fullmask;0.2;arrow_right.png;down;4.9777110000140965;4.983694199996535;268708.9027181;c;1.3680579000501893;1.3682824000134133;268710.2787;3.300025127828121e-06;0.4974002999952063;0.6174702999996953;0.6374815999879502;0.7075060000061058;0.8376003000303172;0.9676945999963209;0.01
7;1;9;11;letter357;letter181;letter357;letter181;0;0;incongruent;0.04;letter181;0.05;0.07;fullmask;0.2;arrow_left.png;up;4.740688599995337;4.7433653000043705;268716.5106945;m;1.6128887999802828;1.6207148999674246;268718.3266731;3.00002284348011e-06;0.5003139000036754;0.5403492000186816;0.5503601999953389;0.6203898999956436;0.7504741000011563;0.880573500005994;0.01
7;1;9;12;letter357;letter181;letter357;letter181;0;0;incongruent;0.04;letter357;0.05;0.07;fullmask;0.2;arrow_right.png;down;9.12903740000911;9.135529400024097;268728.9347089;c;4.521053700009361;4.5229572000098415;268733.6626642;2.8999638743698597e-06;0.5046332000056282;0.5446522999554873;0.5546516999602318;0.62467489996925;0.7547746999771334;0.8848683999967761;0.01
7;1;9;13;letter357;letter181;letter357;letter181;0;0;congruent;0.04;letter357;0.05;0.07;fullmask;0.2;arrow_left.png;down;3.895557900017593;3.9025815000059083;268739.0307178;c;1.3045419999980368;1.3105476000346243;268740.5426925;2.900022082030773e-06;0.49931280000600964;0.5393268999760039;0.5493550000246614;0.6193786999792792;0.7494794999947771;0.8795264000073075;0.01
7;1;9;14;letter357;letter181;letter357;letter181;0;0;congruent;0.04;letter181;0.05;0.07;fullmask;0.2;arrow_right.png;up;6.795082000026014;6.804738700040616;268748.8146643;m;1.8859352999716066;1.8909931000089273;268750.910652;2.9999646358191967e-06;0.4955927999690175;0.5356087000109255;0.5456250999704935;0.6156629999750294;0.7457451999653131;0.8758507999591529;0.01
7;1;9;15;letter357;letter181;letter357;letter181;0;0;incongruent;0.04;letter357;0.05;0.07;fullmask;0.2;arrow_right.png;down;3.8882912999833934;3.8926428999984637;268756.2947343;m;4.691101400007028;4.692498200049158;268761.1906009;2.9999646358191967e-06;0.5039831000030972;0.5440120999701321;0.5539970999816433;0.6240429999888875;0.7541132000042126;0.8842374999658205;0.01
7;1;9;16;letter357;letter181;letter357;letter181;0;0;congruent;0.04;letter181;0.05;0.07;fullmask;0.2;arrow_right.png;up;2.0158565000165254;2.0217631999985315;268764.6786814;c;1.033740199985914;1.0402752999798395;268765.9186319;3.00002284348011e-06;0.5029717000434175;0.543003500031773;0.5529863000265323;0.6230373000144027;0.7531132000149228;0.8832260000053793;0.01
7;1;9;17;letter357;letter181;letter357;letter181;0;0;congruent;0.04;letter181;0.05;0.07;fullmask;0.2;arrow_right.png;up;3.6508942000218667;3.6533337000291795;268771.0467082;m;2.9501606000121683;2.9521593999816105;268774.1986011;3.1999661587178707e-06;0.4989330999669619;0.5389507999643683;0.54897159995744;0.6189914999995381;0.7490823999978602;0.8791777999722399;0.01
7;1;9;18;letter357;letter181;letter357;letter181;0;0;incongruent;0.04;letter181;0.05;0.07;fullmask;0.2;arrow_left.png;down;1.102882499981206;1.1109526999644004;268776.7747291;m;1.1658763999585062;1.1679236000054516;268777.9506216;3.00002284348011e-06;0.49435079999966547;0.5343636000179686;0.5443971999920905;0.6144077000208199;0.7445075000287034;0.8745876000029966;0.01
7;1;9;19;letter357;letter181;letter357;letter181;0;0;incongruent;0.04;letter181;0.05;0.07;fullmask;0.2;arrow_left.png;down;3.146138299955055;3.151721699978225;268782.5906362;c;1.5285391000215895;1.5288466000347398;268784.1266911;3.0999653972685337e-06;0.5059446999803185;0.5459743000101298;0.5559808000107296;0.6260132999741472;0.7560985999880359;0.8861988999997266;0.01
7;1;9;20;letter357;letter181;letter357;letter181;0;0;incongruent;0.04;letter181;0.05;0.07;fullmask;0.2;arrow_left.png;down;1.9387814999790862;1.9418260999955237;268787.5666557;m;3.6669732000445947;3.6702399000059813;268791.2386135;3.1999661587178707e-06;0.5032984999706969;0.5433107999851927;0.5533111999975517;0.6233435000176542;0.7534458999871276;0.8835426999721676;0.01
7;1;9;21;letter357;letter181;letter357;letter181;0;1;incongruent;0.12;letter357;0.14;0.07;fullmask;0.2;arrow_right.png;down;2.453626200032886;2.461469500034582;268795.24663;m;3.2165823000250384;3.222298900014721;268798.670569;3.100023604929447e-06;0.4965821000514552;0.6166706000221893;0.6366716000484303;0.7067230000393465;0.8367966000223532;0.9668971000355668;0.01
7;1;9;22;letter357;letter181;letter357;letter181;0;0;congruent;0.04;letter357;0.05;0.07;fullmask;0.2;arrow_left.png;up;2.1913320000167005;2.2011375000001863;268802.3586675;m;0.868231900036335;0.8686367000336759;268803.2386514;2.8999638743698597e-06;0.5028836999554187;0.5428937999531627;0.5529038999811746;0.6229367000050843;0.7530151999671943;0.8831336000002921;0.01
7;1;9;23;letter357;letter181;letter357;letter181;0;0;congruent;0.04;letter357;0.05;0.07;fullmask;0.2;arrow_left.png;up;1.7478090999647975;1.7503139000036754;268806.4786154;c;2.0915266999509186;2.0994381000055;268808.5745896;2.900022082030773e-06;0.4977597999968566;0.5378027000115253;0.5477761999936774;0.617819299979601;0.7479019000311382;0.8780159000307322;0.01
7;1;9;24;letter357;letter181;letter357;letter181;0;0;congruent;0.04;letter357;0.05;0.07;fullmask;0.2;arrow_left.png;up;1.6943632999900728;1.7005110000027344;268811.7586294;m;0.7679258999996819;0.7689952999935485;268812.5346313;3.2999669201672077e-06;0.5052845000172965;0.5453082000021823;0.5553055999916978;0.625334299984388;0.7554353000014089;0.8855394999845885;0.01
7;1;9;25;letter357;letter181;letter357;letter181;0;0;incongruent;0.04;letter357;0.05;0.07;fullmask;0.2;arrow_right.png;up;1.4624217000091448;1.4710037999902852;268815.4786258;m;0.5334407000336796;0.5386058000149205;268816.0225914;3.200024366378784e-06;0.49647510005161166;0.5364861999987625;0.546512300032191;0.6165309000061825;0.7466355000506155;0.8767291000112891;0.01
7;1;9;26;letter357;letter181;letter357;letter181;0;0;incongruent;0.04;letter357;0.05;0.07;fullmask;0.2;arrow_right.png;up;1.5802296999609098;1.580848099954892;268819.0786342;m;0.5094206999638118;0.5186619000160135;268819.5905588;2.900022082030773e-06;0.4995445999666117;0.5395607000100426;0.5495747000095434;0.6196012999862432;0.7496998999849893;0.87978119996842;0.01
7;1;9;27;letter357;letter181;letter357;letter181;0;0;incongruent;0.04;letter357;0.05;0.07;fullmask;0.2;arrow_right.png;up;3.9758890999946743;3.983167300000787;268825.0466928;c;0.9267109000356868;0.9285659000161104;268825.9826197;2.900022082030773e-06;0.5010276000248268;0.5410654000006616;0.5510465999832377;0.6210802000132389;0.7511640000157058;0.8812536000041291;0.01
7;1;9;28;letter357;letter181;letter357;letter181;0;0;congruent;0.04;letter181;0.05;0.07;fullmask;0.2;arrow_right.png;up;3.151713200029917;3.1525847000302747;268830.6066636;c;6.487608700001147;6.494647099985741;268837.29459;2.9999646358191967e-06;0.5002467999584042;0.5402678999816999;0.5502655999734998;0.620308399957139;0.7503738999948837;0.8804935999796726;0.01
7;1;9;29;letter357;letter181;letter357;letter181;0;0;congruent;0.04;letter357;0.05;0.07;fullmask;0.2;arrow_left.png;up;1.4236795000033453;1.4301595999859273;268840.2065902;m;1.3756284999544732;1.3793654999462888;268841.5906365;2.8999638743698597e-06;0.5045571000082418;0.5445980000076815;0.5545991999679245;0.6246356999618001;0.7547319000004791;0.8848239000071771;0.01
7;1;9;30;letter357;letter181;letter357;letter181;0;0;congruent;0.04;letter357;0.05;0.07;fullmask;0.2;arrow_left.png;up;1.9575805999920703;1.9619204999762587;268845.0226506;c;0.6258381999796256;0.628401699999813;268845.6546593;3.0999653972685337e-06;0.4970728999469429;0.5370996999554336;0.5470910999574699;0.6171468999818899;0.747203599952627;0.8773207999765873;0.01
7;1;9;31;letter357;letter181;letter357;letter181;0;0;incongruent;0.04;letter181;0.05;0.07;fullmask;0.2;arrow_left.png;up;1.2388354999711737;1.2406178999808617;268848.3665971;m;1.5017682000179775;1.5110813000355847;268850.0705579;3.00002284348011e-06;0.5052746000001207;0.5452995999949053;0.5552871000254527;0.6253483000327833;0.75540980004007;0.8855234000366181;0.01
7;1;9;32;letter357;letter181;letter357;letter181;0;0;incongruent;0.04;letter357;0.05;0.07;fullmask;0.2;arrow_right.png;up;0.8539039999595843;0.8608638999867253;268852.4146247;m;1.6791537000099197;1.6895421000081114;268854.1025699;3.1999661587178707e-06;0.49861159996362403;0.5386336999945343;0.5486276999581605;0.6186708000022918;0.7487411999609321;0.8788536000065506;0.01
7;1;9;33;letter357;letter181;letter357;letter181;0;0;congruent;0.04;letter181;0.05;0.07;fullmask;0.2;arrow_right.png;up;1.0550547000020742;1.0602384999510832;268856.6385948;m;0.2663442000048235;0.2702966000069864;268857.1105568;2.9999646358191967e-06;0.4997328000026755;0.5397339999908581;0.549741399998311;0.6197667999658734;0.7498406000086106;0.8799429999780841;0.01
7;1;9;34;letter357;letter181;letter357;letter181;0;1;incongruent;0.12;letter181;0.14;0.07;fullmask;0.2;arrow_left.png;up;3.1555242000031285;3.1625633999938145;268861.8305691;c;0.9374635000131093;0.9405895000090823;268862.9745679;2.900022082030773e-06;0.5019216000218876;0.6219977000146173;0.6420071999891661;0.7120388000039384;0.8421222000033595;0.9722265999880619;0.01
7;1;9;35;letter357;letter181;letter357;letter181;0;0;incongruent;0.04;letter357;0.05;0.07;fullmask;0.2;arrow_right.png;up;5.235465099976864;5.243042499991134;268869.694569;m;0.7585252999560907;0.7590037999907508;268870.4626084;2.9999646358191967e-06;0.49778049997985363;0.5378039999632165;0.5478179999627173;0.6178393000154756;0.7479272999917157;0.878016899980139;0.01
7;1;9;36;letter357;letter181;letter357;letter181;0;0;incongruent;0.04;letter181;0.05;0.07;fullmask;0.2;arrow_left.png;up;1.326624300039839;1.3304377000313252;268873.2705891;c;0.3156938999891281;0.3201550000230782;268873.7905421;2.8999638743698597e-06;0.4985694999922998;0.5385999999707565;0.548576699977275;0.6186360999708995;0.7486960999667645;0.8788303000037558;0.01
7;1;9;37;letter357;letter181;letter357;letter181;0;0;congruent;0.04;letter181;0.05;0.07;fullmask;0.2;arrow_right.png;up;8.218508599966299;8.225181399961002;268883.4947246;m;6.088835400005337;6.093756199989002;268889.7905328;3.200024366378784e-06;0.5019238000386395;0.5419419000390917;0.55194830003893;0.621979600051418;0.7520642000017688;0.8821605000412092;0.01
7;1;9;38;letter357;letter181;letter357;letter181;0;0;congruent;0.04;letter357;0.05;0.07;fullmask;0.2;arrow_left.png;up;4.482131000026129;4.483025300025474;268895.7585175;c;0.9171437000040896;0.9185988999670371;268896.6784964;2.900022082030773e-06;0.5038852000143379;0.5439065000391565;0.5539080000016838;0.6239426000392996;0.7540399000281468;0.884141200047452;0.01
7;1;9;39;letter357;letter181;letter357;letter181;0;0;incongruent;0.04;letter181;0.05;0.07;fullmask;0.2;arrow_left.png;up;2.247625000018161;2.252076999982819;268900.3985852;c;0.5882681999937631;0.5904974000295624;268901.1906097;2.9999646358191967e-06;0.5015415999805555;0.5415833999868482;0.5515714999637567;0.6216067000059411;0.7517013999749906;0.8818048000102863;0.01
7;1;9;40;letter357;letter181;letter357;letter181;0;0;congruent;0.04;letter181;0.05;0.07;fullmask;0.2;arrow_right.png;up;27.36708759999601;27.36779089999618;268930.0305167;c;2.4630361999734305;2.4720690999529324;268932.6946707;3.00002284348011e-06;0.4990415000356734;0.5390730000217445;0.5490579000324942;0.6190926000126638;0.7491773000219837;0.879283900023438;0.01
7;1;9;41;letter357;letter181;letter357;letter181;0;0;incongruent;0.04;letter357;0.05;0.07;fullmask;0.2;arrow_right.png;down;1.4499357999884523;1.451027500035707;268935.6145546;c;2.311566899996251;2.3118175999843515;268938.1266677;2.9999646358191967e-06;0.49521580000873655;0.5352358999662101;0.5452357999747619;0.6152647999697365;0.7453485999722034;0.8754700999706984;0.01
7;1;9;42;letter357;letter181;letter357;letter181;0;0;congruent;0.04;letter181;0.05;0.07;fullmask;0.2;arrow_right.png;up;0.7931174999685027;0.8010230999789201;268940.390637;c;1.4956496999948286;1.5010411000112072;268942.0944993;3.0999653972685337e-06;0.49789090000558645;0.5379079999984242;0.5479218999971636;0.6179701999644749;0.7480460999649949;0.8781272000051104;0.01
7;1;9;43;letter357;letter181;letter357;letter181;0;0;congruent;0.04;letter357;0.05;0.07;fullmask;0.2;arrow_left.png;up;2.5963330000522546;2.6019637000281364;268946.1665733;m;0.5525738000287674;0.5586563000106253;268946.7267158;3.100023604929447e-06;0.49914430000353605;0.5391571000218391;0.5491689000045881;0.6192337000393309;0.749282700009644;0.8794143000268377;0.01
7;1;9;44;letter357;letter181;letter357;letter181;0;0;congruent;0.04;letter357;0.05;0.07;fullmask;0.2;arrow_left.png;up;1.5866593000246212;1.5906888999743387;268949.7905028;c;1.850034000002779;1.859079199959524;268951.646507;3.00002284348011e-06;0.49744140001712367;0.537461899977643;0.5474702999927104;0.617497299972456;0.7475939000141807;0.8776914000045508;0.01
7;1;9;45;letter357;letter181;letter357;letter181;0;0;congruent;0.04;letter357;0.05;0.07;fullmask;0.2;arrow_left.png;up;0.7039092999766581;0.7101635999861173;268953.8305377;m;0.47978400002466515;0.48875240003690124;268954.3185097;2.900022082030773e-06;0.4969015000388026;0.5369271000381559;0.5469470000243746;0.6169710000394844;0.7470628000446595;0.8771466000471264;0.01
7;1;9;46;letter357;letter181;letter357;letter181;0;0;incongruent;0.04;letter357;0.05;0.07;fullmask;0.2;arrow_right.png;up;0.5223801999818534;0.5305481999530457;268956.3108725;m;0.5736802999745123;0.5786096999654546;268956.8945543;2.9999646358191967e-06;0.4966084999614395;0.5366208999766968;0.5466148999985307;0.6166669999947771;0.7467410999815911;0.8768551999819465;0.01
7;1;9;47;letter357;letter181;letter357;letter181;0;1;congruent;0.12;letter357;0.14;0.07;fullmask;0.2;arrow_left.png;up;2.168374800006859;2.1712506000185385;268960.6385072;m;0.44315750000532717;0.4488532000104897;268961.0864809;2.900022082030773e-06;0.49736200005281717;0.6174464000505395;0.6374466000124812;0.7074710000306368;0.8375592000083998;0.9676561000524089;0.01
7;1;9;48;letter357;letter181;letter357;letter181;0;0;incongruent;0.04;letter181;0.05;0.07;fullmask;0.2;arrow_left.png;up;4.348114499996882;4.353421600011643;268966.9104975;m;0.6593096000142395;0.661247199983336;268967.7745625;2.9999646358191967e-06;0.4966208999976516;0.536643199971877;0.5466576999751851;0.616690099996049;0.7467870999826118;0.8768615999724716;0.01
7;1;9;49;letter357;letter181;letter357;letter181;0;0;congruent;0.04;letter181;0.05;0.07;fullmask;0.2;arrow_right.png;up;2.463839799980633;2.4714563000015914;268971.7105293;c;24.71994880004786;24.72595110000111;268996.6385335;3.00002284348011e-06;0.4967004000209272;0.536715499998536;0.5467238000128418;0.6167550000245683;0.7468373000156134;0.8769441000185907;0.01
7;1;9;50;letter357;letter181;letter357;letter181;0;0;incongruent;0.04;letter357;0.05;0.07;fullmask;0.2;arrow_right.png;up;2.890476500033401;2.8912733999895863;269001.0064552;c;0.8052577000344172;0.809233000036329;269001.8144426;2.8999638743698597e-06;0.4970941999927163;0.5370965999900363;0.5470884999958798;0.6171503000077792;0.7472019999986514;0.877325400011614;0.01
7;1;9;51;letter357;letter181;letter357;letter181;0;0;incongruent;0.04;letter181;0.05;0.07;fullmask;0.2;arrow_left.png;up;1.0093967000138946;1.0103649999946356;269004.3184845;c;0.4386287999805063;0.44097279995912686;269004.9584914;2.9999646358191967e-06;0.5016202999977395;0.5416499999701045;0.5516764000058174;0.6217151999589987;0.7517746000085026;0.8818687999737449;0.01
7;1;9;52;letter357;letter181;letter357;letter181;0;0;incongruent;0.04;letter181;0.05;0.07;fullmask;0.2;arrow_left.png;up;1.9971873000031337;2.001447200018447;269008.4384765;c;8.676245099981315;8.685890199965797;269017.3184318;2.900022082030773e-06;0.504931100003887;0.5449528000317514;0.5549755000392906;0.6250143000506796;0.7550889000413008;0.885169200017117;0.01
7;1;10;1;letter357;letter181;letter357;letter181;0;0;incongruent;0.04;letter357;0.05;0.07;fullmask;0.2;arrow_right.png;up;4.741654700017534;4.74344160000328;269051.51851;m;2.6761921999859624;2.679804100014735;269054.1984048;3.00002284348011e-06;0.4980656000552699;0.5381152000045404;0.5480999000137672;0.6181361000053585;0.7482180000515655;0.8783114000107162;0.01
7;1;10;2;letter357;letter181;letter357;letter181;0;0;incongruent;0.04;letter181;0.05;0.07;fullmask;0.2;arrow_left.png;up;3.463621700007934;3.4727958000148647;269059.1267592;c;3.751087299955543;3.7529102999833412;269063.0864167;3.3999676816165447e-06;0.49747239996213466;0.5374861999880522;0.5474812000175007;0.6175242000026628;0.747601900016889;0.8777163999620825;0.01
7;1;10;3;letter357;letter181;letter357;letter181;0;0;incongruent;0.04;letter357;0.05;0.07;fullmask;0.2;arrow_right.png;down;2.771547099982854;2.781725800014101;269067.3505043;c;1.1973004000028595;1.2007443999755196;269068.7583879;3.00002284348011e-06;0.5006488999933936;0.5406779000186361;0.5506945000379346;0.6207152000279166;0.7508019999950193;0.880898600036744;0.01
7;1;10;4;letter357;letter181;letter357;letter181;0;0;incongruent;0.04;letter357;0.05;0.07;fullmask;0.2;arrow_right.png;down;1.4219790999777615;1.4310999999870546;269071.6544656;m;3.3185327000101097;3.3221715000108816;269075.1825606;2.9999646358191967e-06;0.5048100999556482;0.5448352999519557;0.5548253000015393;0.6248935000039637;0.7549486999632791;0.8850738999899477;0.01
7;1;10;5;letter357;letter181;letter357;letter181;0;0;incongruent;0.04;letter181;0.05;0.07;fullmask;0.2;arrow_left.png;up;0.1177258999668993;0.11984629998914897;269076.7744226;c;4.941543199995067;4.943062000034843;269081.9184635;3.0999653972685337e-06;0.49889940000139177;0.5389122999622487;0.5489218999864534;0.6189593999879435;0.7490329999709502;0.8791364000062458;0.01
7;1;10;6;letter357;letter181;letter357;letter181;0;1;congruent;0.12;letter181;0.14;0.07;fullmask;0.2;arrow_right.png;up;6.2770820000441745;6.283367600000929;269089.7585715;c;1.4411930000060238;1.451070700015407;269091.4064506;3.100023604929447e-06;0.4968557999818586;0.6169286000076681;0.6369374999776483;0.7069876000168733;0.8370526999933645;0.9671433999901637;0.01
7;1;10;7;letter357;letter181;letter357;letter181;0;0;congruent;0.04;letter357;0.05;0.07;fullmask;0.2;arrow_left.png;down;15.687229499977548;15.690033999970183;269108.5743778;c;1.2767306999885477;1.2805928000016138;269110.0543481;2.8999638743698597e-06;0.49703189998399466;0.537051799998153;0.5470747999497689;0.6171051999554038;0.7472036999533884;0.8772881999611855;0.01
7;1;10;8;letter357;letter181;letter357;letter181;0;0;congruent;0.04;letter357;0.05;0.07;fullmask;0.2;arrow_left.png;down;6.268679999979213;6.273193300003186;269117.7983641;c;2.4912668999750167;2.5014802999794483;269120.4945499;3.0999653972685337e-06;0.49916349997511134;0.5391884999698959;0.5491751999943517;0.6192156999604777;0.7493071999633685;0.8794052999583073;0.01
7;1;10;9;letter357;letter181;letter357;letter181;0;0;congruent;0.04;letter181;0.05;0.07;fullmask;0.2;arrow_right.png;up;9.083977599977516;9.08583129994804;269131.0703741;m;6.638695200032089;6.644417600007728;269137.9103342;3.100023604929447e-06;0.497689799987711;0.5377141999779269;0.5477107000187971;0.6177476000157185;0.7478260999778286;0.8779427999979816;0.01
7;1;10;10;letter357;letter181;letter357;letter181;0;0;congruent;0.04;letter357;0.05;0.07;fullmask;0.2;arrow_left.png;down;5.083311400027014;5.093504399992526;269144.4705635;m;0.2852548999944702;0.29027359996689484;269144.9663138;3.00002284348011e-06;0.503954200015869;0.5439808000228368;0.5539637000183575;0.6240003000129946;0.7541003000224009;0.8841994000249542;0.01
7;1;10;11;letter357;letter181;letter357;letter181;0;0;congruent;0.04;letter357;0.05;0.07;fullmask;0.2;arrow_left.png;up;3.692755499971099;3.702087599958759;269150.1345156;m;0.7165924999862909;0.7192363999783993;269150.8623724;2.900022082030773e-06;0.49840869999025017;0.5384184999857098;0.5484453000244685;0.6184651000075974;0.7485652000177652;0.8786484000156634;0.01
7;1;10;12;letter357;letter181;letter357;letter181;0;0;incongruent;0.04;letter181;0.05;0.07;fullmask;0.2;arrow_left.png;down;0.004832600010558963;0.009988299978431314;269152.3503491;m;0.7128682000329718;0.7191337000112981;269153.0703152;3.00002284348011e-06;0.5049583000363782;0.5449698999873362;0.5549773999955505;0.6250041000312194;0.7551131999935023;0.8851976000005379;0.01
7;1;10;13;letter357;letter181;letter357;letter181;0;0;incongruent;0.04;letter181;0.05;0.07;fullmask;0.2;arrow_left.png;down;0.13968310004565865;0.14068960002623498;269154.6863641;m;0.9090380999841727;0.9185989999677986;269155.5983448;3.00002284348011e-06;0.49950970005011186;0.5395308000151999;0.5494850000250153;0.6195642000529915;0.7496282000211067;0.8797476000036113;0.01
7;1;10;14;letter357;letter181;letter357;letter181;0;0;congruent;0.04;letter357;0.05;0.07;fullmask;0.2;arrow_left.png;down;2.6956028999993578;2.7019431000226177;269159.7744905;c;3.0812602000078186;3.081814499979373;269163.0623938;2.9999646358191967e-06;0.4967213999480009;0.5367444999865256;0.5467275999835692;0.6167665999964811;0.7468423999962397;0.8769649000023492;0.01
7;1;10;15;letter357;letter181;letter357;letter181;0;0;congruent;0.04;letter181;0.05;0.07;fullmask;0.2;arrow_right.png;down;4.796490199980326;4.803223799972329;269169.3503241;c;1.615405099990312;1.618725500011351;269170.9743958;2.800021320581436e-06;0.49978950002696365;0.5398143000202253;0.5498325999942608;0.6198498000157997;0.7499473000061698;0.8800369999953546;0.01
7;1;10;16;letter357;letter181;letter357;letter181;0;1;congruent;0.12;letter357;0.14;0.07;fullmask;0.2;arrow_left.png;down;0.7154065999784507;0.7201397999888286;269173.2543307;c;0.6667330999625847;0.6701684999861754;269174.1262962;3.0999653972685337e-06;0.5047554000047967;0.6248602999839932;0.6448604000033811;0.7148951999843121;0.8449814000050537;0.9750725000048988;0.01
7;1;10;17;letter357;letter181;letter357;letter181;0;0;incongruent;0.04;letter357;0.05;0.07;fullmask;0.2;arrow_right.png;up;1.2554245999781415;1.2605546999839135;269176.8463192;m;1.6089240000001155;1.6187294999836013;269178.4623065;3.100023604929447e-06;0.497092799982056;0.5371044999919832;0.5471036999952048;0.6171437000157312;0.7472177000017837;0.8773348000249825;0.01
7;1;10;18;letter357;letter181;letter357;letter181;0;0;incongruent;0.04;letter357;0.05;0.07;fullmask;0.2;arrow_right.png;up;0.34093800000846386;0.3501262000063434;269180.2943045;m;1.308899499999825;1.3095859999884851;269181.6143314;3.00002284348011e-06;0.5051690000109375;0.5451994999893941;0.5551999000017531;0.6252227000077255;0.755306400009431;0.8854117000009865;0.01
7;1;10;19;letter357;letter181;letter357;letter181;0;0;congruent;0.04;letter357;0.05;0.07;fullmask;0.2;arrow_left.png;down;2.312462100002449;2.321719600004144;269185.3983239;c;1.6392088999855332;1.6415743000106886;269187.2462919;3.0999653972685337e-06;0.49931399995693937;0.5393355999840423;0.5493225999525748;0.6193736999994144;0.7494453999679536;0.8795728999539278;0.01
7;1;10;20;letter357;letter181;letter357;letter181;0;0;incongruent;0.04;letter357;0.05;0.07;fullmask;0.2;arrow_right.png;up;6.37475350004388;6.383928199997172;269195.0943726;c;2.868890799989458;2.8693987000151537;269197.9743909;2.9999646358191967e-06;0.49971830000868067;0.5397361000068486;0.5497494000010192;0.6198090999969281;0.7498521999805234;0.8799676999915391;0.01
7;1;10;21;letter357;letter181;letter357;letter181;0;0;congruent;0.04;letter181;0.05;0.07;fullmask;0.2;arrow_right.png;up;0.9816336000221781;0.990282799990382;269200.4383062;c;14.446970999997575;14.448850799992215;269215.0943402;3.100023604929447e-06;0.4985601999796927;0.538571699988097;0.5485761999734677;0.618608899996616;0.7487015000078827;0.8788084000116214;0.01
7;1;10;22;letter357;letter181;letter357;letter181;0;0;congruent;0.04;letter181;0.05;0.07;fullmask;0.2;arrow_right.png;up;1.1065817999769934;1.1100353000219911;269217.6943013;c;1.7401878000237048;1.7413922999985516;269219.6383563;3.200024366378784e-06;0.4995189000037499;0.5395430000498891;0.5495513000059873;0.6195833000238054;0.7496767000411637;0.8797661000280641;0.01
7;1;10;23;letter357;letter181;letter357;letter181;0;0;incongruent;0.04;letter181;0.05;0.07;fullmask;0.2;arrow_left.png;up;1.3423273999942467;1.3514027999481186;269222.4622626;m;0.8065458000055514;0.8101598999928683;269223.4783121;3.1999661587178707e-06;0.5014279999886639;0.5414325000019744;0.5514378999941982;0.6214793999679387;0.7515582999913022;0.8816776999738067;0.01
7;1;10;24;letter357;letter181;letter357;letter181;0;0;congruent;0.04;letter181;0.05;0.07;fullmask;0.2;arrow_right.png;up;1.4457616000436246;1.4510438000434078;269226.3982952;m;5.082402299973182;5.08348610001849;269231.6863885;3.500026650726795e-06;0.49971579998964444;0.5397368000121787;0.5497652000049129;0.6197778999921866;0.7498766999924555;0.8799816999817267;0.01
7;1;10;25;letter357;letter181;letter357;letter181;0;0;congruent;0.04;letter181;0.05;0.07;fullmask;0.2;arrow_right.png;up;0.532021299994085;0.5405982999945991;269233.7102785;c;2.904317100008484;2.9123982000164688;269236.8225835;2.900022082030773e-06;0.5031642999965698;0.5431817999924533;0.5531821000040509;0.6232302999706008;0.75329059996875;0.8834064999828115;0.01
7;1;10;26;letter357;letter181;letter357;letter181;0;0;incongruent;0.04;letter181;0.05;0.07;fullmask;0.2;arrow_left.png;down;0.8632785000372678;0.8707360000116751;269239.1742852;c;1.4787272999528795;1.4790916999918409;269240.6624003;2.9999646358191967e-06;0.49854870000854135;0.5385301999631338;0.5486073999782093;0.618603200011421;0.7486996999941766;0.8787889999803156;0.01
7;1;10;27;letter357;letter181;letter357;letter181;0;0;congruent;0.04;letter181;0.05;0.07;fullmask;0.2;arrow_right.png;up;1.334429899987299;1.3404787000035867;269243.4783061;m;0.8814684999524616;0.8906704999972135;269244.5662349;3.100023604929447e-06;0.4993537999689579;0.5393748999922536;0.5493825000012293;0.6194215000141412;0.7494965000078082;0.8795956000103615;0.01
7;1;10;28;letter357;letter181;letter357;letter181;0;0;congruent;0.04;letter357;0.05;0.07;fullmask;0.2;arrow_left.png;up;6.188188400003128;6.194354200037196;269252.2542705;c;2.58386180002708;2.5903243999928236;269254.8462353;3.00002284348011e-06;0.5057270000106655;0.545757899992168;0.5557663000072353;0.6257979000220075;0.7558768000453711;0.8859783000079915;0.01
7;1;10;29;letter357;letter181;letter357;letter181;0;1;incongruent;0.12;letter181;0.14;0.07;fullmask;0.2;arrow_left.png;down;0.7655865999986418;0.7710618000128306;269257.1985165;c;3.2484552999958396;3.250414300011471;269260.4542781;2.9999646358191967e-06;0.5049997000023723;0.6250566999660805;0.6450800999882631;0.7150950999930501;0.8451969999587163;0.9752543999929912;0.01
7;1;10;30;letter357;letter181;letter357;letter181;0;0;congruent;0.04;letter181;0.05;0.07;fullmask;0.2;arrow_right.png;up;0.5573840999859385;0.5605648999917321;269262.4942584;m;7.693518000014592;7.695469400030561;269270.3903713;2.8999638743698597e-06;0.49908769998000935;0.5391031999606639;0.5491011999547482;0.619142199982889;0.7492178999818861;0.8793298999662511;0.01
7;1;10;31;letter357;letter181;letter357;letter181;0;0;congruent;0.04;letter357;0.05;0.07;fullmask;0.2;arrow_left.png;down;0.8187284999876283;0.8197318000020459;269272.7022581;m;27.870538800023496;27.878585099999327;269300.7742202;3.0999653972685337e-06;0.5017068000161089;0.5417450999957509;0.5517293000011705;0.6217930999700911;0.7518431000062265;0.8819667000207119;0.01
7;1;10;32;letter357;letter181;letter357;letter181;0;0;incongruent;0.04;letter181;0.05;0.07;fullmask;0.2;arrow_left.png;down;1.2456484999856912;1.250759799964726;269303.5183613;m;0.9769296000013128;0.9795539000188;269304.5022776;3.1999661587178707e-06;0.4961492999573238;0.5361811999464408;0.5462032999494113;0.6162145999842323;0.7463136999867857;0.8763911999994889;0.01
7;1;10;33;letter357;letter181;letter357;letter181;0;0;incongruent;0.04;letter357;0.05;0.07;fullmask;0.2;arrow_right.png;up;0.9514143000124022;0.9614059000159614;269306.926302;c;2.3239577000495046;2.3287953000399284;269309.2621884;2.9999646358191967e-06;0.4942301000119187;0.534248000010848;0.544270999962464;0.6143146000104025;0.7443833999568596;0.8744704999844544;0.01
7;1;10;34;letter357;letter181;letter357;letter181;0;0;incongruent;0.04;letter357;0.05;0.07;fullmask;0.2;arrow_right.png;up;3.4982387999771163;3.502696899988223;269314.2461785;m;1.0816030999994837;1.0891397999948822;269315.3341793;3.100023604929447e-06;0.4979394000256434;0.5379647000227123;0.5479636000236496;0.6179985000053421;0.7480781999765895;0.8781816000118852;0.01
7;1;10;35;letter357;letter181;letter357;letter181;0;0;congruent;0.04;letter181;0.05;0.07;fullmask;0.2;arrow_right.png;up;0.24767439998686314;0.2493992000236176;269317.0701943;m;1.9579375000321306;1.9619076999952085;269319.2302647;3.00002284348011e-06;0.5002589999930933;0.5402830000384711;0.5502706000115722;0.620314400002826;0.7503922000178136;0.8805144000216387;0.01
7;1;10;36;letter357;letter181;letter357;letter181;0;0;incongruent;0.04;letter357;0.05;0.07;fullmask;0.2;arrow_right.png;down;1.563420300022699;1.5708658000221476;269322.2782148;c;0.9601738000055775;0.9603964000125416;269323.4462435;3.100023604929447e-06;0.5015556000289507;0.5415730000240728;0.5515748000470921;0.6216185000375845;0.751695400045719;0.8817972000106238;0.01
7;1;10;37;letter357;letter181;letter357;letter181;0;0;incongruent;0.04;letter357;0.05;0.07;fullmask;0.2;arrow_right.png;up;4.3846166000002995;4.392273500037845;269329.3021939;m;2.2784002000116743;2.2799566999892704;269331.5901891;2.8999638743698597e-06;0.49656179995508865;0.5365910999826156;0.5466084000072442;0.616628399991896;0.746716599969659;0.876810799993109;0.01
7;1;10;38;letter357;letter181;letter357;letter181;0;0;congruent;0.04;letter181;0.05;0.07;fullmask;0.2;arrow_right.png;down;13.749905799981207;13.75919759995304;269346.8222782;m;0.7326512000290677;0.7390823000459932;269347.5661555;3.2999669201672077e-06;0.4984853999922052;0.5384941999800503;0.5485098999924958;0.6185404999996535;0.7486232999945059;0.8787242999533191;0.01
7;1;10;39;letter357;letter181;letter357;letter181;0;0;congruent;0.04;letter357;0.05;0.07;fullmask;0.2;arrow_left.png;down;0.8630851000198163;0.8707916000275873;269349.9263941;m;11.08877069997834;11.09799069998553;269361.2221829;3.00002284348011e-06;0.5013841000036336;0.5414043000200763;0.5514340000227094;0.6214546000119299;0.7515373000060208;0.8816310000256635;0.01
7;1;10;40;letter357;letter181;letter357;letter181;0;0;congruent;0.04;letter357;0.05;0.07;fullmask;0.2;arrow_left.png;up;1.8166143000125885;1.8211496999720111;269364.5181733;m;1.385568899975624;1.3894429999636486;269365.9102238;3.200024366378784e-06;0.49442459997953847;0.5344408000237308;0.5444452000083402;0.6144819000037387;0.7445825000177138;0.8746617999859154;0.01
7;1;10;41;letter357;letter181;letter357;letter181;0;0;congruent;0.04;letter181;0.05;0.07;fullmask;0.2;arrow_right.png;down;1.6373644000268541;1.6415336999925785;269369.0222018;m;0.7538157000089996;0.7580199000076391;269369.7821298;3.00002284348011e-06;0.497432200005278;0.5374697000370361;0.547495600010734;0.6174906000378542;0.747603900032118;0.8777028000331484;0.01
7;1;10;42;letter357;letter181;letter357;letter181;0;0;congruent;0.04;letter357;0.05;0.07;fullmask;0.2;arrow_left.png;up;1.1722432000096887;1.1798632999998517;269372.4301746;c;1.8546664000023156;1.8597778999828734;269374.2943977;2.9999646358191967e-06;0.4963937999564223;0.5364397999946959;0.5464430999709293;0.6164831999922171;0.7465522999991663;0.8766801999881864;0.01
7;1;10;43;letter357;letter181;letter357;letter181;0;0;incongruent;0.04;letter181;0.05;0.07;fullmask;0.2;arrow_left.png;up;0.6202544999541715;0.6212655999697745;269376.3901788;c;1.7275298000313342;1.7314193000202067;269378.3181353;3.0999653972685337e-06;0.49915250000776723;0.5391404000110924;0.5491380000021309;0.619548799993936;0.7492517000064254;0.8793775999802165;0.01
7;1;10;44;letter357;letter181;letter357;letter181;0;0;congruent;0.04;letter181;0.05;0.07;fullmask;0.2;arrow_right.png;down;0.5256432000314817;0.530505400034599;269380.3181747;m;1.5372239000280388;1.5391461999970488;269381.862207;3.300025127828121e-06;0.4973020000034012;0.5373204000061378;0.5473557999939658;0.6173557000001892;0.7474448999855667;0.8775605999981053;0.01
7;1;10;45;letter357;letter181;letter357;letter181;0;0;incongruent;0.04;letter181;0.05;0.07;fullmask;0.2;arrow_left.png;up;0.3012614999897778;0.3101939999614842;269383.6461609;c;1.134615599992685;1.140996299975086;269384.9901229;3.200024366378784e-06;0.4969799999962561;0.5369874000316486;0.5470031999866478;0.6170323000405915;0.7471303000347689;0.8772226999863051;0.01
7;1;10;46;letter357;letter181;letter357;letter181;0;0;incongruent;0.04;letter181;0.05;0.07;fullmask;0.2;arrow_left.png;up;5.268397799984086;5.273063400003593;269391.7661203;m;6.738914399989881;6.74377810000442;269398.7101111;2.800021320581436e-06;0.5024721000227146;0.5424923000391573;0.5525189000181854;0.6225636000162922;0.7526280000456609;0.8827174000325613;0.01
7;1;10;47;letter357;letter181;letter357;letter181;0;0;incongruent;0.04;letter181;0.05;0.07;fullmask;0.2;arrow_left.png;up;3.4898586999624968;3.492789099982474;269403.6861589;m;0.6139085000031628;0.6204926000209525;269404.5023086;3.200024366378784e-06;0.49661870003910735;0.5366376000456512;0.546626000024844;0.6166717000305653;0.7467477000318468;0.8768746000132523;0.01
7;1;10;48;letter357;letter181;letter357;letter181;0;1;incongruent;0.12;letter357;0.14;0.07;fullmask;0.2;arrow_right.png;down;0.6145285000093281;0.6204006999614649;269406.694146;m;1.8177044999902137;1.821182299987413;269408.7181313;2.9999646358191967e-06;0.503833599970676;0.623910199967213;0.6439247999805957;0.7139570999424905;0.8440484999446198;0.9741313999984413;0.01
7;1;10;49;letter357;letter181;letter357;letter181;0;0;incongruent;0.04;letter357;0.05;0.07;fullmask;0.2;arrow_right.png;up;0.31584699999075383;0.32016329996986315;269410.5182183;m;0.7458226000308059;0.7491538000176661;269411.2702899;3.100023604929447e-06;0.4980046999990009;0.5380333000211976;0.5480443000560626;0.6180615000193939;0.7481583000044338;0.8782470000442117;0.01
7;1;10;50;letter357;letter181;letter357;letter181;0;0;incongruent;0.04;letter181;0.05;0.07;fullmask;0.2;arrow_left.png;down;0.5799585999920964;0.5802768999710679;269413.3341563;c;1.0376049000187777;1.0388020999962464;269414.3741071;3.0999653972685337e-06;0.5030571999959648;0.543081899988465;0.553112699999474;0.6231235999730416;0.7532166999881156;0.883297499967739;0.01
7;1;10;51;letter357;letter181;letter357;letter181;0;0;congruent;0.04;letter357;0.05;0.07;fullmask;0.2;arrow_left.png;down;0.4480411999975331;0.4508077999926172;269416.294124;c;0.6047945999889635;0.6094209000002593;269417.1020968;2.8999638743698597e-06;0.5019180999952368;0.5419486999744549;0.5519394999719225;0.6219837999669835;0.7520627999911085;0.8821410000091419;0.01
7;1;10;52;letter357;letter181;letter357;letter181;0;0;incongruent;0.04;letter357;0.05;0.07;fullmask;0.2;arrow_right.png;down;0.026496100006625056;0.031037400010973215;269418.6142345;m;2.308012699999381;2.3118041999987327;269421.1260995;3.1999661587178707e-06;0.5029641999863088;0.5429667999851517;0.5530150999547914;0.6230309999664314;0.7531302999705076;0.8832083999877796;0.01
7;2;17;1;letter169;letter190;letter190;letter169;0;0;congruent;0.04;letter169;0.09;0.07;fullmask;0.2;arrow_left.png;down;6.30426720000105;6.3142151000211015;270596.1012564;c;3.1880912000196986;3.190623599977698;270599.3012049;3.00002284348011e-06;0.49758740002289414;0.5376176999998279;0.5877077000332065;0.6576649000053294;0.7877592000295408;0.9178682999918237;0.01
7;2;17;2;letter169;letter190;letter190;letter169;0;0;congruent;0.04;letter190;0.09;0.07;fullmask;0.2;arrow_right.png;up;0.7749108000425622;0.7799319000332616;270601.5891805;m;4.504983699996956;4.510984399996232;270606.1011264;3.00002284348011e-06;0.4972577000153251;0.5372777000302449;0.5872909000026993;0.657334300049115;0.7874063000199385;0.9175185000058264;0.01
7;2;17;3;letter169;letter190;letter190;letter169;0;0;congruent;0.04;letter169;0.09;0.07;fullmask;0.2;arrow_left.png;down;2.698904999997467;2.7017956000054255;270610.317169;c;1.1711326999939047;1.1789002000004984;270611.493129;3.2999669201672077e-06;0.4974650999647565;0.5374674999620765;0.587512300000526;0.657545099966228;0.7876370999729261;0.9176967999665067;0.01
7;2;17;4;letter169;letter190;letter190;letter169;0;0;incongruent;0.04;letter190;0.09;0.07;fullmask;0.2;arrow_left.png;up;1.897108799952548;1.900947499962058;270614.909197;m;1.0662590999854729;1.0692034999956377;270615.9811198;2.8999638743698597e-06;0.5020885999547318;0.5420898000011221;0.5921251999679953;0.6621524999500252;0.7922529999632388;0.9223411999992095;0.01
7;2;17;5;letter169;letter190;letter190;letter169;0;0;incongruent;0.04;letter169;0.09;0.07;fullmask;0.2;arrow_right.png;up;1.2523497000220232;1.260644499969203;270618.7571432;m;8.839260999986436;8.845374300028197;270627.805113;2.900022082030773e-06;0.5037895000423305;0.5438260000082664;0.5938543000374921;0.663854300044477;0.7939729000208899;0.9240688999998383;0.01
7;2;17;6;letter169;letter190;letter190;letter169;0;0;incongruent;0.04;letter190;0.09;0.07;fullmask;0.2;arrow_left.png;up;1.562240600003861;1.5709923999966122;270630.8852865;m;1.7012256000307389;1.708484300004784;270632.597077;2.9999646358191967e-06;0.5011942000128329;0.5412199999555014;0.5912519000121392;0.6612872999976389;0.7913735999609344;0.9214860000065528;0.01
7;2;17;7;letter169;letter190;letter190;letter169;0;1;incongruent;0.12;letter190;0.18;0.07;fullmask;0.2;arrow_left.png;up;1.7036363999941386;1.7114856999833137;270635.9091298;m;0.35015209997072816;0.35810059995856136;270636.2690634;2.8999638743698597e-06;0.5025810999795794;0.6226483999635093;0.6826657999772578;0.7527211999986321;0.882809599977918;1.0129114000010304;0.01
7;2;17;8;letter169;letter190;letter190;letter169;0;0;incongruent;0.04;letter169;0.09;0.07;fullmask;0.2;arrow_right.png;down;2.8566525999922305;2.8613947999547236;270640.6451216;m;0.35328380001010373;0.3580898999935016;270641.0050926;3.00002284348011e-06;0.5016151000163518;0.5416390000027604;0.5916447000345215;0.6616999999969266;0.7917740999837406;0.9218802000395954;0.01
7;2;17;9;letter169;letter190;letter190;letter169;0;0;congruent;0.04;letter169;0.09;0.07;fullmask;0.2;arrow_left.png;up;2.894279700005427;2.902143299987074;270645.4051279;m;2.3757252999930643;2.3816855999757536;270647.9891245;2.8999638743698597e-06;0.4956170999794267;0.5356495999731123;0.5856731999665499;0.6556968999793753;0.7857858999632299;0.9158791999798268;0.01
7;2;17;10;letter169;letter190;letter190;letter169;0;0;congruent;0.04;letter190;0.09;0.07;fullmask;0.2;arrow_right.png;down;3.0921771999564953;3.101713699987158;270652.5977444;m;1.533553800021764;1.5410444000153802;270654.3412495;2.8999638743698597e-06;0.4987241000053473;0.538745799975004;0.5887503999983892;0.6587990999687463;0.7888856999925338;0.9189919999917038;0.01
7;2;17;11;letter169;letter190;letter190;letter169;0;0;congruent;0.04;letter190;0.09;0.07;fullmask;0.2;arrow_right.png;up;2.0415693999966606;2.051563500019256;270657.9011057;c;1.0920475999591872;1.09911299997475;270659.0050879;3.2999669201672077e-06;0.49812299996847287;0.5381445999955758;0.5881814999738708;0.6582108999718912;0.7883026999770664;0.9184042999986559;0.01
7;2;17;12;letter169;letter190;letter190;letter169;0;0;incongruent;0.04;letter190;0.09;0.07;fullmask;0.2;arrow_left.png;down;0.9307827999582514;0.9314608999993652;270661.4531841;m;5.655798799998593;5.663987699954305;270667.3090484;3.0999653972685337e-06;0.5036576999700628;0.5436622999841347;0.5936971000046469;0.6637302999733947;0.7938144999789074;0.923910999961663;0.01
7;2;17;13;letter169;letter190;letter190;letter169;0;0;incongruent;0.04;letter169;0.09;0.07;fullmask;0.2;arrow_right.png;up;2.120470500027295;2.121246099995915;270670.9491767;m;0.2877046000212431;0.29027310002129525;270671.4370665;3.00002284348011e-06;0.497147899994161;0.5371699000243098;0.5871815999853425;0.6572304000146687;0.7872998000239022;0.9174133000196889;0.01
7;2;17;14;letter169;letter190;letter190;letter169;0;0;congruent;0.04;letter169;0.09;0.07;fullmask;0.2;arrow_left.png;down;1.1186783000011928;1.121018500009086;270674.0691902;m;0.5635851000552066;0.5685193000244908;270674.6370665;2.900022082030773e-06;0.49849020002875477;0.5385137000121176;0.5885397000238299;0.6585769000230357;0.7886699000373483;0.9187656000140123;0.01
7;2;17;15;letter169;letter190;letter190;letter169;0;0;incongruent;0.04;letter190;0.09;0.07;fullmask;0.2;arrow_left.png;down;0.9478278000024147;0.9505058999639004;270677.101167;c;0.34906199999386445;0.35019319999264553;270677.6532976;3.300025127828121e-06;0.4972298000357114;0.5372690000222065;0.5872987000038847;0.6573152000200935;0.787414800026454;0.9175054000224918;0.01
7;2;17;16;letter169;letter190;letter190;letter169;0;0;incongruent;0.04;letter169;0.09;0.07;fullmask;0.2;arrow_right.png;up;0.6006129999877885;0.6104258999694139;270679.7651749;m;0.8536683999700472;0.8607450000126846;270680.82907;2.900022082030773e-06;0.5020915000350215;0.5421327000367455;0.5921461000107229;0.6621732000494376;0.7922732000006363;0.9223799000028521;0.01
7;2;17;17;letter169;letter190;letter190;letter169;0;0;congruent;0.04;letter169;0.09;0.07;fullmask;0.2;arrow_left.png;down;3.6420800000196323;3.652316300023813;270685.9893734;m;0.9706465000053868;0.9774272000067867;270686.973064;3.0999653972685337e-06;0.5031936999876052;0.543208200018853;0.5932187999715097;0.6632627999642864;0.7933395999716595;0.9234631999861449;0.01
7;2;17;18;letter169;letter190;letter190;letter169;0;1;incongruent;0.12;letter169;0.18;0.07;fullmask;0.2;arrow_right.png;down;2.199963199964259;2.201401399972383;270690.7810111;c;1.2687360999989323;1.2786189999897033;270692.0531388;2.9999646358191967e-06;0.505600799981039;0.6256884000031278;0.6857214000192471;0.7557341000065207;0.8858354999683797;1.015930900000967;0.01
7;2;17;19;letter169;letter190;letter190;letter169;0;0;incongruent;0.04;letter190;0.09;0.07;fullmask;0.2;arrow_left.png;down;0.4167019000160508;0.4197915000258945;270693.9811036;c;0.6524478999781422;0.660282599972561;270694.8370463;3.00002284348011e-06;0.4961139000370167;0.5361428000032902;0.586164100037422;0.6562112999963574;0.7862794999964535;0.9163905000314116;0.01
7;2;17;20;letter169;letter190;letter190;letter169;0;0;congruent;0.04;letter190;0.09;0.07;fullmask;0.2;arrow_right.png;down;0.03158509999047965;0.0409059000085108;270696.3972067;m;0.45507370005361736;0.4607608000515029;270697.0610511;2.8999638743698597e-06;0.4960840999847278;0.5360975000075996;0.5861206999979913;0.6561574999941513;0.7862456999719143;0.9163535999832675;0.01
7;2;17;21;letter169;letter190;letter190;letter169;0;0;congruent;0.04;letter190;0.09;0.07;fullmask;0.2;arrow_right.png;down;2.7473819000297226;2.7513810000382364;270701.3250843;m;1.0757529999827966;1.0807083999970928;270702.6053472;3.0999653972685337e-06;0.4966545999632217;0.5366635000100359;0.5867003999883309;0.6567363999783993;0.7868115999735892;0.9169370000017807;0.01
7;2;17;22;letter169;letter190;letter190;letter169;0;0;incongruent;0.04;letter190;0.09;0.07;fullmask;0.2;arrow_left.png;down;2.668419099994935;2.671920199994929;270706.7890693;m;3.508191800036002;3.5127572000492364;270710.5011711;2.900022082030773e-06;0.501737000013236;0.5417393000097945;0.5917815999710001;0.6618154000025243;0.791903999983333;0.9219921000185423;0.01
7;2;17;23;letter169;letter190;letter190;letter169;0;0;incongruent;0.04;letter169;0.09;0.07;fullmask;0.2;arrow_right.png;down;0.0931344999698922;0.100793200021144;270712.1090811;m;0.846348199993372;0.8477821999695152;270712.9650295;2.900022082030773e-06;0.49825530004454777;0.5382731000427157;0.5883115000324324;0.6583335000323132;0.788442200049758;0.9185275000054389;0.01
7;2;17;24;letter169;letter190;letter190;letter169;0;0;congruent;0.04;letter190;0.09;0.07;fullmask;0.2;arrow_right.png;down;0.7136372000095434;0.721082900010515;270715.1810715;m;0.40108499996131286;0.41094949998660013;270715.7890146;2.8999638743698597e-06;0.49604090000502765;0.5360489999875426;0.5860946999746375;0.6561205000034533;0.7862098999903537;0.9162925999844447;0.01
7;2;17;25;letter169;letter190;letter190;letter169;0;0;incongruent;0.04;letter169;0.09;0.07;fullmask;0.2;arrow_right.png;up;1.0792625999893062;1.0801314000273123;270718.389102;m;0.5186632999684662;0.5207589999772608;270719.1090454;2.900022082030773e-06;0.4975518000428565;0.5375780000467785;0.5876047000056133;0.6576327999937348;0.7877319999970496;0.9178223999915645;0.01
7;2;17;26;letter169;letter190;letter190;letter169;0;0;congruent;0.04;letter169;0.09;0.07;fullmask;0.2;arrow_left.png;up;1.6730137999984436;1.6804185999790207;270722.2850645;m;7.392056400014553;7.39518130000215;270729.885028;3.00002284348011e-06;0.49924979999195784;0.5392805999726988;0.5892971999710426;0.659336099983193;0.7894364999956451;0.9195141000091098;0.01
7;2;17;27;letter169;letter190;letter190;letter169;0;0;incongruent;0.04;letter190;0.09;0.07;fullmask;0.2;arrow_left.png;up;0.5564950999687426;0.5605149999610148;270731.9650495;c;0.8100331000168808;0.8188537000096403;270732.781054;3.200024366378784e-06;0.5053901000064798;0.5454151000012644;0.5954627000028268;0.6654841999989003;0.7955781000200659;0.9256704000290483;0.01
7;2;17;28;letter169;letter190;letter190;letter169;0;0;congruent;0.04;letter169;0.09;0.07;fullmask;0.2;arrow_left.png;up;1.0725301000056788;1.0811652999836951;270735.3730518;c;0.6230385000235401;0.6303645999869332;270736.2050155;2.9999646358191967e-06;0.49773359997197986;0.5377522999770008;0.5877947999979369;0.6578303999849595;0.7879326999536715;0.9180162999546155;0.01
7;2;17;29;letter169;letter190;letter190;letter169;0;0;incongruent;0.04;letter190;0.09;0.07;fullmask;0.2;arrow_left.png;down;1.4845897000050172;1.4918680000118911;270739.1970528;m;0.17722640000283718;0.18057219998445362;270739.5809719;3.00002284348011e-06;0.4976066999952309;0.5376386999851093;0.5876583000062965;0.657711100007873;0.7877734000212513;0.9179155000019819;0.01
7;2;17;30;letter169;letter190;letter190;letter169;0;0;incongruent;0.04;letter190;0.09;0.07;fullmask;0.2;arrow_left.png;up;2.638328300032299;2.6419564000098035;270743.7330402;m;0.5304015000001527;0.5386115000001155;270744.2690055;2.900022082030773e-06;0.497083600028418;0.5371018000296317;0.5871311000082642;0.6571570999803953;0.7872429999988526;0.9174208000185899;0.01
7;2;17;31;letter169;letter190;letter190;letter169;0;0;congruent;0.04;letter169;0.09;0.07;fullmask;0.2;arrow_left.png;up;7.651443199953064;7.655445999989752;270753.4291188;c;8.131452800007537;8.135421900020447;270761.764985;2.900022082030773e-06;0.4966087000211701;0.5366191000211984;0.5866736000170931;0.6566932999994606;0.7867710000136867;0.916868100001011;0.01
7;2;17;32;letter169;letter190;letter190;letter169;0;0;congruent;0.04;letter190;0.09;0.07;fullmask;0.2;arrow_right.png;up;1.48556209995877;1.4909488999983296;270764.765202;c;0.9207532999571413;0.9285973999649286;270765.6931779;2.9999646358191967e-06;0.5029570999904536;0.542969300004188;0.5929940000060014;0.6630298999953084;0.7931078000110574;0.9232189999893308;0.01
7;2;17;33;letter169;letter190;letter190;letter169;0;0;congruent;0.04;letter190;0.09;0.07;fullmask;0.2;arrow_right.png;down;0.1610021999804303;0.17051869997521862;270767.3730419;m;0.5990133000304922;0.6003878000192344;270768.1810197;3.00002284348011e-06;0.4982263999991119;0.5382461000117473;0.5882975999847986;0.6583143000025302;0.7884010000270791;0.9184982000151649;0.01
7;2;17;34;letter169;letter190;letter190;letter169;0;0;congruent;0.04;letter169;0.09;0.07;fullmask;0.2;arrow_left.png;down;2.4157488000346348;2.4216415000264533;270772.1090107;m;3.7441490999772213;3.7510230999905616;270775.8609927;3.00002284348011e-06;0.4962954000220634;0.5362943999934942;0.5863143000169657;0.6563555000466295;0.7864488000050187;0.9165171000058763;0.01
7;2;17;35;letter169;letter190;letter190;letter169;0;0;incongruent;0.04;letter169;0.09;0.07;fullmask;0.2;arrow_right.png;up;1.6928927000262775;1.7014640000415966;270779.0610549;m;0.6632223999476992;0.6703726999694481;270779.9332616;3.300025127828121e-06;0.49732740002218634;0.5373373000184074;0.5873555999714881;0.6574027999886312;0.7874958000029437;0.9175867000012659;0.01
7;2;17;36;letter169;letter190;letter190;letter169;0;0;congruent;0.04;letter190;0.09;0.07;fullmask;0.2;arrow_right.png;down;0.8657020999817178;0.8705887999967672;270782.3170168;m;0.7066961000091396;0.7101527000195347;270783.229008;3.100023604929447e-06;0.4974094000062905;0.5374359000124969;0.5874501999933273;0.6575062000192702;0.7875677999691106;0.9176769999903627;0.01
7;2;17;37;letter169;letter190;letter190;letter169;0;1;congruent;0.12;letter190;0.18;0.07;fullmask;0.2;arrow_right.png;up;0.6180233000195585;0.6204072000109591;270785.4610587;m;0.5635979999788105;0.5685368999838829;270786.0289718;3.00002284348011e-06;0.4991592000005767;0.6192213000031188;0.679262200021185;0.7492882000515237;0.879380400001537;1.0094703000504524;0.01
7;2;17;38;letter169;letter190;letter190;letter169;0;0;incongruent;0.04;letter169;0.09;0.07;fullmask;0.2;arrow_right.png;up;0.713720400002785;0.7202433999627829;270788.2692042;m;0.4650167999789119;0.4698881999938749;270788.9410523;3.00002284348011e-06;0.5005233000265434;0.5405464000068605;0.59057290002238;0.660625800024718;0.7906927000149153;0.920813900011126;0.01
7;2;17;39;letter169;letter190;letter190;letter169;0;0;incongruent;0.04;letter169;0.09;0.07;fullmask;0.2;arrow_right.png;up;0.5644012999837287;0.5705272000050172;270791.0210138;m;1.0094155999831855;1.0103474999777973;270792.2369654;2.8999638743698597e-06;0.4983139999676496;0.5383295000065118;0.5883580999798141;0.6584126999950968;0.7884792999830097;0.9185818000114523;0.01
7;2;17;40;letter169;letter190;letter190;letter169;0;0;incongruent;0.04;letter169;0.09;0.07;fullmask;0.2;arrow_right.png;up;1.8236278000404127;1.8312373000080697;270795.5732593;m;0.6888785000192001;0.6912438999861479;270796.4690643;3.1999661587178707e-06;0.4958065999671817;0.5358375000068918;0.5858605999965221;0.6559022999717854;0.7859681000118144;0.9160985999624245;0.01
7;2;17;41;letter169;letter190;letter190;letter169;0;0;congruent;0.04;letter169;0.09;0.07;fullmask;0.2;arrow_left.png;up;4.349248600017745;4.353284700016957;270802.341036;m;0.6526666000136174;0.6613841999787837;270803.1971499;2.9999646358191967e-06;0.5028554999735206;0.542877400002908;0.592911199957598;0.662963199953083;0.7930415999726392;0.9231376999523491;0.01
7;2;17;42;letter169;letter190;letter190;letter169;0;0;congruent;0.04;letter190;0.09;0.07;fullmask;0.2;arrow_right.png;up;0.36436339997453615;0.3699464999954216;270805.1009871;m;1.1924563000211492;1.198847100022249;270806.3009669;2.9999646358191967e-06;0.5013866999652237;0.5414069999824278;0.5914539999794215;0.6614891999633983;0.7915522999828681;0.921662499953527;0.01
7;2;17;43;letter169;letter190;letter190;letter169;0;0;incongruent;0.04;letter190;0.09;0.07;fullmask;0.2;arrow_left.png;up;2.978904000017792;2.9821694000274874;270810.7970517;m;0.8188966999878176;0.8289443000103347;270811.6210313;3.1999661587178707e-06;0.4988094999571331;0.5388371999724768;0.5888742999522947;0.6589019999955781;0.7889918999862857;0.9190807999693789;0.01
7;2;17;44;letter169;letter190;letter190;letter169;0;0;incongruent;0.04;letter190;0.09;0.07;fullmask;0.2;arrow_left.png;up;7.785834200039972;7.796079200052191;270820.9170533;m;1.0277950000017881;1.0283803999773227;270821.9570251;3.100023604929447e-06;0.4947000000393018;0.5347352999961004;0.5847967000445351;0.6547986000077799;0.7848978000110947;0.9149629000457935;0.01
7;2;17;45;letter169;letter190;letter190;letter169;0;0;congruent;0.04;letter190;0.09;0.07;fullmask;0.2;arrow_right.png;up;0.18028579995734617;0.1895573999499902;270823.6689988;m;0.9247337999986485;0.9285720000043511;270824.6049411;2.900022082030773e-06;0.5055965000065044;0.5456189999822527;0.5956475000130013;0.6656795000308193;0.7957821000018157;0.9258708999841474;0.01
7;2;17;46;letter169;letter190;letter190;letter169;0;0;congruent;0.04;letter169;0.09;0.07;fullmask;0.2;arrow_left.png;up;1.916414600040298;1.9211164999869652;270828.0371549;c;0.7316186000243761;0.7409892000141554;270828.9729429;3.00002284348011e-06;0.49950959999114275;0.5395309000159614;0.5895750999916345;0.6596023000311106;0.7896945000393316;0.9197828000178561;0.01
7;2;17;47;letter169;letter190;letter190;letter169;0;0;incongruent;0.04;letter169;0.09;0.07;fullmask;0.2;arrow_right.png;down;0.019798299996182323;0.019925000029616058;270830.5330813;m;0.6937444999930449;0.6981774999876507;270831.2289399;3.00002284348011e-06;0.5041120999958366;0.544147000007797;0.5941783000016585;0.664209500013385;0.7943068000022322;0.9243972999975085;0.01
7;2;17;48;letter169;letter190;letter190;letter169;0;0;incongruent;0.04;letter169;0.09;0.07;fullmask;0.2;arrow_right.png;up;0.2426761999959126;0.25040189997525886;270832.9969825;m;0.4958416000008583;0.49971490004099905;270833.7009522;3.0999653972685337e-06;0.5013180999667384;0.5413368999725208;0.591363099985756;0.6614032999495976;0.7914760999847203;0.9216037999722175;0.01
7;2;17;49;letter169;letter190;letter190;letter169;0;0;congruent;0.04;letter169;0.09;0.07;fullmask;0.2;arrow_left.png;down;1.8530643000267446;1.8609606000245549;270837.0689522;c;2.3181278000120074;2.3198433999787085;270839.3969185;3.00002284348011e-06;0.498056499985978;0.5380701000103727;0.5880953000159934;0.6581351000349969;0.7882082000141963;0.918338000017684;0.01
7;2;17;50;letter169;letter190;letter190;letter169;0;0;incongruent;0.04;letter190;0.09;0.07;fullmask;0.2;arrow_left.png;up;1.8536446000216529;1.8621586000081152;270842.7731271;m;2.4614401000435464;2.4694955000304617;270845.2449117;3.100023604929447e-06;0.4973786000045948;0.5374108000542037;0.5874660999979824;0.6574735000031069;0.7875771000399254;0.9176513000275008;0.01
7;2;17;51;letter169;letter190;letter190;letter169;0;0;congruent;0.04;letter190;0.09;0.07;fullmask;0.2;arrow_right.png;down;0.4735064000124112;0.4806421999819577;270847.236969;c;0.48137460002908483;0.4907070000190288;270847.9249254;3.100023604929447e-06;0.49781510001048446;0.5378430000273511;0.5878793000010774;0.6579087999998592;0.7880069999955595;0.918114100000821;0.01
7;2;17;52;letter169;letter190;letter190;letter169;0;1;congruent;0.12;letter169;0.18;0.07;fullmask;0.2;arrow_left.png;down;2.765485699987039;2.7712869999813847;270852.3009326;m;1.2962441999698058;1.299577399971895;270853.604917;3.00002284348011e-06;0.502208599995356;0.6222481000004336;0.6822817000211217;0.7523356999736279;0.8824108999688178;1.0125063000014052;0.01
7;2;18;1;letter169;letter190;letter190;letter169;0;0;congruent;0.04;letter169;0.09;0.07;fullmask;0.2;arrow_left.png;up;1.3385061000008136;1.3404647000133991;270861.7409426;c;1.661656700016465;1.6715524000464939;270863.6050008;4.700035788118839e-06;0.501654600026086;0.5416821999824606;0.5917128000291996;0.6617418000241742;0.7918274999829009;0.9219264999846928;0.01
7;2;18;2;letter169;letter190;letter190;letter169;0;0;incongruent;0.04;letter190;0.09;0.07;fullmask;0.2;arrow_left.png;up;5.087619400001131;5.093203800031915;270870.2129307;m;1.4484428000287153;1.4491719999932684;270871.6689038;3.0999653972685337e-06;0.49797249998664483;0.5380070999963209;0.5880159999942407;0.6580649999668822;0.7881457000039518;0.9182507999939844;0.01
7;2;18;3;letter169;letter190;letter190;letter169;0;0;congruent;0.04;letter169;0.09;0.07;fullmask;0.2;arrow_left.png;down;1.7200176999904215;1.7203328000032343;270874.9009755;c;1.2215516999713145;1.2287675000261515;270876.1248666;3.0999653972685337e-06;0.505480499996338;0.5455117999808863;0.5955450999899767;0.6655659999814816;0.795646000013221;0.9257425999967381;0.01
7;2;18;4;letter169;letter190;letter190;letter169;0;0;congruent;0.04;letter190;0.09;0.07;fullmask;0.2;arrow_right.png;down;0.9349994999938644;0.9405358000076376;270878.588971;c;5.458977600035723;5.464258500025608;270884.2528981;2.9999646358191967e-06;0.5009103999473155;0.5409141999552958;0.5909809999866411;0.6610000999644399;0.7910840999684297;0.9211780999903567;0.01
7;2;18;5;letter169;letter190;letter190;letter169;0;0;incongruent;0.04;letter169;0.09;0.07;fullmask;0.2;arrow_right.png;down;0.8504821000387892;0.8506303000031039;270886.6290078;m;0.7820318000158295;0.7889884000178427;270887.413253;3.0999653972685337e-06;0.5039032999775372;0.5439171000034548;0.5939966000150889;0.6639958000159822;0.7941038999706507;0.9241720999707468;0.01
7;2;18;6;letter169;letter190;letter190;letter169;0;0;congruent;0.04;letter190;0.09;0.07;fullmask;0.2;arrow_right.png;down;0.5461981000262313;0.5506934000295587;270889.4769829;m;0.5951055999612436;0.6004457999952137;270890.2769906;2.9999646358191967e-06;0.4971707999939099;0.5371838999562897;0.5872170999646187;0.6572339999838732;0.7873356999480166;0.9174502999521792;0.01
7;2;18;7;letter169;letter190;letter190;letter169;0;1;incongruent;0.12;letter190;0.18;0.07;fullmask;0.2;arrow_left.png;up;1.1277442999999039;1.1299995000008494;270893.0209233;c;0.603772200003732;0.6084231999702752;270893.6288918;2.900022082030773e-06;0.5021603000350296;0.62223229999654;0.6822622999898158;0.7522957000182942;0.8823721000226215;1.0124732999829575;0.01
7;2;18;8;letter169;letter190;letter190;letter169;0;0;congruent;0.04;letter169;0.09;0.07;fullmask;0.2;arrow_left.png;up;1.4821043999982066;1.490990599966608;270896.6370037;c;0.3906561000039801;0.40000780002446845;270897.2370666;3.100023604929447e-06;0.5055026999907568;0.5455222000018694;0.5955402000108734;0.6656083000125363;0.7956596000003628;0.9257753000129014;0.01
7;2;18;9;letter169;letter190;letter190;letter169;0;0;congruent;0.04;letter169;0.09;0.07;fullmask;0.2;arrow_left.png;down;2.9200819000252523;2.92211959999986;270901.6769451;c;0.5240766999777406;0.5286438000039198;270902.2048895;3.0999653972685337e-06;0.49965750001138076;0.5399100999929942;0.5896882999804802;0.6597383000189438;0.7898016999824904;0.919918300001882;0.01
7;2;18;10;letter169;letter190;letter190;letter169;0;0;incongruent;0.04;letter190;0.09;0.07;fullmask;0.2;arrow_left.png;up;0.38461569999344647;0.3900212000007741;270904.1249094;m;0.7045941000105813;0.7091593000222929;270904.8368472;3.0999653972685337e-06;0.5056424999493174;0.5456683999509551;0.5956822999869473;0.6657307999557815;0.7958166999742389;0.9259294999646954;0.01
7;2;18;11;letter169;letter190;letter190;letter169;0;0;congruent;0.04;letter190;0.09;0.07;fullmask;0.2;arrow_right.png;down;1.658763900049962;1.6605783000122756;270908.0210332;c;0.8616232000058517;0.8707250999868847;270909.0848778;3.00002284348011e-06;0.5054190999944694;0.5454371999949217;0.5954947000136599;0.6655138999922201;0.7956169000244699;0.9256900000036694;0.01
7;2;18;12;letter169;letter190;letter190;letter169;0;0;congruent;0.04;letter190;0.09;0.07;fullmask;0.2;arrow_right.png;down;0.3579524999950081;0.36010270001133904;270910.9729457;m;0.629415399977006;0.6303384000202641;270911.804952;3.0999653972685337e-06;0.49550799996359274;0.5355239999480546;0.5855755999800749;0.6556118999724276;0.7856885999790393;0.9157906999462284;0.01
7;2;18;13;letter169;letter190;letter190;letter169;0;0;incongruent;0.04;letter169;0.09;0.07;fullmask;0.2;arrow_right.png;up;0.7925221000332385;0.80085759999929;270914.1089492;m;0.6072729000006802;0.610506400000304;270914.924998;2.9999646358191967e-06;0.4959634999977425;0.5359922999632545;0.5860078999539837;0.6560524999513291;0.786128599953372;0.9162878999486566;0.01
7;2;18;14;letter169;letter190;letter190;letter169;0;0;incongruent;0.04;letter169;0.09;0.07;fullmask;0.2;arrow_right.png;down;3.3983940000180155;3.4027740000165068;270919.8369411;m;0.8736303000478074;0.877712200046517;270920.7168803;2.9999646358191967e-06;0.5006652999436483;0.5406860999646597;0.5907372999936342;0.6607705999631435;0.7908513000002131;0.9209550999803469;0.01
7;2;18;15;letter169;letter190;letter190;letter169;0;0;incongruent;0.04;letter190;0.09;0.07;fullmask;0.2;arrow_left.png;up;0.6422822999884374;0.6502777999849059;270922.8849208;m;3.294042899971828;3.3001983999856748;270926.1889037;2.9999646358191967e-06;0.5047964999685064;0.5448057999601588;0.5948395999730565;0.6648745999555103;0.7949565000017174;0.9250608999864198;0.01
7;2;18;16;letter169;letter190;letter190;letter169;0;0;congruent;0.04;letter169;0.09;0.07;fullmask;0.2;arrow_left.png;up;1.0273465000209399;1.0311684000189416;270928.7329375;m;0.3876565000391565;0.38997530000051484;270929.324856;3.0999653972685337e-06;0.5005259999888949;0.5405570999719203;0.5905935000046156;0.6606317999539897;0.7907023999723606;0.9207978000049479;0.01
7;2;18;17;letter169;letter190;letter190;letter169;0;0;congruent;0.04;letter169;0.09;0.07;fullmask;0.2;arrow_left.png;up;0.1973421999718994;0.2005290999659337;270931.0449312;c;0.6923435000353493;0.7001795000396669;270931.9408728;3.100023604929447e-06;0.5004043999942951;0.5404395000077784;0.5904510000254959;0.6604988999897614;0.7905719000264071;0.9206896999967285;0.01
7;2;18;18;letter169;letter190;letter190;letter169;0;0;congruent;0.04;letter169;0.09;0.07;fullmask;0.2;arrow_left.png;down;0.3729699000250548;0.38014610001118854;270933.8530917;m;0.7269272999837995;0.7281126999878325;270934.5890261;3.2999669201672077e-06;0.5027709999703802;0.5427952000172809;0.5928427000180818;0.6628641000133939;0.7929594999877736;0.9230471000191756;0.01
7;2;18;19;letter169;letter190;letter190;letter169;0;0;incongruent;0.04;letter190;0.09;0.07;fullmask;0.2;arrow_left.png;up;0.8532343999831937;0.8607512000016868;270936.9649332;c;1.3824854000122286;1.3883466999977827;270938.3568675;2.9999646358191967e-06;0.4964031999697909;0.5364266999531537;0.5864890999509953;0.6564965999568813;0.7865970999700949;0.9166807999718003;0.01
7;2;18;20;letter169;letter190;letter190;letter169;0;0;incongruent;0.04;letter190;0.09;0.07;fullmask;0.2;arrow_left.png;up;10.234890500025358;10.236572200024966;270950.1088943;c;1.1163288000389002;1.119060900004115;270951.2288421;2.900022082030773e-06;0.49664289999054745;0.5366634000092745;0.5867218999774195;0.6567288999794982;0.7868308000033721;0.9169143000035547;0.01
7;2;18;21;letter169;letter190;letter190;letter169;0;1;congruent;0.12;letter190;0.18;0.07;fullmask;0.2;arrow_right.png;up;3.0404316000058316;3.0420064000063576;270955.8929798;m;1.3645285000093281;1.3685205999645405;270957.2609122;2.900022082030773e-06;0.5053003000211902;0.6253656999906525;0.6854037999873981;0.755453200021293;0.8855215000221506;1.01564330002293;0.01
7;2;18;22;letter169;letter190;letter190;letter169;0;0;congruent;0.04;letter190;0.09;0.07;fullmask;0.2;arrow_right.png;up;6.403174399980344;6.40483089996269;270965.1888752;c;4.32435449998593;4.330553099978715;270969.5168035;2.9999646358191967e-06;0.5027091999654658;0.5427275999682024;0.5926812999532558;0.6627997999894433;0.7928583999746479;0.9229704999597743;0.01
7;2;18;23;letter169;letter190;letter190;letter169;0;0;incongruent;0.04;letter169;0.09;0.07;fullmask;0.2;arrow_right.png;down;1.9551398999756202;1.9616770999855362;270972.9889438;c;0.6474582999944687;0.6483175000175834;270973.6448754;2.900022082030773e-06;0.5001568000297993;0.5401799000101164;0.5902273000101559;0.660256200004369;0.7903415000182576;0.9204474000143819;0.01
7;2;18;24;letter169;letter190;letter190;letter169;0;0;incongruent;0.04;letter190;0.09;0.07;fullmask;0.2;arrow_left.png;down;0.6836444000364281;0.6901685000048019;270975.8608618;c;0.7370207000058144;0.7400723999598995;270976.8048209;3.100023604929447e-06;0.5035378999891691;0.543571799993515;0.5936092000338249;0.6636253999895416;0.7937272000126541;0.9238138000364415;0.01
7;2;18;25;letter169;letter190;letter190;letter169;0;0;incongruent;0.04;letter169;0.09;0.07;fullmask;0.2;arrow_right.png;up;1.8523275000043213;1.8610432999557815;270980.1808448;c;0.47892140003386885;0.4808668000041507;270980.8688936;2.8999638743698597e-06;0.5015680999495089;0.5415961999678984;0.5916158999898471;0.6616605999879539;0.7917482999619097;0.9218464999576099;0.01
7;2;18;26;letter169;letter190;letter190;letter169;0;0;incongruent;0.04;letter169;0.09;0.07;fullmask;0.2;arrow_right.png;up;0.875292000011541;0.880622599972412;270983.2768427;c;1.1222392999916337;1.1300313000101596;270984.6048232;3.400025889277458e-06;0.5022499000187963;0.5422720999922603;0.5923037999891676;0.662335200002417;0.7924341000034474;0.9225272000185214;0.01
7;2;18;27;letter169;letter190;letter190;letter169;0;0;incongruent;0.04;letter190;0.09;0.07;fullmask;0.2;arrow_left.png;down;0.944668999989517;0.9504672000184655;270987.0688504;c;5.609855099988636;5.61299880000297;270992.8849357;2.8999638743698597e-06;0.5015592999989167;0.5415823999792337;0.5915998999844305;0.6616478999494575;0.7917536000022665;0.9218248999677598;0.01
7;2;18;28;letter169;letter190;letter190;letter169;0;0;incongruent;0.04;letter169;0.09;0.07;fullmask;0.2;arrow_right.png;up;2.002196899964474;2.0117609999724664;270996.421025;m;0.4300701000029221;0.43994429998565465;270997.0610023;3.0999653972685337e-06;0.5056335999979638;0.5456512999953702;0.595685499953106;0.665713099995628;0.7958115999936126;0.9258948999922723;0.01
7;2;18;29;letter169;letter190;letter190;letter169;0;0;incongruent;0.04;letter190;0.09;0.07;fullmask;0.2;arrow_left.png;down;0.6908974000252783;0.7001464000204578;270999.2928391;m;0.39830040000379086;0.3999840000178665;270999.9007983;2.900022082030773e-06;0.5027146000065841;0.5427210999769159;0.5927420000080019;0.6627829999779351;0.792866799980402;0.9229713999666274;0.01
7;2;18;30;letter169;letter190;letter190;letter169;0;0;congruent;0.04;letter190;0.09;0.07;fullmask;0.2;arrow_right.png;up;1.0948427999974228;1.100152600032743;271002.5088334;c;0.9527169999782927;0.9595922000007704;271003.4687942;2.9999646358191967e-06;0.5011966999736615;0.5412199999555014;0.5912535999668762;0.6612760999705642;0.7913669999688864;0.921464599960018;0.01
7;2;18;31;letter169;letter190;letter190;letter169;0;0;congruent;0.04;letter169;0.09;0.07;fullmask;0.2;arrow_left.png;up;0.9204573000315577;0.9206798000377603;271005.9168996;c;0.448332300002221;0.450861299992539;271006.5648798;3.2999669201672077e-06;0.5033715000026859;0.5434205000055954;0.59344389999751;0.6634699999704026;0.7935716999927536;0.9236617999849841;0.01
7;2;18;32;letter169;letter190;letter190;letter169;0;0;incongruent;0.04;letter190;0.09;0.07;fullmask;0.2;arrow_left.png;down;1.030357700015884;1.0401540999882855;271009.1088742;m;0.5417417000280693;0.5505779000231996;271009.8608231;3.100023604929447e-06;0.4970304000307806;0.5370418000384234;0.587067799991928;0.6571001000120305;0.7871905000065453;0.9172860000398941;0.01
7;2;18;33;letter169;letter190;letter190;letter169;0;0;congruent;0.04;letter190;0.09;0.07;fullmask;0.2;arrow_right.png;up;0.8725784000125714;0.8806623999844305;271012.252847;m;1.0379848000011407;1.038173100037966;271013.3008551;2.900022082030773e-06;0.49880090000806376;0.5388185000047088;0.5888667000108398;0.6588932999875396;0.7892297999933362;0.9190781000070274;0.01
7;2;18;34;letter169;letter190;letter190;letter169;0;1;incongruent;0.12;letter169;0.18;0.07;fullmask;0.2;arrow_right.png;down;0.4307680000201799;0.4310463999863714;271015.3330565;m;1.2296911000157706;1.2388998999958858;271016.5647999;3.1999661587178707e-06;0.49715979996835813;0.617244099965319;0.6772736999555491;0.7473170000012033;0.8773964999709278;1.0075058999937028;0.01
7;2;18;35;letter169;letter190;letter190;letter169;0;0;incongruent;0.04;letter169;0.09;0.07;fullmask;0.2;arrow_right.png;down;6.814608999993652;6.824766399979126;271024.9088431;m;1.1238522000494413;1.1290365000022575;271026.0447913;3.100023604929447e-06;0.502567799994722;0.5425901000271551;0.5926245999871753;0.6626516000251286;0.7927397000021301;0.9228217999916524;0.01
7;2;18;36;letter169;letter190;letter190;letter169;0;0;incongruent;0.04;letter190;0.09;0.07;fullmask;0.2;arrow_left.png;up;0.4819515999988653;0.48975459998473525;271028.0528364;m;0.9425095000187866;0.9495336000109091;271029.0050827;2.900022082030773e-06;0.5055750000174157;0.5456029000342824;0.5956373000517488;0.6656621000147425;0.7957607000134885;0.9258514000102878;0.01
7;2;18;37;letter169;letter190;letter190;letter169;0;0;congruent;0.04;letter190;0.09;0.07;fullmask;0.2;arrow_right.png;up;0.4646659999853;0.4709094000281766;271030.9970229;m;0.9756796000292525;0.9784414999885485;271031.9807771;2.8999638743698597e-06;0.4953951999777928;0.5354083999991417;0.5854394999914803;0.6554735999670811;0.7855665999813937;0.9156614000094123;0.01
7;2;18;38;letter169;letter190;letter190;letter169;0;0;congruent;0.04;letter169;0.09;0.07;fullmask;0.2;arrow_left.png;down;0.5545996999717318;0.5605675000115298;271034.0688105;m;0.8561700000427663;0.8587825000286102;271034.9328864;3.100023604929447e-06;0.4998600000399165;0.5398940000450239;0.5899186000460759;0.6599614000297152;0.7900273000122979;0.9201338000129908;0.01
7;2;18;39;letter169;letter190;letter190;letter169;0;0;incongruent;0.04;letter169;0.09;0.07;fullmask;0.2;arrow_right.png;up;11.646012000041083;11.646880300017074;271048.0927445;c;1.430803900002502;1.4311364000313915;271049.7248265;2.900022082030773e-06;0.5006493999972008;0.5406770000117831;0.5906907999888062;0.66073200001847;0.790811599988956;0.9209232999710366;0.01
7;2;18;40;letter169;letter190;letter190;letter169;0;0;congruent;0.04;letter169;0.09;0.07;fullmask;0.2;arrow_left.png;up;1.589266500028316;1.5916849000495858;271052.8448436;c;0.5173232000088319;0.5197633000207134;271053.5648982;3.00002284348011e-06;0.5002707000239752;0.5402874000137672;0.5903322999947704;0.6603608999866992;0.7904665999813005;0.9205496999784373;0.01
7;2;18;41;letter169;letter190;letter190;letter169;0;1;congruent;0.12;letter169;0.18;0.07;fullmask;0.2;arrow_left.png;up;1.4025672000134364;1.411065599997528;271056.5807851;c;0.47106920002261177;0.4802758000441827;271057.2607637;3.0999653972685337e-06;0.5057982999715023;0.625866100017447;0.6859026000020094;0.7559566000127234;0.8860278999782167;1.0161541000124998;0.01
7;2;18;42;letter169;letter190;letter190;letter169;0;0;incongruent;0.04;letter190;0.09;0.07;fullmask;0.2;arrow_left.png;down;0.3901588000007905;0.3910184999695048;271059.1807902;m;0.5436804999480955;0.5505772999604233;271059.9247456;3.0999653972685337e-06;0.503579699958209;0.5435961000039242;0.5936478999792598;0.6636672999593429;0.793764200003352;0.9238572999602184;0.01
7;2;18;43;letter169;letter190;letter190;letter169;0;0;incongruent;0.04;letter190;0.09;0.07;fullmask;0.2;arrow_left.png;down;4.502581200038549;4.502935800002888;271065.964847;m;0.647006000042893;0.6502534000319429;271066.8127938;2.9999646358191967e-06;0.5012716999626718;0.541272200003732;0.591311099997256;0.661375199968461;0.7914348999620415;0.9215400999528356;0.01
7;2;18;44;letter169;letter190;letter190;letter169;0;0;congruent;0.04;letter190;0.09;0.07;fullmask;0.2;arrow_right.png;up;0.22008780000032857;0.22032289998605847;271068.5568834;c;0.8456968999817036;0.8488036999478936;271069.4047453;2.9999646358191967e-06;0.5049974999856204;0.5450187000096776;0.5950584000092931;0.6650648000068031;0.7951648999587633;0.9252546000061557;0.01
7;2;18;45;letter169;letter190;letter190;letter169;0;0;congruent;0.04;letter190;0.09;0.07;fullmask;0.2;arrow_right.png;down;0.42625089996727183;0.43090390000725165;271071.3648233;m;0.5958199999877252;0.6004124999744818;271072.1647426;2.9999646358191967e-06;0.503129499964416;0.5431474999641068;0.5931944999611005;0.6632208999944851;0.793316799972672;0.9234009999781847;0.01
7;2;18;46;letter169;letter190;letter190;letter169;0;0;incongruent;0.04;letter169;0.09;0.07;fullmask;0.2;arrow_right.png;up;0.09220419998746365;0.09974710003007203;271073.772816;c;0.9120833000051789;0.920165800023824;271074.8928568;3.00002284348011e-06;0.4972848999896087;0.5372937999782152;0.5873222000082023;0.6573598000104539;0.7874499000026844;0.9175567000056617;0.01
7;2;18;47;letter169;letter190;letter190;letter169;0;0;incongruent;0.04;letter169;0.09;0.07;fullmask;0.2;arrow_right.png;up;0.8483746999991126;0.850746700016316;271077.2608838;m;0.4143053000443615;0.4210221000248566;271077.876875;3.300025127828121e-06;0.4975873000221327;0.5376014000503346;0.5876372000202537;0.6576616000384092;0.7877331000054255;0.9178411000175402;0.01
7;2;18;48;letter169;letter190;letter190;letter169;0;0;congruent;0.04;letter169;0.09;0.07;fullmask;0.2;arrow_left.png;down;2.0663526000571437;2.071372300037183;271081.4607654;c;0.9450379000045359;0.9485174000146799;271082.4127631;3.100023604929447e-06;0.4971005000406876;0.537119899992831;0.5871277000405826;0.6571633000276051;0.78724420000799;0.9173558000475168;0.01
7;2;18;49;letter169;letter190;letter190;letter169;0;0;congruent;0.04;letter169;0.09;0.07;fullmask;0.2;arrow_left.png;down;2.197509200021159;2.2011510000447743;271086.2449082;m;1.1613694000407122;1.1679356000386178;271087.4127351;2.900022082030773e-06;0.5034761999850161;0.5435048000072129;0.5935233000200242;0.6635814000037499;0.7936444999650121;0.923780600016471;0.01
7;2;18;50;letter169;letter190;letter190;letter169;0;0;congruent;0.04;letter190;0.09;0.07;fullmask;0.2;arrow_right.png;up;0.6884040999575518;0.6902190999826416;271089.6287653;m;1.2122159999562427;1.2187959000002593;271090.8447341;2.9999646358191967e-06;0.49905719998059794;0.5390787999494933;0.5891045999596827;0.6591212999774143;0.7892163999495097;0.9193196999840438;0.01
7;2;18;51;letter169;letter190;letter190;letter169;0;0;congruent;0.04;letter190;0.09;0.07;fullmask;0.2;arrow_right.png;down;0.634377799986396;0.641311899991706;271092.9967531;m;0.5777316000312567;0.5805088999914005;271093.7808169;3.100023604929447e-06;0.49815449997549877;0.5381878999760374;0.588189699978102;0.658233999973163;0.7883107999805361;0.9184607000206597;0.01
7;2;18;52;letter169;letter190;letter190;letter169;0;0;incongruent;0.04;letter169;0.09;0.07;fullmask;0.2;arrow_right.png;down;0.27614119998179376;0.28026989998761564;271095.5807606;m;0.3459230999578722;0.34811009996337816;271095.9327571;3.00002284348011e-06;0.49636950000422075;0.5364174999995157;0.5864128000102937;0.6564592000213452;0.7865298999822699;0.916642900032457;0.01
