subjnr;loop_m;blocknr;trialnr;cue_left_learn;cue_right_learn;option_up;option_down;practice;motivation; congruence;cue_dur;cue;SOA;mask_dur;mask;target_dur;target;response;RT;kb_rt;response_absolute;response_target;RT_target;kb_rt_target;response_absolute_target; fix_onset;cue_onset;cue_offset;mask_onset;mask_offset;target_offset;blank_onset;frame_dur
2;1;9;1;letter181;letter357;letter357;letter181;0;0;congruent;0.04;letter181;0.05;0.07;fullmask;0.2;arrow_left.png;down;2.199385500018252;2.202139000000898;256605.7878753;m;1.3312687999859918;1.3384906999999657;256607.1238365;2.6999914553016424e-06;0.5028381000156514;0.5432207999983802;0.5531420999905095;0.6229043999919668;0.7529908000142314;0.8830781000142451;0.01
2;1;9;2;letter181;letter357;letter357;letter181;0;0;congruent;0.04;letter357;0.05;0.07;fullmask;0.2;arrow_right.png;down;2.7682839000190143;2.7721705000149086;256611.3799967;m;0.9955492000153754;1.0002796000044327;256612.5798418;2.7999922167509794e-06;0.5024944999895524;0.5425324999960139;0.5525368000089657;0.6225677999900654;0.7526654000103008;0.8827562000078615;0.01
2;1;9;3;letter181;letter357;letter357;letter181;0;0;congruent;0.04;letter181;0.05;0.07;fullmask;0.2;arrow_left.png;down;2.9062795999925584;2.912232300004689;256616.9718828;m;1.344137900014175;1.3485743000055663;256618.3239187;2.700020559132099e-06;0.49963640002533793;0.539678000001004;0.5496595000149682;0.6197005000140052;0.7497871000086889;0.8798979000130203;0.01
2;1;9;4;letter181;letter357;letter357;letter181;0;0;congruent;0.04;letter357;0.05;0.07;fullmask;0.2;arrow_right.png;up;2.2447378000069875;2.2518895999819506;256622.0438607;m;0.5268588000035379;0.527639799984172;256622.5798118;2.7999922167509794e-06;0.497400899999775;0.5374166000110563;0.5474257000023499;0.6174644000129774;0.7475436000095215;0.8776363999932073;0.01
2;1;9;5;letter181;letter357;letter357;letter181;0;0;incongruent;0.04;letter181;0.05;0.07;fullmask;0.2;arrow_right.png;down;1.4537994000129402;1.4611166999966372;256625.5158511;m;0.7506980999896768;0.7580128999834415;256626.2758179;2.7999922167509794e-06;0.49631349998526275;0.5363377000030596;0.5463512999995146;0.6163738000032026;0.7464779999863822;0.8765614999865647;0.01
2;1;9;6;letter181;letter357;letter357;letter181;0;0;incongruent;0.04;letter181;0.05;0.07;fullmask;0.2;arrow_right.png;down;1.1197201000177301;1.1210864000022411;256628.8839255;m;0.6367219999956433;0.6383676000114065;256629.5239098;2.600019797682762e-06;0.49761400002171285;0.5376426000148058;0.5476571000181139;0.6176896000106353;0.7477679000003263;0.8778581000224221;0.01
2;1;9;7;letter181;letter357;letter357;letter181;0;0;congruent;0.04;letter181;0.05;0.07;fullmask;0.2;arrow_left.png;up;0.773404000006849;0.7810126000258606;256631.7798387;c;0.8569011999934446;0.860715299990261;256632.8437954;2.6999914553016424e-06;0.49917500000447035;0.5392103999911342;0.549226400005864;0.6195618000056129;0.7493403000116814;0.8794317000138108;0.01
2;1;9;8;letter181;letter357;letter357;letter181;0;0;incongruent;0.04;letter357;0.05;0.07;fullmask;0.2;arrow_left.png;down;0.6032659000193235;0.6105026000004727;256634.9321006;c;1.0571829000255093;1.0612879000254907;256636.1958532;2.800021320581436e-06;0.4963883000018541;0.5364082000160124;0.5464095000061207;0.6164456999977119;0.746532000019215;0.8766425000212621;0.01
2;1;9;9;letter181;letter357;letter357;letter181;0;0;congruent;0.04;letter357;0.05;0.07;fullmask;0.2;arrow_right.png;up;0.6268551000102889;0.6303729999926873;256638.3078271;m;0.9305228999874089;0.9385440000041854;256639.2438101;2.5999906938523054e-06;0.4978185999789275;0.5378527999855578;0.5478501000034157;0.6178817999898456;0.747973199991975;0.8780670999840368;0.01
2;1;9;10;letter181;letter357;letter357;letter181;0;0;incongruent;0.04;letter357;0.05;0.07;fullmask;0.2;arrow_left.png;down;0.8692636000050697;0.8707333999918774;256641.6119106;c;0.9180689000058919;0.920654099987587;256642.7318917;2.600019797682762e-06;0.5023417000193149;0.542387499997858;0.5523849000164773;0.6224324000068009;0.7525072999997064;0.8826050000207033;0.01
2;1;9;11;letter181;letter357;letter357;letter181;0;1;incongruent;0.12;letter357;0.14;0.07;fullmask;0.2;arrow_left.png;up;0.7552020000002813;0.7610135000140872;256645.0600451;c;0.5123220999957994;0.5187134000007063;256645.5800712;2.5999906938523054e-06;0.4996538999839686;0.6197270999837201;0.6397356000088621;0.7097715999989305;0.839860799984308;0.9699534999963362;0.01
2;1;9;12;letter181;letter357;letter357;letter181;0;0;incongruent;0.04;letter357;0.05;0.07;fullmask;0.2;arrow_left.png;down;0.8411933000024874;0.8507839999801945;256647.9078454;c;0.6779333000013139;0.6801965000049677;256648.7958173;2.7999922167509794e-06;0.5052600000053644;0.5452607999905013;0.5552623000112362;0.6253024000034202;0.7553844999929424;0.8854838999977801;0.01
2;1;9;13;letter181;letter357;letter357;letter181;0;0;incongruent;0.04;letter181;0.05;0.07;fullmask;0.2;arrow_right.png;down;0.589369599998463;0.5903442999988329;256650.8678609;m;0.9330461999925319;0.938554699998349;256651.8038168;2.5999906938523054e-06;0.4979534999874886;0.5379642999905627;0.5480058999964967;0.6180230999889318;0.74810189998243;0.8781917000014801;0.01
2;1;9;14;letter181;letter357;letter357;letter181;0;1;congruent;0.12;letter181;0.14;0.07;fullmask;0.2;arrow_left.png;down;0.7830335000180639;0.7909166000026744;256654.1640525;c;0.6299679000221658;0.638365499995416;256654.8038024;2.5999906938523054e-06;0.4987958999990951;0.6191514999954961;0.6388802999863401;0.7089283999812324;0.8390097999945283;0.9691037999873515;0.01
2;1;9;15;letter181;letter357;letter357;letter181;0;0;incongruent;0.04;letter181;0.05;0.07;fullmask;0.2;arrow_right.png;down;1.023154299997259;1.0303346999862697;256657.3158066;m;0.566866300010588;0.5685320000047795;256657.8917924;4.3000036384910345e-06;0.5000779000110924;0.5401025000028312;0.5501106000156142;0.62014780001482;0.7502285999944434;0.8803501000220422;0.01
2;1;9;16;letter181;letter357;letter357;letter181;0;0;congruent;0.04;letter357;0.05;0.07;fullmask;0.2;arrow_right.png;up;0.6613256000273395;0.6702612000226509;256660.0358383;m;0.6450973000028171;0.6483163999801036;256660.6918088;2.7999922167509794e-06;0.5019322999869473;0.5419584999908693;0.5519873999874108;0.6219910999934655;0.7520801000064239;0.8821956999890972;0.01
2;1;9;17;letter181;letter357;letter357;letter181;0;0;incongruent;0.04;letter357;0.05;0.07;fullmask;0.2;arrow_left.png;up;0.6111971999926027;0.6203168999927584;256662.7880074;c;0.5407170999969821;0.548585299984552;256663.3397836;2.6999914553016424e-06;0.4950304999947548;0.5350605999992695;0.5450746999995317;0.6150971000024583;0.7451964000065345;0.8752737000177149;0.01
2;1;9;18;letter181;letter357;letter357;letter181;0;0;incongruent;0.04;letter181;0.05;0.07;fullmask;0.2;arrow_right.png;down;0.5752158999966923;0.5794329999771435;256665.4038276;m;0.5377618000202347;0.5386128000100143;256665.9478247;2.5999906938523054e-06;0.5015129999956116;0.5415426999970805;0.5515600999933667;0.6216051999945194;0.7516793000104371;0.8817541000025813;0.01
2;1;9;19;letter181;letter357;letter357;letter181;0;0;incongruent;0.04;letter357;0.05;0.07;fullmask;0.2;arrow_left.png;up;0.45439769999939017;0.46089439999195747;256667.8840467;c;0.5354213000100572;0.5385803999961354;256668.427807;2.8999929782003164e-06;0.49737199998344295;0.5374087999807671;0.5473966999852564;0.6174330999783706;0.7475162999762688;0.8776071000029333;0.01
2;1;9;20;letter181;letter357;letter357;letter181;0;0;congruent;0.04;letter181;0.05;0.07;fullmask;0.2;arrow_left.png;down;0.4286615999881178;0.43093890001182444;256670.3398234;c;0.5317556000081822;0.5376147000060882;256670.8757965;2.6999914553016424e-06;0.5009870000067167;0.5409708000079263;0.550989200011827;0.6210514999984298;0.7511272999981884;0.881226700003026;0.01
2;1;9;21;letter181;letter357;letter357;letter181;0;0;congruent;0.04;letter357;0.05;0.07;fullmask;0.2;arrow_right.png;up;0.5444160999904852;0.549545499990927;256672.907821;m;0.47288360001402907;0.47877350001363084;256673.3877745;2.900022082030773e-06;0.499327199999243;0.539355400018394;0.54937140000402;0.6194041999988258;0.7494942000193987;0.8795802000095136;0.01
2;1;9;22;letter181;letter357;letter357;letter181;0;0;congruent;0.04;letter181;0.05;0.07;fullmask;0.2;arrow_left.png;down;0.5214363999839406;0.5305040999955963;256675.3957681;c;0.5412733000121079;0.5486844000115525;256675.9480505;3.4999975468963385e-06;0.5002048999886028;0.540215699991677;0.5502354000054765;0.6202724000031594;0.7503396999964025;0.8804464999993797;0.01
2;1;9;23;letter181;letter357;letter357;letter181;0;0;incongruent;0.04;letter357;0.05;0.07;fullmask;0.2;arrow_left.png;up;0.5499522000027355;0.5507877999916673;256677.995843;c;0.5651826999965124;0.5682672999973875;256678.5637818;2.5999906938523054e-06;0.5057872000033967;0.5458197999978438;0.5558157000050414;0.6258513999928255;0.7559440000040922;0.886042099999031;0.01
2;1;9;24;letter181;letter357;letter357;letter181;0;0;incongruent;0.04;letter181;0.05;0.07;fullmask;0.2;arrow_right.png;down;0.44179650000296533;0.4498594999895431;256680.4998562;m;0.4939127000106964;0.4987476000096649;256681.0037697;2.500019036233425e-06;0.5051330999995116;0.5451641000108793;0.5551601000188384;0.625207600009162;0.7552750000031665;0.8853940000117291;0.01
2;1;9;25;letter181;letter357;letter357;letter181;0;0;congruent;0.04;letter357;0.05;0.07;fullmask;0.2;arrow_right.png;up;0.4465245000028517;0.45080459999735467;256682.9558126;m;0.50578000000678;0.5076982000027783;256683.4678115;2.7999922167509794e-06;0.5059361000021454;0.5459525999904145;0.5559567000018433;0.6260088999988511;0.7560758999898098;0.8861677999957465;0.01
2;1;9;26;letter181;letter357;letter357;letter181;0;0;congruent;0.04;letter181;0.05;0.07;fullmask;0.2;arrow_left.png;up;0.5648780000046827;0.5706320999888703;256685.515966;c;0.6819660000037402;0.6902652000135276;256686.4040356;3.1999952625483274e-06;0.5018873999943025;0.5418548999878112;0.5518615999899339;0.6219373999920208;0.7520241999882273;0.8821184999833349;0.01
2;1;9;27;letter181;letter357;letter357;letter181;0;0;incongruent;0.04;letter357;0.05;0.07;fullmask;0.2;arrow_left.png;up;0.5353099000058137;0.5405688000028022;256688.4278022;c;0.49675989997922443;0.49871929999790154;256688.9317616;2.5999906938523054e-06;0.5021870999771636;0.5422141999879386;0.5522168999887072;0.6222876999818254;0.752341699990211;0.8824505999800749;0.01
2;1;9;28;letter181;letter357;letter357;letter181;0;0;congruent;0.04;letter357;0.05;0.07;fullmask;0.2;arrow_right.png;up;0.7374415999802295;0.7410450000024866;256691.1717856;m;0.5064635000017006;0.5076930000213906;256691.6837915;2.7999922167509794e-06;0.4963912999955937;0.5364257000037469;0.5464186000172049;0.6164670000143815;0.7465402999951039;0.8766399000014644;0.01
2;1;9;29;letter181;letter357;letter357;letter181;0;0;incongruent;0.04;letter181;0.05;0.07;fullmask;0.2;arrow_right.png;down;0.5495180999860168;0.5505889999913052;256693.7158718;m;0.4529368999938015;0.4578539000067394;256694.1718171;2.5999906938523054e-06;0.5013665999867953;0.541377299989108;0.5513754999847151;0.6217300999851432;0.7514855999907013;0.8816025999840349;0.01
2;1;9;30;letter181;letter357;letter357;letter181;0;0;incongruent;0.04;letter181;0.05;0.07;fullmask;0.2;arrow_right.png;down;0.49802480000653304;0.5006777000089642;256696.155783;m;0.42750389999127947;0.4277919000014663;256696.5878873;2.6999914553016424e-06;0.5008964999869931;0.540932600008091;0.5509304000006523;0.6209681000036653;0.7510507999977563;0.8811445999890566;0.01
2;1;9;31;letter181;letter357;letter357;letter181;0;0;incongruent;0.04;letter181;0.05;0.07;fullmask;0.2;arrow_right.png;down;0.5345394999894779;0.5406212999951094;256698.6038012;m;0.43992989999242127;0.44785899997805245;256699.0517488;2.700020559132099e-06;0.5033225000079256;0.5433503000240307;0.5533470000082161;0.6233864000241738;0.7534889000235125;0.8835647000232711;0.01
2;1;9;32;letter181;letter357;letter357;letter181;0;0;congruent;0.04;letter181;0.05;0.07;fullmask;0.2;arrow_left.png;down;0.46900570002617314;0.4709408000053372;256701.0198617;c;0.48420740000437945;0.48785180001868866;256701.5078349;2.6999914553016424e-06;0.5025452999980189;0.5425665999937337;0.552574299974367;0.6226023999915924;0.7526874999748543;0.8827880999888293;0.01
2;1;9;33;letter181;letter357;letter357;letter181;0;0;congruent;0.04;letter181;0.05;0.07;fullmask;0.2;arrow_left.png;down;0.5549612999893725;0.560561799997231;256703.5478022;c;0.5284549999923911;0.5376149999792688;256704.0837978;2.6999914553016424e-06;0.502995099988766;0.5429756999947131;0.553009800001746;0.6230374999868218;0.7531417999998666;0.8832242999924347;0.01
2;1;9;34;letter181;letter357;letter357;letter181;0;0;congruent;0.04;letter181;0.05;0.07;fullmask;0.2;arrow_left.png;down;0.45986240002093837;0.4607761000224855;256706.043769;c;0.5171897999825887;0.5186416999786161;256706.5638144;2.600019797682762e-06;0.5052305000135675;0.5452407000120729;0.5552343000017572;0.6252901999978349;0.7553785000054631;0.8854658000054769;0.01
2;1;9;35;letter181;letter357;letter357;letter181;0;1;congruent;0.12;letter357;0.14;0.07;fullmask;0.2;arrow_right.png;up;0.6141687000053935;0.6203834000043571;256708.7397862;m;0.5120926999952644;0.5189739000052214;256709.2600371;2.9999937396496534e-06;0.49625140000716783;0.6163400000077672;0.6363466000184417;0.7064033000206109;0.8364589000120759;0.9665923000138719;0.01
2;1;9;36;letter181;letter357;letter357;letter181;0;0;incongruent;0.04;letter357;0.05;0.07;fullmask;0.2;arrow_left.png;up;0.4803726999962237;0.4806912000058219;256711.2278844;c;0.5575710000121035;0.5585625999956392;256711.7877979;2.6999914553016424e-06;0.5026051999884658;0.542627699993318;0.5526436000072863;0.6226750999921933;0.752763500000583;0.8828156999952625;0.01
2;1;9;37;letter181;letter357;letter357;letter181;0;0;congruent;0.04;letter357;0.05;0.07;fullmask;0.2;arrow_right.png;down;0.6389237999974284;0.6403524999914225;256713.9078399;c;0.7978667999850586;0.8007413999876007;256714.9077095;2.9999937396496534e-06;0.4991460999881383;0.5391433999757282;0.5491591999889351;0.6192013999971095;0.7492816999729257;0.8793920999742113;0.01
2;1;9;38;letter181;letter357;letter357;letter181;0;0;congruent;0.04;letter357;0.05;0.07;fullmask;0.2;arrow_right.png;up;0.8446032999781892;0.8508153999864589;256717.2359445;m;0.7917742000136059;0.7979410000261851;256718.0358214;2.600019797682762e-06;0.499066300020786;0.5390775000269059;0.5490740000095684;0.6191232000128366;0.7491956000158098;0.8793051000102423;0.01
2;1;9;39;letter181;letter357;letter357;letter181;0;0;incongruent;0.04;letter357;0.05;0.07;fullmask;0.2;arrow_left.png;up;0.6383083999971859;0.6402999999991152;256720.171773;c;0.39606820000335574;0.3979881999839563;256720.5717739;2.8999929782003164e-06;0.503975299972808;0.5440008999721613;0.5539967999793589;0.6240393999905791;0.7541190999909304;0.8842212999879848;0.01
2;1;9;40;letter181;letter357;letter357;letter181;0;1;incongruent;0.12;letter181;0.14;0.07;fullmask;0.2;arrow_right.png;down;0.661023299995577;0.6710029999958351;256722.7958925;m;0.3959401000174694;0.39799200001289137;256723.203745;2.6999914553016424e-06;0.49720549999619834;0.6172716000000946;0.637281700008316;0.7073266000079457;0.837404299993068;0.9675100000167731;0.01
2;1;9;41;letter181;letter357;letter357;letter181;0;0;congruent;0.04;letter357;0.05;0.07;fullmask;0.2;arrow_right.png;up;0.44547419997979887;0.45071929998812266;256725.1317185;m;0.4169872999773361;0.4179567999963183;256725.5558975;2.600019797682762e-06;0.5018905000179075;0.5419183000049088;0.5519295000121929;0.6219554000126664;0.752052800002275;0.8821389999939129;0.01
2;1;9;42;letter181;letter357;letter357;letter181;0;0;incongruent;0.04;letter181;0.05;0.07;fullmask;0.2;arrow_right.png;down;0.49371270000119694;0.5007168000156526;256727.5317647;m;0.3671580000082031;0.36806919999071397;256727.9078677;2.600019797682762e-06;0.4997769000183325;0.5397845999978017;0.5497931000136305;0.6198025000048801;0.749906800017925;0.880004500009818;0.01
2;1;9;43;letter181;letter357;letter357;letter181;0;0;congruent;0.04;letter181;0.05;0.07;fullmask;0.2;arrow_left.png;down;0.6946425999922212;0.7010090999829117;256730.0837627;c;0.3677072999998927;0.3679890999919735;256730.4597965;2.5999906938523054e-06;0.4993405999848619;0.539369899983285;0.5493673000019044;0.6194161000021268;0.7494969999825116;0.8795893999922555;0.01
2;1;9;44;letter181;letter357;letter357;letter181;0;0;congruent;0.04;letter181;0.05;0.07;fullmask;0.2;arrow_left.png;down;0.4308193000033498;0.4408391000179108;256732.3718234;c;0.5483010000025388;0.5486716000013985;256732.9319817;2.5999906938523054e-06;0.5022612999891862;0.5422776000050362;0.5522792999981903;0.6226115000026766;0.7523989999899641;0.8824939999904018;0.01
2;1;9;45;letter181;letter357;letter357;letter181;0;0;congruent;0.04;letter357;0.05;0.07;fullmask;0.2;arrow_right.png;up;0.5430509999860078;0.55058700000518;256734.9557576;m;0.3985324999957811;0.40898749997722916;256735.3637679;2.6999914553016424e-06;0.502944000007119;0.5429658000066411;0.552983800007496;0.6230169000045862;0.7530895000090823;0.8831924000114668;0.01
2;1;9;46;letter181;letter357;letter357;letter181;0;0;incongruent;0.04;letter357;0.05;0.07;fullmask;0.2;arrow_left.png;up;0.42318189999787137;0.4299106999824289;256737.2678003;c;0.42325910000363365;0.4284998000075575;256737.6997239;2.800021320581436e-06;0.49683590000495315;0.5368607999989763;0.5468637000012677;0.6168984000105411;0.7469969000085257;0.8770367000252008;0.01
2;1;9;47;letter181;letter357;letter357;letter181;0;0;congruent;0.04;letter181;0.05;0.07;fullmask;0.2;arrow_left.png;down;0.41279420000500977;0.4205255999986548;256739.5884064;c;0.4057054999866523;0.4079679999849759;256740.0037212;2.9999937396496534e-06;0.49618369998643175;0.5362203999829944;0.5462268999835942;0.6162652999919374;0.7463533999980427;0.876414999976987;0.01
2;1;9;48;letter181;letter357;letter357;letter181;0;0;incongruent;0.04;letter181;0.05;0.07;fullmask;0.2;arrow_right.png;down;0.5146089999761898;0.5206691999919713;256742.0117634;m;0.32004910000250675;0.3281680000072811;256742.3398199;2.7999922167509794e-06;0.5049846000038087;0.5450017999974079;0.5549994999892078;0.6250466000055894;0.7551250999968033;0.8852346999919973;0.01
2;1;9;49;letter181;letter357;letter357;letter181;0;0;incongruent;0.04;letter181;0.05;0.07;fullmask;0.2;arrow_right.png;down;0.4787371999991592;0.4798700999817811;256744.3077534;m;0.41289330000290647;0.418931899999734;256744.7237203;2.8999929782003164e-06;0.5005496999947354;0.5405673999921419;0.550569999992149;0.620609500008868;0.7506875999970362;0.8807582000154071;0.01
2;1;9;50;letter181;letter357;letter357;letter181;0;0;congruent;0.04;letter357;0.05;0.07;fullmask;0.2;arrow_right.png;up;0.4096305000130087;0.4109443000052124;256746.6197986;m;0.42069400000036694;0.4279229999810923;256747.0437071;4.5000051613897085e-06;0.49807739999960177;0.538145300000906;0.5481476999993902;0.6181822000071406;0.7482615000044461;0.8783734999888111;0.01
2;1;9;51;letter181;letter357;letter357;letter181;0;0;incongruent;0.04;letter357;0.05;0.07;fullmask;0.2;arrow_left.png;down;0.3178024000080768;0.32015210000099614;256748.8597202;c;0.7731053000024986;0.7798239999974612;256749.8357359;2.5999906938523054e-06;0.5037765000015497;0.5437624999904074;0.5537824999773875;0.6238130999845453;0.7539095999964047;0.8839895999990404;0.01
2;1;9;52;letter181;letter357;letter357;letter181;0;0;incongruent;0.04;letter357;0.05;0.07;fullmask;0.2;arrow_left.png;up;0.44008169998414814;0.4498611000017263;256751.7637631;c;0.372236499999417;0.3790357999969274;256752.1477167;2.800021320581436e-06;0.4999518000113312;0.5399707000178751;0.5499698000203352;0.6200119999994058;0.7500847000046633;0.8801948000036646;0.01
2;1;10;1;letter181;letter357;letter357;letter181;0;0;incongruent;0.04;letter357;0.05;0.07;fullmask;0.2;arrow_left.png;down;0.393448199989507;0.3999766999913845;256777.2037124;c;0.5531763999897521;0.560635200003162;256777.9638634;2.7999922167509794e-06;0.500348200002918;0.5403646999911871;0.5503696999803651;0.6204294999770354;0.7504671000060625;0.8805903999891598;0.01
2;1;10;2;letter181;letter357;letter357;letter181;0;0;congruent;0.04;letter181;0.05;0.07;fullmask;0.2;arrow_left.png;down;0.9437202000117395;0.9505161999841221;256780.3957371;c;0.7432207000092603;0.7480511000030674;256781.1476956;2.8999929782003164e-06;0.4991036000137683;0.5391163000022061;0.5491264000011142;0.6191658999887295;0.7492412000137847;0.8793387000041548;0.01
2;1;10;3;letter181;letter357;letter357;letter181;0;0;incongruent;0.04;letter357;0.05;0.07;fullmask;0.2;arrow_left.png;up;0.4983637999976054;0.5007098999922164;256783.1318123;c;0.4597090999886859;0.4688047999807168;256783.5958023;2.6999914553016424e-06;0.4994952999986708;0.5395006999897305;0.5495117999962531;0.6195543000067119;0.7496293000003789;0.8797237999970093;0.01
2;1;10;4;letter181;letter357;letter357;letter181;0;0;congruent;0.04;letter181;0.05;0.07;fullmask;0.2;arrow_left.png;down;0.37469460000284016;0.38013990002218634;256785.4597287;c;0.4486398999870289;0.4487917000078596;256785.9157465;2.6999914553016424e-06;0.5009884999890346;0.5409939000091981;0.5510152000060771;0.6213411999924574;0.7511192999954801;0.8811568999954034;0.01
2;1;10;5;letter181;letter357;letter357;letter181;0;0;congruent;0.04;letter357;0.05;0.07;fullmask;0.2;arrow_right.png;up;0.42288910000934266;0.42991130001610145;256787.819721;m;0.4072150000138208;0.40913990000262856;256788.2358169;2.9999937396496534e-06;0.501518799981568;0.5415261999878567;0.5515228000003844;0.6215851999877486;0.7516446999798063;0.8817606999946292;0.01
2;1;10;6;letter181;letter357;letter357;letter181;0;0;incongruent;0.04;letter357;0.05;0.07;fullmask;0.2;arrow_left.png;up;0.3707602000213228;0.37924280000152066;256790.0996527;c;0.39769349998096004;0.3990590999892447;256790.5076961;2.5999906938523054e-06;0.5059326000045985;0.5459520999866072;0.555957300006412;0.6259767999872565;0.7560710999823641;0.8863515999983065;0.01
2;1;10;7;letter181;letter357;letter357;letter181;0;0;incongruent;0.04;letter357;0.05;0.07;fullmask;0.2;arrow_left.png;up;0.36555310001131147;0.37007160001667216;256792.3557027;c;0.4335600000049453;0.4378854000242427;256792.795716;2.6999914553016424e-06;0.5029345999937505;0.5429582000069786;0.5529737000179011;0.6232927000091877;0.7531036000000313;0.883182100020349;0.01
2;1;10;8;letter181;letter357;letter357;letter181;0;0;incongruent;0.04;letter181;0.05;0.07;fullmask;0.2;arrow_right.png;down;0.3707130999828223;0.3708440999907907;256794.6517353;m;0.39791020000120625;0.4079624000005424;256795.0517995;3.00002284348011e-06;0.5027669999981299;0.5427892000006977;0.5527903000183869;0.6228345000126865;0.7529170000052545;0.8830272000050172;0.01
2;1;10;9;letter181;letter357;letter357;letter181;0;0;incongruent;0.04;letter181;0.05;0.07;fullmask;0.2;arrow_right.png;down;0.3433771000127308;0.3512219999975059;256796.8757073;m;0.35855989999254234;0.36825889997999184;256797.2439461;2.6999914553016424e-06;0.4960858999984339;0.5360893000033684;0.5460986999969464;0.6161474999971688;0.746210199984489;0.8763128999853507;0.01
2;1;10;10;letter181;letter357;letter357;letter181;0;1;incongruent;0.12;letter181;0.14;0.07;fullmask;0.2;arrow_right.png;down;0.5638125999830663;0.5705338999978267;256799.387707;m;0.3513130000210367;0.35810890002176166;256799.7476771;2.9999937396496534e-06;0.5003883000172209;0.6204725000134204;0.6404806000064127;0.7105722000123933;0.8406105000176467;0.9706892000103835;0.01
2;1;10;11;letter181;letter357;letter357;letter181;0;0;congruent;0.04;letter181;0.05;0.07;fullmask;0.2;arrow_left.png;down;0.4080841000250075;0.40994510002201423;256801.6436999;c;0.4362517000117805;0.43898219999391586;256802.0837559;2.5999906938523054e-06;0.5041720999870449;0.5441986999940127;0.5542072000098415;0.6242242000007536;0.7542926000023726;0.8844158000138123;0.01
2;1;10;12;letter181;letter357;letter357;letter181;0;0;incongruent;0.04;letter181;0.05;0.07;fullmask;0.2;arrow_right.png;down;0.2609371999860741;0.2702151999983471;256803.8277983;m;0.41265159999602474;0.4189306999905966;256804.2516662;2.6999914553016424e-06;0.49907469999743626;0.5390858999744523;0.5491040999768302;0.619152999977814;0.7492327999789268;0.8793178999912925;0.01
2;1;10;13;letter181;letter357;letter357;letter181;0;0;congruent;0.04;letter357;0.05;0.07;fullmask;0.2;arrow_right.png;up;0.3854962000041269;0.390884599997662;256806.1237087;m;0.6006407999957446;0.60842559998855;256806.7316724;2.600019797682762e-06;0.497877600020729;0.5379013000056148;0.5479157000081614;0.6179437000246253;0.7480337000160944;0.8781208000145853;0.01
2;1;10;14;letter181;letter357;letter357;letter181;0;0;congruent;0.04;letter357;0.05;0.07;fullmask;0.2;arrow_right.png;up;0.48739940000814386;0.4897503000102006;256808.7077081;m;0.4277328999887686;0.4289363999851048;256809.1397073;2.900022082030773e-06;0.5001049000129569;0.5400937000231352;0.5501081999973394;0.620141200022772;0.7502230000100099;0.8803163999982644;0.01
2;1;10;15;letter181;letter357;letter357;letter181;0;0;congruent;0.04;letter357;0.05;0.07;fullmask;0.2;arrow_right.png;up;0.33394479998969473;0.3401548999827355;256810.9556926;m;0.3918245999957435;0.3979869000031613;256811.3556622;3.1999952625483274e-06;0.5023055000056047;0.5423210999870207;0.5523341999796685;0.6226619000080973;0.7524580000026617;0.8825401999929454;0.01
2;1;10;16;letter181;letter357;letter357;letter181;0;0;congruent;0.04;letter181;0.05;0.07;fullmask;0.2;arrow_left.png;down;0.25020959999528714;0.2593549000157509;256813.0837039;c;0.4128756000136491;0.4189304999890737;256813.507665;2.6999914553016424e-06;0.49686040001688525;0.536875499994494;0.5468984000035562;0.6169166000036057;0.7470185999991372;0.8770964000141248;0.01
2;1;10;17;letter181;letter357;letter357;letter181;0;1;congruent;0.12;letter181;0.14;0.07;fullmask;0.2;arrow_left.png;down;0.6230025000113528;0.630638300004648;256815.7080417;c;0.39820649998728186;0.40778720000525936;256816.1157228;2.7999922167509794e-06;0.4996285999950487;0.6196623999858275;0.6397133999853395;0.709730300004594;0.8398367000045255;0.9699121000012383;0.01
2;1;10;18;letter181;letter357;letter357;letter181;0;0;incongruent;0.04;letter357;0.05;0.07;fullmask;0.2;arrow_left.png;up;0.3715882000105921;0.3800537000061013;256817.9877134;c;0.4135502999997698;0.418933199980529;256818.4116591;2.7999922167509794e-06;0.5039713000005577;0.5439910000131931;0.5540355000121053;0.6240737999905832;0.7541413999861106;0.884236999991117;0.01
2;1;10;19;letter181;letter357;letter357;letter181;0;0;congruent;0.04;letter181;0.05;0.07;fullmask;0.2;arrow_left.png;down;0.4023266999865882;0.4109619999944698;256820.2996837;c;0.4454035999951884;0.44785729999421164;256820.7556603;2.5999906938523054e-06;0.4978603000054136;0.5378430999990087;0.5478870999941137;0.6179048999911174;0.7479893999989145;0.8780796999926679;0.01
2;1;10;20;letter181;letter357;letter357;letter181;0;0;congruent;0.04;letter357;0.05;0.07;fullmask;0.2;arrow_right.png;up;0.61887839998235;0.6206137999834027;256822.8677363;m;0.4126009999890812;0.4190375999896787;256823.2838855;2.6999914553016424e-06;0.5035937000066042;0.5436102999956347;0.553630600014003;0.6236515000055078;0.7537278000090737;0.8837971999892034;0.01
2;1;10;21;letter181;letter357;letter357;letter181;0;0;incongruent;0.04;letter181;0.05;0.07;fullmask;0.2;arrow_right.png;down;0.4552024999866262;0.4608226999989711;256825.2356968;m;0.3283975999802351;0.33814469998469576;256825.5716566;2.5999906938523054e-06;0.5007811000104994;0.5407938999996986;0.5508090000075754;0.6208528999995906;0.7509444000024814;0.8810259999881964;0.01
2;1;10;22;letter181;letter357;letter357;letter181;0;0;congruent;0.04;letter357;0.05;0.07;fullmask;0.2;arrow_right.png;up;0.3398757000104524;0.3411511000012979;256827.4517192;m;0.41271239999332465;0.4179336999950465;256827.8676445;2.9999937396496534e-06;0.5054419999942183;0.5454610000015236;0.5554903999727685;0.6258335999737028;0.7556045999808703;0.885698499972932;0.01
2;1;10;23;letter181;letter357;letter357;letter181;0;0;congruent;0.04;letter181;0.05;0.07;fullmask;0.2;arrow_left.png;down;0.2903222000168171;0.3002600000181701;256829.6437563;c;0.41204369999468327;0.418938499991782;256830.0676699;2.7999922167509794e-06;0.49630689999321476;0.5363512999902014;0.5463263000128791;0.6163713000132702;0.746443400013959;0.8765561000036541;0.01
2;1;10;24;letter181;letter357;letter357;letter181;0;0;incongruent;0.04;letter357;0.05;0.07;fullmask;0.2;arrow_left.png;up;0.3933909999905154;0.40104409999912605;256831.9480915;c;0.4783217000076547;0.4888470000005327;256832.4359033;2.8999929782003164e-06;0.49710249999770895;0.537128500000108;0.5471475999802351;0.6172011999879032;0.7472772999899462;0.877351599978283;0.01
2;1;10;25;letter181;letter357;letter357;letter181;0;0;incongruent;0.04;letter181;0.05;0.07;fullmask;0.2;arrow_right.png;down;0.2930624000146054;0.30025600001681596;256834.2196866;m;0.42282899998826906;0.4279081000131555;256834.6516502;3.0999945010989904e-06;0.5045510999916587;0.5445745999750216;0.554592300002696;0.624619399983203;0.754707399988547;0.8848002000013366;0.01
2;1;10;26;letter181;letter357;letter357;letter181;0;0;congruent;0.04;letter357;0.05;0.07;fullmask;0.2;arrow_right.png;up;0.2656143000058364;0.27037230000132695;256836.4037341;m;0.4173187999986112;0.417934700002661;256836.8277429;2.6999914553016424e-06;0.49824819999048486;0.5382669999962673;0.5482718999846838;0.618603599985363;0.7483890999865253;0.8784955999872182;0.01
2;1;10;27;letter181;letter357;letter357;letter181;0;0;congruent;0.04;letter181;0.05;0.07;fullmask;0.2;arrow_left.png;down;0.4379019000043627;0.43993580000824295;256838.7477676;c;0.331865000014659;0.33814150001853704;256839.083615;2.7999922167509794e-06;0.4961646999872755;0.5361815999785904;0.5462109999789391;0.6162339999864344;0.7463454999960959;0.8764099999971222;0.01
2;1;10;28;letter181;letter357;letter357;letter181;0;0;congruent;0.04;letter181;0.05;0.07;fullmask;0.2;arrow_left.png;down;0.3287502999883145;0.33019909998984076;256840.8999306;c;0.38836179999634624;0.39800769998691976;256841.2916396;2.5999906938523054e-06;0.4974031000165269;0.5373898000107147;0.547397100017406;0.6174222000117879;0.747511299996404;0.87760989999515;0.01
2;1;10;29;letter181;letter357;letter357;letter181;0;0;congruent;0.04;letter357;0.05;0.07;fullmask;0.2;arrow_right.png;up;0.37147949999780394;0.3800545000121929;256843.1636711;m;0.37345370001276024;0.37903820001520216;256843.54764;2.6999914553016424e-06;0.5058172999997623;0.5458396000030916;0.5558660999813583;0.625879300001543;0.7559665000007953;0.8860716999915894;0.01
2;1;10;30;letter181;letter357;letter357;letter181;0;0;incongruent;0.04;letter357;0.05;0.07;fullmask;0.2;arrow_left.png;up;0.3759148999815807;0.380043699988164;256845.41968;c;0.42590959998779;0.428912000003038;256845.8516534;2.5999906938523054e-06;0.5007516999903601;0.5407751000020653;0.5507945999852382;0.6208156999782659;0.7509289000008721;0.8809915999881923;0.01
2;1;10;31;letter181;letter357;letter357;letter181;0;1;congruent;0.12;letter357;0.14;0.07;fullmask;0.2;arrow_right.png;up;0.36883260001195595;0.3711667000025045;256847.8038398;m;0.3557045999914408;0.358199499984039;256848.1637148;2.7999922167509794e-06;0.5034454000124242;0.6235371000075247;0.6435445999959484;0.7135642000066582;0.8436603999871295;0.9737041000043973;0.01
2;1;10;32;letter181;letter357;letter357;letter181;0;0;congruent;0.04;letter357;0.05;0.07;fullmask;0.2;arrow_right.png;up;0.7972136000171304;0.8009189000003971;256850.4436631;m;0.33833189998404123;0.3481215999927372;256850.7876404;2.7999922167509794e-06;0.4986002999939956;0.5386117000016384;0.5486531000060495;0.6186340000131167;0.7487657000019681;0.878840899997158;0.01
2;1;10;33;letter181;letter357;letter357;letter181;0;0;incongruent;0.04;letter357;0.05;0.07;fullmask;0.2;arrow_left.png;up;0.48741999999037944;0.490747800009558;256852.7556557;c;0.4427404999732971;0.44786079999175854;256853.2036582;2.800021320581436e-06;0.49428540002554655;0.5342916000226978;0.5442928000120446;0.6143316000234336;0.7444077999971341;0.8744757000240497;0.01
2;1;10;34;letter181;letter357;letter357;letter181;0;0;congruent;0.04;letter357;0.05;0.07;fullmask;0.2;arrow_right.png;up;0.4335902000020724;0.4398695999989286;256855.1238904;c;0.4316193000122439;0.43886349999229424;256855.5636215;2.6999914553016424e-06;0.49616350000724196;0.5361907999904361;0.5462013999931514;0.6162342999887187;0.7463340999966022;0.8764035000058357;0.01
2;1;10;35;letter181;letter357;letter357;letter181;0;0;incongruent;0.04;letter181;0.05;0.07;fullmask;0.2;arrow_right.png;down;0.5999242999823764;0.6002406999759842;256857.6517125;m;0.4295787999872118;0.4378830000059679;256858.0836241;2.6999914553016424e-06;0.4978222000063397;0.5378500999941025;0.5478440999868326;0.6178852999873925;0.7479605000116862;0.8780612999980804;0.01
2;1;10;36;letter181;letter357;letter357;letter181;0;0;incongruent;0.04;letter181;0.05;0.07;fullmask;0.2;arrow_right.png;down;0.3824372999952175;0.3899908999737818;256859.9557061;m;0.3744147000252269;0.3780507000046782;256860.3396353;2.5999906938523054e-06;0.498965800012229;0.5389818999974523;0.5490025999897625;0.6190311000100337;0.7491286000004038;0.8792114999960177;0.01
2;1;10;37;letter181;letter357;letter357;letter181;0;0;incongruent;0.04;letter181;0.05;0.07;fullmask;0.2;arrow_right.png;down;0.8331845999928191;0.840841500001261;256862.667856;m;0.36629679999896325;0.3681726999930106;256863.0436487;2.6999914553016424e-06;0.5035181999846827;0.5436049000127241;0.5535878000082448;0.6236260999867227;0.753706699993927;0.8837992000044324;0.01
2;1;10;38;letter181;letter357;letter357;letter181;0;0;congruent;0.04;letter181;0.05;0.07;fullmask;0.2;arrow_left.png;down;0.7634657000016887;0.7709996000048704;256865.2996731;c;0.3825109000026714;0.3880168000177946;256865.6916575;2.5999906938523054e-06;0.5018991999968421;0.5419322999950964;0.5519366999797057;0.6219552999828011;0.7520569000043906;0.8821380999870598;0.01
2;1;10;39;letter181;letter357;letter357;letter181;0;0;congruent;0.04;letter181;0.05;0.07;fullmask;0.2;arrow_left.png;down;0.49803509999765083;0.5006832999933977;256867.6756393;c;0.4674894000054337;0.4687904000165872;256868.1477228;2.6999914553016424e-06;0.4989898999920115;0.5389904000039678;0.5489971000060905;0.6190398999897297;0.7491104000073392;0.8792157999996562;0.01
2;1;10;40;letter181;letter357;letter357;letter181;0;0;incongruent;0.04;letter357;0.05;0.07;fullmask;0.2;arrow_left.png;up;0.4303702000179328;0.4309330999967642;256870.0597375;c;0.41352619999088347;0.4180564999987837;256870.4757211;2.700020559132099e-06;0.5042765999969561;0.5443041000107769;0.5542982000042684;0.624357599997893;0.7544292000238784;0.8845342000131495;0.01
2;1;10;41;letter181;letter357;letter357;letter181;0;0;incongruent;0.04;letter181;0.05;0.07;fullmask;0.2;arrow_right.png;down;0.25102930000866763;0.2604655000031926;256872.2118865;m;0.412603599979775;0.4189538999926299;256872.6357693;2.700020559132099e-06;0.5045505000161938;0.5445601000101306;0.554572900000494;0.6245991000032518;0.7546838000125717;0.8847915999940597;0.01
2;1;10;42;letter181;letter357;letter357;letter181;0;0;incongruent;0.04;letter357;0.05;0.07;fullmask;0.2;arrow_left.png;up;0.19358260001172312;0.2005252999952063;256874.3156536;c;0.33518460000050254;0.3381474000052549;256874.65972;2.7999922167509794e-06;0.5033014999935403;0.5433005999948364;0.5533183999941684;0.6233392000140157;0.7534468999947421;0.8835215000144672;0.01
2;1;10;43;letter181;letter357;letter357;letter181;0;0;incongruent;0.04;letter357;0.05;0.07;fullmask;0.2;arrow_left.png;down;0.5883156000054441;0.5903424000134692;256876.7316298;c;0.8615119999740273;0.8706858999794349;256877.7956158;2.5999906938523054e-06;0.498119099996984;0.5381356999860145;0.5481261000095401;0.6181684999901336;0.7482442999898922;0.8783526000042912;0.01
2;1;10;44;letter181;letter357;letter357;letter181;0;0;congruent;0.04;letter357;0.05;0.07;fullmask;0.2;arrow_right.png;down;0.6544155000010505;0.6613978999957908;256879.9397298;m;1.4334921999834478;1.4411029999901075;256881.5796071;3.2999960239976645e-06;0.5016269000188913;0.541642199998023;0.5516479999932926;0.621683600009419;0.7517719000170473;0.8818690000043716;0.01
2;1;10;45;letter181;letter357;letter357;letter181;0;0;incongruent;0.04;letter181;0.05;0.07;fullmask;0.2;arrow_right.png;down;0.37547619998804294;0.38004459999501705;256883.44365;m;0.5694615000102203;0.5785014000139199;256884.0196225;2.4999899324029684e-06;0.5035020000068471;0.543518699996639;0.553527700016275;0.6235567000112496;0.7536532999947667;0.8837496000051033;0.01
2;1;10;46;letter181;letter357;letter357;letter181;0;0;incongruent;0.04;letter181;0.05;0.07;fullmask;0.2;arrow_right.png;down;0.2863214000244625;0.2902291000063997;256885.795703;m;0.378106200019829;0.37903199999709614;256886.1796659;2.4999899324029684e-06;0.4978329000005033;0.5378548000007868;0.5478677999926731;0.6179071000078693;0.7479910000110976;0.8780763999966439;0.01
2;1;10;47;letter181;letter357;letter357;letter181;0;0;incongruent;0.04;letter357;0.05;0.07;fullmask;0.2;arrow_left.png;up;0.8464564000023529;0.850802200002363;256888.5076155;c;0.42578959997626953;0.42792449999251403;256888.9396582;2.7999922167509794e-06;0.5036108999920543;0.5436268000048585;0.5536312999902293;0.6239591999910772;0.7537355999811552;0.8838426999864168;0.01
2;1;10;48;letter181;letter357;letter357;letter181;0;1;incongruent;0.12;letter357;0.14;0.07;fullmask;0.2;arrow_left.png;up;0.3310205000161659;0.3401517000165768;256890.8436361;c;0.3968975999741815;0.3989819999842439;256891.2516075;2.600019797682762e-06;0.5024172000121325;0.6224874000181444;0.6425075000151992;0.7125334000156727;0.8426360000157729;0.9727143000054639;0.01
2;1;10;49;letter181;letter357;letter357;letter181;0;0;congruent;0.04;letter357;0.05;0.07;fullmask;0.2;arrow_right.png;up;0.8110593000019435;0.820972100016661;256893.5556387;m;0.33237840002402663;0.3382554000127129;256893.8997579;2.800021320581436e-06;0.5041690000216477;0.5441960000025574;0.5541967000172008;0.6242325000057463;0.7543353000073694;0.8844181000022218;0.01
2;1;10;50;letter181;letter357;letter357;letter181;0;0;congruent;0.04;letter181;0.05;0.07;fullmask;0.2;arrow_left.png;down;0.40120640001259744;0.40996660001110286;256895.7876307;c;0.41326269999262877;0.4179336999950465;256896.2115919;2.800021320581436e-06;0.4972804000135511;0.5373218000167981;0.547307600005297;0.6173531000094954;0.7474293000122998;0.8775267000019085;0.01
2;1;10;51;letter181;letter357;letter357;letter181;0;0;congruent;0.04;letter181;0.05;0.07;fullmask;0.2;arrow_left.png;down;0.37018610001541674;0.38004310001269914;256898.0676884;c;0.36409719998482615;0.3690583999850787;256898.4435847;2.8999929782003164e-06;0.49531880000722595;0.5353347999916878;0.5453558000153862;0.6153747999924235;0.7454708000004757;0.8755684999923687;0.01
2;1;10;52;letter181;letter357;letter357;letter181;0;0;incongruent;0.04;letter181;0.05;0.07;fullmask;0.2;arrow_right.png;down;0.4427299000089988;0.4508555000065826;256900.3716716;m;0.3339278000057675;0.3382199000043329;256900.715666;2.6999914553016424e-06;0.4967491000134032;0.5367873999930453;0.5467975999927148;0.6167857999971602;0.7469077999994624;0.8769976999901701;0.01
2;2;17;1;letter169;letter190;letter190;letter169;0;0;incongruent;0.04;letter190;0.09;0.07;fullmask;0.2;arrow_left.png;up;0.341714599984698;0.35025319998385385;257786.2189099;m;1.1735373999981675;1.1790086000110023;257787.4029158;2.6999914553016424e-06;0.5019309999770485;0.541946299985284;0.5919417999975849;0.6620122999884188;0.7920881999889389;0.9222196999762673;0.01
2;2;17;2;letter169;letter190;letter190;letter169;0;0;congruent;0.04;letter190;0.09;0.07;fullmask;0.2;arrow_right.png;up;1.056920100003481;1.060224199987715;257789.986883;m;0.4667607999872416;0.46879809998790734;257790.4588879;2.7999922167509794e-06;0.5038380000041798;0.5438438999990467;0.59387740000966;0.663932700001169;0.7939671000058297;0.92410080000991;0.01
2;2;17;3;letter169;letter190;letter190;letter169;0;0;congruent;0.04;letter190;0.09;0.07;fullmask;0.2;arrow_right.png;up;0.5828228000027593;0.5894389000022784;257792.5548979;m;0.3434062000014819;0.34910009999293834;257792.9068801;2.6999914553016424e-06;0.4969052000087686;0.5369298000005074;0.5869626000057906;0.6569957000028808;0.7870709999988321;0.9171759999881033;0.01
2;2;17;4;letter169;letter190;letter190;letter169;0;0;congruent;0.04;letter169;0.09;0.07;fullmask;0.2;arrow_left.png;down;0.32010140002239496;0.3209822000062559;257794.7629283;c;0.37342090002493933;0.37816300001577474;257795.1391243;2.9999937396496534e-06;0.5059964999963995;0.546019300003536;0.5960557000071276;0.6663892999931704;0.7961596999957692;0.9262668000010308;0.01
2;2;17;5;letter169;letter190;letter190;letter169;0;0;congruent;0.04;letter169;0.09;0.07;fullmask;0.2;arrow_left.png;down;0.154637300001923;0.16063220001524314;257796.8188938;c;0.4400184999976773;0.44785480000427924;257797.2668463;3.0999945010989904e-06;0.49516140000196174;0.5351821999938693;0.5852098999894224;0.655248399998527;0.7853228999883868;0.9154477000120096;0.01
2;2;17;6;letter169;letter190;letter190;letter169;0;1;congruent;0.12;letter190;0.18;0.07;fullmask;0.2;arrow_right.png;up;0.3966780999908224;0.39999219999299385;257799.2829629;m;0.3626266999926884;0.3682892000069842;257799.6508437;2.9999937396496534e-06;0.49772369998390786;0.6177873999986332;0.6778348999796435;0.7478586999932304;0.8779662999731954;1.0080392999807373;0.01
2;2;17;7;letter169;letter190;letter190;letter169;0;0;incongruent;0.04;letter169;0.09;0.07;fullmask;0.2;arrow_right.png;down;0.5593036000209395;0.5605560000112746;257801.7469174;m;0.4047560000035446;0.40796510002110153;257802.154865;2.700020559132099e-06;0.5060013000038452;0.5460051000118256;0.5960457000182942;0.66606899999897;0.7961574000073597;0.9262501000193879;0.01
2;2;17;8;letter169;letter190;letter190;letter169;0;0;incongruent;0.04;letter169;0.09;0.07;fullmask;0.2;arrow_right.png;down;1.7242552999814507;1.7315311999991536;257805.4031032;m;0.4306417999905534;0.4378839999844786;257805.8428554;2.5999906938523054e-06;0.49681899999268353;0.5368427000066731;0.5868637000094168;0.6569091000128537;0.7869813999859616;0.9170887999935076;0.01
2;2;17;9;letter169;letter190;letter190;letter169;0;0;incongruent;0.04;letter190;0.09;0.07;fullmask;0.2;arrow_left.png;up;0.41506219998700544;0.4199374000017997;257807.7868677;c;0.3931530000118073;0.3979844000132289;257808.1868396;2.900022082030773e-06;0.5055720000236761;0.5455909000011161;0.5956200000073295;0.6656398000195622;0.7957331000070553;0.9258297000196762;0.01
2;2;17;10;letter169;letter190;letter190;letter169;0;0;congruent;0.04;letter169;0.09;0.07;fullmask;0.2;arrow_left.png;down;0.4083305999811273;0.4110577999963425;257810.1309379;c;0.41159570001764223;0.4180396000156179;257810.5470978;2.6999914553016424e-06;0.5007946999976411;0.540814500011038;0.5908430000126828;0.6608949000074062;0.7909731999970973;0.9210633999900892;0.01
2;2;17;11;letter169;letter190;letter190;letter169;0;0;congruent;0.04;letter190;0.09;0.07;fullmask;0.2;arrow_right.png;up;0.4244771999947261;0.42990990000544116;257812.4988645;m;0.36062870000023395;0.36906810000073165;257812.8668663;2.5999906938523054e-06;0.49856790000922047;0.5385819000075571;0.5886145000113174;0.6586568999919109;0.7887401999905705;0.9188493000110611;0.01
2;2;17;12;letter169;letter190;letter190;letter169;0;0;incongruent;0.04;letter190;0.09;0.07;fullmask;0.2;arrow_left.png;up;0.48951620000298135;0.4907481000118423;257814.8751793;c;0.4204842000035569;0.4279102000000421;257815.2988325;2.7999922167509794e-06;0.49484979998669587;0.5348844999971334;0.5849025000061374;0.6549406000121962;0.7850271000061184;0.915134599985322;0.01
2;2;17;13;letter169;letter190;letter190;letter169;0;0;incongruent;0.04;letter169;0.09;0.07;fullmask;0.2;arrow_right.png;down;0.35755370001425035;0.3600977000023704;257817.1949076;m;0.36371500001405366;0.369179700006498;257817.5631008;2.5999906938523054e-06;0.5032869999995455;0.5432828000048175;0.5933136999956332;0.6633556000015233;0.7934272999991663;0.92351900000358;0.01
2;2;17;14;letter169;letter190;letter190;letter169;0;0;congruent;0.04;letter190;0.09;0.07;fullmask;0.2;arrow_right.png;up;0.4261242000211496;0.43100150002283044;257819.5149347;m;0.45736450000549667;0.4578190000029281;257819.9790142;2.5999906938523054e-06;0.4989683000021614;0.5389847000187729;0.5890132999920752;0.6590667999989819;0.7891288000100758;0.9192278000118677;0.01
2;2;17;15;letter169;letter190;letter190;letter169;0;0;congruent;0.04;letter169;0.09;0.07;fullmask;0.2;arrow_left.png;down;0.2207429999834858;0.23044379998464137;257821.7308693;c;0.4204879999742843;0.42850349997752346;257822.1629983;2.7999922167509794e-06;0.5011865999840666;0.5412189000053331;0.591251599980751;0.6615804999892134;0.7913714000023901;0.9214722999895457;0.01
2;2;17;16;letter169;letter190;letter190;letter169;0;0;incongruent;0.04;letter190;0.09;0.07;fullmask;0.2;arrow_left.png;up;0.42311969998991117;0.43076920000021346;257824.1148717;c;0.342370900005335;0.34812549999332987;257824.466828;2.5999906938523054e-06;0.4978283999953419;0.5378565000137314;0.587885599990841;0.6579218000115361;0.7879984999890439;0.9181094999948982;0.01
2;2;17;17;letter169;letter190;letter190;letter169;0;0;congruent;0.04;letter169;0.09;0.07;fullmask;0.2;arrow_left.png;down;0.5778438000124879;0.5803654000046663;257826.5708638;c;0.3955091999960132;0.39899220000370406;257826.9708288;2.5999906938523054e-06;0.4950671999831684;0.5350788999930955;0.5851282000076026;0.6551580999803264;0.7852396999951452;0.9153331999841612;0.01
2;2;17;18;letter169;letter190;letter190;letter169;0;0;incongruent;0.04;letter169;0.09;0.07;fullmask;0.2;arrow_right.png;down;0.3001458000217099;0.31023120001191273;257828.7949768;m;0.3479514000064228;0.35827520000748336;257829.1549576;2.6999914553016424e-06;0.4979174999753013;0.5379287999821827;0.5879767999867909;0.6579925999976695;0.7880807999754325;0.9181816999916919;0.01
2;2;17;19;letter169;letter190;letter190;letter169;0;0;incongruent;0.04;letter190;0.09;0.07;fullmask;0.2;arrow_left.png;up;0.2839364999963436;0.2892881000007037;257830.9708866;c;0.4166792999894824;0.4189582999970298;257831.3948514;2.7999922167509794e-06;0.49870119997649454;0.538723099976778;0.5887572999927215;0.6587959999742452;0.7889061000023503;0.9189760999870487;0.01
2;2;17;20;letter169;letter190;letter190;letter169;0;0;incongruent;0.04;letter190;0.09;0.07;fullmask;0.2;arrow_left.png;up;0.42907119999290444;0.42991239999537356;257833.3468988;c;0.3813930000178516;0.3892018999904394;257833.7310744;2.400018274784088e-06;0.49638970001251437;0.5364098999998532;0.5864456999988761;0.6564828999980818;0.7865668000013102;0.916660699993372;0.01
2;2;17;21;letter169;letter190;letter190;letter169;0;0;congruent;0.04;letter190;0.09;0.07;fullmask;0.2;arrow_right.png;up;0.375787400000263;0.38106129999505356;257835.6348846;m;0.3687639000127092;0.37805730002583005;257836.0108245;3.00002284348011e-06;0.5026493000041228;0.5426904000050854;0.5927002000098582;0.6627451000094879;0.7928333000163548;0.9229430000123102;0.01
2;2;17;22;letter169;letter190;letter190;letter169;0;0;congruent;0.04;letter169;0.09;0.07;fullmask;0.2;arrow_left.png;down;0.22162379999645054;0.23040279999258928;257837.7628355;c;0.4215638999885414;0.4279898999957368;257838.1950374;3.7999998312443495e-06;0.5016836999857333;0.5416987999924459;0.5917351999960374;0.661769500002265;0.7918708999932278;0.9219481000036467;0.01
2;2;17;23;letter169;letter190;letter190;letter169;0;1;congruent;0.12;letter169;0.18;0.07;fullmask;0.2;arrow_left.png;down;0.5269769000005908;0.5307438000163529;257840.3389451;c;0.43434419998084195;0.4389843999815639;257840.7788904;2.7999922167509794e-06;0.5021637999743689;0.6222398999962024;0.6822541999863461;0.7522970999998506;0.8823835999937728;1.0124680000008084;0.01
2;2;17;24;letter169;letter190;letter190;letter169;0;0;congruent;0.04;letter190;0.09;0.07;fullmask;0.2;arrow_right.png;up;0.29897660002461635;0.3002565000206232;257842.6028637;m;0.3727414000022691;0.3780399000097532;257842.9788252;2.700020559132099e-06;0.4993654999998398;0.5393886000092607;0.5894189999962691;0.6594692000071518;0.7895516999997199;0.9196509000030346;0.01
2;2;17;25;letter169;letter190;letter190;letter169;0;0;incongruent;0.04;letter169;0.09;0.07;fullmask;0.2;arrow_right.png;down;0.5316224000125658;0.5405693000066094;257845.0268588;m;0.36505639998358674;0.3680595999758225;257845.4028094;2.700020559132099e-06;0.49705880001420155;0.5370803000114392;0.5871194000064861;0.6571470000199042;0.7872375000151806;0.9173375000245869;0.01
2;2;17;26;letter169;letter190;letter190;letter169;0;0;incongruent;0.04;letter169;0.09;0.07;fullmask;0.2;arrow_right.png;down;0.30796879998524673;0.3102307000081055;257847.2348358;m;0.36378119999426417;0.3680661999969743;257847.6028191;2.700020559132099e-06;0.5049789000186138;0.5450043000164442;0.5950493999989703;0.6650665000197478;0.7951717000105418;0.9252504000032786;0.01
2;2;17;27;letter169;letter190;letter190;letter169;0;0;incongruent;0.04;letter169;0.09;0.07;fullmask;0.2;arrow_right.png;down;0.1789040000003297;0.18067939998582006;257849.3070197;m;0.36425700000836514;0.3681755000143312;257849.6748862;2.5999906938523054e-06;0.49709350001649;0.5371412000095006;0.5871499000058975;0.6571648000099231;0.7872778000019025;0.9173713999916799;0.01
2;2;17;28;letter169;letter190;letter190;letter169;0;0;incongruent;0.04;letter169;0.09;0.07;fullmask;0.2;arrow_right.png;down;0.2995898999797646;0.300255299982382;257851.4988938;m;0.35730219999095425;0.35809209998114966;257851.858805;2.3999891709536314e-06;0.5030996999994386;0.5430836000014096;0.5931366999866441;0.6631473999877926;0.7932365000015125;0.9233392000023741;0.01
2;2;17;29;letter169;letter190;letter190;letter169;0;0;congruent;0.04;letter169;0.09;0.07;fullmask;0.2;arrow_left.png;up;0.2780045999970753;0.2803090999950655;257853.658918;c;0.4131393999850843;0.4198954000021331;257854.2748087;2.8999929782003164e-06;0.5010912999860011;0.5411044999782462;0.5911330999806523;0.6611711999867111;0.7912541999830864;0.9213765999884345;0.01
2;2;17;30;letter169;letter190;letter190;letter169;0;0;incongruent;0.04;letter190;0.09;0.07;fullmask;0.2;arrow_left.png;up;0.32023329997900873;0.3300407999777235;257856.1229273;c;0.39613639999879524;0.397988799988525;257856.5308007;2.5999906938523054e-06;0.5004277999978513;0.5404507999774069;0.5904860999726225;0.6605206999811344;0.7906114999786951;0.9209841999982018;0.01
2;2;17;31;letter169;letter190;letter190;letter169;0;0;congruent;0.04;letter169;0.09;0.07;fullmask;0.2;arrow_left.png;down;0.18726859998423606;0.19044959999155253;257858.2508667;c;0.41886870001326315;0.42890200001420453;257858.6748612;2.7999922167509794e-06;0.5055156000016723;0.5455501999822445;0.5955741999787278;0.665615899983095;0.7956906000035815;0.9257909999869298;0.01
2;2;17;32;letter169;letter190;letter190;letter169;0;0;congruent;0.04;letter190;0.09;0.07;fullmask;0.2;arrow_right.png;up;0.36572719999821857;0.3700701000052504;257860.5708323;m;0.36171440000180155;0.36906330002238974;257860.9388292;2.9999937396496534e-06;0.5003766999871004;0.5403924999991432;0.5904239999945275;0.6604431000014301;0.7905394999834243;0.9206341999815777;0.01
2;2;17;33;letter169;letter190;letter190;letter169;0;1;incongruent;0.12;letter169;0.18;0.07;fullmask;0.2;arrow_right.png;down;0.22159540001302958;0.22944510000525042;257862.7788347;m;0.38217890000669286;0.3890225999930408;257863.1707987;2.6999914553016424e-06;0.50491809999221;0.6249919999972917;0.6850494999962393;0.7550702999869827;0.8851690999872517;1.0152537999965716;0.01
2;2;17;34;letter169;letter190;letter190;letter169;0;0;congruent;0.04;letter190;0.09;0.07;fullmask;0.2;arrow_right.png;up;0.24701920000370592;0.25048550000065006;257864.9548886;m;0.3546988999878522;0.3591947999957483;257865.3148909;2.500019036233425e-06;0.5033642000053078;0.5433672000071965;0.5934051000222098;0.6634367000078782;0.7935274000046775;0.9236253999988548;0.01
2;2;17;35;letter169;letter190;letter190;letter169;0;0;congruent;0.04;letter169;0.09;0.07;fullmask;0.2;arrow_left.png;down;0.36360660000354983;0.37023520001093857;257867.202838;c;0.5033889999904204;0.50869089999469;257867.7147981;2.4999899324029684e-06;0.4967142000095919;0.5367277000041213;0.5867746000003535;0.6567956999933813;0.7868857999856118;0.9169905000017025;0.01
2;2;17;36;letter169;letter190;letter190;letter169;0;0;incongruent;0.04;letter190;0.09;0.07;fullmask;0.2;arrow_left.png;up;0.38611110000056215;0.39109640000970103;257869.6268337;c;0.36903189998702146;0.3780452999926638;257870.0027886;2.5999906938523054e-06;0.4980840999924112;0.5380726000003051;0.5881348999973852;0.6581547999812756;0.7882382999814581;0.9183152999903541;0.01
2;2;17;37;letter169;letter190;letter190;letter169;0;0;incongruent;0.04;letter169;0.09;0.07;fullmask;0.2;arrow_right.png;down;0.6623941999860108;0.6702669999795035;257872.1948154;m;0.2861581000033766;0.2882802000094671;257872.4907857;2.800021320581436e-06;0.4967541999940295;0.5367548000067472;0.5867986000084784;0.656808200001251;0.7869136999943294;0.9170203999965452;0.01
2;2;17;38;letter169;letter190;letter190;letter169;0;0;congruent;0.04;letter190;0.09;0.07;fullmask;0.2;arrow_right.png;up;0.3070630000147503;0.3102305000065826;257874.3308401;m;0.5631023999885656;0.5686295999912545;257874.8990492;2.9999937396496534e-06;0.5038264000031631;0.5438574999861885;0.5938907999952789;0.6639184000086971;0.7939955999900121;0.9240998000022955;0.01
2;2;17;39;letter169;letter190;letter190;letter169;0;0;incongruent;0.04;letter190;0.09;0.07;fullmask;0.2;arrow_left.png;up;0.6255165000038687;0.6313734000141267;257877.0508618;c;0.36820519997854717;0.3780401999829337;257877.4268611;2.5999906938523054e-06;0.5041421999922022;0.5441385999729391;0.5941833999822848;0.6642336999939289;0.7943161999864969;0.9244120999937877;0.01
2;2;17;40;letter169;letter190;letter190;letter169;0;1;incongruent;0.12;letter190;0.18;0.07;fullmask;0.2;arrow_left.png;up;0.28382380001130514;0.29028759998618625;257879.3308479;c;0.39154020001296885;0.39898749999701977;257879.730787;2.6999914553016424e-06;0.498333299998194;0.6187046999984886;0.6784463000076357;0.7484648000099696;0.8785547000006773;1.0086463000043295;0.01
2;2;17;41;letter169;letter190;letter190;letter169;0;0;incongruent;0.04;letter190;0.09;0.07;fullmask;0.2;arrow_left.png;up;0.35200430001714267;0.3600956000154838;257881.610832;c;0.36593449997599237;0.3689668999868445;257881.9868003;2.7999922167509794e-06;0.4991936000005808;0.5392145999940112;0.5892572999873664;0.6592858999792952;0.7893767999776173;0.9194639999768697;0.01
2;2;17;42;letter169;letter190;letter190;letter169;0;0;incongruent;0.04;letter190;0.09;0.07;fullmask;0.2;arrow_left.png;up;0.3581935000256635;0.36020039999857545;257883.8588111;c;0.36418419997789897;0.3681716999853961;257884.2268326;2.6999914553016424e-06;0.4958757999993395;0.5359039999893866;0.5859159000101499;0.6559563000046182;0.7860303999914322;0.9161397000134457;0.01
2;2;17;43;letter169;letter190;letter190;letter169;0;0;congruent;0.04;letter190;0.09;0.07;fullmask;0.2;arrow_right.png;up;0.40348240002640523;0.41096140001900494;257886.1548185;m;0.34252559999004006;0.34811970000737347;257886.5067675;2.7999922167509794e-06;0.5008979999984149;0.5408824000041932;0.5909526000032201;0.6610088000015821;0.7910713999881409;0.9211763000057545;0.01
2;2;17;44;letter169;letter190;letter190;letter169;0;0;incongruent;0.04;letter169;0.09;0.07;fullmask;0.2;arrow_right.png;down;0.25577469999552704;0.26036529999691993;257888.2988164;m;0.3614277000015136;0.3680727000173647;257888.6667684;2.5999906938523054e-06;0.5031822999881115;0.543175800004974;0.5932246999873314;0.6632529999769758;0.7933408999815583;0.9234278999792878;0.01
2;2;17;45;letter169;letter190;letter190;letter169;0;0;congruent;0.04;letter190;0.09;0.07;fullmask;0.2;arrow_right.png;up;0.33801710000261664;0.3401499000028707;257890.5228141;m;0.30797620001249015;0.3081889000022784;257890.8348649;2.5999906938523054e-06;0.496487900003558;0.5365088999969885;0.586539999989327;0.6565683000080753;0.786659100005636;0.9167509999824688;0.01
2;2;17;46;letter169;letter190;letter190;letter169;0;0;congruent;0.04;letter169;0.09;0.07;fullmask;0.2;arrow_left.png;down;0.26052689997595735;0.2704377999762073;257892.6268137;c;0.364209799998207;0.36807479997514747;257893.0027685;2.7999922167509794e-06;0.5037393000093289;0.5437354999885429;0.5937622000055853;0.6637994000047911;0.7938903000031132;0.9239821000082884;0.01
2;2;17;47;letter169;letter190;letter190;letter169;0;0;incongruent;0.04;letter190;0.09;0.07;fullmask;0.2;arrow_left.png;up;0.2617624000122305;0.2703361000167206;257894.7788004;c;0.35761139998794533;0.35806830000365153;257895.1469262;2.6999914553016424e-06;0.4950496999954339;0.5351122000138275;0.5851067999901716;0.6551291999930982;0.785226000007242;0.915301000000909;0.01
2;2;17;48;letter169;letter190;letter190;letter169;0;0;incongruent;0.04;letter169;0.09;0.07;fullmask;0.2;arrow_right.png;down;0.312025299994275;0.320205399999395;257896.9708113;m;0.3658378999971319;0.3680676000076346;257897.3467684;2.6999914553016424e-06;0.49603679997380823;0.5360649999929592;0.5860997999843676;0.6561370999843348;0.7862234999774955;0.916336099995533;0.01
2;2;17;49;letter169;letter190;letter190;letter169;0;0;congruent;0.04;letter190;0.09;0.07;fullmask;0.2;arrow_right.png;up;0.17254679999314249;0.17975000001024455;257899.0427912;m;0.4069135999889113;0.4090589999977965;257899.4588487;2.500019036233425e-06;0.4982630000158679;0.5382844000123441;0.5883065000234637;0.6583522000000812;0.7884405000077095;0.9188164000224788;0.01
2;2;17;50;letter169;letter190;letter190;letter169;0;0;congruent;0.04;letter169;0.09;0.07;fullmask;0.2;arrow_left.png;down;0.346807699999772;0.3500851999851875;257901.3388353;c;0.3387233999965247;0.34812919999239966;257901.6827687;2.600019797682762e-06;0.5048506000021007;0.5448481000203174;0.5948893000022508;0.6649239000107627;0.7950210999988485;0.9251128000032622;0.01
2;2;17;51;letter169;letter190;letter190;letter169;0;0;incongruent;0.04;letter169;0.09;0.07;fullmask;0.2;arrow_right.png;down;0.8996305000036955;0.9005004000209738;257904.122859;m;0.3170154999825172;0.3181888999824878;257904.4428041;3.0999945010989904e-06;0.5024051999789663;0.5424280999868643;0.592465199995786;0.6624953999998979;0.7925832999753766;0.9226683999877423;0.01
2;2;17;52;letter169;letter190;letter190;letter169;0;0;congruent;0.04;letter169;0.09;0.07;fullmask;0.2;arrow_left.png;down;0.3583492000179831;0.36106419999850914;257906.3227939;c;0.40350539999781176;0.408064999995986;257906.7308462;2.8999929782003164e-06;0.4978547999926377;0.53823099998408;0.5879038999846671;0.6579395000007935;0.7880232000024989;0.9181338000053074;0.01
2;2;18;1;letter169;letter190;letter190;letter169;0;0;incongruent;0.04;letter169;0.09;0.07;fullmask;0.2;arrow_right.png;down;0.8937104000069667;0.9006908000155818;257920.1467982;m;0.3110428999934811;0.31820480001624674;257920.4667537;2.5999906938523054e-06;0.49760399997467175;0.5376168999937363;0.5876435999816749;0.6576814999862108;0.7877655999909621;0.9178653999988455;0.01
2;2;18;2;letter169;letter190;letter190;letter169;0;0;incongruent;0.04;letter169;0.09;0.07;fullmask;0.2;arrow_right.png;down;0.7915405000094324;0.8003738000115845;257922.7868077;c;0.3495478999975603;0.35819629998877645;257923.1470156;2.6999914553016424e-06;0.4983510999882128;0.538374499999918;0.5884281999897212;0.6584442000021227;0.7885448999877553;0.9186219999974128;0.01
2;2;18;3;letter169;letter190;letter190;letter169;0;0;congruent;0.04;letter169;0.09;0.07;fullmask;0.2;arrow_left.png;down;0.429654199979268;0.42977950000204146;257925.1068778;c;0.3657209000084549;0.36807100000442006;257925.4747501;2.5999906938523054e-06;0.5041682999872137;0.5441833999939263;0.5942213000089396;0.6642515000130516;0.7943314999865834;0.924426300014602;0.01
2;2;18;4;letter169;letter190;letter190;letter169;0;0;incongruent;0.04;letter190;0.09;0.07;fullmask;0.2;arrow_left.png;up;0.3707591999846045;0.38004600000567734;257927.3788243;c;0.3326814000029117;0.33914629998616874;257927.7227334;2.900022082030773e-06;0.5031639000226278;0.543211500014877;0.5932542000082321;0.663283700007014;0.7933618999959435;0.9234549000102561;0.01
2;2;18;5;letter169;letter190;letter190;letter169;0;1;congruent;0.12;letter190;0.18;0.07;fullmask;0.2;arrow_right.png;up;0.4146325000037905;0.4199139999982435;257929.7549969;m;0.3289342999923974;0.3382667000114452;257930.0909974;2.700020559132099e-06;0.5053792000107933;0.6254526000120677;0.6854849000228569;0.7555438000126742;0.8856197000131942;1.0157155000197235;0.01
2;2;18;6;letter169;letter190;letter190;letter169;0;0;incongruent;0.04;letter169;0.09;0.07;fullmask;0.2;arrow_right.png;down;0.5058770999894477;0.5106515999941621;257932.1467654;m;0.3213337000051979;0.3282143999822438;257932.4748132;2.5999906938523054e-06;0.5041424999944866;0.5441591999842785;0.5942075999919325;0.6642352999770083;0.7943367999978364;0.9244193999911658;0.01
2;2;18;7;letter169;letter190;letter190;letter169;0;0;incongruent;0.04;letter190;0.09;0.07;fullmask;0.2;arrow_left.png;up;0.24813809999614023;0.25025310000637546;257934.250772;c;0.3639131000090856;0.36806890001753345;257934.6187398;2.7999922167509794e-06;0.4970933999866247;0.5370947000046726;0.5871204999857582;0.6571655999869108;0.7872413999866694;0.9173721999977715;0.01
2;2;18;8;letter169;letter190;letter190;letter169;0;0;congruent;0.04;letter190;0.09;0.07;fullmask;0.2;arrow_right.png;down;0.42503740001120605;0.4308522999926936;257936.5787688;m;0.7067144000029657;0.7112584999995306;257937.4908457;2.5999906938523054e-06;0.502814200008288;0.5428145999903791;0.5928827000025194;0.6628880999924149;0.792990899994038;0.9230603000032715;0.01
2;2;18;9;letter169;letter190;letter190;letter169;0;0;incongruent;0.04;letter169;0.09;0.07;fullmask;0.2;arrow_right.png;down;0.3308734999736771;0.3400139999866951;257939.3468328;m;0.33326929999748245;0.3386702999996487;257939.6911847;2.4999899324029684e-06;0.49597029999131337;0.5359930999984499;0.5860531000071205;0.6560621999960858;0.7861395000072662;0.9162477999925613;0.01
2;2;18;10;letter169;letter190;letter190;letter169;0;0;incongruent;0.04;letter190;0.09;0.07;fullmask;0.2;arrow_left.png;up;0.27106389999971725;0.2801745999895502;257941.4987574;c;0.332921900000656;0.3381457000214141;257941.8427245;2.8999929782003164e-06;0.5037219999940135;0.5437461000110488;0.5937912999943364;0.6638146000041161;0.7938905000046361;0.9239889000018593;0.01
2;2;18;11;letter169;letter190;letter190;letter169;0;0;congruent;0.04;letter169;0.09;0.07;fullmask;0.2;arrow_left.png;down;0.368312300008256;0.3710295000055339;257943.74676;c;0.4433163999929093;0.4478614999970887;257944.1947336;2.3999891709536314e-06;0.5026630999927875;0.5426456999848597;0.5926929999841377;0.6627154999878258;0.792805099976249;0.9228627999837045;0.01
2;2;18;12;letter169;letter190;letter190;letter169;0;0;congruent;0.04;letter169;0.09;0.07;fullmask;0.2;arrow_left.png;down;0.5066674999834504;0.5106947000022046;257946.2267559;c;0.3699880000203848;0.377980600023875;257946.6027104;2.8999929782003164e-06;0.501405099988915;0.5414340999850538;0.5914520999940578;0.6615011999965645;0.7915712999820244;0.921657500002766;0.01
2;2;18;13;letter169;letter190;letter190;letter169;0;0;incongruent;0.04;letter190;0.09;0.07;fullmask;0.2;arrow_left.png;up;0.3571874999906868;0.3610675999952946;257948.498861;c;0.3221973000036087;0.32817079999949783;257948.8267763;2.5999906938523054e-06;0.5054048999736551;0.5453059999854304;0.5953526999801397;0.665375699987635;0.7954617999785114;0.9255558000004385;0.01
2;2;18;14;letter169;letter190;letter190;letter169;0;0;incongruent;0.04;letter169;0.09;0.07;fullmask;0.2;arrow_right.png;down;0.5132365000026766;0.5196697000064887;257950.8667591;m;0.3115819999948144;0.31820030001108535;257951.1867153;2.500019036233425e-06;0.497192000009818;0.5372019000060391;0.5872570000065025;0.6572926000226289;0.7873781000089366;0.9174725000048056;0.01
2;2;18;15;letter169;letter190;letter190;letter169;0;0;congruent;0.04;letter190;0.09;0.07;fullmask;0.2;arrow_right.png;up;0.6621760999842081;0.6705580999841914;257953.3867483;m;0.27778920001583174;0.2782553000142798;257953.6748696;2.6999914553016424e-06;0.5002894999925047;0.5403114999935497;0.5903606000065338;0.660368999990169;0.7904694000026211;0.9205171999929007;0.01
2;2;18;16;letter169;letter190;letter190;letter169;0;0;congruent;0.04;letter169;0.09;0.07;fullmask;0.2;arrow_left.png;down;0.398346899979515;0.40002719999756664;257955.594811;c;0.3485581999993883;0.3582083999936003;257955.9469342;2.6999914553016424e-06;0.49801329997717403;0.5380215999903157;0.5880679999827407;0.6580990999937057;0.788187400001334;0.9185797999962233;0.01
2;2;18;17;letter169;letter190;letter190;letter169;0;0;congruent;0.04;letter190;0.09;0.07;fullmask;0.2;arrow_right.png;up;0.43749470001785085;0.44083669999963604;257957.9148584;m;0.31456110000726767;0.3181977999920491;257958.2347011;2.5999906938523054e-06;0.4961100000073202;0.5361319000076037;0.5861649999860674;0.6562027999898419;0.7862755999958608;0.9163676000025589;0.01
2;2;18;18;letter169;letter190;letter190;letter169;0;0;congruent;0.04;letter190;0.09;0.07;fullmask;0.2;arrow_right.png;up;0.37987649999558926;0.3799736999790184;257960.1388939;m;0.2937060000258498;0.2982526000123471;257960.4347079;2.600019797682762e-06;0.4999870000174269;0.5400061000254937;0.5900590000092052;0.6600779000145849;0.7901491000084206;0.9202551000053063;0.01
2;2;18;19;letter169;letter190;letter190;letter169;0;0;incongruent;0.04;letter169;0.09;0.07;fullmask;0.2;arrow_right.png;down;0.3623629999929108;0.37024489999748766;257962.3227422;m;0.3261519999941811;0.32818030001362786;257962.6587183;2.800021320581436e-06;0.5021568000083789;0.5421680000144988;0.592196600016905;0.6622275999980047;0.7923110999981873;0.9224145000043791;0.01
2;2;18;20;letter169;letter190;letter190;letter169;0;0;congruent;0.04;letter169;0.09;0.07;fullmask;0.2;arrow_left.png;down;0.4448209000111092;0.4508581999980379;257964.6267625;c;0.3439819999912288;0.34812239999882877;257964.9787163;2.6999914553016424e-06;0.5006060000159778;0.5406185000028927;0.5906442000123207;0.6606912999995984;0.790769100014586;0.920865899999626;0.01
2;2;18;21;letter169;letter190;letter190;letter169;0;0;congruent;0.04;letter169;0.09;0.07;fullmask;0.2;arrow_left.png;down;0.24325120000867173;0.25025519999326207;257966.7467364;c;0.34302269999170676;0.3481210999889299;257967.0987038;2.6999914553016424e-06;0.5022439000022132;0.5422583999752533;0.5923180999816395;0.6623240999761038;0.792435299983481;0.9225173000013456;0.01
2;2;18;22;letter169;letter190;letter190;letter169;0;1;incongruent;0.12;letter190;0.18;0.07;fullmask;0.2;arrow_left.png;up;0.2780882999941241;0.28030899999430403;257969.0027491;c;0.34793489999719895;0.3491437000047881;257969.3548454;2.5999906938523054e-06;0.505819199985126;0.6258844999829307;0.6859286999970209;0.7559840999892913;0.8860599999898113;1.0161494999774732;0.01
2;2;18;23;letter169;letter190;letter190;letter169;0;0;congruent;0.04;letter190;0.09;0.07;fullmask;0.2;arrow_right.png;down;0.4125620999839157;0.42088439999497496;257971.2987424;m;0.8561919000057969;0.8607125999988057;257972.3627113;2.6999914553016424e-06;0.5059298999840394;0.5459608999954071;0.5959884999901988;0.6663163999910466;0.7960990999999922;0.9262075999868102;0.01
2;2;18;24;letter169;letter190;letter190;letter169;0;0;incongruent;0.04;letter169;0.09;0.07;fullmask;0.2;arrow_right.png;down;0.4142769000027329;0.4197967000072822;257974.3227466;m;0.3285411999968346;0.3391515999974217;257974.6587404;2.4999899324029684e-06;0.5016625999996904;0.5416759999934584;0.591692799993325;0.6617336999916006;0.7918080999806989;0.9219196999911219;0.01
2;2;18;25;letter169;letter190;letter190;letter169;0;0;incongruent;0.04;letter190;0.09;0.07;fullmask;0.2;arrow_left.png;up;0.3070708999875933;0.31023040000582114;257976.5067825;c;0.3148728999949526;0.3181977999920491;257976.8267595;2.6999914553016424e-06;0.5046620999928564;0.544711800001096;0.5947123999940231;0.6650553999934345;0.7948388000077102;0.924937100004172;0.01
2;2;18;26;letter169;letter190;letter190;letter169;0;0;congruent;0.04;letter190;0.09;0.07;fullmask;0.2;arrow_right.png;up;0.2577005999919493;0.26036139999632724;257978.6187419;m;0.2833781999943312;0.2882757000043057;257978.9067237;2.700020559132099e-06;0.5039679000037722;0.5439848999958485;0.5940487000043504;0.6643681999994442;0.7941489000222646;0.9242388000129722;0.01
2;2;18;27;letter169;letter190;letter190;letter169;0;0;incongruent;0.04;letter190;0.09;0.07;fullmask;0.2;arrow_left.png;up;0.300435799988918;0.3102280999883078;257980.7627422;c;0.31621700001414865;0.3182043000124395;257981.0906887;2.800021320581436e-06;0.5046460000157822;0.5446504999999888;0.5946761000086553;0.6647496000223327;0.7947882000007667;0.9249073000100907;0.01
2;2;18;28;letter169;letter190;letter190;letter169;0;0;congruent;0.04;letter190;0.09;0.07;fullmask;0.2;arrow_right.png;up;0.45850410001003183;0.4599336000101175;257983.0829525;m;0.2845450999739114;0.2882718999753706;257983.3707594;2.9999937396496534e-06;0.5039053999935277;0.5439213000063319;0.5939539000100922;0.6639967999944929;0.7940730999980588;0.9241740999859758;0.01
2;2;18;29;letter169;letter190;letter190;letter169;0;0;congruent;0.04;letter190;0.09;0.07;fullmask;0.2;arrow_right.png;up;0.2888966000173241;0.29023340001003817;257985.1947828;m;0.2766700999927707;0.2773108000110369;257985.4747376;2.600019797682762e-06;0.4944460999977309;0.5344513000163715;0.5844837000186089;0.6545187000010628;0.784603000007337;0.9147029000159819;0.01
2;2;18;30;letter169;letter190;letter190;letter169;0;1;congruent;0.12;letter169;0.18;0.07;fullmask;0.2;arrow_left.png;down;0.027724299987312406;0.029944400012027472;257987.1147359;c;0.4358010000141803;0.43779180001001805;257987.5546846;2.7999922167509794e-06;0.49812860001111403;0.6181767999951262;0.6782260999898426;0.7482410999946296;0.8783429999893997;1.0084302999894135;0.01
2;2;18;31;letter169;letter190;letter190;letter169;0;0;congruent;0.04;letter190;0.09;0.07;fullmask;0.2;arrow_right.png;up;0.7089556000137236;0.711159200000111;257989.7867366;m;0.28386090000276454;0.28838029998587444;257990.0747402;2.600019797682762e-06;0.5039806000131648;0.5440040999965277;0.5940392000193242;0.6640689000196289;0.7941562000196427;0.9242483999987599;0.01
2;2;18;32;letter169;letter190;letter190;letter169;0;0;incongruent;0.04;letter169;0.09;0.07;fullmask;0.2;arrow_right.png;down;0.4512860999966506;0.46077360000344925;257992.0509381;m;0.30064040000434034;0.30832889999146573;257992.3629006;2.7999922167509794e-06;0.49707050001597963;0.5370750000001863;0.587106799997855;0.6571444000001065;0.7872342000191566;0.9173480000172276;0.01
2;2;18;33;letter169;letter190;letter190;letter169;0;0;incongruent;0.04;letter190;0.09;0.07;fullmask;0.2;arrow_left.png;up;0.5112244999909308;0.5197570000018459;257994.4029272;c;0.3654986000037752;0.36916719999862835;257994.7787954;2.8999929782003164e-06;0.4963909999933094;0.5364227000100072;0.5864341999986209;0.656478299992159;0.7865619999938644;0.9166695000021718;0.01
2;2;18;34;letter169;letter190;letter190;letter169;0;0;incongruent;0.04;letter169;0.09;0.07;fullmask;0.2;arrow_right.png;down;0.46804780000820756;0.4708348999847658;257996.7707255;m;0.3232253000023775;0.3281745999993291;257997.0986761;2.6999914553016424e-06;0.5028569999849424;0.5428463999996893;0.5928586999943946;0.662926899996819;0.7930070000002161;0.9230885999859311;0.01
2;2;18;35;letter169;letter190;letter190;letter169;0;0;congruent;0.04;letter190;0.09;0.07;fullmask;0.2;arrow_right.png;up;0.4247661999834236;0.43090599999413826;257999.0587269;m;0.29586750001180917;0.2982563000114169;257999.3626752;2.8999929782003164e-06;0.5046658999926876;0.5446586000034586;0.5946850000182167;0.6647140000131913;0.794796200003475;0.9249204999941867;0.01
2;2;18;36;letter169;letter190;letter190;letter169;0;0;congruent;0.04;letter169;0.09;0.07;fullmask;0.2;arrow_left.png;down;0.4124514000141062;0.4199125000159256;258001.2988283;c;0.3746415000059642;0.37813660001847893;258001.6827749;2.800021320581436e-06;0.5008321000204887;0.5408530000131577;0.590881400014041;0.660925700009102;0.7910037999972701;0.9214087000000291;0.01
2;2;18;37;letter169;letter190;letter190;letter169;0;0;incongruent;0.04;letter190;0.09;0.07;fullmask;0.2;arrow_left.png;up;0.4899474999983795;0.4907742000068538;258003.7068509;c;0.3651624000049196;0.3681902000098489;258004.0747341;2.6999914553016424e-06;0.5039759000064805;0.5440253000124358;0.5940415000077337;0.6640498999913689;0.7941524000198115;0.9242621000157669;0.01
2;2;18;38;letter169;letter190;letter190;letter169;0;0;incongruent;0.04;letter169;0.09;0.07;fullmask;0.2;arrow_right.png;down;0.29773049999494106;0.300388000003295;258005.9067184;m;0.33936750001157634;0.34812280000187457;258006.2506771;2.5999906938523054e-06;0.49940249999053776;0.5394246999931056;0.5894525999901816;0.659500100009609;0.7895704999973532;0.9196424999972805;0.01
2;2;18;39;letter169;letter190;letter190;letter169;0;0;incongruent;0.04;letter169;0.09;0.07;fullmask;0.2;arrow_right.png;down;0.4128318000002764;0.4209344999981113;258008.2027024;m;0.34197039998252876;0.3481268000032287;258008.5547096;2.600019797682762e-06;0.5026687000063248;0.5426926000218373;0.592746200010879;0.6627581000211649;0.7928443000128027;0.9229489999997895;0.01
2;2;18;40;letter169;letter190;letter190;letter169;0;0;congruent;0.04;letter169;0.09;0.07;fullmask;0.2;arrow_left.png;up;0.37736829998902977;0.3805692000023555;258010.4586778;c;0.23637060000328347;0.23939300002530217;258010.8986809;2.6999914553016424e-06;0.49709650001022965;0.5371098000032362;0.587139000010211;0.6571820999961346;0.7872672000085004;0.9173629000142682;0.01
2;2;18;41;letter169;letter190;letter190;letter169;0;1;incongruent;0.12;letter169;0.18;0.07;fullmask;0.2;arrow_right.png;down;0.46313499999814667;0.46969389999867417;258012.9867027;m;0.3514887999917846;0.35809169997810386;258013.3466857;2.5999906938523054e-06;0.5044480999931693;0.6245102999964729;0.6845459000032861;0.7545921999844722;0.8846679999842308;1.0147730000026058;0.01
2;2;18;42;letter169;letter190;letter190;letter169;0;0;congruent;0.04;letter169;0.09;0.07;fullmask;0.2;arrow_left.png;down;0.42443240000284277;0.43093939998652786;258015.2987035;c;0.36759320000419393;0.36804629999096505;258015.6747381;2.6999914553016424e-06;0.5009148000099231;0.5409375999879558;0.5909775999898557;0.6610193999949843;0.791088400001172;0.9211967999872286;0.01
2;2;18;43;letter169;letter190;letter190;letter169;0;0;congruent;0.04;letter169;0.09;0.07;fullmask;0.2;arrow_left.png;down;0.4781291999970563;0.47973130000173114;258017.6747062;c;0.38843829999677837;0.39796479998040013;258018.0667048;2.800021320581436e-06;0.4984849000175018;0.5384982000105083;0.5885396999947261;0.6585674000089057;0.7886257000209298;0.9187573000090197;0.01
2;2;18;44;letter169;letter190;letter190;letter169;0;0;congruent;0.04;letter190;0.09;0.07;fullmask;0.2;arrow_right.png;up;0.4513030000089202;0.4609321000170894;258020.0588953;m;0.2765693000110332;0.2784006000147201;258020.3469271;2.6999914553016424e-06;0.49979390000225976;0.5398161000048276;0.5898445000057109;0.6598873999901116;0.7899704999872483;0.9200636000023223;0.01
2;2;18;45;letter169;letter190;letter190;letter169;0;0;congruent;0.04;letter169;0.09;0.07;fullmask;0.2;arrow_left.png;down;0.27696069999365136;0.27913709997665137;258022.146695;c;0.3638423999946099;0.3690655999816954;258022.5146542;2.8999929782003164e-06;0.49968389997957274;0.5396790999802761;0.5897323999961372;0.6597692999930587;0.7898570999968797;0.9199163999874145;0.01
2;2;18;46;letter169;letter190;letter190;letter169;0;0;incongruent;0.04;letter190;0.09;0.07;fullmask;0.2;arrow_left.png;up;0.4984730000142008;0.5005816000048071;258024.5386974;c;0.403912500012666;0.4079617000243161;258024.9466615;2.6999914553016424e-06;0.49722920000203885;0.5372553000051994;0.5872795000032056;0.6573264999897219;0.7873889000038616;0.9175361999950837;0.01
2;2;18;47;letter169;letter190;letter190;letter169;0;0;incongruent;0.04;letter169;0.09;0.07;fullmask;0.2;arrow_right.png;down;0.3949706999992486;0.40020770000410266;258026.8667551;m;0.392805400013458;0.39900510001461953;258027.266735;2.7999922167509794e-06;0.497685200010892;0.5376884999859612;0.5877268000040203;0.6577528000052553;0.7878467999980785;0.91795830000774;0.01
2;2;18;48;letter169;letter190;letter190;letter169;0;0;congruent;0.04;letter190;0.09;0.07;fullmask;0.2;arrow_right.png;up;0.2966861000168137;0.29959239999880083;258029.2107901;m;0.675195200019516;0.6792400000267662;258029.8907289;2.5999906938523054e-06;0.49934189999476075;0.5393348999787122;0.5893920999951661;0.6594080999784637;0.789503899984993;0.9195870999828912;0.01
2;2;18;49;letter169;letter190;letter190;letter169;0;0;congruent;0.04;letter169;0.09;0.07;fullmask;0.2;arrow_left.png;down;0.6038924000167754;0.6104592000192497;258032.0186957;c;0.3914554000075441;0.3989884000038728;258032.418657;2.6999914553016424e-06;0.4942446000059135;0.5342682999907993;0.5843188999861013;0.6543203000037465;0.7844467999821063;0.9145150999829639;0.01
2;2;18;50;letter169;letter190;letter190;letter169;0;0;incongruent;0.04;letter190;0.09;0.07;fullmask;0.2;arrow_left.png;down;1.0297606000094675;1.0302293999993708;258034.9867292;c;0.5670728999830317;0.5704929000057746;258035.7548791;2.7999922167509794e-06;0.5038935999909882;0.5438714000047185;0.5938908999960404;0.6639697999926284;0.7940214999835007;0.9241170999885071;0.01
2;2;18;51;letter169;letter190;letter190;letter169;0;0;incongruent;0.04;letter190;0.09;0.07;fullmask;0.2;arrow_left.png;up;0.4116525999852456;0.41993629999342375;258037.6906673;c;0.36580489997868426;0.36906729999464005;258038.0666987;2.6999914553016424e-06;0.49975019998964854;0.5397655999986455;0.5897878999821842;0.6598412999883294;0.7899087999830954;0.9200207999965642;0.01
2;2;18;52;letter169;letter190;letter190;letter169;0;0;incongruent;0.04;letter190;0.09;0.07;fullmask;0.2;arrow_left.png;up;0.9881276999949478;0.9902734000061173;258040.5787046;c;0.4118599000212271;0.4189321000012569;258040.9946503;2.6999914553016424e-06;0.49934709997614846;0.5393664999864995;0.5893996999948286;0.6594429999822751;0.7895090999954846;0.9196160999999847;0.01
