subjnr;loop_m;blocknr;trialnr;cue_left_learn;cue_right_learn;option_up;option_down;practice;motivation; congruence;cue_dur;cue;SOA;mask_dur;mask;target_dur;target;response;RT;kb_rt;response_absolute;response_target;RT_target;kb_rt_target;response_absolute_target; fix_onset;cue_onset;cue_offset;mask_onset;mask_offset;target_offset;blank_onset;frame_dur
10;1;9;1;letter357;letter181;letter357;letter181;0;0;incongruent;0.04;letter181;0.05;0.07;fullmask;0.2;arrow_left.png;up;2.8651130000071134;2.871310900009121;97763.1708603;c;0.9213547999970615;0.9305590000003576;97764.2988283;2.7999922167509794e-06;0.4969037999981083;0.5369266999914544;0.5469446999923093;0.6169621999870287;0.7470488999970257;0.8771563999907812;0.01
10;1;9;2;letter357;letter181;letter357;letter181;0;1;congruent;0.12;letter357;0.14;0.07;fullmask;0.2;arrow_left.png;up;0.4922297000011895;0.500972299996647;97766.3710306;m;1.053211199992802;1.0582270999875618;97767.4348187;2.7000060072168708e-06;0.5017652000096859;0.6218344000080833;0.6418524000036996;0.7118686000030721;0.841952200004016;0.972058500003186;0.01
10;1;9;3;letter357;letter181;letter357;letter181;0;0;congruent;0.04;letter181;0.05;0.07;fullmask;0.2;arrow_right.png;down;0.8480383999994956;0.8507712999999058;97769.7788421;m;0.7553165999997873;0.7590265000035288;97770.5388285;2.6000052457675338e-06;0.49667110000154935;0.5366918000072474;0.5466958000033628;0.6167394999938551;0.7468103999999585;0.8769193000043742;0.01
10;1;9;4;letter357;letter181;letter357;letter181;0;0;congruent;0.04;letter181;0.05;0.07;fullmask;0.2;arrow_right.png;down;0.8902292999991914;0.8905949000036344;97772.9229254;m;1.0456355000060285;1.0493587000091793;97773.9709461;2.7000060072168708e-06;0.4990088000049582;0.5390202999988105;0.5490354000066873;0.6190580999973463;0.7491478000010829;0.8792669999966165;0.01
10;1;9;5;letter357;letter181;letter357;letter181;0;0;incongruent;0.04;letter181;0.05;0.07;fullmask;0.2;arrow_left.png;up;0.6498059000005014;0.650195199996233;97776.1149515;c;0.7029957999911858;0.7101185999927111;97777.0188654;2.800006768666208e-06;0.5031263000128092;0.543148900003871;0.5531565000128467;0.6231932000082452;0.7532764000061434;0.8833755000086967;0.01
10;1;9;6;letter357;letter181;letter357;letter181;0;0;congruent;0.04;letter357;0.05;0.07;fullmask;0.2;arrow_left.png;up;0.9400995000032708;0.9414952000079211;97779.4668807;c;0.9087771000049543;0.918699400004698;97780.3789901;2.7000060072168708e-06;0.5056636000081198;0.5456934999965597;0.5556768999958877;0.6257205000001704;0.7557995000097435;0.8858638000092469;0.01
10;1;9;7;letter357;letter181;letter357;letter181;0;0;congruent;0.04;letter357;0.05;0.07;fullmask;0.2;arrow_left.png;up;0.7837037999997847;0.7908164000109537;97782.6428448;c;0.4309099999954924;0.4378819999983534;97783.0828069;2.800006768666208e-06;0.49606290001247544;0.5360848999989685;0.5460997000045609;0.6161221000074875;0.7462005000124918;0.8763188000011723;0.01
10;1;9;8;letter357;letter181;letter357;letter181;0;0;incongruent;0.04;letter357;0.05;0.07;fullmask;0.2;arrow_right.png;down;0.8641768999950727;0.8707298999943305;97785.4348453;m;0.6410042999923462;0.6502800000016578;97786.2828067;2.6999914553016424e-06;0.5018314999906579;0.5418227999907685;0.5518390999932308;0.621871999988798;0.7519594999903347;0.8820453999942401;0.01
10;1;9;9;letter357;letter181;letter357;letter181;0;0;incongruent;0.04;letter181;0.05;0.07;fullmask;0.2;arrow_left.png;down;2.2623359999997774;2.272033899993403;97790.0350912;c;2.884188700001687;2.8892984999984037;97792.9308413;2.6000052457675338e-06;0.49980439999490045;0.5398096999997506;0.5498299000028055;0.6198555000009947;0.7499450000032084;0.880027399995015;0.01
10;1;9;10;letter357;letter181;letter357;letter181;0;0;incongruent;0.04;letter357;0.05;0.07;fullmask;0.2;arrow_right.png;up;1.037574300004053;1.0413638000027277;97795.4748664;m;0.5703272999962792;0.5775150999979815;97796.0508172;2.7000060072168708e-06;0.504634700002498;0.544642599998042;0.5546566999983042;0.6246902999992017;0.7547713000094518;0.8848930000094697;0.01
10;1;9;11;letter357;letter181;letter357;letter181;0;0;incongruent;0.04;letter357;0.05;0.07;fullmask;0.2;arrow_right.png;up;1.413292500001262;1.421132999996189;97798.962861;m;0.7821645999938482;0.7879459999967366;97799.7548037;2.6000052457675338e-06;0.5000299000093946;0.5400419000070542;0.5500470999977551;0.620089400006691;0.750184899996384;0.8802578000031644;0.01
10;1;9;12;letter357;letter181;letter357;letter181;0;0;congruent;0.04;letter357;0.05;0.07;fullmask;0.2;arrow_left.png;up;0.7671431000053417;0.7700012999994215;97802.0189397;c;0.6670816000114428;0.6693003000109456;97802.6908127;2.5999906938523054e-06;0.5040243999974336;0.5440395999903558;0.5540378000005148;0.6240665999939665;0.7541453000012552;0.8842614000022877;0.01
10;1;9;13;letter357;letter181;letter357;letter181;0;0;congruent;0.04;letter181;0.05;0.07;fullmask;0.2;arrow_right.png;down;0.8768758000078378;0.8808073999971384;97805.0508602;m;0.722360400002799;0.7282105000049341;97805.7789835;2.6000052457675338e-06;0.4958372999972198;0.5358573999983491;0.5458821000065655;0.6158946000068681;0.7459630999946967;0.8760850999969989;0.01
10;1;9;14;letter357;letter181;letter357;letter181;0;0;congruent;0.04;letter181;0.05;0.07;fullmask;0.2;arrow_right.png;up;0.961370299992268;0.9704876999894623;97808.2269464;c;0.8624110000091605;0.8706988000049023;97809.2988937;2.5999906938523054e-06;0.4960469999932684;0.5360616999969352;0.5460707000020193;0.6161152999993647;0.7462004999979399;0.8762982999905944;0.01
10;1;9;15;letter357;letter181;letter357;letter181;0;0;incongruent;0.04;letter357;0.05;0.07;fullmask;0.2;arrow_right.png;down;1.0150739000091562;1.0210225000046194;97811.8028269;m;0.4255923999880906;0.4298634000006132;97812.434814;2.6000052457675338e-06;0.5027840999973705;0.5428042999992613;0.552824900005362;0.6228356000065105;0.7529234999965411;0.8830336999963038;0.01
10;1;9;16;letter357;letter181;letter357;letter181;0;0;incongruent;0.04;letter357;0.05;0.07;fullmask;0.2;arrow_right.png;up;0.939092200002051;0.9404304999916349;97814.8589016;m;0.5006485000048997;0.5087111000029836;97815.3627861;2.7000060072168708e-06;0.5011711999977706;0.5411848000076134;0.5511962000018684;0.6212464999989606;0.7513284000015119;0.8814328000007663;0.01
10;1;9;17;letter357;letter181;letter357;letter181;0;0;congruent;0.04;letter357;0.05;0.07;fullmask;0.2;arrow_left.png;up;0.6650837000051979;0.670133400009945;97817.5068379;c;0.4409737999958452;0.4488517999998294;97817.954801;2.900007530115545e-06;0.4947288999974262;0.534736100002192;0.5447461000003386;0.6147641999996267;0.7448746000009123;0.8749569000065094;0.01
10;1;9;18;letter357;letter181;letter357;letter181;0;0;incongruent;0.04;letter181;0.05;0.07;fullmask;0.2;arrow_left.png;up;1.183312900000601;1.1909984999947483;97820.6269898;c;0.3929929000005359;0.4010481000004802;97821.2269913;2.6000052457675338e-06;0.5007244000007631;0.5407459999987623;0.5507451000012225;0.6207874999963678;0.7508651999960421;0.880986699994537;0.01
10;1;9;19;letter357;letter181;letter357;letter181;0;0;incongruent;0.04;letter181;0.05;0.07;fullmask;0.2;arrow_left.png;down;1.0296443999977782;1.031405800007633;97823.7548956;c;0.7005207000038354;0.7081875000003492;97824.4590082;2.5999906938523054e-06;0.4997074999992037;0.5397182999877259;0.5497224999999162;0.6197603999899002;0.7498469999991357;0.8799460999871371;0.01
10;1;9;20;letter357;letter181;letter357;letter181;0;0;congruent;0.04;letter357;0.05;0.07;fullmask;0.2;arrow_left.png;up;0.9654574000014691;0.9705795999907423;97826.9228387;c;0.6649108999990858;0.6692679999978282;97827.5948053;2.6000052457675338e-06;0.4993428000016138;0.5392940000019735;0.549323799990816;0.6193363999918802;0.749440700004925;0.8795455999934347;0.01
10;1;9;21;letter357;letter181;letter357;letter181;0;1;incongruent;0.12;letter181;0.14;0.07;fullmask;0.2;arrow_left.png;down;0.9529480000055628;0.9603526999999303;97830.1228429;c;0.5828738999989582;0.5885785999998916;97830.715061;2.5999906938523054e-06;0.5002671999973245;0.6203259000030812;0.640350399989984;0.7103802999918116;0.8404657999926712;0.9705672999989474;0.01
10;1;9;22;letter357;letter181;letter357;letter181;0;0;incongruent;0.04;letter181;0.05;0.07;fullmask;0.2;arrow_left.png;down;0.9209826000005705;0.9306606999889482;97833.1229978;c;1.0123973000008846;1.0185315999988234;97834.1469061;2.6999914553016424e-06;0.49844799999846146;0.5384702000010293;0.5484832999936771;0.6185182000044733;0.7485989999986487;0.8786976999981562;0.01
10;1;9;23;letter357;letter181;letter357;letter181;0;0;congruent;0.04;letter181;0.05;0.07;fullmask;0.2;arrow_right.png;up;1.2072617999947397;1.210781700006919;97836.8508239;m;0.460049400004209;0.46989229999599047;97837.5148385;2.7000060072168708e-06;0.49697150000429247;0.5369758000015281;0.5470062000094913;0.6170343000121647;0.7471086000005016;0.8772158000065247;0.01
10;1;9;24;letter357;letter181;letter357;letter181;0;0;congruent;0.04;letter357;0.05;0.07;fullmask;0.2;arrow_left.png;down;1.1886910000030184;1.1908442999992985;97840.1948939;c;0.46156060000066645;0.46988650001003407;97840.8589465;2.7000060072168708e-06;0.5057620000006864;0.5457886000076542;0.5558017000003019;0.62585019999824;0.7558879999996861;0.885998900004779;0.01
10;1;9;25;letter357;letter181;letter357;letter181;0;0;congruent;0.04;letter181;0.05;0.07;fullmask;0.2;arrow_right.png;down;0.967013000001316;0.971460400003707;97843.3148222;m;0.49767460000293795;0.5076949000067543;97843.8188831;2.7999922167509794e-06;0.497593499996583;0.5376297000038903;0.5476340000022901;0.6176643999933731;0.7477450000005774;0.8778389999934006;0.01
10;1;9;26;letter357;letter181;letter357;letter181;0;0;incongruent;0.04;letter357;0.05;0.07;fullmask;0.2;arrow_right.png;up;0.6824480000068434;0.6902075000107288;97846.0028;m;0.3743360000080429;0.3780451000056928;97846.3868318;2.800006768666208e-06;0.49850070000684354;0.5385106000030646;0.5485291000077268;0.6185610000102315;0.7486519000085536;0.8787363000010373;0.01
10;1;9;27;letter357;letter181;letter357;letter181;0;0;incongruent;0.04;letter357;0.05;0.07;fullmask;0.2;arrow_right.png;up;0.9312370999978157;0.94051230000332;97848.8029582;m;0.4368042999994941;0.4389845999976387;97849.2508732;2.9999937396496534e-06;0.5048635999992257;0.5448612000036519;0.5548699999926612;0.6249061999988044;0.7550033000006806;0.8850869000016246;0.01
10;1;9;28;letter357;letter181;letter357;letter181;0;0;congruent;0.04;letter357;0.05;0.07;fullmask;0.2;arrow_left.png;up;0.8197270999953616;0.8208547999965958;97851.5629199;c;0.4208530000032624;0.4279094000085024;97851.9868362;2.7000060072168708e-06;0.49649080001108814;0.5365138000051957;0.5465335000044433;0.6165760000003502;0.7466505000047619;0.8767529000033392;0.01
10;1;9;29;letter357;letter181;letter357;letter181;0;0;incongruent;0.04;letter181;0.05;0.07;fullmask;0.2;arrow_left.png;down;0.4371778000058839;0.4398490000021411;97853.9228366;c;0.411351900009322;0.4189176000072621;97854.3388029;2.7000060072168708e-06;0.4981444000004558;0.5381607000017539;0.5481394000089495;0.6181817000033334;0.7482592000014847;0.8783672999998089;0.01
10;1;9;30;letter357;letter181;letter357;letter181;0;0;incongruent;0.04;letter357;0.05;0.07;fullmask;0.2;arrow_right.png;down;0.5040443000034429;0.5105806000065058;97856.3308563;m;0.3530666000006022;0.36009229999035597;97856.8909562;2.7000060072168708e-06;0.5011389999999665;0.5411652000038885;0.5511821000109194;0.6212030000024242;0.751300000003539;0.881351200005156;0.01
10;1;9;31;letter357;letter181;letter357;letter181;0;0;incongruent;0.04;letter181;0.05;0.07;fullmask;0.2;arrow_left.png;down;0.9342769000068074;0.9405055000097491;97859.322795;c;0.5758268000063254;0.5785050999984378;97859.9067897;2.6999914553016424e-06;0.5036129999934928;0.5436465999955544;0.5536347999877762;0.6236911999876611;0.7537604999961331;0.8838700999913272;0.01
10;1;9;32;letter357;letter181;letter357;letter181;0;0;congruent;0.04;letter357;0.05;0.07;fullmask;0.2;arrow_left.png;up;1.186760399999912;1.1908742999949027;97862.5868606;c;0.5300203999941004;0.5387145999993663;97863.1229336;2.6999914553016424e-06;0.49727469999925233;0.537259599994286;0.5472872999962419;0.6173328000004403;0.7474037999927532;0.8775064999936149;0.01
10;1;9;33;letter357;letter181;letter357;letter181;0;0;congruent;0.04;letter181;0.05;0.07;fullmask;0.2;arrow_right.png;down;0.9960812000063015;1.000387200008845;97865.6188313;m;0.4578185999998823;0.4586983000044711;97866.0828894;2.6999914553016424e-06;0.5035548999876482;0.5435701999958837;0.5535698999883607;0.6236069000005955;0.7536917999968864;0.8837803999922471;0.01
10;1;9;34;letter357;letter181;letter357;letter181;0;0;congruent;0.04;letter181;0.05;0.07;fullmask;0.2;arrow_right.png;down;0.5248546999937389;0.5306300999945961;97868.0988297;m;0.5762567999918247;0.5785096999898087;97868.6827946;2.6999914553016424e-06;0.504315799989854;0.5443417999922531;0.5543635999929393;0.6243822999967961;0.754461699994863;0.8845822000002954;0.01
10;1;9;35;letter357;letter181;letter357;letter181;0;0;congruent;0.04;letter357;0.05;0.07;fullmask;0.2;arrow_left.png;up;0.436323200003244;0.43974610000441317;97870.6028222;c;0.41863960000046063;0.4290078999911202;97871.026821;3.0999945010989904e-06;0.5037491999974009;0.5437579999997979;0.5537755999976071;0.6237978999997722;0.7538920999941183;0.8840117999934591;0.01
10;1;9;36;letter357;letter181;letter357;letter181;0;0;incongruent;0.04;letter181;0.05;0.07;fullmask;0.2;arrow_left.png;down;0.6270621000003302;0.6303106999985175;97873.1548804;c;0.47465920000104234;0.4777790000080131;97873.6347919;2.7999922167509794e-06;0.4997521999903256;0.5397721999906935;0.5497663999994984;0.6198064999916824;0.749884299992118;0.879989499997464;0.01
10;1;9;37;letter357;letter181;letter357;letter181;0;0;congruent;0.04;letter181;0.05;0.07;fullmask;0.2;arrow_right.png;down;0.45563909999327734;0.46082779999414925;97875.5948162;m;0.45691540000552777;0.45783420000225306;97876.0588541;2.7999922167509794e-06;0.49920649999694433;0.539235699994606;0.549226599992835;0.6192429999937303;0.7493426999863004;0.8794471000001067;0.01
10;1;9;38;letter357;letter181;letter357;letter181;0;1;incongruent;0.12;letter357;0.14;0.07;fullmask;0.2;arrow_right.png;up;0.7462467000004835;0.7511517999955686;97878.386885;m;0.4414231999980984;0.4479706999991322;97878.8350513;2.6999914553016424e-06;0.5045911999914097;0.624660399989807;0.6446817999967607;0.7147085999895353;0.8447939999896334;0.9748789000004763;0.01
10;1;9;39;letter357;letter181;letter357;letter181;0;0;incongruent;0.04;letter357;0.05;0.07;fullmask;0.2;arrow_right.png;down;0.8800755999982357;0.8806538999924669;97881.2030242;m;0.36784209999314044;0.37106109999876935;97881.7708703;2.7000060072168708e-06;0.5038302000029944;0.5438273000036133;0.5538512000057381;0.6238807000045199;0.7539325999969151;0.8840665000025183;0.01
10;1;9;40;letter357;letter181;letter357;letter181;0;0;incongruent;0.04;letter357;0.05;0.07;fullmask;0.2;arrow_right.png;up;0.5467477999918628;0.5505770000017947;97883.810827;m;0.5461940999957733;0.5485868999967352;97884.3627858;2.5999906938523054e-06;0.5031900999892969;0.5431882999982918;0.5531632999918656;0.6233370999980252;0.7533248999970965;0.8834339000022737;0.01
10;1;9;41;letter357;letter181;letter357;letter181;0;0;congruent;0.04;letter181;0.05;0.07;fullmask;0.2;arrow_right.png;down;0.6667510999977821;0.6702913999906741;97886.5228073;m;0.47448950000398327;0.4786087999964366;97887.0027739;2.6000052457675338e-06;0.499509900007979;0.5395223999948939;0.5495203000027686;0.6195619000063743;0.7496307999972487;0.8797663000004832;0.01
10;1;9;42;letter357;letter181;letter357;letter181;0;0;incongruent;0.04;letter357;0.05;0.07;fullmask;0.2;arrow_right.png;up;0.4428325000044424;0.4498052999988431;97888.9309736;m;0.4551366999949096;0.45893140000407584;97889.3949147;2.6000052457675338e-06;0.4959262000047602;0.5359535000025062;0.5459584000054747;0.6159909999987576;0.746110599997337;0.876174799996079;0.01
10;1;9;43;letter357;letter181;letter357;letter181;0;0;incongruent;0.04;letter181;0.05;0.07;fullmask;0.2;arrow_left.png;down;0.5611389999976382;0.5704976999986684;97891.4508195;c;0.42866140000114683;0.43788490000588354;97891.8907779;2.5999906938523054e-06;0.5014223999896785;0.541442299989285;0.5514549999934388;0.6214908999972977;0.7515772999904584;0.8816626999905566;0.01
10;1;9;44;letter357;letter181;letter357;letter181;0;0;congruent;0.04;letter181;0.05;0.07;fullmask;0.2;arrow_right.png;down;0.54952920001233;0.550456299999496;97893.9308503;m;0.45306949999940116;0.4578315999970073;97894.3867768;2.800006768666208e-06;0.5036977999989176;0.5437192999961553;0.5537320000003092;0.623761499999091;0.7538458000053652;0.8839477000001352;0.01
10;1;9;45;letter357;letter181;letter357;letter181;0;0;incongruent;0.04;letter357;0.05;0.07;fullmask;0.2;arrow_right.png;up;0.48283880000235513;0.4908216000039829;97896.3550657;m;0.44596420000016224;0.4489536000037333;97896.810846;2.7000060072168708e-06;0.4960810000047786;0.5361338000075193;0.5461098000087077;0.6161529000091832;0.7462399000069126;0.876332600004389;0.01
10;1;9;46;letter357;letter181;letter357;letter181;0;0;incongruent;0.04;letter181;0.05;0.07;fullmask;0.2;arrow_left.png;down;0.5085369000007631;0.5105589000013424;97898.8028847;c;0.43592390000412706;0.4378690000012284;97899.2427866;2.6000052457675338e-06;0.5014120999985607;0.5414548999979161;0.5514534000103595;0.6214722000004258;0.7515841999993427;0.8816776000021491;0.01
10;1;9;47;letter357;letter181;letter357;letter181;0;0;congruent;0.04;letter357;0.05;0.07;fullmask;0.2;arrow_left.png;up;0.2915048000140814;0.30024490000505466;97901.0268268;c;0.5012771999899996;0.5086953999998514;97901.5387791;2.7000060072168708e-06;0.4984141000022646;0.5384311000088928;0.5484557000017958;0.6184784000070067;0.7485623999964446;0.8786522000009427;0.01
10;1;9;48;letter357;letter181;letter357;letter181;0;0;congruent;0.04;letter181;0.05;0.07;fullmask;0.2;arrow_right.png;down;0.6552822999947239;0.6602861999999732;97903.6828399;m;0.44927060000190977;0.45794890000252053;97904.1389227;2.800006768666208e-06;0.503247900007409;0.5432759000104852;0.553257500010659;0.6232917000015732;0.7533690999989631;0.8834642000001622;0.01
10;1;9;49;letter357;letter181;letter357;letter181;0;0;congruent;0.04;letter357;0.05;0.07;fullmask;0.2;arrow_left.png;up;0.36223969999991823;0.37007099999755155;97906.0108308;c;0.33413889999792445;0.33833479999157134;97906.3547373;2.7000060072168708e-06;0.5001047999976436;0.5401147999946261;0.550128400005633;0.6201664999971399;0.7502531000063755;0.8803415000002133;0.01
10;1;9;50;letter357;letter181;letter357;letter181;0;0;incongruent;0.04;letter181;0.05;0.07;fullmask;0.2;arrow_left.png;up;0.3602021999977296;0.3700682000053348;97908.2108935;c;0.43854750000173226;0.44080310000572354;97908.8587516;2.5999906938523054e-06;0.499665899988031;0.5397184999892488;0.5497233999922173;0.6197375999909127;0.749831399996765;0.8799142999923788;0.01
10;1;9;51;letter357;letter181;letter357;letter181;0;1;congruent;0.12;letter181;0.14;0.07;fullmask;0.2;arrow_right.png;down;0.2992472999903839;0.30011979999835603;97910.7307545;m;0.5972234000073513;0.5995569000078831;97911.3307835;2.6999914553016424e-06;0.5034902999905171;0.6235641999955988;0.643572499990114;0.7136063999932958;0.8436894999904325;0.9737859000015305;0.01
10;1;9;52;letter357;letter181;letter357;letter181;0;0;congruent;0.04;letter357;0.05;0.07;fullmask;0.2;arrow_left.png;up;0.4193722999916645;0.41982070000085514;97913.2429437;c;0.3894849000062095;0.39906940000946634;97913.6348115;2.6000052457675338e-06;0.4985729000036372;0.5385939000116196;0.5485941000079038;0.6186603000096511;0.7487140000012005;0.8788172000058694;0.01
10;1;10;1;letter357;letter181;letter357;letter181;0;0;incongruent;0.04;letter357;0.05;0.07;fullmask;0.2;arrow_right.png;up;0.7996013000083622;0.8009098000038648;97925.7309104;m;0.4846929000050295;0.4877491000079317;97926.2188512;2.7000060072168708e-06;0.4957884000032209;0.5358107000065502;0.5458414000022458;0.6158536000002641;0.7459532000066247;0.8760348000068916;0.01
10;1;10;2;letter357;letter181;letter357;letter181;0;0;incongruent;0.04;letter181;0.05;0.07;fullmask;0.2;arrow_left.png;down;0.39379779998853337;0.39996929999324493;97928.1068155;c;0.48000779999711085;0.4888435000029858;97928.5949382;2.7000060072168708e-06;0.499605100005283;0.5396149000007426;0.5496273000026122;0.6196464999957243;0.7497355000086827;0.8798460999969393;0.01
10;1;10;3;letter357;letter181;letter357;letter181;0;0;congruent;0.04;letter357;0.05;0.07;fullmask;0.2;arrow_left.png;up;0.29014210001332685;0.30013240000698715;97930.3948837;c;0.3880482000095071;0.39799320000747684;97930.7948498;2.5999906938523054e-06;0.5034095999872079;0.5434109999914654;0.5534208999888506;0.623457599998801;0.7535471999872243;0.8836012999963714;0.01
10;1;10;4;letter357;letter181;letter357;letter181;0;0;incongruent;0.04;letter357;0.05;0.07;fullmask;0.2;arrow_right.png;up;0.3245191999885719;0.3300326999888057;97932.6108132;m;0.8805343999993056;0.8886836000019684;97933.4988;2.6000052457675338e-06;0.5012101000029361;0.5412364000076195;0.5512305000011111;0.6212980999989668;0.7513562999956775;0.8814458999986527;0.01
10;1;10;5;letter357;letter181;letter357;letter181;0;0;incongruent;0.04;letter357;0.05;0.07;fullmask;0.2;arrow_right.png;up;0.4610930999915581;0.4708766999974614;97935.458812;m;1.0606030999915674;1.0682952999923145;97936.5310298;3.0999945010989904e-06;0.4986718999862205;0.5386863999883644;0.5486881999968318;0.6187323999911314;0.7488043999910587;0.8789098999986891;0.01
10;1;10;6;letter357;letter181;letter357;letter181;0;0;incongruent;0.04;letter181;0.05;0.07;fullmask;0.2;arrow_left.png;down;0.4935741999943275;0.5006734999915352;97938.5228107;c;0.406935600010911;0.40796480000426527;97938.938785;2.6999914553016424e-06;0.501059099988197;0.5410762999963481;0.5510517999937292;0.6211194999923464;0.7512103999906685;0.8812923999939812;0.01
10;1;10;7;letter357;letter181;letter357;letter181;0;0;congruent;0.04;letter181;0.05;0.07;fullmask;0.2;arrow_right.png;down;0.4700693000049796;0.47079850001318846;97940.8907719;m;0.4933279999968363;0.4987189999956172;97941.3867716;2.7000060072168708e-06;0.49906660000851844;0.5390771000093082;0.5490764000132913;0.6191174000123283;0.7492055000038818;0.8792950000060955;0.01
10;1;10;8;letter357;letter181;letter357;letter181;0;0;congruent;0.04;letter181;0.05;0.07;fullmask;0.2;arrow_right.png;up;1.1759182999958284;1.1809013000020059;97944.0588246;m;0.6993050000019139;0.7001887999940664;97944.9627534;2.6999914553016424e-06;0.49905630000284873;0.5390639999968698;0.5490799999970477;0.6191144000040367;0.7492012000002433;0.8792992999951821;0.01
10;1;10;9;letter357;letter181;letter357;letter181;0;0;incongruent;0.04;letter357;0.05;0.07;fullmask;0.2;arrow_right.png;up;0.4043009000015445;0.4110614999954123;97946.8589659;m;0.4872862000047462;0.4877163000055589;97947.3548463;2.7000060072168708e-06;0.497006000005058;0.5370511000073748;0.5470309999946039;0.6170543000043835;0.7471631000080379;0.8772503000072902;0.01
10;1;10;10;letter357;letter181;letter357;letter181;0;1;congruent;0.12;letter181;0.14;0.07;fullmask;0.2;arrow_right.png;down;0.38618279999354854;0.3899740000051679;97949.3228078;m;0.4662657000008039;0.4688068999967072;97949.7948024;2.5999906938523054e-06;0.5036833999911323;0.6237476999958744;0.6437661999952979;0.713787400003639;0.8438749999913853;0.973977300003753;0.01
10;1;10;11;letter357;letter181;letter357;letter181;0;0;incongruent;0.04;letter181;0.05;0.07;fullmask;0.2;arrow_left.png;down;1.1270936999935657;1.1310232999967411;97952.3948905;c;0.4741014999890467;0.47887949999130797;97952.8748561;2.800006768666208e-06;0.49790930000017397;0.5379161000018939;0.5479177000088384;0.6179660000052536;0.7480499000084819;0.8781382000015583;0.01
10;1;10;12;letter357;letter181;letter357;letter181;0;0;incongruent;0.04;letter181;0.05;0.07;fullmask;0.2;arrow_left.png;down;0.40298660000553355;0.4109256999945501;97954.7629959;c;0.4301510000077542;0.43799700000090525;97955.2029193;2.800006768666208e-06;0.5031975000019884;0.5432283000118332;0.5532150000071852;0.6232745000015711;0.7533516000112286;0.8834400000050664;0.01
10;1;10;13;letter357;letter181;letter357;letter181;0;0;congruent;0.04;letter357;0.05;0.07;fullmask;0.2;arrow_left.png;up;0.36467239999910817;0.370058100001188;97957.0668204;c;0.42464930001005996;0.4279083000001265;97957.4987926;2.8999929782003164e-06;0.5047892000002321;0.5448041999916313;0.5548252000007778;0.6248506999982055;0.7549504000053275;0.8850272999989102;0.01
10;1;10;14;letter357;letter181;letter357;letter181;0;0;incongruent;0.04;letter357;0.05;0.07;fullmask;0.2;arrow_right.png;up;0.4680987999890931;0.4706815999961691;97959.4508711;m;0.43541459999687504;0.43789830000605434;97959.8907655;2.5999906938523054e-06;0.495896399996127;0.5359135999897262;0.5459182999911718;0.6159495000028983;0.7460308000008808;0.8761423999967519;0.01
10;1;10;15;letter357;letter181;letter357;letter181;0;1;incongruent;0.12;letter181;0.14;0.07;fullmask;0.2;arrow_left.png;down;0.31367210000462364;0.32020540001394693;97961.7788073;c;0.41549010000017006;0.4179366000025766;97962.2027729;2.6999914553016424e-06;0.49600769999960903;0.6160782999941148;0.6360720999946352;0.7061465000006137;0.8362114999908954;0.9663134000002174;0.01
10;1;10;16;letter357;letter181;letter357;letter181;0;0;congruent;0.04;letter181;0.05;0.07;fullmask;0.2;arrow_right.png;down;0.4150211000087438;0.42093279999971855;97964.0908034;m;0.4240824000007706;0.42791280000528786;97964.5227316;2.800006768666208e-06;0.49782889999914914;0.5378458000050159;0.5478411000076449;0.6178675999981351;0.7479686000006041;0.8780559000006178;0.01
10;1;10;17;letter357;letter181;letter357;letter181;0;0;congruent;0.04;letter181;0.05;0.07;fullmask;0.2;arrow_right.png;down;0.3314223000052152;0.34025359999213833;97966.3389827;m;0.45318830000178423;0.4589319000078831;97966.8028338;2.5999906938523054e-06;0.49495829999796115;0.5349550999962958;0.5449607999908039;0.6149876999988919;0.7451061999890953;0.8751918999914778;0.01
10;1;10;18;letter357;letter181;letter357;letter181;0;0;congruent;0.04;letter357;0.05;0.07;fullmask;0.2;arrow_left.png;up;0.31394710000313353;0.32015600000158884;97968.6027934;c;0.3758283999923151;0.37904010000056587;97968.9867728;2.7000060072168708e-06;0.5028762000001734;0.5428821999958018;0.5528778000007151;0.6229281999985687;0.7530138000001898;0.883062399996561;0.01
10;1;10;19;letter357;letter181;letter357;letter181;0;0;incongruent;0.04;letter357;0.05;0.07;fullmask;0.2;arrow_right.png;up;0.41267079999670386;0.4207926000090083;97970.8828766;m;0.5019281999993837;0.5077013999980409;97971.3948604;2.7000060072168708e-06;0.5010843000054592;0.5411161000083666;0.5511417000088841;0.6211621000111336;0.751239400007762;0.881353400007356;0.01
10;1;10;20;letter357;letter181;letter357;letter181;0;0;incongruent;0.04;letter181;0.05;0.07;fullmask;0.2;arrow_left.png;up;0.4566116000059992;0.4598304000101052;97973.3788071;c;0.5083025000058115;0.510675600002287;97974.0908477;2.6000052457675338e-06;0.49893299999530427;0.5389379999978701;0.5489510000043083;0.6189856999990297;0.7491219999938039;0.8791626000020187;0.01
10;1;10;21;letter357;letter181;letter357;letter181;0;0;incongruent;0.04;letter357;0.05;0.07;fullmask;0.2;arrow_right.png;up;0.27255379999405704;0.27980489999754354;97975.8668144;m;0.43130300000484567;0.43888329999754205;97976.3068128;2.8999929782003164e-06;0.5049583999934839;0.5449956999946153;0.5549993000022369;0.6249843999976292;0.7551156999979867;0.8852354999980889;0.01
10;1;10;22;letter357;letter181;letter357;letter181;0;0;congruent;0.04;letter357;0.05;0.07;fullmask;0.2;arrow_left.png;up;1.19160049999482;1.2007172999874456;97978.9868156;c;0.3649844000028679;0.36807280000357423;97979.36285;2.6000052457675338e-06;0.5006590999983018;0.5406846999976551;0.5506872999976622;0.6207128000096418;0.7507937000045786;0.880899199997657;0.01
10;1;10;23;letter357;letter181;letter357;letter181;0;0;congruent;0.04;letter357;0.05;0.07;fullmask;0.2;arrow_left.png;up;0.5112080999970203;0.5196730000025127;97981.3787967;c;0.43766720000712667;0.4389777000033064;97981.8268659;2.7000060072168708e-06;0.505730400007451;0.545754400009173;0.5557650000118883;0.6257895000017015;0.7558664000098361;0.8859833000024082;0.01
10;1;10;24;letter357;letter181;letter357;letter181;0;0;incongruent;0.04;letter181;0.05;0.07;fullmask;0.2;arrow_left.png;down;0.33181689999764785;0.340110300006927;97983.6508621;c;0.46971900000062305;0.477772800004459;97984.1308184;2.6999914553016424e-06;0.49696669999684673;0.536990099994;0.5469783000007737;0.6170287999993889;0.7470983999955934;0.8772067999962019;0.01
10;1;10;25;letter357;letter181;letter357;letter181;0;0;congruent;0.04;letter357;0.05;0.07;fullmask;0.2;arrow_left.png;up;0.28670889999193605;0.29028509999625385;97985.9467973;c;0.4104551999917021;0.4179318999958923;97986.3627689;2.6999914553016424e-06;0.5047411999985343;0.5447481999872252;0.554767499997979;0.6247853999957442;0.7548772000009194;0.8849838999885833;0.01
10;1;10;26;letter357;letter181;letter357;letter181;0;0;congruent;0.04;letter181;0.05;0.07;fullmask;0.2;arrow_right.png;down;0.37541009999404196;0.38004399999044836;97988.2267937;m;0.4414398000080837;0.44886000000406057;97988.6748016;2.6999914553016424e-06;0.4951425999897765;0.5351577999972505;0.5451759999996284;0.6152098000020487;0.7452889999985928;0.8753934999986086;0.01
10;1;10;27;letter357;letter181;letter357;letter181;0;0;incongruent;0.04;letter181;0.05;0.07;fullmask;0.2;arrow_left.png;down;0.7415983999962918;0.7501721999869915;97990.9150529;c;0.40535060000547674;0.4089667000080226;97991.3307933;2.5999906938523054e-06;0.5006140000041341;0.5406393000012031;0.55064119999588;0.6206820999941556;0.75075389999256;0.8808572999987518;0.01
10;1;10;28;letter357;letter181;letter357;letter181;0;0;incongruent;0.04;letter181;0.05;0.07;fullmask;0.2;arrow_left.png;down;0.2515951999957906;0.26022919999377336;97993.0668058;c;0.3894704999984242;0.39753980000386946;97993.466873;2.7000060072168708e-06;0.5042367999994894;0.5442640000110259;0.5542942000029143;0.6242985999997472;0.7544057000050088;0.8845164000085788;0.01
10;1;10;29;letter357;letter181;letter357;letter181;0;0;incongruent;0.04;letter357;0.05;0.07;fullmask;0.2;arrow_right.png;up;0.23613400000613183;0.23942250000254717;97995.202795;m;0.6267421999946237;0.6283704999950714;97995.8347641;2.7000060072168708e-06;0.5030219000036595;0.5430555000057211;0.5530656000046292;0.6231014000077266;0.7531832000095164;0.8832615999999689;0.01
10;1;10;30;letter357;letter181;letter357;letter181;0;0;congruent;0.04;letter181;0.05;0.07;fullmask;0.2;arrow_right.png;down;0.6208492000005208;0.6304648999939673;97997.9389894;m;0.44432930000766646;0.4478454000054626;97998.3947512;2.6000052457675338e-06;0.4996045000007143;0.5396113000024343;0.549622200007434;0.6196377000014763;0.7497381000139285;0.8798265000077663;0.01
10;1;10;31;letter357;letter181;letter357;letter181;0;0;incongruent;0.04;letter357;0.05;0.07;fullmask;0.2;arrow_right.png;up;0.5648778000031598;0.5694058999943081;98000.4748012;m;1.2254945000022417;1.229776000007405;98001.7067578;2.6000052457675338e-06;0.495996900004684;0.5360261000023456;0.5460445000062464;0.6160859000083292;0.7461662999994587;0.8762445000029402;0.01
10;1;10;32;letter357;letter181;letter357;letter181;0;0;incongruent;0.04;letter181;0.05;0.07;fullmask;0.2;arrow_left.png;down;0.36313429998699576;0.3700587999919662;98003.5547974;c;0.4231500000023516;0.42791220000071917;98003.9868046;2.7000060072168708e-06;0.496105099999113;0.5361436999955913;0.5461483999970369;0.6161703999969177;0.7462590000068303;0.8763425000070129;0.01
10;1;10;33;letter357;letter181;letter357;letter181;0;0;congruent;0.04;letter357;0.05;0.07;fullmask;0.2;arrow_left.png;up;0.35380180001084227;0.3597938000020804;98005.8668173;c;0.47219510001013987;0.47898350001196377;98006.3469438;2.5000044843181968e-06;0.5025992000009865;0.542623100001947;0.5526478000101633;0.622656100007589;0.7527368000010028;0.8828413000010187;0.01
10;1;10;34;letter357;letter181;letter357;letter181;0;0;incongruent;0.04;letter357;0.05;0.07;fullmask;0.2;arrow_right.png;up;0.9186794000124792;0.92059860000154;98008.7627974;m;0.3721006999985548;0.3790728999883868;98009.1387545;2.6999914553016424e-06;0.5028518999897642;0.5428984999889508;0.5529098999977577;0.622961299988674;0.7530281999934232;0.8831730999954743;0.01
10;1;10;35;letter357;letter181;letter357;letter181;0;0;congruent;0.04;letter181;0.05;0.07;fullmask;0.2;arrow_right.png;down;0.36089260000153445;0.37003530000220053;98010.9870559;m;0.40465310000581667;0.40894560000742786;98011.4027889;2.6000052457675338e-06;0.5025281999987783;0.5425566000049002;0.5525580000103218;0.6226087000104599;0.7526971000042977;0.8827823000028729;0.01
10;1;10;36;letter357;letter181;letter357;letter181;0;0;congruent;0.04;letter357;0.05;0.07;fullmask;0.2;arrow_left.png;up;0.32888059999095276;0.33013149999896996;98013.2267551;c;0.38880679999419954;0.39796319999732077;98013.6187602;2.5999906938523054e-06;0.5003367999888724;0.5403437999921152;0.5503478999889921;0.6203878999949666;0.7504679999983637;0.8805694999900879;0.01
10;1;10;37;letter357;letter181;letter357;letter181;0;1;congruent;0.12;letter357;0.14;0.07;fullmask;0.2;arrow_left.png;up;0.3134847000037553;0.32029859999602195;98015.5229484;c;0.39117129999795;0.3979914999945322;98015.9227615;2.7000060072168708e-06;0.502177300004405;0.6222661000065273;0.6422672000044258;0.7123042000021087;0.8423934000020381;0.9724789000028977;0.01
10;1;10;38;letter357;letter181;letter357;letter181;0;0;congruent;0.04;letter181;0.05;0.07;fullmask;0.2;arrow_right.png;down;0.4082691999938106;0.41091079999750946;98017.8587822;m;0.5074340999999549;0.5075844000093639;98018.3707909;2.7999922167509794e-06;0.5050547999999253;0.5450704999966547;0.5550791999994544;0.6250999000039883;0.755193999997573;0.8853031000035116;0.01
10;1;10;39;letter357;letter181;letter357;letter181;0;0;incongruent;0.04;letter181;0.05;0.07;fullmask;0.2;arrow_left.png;down;0.6142099999997299;0.620387800008757;98020.4667889;c;0.5358348000008846;0.5375966999999946;98021.0107597;2.800006768666208e-06;0.49766290000115987;0.53766820000601;0.547684000004665;0.6177133000019239;0.7478077000123449;0.8779056000057608;0.01
10;1;10;40;letter357;letter181;letter357;letter181;0;0;congruent;0.04;letter181;0.05;0.07;fullmask;0.2;arrow_right.png;down;0.27702370000770316;0.28016439999919385;98022.7708388;m;0.4349383999942802;0.4390117000002647;98023.2108478;2.7000060072168708e-06;0.49636350000218954;0.536395100003574;0.5464141000120435;0.6164306999999098;0.7465364000090631;0.876603900003829;0.01
10;1;10;41;letter357;letter181;letter357;letter181;0;0;congruent;0.04;letter357;0.05;0.07;fullmask;0.2;arrow_left.png;up;0.3477019999991171;0.34999319999769796;98025.0427912;c;0.3716926999913994;0.37906989999464713;98025.4187078;2.5999906938523054e-06;0.49934769999526907;0.539372999992338;0.5493893999955617;0.619400499999756;0.7494815999962157;0.8795988999918336;0.01
10;1;10;42;letter357;letter181;letter357;letter181;0;0;congruent;0.04;letter181;0.05;0.07;fullmask;0.2;arrow_right.png;down;0.28979740000795573;0.2900450000015553;98027.1868274;m;0.41365430000587367;0.4179373999941163;98027.6027483;2.6000052457675338e-06;0.50125040000421;0.541264700004831;0.551295500001288;0.621303199994145;0.7514057999942452;0.8814936999988277;0.01
10;1;10;43;letter357;letter181;letter357;letter181;0;0;incongruent;0.04;letter357;0.05;0.07;fullmask;0.2;arrow_right.png;up;0.38443560000450816;0.3901162999973167;98029.4829783;m;0.45626390000688843;0.45783270000538323;98029.9467579;2.7000060072168708e-06;0.49911810000776313;0.5391431000025477;0.5491518000053475;0.619191600009799;0.7492580999969505;0.8793765000009444;0.01
10;1;10;44;letter357;letter181;letter357;letter181;0;1;incongruent;0.12;letter357;0.14;0.07;fullmask;0.2;arrow_right.png;up;0.25065149999863934;0.25923369999509305;98031.8108355;m;0.46136180000030436;0.4687993999978062;98032.2827129;2.800006768666208e-06;0.5046475999988616;0.6247146000096109;0.6447305000037886;0.7147375000058673;0.8448517000069842;0.974922699999297;0.01
10;1;10;45;letter357;letter181;letter357;letter181;0;0;incongruent;0.04;letter181;0.05;0.07;fullmask;0.2;arrow_left.png;down;2.839457800000673;2.841770600003656;98036.610843;c;0.9157763999974122;0.9186970000009751;98037.5308734;2.7000060072168708e-06;0.5006094000127632;0.5406440000078874;0.5506482000055257;0.6206896000076085;0.7507627000013599;0.880858900010935;0.01
10;1;10;46;letter357;letter181;letter357;letter181;0;0;congruent;0.04;letter357;0.05;0.07;fullmask;0.2;arrow_left.png;up;0.4106464000069536;0.4208097000082489;98039.4348285;c;0.731823300011456;0.7380804999993416;98040.1787501;2.7000060072168708e-06;0.4996660000033444;0.5396651000046404;0.5496894000098109;0.6197328999987803;0.7498016000026837;0.8799027000059141;0.01
10;1;10;47;letter357;letter181;letter357;letter181;0;0;congruent;0.04;letter181;0.05;0.07;fullmask;0.2;arrow_right.png;down;0.0725858999940101;0.07995089999167249;98041.7387947;m;0.4866723000013735;0.48865929999738;98042.234753;2.800006768666208e-06;0.5038589000032516;0.5438851000071736;0.5539160000043921;0.6239331000106176;0.7540302000124939;0.8841055000084452;0.01
10;1;10;48;letter357;letter181;letter357;letter181;0;0;incongruent;0.04;letter357;0.05;0.07;fullmask;0.2;arrow_right.png;up;0.34918150000157766;0.34998600000108127;98044.066852;m;0.9971501000109129;0.9983686000050511;98045.0667641;2.7000060072168708e-06;0.5031889000092633;0.5432102000049781;0.55322950000118;0.6232571000000462;0.7533402000117349;0.883430000001681;0.01
10;1;10;49;letter357;letter181;letter357;letter181;0;0;congruent;0.04;letter181;0.05;0.07;fullmask;0.2;arrow_right.png;down;0.6036625999986427;0.6105188000074122;98047.1629456;m;0.5111628999875393;0.5186696000018856;98047.6827959;2.6000052457675338e-06;0.5036738000053447;0.5436840000038501;0.5536959000019124;0.6237200000032317;0.7538005000096746;0.8839205999975093;0.01
10;1;10;50;letter357;letter181;letter357;letter181;0;0;congruent;0.04;letter357;0.05;0.07;fullmask;0.2;arrow_left.png;up;0.2794522999902256;0.280311199996504;98049.4907766;c;0.42912149999756366;0.4378819999983534;98049.9226961;2.6000052457675338e-06;0.504424900005688;0.5444483000028413;0.554448200011393;0.6244819999992615;0.7545671000116272;0.884672700005467;0.01
10;1;10;51;letter357;letter181;letter357;letter181;0;0;congruent;0.04;letter357;0.05;0.07;fullmask;0.2;arrow_left.png;up;0.2944037999986904;0.30020040000090376;98051.7067849;c;0.44830350000120234;0.4488732000027085;98052.1628409;2.6000052457675338e-06;0.5027723999955924;0.5428062999999383;0.5527976000012131;0.6228525000042282;0.752939800004242;0.8830351000069641;0.01
10;1;10;52;letter357;letter181;letter357;letter181;0;0;incongruent;0.04;letter181;0.05;0.07;fullmask;0.2;arrow_left.png;down;0.2707899999950314;0.2803669999993872;98053.9149966;c;0.4443330999929458;0.4478577999980189;98054.3707434;2.5999906938523054e-06;0.5057587999908719;0.5457705000007991;0.5557598000013968;0.6257943999953568;0.7558946999924956;0.8859920999966562;0.01
10;2;17;1;letter169;letter190;letter169;letter190;0;0;incongruent;0.04;letter190;0.09;0.07;fullmask;0.2;arrow_left.png;down;1.5808393000042997;1.5817718000034802;98880.6746814;c;0.6610564000002341;0.6682728000014322;98881.3385754;2.6999914553016424e-06;0.4975282999948831;0.5375373999995645;0.5875496999942698;0.6576040999934776;0.7876911999919685;0.9177775999996811;0.01
10;2;17;2;letter169;letter190;letter169;letter190;0;0;congruent;0.04;letter190;0.09;0.07;fullmask;0.2;arrow_right.png;up;0.446339900008752;0.45086060000176076;98883.3225911;m;0.5549418999871705;0.5594599999894854;98884.0825616;2.6000052457675338e-06;0.49803449999308214;0.538040400002501;0.5880576000054134;0.6581187999981921;0.7881752999965101;0.918293700000504;0.01
10;2;17;3;letter169;letter190;letter169;letter190;0;0;congruent;0.04;letter169;0.09;0.07;fullmask;0.2;arrow_left.png;down;0.4581336000119336;0.4606966999999713;98886.0665923;c;0.8380496000027051;0.8408529000007547;98887.1065663;2.5000044843181968e-06;0.4997736000077566;0.5397960999980569;0.5898316000093473;0.6598606000043219;0.7899546999979066;0.9200429000047734;0.01
10;2;17;4;letter169;letter190;letter169;letter190;0;0;congruent;0.04;letter169;0.09;0.07;fullmask;0.2;arrow_left.png;up;0.36637960000371095;0.3709632999962196;98888.9866055;c;0.6974948999995831;0.6981882999971276;98889.6905937;2.6999914553016424e-06;0.4973303000006126;0.5373370000015711;0.5874021999916295;0.6574031000054674;0.7875162999989698;0.917585399991367;0.01
10;2;17;5;letter169;letter190;letter169;letter190;0;1;incongruent;0.12;letter169;0.18;0.07;fullmask;0.2;arrow_right.png;up;0.4529492999863578;0.4609199999977136;98891.7547806;m;0.4141111000062665;0.4180415000009816;98892.1786927;2.6000052457675338e-06;0.4950258000026224;0.6150804000062635;0.6751191999937873;0.7451505000062753;0.8752278000029037;1.0053449999977602;0.01
10;2;17;6;letter169;letter190;letter169;letter190;0;0;incongruent;0.04;letter169;0.09;0.07;fullmask;0.2;arrow_right.png;up;0.2432223000068916;0.2502456000074744;98893.9465911;m;0.45503090000420343;0.45883070000854786;98894.4105859;2.6000052457675338e-06;0.5044619999971474;0.5444870999926934;0.5945307999936631;0.6645511999959126;0.7946603000018513;0.9247382000030484;0.01
10;2;17;7;letter169;letter190;letter169;letter190;0;0;incongruent;0.04;letter169;0.09;0.07;fullmask;0.2;arrow_right.png;up;0.9690592999977525;0.970624499997939;98896.9145404;m;0.548513699992327;0.5585614000010537;98897.4665575;2.6000052457675338e-06;0.5034577000042191;0.5434623000037391;0.5935042000055546;0.6635319000051823;0.7935919000010472;0.9237063000036869;0.01
10;2;17;8;letter169;letter190;letter169;letter190;0;0;incongruent;0.04;letter169;0.09;0.07;fullmask;0.2;arrow_right.png;up;0.597215400004643;0.6005526000080863;98899.5946522;m;0.40301110000291374;0.4081294999923557;98900.0028368;2.7999922167509794e-06;0.5018999999883818;0.541953599997214;0.5919799999974202;0.6620198000018718;0.7921019999921555;0.9222065999929328;0.01
10;2;17;9;letter169;letter190;letter169;letter190;0;0;incongruent;0.04;letter190;0.09;0.07;fullmask;0.2;arrow_left.png;down;0.40005540000856854;0.409917700002552;98901.9387483;c;0.38806969999859575;0.38901349999650847;98902.3386201;2.5000044843181968e-06;0.5051020000100834;0.5451293000078294;0.5951424000086263;0.6651789000025019;0.7952576000097906;0.9253517000033753;0.01
10;2;17;10;letter169;letter190;letter169;letter190;0;0;congruent;0.04;letter190;0.09;0.07;fullmask;0.2;arrow_right.png;down;0.3909086999919964;0.40098089999810327;98904.2506565;m;0.35591759999806527;0.35809619999781717;98904.6185426;2.7000060072168708e-06;0.504675899996073;0.5446957000094699;0.594752500008326;0.6647670999955153;0.7948598000075435;0.9249550999957137;0.01
10;2;17;11;letter169;letter190;letter169;letter190;0;0;congruent;0.04;letter190;0.09;0.07;fullmask;0.2;arrow_right.png;up;0.3325461000058567;0.34009130000777077;98906.4745713;m;0.46420500001113396;0.4697881000029156;98907.1468388;2.4999899324029684e-06;0.5029257999995025;0.5429433999961475;0.5929635999927996;0.663024299996323;0.7930846999952337;0.9231814999948256;0.01
10;2;17;12;letter169;letter190;letter169;letter190;0;0;congruent;0.04;letter169;0.09;0.07;fullmask;0.2;arrow_left.png;up;0.4753157000086503;0.4806669999961741;98909.1385886;c;0.6726866999961203;0.6782738999900175;98909.8185585;2.7999922167509794e-06;0.4997217000054661;0.5397295000002487;0.5897720999928424;0.6597948999988148;0.7898890999931609;0.9199858000065433;0.01
10;2;17;13;letter169;letter190;letter169;letter190;0;0;incongruent;0.04;letter190;0.09;0.07;fullmask;0.2;arrow_left.png;down;0.42399150000710506;0.43086740000580903;98911.7786377;c;0.4310926999896765;0.4378753999917535;98912.2185503;2.7000060072168708e-06;0.5047029999986989;0.5447496000124374;0.5947600000072271;0.664785100001609;0.7948788000066997;0.9249903000018094;0.01
10;2;17;14;letter169;letter190;letter169;letter190;0;1;congruent;0.12;letter190;0.18;0.07;fullmask;0.2;arrow_right.png;down;0.35978199999954086;0.37001600000075996;98914.1866603;m;0.3797268000053009;0.38801120000425726;98914.5785551;2.7000060072168708e-06;0.4985351999930572;0.6185350000014296;0.6786145999940345;0.7486496000055922;0.8787317999958759;1.008839000001899;0.01
10;2;17;15;letter169;letter190;letter169;letter190;0;0;congruent;0.04;letter190;0.09;0.07;fullmask;0.2;arrow_right.png;down;1.1568279999919469;1.1609538000047905;98917.2745853;m;0.6019109000044409;0.6084258000046248;98917.8825621;2.7000060072168708e-06;0.4993343000096502;0.5393599000090035;0.5893600999988848;0.6594154000049457;0.7894902999978513;0.9196033000043826;0.01
10;2;17;16;letter169;letter190;letter169;letter190;0;0;incongruent;0.04;letter190;0.09;0.07;fullmask;0.2;arrow_left.png;down;1.093965499996557;1.0999904000054812;98920.5145845;c;0.3840329999948153;0.3890137999987928;98920.9065789;2.7000060072168708e-06;0.5021828000026289;0.5422293000010541;0.5922587000095518;0.6622719000006327;0.7923804000020027;0.9224774000031175;0.01
10;2;17;17;letter169;letter190;letter169;letter190;0;0;congruent;0.04;letter169;0.09;0.07;fullmask;0.2;arrow_left.png;up;0.2086362999980338;0.2104457000095863;98922.6505981;c;0.4281453000003239;0.43787219999649096;98923.0825048;2.6999914553016424e-06;0.5005449999880511;0.5405683999997564;0.5905785999930231;0.6606141999945976;0.7907053999952041;0.92077509999217;0.01
10;2;17;18;letter169;letter190;letter169;letter190;0;0;incongruent;0.04;letter190;0.09;0.07;fullmask;0.2;arrow_left.png;down;0.45878580000135116;0.45983110000088345;98925.0825609;c;0.3730426999973133;0.3780486000032397;98925.4585823;2.7000060072168708e-06;0.49554689999786206;0.5355742999963695;0.5856065999978455;0.6556468000053428;0.7857330999977421;0.9158177000063006;0.01
10;2;17;19;letter169;letter190;letter169;letter190;0;0;congruent;0.04;letter190;0.09;0.07;fullmask;0.2;arrow_right.png;down;0.3856775999884121;0.39001759998791385;98927.3705846;m;0.38574379999772646;0.38911109999753535;98927.7626078;2.5999906938523054e-06;0.4960438999987673;0.5360835999890696;0.5860991999943508;0.6561554999934742;0.7862055000005057;0.9163110999943456;0.01
10;2;17;20;letter169;letter190;letter169;letter190;0;0;congruent;0.04;letter169;0.09;0.07;fullmask;0.2;arrow_left.png;up;1.076361999992514;1.0811200000025565;98930.3625869;c;0.4892961000005016;0.49872180000238586;98930.8585804;2.5999906938523054e-06;0.496145199998864;0.5361755999911111;0.586221099991235;0.6562368000013521;0.7863448999996763;0.9164018000010401;0.01
10;2;17;21;letter169;letter190;letter169;letter190;0;0;incongruent;0.04;letter169;0.09;0.07;fullmask;0.2;arrow_right.png;up;1.6843189999926835;1.6914928000041982;98934.0825769;m;0.41499609999300446;0.41793359999428503;98934.5066865;2.7000060072168708e-06;0.4988450999953784;0.5388660000025993;0.5889178000070387;0.6589473000058206;0.7890322000021115;0.9191394999943441;0.01
10;2;17;22;letter169;letter190;letter169;letter190;0;0;congruent;0.04;letter190;0.09;0.07;fullmask;0.2;arrow_right.png;down;0.6439580000005662;0.6503077999950619;98936.6745858;m;0.41575790000206325;0.4190342999936547;98937.0986311;2.8999929782003164e-06;0.5034836999984691;0.5435084999917308;0.593494799992186;0.663563800000702;0.7936554999905638;0.9237677999917651;0.01
10;2;17;23;letter169;letter190;letter169;letter190;0;0;congruent;0.04;letter169;0.09;0.07;fullmask;0.2;arrow_left.png;up;0.27598419999412727;0.2801723000011407;98938.898653;c;0.37789029999112245;0.3880180999985896;98939.2826715;2.7000060072168708e-06;0.49912910000421107;0.5391552000073716;0.589168200007407;0.6592133000085596;0.7892894000106025;0.9193849000002956;0.01
10;2;17;24;letter169;letter190;letter169;letter190;0;0;incongruent;0.04;letter190;0.09;0.07;fullmask;0.2;arrow_left.png;down;0.35669729999790434;0.36010029999306425;98941.1705753;c;0.37063689999922644;0.3780409999890253;98941.5465507;2.800006768666208e-06;0.5010509999992792;0.541081800009124;0.5910972000128822;0.6611307000130182;0.7912299000017811;0.921319000000949;0.01
10;2;17;25;letter169;letter190;letter169;letter190;0;0;incongruent;0.04;letter169;0.09;0.07;fullmask;0.2;arrow_right.png;up;0.38147409999510273;0.3909659999917494;98943.4665885;m;0.3246363999933237;0.32819189998554066;98943.802658;2.5999906938523054e-06;0.4982690000033472;0.5382928000035463;0.5883116999902995;0.6583555999968667;0.788429799998994;0.9185397999972338;0.01
10;2;17;26;letter169;letter190;letter169;letter190;0;0;incongruent;0.04;letter169;0.09;0.07;fullmask;0.2;arrow_right.png;up;0.8175898000044981;0.8200429999997141;98946.1545858;m;0.34767280000960454;0.3491262000025017;98946.5066491;2.7000060072168708e-06;0.4992679999995744;0.5393031999992672;0.5893283000041265;0.6594654000073206;0.7894350999995368;0.9195552000019234;0.01
10;2;17;27;letter169;letter190;letter169;letter190;0;0;incongruent;0.04;letter190;0.09;0.07;fullmask;0.2;arrow_left.png;down;0.2519478999893181;0.2603627999924356;98948.2906328;c;0.3335140999988653;0.3381476999929873;98948.6345018;2.800006768666208e-06;0.5048919999971986;0.5449040999956196;0.5949476999958279;0.6649704000010388;0.7950700999936089;0.9251624000025913;0.01
10;2;17;28;letter169;letter190;letter169;letter190;0;0;congruent;0.04;letter169;0.09;0.07;fullmask;0.2;arrow_left.png;up;0.5863576000119792;0.5904257000074722;98950.7466068;c;0.3540087000001222;0.3580995999946026;98951.1066216;2.6000052457675338e-06;0.4968949000030989;0.5369766000076197;0.586941300003673;0.6569840000011027;0.7870707999973092;0.9171733999974094;0.01
10;2;17;29;letter169;letter190;letter169;letter190;0;0;incongruent;0.04;letter190;0.09;0.07;fullmask;0.2;arrow_left.png;down;0.3015441999887116;0.31023129999812227;98952.9225928;m;0.41340130000025965;0.4189553000032902;98953.3466147;2.7000060072168708e-06;0.496557100006612;0.5365771000069799;0.5866324000089662;0.6566507999959867;0.7867432000057306;0.9168336000002455;0.01
10;2;17;30;letter169;letter190;letter169;letter190;0;0;incongruent;0.04;letter169;0.09;0.07;fullmask;0.2;arrow_right.png;up;0.3639839000097709;0.37116760000935756;98955.2265879;m;0.3671466999949189;0.36817439999140333;98955.6027489;2.7000060072168708e-06;0.4975135999993654;0.5375335999997333;0.5875734000001103;0.6576176000089617;0.7876730000134557;0.917791900006705;0.01
10;2;17;31;letter169;letter190;letter169;letter190;0;0;incongruent;0.04;letter169;0.09;0.07;fullmask;0.2;arrow_right.png;up;1.2299650000059046;1.2307300999964355;98958.3545577;m;0.36527020001085475;0.36806830001296476;98958.7225307;2.6999914553016424e-06;0.5040751999913482;0.5440984000015305;0.5941340999997919;0.6641494999930728;0.7942588000005344;0.9243370999902254;0.01
10;2;17;32;letter169;letter190;letter169;letter190;0;0;congruent;0.04;letter190;0.09;0.07;fullmask;0.2;arrow_right.png;down;0.3599961999861989;0.3700687999953516;98960.6266426;c;0.8358967999956803;0.8388163999916287;98961.4745462;2.7000060072168708e-06;0.5032303000043612;0.5432417999982135;0.5933050000021467;0.6633160000055796;0.7934108000044944;0.9234872000088217;0.01
10;2;17;33;letter169;letter190;letter169;letter190;0;0;congruent;0.04;letter190;0.09;0.07;fullmask;0.2;arrow_right.png;down;0.4541227000008803;0.45965269999578595;98963.442568;m;0.3285904000076698;0.32917430000088643;98963.7786244;2.7000060072168708e-06;0.4978421999985585;0.5378638999973191;0.5879005000024335;0.6579273000097601;0.7880264999985229;0.9181132000085199;0.01
10;2;17;34;letter169;letter190;letter169;letter190;0;0;incongruent;0.04;letter169;0.09;0.07;fullmask;0.2;arrow_right.png;up;0.35876780000398867;0.3600962999917101;98965.6585442;m;0.34872080000059213;0.35817690000112634;98966.0105322;2.900007530115545e-06;0.5012221000069985;0.5412673000100767;0.591281600005459;0.6613192000077106;0.7914094000007026;0.9215104000031715;0.01
10;2;17;35;letter169;letter190;letter169;letter190;0;0;incongruent;0.04;letter190;0.09;0.07;fullmask;0.2;arrow_left.png;down;0.37190820000250824;0.38099779999174643;98967.9225639;c;0.4769120999990264;0.47777460000361316;98968.4105147;2.6000052457675338e-06;0.5058521000028122;0.5458942999975989;0.5959026000055019;0.66594669999904;0.7960220999957528;0.9261248999973759;0.01
10;2;17;36;letter169;letter190;letter169;letter190;0;0;congruent;0.04;letter169;0.09;0.07;fullmask;0.2;arrow_left.png;up;0.28393940000387374;0.29023710000910796;98970.2265682;c;0.36774610000429675;0.367973800006439;98970.6025545;2.6000052457675338e-06;0.501011300002574;0.5410429000039585;0.5910678000072949;0.6611065000033705;0.7911849999945844;0.9212840999971377;0.01
10;2;17;37;letter169;letter190;letter169;letter190;0;0;congruent;0.04;letter169;0.09;0.07;fullmask;0.2;arrow_left.png;up;0.4944602999894414;0.5007516999903601;98972.6186222;c;0.3597218999930192;0.36808829999063164;98972.9865246;2.6000052457675338e-06;0.5047530000010738;0.5447744999983115;0.5948129000025801;0.664854300004663;0.7949405999970622;0.9250336999975843;0.01
10;2;17;38;letter169;letter190;letter169;letter190;0;1;incongruent;0.12;letter190;0.18;0.07;fullmask;0.2;arrow_left.png;down;0.5709968000010122;0.5804975000064587;98975.1865878;c;0.404510799999116;0.4079607000021497;98975.6025351;2.5999906938523054e-06;0.5018763999978546;0.6219437999970978;0.6819850000028964;0.7520212999952491;0.8821022999909474;1.012209199994686;0.01
10;2;17;39;letter169;letter190;letter169;letter190;0;0;congruent;0.04;letter190;0.09;0.07;fullmask;0.2;arrow_right.png;up;0.30740350000269245;0.3102035000047181;98977.4346237;m;0.4528673000022536;0.45982309999817517;98978.0906983;2.7999922167509794e-06;0.4992509000003338;0.53927670000121;0.589312099997187;0.6593156000017188;0.7894178999995347;0.9195412999979453;0.01
10;2;17;40;letter169;letter190;letter169;letter190;0;0;incongruent;0.04;letter169;0.09;0.07;fullmask;0.2;arrow_right.png;up;0.39791889999469277;0.4009401999937836;98980.0265768;m;0.4349860000074841;0.43788140000833664;98980.4665278;2.5000044843181968e-06;0.5050723000022117;0.5450896999973338;0.5951310999953421;0.6651624999940395;0.7952539999969304;0.9253484000073513;0.01
10;2;17;41;letter169;letter190;letter169;letter190;0;0;congruent;0.04;letter190;0.09;0.07;fullmask;0.2;arrow_right.png;down;0.21217079999041744;0.22033029999874998;98982.2025719;m;0.4218771000014385;0.4279153999959817;98982.6345426;2.5999906938523054e-06;0.5027904999878956;0.5428091999929165;0.5928619999904186;0.6628727999923285;0.7929618999914965;0.9230571999942185;0.01
10;2;17;42;letter169;letter190;letter169;letter190;0;0;congruent;0.04;letter169;0.09;0.07;fullmask;0.2;arrow_left.png;up;1.0248267999995733;1.0302599999995437;98985.18656;c;0.38475219999963883;0.38911129999905825;98985.5786934;2.5999906938523054e-06;0.49883409999893047;0.538834399994812;0.5888718999922276;0.6588984999980312;0.7890234999940731;0.9190983000007691;0.01
10;2;17;43;letter169;letter190;letter169;letter190;0;0;incongruent;0.04;letter169;0.09;0.07;fullmask;0.2;arrow_right.png;up;0.39653959999850485;0.39988460000313353;98987.4905787;m;0.44271149999985937;0.44884949999686796;98987.9385479;2.7000060072168708e-06;0.4978865000011865;0.5379035000078147;0.5879368000023533;0.6579688000056194;0.788048999995226;0.9181392000027699;0.01
10;2;17;44;letter169;letter190;letter169;letter190;0;0;incongruent;0.04;letter169;0.09;0.07;fullmask;0.2;arrow_right.png;up;0.26368669999646954;0.2703400999889709;98989.7386522;m;0.37529179999546614;0.37804729999334086;98990.1225272;2.9999937396496534e-06;0.5025517000030959;0.5425770000001648;0.5926117000053637;0.6626508000044851;0.7927225000021281;0.9228028999932576;0.01
10;2;17;45;letter169;letter190;letter169;letter190;0;1;congruent;0.12;letter169;0.18;0.07;fullmask;0.2;arrow_left.png;up;0.3680832999962149;0.37006869999459013;98992.1145716;c;0.32399039999290835;0.32817639999848325;98992.4424817;2.6000052457675338e-06;0.49902010000369046;0.6190858000045409;0.6791416000050958;0.7491784000012558;0.879254100000253;1.0093608000024687;0.01
10;2;17;46;letter169;letter190;letter169;letter190;0;0;congruent;0.04;letter169;0.09;0.07;fullmask;0.2;arrow_left.png;up;0.35855349998746533;0.3600523999921279;98994.3465795;c;0.3565069000032963;0.35810149999451824;98994.7065276;2.7000060072168708e-06;0.5057299000036437;0.5457527000107802;0.5957756999996491;0.6658192000031704;0.7959030000056373;0.9260111000039615;0.01
10;2;17;47;letter169;letter190;letter169;letter190;0;0;congruent;0.04;letter169;0.09;0.07;fullmask;0.2;arrow_left.png;up;0.5014671999961138;0.5105524999962654;98996.7305483;m;0.6849703999905614;0.6892118999967352;98997.4265393;2.6000052457675338e-06;0.498302899999544;0.5383017999993172;0.5883204999990994;0.6583671999978833;0.7884432999999262;0.9185547999950359;0.01
10;2;17;48;letter169;letter190;letter169;letter190;0;0;congruent;0.04;letter190;0.09;0.07;fullmask;0.2;arrow_right.png;down;0.34507480000320356;0.3501248999964446;98999.3065784;m;0.37694800000463147;0.37804330000653863;98999.6905162;2.7000060072168708e-06;0.5033320999937132;0.5433577999938279;0.5933955999935279;0.6634147000004305;0.793512300006114;0.9236017000075663;0.01
10;2;17;49;letter169;letter190;letter169;letter190;0;0;incongruent;0.04;letter190;0.09;0.07;fullmask;0.2;arrow_left.png;down;0.6538327000016579;0.6602944999904139;99001.8666128;c;0.3596832000039285;0.3688109000067925;99002.2346957;2.5999906938523054e-06;0.5022201999963727;0.5422446000011405;0.5922416999965208;0.662287799990736;0.7923749999899883;0.9224794000037946;0.01
10;2;17;50;letter169;letter190;letter169;letter190;0;0;incongruent;0.04;letter190;0.09;0.07;fullmask;0.2;arrow_left.png;down;0.34060199999657925;0.34090439999999944;99004.1146263;c;0.429557700001169;0.4378794999938691;99004.5465453;2.800006768666208e-06;0.49933840001176577;0.5393588000006275;0.5894048000045586;0.659417000002577;0.789517800003523;0.9196164000022691;0.01
10;2;17;51;letter169;letter190;letter169;letter190;0;0;congruent;0.04;letter190;0.09;0.07;fullmask;0.2;arrow_right.png;down;0.32621309999376535;0.3300952999998117;99006.4025629;m;0.35410910000791773;0.3580987000023015;99006.7624914;2.5999906938523054e-06;0.503091399994446;0.5431026000005659;0.593130299996119;0.6631631999916863;0.7932669000001624;0.9233568999916315;0.01
10;2;17;52;letter169;letter190;letter169;letter190;0;0;incongruent;0.04;letter190;0.09;0.07;fullmask;0.2;arrow_left.png;down;0.5178258999949321;0.5206682999996701;99008.7946044;c;0.34712069999659434;0.34809559999848716;99009.1465325;2.7000060072168708e-06;0.49666000000433996;0.5366823000076693;0.5867146000091452;0.656733499999973;0.7868325000017649;0.916923400000087;0.01
10;2;18;1;letter169;letter190;letter169;letter190;0;0;incongruent;0.04;letter169;0.09;0.07;fullmask;0.2;arrow_right.png;up;0.6285958000080427;0.630365899996832;99019.5225553;m;0.38826029999472667;0.3979937999974936;99019.9145249;2.7999922167509794e-06;0.5011463999981061;0.541166199996951;0.591210400001728;0.6612376999983098;0.791326399994432;0.9214207000040915;0.01
10;2;18;2;letter169;letter190;letter169;letter190;0;0;incongruent;0.04;letter169;0.09;0.07;fullmask;0.2;arrow_right.png;up;0.314380900003016;0.32019250000303145;99021.7705579;m;0.4402180000033695;0.44786080000631046;99022.2185209;2.7000060072168708e-06;0.5007751000084681;0.5407794000057038;0.5908159000100568;0.6608637000026647;0.7909416000038618;0.9210439000016777;0.01
10;2;18;3;letter169;letter190;letter169;letter190;0;0;congruent;0.04;letter190;0.09;0.07;fullmask;0.2;arrow_right.png;down;0.34916850000445265;0.3500808000098914;99024.1066667;m;0.5170282000035513;0.518776800003252;99024.6265558;2.6000052457675338e-06;0.5009267999994336;0.5409360000048764;0.5909900999977253;0.6609991000004811;0.791103600000497;0.921183900005417;0.01
10;2;18;4;letter169;letter190;letter169;letter190;0;0;incongruent;0.04;letter190;0.09;0.07;fullmask;0.2;arrow_left.png;down;0.5735189999977592;0.5804986000002827;99026.7227404;c;0.4071784999978263;0.40806739999970887;99027.1387308;2.7000060072168708e-06;0.5043252000032226;0.5443405999976676;0.5945925999985775;0.6644138999981806;0.794504199991934;0.9246008000045549;0.01
10;2;18;5;letter169;letter190;letter169;letter190;0;0;incongruent;0.04;letter190;0.09;0.07;fullmask;0.2;arrow_left.png;down;0.4279844000120647;0.42991500000061933;99029.0985686;c;0.49211019999347627;0.49871990000247024;99029.5945501;2.5999906938523054e-06;0.5023027999995975;0.5423140999919269;0.5923227999883238;0.6623801999958232;0.792463099991437;0.9225537999882363;0.01
10;2;18;6;letter169;letter190;letter169;letter190;0;1;congruent;0.12;letter190;0.18;0.07;fullmask;0.2;arrow_right.png;down;0.34235370000533294;0.3499824000027729;99031.5545755;m;0.958422800002154;0.9684692000009818;99032.5225648;2.6999914553016424e-06;0.5022115999890957;0.622280999989016;0.6823211000009906;0.7523538999957964;0.8824358999991091;1.012541299991426;0.01
10;2;18;7;letter169;letter190;letter169;letter190;0;0;incongruent;0.04;letter190;0.09;0.07;fullmask;0.2;arrow_left.png;down;0.4233709000109229;0.4310247000103118;99034.4668511;c;0.3903951000102097;0.39802870000130497;99034.8667159;2.5999906938523054e-06;0.4971365999954287;0.5371538000035798;0.5871840000036173;0.6572237999935169;0.7873031999915838;0.9174064999970142;0.01
10;2;18;8;letter169;letter190;letter169;letter190;0;0;congruent;0.04;letter190;0.09;0.07;fullmask;0.2;arrow_right.png;down;0.953608499999973;0.9613435999926878;99037.338571;m;0.4463136999984272;0.4478579999995418;99037.7945535;2.7000060072168708e-06;0.49936129999696277;0.5393842000048608;0.5894416999944951;0.6594586999999592;0.7895286999992095;0.9196446999994805;0.01
10;2;18;9;letter169;letter190;letter169;letter190;0;0;incongruent;0.04;letter169;0.09;0.07;fullmask;0.2;arrow_right.png;up;0.38964999999734573;0.390969000000041;99039.7065985;m;0.3886657999973977;0.39798619999783114;99040.0985252;2.6000052457675338e-06;0.5038185000012163;0.5438379999977769;0.5938747000036528;0.6639060000015888;0.7939905999955954;0.9240844000014476;0.01
10;2;18;10;letter169;letter190;letter169;letter190;0;0;incongruent;0.04;letter169;0.09;0.07;fullmask;0.2;arrow_right.png;up;0.3398599999927683;0.3400651999982074;99041.9786428;m;0.3896200000017416;0.39798749999317806;99042.3704926;2.6000052457675338e-06;0.5036737000045832;0.5436850999976741;0.5936905999988085;0.6637410999974236;0.7938225999969291;0.9239383999956772;0.01
10;2;18;11;letter169;letter190;letter169;letter190;0;0;congruent;0.04;letter169;0.09;0.07;fullmask;0.2;arrow_left.png;up;0.3485415000031935;0.35007640000549145;99044.2585526;c;0.47648779999872204;0.47877669999434147;99044.7385127;2.6000052457675338e-06;0.5031206999992719;0.5431372000020929;0.5931725999980699;0.6631947999994736;0.7932905000052415;0.9233961999998428;0.01
10;2;18;12;letter169;letter190;letter169;letter190;0;0;incongruent;0.04;letter190;0.09;0.07;fullmask;0.2;arrow_left.png;down;0.308427899988601;0.3100947999919299;99046.5705104;c;0.41240770000149496;0.41790949999995064;99046.986551;2.7000060072168708e-06;0.5022539000055986;0.5422786999988602;0.5922886000043945;0.6623336000047857;0.7924276999983704;0.9225252000032924;0.01
10;2;18;13;letter169;letter190;letter169;letter190;0;0;incongruent;0.04;letter169;0.09;0.07;fullmask;0.2;arrow_right.png;up;0.32792550000885967;0.33109730000433046;99048.8505615;m;0.3868705999921076;0.388022799990722;99049.242619;2.7000060072168708e-06;0.4980734999990091;0.5381004999944707;0.588141700005508;0.6581639000069117;0.7882472000055714;0.9183350999956019;0.01
10;2;18;14;letter169;letter190;letter169;letter190;0;0;incongruent;0.04;letter169;0.09;0.07;fullmask;0.2;arrow_right.png;up;0.8680505999946035;0.8708330000081332;99051.6426116;m;0.443314799995278;0.4478590000071563;99052.0905251;2.7999922167509794e-06;0.4995613999926718;0.5395739999949001;0.5895967999967979;0.659638700002688;0.7897249999950873;0.9198248999891803;0.01
10;2;18;15;letter169;letter190;letter169;letter190;0;1;congruent;0.12;letter169;0.18;0.07;fullmask;0.2;arrow_left.png;up;0.2943325000087498;0.30024220001359936;99054.0105628;c;0.40808120000292547;0.40896109999448527;99054.4264947;2.7000060072168708e-06;0.5040507000085199;0.6241321999987122;0.6841591999982484;0.7541854000010062;0.8842806000029668;1.0143892000050982;0.01
10;2;18;16;letter169;letter190;letter169;letter190;0;0;congruent;0.04;letter169;0.09;0.07;fullmask;0.2;arrow_left.png;up;0.2611059000046225;0.2702928999933647;99056.2187525;c;0.35658749999129213;0.35809270000027027;99056.586468;2.7000060072168708e-06;0.5035198999976274;0.5435527000081493;0.593581399996765;0.6636060000018915;0.7937025999999605;0.9237941000028513;0.01
10;2;18;17;letter169;letter190;letter169;letter190;0;0;congruent;0.04;letter190;0.09;0.07;fullmask;0.2;arrow_right.png;down;0.3651668999955291;0.3699344999913592;99058.474558;m;0.39344919999712147;0.39908980000473093;99058.8747143;2.4999899324029684e-06;0.49865359999239445;0.538670900001307;0.5887183000013465;0.658737799996743;0.7888123999873642;0.9189230999909341;0.01
10;2;18;18;letter169;letter190;letter169;letter190;0;0;congruent;0.04;letter169;0.09;0.07;fullmask;0.2;arrow_left.png;up;0.27405049999651965;0.2802762000064831;99060.6747887;c;0.3998000999999931;0.40905600000405684;99061.0826554;2.6999914553016424e-06;0.5055556000006618;0.545569499998237;0.5955991999944672;0.6656466999993427;0.7957262999989325;0.9258227999962401;0.01
10;2;18;19;letter169;letter190;letter169;letter190;0;0;congruent;0.04;letter169;0.09;0.07;fullmask;0.2;arrow_left.png;up;0.24432420000084676;0.25037690000317525;99062.8665436;c;0.3839847999915946;0.38801840000087395;99063.2585211;2.6000052457675338e-06;0.4964259999978822;0.5364494999957969;0.5864767000020947;0.6565166999935172;0.7865882000041893;0.9167133000009926;0.01
10;2;18;20;letter169;letter190;letter169;letter190;0;0;incongruent;0.04;letter190;0.09;0.07;fullmask;0.2;arrow_left.png;down;0.3308425999857718;0.3401088999962667;99065.1145684;c;0.4368231999978889;0.43787750000774395;99065.5626101;2.7000060072168708e-06;0.49766760000784416;0.5376875000074506;0.5877162000106182;0.6577403000119375;0.787833500013221;0.91792500000156;0.01
10;2;18;21;letter169;letter190;letter169;letter190;0;0;incongruent;0.04;letter190;0.09;0.07;fullmask;0.2;arrow_left.png;down;0.4378197000041837;0.4409373000089545;99067.5226102;c;0.3470617000130005;0.3482250000088243;99067.8746262;2.7000060072168708e-06;0.4988664999982575;0.5388835000048857;0.5889103999943472;0.658959499996854;0.7890202999988105;0.9191301999962889;0.01
10;2;18;22;letter169;letter190;letter169;letter190;0;0;incongruent;0.04;letter169;0.09;0.07;fullmask;0.2;arrow_right.png;up;0.22206569999980275;0.23030450000078417;99069.6185427;m;0.3737900999985868;0.3779995999939274;99070.0025109;2.800006768666208e-06;0.5006156000017654;0.5406302000046708;0.5906515999959083;0.660704199995962;0.790770399995381;0.92087650000758;0.01
10;2;18;23;letter169;letter190;letter169;letter190;0;0;congruent;0.04;letter190;0.09;0.07;fullmask;0.2;arrow_right.png;down;0.24296450000838377;0.2503785000008065;99071.7706157;m;0.4065459999983432;0.4079602999991039;99072.1865146;2.7000060072168708e-06;0.5056811000104062;0.5457243999990169;0.5957397000020137;0.6657629999972414;0.7958470000012312;0.9259820000006584;0.01
10;2;18;24;letter169;letter190;letter169;letter190;0;0;congruent;0.04;letter169;0.09;0.07;fullmask;0.2;arrow_left.png;up;0.3069563000026392;0.31023020000429824;99074.0265528;c;0.402762999990955;0.407966699989629;99074.4345237;2.5999906938523054e-06;0.4997173000010662;0.5397402999951737;0.58979779999936;0.6598247999936575;0.7899166999995941;0.919991899994784;0.01
10;2;18;25;letter169;letter190;letter169;letter190;0;0;incongruent;0.04;letter190;0.09;0.07;fullmask;0.2;arrow_left.png;down;0.3915661000064574;0.40010940001229756;99076.362792;c;0.4294780000054743;0.437885000006645;99076.8026318;2.6000052457675338e-06;0.5004703000013251;0.5405056000017794;0.590528999993694;0.660560100004659;0.7906505999999354;0.9207494000002043;0.01
10;2;18;26;letter169;letter190;letter169;letter190;0;0;congruent;0.04;letter190;0.09;0.07;fullmask;0.2;arrow_right.png;down;0.6780883000028552;0.6802218000084395;99079.0105376;m;0.41194269999687094;0.4178537999978289;99079.4265534;2.800006768666208e-06;0.5037796000106027;0.5438233000022592;0.5938555000029737;0.6638617000135127;0.7939467000105651;0.9240616000024602;0.01
10;2;18;27;letter169;letter190;letter169;letter190;0;0;incongruent;0.04;letter169;0.09;0.07;fullmask;0.2;arrow_right.png;up;0.5427494000032311;0.5505456999962917;99081.506561;m;0.3582486999948742;0.36806280000018887;99081.874556;2.6000052457675338e-06;0.503112999998848;0.5431418999942252;0.5931557000003522;0.6631875000020955;0.7932833999948343;0.9233806999982335;0.01
10;2;18;28;letter169;letter190;letter169;letter190;0;0;incongruent;0.04;letter190;0.09;0.07;fullmask;0.2;arrow_left.png;down;0.23068530000455212;0.24024569999892265;99083.6265445;c;0.332605000003241;0.33830180000222754;99083.970654;2.6999914553016424e-06;0.49767250000149943;0.5377251999889268;0.58772539999336;0.6577741999935824;0.7878395000007004;0.917933599994285;0.01
10;2;18;29;letter169;letter190;letter169;letter190;0;1;incongruent;0.12;letter169;0.18;0.07;fullmask;0.2;arrow_right.png;up;0.385401899999124;0.3902267000084976;99085.962607;m;0.4174388999963412;0.41794539999682456;99086.3867048;2.5999906938523054e-06;0.49744799999461975;0.6175074999919161;0.6775531999883242;0.7475919999997132;0.877665199994226;1.007756299994071;0.01
10;2;18;30;letter169;letter190;letter169;letter190;0;0;congruent;0.04;letter190;0.09;0.07;fullmask;0.2;arrow_right.png;down;0.23798350000288337;0.24037280000629835;99088.1465477;m;0.37163299998792354;0.3780450999911409;99088.5225117;2.6999914553016424e-06;0.5005132999940543;0.5405535999889253;0.5905630999914138;0.6606081999925664;0.790679400000954;0.9207943999936106;0.01
10;2;18;31;letter169;letter190;letter169;letter190;0;0;incongruent;0.04;letter190;0.09;0.07;fullmask;0.2;arrow_left.png;down;0.4247896999877412;0.42991029999393504;99090.4745418;c;0.36088849999941885;0.3690649000054691;99090.8424905;2.6999914553016424e-06;0.5017168999911519;0.5417372999945655;0.591795699991053;0.6618003999901703;0.7919005999865476;0.9219942999916384;0.01
10;2;18;32;letter169;letter190;letter169;letter190;0;0;incongruent;0.04;letter169;0.09;0.07;fullmask;0.2;arrow_right.png;up;0.20131089999631513;0.21045250000315718;99092.5625679;m;0.3408606000011787;0.3481233000056818;99092.914508;2.7000060072168708e-06;0.4968787000107113;0.5368877000000793;0.5869234000128927;0.6569589999999152;0.7870406000001822;0.9171591000049375;0.01
10;2;18;33;letter169;letter190;letter169;letter190;0;0;congruent;0.04;letter169;0.09;0.07;fullmask;0.2;arrow_left.png;up;0.23190830000385176;0.24044320000393782;99094.6746714;c;0.3655111999978544;0.36810269999841694;99095.0505983;2.7000060072168708e-06;0.5007134000043152;0.5407436000095913;0.5907718000089517;0.6608354000054533;0.7908864000055473;0.9209882000141079;0.01
10;2;18;34;letter169;letter190;letter169;letter190;0;0;congruent;0.04;letter190;0.09;0.07;fullmask;0.2;arrow_right.png;down;0.22022099999594502;0.22930199999245815;99096.7947499;m;0.37283979999483563;0.37902749999193475;99097.1785042;2.5999906938523054e-06;0.5001273999951081;0.5401073999964865;0.5901177999912761;0.6601835999899777;0.7902732999937143;0.9203951999952551;0.01
10;2;18;35;letter169;letter190;letter169;letter190;0;0;incongruent;0.04;letter169;0.09;0.07;fullmask;0.2;arrow_right.png;up;0.3390910000016447;0.3400070999923628;99099.0345378;m;0.3891483000043081;0.39798990001145285;99099.4265398;2.7000060072168708e-06;0.4979810999939218;0.5380048999941209;0.5880378000001656;0.6580730999994557;0.788174400004209;0.918261300001177;0.01
10;2;18;36;letter169;letter190;letter169;letter190;0;0;incongruent;0.04;letter190;0.09;0.07;fullmask;0.2;arrow_left.png;down;0.31781340000452474;0.3201836999942316;99101.2745392;c;0.38779420001083054;0.3888907000073232;99101.6666432;2.6000052457675338e-06;0.5018061000009766;0.5418464000103995;0.5918456000072183;0.6619291000097292;0.7919642000051681;0.9220695000112755;0.01
10;2;18;37;letter169;letter190;letter169;letter190;0;0;congruent;0.04;letter190;0.09;0.07;fullmask;0.2;arrow_right.png;down;0.3042735999915749;0.3102150999911828;99103.4828916;m;0.495924599992577;0.4978263999946648;99103.9865949;2.9999937396496534e-06;0.49750589999894146;0.5375525999988895;0.5875911000039196;0.657612800001516;0.7876997999992454;0.9178039999969769;0.01
10;2;18;38;letter169;letter190;letter169;letter190;0;0;congruent;0.04;letter169;0.09;0.07;fullmask;0.2;arrow_left.png;up;0.28639989999646787;0.29014669999014586;99105.7865592;c;0.3622600000089733;0.36806710000382736;99106.154504;2.6000052457675338e-06;0.49952630000188947;0.5395604000077583;0.5895735999947647;0.6596133999992162;0.7896966999978758;0.9198170000017853;0.01
10;2;18;39;letter169;letter190;letter169;letter190;0;0;congruent;0.04;letter169;0.09;0.07;fullmask;0.2;arrow_left.png;up;0.28578969999216497;0.29014849998930003;99107.946558;c;0.3777018999971915;0.37903820000065025;99108.3305561;2.7000060072168708e-06;0.49453450000146404;0.5344960000074934;0.5845695000025444;0.6545762000023387;0.7846695000043837;0.9147566000028746;0.01
10;2;18;40;letter169;letter190;letter169;letter190;0;0;congruent;0.04;letter190;0.09;0.07;fullmask;0.2;arrow_right.png;down;0.34960899999714456;0.34998739999718964;99110.2025796;m;0.3975881000078516;0.39788259999477305;99110.602582;2.6999914553016424e-06;0.5044868999975733;0.5444839999981923;0.5945508000004338;0.6645715000049677;0.7946653999970295;0.924761899994337;0.01
10;2;18;41;letter169;letter190;letter169;letter190;0;0;congruent;0.04;letter169;0.09;0.07;fullmask;0.2;arrow_left.png;up;0.21645799999532755;0.22056059999158606;99112.330722;c;0.4018525999999838;0.40796479998971336;99112.7385094;2.800006768666208e-06;0.5055208000121638;0.54557480000949;0.5955741000070702;0.6656159000121988;0.7956965000048513;0.9258065000030911;0.01
10;2;18;42;letter169;letter190;letter169;letter190;0;0;incongruent;0.04;letter190;0.09;0.07;fullmask;0.2;arrow_left.png;down;1.1148038000101224;1.1200644000055036;99115.3705346;c;0.3607727999915369;0.3690671999938786;99115.7385079;2.6999914553016424e-06;0.49646679998841137;0.5364873999933479;0.5865385999932187;0.6565543999895453;0.7866454999893904;0.9167640999949072;0.01
10;2;18;43;letter169;letter190;letter169;letter190;0;0;incongruent;0.04;letter190;0.09;0.07;fullmask;0.2;arrow_left.png;down;0.3915975999989314;0.4008876000007149;99117.6586106;c;0.3806526999978814;0.38801280000188854;99118.0504947;2.7000060072168708e-06;0.50347180000972;0.5434998000127962;0.5935368000064045;0.6635658000013791;0.7936526000121376;0.9237582000059774;0.01
10;2;18;44;letter169;letter190;letter169;letter190;0;0;congruent;0.04;letter190;0.09;0.07;fullmask;0.2;arrow_right.png;down;0.26584720000391826;0.27021140001306776;99119.8345517;m;0.38564259999839123;0.38801300000341143;99120.2264929;2.6000052457675338e-06;0.49676029999682214;0.5367568999936339;0.586783499995363;0.6568330000009155;0.7869069000007585;0.917016399995191;0.01
10;2;18;45;letter169;letter190;letter169;letter190;0;0;congruent;0.04;letter190;0.09;0.07;fullmask;0.2;arrow_right.png;down;0.3021541000052821;0.31033059999754187;99122.0425376;m;0.38998979999450967;0.3978041999944253;99122.4425371;2.7000060072168708e-06;0.5015189999976428;0.5415417000040179;0.5915630000090459;0.6616066999995383;0.7916910000058124;0.9218005000002449;0.01
10;2;18;46;letter169;letter190;letter169;letter190;0;1;incongruent;0.12;letter190;0.18;0.07;fullmask;0.2;arrow_left.png;down;0.18067499999597203;0.18955299998924602;99124.2425719;c;0.35719260000041686;0.35909060000267345;99124.6105815;2.7000060072168708e-06;0.5002237000007881;0.6203092999930959;0.6803508000011789;0.7503805000014836;0.8804553999943892;1.0105609000020195;0.01
10;2;18;47;letter169;letter190;letter169;letter190;0;0;congruent;0.04;letter190;0.09;0.07;fullmask;0.2;arrow_right.png;down;0.13323809999565128;0.13967479999701027;99126.2665421;m;0.3835862999985693;0.38801609999791253;99126.6585025;2.7000060072168708e-06;0.5014716000005137;0.5414870999957202;0.5915074000076856;0.6615316999959759;0.7916294000024209;0.9217358000023523;0.01
10;2;18;48;letter169;letter190;letter169;letter190;0;0;incongruent;0.04;letter169;0.09;0.07;fullmask;0.2;arrow_right.png;up;0.24864140000136103;0.25039090000791475;99128.4425354;m;0.3882937000016682;0.3891360999987228;99128.8345057;2.6999914553016424e-06;0.5024754999903962;0.5425159000005806;0.5925436999968952;0.6625713999965228;0.7926460000016959;0.9227512999932515;0.01
10;2;18;49;letter169;letter190;letter169;letter190;0;0;incongruent;0.04;letter169;0.09;0.07;fullmask;0.2;arrow_right.png;up;2.5327748999989126;2.542057999991812;99132.8985262;m;0.48474080000596587;0.4877476999972714;99133.3944876;2.6000052457675338e-06;0.5005336000031093;0.5405275000084657;0.5905746000062209;0.660606600009487;0.7907166000077268;0.9207944000081625;0.01
10;2;18;50;letter169;letter190;letter169;letter190;0;0;congruent;0.04;letter169;0.09;0.07;fullmask;0.2;arrow_left.png;up;0.21235679999517743;0.22045710000384133;99135.1305343;c;0.38193250000767875;0.38801940000848845;99135.5225012;2.5999906938523054e-06;0.4986544999992475;0.538669999994454;0.5886929999978747;0.6587304999993648;0.7888119999988703;0.9189171000034548;0.01
10;2;18;51;letter169;letter190;letter169;letter190;0;0;congruent;0.04;letter169;0.09;0.07;fullmask;0.2;arrow_left.png;up;0.07216140000673477;0.07983990000502672;99137.1227261;c;0.40632939999341033;0.40797449999081437;99137.5385636;2.6999914553016424e-06;0.5029057999927318;0.5429377999971621;0.592950699996436;0.6630027999926824;0.7930769999948097;0.9231836999970255;0.01
10;2;18;52;letter169;letter190;letter169;letter190;0;0;congruent;0.04;letter169;0.09;0.07;fullmask;0.2;arrow_left.png;up;0.11706960000446998;0.11976320001122076;99139.1785883;c;0.4352777000021888;0.4388998999929754;99139.6184533;2.7000060072168708e-06;0.4996421000105329;0.5396672000060789;0.589672200003406;0.6597234000073513;0.7897947000019485;0.919895600003656;0.01
