subjnr;loop_m;blocknr;trialnr;cue_left_learn;cue_right_learn;option_up;option_down;practice;motivation; congruence;cue_dur;cue;SOA;mask_dur;mask;target_dur;target;response;RT;kb_rt;response_absolute;response_target;RT_target;kb_rt_target;response_absolute_target; fix_onset;cue_onset;cue_offset;mask_onset;mask_offset;target_offset;blank_onset;frame_dur
12;1;9;1;letter190;letter169;letter190;letter169;0;0;congruent;0.04;letter169;0.05;0.07;fullmask;0.2;arrow_right.png;up;0.8783469999907538;0.8796804000157863;437300.4286907;c;1.7821568999788724;1.7912620999850333;437302.412591;2.800021320581436e-06;0.49765600002137944;0.5376752000302076;0.5476794000132941;0.6177088000113145;0.7478071000077762;0.8778979000053369;0.01
12;1;9;2;letter190;letter169;letter190;letter169;0;1;incongruent;0.12;letter169;0.14;0.07;fullmask;0.2;arrow_left.png;down;1.054459799954202;1.0611861000070348;437305.0370336;c;0.4071144000045024;0.4079691999941133;437305.4527067;2.800021320581436e-06;0.5004876000457443;0.6205664000008255;0.6405867000576109;0.7106126000289805;0.8407147000543773;0.97080150002148;0.01
12;1;9;3;letter190;letter169;letter190;letter169;0;0;congruent;0.04;letter190;0.05;0.07;fullmask;0.2;arrow_left.png;up;1.1819354000035673;1.1908352000173181;437308.1167187;m;1.2770338999689557;1.278625999984797;437309.4045887;2.600019797682762e-06;0.5012557000154629;0.541289400018286;0.5512902000336908;0.6213238000054844;0.751407100004144;0.881504799996037;0.01
12;1;9;4;letter190;letter169;letter190;letter169;0;0;congruent;0.04;letter169;0.05;0.07;fullmask;0.2;arrow_right.png;down;1.189584699983243;1.190737699973397;437312.0766341;m;0.35688289999961853;0.3581018000259064;437312.436602;2.700020559132099e-06;0.5058150000404567;0.5458302000188269;0.555843600013759;0.625885899993591;0.7559661000268534;0.8860632000141777;0.01
12;1;9;5;letter190;letter169;letter190;letter169;0;0;congruent;0.04;letter190;0.05;0.07;fullmask;0.2;arrow_left.png;up;1.2695320999482647;1.2707123999716714;437315.1888875;c;0.37276830000337213;0.3781635999912396;437315.5647047;2.700020559132099e-06;0.5002994000096805;0.5403032000176609;0.5503140999935567;0.6203465000144206;0.7504424000508152;0.8805302000255324;0.01
12;1;9;6;letter190;letter169;letter190;letter169;0;0;incongruent;0.04;letter169;0.05;0.07;fullmask;0.2;arrow_left.png;down;1.1594670999911614;1.160914900014177;437318.2206372;c;0.324546099989675;0.32817100000102073;437318.5485713;2.5999615900218487e-06;0.5037216999917291;0.5437325999955647;0.5537419999600388;0.6237722999649122;0.7538620999548584;0.8839660999947228;0.01
12;1;9;7;letter190;letter169;letter190;letter169;0;0;incongruent;0.04;letter190;0.05;0.07;fullmask;0.2;arrow_right.png;up;1.3715528000029735;1.3813032999751158;437321.404691;m;0.2601663999957964;0.2673842000076547;437321.6765683;2.800021320581436e-06;0.5034932999988087;0.5435255999909714;0.5535265000071377;0.6235609999857843;0.7536315000033937;0.8837409999687225;0.01
12;1;9;8;letter190;letter169;letter190;letter169;0;0;congruent;0.04;letter190;0.05;0.07;fullmask;0.2;arrow_left.png;down;1.8613511000294238;1.8710977000300772;437325.0369943;c;0.7584285999764688;0.7609845999977551;437326.0045761;2.600019797682762e-06;0.49721990001853555;0.5372361000045203;0.5472456000279635;0.6172813000157475;0.7473866000073031;0.8774860000121407;0.01
12;1;9;9;letter190;letter169;letter190;letter169;0;0;incongruent;0.04;letter169;0.05;0.07;fullmask;0.2;arrow_left.png;down;1.5246720000286587;1.5309000000124797;437329.0126914;c;0.6797865999978967;0.6882196000078693;437329.7006391;2.600019797682762e-06;0.4955972000025213;0.5355908999918029;0.5455924000125378;0.6156362000037916;0.7457172999856994;0.8758236999856308;0.01
12;1;9;10;letter190;letter169;letter190;letter169;0;0;congruent;0.04;letter169;0.05;0.07;fullmask;0.2;arrow_right.png;down;1.1529920999892056;1.1616229999926873;437332.3730681;c;0.4291806999826804;0.43790069996612146;437332.8127125;2.600019797682762e-06;0.5018598000169732;0.541853100003209;0.5518786999746226;0.6219322999822907;0.7519957000040449;0.8820928999921307;0.01
12;1;9;11;letter190;letter169;letter190;letter169;0;0;incongruent;0.04;letter190;0.05;0.07;fullmask;0.2;arrow_right.png;up;1.0521761000272818;1.0602273999829777;437335.3646137;m;0.43799359997501597;0.43888390000211075;437335.8125976;2.6999623514711857e-06;0.5045031000045128;0.5445158999646083;0.5545171999838203;0.6245643000002019;0.7546489000087604;0.8847467000014149;0.01
12;1;9;12;letter190;letter169;letter190;letter169;0;0;incongruent;0.04;letter190;0.05;0.07;fullmask;0.2;arrow_right.png;up;1.1086433000164106;1.1110507000121288;437338.4126061;m;0.4355537000228651;0.43779120000544935;437338.8525522;2.6999623514711857e-06;0.502820800000336;0.5428429999738;0.5528484999667853;0.6228790999739431;0.7529745000065304;0.8830643999972381;0.01
12;1;9;13;letter190;letter169;letter190;letter169;0;0;incongruent;0.04;letter169;0.05;0.07;fullmask;0.2;arrow_left.png;down;1.0920467000105418;1.100110700004734;437341.4285898;c;0.5099698000121862;0.5186683000065386;437341.9485613;2.700020559132099e-06;0.49482780002290383;0.5348415999906138;0.5448465999797918;0.6148774999892339;0.7449593000346795;0.8750625000102445;0.01
12;1;9;14;letter190;letter169;letter190;letter169;0;0;congruent;0.04;letter169;0.05;0.07;fullmask;0.2;arrow_right.png;up;1.0837649999884889;1.090137000021059;437344.5325861;m;0.2811835999600589;0.2902386999921873;437345.0205841;2.5999615900218487e-06;0.5023490999592468;0.5423755999654531;0.5523613999830559;0.6223964999662712;0.7524671999854036;0.8825906999991275;0.01
12;1;9;15;letter190;letter169;letter190;letter169;0;0;congruent;0.04;letter190;0.05;0.07;fullmask;0.2;arrow_left.png;down;1.108484300028067;1.1110474999877624;437347.6285958;c;0.19687200000043958;0.19950990000506863;437348.0285533;2.700020559132099e-06;0.5037043000338599;0.5437145000323653;0.5537441000342369;0.6237711000139825;0.7538626000168733;0.8839544000220485;0.01
12;1;9;16;letter190;letter169;letter190;letter169;0;0;incongruent;0.04;letter190;0.05;0.07;fullmask;0.2;arrow_right.png;up;1.4104397000046447;1.411291100026574;437350.93262;m;0.6211505000246689;0.6283775999909267;437351.5565534;2.700020559132099e-06;0.5011741000344045;0.5412007000413723;0.5511995000415482;0.6212323000072502;0.7513151000021026;0.8814136000000872;0.01
12;1;9;17;letter190;letter169;letter190;letter169;0;0;congruent;0.04;letter169;0.05;0.07;fullmask;0.2;arrow_right.png;up;2.1526823999593034;2.1612946999957785;437355.1969534;m;0.3264676000108011;0.3300535000162199;437355.7325504;2.700020559132099e-06;0.4963714000186883;0.5363890000153333;0.5463894000276923;0.616423700004816;0.7465132999932393;0.8766150000155903;0.01
12;1;9;18;letter190;letter169;letter190;letter169;0;0;incongruent;0.04;letter169;0.05;0.07;fullmask;0.2;arrow_left.png;down;1.0614581999834627;1.0710592999821529;437358.2686638;c;0.6123675999697298;0.618400199979078;437358.8925714;2.900022082030773e-06;0.4941164000192657;0.5341337000136264;0.5441420000279322;0.6141684000031091;0.7442576999892481;0.8743571999948472;0.01
12;1;9;19;letter190;letter169;letter190;letter169;0;1;congruent;0.12;letter190;0.14;0.07;fullmask;0.2;arrow_left.png;up;0.9336311999941245;0.940580399997998;437361.4126105;c;0.45512800000142306;0.4589487999910489;437361.8766188;2.600019797682762e-06;0.5054690000251867;0.6255390000296757;0.6455740000237711;0.7155900000361726;0.8456891000387259;0.9757840000092983;0.01
12;1;9;20;letter190;letter169;letter190;letter169;0;0;congruent;0.04;letter169;0.05;0.07;fullmask;0.2;arrow_right.png;down;1.4351466000080109;1.4411973000387661;437364.7965761;m;0.36803869996219873;0.37803809996694326;437365.1726063;2.700020559132099e-06;0.49714739999035373;0.5371798999840394;0.5471970000071451;0.6172323999926448;0.7473177000065334;0.8774184000212699;0.01
12;1;9;21;letter190;letter169;letter190;letter169;0;0;incongruent;0.04;letter190;0.05;0.07;fullmask;0.2;arrow_right.png;up;2.1434377999976277;2.1513114999979734;437368.7966256;m;0.3823829999892041;0.3891245999839157;437369.1888132;2.6999623514711857e-06;0.49992679996648803;0.5399271000060253;0.549935299961362;0.6199742999742739;0.7500629000132903;0.8801297000027262;0.01
12;1;9;22;letter190;letter169;letter190;letter169;0;0;incongruent;0.04;letter169;0.05;0.07;fullmask;0.2;arrow_left.png;down;2.191055800009053;2.1922197999665514;437372.8767838;c;0.5006618000334129;0.5077155000180937;437373.3804982;2.900022082030773e-06;0.5028685000143014;0.5428977000410669;0.5528889000415802;0.6229229000164196;0.7530101000447758;0.8831075000343844;0.01
12;1;9;23;letter190;letter169;letter190;letter169;0;0;congruent;0.04;letter190;0.05;0.07;fullmask;0.2;arrow_left.png;up;1.0534139000228606;1.0602254000259563;437375.9326103;c;0.5832092000055127;0.5884852000162937;437376.5245614;2.600019797682762e-06;0.5019800000009127;0.5419974999967963;0.5520026000449434;0.6220531000290066;0.7521258000051603;0.8822371000424027;0.01
12;1;9;24;letter190;letter169;letter190;letter169;0;0;incongruent;0.04;letter169;0.05;0.07;fullmask;0.2;arrow_left.png;down;1.1294390999828465;1.1298566000186838;437379.1406222;c;0.46974760002922267;0.4788696999894455;437379.6127714;2.6999623514711857e-06;0.5030313999741338;0.5430384000064805;0.5530360999982804;0.6230668000061996;0.7531660000095144;0.8832753999740817;0.01
12;1;9;25;letter190;letter169;letter190;letter169;0;0;incongruent;0.04;letter190;0.05;0.07;fullmask;0.2;arrow_right.png;up;0.9401715999701992;0.9404439000063576;437382.0527133;m;0.397638599970378;0.3989864999894053;437382.4526481;2.700020559132099e-06;0.5005702000344172;0.5405860000173561;0.5506093000294641;0.6206359000061639;0.7507159000379033;0.8808197000180371;0.01
12;1;9;26;letter190;letter169;letter190;letter169;0;0;congruent;0.04;letter190;0.05;0.07;fullmask;0.2;arrow_left.png;down;1.0842671999707818;1.09109839994926;437385.0286042;c;0.22464159998344257;0.22940239997114986;437385.460518;2.700020559132099e-06;0.49882249999791384;0.5388286000234075;0.5488435000297613;0.6188806000282057;0.7489525999990292;0.8790830000070855;0.01
12;1;9;27;letter190;letter169;letter190;letter169;0;0;congruent;0.04;letter190;0.05;0.07;fullmask;0.2;arrow_left.png;up;1.3419614000013098;1.3505439999862574;437388.3089137;c;0.40533330000471324;0.4090590999694541;437388.7246605;2.9999646358191967e-06;0.5030244999798015;0.5430380000034347;0.5530433999956585;0.623082100006286;0.7531698999810033;0.8832638000021689;0.01
12;1;9;28;letter190;letter169;letter190;letter169;0;0;congruent;0.04;letter190;0.05;0.07;fullmask;0.2;arrow_left.png;down;2.0842732000164688;2.091324499982875;437392.2925571;c;0.2484991999808699;0.25034869997762144;437392.7485472;2.6999623514711857e-06;0.5058613999863155;0.5459090999793261;0.5558830999652855;0.6259146999800578;0.7560038999654353;0.8861002000048757;0.01
12;1;9;29;letter190;letter169;letter190;letter169;0;0;congruent;0.04;letter169;0.05;0.07;fullmask;0.2;arrow_right.png;down;1.7258192999870516;1.7313984999782406;437395.9569099;m;0.43224329996155575;0.4388811999815516;437396.3965615;2.800021320581436e-06;0.5036896000383422;0.5437073000357486;0.5537211000337265;0.6237467000028118;0.7538408000255004;0.8839411000371911;0.01
12;1;9;30;letter190;letter169;letter190;letter169;0;0;incongruent;0.04;letter190;0.05;0.07;fullmask;0.2;arrow_right.png;up;1.3609748999588192;1.3712120999698527;437399.244676;m;0.4036395999719389;0.40796390001196414;437399.6604603;2.6999623514711857e-06;0.49409880000166595;0.5340942000038922;0.5440998999984004;0.6141330999671482;0.7442252999753691;0.8743217999581248;0.01
12;1;9;31;letter190;letter169;letter190;letter169;0;0;incongruent;0.04;letter169;0.05;0.07;fullmask;0.2;arrow_left.png;down;1.283211299974937;1.2914672999759205;437402.4286478;c;0.4536612000083551;0.4578319000429474;437402.8925047;2.7999631129205227e-06;0.5020806000102311;0.5421013999730349;0.5521214999607764;0.6221329999971204;0.7522336000110954;0.8823352999752387;0.01
12;1;9;32;letter190;letter169;letter190;letter169;0;0;congruent;0.04;letter190;0.05;0.07;fullmask;0.2;arrow_left.png;down;1.1551282000145875;1.160817500029225;437405.5326032;c;0.2737640000414103;0.28026240004692227;437406.0125014;2.600019797682762e-06;0.5047808000235818;0.544824399985373;0.5548111000098288;0.624844599980861;0.7549393000081182;0.8850148000055924;0.01
12;1;9;33;letter190;letter169;letter190;letter169;0;0;incongruent;0.04;letter190;0.05;0.07;fullmask;0.2;arrow_right.png;up;1.6405971000203863;1.6505103000090457;437409.1407322;m;0.475896299991291;0.4787616999819875;437409.6284873;2.6999623514711857e-06;0.5054692999692634;0.5454981999937445;0.5555064000072889;0.6255319999763742;0.7556264000013471;0.8857250000000931;0.01
12;1;9;34;letter190;letter169;letter190;letter169;0;0;incongruent;0.04;letter169;0.05;0.07;fullmask;0.2;arrow_left.png;down;1.930252999998629;1.9308751000207849;437413.0526378;c;0.3252591000054963;0.32819369999924675;437413.3804362;2.8999638743698597e-06;0.49964359996374696;0.5396578999934718;0.5496733000036329;0.6197022999986075;0.7497964999638498;0.8799026999622583;0.01
12;1;9;35;letter190;letter169;letter190;letter169;0;0;incongruent;0.04;letter169;0.05;0.07;fullmask;0.2;arrow_left.png;down;1.290278300002683;1.2916106000193395;437416.1645873;c;0.4126284000230953;0.41793260001577437;437416.5804891;2.5999615900218487e-06;0.5044339000014588;0.5444142000051215;0.5544438000069931;0.6244892000104301;0.7545602999744006;0.8846672999789007;0.01
12;1;9;36;letter190;letter169;letter190;letter169;0;0;congruent;0.04;letter169;0.05;0.07;fullmask;0.2;arrow_right.png;up;1.1854297000099905;1.1909483000054024;437419.2525603;m;0.16305169998668134;0.17060670000500977;437419.6205572;2.800021320581436e-06;0.4960615000454709;0.5360823000082746;0.5460838000290096;0.6161225000396371;0.7462021000101231;0.8763070999993943;0.01
12;1;9;37;letter190;letter169;letter190;letter169;0;0;congruent;0.04;letter169;0.05;0.07;fullmask;0.2;arrow_right.png;down;1.967954899999313;1.9716852999990806;437423.0765913;c;0.2662379000103101;0.2683297999901697;437423.3484659;2.700020559132099e-06;0.5030896000098437;0.5431128000491299;0.553126200044062;0.6231694000307471;0.7532443000236526;0.8833615000476129;0.01
12;1;9;38;letter190;letter169;letter190;letter169;0;0;incongruent;0.04;letter190;0.05;0.07;fullmask;0.2;arrow_right.png;up;1.8133880000095814;1.8212812000419945;437426.6449052;m;0.5259296000003815;0.5277595999650657;437427.1805622;2.700020559132099e-06;0.49820259999250993;0.5382373000029474;0.5482536000199616;0.6182781999814324;0.7483645000029355;0.8784675999777392;0.01
12;1;9;39;letter190;letter169;letter190;letter169;0;1;incongruent;0.12;letter190;0.14;0.07;fullmask;0.2;arrow_right.png;up;1.3693258999846876;1.3713166000088677;437430.1326356;m;0.4359427000163123;0.43787670001620427;437430.5725147;2.700020559132099e-06;0.5035338000161573;0.6236027000122704;0.6436115000396967;0.7136544000240974;0.8437334000482224;0.9738633000524715;0.01
12;1;9;40;letter190;letter169;letter190;letter169;0;0;incongruent;0.04;letter190;0.05;0.07;fullmask;0.2;arrow_right.png;down;1.0985682000173256;1.1001133999670856;437433.1645934;m;0.261930399981793;0.27029080002103;437433.6285074;2.6999623514711857e-06;0.5051388999563642;0.5451569999568164;0.5551648999680765;0.6251975999912247;0.7552841999568045;0.8853806999977678;0.01
12;1;9;41;letter190;letter169;letter190;letter169;0;0;incongruent;0.04;letter169;0.05;0.07;fullmask;0.2;arrow_left.png;down;1.1723327999934554;1.1807852000347339;437436.300594;c;0.3575317999930121;0.3581152000115253;437436.6685162;2.6999623514711857e-06;0.5006334999925457;0.5406716999714263;0.5506519000045955;0.6207113999989815;0.7507753999670967;0.8808763999841176;0.01
12;1;9;42;letter190;letter169;letter190;letter169;0;0;congruent;0.04;letter190;0.05;0.07;fullmask;0.2;arrow_left.png;up;1.1991845999727957;1.2008056999766268;437439.3486267;c;0.4283254999900237;0.4289180000196211;437439.7805296;2.800021320581436e-06;0.495546700025443;0.5355746999848634;0.5455866000265814;0.6156022000359371;0.745700100029353;0.875772200000938;0.01
12;1;9;43;letter190;letter169;letter190;letter169;0;0;incongruent;0.04;letter169;0.05;0.07;fullmask;0.2;arrow_left.png;down;1.2131704000057653;1.2209977000020444;437442.4851299;c;1.5977392999920994;1.59878340002615;437444.0925247;2.900022082030773e-06;0.5024518000427634;0.5424915000330657;0.5525117000215687;0.6225338000222109;0.752628399990499;0.8827110000420362;0.01
12;1;9;44;letter190;letter169;letter190;letter169;0;0;incongruent;0.04;letter190;0.05;0.07;fullmask;0.2;arrow_right.png;up;1.3264948000432923;1.3313640000415035;437446.9005582;m;0.5931135999853723;0.5984569999855012;437447.5004744;2.700020559132099e-06;0.504076500015799;0.5441028000204824;0.5541108999750577;0.6241334999795072;0.7542264999938197;0.8843168999883346;0.01
12;1;9;45;letter190;letter169;letter190;letter169;0;0;congruent;0.04;letter169;0.05;0.07;fullmask;0.2;arrow_right.png;down;1.2878157999948598;1.2906129999901168;437450.284493;m;0.37943720002658665;0.38913279998814687;437450.6686601;2.700020559132099e-06;0.5018928000354208;0.5419194000423886;0.5519107999862172;0.621964999998454;0.7520356000168249;0.8821334000094794;0.01
12;1;9;46;letter190;letter169;letter190;letter169;0;1;congruent;0.12;letter169;0.14;0.07;fullmask;0.2;arrow_right.png;up;1.8652957000304013;1.8709401999949478;437454.124635;m;0.6346517000347376;0.6413514000014402;437454.9644639;2.600019797682762e-06;0.5036778000066988;0.6237484000157565;0.6437610000139102;0.7138065000181086;0.8438855000422336;0.9740037000156008;0.01
12;1;9;47;letter190;letter169;letter190;letter169;0;0;congruent;0.04;letter169;0.05;0.07;fullmask;0.2;arrow_right.png;down;1.1429203999578021;1.1509685999481007;437457.604496;m;0.3899655999848619;0.3980149999842979;437458.0044417;2.700020559132099e-06;0.5052187999826856;0.5452141999849118;0.5552125999820419;0.6252497999812476;0.7553410999826156;0.8854392999783158;0.01
12;1;9;48;letter190;letter169;letter190;letter169;0;0;congruent;0.04;letter169;0.05;0.07;fullmask;0.2;arrow_right.png;down;1.5268422999652103;1.5308326999656856;437461.0204987;m;0.4260537000373006;0.4289062000461854;437461.4524775;3.0999653972685337e-06;0.5018707999843173;0.541889899992384;0.5518900000024587;0.6219294000184163;0.7520215999684297;0.882112999970559;0.01
12;1;9;49;letter190;letter169;letter190;letter169;0;0;incongruent;0.04;letter190;0.05;0.07;fullmask;0.2;arrow_right.png;down;1.9386474000057206;1.9408377999789082;437464.8845575;m;0.12529799999902025;0.12967110000317916;437465.212483;2.700020559132099e-06;0.49776030000066385;0.5377783000003546;0.5478032999671996;0.6178314000135288;0.7479070000117645;0.8780078999698162;0.01
12;1;9;50;letter190;letter169;letter190;letter169;0;0;incongruent;0.04;letter169;0.05;0.07;fullmask;0.2;arrow_left.png;down;1.130425599985756;1.1309207999729551;437467.8286985;c;0.37345600000116974;0.3780832000193186;437468.204544;2.8999638743698597e-06;0.5026637999690138;0.5426758999819867;0.5526839999947697;0.6227416999754496;0.7528085999656469;0.8829041999997571;0.01
12;1;9;51;letter190;letter169;letter190;letter169;0;0;congruent;0.04;letter190;0.05;0.07;fullmask;0.2;arrow_left.png;up;1.2845589999924414;1.2906143000000156;437471.0045523;c;0.36805180000374094;0.3690657999832183;437471.3805952;2.700020559132099e-06;0.4991872000391595;0.5392066999920644;0.5492127999896184;0.619244700006675;0.7493308000266552;0.8793968000099994;0.01
12;1;9;52;letter190;letter169;letter190;letter169;0;0;congruent;0.04;letter190;0.05;0.07;fullmask;0.2;arrow_left.png;up;1.3498933999799192;1.3502321999985725;437474.2125774;c;0.41350650001550093;0.4190320000052452;437474.6284478;2.5999615900218487e-06;0.5046005999902263;0.5446218999568373;0.5546309999772348;0.6246600999729708;0.7547418999602087;0.8848710999591276;0.01
12;1;10;1;letter190;letter169;letter190;letter169;0;0;congruent;0.04;letter169;0.05;0.07;fullmask;0.2;arrow_right.png;up;0.8457856000168249;0.8508305000141263;437501.9164739;m;0.5154377999715507;0.5206247000023723;437502.6364034;3.00002284348011e-06;0.5021463999873959;0.5421644999878481;0.5521666000131518;0.6222012999933213;0.7522868000087328;0.8823827999876812;0.01
12;1;10;2;letter190;letter169;letter190;letter169;0;0;congruent;0.04;letter169;0.05;0.07;fullmask;0.2;arrow_right.png;down;1.2902607999858446;1.2905128999846056;437505.4125474;m;0.4538264999864623;0.45892509998520836;437505.868654;2.700020559132099e-06;0.5023304000496864;0.5423508000094444;0.552381300018169;0.6224015000043437;0.7524941000156105;0.8826097000273876;0.01
12;1;10;3;letter190;letter169;letter190;letter169;0;0;congruent;0.04;letter190;0.05;0.07;fullmask;0.2;arrow_left.png;up;0.8374472999712452;0.8397698999615386;437508.2125409;c;0.37960889999521896;0.3890108999912627;437508.5964146;2.6999623514711857e-06;0.5028681000112556;0.5428884999710135;0.5528787999646738;0.6229412999819033;0.7530008999747224;0.8831065999693237;0.01
12;1;10;4;letter190;letter169;letter190;letter169;0;0;incongruent;0.04;letter169;0.05;0.07;fullmask;0.2;arrow_left.png;down;0.8204737000050955;0.8207836000365205;437510.9165451;c;0.38961600000038743;0.3979910999769345;437511.3084948;2.700020559132099e-06;0.5052659999928437;0.5452898000366986;0.5553038000361994;0.625341999984812;0.7554215000127442;0.8855237000389025;0.01
12;1;10;5;letter190;letter169;letter190;letter169;0;0;congruent;0.04;letter190;0.05;0.07;fullmask;0.2;arrow_left.png;up;0.8541840999969281;0.8598641999997199;437513.6528207;c;0.33612679998623207;0.33874789997935295;437513.9964602;2.800021320581436e-06;0.5009368000319228;0.5409450000151992;0.5509450000245124;0.6209853999898769;0.7510491000139154;0.8811504000332206;0.01
12;1;10;6;letter190;letter169;letter190;letter169;0;0;congruent;0.04;letter169;0.05;0.07;fullmask;0.2;arrow_right.png;down;0.7370362000074238;0.7410266000078991;437516.2365565;c;0.33804220001911744;0.348162800015416;437516.5805272;2.6999623514711857e-06;0.5051905000000261;0.5452254000119865;0.555235999985598;0.6252542000147514;0.7553654999937862;0.8854430000064895;0.01
12;1;10;7;letter190;letter169;letter190;letter169;0;0;incongruent;0.04;letter190;0.05;0.07;fullmask;0.2;arrow_right.png;up;2.637203599966597;2.642098899988923;437520.7085718;m;0.6013710999977775;0.6085213999613188;437521.3166763;2.700020559132099e-06;0.49738180002896115;0.5374035999993794;0.5474118000129238;0.6174418000155129;0.7475338000222109;0.8776228000060655;0.01
12;1;10;8;letter190;letter169;letter190;letter169;0;1;incongruent;0.12;letter190;0.14;0.07;fullmask;0.2;arrow_right.png;up;1.086309699981939;1.091000400017947;437523.9804745;c;0.3853434000047855;0.3890116999973543;437524.3724465;2.6999623514711857e-06;0.5040750000043772;0.6241497999872081;0.6441657000104897;0.7142004999914207;0.8442847999976948;0.9743829999933951;0.01
12;1;10;9;letter190;letter169;letter190;letter169;0;0;incongruent;0.04;letter169;0.05;0.07;fullmask;0.2;arrow_left.png;down;1.1644429999869317;1.170932899985928;437527.0205558;c;0.3034538999781944;0.30826199997682124;437527.3324354;2.6999623514711857e-06;0.5015619999612682;0.5415850999997929;0.5515905999927782;0.6216231999569573;0.7517191999941133;0.8818111000000499;0.01
12;1;10;10;letter190;letter169;letter190;letter169;0;0;incongruent;0.04;letter169;0.05;0.07;fullmask;0.2;arrow_left.png;down;1.1522841000114568;1.1610592000070028;437529.9808184;c;0.3092132000019774;0.3183041999582201;437530.3006381;2.5999615900218487e-06;0.5035958999651484;0.5436203999561258;0.5536272999597713;0.6236604999867268;0.7537665999843739;0.8838427999871783;0.01
12;1;10;11;letter190;letter169;letter190;letter169;0;0;incongruent;0.04;letter190;0.05;0.07;fullmask;0.2;arrow_right.png;up;0.9480487999971956;0.9505205000168644;437532.7484456;m;0.3715349000412971;0.37803900003200397;437533.1243922;2.600019797682762e-06;0.5002916000084952;0.5403028000146151;0.5503081000060774;0.6203202999895439;0.7504171000327915;0.8805248000426218;0.01
12;1;10;12;letter190;letter169;letter190;letter169;0;0;congruent;0.04;letter190;0.05;0.07;fullmask;0.2;arrow_left.png;up;0.872095700004138;0.8805636999895796;437535.4845054;c;0.37349160003941506;0.37804250000044703;437535.8684045;2.6999623514711857e-06;0.5040986999520101;0.5441105999634601;0.5541195999830961;0.6241723999846727;0.7542417999939062;0.8843350999522954;0.01
12;1;10;13;letter190;letter169;letter190;letter169;0;0;incongruent;0.04;letter169;0.05;0.07;fullmask;0.2;arrow_left.png;down;0.8081672000116669;0.8098833000403829;437538.1726912;c;0.3642005000147037;0.3692270999890752;437538.5404997;2.5999615900218487e-06;0.5007187000010163;0.5407312999595888;0.5507361999480054;0.6207833999651484;0.750874399964232;0.8809670999762602;0.01
12;1;10;14;letter190;letter169;letter190;letter169;0;0;incongruent;0.04;letter169;0.05;0.07;fullmask;0.2;arrow_left.png;down;1.2651321000303142;1.271663499996066;437541.3004398;c;0.2954750999924727;0.29825649998383597;437541.6043838;2.6999623514711857e-06;0.5016792999813333;0.5416904999874532;0.5516929000150412;0.6217269999906421;0.7518309999722987;0.8819059999659657;0.01
12;1;10;15;letter190;letter169;letter190;letter169;0;0;congruent;0.04;letter190;0.05;0.07;fullmask;0.2;arrow_left.png;up;0.720926399983;0.7300561999436468;437543.8286616;c;0.3726448999950662;0.3790359999984503;437544.2123815;2.600019797682762e-06;0.5046134000294842;0.5446301000192761;0.5546387000358663;0.624682700028643;0.7547600000398234;0.8848598000477068;0.01
12;1;10;16;letter190;letter169;letter190;letter169;0;0;congruent;0.04;letter190;0.05;0.07;fullmask;0.2;arrow_left.png;up;0.896514100022614;0.9007650000276044;437546.5964585;c;0.3381193000241183;0.3482269999803975;437546.9406514;2.6999623514711857e-06;0.50368600001093;0.5436957000056282;0.553718899958767;0.6237406000145711;0.7538407999672927;0.8839245999697596;0.01
12;1;10;17;letter190;letter169;letter190;letter169;0;1;congruent;0.12;letter169;0.14;0.07;fullmask;0.2;arrow_right.png;up;0.7533880000119098;0.7610320000094362;437549.2844168;m;1.6331664000172168;1.6416572000016458;437551.1246673;2.7999631129205227e-06;0.49708979995921254;0.6171599999652244;0.6371763999923132;0.7072071000002325;0.8372916999505833;0.9674192999955267;0.01
12;1;10;18;letter190;letter169;letter190;letter169;0;0;congruent;0.04;letter169;0.05;0.07;fullmask;0.2;arrow_right.png;down;0.7002542000263929;0.7101138000143692;437553.324564;m;0.3319777999422513;0.33814629999687895;437553.6683395;2.700020559132099e-06;0.49679960001958534;0.5368261000257917;0.5468203999917023;0.6168579999939539;0.7469383000279777;0.8770504000131041;0.01
12;1;10;19;letter190;letter169;letter190;letter169;0;0;congruent;0.04;letter190;0.05;0.07;fullmask;0.2;arrow_left.png;up;0.7586366999894381;0.7599854000145569;437555.9244959;c;0.33257449994562194;0.338131099997554;437556.2603699;2.700020559132099e-06;0.4979590000002645;0.5379756999900565;0.5479657999821939;0.6180102999787778;0.7480862999800593;0.8781937999883667;0.01
12;1;10;20;letter190;letter169;letter190;letter169;0;0;incongruent;0.04;letter169;0.05;0.07;fullmask;0.2;arrow_left.png;down;0.6887880999711342;0.6902096999692731;437558.4365435;c;0.30857280001509935;0.3181915000313893;437558.7483651;2.700020559132099e-06;0.5021427000174299;0.5421401000348851;0.5521584000089206;0.6221920000389218;0.752277999999933;0.8823664000374265;0.01
12;1;10;21;letter190;letter169;letter190;letter169;0;0;incongruent;0.04;letter190;0.05;0.07;fullmask;0.2;arrow_right.png;up;0.8915571999968961;0.9006574000231922;437561.1405766;m;0.34876369999255985;0.35809340002015233;437561.5003803;2.700020559132099e-06;0.4970090999850072;0.5370380000094883;0.5470336999860592;0.6170746000134386;0.7471540999831632;0.8772561000077985;0.01
12;1;10;22;letter190;letter169;letter190;letter169;0;0;congruent;0.04;letter169;0.05;0.07;fullmask;0.2;arrow_right.png;down;0.8053805999807082;0.8097569000092335;437563.7964226;m;0.36960000003455207;0.3790407000342384;437564.1723294;2.800021320581436e-06;0.5032776000443846;0.5433070000144653;0.5533144000219181;0.6233450000290759;0.75342930003535;0.8835492000216618;0.01
12;1;10;23;letter190;letter169;letter190;letter169;0;0;congruent;0.04;letter190;0.05;0.07;fullmask;0.2;arrow_left.png;up;0.6978745000087656;0.7001701000262983;437566.3806342;c;0.3478451000410132;0.3481971000437625;437566.7326116;2.700020559132099e-06;0.5022115000174381;0.5422217000159435;0.5522195000085048;0.622286300000269;0.7523578000254929;0.882469600008335;0.01
12;1;10;24;letter190;letter169;letter190;letter169;0;0;congruent;0.04;letter169;0.05;0.07;fullmask;0.2;arrow_right.png;down;0.8128127000527456;0.8208694000495598;437569.0364596;m;0.3179707999806851;0.3181273000082001;437569.3644242;2.700020559132099e-06;0.5001206999877468;0.5401509000221267;0.5501720000174828;0.620188299973961;0.75027570000384;0.8803689000196755;0.01
12;1;10;25;letter190;letter169;letter190;letter169;0;0;incongruent;0.04;letter190;0.05;0.07;fullmask;0.2;arrow_right.png;up;0.6366693999734707;0.6403439999558032;437571.4925606;m;0.3781959999469109;0.3880246999906376;437571.8763574;2.6999623514711857e-06;0.4981044000014663;0.5381252999650314;0.5481394999660552;0.6181676000123844;0.7482627999852411;0.8783553999965079;0.01
12;1;10;26;letter190;letter169;letter190;letter169;0;0;incongruent;0.04;letter190;0.05;0.07;fullmask;0.2;arrow_right.png;up;0.8189136000000872;0.8198605999932624;437574.1965411;m;0.3489484000019729;0.35878289997344837;437574.5483686;2.800021320581436e-06;0.49882829998387024;0.5388673000270501;0.5488660000264645;0.6189205999835394;0.7489989000023343;0.879088599991519;0.01
12;1;10;27;letter190;letter169;letter190;letter169;0;1;congruent;0.12;letter190;0.14;0.07;fullmask;0.2;arrow_left.png;up;0.7873298000195064;0.790805900003761;437576.9165277;c;0.39445230003912;0.39798870001686737;437577.316393;2.700020559132099e-06;0.5029511000029743;0.6230409000418149;0.6430437000235543;0.7130811000242829;0.8431648000259884;0.9732548000174575;0.01
12;1;10;28;letter190;letter169;letter190;letter169;0;0;incongruent;0.04;letter190;0.05;0.07;fullmask;0.2;arrow_right.png;up;1.1258153999806382;1.1308979000314139;437579.9164825;m;0.4408761999802664;0.44885230000363663;437580.3643805;2.7999631129205227e-06;0.4961359999724664;0.5361697999760509;0.5461521999677643;0.6161889999639243;0.7462728999671526;0.8763996999477968;0.01
12;1;10;29;letter190;letter169;letter190;letter169;0;0;congruent;0.04;letter169;0.05;0.07;fullmask;0.2;arrow_right.png;down;0.8716989000095055;0.8805649999994785;437582.7245313;m;0.41305249999277294;0.41794089996255934;437583.1483851;2.800021320581436e-06;0.5001043999800459;0.5401220999774523;0.5501334000146016;0.620152399991639;0.7502490999759175;0.8803423999925144;0.01
12;1;10;30;letter190;letter169;letter190;letter169;0;0;congruent;0.04;letter190;0.05;0.07;fullmask;0.2;arrow_left.png;up;0.9360663000261411;0.9405643000500277;437585.5806474;c;0.39334029995370656;0.3990081999800168;437585.9803518;3.0999653972685337e-06;0.49768059997586533;0.537711999961175;0.5477268999675289;0.6177470999537036;0.7478339999797754;0.8779320999747142;0.01
12;1;10;31;letter190;letter169;letter190;letter169;0;0;incongruent;0.04;letter169;0.05;0.07;fullmask;0.2;arrow_left.png;down;1.1457099000108428;1.150974199990742;437588.6124884;c;0.33667519997106865;0.33814739994704723;437588.9563656;2.6999623514711857e-06;0.4950561999576166;0.5350719999987632;0.5450739999650978;0.6151067999890074;0.7452086999546736;0.8753038999857381;0.01
12;1;10;32;letter190;letter169;letter190;letter169;0;0;incongruent;0.04;letter190;0.05;0.07;fullmask;0.2;arrow_right.png;up;0.8277857000357471;0.8308460999978706;437591.2763894;m;0.3630088000209071;0.36806970002362505;437591.6443939;4.299974534660578e-06;0.4998835999867879;0.539894399989862;0.5498939999961294;0.6199442999786697;0.7500119999749586;0.8801233000122011;0.01
12;1;10;33;letter190;letter169;letter190;letter169;0;0;incongruent;0.04;letter190;0.05;0.07;fullmask;0.2;arrow_right.png;up;0.7684668000438251;0.7711022000294179;437593.9086234;m;0.3795236999867484;0.38804350001737475;437594.2926144;2.7999631129205227e-06;0.4999042999697849;0.5399115000036545;0.5498990999767557;0.6199239999987185;0.7500256999628618;0.8801344999810681;0.01
12;1;10;34;letter190;letter169;letter190;letter169;0;0;congruent;0.04;letter169;0.05;0.07;fullmask;0.2;arrow_right.png;down;0.916571700014174;0.9205543000134639;437596.7084996;m;0.32993980002356693;0.33814669999992475;437597.0443559;2.5999615900218487e-06;0.501981999957934;0.5419839999522083;0.5519852999714203;0.6220308999763802;0.7521294999751262;0.8822093000053428;0.01
12;1;10;35;letter190;letter169;letter190;letter169;0;0;incongruent;0.04;letter169;0.05;0.07;fullmask;0.2;arrow_left.png;down;0.9243786000297405;0.9305662999977358;437599.4683842;c;0.29579140001442283;0.29825089999940246;437599.7723007;2.800021320581436e-06;0.5028419999871403;0.5428899999824353;0.5528856000164524;0.6229261999833398;0.7530088999774307;0.8831159999826923;0.01
12;1;10;36;letter190;letter169;letter190;letter169;0;0;incongruent;0.04;letter169;0.05;0.07;fullmask;0.2;arrow_left.png;down;0.8026048999745399;0.8098977999761701;437602.0683826;c;0.3347347999806516;0.33924519998254254;437602.4123482;2.8999638743698597e-06;0.5004488999838941;0.5404464000021107;0.550458499987144;0.6204934999695979;0.7505801999941468;0.880673699954059;0.01
12;1;10;37;letter190;letter169;letter190;letter169;0;0;congruent;0.04;letter169;0.05;0.07;fullmask;0.2;arrow_right.png;down;0.8910073999431916;0.9005181999527849;437604.7884626;m;0.34842970001045614;0.3580591999925673;437605.1483751;2.7999631129205227e-06;0.5043589999550022;0.5443778999615461;0.5543802999891341;0.6244250999880023;0.7545024999999441;0.8846148999873549;0.01
12;1;10;38;letter190;letter169;letter190;letter169;0;0;congruent;0.04;letter190;0.05;0.07;fullmask;0.2;arrow_left.png;up;0.9715602000360377;0.9804295000503771;437607.6204076;c;0.29312500002561137;0.29825609998079017;437607.9243386;2.700020559132099e-06;0.5020832000300288;0.5421274000545964;0.5521127000101842;0.6221685000346042;0.7522288000327535;0.8823360000387765;0.01
12;1;10;39;letter190;letter169;letter190;letter169;0;0;incongruent;0.04;letter190;0.05;0.07;fullmask;0.2;arrow_right.png;down;1.1120057000080124;1.121166099968832;437610.5327356;m;0.2152570000034757;0.22041629999876022;437610.9565603;2.5999615900218487e-06;0.49599089997354895;0.5360167999751866;0.546009799989406;0.6160335000022314;0.7461321000009775;0.8762325999559835;0.01
12;1;10;40;letter190;letter169;letter190;letter169;0;0;congruent;0.04;letter190;0.05;0.07;fullmask;0.2;arrow_left.png;up;0.7373659000149928;0.7399528999812901;437613.1804077;c;0.33139419998042285;0.33815029996912926;437613.5163261;3.100023604929447e-06;0.5001724000321701;0.5401874000090174;0.5501761000487022;0.620211300032679;0.7503149000112899;0.8804226000211202;0.01
12;1;10;41;letter190;letter169;letter190;letter169;0;0;incongruent;0.04;letter169;0.05;0.07;fullmask;0.2;arrow_left.png;down;0.7735469000181183;0.779978199978359;437615.7883685;c;0.367662200005725;0.3679876999813132;437616.1643941;2.700020559132099e-06;0.49909380002645776;0.539111000020057;0.5491186000290327;0.6191651000408456;0.7492470000288449;0.8793444000184536;0.01
12;1;10;42;letter190;letter169;letter190;letter169;0;0;incongruent;0.04;letter190;0.05;0.07;fullmask;0.2;arrow_right.png;up;0.6608760000090115;0.6612249999889173;437618.3165473;m;0.389487000007648;0.3977226999704726;437618.7083861;2.600019797682762e-06;0.5000642000231892;0.5401009999914095;0.5501097000087611;0.6201347000314854;0.7502210999955423;0.8803217000095174;0.01
12;1;10;43;letter190;letter169;letter190;letter169;0;1;incongruent;0.12;letter169;0.14;0.07;fullmask;0.2;arrow_left.png;down;1.2447934999945574;1.2506806000019424;437621.5327351;c;0.3200224000029266;0.3282741999719292;437621.8604703;2.700020559132099e-06;0.4973127000266686;0.6173714000033215;0.6373971000430174;0.7074234000174329;0.8375265000504442;0.9676350000081584;0.01
12;1;10;44;letter190;letter169;letter190;letter169;0;0;congruent;0.04;letter190;0.05;0.07;fullmask;0.2;arrow_left.png;up;1.108424699981697;1.1110193000058644;437624.4683888;c;0.32339889998547733;0.3281732000177726;437624.7963226;2.800021320581436e-06;0.5018325999844819;0.5418347999802791;0.5518436999991536;0.6219000999699347;0.7519613999756984;0.8820723000098951;0.01
12;1;10;45;letter190;letter169;letter190;letter169;0;0;congruent;0.04;letter169;0.05;0.07;fullmask;0.2;arrow_right.png;down;0.970740900025703;0.9803078999975696;437627.2524396;m;0.34838769998168573;0.3492387000005692;437627.6123343;2.600019797682762e-06;0.5032148000318557;0.5432473000255413;0.5532380000222474;0.6233037000056356;0.7533534999820404;0.883481600030791;0.01
12;1;10;46;letter190;letter169;letter190;letter169;0;0;incongruent;0.04;letter169;0.05;0.07;fullmask;0.2;arrow_left.png;down;0.9573182000312954;0.9615180999971926;437630.0605916;c;0.3535873999935575;0.35811490000924096;437630.4202697;2.700020559132099e-06;0.49980749998940155;0.5398138000164181;0.5498380000353791;0.6198566000093706;0.7499598000431433;0.8800467000110075;0.01
12;1;10;47;letter190;letter169;letter190;letter169;0;0;congruent;0.04;letter169;0.05;0.07;fullmask;0.2;arrow_right.png;down;0.9770017999690026;0.9803847000002861;437632.8923746;m;0.370609300036449;0.37806860002456233;437633.2683118;2.700020559132099e-06;0.49906130001181737;0.5390639000106603;0.5490969999809749;0.6191120999865234;0.7492037999909371;0.8792927999747917;0.01
12;1;10;48;letter190;letter169;letter190;letter169;0;0;incongruent;0.04;letter169;0.05;0.07;fullmask;0.2;arrow_left.png;up;1.629254800034687;1.6306197000085376;437636.3963675;c;1.4302243999554776;1.4310080999857746;437638.0284499;2.700020559132099e-06;0.502991600020323;0.5430216999957338;0.5530212000012398;0.6230557999806479;0.7531408999930136;0.8832446000305936;0.01
12;1;10;49;letter190;letter169;letter190;letter169;0;0;incongruent;0.04;letter190;0.05;0.07;fullmask;0.2;arrow_right.png;up;1.6596822999999858;1.6606026999652386;437641.1804146;c;0.3890205000061542;0.3979978999705054;437641.5723088;2.6999623514711857e-06;0.5038162000128068;0.543828499969095;0.5538310999982059;0.6238646999699995;0.7539508999907412;0.8840381999616511;0.01
12;1;10;50;letter190;letter169;letter190;letter169;0;0;congruent;0.04;letter169;0.05;0.07;fullmask;0.2;arrow_right.png;down;1.0781541999895126;1.0811290999990888;437644.1405611;m;0.33124609995866194;0.3382554999552667;437644.4766129;2.700020559132099e-06;0.5057471999898553;0.5457759000128135;0.5557742000091821;0.6258431000169367;0.7558952000108548;0.8859983999864198;0.01
12;1;10;51;letter190;letter169;letter190;letter169;0;0;congruent;0.04;letter190;0.05;0.07;fullmask;0.2;arrow_left.png;down;1.0538730000262149;1.0611749000381678;437647.0283243;c;0.11319830000866205;0.12069090001750737;437647.3482733;2.700020559132099e-06;0.4979861000319943;0.5380162000074051;0.548015000007581;0.6180713000358082;0.7481406000442803;0.8782654000096954;0.01
12;1;10;52;letter190;letter169;letter190;letter169;0;0;incongruent;0.04;letter190;0.05;0.07;fullmask;0.2;arrow_right.png;up;0.8143433000077493;0.8208681999822147;437649.6603495;m;0.303448099992238;0.3082265999983065;437649.9722612;2.800021320581436e-06;0.5050816000439227;0.5450667000259273;0.555108200001996;0.6251389000099152;0.7552123999921605;0.8853090000338852;0.01
12;2;17;1;letter357;letter181;letter357;letter181;0;1;congruent;0.12;letter357;0.18;0.07;fullmask;0.2;arrow_left.png;up;0.6410943000228144;0.6502974000177346;438941.9154101;c;0.4126948000048287;0.41893260000506416;438942.3392462;2.700020559132099e-06;0.4984058000263758;0.6184731000103056;0.67852130002575;0.7485422000172548;0.8786464000004344;1.0087205999880098;0.01
12;2;17;2;letter357;letter181;letter357;letter181;0;0;incongruent;0.04;letter181;0.09;0.07;fullmask;0.2;arrow_left.png;down;0.6817815999966115;0.6909196999622509;438944.547434;c;0.42072339996229857;0.42789220000850037;438944.9792349;2.800021320581436e-06;0.5047953000175767;0.5447963000042364;0.5948406000388786;0.6648779000388458;0.7949787000543438;0.9250613000476733;0.01
12;2;17;3;letter357;letter181;letter357;letter181;0;0;incongruent;0.04;letter357;0.09;0.07;fullmask;0.2;arrow_right.png;up;0.503275599970948;0.5097008000011556;438947.0113659;m;0.43165009998483583;0.43897519999882206;438947.4513793;2.600019797682762e-06;0.495625099982135;0.5356283999863081;0.5856577000231482;0.6557070999988355;0.7857598999980837;0.915883700014092;0.01
12;2;17;4;letter357;letter181;letter357;letter181;0;0;congruent;0.04;letter181;0.09;0.07;fullmask;0.2;arrow_right.png;down;0.4176099000032991;0.4197159000323154;438949.3873891;m;0.4198048999533057;0.4279448000015691;438949.8112808;2.700020559132099e-06;0.5003051999956369;0.5402929999982007;0.590323599986732;0.6603778999997303;0.7904490000219084;0.9205655999830924;0.01
12;2;17;5;letter357;letter181;letter357;letter181;0;0;incongruent;0.04;letter357;0.09;0.07;fullmask;0.2;arrow_right.png;up;0.3961143000051379;0.3999832000117749;438951.7472838;m;0.41015269997296855;0.41794069996103644;438952.1632366;2.6999623514711857e-06;0.5015629999688827;0.5415755999856628;0.5916273999609984;0.6616653999662958;0.7917705000145361;0.9218401999678463;0.01
12;2;17;6;letter357;letter181;letter357;letter181;0;0;congruent;0.04;letter181;0.09;0.07;fullmask;0.2;arrow_right.png;down;0.43143029999919236;0.4408343000104651;438954.163375;m;0.42055929999332875;0.4279052999918349;438954.5952791;2.600019797682762e-06;0.5020475999917835;0.5420612000161782;0.5920791000244208;0.6621401999727823;0.7922168999793939;0.9223277000128292;0.01
12;2;17;7;letter357;letter181;letter357;letter181;0;0;congruent;0.04;letter181;0.09;0.07;fullmask;0.2;arrow_right.png;down;0.565043099981267;0.5705351000069641;438956.6993029;m;0.3925609999569133;0.39798899996094406;438957.099297;2.700020559132099e-06;0.5043034999980591;0.544320399989374;0.5943635000148788;0.6643853000132367;0.7944802999845706;0.9245700999745168;0.01
12;2;17;8;letter357;letter181;letter357;letter181;0;0;incongruent;0.04;letter357;0.09;0.07;fullmask;0.2;arrow_right.png;up;0.4260966000147164;0.4309167999890633;438959.0512863;m;0.42523870000150055;0.4279143000021577;438959.4832735;2.700020559132099e-06;0.4950368000427261;0.53505830001086;0.5850837000180036;0.6551164000411518;0.7852089999942109;0.9153369000414386;0.01
12;2;17;9;letter357;letter181;letter357;letter181;0;0;incongruent;0.04;letter181;0.09;0.07;fullmask;0.2;arrow_left.png;down;0.5397506000008434;0.5505698000197299;438961.5472719;c;0.3953849999816157;0.39799019997008145;438961.9552886;2.700020559132099e-06;0.5050026000244543;0.5450251000002027;0.5950818000128493;0.6651035000104457;0.7951947000110522;0.9252750999876298;0.01
12;2;17;10;letter357;letter181;letter357;letter181;0;0;congruent;0.04;letter357;0.09;0.07;fullmask;0.2;arrow_left.png;up;0.5406764000072144;0.5505909000057727;438964.019622;c;0.37979859998449683;0.3880166999879293;438964.4112738;2.700020559132099e-06;0.5009692000458017;0.5409816000028513;0.5910347000462934;0.6610620000283234;0.7911747000180185;0.9212404999998398;0.01
12;2;17;11;letter357;letter181;letter357;letter181;0;0;congruent;0.04;letter357;0.09;0.07;fullmask;0.2;arrow_left.png;up;0.5746255000121891;0.5803731000050902;438966.5152684;c;0.416240899998229;0.4179306000005454;438966.9391997;2.6999623514711857e-06;0.5049247000133619;0.5449617999838665;0.5949699999764562;0.6650112000061199;0.7950935999979265;0.9251975999795832;0.01
12;2;17;12;letter357;letter181;letter357;letter181;0;0;incongruent;0.04;letter181;0.09;0.07;fullmask;0.2;arrow_left.png;down;0.5149156999541447;0.5196928999503143;438968.987323;c;0.4732495999778621;0.47877729998435825;438969.4672515;2.700020559132099e-06;0.4983191000064835;0.5383349999901839;0.5883541000075638;0.6584308000165038;0.7884934000321664;0.9186039000051096;0.01
12;2;17;13;letter357;letter181;letter357;letter181;0;0;congruent;0.04;letter357;0.09;0.07;fullmask;0.2;arrow_left.png;up;0.6359885000274517;0.6403288000146858;438971.6192702;c;0.4257598000112921;0.42900569998892024;438972.0513087;2.6999623514711857e-06;0.49735639995196834;0.5373709999839775;0.5873962999903597;0.657451199949719;0.7875121999531984;0.9176282999687828;0.01
12;2;17;14;letter357;letter181;letter357;letter181;0;0;incongruent;0.04;letter181;0.09;0.07;fullmask;0.2;arrow_left.png;down;0.5480044000432827;0.5505459000123665;438974.1233971;c;0.44334939995314926;0.4478586999466643;438974.5712194;2.6999623514711857e-06;0.4973458999884315;0.5374237999785691;0.5873914999538101;0.6574183999910019;0.787525599997025;0.91759769996861;0.01
12;2;17;15;letter357;letter181;letter357;letter181;0;0;incongruent;0.04;letter357;0.09;0.07;fullmask;0.2;arrow_right.png;up;0.5218894999707118;0.5295990000013262;438976.619288;m;0.43036459997529164;0.4384628999978304;438977.0593037;2.6999623514711857e-06;0.5034549999982119;0.543471299984958;0.5934931999654509;0.6635311999707483;0.7936203999561258;0.9237326000002213;0.01
12;2;17;16;letter357;letter181;letter357;letter181;0;0;incongruent;0.04;letter181;0.09;0.07;fullmask;0.2;arrow_left.png;down;0.5836006000172347;0.5914451000280678;438979.1716383;c;0.44601220003096387;0.44795820000581443;438979.6273248;2.700020559132099e-06;0.5040198999922723;0.5440588999772444;0.5940780999953859;0.6641219999874011;0.7942006000084803;0.9243033999809995;0.01
12;2;17;17;letter357;letter181;letter357;letter181;0;0;incongruent;0.04;letter181;0.09;0.07;fullmask;0.2;arrow_left.png;down;0.5886174999759533;0.5904520999756642;438981.7792238;c;0.46818009996786714;0.47777009999845177;438982.2512147;2.700020559132099e-06;0.5032980000250973;0.5433061000076123;0.5933434999897145;0.6633845000178553;0.7934745000093244;0.923563499993179;0.01
12;2;17;18;letter357;letter181;letter357;letter181;0;0;congruent;0.04;letter357;0.09;0.07;fullmask;0.2;arrow_left.png;up;0.6191045999876224;0.6203999000135809;438984.4114405;c;0.4445591999683529;0.4478524999576621;438984.8592355;2.9999646358191967e-06;0.5026339999749325;0.5426584999659099;0.5926804000046104;0.6627191000152379;0.792804199969396;0.9229161000112072;0.01
12;2;17;19;letter357;letter181;letter357;letter181;0;0;congruent;0.04;letter357;0.09;0.07;fullmask;0.2;arrow_left.png;up;0.5561988999834284;0.5606507000047714;438986.9393502;c;0.3934599999920465;0.39798599999630824;438987.3391996;2.700020559132099e-06;0.49945439997827634;0.5394704000209458;0.5894800000241958;0.6595258000306785;0.7896004000212997;0.9197058000136167;0.01
12;2;17;20;letter357;letter181;letter357;letter181;0;0;congruent;0.04;letter181;0.09;0.07;fullmask;0.2;arrow_right.png;down;0.6000470999861136;0.6002914000418968;438989.475374;m;0.3976021999842487;0.3978759999736212;438989.8752738;2.6999623514711857e-06;0.5043857999844477;0.5443903999985196;0.5944174999604002;0.6644767999532633;0.7945343999890611;0.9246491999947466;0.01
12;2;17;21;letter357;letter181;letter357;letter181;0;0;congruent;0.04;letter181;0.09;0.07;fullmask;0.2;arrow_right.png;down;0.7063765000202693;0.7101647000527009;438992.123325;m;0.3782043000101112;0.38816019997466356;438992.5072486;3.0999653972685337e-06;0.5028816999983974;0.5429060999886133;0.5929413999547251;0.662948899960611;0.7930620999541134;0.9231712999753654;0.01
12;2;17;22;letter357;letter181;letter357;letter181;0;0;incongruent;0.04;letter357;0.09;0.07;fullmask;0.2;arrow_right.png;up;0.517072900023777;0.5205269000143744;438994.5552483;m;0.4107509999885224;0.4190293999854475;438994.9713943;2.700020559132099e-06;0.5050781000172719;0.5451063999789767;0.5951289000222459;0.6651636000024155;0.7952453999896534;0.9253551000147127;0.01
12;2;17;23;letter357;letter181;letter357;letter181;0;0;congruent;0.04;letter357;0.09;0.07;fullmask;0.2;arrow_left.png;up;0.7527804999845102;0.7598649000283331;438997.24324;c;0.3749398000072688;0.37903349997941405;438997.6271898;2.6999623514711857e-06;0.4975043999729678;0.5375337000004947;0.5875483999843709;0.6576088999863714;0.7876729999552481;0.9177906999830157;0.01
12;2;17;24;letter357;letter181;letter357;letter181;0;1;congruent;0.12;letter181;0.18;0.07;fullmask;0.2;arrow_right.png;down;0.6471500999759883;0.6503898999653757;438999.8992692;m;0.39482200000202283;0.3980293999775313;439000.2992674;2.800021320581436e-06;0.4983518000226468;0.6184293000260368;0.6784643999999389;0.748504800023511;0.8785836999886669;1.008689999987837;0.01
12;2;17;25;letter357;letter181;letter357;letter181;0;0;incongruent;0.04;letter357;0.09;0.07;fullmask;0.2;arrow_right.png;up;0.7394390000263229;0.7401763999951072;439002.5634882;m;0.389260399970226;0.39863979996880516;439002.9553319;2.9999646358191967e-06;0.4981720999930985;0.5381859999615699;0.5882145999930799;0.6582686000037938;0.7883401999715716;0.918447699979879;0.01
12;2;17;26;letter357;letter181;letter357;letter181;0;0;congruent;0.04;letter181;0.09;0.07;fullmask;0.2;arrow_right.png;down;0.5317101000109687;0.5406223000027239;439005.0272996;m;0.4130371999926865;0.4179325000150129;439005.4511836;2.5999615900218487e-06;0.5004491999861784;0.5404667999828234;0.5904907999793068;0.6605556999566033;0.7906195999821648;0.9207247999729589;0.01
12;2;17;27;letter357;letter181;letter357;letter181;0;0;incongruent;0.04;letter357;0.09;0.07;fullmask;0.2;arrow_right.png;up;0.6782144000171684;0.6802310000057332;439007.6752934;m;0.3480184000218287;0.3579469000105746;439008.0272622;2.6999623514711857e-06;0.5046801999560557;0.544708699977491;0.5947460999595933;0.6647840999648906;0.7948687999742106;0.9249537999858148;0.01
12;2;17;28;letter357;letter181;letter357;letter181;0;1;incongruent;0.12;letter181;0.18;0.07;fullmask;0.2;arrow_left.png;down;0.6207339999964461;0.6304868999868631;439010.259619;c;0.4203012000070885;0.4280117999878712;439010.6914987;2.700020559132099e-06;0.4985543999937363;0.618622400041204;0.6786765000433661;0.748686800012365;0.8788054999895394;1.0088751000002958;0.01
12;2;17;29;letter357;letter181;letter357;letter181;0;0;congruent;0.04;letter357;0.09;0.07;fullmask;0.2;arrow_left.png;up;0.6465285000158474;0.6501655000029132;439012.8672266;c;0.49039280001306906;0.4987216999870725;439013.3631925;2.700020559132099e-06;0.5037576000322588;0.5437760999775492;0.5937979000154883;0.6638411000021733;0.7939154999912716;0.9240400000126101;0.01
12;2;17;30;letter357;letter181;letter357;letter181;0;0;congruent;0.04;letter181;0.09;0.07;fullmask;0.2;arrow_right.png;down;0.5888852000352927;0.5904407000052743;439015.4912101;m;0.3884711000137031;0.39798720000544563;439015.8831743;2.800021320581436e-06;0.497627500037197;0.537636500026565;0.5876870999927633;0.6577066000318155;0.7877829000353813;0.917898099985905;0.01
12;2;17;31;letter357;letter181;letter357;letter181;0;0;incongruent;0.04;letter181;0.09;0.07;fullmask;0.2;arrow_left.png;down;0.8392471999977715;0.839590199990198;439018.2433676;c;0.4937218999839388;0.49898699996992946;439018.739457;2.6999623514711857e-06;0.4964081000071019;0.5364247999968939;0.5864659000071697;0.6564904999686405;0.7865934000001289;0.9166843999992125;0.01
12;2;17;32;letter357;letter181;letter357;letter181;0;0;congruent;0.04;letter357;0.09;0.07;fullmask;0.2;arrow_left.png;up;0.9552315000328235;0.960354900045786;439021.2112212;c;0.4489422999904491;0.45782640000106767;439021.6672251;2.700020559132099e-06;0.498290800023824;0.5383092000265606;0.5883645000285469;0.6583820999949239;0.7884685000171885;0.918751000019256;0.01
12;2;17;33;letter357;letter181;letter357;letter181;0;0;congruent;0.04;letter357;0.09;0.07;fullmask;0.2;arrow_left.png;up;0.8542083000065759;0.8607497999910265;439024.0512784;c;0.4314162000082433;0.4388800999731757;439024.4911746;2.6999623514711857e-06;0.4985432999674231;0.5385636999853887;0.5885961999883875;0.6586296000168659;0.7887134999618866;0.9188336000079289;0.01
12;2;17;34;letter357;letter181;letter357;letter181;0;0;congruent;0.04;letter181;0.09;0.07;fullmask;0.2;arrow_right.png;down;0.5985092999762855;0.6005482999607921;439026.6274307;m;0.3801089000189677;0.3891181999933906;439027.0114077;2.6999623514711857e-06;0.4969328999868594;0.5369527999428101;0.5870040999725461;0.6570384999504313;0.787144499947317;0.9172207999508828;0.01
12;2;17;35;letter357;letter181;letter357;letter181;0;0;congruent;0.04;letter181;0.09;0.07;fullmask;0.2;arrow_right.png;down;0.4566513000172563;0.46083290001843125;439028.9872144;m;0.4658422999782488;0.46776329999556765;439029.4591773;2.5999615900218487e-06;0.4990255999728106;0.5390259999549016;0.5890527999727055;0.6590955999563448;0.789179699961096;0.9192796999705024;0.01
12;2;17;36;letter357;letter181;letter357;letter181;0;0;incongruent;0.04;letter181;0.09;0.07;fullmask;0.2;arrow_left.png;down;0.4922997000394389;0.4996794000035152;439031.4752274;c;0.38262079999549314;0.3890112999943085;439031.8671711;2.800021320581436e-06;0.5021819000248797;0.5421878999914043;0.5922345999861136;0.6622829000116326;0.7923581000068225;0.9224572000093758;0.01
12;2;17;37;letter357;letter181;letter357;letter181;0;0;incongruent;0.04;letter357;0.09;0.07;fullmask;0.2;arrow_right.png;up;0.34559290000470355;0.3501248999964446;439033.7393052;m;0.4173435000120662;0.4189312999951653;439034.163122;2.700020559132099e-06;0.5038887000409886;0.5439041000208817;0.593927200010512;0.6639710000017658;0.7940394000033848;0.9241409000242129;0.01
12;2;17;38;letter357;letter181;letter357;letter181;0;0;incongruent;0.04;letter181;0.09;0.07;fullmask;0.2;arrow_left.png;down;0.24620629998389632;0.25037279998650774;439035.9314522;c;0.3857926999917254;0.38912369997706264;439036.323248;2.700020559132099e-06;0.5029332999838516;0.5429545000079088;0.5929782000021078;0.6630274999770336;0.7931047999882139;0.9232189999893308;0.01
12;2;17;39;letter357;letter181;letter357;letter181;0;0;incongruent;0.04;letter357;0.09;0.07;fullmask;0.2;arrow_right.png;up;0.2147621000185609;0.22033209999790415;439038.0512867;m;0.40841289999661967;0.40896029997384176;439038.4672077;2.700020559132099e-06;0.49644489999627694;0.5364893000223674;0.5864901000168175;0.6565462999860756;0.7866197000257671;0.916712100035511;0.01
12;2;17;40;letter357;letter181;letter357;letter181;0;0;incongruent;0.04;letter181;0.09;0.07;fullmask;0.2;arrow_left.png;down;0.04742489999625832;0.05087949999142438;439040.0352951;c;0.4105045000324026;0.4178171000094153;439040.4512014;2.800021320581436e-06;0.4983994999784045;0.5384108999860473;0.5884368999977596;0.6584912000107579;0.7885572999948636;0.9186611999757588;0.01
12;2;17;41;letter357;letter181;letter357;letter181;0;0;congruent;0.04;letter357;0.09;0.07;fullmask;0.2;arrow_left.png;up;0.1276623000157997;0.1297167000011541;439042.1072128;c;0.42813130002468824;0.42901540000457317;439042.5393318;2.800021320581436e-06;0.4961831999826245;0.5362139000208117;0.5862439000047743;0.6562474999809638;0.7863642000011168;0.9164690999896266;0.01
12;2;17;42;letter357;letter181;letter357;letter181;0;0;congruent;0.04;letter181;0.09;0.07;fullmask;0.2;arrow_right.png;down;0.10079029999906197;0.1108696999726817;439044.1715491;m;0.40378399996552616;0.40805919998092577;439044.5872514;2.7999631129205227e-06;0.5013679999974556;0.5413846999872476;0.591396400006488;0.6614431999623775;0.7915142999845557;0.9216233000042848;0.01
12;2;17;43;letter357;letter181;letter357;letter181;0;0;incongruent;0.04;letter357;0.09;0.07;fullmask;0.2;arrow_right.png;up;0.05667040002299473;0.060004500031936914;439046.179346;m;0.4025588000076823;0.407869600050617;439046.5871583;2.800021320581436e-06;0.49929160001920536;0.5393229000037536;0.5893451999872923;0.6593737999792211;0.7894664999912493;0.9195629000314511;0.01
12;2;17;44;letter357;letter181;letter357;letter181;0;0;congruent;0.04;letter181;0.09;0.07;fullmask;0.2;arrow_right.png;down;0.0417992000002414;0.050125100009609014;439048.1553097;m;0.38967599999159575;0.3978993999771774;439048.5552377;2.700020559132099e-06;0.49674170004436746;0.5367707000114024;0.5867916000424884;0.6568310000002384;0.7869169000186957;0.917022600013297;0.01
12;2;17;45;letter357;letter181;letter357;letter181;0;0;congruent;0.04;letter357;0.09;0.07;fullmask;0.2;arrow_left.png;up;0.18876700004329905;0.19053690001601353;439050.2832715;c;0.5322336000390351;0.53862200002186;439050.8192066;2.700020559132099e-06;0.5006930999807082;0.540721700002905;0.5907734999782406;0.6608049999922514;0.7908858999726363;0.9209853999782354;0.01
12;2;17;46;letter357;letter181;letter357;letter181;0;0;incongruent;0.04;letter357;0.09;0.07;fullmask;0.2;arrow_right.png;up;0.6828678000019863;0.6901316000148654;439053.0196322;m;0.40639349998673424;0.4079733000253327;439053.4351574;2.5999615900218487e-06;0.4968628999777138;0.5369000999489799;0.5869368999847211;0.6569805999752134;0.787032799969893;0.9171631999779493;0.01
12;2;17;47;letter357;letter181;letter357;letter181;0;0;incongruent;0.04;letter181;0.09;0.07;fullmask;0.2;arrow_left.png;down;0.48331390001112595;0.48985449998872355;439055.4515816;c;0.39946149999741465;0.40905959997326136;439055.8594163;2.800021320581436e-06;0.5001308000064455;0.5401337000075728;0.590161900036037;0.660196700016968;0.7902892000274733;0.9203882000292651;0.01
12;2;17;48;letter357;letter181;letter357;letter181;0;0;incongruent;0.04;letter357;0.09;0.07;fullmask;0.2;arrow_right.png;up;0.3981136999791488;0.4009967999882065;439057.7872575;m;0.36306850000983104;0.3680653999908827;439058.1551441;2.700020559132099e-06;0.50105269998312;0.5410504000028595;0.5911264999886043;0.6611525000189431;0.7912425000104122;0.9213270000182092;0.01
12;2;17;49;letter357;letter181;letter357;letter181;0;1;incongruent;0.12;letter357;0.18;0.07;fullmask;0.2;arrow_right.png;up;0.23184570000739768;0.24042210000334308;439060.0032369;m;0.39747090003220364;0.39798660000087693;439060.4112214;2.6999623514711857e-06;0.5015380999539047;0.6216054999968037;0.6816479999688454;0.7516958999913186;0.8817740999511443;1.0118892999598756;0.01
12;2;17;50;letter357;letter181;letter357;letter181;0;0;congruent;0.04;letter357;0.09;0.07;fullmask;0.2;arrow_left.png;up;0.46307130000786856;0.4706548999529332;439062.3951847;c;0.3265176999848336;0.3282935000024736;439062.7312269;2.7999631129205227e-06;0.5018106999923475;0.5418435999890789;0.5918749999837019;0.6619146000011824;0.7919964999891818;0.9220847999677062;0.01
12;2;17;51;letter357;letter181;letter357;letter181;0;0;congruent;0.04;letter181;0.09;0.07;fullmask;0.2;arrow_right.png;down;0.22886099998140708;0.22931780002545565;439064.4832944;m;0.4213611999875866;0.42890439997427166;439064.9071374;2.800021320581436e-06;0.4969979000161402;0.5370037999819033;0.5870331000187434;0.6570841000066139;0.787153200013563;0.9172518000123091;0.01
12;2;17;52;letter357;letter181;letter357;letter181;0;0;incongruent;0.04;letter181;0.09;0.07;fullmask;0.2;arrow_left.png;down;0.31936530000530183;0.32006910000927746;439066.7552751;c;0.4612667000037618;0.46780839998973534;439067.2191736;2.700020559132099e-06;0.5045919999829493;0.5446027999860235;0.5946259999764152;0.6646597000071779;0.7947670000139624;0.9248560999985784;0.01
12;2;18;1;letter357;letter181;letter357;letter181;0;1;congruent;0.12;letter181;0.18;0.07;fullmask;0.2;arrow_right.png;down;0.856283999979496;0.8608290999545716;439073.5954169;m;0.3292697999859229;0.33816389995627105;439073.9311266;2.700020559132099e-06;0.5022753000375815;0.6223387999925762;0.6823841000441462;0.7524165000068024;0.8824982999940403;1.0126120999921113;0.01
12;2;18;2;letter357;letter181;letter357;letter181;0;0;congruent;0.04;letter357;0.09;0.07;fullmask;0.2;arrow_left.png;up;0.8463175999931991;0.8507898999960162;439076.3071768;c;0.39355179999256507;0.3989873999962583;439076.7071376;2.800021320581436e-06;0.49504750000778586;0.5350328999920748;0.5851130000082776;0.6551300999708474;0.7852437000256032;0.9153250000090338;0.01
12;2;18;3;letter357;letter181;letter357;letter181;0;0;incongruent;0.04;letter181;0.09;0.07;fullmask;0.2;arrow_left.png;down;0.5982318000169471;0.6004612999968231;439078.851282;c;0.39571760001126677;0.397988400014583;439079.2511688;2.8999638743698597e-06;0.5051294000004418;0.545142000017222;0.5951740000164136;0.6652099000057206;0.7952891999739222;0.9254012000164948;0.01
12;2;18;4;letter357;letter181;letter357;letter181;0;0;incongruent;0.04;letter357;0.09;0.07;fullmask;0.2;arrow_right.png;up;0.3545307000167668;0.3600983999785967;439081.1392827;m;0.40036059997510165;0.4086863999837078;439081.5471319;2.700020559132099e-06;0.5008413000032306;0.5408649999881163;0.5908948000287637;0.6609289000043646;0.7910238000331447;0.9211190000060014;0.01
12;2;18;5;letter357;letter181;letter357;letter181;0;0;incongruent;0.04;letter181;0.09;0.07;fullmask;0.2;arrow_left.png;down;0.31668079999508336;0.3201914000092074;439083.4033233;c;0.40235109999775887;0.4079589999746531;439083.8111256;2.900022082030773e-06;0.5042386000277475;0.5442580999806523;0.5942796000163071;0.6643159000086598;0.7943976999958977;0.9244924000231549;0.01
12;2;18;6;letter357;letter181;letter357;letter181;0;0;incongruent;0.04;letter357;0.09;0.07;fullmask;0.2;arrow_right.png;up;0.5151413999847136;0.5205331000033766;439085.8431671;m;0.39269060001242906;0.3979918999830261;439086.2431817;2.6999623514711857e-06;0.497885899967514;0.5378936000051908;0.587926400010474;0.6579597999807447;0.7880611000000499;0.9181734999874607;0.01
12;2;18;7;letter357;letter181;letter357;letter181;0;0;congruent;0.04;letter357;0.09;0.07;fullmask;0.2;arrow_left.png;up;0.4260800000047311;0.4308762000291608;439088.1953184;c;0.43324139999458566;0.43789950001519173;439088.6351863;2.700020559132099e-06;0.5058768999879248;0.5458953999914229;0.5959568000398576;0.6659669000073336;0.7960480999900028;0.926155099994503;0.01
12;2;18;8;letter357;letter181;letter357;letter181;0;0;congruent;0.04;letter181;0.09;0.07;fullmask;0.2;arrow_right.png;down;0.386500199965667;0.3900255999760702;439090.5471632;m;0.40266000002156943;0.40898000000743195;439090.95528;2.700020559132099e-06;0.4969141000183299;0.5369235000107437;0.5869593000388704;0.6570043999818154;0.7870812999899499;0.9171805999940261;0.01
12;2;18;9;letter357;letter181;letter357;letter181;0;0;incongruent;0.04;letter357;0.09;0.07;fullmask;0.2;arrow_right.png;up;0.5365566999535076;0.5404785999562591;439093.019246;m;0.37808950000908226;0.3880131000187248;439093.4031978;2.6999623514711857e-06;0.5031129999551922;0.5431323999655433;0.593161600001622;0.6632134999963455;0.7932852999656461;0.9233812000020407;0.01
12;2;18;10;letter357;letter181;letter357;letter181;0;0;incongruent;0.04;letter181;0.09;0.07;fullmask;0.2;arrow_left.png;down;0.6027571000158787;0.6104313000105321;439095.5471639;c;0.4064593999646604;0.40796290000434965;439095.9632355;2.8999638743698597e-06;0.5019918999751098;0.5420180999790318;0.5920366999926046;0.6621025999775156;0.7921980999526568;0.9222796999965794;0.01
12;2;18;11;letter357;letter181;letter357;letter181;0;0;congruent;0.04;letter181;0.09;0.07;fullmask;0.2;arrow_right.png;down;0.41142120002768934;0.4200425000162795;439097.9075188;m;0.3572169999824837;0.3576941999490373;439098.2751895;2.800021320581436e-06;0.503317299997434;0.5433345000492409;0.5933636000263505;0.6634108000434935;0.7934832000173628;0.9236012000474147;0.01
12;2;18;12;letter357;letter181;letter357;letter181;0;0;congruent;0.04;letter357;0.09;0.07;fullmask;0.2;arrow_left.png;up;0.35597460001008585;0.36008939996827394;439100.1632253;c;0.44983749999664724;0.45882400003029034;439100.6191195;2.700020559132099e-06;0.5009439999703318;0.5409602000145242;0.5910042999894358;0.6610258999862708;0.7911138000199571;0.9212422000127845;0.01
12;2;18;13;letter357;letter181;letter357;letter181;0;0;congruent;0.04;letter181;0.09;0.07;fullmask;0.2;arrow_right.png;down;0.38287620001938194;0.3910205000429414;439102.5311724;m;0.3818799000000581;0.38802279997617006;439102.9231246;2.700020559132099e-06;0.504296200000681;0.5443091000197455;0.594344400044065;0.6643931000144221;0.7944800000404939;0.924565099994652;0.01
12;2;18;14;letter357;letter181;letter357;letter181;0;0;congruent;0.04;letter357;0.09;0.07;fullmask;0.2;arrow_left.png;up;0.409014799981378;0.4098277000011876;439104.8591276;c;0.4052775999880396;0.4089770999853499;439105.2671526;2.700020559132099e-06;0.49964140000520274;0.5396486999816261;0.5896681000012904;0.6597464000224136;0.7898035999969579;0.9199073999770917;0.01
12;2;18;15;letter357;letter181;letter357;letter181;0;0;incongruent;0.04;letter181;0.09;0.07;fullmask;0.2;arrow_left.png;down;0.4720462000113912;0.48086750000948086;439107.2835591;c;0.4211121000116691;0.42801050003618;439107.715324;2.6999623514711857e-06;0.5052055999985896;0.545217499951832;0.5952627999940887;0.6652839999878779;0.7953701999504119;0.925485799962189;0.01
12;2;18;16;letter357;letter181;letter357;letter181;0;0;congruent;0.04;letter357;0.09;0.07;fullmask;0.2;arrow_left.png;up;0.5121018000063486;0.5206709000049159;439109.7551756;c;0.4694907999946736;0.4777736000251025;439110.2351753;2.800021320581436e-06;0.5011519000399858;0.5411654000054114;0.5912066000164486;0.6612390000373125;0.7913452000357211;0.9214150000480004;0.01
12;2;18;17;letter357;letter181;letter357;letter181;0;0;incongruent;0.04;letter357;0.09;0.07;fullmask;0.2;arrow_right.png;down;0.5207771999994293;0.5305037000216544;439112.2752482;m;0.23769300000276417;0.24038849998032674;439112.7231085;2.700020559132099e-06;0.4961656000232324;0.5361775000346825;0.5862021000357345;0.65621700003976;0.7863216000259854;0.9164116000174545;0.01
12;2;18;18;letter357;letter181;letter357;letter181;0;0;incongruent;0.04;letter181;0.09;0.07;fullmask;0.2;arrow_left.png;down;0.8183395999949425;0.8198579999734648;439115.0751534;c;0.35649009997723624;0.3590910999919288;439115.4351003;2.700020559132099e-06;0.5038470000145026;0.5438621999928728;0.5938925999798812;0.663916599994991;0.7939953000168316;0.9241153000039048;0.01
12;2;18;19;letter357;letter181;letter357;letter181;0;0;congruent;0.04;letter181;0.09;0.07;fullmask;0.2;arrow_right.png;down;0.7433315999805927;0.7509130999678746;439117.6912005;m;0.3583710999810137;0.36806259996956214;439118.0590979;2.600019797682762e-06;0.4979027000372298;0.5379067999892868;0.5879357000230812;0.6579705000040121;0.7880501000327058;0.9181720000342466;0.01
12;2;18;20;letter357;letter181;letter357;letter181;0;0;incongruent;0.04;letter357;0.09;0.07;fullmask;0.2;arrow_right.png;up;0.9692894999752752;0.9704765999922529;439120.5792102;m;0.39676709997002035;0.3983099000179209;439120.9790895;2.800021320581436e-06;0.503652100043837;0.5436655000085011;0.5937002000282519;0.6637354000122286;0.7938263000105508;0.9239073999924585;0.01
12;2;18;21;letter357;letter181;letter357;letter181;0;1;congruent;0.12;letter357;0.18;0.07;fullmask;0.2;arrow_left.png;up;0.771530200028792;0.7810815999982879;439123.3634964;c;0.34035990003030747;0.34822530002566054;439123.7152346;2.700020559132099e-06;0.5018910000217147;0.6219761000247672;0.6820214000181295;0.7520395000465214;0.8821249000029638;1.0122240000055172;0.01
12;2;18;22;letter357;letter181;letter357;letter181;0;0;congruent;0.04;letter181;0.09;0.07;fullmask;0.2;arrow_right.png;down;0.8213321000221185;0.8308400000096299;439126.0751386;m;0.3164994000107981;0.31820739997783676;439126.4030784;2.5999615900218487e-06;0.500045399996452;0.5400794000015594;0.5901136999600567;0.6601389999850653;0.7902447999804281;0.9203421999700367;0.01
12;2;18;23;letter357;letter181;letter357;letter181;0;0;congruent;0.04;letter181;0.09;0.07;fullmask;0.2;arrow_right.png;down;1.1817491999827325;1.1908664999646135;439129.107311;m;0.3327517999568954;0.33814790000906214;439129.451119;2.700020559132099e-06;0.5023461999953724;0.5423751000198536;0.5924133000080474;0.6624349000048824;0.7925210999674164;0.9226407000096515;0.01
12;2;18;24;letter357;letter181;letter357;letter181;0;0;incongruent;0.04;letter357;0.09;0.07;fullmask;0.2;arrow_right.png;up;1.1303297000122257;1.130855800001882;439132.1071976;m;0.38957769999979064;0.3984901999938302;439132.499236;2.700020559132099e-06;0.5026284999912605;0.5426386000472121;0.5926684000296518;0.6626955000101589;0.7927947000134736;0.9228788000182249;0.01
12;2;18;25;letter357;letter181;letter357;letter181;0;0;incongruent;0.04;letter181;0.09;0.07;fullmask;0.2;arrow_left.png;down;0.9153453999897465;0.9206017999676988;439134.9551589;m;0.3206997999805026;0.3281732999603264;439135.2830547;2.700020559132099e-06;0.5007194000063464;0.5407488999771886;0.5907815999817103;0.660811299982015;0.7909022999810986;0.9209946999908425;0.01
12;2;18;26;letter357;letter181;letter357;letter181;0;0;incongruent;0.04;letter357;0.09;0.07;fullmask;0.2;arrow_right.png;up;1.042269799974747;1.0511144999763928;439137.8430977;m;0.34121559996856377;0.348422400013078;439138.1950887;2.700020559132099e-06;0.501573899993673;0.5415702000027522;0.5915976000251248;0.6616572000202723;0.7917157000047155;0.9218264000373892;0.01
12;2;18;27;letter357;letter181;letter357;letter181;0;0;incongruent;0.04;letter181;0.09;0.07;fullmask;0.2;arrow_left.png;down;0.7924952000030316;0.8010251999949105;439140.5154911;c;0.32530640001641586;0.32826800004113466;439140.8511651;3.00002284348011e-06;0.49927329999627545;0.5392952000256628;0.58932690002257;0.6593684999970719;0.7894531000056304;0.9195467000245117;0.01
12;2;18;28;letter357;letter181;letter357;letter181;0;0;congruent;0.04;letter357;0.09;0.07;fullmask;0.2;arrow_left.png;up;1.0288373000221327;1.0312598000164144;439143.4032094;c;0.33153419999871403;0.33814390003681183;439143.7391107;2.800021320581436e-06;0.5011569000198506;0.5411631999886595;0.5911896000034176;0.6612296000239439;0.791329899977427;0.9214101000106893;0.01
12;2;18;29;letter357;letter181;letter357;letter181;0;0;congruent;0.04;letter181;0.09;0.07;fullmask;0.2;arrow_right.png;down;1.2826134999631904;1.2904738999786787;439146.5391736;m;0.3343530999845825;0.339247899944894;439146.8833187;2.700020559132099e-06;0.49955200002295896;0.5395711000310257;0.5896089000161737;0.6596416999818757;0.7897235000273213;0.9198326999903657;0.01
12;2;18;30;letter357;letter181;letter357;letter181;0;0;incongruent;0.04;letter357;0.09;0.07;fullmask;0.2;arrow_right.png;up;1.2182350999792106;1.2206760999979451;439149.6271315;m;0.2755654000211507;0.27828570001292974;439149.9070759;2.700020559132099e-06;0.49971000000368804;0.5397209000075236;0.5897601000033319;0.6597862000344321;0.7898661000072025;0.9199811000144109;0.01
12;2;18;31;letter357;letter181;letter357;letter181;0;0;incongruent;0.04;letter357;0.09;0.07;fullmask;0.2;arrow_right.png;up;1.6366570999962278;1.640629799978342;439153.0672235;m;0.42590960004599765;0.42889500001911074;439153.4990545;2.700020559132099e-06;0.49525169999105856;0.5352784999995492;0.5853240999858826;0.6553446000325494;0.7854605999891646;0.9155355000402778;0.01
12;2;18;32;letter357;letter181;letter357;letter181;0;0;incongruent;0.04;letter181;0.09;0.07;fullmask;0.2;arrow_left.png;down;1.0836981000029482;1.090148199989926;439156.1071082;c;0.3676341000245884;0.3679837000090629;439156.4831305;2.6999623514711857e-06;0.4999977999832481;0.54003279999597;0.5900510000064969;0.6600973999593407;0.7901806999580003;0.9202830999856815;0.01
12;2;18;33;letter357;letter181;letter357;letter181;0;0;congruent;0.04;letter181;0.09;0.07;fullmask;0.2;arrow_right.png;down;0.7530122000025585;0.7612806999823079;439158.7476404;m;0.33352510002441704;0.33825179998530075;439159.0912613;2.600019797682762e-06;0.4969425000017509;0.5369434999884106;0.5869726000237279;0.6570199999841861;0.7870870999759063;0.9172048000036739;0.01
12;2;18;34;letter357;letter181;letter357;letter181;0;0;incongruent;0.04;letter357;0.09;0.07;fullmask;0.2;arrow_right.png;up;0.7730850999942049;0.780978100025095;439161.3791565;m;0.4060771999647841;0.4079613999929279;439161.7950611;2.7999631129205227e-06;0.4991530000115745;0.5391594999819063;0.5891807000152767;0.6592382999951951;0.789293700014241;0.9194060000008903;0.01
12;2;18;35;letter357;letter181;letter357;letter181;0;0;congruent;0.04;letter357;0.09;0.07;fullmask;0.2;arrow_left.png;up;0.9152348999632522;0.9205544999567792;439164.2431257;c;0.33666679996531457;0.3391389999887906;439164.5870579;2.800021320581436e-06;0.5027627000235952;0.5427913999883458;0.592818700009957;0.6628606999875046;0.7929455999983475;0.9230449000024237;0.01
12;2;18;36;letter357;letter181;letter357;letter181;0;0;congruent;0.04;letter357;0.09;0.07;fullmask;0.2;arrow_left.png;up;0.8693884999956936;0.8707598999608308;439166.9794782;c;0.34057669999310747;0.3481663999846205;439167.3233188;2.800021320581436e-06;0.5044476999901235;0.544453100010287;0.5944998000049964;0.6645187999820337;0.7946287000086159;0.9247022999916226;0.01
12;2;18;37;letter357;letter181;letter357;letter181;0;1;incongruent;0.12;letter181;0.18;0.07;fullmask;0.2;arrow_left.png;down;0.8132001999765635;0.8208672999753617;439169.7551193;c;0.32636249996721745;0.3281754999770783;439170.091087;2.600019797682762e-06;0.5040131999994628;0.6240926000173204;0.6841172999702394;0.7541410999838263;0.8842345000011846;1.0143288999679498;0.01
12;2;18;38;letter357;letter181;letter357;letter181;0;0;congruent;0.04;letter357;0.09;0.07;fullmask;0.2;arrow_left.png;up;0.6559013000223786;0.661159300012514;439172.2592206;c;0.38466199999675155;0.3880151999765076;439172.6510781;2.700020559132099e-06;0.49751980003202334;0.5375400999910198;0.5875776000320911;0.6576164999860339;0.7876948000048287;0.9178160000010394;0.01
12;2;18;39;letter357;letter181;letter357;letter181;0;0;incongruent;0.04;letter181;0.09;0.07;fullmask;0.2;arrow_left.png;down;0.5899217000114731;0.5905939000076614;439174.7553376;c;0.40530300000682473;0.408079800021369;439175.1631366;2.700020559132099e-06;0.4941298000048846;0.5341449999832548;0.584180900012143;0.6542122999671847;0.7842947000171989;0.9144046999863349;0.01
12;2;18;40;letter357;letter181;letter357;letter181;0;0;congruent;0.04;letter357;0.09;0.07;fullmask;0.2;arrow_left.png;up;0.7162315999739803;0.7201240999856964;439177.4031998;c;0.32209159998456016;0.32817310001701117;439177.7311231;2.7999631129205227e-06;0.49881189997540787;0.5388239999883808;0.588853899971582;0.658898199966643;0.7889810999622568;0.9190741999773309;0.01
12;2;18;41;letter357;letter181;letter357;letter181;0;0;congruent;0.04;letter181;0.09;0.07;fullmask;0.2;arrow_right.png;down;0.7442012000246905;0.7499208000372164;439180.0030972;m;0.3362626999733038;0.3381188999628648;439180.3470423;3.100023604929447e-06;0.5025965999811888;0.5426160999923013;0.5926311000366695;0.6626698999898508;0.792750500026159;0.9228544000070542;0.01
12;2;18;42;letter357;letter181;letter357;letter181;0;0;incongruent;0.04;letter357;0.09;0.07;fullmask;0.2;arrow_right.png;up;0.582912000012584;0.5903486000024714;439182.4430911;m;0.31062220002058893;0.31820819998392835;439182.7630813;2.800021320581436e-06;0.49644949997309595;0.5364647000096738;0.5865133000188507;0.6565405000001192;0.7866173000074923;0.9167276999796741;0.01
12;2;18;43;letter357;letter181;letter357;letter181;0;0;incongruent;0.04;letter181;0.09;0.07;fullmask;0.2;arrow_left.png;down;0.5671271000173874;0.5703914000187069;439184.859187;c;0.3466402000049129;0.34811880002962425;439185.2110337;2.8999638743698597e-06;0.5014462000108324;0.5414709000033326;0.5915041000116616;0.6615338000119664;0.7916139999870211;0.9217171999625862;0.01
12;2;18;44;letter357;letter181;letter357;letter181;0;0;incongruent;0.04;letter357;0.09;0.07;fullmask;0.2;arrow_right.png;up;0.6375581999891438;0.640210899990052;439187.3711701;m;0.3632735999999568;0.3680686000152491;439187.7390359;2.800021320581436e-06;0.5027876999811269;0.5427972000325099;0.5928412000066601;0.6628914999892004;0.7929655000334606;0.9230559000279754;0.01
12;2;18;45;letter357;letter181;letter357;letter181;0;0;congruent;0.04;letter181;0.09;0.07;fullmask;0.2;arrow_right.png;down;0.4917159000178799;0.49972730001900345;439189.7470873;m;0.3180432000081055;0.3281808000174351;439190.0750742;2.700020559132099e-06;0.4954575999872759;0.5354801000212319;0.5855140999774449;0.6555465999990702;0.7856423999764957;0.9157349999877624;0.01
12;2;18;46;letter357;letter181;letter357;letter181;0;0;congruent;0.04;letter181;0.09;0.07;fullmask;0.2;arrow_right.png;down;0.4605580000206828;0.46967730001779273;439192.0674555;m;0.34858289995463565;0.34914649999700487;439192.4270934;2.700020559132099e-06;0.50350220000837;0.5435170999844559;0.5935429999954067;0.6635897000087425;0.7936760000302456;0.9237769999890588;0.01
12;2;18;47;letter357;letter181;letter357;letter181;0;1;incongruent;0.12;letter357;0.18;0.07;fullmask;0.2;arrow_right.png;up;0.5490607999963686;0.5505911000072956;439194.5872991;m;0.3642270000418648;0.36806270002853125;439194.9550007;2.700020559132099e-06;0.501170200004708;0.6212548000039533;0.6812744000344537;0.7513229000032879;0.8814009000197984;1.011506200011354;0.01
12;2;18;48;letter357;letter181;letter357;letter181;0;0;congruent;0.04;letter181;0.09;0.07;fullmask;0.2;arrow_right.png;down;0.5890480000525713;0.5903429000172764;439197.0591247;m;0.29276380001101643;0.29826110001886263;439197.3551153;2.700020559132099e-06;0.49841770000057295;0.5384340000455268;0.5884715000283904;0.6585093000321649;0.7885868000448681;0.9186960000079125;0.01
12;2;18;49;letter357;letter181;letter357;letter181;0;0;incongruent;0.04;letter181;0.09;0.07;fullmask;0.2;arrow_left.png;down;0.8274344999808818;0.8297024000203237;439199.6991698;c;0.3237776000169106;0.32919760001823306;439200.0271533;2.600019797682762e-06;0.5001518000499345;0.540156000002753;0.5902024999959394;0.6602185000083409;0.7903310999972746;0.9204000000027008;0.01
12;2;18;50;letter357;letter181;letter357;letter181;0;0;incongruent;0.04;letter181;0.09;0.07;fullmask;0.2;arrow_left.png;down;0.7936984999687411;0.7999244999955408;439202.347187;c;0.3356741000316106;0.33814609999535605;439202.6910276;2.700020559132099e-06;0.4974878000211902;0.5375269000069238;0.5875639000441879;0.6575979000190273;0.7876779999933206;0.917793000000529;0.01
12;2;18;51;letter357;letter181;letter357;letter181;0;0;congruent;0.04;letter357;0.09;0.07;fullmask;0.2;arrow_left.png;up;0.5422878000536002;0.5504520999966189;439204.7470989;c;0.35789799998747185;0.35801560000982136;439205.1150937;2.600019797682762e-06;0.5005942999850959;0.5406258999719284;0.5906594999833032;0.6606808999786153;0.7907632000278682;0.9208643999882042;0.01
12;2;18;52;letter357;letter181;letter357;letter181;0;0;congruent;0.04;letter357;0.09;0.07;fullmask;0.2;arrow_left.png;up;0.6388287000008859;0.6403040000004694;439207.275178;c;0.33257700002286583;0.3381773000000976;439207.6111636;2.800021320581436e-06;0.4993597000138834;0.5393636000226252;0.5893959000241011;0.6594505000393838;0.789527100045234;0.9196325000375509;0.01
