subjnr;loop_m;blocknr;trialnr;cue_left_learn;cue_right_learn;option_up;option_down;practice;motivation; congruence;cue_dur;cue;SOA;mask_dur;mask;target_dur;target;response;RT;kb_rt;response_absolute;response_target;RT_target;kb_rt_target;response_absolute_target; fix_onset;cue_onset;cue_offset;mask_onset;mask_offset;target_offset;blank_onset;frame_dur
9;1;9;1;letter190;letter169;letter190;letter169;0;0;congruent;0.04;letter169;0.05;0.07;fullmask;0.2;arrow_right.png;up;2.4936571000143886;2.5011984999873675;278995.7583882;m;1.0718868999974802;1.0801302999607287;278997.038261;2.5999615900218487e-06;0.49717469996539876;0.5372028999845497;0.547204700007569;0.6172432999592274;0.7473152999882586;0.8774153999984264;0.01
9;1;9;2;letter190;letter169;letter190;letter169;0;0;congruent;0.04;letter169;0.05;0.07;fullmask;0.2;arrow_right.png;down;1.7346546999760903;1.741510300023947;279000.2626637;m;2.054913200030569;2.0585540999891236;279002.3262621;2.6999623514711857e-06;0.498758599977009;0.538772500003688;0.5487709000008181;0.6188180999597535;0.7488961999770254;0.8790053999982774;0.01
9;1;9;3;letter190;letter169;letter190;letter169;0;1;incongruent;0.12;letter169;0.14;0.07;fullmask;0.2;arrow_left.png;down;0.6814339999691583;0.6911773000028916;279004.582319;m;0.6842373000108637;0.688212700013537;279005.278231;2.800021320581436e-06;0.497800900018774;0.6178769000107422;0.6378876999951899;0.7079222000320442;0.8380039000185207;0.9680954000214115;0.01
9;1;9;4;letter190;letter169;letter190;letter169;0;0;incongruent;0.04;letter169;0.05;0.07;fullmask;0.2;arrow_left.png;up;1.4456158999819309;1.4511420999770053;279008.1983237;c;0.6339402999728918;0.6402298999601044;279009.0383038;2.800021320581436e-06;0.4968195999972522;0.536831000004895;0.5468265000381507;0.6168820000020787;0.7469429000047967;0.877025900001172;0.01
9;1;9;5;letter190;letter169;letter190;letter169;0;0;congruent;0.04;letter190;0.05;0.07;fullmask;0.2;arrow_left.png;down;1.9689141000271775;1.9717896999791265;279012.4942932;c;0.9016304000397213;0.9105802000267431;279013.598248;2.700020559132099e-06;0.49725720001151785;0.5372853000299074;0.5472765000304207;0.617281400016509;0.7473872000118718;0.8774982999893837;0.01
9;1;9;6;letter190;letter169;letter190;letter169;0;0;congruent;0.04;letter169;0.05;0.07;fullmask;0.2;arrow_right.png;down;3.025783999997657;3.0318167000077665;279018.0943386;m;1.5919307000003755;1.5987767000333406;279019.6942404;2.700020559132099e-06;0.49574520002352074;0.5357479000231251;0.5457412000396289;0.6157940000412054;0.7458640999975614;0.8759563000057824;0.01
9;1;9;7;letter190;letter169;letter190;letter169;0;0;incongruent;0.04;letter190;0.05;0.07;fullmask;0.2;arrow_right.png;down;3.8055819000001065;3.811816399975214;279024.9983259;m;0.8247808000305668;0.8298021000227891;279026.0302736;2.6999623514711857e-06;0.50443259999156;0.5444365000003017;0.554455199977383;0.6244831999647431;0.7545679999748245;0.8846696999971755;0.01
9;1;9;8;letter190;letter169;letter190;letter169;0;0;congruent;0.04;letter190;0.05;0.07;fullmask;0.2;arrow_left.png;up;2.5138931999681517;2.5214411999913864;279030.0306604;m;1.0943730999715626;1.099216099944897;279031.1343947;2.700020559132099e-06;0.4979641999816522;0.5379771000007167;0.5479778000153601;0.6180143000092357;0.748095299990382;0.8781902000191621;0.01
9;1;9;9;letter190;letter169;letter190;letter169;0;0;incongruent;0.04;letter169;0.05;0.07;fullmask;0.2;arrow_left.png;down;3.850401400006376;3.852758700028062;279036.470253;c;1.1957783999969251;1.198942699993495;279037.6703283;2.600019797682762e-06;0.5055232000304386;0.5455527000012808;0.5555446000071242;0.6255917000235058;0.7556625000433996;0.8857690000440925;0.01
9;1;9;10;letter190;letter169;letter190;letter169;0;0;incongruent;0.04;letter190;0.05;0.07;fullmask;0.2;arrow_right.png;up;1.4147367000114173;1.4213338000117801;279040.5585877;c;1.6392195000080392;1.6487237000255845;279042.2062354;2.6999623514711857e-06;0.4975392999476753;0.5375588999595493;0.5475771999917924;0.6175901999813505;0.7477144999429584;0.8777850999613293;0.01
9;1;9;11;letter190;letter169;letter190;letter169;0;0;incongruent;0.04;letter190;0.05;0.07;fullmask;0.2;arrow_right.png;up;1.5070959000149742;1.511016100004781;279045.2143721;m;0.7859942999784835;0.7879539999994449;279046.0062215;2.800021320581436e-06;0.5041534000192769;0.5441738000372425;0.5541649000369944;0.6242054000031203;0.754291600023862;0.8843931000446901;0.01
9;1;9;12;letter190;letter169;letter190;letter169;0;0;incongruent;0.04;letter169;0.05;0.07;fullmask;0.2;arrow_left.png;down;4.9833147000172175;4.983503600000404;279052.4622903;m;0.837751200015191;0.8388080000295304;279053.3022574;2.700020559132099e-06;0.49769270000979304;0.5377014999976382;0.5477135999826714;0.6177443999913521;0.7478303000098094;0.877933599986136;0.01
9;1;9;13;letter190;letter169;letter190;letter169;0;0;congruent;0.04;letter190;0.05;0.07;fullmask;0.2;arrow_left.png;down;2.0278735000174493;2.0306320000090636;279056.8222931;c;0.9886763999820687;0.9903650000342168;279058.0141766;2.700020559132099e-06;0.4999976000399329;0.5400233000400476;0.5500443000346422;0.6200535999960266;0.7501634000218473;0.8802441000007093;0.01
9;1;9;14;letter190;letter169;letter190;letter169;0;0;congruent;0.04;letter169;0.05;0.07;fullmask;0.2;arrow_right.png;up;1.6487489000428468;1.6505083999945782;279061.1263945;m;1.2296838000183925;1.230730700015556;279062.5582806;2.6999623514711857e-06;0.49809289997210726;0.5380929000093602;0.5481091999681666;0.618155799980741;0.7482272000052035;0.8783297999761999;0.01
9;1;9;15;letter190;letter169;letter190;letter169;0;0;congruent;0.04;letter190;0.05;0.07;fullmask;0.2;arrow_left.png;down;1.5005256999866106;1.500920699967537;279065.5503607;m;1.358929000038188;1.3603801000281237;279067.1102099;2.700020559132099e-06;0.5039258999750018;0.5439603999839164;0.5539725000271574;0.6240005000145175;0.7540834000101313;0.8841416999930516;0.01
9;1;9;16;letter190;letter169;letter190;letter169;0;0;congruent;0.04;letter190;0.05;0.07;fullmask;0.2;arrow_left.png;up;1.4855465000146069;1.4910784999956377;279070.0782963;m;1.5205233999877237;1.528965400008019;279071.6062867;2.5999615900218487e-06;0.5035887999692932;0.5435891000088304;0.5536155999870971;0.6236581999692135;0.7537210999871604;0.8838402999681421;0.01
9;1;9;17;letter190;letter169;letter190;letter169;0;0;incongruent;0.04;letter190;0.05;0.07;fullmask;0.2;arrow_right.png;up;3.973860699974466;3.9823617999791168;279077.0702783;m;0.8054407999734394;0.8088889999780804;279077.8861582;2.600019797682762e-06;0.4943443000083789;0.5343299000523984;0.5443469000165351;0.6143693000194617;0.7444613000261597;0.8745740000158548;0.01
9;1;9;18;letter190;letter169;letter190;letter169;0;0;incongruent;0.04;letter169;0.05;0.07;fullmask;0.2;arrow_left.png;up;1.6706135999993421;1.6714092000038363;279081.0302803;c;0.7905376999988221;0.799779299995862;279082.0221944;2.900022082030773e-06;0.495008300000336;0.5350119000067934;0.5450156999868341;0.6150473000016063;0.7451381999999285;0.8752480000257492;0.01
9;1;9;19;letter190;letter169;letter190;letter169;0;0;congruent;0.04;letter190;0.05;0.07;fullmask;0.2;arrow_left.png;up;1.363649400009308;1.3704995999578387;279084.8865617;m;1.0229384999838658;1.0293061999836937;279085.918182;2.6999623514711857e-06;0.5043228999711573;0.544340199965518;0.5543561999802478;0.6243889999459498;0.7544628999894485;0.8845607999828644;0.01
9;1;9;20;letter190;letter169;letter190;letter169;0;0;incongruent;0.04;letter190;0.05;0.07;fullmask;0.2;arrow_right.png;up;2.8485589000047185;2.8514364000293426;279090.2542859;m;0.6830894000013359;0.6882219999679364;279090.9421884;3.00002284348011e-06;0.5029985000146553;0.5430198999820277;0.5530234000179917;0.6230554999783635;0.7531547999824397;0.8832516999682412;0.01
9;1;9;21;letter190;letter169;letter190;letter169;0;0;incongruent;0.04;letter190;0.05;0.07;fullmask;0.2;arrow_right.png;up;1.6758953000535257;1.681527000037022;279094.0944874;m;0.7203898000298068;0.7282095000264235;279094.8223403;2.700020559132099e-06;0.4968990000197664;0.5369043000391684;0.5469184000394307;0.6169498999952339;0.747031600039918;0.8771299000363797;0.01
9;1;9;22;letter190;letter169;letter190;letter169;0;0;incongruent;0.04;letter169;0.05;0.07;fullmask;0.2;arrow_left.png;up;0.8930301999789663;0.9006553000072017;279097.2142851;m;0.7127663000137545;0.7209917000145651;279098.1342205;2.700020559132099e-06;0.5038487000274472;0.5438418000121601;0.5538665999774821;0.6238974999869242;0.7539645999786444;0.884078299975954;0.01
9;1;9;23;letter190;letter169;letter190;letter169;0;0;congruent;0.04;letter169;0.05;0.07;fullmask;0.2;arrow_right.png;up;1.21732019999763;1.2206462000031024;279100.8302208;m;0.5642518999520689;0.570641899947077;279101.5983185;2.700020559132099e-06;0.49983580003026873;0.5398398999823257;0.5498426000121981;0.6198956000152975;0.7499537999974564;0.880064700031653;0.01
9;1;9;24;letter190;letter169;letter190;letter169;0;0;congruent;0.04;letter169;0.05;0.07;fullmask;0.2;arrow_right.png;up;1.083162099996116;1.0911453999578953;279104.1582098;m;0.3755284000071697;0.38000250002369285;279104.7421701;2.700020559132099e-06;0.49897519999649376;0.5389897000277415;0.5490096000139602;0.6190407000249252;0.749112999998033;0.8792239000322297;0.01
9;1;9;25;letter190;letter169;letter190;letter169;0;0;incongruent;0.04;letter169;0.05;0.07;fullmask;0.2;arrow_left.png;up;1.2909442000091076;1.30057239998132;279107.5182776;m;0.5258908999967389;0.5306451999931596;279108.2542377;3.00002284348011e-06;0.4975894999806769;0.5376084999879822;0.5476078999927267;0.6176445999881253;0.7477493000333197;0.8778290000045672;0.01
9;1;9;26;letter190;letter169;letter190;letter169;0;1;incongruent;0.12;letter190;0.14;0.07;fullmask;0.2;arrow_right.png;down;1.2431773000280373;1.2506835000240244;279111.0631272;m;0.7272012000321411;0.7300042000133544;279111.9982351;3.00002284348011e-06;0.5032459000358358;0.6233229000354186;0.6433373999898322;0.7133512999862432;0.8434559000306763;0.9735423999954946;0.01
9;1;9;27;letter190;letter169;letter190;letter169;0;0;congruent;0.04;letter169;0.05;0.07;fullmask;0.2;arrow_right.png;up;2.550159699982032;2.551768400007859;279116.0224286;m;0.4462556999642402;0.45081019995268434;279116.670161;2.700020559132099e-06;0.4964015000150539;0.5364100000006147;0.5464218000415713;0.6164569000247866;0.7465461000101641;0.8766378000145778;0.01
9;1;9;28;letter190;letter169;letter190;letter169;0;0;incongruent;0.04;letter169;0.05;0.07;fullmask;0.2;arrow_left.png;down;1.2732683999929577;1.2807418000302278;279119.4387067;m;0.8141770000220276;0.8188650999800302;279120.2621879;2.6999623514711857e-06;0.5028309999615885;0.542844099982176;0.552849099971354;0.6228859999682754;0.7529806999955326;0.883077799982857;0.01
9;1;9;29;letter190;letter169;letter190;letter169;0;0;incongruent;0.04;letter190;0.05;0.07;fullmask;0.2;arrow_right.png;up;1.7008752999827266;1.7015154999680817;279123.4382573;m;0.533309799968265;0.538606499962043;279123.974146;2.600019797682762e-06;0.4970012999838218;0.5370536000118591;0.547020900005009;0.6170541000319645;0.7471077999798581;0.8772451999830082;0.01
9;1;9;30;letter190;letter169;letter190;letter169;0;0;congruent;0.04;letter169;0.05;0.07;fullmask;0.2;arrow_right.png;up;0.8864777000271715;0.890681900025811;279126.3262478;m;0.6514290000195615;0.6603508000262082;279127.1823236;2.6999623514711857e-06;0.49495959997875616;0.5349734000046737;0.5449807999539189;0.6150315999984741;0.745096399972681;0.8752172999666072;0.01
9;1;9;31;letter190;letter169;letter190;letter169;0;1;congruent;0.12;letter169;0.14;0.07;fullmask;0.2;arrow_right.png;down;0.9700033999979496;0.9704045999678783;279129.7422723;c;0.8534566999878734;0.8587624999927357;279130.5981523;2.700020559132099e-06;0.5034707000013441;0.6235380999860354;0.6435447999974713;0.7135817999951541;0.8436296000145376;0.9738675000262447;0.01
9;1;9;32;letter190;letter169;letter190;letter169;0;0;congruent;0.04;letter190;0.05;0.07;fullmask;0.2;arrow_left.png;up;1.7479156999615952;1.7514093999634497;279133.8222448;c;0.5384910000138916;0.5475873000104912;279134.3661397;2.700020559132099e-06;0.496349899971392;0.5363598000258207;0.546368999988772;0.6163992999936454;0.7464982999954373;0.8765838000108488;0.01
9;1;9;33;letter190;letter169;letter190;letter169;0;0;congruent;0.04;letter169;0.05;0.07;fullmask;0.2;arrow_right.png;up;0.9678487000055611;0.9705057000392117;279136.8143643;m;0.8128492999821901;0.8208574000163935;279137.8303399;2.6999623514711857e-06;0.49917379999533296;0.5391927000018768;0.5492208999930881;0.6192330999765545;0.7493586000055075;0.879421099962201;0.01
9;1;9;34;letter190;letter169;letter190;letter169;0;0;incongruent;0.04;letter190;0.05;0.07;fullmask;0.2;arrow_right.png;up;0.9055669000372291;0.9105810000328347;279140.2142337;m;0.7049477999680676;0.709154199983459;279140.926137;2.7999631129205227e-06;0.4943788999808021;0.5343973999843001;0.5443984000012279;0.6144321999745443;0.7445060999598354;0.874626399949193;0.01
9;1;9;35;letter190;letter169;letter190;letter169;0;0;congruent;0.04;letter190;0.05;0.07;fullmask;0.2;arrow_left.png;up;1.77368209999986;1.7813898000167683;279144.1745215;c;0.46209159999853;0.4687922999728471;279144.6461378;2.900022082030773e-06;0.49791009997716174;0.5379332000156865;0.5479472000151873;0.6179775000200607;0.7480532000190578;0.8781558999908157;0.01
9;1;9;36;letter190;letter169;letter190;letter169;0;0;incongruent;0.04;letter190;0.05;0.07;fullmask;0.2;arrow_right.png;up;0.9847339999978431;0.9903679999988526;279147.1182697;m;0.8883599999826401;0.8885632999590598;279148.0142031;2.6999623514711857e-06;0.5046774999937043;0.5446743000065908;0.5546813999535516;0.6247186999535188;0.7547965999692678;0.8849001000053249;0.01
9;1;9;37;letter190;letter169;letter190;letter169;0;0;congruent;0.04;letter190;0.05;0.07;fullmask;0.2;arrow_left.png;up;1.2644151000422426;1.2705818000249565;279150.7502387;c;0.44788380002137274;0.45787729998119175;279151.2062154;2.700020559132099e-06;0.5009301000391133;0.5409498000517488;0.5509659000090323;0.6210165000520647;0.7510868000099435;0.8811764999991283;0.01
9;1;9;38;letter190;letter169;letter190;letter169;0;0;incongruent;0.04;letter169;0.05;0.07;fullmask;0.2;arrow_left.png;up;0.7188168999855407;0.7201384999789298;279153.4062948;c;0.7421670999610797;0.7510111999581568;279154.3503302;2.6999623514711857e-06;0.4940622999565676;0.5340874999528751;0.5440969999763183;0.6141305000055581;0.7442156999604777;0.8743246999802068;0.01
9;1;9;39;letter190;letter169;letter190;letter169;0;0;incongruent;0.04;letter169;0.05;0.07;fullmask;0.2;arrow_left.png;up;0.8171246999991126;0.8207256000023335;279156.6462268;m;1.0118605999741703;1.0202889000065625;279157.8621324;2.600019797682762e-06;0.49973370000952855;0.5397500999970362;0.5497691000346094;0.6197808000142686;0.749866500031203;0.8799527999944985;0.01
9;1;9;40;letter190;letter169;letter190;letter169;0;0;congruent;0.04;letter169;0.05;0.07;fullmask;0.2;arrow_right.png;up;0.7724886000505649;0.7808412000304088;279160.1742707;m;0.5510341000044718;0.5594493999960832;279160.9341693;2.7999631129205227e-06;0.5041644999873824;0.544202699966263;0.5541919999523088;0.6241978000034578;0.7542986999615096;0.884418600006029;0.01
9;1;9;41;letter190;letter169;letter190;letter169;0;0;congruent;0.04;letter190;0.05;0.07;fullmask;0.2;arrow_left.png;down;1.0405761000001803;1.041141299996525;279163.4542025;m;0.7990169000113383;0.7998782000504434;279164.4542236;2.700020559132099e-06;0.5038417000323534;0.5438688000431284;0.5538485000142828;0.6238841000013053;0.7539669999969192;0.8840762000181712;0.01
9;1;9;42;letter190;letter169;letter190;letter169;0;0;congruent;0.04;letter169;0.05;0.07;fullmask;0.2;arrow_right.png;up;0.7996120000025257;0.7997011999832466;279166.7262128;m;0.575325999991037;0.5804636999964714;279167.5021541;2.700020559132099e-06;0.4967225000145845;0.5367512000375427;0.5467486000270583;0.6167873000376858;0.7470703000435606;0.8769820000161417;0.01
9;1;9;43;letter190;letter169;letter190;letter169;0;0;incongruent;0.04;letter169;0.05;0.07;fullmask;0.2;arrow_left.png;up;1.0356964000384323;1.040146600047592;279170.0141594;m;0.3232451000367291;0.330169000022579;279170.5423513;2.800021320581436e-06;0.4974654999678023;0.5374838999705389;0.547491799981799;0.6175354999722913;0.7476012000115588;0.8777164000202902;0.01
9;1;9;44;letter190;letter169;letter190;letter169;0;1;congruent;0.12;letter190;0.14;0.07;fullmask;0.2;arrow_left.png;up;1.333622900012415;1.3404815000249073;279173.4542181;m;0.5590948000317439;0.5685306999948807;279174.0221097;2.6999623514711857e-06;0.4971799000049941;0.6172606999753043;0.6372629000106826;0.7072832999983802;0.8373916000127792;0.9674795999890193;0.01
9;1;9;45;letter190;letter169;letter190;letter169;0;0;incongruent;0.04;letter190;0.05;0.07;fullmask;0.2;arrow_right.png;up;0.8702843000064604;0.870704900007695;279176.3822704;m;0.4694574000313878;0.47878589999163523;279176.8541102;2.5999615900218487e-06;0.49653329997090623;0.5365611999877729;0.5465579999727197;0.6165827999939211;0.7466803999850526;0.8767777999746613;0.01
9;1;9;46;letter190;letter169;letter190;letter169;0;0;congruent;0.04;letter169;0.05;0.07;fullmask;0.2;arrow_right.png;down;0.9824522999697365;0.9905179999768734;279179.3266557;m;0.589555200014729;0.5983819999964908;279179.9261056;2.5999615900218487e-06;0.49494189996039495;0.534959299955517;0.5449603999732062;0.614996499964036;0.7450885999714956;0.8751901999930851;0.01
9;1;9;47;letter190;letter169;letter190;letter169;0;0;incongruent;0.04;letter190;0.05;0.07;fullmask;0.2;arrow_right.png;down;1.1283945000031963;1.1309929999988526;279182.5341727;m;0.46081210003467277;0.4698070000158623;279183.1981209;2.700020559132099e-06;0.4986889000283554;0.5387183999991976;0.5487010000506416;0.6187567000160925;0.7488524000509642;0.8789357000496238;0.01
9;1;9;48;letter190;letter169;letter190;letter169;0;0;incongruent;0.04;letter169;0.05;0.07;fullmask;0.2;arrow_left.png;up;1.1362538999528624;1.140971799963154;279185.8143928;c;0.6587157000321895;0.6603605000418611;279186.6782299;2.600019797682762e-06;0.502950000052806;0.5429525000508875;0.5529644000343978;0.6230273999972269;0.7530989000224508;0.883193600049708;0.01
9;1;9;49;letter190;letter169;letter190;letter169;0;0;congruent;0.04;letter190;0.05;0.07;fullmask;0.2;arrow_left.png;up;1.2316117000300437;1.2406017000321299;279189.382143;c;0.533034099964425;0.5386122999479994;279189.9261085;2.700020559132099e-06;0.49638309999136254;0.5363992999773473;0.5464037000201643;0.6164481000159867;0.7465317000169307;0.87663449998945;0.01
9;1;9;50;letter190;letter169;letter190;letter169;0;0;incongruent;0.04;letter169;0.05;0.07;fullmask;0.2;arrow_left.png;up;1.3276780999731272;1.3305068999761716;279192.7502131;m;0.8287032999796793;0.8308926000026986;279193.7821878;2.6999623514711857e-06;0.49647519999416545;0.5364703999948688;0.5464752999832854;0.6165168999577872;0.7465992999495938;0.8767020999803208;0.01
9;1;9;51;letter190;letter169;letter190;letter169;0;0;incongruent;0.04;letter190;0.05;0.07;fullmask;0.2;arrow_right.png;up;1.1110081999795511;1.1201654999749735;279196.3665437;m;0.7325628999969922;0.7390855000121519;279197.1100976;2.600019797682762e-06;0.49839250004151836;0.5384148000157438;0.5484122000052594;0.6184502000105567;0.7485221000388265;0.878638000052888;0.01
9;1;9;52;letter190;letter169;letter190;letter169;0;0;congruent;0.04;letter190;0.05;0.07;fullmask;0.2;arrow_left.png;up;1.2729847999871708;1.280548100010492;279199.8702123;c;0.4143775000120513;0.4189314999966882;279200.2940926;2.6999623514711857e-06;0.505763900000602;0.5460557999904267;0.5557928999769501;0.6258188000065275;0.7559207999729551;0.88601119996747;0.01
9;1;10;1;letter190;letter169;letter190;letter169;0;0;congruent;0.04;letter190;0.05;0.07;fullmask;0.2;arrow_left.png;up;1.382776400016155;1.3916631999891251;279210.4465359;m;1.0210087999585085;1.0284054999938235;279211.4782576;2.8999638743698597e-06;0.49686169996857643;0.5368995000026189;0.5468809999874793;0.6169237999711186;0.7470211999607272;0.8771204999648035;0.01
9;1;10;2;letter190;letter169;letter190;letter169;0;0;incongruent;0.04;letter190;0.05;0.07;fullmask;0.2;arrow_right.png;up;0.6901319999597035;0.6910361999762245;279213.6462876;m;0.42898430000059307;0.43793000001460314;279214.0781142;2.6999623514711857e-06;0.49896799999987707;0.5389767999877222;0.5489894999773242;0.6190213999943808;0.7491184999817051;0.8792126000043936;0.01
9;1;10;3;letter190;letter169;letter190;letter169;0;0;incongruent;0.04;letter190;0.05;0.07;fullmask;0.2;arrow_right.png;up;0.9494868999463506;0.9504716999945231;279216.5182205;m;0.42891570000210777;0.4378742999979295;279216.9500659;2.600019797682762e-06;0.5021138999727555;0.5421256999834441;0.5521496000001207;0.6221675000269897;0.7522531999857165;0.8823472000076436;0.01
9;1;10;4;letter190;letter169;letter190;letter169;0;1;congruent;0.12;letter190;0.14;0.07;fullmask;0.2;arrow_left.png;up;0.9557621999992989;0.9605992999859154;279219.4863858;m;0.4251259000157006;0.4280053999973461;279219.9181993;2.700020559132099e-06;0.4966625000233762;0.6167342000408098;0.6367492999997921;0.7067925000446849;0.8368678000406362;0.966972500027623;0.01
9;1;10;5;letter190;letter169;letter190;letter169;0;0;congruent;0.04;letter169;0.05;0.07;fullmask;0.2;arrow_right.png;up;0.8656386000220664;0.8697383999824524;279222.2781023;m;1.4274661999661475;1.4311898999731056;279223.9101094;2.600019797682762e-06;0.49860410002293065;0.5386470000375994;0.5486472999909893;0.6186808000202291;0.7487644000211731;0.8788391000125557;0.01
9;1;10;6;letter190;letter169;letter190;letter169;0;0;incongruent;0.04;letter190;0.05;0.07;fullmask;0.2;arrow_right.png;up;0.5979663000325672;0.6004149000509642;279225.9822511;m;0.38743350002914667;0.3890075000235811;279226.3740701;2.6999623514711857e-06;0.49623970000538975;0.5362583000096492;0.5462379999808036;0.6162930999998935;0.7463903999887407;0.8764991000061855;0.01
9;1;10;7;letter190;letter169;letter190;letter169;0;0;incongruent;0.04;letter169;0.05;0.07;fullmask;0.2;arrow_left.png;up;1.0723046999773942;1.0811309999553487;279228.918252;m;0.5105274000088684;0.5196195999742486;279229.6380576;2.7999631129205227e-06;0.49793779995525256;0.53796299995156;0.5479703999590129;0.6180178999784403;0.7480784999788739;0.8781922999769449;0.01
9;1;10;8;letter190;letter169;letter190;letter169;0;0;incongruent;0.04;letter169;0.05;0.07;fullmask;0.2;arrow_left.png;up;0.7764072000281885;0.7809994000126608;279231.8943413;m;0.4427136000012979;0.4498158000060357;279232.5420653;2.600019797682762e-06;0.5018235000316054;0.5418529000016861;0.5518592000007629;0.6219041000003926;0.7519723000004888;0.8820810000179335;0.01
9;1;10;9;letter190;letter169;letter190;letter169;0;0;incongruent;0.04;letter190;0.05;0.07;fullmask;0.2;arrow_right.png;down;2.1176863000146113;2.1213201000355184;279236.1581845;m;0.8038075999938883;0.8098512000287883;279237.1660702;2.7999631129205227e-06;0.5046329000033438;0.5446544999722391;0.5546640999964438;0.6246911999769509;0.7547771999961697;0.8848878999706358;0.01
9;1;10;10;letter190;letter169;letter190;letter169;0;0;congruent;0.04;letter169;0.05;0.07;fullmask;0.2;arrow_right.png;up;0.7873302000225522;0.7909453000174835;279239.4301921;m;0.5957572000334039;0.6003497000201605;279240.2300725;2.700020559132099e-06;0.49765259999549016;0.5376727000111714;0.5476813999703154;0.6177128999843262;0.7478007000172511;0.877904299995862;0.01
9;1;10;11;letter190;letter169;letter190;letter169;0;0;incongruent;0.04;letter169;0.05;0.07;fullmask;0.2;arrow_left.png;up;1.538575700018555;1.540944300009869;279243.2541588;c;0.35708360001444817;0.3600533999851905;279243.814054;2.800021320581436e-06;0.500976899988018;0.5409959999960847;0.5510033000027761;0.6210352000198327;0.7511280999751762;0.8812156000058167;0.01
9;1;10;12;letter190;letter169;letter190;letter169;0;0;congruent;0.04;letter190;0.05;0.07;fullmask;0.2;arrow_left.png;up;0.5906290999846533;0.6004174000117928;279245.8785382;c;1.1559883000445552;1.1590676000341773;279247.0461445;2.800021320581436e-06;0.4989597999956459;0.5389914999832399;0.5489849000005051;0.6190311000100337;0.7491008000215515;0.8792237000307068;0.01
9;1;10;13;letter190;letter169;letter190;letter169;0;0;congruent;0.04;letter169;0.05;0.07;fullmask;0.2;arrow_right.png;up;0.9942484999774024;1.0003888999926858;279249.5341519;m;0.30531010002596304;0.3101860000169836;279250.0460439;2.6999623514711857e-06;0.503528599976562;0.5435535999713466;0.5535545999882743;0.6235952999559231;0.7536798999644816;0.8837829999974929;0.01
9;1;10;14;letter190;letter169;letter190;letter169;0;0;incongruent;0.04;letter190;0.05;0.07;fullmask;0.2;arrow_right.png;up;2.428409400046803;2.4315255000256;279253.9503456;m;0.819190600013826;0.8290067999623716;279254.7744802;2.700020559132099e-06;0.49930460000177845;0.5393243000144139;0.5493313000188209;0.6193733000545762;0.7494480000459589;0.8795513000222854;0.01
9;1;10;15;letter190;letter169;letter190;letter169;0;0;congruent;0.04;letter169;0.05;0.07;fullmask;0.2;arrow_right.png;up;1.6132552999770269;1.6207077999715693;279257.8781548;m;0.6079021000186913;0.6102891000336967;279258.6940502;2.700020559132099e-06;0.4975086000049487;0.5375561999971978;0.5475415000109933;0.6175652000238188;0.7476680999970995;0.8777558000292629;0.01
9;1;10;16;letter190;letter169;letter190;letter169;0;0;incongruent;0.04;letter169;0.05;0.07;fullmask;0.2;arrow_left.png;up;0.7033441999810748;0.7111250999732874;279260.8704899;c;0.3524273000075482;0.36005600000498816;279261.4300425;2.700020559132099e-06;0.5033090999932028;0.5433036999893375;0.5533064000192098;0.6233443000237457;0.753418900014367;0.8835191000252962;0.01
9;1;10;17;letter190;letter169;letter190;letter169;0;0;incongruent;0.04;letter169;0.05;0.07;fullmask;0.2;arrow_left.png;up;2.2013655999908224;2.211108699964825;279265.110208;c;0.5896422999794595;0.590436199971009;279265.910033;2.600019797682762e-06;0.4976884000352584;0.5377038000151515;0.5477196000283584;0.6177548000123352;0.747836800001096;0.8779369000112638;0.01
9;1;10;18;letter190;letter169;letter190;letter169;0;0;congruent;0.04;letter190;0.05;0.07;fullmask;0.2;arrow_left.png;down;1.3257899999734946;1.3305120000150055;279268.7181291;m;0.9867453999468125;0.9904068999458104;279269.9100304;2.700020559132099e-06;0.5058877000119537;0.5459016000386328;0.5559191000065766;0.6259417000110261;0.7560362000367604;0.8861293000518344;0.01
9;1;10;19;letter190;letter169;letter190;letter169;0;0;congruent;0.04;letter169;0.05;0.07;fullmask;0.2;arrow_right.png;up;0.9813859999994747;0.9903691000072286;279272.3660855;m;0.33448499999940395;0.3401045000064187;279272.9099958;2.6999623514711857e-06;0.4971337000024505;0.5371553999721073;0.5471441999543458;0.6171775999828242;0.7472763999830931;0.8773787999525666;0.01
9;1;10;20;letter190;letter169;letter190;letter169;0;0;congruent;0.04;letter169;0.05;0.07;fullmask;0.2;arrow_right.png;up;0.6436375000048429;0.6501863999874331;279275.0301223;m;0.22495139995589852;0.23040030000265688;279275.4620654;2.7999631129205227e-06;0.4985992999863811;0.5386076999711804;0.5486203999607824;0.6186545999953523;0.7487277999753132;0.8788301000022329;0.01
9;1;10;21;letter190;letter169;letter190;letter169;0;0;incongruent;0.04;letter169;0.05;0.07;fullmask;0.2;arrow_left.png;up;3.5703966000000946;3.5724638999672607;279280.5180646;c;0.613450400007423;0.6203573000384495;279281.3340245;2.7999631129205227e-06;0.5021061999723315;0.5421071999589913;0.5521276999497786;0.6221500999527052;0.7522385999909602;0.8823495999677107;0.01
9;1;10;22;letter190;letter169;letter190;letter169;0;0;congruent;0.04;letter190;0.05;0.07;fullmask;0.2;arrow_left.png;up;1.9861325000529177;1.9915949000278488;279284.7982007;m;1.0645250000525266;1.0682469000457786;279285.8701261;2.6999623514711857e-06;0.4990356999915093;0.5390406999504194;0.549051399983;0.6191072999499738;0.749163199972827;0.8792611999670044;0.01
9;1;10;23;letter190;letter169;letter190;letter169;0;0;congruent;0.04;letter190;0.05;0.07;fullmask;0.2;arrow_left.png;up;1.309208899969235;1.3105578999966383;279288.6541762;c;0.6365621000295505;0.6383456999901682;279289.2940265;2.600019797682762e-06;0.4985014999983832;0.5384949000435881;0.5485213000210933;0.6185636000009254;0.7486335000139661;0.8787212999886833;0.01
9;1;10;24;letter190;letter169;letter190;letter169;0;0;incongruent;0.04;letter190;0.05;0.07;fullmask;0.2;arrow_right.png;up;1.3570179999805987;1.361379100009799;279292.1340873;m;0.43366370000876486;0.4378836000105366;279292.5740494;2.700020559132099e-06;0.4946903999662027;0.5347043999936432;0.5447339999955148;0.6147510000155307;0.7448467999929562;0.8749376999912784;0.01
9;1;10;25;letter190;letter169;letter190;letter169;0;1;incongruent;0.12;letter190;0.14;0.07;fullmask;0.2;arrow_right.png;down;1.812941399984993;1.82118399994215;279295.9420502;m;0.7672793000238016;0.7699577999883331;279296.9180184;2.800021320581436e-06;0.49461520003387704;0.6147014000453055;0.6347112000221387;0.7047336000250652;0.8348141000024043;0.9649270999943838;0.01
9;1;10;26;letter190;letter169;letter190;letter169;0;0;congruent;0.04;letter169;0.05;0.07;fullmask;0.2;arrow_right.png;down;1.7504759000148624;1.751333300024271;279300.1421147;m;0.5491285000462085;0.5585295000346377;279300.6940464;2.600019797682762e-06;0.49610970000503585;0.536134599999059;0.5461407999973744;0.6161620999919251;0.7462529999902472;0.876361700007692;0.01
9;1;10;27;letter190;letter169;letter190;letter169;0;0;congruent;0.04;letter190;0.05;0.07;fullmask;0.2;arrow_left.png;up;1.0202523000189103;1.0211936000268906;279303.2142095;c;0.5009872000082396;0.5086910999962129;279303.718077;2.800021320581436e-06;0.4994512000121176;0.5394533000071533;0.5494623000267893;0.6195003000320867;0.7495907000266016;0.8796823000302538;0.01
9;1;10;28;letter190;letter169;letter190;letter169;0;0;congruent;0.04;letter190;0.05;0.07;fullmask;0.2;arrow_left.png;up;1.6254874999867752;1.6306530999718234;279306.8221095;c;0.3687876000185497;0.3780112999957055;279307.198005;2.700020559132099e-06;0.498170500039123;0.5381970000453293;0.5481958000455052;0.6182563000475056;0.7483158000395633;0.8784361000289209;0.01
9;1;10;29;letter190;letter169;letter190;letter169;0;0;incongruent;0.04;letter169;0.05;0.07;fullmask;0.2;arrow_left.png;up;1.1500755000161007;1.1510582999908365;279309.8383091;c;0.3263906000065617;0.33012639998923987;279310.3660117;2.7999631129205227e-06;0.5031403999892063;0.5431429999880493;0.553160699957516;0.6231863999855705;0.7533042999566533;0.8833718999521807;0.01
9;1;10;30;letter190;letter169;letter190;letter169;0;0;incongruent;0.04;letter190;0.05;0.07;fullmask;0.2;arrow_right.png;up;1.737055900041014;1.7404106000321917;279313.5980802;m;0.5786291999975219;0.5884763000067323;279314.1820079;2.6999623514711857e-06;0.5040816999971867;0.5440850000013597;0.5540999000077136;0.6241304000141099;0.7542256999877281;0.884317199990619;0.01
9;1;10;31;letter190;letter169;letter190;letter169;0;0;congruent;0.04;letter190;0.05;0.07;fullmask;0.2;arrow_left.png;up;1.2170149000012316;1.2207675999961793;279316.8702742;m;0.7142006999929436;0.7192310999962501;279317.5900566;2.5999615900218487e-06;0.49702179996529594;0.5370320999645628;0.5470357000012882;0.6170635999878868;0.7471595999668352;0.8772613999899477;0.01
9;1;10;32;letter190;letter169;letter190;letter169;0;0;incongruent;0.04;letter169;0.05;0.07;fullmask;0.2;arrow_left.png;up;2.2504186000442132;2.2510401000035927;279321.3260944;m;0.8468338000238873;0.8507396000204608;279322.3739988;2.6999623514711857e-06;0.4966279999935068;0.5366463999962434;0.5466457000002265;0.6166832000017166;0.7467707999749109;0.8768736000056379;0.01
9;1;10;33;letter190;letter169;letter190;letter169;0;0;congruent;0.04;letter190;0.05;0.07;fullmask;0.2;arrow_left.png;up;1.0095378999831155;1.0104627999826334;279324.8782767;c;0.7492332000401802;0.759127700002864;279325.6302626;2.700020559132099e-06;0.5052761000115424;0.545315399998799;0.5552949000266381;0.6253373000072315;0.7554197999997996;0.8855189000023529;0.01
9;1;10;34;letter190;letter169;letter190;letter169;0;0;congruent;0.04;letter169;0.05;0.07;fullmask;0.2;arrow_right.png;up;2.1811251000035554;2.1913466000114568;279329.3020891;m;0.6942309000296518;0.7011494000325911;279330.2059845;2.700020559132099e-06;0.5034983999794349;0.5434974000090733;0.5535080999834463;0.6235339000122622;0.7536084000021219;0.8837369999964722;0.01
9;1;10;35;letter190;letter169;letter190;letter169;0;1;congruent;0.12;letter169;0.14;0.07;fullmask;0.2;arrow_right.png;down;1.0186348999850452;1.0212079999619164;279332.7822446;m;0.6594090000144206;0.6683847999665886;279333.4461258;2.7999631129205227e-06;0.4975088000064716;0.6175741999759339;0.6375768999569118;0.7076147999614477;0.8376936999848112;0.9677953000064008;0.01
9;1;10;36;letter190;letter169;letter190;letter169;0;0;congruent;0.04;letter169;0.05;0.07;fullmask;0.2;arrow_right.png;down;2.960001799976453;2.9611425999901257;279337.8861514;m;0.8207592000253499;0.8288416999857873;279338.7099842;2.700020559132099e-06;0.49991150002460927;0.5399416000000201;0.5499398999963887;0.6199878000188619;0.7500568000250496;0.8801512999925762;0.01
9;1;10;37;letter190;letter169;letter190;letter169;0;0;congruent;0.04;letter169;0.05;0.07;fullmask;0.2;arrow_right.png;down;0.7565563999814913;0.760030800011009;279340.9661123;m;0.7384586000116542;0.7481924999738112;279341.7099845;2.6999623514711857e-06;0.5022842999896966;0.5422956999973394;0.5523082999861799;0.6223293999792077;0.7524143999908119;0.8825298000010662;0.01
9;1;10;38;letter190;letter169;letter190;letter169;0;0;congruent;0.04;letter190;0.05;0.07;fullmask;0.2;arrow_left.png;up;1.2868690000032075;1.2907135999994352;279344.4782577;c;0.513989600003697;0.5186621999600902;279344.9979307;2.7999631129205227e-06;0.4993455999647267;0.5393627999583259;0.5493680000072345;0.6194211000110954;0.7494798999978229;0.8795930999913253;0.01
9;1;10;39;letter190;letter169;letter190;letter169;0;0;incongruent;0.04;letter190;0.05;0.07;fullmask;0.2;arrow_right.png;down;1.4453263999894261;1.451041600026656;279347.9180747;m;0.6418797000078484;0.6502790000522509;279348.7661115;3.1999661587178707e-06;0.4985707000014372;0.5385882999980822;0.5485862999921665;0.6186251000035554;0.7487213999847881;0.878805199987255;0.01
9;1;10;40;letter190;letter169;letter190;letter169;0;0;incongruent;0.04;letter190;0.05;0.07;fullmask;0.2;arrow_right.png;up;0.7861625999794342;0.7898074999684468;279351.0220673;m;0.6745831000152975;0.6793353999964893;279351.7022341;2.700020559132099e-06;0.49751750001451;0.5375418000039645;0.5475491000106558;0.6175725000211969;0.7476596999913454;0.8777534000109881;0.01
9;1;10;41;letter190;letter169;letter190;letter169;0;0;congruent;0.04;letter169;0.05;0.07;fullmask;0.2;arrow_right.png;up;1.2363505000248551;1.2407489999895915;279354.4141254;m;0.6590467999922112;0.6602535999845713;279355.2780095;2.600019797682762e-06;0.49705780000658706;0.537086000025738;0.5470907000126317;0.6171181999961846;0.7472264000098221;0.877312200027518;0.01
9;1;10;42;letter190;letter169;letter190;letter169;0;0;incongruent;0.04;letter190;0.05;0.07;fullmask;0.2;arrow_right.png;up;0.807846800016705;0.8098960000206716;279357.5580886;m;0.587953699985519;0.5884837000048719;279358.150027;2.800021320581436e-06;0.5004817000008188;0.540508400008548;0.5505069000064395;0.620544700010214;0.7506398999830708;0.8807427000137977;0.01
9;1;10;43;letter190;letter169;letter190;letter169;0;0;incongruent;0.04;letter190;0.05;0.07;fullmask;0.2;arrow_right.png;up;1.0480427000438794;1.0499188000103459;279360.670219;m;0.5081179999979213;0.5086981999920681;279361.1820429;2.700020559132099e-06;0.497340300003998;0.5373652999987826;0.5473599000251852;0.6174441000330262;0.7474907000432722;0.8775889000389725;0.01
9;1;10;44;letter190;letter169;letter190;letter169;0;0;incongruent;0.04;letter169;0.05;0.07;fullmask;0.2;arrow_left.png;up;2.506744800019078;2.5122049000347033;279365.1499753;c;0.546076099970378;0.5495474999770522;279365.9019529;2.700020559132099e-06;0.4942408999777399;0.5342703000060283;0.544287099968642;0.6143007999635302;0.7444131000083871;0.8744941999902949;0.01
9;1;10;45;letter190;letter169;letter190;letter169;0;0;incongruent;0.04;letter169;0.05;0.07;fullmask;0.2;arrow_left.png;up;0.8933886999730021;0.9006455999915488;279368.2703457;c;0.6240465000155382;0.630342299991753;279369.1020546;2.600019797682762e-06;0.49758820002898574;0.537613800028339;0.5476131000323221;0.6176532999961637;0.7477284999913536;0.8778309000190347;0.01
9;1;10;46;letter190;letter169;letter190;letter169;0;0;incongruent;0.04;letter190;0.05;0.07;fullmask;0.2;arrow_right.png;up;1.2428730999818072;1.250721699965652;279371.8219948;m;0.5021579000167549;0.5076932000229135;279372.3339366;2.600019797682762e-06;0.4982855000416748;0.5383135000010952;0.548324000032153;0.6183478999882936;0.7484083999879658;0.8785388999967836;0.01
9;1;10;47;letter190;letter169;letter190;letter169;0;0;incongruent;0.04;letter169;0.05;0.07;fullmask;0.2;arrow_left.png;up;0.9739155999850482;0.9814243000000715;279374.7743687;m;0.408868899976369;0.4110131000052206;279375.3900667;2.7999631129205227e-06;0.49699229997349903;0.5370101999724284;0.5470019999775104;0.6170259999926202;0.7471250999951735;0.8772126999683678;0.01
9;1;10;48;letter190;letter169;letter190;letter169;0;0;congruent;0.04;letter190;0.05;0.07;fullmask;0.2;arrow_left.png;up;0.7753696999861859;0.7809791999752633;279377.6380567;m;0.6325259999721311;0.6386948999715969;279378.2781307;2.4999608285725117e-06;0.4971723999478854;0.5372001999639906;0.5472142999642529;0.6172377999755554;0.7473183999536559;0.8774199999752454;0.01
9;1;10;49;letter190;letter169;letter190;letter169;0;0;congruent;0.04;letter169;0.05;0.07;fullmask;0.2;arrow_right.png;down;1.8997638000291772;1.9018369000405073;279381.6540877;m;0.6838445999892429;0.6882171999895945;279382.3419396;2.600019797682762e-06;0.4976036000298336;0.5376193000120111;0.5476213000365533;0.6176532999961637;0.7477483000257052;0.8778461000183597;0.01
9;1;10;50;letter190;letter169;letter190;letter169;0;0;congruent;0.04;letter190;0.05;0.07;fullmask;0.2;arrow_left.png;down;0.884306900028605;0.8896841999958269;279384.702071;m;0.7221331999753602;0.7310593000147492;279385.6301278;2.600019797682762e-06;0.49685759999556467;0.5368890999816358;0.5468866999726743;0.6169177999836393;0.7470136000192724;0.8771002999856137;0.01
9;1;10;51;letter190;letter169;letter190;letter169;0;0;incongruent;0.04;letter169;0.05;0.07;fullmask;0.2;arrow_left.png;up;0.5683620999916457;0.5705370999639854;279387.6780234;m;0.6863038000301458;0.6911655000294559;279388.5659499;4.699977580457926e-06;0.49880930001381785;0.5388375999755226;0.5488380999886431;0.6188699000049382;0.7489602999994531;0.8790548999677412;0.01
9;1;10;52;letter190;letter169;letter190;letter169;0;1;incongruent;0.12;letter169;0.14;0.07;fullmask;0.2;arrow_left.png;down;0.5945246000192128;0.6004148000502028;279390.7260492;m;1.2480922000249848;1.2487055999808945;279391.9819773;2.600019797682762e-06;0.4962587000336498;0.6163374000461772;0.6363569000386633;0.7063870000420138;0.8364551000413485;0.966574500023853;0.01
9;2;17;1;letter181;letter357;letter357;letter181;0;1;incongruent;0.12;letter181;0.18;0.07;fullmask;0.2;arrow_right.png;up;1.395303800003603;1.4012853000313044;280173.6534495;m;0.6024118000059389;0.6103860000148416;280174.4612886;2.700020559132099e-06;0.49695630004862323;0.6170206000097096;0.6770663000061177;0.7470870000543073;0.8771850000484847;1.0072738000308163;0.01
9;2;17;2;letter181;letter357;letter357;letter181;0;0;congruent;0.04;letter357;0.09;0.07;fullmask;0.2;arrow_right.png;up;0.6626594999688677;0.6703402999555692;280176.6536565;m;4.462106199993286;4.4710612000199035;280181.1252905;2.800021320581436e-06;0.5027609000098892;0.5427911999868229;0.5928160999901593;0.6628583000274375;0.79292279999936;0.9230482999701053;0.01
9;2;17;3;letter181;letter357;letter357;letter181;0;0;congruent;0.04;letter357;0.09;0.07;fullmask;0.2;arrow_right.png;up;1.7050233000190929;1.7114599000196904;280184.3494941;m;1.030510200012941;1.0382843000115827;280185.3892549;2.600019797682762e-06;0.4975480000139214;0.5375946999993175;0.5876134000136517;0.6576363000203855;0.78773150005145;0.9178371000452898;0.01
9;2;17;4;letter181;letter357;letter357;letter181;0;0;congruent;0.04;letter181;0.09;0.07;fullmask;0.2;arrow_left.png;up;1.479916599986609;1.4810530999675393;280188.3973754;m;0.6863308000029065;0.6901707999641076;280189.2852883;2.600019797682762e-06;0.5021789000020362;0.542183900019154;0.5922150000114925;0.6622606000164524;0.792345000023488;0.9224578000139445;0.01
9;2;17;5;letter181;letter357;letter357;letter181;0;0;congruent;0.04;letter181;0.09;0.07;fullmask;0.2;arrow_left.png;down;0.6571575999842025;0.6603989999857731;280191.4776033;m;0.7946723999921232;0.7989969000336714;280192.2773713;2.700020559132099e-06;0.5011714000138454;0.541210499999579;0.5912154000252485;0.6612699999823235;0.7913394999923185;0.9214375999872573;0.01
9;2;17;6;letter181;letter357;letter357;letter181;0;0;incongruent;0.04;letter357;0.09;0.07;fullmask;0.2;arrow_left.png;up;1.3146753999753855;1.3204881999990903;280195.1173158;c;0.40822869999101385;0.41795179998734966;280195.5333111;2.700020559132099e-06;0.4949997999938205;0.5350137000204995;0.5850672000087798;0.6550789999892004;0.7851790999993682;0.9152675999794155;0.01
9;2;17;7;letter181;letter357;letter357;letter181;0;0;congruent;0.04;letter181;0.09;0.07;fullmask;0.2;arrow_left.png;down;0.9112270000041462;0.9204643999692053;280197.965312;c;0.2047939999611117;0.20848909998312593;280198.1812837;2.6999623514711857e-06;0.4992291999515146;0.5392515999847092;0.5892803999595344;0.659322899999097;0.7893815999850631;0.9194968999945559;0.01
9;2;17;8;letter181;letter357;letter357;letter181;0;0;congruent;0.04;letter357;0.09;0.07;fullmask;0.2;arrow_right.png;up;1.2521689999848604;1.2617957000038587;280200.9577044;m;0.5804232999798842;0.5885050999931991;280201.5495819;2.7999631129205227e-06;0.5027810999890789;0.5427854000008665;0.5928240999928676;0.6628762999898754;0.7929637000197545;0.9230717999744229;0.01
9;2;17;9;letter181;letter357;letter357;letter181;0;0;incongruent;0.04;letter181;0.09;0.07;fullmask;0.2;arrow_right.png;down;0.7653723999974318;0.7710009999573231;280203.8533005;m;0.21652360004372895;0.21853650000412017;280204.0773945;2.5999615900218487e-06;0.5036228999961168;0.5436527999700047;0.593671299982816;0.6636984999640845;0.7937811999581754;0.9238866000087;0.01
9;2;17;10;letter181;letter357;letter357;letter181;0;0;incongruent;0.04;letter181;0.09;0.07;fullmask;0.2;arrow_right.png;down;1.09559869999066;1.101178000040818;280206.6854481;m;0.33632169995689765;0.33813829999417067;280207.0292983;2.800021320581436e-06;0.5008849000441842;0.5409100000397302;0.5909383000107482;0.6609728000476025;0.7910524000180885;0.9211462000384927;0.01
9;2;17;11;letter181;letter357;letter357;letter181;0;0;incongruent;0.04;letter357;0.09;0.07;fullmask;0.2;arrow_left.png;up;0.6157788000418805;0.6204455000115559;280209.1575528;m;0.5293906000442803;0.5387155000353232;280209.693428;2.700020559132099e-06;0.4970663000131026;0.5370944000314921;0.5871244000154547;0.65716830000747;0.7872316000284627;0.9173308000317775;0.01
9;2;17;12;letter181;letter357;letter357;letter181;0;0;incongruent;0.04;letter357;0.09;0.07;fullmask;0.2;arrow_left.png;up;0.6698203000123613;0.6701113000162877;280211.8934298;m;0.30943939997814596;0.3182044999557547;280212.2052124;2.800021320581436e-06;0.5036069999914616;0.5436113000032492;0.5936512000043876;0.6636846999754198;0.7937783999950625;0.9238633000059053;0.01
9;2;17;13;letter181;letter357;letter357;letter181;0;0;incongruent;0.04;letter181;0.09;0.07;fullmask;0.2;arrow_right.png;down;4.048615899984725;4.053321199957281;280217.7735686;m;0.6813498999690637;0.6883174999966286;280218.4614547;2.700020559132099e-06;0.49946190003538504;0.5395028000348248;0.589525000017602;0.6595600000000559;0.7896526000113226;0.9197495999978855;0.01
9;2;17;14;letter181;letter357;letter357;letter181;0;0;congruent;0.04;letter357;0.09;0.07;fullmask;0.2;arrow_right.png;up;1.3604525999980979;1.361353299987968;280221.3493173;m;0.3730968000018038;0.3780471999780275;280221.7252484;2.6999623514711857e-06;0.5033299999777228;0.5433995999628678;0.5933910000021569;0.6634268999914639;0.7934968000045046;0.923615499981679;0.01
9;2;17;15;letter181;letter357;letter357;letter181;0;0;congruent;0.04;letter181;0.09;0.07;fullmask;0.2;arrow_left.png;down;0.7237052999553271;0.7300618999870494;280223.9653911;m;0.20761510002193972;0.2084980999934487;280224.1812958;2.700020559132099e-06;0.49595539999427274;0.5359759000129998;0.5860078000114299;0.65603579999879;0.7861335999914445;0.9162261000019498;0.01
9;2;17;16;letter181;letter357;letter357;letter181;0;0;congruent;0.04;letter357;0.09;0.07;fullmask;0.2;arrow_right.png;down;0.8627744999830611;0.8707368000177667;280226.5653254;m;0.24765420000767335;0.2503931999672204;280227.0213832;2.800021320581436e-06;0.49807839997811243;0.5380965999793261;0.5881345000234433;0.6581865000189282;0.7882659999886528;0.918342599994503;0.01
9;2;17;17;letter181;letter357;letter357;letter181;0;0;incongruent;0.04;letter357;0.09;0.07;fullmask;0.2;arrow_left.png;up;1.0180448000319302;1.0201968000037596;280229.5732969;c;0.26788780000060797;0.2682537999935448;280229.8452776;2.600019797682762e-06;0.5057123000151478;0.5457431999966502;0.5957783000194468;0.6658104000380263;0.7958924000267871;0.9259867999935523;0.01
9;2;17;18;letter181;letter357;letter357;letter181;0;0;congruent;0.04;letter181;0.09;0.07;fullmask;0.2;arrow_left.png;down;1.0387095999903977;1.040142600017134;280232.4052848;c;0.26057179999770597;0.2683299999916926;280232.6692314;2.7999631129205227e-06;0.5054046000004746;0.5454443999915384;0.5954744999762625;0.6655154000036418;0.7955891999881715;0.9256773999659345;0.01
9;2;17;19;letter181;letter357;letter357;letter181;0;0;congruent;0.04;letter357;0.09;0.07;fullmask;0.2;arrow_right.png;up;0.8007725999923423;0.8098520999774337;280234.9893284;m;0.21297639998374507;0.218329299998004;280235.2133287;2.700020559132099e-06;0.49620420002611354;0.5362307000323199;0.5862385000218637;0.6562755000195466;0.7863539000391029;0.9164783000014722;0.01
9;2;17;20;letter181;letter357;letter357;letter181;0;0;incongruent;0.04;letter357;0.09;0.07;fullmask;0.2;arrow_left.png;down;1.1153288000496104;1.1211307000485249;280237.8455499;c;0.26649969996651635;0.270218699995894;280238.3172677;2.800021320581436e-06;0.4969285000115633;0.5369464000104927;0.5869812000310048;0.6570096000214107;0.7870874000363983;0.9171866000397131;0.01
9;2;17;21;letter181;letter357;letter357;letter181;0;0;incongruent;0.04;letter181;0.09;0.07;fullmask;0.2;arrow_right.png;up;0.8389586000121199;0.8398176999762654;280240.7012865;m;0.29468059999635443;0.3002172000124119;280241.1972673;2.700020559132099e-06;0.5009992999839596;0.5410196000011638;0.5910590999992564;0.661077499971725;0.7911937999888323;0.9212645000079647;0.01
9;2;17;22;letter181;letter357;letter357;letter181;0;0;incongruent;0.04;letter181;0.09;0.07;fullmask;0.2;arrow_right.png;down;0.46794439997756854;0.470805199991446;280243.1812745;m;0.3471531000104733;0.3481343000312336;280243.5332201;2.6999623514711857e-06;0.4965412999736145;0.536564499954693;0.5865971999592148;0.6566320999991149;0.7867188999662176;0.9167684999993071;0.01
9;2;17;23;letter181;letter357;letter357;letter181;0;0;congruent;0.04;letter181;0.09;0.07;fullmask;0.2;arrow_left.png;down;0.808039000025019;0.8109980000299402;280245.8535216;c;0.26712019997648895;0.26843759999610484;280246.1254324;2.600019797682762e-06;0.4967093999730423;0.5367227999959141;0.586753299983684;0.6567888999707066;0.7868715000222437;0.9169754000031389;0.01
9;2;17;24;letter181;letter357;letter357;letter181;0;1;congruent;0.12;letter357;0.18;0.07;fullmask;0.2;arrow_right.png;up;1.0784398000105284;1.0811712000286207;280248.8053525;m;0.3792086000321433;0.3880145000293851;280249.1892314;2.800021320581436e-06;0.5027660999912769;0.6228347000433132;0.682879000029061;0.7529221000149846;0.8829893000074662;1.0131045000161976;0.01
9;2;17;25;letter181;letter357;letter357;letter181;0;0;incongruent;0.04;letter181;0.09;0.07;fullmask;0.2;arrow_right.png;down;1.3341888000140898;1.3415488000027835;280252.0532344;m;0.3590789999580011;0.36817199998768046;280252.4215052;2.6999623514711857e-06;0.5011895999778062;0.5412034000037238;0.5912380999652669;0.6612719999975525;0.7913520999718457;0.921460899990052;0.01
9;2;17;26;letter181;letter357;letter357;letter181;0;0;incongruent;0.04;letter357;0.09;0.07;fullmask;0.2;arrow_left.png;up;1.5740264000487514;1.58083810005337;280255.5253437;c;0.39112590003060177;0.3979858999955468;280255.9252186;2.700020559132099e-06;0.4968034000485204;0.536821800051257;0.5868594000348821;0.6568998000002466;0.7869841000065207;0.9170753000071272;0.01
9;2;17;27;letter181;letter357;letter357;letter181;0;0;incongruent;0.04;letter181;0.09;0.07;fullmask;0.2;arrow_right.png;down;0.6262556000147015;0.6303789999801666;280258.0692602;m;0.24190470000030473;0.24839540000539273;280258.3172188;2.600019797682762e-06;0.5013938000192866;0.5414182000095025;0.5914325999910943;0.6614659000188112;0.7915391999995336;0.9216372999944724;0.01
9;2;17;28;letter181;letter357;letter357;letter181;0;0;congruent;0.04;letter181;0.09;0.07;fullmask;0.2;arrow_left.png;down;0.834881899994798;0.8408165000146255;280260.6693595;c;0.24803519999841228;0.24830769997788593;280260.9252613;2.800021320581436e-06;0.4993934000376612;0.5393843000056222;0.5894079999998212;0.6594627000158653;0.78951940004481;0.9196254000416957;0.01
9;2;17;29;letter181;letter357;letter357;letter181;0;0;incongruent;0.04;letter181;0.09;0.07;fullmask;0.2;arrow_right.png;down;0.6773623999906704;0.6813438999815844;280263.1335306;m;0.22603149997303262;0.22846949996892363;280263.3653747;2.800021320581436e-06;0.4982124000089243;0.5382316000177525;0.588269500003662;0.6583054999937303;0.7883920000167564;0.918469600030221;0.01
9;2;17;30;letter181;letter357;letter357;letter181;0;0;congruent;0.04;letter357;0.09;0.07;fullmask;0.2;arrow_right.png;up;0.7976639000116847;0.8007694000261836;280265.6854513;m;0.3226019999710843;0.3281726000132039;280266.0131987;2.800021320581436e-06;0.5044786999933422;0.5445099999778904;0.5945372999995016;0.6645764000131749;0.7946640999871306;0.9247734000091441;0.01
9;2;17;31;letter181;letter357;letter357;letter181;0;0;incongruent;0.04;letter357;0.09;0.07;fullmask;0.2;arrow_left.png;up;0.7848945999867283;0.7898171999840997;280268.3252892;c;0.43313310004305094;0.43889700004365295;280268.7652756;2.900022082030773e-06;0.5050828999956138;0.5451009999960661;0.5951507000136189;0.6651647000107914;0.795248200010974;0.9253509999834932;0.01
9;2;17;32;letter181;letter357;letter357;letter181;0;0;congruent;0.04;letter181;0.09;0.07;fullmask;0.2;arrow_left.png;down;0.649317900009919;0.6503126000170596;280270.941634;c;0.22073390003060922;0.227432299987413;280271.1651958;2.6999623514711857e-06;0.49620149994734675;0.5362202999531291;0.5862594999489374;0.656297099951189;0.7863839999772608;0.916470099997241;0.01
9;2;17;33;letter181;letter357;letter357;letter181;0;0;congruent;0.04;letter357;0.09;0.07;fullmask;0.2;arrow_right.png;up;0.8661185000091791;0.8705925999674946;280273.549294;m;0.3054894999950193;0.30822280002757907;280273.8611994;2.7999631129205227e-06;0.4989050999865867;0.5389185000094585;0.5889527999679558;0.658986399997957;0.789077699999325;0.9191824999870732;0.01
9;2;17;34;letter181;letter357;letter357;letter181;0;0;incongruent;0.04;letter357;0.09;0.07;fullmask;0.2;arrow_left.png;up;0.49277499999152496;0.5007254999945872;280275.877336;c;0.2619461999856867;0.26833930000429973;280276.1491638;2.6999623514711857e-06;0.5016513000009581;0.5416275999741629;0.5917106000124477;0.6617624000064097;0.7918279999867082;0.921918599982746;0.01
9;2;17;35;letter181;letter357;letter357;letter181;0;0;incongruent;0.04;letter357;0.09;0.07;fullmask;0.2;arrow_left.png;down;1.0649623000063002;1.0713047999888659;280278.7413497;c;0.002154999994672835;0.009985100012272596;280278.949192;2.700020559132099e-06;0.49932170001557097;0.5393398000160232;0.5893733000266366;0.659399600001052;0.7894934000214562;0.9195916000171565;0.01
9;2;17;36;letter181;letter357;letter357;letter181;0;1;incongruent;0.12;letter357;0.18;0.07;fullmask;0.2;arrow_left.png;up;0.6288339999737218;0.630380199989304;280281.1974068;c;0.24430259998189285;0.24838359997374937;280281.4451959;2.5999615900218487e-06;0.5045943000004627;0.6246647999505512;0.6847079999861307;0.7547458999906667;0.8848124999785796;1.0149083999567665;0.01
9;2;17;37;letter181;letter357;letter357;letter181;0;0;congruent;0.04;letter181;0.09;0.07;fullmask;0.2;arrow_left.png;down;0.8832192000118084;0.890812800033018;280283.85358;c;0.23821380001027137;0.24739360000239685;280284.1011888;2.5999615900218487e-06;0.5056431000120938;0.5456728999852203;0.5957042999798432;0.6657586999936029;0.7958276999997906;0.9259342000004835;0.01
9;2;17;38;letter181;letter357;letter357;letter181;0;0;incongruent;0.04;letter181;0.09;0.07;fullmask;0.2;arrow_right.png;down;0.8719047000049613;0.8805667000124231;280286.4933578;m;0.26923650002572685;0.27830659999744967;280286.7731965;2.6999623514711857e-06;0.49578210001345724;0.5358313000178896;0.5858441999880597;0.655877600016538;0.7859597000060603;0.9160608999663964;0.01
9;2;17;39;letter181;letter357;letter357;letter181;0;0;congruent;0.04;letter357;0.09;0.07;fullmask;0.2;arrow_right.png;up;0.533905100019183;0.5405720000271685;280288.8372359;m;0.19932780001545325;0.2084923000074923;280289.0451711;3.00002284348011e-06;0.5038580999826081;0.543882499972824;0.5939119000104256;0.6639691999880597;0.7940413000178523;0.9241376999998465;0.01
9;2;17;40;letter181;letter357;letter357;letter181;0;0;incongruent;0.04;letter357;0.09;0.07;fullmask;0.2;arrow_left.png;down;0.9127022000029683;0.9204616000060923;280291.4772596;c;0.0237605000147596;0.029932299978099763;280291.7092205;2.600019797682762e-06;0.4980341999907978;0.5380531999981031;0.5880917000467889;0.658137499995064;0.7881974999909289;0.9183150000171736;0.01
9;2;17;41;letter181;letter357;letter357;letter181;0;0;incongruent;0.04;letter181;0.09;0.07;fullmask;0.2;arrow_right.png;down;0.7208781999652274;0.7309531000209972;280293.9574326;m;0.2840198000194505;0.28838649997487664;280294.2533581;2.700020559132099e-06;0.5015866000321694;0.54160649998812;0.5916341000120156;0.6616867000120692;0.7917378999991342;0.9218551000230946;0.01
9;2;17;42;letter181;letter357;letter357;letter181;0;0;incongruent;0.04;letter181;0.09;0.07;fullmask;0.2;arrow_right.png;down;0.7872810999979265;0.7908999000210315;280296.5652805;m;0.20234030002029613;0.2084945000242442;280296.7731793;2.6999623514711857e-06;0.50369809998665;0.5437175999977626;0.5937480999855325;0.6637977999635041;0.7938688999856822;0.9239839999936521;0.01
9;2;17;43;letter181;letter357;letter357;letter181;0;1;congruent;0.12;letter181;0.18;0.07;fullmask;0.2;arrow_left.png;down;0.6555891000316478;0.6602500000153668;280299.0452575;m;0.19330769998487085;0.19852269999682903;280299.2451662;2.6999623514711857e-06;0.49628580000717193;0.6163692999980412;0.6763859000056982;0.7464169999584556;0.8765024999738671;1.0066111999913119;0.01
9;2;17;44;letter181;letter357;letter357;letter181;0;0;congruent;0.04;letter357;0.09;0.07;fullmask;0.2;arrow_right.png;up;1.2401903999852948;1.2408696000347845;280302.0212714;m;0.24557249998906627;0.24849949998315424;280302.2694543;2.700020559132099e-06;0.5008165999897756;0.5408431999967434;0.5908294999971986;0.6609060000046156;0.7909950999892317;0.9210873999982141;0.01
9;2;17;45;letter181;letter357;letter357;letter181;0;0;congruent;0.04;letter181;0.09;0.07;fullmask;0.2;arrow_left.png;down;0.6197409000014886;0.6204027999774553;280304.4132708;c;0.2532984000281431;0.258360099978745;280304.6691724;2.600019797682762e-06;0.5035471000010148;0.5435795999947004;0.5936045999987982;0.6636371000204235;0.7937165999901481;0.9238125999690965;0.01
9;2;17;46;letter181;letter357;letter357;letter181;0;0;congruent;0.04;letter357;0.09;0.07;fullmask;0.2;arrow_right.png;up;1.2500266000279225;1.2507181000546552;280307.4452821;m;0.4212697999901138;0.4281076999614015;280307.8691768;2.6999623514711857e-06;0.5051653999835253;0.5451732999645174;0.5952123000170104;0.665259999979753;0.7953262999653816;0.9254446999984793;0.01
9;2;17;47;letter181;letter357;letter357;letter181;0;0;congruent;0.04;letter181;0.09;0.07;fullmask;0.2;arrow_left.png;down;0.5029058000072837;0.5107628999976441;280309.9095352;c;0.1900813999818638;0.19853980001062155;280310.1093109;2.5999615900218487e-06;0.504688199958764;0.5447048000060022;0.5947422999888659;0.6647773999720812;0.7948630999890156;0.9249613999854773;0.01
9;2;17;48;letter181;letter357;letter357;letter181;0;0;incongruent;0.04;letter357;0.09;0.07;fullmask;0.2;arrow_left.png;up;0.5607497000019066;0.57053879997693;280312.1894516;c;0.2439606999978423;0.24738869996508583;280312.4451401;2.6999623514711857e-06;0.49792659998638555;0.5379430999746546;0.5879796000081114;0.6580084000015631;0.7881079000071622;0.9182029999792576;0.01
9;2;17;49;letter181;letter357;letter357;letter181;0;0;incongruent;0.04;letter181;0.09;0.07;fullmask;0.2;arrow_right.png;down;0.9633772000088356;0.9704612999921665;280314.9332804;m;0.2228328999481164;0.22844559996156022;280315.1651293;2.600019797682762e-06;0.5055117000010796;0.5455479000229388;0.5955615999992006;0.6656074000056833;0.7956798000377603;0.9257928000297397;0.01
9;2;17;50;letter181;letter357;letter357;letter181;0;0;congruent;0.04;letter357;0.09;0.07;fullmask;0.2;arrow_right.png;up;0.6994238999905065;0.7000569999800064;280317.3812784;m;0.2855874000233598;0.2883754000067711;280317.6694402;2.700020559132099e-06;0.5001445999951102;0.5401838999823667;0.5901781999855302;0.6602093999972567;0.7903086000005715;0.9204068999970332;0.01
9;2;17;51;letter181;letter357;letter357;letter181;0;0;congruent;0.04;letter181;0.09;0.07;fullmask;0.2;arrow_left.png;down;0.4435615999973379;0.44986079999944195;280319.6372241;m;0.21570020000217482;0.21846699999878183;280319.8611613;2.900022082030773e-06;0.504117899981793;0.5441679999930784;0.5941664000274613;0.6642157000023872;0.794292000005953;0.9243958999868482;0.01
9;2;17;52;letter181;letter357;letter357;letter181;0;0;incongruent;0.04;letter357;0.09;0.07;fullmask;0.2;arrow_left.png;up;1.334033899998758;1.340433800010942;280322.7092106;c;0.3116152999573387;0.3182018999941647;280323.0291679;2.7999631129205227e-06;0.4948148999828845;0.5348315999726765;0.5848725999821909;0.654914100014139;0.7849817000096664;0.9150875000050291;0.01
9;2;18;1;letter181;letter357;letter357;letter181;0;0;congruent;0.04;letter181;0.09;0.07;fullmask;0.2;arrow_left.png;down;0.8857235999894328;0.8907238999963738;280329.4852202;c;1.6490035000024363;1.6586182999890298;280331.1411618;2.700020559132099e-06;0.5009414000087418;0.5409481000388041;0.5909898999962024;0.661039000027813;0.7911088999826461;0.9211984000285156;0.01
9;2;18;2;letter181;letter357;letter357;letter181;0;0;congruent;0.04;letter357;0.09;0.07;fullmask;0.2;arrow_right.png;up;0.7357809999957681;0.7410435000201687;280333.3974799;m;0.304572900000494;0.30827590002445504;280333.7091483;2.700020559132099e-06;0.4974623000016436;0.537495199998375;0.5875194999971427;0.6575613000313751;0.7876391000463627;0.9177445000386797;0.01
9;2;18;3;letter181;letter357;letter357;letter181;0;0;incongruent;0.04;letter357;0.09;0.07;fullmask;0.2;arrow_left.png;up;0.45979150000493973;0.4607853000052273;280335.693252;m;0.26104219997068867;0.26833389996318147;280335.9572284;2.6999623514711857e-06;0.5030553999822587;0.5430865999660455;0.5931367999874055;0.6631449999986216;0.79324099997757;0.923326599993743;0.01
9;2;18;4;letter181;letter357;letter357;letter181;0;0;congruent;0.04;letter181;0.09;0.07;fullmask;0.2;arrow_left.png;up;1.0559266999480315;1.0601843999465927;280338.541261;c;0.2832367999944836;0.29024740000022575;280339.0291961;2.700020559132099e-06;0.5053829000098631;0.5454134999890812;0.5954420000198297;0.6654817999806255;0.7955484000267461;0.9256560999783687;0.01
9;2;18;5;letter181;letter357;letter357;letter181;0;0;incongruent;0.04;letter181;0.09;0.07;fullmask;0.2;arrow_right.png;up;0.6824899999774061;0.690122599946335;280341.229934;c;0.255347799975425;0.2604305999702774;280341.693241;2.800021320581436e-06;0.5007330999942496;0.5407445000018924;0.590805200044997;0.6608426000457257;0.7909036999917589;0.9210013000410981;0.01
9;2;18;6;letter181;letter357;letter357;letter181;0;0;incongruent;0.04;letter357;0.09;0.07;fullmask;0.2;arrow_left.png;up;0.37660540000069886;0.381047300004866;280343.6052832;c;0.4814899999764748;0.48774880002019927;280344.0931504;2.5999615900218487e-06;0.5058761999825947;0.5458969000028446;0.5959379999549128;0.665961199963931;0.7960612999740988;0.9261578999576159;0.01
9;2;18;7;letter181;letter357;letter357;letter181;0;0;incongruent;0.04;letter181;0.09;0.07;fullmask;0.2;arrow_right.png;up;0.7945985000114888;0.7999232999864034;280346.4053261;m;0.20206310000503436;0.21045380004215986;280346.8131558;2.600019797682762e-06;0.49674130004132167;0.5367580000311136;0.586800100049004;0.6568380000535399;0.7869178000255488;0.9170256000361405;0.01
9;2;18;8;letter181;letter357;letter357;letter181;0;0;congruent;0.04;letter357;0.09;0.07;fullmask;0.2;arrow_right.png;up;0.8976617999724112;0.9007558999583125;280349.2295963;m;0.37075479998020455;0.3791415999876335;280349.6052785;2.700020559132099e-06;0.4963743000407703;0.5364165999926627;0.5864355000085197;0.656456500000786;0.786543200025335;0.9166564000188373;0.01
9;2;18;9;letter181;letter357;letter357;letter181;0;0;congruent;0.04;letter181;0.09;0.07;fullmask;0.2;arrow_left.png;down;0.2553425999940373;0.2603277000016533;280351.3891936;m;0.2410585999605246;0.2483123000129126;280351.6371743;2.600019797682762e-06;0.5037372999940999;0.5437520000268705;0.5937501000007614;0.6638166000484489;0.7938977000303566;0.9240011000074446;0.01
9;2;18;10;letter181;letter357;letter357;letter181;0;1;incongruent;0.12;letter181;0.18;0.07;fullmask;0.2;arrow_right.png;down;0.9732701000175439;0.9808948000427336;280354.2291832;m;0.15834270004415885;0.16760200000135228;280354.3970878;2.700020559132099e-06;0.5015510999946855;0.621607800014317;0.6816581000457518;0.7516960000502877;0.8817752000177279;1.0118856000481173;0.01
9;2;18;11;letter181;letter357;letter357;letter181;0;0;congruent;0.04;letter357;0.09;0.07;fullmask;0.2;arrow_right.png;up;0.5116570999962278;0.5206323000020348;280356.4291794;m;0.22914780001156032;0.237464000005275;280356.669137;2.500019036233425e-06;0.4957010999787599;0.5357341999770142;0.5857541000004858;0.6558101999689825;0.7858860999695025;0.9159841000218876;0.01
9;2;18;12;letter181;letter357;letter357;letter181;0;0;incongruent;0.04;letter357;0.09;0.07;fullmask;0.2;arrow_left.png;up;0.4470404000021517;0.45082089997595176;280358.6454268;m;0.2422985999728553;0.2484855999937281;280358.8933432;2.800021320581436e-06;0.5033982000313699;0.5434118999983184;0.5934487000340596;0.663475000008475;0.7935792000498623;0.9236710999975912;0.01
9;2;18;13;letter181;letter357;letter357;letter181;0;0;congruent;0.04;letter181;0.09;0.07;fullmask;0.2;arrow_left.png;up;0.7273223000229336;0.7310694999760017;280361.157292;c;0.24458490003598854;0.2504865999799222;280361.6051436;2.600019797682762e-06;0.5035772999981418;0.5436070999712683;0.5936335999867879;0.6636872999952175;0.7937393999891356;0.923845799989067;0.01
9;2;18;14;letter181;letter357;letter357;letter181;0;0;congruent;0.04;letter357;0.09;0.07;fullmask;0.2;arrow_right.png;up;0.5491285000462085;0.5497684000292793;280363.7011637;m;0.23734439996769652;0.2384137000190094;280363.9410896;2.6999623514711857e-06;0.5057710999972187;0.5457781999721192;0.5958244999637827;0.6658611999591812;0.7959227999672294;0.9260350000113249;0.01
9;2;18;15;letter181;letter357;letter357;letter181;0;0;incongruent;0.04;letter181;0.09;0.07;fullmask;0.2;arrow_right.png;down;0.853391400014516;0.8597204000107013;280366.3172466;m;0.1678105999599211;0.1687106000026688;280366.4933241;2.6999623514711857e-06;0.4982229999732226;0.5382280999911018;0.5882566999644041;0.6582978999940678;0.7883874999824911;0.9184891000040807;0.01
9;2;18;16;letter181;letter357;letter357;letter181;0;0;congruent;0.04;letter357;0.09;0.07;fullmask;0.2;arrow_right.png;up;0.5825280999997631;0.5905867000110447;280368.5973719;m;0.20582350000040606;0.20849929994437844;280368.8130846;2.8999638743698597e-06;0.5029620999703184;0.5429800999700092;0.5930009000003338;0.6630409999634139;0.7931160999578424;0.9232414999860339;0.01
9;2;18;17;letter181;letter357;letter357;letter181;0;0;congruent;0.04;letter357;0.09;0.07;fullmask;0.2;arrow_right.png;up;0.4905387000180781;0.499728899972979;280370.8372472;m;0.17270080000162125;0.1785688999807462;280371.0210769;2.600019797682762e-06;0.5023129999754019;0.5423284000135027;0.5923686000169255;0.662384299968835;0.7924957000068389;0.92257910000626;0.01
9;2;18;18;letter181;letter357;letter357;letter181;0;0;congruent;0.04;letter181;0.09;0.07;fullmask;0.2;arrow_left.png;down;0.6094512999989092;0.6103857000125572;280373.15729;c;0.21294569998281077;0.2184594999998808;280373.3731159;2.6999623514711857e-06;0.4979928999673575;0.5379938000114635;0.5880415000137873;0.6580550000071526;0.7881430999841541;0.9182513999985531;0.01
9;2;18;19;letter181;letter357;letter357;letter181;0;1;incongruent;0.12;letter357;0.18;0.07;fullmask;0.2;arrow_left.png;up;0.6575297999661416;0.6601529999752529;280375.6372601;c;0.21144319995073602;0.21860359999118373;280375.8532635;2.7999631129205227e-06;0.5018978999578394;0.6219371999613941;0.6820001999731176;0.7520154999801889;0.8821126999682747;1.0121873999596573;0.01
9;2;18;20;letter181;letter357;letter357;letter181;0;0;incongruent;0.04;letter357;0.09;0.07;fullmask;0.2;arrow_left.png;up;1.0724286999902688;1.0812753000063822;280378.4534829;c;0.2451158000039868;0.2485115000163205;280378.7092759;2.7999631129205227e-06;0.5021102000027895;0.5421129000023939;0.5921517999959178;0.6621734999935143;0.7922804999980144;0.9223680999712087;0.01
9;2;18;21;letter181;letter357;letter357;letter181;0;0;congruent;0.04;letter181;0.09;0.07;fullmask;0.2;arrow_left.png;down;0.36437369999475777;0.3700785000110045;280380.5973019;c;0.18412759999046102;0.18854669999564067;280380.789067;2.700020559132099e-06;0.502979899989441;0.5430076000047848;0.5930262000183575;0.6630614000023343;0.7931493999785744;0.9232454000157304;0.01
9;2;18;22;letter181;letter357;letter357;letter181;0;0;incongruent;0.04;letter181;0.09;0.07;fullmask;0.2;arrow_right.png;down;1.1312447999953292;1.1409429999766871;280383.4453272;m;0.196117699961178;0.19852410000748932;280383.6530749;2.6999623514711857e-06;0.5010523999808356;0.5410652999999002;0.5910965999937616;0.6611315999762155;0.7912131999619305;0.9213248000014573;0.01
9;2;18;23;letter181;letter357;letter357;letter181;0;0;incongruent;0.04;letter181;0.09;0.07;fullmask;0.2;arrow_right.png;down;0.9827047000289895;0.9903978000511415;280386.1493557;m;0.1582128000445664;0.16761060000862926;280386.3170737;2.900022082030773e-06;0.5040870999800973;0.5441280999802984;0.5941416000132449;0.6641762999934144;0.7942679999978282;0.9243793999776244;0.01
9;2;18;24;letter181;letter357;letter357;letter181;0;0;congruent;0.04;letter357;0.09;0.07;fullmask;0.2;arrow_right.png;up;0.5587527999887243;0.5594297000207007;280388.397145;m;0.1813133000396192;0.1885474000009708;280388.5810716;2.600019797682762e-06;0.5002179000293836;0.5402332000085153;0.5902737000142224;0.6602949000080116;0.79039089998696;0.9204786000191234;0.01
9;2;18;25;letter181;letter357;letter357;letter181;0;0;congruent;0.04;letter181;0.09;0.07;fullmask;0.2;arrow_left.png;down;0.8422558000311255;0.8508208999992348;280390.9411569;c;0.15750989998923615;0.15862389997346327;280391.1091393;2.7999631129205227e-06;0.4979557999758981;0.5379622000036761;0.5879977999720722;0.6580357999773696;0.7881234000087716;0.9182242999668233;0.01
9;2;18;26;letter181;letter357;letter357;letter181;0;0;incongruent;0.04;letter357;0.09;0.07;fullmask;0.2;arrow_left.png;up;0.31656850001309067;0.32015849999152124;280392.9571475;c;0.1864406000240706;0.18853909999597818;280393.1491291;2.600019797682762e-06;0.49698280001757666;0.5369980999967083;0.5870407000184059;0.6570693000103347;0.7871556999743916;0.9172534000244923;0.01
9;2;18;27;letter181;letter357;letter357;letter181;0;0;congruent;0.04;letter181;0.09;0.07;fullmask;0.2;arrow_left.png;up;1.7013377000112087;1.7014284000033513;280396.3732793;c;0.3272129000397399;0.3301327000372112;280396.9011077;2.700020559132099e-06;0.5019551999866962;0.5419736999901943;0.5920387000078335;0.6620348999858834;0.7921528000151739;0.9222209000145085;0.01
9;2;18;28;letter181;letter357;letter357;letter181;0;0;congruent;0.04;letter181;0.09;0.07;fullmask;0.2;arrow_left.png;down;0.6360425999737345;0.640338699973654;280399.0611613;c;0.2337462999857962;0.23841879999963567;280399.3011369;2.7999631129205227e-06;0.5040103999781422;0.544039000000339;0.5940671999705955;0.6641183999599889;0.7941904999897815;0.9243044999893755;0.01
9;2;18;29;letter181;letter357;letter357;letter181;0;1;congruent;0.12;letter181;0.18;0.07;fullmask;0.2;arrow_left.png;down;1.0168000999838114;1.020287699997425;280401.9331593;c;0.18661919998703524;0.18865299999015406;280402.1252059;2.6999623514711857e-06;0.49790600000415;0.6179627999663353;0.6780085999635048;0.7480669000069611;0.8781311999773607;1.0082348000141792;0.01
9;2;18;30;letter181;letter357;letter357;letter181;0;0;congruent;0.04;letter357;0.09;0.07;fullmask;0.2;arrow_right.png;up;0.6287515999865718;0.6304001999669708;280404.2772616;m;0.20424509997246787;0.2075135000050068;280404.4850535;2.700020559132099e-06;0.5029118999955244;0.5429361999849789;0.5929546999977902;0.6630694000050426;0.7930628000176512;0.9231786000309512;0.01
9;2;18;31;letter181;letter357;letter357;letter181;0;0;congruent;0.04;letter357;0.09;0.07;fullmask;0.2;arrow_right.png;up;0.6860011999960989;0.6910729999653995;280406.6852308;m;0.20882269996218383;0.21847459999844432;280406.9010573;2.800021320581436e-06;0.4967530000139959;0.5367472000070848;0.586764800013043;0.6568337000207976;0.7868917000014335;0.9169959000428207;0.01
9;2;18;32;letter181;letter357;letter357;letter181;0;0;congruent;0.04;letter181;0.09;0.07;fullmask;0.2;arrow_left.png;down;0.5117235000361688;0.5196745999855921;280408.9331692;c;0.15811509999912232;0.15858109999680892;280409.1011746;2.600019797682762e-06;0.49915089999558404;0.5391719000181183;0.5892148000421003;0.6592411000165157;0.7893252000212669;0.9194178000325337;0.01
9;2;18;33;letter181;letter357;letter357;letter181;0;0;incongruent;0.04;letter357;0.09;0.07;fullmask;0.2;arrow_left.png;up;1.1340812999987975;1.139966499991715;280411.7571756;c;0.44012350001139566;0.4488429999910295;280412.2051301;3.300025127828121e-06;0.5044928999850526;0.5444743999978527;0.594530800008215;0.6645690000150353;0.7946620000293478;0.9247646000003442;0.01
9;2;18;34;letter181;letter357;letter357;letter181;0;0;incongruent;0.04;letter357;0.09;0.07;fullmask;0.2;arrow_left.png;up;0.8367140999762341;0.8409184999763966;280414.581397;c;0.20966640004189685;0.2183464000117965;280414.7970908;2.800021320581436e-06;0.5055838000262156;0.5455987000023015;0.5956423999741673;0.6656575999804772;0.7957600000081584;0.9258467999752611;0.01
9;2;18;35;letter181;letter357;letter357;letter181;0;0;congruent;0.04;letter357;0.09;0.07;fullmask;0.2;arrow_right.png;up;0.32108649995643646;0.3301880999933928;280416.6371591;m;0.29288080002879724;0.2985566999996081;280416.9410792;2.8999638743698597e-06;0.4970100999926217;0.5370429999893531;0.5870742999832146;0.6571011999621987;0.7871912999544293;0.9172949999920093;0.01
9;2;18;36;letter181;letter357;letter357;letter181;0;0;incongruent;0.04;letter357;0.09;0.07;fullmask;0.2;arrow_left.png;up;0.831468699965626;0.8407554000150412;280419.3092475;c;0.26063729997258633;0.268329199985601;280419.5811034;2.800021320581436e-06;0.5034157000482082;0.5434404000407085;0.5934557000291534;0.6634926000260748;0.7935689000296406;0.923684100038372;0.01
9;2;18;37;letter181;letter357;letter357;letter181;0;0;incongruent;0.04;letter181;0.09;0.07;fullmask;0.2;arrow_right.png;down;1.0257356999791227;1.0301633999915794;280422.1252511;m;0.21754370001144707;0.2185647000442259;280422.3491612;2.6999623514711857e-06;0.4968407999840565;0.5368626999552362;0.5869137999834493;0.6569459000020288;0.7870105999754742;0.917111599992495;0.01
9;2;18;38;letter181;letter357;letter357;letter181;0;0;incongruent;0.04;letter181;0.09;0.07;fullmask;0.2;arrow_right.png;down;0.5097645999630913;0.5196585999801755;280424.3812357;m;0.18021020002197474;0.18854599999031052;280424.5732811;3.3999676816165447e-06;0.5054627999779768;0.5454853000119328;0.5955174000118859;0.6655575999757275;0.7956508999923244;0.9257457999628969;0.01
9;2;18;39;letter181;letter357;letter357;letter181;0;0;incongruent;0.04;letter357;0.09;0.07;fullmask;0.2;arrow_left.png;up;0.3824174999608658;0.3899729999830015;280426.4851297;c;0.19851429999107495;0.20849420002195984;280426.6931409;2.700020559132099e-06;0.4979372000088915;0.5379654000280425;0.5880222000414506;0.658033300016541;0.7881452000001445;0.9182300000102259;0.01
9;2;18;40;letter181;letter357;letter357;letter181;0;0;incongruent;0.04;letter357;0.09;0.07;fullmask;0.2;arrow_left.png;up;0.9349655999685638;0.9404622999718413;280429.1494891;c;0.18421269999817014;0.18756689998554066;280429.3410656;2.800021320581436e-06;0.5034381999867037;0.5434547999757342;0.5935234000207856;0.6635157000273466;0.7936198000097647;0.9237171999993734;0.01
9;2;18;41;letter181;letter357;letter357;letter181;0;0;congruent;0.04;letter181;0.09;0.07;fullmask;0.2;arrow_left.png;down;0.8933894000365399;0.9006060000392608;280431.7490996;c;0.1588058000197634;0.1685973000130616;280431.9170626;3.00002284348011e-06;0.4973286999738775;0.5373376000206918;0.5873774000210688;0.6574380000238307;0.7875080999801867;0.9175951000070199;0.01
9;2;18;42;letter181;letter357;letter357;letter181;0;0;incongruent;0.04;letter181;0.09;0.07;fullmask;0.2;arrow_right.png;down;0.7157119999756105;0.7201376999728382;280434.1731731;m;0.1775946999550797;0.17857389996061102;280434.3571316;2.700020559132099e-06;0.4997818000265397;0.5397976000094786;0.589838600018993;0.659872499993071;0.7899791999952868;0.9200571000110358;0.01
9;2;18;43;letter181;letter357;letter357;letter181;0;0;incongruent;0.04;letter181;0.09;0.07;fullmask;0.2;arrow_right.png;up;0.6058400999754667;0.6104444999946281;280436.4853385;m;2.4677232000394724;2.471372900006827;280439.1570775;2.700020559132099e-06;0.5019642999977805;0.5419946000329219;0.5920043000369333;0.6620482000289485;0.792148000036832;0.922226499998942;0.01
9;2;18;44;letter181;letter357;letter357;letter181;0;1;congruent;0.12;letter357;0.18;0.07;fullmask;0.2;arrow_right.png;up;0.7635004000039771;0.7710116999805905;280441.5252215;m;0.24643070000456646;0.24838540004566312;280441.7810944;2.6999623514711857e-06;0.4984724000096321;0.6185466999886557;0.6785968999611214;0.7486236999975517;0.8787100999616086;1.008817599969916;0.01
9;2;18;45;letter181;letter357;letter357;letter181;0;0;incongruent;0.04;letter181;0.09;0.07;fullmask;0.2;arrow_right.png;down;0.8951103999861516;0.900570500001777;280444.1892118;m;0.20040710002649575;0.2074931000242941;280444.3970193;2.700020559132099e-06;0.5010420000180602;0.5410656000021845;0.5910847000195645;0.6611154999700375;0.7912173999939114;0.921326500014402;0.01
9;2;18;46;letter181;letter357;letter357;letter181;0;0;congruent;0.04;letter357;0.09;0.07;fullmask;0.2;arrow_right.png;up;0.4537228000117466;0.45990279997931793;280446.3894809;m;0.20760249998420477;0.20851299999048933;280446.605099;2.5999615900218487e-06;0.5059651999617927;0.545991699967999;0.5959991000127047;0.6660399999818765;0.7961209999630228;0.926229799981229;0.01
9;2;18;47;letter181;letter357;letter357;letter181;0;0;incongruent;0.04;letter181;0.09;0.07;fullmask;0.2;arrow_right.png;down;0.7256158000091091;0.7302050000289455;280448.8531002;m;0.16883159999269992;0.1770301999640651;280449.0290045;2.6999623514711857e-06;0.5006401999853551;0.5406594999949448;0.5907048999797553;0.6607510999892838;0.7908087999676354;0.9209193999995477;0.01
9;2;18;48;letter181;letter357;letter357;letter181;0;0;incongruent;0.04;letter357;0.09;0.07;fullmask;0.2;arrow_left.png;up;0.49416160001419485;0.4997232999885455;280451.0531605;c;0.2163520999602042;0.21863809996284544;280451.2770121;2.800021320581436e-06;0.49733199999900535;0.5373637999873608;0.5873808999895118;0.657422799966298;0.7874998999759555;0.9175966000184417;0.01
9;2;18;49;letter181;letter357;letter357;letter181;0;0;congruent;0.04;letter181;0.09;0.07;fullmask;0.2;arrow_left.png;up;0.9319745000102557;0.9416479000356048;280453.7415063;c;0.2226589999627322;0.23045469995122403;280454.1732492;2.700020559132099e-06;0.5058064000331797;0.5457874000421725;0.5958538000122644;0.6658927000244148;0.7959761000238359;0.9260738000157289;0.01
9;2;18;50;letter181;letter357;letter357;letter181;0;0;congruent;0.04;letter357;0.09;0.07;fullmask;0.2;arrow_right.png;up;0.67876919999253;0.6801273000310175;280456.3811806;m;0.5166739000123926;0.5186645000358112;280456.9011434;4.399975296109915e-06;0.4993286000099033;0.5393280999851413;0.5893601999850944;0.6593971999827772;0.789489799994044;0.9195882999920286;0.01
9;2;18;51;letter181;letter357;letter357;letter181;0;0;incongruent;0.04;letter181;0.09;0.07;fullmask;0.2;arrow_right.png;down;1.103703000000678;1.1109508000081405;280459.5171738;m;0.19865600002231076;0.2084984999964945;280459.7250112;2.700020559132099e-06;0.4961879000184126;0.5361989000230096;0.5862308000214398;0.6562784999841824;0.7863512000185438;0.9164481000043452;0.01
9;2;18;52;letter181;letter357;letter357;letter181;0;0;incongruent;0.04;letter357;0.09;0.07;fullmask;0.2;arrow_left.png;up;0.36830910004209727;0.37103130004834384;280461.6133451;c;0.3073099999455735;0.3083288999623619;280461.925212;2.700020559132099e-06;0.5046349000185728;0.5446306000230834;0.5947237000218593;0.6647136000101455;0.794828400015831;0.9248940999968909;0.01
