subjnr;loop_m;blocknr;trialnr;cue_left_learn;cue_right_learn; congruence;cue_dur;cue;SOA;mask_dur;mask;target_dur;target;RW_dur;response;RT;kb_rt;response_absolute; fix_onset;cue_onset;cue_offset;mask_onset;mask_offset;target_offset;blank_onset;response_during_mask;response_during_targetalone;response_during_RW;response_during_blank;frame_dur
12;1;1;1;letter190;letter169;congruent;0.04;letter169;0.05;0.07;fullmask;0.3;arrow_right.png;0;m;0.3865234999684617;0.39092139998683706;436145.437545;3.00002284348011e-06;0.5008690999820828;0.5408938999753445;0.5521942999912426;0.6229167000274174;0.8523019999847747;0.852307999972254;0;0;0;1;0.01
12;1;1;2;letter190;letter169;congruent;0.04;letter169;0.05;0.07;fullmask;0.3;arrow_right.png;0;m;0.45736460003536195;0.46078449999913573;436147.389625;3.100023604929447e-06;0.5011093000066467;0.5411285000154749;0.5524708000011742;0.6232411999953911;0.8526277000200935;0.8526338000083342;0;0;0;1;0.01
12;1;1;3;letter190;letter169;congruent;0.04;letter190;0.05;0.07;fullmask;0.3;arrow_left.png;0;c;0.34935330000007525;0.3502331000054255;436149.1736222;3.00002284348011e-06;0.49654770002234727;0.5365775999962352;0.5486892000189982;0.6185933999950066;0.8478922999929637;0.8478995999903418;0;0;0;1;0.01
12;1;1;4;letter190;letter169;congruent;0.04;letter190;0.05;0.07;fullmask;0.3;arrow_left.png;0;c;0.3862684000050649;0.39012659998843446;436150.9816791;2.700020559132099e-06;0.4971151000354439;0.5371246000286192;0.5492382000084035;0.6191446000011638;0.8494351000408642;0.8494569000322372;0;0;0;1;0.01
12;1;1;5;letter190;letter169;congruent;0.04;letter169;0.05;0.07;fullmask;0.3;arrow_right.png;0;m;0.34910130000207573;0.3500763999763876;436152.7656096;2.900022082030773e-06;0.49615979997906834;0.536184000025969;0.5482075000181794;0.617981499992311;0.8483611000119708;0.8483680000063032;0;0;0;1;0.01
12;1;1;6;letter190;letter169;congruent;0.04;letter190;0.05;0.07;fullmask;0.3;arrow_left.png;0;c;0.3604949999717064;0.37002119998214766;436154.5575356;2.800021320581436e-06;0.4954182999790646;0.5354557000100613;0.5468394000199623;0.6166061999974772;0.8469920000061393;0.8469979999936186;0;0;0;1;0.01
12;1;1;7;letter190;letter169;congruent;0.04;letter190;0.05;0.07;fullmask;0.3;arrow_left.png;0;c;0.3665935000171885;0.36993809998966753;436156.3655074;2.8999638743698597e-06;0.5008448999724351;0.5408690999611281;0.5529840999515727;0.6226626999559812;0.8530481999623589;0.8530541999498382;0;0;0;1;0.01
12;1;1;8;letter190;letter169;congruent;0.04;letter169;0.05;0.07;fullmask;0.3;arrow_right.png;0;m;0.38340759999118745;0.3899919000105001;436158.1734924;3.300025127828121e-06;0.5006583000067621;0.5406878999783657;0.5528074000030756;0.6225951000233181;0.852971600019373;0.8529981999890879;0;0;0;1;0.01
12;1;1;9;letter190;letter169;congruent;0.04;letter169;0.05;0.07;fullmask;0.3;arrow_right.png;0;m;0.3534091000328772;0.36125020001782104;436159.9737135;2.800021320581436e-06;0.502258200023789;0.5422790999873541;0.5534140000236221;0.6243178999866359;0.853743800020311;0.8537651000078768;0;0;0;1;0.01
12;1;1;10;letter190;letter169;congruent;0.04;letter190;0.05;0.07;fullmask;0.3;arrow_left.png;0;c;0.375557099992875;0.37999759998638183;436161.7976007;3.00002284348011e-06;0.4949975000345148;0.5350196000072174;0.5467364000505768;0.6165105000254698;0.8468945000204258;0.8469004000071436;0;0;0;1;0.01
12;1;1;11;letter190;letter169;congruent;0.04;letter169;0.05;0.07;fullmask;0.3;arrow_right.png;0;m;0.32804019999457523;0.3301346999942325;436163.5815573;2.700020559132099e-06;0.49710120004601777;0.5371272999909706;0.5491363000473939;0.6189192000310868;0.8492941000149585;0.849300800007768;0;0;0;1;0.01
12;1;1;12;letter190;letter169;congruent;0.04;letter190;0.05;0.07;fullmask;0.3;arrow_left.png;0;c;0.3409554999670945;0.35008309996919706;436165.36552;2.8999638743698597e-06;0.49776210001436993;0.5377709000022151;0.5496849999763072;0.6194604999618605;0.8498415999929421;0.8498475999804214;0;0;0;1;0.01
12;1;1;13;letter190;letter169;congruent;0.04;letter190;0.05;0.07;fullmask;0.3;arrow_left.png;0;c;0.35818809998454526;0.36020240001380444;436167.1736147;2.9999646358191967e-06;0.49749709997558966;0.5375404999940656;0.5491236000088975;0.6190246999613009;0.8493217999930494;0.8493431999813765;0;0;0;1;0.01
12;1;1;14;letter190;letter169;congruent;0.04;letter169;0.05;0.07;fullmask;0.3;arrow_right.png;0;m;0.3651467000017874;0.37007160001667216;436168.9815158;3.200024366378784e-06;0.4982263999991119;0.5382426000433043;0.5496334999916144;0.6195407999912277;0.8498319000354968;0.849839000031352;0;0;0;1;0.01
12;1;1;15;letter190;letter169;congruent;0.04;letter190;0.05;0.07;fullmask;0.3;arrow_left.png;0;c;0.31320130004314706;0.32019599998602644;436170.7415185;2.800021320581436e-06;0.5013208000455052;0.5413442000281066;0.5535086000454612;0.6233154000365175;0.8527032000129111;0.8527093000011519;0;0;0;1;0.01
12;1;1;16;letter190;letter169;congruent;0.04;letter190;0.05;0.07;fullmask;0.3;arrow_left.png;0;c;0.29823600000236183;0.30021899996791035;436172.4775959;3.100023604929447e-06;0.49762209999607876;0.5376504000159912;0.5496998999733478;0.6194701999775134;0.8499199000070803;0.8499222000245936;0;1;0;0;0.01
12;1;1;17;letter190;letter169;congruent;0.04;letter169;0.05;0.07;fullmask;0.3;arrow_right.png;0;m;0.31909830000950024;0.3202966999961063;436174.2296347;2.6999623514711857e-06;0.4944711999851279;0.5345190999796614;0.546614499995485;0.616416999953799;0.8458046999876387;0.8458119999850169;0;0;0;1;0.01
12;1;1;18;letter190;letter169;congruent;0.04;letter169;0.05;0.07;fullmask;0.3;arrow_right.png;0;m;0.32796600001165643;0.33007359999464825;436175.9896712;2.900022082030773e-06;0.496084000042174;0.5360979000106454;0.5482604000135325;0.6179479000275023;0.848331400018651;0.8483517999993637;0;0;0;1;0.01
12;1;1;19;letter190;letter169;congruent;0.04;letter190;0.05;0.07;fullmask;0.3;arrow_left.png;0;c;0.25303369999164715;0.2603285000077449;436177.6855099;2.9999646358191967e-06;0.5017952999914996;0.5418072000029497;0.5535866999998689;0.6233572000055574;0.8139164000167511;0.8139186999760568;0;1;0;0;0.01
12;1;1;20;letter190;letter169;congruent;0.04;letter169;0.05;0.07;fullmask;0.3;arrow_right.png;0;m;0.303696500021033;0.310187200026121;436179.4375235;2.800021320581436e-06;0.5002310000127181;0.540260199981276;0.552279900002759;0.6220627999864519;0.8524373999680392;0.852443800016772;0;0;0;1;0.01
12;1;1;21;letter190;letter169;congruent;0.04;letter190;0.05;0.07;fullmask;0.3;arrow_left.png;0;c;0.3325958999921568;0.3400969000067562;436181.1975295;2.8999638743698597e-06;0.5004365000058897;0.5404547000071034;0.5524659999646246;0.6222373999771662;0.8526175000006333;0.8526242999942042;0;0;0;1;0.01
12;1;1;22;letter190;letter169;congruent;0.04;letter169;0.05;0.07;fullmask;0.3;arrow_right.png;0;m;0.3274696999578737;0.3305396999930963;436182.9735867;2.800021320581436e-06;0.5025259999674745;0.5425400999956764;0.5545711999875493;0.6246525999740697;0.8540300999884494;0.854050699970685;0;0;0;1;0.01
12;1;1;23;letter190;letter169;congruent;0.04;letter169;0.05;0.07;fullmask;0.3;arrow_right.png;0;m;0.33505709999008104;0.3401118999463506;436184.7415703;2.900022082030773e-06;0.4994528000243008;0.5394708000239916;0.5507641999865882;0.6215350999846123;0.850922100013122;0.8509281000006013;0;0;0;1;0.01
12;1;1;24;letter190;letter169;congruent;0.04;letter190;0.05;0.07;fullmask;0.3;arrow_left.png;0;c;0.29918809997616336;0.3002148999948986;436186.4775643;3.100023604929447e-06;0.4950657999725081;0.5350794999976642;0.5470950999879278;0.616863299976103;0.8473109999904409;0.8473133000079542;0;1;0;0;0.01
12;1;1;25;letter190;letter169;congruent;0.04;letter190;0.05;0.07;fullmask;0.3;arrow_left.png;0.13;c;0.76947579998523;0.7697942999657243;436260.2055861;2.800021320581436e-06;0.4959086000453681;0.5359454000135884;0.5481813999940641;0.6177434000419453;0.8480966000352055;0.9777912000427023;0;0;0;1;0.01
12;1;1;26;letter190;letter169;congruent;0.04;letter169;0.05;0.07;fullmask;0.3;arrow_right.png;0.13;m;0.2762144000153057;0.28026749996934086;436261.9334436;2.7999631129205227e-06;0.5016841999604367;0.5417161999503151;0.5536327999434434;0.6234089999925345;0.833901199977845;0.8339035999961197;0;1;0;0;0.01
12;1;1;27;letter190;letter169;congruent;0.04;letter169;0.05;0.07;fullmask;0.3;arrow_right.png;0.13;m;0.41305560001637787;0.4199402999947779;436263.7814333;3.500026650726795e-06;0.49801869998918846;0.5380373999942094;0.5500118000200018;0.6199221999850124;0.8502151999855414;1.1684715999872424;0;0;1;0;0.01
12;1;1;28;letter190;letter169;congruent;0.04;letter190;0.05;0.07;fullmask;0.3;arrow_left.png;0.13;c;0.5097289999830537;0.5196335999644361;436265.9495174;2.9999646358191967e-06;0.49550919997273013;0.5355303999967873;0.5475657999631949;0.6173451999784447;0.8477223999798298;0.9773829999612644;0;0;0;1;0.01
12;1;1;29;letter190;letter169;congruent;0.04;letter190;0.05;0.07;fullmask;0.3;arrow_left.png;0.13;c;0.3064497000304982;0.3101023000199348;436267.7174666;2.800021320581436e-06;0.5040576999890618;0.5440775000024587;0.5560700999922119;0.6257648000027984;0.8561296000261791;1.0644179999944754;0;0;1;0;0.01
12;1;1;30;letter190;letter169;congruent;0.04;letter190;0.05;0.07;fullmask;0.3;arrow_left.png;0.13;c;0.46111069998005405;0.46976049995282665;436269.8134408;2.800021320581436e-06;0.49974250001832843;0.5397613000241108;0.5518042999901809;0.6215773000149056;0.8519611000083387;0.98161680001067;0;0;0;1;0.01
12;1;1;31;letter190;letter169;congruent;0.04;letter169;0.05;0.07;fullmask;0.3;arrow_right.png;0.13;m;0.2957663999986835;0.29926349996821955;436271.5494382;2.9999646358191967e-06;0.49758520000614226;0.5375884000095539;0.5497321999864653;0.6196344000054523;0.8489951000083238;0.8489975999691524;0;1;0;0;0.01
12;1;1;32;letter190;letter169;congruent;0.04;letter169;0.05;0.07;fullmask;0.3;arrow_right.png;0.13;m;0.2827261000056751;0.2902403000043705;436273.2774436;3.0999653972685337e-06;0.499874799977988;0.5399066999671049;0.5519573999918066;0.6217262999853119;0.8421989999478683;0.842201599967666;0;1;0;0;0.01
12;1;1;33;letter190;letter169;congruent;0.04;letter190;0.05;0.07;fullmask;0.3;arrow_left.png;0.13;c;0.28838689997792244;0.29044519999297336;436275.0136068;2.900022082030773e-06;0.504672400013078;0.5447032999945804;0.5561373999807984;0.6260052999714389;0.8465928999939933;0.846601199998986;0;1;0;0;0.01
12;1;1;34;letter190;letter169;congruent;0.04;letter190;0.05;0.07;fullmask;0.3;arrow_left.png;0.13;c;0.38042880001012236;0.3899709000252187;436276.8374267;2.6999623514711857e-06;0.49981409998144954;0.5398363000131212;0.5519191999919713;0.6216925999615341;0.8520740999956615;1.1402169999782927;0;0;1;0;0.01
12;1;1;35;letter190;letter169;congruent;0.04;letter190;0.05;0.07;fullmask;0.3;arrow_left.png;0.13;c;0.3311929000192322;0.3401037000003271;436278.8294426;2.800021320581436e-06;0.49626780004473403;0.5362812000093982;0.548303100047633;0.6180749000050128;0.8484597000060603;1.0866298000328243;0;0;1;0;0.01
12;1;1;36;letter190;letter169;congruent;0.04;letter190;0.05;0.07;fullmask;0.3;arrow_left.png;0.13;c;0.4618219999829307;0.4697448000079021;436280.9414286;2.900022082030773e-06;0.4985308999894187;0.5385671000112779;0.5506417999858968;0.6204013000242412;0.85079430002952;0.9804394000093453;0;0;0;1;0.01
12;1;1;37;letter190;letter169;congruent;0.04;letter169;0.05;0.07;fullmask;0.3;arrow_right.png;0.13;m;0.28064710000762716;0.2892971999826841;436282.661495;2.900022082030773e-06;0.5041361000039615;0.5441469000070356;0.5562701000017114;0.6261783000081778;0.8455668000387959;0.8455694000003859;0;1;0;0;0.01
12;1;1;38;letter190;letter169;congruent;0.04;letter169;0.05;0.07;fullmask;0.3;arrow_right.png;0.13;m;0.32584209996275604;0.3301820000051521;436284.4374198;3.1999661587178707e-06;0.49781499995151535;0.5378288999781944;0.5495540999691002;0.6193711999803782;0.8497567999875173;1.0781796999508515;0;0;1;0;0.01
12;1;1;39;letter190;letter169;congruent;0.04;letter169;0.05;0.07;fullmask;0.3;arrow_right.png;0.13;c;0.3223147999960929;0.3301546999718994;436286.4055698;2.7999631129205227e-06;0.502418999967631;0.5424531999742612;0.5545659000054002;0.6242414999869652;0.8546280000009574;1.08279339998262;0;0;1;0;0.01
12;1;1;40;letter190;letter169;congruent;0.04;letter190;0.05;0.07;fullmask;0.3;arrow_left.png;0.13;c;0.2553079000208527;0.2603242000332102;436288.5093879;3.100023604929447e-06;0.5009506000205874;0.540957800054457;0.5524998000473715;0.6223641000105999;0.8128237000200897;0.812826200039126;0;1;0;0;0.01
12;1;1;41;letter190;letter169;congruent;0.04;letter190;0.05;0.07;fullmask;0.3;arrow_left.png;0.13;c;0.3516634000116028;0.3601045000250451;436290.3174598;2.8999638743698597e-06;0.5005876999930479;0.5406044999836013;0.5527445999905467;0.6226572999730706;0.8519516999949701;1.1109863999881782;0;0;1;0;0.01
12;1;1;42;letter190;letter169;congruent;0.04;letter169;0.05;0.07;fullmask;0.3;arrow_right.png;0.13;m;0.34310050000203773;0.35008509998442605;436292.3094189;2.800021320581436e-06;0.5024455000529997;0.5424673000234179;0.55383690004237;0.6246331000002101;0.8539946000091732;1.1028336000163108;0;0;1;0;0.01
12;1;1;43;letter190;letter169;congruent;0.04;letter169;0.05;0.07;fullmask;0.3;arrow_right.png;0.13;m;0.4071472000214271;0.4099508000072092;436294.3655008;2.800021320581436e-06;0.49628150003263727;0.5362998000346124;0.5484250000445172;0.6181103000417352;0.8484999000211246;1.1567113000201061;0;0;1;0;0.01
12;1;1;44;letter190;letter169;congruent;0.04;letter169;0.05;0.07;fullmask;0.3;arrow_right.png;0.13;m;0.38780389999737963;0.3899610000080429;436296.3974342;3.300025127828121e-06;0.4960813000216149;0.5361032000510022;0.5481640000361949;0.6179415000369772;0.8483187000383623;1.1365063000121154;0;0;1;0;0.01
12;1;1;45;letter190;letter169;congruent;0.04;letter169;0.05;0.07;fullmask;0.3;arrow_right.png;0.13;m;0.33851099997991696;0.34010719996877015;436298.3894395;3.00002284348011e-06;0.5018032000516541;0.5418138000532053;0.5538396000047214;0.623613000032492;0.8539966000244021;1.0921758000040427;0;0;1;0;0.01
12;1;1;46;letter190;letter169;congruent;0.04;letter169;0.05;0.07;fullmask;0.3;arrow_right.png;0.13;m;0.2832734999828972;0.2902606999850832;436300.3255702;2.8999638743698597e-06;0.5035634999512695;0.543584099970758;0.5556972000049427;0.6259313999908045;0.8459602000075392;0.8459679000079632;0;1;0;0;0.01
12;1;1;47;letter190;letter169;congruent;0.04;letter190;0.05;0.07;fullmask;0.3;arrow_left.png;0.13;c;0.2922410999890417;0.3002489000209607;436302.0455582;3.200024366378784e-06;0.49543459998676553;0.535458100028336;0.5474825000273995;0.6171613000333309;0.8477341000107117;0.8477418000111356;0;1;0;0;0.01
12;1;1;48;letter190;letter169;congruent;0.04;letter190;0.05;0.07;fullmask;0.3;arrow_left.png;0.13;c;0.4548607000033371;0.4598206999944523;436303.9494158;3.200024366378784e-06;0.5017192999948747;0.5417558000190184;0.5538676000433043;0.6237654000287876;0.853058900043834;0.9837095999973826;0;0;0;1;0.01
12;1;2;1;letter190;letter169;congruent;0.04;letter190;0.05;0.07;fullmask;0.25;arrow_left.png;0.13;c;0.3235149000538513;0.32959620002657175;436315.8057843;3.100023604929447e-06;0.4949455999885686;0.5349729000008665;0.547045600018464;0.6169976000091992;0.7964314999990165;1.0753260999917984;0;0;1;0;0.01
12;1;2;2;letter190;letter169;congruent;0.04;letter190;0.05;0.07;fullmask;0.25;arrow_left.png;0.13;c;0.2587893000454642;0.26022310002008453;436317.7014542;3.200024366378784e-06;0.5009682000381872;0.5409947000443935;0.5521860000444576;0.6229480000329204;0.8023771000443958;1.0112899000523612;0;0;1;0;0.01
12;1;2;3;letter190;letter169;congruent;0.04;letter169;0.05;0.07;fullmask;0.25;arrow_right.png;0.13;m;0.27548439998645335;0.280313000024762;436319.6294011;3.1999661587178707e-06;0.5021917999838479;0.5422248999821022;0.5534214999643154;0.6243302999646403;0.8037552000023425;1.0325485999928787;0;0;1;0;0.01
12;1;2;4;letter190;letter169;congruent;0.04;letter190;0.05;0.07;fullmask;0.25;arrow_left.png;0.13;m;0.22351129999151453;0.22955270000966266;436321.5095519;2.900022082030773e-06;0.5021014999947511;0.5421236000256613;0.5542112000402994;0.6240253000287339;0.78377239999827;0.7837805000017397;0;1;0;0;0.01
12;1;2;5;letter190;letter169;congruent;0.04;letter190;0.05;0.07;fullmask;0.25;arrow_left.png;0.13;c;0.2321842999663204;0.2393325999728404;436323.3894086;2.900022082030773e-06;0.49626280000666156;0.5362800000002608;0.5483373000170104;0.6180700000259094;0.7876709999982268;0.7876734000165015;0;1;0;0;0.01
12;1;2;6;letter190;letter169;congruent;0.04;letter190;0.05;0.07;fullmask;0.25;arrow_left.png;0.13;c;0.23793210001895204;0.24040760000934824;436325.0853942;2.800021320581436e-06;0.49906930001452565;0.5390910999849439;0.5502708000130951;0.6211648000171408;0.7906778000178747;0.7906803999794647;0;1;0;0;0.01
12;1;2;7;letter190;letter169;congruent;0.04;letter169;0.05;0.07;fullmask;0.25;arrow_right.png;0.13;c;0.259912500041537;0.26933840004494414;436326.7893933;2.800021320581436e-06;0.5033235999871977;0.5433384000207298;0.5554472000221722;0.6253481000312604;0.804778499994427;1.0236359999980778;0;0;1;0;0.01
12;1;2;8;letter190;letter169;congruent;0.04;letter169;0.05;0.07;fullmask;0.25;arrow_right.png;0.13;m;0.31250420003198087;0.32031340000685304;436328.9333904;2.800021320581436e-06;0.4950550000066869;0.53506780002499;0.54724000004353;0.6171347000054084;0.7965715000173077;1.0654142000130378;0;0;1;0;0.01
12;1;2;9;letter190;letter169;congruent;0.04;letter169;0.05;0.07;fullmask;0.25;arrow_right.png;0.13;m;0.25593230000231415;0.26036860002204776;436330.8373888;3.0999653972685337e-06;0.4950133999809623;0.5350273000076413;0.5465014000074007;0.6164094999548979;0.7968355999910273;1.005339399969671;0;0;1;0;0.01
12;1;2;10;letter190;letter169;congruent;0.04;letter169;0.05;0.07;fullmask;0.25;arrow_right.png;0.13;m;0.3181440000189468;0.32030880003003404;436332.781465;2.700020559132099e-06;0.4984214000287466;0.538443700002972;0.5505656000459567;0.6204760000109673;0.7998995000380091;1.0688039000378922;0;0;1;0;0.01
12;1;2;11;letter190;letter169;congruent;0.04;letter169;0.05;0.07;fullmask;0.25;arrow_right.png;0.13;m;0.2977744999807328;0.3002623000065796;436334.7013944;3.200024366378784e-06;0.49908720003440976;0.5390985999838449;0.5502524999901652;0.6211572000174783;0.8005891999928281;1.0494284000014886;0;0;1;0;0.01
12;1;2;12;letter190;letter169;congruent;0.04;letter190;0.05;0.07;fullmask;0.25;arrow_left.png;0.13;c;0.2695627000066452;0.27931600000010803;436336.6053818;2.800021320581436e-06;0.5045115000102669;0.5445057000033557;0.5566002000123262;0.6264130999916233;0.8059345000074245;1.034814800019376;0;0;1;0;0.01
12;1;2;13;letter190;letter169;congruent;0.04;letter190;0.05;0.07;fullmask;0.25;arrow_left.png;0.13;c;0.2905035000294447;0.3003379000001587;436338.5575243;2.800021320581436e-06;0.4955875999876298;0.5356160000083037;0.5476630000048317;0.617448000004515;0.7969675000058487;1.0459452000213787;0;0;1;0;0.01
12;1;2;14;letter190;letter169;congruent;0.04;letter169;0.05;0.07;fullmask;0.25;arrow_right.png;0.13;m;0.2639245000318624;0.27034099999582395;436340.461375;3.100023604929447e-06;0.5024083000025712;0.5424488999997266;0.5536673000315204;0.6245709999930114;0.804000600008294;1.0227513000136241;0;0;1;0;0.01
12;1;2;15;letter190;letter169;congruent;0.04;letter190;0.05;0.07;fullmask;0.25;arrow_left.png;0.13;c;0.25192960002459586;0.26020279998192564;436342.3814239;2.700020559132099e-06;0.5046798000112176;0.544715600030031;0.5567317000241019;0.6263990000006743;0.8068884999956936;1.0150313000194728;0;0;1;0;0.01
12;1;2;16;letter190;letter169;congruent;0.04;letter190;0.05;0.07;fullmask;0.25;arrow_left.png;0.13;c;0.3006353999953717;0.31018849997781217;436344.3413663;2.9999646358191967e-06;0.5039256999734789;0.5439575999625959;0.5559747999650426;0.6257458999752998;0.8052766000037082;1.0642996999667957;0;0;1;0;0.01
12;1;2;17;letter190;letter169;congruent;0.04;letter169;0.05;0.07;fullmask;0.25;arrow_right.png;0.13;m;0.25558639998780563;0.26032100000884384;436346.2374408;2.7999631129205227e-06;0.49884339998243377;0.5388739999616519;0.5507296999567188;0.6205013999715447;0.8010185000021011;1.0091481999843381;0;0;1;0;0.01
12;1;2;18;letter190;letter169;congruent;0.04;letter169;0.05;0.07;fullmask;0.25;arrow_right.png;0.13;m;0.26012200000695884;0.26942480000434443;436348.1334377;2.5999615900218487e-06;0.49849009996978566;0.5384882999933325;0.5506194999907166;0.6202969999867491;0.7998170999926515;1.0188221000134945;0;0;1;0;0.01
12;1;2;19;letter190;letter169;congruent;0.04;letter190;0.05;0.07;fullmask;0.25;arrow_left.png;0.13;c;0.2609942000126466;0.2702495999983512;436350.0455169;3.400025889277458e-06;0.4979990000138059;0.5380171000142582;0.5501134000369348;0.619812200020533;0.8003056999878027;1.0183337000198662;0;0;1;0;0.01
12;1;2;20;letter190;letter169;congruent;0.04;letter169;0.05;0.07;fullmask;0.25;arrow_right.png;0.13;m;0.2855896999826655;0.28920510003808886;436351.9813747;2.8999638743698597e-06;0.5020412000012584;0.542059600003995;0.5541757000028156;0.6240877999807708;0.8035129999625497;1.0423971999553032;0;0;1;0;0.01
12;1;2;21;letter190;letter169;congruent;0.04;letter169;0.05;0.07;fullmask;0.25;arrow_right.png;0.13;m;0.274318800016772;0.2793167000054382;436353.9013751;3.200024366378784e-06;0.500852900033351;0.5408777000266127;0.553004699992016;0.622913500003051;0.8023420000099577;1.03121009998722;0;0;1;0;0.01
12;1;2;22;letter190;letter169;congruent;0.04;letter169;0.05;0.07;fullmask;0.25;arrow_right.png;0.13;c;0.2291687999968417;0.22936270001810044;436355.7574577;2.900022082030773e-06;0.4974096000078134;0.5374380000284873;0.5495619000284933;0.6193943000398576;0.7789238000405021;0.7789262000005692;0;1;0;0;0.01
12;1;2;23;letter190;letter169;congruent;0.04;letter190;0.05;0.07;fullmask;0.25;arrow_left.png;0.13;c;0.30469699995592237;0.3102123999851756;436357.6933764;2.9999646358191967e-06;0.4978636999730952;0.5378615999943577;0.5491808999795467;0.6200091000064276;0.7994723999872804;1.058209299982991;0;0;1;0;0.01
12;1;2;24;letter190;letter169;congruent;0.04;letter190;0.05;0.07;fullmask;0.25;arrow_left.png;0.13;c;0.2887809000094421;0.2902411000104621;436359.6294211;3.0999653972685337e-06;0.49521520000416785;0.5352311999886297;0.5472370999632403;0.6170103999902494;0.7965394000057131;1.03557239996735;0;0;1;0;0.01
12;1;2;25;letter190;letter169;congruent;0.04;letter169;0.05;0.07;fullmask;0.25;arrow_right.png;0.13;m;0.26008310000179335;0.26028250000672415;436361.5414108;2.900022082030773e-06;0.5041671000071801;0.544192600005772;0.5556258999858983;0.6255366000114009;0.8059596000239253;1.0144934999989346;0;0;1;0;0.01
12;1;2;26;letter190;letter169;congruent;0.04;letter190;0.05;0.07;fullmask;0.25;arrow_left.png;0.13;c;0.2909073000191711;0.30022750003263354;436363.4933193;2.600019797682762e-06;0.5021655000164174;0.5421814000001177;0.5534578000078909;0.6242437000037171;0.8037490000133403;1.0525128000299446;0;0;1;0;0.01
12;1;2;27;letter190;letter169;congruent;0.04;letter190;0.05;0.07;fullmask;0.25;arrow_left.png;0.13;c;0.29896799998823553;0.30011429998558015;436365.4534353;2.900022082030773e-06;0.5003704000264406;0.5403854000032879;0.5524488000082783;0.6221448000287637;0.8026312000001781;1.0507128000026569;0;0;1;0;0.01
12;1;2;28;letter190;letter169;congruent;0.04;letter190;0.05;0.07;fullmask;0.25;arrow_left.png;0.13;c;0.23193910002009943;0.24037380004301667;436367.3173626;3.100023604929447e-06;0.49609779997263104;0.5361277000047266;0.5478930000099353;0.6176689999992959;0.788267600000836;0.7882700000191107;0;1;0;0;0.01
12;1;2;29;letter190;letter169;congruent;0.04;letter169;0.05;0.07;fullmask;0.25;arrow_right.png;0.13;m;0.29655860003549606;0.3002715000184253;436369.0534058;3.5999692045152187e-06;0.500452900014352;0.5404730999725871;0.5525883000227623;0.622504899976775;0.8019356000004336;1.0508127000066452;0;0;1;0;0.01
12;1;2;30;letter190;letter169;congruent;0.04;letter190;0.05;0.07;fullmask;0.25;arrow_left.png;0.13;c;0.26942779996898025;0.2704422000097111;436370.9574189;2.6999623514711857e-06;0.4980183999869041;0.5380576999741606;0.5500438999733888;0.6199508999707177;0.7993820999981835;1.0183517999830656;0;0;1;0;0.01
12;1;2;31;letter190;letter169;congruent;0.04;letter190;0.05;0.07;fullmask;0.25;arrow_left.png;0.13;c;0.296130099974107;0.3003603999968618;436372.8854473;2.900022082030773e-06;0.49673340003937483;0.5367357000359334;0.5488406000076793;0.6187523000407964;0.798174099996686;1.0470799000468105;0;0;1;0;0.01
12;1;2;32;letter190;letter169;congruent;0.04;letter169;0.05;0.07;fullmask;0.25;arrow_right.png;0.13;m;0.3068001000210643;0.3102354999864474;436374.8373764;3.200024366378784e-06;0.49527720001060516;0.5352954000118189;0.5473931000451557;0.6173025000025518;0.7967306000064127;1.055648400040809;0;0;1;0;0.01
12;1;2;33;letter190;letter169;congruent;0.04;letter190;0.05;0.07;fullmask;0.25;arrow_left.png;0.13;c;0.2536573000252247;0.260319699998945;436376.7253631;3.00002284348011e-06;0.4970413999981247;0.5370742999948561;0.5490079000010155;0.6187802000204101;0.799296899989713;1.0073675999883562;0;0;1;0;0.01
12;1;2;34;letter190;letter169;congruent;0.04;letter169;0.05;0.07;fullmask;0.25;arrow_right.png;0.13;m;0.27048270002705976;0.28037950000725687;436378.6535056;2.600019797682762e-06;0.5028363000019453;0.5428634000127204;0.5549100000062026;0.6246773999882862;0.8041970999911427;1.0331921000033617;0;0;1;0;0.01
12;1;2;35;letter190;letter169;congruent;0.04;letter190;0.05;0.07;fullmask;0.25;arrow_left.png;0.13;c;0.26505489996634424;0.2703289999626577;436380.549425;3.100023604929447e-06;0.4962438000366092;0.5362666000146419;0.548417900048662;0.6181180000421591;0.7986404999974184;1.0165699000353925;0;0;1;0;0.01
12;1;2;36;letter190;letter169;congruent;0.04;letter190;0.05;0.07;fullmask;0.25;arrow_left.png;0.13;c;0.27399179997155443;0.2802652000100352;436382.4693735;2.800021320581436e-06;0.5047581000253558;0.5447499000001699;0.5566881000413559;0.6264596999972127;0.8069775000330992;1.035091600031592;0;0;1;0;0.01
12;1;2;37;letter190;letter169;congruent;0.04;letter169;0.05;0.07;fullmask;0.25;arrow_right.png;0.13;m;0.23267660004785284;0.23937910003587604;436384.3493569;3.100023604929447e-06;0.500766700017266;0.540794900036417;0.5527796000242233;0.6225515000405721;0.7921596000087447;0.792162100027781;0;1;0;0;0.01
12;1;2;38;letter190;letter169;congruent;0.04;letter169;0.05;0.07;fullmask;0.25;arrow_right.png;0.13;m;0.3296919999993406;0.3302669000113383;436386.1174107;2.900022082030773e-06;0.4970980000216514;0.5371344000450335;0.5490609999978915;0.6189684999990277;0.79848600004334;1.0774795000324957;0;0;1;0;0.01
12;1;2;39;letter190;letter169;congruent;0.04;letter169;0.05;0.07;fullmask;0.25;arrow_right.png;0.13;m;0.24738180002896115;0.2504973000031896;436388.005613;3.100023604929447e-06;0.49781830003485084;0.5378327000071295;0.5490066000493243;0.6199112000176683;0.7995118999970146;0.7995198999997228;0;1;0;0;0.01
12;1;2;40;letter190;letter169;congruent;0.04;letter190;0.05;0.07;fullmask;0.25;arrow_left.png;0.13;c;0.2651711999787949;0.27027039998210967;436389.7253468;3.200024366378784e-06;0.503469799994491;0.5434874999918975;0.555505299998913;0.6252817999920808;0.8047822000226006;1.0238143000169657;0;0;1;0;0.01
12;1;2;41;letter190;letter169;congruent;0.04;letter190;0.05;0.07;fullmask;0.25;arrow_left.png;0.13;m;0.25661080004647374;0.2603689000243321;436391.6373796;2.8999638743698597e-06;0.5041251999791712;0.5441835999954492;0.5555437000002712;0.6256172999856062;0.805879499996081;1.0144863000023179;0;0;1;0;0.01
12;1;2;42;letter190;letter169;congruent;0.04;letter169;0.05;0.07;fullmask;0.25;arrow_right.png;0.13;m;0.3285638999659568;0.33013359998585656;436393.8213488;2.900022082030773e-06;0.4979927000240423;0.538022099994123;0.5500307999900542;0.619803800014779;0.7993240000214428;1.0783764999941923;0;0;1;0;0.01
12;1;2;43;letter190;letter169;congruent;0.04;letter169;0.05;0.07;fullmask;0.25;arrow_right.png;0.13;m;0.26169789995765314;0.27021839999360964;436395.7252991;3.100023604929447e-06;0.5022688999888487;0.5422801999957301;0.5538443999830633;0.6245367000228725;0.804040500021074;1.02261109999381;0;0;1;0;0.01
12;1;2;44;letter190;letter169;congruent;0.04;letter169;0.05;0.07;fullmask;0.25;arrow_right.png;0.13;c;0.27804699999978766;0.2802716000005603;436397.6533473;2.800021320581436e-06;0.5006703999824822;0.5406851000152528;0.5527045999770053;0.6224788000108674;0.8020086999749765;1.0310285000014119;0;0;1;0;0.01
12;1;2;45;letter190;letter169;congruent;0.04;letter190;0.05;0.07;fullmask;0.25;arrow_left.png;0.13;c;0.26127329998416826;0.2702302999678068;436399.7573925;3.00002284348011e-06;0.4953601000015624;0.5353654000209644;0.5468196999863721;0.6165490000275895;0.7970476999762468;1.0156905999756418;0;0;1;0;0.01
12;1;2;46;letter190;letter169;congruent;0.04;letter169;0.05;0.07;fullmask;0.25;arrow_right.png;0.13;m;0.2894796999753453;0.290359599981457;436401.6774146;3.00002284348011e-06;0.5033782999962568;0.5434014000347815;0.5554336000350304;0.6252060999977402;0.8047276000143029;1.0437257000012323;0;0;1;0;0.01
12;1;2;47;letter190;letter169;congruent;0.04;letter169;0.05;0.07;fullmask;0.25;arrow_right.png;0.13;m;0.3005568999797106;0.310222799947951;436403.6298089;2.6999623514711857e-06;0.5034689999883994;0.5434888000017963;0.5555937999743037;0.6252650999813341;0.8058151999721304;1.0638420999748632;0;0;1;0;0.01
12;1;2;48;letter190;letter169;congruent;0.04;letter190;0.05;0.07;fullmask;0.25;arrow_left.png;0.13;c;0.2868756999960169;0.29023129999404773;436405.5973319;3.00002284348011e-06;0.5019672000198625;0.542003599985037;0.554008100007195;0.6237719000200741;0.8032929000328295;1.0423253999906592;0;0;1;0;0.01
12;1;3;1;letter190;letter169;congruent;0.04;letter169;0.05;0.07;fullmask;0.2;arrow_right.png;0.13;m;0.32425040000816807;0.3310782000189647;436444.8292919;2.9999646358191967e-06;0.4994967999518849;0.5395090999663807;0.5506968999980018;0.6214130999869667;0.7510626000002958;1.0798772999551147;0;0;1;0;0.01
12;1;3;2;letter190;letter169;congruent;0.04;letter169;0.05;0.07;fullmask;0.2;arrow_right.png;0.13;m;0.33672899997327477;0.3401162999798544;436446.8133016;2.800021320581436e-06;0.499873100023251;0.5398992000264116;0.5513321000034921;0.6211055000312626;0.7517557000392117;0.8814134999993257;0;0;0;1;0.01
12;1;3;3;letter190;letter169;congruent;0.04;letter169;0.05;0.07;fullmask;0.2;arrow_right.png;0.13;c;0.27698740002233535;0.27931470004841685;436448.5653743;3.0999653972685337e-06;0.4988668999867514;0.538867199968081;0.5509493999998085;0.6208509000134654;0.75041009997949;1.0291836999822408;0;0;1;0;0.01
12;1;3;4;letter190;letter169;congruent;0.04;letter190;0.05;0.07;fullmask;0.2;arrow_left.png;0.13;c;0.2935952999978326;0.30020639998838305;436450.4932958;2.800021320581436e-06;0.4963090000092052;0.5363375000306405;0.5484872999950312;0.6183429000084288;0.7479022000334226;1.0466557000181638;0;0;1;0;0.01
12;1;3;5;letter190;letter169;congruent;0.04;letter190;0.05;0.07;fullmask;0.2;arrow_left.png;0.13;c;0.24851840001065284;0.2496518000261858;436452.3894336;2.900022082030773e-06;0.49667419999605045;0.5366848999983631;0.5487829999765381;0.6178434999892488;0.7484002999844961;0.9969701999798417;0;0;1;0;0.01
12;1;3;6;letter190;letter169;congruent;0.04;letter190;0.05;0.07;fullmask;0.2;arrow_left.png;0.13;c;0.31554330000653863;0.320072699978482;436454.3573343;3.100023604929447e-06;0.5036409000167623;0.5436592000187375;0.555428399995435;0.6253518000012264;0.7557597000268288;1.0740217000129633;0;0;1;0;0.01
12;1;3;7;letter190;letter169;congruent;0.04;letter169;0.05;0.07;fullmask;0.2;arrow_right.png;0.13;m;0.2659268999705091;0.2693464999902062;436456.269299;2.7999631129205227e-06;0.5005931999767199;0.5406076000072062;0.5526815999764949;0.622592400002759;0.7521531999809667;1.020967299991753;0;0;1;0;0.01
12;1;3;8;letter190;letter169;congruent;0.04;letter190;0.05;0.07;fullmask;0.2;arrow_left.png;0.13;c;0.2987637000042014;0.2992486000293866;436458.2134284;2.8999638743698597e-06;0.5036278999759816;0.5436988999717869;0.5557652999996208;0.6256754999631085;0.7552368999458849;1.0539769999450073;0;0;1;0;0.01
12;1;3;9;letter190;letter169;congruent;0.04;letter169;0.05;0.07;fullmask;0.2;arrow_right.png;0.13;m;0.28557350003393367;0.29026790003990754;436460.1413687;2.9999646358191967e-06;0.5035442999796942;0.5435567999957129;0.5555582999950275;0.6253629999700934;0.7549953999696299;1.0438961000181735;0;0;1;0;0.01
12;1;3;10;letter190;letter169;congruent;0.04;letter190;0.05;0.07;fullmask;0.2;arrow_left.png;0.13;c;0.2603289000107907;0.2703054000157863;436462.0373501;2.7999631129205227e-06;0.5009191999561153;0.5409263999899849;0.5529047999880277;0.6226788999629207;0.7523318000021391;1.0212674999493174;0;0;1;0;0.01
12;1;3;11;letter190;letter169;congruent;0.04;letter190;0.05;0.07;fullmask;0.2;arrow_left.png;0.13;c;0.3409965999890119;0.35007829999085516;436464.029308;2.9999646358191967e-06;0.5023372999858111;0.5423553999862634;0.5543920999625698;0.6241694999625906;0.7538187999743968;0.8844689999823458;0;0;0;1;0.01
12;1;3;12;letter190;letter169;congruent;0.04;letter169;0.05;0.07;fullmask;0.2;arrow_right.png;0.13;m;0.2562381000025198;0.2603223000187427;436465.7252841;3.0999653972685337e-06;0.5026621999568306;0.5426845999900252;0.5542728999862447;0.6240457999520004;0.7546961999614723;1.0130330999963917;0;0;1;0;0.01
12;1;3;13;letter190;letter169;congruent;0.04;letter169;0.05;0.07;fullmask;0.2;arrow_right.png;0.13;m;0.23513799998909235;0.24051989999134094;436467.6053775;2.700020559132099e-06;0.4994821000145748;0.5395032000378706;0.5510734000126831;0.6209799000062048;0.7515204999945126;0.9898090999922715;0;0;1;0;0.01
12;1;3;14;letter190;letter169;congruent;0.04;letter169;0.05;0.07;fullmask;0.2;arrow_right.png;0.13;m;0.33139910001773387;0.340153899975121;436469.5732818;3.00002284348011e-06;0.49749129998963326;0.5375118000083603;0.5495133000076748;0.6194244000362232;0.7489850000129081;0.8796359000261873;0;0;0;1;0.01
12;1;3;15;letter190;letter169;congruent;0.04;letter190;0.05;0.07;fullmask;0.2;arrow_left.png;0.13;c;0.25453949999064207;0.26032120001036674;436471.2772717;2.900022082030773e-06;0.5027316000196151;0.5427483000094071;0.5544355000020005;0.6242075000191107;0.7548592999810353;1.0130634999950416;0;0;1;0;0.01
12;1;3;16;letter190;letter169;congruent;0.04;letter169;0.05;0.07;fullmask;0.2;arrow_right.png;0.13;m;0.25100020004902035;0.25945820001652464;436473.1652816;2.700020559132099e-06;0.49749069998506457;0.5375056000193581;0.5495278000016697;0.619435100001283;0.7490880999830551;1.007817299978342;0;0;1;0;0.01
12;1;3;17;letter190;letter169;congruent;0.04;letter190;0.05;0.07;fullmask;0.2;arrow_left.png;0.13;c;0.24365339998621494;0.24926630000118166;436475.0692638;2.6999623514711857e-06;0.5025371999945492;0.5425427999580279;0.5546656000078656;0.6243560999864712;0.7540059000020847;1.0028618999640457;0;0;1;0;0.01
12;1;3;18;letter190;letter169;congruent;0.04;letter169;0.05;0.07;fullmask;0.2;arrow_right.png;0.13;c;0.25853699998697266;0.26031839998904616;436476.9652715;2.700020559132099e-06;0.49753300001611933;0.5375462000374682;0.5495560999843292;0.6193288000067696;0.7489821999915875;1.0078634999808855;0;0;1;0;0.01
12;1;3;19;letter190;letter169;congruent;0.04;letter169;0.05;0.07;fullmask;0.2;arrow_right.png;0.13;m;0.22214240004541352;0.23041030002059415;436478.8292907;3.300025127828121e-06;0.49697290000040084;0.5370082000154071;0.548208300024271;0.6189777000108734;0.7486305999918841;0.9773047000053339;0;0;1;0;0.01
12;1;3;20;letter190;letter169;congruent;0.04;letter169;0.05;0.07;fullmask;0.2;arrow_right.png;0.13;m;0.24612989998422563;0.2503487999783829;436480.7252555;2.800021320581436e-06;0.5017549000331201;0.5417769000050612;0.5537308999919333;0.623501900001429;0.7531524000223726;1.0020923999836668;0;0;1;0;0.01
12;1;3;21;letter190;letter169;congruent;0.04;letter190;0.05;0.07;fullmask;0.2;arrow_left.png;0.13;m;0.28291800001170486;0.2902697999961674;436482.6534233;3.00002284348011e-06;0.5002516999957152;0.5402768000494689;0.5523923000437208;0.6220898000174202;0.7517323000356555;1.0406039000372402;0;0;1;0;0.01
12;1;3;22;letter190;letter169;congruent;0.04;letter190;0.05;0.07;fullmask;0.2;arrow_left.png;0.13;c;0.2635271000326611;0.2693447999772616;436484.5653015;3.1999661587178707e-06;0.499371699988842;0.5393943999661133;0.5515264999703504;0.6214338999707252;0.7509988999809138;1.0197339999722317;0;0;1;0;0.01
12;1;3;23;letter190;letter169;congruent;0.04;letter190;0.05;0.07;fullmask;0.2;arrow_left.png;0.13;c;0.2942134000477381;0.29927020001923665;436486.5172636;2.9999646358191967e-06;0.49957719998201355;0.5395988000091165;0.5517585999914445;0.6208325999905355;0.7512294999905862;1.0499419999541715;0;0;1;0;0.01
12;1;3;24;letter190;letter169;congruent;0.04;letter190;0.05;0.07;fullmask;0.2;arrow_left.png;0.13;c;0.23978770000394434;0.2403871999704279;436488.4133375;2.9999646358191967e-06;0.5042345999972895;0.5442701000138186;0.5556460999650881;0.6254283000016585;0.7560822999803349;0.9945501000038348;0;0;1;0;0.01
12;1;3;25;letter190;letter169;congruent;0.04;letter169;0.05;0.07;fullmask;0.2;arrow_right.png;0.13;m;0.2899655000073835;0.29024060000665486;436490.3254186;2.800021320581436e-06;0.4956504000001587;0.5356600999948569;0.5477548000053503;0.6174449999816716;0.7470884000067599;1.0359781999723054;0;0;1;0;0.01
12;1;3;26;letter190;letter169;congruent;0.04;letter190;0.05;0.07;fullmask;0.2;arrow_left.png;0.13;c;0.27066529996227473;0.28026829997543246;436492.2372622;2.700020559132099e-06;0.4975968000362627;0.5376303000375628;0.5495983000146225;0.6193702000309713;0.7490263000363484;1.0279551000567153;0;0;1;0;0.01
12;1;3;27;letter190;letter169;congruent;0.04;letter169;0.05;0.07;fullmask;0.2;arrow_right.png;0.13;m;0.33336119999876246;0.3401074000285007;436494.2212569;2.9999646358191967e-06;0.5021257000043988;0.5421404999797232;0.5541674999985844;0.6239412999711931;0.753599599993322;0.8842470999807119;0;0;0;1;0.01
12;1;3;28;letter190;letter169;congruent;0.04;letter169;0.05;0.07;fullmask;0.2;arrow_right.png;0.13;c;0.20621109998319298;0.20945779996691272;436495.8852657;2.800021320581436e-06;0.5039224000065587;0.5439485000097193;0.5559550999896601;0.625727700011339;0.7553842000197619;0.9642236999934539;0;0;1;0;0.01
12;1;3;29;letter190;letter169;congruent;0.04;letter190;0.05;0.07;fullmask;0.2;arrow_left.png;0.13;c;0.23489510000217706;0.23928710003383458;436497.7652553;3.200024366378784e-06;0.4964978000498377;0.5365107000106946;0.5486509000184014;0.6183449000236578;0.7479820000007749;0.9868051000521518;0;0;1;0;0.01
12;1;3;30;letter190;letter169;congruent;0.04;letter169;0.05;0.07;fullmask;0.2;arrow_right.png;0.13;m;0.233728599967435;0.23929280001902953;436499.6452464;3.00002284348011e-06;0.5016956000472419;0.5417170000146143;0.5537915000459179;0.6234860999975353;0.753066300007049;0.9920124000054784;0;0;1;0;0.01
12;1;3;31;letter190;letter169;congruent;0.04;letter169;0.05;0.07;fullmask;0.2;arrow_right.png;0.13;m;0.26498449995415285;0.27029679995030165;436501.5572533;2.800021320581436e-06;0.49643689999356866;0.5364536999841221;0.5480656999861822;0.617836499994155;0.7485001999884844;1.016777099983301;0;0;1;0;0.01
12;1;3;32;letter190;letter169;congruent;0.04;letter169;0.05;0.07;fullmask;0.2;arrow_right.png;0.13;m;0.2502318999613635;0.26022489997558296;436503.4533291;2.900022082030773e-06;0.5033803000114858;0.5434215000132099;0.5546052000136115;0.6253674000035971;0.754934000025969;1.0137256000307389;0;0;1;0;0.01
12;1;3;33;letter190;letter169;congruent;0.04;letter169;0.05;0.07;fullmask;0.2;arrow_right.png;0.13;m;0.20394380000652745;0.2093786000041291;436505.3092522;2.7999631129205227e-06;0.5022050999687053;0.5422212000121363;0.5543982000090182;0.6241082999622449;0.7537410999648273;0.962513200007379;0;0;1;0;0.01
12;1;3;34;letter190;letter169;congruent;0.04;letter169;0.05;0.07;fullmask;0.2;arrow_right.png;0.13;m;0.257114999985788;0.26024089998099953;436507.2532737;2.8999638743698597e-06;0.496573599986732;0.5365924999932759;0.5483934999792837;0.6180751000065356;0.7487141999881715;1.0069014999899082;0;0;1;0;0.01
12;1;3;35;letter190;letter169;congruent;0.04;letter190;0.05;0.07;fullmask;0.2;arrow_left.png;0.13;c;0.2743219999829307;0.2802697999868542;436509.1812389;2.900022082030773e-06;0.5044258999987505;0.5444502000464126;0.5557659000041895;0.6265349000459537;0.7561881000292487;1.0347834000131115;0;0;1;0;0.01
12;1;3;36;letter190;letter169;congruent;0.04;letter190;0.05;0.07;fullmask;0.2;arrow_left.png;0.13;c;0.29436749999877065;0.3002157000009902;436511.1332543;3.200024366378784e-06;0.5030312000308186;0.543062100012321;0.5550879000220448;0.6248584000277333;0.7545390999875963;1.0533869999926537;0;0;1;0;0.01
12;1;3;37;letter190;letter169;congruent;0.04;letter169;0.05;0.07;fullmask;0.2;arrow_right.png;0.13;m;0.241028800024651;0.250381899997592;436513.021215;2.700020559132099e-06;0.5031462999759242;0.5431546000181697;0.5552384000038728;0.6249045999720693;0.7545694999862462;1.0034719000104815;0;0;1;0;0.01
12;1;3;38;letter190;letter169;congruent;0.04;letter190;0.05;0.07;fullmask;0.2;arrow_left.png;0.13;c;0.25181079999310896;0.2603559999843128;436514.9332513;3.200024366378784e-06;0.5048891000333242;0.5449045000132173;0.5570115000009537;0.6267105000442825;0.7563535000081174;1.0152278000023216;0;0;1;0;0.01
12;1;3;39;letter190;letter169;congruent;0.04;letter190;0.05;0.07;fullmask;0.2;arrow_left.png;0.13;c;0.30351659998996183;0.3102328999666497;436516.8853268;2.8999638743698597e-06;0.5042394999763928;0.5442543000099249;0.555493599968031;0.6263072000001557;0.7559594999765977;1.0646069999784231;0;0;1;0;0.01
12;1;3;40;letter190;letter169;congruent;0.04;letter190;0.05;0.07;fullmask;0.2;arrow_left.png;0.13;m;0.2713684000191279;0.28026490000775084;436518.8052375;2.9999646358191967e-06;0.500313600001391;0.5403217999846675;0.5523544999887235;0.6221236999845132;0.751777499972377;1.030651199980639;0;0;1;0;0.01
12;1;3;41;letter190;letter169;congruent;0.04;letter190;0.05;0.07;fullmask;0.2;arrow_left.png;0.13;c;0.26389419997576624;0.269287999952212;436520.7092017;2.7999631129205227e-06;0.5032274999539368;0.5432469999650493;0.555463399970904;0.6245177999953739;0.7548754999879748;1.0235456999507733;0;0;1;0;0.01
12;1;3;42;letter190;letter169;congruent;0.04;letter190;0.05;0.07;fullmask;0.2;arrow_left.png;0.13;c;0.27953669999260455;0.2804150999872945;436522.6453094;2.800021320581436e-06;0.5007776000420563;0.5407970000524074;0.5522486999980174;0.6221562999999151;0.7527138000004925;1.0311229000217281;0;0;1;0;0.01
12;1;3;43;letter190;letter169;congruent;0.04;letter169;0.05;0.07;fullmask;0.2;arrow_right.png;0.13;m;0.28757889999542385;0.28929169999901205;436524.5652278;3.00002284348011e-06;0.5014507000450976;0.5412467000423931;0.5533266999991611;0.6232337999972515;0.7527983000036329;1.041576400049962;0;0;1;0;0.01
12;1;3;44;letter190;letter169;congruent;0.04;letter190;0.05;0.07;fullmask;0.2;arrow_left.png;0.13;c;0.2505064000142738;0.26039000001037493;436526.4692621;2.900022082030773e-06;0.49582640000153333;0.5358635999727994;0.5477699000039138;0.6176186999655329;0.7472683999803849;1.006146700005047;0;0;1;0;0.01
12;1;3;45;letter190;letter169;congruent;0.04;letter190;0.05;0.07;fullmask;0.2;arrow_left.png;0.13;c;0.2219508999842219;0.23038950003683567;436528.3412315;3.00002284348011e-06;0.5040655999910086;0.5440816999762319;0.5553076000069268;0.6260771999950521;0.755723099980969;0.9843665999942459;0;0;1;0;0.01
12;1;3;46;letter190;letter169;congruent;0.04;letter169;0.05;0.07;fullmask;0.2;arrow_right.png;0.13;c;0.22184709995053709;0.2293231000076048;436530.213227;3.200024366378784e-06;0.5047282000305131;0.544743100006599;0.5568595000077039;0.626551500055939;0.7561974000418559;0.9850354000227526;0;0;1;0;0.01
12;1;3;47;letter190;letter169;congruent;0.04;letter190;0.05;0.07;fullmask;0.2;arrow_left.png;0.13;c;0.26252190000377595;0.2692037999513559;436532.1252253;3.300025127828121e-06;0.5045402999967337;0.5445645999861881;0.5567881999886595;0.6264800000353716;0.7561242000083439;1.0248801999841817;0;0;1;0;0.01
12;1;3;48;letter190;letter169;congruent;0.04;letter169;0.05;0.07;fullmask;0.2;arrow_right.png;0.13;m;0.2903320000041276;0.29114950000075623;436534.0532037;2.9999646358191967e-06;0.5041760999592952;0.5442165999556892;0.555360300000757;0.6261257999576628;0.7556935999891721;1.0445327999768779;0;0;1;0;0.01
12;2;11;1;letter357;letter181;congruent;0.04;letter357;0.09;0.07;fullmask;0.3;arrow_left.png;0.13;m;98.66703710000729;98.67426399997203;437862.9881693;3.300025127828121e-06;0.4968110999907367;0.536831000004895;0.5884369999985211;0.6584566999808885;0.8885708000161685;1.019220900023356;0;0;0;1;0.01
12;2;11;2;letter357;letter181;congruent;0.04;letter181;0.09;0.07;fullmask;0.3;arrow_right.png;0.13;m;202.62156319996575;202.63154649996432;438067.3482272;2.700020559132099e-06;0.502604000037536;0.5426211000303738;0.5946224000072107;0.6646743000019342;0.8948110000346787;1.0244619000004604;0;0;0;1;0.01
12;2;11;3;letter357;letter181;congruent;0.04;letter181;0.09;0.07;fullmask;0.3;arrow_right.png;0.13;m;0.7945496999891475;0.7995255999849178;438069.6839386;2.9999646358191967e-06;0.4952855999581516;0.535308199992869;0.5876904999604449;0.6571280999924056;0.8874801999772899;1.0171421999693848;0;0;0;1;0.01
12;2;11;4;letter357;letter181;congruent;0.04;letter357;0.09;0.07;fullmask;0.3;arrow_left.png;0.13;c;0.2915264000184834;0.300217000010889;438071.4519643;2.800021320581436e-06;0.5035678999847732;0.5435917000286281;0.5955501000280492;0.665315099991858;0.8957679999875836;0.8957705000066198;0;1;0;0;0.01
12;2;11;5;letter357;letter181;congruent;0.04;letter181;0.09;0.07;fullmask;0.3;arrow_right.png;0.13;m;0.2985976000200026;0.30018740001833066;438073.2201217;3.3999676816165447e-06;0.49437039997428656;0.5343907999922521;0.5862924000248313;0.6560643999837339;0.8864807999925688;0.8864832000108436;0;1;0;0;0.01
12;2;11;6;letter357;letter181;congruent;0.04;letter357;0.09;0.07;fullmask;0.3;arrow_left.png;0.13;c;0.2857334000291303;0.290335200028494;438074.9881087;3.00002284348011e-06;0.5001945000258274;0.5402172000030987;0.591816000000108;0.6617208000388928;0.8821541000506841;0.8821590000297874;0;1;0;0;0.01
12;2;11;7;letter357;letter181;congruent;0.04;letter357;0.09;0.07;fullmask;0.3;arrow_left.png;0.13;c;0.23419879999710247;0.23982720001367852;438076.7080332;2.700020559132099e-06;0.4996165000484325;0.5396495000459254;0.5915551000507548;0.6611692000296898;0.8313785000354983;0.8313820000039414;0;1;0;0;0.01
12;2;11;8;letter357;letter181;congruent;0.04;letter357;0.09;0.07;fullmask;0.3;arrow_left.png;0.13;c;0.26711120002437383;0.2702834000228904;438078.4519584;2.800021320581436e-06;0.49996180000016466;0.5399764999747276;0.591788700025063;0.6615552000002936;0.8620729999965988;0.8620754000148736;0;1;0;0;0.01
12;2;11;9;letter357;letter181;congruent;0.04;letter181;0.09;0.07;fullmask;0.3;arrow_right.png;0.13;m;0.37178809999022633;0.380130699952133;438080.3079694;3.00002284348011e-06;0.5018141000182368;0.5418486000271514;0.5938423000043258;0.6636949999956414;0.8941312999813817;1.1722392000374384;0;0;1;0;0.01
12;2;11;10;letter357;letter181;congruent;0.04;letter181;0.09;0.07;fullmask;0.3;arrow_right.png;0.13;m;0.30888140003662556;0.31018570001469925;438082.3159657;3.0999653972685337e-06;0.5019049000111409;0.5419242999632843;0.5934966999921016;0.6632639999734238;0.8936477999668568;1.102290999959223;0;0;1;0;0.01
12;2;11;11;letter357;letter181;congruent;0.04;letter357;0.09;0.07;fullmask;0.3;arrow_left.png;0.13;c;0.2752699999837205;0.28028989996528253;438084.2840394;3.100023604929447e-06;0.5041818000026979;0.5442039000336081;0.5961649999953806;0.6658460000180639;0.8764575000386685;0.8764650000375696;0;1;0;0;0.01
12;2;11;12;letter357;letter181;congruent;0.04;letter181;0.09;0.07;fullmask;0.3;arrow_right.png;0.13;m;0.3206281999591738;0.33013239997671917;438086.0999764;3.100023604929447e-06;0.5013471000129357;0.5413733000168577;0.5927472999901511;0.663519499998074;0.8929044000105932;1.1217466000234708;0;0;1;0;0.01
12;2;11;13;letter357;letter181;congruent;0.04;letter181;0.09;0.07;fullmask;0.3;arrow_right.png;0.13;m;0.3326097999815829;0.3401058999588713;438088.1239601;2.900022082030773e-06;0.5026832000003196;0.5427166000008583;0.5947902000043541;0.6645586999948137;0.89494220004417;1.1330941000487655;0;0;1;0;0.01
12;2;11;14;letter357;letter181;congruent;0.04;letter181;0.09;0.07;fullmask;0.3;arrow_right.png;0.13;m;0.33823260001372546;0.34118950000265613;438090.1400602;3.0999653972685337e-06;0.4980740000028163;0.5380858000135049;0.5893482000101358;0.6600981999654323;0.8894864000030793;1.1284775999956764;0;0;1;0;0.01
12;2;11;15;letter357;letter181;congruent;0.04;letter181;0.09;0.07;fullmask;0.3;arrow_right.png;0.13;m;0.24413839995395392;0.25038209999911487;438092.0680311;2.8999638743698597e-06;0.49875869997777045;0.5388041999540292;0.5907936999574304;0.6604699000017717;0.8411788999801502;0.8411868999828584;0;1;0;0;0.01
12;2;11;16;letter357;letter181;congruent;0.04;letter357;0.09;0.07;fullmask;0.3;arrow_left.png;0.13;c;0.351108499977272;0.36013079999247566;438093.916117;3.100023604929447e-06;0.4948364000301808;0.5348462000256404;0.5868459999910556;0.6566194000188261;0.8870051000267267;1.1452495999983512;0;0;1;0;0.01
12;2;11;17;letter357;letter181;congruent;0.04;letter357;0.09;0.07;fullmask;0.3;arrow_left.png;0.13;c;0.28974849998485297;0.2902973999734968;438095.8760376;3.00002284348011e-06;0.49604729999555275;0.5360486999852583;0.5880227999878116;0.6579498000210151;0.8783196000149474;0.8783221000339836;0;1;0;0;0.01
12;2;11;18;letter357;letter181;congruent;0.04;letter181;0.09;0.07;fullmask;0.3;arrow_right.png;0.13;m;0.29855860001407564;0.3002699000062421;438097.6359275;2.600019797682762e-06;0.49838760000420734;0.5384092000313103;0.5903252999996766;0.6602321999962442;0.89059460000135;0.8905974000226706;0;1;0;0;0.01
12;2;11;19;letter357;letter181;congruent;0.04;letter181;0.09;0.07;fullmask;0.3;arrow_right.png;0.13;m;0.2795882999780588;0.28051569999661297;438099.3881075;3.300025127828121e-06;0.4986134000355378;0.5386465000337921;0.5905530000454746;0.6604649000219069;0.87107819999801;0.8710862000007182;0;1;0;0;0.01
12;2;11;20;letter357;letter181;congruent;0.04;letter181;0.09;0.07;fullmask;0.3;arrow_right.png;0.13;m;0.36630520003382117;0.37002999999094754;438101.2359443;3.200024366378784e-06;0.49987629998940974;0.5399028999963775;0.5917937000049278;0.6615698999958113;0.8919531999854371;1.1603032000130042;0;0;1;0;0.01
12;2;11;21;letter357;letter181;congruent;0.04;letter357;0.09;0.07;fullmask;0.3;arrow_left.png;0.13;c;0.30094180000014603;0.3101880000322126;438103.2119457;2.8999638743698597e-06;0.4975823999848217;0.5375784999923781;0.5895149999996647;0.6592902999836951;0.8896736999740824;1.0979615999967791;0;0;1;0;0.01
12;2;11;22;letter357;letter181;congruent;0.04;letter357;0.09;0.07;fullmask;0.3;arrow_left.png;0.13;c;0.26976870000362396;0.27035770000657067;438105.1720178;2.9999646358191967e-06;0.4996613999828696;0.5396848999662325;0.5915705999941565;0.661342200008221;0.8619291000068188;0.8619316999684088;0;1;0;0;0.01
12;2;11;23;letter357;letter181;congruent;0.04;letter357;0.09;0.07;fullmask;0.3;arrow_left.png;0.13;c;0.3344208000344224;0.3400095000397414;438106.9879392;2.7999631129205227e-06;0.5007655000081286;0.5407842000131495;0.5928100000019185;0.6625710999942385;0.8928480999893509;1.131168299994897;0;0;1;0;0.01
12;2;11;24;letter357;letter181;congruent;0.04;letter357;0.09;0.07;fullmask;0.3;arrow_left.png;0.13;c;0.26916210004128516;0.2704316000454128;438108.9240173;2.800021320581436e-06;0.5002269000397064;0.5402603000402451;0.5923092000302859;0.6624083000351675;0.8627493000240065;0.8627575000282377;0;1;0;0;0.01
12;2;11;25;letter357;letter181;congruent;0.04;letter181;0.09;0.07;fullmask;0.3;arrow_right.png;0.13;m;0.2660381000023335;0.27045680000446737;438110.651984;3.00002284348011e-06;0.49610990000655875;0.5361481999862008;0.5881441999808885;0.6580506000318564;0.8586094999918714;0.8586175999953412;0;1;0;0;0.01
12;2;11;26;letter357;letter181;congruent;0.04;letter181;0.09;0.07;fullmask;0.3;arrow_right.png;0.13;m;0.31693189998622984;0.32015649997629225;438112.4439264;2.900022082030773e-06;0.49395959998946637;0.533978899999056;0.5859265000326559;0.6556956000276841;0.886084400000982;1.104360400000587;0;0;1;0;0.01
12;2;11;27;letter357;letter181;congruent;0.04;letter357;0.09;0.07;fullmask;0.3;arrow_left.png;0.13;c;0.2815577000146732;0.2902456000447273;438114.4199253;2.9999646358191967e-06;0.5033513999660499;0.543373900000006;0.5953911999822594;0.6651707999990322;0.8856375999748707;0.8856400999939069;0;1;0;0;0.01
12;2;11;28;letter357;letter181;congruent;0.04;letter357;0.09;0.07;fullmask;0.3;arrow_left.png;0.13;c;0.256457700044848;0.2593604000285268;438116.1560078;3.0999653972685337e-06;0.5024635000154376;0.5424832999706268;0.5945376000017859;0.6644386000116356;0.8538974999682978;0.8539001999888569;0;1;0;0;0.01
12;2;11;29;letter357;letter181;congruent;0.04;letter357;0.09;0.07;fullmask;0.3;arrow_left.png;0.13;c;0.2535486000124365;0.2604173999861814;438117.8840698;3.00002284348011e-06;0.49956129997735843;0.539600900025107;0.591492899984587;0.6612637999933213;0.8519202999887057;0.8519281999906525;0;1;0;0;0.01
12;2;11;30;letter357;letter181;congruent;0.04;letter357;0.09;0.07;fullmask;0.3;arrow_left.png;0.13;c;0.30665440001757815;0.3102360999910161;438119.6679239;3.100023604929447e-06;0.49538630002643913;0.5354067000444047;0.586946600000374;0.6567630000063218;0.8871484000119381;1.095781700045336;0;0;1;0;0.01
12;2;11;31;letter357;letter181;congruent;0.04;letter181;0.09;0.07;fullmask;0.3;arrow_right.png;0.13;m;0.2908966999966651;0.3002612999989651;438121.6439194;3.00002284348011e-06;0.5018448000191711;0.5418762000044808;0.5938619999797083;0.6637680000276305;0.8941226999741048;0.8941252999939024;0;1;0;0;0.01
12;2;11;32;letter357;letter181;congruent;0.04;letter357;0.09;0.07;fullmask;0.3;arrow_left.png;0.13;c;0.25450029998319224;0.2603599000140093;438123.3879166;2.8999638743698597e-06;0.4960014999960549;0.5360191999934614;0.5872540999553166;0.6581496999715455;0.8476140999700874;0.8476166999898851;0;1;0;0;0.01
12;2;11;33;letter357;letter181;congruent;0.04;letter357;0.09;0.07;fullmask;0.3;arrow_left.png;0.13;c;0.33935399999609217;0.34125649998895824;438125.2040334;3.100023604929447e-06;0.49799619999248534;0.5380292999907397;0.589396899973508;0.6594728999771178;0.8895945000112988;1.128403700015042;0;0;1;0;0.01
12;2;11;34;letter357;letter181;congruent;0.04;letter181;0.09;0.07;fullmask;0.3;arrow_right.png;0.13;m;0.3252822000067681;0.3301816000021063;438127.2119224;2.800021320581436e-06;0.5013559000217356;0.541364100005012;0.593366600049194;0.6632713000290096;0.8935622000135481;1.121719100046903;0;0;1;0;0.01
12;2;11;35;letter357;letter181;congruent;0.04;letter181;0.09;0.07;fullmask;0.3;arrow_right.png;0.13;m;0.2703435000148602;0.28026450000470504;438129.1479818;2.700020559132099e-06;0.49731220002286136;0.5373484999872744;0.5890615999815054;0.6588332999963313;0.8693273999961093;0.8693298000143841;0;1;0;0;0.01
12;2;11;36;letter357;letter181;congruent;0.04;letter181;0.09;0.07;fullmask;0.3;arrow_right.png;0.13;m;0.3134575000149198;0.32006190001266077;438130.9319156;2.800021320581436e-06;0.4958090999862179;0.5358105999766849;0.587243199988734;0.6570085000130348;0.8872983999899589;1.1062162999878637;0;0;1;0;0.01
12;2;11;37;letter357;letter181;congruent;0.04;letter357;0.09;0.07;fullmask;0.3;arrow_left.png;0.13;c;0.297611300018616;0.3002559000160545;438132.9079417;3.100023604929447e-06;0.49433150002732873;0.5343599000480026;0.5863435000064783;0.6562487000483088;0.8866129000089131;0.8866157000302337;0;1;0;0;0.01
12;2;11;38;letter357;letter181;congruent;0.04;letter181;0.09;0.07;fullmask;0.3;arrow_right.png;0.13;m;0.3087830999866128;0.31042439996963367;438134.7002286;2.9999646358191967e-06;0.4954728999873623;0.5355001999996603;0.5874623999698088;0.6573669000063092;0.8877447000122629;1.0958605000050738;0;0;1;0;0.01
12;2;11;39;letter357;letter181;congruent;0.04;letter357;0.09;0.07;fullmask;0.3;arrow_left.png;0.13;c;0.26521929999580607;0.27041950001148507;438136.6279982;3.00002284348011e-06;0.4963002000004053;0.536322999978438;0.5883514999877661;0.6581212999881245;0.858773400017526;0.8587813000194728;0;1;0;0;0.01
12;2;11;40;letter357;letter181;congruent;0.04;letter357;0.09;0.07;fullmask;0.3;arrow_left.png;0.13;c;0.31384789996081963;0.3193889999529347;438138.4279116;3.100023604929447e-06;0.5034962000208907;0.5435185999958776;0.5956937000155449;0.6647817000048235;0.8950785000342876;1.113904200028628;0;0;1;0;0.01
12;2;11;41;letter357;letter181;congruent;0.04;letter181;0.09;0.07;fullmask;0.3;arrow_right.png;0.13;m;0.3086231999914162;0.31023499998264015;438140.4039313;3.500026650726795e-06;0.4947804000112228;0.5348035999923013;0.5869364000391215;0.6568533999961801;0.8871382999932393;1.095175400027074;0;0;1;0;0.01
12;2;11;42;letter357;letter181;congruent;0.04;letter181;0.09;0.07;fullmask;0.3;arrow_right.png;0.13;m;0.28564399998867884;0.29025059996638447;438142.3719899;2.7999631129205227e-06;0.5025969999842346;0.5426062999758869;0.5944873999687843;0.6642614000011235;0.8847394000040367;0.8847421999671496;0;1;0;0;0.01
12;2;11;43;letter357;letter181;congruent;0.04;letter357;0.09;0.07;fullmask;0.3;arrow_left.png;0.13;c;0.31681839999509975;0.32006769999861717;438144.1639679;3.100023604929447e-06;0.5003424999886192;0.5403974000364542;0.5918969000340439;0.6615738000255078;0.8919568000128493;1.110739800031297;0;0;1;0;0.01
12;2;11;44;letter357;letter181;congruent;0.04;letter181;0.09;0.07;fullmask;0.3;arrow_right.png;0.13;m;0.3031386000220664;0.3102562000276521;438146.1320498;3.200024366378784e-06;0.49986270000226796;0.5398956999997608;0.5919061000458896;0.6618114000302739;0.8921035000239499;1.1002526000374928;0;0;1;0;0.01
12;2;11;45;letter357;letter181;congruent;0.04;letter181;0.09;0.07;fullmask;0.3;arrow_right.png;0.13;m;0.3117518999497406;0.32023849996039644;438148.1319681;2.900022082030773e-06;0.4964822999900207;0.536504200019408;0.5885368000017479;0.6584765000152402;0.8887705000233836;1.1068801000365056;0;0;1;0;0.01
12;2;11;46;letter357;letter181;congruent;0.04;letter357;0.09;0.07;fullmask;0.3;arrow_left.png;0.13;m;0.30434620002051815;0.31022119999397546;438150.1158967;2.9999646358191967e-06;0.5039344999822788;0.5439552000025287;0.5960307000204921;0.6658364000031725;0.8962173999752849;1.1043431999860331;0;0;1;0;0.01
12;2;11;47;letter357;letter181;congruent;0.04;letter181;0.09;0.07;fullmask;0.3;arrow_right.png;0.13;m;0.2816352000227198;0.29021850001299754;438152.284028;2.800021320581436e-06;0.5005303000216372;0.5405517999897711;0.5920416000299156;0.6617732000304386;0.8822626000037417;0.8822662000311539;0;1;0;0;0.01
12;2;11;48;letter357;letter181;congruent;0.04;letter357;0.09;0.07;fullmask;0.3;arrow_left.png;0.13;c;0.3104268999886699;0.3201623000204563;438154.0839184;3.200024366378784e-06;0.495940100052394;0.5359598000068218;0.5873968000523746;0.6581504000350833;0.88756070000818;1.1063261000090279;0;0;1;0;0.01
12;2;12;1;letter357;letter181;congruent;0.04;letter181;0.09;0.07;fullmask;0.25;arrow_right.png;0.13;m;0.2768105000141077;0.2803565000067465;438168.8198826;3.100023604929447e-06;0.49974980001570657;0.5397658000001684;0.5912157000275329;0.6611634999862872;0.8415905000292696;1.0701301000081003;0;0;1;0;0.01
12;2;12;2;letter357;letter181;congruent;0.04;letter181;0.09;0.07;fullmask;0.25;arrow_right.png;0.13;c;0.25115040002856404;0.2603649000520818;438170.7560696;2.900022082030773e-06;0.4957719999947585;0.535783100000117;0.5878186000045389;0.6576018999912776;0.8381184000172652;1.0461202000151388;0;0;1;0;0.01
12;2;12;3;letter357;letter181;congruent;0.04;letter181;0.09;0.07;fullmask;0.25;arrow_right.png;0.13;m;0.25355139997554943;0.2593733999528922;438172.8998669;2.5999615900218487e-06;0.5044652999495156;0.544485199963674;0.5965221999795176;0.6664553000009619;0.8458612999529578;1.0548332000034861;0;0;1;0;0.01
12;2;12;4;letter357;letter181;congruent;0.04;letter357;0.09;0.07;fullmask;0.25;arrow_left.png;0.13;c;0.2964269999647513;0.3002094999537803;438174.8838817;2.900022082030773e-06;0.5005941999843344;0.540615500009153;0.5925200000056066;0.6622887999983504;0.8428074000403285;1.0909692000132054;0;0;1;0;0.01
12;2;12;5;letter357;letter181;congruent;0.04;letter357;0.09;0.07;fullmask;0.25;arrow_left.png;0.13;c;0.2750019999803044;0.2793204999761656;438176.8439171;2.700020559132099e-06;0.5007776999846101;0.5407900999998674;0.5928849999909289;0.662961499998346;0.8422227000119165;1.0711392000084743;0;0;1;0;0.01
12;2;12;6;letter357;letter181;congruent;0.04;letter181;0.09;0.07;fullmask;0.25;arrow_right.png;0.13;m;0.2938395999954082;0.3001098000095226;438178.8039194;3.1999661587178707e-06;0.49673439998878166;0.536761800001841;0.5887564999866299;0.6584126999950968;0.8389357000123709;1.0871347999782301;0;0;1;0;0.01
12;2;12;7;letter357;letter181;congruent;0.04;letter357;0.09;0.07;fullmask;0.25;arrow_left.png;0.13;c;0.32095940003637224;0.3302819000091404;438180.8119978;3.3999676816165447e-06;0.5006193000008352;0.5406461000093259;0.5923043999937363;0.6622271999949589;0.8427384999813512;1.1210374999791384;0;0;1;0;0.01
12;2;12;8;letter357;letter181;congruent;0.04;letter181;0.09;0.07;fullmask;0.25;arrow_right.png;0.13;m;0.339370500005316;0.34026369999628514;438182.8519652;2.700020559132099e-06;0.5014833000022918;0.5415181000134908;0.5934205999947153;0.6633494999841787;0.8428696999908425;1.1319233999820426;0;0;1;0;0.01
12;2;12;9;letter357;letter181;congruent;0.04;letter357;0.09;0.07;fullmask;0.25;arrow_left.png;0.13;c;0.34008400002494454;0.350091100030113;438184.8840455;3.200024366378784e-06;0.49846670002443716;0.5384970000013709;0.5904516999726184;0.6603788000065833;0.8406430999748409;1.1388853000244126;0;0;1;0;0.01
12;2;12;10;letter357;letter181;congruent;0.04;letter357;0.09;0.07;fullmask;0.25;arrow_left.png;0.13;c;0.3567304000025615;0.36020719999214634;438186.9318848;2.7999631129205227e-06;0.5013061999925412;0.5412999999825843;0.5931350999744609;0.6630587999825366;0.8435763999586925;1.1517165999975987;0;0;1;0;0.01
12;2;12;11;letter357;letter181;congruent;0.04;letter181;0.09;0.07;fullmask;0.25;arrow_right.png;0.13;m;0.30517170001985505;0.31017090001842007;438188.9318751;2.900022082030773e-06;0.4951110000256449;0.5351328999968246;0.587188400037121;0.6569528999971226;0.8364744000136852;1.0954982000403106;0;0;1;0;0.01
12;2;12;12;letter357;letter181;congruent;0.04;letter357;0.09;0.07;fullmask;0.25;arrow_left.png;0.13;c;0.32407339999917895;0.3301338999881409;438190.9318828;3.3999676816165447e-06;0.5011330000124872;0.5410964000038803;0.5929806999629363;0.6627540999907069;0.8432770000072196;1.121483499999158;0;0;1;0;0.01
12;2;12;13;letter357;letter181;congruent;0.04;letter357;0.09;0.07;fullmask;0.25;arrow_left.png;0.13;c;0.2726544999750331;0.2801846999791451;438192.8918784;2.5999615900218487e-06;0.5027261999784969;0.5427463999949396;0.5947461999603547;0.6644405999686569;0.8449439999531023;1.0731164999888279;0;0;1;0;0.01
12;2;12;14;letter357;letter181;congruent;0.04;letter357;0.09;0.07;fullmask;0.25;arrow_left.png;0.13;c;0.29739690001588315;0.300266099977307;438194.86787;3.1999661587178707e-06;0.49720189999789;0.5372195999952964;0.5891893999651074;0.6590091999969445;0.8395294999936596;1.0875778999761678;0;0;1;0;0.01
12;2;12;15;letter357;letter181;congruent;0.04;letter357;0.09;0.07;fullmask;0.25;arrow_left.png;0.13;c;0.2941636000177823;0.30021170002873987;438196.8358614;3.100023604929447e-06;0.5038347999798134;0.5438386999885552;0.5957631000201218;0.6655332000227645;0.8460513000027277;1.0942147999885492;0;0;1;0;0.01
12;2;12;16;letter357;letter181;congruent;0.04;letter181;0.09;0.07;fullmask;0.25;arrow_right.png;0.13;m;0.26292449998436496;0.27028939995216206;438198.7958593;2.800021320581436e-06;0.5002472000196576;0.5402576000196859;0.5921162000158802;0.6618868000223301;0.8424024000414647;1.0605964999995194;0;0;1;0;0.01
12;2;12;17;letter357;letter181;congruent;0.04;letter357;0.09;0.07;fullmask;0.25;arrow_left.png;0.13;c;0.2639387000235729;0.27044460002798587;438200.7479316;3.00002284348011e-06;0.5037225999985822;0.5437641000025906;0.5954094000044279;0.6654643000219949;0.8457414000295103;1.064094000030309;0;0;1;0;0.01
12;2;12;18;letter357;letter181;congruent;0.04;letter181;0.09;0.07;fullmask;0.25;arrow_right.png;0.13;m;0.27409760002046824;0.27926450001541525;438202.6998716;3.0999653972685337e-06;0.49481579998973757;0.5348221999593079;0.5870086000068113;0.656778700009454;0.8363002999685705;1.0651781999622472;0;0;1;0;0.01
12;2;12;19;letter357;letter181;congruent;0.04;letter181;0.09;0.07;fullmask;0.25;arrow_right.png;0.13;m;0.32721900002798066;0.3301301000174135;438204.7239879;2.7999631129205227e-06;0.49908889998914674;0.5391094999504276;0.5910114999860525;0.6607893999898806;0.8412982999579981;1.11949569999706;0;0;1;0;0.01
12;2;12;20;letter357;letter181;congruent;0.04;letter357;0.09;0.07;fullmask;0.25;arrow_left.png;0.13;c;0.25973779999185354;0.2602074999595061;438206.667916;2.700020559132099e-06;0.5028300000121817;0.542854700004682;0.5948494999902323;0.6645220000064;0.8450423000031151;1.0532013999763876;0;0;1;0;0.01
12;2;12;21;letter357;letter181;congruent;0.04;letter181;0.09;0.07;fullmask;0.25;arrow_right.png;0.13;m;0.2465807999833487;0.2503435999969952;438208.5958573;3.100023604929447e-06;0.49912390002282336;0.5391475000069477;0.5909556000260636;0.6607262000325136;0.8413001000299118;0.841302499989979;0;1;0;0;0.01
12;2;12;22;letter357;letter181;congruent;0.04;letter181;0.09;0.07;fullmask;0.25;arrow_right.png;0.13;m;0.29132819996448234;0.30011709994869307;438210.3719484;2.8999638743698597e-06;0.49712849996285513;0.5371575999888591;0.5892218999797478;0.6589850999880582;0.8394161000032909;1.0875228999648243;0;0;1;0;0.01
12;2;12;23;letter357;letter181;congruent;0.04;letter181;0.09;0.07;fullmask;0.25;arrow_right.png;0.13;m;0.27413410000735894;0.2802648000069894;438212.3158839;3.200024366378784e-06;0.5001171000185423;0.5401395999942906;0.5920612000045367;0.6618328000186011;0.8423491999856196;1.0705087999813259;0;0;1;0;0.01
12;2;12;24;letter357;letter181;congruent;0.04;letter357;0.09;0.07;fullmask;0.25;arrow_left.png;0.13;c;0.312913799949456;0.3201896999962628;438214.3159982;2.9999646358191967e-06;0.4972056999686174;0.5372225999599323;0.5892210999736562;0.6589165999903344;0.8394173000124283;1.1075999999884516;0;0;1;0;0.01
12;2;12;25;letter357;letter181;congruent;0.04;letter357;0.09;0.07;fullmask;0.25;arrow_left.png;0.13;c;0.24955090001458302;0.2503465000190772;438216.2438481;2.8999638743698597e-06;0.5000280999811366;0.5400512999622151;0.5919625000096858;0.6617351999739185;0.8423098999774083;0.8423122999956831;0;1;0;0;0.01
12;2;12;26;letter357;letter181;congruent;0.04;letter181;0.09;0.07;fullmask;0.25;arrow_right.png;0.13;m;0.24631750001572073;0.24939429998630658;438217.9718405;2.7999631129205227e-06;0.503878999967128;0.5438972999691032;0.5959152999566868;0.6659782999777235;0.8453088999958709;0.8453114999574609;0;1;0;0;0.01
12;2;12;27;letter357;letter181;congruent;0.04;letter357;0.09;0.07;fullmask;0.25;arrow_left.png;0.13;c;0.23331179999513552;0.24037630000384524;438219.6998623;3.00002284348011e-06;0.5022817999706604;0.5423150999704376;0.5942134999786504;0.6639856999972835;0.8345905999885872;0.834593000006862;0;1;0;0;0.01
12;2;12;28;letter357;letter181;congruent;0.04;letter357;0.09;0.07;fullmask;0.25;arrow_left.png;0.13;c;0.2680243000504561;0.2693441000301391;438221.475855;3.3999676816165447e-06;0.49736829998437315;0.53738809999777;0.5894479000126012;0.6593606999958865;0.8387869999860413;1.057722500001546;0;0;1;0;0.01
12;2;12;29;letter357;letter181;congruent;0.04;letter181;0.09;0.07;fullmask;0.25;arrow_right.png;0.13;m;0.2551345999818295;0.2602500999928452;438223.4037953;2.9999646358191967e-06;0.5008755999733694;0.5408957999898121;0.592535899952054;0.6621472999686375;0.8427507999585941;1.0512348999618553;0;0;1;0;0.01
12;2;12;30;letter357;letter181;congruent;0.04;letter181;0.09;0.07;fullmask;0.25;arrow_right.png;0.13;m;0.28763889998663217;0.2902396999998018;438225.3878359;2.700020559132099e-06;0.4993087000329979;0.5393282000441104;0.5912360000074841;0.6610083000268787;0.8415253999992274;1.0796869000187144;0;0;1;0;0.01
12;2;12;31;letter357;letter181;congruent;0.04;letter181;0.09;0.07;fullmask;0.25;arrow_right.png;0.13;m;0.3162857000133954;0.3202068000100553;438227.3878367;3.00002284348011e-06;0.5001677999971434;0.5401946000056341;0.5921755000017583;0.6620802000397816;0.8415097999968566;1.1105903999996372;0;0;1;0;0.01
12;2;12;32;letter357;letter181;congruent;0.04;letter181;0.09;0.07;fullmask;0.25;arrow_right.png;0.13;m;0.25150269997539;0.2604680000222288;438229.3240173;2.900022082030773e-06;0.49926529999356717;0.5392778000095859;0.5909218000015244;0.6608378000091761;0.8412550000357442;1.049615600029938;0;0;1;0;0.01
12;2;12;33;letter357;letter181;congruent;0.04;letter181;0.09;0.07;fullmask;0.25;arrow_right.png;0.13;m;0.35567469999659806;0.3600538999889977;438231.3798623;3.200024366378784e-06;0.49856540001928806;0.5386058000149205;0.5906452999915928;0.6605050999787636;0.8399335999856703;1.1490139000234194;0;0;1;0;0.01
12;2;12;34;letter357;letter181;congruent;0.04;letter357;0.09;0.07;fullmask;0.25;arrow_left.png;0.13;c;0.3311983000021428;0.3401824000175111;438233.3960127;2.8999638743698597e-06;0.5016711999778636;0.541706999996677;0.5930477000074461;0.6629597999854013;0.8433843000093475;1.1320815999642946;0;0;1;0;0.01
12;2;12;35;letter357;letter181;congruent;0.04;letter357;0.09;0.07;fullmask;0.25;arrow_left.png;0.13;c;0.3516286999802105;0.36095569998724386;438235.4278435;2.800021320581436e-06;0.4977703000186011;0.5378031000145711;0.589238699991256;0.6589989999774843;0.8393429000279866;1.1481868000118993;0;0;1;0;0.01
12;2;12;36;letter357;letter181;congruent;0.04;letter357;0.09;0.07;fullmask;0.25;arrow_left.png;0.13;c;0.31174079998163506;0.3201677000033669;438237.4198415;2.900022082030773e-06;0.4949254000093788;0.5349297000211664;0.5869605999905616;0.6567395000020042;0.8362526000128128;1.1053068999899551;0;0;1;0;0.01
12;2;12;37;letter357;letter181;congruent;0.04;letter181;0.09;0.07;fullmask;0.25;arrow_right.png;0.13;m;0.29065830004401505;0.3003803000319749;438239.4199893;2.800021320581436e-06;0.5019660000107251;0.5419815999921411;0.5939205000177026;0.6638311999849975;0.844253099989146;1.0923598000081256;0;0;1;0;0.01
12;2;12;38;letter357;letter181;congruent;0.04;letter357;0.09;0.07;fullmask;0.25;arrow_left.png;0.13;c;0.38322379998862743;0.3900088000227697;438241.4838671;2.9999646358191967e-06;0.4988026000210084;0.5388406999991275;0.5908066999982111;0.6604889999725856;0.8410186999826692;0.9706491999677382;0;0;0;1;0.01
12;2;12;39;letter357;letter181;congruent;0.04;letter181;0.09;0.07;fullmask;0.25;arrow_right.png;0.13;m;0.2800075000268407;0.28023059997940436;438243.2518984;3.600027412176132e-06;0.5043474000412971;0.5443695000139996;0.5963795000570826;0.666293200047221;0.8457165000145324;1.0747354000341147;0;0;1;0;0.01
12;2;12;40;letter357;letter181;congruent;0.04;letter181;0.09;0.07;fullmask;0.25;arrow_right.png;0.13;m;0.24452229996677488;0.24939389998326078;438245.1878173;3.00002284348011e-06;0.4996753999730572;0.5396925999666564;0.5918286999803968;0.6617315000039525;0.8412216000142507;0.8412239999743178;0;1;0;0;0.01
12;2;12;41;letter357;letter181;congruent;0.04;letter181;0.09;0.07;fullmask;0.25;arrow_right.png;0.13;m;0.3296966999769211;0.33004949998576194;438247.0038968;2.900022082030773e-06;0.49669110000832006;0.5366913999896497;0.5886090999701992;0.658383000001777;0.8388994999695569;1.1170800999971107;0;0;1;0;0.01
12;2;12;42;letter357;letter181;congruent;0.04;letter181;0.09;0.07;fullmask;0.25;arrow_right.png;0.13;m;0.30831590003799647;0.3102149000042118;438249.0039008;2.900022082030773e-06;0.4960976000293158;0.5361201000050642;0.5881180000142194;0.6578049000236206;0.8383271000348032;1.0964843000401743;0;0;1;0;0.01
12;2;12;43;letter357;letter181;congruent;0.04;letter357;0.09;0.07;fullmask;0.25;arrow_left.png;0.13;c;0.34554009995190427;0.3501053999643773;438251.0518176;2.7999631129205227e-06;0.5034024999476969;0.5434215999557637;0.5948073999607004;0.6655730999773368;0.8450939999893308;1.1438178999815136;0;0;1;0;0.01
12;2;12;44;letter357;letter181;congruent;0.04;letter357;0.09;0.07;fullmask;0.25;arrow_left.png;0.13;c;0.23970859998371452;0.24037209997186437;438252.9878522;3.1999661587178707e-06;0.4986623000004329;0.5386929999804124;0.5906113999662921;0.6603847999940626;0.8309844000032172;0.8309868999640457;0;1;0;0;0.01
12;2;12;45;letter357;letter181;congruent;0.04;letter357;0.09;0.07;fullmask;0.25;arrow_left.png;0.13;c;0.3070126999518834;0.3102221000008285;438254.7958244;2.900022082030773e-06;0.5013150000013411;0.5413364000269212;0.5927799000055529;0.6626811000169255;0.8431048999773338;1.1016863000113517;0;0;1;0;0.01
12;2;12;46;letter357;letter181;congruent;0.04;letter181;0.09;0.07;fullmask;0.25;arrow_right.png;0.13;m;0.2820773999555968;0.2903844999964349;438256.7719815;3.300025127828121e-06;0.5021028000046499;0.5420941999764182;0.593344499997329;0.6642357999808155;0.8436493999906816;1.0824460000148974;0;0;1;0;0.01
12;2;12;47;letter357;letter181;congruent;0.04;letter357;0.09;0.07;fullmask;0.25;arrow_left.png;0.13;c;0.2606015999917872;0.27028619998600334;438258.7318163;3.100023604929447e-06;0.4996629999950528;0.5396866000373848;0.5909532000077888;0.6617220000480302;0.841242800001055;1.060033600020688;0;0;1;0;0.01
12;2;12;48;letter357;letter181;congruent;0.04;letter357;0.09;0.07;fullmask;0.25;arrow_left.png;0.13;c;0.19066930003464222;0.1994874000083655;438260.603811;3.00002284348011e-06;0.500828200019896;0.5408488999819383;0.5928009999915957;0.6625737000140361;0.7922893000068143;0.7922917999676429;0;1;0;0;0.01
12;2;13;1;letter357;letter181;congruent;0.04;letter181;0.09;0.07;fullmask;0.2;arrow_right.png;0.13;m;0.2751610999694094;0.28036119998432696;438275.3477992;3.1999661587178707e-06;0.5033058999688365;0.543314799957443;0.5952603999758139;0.6652098999475129;0.7947713999892585;1.073677999956999;0;0;1;0;0.01
12;2;13;2;letter357;letter181;congruent;0.04;letter181;0.09;0.07;fullmask;0.2;arrow_right.png;0.13;m;0.28999130002921447;0.29019970004446805;438277.3239065;2.800021320581436e-06;0.49817609996534884;0.5381907999981195;0.5901431000092998;0.6600534999743104;0.789613000000827;1.0785496999742463;0;0;1;0;0.01
12;2;13;3;letter357;letter181;congruent;0.04;letter181;0.09;0.07;fullmask;0.2;arrow_right.png;0.13;m;0.30460849998053163;0.31020489998627454;438279.2998335;2.7999631129205227e-06;0.4960404000012204;0.5360646999906749;0.5880499999620952;0.657837999984622;0.787492299976293;1.0964405999984592;0;0;1;0;0.01
12;2;13;4;letter357;letter181;congruent;0.04;letter357;0.09;0.07;fullmask;0.2;arrow_left.png;0.13;c;0.3354181000031531;0.3400067999609746;438281.3317901;2.900022082030773e-06;0.5018869999912567;0.5419188999803737;0.5937548999791034;0.6634353999979794;0.7940849000005983;0.9237254000036046;0;0;0;1;0.01
12;2;13;5;letter357;letter181;congruent;0.04;letter357;0.09;0.07;fullmask;0.2;arrow_left.png;0.13;c;0.24621950002619997;0.25025909999385476;438283.0838373;3.500026650726795e-06;0.5026452000020072;0.5426646000123583;0.5945551000186242;0.6643259000265971;0.7939753999817185;1.0429956000298262;0;0;1;0;0.01
12;2;13;6;letter357;letter181;congruent;0.04;letter357;0.09;0.07;fullmask;0.2;arrow_left.png;0.13;c;0.23491009999997914;0.24038040003506467;438285.0037958;3.3999676816165447e-06;0.5023867999552749;0.5424087999854237;0.5943120999727398;0.6640861999476328;0.7937407999997959;1.0327360999654047;0;0;1;0;0.01
12;2;13;7;letter357;letter181;congruent;0.04;letter357;0.09;0.07;fullmask;0.2;arrow_left.png;0.13;m;0.2997203999548219;0.3001743999775499;438286.9798537;2.8999638743698597e-06;0.49802629998885095;0.5380473000113852;0.5899617999675684;0.6597341999877244;0.7893868999672122;1.0884146000025794;0;0;1;0;0.01
12;2;13;8;letter357;letter181;congruent;0.04;letter181;0.09;0.07;fullmask;0.2;arrow_right.png;0.13;m;0.3100745000410825;0.3200287999934517;438288.9719253;2.5999615900218487e-06;0.49739859998226166;0.5373886000015773;0.5897414999781176;0.6592533999937586;0.7889202999649569;1.1077583999722265;0;0;1;0;0.01
12;2;13;9;letter357;letter181;congruent;0.04;letter181;0.09;0.07;fullmask;0.2;arrow_right.png;0.13;m;0.2593034000019543;0.260416199977044;438290.9318599;3.0999653972685337e-06;0.4988985999953002;0.5389030000078492;0.5906489999615587;0.6605187999666668;0.7901692999876104;1.0492466999567114;0;0;1;0;0.01
12;2;13;10;letter357;letter181;congruent;0.04;letter181;0.09;0.07;fullmask;0.2;arrow_right.png;0.13;m;0.24632350000320002;0.2503457000129856;438292.8597802;3.200024366378784e-06;0.4992082000244409;0.5392345000291243;0.5906211000401527;0.6613913000328466;0.7910451000207104;1.0395644000382163;0;0;1;0;0.01
12;2;13;11;letter357;letter181;congruent;0.04;letter357;0.09;0.07;fullmask;0.2;arrow_left.png;0.13;c;0.2466816999949515;0.2504749000072479;438294.7718871;2.8999638743698597e-06;0.4960435999673791;0.5360669000074267;0.5879669999703765;0.6577378999791108;0.787387199990917;1.036411400011275;0;0;1;0;0.01
12;2;13;12;letter357;letter181;congruent;0.04;letter357;0.09;0.07;fullmask;0.2;arrow_left.png;0.13;c;0.2770404000184499;0.27927310002269223;438296.7238594;2.7999631129205227e-06;0.49655219999840483;0.53657309996197;0.588841599994339;0.6584979999461211;0.7881534999469295;1.066931499983184;0;0;1;0;0.01
12;2;13;13;letter357;letter181;congruent;0.04;letter181;0.09;0.07;fullmask;0.2;arrow_right.png;0.13;m;0.2520364000229165;0.2603167000343092;438298.6597736;2.700020559132099e-06;0.4965422000386752;0.5365612000459805;0.5884626000188291;0.6582345000351779;0.7878908000420779;1.0468619000166655;0;0;1;0;0.01
12;2;13;14;letter357;letter181;congruent;0.04;letter357;0.09;0.07;fullmask;0.2;arrow_left.png;0.13;c;0.22480199998244643;0.23039779998362064;438300.5637817;2.900022082030773e-06;0.5022018000017852;0.5422365000122227;0.5941192000173032;0.6638916999800131;0.7935438000131398;1.022544800012838;0;0;1;0;0.01
12;2;13;15;letter357;letter181;congruent;0.04;letter181;0.09;0.07;fullmask;0.2;arrow_right.png;0.13;m;0.37151789997005835;0.38004620000720024;438302.6118273;2.700020559132099e-06;0.5018406999879517;0.5418660999857821;0.5938651000033133;0.6637764000333846;0.7933352999971248;0.9239656000281684;0;0;0;1;0.01
12;2;13;16;letter357;letter181;congruent;0.04;letter181;0.09;0.07;fullmask;0.2;arrow_right.png;0.13;m;4.638191999983974;4.642649099987466;438308.7397696;3.200024366378784e-06;0.5031287000165321;0.5431934000225738;0.595207299978938;0.6651277000200935;0.7946831000153907;0.9253281999845058;0;0;0;1;0.01
12;2;13;17;letter357;letter181;congruent;0.04;letter357;0.09;0.07;fullmask;0.2;arrow_left.png;0.13;c;0.3544836000073701;0.35995710000861436;438310.5797701;2.8999638743698597e-06;0.501140000007581;0.5411668000160716;0.5929589999723248;0.6627207999699749;0.7932812999933958;0.9229370999964885;0;0;0;1;0.01
12;2;13;18;letter357;letter181;congruent;0.04;letter181;0.09;0.07;fullmask;0.2;arrow_right.png;0.13;c;0.2651748000062071;0.2704410000005737;438312.3318727;3.00002284348011e-06;0.5004030999843962;0.540418500022497;0.5924352000001818;0.662342700001318;0.791888200037647;1.06076220003888;0;0;1;0;0.01
12;2;13;19;letter357;letter181;congruent;0.04;letter181;0.09;0.07;fullmask;0.2;arrow_right.png;0.13;m;0.25641860003815964;0.2603188999928534;438314.2837681;2.9999646358191967e-06;0.5018209999543615;0.541836799995508;0.5932359999860637;0.6640087999985553;0.793660799972713;1.0521815999527462;0;0;1;0;0.01
12;2;13;20;letter357;letter181;congruent;0.04;letter181;0.09;0.07;fullmask;0.2;arrow_right.png;0.13;m;0.23667750001186505;0.24035560002084821;438316.1957801;3.3999676816165447e-06;0.4960850999923423;0.5361110999947414;0.5880083999945782;0.6577820999664254;0.7874165999819525;1.0264495999435894;0;0;1;0;0.01
12;2;13;21;letter357;letter181;congruent;0.04;letter357;0.09;0.07;fullmask;0.2;arrow_left.png;0.13;c;0.2595047000213526;0.2604397000395693;438318.139891;2.900022082030773e-06;0.4967913000145927;0.5368173000169918;0.5887524000136182;0.6585255000391044;0.7881763000041246;1.0471451000194065;0;0;1;0;0.01
12;2;13;22;letter357;letter181;congruent;0.04;letter357;0.09;0.07;fullmask;0.2;arrow_left.png;0.13;m;0.22019710001768544;0.22045970003819093;438320.0519192;3.100023604929447e-06;0.4952305000042543;0.5352646000101231;0.5872625000192784;0.6569887000368908;0.7866732000256889;1.0055665000109002;0;0;1;0;0.01
12;2;13;23;letter357;letter181;congruent;0.04;letter357;0.09;0.07;fullmask;0.2;arrow_left.png;0.13;c;0.26088570000138134;0.27027799998177215;438322.0037564;2.9999646358191967e-06;0.49829949997365475;0.5383259999798611;0.5902384999790229;0.6600124000106007;0.7896685000159778;1.0586695999954827;0;0;1;0;0.01
12;2;13;24;letter357;letter181;congruent;0.04;letter357;0.09;0.07;fullmask;0.2;arrow_left.png;0.13;c;0.22765860002255067;0.23040010000113398;438323.9317592;2.800021320581436e-06;0.4978058999986388;0.5378356000292115;0.5896919000078924;0.6594661999843083;0.7891207999782637;1.0181346000172198;0;0;1;0;0.01
12;2;13;25;letter357;letter181;congruent;0.04;letter181;0.09;0.07;fullmask;0.2;arrow_right.png;0.13;m;0.31645909999497235;0.3202975000021979;438325.9318319;2.900022082030773e-06;0.5009745000279509;0.5410095000406727;0.5928962000180036;0.6626700999913737;0.7923229000298306;1.1113636000081897;0;0;1;0;0.01
12;2;13;26;letter357;letter181;congruent;0.04;letter357;0.09;0.07;fullmask;0.2;arrow_left.png;0.13;c;0.256940699997358;0.2603291000123136;438327.8837907;2.900022082030773e-06;0.5010434999712743;0.5410638999892399;0.5931425999733619;0.662817400007043;0.7924720000009984;1.0513742999755777;0;0;1;0;0.01
12;2;13;27;letter357;letter181;congruent;0.04;letter181;0.09;0.07;fullmask;0.2;arrow_right.png;0.13;m;0.21240409999154508;0.22033709997776896;438329.7798984;3.00002284348011e-06;0.49906110001029447;0.5390829999814741;0.5905390999978408;0.6612150999717414;0.7908673000056297;1.0093815000145696;0;0;1;0;0.01
12;2;13;28;letter357;letter181;congruent;0.04;letter181;0.09;0.07;fullmask;0.2;arrow_right.png;0.13;m;0.2325012999936007;0.23941689997445792;438331.6917518;3.00002284348011e-06;0.5017026999848895;0.5417175000184216;0.5936965000000782;0.6636033999966457;0.7931594999972731;1.0320236000115983;0;0;1;0;0.01
12;2;13;29;letter357;letter181;congruent;0.04;letter357;0.09;0.07;fullmask;0.2;arrow_left.png;0.13;c;0.27938279998488724;0.2803804000141099;438333.6597865;2.8999638743698597e-06;0.4991440000012517;0.5391647999640554;0.5910597000038251;0.660827599989716;0.7904802999692038;1.0695091999950819;0;0;1;0;0.01
12;2;13;30;letter357;letter181;congruent;0.04;letter181;0.09;0.07;fullmask;0.2;arrow_right.png;0.13;c;0.27798800001619384;0.28041820001089945;438335.6198099;2.700020559132099e-06;0.5025645000278018;0.542576200037729;0.5946186000364833;0.664686200034339;0.7940904999850318;1.072920000005979;0;0;1;0;0.01
12;2;13;31;letter357;letter181;congruent;0.04;letter357;0.09;0.07;fullmask;0.2;arrow_left.png;0.13;m;0.2266063000424765;0.22944880003342405;438337.5396919;3.0999653972685337e-06;0.5016048999968916;0.5416246000095271;0.5936584000010043;0.6635587000055239;0.7931310999556445;1.0219467999995686;0;0;1;0;0.01
12;2;13;32;letter357;letter181;congruent;0.04;letter357;0.09;0.07;fullmask;0.2;arrow_left.png;0.13;c;0.30363369995029643;0.3103377999505028;438339.5479572;2.900022082030773e-06;0.504336100013461;0.5443671999964863;0.5963649000041187;0.666430399985984;0.7958347999956459;1.1047255999874324;0;0;1;0;0.01
12;2;13;33;letter357;letter181;congruent;0.04;letter181;0.09;0.07;fullmask;0.2;arrow_right.png;0.13;m;0.24627060000784695;0.25049339997349307;438341.4918522;3.400025889277458e-06;0.5008886000141501;0.5409063000115566;0.5928912999806926;0.6628005999955349;0.7923581000068225;1.0412455999758095;0;0;1;0;0.01
12;2;13;34;letter357;letter181;congruent;0.04;letter357;0.09;0.07;fullmask;0.2;arrow_left.png;0.13;c;0.23486280004726723;0.23942790000000969;438343.4117413;2.900022082030773e-06;0.5015629000263289;0.5415770999970846;0.5936073000193574;0.6635172999813221;0.7930825999937952;1.0319161000079475;0;0;1;0;0.01
12;2;13;35;letter357;letter181;congruent;0.04;letter357;0.09;0.07;fullmask;0.2;arrow_left.png;0.13;m;0.2417295000050217;0.2503417000407353;438345.3397417;2.800021320581436e-06;0.49743230000603944;0.5374483999912627;0.5893620999995619;0.659132500004489;0.788780200004112;1.0377764999866486;0;0;1;0;0.01
12;2;13;36;letter357;letter181;congruent;0.04;letter181;0.09;0.07;fullmask;0.2;arrow_right.png;0.13;m;0.32049280003411695;0.3301560000400059;438347.3398063;2.8999638743698597e-06;0.49541279999539256;0.5354106999584474;0.5873704999685287;0.6571432999917306;0.7868034999701194;1.1157790999859571;0;0;1;0;0.01
12;2;13;37;letter357;letter181;congruent;0.04;letter181;0.09;0.07;fullmask;0.2;arrow_right.png;0.13;m;0.24909169995225966;0.25035879999632016;438349.2997544;2.7999631129205227e-06;0.5028531000134535;0.5428800999652594;0.5948870999854989;0.6646750000072643;0.794326999981422;1.0432140000048093;0;0;1;0;0.01
12;2;13;38;letter357;letter181;congruent;0.04;letter181;0.09;0.07;fullmask;0.2;arrow_right.png;0.13;c;0.289905900019221;0.29032819997519255;438351.2918017;2.700020559132099e-06;0.5038967000436969;0.5439301000442356;0.5958808000432327;0.6657787000294775;0.7954279000405222;1.0842942000017501;0;0;1;0;0.01
12;2;13;39;letter357;letter181;congruent;0.04;letter181;0.09;0.07;fullmask;0.2;arrow_right.png;0.13;m;0.2746296999976039;0.280263599997852;438353.2677316;3.1999661587178707e-06;0.5048485999577679;0.5448580000083894;0.5967442999826744;0.6665161999990232;0.7961706999922171;1.075217999983579;0;0;1;0;0.01
12;2;13;40;letter357;letter181;congruent;0.04;letter357;0.09;0.07;fullmask;0.2;arrow_left.png;0.13;c;0.35528630000771955;0.3600794000085443;438355.2997948;2.900022082030773e-06;0.4952828000532463;0.5352947000064887;0.5873180000344291;0.6569911000551656;0.7866415000171401;0.917300500033889;0;0;0;1;0.01
12;2;13;41;letter357;letter181;congruent;0.04;letter357;0.09;0.07;fullmask;0.2;arrow_left.png;0.13;c;0.2969096999731846;0.3011492000077851;438357.0918674;2.800021320581436e-06;0.5009510000236332;0.5409781999769621;0.5922484999755397;0.6629404000123031;0.792580800014548;1.0913302000262775;0;0;1;0;0.01
12;2;13;42;letter357;letter181;congruent;0.04;letter357;0.09;0.07;fullmask;0.2;arrow_left.png;0.13;c;0.2868374999961816;0.29023460001917556;438359.0837337;3.00002284348011e-06;0.5021957000135444;0.542223600030411;0.5941360000288114;0.6639015999971889;0.7935552000417374;1.0825865000369959;0;0;1;0;0.01
12;2;13;43;letter357;letter181;congruent;0.04;letter181;0.09;0.07;fullmask;0.2;arrow_right.png;0.13;m;0.3336068000062369;0.34010570001555607;438361.0917227;3.00002284348011e-06;0.4950761999934912;0.5350922000361606;0.5869559000129811;0.6567293999833055;0.7863842999795452;0.9170359999989159;0;0;0;1;0.01
12;2;13;44;letter357;letter181;congruent;0.04;letter357;0.09;0.07;fullmask;0.2;arrow_left.png;0.13;c;0.2504755999543704;0.2594820999656804;438362.8199045;2.7999631129205227e-06;0.49878620001254603;0.5388105000020005;0.5908137999940664;0.6607226000051014;0.7902853999985382;1.0491555000189692;0;0;1;0;0.01
12;2;13;45;letter357;letter181;congruent;0.04;letter357;0.09;0.07;fullmask;0.2;arrow_left.png;0.13;c;0.3171089999959804;0.3200732000404969;438364.8278003;2.8999638743698597e-06;0.501436399994418;0.5414540999918245;0.5934558999724686;0.6631258999696001;0.7937571000074968;1.1118181999772787;0;0;1;0;0.01
12;2;13;46;letter357;letter181;congruent;0.04;letter181;0.09;0.07;fullmask;0.2;arrow_right.png;0.13;c;0.21383289998630062;0.2204243000014685;438366.7157238;2.800021320581436e-06;0.49586800002725795;0.5358898999984376;0.5878029000014067;0.6575798999983817;0.7872222000150941;1.006207500002347;0;0;1;0;0.01
12;2;13;47;letter357;letter181;congruent;0.04;letter357;0.09;0.07;fullmask;0.2;arrow_left.png;0.13;c;0.3267510000150651;0.33018649998120964;438368.7397832;3.00002284348011e-06;0.5032251999946311;0.5432466000202112;0.5950588000123389;0.6649730000062846;0.7945346999913454;1.1236539999954402;0;0;1;0;0.01
12;2;13;48;letter357;letter181;congruent;0.04;letter181;0.09;0.07;fullmask;0.2;arrow_right.png;0.13;m;0.24927670002216473;0.250364100036677;438370.6838299;3.3999676816165447e-06;0.5017848999705166;0.541792500007432;0.5938149999710731;0.6634767999639735;0.7931307000108063;1.0421156999655068;0;0;1;0;0.01
