subjnr;loop_m;blocknr;trialnr;cue_left_learn;cue_right_learn; congruence;cue_dur;cue;SOA;mask_dur;mask;target_dur;target;RW_dur;response;RT;kb_rt;response_absolute; fix_onset;cue_onset;cue_offset;mask_onset;mask_offset;target_offset;blank_onset;response_during_mask;response_during_targetalone;response_during_RW;response_during_blank;frame_dur
5;1;1;1;letter181;letter357;congruent;0.04;letter181;0.05;0.07;fullmask;0.3;arrow_left.png;0;c;0.4580774999994901;0.46073660000183736;22938.659449;2.9000002541579306e-06;0.4973549999995157;0.537377299999207;0.5489806000005046;0.6192482000005839;0.8490898000018205;0.8490956999994523;0;0;0;1;0.01
5;1;1;2;letter181;letter357;congruent;0.04;letter181;0.05;0.07;fullmask;0.3;arrow_left.png;0;c;0.32089859999905457;0.3300498999997217;22940.4834969;2.9999973776284605e-06;0.49722470000051544;0.5372489000001224;0.5488315000002331;0.6185974999971222;0.8489074999997683;0.8489293999991787;0;0;0;1;0.01
5;1;1;3;letter181;letter357;congruent;0.04;letter357;0.05;0.07;fullmask;0.3;arrow_right.png;0;m;0.3092257999996946;0.31009880000056;22942.2434663;2.9000002541579306e-06;0.4975254999990284;0.5375534000013431;0.5496291000017663;0.6193246000002546;0.8496913999988465;0.8496973000001162;0;0;0;1;0.01
5;1;1;4;letter181;letter357;congruent;0.04;letter357;0.05;0.07;fullmask;0.3;arrow_right.png;0;m;0.2761352999987139;0.2802626999982749;22943.9714517;3.0000010156072676e-06;0.4963175000011688;0.5363273000002664;0.5483646000029694;0.6181381000023976;0.8286283000015828;0.8286307000016677;0;1;0;0;0.01
5;1;1;5;letter181;letter357;congruent;0.04;letter357;0.05;0.07;fullmask;0.3;arrow_right.png;0;c;0.26695960000142804;0.2693342999991728;22945.6834338;2.9999973776284605e-06;0.49910299999828567;0.5391467999979795;0.5512076999984856;0.621111699998437;0.8205412999996042;0.8205437999968126;0;1;0;0;0.01
5;1;1;6;letter181;letter357;congruent;0.04;letter181;0.05;0.07;fullmask;0.3;arrow_left.png;0;c;0.29480539999713073;0.30117649999738205;22947.6116189;3.0000010156072676e-06;0.502274700000271;0.5422980000003008;0.5534947000014654;0.6241373000011663;0.8546795000002021;0.854687200000626;0;1;0;0;0.01
5;1;1;7;letter181;letter357;congruent;0.04;letter181;0.05;0.07;fullmask;0.3;arrow_left.png;0;c;0.3110562000001664;0.32007549999980256;22949.3794427;2.9000002541579306e-06;0.5022050999978092;0.5422077999974135;0.5538664999985485;0.6235670999994909;0.8539333999979135;0.8539393999999447;0;0;0;1;0.01
5;1;1;8;letter181;letter357;congruent;0.04;letter357;0.05;0.07;fullmask;0.3;arrow_right.png;0;m;0.26423549999890383;0.2703317999985302;22951.0833995;2.9000002541579306e-06;0.4965869000006933;0.5366092000003846;0.5479086000013922;0.6178026000015961;0.8182396999982302;0.8182424000005994;0;1;0;0;0.01
5;1;1;9;letter181;letter357;congruent;0.04;letter181;0.05;0.07;fullmask;0.3;arrow_left.png;0;c;0.2744456000000355;0.27930560000095284;22952.7954721;2.9000002541579306e-06;0.4977099999996426;0.5377298000021256;0.5498089000029722;0.6197123000019928;0.8291140000001178;0.8291167999996105;0;1;0;0;0.01
5;1;1;10;letter181;letter357;congruent;0.04;letter181;0.05;0.07;fullmask;0.3;arrow_left.png;0;c;0.32324099999823375;0.3301783999995678;22954.5554369;3.0999981390777975e-06;0.5014000999981363;0.5414161999979115;0.5535694999998668;0.6234717999977875;0.8527637999977742;0.8527700999984518;0;0;0;1;0.01
5;1;1;11;letter181;letter357;congruent;0.04;letter357;0.05;0.07;fullmask;0.3;arrow_right.png;0;m;0.2740750000011758;0.27907929999855696;22956.2674693;2.9000002541579306e-06;0.49552720000065165;0.5355510000008508;0.5477777999985847;0.6174723999974958;0.8268511999995098;0.8268537000003562;0;1;0;0;0.01
5;1;1;12;letter181;letter357;congruent;0.04;letter357;0.05;0.07;fullmask;0.3;arrow_right.png;0;m;0.3080463000005693;0.31108470000253874;22958.0114679;2.7999994927085936e-06;0.4989873999984411;0.5389923000002455;0.5501414999998815;0.6209051000005275;0.851203499998519;0.8512101000014809;0;0;0;1;0.01
5;1;1;13;letter181;letter357;congruent;0.04;letter357;0.05;0.07;fullmask;0.3;arrow_right.png;0;m;0.31793979999929434;0.3200821000027645;22959.763449;3.0000010156072676e-06;0.495661699998891;0.5356968000014604;0.5478034000007028;0.6174998999995296;0.8478681000015058;0.8478743000014219;0;0;0;1;0.01
5;1;1;14;letter181;letter357;congruent;0.04;letter181;0.05;0.07;fullmask;0.3;arrow_left.png;0;c;0.31095400000049267;0.3201575999992201;22961.5075098;2.7999994927085936e-06;0.49941839999883086;0.5394581000000471;0.5514839999996184;0.6212536000020918;0.8516452000003483;0.8516515000010259;0;0;0;1;0.01
5;1;1;15;letter181;letter357;congruent;0.04;letter181;0.05;0.07;fullmask;0.3;arrow_left.png;0;m;0.20373100000142585;0.2094595999988087;22963.1714327;3.3000032999552786e-06;0.500527800002601;0.540541000002122;0.5525751000022865;0.6223534000018844;0.7620356000006723;0.7620381000015186;0;1;0;0;0.01
5;1;1;16;letter181;letter357;congruent;0.04;letter357;0.05;0.07;fullmask;0.3;arrow_right.png;0;m;0.2885669000024791;0.2902399000013247;22965.1074349;3.0000010156072676e-06;0.4988610000000335;0.538874300000316;0.5508994999981951;0.6206751999998232;0.8411405999977433;0.8411430999985896;0;1;0;0;0.01
5;1;1;17;letter181;letter357;congruent;0.04;letter181;0.05;0.07;fullmask;0.3;arrow_left.png;0;c;0.2613770000025397;0.27033210000081453;22966.8114362;3.0000010156072676e-06;0.49936180000077;0.5393900000017311;0.5514872000021569;0.6211846000005607;0.8218223000003491;0.8218303000030573;0;1;0;0;0.01
5;1;1;18;letter181;letter357;congruent;0.04;letter181;0.05;0.07;fullmask;0.3;arrow_left.png;0;c;0.3985361000013654;0.40009659999850555;22968.6597088;3.0000010156072676e-06;0.4964233000027889;0.5364339000007021;0.5485557000029075;0.6183681000002252;0.8477502000023378;0.8477560999999696;0;0;0;1;0.01
5;1;1;19;letter181;letter357;congruent;0.04;letter181;0.05;0.07;fullmask;0.3;arrow_left.png;0;c;0.3332245999990846;0.3401020999990578;22970.4354397;2.7999994927085936e-06;0.49455010000019684;0.534572600001411;0.546550600000046;0.6163200000009965;0.8467022000004363;0.846708299999591;0;0;0;1;0.01
5;1;1;20;letter181;letter357;congruent;0.04;letter357;0.05;0.07;fullmask;0.3;arrow_right.png;0;m;0.2860335000004852;0.2901965000019118;22972.1794824;3.1000017770566046e-06;0.5004345999986981;0.540454599999066;0.5525183999998262;0.6223004999992554;0.8427172000010614;0.8427197999990312;0;1;0;0;0.01
5;1;1;21;letter181;letter357;congruent;0.04;letter357;0.05;0.07;fullmask;0.3;arrow_right.png;0;m;0.266868800001248;0.2702948000005563;22973.9314224;3.1999989005271345e-06;0.5009963000011339;0.5410168999987945;0.5530376999995497;0.622818499999994;0.823333399999683;0.8233356999990065;0;1;0;0;0.01
5;1;1;22;letter181;letter357;congruent;0.04;letter357;0.05;0.07;fullmask;0.3;arrow_right.png;0;m;0.30781740000020363;0.3103575999994064;22975.6835271;3.0000010156072676e-06;0.5022864999991725;0.5423037000000477;0.5543896999988647;0.6242945999983931;0.854585599998245;0.8546077999999397;0;0;0;1;0.01
5;1;1;23;letter181;letter357;congruent;0.04;letter357;0.05;0.07;fullmask;0.3;arrow_right.png;0;c;0.17312390000006417;0.18056849999993574;22977.2995761;2.7999994927085936e-06;0.49855309999838937;0.5385769999993499;0.5502756999994745;0.6199720999975398;0.7308473999983107;0.730855399997381;0;1;0;0;0.01
5;1;1;24;letter181;letter357;congruent;0.04;letter181;0.05;0.07;fullmask;0.3;arrow_left.png;0;c;0.23347289999946952;0.23937759999898844;22979.1713878;2.9000002541579306e-06;0.5034962999998243;0.5435223999993468;0.5555314999983239;0.6253040999981749;0.7949098999997659;0.7949122999998508;0;1;0;0;0.01
5;1;1;25;letter181;letter357;congruent;0.04;letter357;0.05;0.07;fullmask;0.3;arrow_right.png;0.13;m;0.410012899999856;0.4198480999984895;23040.6274086;3.0000010156072676e-06;0.49734840000019176;0.5373804999981076;0.5495129000009911;0.6192442999999912;0.8496258999985002;1.167774499997904;0;0;1;0;0.01
5;1;1;26;letter181;letter357;congruent;0.04;letter181;0.05;0.07;fullmask;0.3;arrow_left.png;0.13;c;0.31480889999875217;0.3201571999998123;23042.6034147;3.0000010156072676e-06;0.4973399000009522;0.5373541000008117;0.5493943000001309;0.6191631000001507;0.8495527999984915;1.06771099999969;0;0;1;0;0.01
5;1;1;27;letter181;letter357;congruent;0.04;letter181;0.05;0.07;fullmask;0.3;arrow_left.png;0.13;c;0.3156157000012172;0.32016090000252007;23044.5553673;3.4000004234258085e-06;0.5007542999992438;0.5407678000010492;0.5526998999994248;0.6224762000019837;0.852859400001762;1.0711193999995885;0;0;1;0;0.01
5;1;1;28;letter181;letter357;congruent;0.04;letter357;0.05;0.07;fullmask;0.3;arrow_right.png;0.13;m;0.26419979999991483;0.26933650000137277;23046.4753914;3.1999989005271345e-06;0.504289600001357;0.5443075000002864;0.5564094000001205;0.6263150000013411;0.8257450999990397;0.825747599999886;0;1;0;0;0.01
5;1;1;29;letter181;letter357;congruent;0.04;letter181;0.05;0.07;fullmask;0.3;arrow_left.png;0.13;c;0.4590968000011344;0.4598231999989366;23048.3713997;3.0000010156072676e-06;0.5041304000005766;0.5441386999991664;0.55627000000095;0.6261750000012398;0.8554650000005495;0.986123899998347;0;0;0;1;0.01
5;1;1;30;letter181;letter357;congruent;0.04;letter181;0.05;0.07;fullmask;0.3;arrow_left.png;0.13;c;0.3519015000019863;0.36008940000101575;23050.1553834;2.9999973776284605e-06;0.4995156999975734;0.5395272999994631;0.5516141000007337;0.6215276000002632;0.8518060999995214;1.109908300000825;0;0;1;0;0.01
5;1;1;31;letter181;letter357;congruent;0.04;letter357;0.05;0.07;fullmask;0.3;arrow_right.png;0.13;m;0.35076000000117347;0.3601907000011124;23052.1555672;2.7999994927085936e-06;0.5047658000003139;0.5447813999999198;0.5569192000002658;0.6268134000019927;0.8561045999995258;1.115189600001031;0;0;1;0;0.01
5;1;1;32;letter181;letter357;congruent;0.04;letter357;0.05;0.07;fullmask;0.3;arrow_right.png;0.13;m;0.42148900000029244;0.4298056000006909;23054.2275748;2.9999973776284605e-06;0.4993746999971336;0.5394014999983483;0.5515175000000454;0.6212073999995482;0.8515912999973807;1.1798137999976461;0;0;1;0;0.01
5;1;1;33;letter181;letter357;congruent;0.04;letter357;0.05;0.07;fullmask;0.3;arrow_right.png;0.13;m;0.44393469999704394;0.4498427999969863;23056.3313856;2.7999994927085936e-06;0.5023399999990943;0.5423574999986158;0.5544941000007384;0.6244210999975621;0.8536733999972057;0.984321899999486;0;0;0;1;0.01
5;1;1;34;letter181;letter357;congruent;0.04;letter181;0.05;0.07;fullmask;0.3;arrow_left.png;0.13;c;0.2888357999981963;0.28924990000086837;23058.0674768;2.9000002541579306e-06;0.5018519000004744;0.541876900002535;0.5539897000016936;0.6238926000005449;0.8432385000014619;0.8432411000030697;0;1;0;0;0.01
5;1;1;35;letter181;letter357;congruent;0.04;letter181;0.05;0.07;fullmask;0.3;arrow_left.png;0.13;c;0.4636242000015045;0.46966170000087004;23059.9633899;3.4000004234258085e-06;0.4992454999992333;0.5392487999997684;0.5514072000005399;0.6210661999975855;0.8514713000004122;0.981114999998681;0;0;0;1;0.01
5;1;1;36;letter181;letter357;congruent;0.04;letter357;0.05;0.07;fullmask;0.3;arrow_right.png;0.13;m;0.38851380000050995;0.38992789999974775;23061.7794804;3.0000010156072676e-06;0.4949218000001565;0.5348999000016192;0.5470380000006116;0.6167325999995228;0.8471162999994704;1.1353038000015658;0;0;1;0;0.01
5;1;1;37;letter181;letter357;congruent;0.04;letter181;0.05;0.07;fullmask;0.3;arrow_left.png;0.13;c;0.2910818999989715;0.29924300000129733;23063.7233794;3.1000017770566046e-06;0.49961400000029244;0.5396126000014192;0.5517756000008376;0.6216710000007879;0.8510176000017964;0.8510200999990047;0;1;0;0;0.01
5;1;1;38;letter181;letter357;congruent;0.04;letter181;0.05;0.07;fullmask;0.3;arrow_left.png;0.13;c;0.47606900000027963;0.47977909999826807;23065.6594201;3.2000025385059416e-06;0.4966777000008733;0.5366972000010719;0.5487892000019201;0.6186062000015227;0.8489831000006234;0.9786418000003323;0;0;0;1;0.01
5;1;1;39;letter181;letter357;congruent;0.04;letter357;0.05;0.07;fullmask;0.3;arrow_right.png;0.13;m;0.26281359999848064;0.26929810000001453;23067.3873794;2.9000002541579306e-06;0.5041991000034614;0.5442201000005298;0.5562621000026411;0.6260413000018161;0.8255610000014713;0.8255635000023176;0;1;0;0;0.01
5;1;1;40;letter181;letter357;congruent;0.04;letter357;0.05;0.07;fullmask;0.3;arrow_right.png;0.13;m;0.3678781999988132;0.3700293999972928;23069.2033534;2.9999973776284605e-06;0.4969052999986161;0.5369280999984767;0.5487880999971821;0.6185731999976269;0.8489626999980828;1.117309599998407;0;0;1;0;0.01
5;1;1;41;letter181;letter357;congruent;0.04;letter357;0.05;0.07;fullmask;0.3;arrow_right.png;0.13;m;0.4904608000033477;0.49962630000300123;23071.3474042;3.1000017770566046e-06;0.503500200000417;0.5435354000001098;0.5555454000023019;0.6254393000017444;0.8557356000019354;0.9853863999996975;0;0;0;1;0.01
5;1;1;42;letter181;letter357;congruent;0.04;letter181;0.05;0.07;fullmask;0.3;arrow_left.png;0.13;c;0.4756946000015887;0.48073830000066664;23073.2833829;2.9000002541579306e-06;0.502645600001415;0.5426614999996673;0.5541833000024781;0.6239571000005526;0.8543472000019392;0.9850006000015128;0;0;0;1;0.01
5;1;1;43;letter181;letter357;congruent;0.04;letter357;0.05;0.07;fullmask;0.3;arrow_right.png;0.13;m;0.2348240999999689;0.24028720000205794;23074.9633897;3.1000017770566046e-06;0.49522760000036214;0.5352286999986973;0.546381799998926;0.6171543999989808;0.7866681999985303;0.7866706999993767;0;1;0;0;0.01
5;1;1;44;letter181;letter357;congruent;0.04;letter357;0.05;0.07;fullmask;0.3;arrow_right.png;0.13;m;0.46498390000124346;0.46987459999945713;23076.8754582;2.8000031306874007e-06;0.4969901000004029;0.5370154000011098;0.5490156000014395;0.6187989000027301;0.8491848000012396;0.9788364000014553;0;0;0;1;0.01
5;1;1;45;letter181;letter357;congruent;0.04;letter181;0.05;0.07;fullmask;0.3;arrow_left.png;0.13;c;0.3858354000003601;0.389999799997895;23078.7074356;3.0000010156072676e-06;0.4990570000009029;0.5390805999995791;0.5509639000010793;0.6207333999991533;0.8511252999996941;1.1394609000017226;0;0;1;0;0.01
5;1;1;46;letter181;letter357;congruent;0.04;letter357;0.05;0.07;fullmask;0.3;arrow_right.png;0.13;m;0.2505622000026051;0.26036720000047353;23080.6034164;2.7999994927085936e-06;0.49523079999926267;0.5352439999987837;0.547096700000111;0.6169134999981907;0.8074627999994846;0.8074651999995694;0;1;0;0;0.01
5;1;1;47;letter181;letter357;congruent;0.04;letter181;0.05;0.07;fullmask;0.3;arrow_left.png;0.13;c;0.3371697000002314;0.3401554000010947;23082.3713798;3.2000025385059416e-06;0.4988851000016439;0.5389080000022659;0.5510270000013406;0.6209300000009534;0.850227700000687;1.089262299999973;0;0;1;0;0.01
5;1;1;48;letter181;letter357;congruent;0.04;letter181;0.05;0.07;fullmask;0.3;arrow_left.png;0.13;c;0.4779084000001603;0.4797796999991988;23084.4833722;2.9000002541579306e-06;0.49736720000146306;0.5373757999986992;0.5495009000005666;0.6194088000011106;0.8497023999989324;0.9793549999994866;0;0;0;1;0.01
5;1;2;1;letter181;letter357;congruent;0.04;letter357;0.05;0.07;fullmask;0.25;arrow_right.png;0.13;m;0.4482251000008546;0.44983570000113104;23096.6914076;3.0000010156072676e-06;0.5021212000028754;0.5421470000001136;0.5541275000032329;0.6239287999997032;0.8034494000021368;0.934101599999849;0;0;0;1;0.01
5;1;2;2;letter181;letter357;congruent;0.04;letter181;0.05;0.07;fullmask;0.25;arrow_left.png;0.13;c;0.29079279999859864;0.2992669000013848;23098.4353675;3.0000010156072676e-06;0.49967409999953816;0.5396805000018503;0.5518338000001677;0.6217403000009654;0.801170099999581;1.0500151999985974;0;0;1;0;0.01
5;1;2;3;letter181;letter357;congruent;0.04;letter181;0.05;0.07;fullmask;0.25;arrow_left.png;0.13;c;0.4376467000001867;0.44036380000034114;23100.5234502;3.1999989005271345e-06;0.5008128999979817;0.5408485000007204;0.5529655999998795;0.622869200000423;0.8026643999983207;0.9323268000007374;0;0;0;1;0.01
5;1;2;4;letter181;letter357;congruent;0.04;letter357;0.05;0.07;fullmask;0.25;arrow_right.png;0.13;m;0.43642370000088704;0.4399894999987737;23102.4034456;3.0000010156072676e-06;0.5037018000002718;0.5437246000001323;0.5558612000022549;0.6257648999999219;0.805195900000399;0.9358438000017486;0;0;0;1;0.01
5;1;2;5;letter181;letter357;congruent;0.04;letter181;0.05;0.07;fullmask;0.25;arrow_left.png;0.13;c;0.33512270000210265;0.3400134000003163;23104.2033678;2.9000002541579306e-06;0.5031168999994406;0.5431287999999768;0.5552647000004072;0.6249305999990611;0.8044518999995489;1.093501200000901;0;0;1;0;0.01
5;1;2;6;letter181;letter357;congruent;0.04;letter181;0.05;0.07;fullmask;0.25;arrow_left.png;0.13;c;0.3160262999990664;0.3201502000010805;23106.1554166;3.0999981390777975e-06;0.49578049999763607;0.5357959999964805;0.5478260999989288;0.6174848999980895;0.797115199999098;1.0661473000000115;0;0;1;0;0.01
5;1;2;7;letter181;letter357;congruent;0.04;letter357;0.05;0.07;fullmask;0.25;arrow_right.png;0.13;m;0.28871589999835123;0.29023830000005546;23108.0994068;3.0000010156072676e-06;0.5044630999982473;0.5445110000000568;0.5565349999997125;0.626307700000325;0.8058334000015748;1.0448150999982317;0;0;1;0;0.01
5;1;2;8;letter181;letter357;congruent;0.04;letter181;0.05;0.07;fullmask;0.25;arrow_left.png;0.13;c;0.25540230000115116;0.25934910000069067;23109.987367;3.0000010156072676e-06;0.4974919000014779;0.5375181000017619;0.5495921000001545;0.619485800001712;0.7989164000027813;1.0078056000020297;0;0;1;0;0.01
5;1;2;9;letter181;letter357;congruent;0.04;letter181;0.05;0.07;fullmask;0.25;arrow_left.png;0.13;c;0.3421422000028542;0.3499699000021792;23111.9953687;2.9000002541579306e-06;0.503383200000826;0.5434061999985715;0.5555423000005248;0.6252127000007022;0.8047454000006837;1.1037686999989091;0;0;1;0;0.01
5;1;2;10;letter181;letter357;congruent;0.04;letter357;0.05;0.07;fullmask;0.25;arrow_right.png;0.13;m;0.4229234999984328;0.42986629999722936;23114.0673642;3.1999989005271345e-06;0.5012119999992137;0.5412446999980602;0.5533025999975507;0.6230860999967263;0.8026106999968761;0.933255799998733;0;0;0;1;0.01
5;1;2;11;letter181;letter357;congruent;0.04;letter357;0.05;0.07;fullmask;0.25;arrow_right.png;0.13;m;0.3422272999996494;0.35008379999999306;23115.8673679;3.1000017770566046e-06;0.49828680000064196;0.5383093999989796;0.5498692000001029;0.6196409000003769;0.8001524999999674;1.0986688000011782;0;0;1;0;0.01
5;1;2;12;letter181;letter357;congruent;0.04;letter357;0.05;0.07;fullmask;0.25;arrow_right.png;0.13;m;0.2953263000017614;0.30026379999981145;23117.8113468;3.1000017770566046e-06;0.49677299999893876;0.536769499998627;0.5479338000004645;0.6187448999990011;0.7982668000004196;1.047105300000112;0;0;1;0;0.01
5;1;2;13;letter181;letter357;congruent;0.04;letter181;0.05;0.07;fullmask;0.25;arrow_left.png;0.13;c;0.3511089000021457;0.3599701000021014;23119.8193968;3.1000017770566046e-06;0.5039600000018254;0.5439904000013485;0.556159600000683;0.6258290000005218;0.8053611000032106;1.1143501000005926;0;0;1;0;0.01
5;1;2;14;letter181;letter357;congruent;0.04;letter181;0.05;0.07;fullmask;0.25;arrow_left.png;0.13;c;0.3259351999986393;0.3301337000011699;23121.8753682;3.0999981390777975e-06;0.5039775000004738;0.5439961000010953;0.5559858999986318;0.6257595999995829;0.8052834999980405;1.0843529000012495;0;0;1;0;0.01
5;1;2;15;letter181;letter357;congruent;0.04;letter181;0.05;0.07;fullmask;0.25;arrow_left.png;0.13;c;0.4105759999984002;0.4200295999980881;23123.9313395;3.0000010156072676e-06;0.5000030000010156;0.5400174000023981;0.5520756000005349;0.6219841000020097;0.8015029000016511;0.9321550999993633;0;0;0;1;0.01
5;1;2;16;letter181;letter357;congruent;0.04;letter357;0.05;0.07;fullmask;0.25;arrow_right.png;0.13;m;0.45348509999894304;0.4598151999998663;23125.8355676;3.2999996619764715e-06;0.5011979999981122;0.5412246999985655;0.553404700000101;0.6230983999994351;0.8026213999983156;0.9332699999977194;0;0;0;1;0.01
5;1;2;17;letter181;letter357;congruent;0.04;letter357;0.05;0.07;fullmask;0.25;arrow_right.png;0.13;m;0.3520797999990464;0.36009679999915534;23127.6353484;2.8000031306874007e-06;0.5046149000008882;0.544631600001594;0.5567737000019406;0.6266768000023148;0.8061019000015222;1.1150196000016876;0;0;1;0;0.01
5;1;2;18;letter181;letter357;congruent;0.04;letter357;0.05;0.07;fullmask;0.25;arrow_right.png;0.13;m;0.3130401999987953;0.32016700000167475;23129.587395;2.7999994927085936e-06;0.5033788000000641;0.5434010999997554;0.5553389000015159;0.6251530000008643;0.8056601999996928;1.073737999999139;0;0;1;0;0.01
5;1;2;19;letter181;letter357;congruent;0.04;letter181;0.05;0.07;fullmask;0.25;arrow_left.png;0.13;c;0.2975805999994918;0.30025649999879533;23131.5233535;3.5000011848751456e-06;0.5016815999988467;0.5417091000017535;0.5538239000015892;0.6237259000008635;0.8041565999992599;1.0520405999996;0;0;1;0;0.01
5;1;2;20;letter181;letter357;congruent;0.04;letter357;0.05;0.07;fullmask;0.25;arrow_right.png;0.13;m;0.23639720000210218;0.2394430000022112;23133.403394;2.7999994927085936e-06;0.5005522999999812;0.5405501999994158;0.5526298000004317;0.6225331999994523;0.7920725000003586;0.7920749999975669;0;1;0;0;0.01
5;1;2;21;letter181;letter357;congruent;0.04;letter357;0.05;0.07;fullmask;0.25;arrow_right.png;0.13;m;0.33532170000034967;0.34010489999855054;23135.2033568;2.7999994927085936e-06;0.5014044999988982;0.5414223999978276;0.5534650000008696;0.6232395000006363;0.8027565000011236;1.091799900001206;0;0;1;0;0.01
5;1;2;22;letter181;letter357;congruent;0.04;letter181;0.05;0.07;fullmask;0.25;arrow_left.png;0.13;c;0.2985633999996935;0.30023980000260053;23137.1474177;3.2000025385059416e-06;0.4994492000005266;0.5394826000010653;0.5510426000000734;0.6207404000015231;0.8012491000008595;1.049782400001277;0;0;1;0;0.01
5;1;2;23;letter181;letter357;congruent;0.04;letter357;0.05;0.07;fullmask;0.25;arrow_right.png;0.13;m;0.24885229999927105;0.24933660000169766;23139.0594216;3.2000025385059416e-06;0.503427700001339;0.5434435000024678;0.5554875000016182;0.6252655999996932;0.8048249000021315;0.8048273999993398;0;1;0;0;0.01
5;1;2;24;letter181;letter357;congruent;0.04;letter181;0.05;0.07;fullmask;0.25;arrow_left.png;0.13;c;0.33453430000008666;0.3410017999995034;23140.8353474;3.1000017770566046e-06;0.4950280000011844;0.5350274000011268;0.5462378000011086;0.6169049000018276;0.7964157999995223;1.08540510000239;0;0;1;0;0.01
5;1;2;25;letter181;letter357;congruent;0.04;letter181;0.05;0.07;fullmask;0.25;arrow_left.png;0.13;c;0.363245000000461;0.3709247000006144;23142.835348;3.0999981390777975e-06;0.5000403999983973;0.5400603999987652;0.5512696000005235;0.6220238999994763;0.8014538999996148;1.120451899998443;0;0;1;0;0.01
5;1;2;26;letter181;letter357;congruent;0.04;letter181;0.05;0.07;fullmask;0.25;arrow_left.png;0.13;c;0.2831541000014113;0.29016000000046915;23144.7873523;2.9000002541579306e-06;0.5034078000026057;0.5434055000005173;0.5554191000010178;0.6251164000022982;0.8056168000002799;1.0437498999999661;0;0;1;0;0.01
5;1;2;27;letter181;letter357;congruent;0.04;letter357;0.05;0.07;fullmask;0.25;arrow_right.png;0.13;m;0.3300320999987889;0.34011289999762084;23146.7554833;2.6999987312592566e-06;0.5009731999998621;0.5410119000007398;0.5530432999985351;0.6228167000008398;0.8023408000008203;1.0913938000012422;0;0;1;0;0.01
5;1;2;28;letter181;letter357;congruent;0.04;letter357;0.05;0.07;fullmask;0.25;arrow_right.png;0.13;m;0.27870469999834313;0.28026129999852856;23148.675386;2.7999994927085936e-06;0.4988116999993508;0.5388239000021713;0.5508190000000468;0.620590300000913;0.8001121000015701;1.02915380000195;0;0;1;0;0.01
5;1;2;29;letter181;letter357;congruent;0.04;letter357;0.05;0.07;fullmask;0.25;arrow_right.png;0.13;m;0.42132870000205;0.4299127000012959;23150.7393717;3.1000017770566046e-06;0.5007499000021198;0.540773700002319;0.5528961000018171;0.6227985000004992;0.8022255000032601;0.9328815000008035;0;0;0;1;0.01
5;1;2;30;letter181;letter357;congruent;0.04;letter181;0.05;0.07;fullmask;0.25;arrow_left.png;0.13;c;0.31807320000007167;0.32020750000083353;23152.5073428;3.0000010156072676e-06;0.5027221999989706;0.5427314000007755;0.5548847999998543;0.6247903000003134;0.8042123999985051;1.0730986000016856;0;0;1;0;0.01
5;1;2;31;letter181;letter357;congruent;0.04;letter181;0.05;0.07;fullmask;0.25;arrow_left.png;0.13;c;0.4148717000025499;0.4199739000032423;23154.555335;2.8999966161791235e-06;0.5022568999993382;0.5422812999968301;0.5543776999984402;0.6242859999983921;0.8037134999976843;0.9343681999998807;0;0;0;1;0.01
5;1;2;32;letter181;letter357;congruent;0.04;letter181;0.05;0.07;fullmask;0.25;arrow_left.png;0.13;c;0.289817500000936;0.2902073000004748;23156.2915089;3.4000004234258085e-06;0.4953330000025744;0.5353517000003194;0.547477500000241;0.6170454000020982;0.7976469000022917;1.035675999999512;0;0;1;0;0.01
5;1;2;33;letter181;letter357;congruent;0.04;letter357;0.05;0.07;fullmask;0.25;arrow_right.png;0.13;m;0.28042289999939385;0.28926679999858607;23158.2034011;2.9000002541579306e-06;0.49675599999682163;0.5367971999985457;0.5489348999981303;0.6188215999973181;0.7982578999981342;1.03711679999833;0;0;1;0;0.01
5;1;2;34;letter181;letter357;congruent;0.04;letter357;0.05;0.07;fullmask;0.25;arrow_right.png;0.13;m;0.3032712999993237;0.310280599998805;23160.1873862;3.0000010156072676e-06;0.5015931999987515;0.541608700001234;0.553664300001401;0.6234285999998974;0.8029618000000482;1.0619478000007803;0;0;1;0;0.01
5;1;2;35;letter181;letter357;congruent;0.04;letter181;0.05;0.07;fullmask;0.25;arrow_left.png;0.13;c;0.29591960000107065;0.3001433999997971;23162.1313774;2.9000002541579306e-06;0.4989153999995324;0.5389325999967696;0.5510785999977088;0.6207580999980564;0.8002769999984594;1.0492776999999478;0;0;1;0;0.01
5;1;2;36;letter181;letter357;congruent;0.04;letter357;0.05;0.07;fullmask;0.25;arrow_right.png;0.13;m;0.35469910000028904;0.36008360000050743;23164.1314142;3.1000017770566046e-06;0.5026221000007354;0.5426401000004262;0.5548101000022143;0.6244905999992625;0.8050244000005478;1.1130359000017052;0;0;1;0;0.01
5;1;2;37;letter181;letter357;congruent;0.04;letter357;0.05;0.07;fullmask;0.25;arrow_right.png;0.13;m;0.24748629999885452;0.24935089999780757;23166.0353397;2.7999994927085936e-06;0.49806399999943096;0.5380898000003072;0.5500888000024133;0.6198614000022644;0.7994407000005594;0.7994431000006443;0;1;0;0;0.01
5;1;2;38;letter181;letter357;congruent;0.04;letter181;0.05;0.07;fullmask;0.25;arrow_left.png;0.13;c;0.4203576999971119;0.4299111999971501;23167.8994153;3.1000017770566046e-06;0.5029076999999234;0.542928099999699;0.555046500001481;0.6249523000005865;0.8043758000021626;0.9350352000001294;0;0;0;1;0.01
5;1;2;39;letter181;letter357;congruent;0.04;letter357;0.05;0.07;fullmask;0.25;arrow_right.png;0.13;m;0.4131581000001461;0.41988409999976284;23169.7633346;2.7999994927085936e-06;0.4984739999999874;0.5384952000022167;0.5505283000020427;0.6203021000001172;0.7998244000009436;0.9304637000022922;0;0;0;1;0.01
5;1;2;40;letter181;letter357;congruent;0.04;letter357;0.05;0.07;fullmask;0.25;arrow_right.png;0.13;m;0.2719526999972004;0.2793079000002763;23171.4833524;3.0000010156072676e-06;0.5013084999991406;0.5413315000005241;0.5534015000012005;0.6233374000003096;0.8027388000009523;1.0316727999997966;0;0;1;0;0.01
5;1;2;41;letter181;letter357;congruent;0.04;letter181;0.05;0.07;fullmask;0.25;arrow_left.png;0.13;c;0.32298850000006496;0.3303840000007767;23173.475679;3.0999981390777975e-06;0.5044328000003588;0.5444528000007267;0.5565612999998848;0.6262380000007397;0.8067528999999922;1.0848079999996116;0;0;1;0;0.01
5;1;2;42;letter181;letter357;congruent;0.04;letter357;0.05;0.07;fullmask;0.25;arrow_right.png;0.13;m;0.20543019999968237;0.2094558999997389;23175.3393391;3.2999996619764715e-06;0.49735710000095423;0.5373790000012377;0.5494249000003038;0.6191937000003236;0.7588819000011426;0.7588843000012275;0;1;0;0;0.01
5;1;2;43;letter181;letter357;congruent;0.04;letter357;0.05;0.07;fullmask;0.25;arrow_right.png;0.13;m;0.3784281000007468;0.3799868999994942;23177.1634166;3.1000017770566046e-06;0.5006828000005044;0.5406984000001103;0.5527738000018871;0.6225355999995372;0.8020566000013787;1.1310696000000462;0;0;1;0;0.01
5;1;2;44;letter181;letter357;congruent;0.04;letter357;0.05;0.07;fullmask;0.25;arrow_right.png;0.13;m;0.3170733000006294;0.3201667000030284;23179.1233296;2.7999994927085936e-06;0.4989339000021573;0.5389624000017648;0.5510109000024386;0.6207920000015292;0.8003065000011702;1.0693210999997973;0;0;1;0;0.01
5;1;2;45;letter181;letter357;congruent;0.04;letter181;0.05;0.07;fullmask;0.25;arrow_left.png;0.13;c;0.3300147999980254;0.33035499999823514;23181.1074785;2.9000002541579306e-06;0.5046543999997084;0.5446837999988929;0.5566614999988815;0.6265672000008635;0.8060842999984743;1.0850418000009086;0;0;1;0;0.01
5;1;2;46;letter181;letter357;congruent;0.04;letter181;0.05;0.07;fullmask;0.25;arrow_left.png;0.13;c;0.4434209999999439;0.4507177999985288;23183.1713315;3.0999981390777975e-06;0.4961519999997108;0.5361955999978818;0.547348799998872;0.6180194999978994;0.7975382000004174;0.9281988000002457;0;0;0;1;0.01
5;1;2;47;letter181;letter357;congruent;0.04;letter181;0.05;0.07;fullmask;0.25;arrow_left.png;0.13;c;0.30337299999882816;0.31018029999904684;23184.9233388;2.8999966161791235e-06;0.5023185999998532;0.542338799998106;0.5543644999997923;0.6241397999983747;0.8036477999994531;1.0626875999987533;0;0;1;0;0.01
5;1;2;48;letter181;letter357;congruent;0.04;letter181;0.05;0.07;fullmask;0.25;arrow_left.png;0.13;c;0.2961217000010947;0.3002674000017578;23186.8673967;3.0999981390777975e-06;0.49763639999946463;0.5376305999998294;0.5497044999974605;0.6196223999977519;0.7990215999998327;1.0479562000000442;0;0;1;0;0.01
5;1;3;1;letter181;letter357;congruent;0.04;letter181;0.05;0.07;fullmask;0.2;arrow_left.png;0.13;c;0.42489430000205175;0.4299793000027421;23191.8993296;3.2000025385059416e-06;0.49808020000273245;0.5380997000029311;0.5501813000009861;0.6201144000006025;0.7496792000019923;0.8803299999999581;0;0;0;1;0.01
5;1;3;2;letter181;letter357;congruent;0.04;letter357;0.05;0.07;fullmask;0.2;arrow_right.png;0.13;m;0.15566039999976056;0.15963330000158749;23193.4913203;2.9000002541579306e-06;0.5037403999995149;0.5437597999989521;0.5558856999996351;0.6258023000009416;0.7155186000018148;0.7155210999990231;0;1;0;0;0.01
5;1;3;3;letter181;letter357;congruent;0.04;letter357;0.05;0.07;fullmask;0.2;arrow_right.png;0.13;c;0.17264839999916148;0.17944400000124006;23195.0993207;3.1000017770566046e-06;0.494987800000672;0.5350084000019706;0.5471360000010463;0.6168097000008856;0.7265737000016088;0.7265761999988172;0;1;0;0;0.01
5;1;3;4;letter181;letter357;congruent;0.04;letter357;0.05;0.07;fullmask;0.2;arrow_right.png;0.13;c;0.23189669999919715;0.23951060000035795;23196.7796332;2.9000002541579306e-06;0.49925590000202646;0.5392762000010407;0.5514040000016394;0.6212993000008282;0.7508608999996795;0.9895491000024776;0;0;1;0;0.01
5;1;3;5;letter181;letter357;congruent;0.04;letter181;0.05;0.07;fullmask;0.2;arrow_left.png;0.13;c;0.28926030000002356;0.29027729999870644;23198.7073185;3.1999989005271345e-06;0.5044289999968896;0.5444399999978486;0.5557068999987678;0.6256095999997342;0.7561755999995512;1.0447758999980579;0;0;1;0;0.01
5;1;3;6;letter181;letter357;congruent;0.04;letter357;0.05;0.07;fullmask;0.2;arrow_right.png;0.13;m;0.2611713999976928;0.26932769999984885;23200.6113208;3.1999989005271345e-06;0.49798379999992903;0.5379943999978423;0.5501170999996248;0.6200199999984761;0.7495750999987649;1.0183110999969358;0;0;1;0;0.01
5;1;3;7;letter181;letter357;congruent;0.04;letter181;0.05;0.07;fullmask;0.2;arrow_left.png;0.13;m;7.691995600001974;7.694415600002685;23209.9633159;3.0000010156072676e-06;0.5009324999991804;0.5409503000009863;0.5530040000012377;0.6227710000021034;0.7524243000007118;0.8830753000002005;0;0;0;1;0.01
5;1;3;8;letter181;letter357;congruent;0.04;letter357;0.05;0.07;fullmask;0.2;arrow_right.png;0.13;m;1.676079099997878;1.680627199999435;23213.0834038;3.1000017770566046e-06;0.4953136000003724;0.5353423000015027;0.5475336000017705;0.617395100001886;0.7469592999987071;0.8776074000015797;0;0;0;1;0.01
5;1;3;9;letter181;letter357;congruent;0.04;letter181;0.05;0.07;fullmask;0.2;arrow_left.png;0.13;c;0.31203150000146707;0.32019380000201636;23214.8513118;3.0000010156072676e-06;0.502847899999324;0.5428757000008773;0.5550084999995306;0.624899300000834;0.7544686000001093;1.0732104999988223;0;0;1;0;0.01
5;1;3;10;letter181;letter357;congruent;0.04;letter181;0.05;0.07;fullmask;0.2;arrow_left.png;0.13;c;0.37282219999906374;0.38014599999951315;23216.8833724;2.7999994927085936e-06;0.49625169999853824;0.5362724999977218;0.5484271999994235;0.618326399999205;0.7478931999976339;0.8785443999986455;0;0;0;1;0.01
5;1;3;11;letter181;letter357;congruent;0.04;letter357;0.05;0.07;fullmask;0.2;arrow_right.png;0.13;m;0.2920025999992504;0.30022059999828343;23218.6433387;3.0999981390777975e-06;0.5035194999982195;0.543552399998589;0.5552906999982952;0.6250684999977238;0.7557186999983969;1.0538785999997344;0;0;1;0;0.01
5;1;3;12;letter181;letter357;congruent;0.04;letter181;0.05;0.07;fullmask;0.2;arrow_left.png;0.13;c;0.36525410000103875;0.37106820000190055;23220.6672928;3.0999981390777975e-06;0.4953146000007109;0.5353370999982872;0.5465318999995361;0.6173439999984112;0.7469906000005722;0.8776485999987926;0;0;0;1;0.01
5;1;3;13;letter181;letter357;congruent;0.04;letter357;0.05;0.07;fullmask;0.2;arrow_right.png;0.13;m;0.3212917999990168;0.3301314000018465;23222.435315;3.1000017770566046e-06;0.502554800001235;0.5425675000005867;0.5545926000013424;0.6243668999995862;0.7540265000025101;1.082923900001333;0;0;1;0;0.01
5;1;3;14;letter181;letter357;congruent;0.04;letter181;0.05;0.07;fullmask;0.2;arrow_left.png;0.13;c;0.3159696000002441;0.32015510000201175;23224.4113176;3.1999989005271345e-06;0.49646949999805656;0.5365218999977515;0.5485593999983394;0.6183482999986154;0.7480012999985775;1.0668375999994169;0;0;1;0;0.01
5;1;3;15;letter181;letter357;congruent;0.04;letter181;0.05;0.07;fullmask;0.2;arrow_left.png;0.13;c;0.28880990000106976;0.29024479999861796;23226.3553562;2.9000002541579306e-06;0.5008702000013727;0.5408915000007255;0.5528825000001234;0.6226577000015823;0.7523127000022214;1.0412055000015243;0;0;1;0;0.01
5;1;3;16;letter181;letter357;congruent;0.04;letter181;0.05;0.07;fullmask;0.2;arrow_left.png;0.13;c;0.2700342999996792;0.27021569999851636;23228.2673865;3.0999981390777975e-06;0.501057800000126;0.5410728999995627;0.5526394000007713;0.622413900000538;0.753070700000535;1.021390900001279;0;0;1;0;0.01
5;1;3;17;letter181;letter357;congruent;0.04;letter357;0.05;0.07;fullmask;0.2;arrow_right.png;0.13;m;0.30237299999862444;0.31017729999803123;23230.211311;2.9000002541579306e-06;0.4980288000006112;0.5380552000024181;0.5499772000002849;0.619752000002336;0.7494051000030595;1.0584076000013738;0;0;1;0;0.01
5;1;3;18;letter181;letter357;congruent;0.04;letter357;0.05;0.07;fullmask;0.2;arrow_right.png;0.13;m;0.36794199999712873;0.3710584000000381;23232.2273927;2.9000002541579306e-06;0.49585730000035255;0.5358649999980116;0.5470419999983278;0.6178177000001597;0.7474717000004603;0.8781067999989318;0;0;0;1;0.01
5;1;3;19;letter181;letter357;congruent;0.04;letter181;0.05;0.07;fullmask;0.2;arrow_left.png;0.13;c;0.30469000000084634;0.3112333999997645;23233.9953022;2.9999973776284605e-06;0.5044213000001037;0.5444387999996252;0.5556053000000247;0.6265084999977262;0.7560725999974238;1.0647734999984095;0;0;1;0;0.01
5;1;3;20;letter181;letter357;congruent;0.04;letter181;0.05;0.07;fullmask;0.2;arrow_left.png;0.13;c;0.3445978000017931;0.3501161999993201;23235.9873153;3.0000010156072676e-06;0.4969767000002321;0.5369992000014463;0.5490097000001697;0.6187859000019671;0.7484351000020979;0.8790869000004022;0;0;0;1;0.01
5;1;3;21;letter181;letter357;congruent;0.04;letter357;0.05;0.07;fullmask;0.2;arrow_right.png;0.13;m;0.2234309999985271;0.2294021999987308;23237.6673429;3.0999981390777975e-06;0.5038324000015564;0.543882099998882;0.5559155999981158;0.6256800000010116;0.7553416000009747;0.9841434999980265;0;0;1;0;0.01
5;1;3;22;letter181;letter357;congruent;0.04;letter357;0.05;0.07;fullmask;0.2;arrow_right.png;0.13;m;0.27073400000153924;0.28040210000108345;23239.5954442;3.0000010156072676e-06;0.5025614000005589;0.5425804000005883;0.5542262999988452;0.6241197999988799;0.7546786999992037;1.0328903000008722;0;0;1;0;0.01
5;1;3;23;letter181;letter357;congruent;0.04;letter357;0.05;0.07;fullmask;0.2;arrow_right.png;0.13;m;0.36299830000280053;0.3702039000017976;23241.6193085;3.0000010156072676e-06;0.49716690000059316;0.5372007000005397;0.5491939000021375;0.6192330000012589;0.7487981000012951;0.8794512000022223;0;0;0;1;0.01
5;1;3;24;letter181;letter357;congruent;0.04;letter181;0.05;0.07;fullmask;0.2;arrow_left.png;0.13;c;0.2678039999991597;0.27028950000021723;23243.3553062;3.1999989005271345e-06;0.5000876000012795;0.540153800000553;0.5521383000013884;0.6219142000009015;0.7515562000007776;1.0204322999998112;0;0;1;0;0.01
5;1;3;25;letter181;letter357;congruent;0.04;letter181;0.05;0.07;fullmask;0.2;arrow_left.png;0.13;m;0.27734509999936563;0.28016659999775584;23245.2752989;2.7999994927085936e-06;0.4963796000010916;0.5366333000019949;0.5476519000003464;0.6183306000020821;0.7479733000000124;1.0267223000009835;0;0;1;0;0.01
5;1;3;26;letter181;letter357;congruent;0.04;letter181;0.05;0.07;fullmask;0.2;arrow_left.png;0.13;c;0.3153324999984761;0.32017590000032214;23247.2353906;3.1000017770566046e-06;0.49795219999941764;0.5379635999997845;0.5500940999991144;0.6197786000011547;0.7494181000001845;1.0682970000016212;0;0;1;0;0.01
5;1;3;27;letter181;letter357;congruent;0.04;letter357;0.05;0.07;fullmask;0.2;arrow_right.png;0.13;m;0.24397010000029695;0.2493940999993356;23249.1152981;3.0000010156072676e-06;0.5022218000012799;0.5422451000013098;0.5543881000012334;0.6242955000016082;0.7538596000013058;1.0025476000009803;0;0;1;0;0.01
5;1;3;28;letter181;letter357;congruent;0.04;letter181;0.05;0.07;fullmask;0.2;arrow_left.png;0.13;c;0.3047742999988259;0.31023300000015297;23251.0672897;2.9000002541579306e-06;0.5005627999998978;0.5405869999995048;0.5527073000012024;0.6226091999997152;0.7521797999979754;1.0609320000003208;0;0;1;0;0.01
5;1;3;29;letter181;letter357;congruent;0.04;letter181;0.05;0.07;fullmask;0.2;arrow_left.png;0.13;c;0.3357343999996374;0.34010879999914323;23253.0592984;3.1999989005271345e-06;0.5016978999992716;0.541713400001754;0.5536251000012271;0.6233982000012475;0.7530520000000251;0.8837046000007831;0;0;0;1;0.01
5;1;3;30;letter181;letter357;congruent;0.04;letter181;0.05;0.07;fullmask;0.2;arrow_left.png;0.13;c;0.3431364999996731;0.350089300001855;23254.867302;2.9000002541579306e-06;0.4941213999991305;0.534134699999413;0.5454872000009345;0.6162781999992148;0.7459502999990946;0.875576500002353;0;0;0;1;0.01
5;1;3;31;letter181;letter357;congruent;0.04;letter181;0.05;0.07;fullmask;0.2;arrow_left.png;0.13;c;0.2472143999984837;0.2492668999984744;23256.5633036;3.0999981390777975e-06;0.49569489999703364;0.5357108999996854;0.5478439999969851;0.6175382999972499;0.7471750999975484;0.9960116999973252;0;0;1;0;0.01
5;1;3;32;letter181;letter357;congruent;0.04;letter181;0.05;0.07;fullmask;0.2;arrow_left.png;0.13;c;0.29206989999875077;0.3002176999980293;23258.4992953;2.9000002541579306e-06;0.5032075000017358;0.5432306000002427;0.5552615000015066;0.6250338999998348;0.7546904999981052;1.053550600001472;0;0;1;0;0.01
5;1;3;33;letter181;letter357;congruent;0.04;letter181;0.05;0.07;fullmask;0.2;arrow_left.png;0.13;c;0.2628721000000951;0.2702997000014875;23260.4113075;3.2999996619764715e-06;0.5001647999997658;0.5401839999976801;0.552200999998604;0.6219780999999784;0.7516307999976561;1.0205012000005809;0;0;1;0;0.01
5;1;3;34;letter181;letter357;congruent;0.04;letter357;0.05;0.07;fullmask;0.2;arrow_right.png;0.13;m;0.46353409999937867;0.46965450000061537;23262.5233094;2.9000002541579306e-06;0.4962712000015017;0.5362993000017013;0.5484305999998469;0.6180811000012909;0.7477528999988863;0.8784134999987145;0;0;0;1;0.01
5;1;3;35;letter181;letter357;congruent;0.04;letter357;0.05;0.07;fullmask;0.2;arrow_right.png;0.13;m;0.26242910000291886;0.2703188000014052;23264.2433229;3.1000017770566046e-06;0.5045149000034144;0.5445232000020042;0.5565467000014905;0.6262356000006548;0.7558637000001909;1.0248444000026211;0;0;1;0;0.01
5;1;3;36;letter181;letter357;congruent;0.04;letter357;0.05;0.07;fullmask;0.2;arrow_right.png;0.13;m;0.2634085000026971;0.2701948000030825;23266.1552879;3.0000010156072676e-06;0.4975186000010581;0.5375320999992255;0.5493099999985134;0.6190701999985322;0.7496356000010564;1.017849700001534;0;0;1;0;0.01
5;1;3;37;letter181;letter357;congruent;0.04;letter357;0.05;0.07;fullmask;0.2;arrow_right.png;0.13;m;0.2379956000004313;0.23942119999992428;23268.0512992;3.3000032999552786e-06;0.5031265000034182;0.5431454000026861;0.5551097000025038;0.6250195000029635;0.754579400003422;0.9934583000031125;0;0;1;0;0.01
5;1;3;38;letter181;letter357;congruent;0.04;letter357;0.05;0.07;fullmask;0.2;arrow_right.png;0.13;m;0.27660670000113896;0.27931600000010803;23269.9712953;3.2000025385059416e-06;0.501425599999493;0.5414440000022296;0.5535808999993606;0.6234906999998202;0.7530434000000241;1.0317529999992985;0;0;1;0;0.01
5;1;3;39;letter181;letter357;congruent;0.04;letter181;0.05;0.07;fullmask;0.2;arrow_left.png;0.13;c;0.3754073999989487;0.3799505999995745;23272.0113585;2.9000002541579306e-06;0.5046356999991986;0.5446665000017674;0.55683240000144;0.6265444000018761;0.7561735000017507;0.8868204999998852;0;0;0;1;0.01
5;1;3;40;letter181;letter357;congruent;0.04;letter357;0.05;0.07;fullmask;0.2;arrow_right.png;0.13;m;0.28624430000127177;0.2902438000019174;23273.7632855;3.0999981390777975e-06;0.5021697000011045;0.542210999999952;0.5542437000003702;0.624022199997853;0.7536739999995916;1.042547699998977;0;0;1;0;0.01
5;1;3;41;letter181;letter357;congruent;0.04;letter357;0.05;0.07;fullmask;0.2;arrow_right.png;0.13;m;0.29690130000017234;0.29924380000011297;23275.7152809;2.9999973776284605e-06;0.500786299999163;0.5407477999979164;0.5528831999981776;0.6227782999994815;0.7523431999979948;1.051072899997962;0;0;1;0;0.01
5;1;3;42;letter181;letter357;congruent;0.04;letter181;0.05;0.07;fullmask;0.2;arrow_left.png;0.13;c;0.31187750000026426;0.32029839999813703;23277.691438;3.2000025385059416e-06;0.5028716000015265;0.5428749000020616;0.554962300000625;0.6248604000029445;0.7544281000009505;1.0732372000020405;0;0;1;0;0.01
5;1;3;43;letter181;letter357;congruent;0.04;letter181;0.05;0.07;fullmask;0.2;arrow_left.png;0.13;c;0.3063485999991826;0.31019910000031814;23279.6672855;3.3999967854470015e-06;0.5046798999974271;0.5446978999971179;0.5568795999970462;0.6265630999987479;0.7562078999981168;1.065025699997932;0;0;1;0;0.01
5;1;3;44;letter181;letter357;congruent;0.04;letter357;0.05;0.07;fullmask;0.2;arrow_right.png;0.13;m;0.28127350000067963;0.2902386999994633;23281.6033126;3.0000010156072676e-06;0.5022303000005195;0.5422614999988582;0.5542777000009664;0.6240456999985327;0.7537057000008645;1.0425892999992357;0;0;1;0;0.01
5;1;3;45;letter181;letter357;congruent;0.04;letter357;0.05;0.07;fullmask;0.2;arrow_right.png;0.13;m;0.28080209999825456;0.2911105999992287;23283.5232768;2.9000002541579306e-06;0.49865200000203913;0.5386714000014763;0.5498822000008659;0.620524199999636;0.7501771999995981;1.0390015000011772;0;0;1;0;0.01
5;1;3;46;letter181;letter357;congruent;0.04;letter181;0.05;0.07;fullmask;0.2;arrow_left.png;0.13;c;0.29968799999915063;0.3012221999997564;23285.4833844;3.0999981390777975e-06;0.49509039999975357;0.5351097999991907;0.5462975000009465;0.6169724999999744;0.7466252000012901;1.0454210999996576;0;0;1;0;0.01
5;1;3;47;letter181;letter357;congruent;0.04;letter357;0.05;0.07;fullmask;0.2;arrow_right.png;0.13;m;0.2674866000015754;0.2703270000019984;23287.4033457;2.8999966161791235e-06;0.504317799997807;0.5443508999996993;0.556455999998434;0.6261528999966686;0.7558071999992535;1.0246569999981148;0;0;1;0;0.01
5;1;3;48;letter181;letter357;congruent;0.04;letter357;0.05;0.07;fullmask;0.2;arrow_right.png;0.13;m;0.2602841999978409;0.26938180000070133;23289.3073829;2.9000002541579306e-06;0.5003455999976723;0.5403670999985479;0.5524872999994841;0.6223839999984193;0.7519452999986243;1.0206796999991639;0;0;1;0;0.01
5;2;11;1;letter190;letter169;congruent;0.04;letter190;0.09;0.07;fullmask;0.3;arrow_left.png;0.13;c;0.3983698000010918;0.3996761000016704;24316.7548428;3.5000011848751456e-06;0.5012626999996428;0.541280800000095;0.5932882000015525;0.6627688000007765;0.8931652999999642;1.1917066000023624;0;0;1;0;0.01
5;2;11;2;letter190;letter169;congruent;0.04;letter169;0.09;0.07;fullmask;0.3;arrow_right.png;0.13;m;0.30710289999842644;0.3101877999979479;24318.7548216;3.1999989005271345e-06;0.4999370000005001;0.5399631000000227;0.5918629000007058;0.6616367999995418;0.892021299998305;1.1003237000004447;0;0;1;0;0.01
5;2;11;3;letter190;letter169;congruent;0.04;letter190;0.09;0.07;fullmask;0.3;arrow_left.png;0.13;c;0.4516861999982211;0.4598127999997814;24320.8907982;2.9000002541579306e-06;0.4960508000003756;0.5360628000016732;0.5880767999988166;0.6579696000007971;0.888266099998873;1.017910499998834;0;0;0;1;0.01
5;2;11;4;letter190;letter169;congruent;0.04;letter169;0.09;0.07;fullmask;0.3;arrow_right.png;0.13;m;0.3105226000006951;0.3201732000015909;24322.6909333;3.0000010156072676e-06;0.4953867000003811;0.5354167000004963;0.5874901999995927;0.6571666000018013;0.8875487000004796;1.1057919000013499;0;0;1;0;0.01
5;2;11;5;letter190;letter169;congruent;0.04;letter190;0.09;0.07;fullmask;0.3;arrow_left.png;0.13;m;2.6131996999974945;2.6210255999976653;24326.9947903;3.1000017770566046e-06;0.4993169000008493;0.5393312000014703;0.5913020000007236;0.6610763000026054;0.8914580000018759;1.0211124000015843;0;0;0;1;0.01
5;2;11;6;letter190;letter169;congruent;0.04;letter190;0.09;0.07;fullmask;0.3;arrow_left.png;0.13;c;0.42450000000098953;0.4297980000010284;24329.0987966;2.7999994927085936e-06;0.5029778999996779;0.5429927999975916;0.5949211999977706;0.6646923999978753;0.8950697999971453;1.2234532999973453;0;0;1;0;0.01
5;2;11;7;letter190;letter169;congruent;0.04;letter190;0.09;0.07;fullmask;0.3;arrow_left.png;0.13;c;0.4692209999993793;0.46968249999918044;24331.2349083;2.7999994927085936e-06;0.4958074999995006;0.535847900002409;0.5878044000019145;0.6574997000025178;0.8878853999995044;1.017536300001666;0;0;0;1;0.01
5;2;11;8;letter190;letter169;congruent;0.04;letter169;0.09;0.07;fullmask;0.3;arrow_right.png;0.13;m;0.3279294000021764;0.3301441000003251;24333.0347894;2.9000002541579306e-06;0.5020342000025266;0.5420443000002706;0.5939499000014621;0.663721799999621;0.8941063000020222;1.122442100000626;0;0;1;0;0.01
5;2;11;9;letter190;letter169;congruent;0.04;letter190;0.09;0.07;fullmask;0.3;arrow_left.png;0.13;c;0.3584676999998919;0.36009800000101677;24335.0667697;3.0000010156072676e-06;0.498222899997927;0.5382575000003271;0.5902993999989121;0.6602069000000483;0.8904999000005773;1.1486436000013782;0;0;1;0;0.01
5;2;11;10;letter190;letter169;congruent;0.04;letter169;0.09;0.07;fullmask;0.3;arrow_right.png;0.13;m;0.4312175999984902;0.4397363999996742;24337.1708156;2.9999973776284605e-06;0.5027824999997392;0.5428160999981628;0.5948533999981009;0.6647715999970387;0.894904899996618;1.0245577999994566;0;0;0;1;0.01
5;2;11;11;letter190;letter169;congruent;0.04;letter169;0.09;0.07;fullmask;0.3;arrow_right.png;0.13;m;0.39257609999913257;0.400826799999777;24339.0427744;3.1000017770566046e-06;0.5032921000019996;0.5433081000010134;0.5947197000023152;0.6653771000019333;0.8947650000009162;1.1937168000004021;0;0;1;0;0.01
5;2;11;12;letter190;letter169;congruent;0.04;letter169;0.09;0.07;fullmask;0.3;arrow_right.png;0.13;c;0.23862319999898318;0.23942339999848627;24340.9707837;3.1999989005271345e-06;0.49714049999965937;0.5371531000018877;0.5892014999990351;0.6591163000011875;0.8286246999996365;0.8286272000004828;0;1;0;0;0.01
5;2;11;13;letter190;letter169;congruent;0.04;letter169;0.09;0.07;fullmask;0.3;arrow_right.png;0.13;m;0.5873294000011811;0.5904269000020577;24343.2507851;2.9999973776284605e-06;0.5004047999973409;0.5404319999979634;0.592518099998415;0.6625237999978708;0.8926644999992277;1.0223152999969898;0;0;0;1;0.01
5;2;11;14;letter190;letter169;congruent;0.04;letter190;0.09;0.07;fullmask;0.3;arrow_left.png;0.13;c;0.42207910000070115;0.4299066999992647;24345.1467707;3.0000010156072676e-06;0.4974637999985134;0.5374946999982058;0.5895067999990715;0.6594049999985145;0.8896868000010727;1.217935500000749;0;0;1;0;0.01
5;2;11;15;letter190;letter169;congruent;0.04;letter169;0.09;0.07;fullmask;0.3;arrow_right.png;0.13;c;0.22513859999889974;0.2303085999992618;24347.050793;2.9000002541579306e-06;0.4979340999998385;0.53795380000156;0.5895779999991646;0.6593424000020605;0.8198856000017258;0.8198880999989342;0;1;0;0;0.01
5;2;11;16;letter190;letter169;congruent;0.04;letter190;0.09;0.07;fullmask;0.3;arrow_left.png;0.13;c;3.163524299998244;3.1715727999981027;24351.8907845;2.9999973776284605e-06;0.4966151999979047;0.5366313999984413;0.5886479000000691;0.658460799997556;0.8888482999973348;1.0184817999979714;0;0;0;1;0.01
5;2;11;17;letter190;letter169;congruent;0.04;letter169;0.09;0.07;fullmask;0.3;arrow_right.png;0.13;m;0.3992532999982359;0.400989000001573;24353.7787501;3.0000010156072676e-06;0.4971384000018588;0.5371922000013001;0.5884255999990273;0.658490100002382;0.8886187000025529;1.1876059000023815;0;0;1;0;0.01
5;2;11;18;letter190;letter169;congruent;0.04;letter169;0.09;0.07;fullmask;0.3;arrow_right.png;0.13;m;0.5072490999991714;0.5106586000001698;24355.9788518;2.9000002541579306e-06;0.5035190999988117;0.5435255999982473;0.5955560000002151;0.6652334999998857;0.895619999999326;1.0252825999996276;0;0;0;1;0.01
5;2;11;19;letter190;letter169;congruent;0.04;letter190;0.09;0.07;fullmask;0.3;arrow_left.png;0.13;c;1.4185741000001144;1.421261699997558;24358.8907699;3.0000010156072676e-06;0.5043721000001824;0.5443855000012263;0.5957340999993903;0.6656485000021348;0.8959343999995326;1.0265887999994447;0;0;0;1;0.01
5;2;11;20;letter190;letter169;congruent;0.04;letter190;0.09;0.07;fullmask;0.3;arrow_left.png;0.13;c;0.5880120000001625;0.5904382999979134;24360.962768;3.4999975468963385e-06;0.5041796000004979;0.5441919000004418;0.5962321999977576;0.6660076000007393;0.8963898000001791;1.0260416999990412;0;0;0;1;0.01
5;2;11;21;letter190;letter169;congruent;0.04;letter169;0.09;0.07;fullmask;0.3;arrow_right.png;0.13;m;1.4609309999977995;1.4708562999985588;24363.9069411;3.0999981390777975e-06;0.4959577999979956;0.5359785000000556;0.5879408000000694;0.6576704999970389;0.8880614999980025;1.0177053999977943;0;0;0;1;0.01
5;2;11;22;letter190;letter169;congruent;0.04;letter190;0.09;0.07;fullmask;0.3;arrow_left.png;0.13;c;0.43706639999800245;0.4398236999986693;24365.8347692;3.0000010156072676e-06;0.49763720000191825;0.5376531000001705;0.5894145999991451;0.6591850000004342;0.8895789999987755;1.019204299998819;0;0;0;1;0.01
5;2;11;23;letter190;letter169;congruent;0.04;letter169;0.09;0.07;fullmask;0.3;arrow_right.png;0.13;m;0.3534381999998004;0.3599324999995588;24367.6827341;3.1000017770566046e-06;0.5011048000014853;0.5411354000025312;0.5932224000025599;0.6628719000000274;0.8932559000022593;1.1515352000023995;0;0;1;0;0.01
5;2;11;24;letter190;letter169;congruent;0.04;letter190;0.09;0.07;fullmask;0.3;arrow_left.png;0.13;c;0.3223760000000766;0.33014299999922514;24369.6827757;2.9000002541579306e-06;0.5042025000002468;0.5442240000011225;0.5961310000020603;0.6659054000010656;0.8963019000002532;1.1245982000000367;0;0;1;0;0.01
5;2;11;25;letter190;letter169;congruent;0.04;letter190;0.09;0.07;fullmask;0.3;arrow_left.png;0.13;c;0.3290683999985049;0.3300526999992144;24371.6908587;2.7999994927085936e-06;0.5027019000008295;0.542723800001113;0.5947454999986803;0.6644415000009758;0.8948190999981307;1.1231025999986741;0;0;1;0;0.01
5;2;11;26;letter190;letter169;congruent;0.04;letter190;0.09;0.07;fullmask;0.3;arrow_left.png;0.13;c;0.30986590000247816;0.3100817000013194;24373.682851;2.7999994927085936e-06;0.49872120000145514;0.5387412999989465;0.590658799999801;0.6604374999988067;0.8908248000007006;1.099118999998609;0;0;1;0;0.01
5;2;11;27;letter190;letter169;congruent;0.04;letter190;0.09;0.07;fullmask;0.3;arrow_left.png;0.13;c;0.328557600001659;0.3301434999993944;24375.6827898;3.0999981390777975e-06;0.4996516999999585;0.5396787999998196;0.5915614000005007;0.6613330000000133;0.8917273000006389;1.1200433999983943;0;0;1;0;0.01
5;2;11;28;letter190;letter169;congruent;0.04;letter190;0.09;0.07;fullmask;0.3;arrow_left.png;0.13;c;0.33505289999811794;0.34001229999921634;24377.6907515;2.7999994927085936e-06;0.5001431999990018;0.5401566000000457;0.5922318999982963;0.661907899997459;0.8922932999994373;1.1305557999985467;0;0;1;0;0.01
5;2;11;29;letter190;letter169;congruent;0.04;letter190;0.09;0.07;fullmask;0.3;arrow_left.png;0.13;c;0.3958158000023104;0.3998486000018602;24379.7628097;2.7999994927085936e-06;0.503809399997408;0.5438359999970999;0.5959052999969572;0.6655794999969658;0.8959614999985206;1.194252499997674;0;0;1;0;0.01
5;2;11;30;letter190;letter169;congruent;0.04;letter169;0.09;0.07;fullmask;0.3;arrow_right.png;0.13;m;0.46862659999897005;0.4696726000001945;24381.9068936;3.0999981390777975e-06;0.4965935999971407;0.5366098999984388;0.5886322999976983;0.6583017999982985;0.8887077999970643;1.0183395999993081;0;0;0;1;0.01
5;2;11;31;letter190;letter169;congruent;0.04;letter190;0.09;0.07;fullmask;0.3;arrow_left.png;0.13;c;0.3492856999982905;0.35009640000134823;24383.7387359;3.2000025385059416e-06;0.5003694000006362;0.540389600002527;0.592349300000933;0.6621392000015476;0.8925228000007337;1.1407924000013736;0;0;1;0;0.01
5;2;11;32;letter190;letter169;congruent;0.04;letter190;0.09;0.07;fullmask;0.3;arrow_left.png;0.13;c;0.3420784999980242;0.35007299999779207;24385.7627607;3.1999989005271345e-06;0.4973839999984193;0.5374015999987023;0.5892892999981996;0.6590629999991506;0.8894412000008742;1.1377993999994942;0;0;1;0;0.01
5;2;11;33;letter190;letter169;congruent;0.04;letter190;0.09;0.07;fullmask;0.3;arrow_left.png;0.13;m;0.3527613000005658;0.36008339999898453;24387.7949263;2.9000002541579306e-06;0.4983520000023418;0.5383871000012732;0.5904494999995222;0.6601420000006328;0.890524500002357;1.1488233000018226;0;0;1;0;0.01
5;2;11;34;letter190;letter169;congruent;0.04;letter190;0.09;0.07;fullmask;0.3;arrow_left.png;0.13;c;0.2971508000009635;0.30025039999964065;24390.0107622;3.0000010156072676e-06;0.5042959999991581;0.5443302000021504;0.5963549000007333;0.6662500000020373;0.8966045000015583;0.8966069999987667;0;1;0;0;0.01
5;2;11;35;letter190;letter169;congruent;0.04;letter169;0.09;0.07;fullmask;0.3;arrow_right.png;0.13;m;0.4901393999971333;0.49969339999734075;24391.9947806;2.9000002541579306e-06;0.4962545999987924;0.5362776000001759;0.5882082999996783;0.6579773999983445;0.8883617999999842;1.0180158000002848;0;0;0;1;0.01
5;2;11;36;letter190;letter169;congruent;0.04;letter190;0.09;0.07;fullmask;0.3;arrow_left.png;0.13;m;0.282853000000614;0.2902338999992935;24393.7787904;3.0999981390777975e-06;0.5022044999968784;0.5422259999977541;0.5941758999979356;0.6639383000001544;0.8844107999975677;0.884413299998414;0;1;0;0;0.01
5;2;11;37;letter190;letter169;congruent;0.04;letter169;0.09;0.07;fullmask;0.3;arrow_right.png;0.13;m;0.35164930000246386;0.36001329999999143;24395.8187479;2.7999994927085936e-06;0.49877899999773945;0.5387960999978532;0.5906438999991224;0.6603647999982059;0.8907489999983227;1.1491987999979756;0;0;1;0;0.01
5;2;11;38;letter190;letter169;congruent;0.04;letter169;0.09;0.07;fullmask;0.3;arrow_right.png;0.13;m;0.32456010000169044;0.33016000000134227;24397.8429709;3.2000025385059416e-06;0.5045186999996076;0.5445175999993808;0.5963741000014124;0.6660550000015064;0.8964395000002696;1.1248928000022715;0;0;1;0;0.01
5;2;11;39;letter190;letter169;congruent;0.04;letter169;0.09;0.07;fullmask;0.3;arrow_right.png;0.13;m;0.34504050000032294;0.3500744000011764;24399.8748541;2.9000002541579306e-06;0.5012550999999803;0.5412527000007685;0.5932135000002745;0.6629766000005475;0.893359400000918;1.141644900002575;0;0;1;0;0.01
5;2;11;40;letter190;letter169;congruent;0.04;letter169;0.09;0.07;fullmask;0.3;arrow_right.png;0.13;m;0.35970909999741707;0.35994709999795305;24401.9308072;2.9999973776284605e-06;0.49494919999779086;0.53497409999909;0.586894799998845;0.6566691999978502;0.8870518999974593;1.1453696999997192;0;0;1;0;0.01
5;2;11;41;letter190;letter169;congruent;0.04;letter169;0.09;0.07;fullmask;0.3;arrow_right.png;0.13;m;0.31639629999699537;0.32015689999752794;24403.9387879;3.4000004234258085e-06;0.4950499000005948;0.53506710000147;0.5869744000010542;0.656739900001412;0.8871235000005981;1.1054422999986855;0;0;1;0;0.01
5;2;11;42;letter190;letter169;congruent;0.04;letter190;0.09;0.07;fullmask;0.3;arrow_left.png;0.13;c;0.32980719999977737;0.3310686999975587;24405.9629251;3.1000017770566046e-06;0.49530850000155624;0.5353059000008216;0.5866602999994939;0.6573224000021582;0.8877266000017698;1.1156958999999915;0;0;1;0;0.01
5;2;11;43;letter190;letter169;congruent;0.04;letter190;0.09;0.07;fullmask;0.3;arrow_left.png;0.13;c;0.4517415999980585;0.45978180000020075;24408.1067566;3.4000004234258085e-06;0.4972011999998358;0.5372233000016422;0.5891658000000461;0.6589351000002353;0.8893192000032286;1.0189729000012449;0;0;0;1;0.01
5;2;11;44;letter190;letter169;congruent;0.04;letter169;0.09;0.07;fullmask;0.3;arrow_right.png;0.13;m;0.28849540000010165;0.2902401000028476;24409.9147689;2.9000002541579306e-06;0.496096499999112;0.5361162000008335;0.588045599997713;0.6578239000009489;0.8782868999987841;0.8782893999996304;0;1;0;0;0.01
5;2;11;45;letter190;letter169;congruent;0.04;letter169;0.09;0.07;fullmask;0.3;arrow_right.png;0.13;m;0.4613607999999658;0.46977030000198283;24411.8587467;2.9000002541579306e-06;0.49630809999871417;0.5363262999999279;0.5882300999983272;0.6580090999996173;0.888396800000919;1.0180474999979197;0;0;0;1;0.01
5;2;11;46;letter190;letter169;congruent;0.04;letter169;0.09;0.07;fullmask;0.3;arrow_right.png;0.13;m;0.3562839000005624;0.3602807999996003;24413.7148279;3.0000010156072676e-06;0.504040800002258;0.5440588000019488;0.5958609000008437;0.665756300000794;0.8961257000009937;1.154445800002577;0;0;1;0;0.01
5;2;11;47;letter190;letter169;congruent;0.04;letter169;0.09;0.07;fullmask;0.3;arrow_right.png;0.13;m;0.35276560000056634;0.36005070000101114;24415.7627497;3.0000010156072676e-06;0.4956378000024415;0.5356556000006094;0.5875922000013816;0.6573624000011478;0.8877485000011802;1.146121800000401;0;0;1;0;0.01
5;2;11;48;letter190;letter169;congruent;0.04;letter169;0.09;0.07;fullmask;0.3;arrow_right.png;0.13;m;0.3936525999997684;0.3999380999994173;24417.8347469;2.9000002541579306e-06;0.5001025000019581;0.5401157999986026;0.5918463000016345;0.6616155000010622;0.8920020000005024;1.190567400000873;0;0;1;0;0.01
5;2;12;1;letter190;letter169;congruent;0.04;letter169;0.09;0.07;fullmask;0.25;arrow_right.png;0.13;m;0.3310598999996728;0.34016410000185715;24427.9388568;3.2999996619764715e-06;0.5007678999972995;0.5408218999982637;0.592699699998775;0.6625088999971922;0.8430354999982228;1.131165199996758;0;0;1;0;0.01
5;2;12;2;letter190;letter169;congruent;0.04;letter190;0.09;0.07;fullmask;0.25;arrow_left.png;0.13;c;0.3275823000003584;0.33014339999863296;24429.9468262;3.1000017770566046e-06;0.5015367000014521;0.5415775000001304;0.5936208000020997;0.6632835000018531;0.8438059000000067;1.1219358000016655;0;0;1;0;0.01
5;2;12;3;letter190;letter169;congruent;0.04;letter190;0.09;0.07;fullmask;0.25;arrow_left.png;0.13;c;0.42823560000033467;0.42977650000102585;24432.0587654;3.0000010156072676e-06;0.49965309999970486;0.5396801000024425;0.591732700002467;0.6614141999998537;0.8419315999999526;0.9715820000019448;0;0;0;1;0.01
5;2;12;4;letter190;letter169;congruent;0.04;letter190;0.09;0.07;fullmask;0.25;arrow_left.png;0.13;c;0.35506420000092476;0.3600532000018575;24433.9067368;3.0999981390777975e-06;0.5037811000001966;0.5437854999981937;0.5957449999987148;0.6655194999984815;0.8460364999991725;1.1541953999985708;0;0;1;0;0.01
5;2;12;5;letter190;letter169;congruent;0.04;letter190;0.09;0.07;fullmask;0.25;arrow_left.png;0.13;c;0.3244373999987147;0.3301361999983783;24435.906741;2.9000002541579306e-06;0.49859120000110124;0.538610499999777;0.5898959000005561;0.6606713000001037;0.8401941000010993;1.1189856000019063;0;0;1;0;0.01
5;2;12;6;letter190;letter169;congruent;0.04;letter190;0.09;0.07;fullmask;0.25;arrow_left.png;0.13;c;0.33852439999827766;0.340036899997358;24437.9228811;3.0000010156072676e-06;0.5006704000006721;0.5406915999992634;0.5927632999992056;0.6624549000007391;0.8429544999999052;1.131067800000892;0;0;1;0;0.01
5;2;12;7;letter190;letter169;congruent;0.04;letter169;0.09;0.07;fullmask;0.25;arrow_right.png;0.13;m;0.33324240000001737;0.34007869999913964;24439.938756;3.0999981390777975e-06;0.49864850000085426;0.5386671999985992;0.5906011000006401;0.6603734999989683;0.8408626999989792;1.1290618999992148;0;0;1;0;0.01
5;2;12;8;letter190;letter169;congruent;0.04;letter169;0.09;0.07;fullmask;0.25;arrow_right.png;0.13;m;0.3859779999984312;0.38997999999992317;24442.0027453;2.9000002541579306e-06;0.49939260000246577;0.5394287000017357;0.5913025000008929;0.6610823000009987;0.8415997000010975;0.9712427000013122;0;0;0;1;0.01
5;2;12;9;letter190;letter169;congruent;0.04;letter169;0.09;0.07;fullmask;0.25;arrow_right.png;0.13;m;0.2927970999990066;0.30024109999794746;24443.7708896;3.0999981390777975e-06;0.5037048999984108;0.5436679999984335;0.5956793999976071;0.6653554000004078;0.8458864999993239;1.0940045999996073;0;0;1;0;0.01
5;2;12;10;letter190;letter169;congruent;0.04;letter169;0.09;0.07;fullmask;0.25;arrow_right.png;0.13;m;0.31340819999968517;0.3200589999978547;24445.7627403;2.7999994927085936e-06;0.498081199999433;0.5381016999999702;0.5901142000002437;0.6598137000000861;0.8402921999986575;1.108492600000318;0;0;1;0;0.01
5;2;12;11;letter190;letter169;congruent;0.04;letter190;0.09;0.07;fullmask;0.25;arrow_left.png;0.13;c;0.310597499999858;0.3202038999988872;24447.7707254;3.0999981390777975e-06;0.5043026999992435;0.5443340999991051;0.5958249999966938;0.665747699997155;0.8461643999980879;1.114683599997079;0;0;1;0;0.01
5;2;12;12;letter190;letter169;congruent;0.04;letter169;0.09;0.07;fullmask;0.25;arrow_right.png;0.13;m;0.3008238000002166;0.31022939999820665;24449.7627188;3.4000004234258085e-06;0.49941469999976107;0.5394259999993665;0.5914068999991287;0.6613104999996722;0.8407426999983727;1.099783400000888;0;0;1;0;0.01
5;2;12;13;letter190;letter169;congruent;0.04;letter169;0.09;0.07;fullmask;0.25;arrow_right.png;0.13;m;0.24749030000020866;0.24939509999967413;24451.6907222;3.1999989005271345e-06;0.501119499997003;0.5411254999999073;0.593181000000186;0.6630833999988681;0.8425755999996909;0.8425780999968993;0;1;0;0;0.01
5;2;12;14;letter190;letter169;congruent;0.04;letter190;0.09;0.07;fullmask;0.25;arrow_left.png;0.13;c;0.3024360000017623;0.3101155000003928;24453.4667558;3.0999981390777975e-06;0.50398039999709;0.5439807999973709;0.5960415999979887;0.6657361999968998;0.8462544999965758;1.1043761999972048;0;0;1;0;0.01
5;2;12;15;letter190;letter169;congruent;0.04;letter190;0.09;0.07;fullmask;0.25;arrow_left.png;0.13;m;0.23934250000093016;0.2403663000004599;24455.3948002;2.9000002541579306e-06;0.4953175000009651;0.5353338999993866;0.5872157000012521;0.6569856000023719;0.8275828000005276;0.827585300001374;0;1;0;0;0.01
5;2;12;16;letter190;letter169;congruent;0.04;letter169;0.09;0.07;fullmask;0.25;arrow_right.png;0.13;m;0.3440043999980844;0.3500962999969488;24457.4107305;2.9000002541579306e-06;0.5016826000028232;0.5416975000007369;0.5936216000009154;0.6633935999998357;0.8439213000019663;1.1420829000016965;0;0;1;0;0.01
5;2;12;17;letter190;letter169;congruent;0.04;letter169;0.09;0.07;fullmask;0.25;arrow_right.png;0.13;m;0.3627932999988843;0.370168499997817;24459.4508709;2.7999994927085936e-06;0.5034866999994847;0.5434997999982443;0.5954781000000366;0.6653738999993948;0.8447965999985172;1.163905800000066;0;0;1;0;0.01
5;2;12;18;letter190;letter169;congruent;0.04;letter190;0.09;0.07;fullmask;0.25;arrow_left.png;0.13;c;0.33585519999905955;0.3402428000008513;24461.4748399;2.9999973776284605e-06;0.5044452000001911;0.5444795999974303;0.5960285999972257;0.6659249000003911;0.8463481999970099;1.1348416000000725;0;0;1;0;0.01
5;2;12;19;letter190;letter169;congruent;0.04;letter190;0.09;0.07;fullmask;0.25;arrow_left.png;0.13;c;0.326539400000911;0.33013819999905536;24463.5068097;3.1000017770566046e-06;0.502993800000695;0.5430278000021644;0.5945668999993359;0.6643514999996114;0.8448542000005546;1.1233909000002313;0;0;1;0;0.01
5;2;12;20;letter190;letter169;congruent;0.04;letter169;0.09;0.07;fullmask;0.25;arrow_right.png;0.13;m;0.38684469999861903;0.38994929999898886;24465.5787633;3.2000025385059416e-06;0.49859680000008666;0.538622200001555;0.5905316999997012;0.6602997000009054;0.8408041000002413;0.9704461000001174;0;0;0;1;0.01
5;2;12;21;letter190;letter169;congruent;0.04;letter169;0.09;0.07;fullmask;0.25;arrow_right.png;0.13;m;0.32939270000133547;0.3301510999990569;24467.4027233;3.1000017770566046e-06;0.49740269999892917;0.5373813000005612;0.5894976000017778;0.6592773000011221;0.8388018000005104;1.1177452000010817;0;0;1;0;0.01
5;2;12;22;letter190;letter169;congruent;0.04;letter190;0.09;0.07;fullmask;0.25;arrow_left.png;0.13;c;0.44239010000092094;0.4498523000002024;24469.5468712;3.2999996619764715e-06;0.5044635999984166;0.5444777999982762;0.5964461999974446;0.666146799998387;0.8466630000002624;0.9763190999983635;0;0;0;1;0.01
5;2;12;23;letter190;letter169;congruent;0.04;letter190;0.09;0.07;fullmask;0.25;arrow_left.png;0.13;c;0.3011962999989919;0.31026249999922584;24471.3468878;2.9000002541579306e-06;0.4960164000003715;0.5360389000015857;0.5879605000009178;0.6577324999998382;0.838749700000335;1.0963996999998926;0;0;1;0;0.01
5;2;12;24;letter190;letter169;congruent;0.04;letter169;0.09;0.07;fullmask;0.25;arrow_right.png;0.13;m;0.24372829999992973;0.25034129999767174;24473.2907219;2.7999994927085936e-06;0.49715069999729167;0.5371734999971522;0.58911420000004;0.6588821999976062;0.8394564999980503;0.8394588999981352;0;1;0;0;0.01
5;2;12;25;letter190;letter169;congruent;0.04;letter190;0.09;0.07;fullmask;0.25;arrow_left.png;0.13;c;0.3744587000001047;0.379907299997285;24475.1627034;3.0000010156072676e-06;0.5004485999997996;0.5404769999986456;0.5925500000012107;0.6622300999988511;0.8427467000001343;1.1708911999994598;0;0;1;0;0.01
5;2;12;26;letter190;letter169;congruent;0.04;letter190;0.09;0.07;fullmask;0.25;arrow_left.png;0.13;c;0.31139039999834495;0.32019039999795496;24477.1708798;2.9000002541579306e-06;0.5031468999986828;0.5431826999993064;0.5951599999971222;0.6648642999971344;0.845364900000277;1.1135276999993948;0;0;1;0;0.01
5;2;12;27;letter190;letter169;congruent;0.04;letter169;0.09;0.07;fullmask;0.25;arrow_right.png;0.13;m;0.4059994999988703;0.40991159999975935;24479.2667156;2.9999973776284605e-06;0.49814629999673343;0.5381602999987081;0.5900982999992266;0.6598661999996693;0.8403804999979911;0.9700342999967688;0;0;0;1;0.01
5;2;12;28;letter190;letter169;congruent;0.04;letter190;0.09;0.07;fullmask;0.25;arrow_left.png;0.13;c;0.32874699999956647;0.3301391000022704;24481.0907179;2.9999973776284605e-06;0.4981067999979132;0.5381111999995483;0.5900834999993094;0.6598580999998376;0.8403737999979057;1.1184936999998172;0;0;1;0;0.01
5;2;12;29;letter190;letter169;congruent;0.04;letter169;0.09;0.07;fullmask;0.25;arrow_right.png;0.13;m;0.3794883000009577;0.3799808000003395;24483.1627882;2.9000002541579306e-06;0.5038308000002871;0.5438646000002336;0.5958316000032937;0.6655973000015365;0.8461198000004515;1.1742900000026566;0;0;1;0;0.01
5;2;12;30;letter190;letter169;congruent;0.04;letter190;0.09;0.07;fullmask;0.25;arrow_left.png;0.13;c;0.3349554000014905;0.34121460000096704;24485.1788482;2.7999994927085936e-06;0.4985526000018581;0.5385764999991807;0.5898224000011396;0.6605965000017022;0.8401171000004979;1.1289571000015712;0;0;1;0;0.01
5;2;12;31;letter190;letter169;congruent;0.04;letter190;0.09;0.07;fullmask;0.25;arrow_left.png;0.13;c;0.3365711000005831;0.3401128000004974;24487.2026775;2.9000002541579306e-06;0.49789119999695686;0.5378811999980826;0.5900698000004923;0.6598493999990751;0.8393703999972786;1.128273899998021;0;0;1;0;0.01
5;2;12;32;letter190;letter169;congruent;0.04;letter169;0.09;0.07;fullmask;0.25;arrow_right.png;0.13;m;0.47558050000225194;0.4797232000018994;24489.3627062;2.9000002541579306e-06;0.5019376000018383;0.5419598000007682;0.5938519000010274;0.663634100001218;0.8441411000021617;0.9737896000006003;0;0;0;1;0.01
5;2;12;33;letter190;letter169;congruent;0.04;letter190;0.09;0.07;fullmask;0.25;arrow_left.png;0.13;c;0.2783017000001564;0.2801967999985209;24491.1468676;3.5999983083456755e-06;0.49717469999814057;0.5372119999992719;0.5892597999991267;0.658932399997866;0.8394530000005034;1.0675363999980618;0;0;1;0;0.01
5;2;12;34;letter190;letter169;congruent;0.04;letter169;0.09;0.07;fullmask;0.25;arrow_right.png;0.13;m;0.27693659999931697;0.28026139999929;24493.1067051;2.9000002541579306e-06;0.5033197999982804;0.5433496999976342;0.595341100000951;0.6651062999990245;0.8456256999998004;1.0737016999992193;0;0;1;0;0.01
5;2;12;35;letter190;letter169;congruent;0.04;letter169;0.09;0.07;fullmask;0.25;arrow_right.png;0.13;m;0.2618068999981915;0.270299799998611;24495.0427436;3.1000017770566046e-06;0.4958985000012035;0.5359157000020787;0.587847500002681;0.6576202000032936;0.8381415000003472;1.0562573000024713;0;0;1;0;0.01
5;2;12;36;letter190;letter169;congruent;0.04;letter169;0.09;0.07;fullmask;0.25;arrow_right.png;0.13;m;0.2745366000017384;0.28031299999929615;24497.0267094;2.9000002541579306e-06;0.5012201000026835;0.5412500000020373;0.5931410000011965;0.663047900001402;0.8434755000016594;1.0715829000000667;0;0;1;0;0.01
5;2;12;37;letter190;letter169;congruent;0.04;letter190;0.09;0.07;fullmask;0.25;arrow_left.png;0.13;c;0.3477137000008952;0.3501128999996581;24499.051242;2.9000002541579306e-06;0.5041829000001599;0.5441876000004413;0.5961834999980056;0.6660745000008319;0.8455022999987705;1.1445935999981884;0;0;1;0;0.01
5;2;12;38;letter190;letter169;congruent;0.04;letter190;0.09;0.07;fullmask;0.25;arrow_left.png;0.13;c;0.30209950000062236;0.31033949999982724;24501.0269462;2.9000002541579306e-06;0.5008613999998488;0.5408744999986084;0.5928940000012517;0.6629528000012215;0.842219499998464;1.1012633999998798;0;0;1;0;0.01
5;2;12;39;letter190;letter169;congruent;0.04;letter169;0.09;0.07;fullmask;0.25;arrow_right.png;0.13;m;0.2968615999998292;0.3003625000019383;24503.0028579;3.0000010156072676e-06;0.5000897999998415;0.5400998999975855;0.591998899999453;0.6619040999976278;0.8423302000010153;1.0904645000009623;0;0;1;0;0.01
5;2;12;40;letter190;letter169;congruent;0.04;letter169;0.09;0.07;fullmask;0.25;arrow_right.png;0.13;m;0.345292400001199;0.35012100000312785;24505.042693;3.0000010156072676e-06;0.5020403000016813;0.5420660999989195;0.5940979000006337;0.664000799999485;0.8433636000008846;1.1424585999993724;0;0;1;0;0.01
5;2;12;41;letter190;letter169;congruent;0.04;letter190;0.09;0.07;fullmask;0.25;arrow_left.png;0.13;c;0.4361056000016106;0.43983709999884013;24507.1547056;2.7999994927085936e-06;0.5027751999987231;0.5428187999968941;0.594718099997408;0.6644904999993742;0.8450084999967657;0.974668599999859;0;0;0;1;0.01
5;2;12;42;letter190;letter169;congruent;0.04;letter190;0.09;0.07;fullmask;0.25;arrow_left.png;0.13;c;0.30910190000213333;0.3101024999996298;24508.9388393;3.1000017770566046e-06;0.4986540999998397;0.5386772999991081;0.5905147000012221;0.6602884999992966;0.8407211000012467;1.0990454999991925;0;0;1;0;0.01
5;2;12;43;letter190;letter169;congruent;0.04;letter169;0.09;0.07;fullmask;0.25;arrow_right.png;0.13;m;0.26952990000063437;0.27023689999987255;24510.890743;2.8999966161791235e-06;0.5033874999971886;0.5434055999976408;0.5954504999972414;0.6651282999991963;0.845666599998367;1.063722199996846;0;0;1;0;0.01
5;2;12;44;letter190;letter169;congruent;0.04;letter169;0.09;0.07;fullmask;0.25;arrow_right.png;0.13;m;0.320303899999999;0.33017579999796;24512.8827629;3.6000019463244826e-06;0.4964584000008472;0.5364836000007926;0.5885115000019141;0.6584146999994118;0.8378453000004811;1.116877000000386;0;0;1;0;0.01
5;2;12;45;letter190;letter169;congruent;0.04;letter190;0.09;0.07;fullmask;0.25;arrow_left.png;0.13;c;0.36305979999815463;0.3701211000006879;24514.9466984;2.9000002541579306e-06;0.501938200002769;0.5419528999991599;0.5938748000007763;0.6637637999992876;0.8441958000003069;1.162354600000981;0;0;1;0;0.01
5;2;12;46;letter190;letter169;congruent;0.04;letter190;0.09;0.07;fullmask;0.25;arrow_left.png;0.13;c;0.3217791999995825;0.33015290000184905;24516.9468383;3.1000017770566046e-06;0.5001449000010325;0.5401520000013988;0.5921907000010833;0.6618567000004987;0.8423803000005137;1.1205341999993834;0;0;1;0;0.01
5;2;12;47;letter190;letter169;congruent;0.04;letter169;0.09;0.07;fullmask;0.25;arrow_right.png;0.13;m;0.3264941000015824;0.33026990000143996;24518.9627703;3.0999981390777975e-06;0.4993880000001809;0.5394014999983483;0.5913448999999673;0.6613999000001058;0.8416655999972136;1.1197646000000532;0;0;1;0;0.01
5;2;12;48;letter190;letter169;congruent;0.04;letter169;0.09;0.07;fullmask;0.25;arrow_right.png;0.13;m;0.2790545999996539;0.2792269999990822;24520.946806;3.0999981390777975e-06;0.4961697999970056;0.536197399997036;0.5883198999981687;0.658228299998882;0.8376468999995268;1.0665369999987888;0;0;1;0;0.01
5;2;13;1;letter190;letter169;congruent;0.04;letter169;0.09;0.07;fullmask;0.2;arrow_right.png;0.13;m;0.3939351999979408;0.3999812000001839;24538.5227455;3.3999967854470015e-06;0.5039172999968287;0.5439695999994001;0.5959084999994957;0.665715099999943;0.7953675999997358;0.9260177999967709;0;0;0;1;0.01
5;2;13;2;letter190;letter169;congruent;0.04;letter190;0.09;0.07;fullmask;0.2;arrow_left.png;0.13;m;0.3026328999985708;0.31017679999786196;24540.322665;3.1999989005271345e-06;0.4970348999995622;0.537057300000015;0.5890390999993542;0.6588040999995428;0.7884583999984898;1.097423399998661;0;0;1;0;0.01
5;2;13;3;letter190;letter169;congruent;0.04;letter190;0.09;0.07;fullmask;0.2;arrow_left.png;0.13;c;0.30134280000129365;0.31007859999954235;24542.3228448;2.6999987312592566e-06;0.5038028999988455;0.5438250000006519;0.595991199999844;0.6655448000019533;0.7952009000000544;1.1041979000001447;0;0;1;0;0.01
5;2;13;4;letter190;letter169;congruent;0.04;letter190;0.09;0.07;fullmask;0.2;arrow_left.png;0.13;c;0.33189409999977215;0.3401052000008349;24544.3546822;2.8000031306874007e-06;0.5047398000024259;0.5447634000011021;0.5969145000017306;0.6666879000003973;0.7963432000033208;0.9269936000018788;0;0;0;1;0.01
5;2;13;5;letter190;letter169;congruent;0.04;letter190;0.09;0.07;fullmask;0.2;arrow_left.png;0.13;c;0.309229200000118;0.310231899999053;24546.1627316;2.9000002541579306e-06;0.49957419999918784;0.5395965999996406;0.5913146000020788;0.6612156000010145;0.7917783000011696;1.0999914000021818;0;0;1;0;0.01
5;2;13;6;letter190;letter169;congruent;0.04;letter190;0.09;0.07;fullmask;0.2;arrow_left.png;0.13;c;0.251529400000436;0.26022500000181026;24548.1067008;3.0000010156072676e-06;0.5028319000011834;0.542850300000282;0.5949502000003122;0.6647129999983008;0.7942736000004516;1.0532133000015165;0;0;1;0;0.01
5;2;13;7;letter190;letter169;congruent;0.04;letter169;0.09;0.07;fullmask;0.2;arrow_right.png;0.13;m;0.2945937000004051;0.30034929999965243;24550.0909378;2.8999966161791235e-06;0.49545739999666694;0.5354789999983041;0.5874870999978157;0.6573817999997118;0.7869286999994074;1.0858232999999018;0;0;1;0;0.01
5;2;13;8;letter190;letter169;congruent;0.04;letter169;0.09;0.07;fullmask;0.2;arrow_right.png;0.13;m;0.3430518999994092;0.35012060000008205;24552.1306834;2.9000002541579306e-06;0.5037112999998499;0.5437314000009792;0.5957674000019324;0.6656638999993447;0.7952327000020887;0.9258814999993774;0;0;0;1;0.01
5;2;13;9;letter190;letter169;congruent;0.04;letter169;0.09;0.07;fullmask;0.2;arrow_right.png;0.13;m;0.3500834999977087;0.3600976999987324;24553.9787462;3.0000010156072676e-06;0.501216900000145;0.5412586000020383;0.5931244000021252;0.6629393000002892;0.7925945999995747;0.9232448000002478;0;0;0;1;0.01
5;2;13;10;letter190;letter169;congruent;0.04;letter169;0.09;0.07;fullmask;0.2;arrow_right.png;0.13;m;0.28876690000106464;0.2902409999987867;24555.7786754;3.0000010156072676e-06;0.4984167000002344;0.5384314000002632;0.5903510000025562;0.6601313000028313;0.7897778000005928;1.078779500003293;0;0;1;0;0.01
5;2;13;11;letter190;letter169;congruent;0.04;letter169;0.09;0.07;fullmask;0.2;arrow_right.png;0.13;m;0.27552320000177133;0.28041289999964647;24557.7468234;2.9000002541579306e-06;0.5037864000005357;0.5438151999987895;0.5958590999980515;0.6657607999986794;0.7953264999996463;1.0741476000002876;0;0;1;0;0.01
5;2;13;12;letter190;letter169;congruent;0.04;letter190;0.09;0.07;fullmask;0.2;arrow_left.png;0.13;c;0.30222929999945336;0.3101883999988786;24559.7546756;3.2000025385059416e-06;0.5039748000017426;0.5440092000026198;0.5959226000013587;0.6656954999998561;0.7953441999998176;1.1043710000012652;0;0;1;0;0.01
5;2;13;13;letter190;letter169;congruent;0.04;letter169;0.09;0.07;fullmask;0.2;arrow_right.png;0.13;m;0.34096409999983734;0.3500793999992311;24561.79469;3.1000017770566046e-06;0.4972254999993311;0.5372434000018984;0.5891620000002149;0.6589416999995592;0.7885927999996056;0.9192471999995178;0;0;0;1;0.01
5;2;13;14;letter190;letter169;congruent;0.04;letter190;0.09;0.07;fullmask;0.2;arrow_left.png;0.13;c;0.3598188000032678;0.3599510000021837;24563.6747495;3.0999981390777975e-06;0.500526699997863;0.5405494000006001;0.5924797999978182;0.6622583999997005;0.7919110000002547;0.9225705999997444;0;0;0;1;0.01
5;2;13;15;letter190;letter169;congruent;0.04;letter190;0.09;0.07;fullmask;0.2;arrow_left.png;0.13;c;0.3972978999991028;0.4010908999989624;24565.562993;3.0999981390777975e-06;0.49494679999770597;0.534959999997227;0.5864638999992167;0.6562760999986494;0.7869250999974611;0.9165692999995372;0;0;0;1;0.01
5;2;13;16;letter190;letter169;congruent;0.04;letter169;0.09;0.07;fullmask;0.2;arrow_right.png;0.13;m;0.2813179000004311;0.29028439999819966;24567.3387513;2.8000031306874007e-06;0.5030996000023151;0.5431106000032742;0.5951451000000816;0.6650509999999485;0.7946053000014217;1.083453200000804;0;0;1;0;0.01
5;2;13;17;letter190;letter169;congruent;0.04;letter190;0.09;0.07;fullmask;0.2;arrow_left.png;0.13;c;0.32204690000071423;0.3301677000017662;24569.3706704;3.0000010156072676e-06;0.5000987999992503;0.5401173999998719;0.5920513999990362;0.6619472999991558;0.7915085000022373;1.120484499999293;0;0;1;0;0.01
5;2;13;18;letter190;letter169;congruent;0.04;letter169;0.09;0.07;fullmask;0.2;arrow_right.png;0.13;m;0.27082419999715057;0.28029459999743267;24571.3308209;2.9000002541579306e-06;0.49733000000196625;0.5373615999997128;0.589368299999478;0.6590475000011793;0.789709299999231;1.0676902000013797;0;0;1;0;0.01
5;2;13;19;letter190;letter169;congruent;0.04;letter190;0.09;0.07;fullmask;0.2;arrow_left.png;0.13;c;0.2660421000000497;0.270320299998275;24573.3066641;3.0999981390777975e-06;0.5017716999973345;0.5417930000003253;0.5931497999990825;0.6632098999980371;0.7936066999973264;1.062115199998516;0;0;1;0;0.01
5;2;13;20;letter190;letter169;congruent;0.04;letter190;0.09;0.07;fullmask;0.2;arrow_left.png;0.13;c;0.3221780999992916;0.33017779999863706;24575.3146615;3.0999981390777975e-06;0.49622809999709716;0.5362702999991598;0.5882279999968887;0.6581314999966708;0.7876913000000059;1.1166262999977334;0;0;1;0;0.01
5;2;13;21;letter190;letter169;congruent;0.04;letter190;0.09;0.07;fullmask;0.2;arrow_left.png;0.13;c;0.31902890000128536;0.320310300001438;24577.322808;2.9000002541579306e-06;0.49993539999923087;0.5399577999996836;0.5919295999992755;0.661831199999142;0.7913984000006167;1.1103098999992653;0;0;1;0;0.01
5;2;13;22;letter190;letter169;congruent;0.04;letter169;0.09;0.07;fullmask;0.2;arrow_right.png;0.13;m;0.31767949999994016;0.32030739999754587;24579.3227746;3.1000017770566046e-06;0.4952868000000308;0.5353162000028533;0.5873358000026201;0.6572357000004558;0.7867954000030295;1.1056872000008298;0;0;1;0;0.01
5;2;13;23;letter190;letter169;congruent;0.04;letter169;0.09;0.07;fullmask;0.2;arrow_right.png;0.13;m;0.30830950000017765;0.3102221000008285;24581.3146873;3.1999989005271345e-06;0.4971685999989859;0.5371907999979157;0.5891900999995414;0.6590838999982225;0.7886403000011342;1.0975480999986758;0;0;1;0;0.01
5;2;13;24;letter190;letter169;congruent;0.04;letter169;0.09;0.07;fullmask;0.2;arrow_right.png;0.13;m;0.3630228000001807;0.37007119999907445;24583.3707298;3.2999996619764715e-06;0.5031109000010474;0.5431255000003148;0.5951805000004242;0.6650832000013907;0.7946516000010888;0.9253000999997312;0;0;0;1;0.01
5;2;13;25;letter190;letter169;congruent;0.04;letter190;0.09;0.07;fullmask;0.2;arrow_left.png;0.13;c;0.3178178000016487;0.32030700000177603;24585.1867419;2.7999994927085936e-06;0.5029082000000926;0.5429262999969069;0.5950102999995579;0.6649115000000165;0.7944849999985308;1.1133010999983526;0;0;1;0;0.01
5;2;13;26;letter190;letter169;congruent;0.04;letter190;0.09;0.07;fullmask;0.2;arrow_left.png;0.13;m;0.28467100000125356;0.29038650000074995;24587.1547591;3.0000010156072676e-06;0.495257099999435;0.5352550000025076;0.5872288999999;0.6571309999999357;0.7867076000002271;1.0756177000002936;0;0;1;0;0.01
5;2;13;27;letter190;letter169;congruent;0.04;letter169;0.09;0.07;fullmask;0.2;arrow_right.png;0.13;m;0.32326219999958994;0.33017579999796;24589.1546624;2.9000002541579306e-06;0.4959615000007034;0.5359849999986182;0.5880010000000766;0.6579023999984202;0.7874826999977813;1.1163644999978715;0;0;1;0;0.01
5;2;13;28;letter190;letter169;congruent;0.04;letter190;0.09;0.07;fullmask;0.2;arrow_left.png;0.13;c;0.28015079999750014;0.2902723999977752;24591.1227386;2.9000002541579306e-06;0.497810800003208;0.5378588000021409;0.5897498000013002;0.6596435999999812;0.7892076000025554;1.0781924000002618;0;0;1;0;0.01
5;2;13;29;letter190;letter169;congruent;0.04;letter169;0.09;0.07;fullmask;0.2;arrow_right.png;0.13;m;0.26094799999918905;0.2704435999985435;24593.0748513;3.0000010156072676e-06;0.5008917000013753;0.5408990000032645;0.5928693000023486;0.6626843000012741;0.7923394000026747;1.0612404000021343;0;0;1;0;0.01
5;2;13;30;letter190;letter169;congruent;0.04;letter190;0.09;0.07;fullmask;0.2;arrow_left.png;0.13;c;0.34754869999960647;0.3500208000004932;24595.1227462;3.1000017770566046e-06;0.5020299999996496;0.5420473000012862;0.5940498999989359;0.6637570999992022;0.7944182999999612;0.9240657000009378;0;0;0;1;0.01
5;2;13;31;letter190;letter169;congruent;0.04;letter190;0.09;0.07;fullmask;0.2;arrow_left.png;0.13;c;0.4103560000003199;0.41989120000289404;24597.0266795;3.2000025385059416e-06;0.4975854000003892;0.5376002000011795;0.5895381000009365;0.6593100999998569;0.7889694000004965;0.9196138000006613;0;0;0;1;0.01
5;2;13;32;letter190;letter169;congruent;0.04;letter169;0.09;0.07;fullmask;0.2;arrow_right.png;0.13;m;0.2613024000020232;0.2703980000005686;24598.7788177;3.0999981390777975e-06;0.49529209999673185;0.5352980999996362;0.5872090999982902;0.6569801999976335;0.7866410999995423;1.0556364999974903;0;0;1;0;0.01
5;2;13;33;letter190;letter169;congruent;0.04;letter190;0.09;0.07;fullmask;0.2;arrow_left.png;0.13;m;0.29985669999950915;0.3002607000016724;24600.7787679;3.4000004234258085e-06;0.5047727999990457;0.5448173000004317;0.5968386999993527;0.666740699998627;0.7963079000001017;1.0951469999999972;0;0;1;0;0.01
5;2;13;34;letter190;letter169;congruent;0.04;letter169;0.09;0.07;fullmask;0.2;arrow_right.png;0.13;m;0.25843199999872013;0.26013679999960004;24602.7387837;2.8000031306874007e-06;0.5016037000023061;0.5416260000019975;0.5938396000019566;0.6633122000021103;0.7930477000008977;1.0519701000011992;0;0;1;0;0.01
5;2;13;35;letter190;letter169;congruent;0.04;letter190;0.09;0.07;fullmask;0.2;arrow_left.png;0.13;c;0.3172643000034441;0.32019190000210074;24604.7386895;3.1999989005271345e-06;0.49924559999999474;0.5392752000007022;0.5912949999983539;0.66118749999805;0.7907439999980852;1.1096311000001151;0;0;1;0;0.01
5;2;13;36;letter190;letter169;congruent;0.04;letter190;0.09;0.07;fullmask;0.2;arrow_left.png;0.13;c;0.33011070000065956;0.34008999999787193;24606.7627289;3.0999981390777975e-06;0.49528880000070785;0.5353071999998065;0.5872439999984636;0.6570155000008526;0.7866567999990366;0.9172118999995291;0;0;0;1;0.01
5;2;13;37;letter190;letter169;congruent;0.04;letter190;0.09;0.07;fullmask;0.2;arrow_left.png;0.13;c;0.8214585999994597;0.8309047000002465;24609.0748108;2.8000031306874007e-06;0.5011111000021629;0.5411201000024448;0.5926108000021486;0.66239029999997;0.7930278000021644;0.9226969000010286;0;0;0;1;0.01
5;2;13;38;letter190;letter169;congruent;0.04;letter190;0.09;0.07;fullmask;0.2;arrow_left.png;0.13;c;0.24226329999873997;0.2504804999989574;24610.8268947;3.0000010156072676e-06;0.5013572999996541;0.5413707999978215;0.5926332999988517;0.6635237999980745;0.7930850999982795;1.041694200001075;0;0;1;0;0.01
5;2;13;39;letter190;letter169;congruent;0.04;letter169;0.09;0.07;fullmask;0.2;arrow_right.png;0.13;m;0.2985631999981706;0.3002145999998902;24612.8346943;3.4000004234258085e-06;0.4973676000008709;0.5373930000023392;0.5889102000001003;0.6586903999996139;0.7893337999994401;1.0877352000024985;0;0;1;0;0.01
5;2;13;40;letter190;letter169;congruent;0.04;letter169;0.09;0.07;fullmask;0.2;arrow_right.png;0.13;m;0.27081510000061826;0.28026500000123633;24614.818646;2.9000002541579306e-06;0.49878109999917797;0.5387957000020833;0.5907378000010794;0.6605124000016076;0.7901553000010608;1.0691550000010466;0;0;1;0;0.01
5;2;13;41;letter190;letter169;congruent;0.04;letter169;0.09;0.07;fullmask;0.2;arrow_right.png;0.13;m;0.2854555999983859;0.29028619999735383;24616.7946404;2.7999994927085936e-06;0.4989279000001261;0.5389555000001565;0.5909819999978936;0.660924799998611;0.7904529999977967;1.0793269999994664;0;0;1;0;0.01
5;2;13;42;letter190;letter169;congruent;0.04;letter169;0.09;0.07;fullmask;0.2;arrow_right.png;0.13;m;0.29644810000172583;0.30025430000023334;24618.7868386;3.1000017770566046e-06;0.502414200000203;0.5424337000004016;0.5943985000012617;0.6641011000028811;0.7937371000007261;1.092791800001578;0;0;1;0;0.01
5;2;13;43;letter190;letter169;congruent;0.04;letter169;0.09;0.07;fullmask;0.2;arrow_right.png;0.13;m;0.24299299999984214;0.2503455000005488;24620.7146497;3.1000017770566046e-06;0.5031548000006296;0.543177999999898;0.5951428000007581;0.6649160000015399;0.7945669000000635;1.0435170000018843;0;0;1;0;0.01
5;2;13;44;letter190;letter169;congruent;0.04;letter190;0.09;0.07;fullmask;0.2;arrow_left.png;0.13;c;0.8059069000009913;0.8108486999990419;24623.2186551;2.9000002541579306e-06;0.5012769999993907;0.5412810000016179;0.5930856999984826;0.6628605000005336;0.7935098999987531;0.9231618000012531;0;0;0;1;0.01
5;2;13;45;letter190;letter169;congruent;0.04;letter169;0.09;0.07;fullmask;0.2;arrow_right.png;0.13;m;0.3102543000022706;0.320194600000832;24625.0347078;3.1999989005271345e-06;0.5039207000008901;0.5439372000000731;0.5959464000006847;0.6658418999977584;0.7953973000003316;1.1142882999993162;0;0;1;0;0.01
5;2;13;46;letter190;letter169;congruent;0.04;letter169;0.09;0.07;fullmask;0.2;arrow_right.png;0.13;m;0.30764900000212947;0.3103338000000804;24627.0427209;2.7999994927085936e-06;0.5006502999967779;0.5406387999973958;0.5919974999997066;0.6618935999977111;0.7924576999976125;1.1010341999972297;0;0;1;0;0.01
5;2;13;47;letter190;letter169;congruent;0.04;letter190;0.09;0.07;fullmask;0.2;arrow_left.png;0.13;c;0.8277092999996967;0.8307992000009108;24629.5546462;3.0999981390777975e-06;0.5029996999983268;0.5430199000002176;0.5949590999989596;0.6647268999986409;0.7943802999980107;0.925039800000377;0;0;0;1;0.01
5;2;13;48;letter190;letter169;congruent;0.04;letter169;0.09;0.07;fullmask;0.2;arrow_right.png;0.13;m;0.36396899999817833;0.37007509999966715;24631.4026356;2.8000031306874007e-06;0.49649630000203615;0.5365059000032488;0.5886892000016815;0.6577557000018714;0.7881678000012471;0.9188128000023426;0;0;0;1;0.01
