subjnr;loop_m;blocknr;trialnr;cue_left_learn;cue_right_learn; congruence;cue_dur;cue;SOA;mask_dur;mask;target_dur;target;RW_dur;response;RT;kb_rt;response_absolute; fix_onset;cue_onset;cue_offset;mask_onset;mask_offset;target_offset;blank_onset;response_during_mask;response_during_targetalone;response_during_RW;response_during_blank;frame_dur
8;1;1;1;letter181;letter357;congruent;0.04;letter357;0.05;0.07;fullmask;0.3;arrow_right.png;0;m;0.36857120000058785;0.36998730001505464;271748.7561886;2.7999631129205227e-06;0.5034220999805257;0.5434584000031464;0.555044699984137;0.624771700007841;0.8551613999879919;0.8551679999800399;0;0;0;1;0.01
8;1;1;2;letter181;letter357;congruent;0.04;letter181;0.05;0.07;fullmask;0.3;arrow_left.png;0;c;0.33102089999010786;0.34010339999804273;271750.5802703;3.0999653972685337e-06;0.4989043999812566;0.5389224999817088;0.5509568999987096;0.6207290999591351;0.8511132000130601;0.8511192000005394;0;0;0;1;0.01
8;1;1;3;letter181;letter357;congruent;0.04;letter357;0.05;0.07;fullmask;0.3;arrow_right.png;0;m;0.269971199973952;0.27011430001584813;271752.3002964;2.700020559132099e-06;0.49829480005428195;0.5383067000075243;0.5502550000092015;0.6199305000482127;0.8203682000166737;0.8203710000379942;0;1;0;0;0.01
8;1;1;4;letter181;letter357;congruent;0.04;letter357;0.05;0.07;fullmask;0.3;arrow_right.png;0;m;0.432581500033848;0.4398931000032462;271754.1641874;2.900022082030773e-06;0.49478190002264455;0.5348054000060074;0.5469241000246257;0.6168287000036798;0.8461258999886923;0.846133099985309;0;0;0;1;0.01
8;1;1;5;letter181;letter357;congruent;0.04;letter181;0.05;0.07;fullmask;0.3;arrow_left.png;0;c;0.3055185000412166;0.3102015000185929;271755.9083468;3.200024366378784e-06;0.5030940999859013;0.5431192999822088;0.5552613000036217;0.6249306999961846;0.8553298999904655;0.8553504000301473;0;0;0;1;0.01
8;1;1;6;letter181;letter357;congruent;0.04;letter181;0.05;0.07;fullmask;0.3;arrow_left.png;0;c;0.30656549998093396;0.3101889999816194;271757.6602231;2.700020559132099e-06;0.4978337000356987;0.5378443000372499;0.5496782000409439;0.6194489999907091;0.8498322000377811;0.8498382000252604;0;0;0;1;0.01
8;1;1;7;letter181;letter357;congruent;0.04;letter357;0.05;0.07;fullmask;0.3;arrow_right.png;0;m;0.29112110001733527;0.2992617000127211;271759.39619;2.900022082030773e-06;0.5017665000050329;0.5417855000123382;0.5539064000477083;0.6238123000366613;0.853166900051292;0.8531694000121206;0;1;0;0;0.01
8;1;1;8;letter181;letter357;congruent;0.04;letter181;0.05;0.07;fullmask;0.3;arrow_left.png;0;c;0.3139866000274196;0.32015680003678426;271761.1402062;2.5999615900218487e-06;0.5030176999862306;0.5430216999957338;0.5551508999778889;0.6249233999988064;0.8543097999645397;0.8543156999512576;0;0;0;1;0.01
8;1;1;9;letter181;letter357;congruent;0.04;letter181;0.05;0.07;fullmask;0.3;arrow_left.png;0;c;0.3329100000555627;0.3401238000369631;271762.9002148;2.700020559132099e-06;0.5030562999891117;0.5430803000344895;0.5551923000020906;0.6249807000276633;0.8553577000275254;0.8553635000134818;0;0;0;1;0.01
8;1;1;10;letter181;letter357;congruent;0.04;letter181;0.05;0.07;fullmask;0.3;arrow_left.png;0;c;0.3538589000236243;0.36007670004619285;271764.6923232;2.900022082030773e-06;0.495091000047978;0.535106600029394;0.5472283000126481;0.6169195999973454;0.8472852000268176;0.8472913000150584;0;0;0;1;0.01
8;1;1;11;letter181;letter357;congruent;0.04;letter357;0.05;0.07;fullmask;0.3;arrow_right.png;0;m;0.28078370000002906;0.2897965000011027;271766.4203354;2.800021320581436e-06;0.5035943000111729;0.5436102999956347;0.5556454000179656;0.6254151000175625;0.8454428000259213;0.8454452000441961;0;1;0;0;0.01
8;1;1;12;letter181;letter357;congruent;0.04;letter357;0.05;0.07;fullmask;0.3;arrow_right.png;0;c;0.30138560000341386;0.3092359000002034;271768.1721749;2.800021320581436e-06;0.4981895000091754;0.5382276000455022;0.5503694000071846;0.6202753999968991;0.8495718000340275;0.8495784000260755;0;0;0;1;0.01
8;1;1;13;letter181;letter357;congruent;0.04;letter181;0.05;0.07;fullmask;0.3;arrow_left.png;0;c;0.4001534999697469;0.4099712999886833;271770.2121678;2.900022082030773e-06;0.4955549000296742;0.5355800000252202;0.5477025000145659;0.617606199986767;0.846905299986247;0.8469123999821022;0;0;0;1;0.01
8;1;1;14;letter181;letter357;congruent;0.04;letter357;0.05;0.07;fullmask;0.3;arrow_right.png;0;m;0.3050757000455633;0.3103094000252895;271771.9482667;2.9999646358191967e-06;0.4956347999977879;0.5356622000108473;0.5477756999898702;0.6175577999674715;0.8479407000122592;0.8479615999967791;0;0;0;1;0.01
8;1;1;15;letter181;letter357;congruent;0.04;letter357;0.05;0.07;fullmask;0.3;arrow_right.png;0;m;0.3138500999775715;0.32005039998330176;271773.708171;2.7999631129205227e-06;0.49776830000337213;0.5377726999577135;0.5498903999687172;0.6195575000019744;0.8499312999774702;0.8499377999687567;0;0;0;1;0.01
8;1;1;16;letter181;letter357;congruent;0.04;letter357;0.05;0.07;fullmask;0.3;arrow_right.png;0;m;0.3608195999986492;0.3700272000278346;271775.5161647;2.7999631129205227e-06;0.5008429999579675;0.5408620999660343;0.5528416999732144;0.6226168999564834;0.8529991999967024;0.8530064999940805;0;0;0;1;0.01
8;1;1;17;letter181;letter357;congruent;0.04;letter181;0.05;0.07;fullmask;0.3;arrow_left.png;0;c;0.3215796000440605;0.33013080002274364;271777.2681277;2.900022082030773e-06;0.4946530999732204;0.5346661999938078;0.5466994000016712;0.6164642000221647;0.8468471000087447;0.846853099996224;0;0;0;1;0.01
8;1;1;18;letter181;letter357;congruent;0.04;letter357;0.05;0.07;fullmask;0.3;arrow_right.png;0;m;0.2644084999919869;0.2693058999720961;271778.9721913;2.700020559132099e-06;0.49795290001202375;0.5379777000052854;0.5501018000068143;0.6198767000460066;0.8194014000473544;0.819403900008183;0;1;0;0;0.01
8;1;1;19;letter181;letter357;congruent;0.04;letter181;0.05;0.07;fullmask;0.3;arrow_left.png;0;c;0.2515187000390142;0.26034690003143623;271780.6604038;2.7999631129205227e-06;0.5042634999845177;0.5442990000010468;0.5564042999758385;0.6260776999988593;0.8167535999673419;0.816761799971573;0;1;0;0;0.01
8;1;1;20;letter181;letter357;congruent;0.04;letter181;0.05;0.07;fullmask;0.3;arrow_left.png;0;c;0.33675730001414195;0.34010339999804273;271782.4361656;2.4999608285725117e-06;0.4962764999945648;0.5363023999962024;0.5478557999595068;0.6176271999720484;0.848011799971573;0.848017499956768;0;0;0;1;0.01
8;1;1;21;letter181;letter357;congruent;0.04;letter357;0.05;0.07;fullmask;0.3;arrow_right.png;0;m;0.35911860002670437;0.3600868000066839;271784.2202433;3.3999676816165447e-06;0.4987635999568738;0.5387855999870226;0.5508959999424405;0.620801399985794;0.8500857999897562;0.8500929999863729;0;0;0;1;0.01
8;1;1;22;letter181;letter357;congruent;0.04;letter181;0.05;0.07;fullmask;0.3;arrow_left.png;0;c;0.3180238000350073;0.320164900040254;271785.9802023;2.5999615900218487e-06;0.4975710000144318;0.5376006999867968;0.549609599984251;0.6193888999987394;0.8497674000100233;0.8497740000020713;0;0;0;1;0.01
8;1;1;23;letter181;letter357;congruent;0.04;letter181;0.05;0.07;fullmask;0.3;arrow_left.png;0;c;0.38886300002923235;0.38989570003468543;271787.8122423;2.800021320581436e-06;0.4946536000352353;0.5346792000345886;0.5467473000171594;0.6164403000148013;0.846800200000871;0.8468068999936804;0;0;0;1;0.01
8;1;1;24;letter181;letter357;congruent;0.04;letter357;0.05;0.07;fullmask;0.3;arrow_right.png;0;m;0.331640399992466;0.34010739997029305;271789.5961573;3.100023604929447e-06;0.5008154000388458;0.5408291000057943;0.5528511000447907;0.6226248000166379;0.8530085000093095;0.8530143999960274;0;0;0;1;0.01
8;1;1;25;letter181;letter357;congruent;0.04;letter357;0.05;0.07;fullmask;0.3;arrow_right.png;0.13;m;5.474116199999116;5.483310199982952;271840.1481329;2.6999623514711857e-06;0.5045297999749891;0.5445322999730706;0.5566395999630913;0.6263613000046462;0.8567465000087395;0.9863993999897502;0;0;0;1;0.01
8;1;1;26;letter181;letter357;congruent;0.04;letter357;0.05;0.07;fullmask;0.3;arrow_right.png;0.13;m;0.34445279999636114;0.3509648999897763;271841.932131;2.6999623514711857e-06;0.49838519998593256;0.5384079999639653;0.5496854999801144;0.6204521999461576;0.8498418999952264;1.0987848999793641;0;0;1;0;0.01
8;1;1;27;letter181;letter357;congruent;0.04;letter357;0.05;0.07;fullmask;0.3;arrow_right.png;0.13;m;0.3364745000144467;0.3401300000259653;271843.9162864;2.900022082030773e-06;0.49589610000839457;0.5359188999864273;0.5480446000001393;0.6177129999850877;0.848032100009732;1.0862850000266917;0;0;1;0;0.01
8;1;1;28;letter181;letter357;congruent;0.04;letter181;0.05;0.07;fullmask;0.3;arrow_left.png;0.13;c;0.2991854000138119;0.300144899985753;271845.8602627;2.9999646358191967e-06;0.5026232999516651;0.5426406999467872;0.5547538999817334;0.6244006999768317;0.8548973999568261;0.8549022999941371;0;1;0;0;0.01
8;1;1;29;letter181;letter357;congruent;0.04;letter181;0.05;0.07;fullmask;0.3;arrow_left.png;0.13;c;0.6119804999907501;0.6203587999916635;271847.9241111;3.200024366378784e-06;0.5017882999964058;0.5418110999744385;0.5538242000038736;0.6236030000145547;0.8539804000174627;0.9836413000011817;0;0;0;1;0.01
8;1;1;30;letter181;letter357;congruent;0.04;letter357;0.05;0.07;fullmask;0.3;arrow_right.png;0.13;m;0.3266740000108257;0.33013359998585656;271849.7001291;2.6999623514711857e-06;0.4995342000038363;0.5395536999567412;0.5515764000010677;0.6213490999653004;0.8517337999655865;1.0799096999689937;0;0;1;0;0.01
8;1;1;31;letter181;letter357;congruent;0.04;letter357;0.05;0.07;fullmask;0.3;arrow_right.png;0.13;m;0.3255898999632336;0.3302718999912031;271851.6601985;2.900022082030773e-06;0.49504770000930876;0.5350527000264265;0.5469641999807209;0.6167362999985926;0.8471422999864444;1.0754298000247218;0;0;1;0;0.01
8;1;1;32;letter181;letter357;congruent;0.04;letter357;0.05;0.07;fullmask;0.3;arrow_right.png;0.13;m;0.34807999996701255;0.3502305999863893;271853.6441942;3.00002284348011e-06;0.4979977000039071;0.5380166000104509;0.5501496000215411;0.6200566000188701;0.8493545000092126;1.098370200023055;0;0;1;0;0.01
8;1;1;33;letter181;letter357;congruent;0.04;letter181;0.05;0.07;fullmask;0.3;arrow_left.png;0.13;c;0.2927762000472285;0.3002480000141077;271855.5801079;2.7999631129205227e-06;0.5014284999924712;0.5414433999685571;0.5534930999856442;0.6233919999795035;0.8537406999967061;0.8537431999575347;0;1;0;0;0.01
8;1;1;34;letter181;letter357;congruent;0.04;letter357;0.05;0.07;fullmask;0.3;arrow_right.png;0.13;m;0.5536573000135832;0.5595196000067517;271857.5721048;2.900022082030773e-06;0.49617429997306317;0.536195199994836;0.5482477999757975;0.6180199999944307;0.8484039999893866;0.9780612000031397;0;0;0;1;0.01
8;1;1;35;letter181;letter357;congruent;0.04;letter357;0.05;0.07;fullmask;0.3;arrow_right.png;0.13;m;0.3404325000010431;0.3502335000084713;271859.3401306;3.0999653972685337e-06;0.49744469998404384;0.5374599000206217;0.5494878999888897;0.6194166999775916;0.8488045000121929;1.0978306999895722;0;0;1;0;0.01
8;1;1;36;letter181;letter357;congruent;0.04;letter181;0.05;0.07;fullmask;0.3;arrow_left.png;0.13;c;0.50119400001131;0.5096057000337169;271861.4922786;2.700020559132099e-06;0.500077800010331;0.5400796000030823;0.5521972000133246;0.6218819000059739;0.8522681000176817;0.9819162000203505;0;0;0;1;0.01
8;1;1;37;letter181;letter357;congruent;0.04;letter181;0.05;0.07;fullmask;0.3;arrow_left.png;0.13;c;0.2818041000282392;0.29023620003135875;271863.2441013;2.6999623514711857e-06;0.5000762999989092;0.5401098000002094;0.5521412999951281;0.6219185999943875;0.8423782999743707;0.8423806999926455;0;1;0;0;0.01
8;1;1;38;letter181;letter357;congruent;0.04;letter181;0.05;0.07;fullmask;0.3;arrow_left.png;0.13;c;0.5627212000545114;0.570482200011611;271865.2360986;3.00002284348011e-06;0.49731469998368993;0.5373549000360072;0.5493605000083335;0.619131000014022;0.8495114000397734;0.9791660000337288;0;0;0;1;0.01
8;1;1;39;letter181;letter357;congruent;0.04;letter357;0.05;0.07;fullmask;0.3;arrow_right.png;0.13;m;0.49745580001035705;0.4996790000004694;271867.1720968;3.100023604929447e-06;0.49645560001954436;0.5364804000128061;0.5484671000158414;0.6182392999762669;0.8486171999829821;0.9782764000119641;0;0;0;1;0.01
8;1;1;40;letter181;letter357;congruent;0.04;letter181;0.05;0.07;fullmask;0.3;arrow_left.png;0.13;c;0.42218890000367537;0.42990270000882447;271869.0282389;2.700020559132099e-06;0.4976670000469312;0.537681000016164;0.5498309000395238;0.6195288000162691;0.8499114000005648;1.1780987000092864;0;0;1;0;0.01
8;1;1;41;letter181;letter357;congruent;0.04;letter181;0.05;0.07;fullmask;0.3;arrow_left.png;0.13;c;0.43078489997424185;0.4398333000135608;271871.1080958;2.800021320581436e-06;0.5038128000451252;0.5438294000341557;0.5558942000498064;0.6256762000266463;0.8560496999998577;0.9856982000055723;0;0;0;1;0.01
8;1;1;42;letter181;letter357;congruent;0.04;letter181;0.05;0.07;fullmask;0.3;arrow_left.png;0.13;c;0.2836457999655977;0.29024169995682314;271872.852142;3.200024366378784e-06;0.4960475999978371;0.5360690000234172;0.5480960999848321;0.6178675999981351;0.8383392000105232;0.8383416999713518;0;1;0;0;0.01
8;1;1;43;letter181;letter357;congruent;0.04;letter181;0.05;0.07;fullmask;0.3;arrow_left.png;0.13;c;0.46649850002722815;0.46975879999808967;271874.7560927;2.700020559132099e-06;0.5017983000143431;0.5418299000011757;0.5538267000229098;0.62359870004002;0.8539820000296459;0.9836368000251241;0;0;0;1;0.01
8;1;1;44;letter181;letter357;congruent;0.04;letter357;0.05;0.07;fullmask;0.3;arrow_right.png;0.13;m;0.4592617999878712;0.45985729998210445;271876.6602006;2.7999631129205227e-06;0.5043575000017881;0.5443887999863364;0.5564946999656968;0.6262529999949038;0.8556987000047229;0.9863475000020117;0;0;0;1;0.01
8;1;1;45;letter181;letter357;congruent;0.04;letter357;0.05;0.07;fullmask;0.3;arrow_right.png;0.13;m;0.2820110999746248;0.29028869996545836;271878.3640758;3.00002284348011e-06;0.49786200001835823;0.5378843999933451;0.5499092999962159;0.6199832999845967;0.8401974000153132;0.8401997999753803;0;1;0;0;0.01
8;1;1;46;letter181;letter357;congruent;0.04;letter357;0.05;0.07;fullmask;0.3;arrow_right.png;0.13;m;0.23885670001618564;0.23939120001159608;271880.0521518;2.700020559132099e-06;0.49669669999275357;0.5367257000179961;0.5488525000400841;0.6186278000241145;0.7882374000037089;0.7882399000227451;0;1;0;0;0.01
8;1;1;47;letter181;letter357;congruent;0.04;letter181;0.05;0.07;fullmask;0.3;arrow_left.png;0.13;c;0.2957600000081584;0.30012020003050566;271881.7801031;2.8999638743698597e-06;0.4966433999943547;0.536654700001236;0.548760499979835;0.6184566000010818;0.8488747999654151;0.8488771999836899;0;1;0;0;0.01
8;1;1;48;letter181;letter357;congruent;0.04;letter181;0.05;0.07;fullmask;0.3;arrow_left.png;0.13;c;0.4826801000162959;0.4899182000081055;271883.7080784;2.800021320581436e-06;0.5041567000444047;0.5441870000213385;0.5562075000489131;0.6262794000213034;0.8555771000101231;0.9862310000462458;0;0;0;1;0.01
8;1;2;1;letter181;letter357;congruent;0.04;letter357;0.05;0.07;fullmask;0.25;arrow_right.png;0.13;m;0.443890199996531;0.44985899998573586;271894.1560654;2.6999623514711857e-06;0.4994338999968022;0.5394332999712788;0.5514475000090897;0.6212561000138521;0.8007730999961495;0.9314241000101902;0;0;0;1;0.01
8;1;2;2;letter181;letter357;congruent;0.04;letter181;0.05;0.07;fullmask;0.25;arrow_left.png;0.13;c;0.28877609997289255;0.29038100002799183;271895.8921656;3.00002284348011e-06;0.49558069999329746;0.5356140999938361;0.5475980000337586;0.6173698999918997;0.7968903000000864;1.035923300019931;0;0;1;0;0.01
8;1;2;3;letter181;letter357;congruent;0.04;letter357;0.05;0.07;fullmask;0.25;arrow_right.png;0.13;m;0.28741659998195246;0.29027079994557425;271897.8121953;2.700020559132099e-06;0.49673299997812137;0.5367457999964245;0.5489055999787524;0.6185727000120096;0.7991173000191338;1.0370817999937572;0;0;1;0;0.01
8;1;2;4;letter181;letter357;congruent;0.04;letter181;0.05;0.07;fullmask;0.25;arrow_left.png;0.13;c;0.3062186000170186;0.3101842000032775;271899.7720697;2.6999623514711857e-06;0.5036275999736972;0.5436476999893785;0.555597200000193;0.6253691000165418;0.805884999979753;1.0639778000186197;0;0;1;0;0.01
8;1;2;5;letter181;letter357;congruent;0.04;letter181;0.05;0.07;fullmask;0.25;arrow_left.png;0.13;c;0.32481119997100905;0.3301287000067532;271901.7320722;2.900022082030773e-06;0.4957179000484757;0.5357293999986723;0.5478388000046834;0.6176059000426903;0.7971253000432625;1.0760800000280142;0;0;1;0;0.01
8;1;2;6;letter181;letter357;congruent;0.04;letter181;0.05;0.07;fullmask;0.25;arrow_left.png;0.13;c;0.2975258000078611;0.3003612000029534;271903.6760747;2.6999623514711857e-06;0.5038679999997839;0.5438785000005737;0.5560001999838278;0.6258996999822557;0.8053359999903478;1.05420969997067;0;0;1;0;0.01
8;1;2;7;letter181;letter357;congruent;0.04;letter357;0.05;0.07;fullmask;0.25;arrow_right.png;0.13;c;0.21247359999688342;0.21957499999552965;271905.5322654;2.9999646358191967e-06;0.5003586999955587;0.5403812999720685;0.552488999965135;0.6223911999841221;0.7720719000208192;0.7720799999660812;0;1;0;0;0.01
8;1;2;8;letter181;letter357;congruent;0.04;letter357;0.05;0.07;fullmask;0.25;arrow_right.png;0.13;m;0.4912049000267871;0.4996800000080839;271907.6520631;2.6999623514711857e-06;0.5039648999809287;0.5439717000117525;0.5559485999983735;0.6257208999595605;0.805241699970793;0.9358903999673203;0;0;0;1;0.01
8;1;2;9;letter181;letter357;congruent;0.04;letter181;0.05;0.07;fullmask;0.25;arrow_left.png;0.13;c;0.31187340000178665;0.3201577999861911;271909.4040639;2.800021320581436e-06;0.4992016999749467;0.53920639998978;0.5512575000175275;0.6210282999672927;0.8005468000192195;1.0695409000036307;0;0;1;0;0.01
8;1;2;10;letter181;letter357;congruent;0.04;letter357;0.05;0.07;fullmask;0.25;arrow_right.png;0.13;m;0.320730299979914;0.33014590002130717;271911.3641199;2.900022082030773e-06;0.5010630000033416;0.5410821000114083;0.5530818000552244;0.6228561000316404;0.80236720002722;1.0814436000073329;0;0;1;0;0.01
8;1;2;11;letter181;letter357;congruent;0.04;letter357;0.05;0.07;fullmask;0.25;arrow_right.png;0.13;m;0.34736199997132644;0.3501096999971196;271913.3721456;3.0999653972685337e-06;0.5004543999675661;0.5404878999688663;0.5525933000026271;0.6222730999579653;0.8028041999787092;1.1008465999620967;0;0;1;0;0.01
8;1;2;12;letter181;letter357;congruent;0.04;letter181;0.05;0.07;fullmask;0.25;arrow_left.png;0.13;c;0.24611269996967167;0.2493487999890931;271915.252068;2.700020559132099e-06;0.5022660000249743;0.5422870000475086;0.5542818000540137;0.6240560000296682;0.8036320000537671;0.8036345000145957;0;1;0;0;0.01
8;1;2;13;letter181;letter357;congruent;0.04;letter181;0.05;0.07;fullmask;0.25;arrow_left.png;0.13;c;0.36920829996233806;0.370026099961251;271917.0762263;2.8999638743698597e-06;0.5000256999628618;0.5400433999602683;0.5519986999570392;0.6217708999756724;0.8022889999556355;1.1204312999616377;0;0;1;0;0.01
8;1;2;14;letter181;letter357;congruent;0.04;letter357;0.05;0.07;fullmask;0.25;arrow_right.png;0.13;m;0.38569669995922595;0.3899680000031367;271919.0840609;3.1999661587178707e-06;0.5018293000175618;0.5418627000181004;0.5538578999694437;0.6236303999903612;0.8031487999833189;0.9338046999764629;0;0;0;1;0.01
8;1;2;15;letter181;letter357;congruent;0.04;letter181;0.05;0.07;fullmask;0.25;arrow_left.png;0.13;c;0.29855100001441315;0.30028590001165867;271920.828203;3.00002284348011e-06;0.5007118000066839;0.5407463000155985;0.5528502999804914;0.6227481000241823;0.8021830000216141;1.0510718000005;0;0;1;0;0.01
8;1;2;16;letter181;letter357;congruent;0.04;letter181;0.05;0.07;fullmask;0.25;arrow_left.png;0.13;c;0.3653333999682218;0.37002500001108274;271922.8360494;3.100023604929447e-06;0.5026079000090249;0.5426267000148073;0.5545396999805234;0.6243121000006795;0.8048302999814041;1.1230062000104226;0;0;1;0;0.01
8;1;2;17;letter181;letter357;congruent;0.04;letter181;0.05;0.07;fullmask;0.25;arrow_left.png;0.13;c;0.33998789999168366;0.35008030000608414;271924.8121069;2.600019797682762e-06;0.4998444000375457;0.5398501000017859;0.5518776000244543;0.6216505999909714;0.801171200000681;1.1002373000374064;0;0;1;0;0.01
8;1;2;18;letter181;letter357;congruent;0.04;letter181;0.05;0.07;fullmask;0.25;arrow_left.png;0.13;c;0.2785466999630444;0.2792691999929957;271926.7320422;2.700020559132099e-06;0.5008524999720976;0.5406518999952823;0.5527512999833561;0.6225268999696709;0.8020447000162676;1.03094389999751;0;0;1;0;0.01
8;1;2;19;letter181;letter357;congruent;0.04;letter181;0.05;0.07;fullmask;0.25;arrow_left.png;0.13;c;0.3274544000159949;0.3301586000015959;271928.6921725;2.800021320581436e-06;0.49576730001717806;0.5357821000507101;0.5478972000419162;0.6175713000120595;0.7981008000206202;1.0761550000170246;0;0;1;0;0.01
8;1;2;20;letter181;letter357;congruent;0.04;letter357;0.05;0.07;fullmask;0.25;arrow_right.png;0.13;c;0.2801366000203416;0.2893889000406489;271930.5960506;2.800021320581436e-06;0.501538000011351;0.5415420000208542;0.553580800013151;0.6234988000360318;0.8030188000411727;1.0418887000414543;0;0;1;0;0.01
8;1;2;21;letter181;letter357;congruent;0.04;letter357;0.05;0.07;fullmask;0.25;arrow_right.png;0.13;m;0.32310810004128143;0.33018009999068454;271932.7800382;2.900022082030773e-06;0.5006951999966986;0.5407354999915697;0.5523846000432968;0.6222917000413872;0.8027179000200704;1.081082199991215;0;0;1;0;0.01
8;1;2;22;letter181;letter357;congruent;0.04;letter357;0.05;0.07;fullmask;0.25;arrow_right.png;0.13;m;0.24197829997865483;0.2503934999695048;271934.6600393;2.800021320581436e-06;0.5025579000357538;0.542568700038828;0.5540999000077136;0.6240049000480212;0.8044926000293344;0.8044952000491321;0;1;0;0;0.01
8;1;2;23;letter181;letter357;congruent;0.04;letter357;0.05;0.07;fullmask;0.25;arrow_right.png;0.13;m;0.2863976000226103;0.29021730000386015;271936.3961092;2.6999623514711857e-06;0.5001396999577992;0.5401627999963239;0.5522479999926873;0.6219310999731533;0.8024561999482103;1.0404692000010982;0;0;1;0;0.01
8;1;2;24;letter181;letter357;congruent;0.04;letter357;0.05;0.07;fullmask;0.25;arrow_right.png;0.13;m;0.32118630001787096;0.33013040001969784;271938.3721339;3.100023604929447e-06;0.5034874000120908;0.5435033999965526;0.5555597000056878;0.6253301000106148;0.8048502000165172;1.0838655999978073;0;0;1;0;0.01
8;1;2;25;letter181;letter357;congruent;0.04;letter181;0.05;0.07;fullmask;0.25;arrow_left.png;0.13;c;0.3178559000371024;0.3201604000059888;271940.3400376;2.7999631129205227e-06;0.5033239999902435;0.5433474999736063;0.555357199977152;0.6251305999467149;0.8046465999796055;1.0736974999890663;0;0;1;0;0.01
8;1;2;26;letter181;letter357;congruent;0.04;letter181;0.05;0.07;fullmask;0.25;arrow_left.png;0.13;c;0.4545419000205584;0.4597823000513017;271942.4280279;3.0999653972685337e-06;0.4964983999961987;0.5365189999574795;0.5485681999707595;0.6183364999596961;0.7978596999892034;0.9285067999735475;0;0;0;1;0.01
8;1;2;27;letter181;letter357;congruent;0.04;letter181;0.05;0.07;fullmask;0.25;arrow_left.png;0.13;c;0.32007170002907515;0.3301581999985501;271944.2042108;3.1999661587178707e-06;0.4993860999820754;0.5394017999642529;0.5508767999708652;0.6215644999756478;0.8010667999624275;1.0797549999551848;0;0;1;0;0.01
8;1;2;28;letter181;letter357;congruent;0.04;letter181;0.05;0.07;fullmask;0.25;arrow_left.png;0.13;c;0.44610380002995953;0.4499612000072375;271946.2920696;3.0999653972685337e-06;0.4975657999748364;0.5375834999722429;0.5496102999895811;0.6195291999611072;0.7990496999700554;0.9296991999726743;0;0;0;1;0.01
8;1;2;29;letter181;letter357;congruent;0.04;letter357;0.05;0.07;fullmask;0.25;arrow_right.png;0.13;m;0.31684310000855476;0.3201549000223167;271948.0440315;3.00002284348011e-06;0.5041424999944866;0.54416879999917;0.5561804000171833;0.6259510000236332;0.8054690000135452;1.0744811000186019;0;0;1;0;0.01
8;1;2;30;letter181;letter357;congruent;0.04;letter181;0.05;0.07;fullmask;0.25;arrow_left.png;0.13;c;0.39166770002339035;0.4000364000094123;271950.0602173;2.6999623514711857e-06;0.4954452999518253;0.5354695999994874;0.5475945999496616;0.6175023999530822;0.7969324999721721;0.9275847999961115;0;0;0;1;0.01
8;1;2;31;letter181;letter357;congruent;0.04;letter181;0.05;0.07;fullmask;0.25;arrow_left.png;0.13;c;0.3985404000268318;0.4000192999956198;271951.908277;3.00002284348011e-06;0.4995704000466503;0.5395885000471026;0.551703900040593;0.6207727000000887;0.8010369000257924;0.9316878000390716;0;0;0;1;0.01
8;1;2;32;letter181;letter357;congruent;0.04;letter357;0.05;0.07;fullmask;0.25;arrow_right.png;0.13;m;0.2639375999569893;0.2702986999647692;271953.6040283;3.00002284348011e-06;0.503066300007049;0.5430963999824598;0.5543724999879487;0.6251484000240453;0.8046637999941595;1.0234039999777451;0;0;1;0;0.01
8;1;2;33;letter181;letter357;congruent;0.04;letter357;0.05;0.07;fullmask;0.25;arrow_right.png;0.13;m;0.2807411000248976;0.2902386999921873;271955.5320247;2.700020559132099e-06;0.5018585000070743;0.5418810999835841;0.5531231000204571;0.6238928000093438;0.8034193000057712;1.0422191999969073;0;0;1;0;0.01
8;1;2;34;letter181;letter357;congruent;0.04;letter357;0.05;0.07;fullmask;0.25;arrow_right.png;0.13;m;0.3107408999931067;0.3201683000079356;271957.484045;2.900022082030773e-06;0.5020439000218175;0.5420610000146553;0.5540780000155792;0.6238502999767661;0.8033696999773383;1.0724016000167467;0;0;1;0;0.01
8;1;2;35;letter181;letter357;congruent;0.04;letter181;0.05;0.07;fullmask;0.25;arrow_left.png;0.13;m;0.07142049999674782;0.07971209997776896;271959.196025;2.700020559132099e-06;0.5018041000002995;0.5418158000102267;0.553876299993135;0.6235542999929748;0.6335825000423938;0.6335851000039838;0;1;0;0;0.01
8;1;2;36;letter181;letter357;congruent;0.04;letter181;0.05;0.07;fullmask;0.25;arrow_left.png;0.13;c;0.48626830003922805;0.4897042000084184;271961.3320264;2.7999631129205227e-06;0.497579799965024;0.5376178000005893;0.5496945999911986;0.6194648999953642;0.7989897999796085;0.9296357000130229;0;0;0;1;0.01
8;1;2;37;letter181;letter357;congruent;0.04;letter357;0.05;0.07;fullmask;0.25;arrow_right.png;0.13;m;0.31922969996230677;0.3201609999523498;271963.0761133;2.9999646358191967e-06;0.5046432999661192;0.5446653999970295;0.556647699966561;0.6264192999806255;0.8059382999781519;1.0750216000014916;0;0;1;0;0.01
8;1;2;38;letter181;letter357;congruent;0.04;letter357;0.05;0.07;fullmask;0.25;arrow_right.png;0.13;m;0.46384090004721656;0.46976280002854764;271965.1720153;2.600019797682762e-06;0.5033606000361033;0.5433797999867238;0.5553836000035517;0.6251561000244692;0.8046803000033833;0.9353252000291832;0;0;0;1;0.01
8;1;2;39;letter181;letter357;congruent;0.04;letter357;0.05;0.07;fullmask;0.25;arrow_right.png;0.13;m;0.480901199975051;0.48995299998205155;271967.1004082;2.600019797682762e-06;0.5035736000281759;0.5435874999966472;0.5556775000295602;0.6255811000009999;0.8050092000048608;0.9356448000180535;0;0;0;1;0.01
8;1;2;40;letter181;letter357;congruent;0.04;letter181;0.05;0.07;fullmask;0.25;arrow_left.png;0.13;m;0.16740529995877296;0.16955749999033287;271968.7080534;3.0999653972685337e-06;0.5003825999447145;0.5404114999691956;0.5524119999608956;0.6221847999840975;0.721970499958843;0.7219728999771178;0;1;0;0;0.01
8;1;2;41;letter181;letter357;congruent;0.04;letter357;0.05;0.07;fullmask;0.25;arrow_right.png;0.13;m;0.2381675000069663;0.2393819999997504;271970.5799996;2.900022082030773e-06;0.5032151999766938;0.5432329999748617;0.5552565000252798;0.6250464000040665;0.79463969997596;0.7946421999949962;0;1;0;0;0.01
8;1;2;42;letter181;letter357;congruent;0.04;letter181;0.05;0.07;fullmask;0.25;arrow_left.png;0.13;c;0.2631841999827884;0.27029199997195974;271972.2760378;2.9999646358191967e-06;0.4958193000056781;0.5358455000096001;0.5477974999812432;0.6175695999991149;0.7980871999752708;1.0161626000190154;0;0;1;0;0.01
8;1;2;43;letter181;letter357;congruent;0.04;letter357;0.05;0.07;fullmask;0.25;arrow_right.png;0.13;m;0.40399339998839423;0.4099455999676138;271974.308198;2.7999631129205227e-06;0.5040766999591142;0.5440881999675184;0.5561803999589756;0.6258709999965504;0.8063712999573909;0.9360403000027873;0;0;0;1;0.01
8;1;2;44;letter181;letter357;congruent;0.04;letter357;0.05;0.07;fullmask;0.25;arrow_right.png;0.13;c;0.17653499997686595;0.17958310001995414;271975.9319702;3.300025127828121e-06;0.5039164000190794;0.5439413000131026;0.5560528999776579;0.6259574000141583;0.7356353999930434;0.7356380000128411;0;1;0;0;0.01
8;1;2;45;letter181;letter357;congruent;0.04;letter181;0.05;0.07;fullmask;0.25;arrow_left.png;0.13;c;0.2955186999752186;0.30021819996181875;271977.8520047;2.7999631129205227e-06;0.4954224999528378;0.5354504999704659;0.5474497999530286;0.6172212999663316;0.7967412999714725;1.0457960999920033;0;0;1;0;0.01
8;1;2;46;letter181;letter357;congruent;0.04;letter357;0.05;0.07;fullmask;0.25;arrow_right.png;0.13;m;0.16628569999011233;0.16954879998229444;271979.6440044;2.7999631129205227e-06;0.4967123999958858;0.5367254000157118;0.5486980999703519;0.6184656000114046;0.7182476000161842;0.7182499999762513;0;1;0;0;0.01
8;1;2;47;letter181;letter357;congruent;0.04;letter181;0.05;0.07;fullmask;0.25;arrow_left.png;0.13;c;0.2620613999897614;0.2702006999752484;271981.340019;2.800021320581436e-06;0.4957560999901034;0.5357806999818422;0.5469647999852896;0.6176359999808483;0.7971608000225388;1.016090199991595;0;0;1;0;0.01
8;1;2;48;letter181;letter357;congruent;0.04;letter357;0.05;0.07;fullmask;0.25;arrow_right.png;0.13;m;0.17395440000109375;0.1794133000075817;271983.1640438;3.3999676816165447e-06;0.5006248999852687;0.5406463000108488;0.5527147999964654;0.6223496999591589;0.732127399998717;0.732129999960307;0;1;0;0;0.01
8;1;3;1;letter181;letter357;congruent;0.04;letter181;0.05;0.07;fullmask;0.2;arrow_left.png;0.13;c;0.33572069997899234;0.340135799953714;271993.0520053;2.5999615900218487e-06;0.5005310999695212;0.5405500999768265;0.5525203999713995;0.6223240999970585;0.7519716999959201;0.8826233999570832;0;0;0;1;0.01
8;1;3;2;letter181;letter357;congruent;0.04;letter357;0.05;0.07;fullmask;0.2;arrow_right.png;0.13;m;0.2844363999902271;0.2902440999750979;271994.7719995;2.700020559132099e-06;0.49918030004482716;0.5392017000121996;0.5513080000528134;0.6210819000261836;0.7507330000516959;1.039529500005301;0;0;1;0;0.01
8;1;3;3;letter181;letter357;congruent;0.04;letter357;0.05;0.07;fullmask;0.2;arrow_right.png;0.13;c;0.1873026000102982;0.18948880000971258;271996.5959977;3.00002284348011e-06;0.49571849999483675;0.5357360999914818;0.5477249000105076;0.617498199979309;0.7372147999703884;0.7372172999894246;0;1;0;0;0.01
8;1;3;4;letter181;letter357;congruent;0.04;letter357;0.05;0.07;fullmask;0.2;arrow_right.png;0.13;m;6.126023099990562;6.1335759999929;272004.1559903;3.100023604929447e-06;0.5023001000517979;0.542299400025513;0.5545330000459217;0.6242503999965265;0.7538768000085838;0.8845416000112891;0;0;0;1;0.01
8;1;3;5;letter181;letter357;congruent;0.04;letter181;0.05;0.07;fullmask;0.2;arrow_left.png;0.13;c;0.3214371000067331;0.3301680000149645;272005.9161574;3.00002284348011e-06;0.4974122000276111;0.5374331000493839;0.5494946000399068;0.619181300047785;0.7488276000367478;1.077780400053598;0;0;1;0;0.01
8;1;3;6;letter181;letter357;congruent;0.04;letter181;0.05;0.07;fullmask;0.2;arrow_left.png;0.13;c;0.30003749998286366;0.31009380001341924;272007.8760823;2.7999631129205227e-06;0.5016464999644086;0.5416726999683306;0.5537933000014164;0.623458500020206;0.7531229999731295;1.0620290999650024;0;0;1;0;0.01
8;1;3;7;letter181;letter357;congruent;0.04;letter357;0.05;0.07;fullmask;0.2;arrow_right.png;0.13;m;0.29271990002598614;0.30021910002687946;272009.819946;2.700020559132099e-06;0.5031827000202611;0.5432002000161447;0.5552319000125863;0.6250101000186987;0.7546612999867648;1.0535509000183083;0;0;1;0;0.01
8;1;3;8;letter181;letter357;congruent;0.04;letter181;0.05;0.07;fullmask;0.2;arrow_left.png;0.13;c;0.3175672000506893;0.32015760004287586;272011.7959764;2.800021320581436e-06;0.5041889999993145;0.544209600018803;0.5561398999998346;0.625910600007046;0.7555637999903411;1.0745430000242777;0;0;1;0;0.01
8;1;3;9;letter181;letter357;congruent;0.04;letter181;0.05;0.07;fullmask;0.2;arrow_left.png;0.13;c;0.270847000007052;0.28026589995715767;272013.699971;2.700020559132099e-06;0.5031659000087529;0.5431808999856003;0.5545638999901712;0.6243394000339322;0.7550017000176013;1.0335086000268348;0;0;1;0;0.01
8;1;3;10;letter181;letter357;congruent;0.04;letter357;0.05;0.07;fullmask;0.2;arrow_right.png;0.13;m;0.23379780002869666;0.2405305000138469;272015.6041015;2.8999638743698597e-06;0.49568240001099184;0.5356754999957047;0.5470033999881707;0.6178170999628492;0.7474353999714367;0.9859775999793783;0;0;1;0;0.01
8;1;3;11;letter181;letter357;congruent;0.04;letter357;0.05;0.07;fullmask;0.2;arrow_right.png;0.13;m;0.2884065000107512;0.29024500004015863;272017.5399711;2.900022082030773e-06;0.4956821000087075;0.5356995000038296;0.5470607000170276;0.6178311000112444;0.7474827000405639;1.0360328000388108;0;0;1;0;0.01
8;1;3;12;letter181;letter357;congruent;0.04;letter181;0.05;0.07;fullmask;0.2;arrow_left.png;0.13;c;0.2585167000070214;0.26031850004801527;272019.4519689;3.00002284348011e-06;0.499054400017485;0.5390515999752097;0.5510486999992281;0.6208210000186227;0.7504766000201926;1.0093771999818273;0;0;1;0;0.01
8;1;3;13;letter181;letter357;congruent;0.04;letter181;0.05;0.07;fullmask;0.2;arrow_left.png;0.13;c;0.33765080000739545;0.3401700999820605;272021.451982;2.6999623514711857e-06;0.500841400003992;0.5408545999671333;0.5524740999680944;0.6222449999768287;0.7528961999923922;0.8826152999536134;0;0;0;1;0.01
8;1;3;14;letter181;letter357;congruent;0.04;letter357;0.05;0.07;fullmask;0.2;arrow_right.png;0.13;m;0.29831539996666834;0.30036090000066906;272023.2040552;2.900022082030773e-06;0.5004697000258602;0.5405006000073627;0.5523655000142753;0.622424500004854;0.7517503999988548;1.0508338999934494;0;0;1;0;0.01
8;1;3;15;letter181;letter357;congruent;0.04;letter357;0.05;0.07;fullmask;0.2;arrow_right.png;0.13;m;0.422722099989187;0.42991110001457855;272025.2599664;2.5999615900218487e-06;0.5008896999643184;0.5409297999576665;0.5530291999457404;0.6229372999514453;0.7524991999962367;0.883149599947501;0;0;0;1;0.01
8;1;3;16;letter181;letter357;congruent;0.04;letter181;0.05;0.07;fullmask;0.2;arrow_left.png;0.13;c;0.18151289998786524;0.18955569999525324;272026.899972;3.200024366378784e-06;0.4982752000214532;0.5383036999846809;0.5504191999789327;0.6203231000108644;0.7399742000270635;0.7399766999878921;0;1;0;0;0.01
8;1;3;17;letter181;letter357;congruent;0.04;letter181;0.05;0.07;fullmask;0.2;arrow_left.png;0.13;c;0.2889650999568403;0.2902375999838114;272028.6280021;2.900022082030773e-06;0.49530030001187697;0.5353131000301801;0.5469588999985717;0.6167312000179663;0.7473834999836981;1.035653300001286;0;0;1;0;0.01
8;1;3;18;letter181;letter357;congruent;0.04;letter181;0.05;0.07;fullmask;0.2;arrow_left.png;0.13;c;0.2052896000095643;0.20936380000784993;272030.4760516;2.8999638743698597e-06;0.4994568999973126;0.5394701999612153;0.5515899999882095;0.6212732999701984;0.7509168999968097;0.9597662999876775;0;0;1;0;0.01
8;1;3;19;letter181;letter357;congruent;0.04;letter181;0.05;0.07;fullmask;0.2;arrow_left.png;0.13;c;0.36410139995859936;0.369958899973426;272032.4760316;2.6999623514711857e-06;0.5020198000129312;0.542037800012622;0.5541397999622859;0.6244133000145666;0.7534827999770641;0.8841157999704592;0;0;0;1;0.01
8;1;3;20;letter181;letter357;congruent;0.04;letter357;0.05;0.07;fullmask;0.2;arrow_right.png;0.13;m;0.2968762999516912;0.3002592999837361;272034.2199927;2.7999631129205227e-06;0.49953059997642413;0.5395486999768764;0.5516591999912634;0.6215657999855466;0.751128499978222;1.049872300005518;0;0;1;0;0.01
8;1;3;21;letter181;letter357;congruent;0.04;letter357;0.05;0.07;fullmask;0.2;arrow_right.png;0.13;m;0.2855832999921404;0.28928969998378307;272036.13996;2.7999631129205227e-06;0.503155299986247;0.5429380999994464;0.5550569999613799;0.624964699964039;0.7545271999551915;1.0432615999598056;0;0;1;0;0.01
8;1;3;22;letter181;letter357;congruent;0.04;letter181;0.05;0.07;fullmask;0.2;arrow_left.png;0.13;m;0.2143449000432156;0.21933710004668683;272037.9799587;2.8999638743698597e-06;0.4993728999979794;0.5393943999661133;0.5515201999805868;0.6211852999986149;0.7508381999796256;0.9696914000087418;0;0;1;0;0.01
8;1;3;23;letter181;letter357;congruent;0.04;letter357;0.05;0.07;fullmask;0.2;arrow_right.png;0.13;c;0.27122930000768974;0.28029500000411645;272039.9080366;2.6999623514711857e-06;0.5019151999731548;0.5419319999637082;0.5540337999700569;0.6237321999506094;0.7533788000000641;1.032257999991998;0;0;1;0;0.01
8;1;3;24;letter181;letter357;congruent;0.04;letter357;0.05;0.07;fullmask;0.2;arrow_right.png;0.13;c;0.1879859000327997;0.18950979999499395;272041.7559574;3.00002284348011e-06;0.49790340004255995;0.5379179000156;0.5499374000355601;0.6197118000127375;0.7394482000381686;0.7394506999989972;0;1;0;0;0.01
8;1;3;25;letter181;letter357;congruent;0.04;letter181;0.05;0.07;fullmask;0.2;arrow_left.png;0.13;c;0.2508780999924056;0.2593195000081323;272043.4599494;2.6999623514711857e-06;0.49947109998902306;0.539487799978815;0.5515384000027552;0.6212344999657944;0.7509614999871701;1.0098044999758713;0;0;1;0;0.01
8;1;3;26;letter181;letter357;congruent;0.04;letter181;0.05;0.07;fullmask;0.2;arrow_left.png;0.13;m;24.41367320000427;24.41586410003947;272069.5240163;2.900022082030773e-06;0.5030459000263363;0.5430710000218824;0.5551496000261977;0.6250321000115946;0.7545941999997012;0.8852575999917462;0;0;0;1;0.01
8;1;3;27;letter181;letter357;congruent;0.04;letter357;0.05;0.07;fullmask;0.2;arrow_right.png;0.13;m;0.3349050000542775;0.34010930004296824;272071.3319352;3.300025127828121e-06;0.4992528000148013;0.5392757999943569;0.5512802000157535;0.6210546999936923;0.7507065000245348;0.8813598999986425;0;0;0;1;0.01
8;1;3;28;letter181;letter357;congruent;0.04;letter181;0.05;0.07;fullmask;0.2;arrow_left.png;0.13;c;0.2118746999767609;0.21942799998214468;272072.9800074;2.7999631129205227e-06;0.5024908999912441;0.5425079999840818;0.5544518000097014;0.6242231999640353;0.7538762000040151;0.9727733999607153;0;0;1;0;0.01
8;1;3;29;letter181;letter357;congruent;0.04;letter181;0.05;0.07;fullmask;0.2;arrow_left.png;0.13;c;0.2966321999556385;0.30020999995758757;272074.9159401;2.700020559132099e-06;0.49507260002428666;0.5350895000156015;0.5470186999882571;0.6167939999722876;0.7464433999848552;1.0454446999938227;0;0;1;0;0.01
8;1;3;30;letter181;letter357;congruent;0.04;letter357;0.05;0.07;fullmask;0.2;arrow_right.png;0.13;m;0.3572484999895096;0.3601859000045806;272076.90801;2.700020559132099e-06;0.4992997000226751;0.5393162000109442;0.5514399000094272;0.621334100025706;0.7508977000252344;0.8815453000133857;0;0;0;1;0.01
8;1;3;31;letter181;letter357;congruent;0.04;letter357;0.05;0.07;fullmask;0.2;arrow_right.png;0.13;m;0.38013319997116923;0.3899680000031367;272078.7319428;2.700020559132099e-06;0.4984760000370443;0.5384820000035688;0.5505065000033937;0.620267899997998;0.7499210000387393;0.8805825000163168;0;0;0;1;0.01
8;1;3;32;letter181;letter357;congruent;0.04;letter357;0.05;0.07;fullmask;0.2;arrow_right.png;0.13;m;0.3169247000478208;0.3201615000143647;272080.4999185;2.9999646358191967e-06;0.5044316999847069;0.5444580999901518;0.5564719999674708;0.6262412999640219;0.7558970999671146;1.0748126999824308;0;0;1;0;0.01
8;1;3;33;letter181;letter357;congruent;0.04;letter181;0.05;0.07;fullmask;0.2;arrow_left.png;0.13;c;0.24354990001302212;0.24939539999468252;272082.3879222;3.00002284348011e-06;0.502861600019969;0.5428834999911487;0.5550070999888703;0.6240685000084341;0.7544757000287063;1.0031899000168778;0;0;1;0;0.01
8;1;3;34;letter181;letter357;congruent;0.04;letter181;0.05;0.07;fullmask;0.2;arrow_left.png;0.13;c;0.3065067999996245;0.310336800001096;272084.3320017;2.600019797682762e-06;0.5009951000101864;0.5410171000403352;0.5530382000142708;0.6229465000214987;0.7525054000434466;1.0613730000331998;0;0;1;0;0.01
8;1;3;35;letter181;letter357;congruent;0.04;letter357;0.05;0.07;fullmask;0.2;arrow_right.png;0.13;m;0.35321039997506887;0.3600511999684386;272086.3399111;2.800021320581436e-06;0.5044816000154242;0.54449390002992;0.5564452999969944;0.6262192000285722;0.7558722000103444;0.8865227000205778;0;0;0;1;0.01
8;1;3;36;letter181;letter357;congruent;0.04;letter357;0.05;0.07;fullmask;0.2;arrow_right.png;0.13;m;0.3742877999902703;0.3799980999901891;272088.1719178;2.8999638743698597e-06;0.4984411000041291;0.5384521999512799;0.5501756999874488;0.6199470999999903;0.7505978999543004;0.8802511999965645;0;0;0;1;0.01
8;1;3;37;letter181;letter357;congruent;0.04;letter181;0.05;0.07;fullmask;0.2;arrow_left.png;0.13;c;0.22473499999614432;0.22940179996658117;272089.8439118;4.999979864805937e-06;0.4987601999891922;0.5387869999976829;0.5508616999723017;0.6206347999977879;0.7502876999787986;0.9790829999838024;0;0;1;0;0.01
8;1;3;38;letter181;letter357;congruent;0.04;letter181;0.05;0.07;fullmask;0.2;arrow_left.png;0.13;c;0.24974569998448715;0.2504745000042021;272091.740086;2.700020559132099e-06;0.5038343999767676;0.5438535999855958;0.5558853999827988;0.6256680000224151;0.7553207000019029;1.0041703999741003;0;0;1;0;0.01
8;1;3;39;letter181;letter357;congruent;0.04;letter357;0.05;0.07;fullmask;0.2;arrow_right.png;0.13;m;0.2570360999670811;0.2603182999882847;272093.6279255;2.800021320581436e-06;0.497131000040099;0.5371520000044256;0.5485018999897875;0.6192798999836668;0.7489236000110395;1.00745440000901;0;0;1;0;0.01
8;1;3;40;letter181;letter357;congruent;0.04;letter357;0.05;0.07;fullmask;0.2;arrow_right.png;0.13;c;0.21921209996799007;0.2193208999815397;272095.4919704;2.600019797682762e-06;0.500422700017225;0.5404371999902651;0.5524352999636903;0.6222117000143044;0.7518600000184961;0.9707170000183396;0;0;1;0;0.01
8;1;3;41;letter181;letter357;congruent;0.04;letter181;0.05;0.07;fullmask;0.2;arrow_left.png;0.13;c;0.22395050001796335;0.22944660001667216;272097.3479384;2.9999646358191967e-06;0.5004244999727234;0.5404180999612436;0.5524543999927118;0.6223587999702431;0.7519241999834776;0.9807237999630161;0;0;1;0;0.01
8;1;3;42;letter181;letter357;congruent;0.04;letter357;0.05;0.07;fullmask;0.2;arrow_right.png;0.13;m;0.22677780000958592;0.2304267999716103;272099.2120015;3.0999653972685337e-06;0.5035054999752901;0.5435222999658436;0.5555826000054367;0.6252488999743946;0.754923400003463;0.9838062999770045;0;0;1;0;0.01
8;1;3;43;letter181;letter357;congruent;0.04;letter181;0.05;0.07;fullmask;0.2;arrow_left.png;0.13;c;0.30557079997379333;0.31019109999760985;272101.1719049;3.100023604929447e-06;0.5020876000053249;0.5421100999810733;0.5540596999926493;0.6238450999953784;0.7534898000303656;1.062445799994748;0;0;1;0;0.01
8;1;3;44;letter181;letter357;congruent;0.04;letter181;0.05;0.07;fullmask;0.2;arrow_left.png;0.13;m;0.17619770002784207;0.17953610001131892;272103.003861;2.800021320581436e-06;0.5033613999839872;0.5433679000125267;0.5553830999997444;0.6251560000237077;0.7349202000186779;0.734922599978745;0;1;0;0;0.01
8;1;3;45;letter181;letter357;congruent;0.04;letter357;0.05;0.07;fullmask;0.2;arrow_right.png;0.13;m;0.4040485000004992;0.4108217000029981;272104.851922;2.9999646358191967e-06;0.49672289995942265;0.5367472000070848;0.5479246999602765;0.61859829997411;0.7482483999920078;0.8788992000045255;0;0;0;1;0.01
8;1;3;46;letter181;letter357;congruent;0.04;letter357;0.05;0.07;fullmask;0.2;arrow_right.png;0.13;m;0.34599669999442995;0.3500504999537952;272106.6360029;2.700020559132099e-06;0.49569150002207607;0.5357184000313282;0.5478317000088282;0.6177424999768846;0.7472979000303894;0.8779506999999285;0;0;0;1;0.01
8;1;3;47;letter181;letter357;congruent;0.04;letter357;0.05;0.07;fullmask;0.2;arrow_right.png;0.13;m;0.30923880002228543;0.31023530004313216;272108.3799843;3.00002284348011e-06;0.49582890002056956;0.5358375000068918;0.5475361000280827;0.617436800035648;0.7480029999860562;1.0561975000309758;0;0;1;0;0.01
8;1;3;48;letter181;letter357;congruent;0.04;letter181;0.05;0.07;fullmask;0.2;arrow_left.png;0.13;c;0.3216077000251971;0.3301327000372112;272110.3239075;2.9999646358191967e-06;0.495453399955295;0.5354831999866292;0.547477499989327;0.617247199988924;0.7469063999596983;1.0758441999787465;0;0;1;0;0.01
8;2;11;1;letter190;letter169;congruent;0.04;letter169;0.09;0.07;fullmask;0.3;arrow_right.png;0.13;m;0.4118637000210583;0.41994830005569384;273013.9393642;2.6999623514711857e-06;0.5039346999838017;0.5439655999653041;0.5957490999717265;0.6654567999648862;0.8958217999897897;1.2143896999768913;0;0;1;0;0.01
8;2;11;2;letter190;letter169;congruent;0.04;letter169;0.09;0.07;fullmask;0.3;arrow_right.png;0.13;c;0.34225020004669204;0.3500806000083685;273015.9711534;2.900022082030773e-06;0.5036387000000104;0.5436422000057064;0.5954884000238962;0.6652558000059798;0.8956505000242032;1.1440313000348397;0;0;1;0;0.01
8;2;11;3;letter190;letter169;congruent;0.04;letter190;0.09;0.07;fullmask;0.3;arrow_left.png;0.13;c;0.45738050004001707;0.4607801000238396;273018.307183;3.1999661587178707e-06;0.49958659999538213;0.5396085999673232;0.5909055999945849;0.661675599985756;0.891056899970863;1.0217062999727204;0;0;0;1;0.01
8;2;11;4;letter190;letter169;congruent;0.04;letter190;0.09;0.07;fullmask;0.3;arrow_left.png;0.13;m;0.2641571999993175;0.2702077000285499;273020.0351393;2.800021320581436e-06;0.49516610003774986;0.5351782000507228;0.5864236000343226;0.657200500019826;0.8566324000130408;0.8566348000313155;0;1;0;0;0.01
8;2;11;5;letter190;letter169;congruent;0.04;letter190;0.09;0.07;fullmask;0.3;arrow_left.png;0.13;c;0.49819410004420206;0.49958330002846196;273022.211155;2.7999631129205227e-06;0.5035713000106625;0.5435888000065461;0.5955522999865934;0.6652179000084288;0.895602400007192;1.0252600999665447;0;0;0;1;0.01
8;2;11;6;letter190;letter169;congruent;0.04;letter169;0.09;0.07;fullmask;0.3;arrow_right.png;0.13;m;0.34299219999229535;0.35007190000033006;273024.0271832;3.0999653972685337e-06;0.4993629999808036;0.5393885999801569;0.5913047999492846;0.6610709999804385;0.8914556999807246;1.1397849999484606;0;0;1;0;0.01
8;2;11;7;letter190;letter169;congruent;0.04;letter190;0.09;0.07;fullmask;0.3;arrow_left.png;0.13;m;0.2896432999987155;0.29027729999506846;273025.9952177;2.6999623514711857e-06;0.4982070999685675;0.5382319999625906;0.590201299986802;0.6600997999776155;0.8804782999795862;0.8804807999986224;0;1;0;0;0.01
8;2;11;8;letter190;letter169;congruent;0.04;letter169;0.09;0.07;fullmask;0.3;arrow_right.png;0.13;m;0.4322342000086792;0.43987119995290413;273028.0993034;2.9999646358191967e-06;0.5004874999867752;0.5404773999471217;0.592703599948436;0.6623966999468394;0.8927791999885812;1.022437799954787;0;0;0;1;0.01
8;2;11;9;letter190;letter169;congruent;0.04;letter169;0.09;0.07;fullmask;0.3;arrow_right.png;0.13;m;0.5030523999594152;0.5095707000000402;273030.0911478;2.8999638743698597e-06;0.5023772999993525;0.5423897000146098;0.5943797999643721;0.6640573000186123;0.8944485000101849;1.024098799971398;0;0;0;1;0.01
8;2;11;10;letter190;letter169;congruent;0.04;letter190;0.09;0.07;fullmask;0.3;arrow_left.png;0.13;c;0.32787310000276193;0.3299867999739945;273031.9071773;2.800021320581436e-06;0.5044500000076368;0.544666200003121;0.5963457999750972;0.6661139000207186;0.8963551999768242;1.1248287999769673;0;0;1;0;0.01
8;2;11;11;letter190;letter169;congruent;0.04;letter169;0.09;0.07;fullmask;0.3;arrow_right.png;0.13;m;0.4065546999918297;0.40991779998876154;273033.987142;2.800021320581436e-06;0.4983368000248447;0.5383415000396781;0.5902316000428982;0.6600035000010394;0.8903832000214607;1.1987889999873005;0;0;1;0;0.01
8;2;11;12;letter190;letter169;congruent;0.04;letter190;0.09;0.07;fullmask;0.3;arrow_left.png;0.13;m;0.2911826000199653;0.30023870000150055;273035.9633452;2.700020559132099e-06;0.5032771999831311;0.543281999998726;0.595399699988775;0.6650918999803253;0.8956410000100732;0.8956490000127815;0;1;0;0;0.01
8;2;11;13;letter190;letter169;congruent;0.04;letter190;0.09;0.07;fullmask;0.3;arrow_left.png;0.13;m;0.2778704999946058;0.2802662000176497;273037.9311395;2.900022082030773e-06;0.4999717000173405;0.5400191000080667;0.5919486000202596;0.661720099975355;0.8722156999865547;0.8722182000055909;0;1;0;0;0.01
8;2;11;14;letter190;letter169;congruent;0.04;letter190;0.09;0.07;fullmask;0.3;arrow_left.png;0.13;c;0.34246089996304363;0.35006759996758774;273039.9471384;3.00002284348011e-06;0.4970698999823071;0.5370786000275984;0.5891546999919228;0.6589273000136018;0.8892996999784373;1.1374737999867648;0;0;1;0;0.01
8;2;11;15;letter190;letter169;congruent;0.04;letter190;0.09;0.07;fullmask;0.3;arrow_left.png;0.13;c;0.30592200002865866;0.3102338000317104;273041.9311412;2.700020559132099e-06;0.5013557000202127;0.5413623999920674;0.5926828000228852;0.6627552999998443;0.8928836000268348;1.1017488000215963;0;0;1;0;0.01
8;2;11;16;letter190;letter169;congruent;0.04;letter190;0.09;0.07;fullmask;0.3;arrow_left.png;0.13;c;0.18801669997628778;0.18944879999617115;273043.7952306;2.9999646358191967e-06;0.49865319998934865;0.5386713999905623;0.5907028999645263;0.6604023000109009;0.7801471999846399;0.7801507000112906;0;1;0;0;0.01
8;2;11;17;letter190;letter169;congruent;0.04;letter169;0.09;0.07;fullmask;0.3;arrow_right.png;0.13;m;0.38285240001278;0.390019399987068;273045.6511242;2.800021320581436e-06;0.4994600000209175;0.5394800000358373;0.5914733000099659;0.6613771000411361;0.8916746000177227;1.179915999993682;0;0;1;0;0.01
8;2;11;18;letter190;letter169;congruent;0.04;letter169;0.09;0.07;fullmask;0.3;arrow_right.png;0.13;c;0.12986839999211952;0.13969559996621683;273047.459151;2.700020559132099e-06;0.4965301000047475;0.5365526999812573;0.5882385000004433;0.6583014000207186;0.7279336000210606;0.7279360999818891;0;1;0;0;0.01
8;2;11;19;letter190;letter169;congruent;0.04;letter169;0.09;0.07;fullmask;0.3;arrow_right.png;0.13;c;0.1963365999981761;0.1995310999918729;273049.3471651;2.8999638743698597e-06;0.49623160000192;0.5362499000038952;0.5883015000144951;0.658204699982889;0.7878322000033222;0.7878350999671966;0;1;0;0;0.01
8;2;11;20;letter190;letter169;congruent;0.04;letter190;0.09;0.07;fullmask;0.3;arrow_left.png;0.13;c;0.5815175999887288;0.5904766999883577;273051.6035112;2.700020559132099e-06;0.49559090001275763;0.5356137999915518;0.5876152000273578;0.6573234000243247;0.8876357999979518;1.0173419999773614;0;0;0;1;0.01
8;2;11;21;letter190;letter169;congruent;0.04;letter169;0.09;0.07;fullmask;0.3;arrow_right.png;0.13;c;0.3058866999926977;0.310323600017;273053.3791268;3.200024366378784e-06;0.5012090000091121;0.541238300036639;0.5931586000369862;0.66307060001418;0.8934519999893382;1.1016023000120185;0;0;1;0;0.01
8;2;11;22;letter190;letter169;congruent;0.04;letter169;0.09;0.07;fullmask;0.3;arrow_right.png;0.13;m;2.7165152999805287;2.7217849999433383;273057.9711209;2.600019797682762e-06;0.5007063000230119;0.5407310000155121;0.5925982000189833;0.6625034000026062;0.8928003000328317;1.0224537000176497;0;0;0;1;0.01
8;2;11;23;letter190;letter169;congruent;0.04;letter190;0.09;0.07;fullmask;0.3;arrow_left.png;0.13;c;0.34182710002642125;0.35017980000702664;273059.7792938;2.700020559132099e-06;0.499409599986393;0.5394245000206865;0.5914508000132628;0.6613539999816567;0.8916638999944553;1.1398171000182629;0;0;1;0;0.01
8;2;11;24;letter190;letter169;congruent;0.04;letter169;0.09;0.07;fullmask;0.3;arrow_right.png;0.13;c;0.2964329000096768;0.3002346000284888;273061.7551812;2.800021320581436e-06;0.5020452000317164;0.542090000002645;0.594079700007569;0.6636655000038445;0.894316499994602;0.8943243999965489;0;1;0;0;0.01
8;2;11;25;letter190;letter169;congruent;0.04;letter169;0.09;0.07;fullmask;0.3;arrow_right.png;0.13;m;0.7091161999851465;0.7101354000042193;273064.1391879;2.900022082030773e-06;0.4975757999927737;0.5376000000396743;0.5896382000064477;0.6596741999965161;0.889811200031545;1.0194587000296451;0;0;0;1;0.01
8;2;11;26;letter190;letter169;congruent;0.04;letter190;0.09;0.07;fullmask;0.3;arrow_left.png;0.13;c;0.29982779995771125;0.3001053999760188;273065.9311908;2.900022082030773e-06;0.5001628000172786;0.540177799994126;0.5920747999916784;0.6618556000175886;0.892181699979119;0.8921840999973938;0;1;0;0;0.01
8;2;11;27;letter190;letter169;congruent;0.04;letter190;0.09;0.07;fullmask;0.3;arrow_left.png;0.13;m;0.2666660000104457;0.2704117000102997;273067.6591831;2.900022082030773e-06;0.4964752999949269;0.5365178000065498;0.588420899992343;0.658115700003691;0.8588420000160113;0.8588499000179581;0;1;0;0;0.01
8;2;11;28;letter190;letter169;congruent;0.04;letter169;0.09;0.07;fullmask;0.3;arrow_right.png;0.13;m;0.37913330004084855;0.3799511000397615;273069.7231638;2.800021320581436e-06;0.5021421000128612;0.5421507999999449;0.5943178000161424;0.6640069000422955;0.8943911000387743;1.1725494000129402;0;0;1;0;0.01
8;2;11;29;letter190;letter169;congruent;0.04;letter190;0.09;0.07;fullmask;0.3;arrow_left.png;0.13;c;0.36795620003249496;0.37007360003190115;273071.7631282;2.900022082030773e-06;0.5041599000105634;0.5441820999840274;0.5961544000310823;0.6660634999861941;0.8963544000289403;1.1645984000060707;0;0;1;0;0.01
8;2;11;30;letter190;letter169;congruent;0.04;letter190;0.09;0.07;fullmask;0.3;arrow_left.png;0.13;m;0.34315949998563156;0.3501198000158183;273073.7791081;3.00002284348011e-06;0.49721950001548976;0.5372416999889538;0.5886576999910176;0.6585615000221878;0.888853200012818;1.1376234000199474;0;0;1;0;0.01
8;2;11;31;letter190;letter169;congruent;0.04;letter190;0.09;0.07;fullmask;0.3;arrow_left.png;0.13;m;0.2659228999982588;0.2702874000533484;273075.923102;2.600019797682762e-06;0.5005253000417724;0.5405525000533089;0.5917733000242151;0.662557800009381;0.8620622000307776;0.8620647000498138;0;1;0;0;0.01
8;2;11;32;letter190;letter169;congruent;0.04;letter190;0.09;0.07;fullmask;0.3;arrow_left.png;0.13;c;0.4601762000238523;0.47033330000704154;273078.059236;2.5999615900218487e-06;0.5016558999777772;0.5416781999520026;0.5935254999785684;0.6632929999614134;0.8936765999533236;1.023334099969361;0;0;0;1;0.01
8;2;11;33;letter190;letter169;congruent;0.04;letter169;0.09;0.07;fullmask;0.3;arrow_right.png;0.13;c;0.28080700000282377;0.28981629997724667;273079.8112472;2.800021320581436e-06;0.4987783000105992;0.5387968000140972;0.5907667999854311;0.660828499996569;0.8805822000140324;0.8805847999756224;0;1;0;0;0.01
8;2;11;34;letter190;letter169;congruent;0.04;letter169;0.09;0.07;fullmask;0.3;arrow_right.png;0.13;m;0.44135079998522997;0.4498586999834515;273081.9230963;2.5999615900218487e-06;0.49459849996492267;0.534616399963852;0.5866347999544814;0.6566982999793254;0.8868356999591924;1.016489100002218;0;0;0;1;0.01
8;2;11;35;letter190;letter169;congruent;0.04;letter169;0.09;0.07;fullmask;0.3;arrow_right.png;0.13;c;0.2803940000012517;0.29027130000758916;273083.6834119;2.900022082030773e-06;0.49569950002478436;0.5357143000001088;0.5877622000407428;0.6574553000391461;0.8780366000137292;0.878044500015676;0;1;0;0;0.01
8;2;11;36;letter190;letter169;congruent;0.04;letter169;0.09;0.07;fullmask;0.3;arrow_right.png;0.13;c;0.27126660000067204;0.28029460000107065;273085.6350837;2.800021320581436e-06;0.4977245000191033;0.5377653000177816;0.5893225999898277;0.6590927999932319;0.869616899988614;0.8696194000076503;0;1;0;0;0.01
8;2;11;37;letter190;letter169;congruent;0.04;letter190;0.09;0.07;fullmask;0.3;arrow_left.png;0.13;c;0.3497882999945432;0.3501451999763958;273087.6752218;2.700020559132099e-06;0.500446500023827;0.5404615000006743;0.5923911000136286;0.6623145000194199;0.892698300012853;1.1408704000059515;0;0;1;0;0.01
8;2;11;38;letter190;letter169;congruent;0.04;letter169;0.09;0.07;fullmask;0.3;arrow_right.png;0.13;m;0.49029990000417456;0.4997379000415094;273089.8271056;2.6999623514711857e-06;0.5010801999596879;0.5410903999581933;0.5930829999851994;0.663165999983903;0.8932939999504015;1.0229467999888584;0;0;0;1;0.01
8;2;11;39;letter190;letter169;congruent;0.04;letter190;0.09;0.07;fullmask;0.3;arrow_left.png;0.13;c;0.41314830002374947;0.4199240999878384;273091.7312433;2.7999631129205227e-06;0.5022497999598272;0.5422756999614649;0.5942696999991313;0.6639588999678381;0.8943416000111029;1.212711500003934;0;0;1;0;0.01
8;2;11;40;letter190;letter169;congruent;0.04;letter169;0.09;0.07;fullmask;0.3;arrow_right.png;0.13;m;0.34761280001839623;0.35012859996641055;273093.7470836;2.8999638743698597e-06;0.4960539999883622;0.5360932999756187;0.5881034999620169;0.6580015999497846;0.8883098999504;1.1364639999810606;0;0;1;0;0.01
8;2;11;41;letter190;letter169;congruent;0.04;letter169;0.09;0.07;fullmask;0.3;arrow_right.png;0.13;c;0.27905230002943426;0.2803025000030175;273095.6992119;2.8999638743698597e-06;0.4980202000006102;0.5380000000004657;0.5894378999946639;0.6593310000025667;0.8697401999961585;0.869742699956987;0;1;0;0;0.01
8;2;11;42;letter190;letter169;congruent;0.04;letter190;0.09;0.07;fullmask;0.3;arrow_left.png;0.13;c;0.39116689999355003;0.39993989997310564;273097.7630707;2.900022082030773e-06;0.5008001000387594;0.540824200026691;0.5926997000351548;0.6624634999898262;0.8928572000004351;1.1912478000158444;0;0;1;0;0.01
8;2;11;43;letter190;letter169;congruent;0.04;letter169;0.09;0.07;fullmask;0.3;arrow_right.png;0.13;m;0.41760040004737675;0.4198888000100851;273099.8510913;2.800021320581436e-06;0.4954657000489533;0.5354887000285089;0.5876217000186443;0.6573876000475138;0.8877702000318095;1.2059446000494063;0;0;1;0;0.01
8;2;11;44;letter190;letter169;congruent;0.04;letter169;0.09;0.07;fullmask;0.3;arrow_right.png;0.13;m;0.37499189999653026;0.38100270001450554;273101.8990848;2.5999615900218487e-06;0.5001313000102527;0.5401770999887958;0.5915325999958441;0.6623039999976754;0.8916890000109561;1.1705622000154108;0;0;1;0;0.01
8;2;11;45;letter190;letter169;congruent;0.04;letter169;0.09;0.07;fullmask;0.3;arrow_right.png;0.13;c;0.33941209997283295;0.340153899975121;273103.9150785;2.8999638743698597e-06;0.49464270001044497;0.5346465999609791;0.586279499984812;0.6561841999646276;0.8864819000009447;1.1250569999683648;0;0;1;0;0.01
8;2;11;46;letter190;letter169;congruent;0.04;letter190;0.09;0.07;fullmask;0.3;arrow_left.png;0.13;c;0.27367610001238063;0.28022700001019984;273106.0512737;3.1999661587178707e-06;0.5009960999595933;0.5409881999948993;0.5931197999743745;0.6629986999905668;0.8733547999872826;0.8733628999907523;0;1;0;0;0.01
8;2;11;47;letter190;letter169;congruent;0.04;letter190;0.09;0.07;fullmask;0.3;arrow_left.png;0.13;m;0.2765853999881074;0.2804146999842487;273107.7951774;2.900022082030773e-06;0.49857300001895055;0.5386003000312485;0.5905988999875262;0.6605022000148892;0.8710222999798134;0.8710304999840446;0;1;0;0;0.01
8;2;11;48;letter190;letter169;congruent;0.04;letter190;0.09;0.07;fullmask;0.3;arrow_left.png;0.13;m;0.24736580002354458;0.25035360001493245;273109.7071171;3.2999669201672077e-06;0.49715319997631013;0.5371952999848872;0.5890728000085801;0.6588438000180759;0.8394273999729194;0.8394297999911942;0;1;0;0;0.01
8;2;12;1;letter190;letter169;congruent;0.04;letter169;0.09;0.07;fullmask;0.25;arrow_right.png;0.13;m;0.3350926000275649;0.3401259999955073;273116.2990714;2.7999631129205227e-06;0.4978399999672547;0.5378525999840349;0.5897586999926716;0.6595394999603741;0.8400561999878846;1.1282181999995373;0;0;1;0;0.01
8;2;12;2;letter190;letter169;congruent;0.04;letter169;0.09;0.07;fullmask;0.25;arrow_right.png;0.13;m;0.31781979999504983;0.3201540000154637;273118.2830779;3.100023604929447e-06;0.49671829998260364;0.5367390000028536;0.5886329999775626;0.6584041999885812;0.8389212000183761;1.1071222000173293;0;0;1;0;0.01
8;2;12;3;letter190;letter169;congruent;0.04;letter190;0.09;0.07;fullmask;0.25;arrow_left.png;0.13;c;0.3245965000241995;0.33012509997934103;273120.2910765;3.00002284348011e-06;0.49779039999702945;0.5378036000183783;0.5896174000226893;0.6593854000093415;0.8399012999725528;1.1181854999740608;0;0;1;0;0.01
8;2;12;4;letter190;letter169;congruent;0.04;letter190;0.09;0.07;fullmask;0.25;arrow_left.png;0.13;m;0.2991106999688782;0.3001547000021674;273122.2672274;2.900022082030773e-06;0.495790200016927;0.535803200036753;0.5879689000430517;0.6576563999988139;0.8371540000080131;1.0861747000017203;0;0;1;0;0.01
8;2;12;5;letter190;letter169;congruent;0.04;letter169;0.09;0.07;fullmask;0.25;arrow_right.png;0.13;m;0.3599811000167392;0.37000729999272153;273124.4991517;2.6999623514711857e-06;0.5038391000125557;0.5438668999704532;0.5956754999933764;0.6654562999610789;0.8459543999633752;1.1642703000106849;0;0;1;0;0.01
8;2;12;6;letter190;letter169;congruent;0.04;letter190;0.09;0.07;fullmask;0.25;arrow_left.png;0.13;m;0.26247640000656247;0.2702918000286445;273126.4430627;2.700020559132099e-06;0.5009272000170313;0.5409455000190064;0.5928425000165589;0.6626155000412837;0.8431368000456132;1.061286200012546;0;0;1;0;0.01
8;2;12;7;letter190;letter169;congruent;0.04;letter169;0.09;0.07;fullmask;0.25;arrow_right.png;0.13;m;0.3910289000486955;0.3999511000001803;273128.7230649;2.9999646358191967e-06;0.4985725999576971;0.5385922999703325;0.590545299986843;0.6603132999734953;0.8408311000093818;0.9705026999581605;0;0;0;1;0.01
8;2;12;8;letter190;letter169;congruent;0.04;letter169;0.09;0.07;fullmask;0.25;arrow_right.png;0.13;m;0.3678533000056632;0.3700576000264846;273130.5711459;2.9999646358191967e-06;0.49735710001550615;0.5373804999981076;0.5893858000054024;0.659079400007613;0.8395714999642223;1.157788000011351;0;0;1;0;0.01
8;2;12;9;letter190;letter169;congruent;0.04;letter190;0.09;0.07;fullmask;0.25;arrow_left.png;0.13;c;0.4045284000458196;0.409924800042063;273132.6590587;3.0999653972685337e-06;0.49582019995432347;0.5358582999906503;0.5877470999839716;0.6575256999931298;0.8380367999779992;0.9676899999612942;0;0;0;1;0.01
8;2;12;10;letter190;letter169;congruent;0.04;letter190;0.09;0.07;fullmask;0.25;arrow_left.png;0.13;m;0.3392919000471011;0.34007540001766756;273134.4750513;2.700020559132099e-06;0.49906350002856925;0.539089799975045;0.5909896999946795;0.660755800025072;0.8411606000154279;1.1294562999974005;0;0;1;0;0.01
8;2;12;11;letter190;letter169;congruent;0.04;letter169;0.09;0.07;fullmask;0.25;arrow_right.png;0.13;m;0.3878775000339374;0.38997200003359467;273136.7550795;2.9999646358191967e-06;0.4966992000117898;0.5367273999727331;0.5886365000042133;0.6584144000080414;0.838920500013046;0.96857829997316;0;0;0;1;0.01
8;2;12;12;letter190;letter169;congruent;0.04;letter190;0.09;0.07;fullmask;0.25;arrow_left.png;0.13;c;0.3027517000446096;0.31029380002291873;273138.5310995;2.800021320581436e-06;0.5015493999817409;0.5415566000156105;0.5934048999915831;0.6631908999988809;0.8437101999879815;1.101925199967809;0;0;1;0;0.01
8;2;12;13;letter190;letter169;congruent;0.04;letter169;0.09;0.07;fullmask;0.25;arrow_right.png;0.13;c;0.2394023999804631;0.2403630000189878;273140.4590999;2.800021320581436e-06;0.49529439996695146;0.5352890999638475;0.5872003000113182;0.6569739999831654;0.8275643999804743;0.827566799998749;0;1;0;0;0.01
8;2;12;14;letter190;letter169;congruent;0.04;letter190;0.09;0.07;fullmask;0.25;arrow_left.png;0.13;c;1.581864100007806;1.590776700002607;273143.7230547;2.9999646358191967e-06;0.5004979999503121;0.5405031999689527;0.5926642999984324;0.6624378999695182;0.8419566999655217;0.9726134999655187;0;0;0;1;0.01
8;2;12;15;letter190;letter169;congruent;0.04;letter169;0.09;0.07;fullmask;0.25;arrow_right.png;0.13;m;0.4004368999740109;0.40983479999704286;273145.6031586;2.9999646358191967e-06;0.5012956999707967;0.5413149999803863;0.5930403999518603;0.6627098000026308;0.8432392999529839;0.9729109999607317;0;0;0;1;0.01
8;2;12;16;letter190;letter169;congruent;0.04;letter169;0.09;0.07;fullmask;0.25;arrow_right.png;0.13;m;0.39288840000517666;0.39995260001160204;273147.5070578;2.800021320581436e-06;0.4964914000011049;0.5365117000183091;0.5884273999836296;0.6581984999938868;0.8387211000081152;0.9683680000016466;0;0;0;1;0.01
8;2;12;17;letter190;letter169;congruent;0.04;letter190;0.09;0.07;fullmask;0.25;arrow_left.png;0.13;c;0.36167569999815896;0.3700247000087984;273149.3470427;3.00002284348011e-06;0.49921949999406934;0.5392361999838613;0.5911460000206716;0.6609243000275455;0.8414404999930412;1.1596402000286616;0;0;1;0;0.01
8;2;12;18;letter190;letter169;congruent;0.04;letter190;0.09;0.07;fullmask;0.25;arrow_left.png;0.13;c;0.3462438000133261;0.3499817000119947;273151.3630441;2.800021320581436e-06;0.4967515000025742;0.5367703000083566;0.5887911000172608;0.6584647999843583;0.8389823000179604;1.1371644000173546;0;0;1;0;0.01
8;2;12;19;letter190;letter169;congruent;0.04;letter190;0.09;0.07;fullmask;0.25;arrow_left.png;0.13;c;0.3870298999827355;0.38984709995565936;273153.4351232;2.900022082030773e-06;0.5003858000272885;0.5404098000144586;0.5924048000015318;0.6620931000215933;0.8426082000369206;0.9722681000130251;0;0;0;1;0.01
8;2;12;20;letter190;letter169;congruent;0.04;letter169;0.09;0.07;fullmask;0.25;arrow_right.png;0.13;m;0.34580049995565787;0.3500791999977082;273155.2750471;2.800021320581436e-06;0.5033565000048839;0.5433791999821551;0.5953062999760732;0.6650785999954678;0.8455956999678165;1.143767100002151;0;0;1;0;0.01
8;2;12;21;letter190;letter169;congruent;0.04;letter190;0.09;0.07;fullmask;0.25;arrow_left.png;0.13;c;0.260498599964194;0.27029239997500554;273157.2110425;2.700020559132099e-06;0.49784460000228137;0.5378681999864057;0.5897820999962278;0.6595501999836415;0.8400717999902554;1.0582130000111647;0;0;1;0;0.01
8;2;12;22;letter190;letter169;congruent;0.04;letter169;0.09;0.07;fullmask;0.25;arrow_right.png;0.13;m;0.3431620000046678;0.3501278000185266;273159.2350628;3.1999661587178707e-06;0.49489039997570217;0.5349190999986604;0.5869418999645859;0.6568491999641992;0.8362776999711059;1.1353083999711089;0;0;1;0;0.01
8;2;12;23;letter190;letter169;congruent;0.04;letter190;0.09;0.07;fullmask;0.25;arrow_left.png;0.13;m;0.33836200000951067;0.3400121000013314;273161.2510415;2.700020559132099e-06;0.5048270000261255;0.5448343000025488;0.5963340000016615;0.6660995000274852;0.8465305000427179;1.135232700034976;0;0;1;0;0.01
8;2;12;24;letter190;letter169;congruent;0.04;letter169;0.09;0.07;fullmask;0.25;arrow_right.png;0.13;m;0.26456010004039854;0.2704073000350036;273163.3790386;2.800021320581436e-06;0.4953389000147581;0.5353554000030272;0.5872130999923684;0.6569943999638781;0.8375183999887668;1.0557062000152655;0;0;1;0;0.01
8;2;12;25;letter190;letter169;congruent;0.04;letter169;0.09;0.07;fullmask;0.25;arrow_right.png;0.13;m;0.3213254000293091;0.33013660000870004;273165.3870866;2.900022082030773e-06;0.5015739999944344;0.5416125999763608;0.5934743999969214;0.6632462000125088;0.8437638999894261;1.1219829000183381;0;0;1;0;0.01
8;2;12;26;letter190;letter169;congruent;0.04;letter190;0.09;0.07;fullmask;0.25;arrow_left.png;0.13;c;0.41588649997720495;0.41990249999798834;273167.4829883;2.900022082030773e-06;0.4981663000071421;0.5381998000084423;0.5901166000403464;0.6598889000015333;0.8404058000305668;0.9700605000252835;0;0;0;1;0.01
8;2;12;27;letter190;letter169;congruent;0.04;letter190;0.09;0.07;fullmask;0.25;arrow_left.png;0.13;c;0.41464939998695627;0.4199374000309035;273169.3630254;2.700020559132099e-06;0.4968823000090197;0.5368896000436507;0.5888715000473894;0.6589409000007436;0.8382060000440106;0.9688573000021279;0;0;0;1;0.01
8;2;12;28;letter190;letter169;congruent;0.04;letter169;0.09;0.07;fullmask;0.25;arrow_right.png;0.13;m;0.4195371000096202;0.41968970000743866;273171.259154;2.700020559132099e-06;0.5037556000170298;0.5437693999847397;0.5957669999916106;0.6654415000230074;0.8459716000361368;0.9756125999847427;0;0;0;1;0.01
8;2;12;29;letter190;letter169;congruent;0.04;letter169;0.09;0.07;fullmask;0.25;arrow_right.png;0.13;c;0.3661400999990292;0.37007240002276376;273173.1070257;2.800021320581436e-06;0.5008462999830954;0.5408658999949694;0.5929034000146203;0.6629615999991074;0.8422466000192799;1.1612692999769934;0;0;1;0;0.01
8;2;12;30;letter190;letter169;congruent;0.04;letter169;0.09;0.07;fullmask;0.25;arrow_right.png;0.13;c;0.3427512000198476;0.3501238999888301;273175.3150339;2.8999638743698597e-06;0.4971425000112504;0.5371461999602616;0.5891365999705158;0.6590442999731749;0.8384734999854118;1.1375490999780595;0;0;1;0;0.01
8;2;12;31;letter190;letter169;congruent;0.04;letter169;0.09;0.07;fullmask;0.25;arrow_right.png;0.13;c;0.21930569998221472;0.2204613999929279;273177.4030229;2.700020559132099e-06;0.5011028000153601;0.5411181999952532;0.5931108000222594;0.6627819999703206;0.8135758999851532;0.8135836999863386;0;1;0;0;0.01
8;2;12;32;letter190;letter169;congruent;0.04;letter190;0.09;0.07;fullmask;0.25;arrow_left.png;0.13;c;0.3720826000208035;0.3799001000006683;273179.4670702;2.700020559132099e-06;0.5036376999923959;0.5436534000327811;0.5956714000203647;0.6653545000008307;0.8458530000061728;1.1740639000199735;0;0;1;0;0.01
8;2;12;33;letter190;letter169;congruent;0.04;letter190;0.09;0.07;fullmask;0.25;arrow_left.png;0.13;c;0.5628479000297375;0.5704830000177026;273181.6990152;2.6999623514711857e-06;0.4949279999709688;0.5349296999629587;0.5868092000018805;0.6565732999588363;0.8370890999794938;0.9667484000092372;0;0;0;1;0.01
8;2;12;34;letter190;letter169;congruent;0.04;letter169;0.09;0.07;fullmask;0.25;arrow_right.png;0.13;m;0.36958210001466796;0.36984870000742376;273183.5470747;2.800021320581436e-06;0.4987468000035733;0.538774500018917;0.5906509999767877;0.6603269000188448;0.8408474000170827;1.1591748999780975;0;0;1;0;0.01
8;2;12;35;letter190;letter169;congruent;0.04;letter169;0.09;0.07;fullmask;0.25;arrow_right.png;0.13;m;0.41010859998641536;0.420052100031171;273185.6191959;2.700020559132099e-06;0.4990754000027664;0.5391041000257246;0.591254899976775;0.6610627999762073;0.8405737999710254;0.9711770999711007;0;0;0;1;0.01
8;2;12;36;letter190;letter169;congruent;0.04;letter169;0.09;0.07;fullmask;0.25;arrow_right.png;0.13;m;0.43114040000364184;0.439839500002563;273187.531011;2.8999638743698597e-06;0.49523579998640344;0.5352517999708652;0.5869605999905616;0.6567347999662161;0.8372444999986328;0.9669043999747373;0;0;0;1;0.01
8;2;12;37;letter190;letter169;congruent;0.04;letter169;0.09;0.07;fullmask;0.25;arrow_right.png;0.13;m;0.3423486999818124;0.35112669999944046;273189.3629604;2.800021320581436e-06;0.5012065999908373;0.5412380999769084;0.5924497999949381;0.6633502999902703;0.842782600026112;1.141630099969916;0;0;1;0;0.01
8;2;12;38;letter190;letter169;congruent;0.04;letter169;0.09;0.07;fullmask;0.25;arrow_right.png;0.13;m;0.34425690001808107;0.35013390000676736;273191.3870237;2.7999631129205227e-06;0.49698779999744147;0.5370070000062697;0.5890555999940261;0.6589602999738418;0.8383948999689892;1.1373883999767713;0;0;1;0;0.01
8;2;12;39;letter190;letter169;congruent;0.04;letter169;0.09;0.07;fullmask;0.25;arrow_right.png;0.13;m;0.3790656999917701;0.3799443999887444;273193.4430778;2.8999638743698597e-06;0.4961504999664612;0.5361766999703832;0.5881686999928206;0.6578639000072144;0.8383751999936067;1.166597199975513;0;0;1;0;0.01
8;2;12;40;letter190;letter169;congruent;0.04;letter190;0.09;0.07;fullmask;0.25;arrow_left.png;0.13;c;0.3837521999957971;0.3899721000343561;273195.4990111;2.600019797682762e-06;0.49745580001035705;0.5374726000009105;0.589373400027398;0.6591433000285178;0.8396666000480764;0.9693145000492223;0;0;0;1;0.01
8;2;12;41;letter190;letter169;congruent;0.04;letter190;0.09;0.07;fullmask;0.25;arrow_left.png;0.13;c;0.49050730001181364;0.4997278000228107;273197.4670126;2.800021320581436e-06;0.5031518000178039;0.5431553000234999;0.5950990000274032;0.6650048000155948;0.8454352000262588;0.9750857000472024;0;0;0;1;0.01
8;2;12;42;letter190;letter169;congruent;0.04;letter169;0.09;0.07;fullmask;0.25;arrow_right.png;0.13;m;0.2492506999988109;0.24934540002141148;273199.1870863;2.700020559132099e-06;0.4972782999975607;0.5373112999950536;0.589315399993211;0.6592514000367373;0.8386610000161454;0.8386636000359431;0;1;0;0;0.01
8;2;12;43;letter190;letter169;congruent;0.04;letter190;0.09;0.07;fullmask;0.25;arrow_left.png;0.13;m;0.2582041000132449;0.26035409996984527;273200.9070936;2.900022082030773e-06;0.5013906999956816;0.5414334000088274;0.593366400047671;0.663064000022132;0.8435726000461727;1.0517488000332378;0;0;1;0;0.01
8;2;12;44;letter190;letter169;congruent;0.04;letter190;0.09;0.07;fullmask;0.25;arrow_left.png;0.13;c;0.576821899972856;0.5804659000132233;273203.347058;3.0999653972685337e-06;0.4964934000163339;0.5364993999828584;0.5884253999684006;0.6582038999767974;0.8387089999741875;0.968362600018736;0;0;0;1;0.01
8;2;12;45;letter190;letter169;congruent;0.04;letter190;0.09;0.07;fullmask;0.25;arrow_left.png;0.13;c;0.19147100002737716;0.19948700000531971;273205.0030129;2.6999623514711857e-06;0.4969258999917656;0.5369799999753013;0.5888483999879099;0.6586200000019744;0.7883364000008442;0.7883388999616727;0;1;0;0;0.01
8;2;12;46;letter190;letter169;congruent;0.04;letter190;0.09;0.07;fullmask;0.25;arrow_left.png;0.13;m;0.3363857999793254;0.3401102999923751;273206.8190043;2.800021320581436e-06;0.4956753000151366;0.5356931000133045;0.5875936999800615;0.6573664000025019;0.8378828000277281;1.1260817000293173;0;0;1;0;0.01
8;2;12;47;letter190;letter169;congruent;0.04;letter190;0.09;0.07;fullmask;0.25;arrow_left.png;0.13;m;0.22693529998650774;0.23030469997320324;273208.9310346;2.6999623514711857e-06;0.4993302999646403;0.5393451999989338;0.5912915999651887;0.660983000008855;0.8215906999539584;0.8215931999729946;0;1;0;0;0.01
8;2;12;48;letter190;letter169;congruent;0.04;letter190;0.09;0.07;fullmask;0.25;arrow_left.png;0.13;c;0.13974009995581582;0.14962549996562302;273210.7550651;2.800021320581436e-06;0.4951493999687955;0.5351618999848142;0.5870891999802552;0.6568682999932207;0.7367157000117004;0.736718199972529;0;1;0;0;0.01
8;2;13;1;letter190;letter169;congruent;0.04;letter190;0.09;0.07;fullmask;0.2;arrow_left.png;0.13;c;0.4317962999921292;0.43986969999969006;273214.0190115;2.9999646358191967e-06;0.5011446999851614;0.5411619999795221;0.5930491999606602;0.6628573999623768;0.7925120000145398;0.9231552999699488;0;0;0;1;0.01
8;2;13;2;letter190;letter169;congruent;0.04;letter190;0.09;0.07;fullmask;0.2;arrow_left.png;0.13;m;0.2726999999722466;0.28028740000445396;273215.7712798;2.700020559132099e-06;0.49795310001354665;0.5379606000497006;0.5899887000559829;0.6596552000264637;0.7893105000257492;1.068311300012283;0;0;1;0;0.01
8;2;13;3;letter190;letter169;congruent;0.04;letter190;0.09;0.07;fullmask;0.2;arrow_left.png;0.13;c;0.2812153000268154;0.2902493000146933;273217.7310293;2.9999646358191967e-06;0.5004940999788232;0.5405114999739453;0.5925038999994285;0.6621763000148349;0.792802500014659;1.0808808999718167;0;0;1;0;0.01
8;2;13;4;letter190;letter169;congruent;0.04;letter190;0.09;0.07;fullmask;0.2;arrow_left.png;0.13;m;0.2941201999783516;0.30021560000022873;273219.7150204;2.900022082030773e-06;0.5031092000426725;0.5431452000048012;0.5949287000112236;0.6647017000359483;0.7953575000283308;1.093491500010714;0;0;1;0;0.01
8;2;13;5;letter190;letter169;congruent;0.04;letter169;0.09;0.07;fullmask;0.2;arrow_right.png;0.13;m;0.35892269999021664;0.3600489000091329;273221.7709988;2.800021320581436e-06;0.5029576999950223;0.5429922000039369;0.5946660999907181;0.6644353000447154;0.7950860999990255;0.9247431000112556;0;0;0;1;0.01
8;2;13;6;letter190;letter169;congruent;0.04;letter169;0.09;0.07;fullmask;0.2;arrow_right.png;0.13;m;0.39365949999773875;0.4001113999984227;273223.6272345;2.9999646358191967e-06;0.5036003999994136;0.5436336999991909;0.5956215999904089;0.6655300999991596;0.7950940000009723;0.9257399999769405;0;0;0;1;0.01
8;2;13;7;letter190;letter169;congruent;0.04;letter169;0.09;0.07;fullmask;0.2;arrow_right.png;0.13;m;0.4022586999926716;0.40995010000187904;273225.507038;2.600019797682762e-06;0.4964604999986477;0.5364715000032447;0.5884783000219613;0.6581463000038639;0.7878247000044212;0.9184501999989152;0;0;0;1;0.01
8;2;13;8;letter190;letter169;congruent;0.04;letter169;0.09;0.07;fullmask;0.2;arrow_right.png;0.13;c;0.256983199971728;0.26036760001443326;273227.2429882;2.5999615900218487e-06;0.5041951999883167;0.5442307000048459;0.5962226999690756;0.6661301999702118;0.7956922999583185;1.0545596999581903;0;0;1;0;0.01
8;2;13;9;letter190;letter169;congruent;0.04;letter190;0.09;0.07;fullmask;0.2;arrow_left.png;0.13;c;0.36571769998408854;0.370070900011342;273229.2829816;2.7999631129205227e-06;0.5013033999712206;0.5413249999983236;0.5933085000142455;0.6632132999948226;0.7927770999958739;0.9234268000000156;0;0;0;1;0.01
8;2;13;10;letter190;letter169;congruent;0.04;letter190;0.09;0.07;fullmask;0.2;arrow_left.png;0.13;c;0.38254680001409724;0.38993140001548454;273231.1711736;2.600019797682762e-06;0.5027813999913633;0.5428055000375025;0.5949691000278108;0.6646340999868698;0.7942951000295579;0.9249543999903835;0;0;0;1;0.01
8;2;13;11;letter190;letter169;congruent;0.04;letter169;0.09;0.07;fullmask;0.2;arrow_right.png;0.13;m;0.37737870001001284;0.3799533999990672;273233.0270608;2.5999615900218487e-06;0.5004945999826305;0.5405182999675162;0.5925254999892786;0.6622121999971569;0.7928795999614522;0.9225068999803625;0;0;0;1;0.01
8;2;13;12;letter190;letter169;congruent;0.04;letter169;0.09;0.07;fullmask;0.2;arrow_right.png;0.13;m;0.38687849999405444;0.3910112999728881;273234.9069791;2.900022082030773e-06;0.49514060001820326;0.535144500026945;0.5863529000198469;0.6571149000083096;0.7867671000421979;0.9174685000325553;0;0;0;1;0.01
8;2;13;13;letter190;letter169;congruent;0.04;letter169;0.09;0.07;fullmask;0.2;arrow_right.png;0.13;m;0.3309136999887414;0.3401056000147946;273236.722961;2.7999631129205227e-06;0.5025535000022501;0.5425929999910295;0.5945302000036463;0.6643007999518886;0.7939529999857768;0.9246046000043862;0;0;0;1;0.01
8;2;13;14;letter190;letter169;congruent;0.04;letter190;0.09;0.07;fullmask;0.2;arrow_left.png;0.13;m;0.25567909999517724;0.2604678000207059;273238.4589706;3.00002284348011e-06;0.49529880000045523;0.5353494000155479;0.5873417000402696;0.6572473000269383;0.7868124000378884;1.0456667999969795;0;0;1;0;0.01
8;2;13;15;letter190;letter169;congruent;0.04;letter169;0.09;0.07;fullmask;0.2;arrow_right.png;0.13;m;0.3066071000066586;0.3103363999980502;273240.4511432;3.00002284348011e-06;0.4998496000189334;0.5398563000489958;0.5918670000392012;0.6617760000517592;0.791332200053148;1.100237200036645;0;0;1;0;0.01
8;2;13;16;letter190;letter169;congruent;0.04;letter169;0.09;0.07;fullmask;0.2;arrow_right.png;0.13;m;0.30773319996660575;0.31018369999947026;273242.4429709;2.900022082030773e-06;0.496401300013531;0.5364156999858096;0.5878321999916807;0.657590800023172;0.7882532000076026;1.0967887000297196;0;0;1;0;0.01
8;2;13;17;letter190;letter169;congruent;0.04;letter190;0.09;0.07;fullmask;0.2;arrow_left.png;0.13;m;0.23985340003855526;0.24939690000610426;273244.3469704;3.100023604929447e-06;0.49568970000837;0.5357097000232898;0.5877280000131577;0.6576375999720767;0.7872003000229597;1.0360339999897406;0;0;1;0;0.01
8;2;13;18;letter190;letter169;congruent;0.04;letter190;0.09;0.07;fullmask;0.2;arrow_left.png;0.13;c;0.35264419997110963;0.3601211999775842;273246.3710238;2.800021320581436e-06;0.4962556000100449;0.5362696999800391;0.5883219999959692;0.6581385000026785;0.7877910999814048;0.9184562999871559;0;0;0;1;0.01
8;2;13;19;letter190;letter169;congruent;0.04;letter190;0.09;0.07;fullmask;0.2;arrow_left.png;0.13;c;0.31146799999987707;0.32018939999397844;273248.1712054;2.9999646358191967e-06;0.5024678999907337;0.5424766999785788;0.5946929999627173;0.6643725999747403;0.7940405999543145;1.1128441999899223;0;0;1;0;0.01
8;2;13;20;letter190;letter169;congruent;0.04;letter169;0.09;0.07;fullmask;0.2;arrow_right.png;0.13;m;0.3422152000130154;0.349989700014703;273250.2029716;2.9999646358191967e-06;0.4991069999523461;0.5391313000000082;0.5910665999981575;0.6606981999939308;0.7913090999936685;0.9210514999576844;0;0;0;1;0.01
8;2;13;21;letter190;letter169;congruent;0.04;letter190;0.09;0.07;fullmask;0.2;arrow_left.png;0.13;c;0.23104780004359782;0.2403688000049442;273251.9229624;2.6999623514711857e-06;0.49586460000136867;0.5358951999805868;0.587799199973233;0.6575773999793455;0.7872292999527417;1.0262259999872185;0;0;1;0;0.01
8;2;13;22;letter190;letter169;congruent;0.04;letter190;0.09;0.07;fullmask;0.2;arrow_left.png;0.13;c;0.2799057000083849;0.2802127000177279;273253.883164;2.900022082030773e-06;0.4949457999900915;0.5349588000099175;0.5869745000381954;0.6566510000266135;0.7863042000099085;1.065317300031893;0;0;1;0;0.01
8;2;13;23;letter190;letter169;congruent;0.04;letter169;0.09;0.07;fullmask;0.2;arrow_right.png;0.13;m;0.35458939999807626;0.36005580000346527;273255.8990019;2.700020559132099e-06;0.4969626000383869;0.5369899000506848;0.5888942000456154;0.6586637000436895;0.7893333000247367;0.9189884000224993;0;0;0;1;0.01
8;2;13;24;letter190;letter169;congruent;0.04;letter169;0.09;0.07;fullmask;0.2;arrow_right.png;0.13;m;0.4272612000349909;0.42991330003133044;273257.8029633;2.700020559132099e-06;0.4988057999871671;0.5388324999948964;0.5908262999728322;0.6608837000094354;0.7902961000218056;0.9209505000035278;0;0;0;1;0.01
8;2;13;25;letter190;letter169;congruent;0.04;letter190;0.09;0.07;fullmask;0.2;arrow_left.png;0.13;c;0.3800993000040762;0.3899754000012763;273259.6670411;3.300025127828121e-06;0.5029170000343584;0.5429335000226274;0.5949444000143558;0.6647168000345118;0.7943696000147611;0.9250195000204258;0;0;0;1;0.01
8;2;13;26;letter190;letter169;congruent;0.04;letter169;0.09;0.07;fullmask;0.2;arrow_right.png;0.13;m;0.3774346000282094;0.38100210000993684;273261.5150595;3.0999653972685337e-06;0.4979567999835126;0.5379824999836273;0.5894690999994054;0.6593945999629796;0.7897914999630302;0.9194454000098631;0;0;0;1;0.01
8;2;13;27;letter190;letter169;congruent;0.04;letter190;0.09;0.07;fullmask;0.2;arrow_left.png;0.13;c;0.3077006000094116;0.31010179995791987;273263.3069539;2.800021320581436e-06;0.5045296000316739;0.544546100019943;0.5964715000009164;0.6661744000157341;0.7968449000036344;1.1049155000364408;0;0;1;0;0.01
8;2;13;28;letter190;letter169;congruent;0.04;letter169;0.09;0.07;fullmask;0.2;arrow_right.png;0.13;m;0.4464045999920927;0.44981599994935095;273265.4269533;3.00002284348011e-06;0.497823600017;0.5378342000185512;0.5897689000121318;0.6595410000300035;0.7891962000285275;0.9198372000246309;0;0;0;1;0.01
8;2;13;29;letter190;letter169;congruent;0.04;letter169;0.09;0.07;fullmask;0.2;arrow_right.png;0.13;c;0.29123819997766986;0.30020759999752045;273267.2030403;2.700020559132099e-06;0.5033781999954954;0.5434003000264056;0.5953331000055186;0.6651046000188217;0.7947550000390038;1.093766300007701;0;0;1;0;0.01
8;2;13;30;letter190;letter169;congruent;0.04;letter190;0.09;0.07;fullmask;0.2;arrow_left.png;0.13;c;0.29415099998004735;0.30020960001274943;273269.1870455;3.00002284348011e-06;0.4997397999977693;0.5397585000027902;0.5914900000207126;0.6612573000020348;0.7919004000141285;1.0901258999947459;0;0;1;0;0.01
8;2;13;31;letter190;letter169;congruent;0.04;letter169;0.09;0.07;fullmask;0.2;arrow_right.png;0.13;c;0.2728569000028074;0.2801798000000417;273271.1469522;2.800021320581436e-06;0.5038437000475824;0.5438682000385597;0.5955339000211097;0.6652277000248432;0.7958540000254288;1.0742346000042744;0;0;1;0;0.01
8;2;13;32;letter190;letter169;congruent;0.04;letter190;0.09;0.07;fullmask;0.2;arrow_left.png;0.13;c;0.22143119998509064;0.23034969996660948;273273.0671024;2.900022082030773e-06;0.4988090000115335;0.5388297000317834;0.5907848000060767;0.6605133000412025;0.7901685000397265;1.0191523000248708;0;0;1;0;0.01
8;2;13;33;letter190;letter169;congruent;0.04;letter190;0.09;0.07;fullmask;0.2;arrow_left.png;0.13;c;0.29811199998948723;0.30021230003330857;273275.0349782;2.800021320581436e-06;0.4988959000329487;0.5389212000300176;0.5908407000242732;0.6606198999797925;0.790267100033816;1.0892771999933757;0;0;1;0;0.01
8;2;13;34;letter190;letter169;congruent;0.04;letter169;0.09;0.07;fullmask;0.2;arrow_right.png;0.13;m;5.668825100001413;5.672978399961721;273282.3869736;2.800021320581436e-06;0.5043680000235327;0.544375299999956;0.5963014999870211;0.6660490999929607;0.7956837000092492;0.9263374999864027;0;0;0;1;0.01
8;2;13;35;letter190;letter169;congruent;0.04;letter169;0.09;0.07;fullmask;0.2;arrow_right.png;0.13;m;0.33607479999773204;0.3402077000355348;273284.2190236;3.00002284348011e-06;0.4986462999950163;0.5386675000190735;0.5907443000469357;0.6606041000341065;0.7901487000053748;0.920815700024832;0;0;0;1;0.01
8;2;13;36;letter190;letter169;congruent;0.04;letter190;0.09;0.07;fullmask;0.2;arrow_left.png;0.13;c;0.44093789998441935;0.4497953000245616;273286.1549315;2.7999631129205227e-06;0.5041761000175029;0.5442030999693088;0.5961198000004515;0.6658841000171378;0.7955349999829195;0.9261794000049122;0;0;0;1;0.01
8;2;13;37;letter190;letter169;congruent;0.04;letter169;0.09;0.07;fullmask;0.2;arrow_right.png;0.13;m;0.34765569999581203;0.35007590003078803;273288.0029329;2.5999615900218487e-06;0.4978495999821462;0.5378766999929212;0.5898334999801591;0.6596049999934621;0.7892566999653354;0.9199088999885134;0;0;0;1;0.01
8;2;13;38;letter190;letter169;congruent;0.04;letter169;0.09;0.07;fullmask;0.2;arrow_right.png;0.13;c;0.15441980003379285;0.15959490003297105;273289.6509541;2.900022082030773e-06;0.5044554999913089;0.5444724999833852;0.5964958000113256;0.6662682000314817;0.7560918999952264;0.7560943000135012;0;1;0;0;0.01
8;2;13;39;letter190;letter169;congruent;0.04;letter169;0.09;0.07;fullmask;0.2;arrow_right.png;0.13;c;0.21354029997019097;0.2204454999882728;273291.3710674;2.8999638743698597e-06;0.5025888999807648;0.5425915999803692;0.594538500008639;0.6642011000076309;0.7948707999894395;1.012925199989695;0;0;1;0;0.01
8;2;13;40;letter190;letter169;congruent;0.04;letter190;0.09;0.07;fullmask;0.2;arrow_left.png;0.13;c;0.3101195999770425;0.3200714999693446;273293.37899;2.600019797682762e-06;0.49556579999625683;0.5355943000176921;0.5876266999985091;0.6573013000306673;0.786971400026232;1.1059671000111848;0;0;1;0;0.01
8;2;13;41;letter190;letter169;congruent;0.04;letter190;0.09;0.07;fullmask;0.2;arrow_left.png;0.13;c;0.38097800000105053;0.38996990001760423;273295.4510086;2.800021320581436e-06;0.5035082000540569;0.5435274000046775;0.5954468999989331;0.6652173000038601;0.7948764000320807;0.9255129000521265;0;0;0;1;0.01
8;2;13;42;letter190;letter169;congruent;0.04;letter169;0.09;0.07;fullmask;0.2;arrow_right.png;0.13;m;0.43814019998535514;0.4408450999762863;273297.3788888;2.7999631129205227e-06;0.49840559996664524;0.5384364000055939;0.589852700009942;0.6596219000057317;0.7902789000072517;0.9199270000099204;0;0;0;1;0.01
8;2;13;43;letter190;letter169;congruent;0.04;letter190;0.09;0.07;fullmask;0.2;arrow_left.png;0.13;m;0.3304745000205003;0.34012050001183525;273299.2030741;2.700020559132099e-06;0.5036853000055999;0.5437062000273727;0.5957270000362769;0.6653887000284158;0.7950445000315085;0.9257134000072256;0;0;0;1;0.01
8;2;13;44;letter190;letter169;congruent;0.04;letter190;0.09;0.07;fullmask;0.2;arrow_left.png;0.13;m;0.3191749000106938;0.3204720000503585;273301.0031091;2.5999615900218487e-06;0.49559169996064156;0.5356345999753103;0.5878061999683268;0.6573557999799959;0.7869930999586359;1.1060000999714248;0;0;1;0;0.01
8;2;13;45;letter190;letter169;congruent;0.04;letter190;0.09;0.07;fullmask;0.2;arrow_left.png;0.13;c;0.40600080002332106;0.4099186999956146;273303.0909313;2.6999623514711857e-06;0.5031329999910668;0.5431593999965116;0.595018699998036;0.6647933999774978;0.7944347999873571;0.9250857000006363;0;0;0;1;0.01
8;2;13;46;letter190;letter169;congruent;0.04;letter169;0.09;0.07;fullmask;0.2;arrow_right.png;0.13;m;0.3706621000310406;0.38004519999958575;273304.9469184;2.6999623514711857e-06;0.504324599984102;0.5443366999970749;0.5963085999828763;0.6662122999550775;0.7956928999628872;0.9264283999800682;0;0;0;1;0.01
8;2;13;47;letter190;letter169;congruent;0.04;letter169;0.09;0.07;fullmask;0.2;arrow_right.png;0.13;m;0.4195121000520885;0.41996960004325956;273306.8670153;3.00002284348011e-06;0.5040177999762818;0.54403440002352;0.5960534000187181;0.665965199994389;0.7955277999863029;0.9261750000296161;0;0;0;1;0.01
8;2;13;48;letter190;letter169;congruent;0.04;letter190;0.09;0.07;fullmask;0.2;arrow_left.png;0.13;c;0.45450069999787956;0.45985529996687546;273308.8031761;2.5999615900218487e-06;0.496466499986127;0.5364833999774419;0.5884420999791473;0.6585018999758177;0.7879106999607757;0.918562299979385;0;0;0;1;0.01
