subjnr;loop_m;blocknr;trialnr;cue_left_learn;cue_right_learn; congruence;cue_dur;cue;SOA;mask_dur;mask;target_dur;target;RW_dur;response;RT;kb_rt;response_absolute; fix_onset;cue_onset;cue_offset;mask_onset;mask_offset;target_offset;blank_onset;response_during_mask;response_during_targetalone;response_during_RW;response_during_blank;frame_dur
11;1;1;1;letter181;letter357;congruent;0.04;letter357;0.05;0.07;fullmask;0.3;arrow_right.png;0;m;0.28274450002936646;0.29019910003989935;355968.2673528;3.00002284348011e-06;0.4993695000302978;0.5393918000045232;0.5510435000178404;0.6206653999979608;0.8412438000086695;0.8412464000284672;0;1;0;0;0.01
11;1;1;2;letter181;letter357;congruent;0.04;letter357;0.05;0.07;fullmask;0.3;arrow_right.png;0;c;0.27729609998641536;0.28027109999675304;355970.0433528;3.100023604929447e-06;0.4974888000288047;0.5375081000383943;0.5494591000024229;0.6192300000111572;0.829731100006029;0.8297336000250652;0;1;0;0;0.01
11;1;1;3;letter181;letter357;congruent;0.04;letter181;0.05;0.07;fullmask;0.3;arrow_left.png;0;c;0.2918641999713145;0.30010009999386966;355971.9794972;3.00002284348011e-06;0.5005905000143684;0.5406004000105895;0.5528991000028327;0.622431299998425;0.8530024000210688;0.8530107000260614;0;1;0;0;0.01
11;1;1;4;letter181;letter357;congruent;0.04;letter357;0.05;0.07;fullmask;0.3;arrow_right.png;0;m;0.26688129996182397;0.2703149999724701;355973.6754182;2.6999623514711857e-06;0.5040458999574184;0.5441228999989107;0.5561725999577902;0.6258330999989994;0.8264901000075042;0.8264984999550506;0;1;0;0;0.01
11;1;1;5;letter181;letter357;congruent;0.04;letter357;0.05;0.07;fullmask;0.3;arrow_right.png;0;m;0.3337521000066772;0.34009999997215346;355975.4433414;3.4999684430658817e-06;0.49935070000356063;0.5393783999606967;0.5513864000095055;0.6211559000075795;0.8515350999659859;0.8515418999595568;0;0;0;1;0.01
11;1;1;6;letter181;letter357;congruent;0.04;letter357;0.05;0.07;fullmask;0.3;arrow_right.png;0;m;0.2646076999953948;0.2702918000286445;355977.1553388;3.100023604929447e-06;0.5044562999974005;0.5444718000362627;0.5564962000353262;0.6262697000056505;0.8267892000149004;0.8267918000346981;0;1;0;0;0.01
11;1;1;7;letter181;letter357;congruent;0.04;letter181;0.05;0.07;fullmask;0.3;arrow_left.png;0;c;0.2154549999977462;0.2194203000399284;355978.8273116;2.900022082030773e-06;0.4998871000134386;0.5399184000561945;0.5519320000312291;0.6216984000056982;0.7713531000190414;0.7713557000388391;0;1;0;0;0.01
11;1;1;8;letter181;letter357;congruent;0.04;letter181;0.05;0.07;fullmask;0.3;arrow_left.png;0;m;0.19047690002480522;0.19952970003942028;355980.4433413;3.200024366378784e-06;0.4949698999989778;0.53498540003784;0.5469569000415504;0.6168597000068985;0.7464856000151485;0.7464882000349462;0;1;0;0;0.01
11;1;1;9;letter181;letter357;congruent;0.04;letter357;0.05;0.07;fullmask;0.3;arrow_right.png;0;m;0.26767189998645335;0.2703199000097811;355982.3714058;3.1999661587178707e-06;0.4982167999842204;0.5382389999576844;0.5498793000006117;0.6195697999792174;0.8202023999765515;0.8202106999815442;0;1;0;0;0.01
11;1;1;10;letter181;letter357;congruent;0.04;letter181;0.05;0.07;fullmask;0.3;arrow_left.png;0;c;0.2981194000458345;0.30020650004735216;355984.1233358;2.8999638743698597e-06;0.5042593999532983;0.5442844999488443;0.5562889999710023;0.6260584999690764;0.8564965999685228;0.8564991999883205;0;1;0;0;0.01
11;1;1;11;letter181;letter357;congruent;0.04;letter181;0.05;0.07;fullmask;0.3;arrow_left.png;0;c;0.2857959999819286;0.2911453999695368;355985.8513411;2.800021320581436e-06;0.4957494999980554;0.5357790000271052;0.5469699000241235;0.6176443000440486;0.838114200043492;0.8381166000035591;0;1;0;0;0.01
11;1;1;12;letter181;letter357;congruent;0.04;letter181;0.05;0.07;fullmask;0.3;arrow_left.png;0;c;0.2538238000124693;0.2593243000446819;355987.5313402;2.600019797682762e-06;0.49525570002151653;0.5352774999919347;0.5473406999954022;0.6171134000178427;0.8066666999948211;0.8066693000146188;0;1;0;0;0.01
11;1;1;13;letter181;letter357;congruent;0.04;letter181;0.05;0.07;fullmask;0.3;arrow_left.png;0;c;0.2947795999934897;0.3002406000159681;355989.2834652;2.700020559132099e-06;0.4985653000185266;0.5385958999977447;0.5507243000320159;0.6204166000243276;0.8509678000118583;0.850976100016851;0;1;0;0;0.01
11;1;1;14;letter181;letter357;congruent;0.04;letter181;0.05;0.07;fullmask;0.3;arrow_left.png;0;c;0.24772670003585517;0.2503693000180647;355990.9873657;3.200024366378784e-06;0.5009426000178792;0.5409591000061482;0.5529073000070639;0.622570600011386;0.8032798999920487;0.8032884999993257;0;1;0;0;0.01
11;1;1;15;letter181;letter357;congruent;0.04;letter357;0.05;0.07;fullmask;0.3;arrow_right.png;0;c;0.25850390002597123;0.25935609999578446;355992.6993901;2.6999623514711857e-06;0.5040215999470092;0.5440305999945849;0.5561102999490686;0.626006199978292;0.8154660000000149;0.8154685999616049;0;1;0;0;0.01
11;1;1;16;letter181;letter357;congruent;0.04;letter181;0.05;0.07;fullmask;0.3;arrow_left.png;0;c;0.24715529999230057;0.24935709999408573;355994.5793261;2.9999646358191967e-06;0.49640229996293783;0.5364187000086531;0.548577599984128;0.6184447999694385;0.7979340999736451;0.7979367999942042;0;1;0;0;0.01
11;1;1;17;letter181;letter357;congruent;0.04;letter181;0.05;0.07;fullmask;0.3;arrow_left.png;0;c;0.3462384999729693;0.35008549998747185;355996.3793411;2.900022082030773e-06;0.5028371000080369;0.5428466000012122;0.5548181000049226;0.6245905000250787;0.8550154000404291;0.8550362000241876;0;0;0;1;0.01
11;1;1;18;letter181;letter357;congruent;0.04;letter357;0.05;0.07;fullmask;0.3;arrow_right.png;0;m;0.29318330000387505;0.3002406000159681;355998.1075635;3.200024366378784e-06;0.4976830000523478;0.5377110000117682;0.5498237000429071;0.6194988000206649;0.850067500025034;0.8500757000292651;0;1;0;0;0.01
11;1;1;19;letter181;letter357;congruent;0.04;letter357;0.05;0.07;fullmask;0.3;arrow_right.png;0;m;0.32584120001411065;0.33012759999837726;355999.89132;3.100023604929447e-06;0.5027139000012539;0.5427254000096582;0.5547904000268318;0.6245634999941103;0.8549422000069171;0.8549481999943964;0;0;0;1;0.01
11;1;1;20;letter181;letter357;congruent;0.04;letter181;0.05;0.07;fullmask;0.3;arrow_left.png;0;c;0.26072979997843504;0.2693413999513723;356001.5873134;2.600019797682762e-06;0.5016294000088237;0.5416423999704421;0.5536774999927729;0.6235831999802031;0.8230182999977842;0.8230208000168204;0;1;0;0;0.01
11;1;1;21;letter181;letter357;congruent;0.04;letter357;0.05;0.07;fullmask;0.3;arrow_right.png;0;m;0.28363200003514066;0.29023859999142587;356003.3312849;3.0999653972685337e-06;0.5022347999620251;0.5422593999537639;0.5542265999829397;0.6240003999555483;0.8444663999835029;0.8444688000017777;0;1;0;0;0.01
11;1;1;22;letter181;letter357;congruent;0.04;letter357;0.05;0.07;fullmask;0.3;arrow_right.png;0;m;0.2244700999581255;0.22931899997638538;356005.0033235;2.8999638743698597e-06;0.5016066000098363;0.5416265999665484;0.5536908999783918;0.6233856999897398;0.7830035999650136;0.7830060999840498;0;1;0;0;0.01
11;1;1;23;letter181;letter357;congruent;0.04;letter181;0.05;0.07;fullmask;0.3;arrow_left.png;0;c;0.21345450001535937;0.21942259999923408;356006.6433086;2.700020559132099e-06;0.5011062000412494;0.541117100045085;0.5531096000340767;0.6228758000070229;0.7725335000432096;0.7725361000047997;0;1;0;0;0.01
11;1;1;24;letter181;letter357;congruent;0.04;letter357;0.05;0.07;fullmask;0.3;arrow_right.png;0;m;0.2183779000188224;0.21942879998823628;356008.2993169;2.700020559132099e-06;0.5016745000029914;0.541699499997776;0.5537118999636732;0.6234851999906823;0.7731418000184931;0.7731443999800831;0;1;0;0;0.01
11;1;1;25;letter181;letter357;congruent;0.04;letter357;0.05;0.07;fullmask;0.3;arrow_right.png;0.13;m;0.3091978000011295;0.31014480005251244;356069.7392562;2.900022082030773e-06;0.5014494999777526;0.5414775999961421;0.5528591999900527;0.6235818999703042;0.8529725999687798;1.0618220000178553;0;0;1;0;0.01
11;1;1;26;letter181;letter357;congruent;0.04;letter181;0.05;0.07;fullmask;0.3;arrow_left.png;0.13;c;0.6096409999881871;0.6104257000260986;356072.0112488;4.799978341907263e-06;0.5011169999488629;0.5411346999462694;0.5527757999952883;0.6226779999560677;0.8529797999653965;0.9826250999467447;0;0;0;1;0.01
11;1;1;27;letter181;letter357;congruent;0.04;letter181;0.05;0.07;fullmask;0.3;arrow_left.png;0.13;m;0.5958709000260569;0.6004205999779515;356074.0593386;3.2999669201672077e-06;0.5026048999861814;0.5426559000043198;0.5548106000060216;0.6244577000034042;0.8548626999836415;0.9845318999723531;0;0;0;1;0.01
11;1;1;28;letter181;letter357;congruent;0.04;letter181;0.05;0.07;fullmask;0.3;arrow_left.png;0.13;c;0.5704085000324994;0.5795127000310458;356076.2752745;3.3999676816165447e-06;0.503816399956122;0.5438291999744251;0.5559339000028558;0.6258467999869026;0.855138499988243;0.9857870999840088;0;0;0;1;0.01
11;1;1;29;letter181;letter357;congruent;0.04;letter357;0.05;0.07;fullmask;0.3;arrow_right.png;0.13;m;0.5560227999812923;0.560564199986402;356078.2912546;2.800021320581436e-06;0.5019398999866098;0.5419575999840163;0.5531263999873772;0.6231973000103608;0.8533284000004642;0.9839637000113726;0;0;0;1;0.01
11;1;1;30;letter181;letter357;congruent;0.04;letter181;0.05;0.07;fullmask;0.3;arrow_left.png;0.13;c;0.2679264000034891;0.27032619999954477;356079.9953997;3.200024366378784e-06;0.5000324000138789;0.5400480999960564;0.5521718000527471;0.6218383000232279;0.8225007000146434;0.8225092000211589;0;1;0;0;0.01
11;1;1;31;letter181;letter357;congruent;0.04;letter181;0.05;0.07;fullmask;0.3;arrow_left.png;0.13;c;0.5808780999504961;0.5904405000037514;356082.0193521;2.7999631129205227e-06;0.49935929995262995;0.5393793999683112;0.5513889999710955;0.6211639999528416;0.8515555000049062;0.9811960000079125;0;0;0;1;0.01
11;1;1;32;letter181;letter357;congruent;0.04;letter357;0.05;0.07;fullmask;0.3;arrow_right.png;0.13;m;0.2734303000033833;0.2802654000115581;356083.7632443;2.7999631129205227e-06;0.4975095999543555;0.537530199973844;0.5495465999701992;0.6193213999504223;0.8298128999886103;0.8298153999494389;0;1;0;0;0.01
11;1;1;33;letter181;letter357;congruent;0.04;letter357;0.05;0.07;fullmask;0.3;arrow_right.png;0.13;m;0.5931680999929085;0.600454900006298;356085.8032565;2.900022082030773e-06;0.5040520000038669;0.5440727999666706;0.5552566999685951;0.6261599999852479;0.8554551000124775;0.9861246999935247;0;0;0;1;0.01
11;1;1;34;letter181;letter357;congruent;0.04;letter357;0.05;0.07;fullmask;0.3;arrow_right.png;0.13;m;22.26102610002272;22.264497500029393;356109.5233714;2.6999623514711857e-06;0.5026164999580942;0.5426375999813899;0.55474900000263;0.6244304999709129;0.8548226999701001;0.9844559999764897;0;0;0;1;0.01
11;1;1;35;letter181;letter357;congruent;0.04;letter181;0.05;0.07;fullmask;0.3;arrow_left.png;0.13;m;0.6314615999581292;0.6402761999634095;356111.6192712;2.700020559132099e-06;0.5001812999835238;0.5402483000070788;0.5524017999996431;0.6222256000037305;0.8515252000070177;0.9821753000142053;0;0;0;1;0.01
11;1;1;36;letter181;letter357;congruent;0.04;letter357;0.05;0.07;fullmask;0.3;arrow_right.png;0.13;m;0.5942261000163853;0.6005226999986917;356113.8833393;2.600019797682762e-06;0.49800459999823943;0.5380341000272892;0.550048400007654;0.6198185000102967;0.8502102000056766;0.9798602000228129;0;0;0;1;0.01
11;1;1;37;letter181;letter357;congruent;0.04;letter181;0.05;0.07;fullmask;0.3;arrow_left.png;0.13;c;0.3134855000535026;0.32011600001715124;356115.6432276;2.900022082030773e-06;0.49931170005584136;0.5393257000250742;0.5506469000247307;0.6213706000125967;0.8507603000034578;1.069669300050009;0;0;1;0;0.01
11;1;1;38;letter181;letter357;congruent;0.04;letter357;0.05;0.07;fullmask;0.3;arrow_right.png;0.13;m;0.5535164999892004;0.5595278000109829;356117.8352235;3.0999653972685337e-06;0.4960082999896258;0.5360443000099622;0.5480447000009008;0.6178193999803625;0.8482001000083983;0.9778588999761268;0;0;0;1;0.01
11;1;1;39;letter181;letter357;congruent;0.04;letter357;0.05;0.07;fullmask;0.3;arrow_right.png;0.13;m;0.5347579999943264;0.5406964999856427;356119.8274062;3.400025889277458e-06;0.5019853000412695;0.5420113000436686;0.5536550000542775;0.6234274000162259;0.8538112000096589;0.9834654000005685;0;0;0;1;0.01
11;1;1;40;letter181;letter357;congruent;0.04;letter357;0.05;0.07;fullmask;0.3;arrow_right.png;0.13;m;0.5129913000273518;0.5198078000103123;356121.7873888;2.800021320581436e-06;0.4983195000095293;0.5383393000229262;0.5504781000199728;0.6202539000078104;0.8506360000465065;0.9804487000219524;0;0;0;1;0.01
11;1;1;41;letter181;letter357;congruent;0.04;letter181;0.05;0.07;fullmask;0.3;arrow_left.png;0.13;c;0.5498815999599174;0.55055409995839;356123.7952444;2.8999638743698597e-06;0.5046113999560475;0.5446312999702059;0.5564419999718666;0.626214699994307;0.8565974999801256;0.9862588999676518;0;0;0;1;0.01
11;1;1;42;letter181;letter357;congruent;0.04;letter181;0.05;0.07;fullmask;0.3;arrow_left.png;0.13;c;0.5324473999789916;0.5405687000020407;356125.7792171;2.800021320581436e-06;0.49609630001941696;0.5361182999913581;0.5480447000009008;0.6178198999841698;0.848198699997738;0.9778518999810331;0;0;0;1;0.01
11;1;1;43;letter181;letter357;congruent;0.04;letter357;0.05;0.07;fullmask;0.3;arrow_right.png;0.13;m;0.27189089998137206;0.28127669997047633;356127.4992183;2.800021320581436e-06;0.5002261999761686;0.5402603999827988;0.5514518999843858;0.6221299999742769;0.832736800017301;0.8327450000215322;0;1;0;0;0.01
11;1;1;44;letter181;letter357;congruent;0.04;letter357;0.05;0.07;fullmask;0.3;arrow_right.png;0.13;m;0.5303510000230744;0.540593900019303;356129.4594034;2.700020559132099e-06;0.49550919997273013;0.535528999986127;0.5473432000144385;0.6171130000147969;0.8474988000234589;0.9771507999976166;0;0;0;1;0.01
11;1;1;45;letter181;letter357;congruent;0.04;letter357;0.05;0.07;fullmask;0.3;arrow_right.png;0.13;m;0.5529691000119783;0.5605123999994248;356131.4832126;2.800021320581436e-06;0.5033723000087775;0.5433668000041507;0.5550816000322811;0.624858100025449;0.8552351000253111;0.9848880000063218;0;0;0;1;0.01
11;1;1;46;letter181;letter357;congruent;0.04;letter181;0.05;0.07;fullmask;0.3;arrow_left.png;0.13;c;0.6132478999788873;0.6204040999873541;356133.5552126;2.7999631129205227e-06;0.5020777999889106;0.5421045999974012;0.5542321999673732;0.6241426999913529;0.8534345999942161;0.9840872999629937;0;0;0;1;0.01
11;1;1;47;letter181;letter357;congruent;0.04;letter181;0.05;0.07;fullmask;0.3;arrow_left.png;0.13;m;0.5384273999952711;0.5406767000094987;356135.5312845;2.5999615900218487e-06;0.4972787000006065;0.5373009999748319;0.5489985999884084;0.618860799993854;0.8491457999916747;0.9798116000019945;0;0;0;1;0.01
11;1;1;48;letter181;letter357;congruent;0.04;letter181;0.05;0.07;fullmask;0.3;arrow_left.png;0.13;c;0.5493993000127375;0.5505485000321642;356137.7232201;3.200024366378784e-06;0.5010744000319391;0.5411052000126801;0.5523128000204451;0.6230844000237994;0.8524736000108533;0.983121500001289;0;0;0;1;0.01
11;1;2;1;letter181;letter357;congruent;0.04;letter357;0.05;0.07;fullmask;0.25;arrow_right.png;0.13;m;0.481443400029093;0.4897392999846488;356154.9471879;3.200024366378784e-06;0.5034885000204667;0.5435015000402927;0.5554731000447646;0.6252786000259221;0.8047988000325859;0.9354511000565253;0;0;0;1;0.01
11;1;2;2;letter181;letter357;congruent;0.04;letter181;0.05;0.07;fullmask;0.25;arrow_left.png;0.13;c;0.46018549997825176;0.46975469996687025;356156.8672551;2.9999646358191967e-06;0.5017600999563001;0.5417602999950759;0.5537943999515846;0.6235643999534659;0.8030856999685057;0.9337395999464206;0;0;0;1;0.01
11;1;2;3;letter181;letter357;congruent;0.04;letter181;0.05;0.07;fullmask;0.25;arrow_left.png;0.13;m;0.46678240003529936;0.4696542000165209;356158.795227;3.00002284348011e-06;0.5022706000017934;0.5422795999911614;0.5544617000268772;0.6241278999950737;0.8046456000301987;0.9342994000180624;0;0;0;1;0.01
11;1;2;4;letter181;letter357;congruent;0.04;letter181;0.05;0.07;fullmask;0.25;arrow_left.png;0.13;m;0.5035644000163302;0.5096554000047036;356160.9232271;2.8999638743698597e-06;0.49848289997316897;0.5385148999630474;0.5505339999799617;0.6203076999518089;0.7998253999976441;0.9304772999603301;0;0;0;1;0.01
11;1;2;5;letter181;letter357;congruent;0.04;letter181;0.05;0.07;fullmask;0.25;arrow_left.png;0.13;m;0.4502170999767259;0.4597838000045158;356163.0112674;2.800021320581436e-06;0.4968314000288956;0.5368488000240177;0.5488786000059918;0.6186493000132032;0.7981697000213899;0.9288215000415221;0;0;0;1;0.01
11;1;2;6;letter181;letter357;congruent;0.04;letter357;0.05;0.07;fullmask;0.25;arrow_right.png;0.13;m;0.4927260999684222;0.49959179997676983;356165.1552155;2.700020559132099e-06;0.5028594000032172;0.5428959000273608;0.5549919999903068;0.624685299990233;0.8041892999899574;0.934847800002899;0;0;0;1;0.01
11;1;2;7;letter181;letter357;congruent;0.04;letter181;0.05;0.07;fullmask;0.25;arrow_left.png;0.13;m;0.5274638999835588;0.5295149000012316;356167.1312443;2.7999631129205227e-06;0.5018588999519125;0.5418731999816373;0.55402330000652;0.6236874999594875;0.8032244999776594;0.9338740999810398;0;0;0;1;0.01
11;1;2;8;letter181;letter357;congruent;0.04;letter181;0.05;0.07;fullmask;0.25;arrow_left.png;0.13;m;102.98795249999966;102.99641459999839;356271.7630917;2.8999638743698597e-06;0.502321399981156;0.5423401999869384;0.5544282000046223;0.6243347999989055;0.8037634000065736;0.9344142000190914;0;0;0;1;0.01
11;1;2;9;letter181;letter357;congruent;0.04;letter357;0.05;0.07;fullmask;0.25;arrow_right.png;0.13;m;0.19321019999915734;0.20058240002254024;356273.6352874;2.800021320581436e-06;0.49826110003050417;0.5382873000344262;0.5494948000414297;0.6203520999988541;0.7500855000107549;0.7500943000195548;0;1;0;0;0.01
11;1;2;10;letter181;letter357;congruent;0.04;letter357;0.05;0.07;fullmask;0.25;arrow_right.png;0.13;m;0.5192214999697171;0.519515499996487;356275.60318;2.800021320581436e-06;0.4947074999799952;0.5347288000048138;0.5467498999787495;0.6165155000053346;0.7960358000127599;0.926695300033316;0;0;0;1;0.01
11;1;2;11;letter181;letter357;congruent;0.04;letter357;0.05;0.07;fullmask;0.25;arrow_right.png;0.13;m;0.4859238000353798;0.48970470001222566;356277.5311453;2.9999646358191967e-06;0.4963238000054844;0.5363200000138022;0.5483500999980606;0.6181150000193156;0.7976353999692947;0.9282930999761447;0;0;0;1;0.01
11;1;2;12;letter181;letter357;congruent;0.04;letter357;0.05;0.07;fullmask;0.25;arrow_right.png;0.13;m;0.27658800000790507;0.2802640000008978;356279.243097;3.100023604929447e-06;0.49687070003710687;0.5368812000378966;0.5489502000273205;0.6187257000128739;0.7982441000058316;1.0272186000365764;0;0;1;0;0.01
11;1;2;13;letter181;letter357;congruent;0.04;letter181;0.05;0.07;fullmask;0.25;arrow_left.png;0.13;c;0.46939419995760545;0.46956209995551035;356281.347179;2.700020559132099e-06;0.5028516000020318;0.5428718000184745;0.5549654000205919;0.6246260000043549;0.8051411000196822;0.9347966000204906;0;0;0;1;0.01
11;1;2;14;letter181;letter357;congruent;0.04;letter181;0.05;0.07;fullmask;0.25;arrow_left.png;0.13;c;0.4501793999806978;0.4598922000150196;356283.2191515;2.900022082030773e-06;0.49426589999347925;0.5342867000144906;0.5463363000308163;0.6161175000015646;0.796631500008516;0.9262638000072911;0;0;0;1;0.01
11;1;2;15;letter181;letter357;congruent;0.04;letter181;0.05;0.07;fullmask;0.25;arrow_left.png;0.13;c;0.43910920002963394;0.4398370000417344;356285.0991944;2.800021320581436e-06;0.502211700018961;0.5422320000361651;0.5541784000233747;0.6239496000343934;0.8044673000113107;0.9341205999953672;0;0;0;1;0.01
11;1;2;16;letter181;letter357;congruent;0.04;letter357;0.05;0.07;fullmask;0.25;arrow_right.png;0.13;c;0.21361649996833876;0.21947870001895353;356286.7550878;2.7999631129205227e-06;0.5037301999982446;0.543758399959188;0.5558601999655366;0.624931700003799;0.77533819997916;0.7753408999997191;0;1;0;0;0.01
11;1;2;17;letter181;letter357;congruent;0.04;letter357;0.05;0.07;fullmask;0.25;arrow_right.png;0.13;m;0.3384730000398122;0.34010710002621636;356288.7310442;2.700020559132099e-06;0.49841569998534396;0.5384195999940857;0.5504363999934867;0.6202086000121199;0.799729699967429;1.0887839999631979;0;0;1;0;0.01
11;1;2;18;letter181;letter357;congruent;0.04;letter181;0.05;0.07;fullmask;0.25;arrow_left.png;0.13;c;0.26531009998871014;0.27039669995428994;356290.6191616;2.700020559132099e-06;0.4945220000226982;0.5345410999725573;0.5465450999909081;0.6163152999943122;0.7968326000263914;1.0148379000020213;0;0;1;0;0.01
11;1;2;19;letter181;letter357;congruent;0.04;letter357;0.05;0.07;fullmask;0.25;arrow_right.png;0.13;m;0.31402529997285455;0.3201583999907598;356292.5791249;3.3999676816165447e-06;0.4992482999805361;0.5392750999890268;0.5513037999626249;0.6210747999721207;0.8005940999719314;1.069610200007446;0;0;1;0;0.01
11;1;2;20;letter181;letter357;congruent;0.04;letter357;0.05;0.07;fullmask;0.25;arrow_right.png;0.13;c;0.2627953999908641;0.27029549999861047;356294.4990792;2.800021320581436e-06;0.5030682000215165;0.5430951000307687;0.5550361000350676;0.6248084000544623;0.8053295999998227;1.023399400000926;0;0;1;0;0.01
11;1;2;21;letter181;letter357;congruent;0.04;letter181;0.05;0.07;fullmask;0.25;arrow_left.png;0.13;c;0.48732439999002963;0.4897060000221245;356296.8350862;3.200024366378784e-06;0.4968172000371851;0.536841600027401;0.5488984000403434;0.6186730000190437;0.7981900000013411;0.9288442000397481;0;0;0;1;0.01
11;1;2;22;letter181;letter357;congruent;0.04;letter357;0.05;0.07;fullmask;0.25;arrow_right.png;0.13;m;0.29033889999845996;0.30032899999059737;356298.5792884;3.100023604929447e-06;0.4966044999891892;0.5366152999922633;0.5485859999898821;0.6183724000002258;0.7988883000216447;1.0469499999890104;0;0;1;0;0.01
11;1;2;23;letter181;letter357;congruent;0.04;letter357;0.05;0.07;fullmask;0.25;arrow_right.png;0.13;m;0.4427793000359088;0.4498108000261709;356300.6830768;3.00002284348011e-06;0.49832020001485944;0.5383370000054128;0.5503996000043117;0.6201702000107616;0.7996908000204712;0.9303418999770656;0;0;0;1;0.01
11;1;2;24;letter181;letter357;congruent;0.04;letter181;0.05;0.07;fullmask;0.25;arrow_left.png;0.13;m;0.26955399999860674;0.27029899996705353;356302.4110842;2.700020559132099e-06;0.5013078000047244;0.5413266000105068;0.5533889000071213;0.6231632000417449;0.802683399990201;1.021639899990987;0;0;1;0;0.01
11;1;2;25;letter181;letter357;congruent;0.04;letter357;0.05;0.07;fullmask;0.25;arrow_right.png;0.13;m;0.43823049997445196;0.4398462999961339;356304.6910768;3.400025889277458e-06;0.49943660001736134;0.5394521999987774;0.5514515999821015;0.6212243000045419;0.8017563999746926;0.9314003000035882;0;0;0;1;0.01
11;1;2;26;letter181;letter357;congruent;0.04;letter357;0.05;0.07;fullmask;0.25;arrow_right.png;0.13;m;0.4748694999725558;0.4796407999820076;356306.619068;2.800021320581436e-06;0.4941162000177428;0.5341402000049129;0.5462892000214197;0.6159611000330187;0.796491400047671;0.9261495000100695;0;0;0;1;0.01
11;1;2;27;letter181;letter357;congruent;0.04;letter181;0.05;0.07;fullmask;0.25;arrow_left.png;0.13;c;0.3082050000084564;0.31015720003051683;356308.3631034;2.600019797682762e-06;0.4966524000046775;0.5366456000483595;0.5482619000249542;0.6180292000062764;0.7985455000307411;1.0569967000046745;0;0;1;0;0.01
11;1;2;28;letter181;letter357;congruent;0.04;letter357;0.05;0.07;fullmask;0.25;arrow_right.png;0.13;m;0.24651090003317222;0.24934949999442324;356310.2431294;2.600019797682762e-06;0.495171400019899;0.5351918999804184;0.5472494999994524;0.6170227999682538;0.7965999000007287;0.7966024000197649;0;1;0;0;0.01
11;1;2;29;letter181;letter357;congruent;0.04;letter181;0.05;0.07;fullmask;0.25;arrow_left.png;0.13;c;0.3093682999606244;0.31025869998848066;356311.9870938;2.700020559132099e-06;0.5026579000405036;0.5426754000363871;0.5547590000205673;0.6246834000339732;0.804097999993246;1.0630219000158831;0;0;1;0;0.01
11;1;2;30;letter181;letter357;congruent;0.04;letter181;0.05;0.07;fullmask;0.25;arrow_left.png;0.13;c;0.4381351000047289;0.43996480002533644;356314.0670629;3.100023604929447e-06;0.5022218999802135;0.5422498999978416;0.5542618000181392;0.6240491999778897;0.8045703999814577;0.9342053000000305;0;0;0;1;0.01
11;1;2;31;letter181;letter357;congruent;0.04;letter181;0.05;0.07;fullmask;0.25;arrow_left.png;0.13;c;0.26293369999621063;0.27029670000774786;356315.7630641;3.100023604929447e-06;0.4972489000065252;0.5372793999849819;0.5492807000409812;0.6190613000071608;0.798577599984128;1.0175821000011638;0;0;1;0;0.01
11;1;2;32;letter181;letter357;congruent;0.04;letter357;0.05;0.07;fullmask;0.25;arrow_right.png;0.13;c;0.2940539999981411;0.3002081000013277;356317.7150239;3.100023604929447e-06;0.4967909000115469;0.536810300021898;0.5484216000186279;0.6182152000255883;0.7987101000035182;1.0471652999985963;0;0;1;0;0.01
11;1;2;33;letter181;letter357;congruent;0.04;letter357;0.05;0.07;fullmask;0.25;arrow_right.png;0.13;m;0.31439419998787344;0.3203268999932334;356319.8672387;3.2999669201672077e-06;0.5015442000003532;0.5415582999703474;0.5536670999717899;0.6235688999877311;0.8030050999950618;1.071913699968718;0;0;1;0;0.01
11;1;2;34;letter181;letter357;congruent;0.04;letter181;0.05;0.07;fullmask;0.25;arrow_left.png;0.13;c;0.3170747000258416;0.32017740001901984;356321.8111401;2.5999615900218487e-06;0.49419910000870004;0.5342351999715902;0.5462834999780171;0.6159505999530666;0.7964889999711886;1.0645717000006698;0;0;1;0;0.01
11;1;2;35;letter181;letter357;congruent;0.04;letter357;0.05;0.07;fullmask;0.25;arrow_right.png;0.13;m;0.32983790000434965;0.33002519997535273;356323.7951201;3.400025889277458e-06;0.4976509000407532;0.5376844000420533;0.5496739000082016;0.6194469000329264;0.7989972000359558;1.078047500050161;0;0;1;0;0.01
11;1;2;36;letter181;letter357;congruent;0.04;letter181;0.05;0.07;fullmask;0.25;arrow_left.png;0.13;c;0.3592128999880515;0.36105209996458143;356325.795072;2.9999646358191967e-06;0.49913319997722283;0.5391525999875739;0.5504556999658234;0.6212211999809369;0.800740999984555;1.1095192999928258;0;0;1;0;0.01
11;1;2;37;letter181;letter357;congruent;0.04;letter181;0.05;0.07;fullmask;0.25;arrow_left.png;0.13;c;0.3551710000028834;0.36005499999737367;356327.8030152;2.8999638743698597e-06;0.5013034999719821;0.5413284999667667;0.5533224999671802;0.623095299990382;0.802616200002376;1.111713399994187;0;0;1;0;0.01
11;1;2;38;letter181;letter357;congruent;0.04;letter357;0.05;0.07;fullmask;0.25;arrow_right.png;0.13;m;0.3119153000297956;0.32016500004101545;356329.7712214;2.900022082030773e-06;0.4982818000135012;0.5382883000420406;0.550432100018952;0.6201004000031389;0.8006153000169434;1.0686263000243343;0;0;1;0;0.01
11;1;2;39;letter181;letter357;congruent;0.04;letter181;0.05;0.07;fullmask;0.25;arrow_left.png;0.13;c;0.44483569997828454;0.44981690001441166;356331.8750448;2.600019797682762e-06;0.5033789000008255;0.543386899982579;0.555165899975691;0.6249407000141218;0.8054618000169285;0.9351152000017464;0;0;0;1;0.01
11;1;2;40;letter181;letter357;congruent;0.04;letter181;0.05;0.07;fullmask;0.25;arrow_left.png;0.13;c;0.31735999998636544;0.3201583999907598;356333.6590483;2.8999638743698597e-06;0.50187029998051;0.5418895999900997;0.5539040999719873;0.6236770999967121;0.8031965999980457;1.072248300013598;0;0;1;0;0.01
11;1;2;41;letter181;letter357;congruent;0.04;letter357;0.05;0.07;fullmask;0.25;arrow_right.png;0.13;m;0.4280017999699339;0.4297774999868125;356335.7310571;2.900022082030773e-06;0.5032429000129923;0.5432509999955073;0.5553662999882363;0.6250379999983124;0.8045524000190198;0.9352025999687612;0;0;0;1;0.01
11;1;2;42;letter181;letter357;congruent;0.04;letter357;0.05;0.07;fullmask;0.25;arrow_right.png;0.13;c;0.2728693999815732;0.2802976999664679;356337.4672347;2.800021320581436e-06;0.5032864999957383;0.5433359000016935;0.555503600044176;0.6251937000197358;0.8047221000306308;1.033627600001637;0;0;1;0;0.01
11;1;2;43;letter181;letter357;congruent;0.04;letter357;0.05;0.07;fullmask;0.25;arrow_right.png;0.13;m;0.38347189995693043;0.389967399998568;356339.699048;3.200024366378784e-06;0.49703410000074655;0.5370362999965437;0.5490596999879926;0.6188372999895364;0.7983528000186197;0.9290055999881588;0;0;0;1;0.01
11;1;2;44;letter181;letter357;congruent;0.04;letter181;0.05;0.07;fullmask;0.25;arrow_left.png;0.13;c;0.31299180001951754;0.3201608000090346;356341.4590442;3.300025127828121e-06;0.49544810003135353;0.5354645000188611;0.5467795000295155;0.6175458999932744;0.7970635999809019;1.065815499983728;0;0;1;0;0.01
11;1;2;45;letter181;letter357;congruent;0.04;letter181;0.05;0.07;fullmask;0.25;arrow_left.png;0.13;c;0.3132704999879934;0.32015569997020066;356343.4114161;3.00002284348011e-06;0.49853199999779463;0.5385675000143237;0.5507007000269368;0.6203438999946229;0.7998615999822505;1.0688960999832489;0;0;1;0;0.01
11;1;2;46;letter181;letter357;congruent;0.04;letter181;0.05;0.07;fullmask;0.25;arrow_left.png;0.13;c;0.447833200043533;0.44972400000551715;356345.5070351;3.400025889277458e-06;0.49895660002948716;0.5389836000395007;0.5509210000163876;0.6206071000196971;0.801124699995853;0.9307530000223778;0;0;0;1;0.01
11;1;2;47;letter181;letter357;congruent;0.04;letter357;0.05;0.07;fullmask;0.25;arrow_right.png;0.13;m;0.46844649995910004;0.4698058999492787;356347.4190519;2.800021320581436e-06;0.5030253999866545;0.5430423999787308;0.5551477000117302;0.6250544000067748;0.8044850000296719;0.9351352999801748;0;0;0;1;0.01
11;1;2;48;letter181;letter357;congruent;0.04;letter357;0.05;0.07;fullmask;0.25;arrow_right.png;0.13;m;0.4273109000059776;0.42986870004097;356349.2990667;2.700020559132099e-06;0.5024355000350624;0.5424451000289991;0.5544672000105493;0.6242447000113316;0.8037593000335619;0.9344097999855876;0;0;0;1;0.01
11;1;3;1;letter181;letter357;congruent;0.04;letter357;0.05;0.07;fullmask;0.2;arrow_right.png;0.13;m;7.159382199984975;7.164012899971567;356361.9550143;2.7999631129205227e-06;0.5041393999708816;0.544153599999845;0.5562069999868982;0.6261544000008143;0.7557188000064343;0.8863690999569371;0;0;0;1;0.01
11;1;3;2;letter181;letter357;congruent;0.04;letter357;0.05;0.07;fullmask;0.2;arrow_right.png;0.13;c;0.18600580003112555;0.18946890003280714;356363.5870795;2.6999623514711857e-06;0.5013779999571852;0.5414031000109389;0.55331920000026;0.6230580999981612;0.7427889999817125;0.7427916000015102;0;1;0;0;0.01
11;1;3;3;letter181;letter357;congruent;0.04;letter181;0.05;0.07;fullmask;0.2;arrow_left.png;0.13;c;0.3306798000121489;0.34010679996572435;356365.3630239;2.8999638743698597e-06;0.4987372999894433;0.5387556999921799;0.5508826999575831;0.6208996999775991;0.7503064999473281;0.8809586999705061;0;0;0;1;0.01
11;1;3;4;letter181;letter357;congruent;0.04;letter357;0.05;0.07;fullmask;0.2;arrow_right.png;0.13;c;0.18353399995248765;0.18955619999906048;356366.9870175;2.700020559132099e-06;0.4990102000301704;0.5390331000089645;0.5511526000336744;0.6210589000256732;0.7407079000258818;0.7407107000472024;0;1;0;0;0.01
11;1;3;5;letter181;letter357;congruent;0.04;letter181;0.05;0.07;fullmask;0.2;arrow_left.png;0.13;c;0.2785415999824181;0.2802065999712795;356368.7230684;2.8999638743698597e-06;0.49976139998761937;0.5397732999990694;0.5518832999514416;0.6215745999943465;0.7512138999882154;1.0300983999622986;0;0;1;0;0.01
11;1;3;6;letter181;letter357;congruent;0.04;letter181;0.05;0.07;fullmask;0.2;arrow_left.png;0.13;c;0.28794839995680377;0.2902365999761969;356370.6430146;3.300025127828121e-06;0.5036366999847814;0.5436542000388727;0.5550460999947973;0.6248162999982014;0.755470400035847;1.0439630000037141;0;0;1;0;0.01
11;1;3;7;letter181;letter357;congruent;0.04;letter181;0.05;0.07;fullmask;0.2;arrow_left.png;0.13;c;0.2309290999546647;0.24027789995307103;356372.5070063;3.100023604929447e-06;0.4958273000083864;0.5358505999902263;0.5470121999969706;0.61768690001918;0.7473389999940991;0.9861439000233077;0;0;1;0;0.01
11;1;3;8;letter181;letter357;congruent;0.04;letter181;0.05;0.07;fullmask;0.2;arrow_left.png;0.13;c;0.221342500008177;0.23030250001465902;356374.3790975;3.00002284348011e-06;0.49660990003030747;0.5366249000071548;0.5482581999967806;0.6180210000020452;0.748583700042218;0.9769178000278771;0;0;1;0;0.01
11;1;3;9;letter181;letter357;congruent;0.04;letter181;0.05;0.07;fullmask;0.2;arrow_left.png;0.13;c;0.26549060002435;0.2692362000234425;356376.2750133;3.300025127828121e-06;0.497886200028006;0.5379271000274457;0.5501173000084236;0.6198225000407547;0.7494673000182956;1.0182267000200227;0;0;1;0;0.01
11;1;3;10;letter181;letter357;congruent;0.04;letter357;0.05;0.07;fullmask;0.2;arrow_right.png;0.13;m;0.38849159999517724;0.3899546000175178;356378.299089;2.900022082030773e-06;0.49674650002270937;0.5367678999900818;0.5488025000086054;0.6185815000208095;0.748237700026948;0.8788606000016443;0;0;0;1;0.01
11;1;3;11;letter181;letter357;congruent;0.04;letter357;0.05;0.07;fullmask;0.2;arrow_right.png;0.13;m;0.33711760002188385;0.34010339999804273;356380.0990099;2.6999623514711857e-06;0.49790169997140765;0.5379279999760911;0.5500614999909885;0.6198355999658816;0.7494913999689743;0.880143299989868;0;0;0;1;0.01
11;1;3;12;letter181;letter357;congruent;0.04;letter357;0.05;0.07;fullmask;0.2;arrow_right.png;0.13;m;0.30804449995048344;0.31018269999185577;356381.8510241;3.00002284348011e-06;0.4979484000359662;0.5377264000126161;0.549804000009317;0.6195820000139065;0.7492310000234284;1.0580707000335678;0;0;1;0;0.01
11;1;3;13;letter181;letter357;congruent;0.04;letter357;0.05;0.07;fullmask;0.2;arrow_right.png;0.13;m;0.23880290001397952;0.23925149999558926;356383.7230861;2.800021320581436e-06;0.4956019999808632;0.5356201999820769;0.547748800017871;0.6174446999793872;0.7470804000040516;0.9859264999977313;0;0;1;0;0.01
11;1;3;14;letter181;letter357;congruent;0.04;letter357;0.05;0.07;fullmask;0.2;arrow_right.png;0.13;m;0.17355860001407564;0.1794528000173159;356385.5390496;2.900022082030773e-06;0.501720700005535;0.5417602000525221;0.5538535000523552;0.6235260000103153;0.7333000000216998;0.7333026000414975;0;1;0;0;0.01
11;1;3;15;letter181;letter357;congruent;0.04;letter357;0.05;0.07;fullmask;0.2;arrow_right.png;0.13;m;0.15466330002527684;0.1595839000074193;356387.131001;2.600019797682762e-06;0.503609300008975;0.5436478000483476;0.5555388000211678;0.6253093000268564;0.7151236000354402;0.7151259999955073;0;1;0;0;0.01
11;1;3;16;letter181;letter357;congruent;0.04;letter181;0.05;0.07;fullmask;0.2;arrow_left.png;0.13;c;0.5054909999598749;0.5096173999481834;356389.0830005;3.2999669201672077e-06;0.49508439999772236;0.5351164999883622;0.5471410999889486;0.6167919000145048;0.7465319000184536;0.8771824999712408;0;0;0;1;0.01
11;1;3;17;letter181;letter357;congruent;0.04;letter181;0.05;0.07;fullmask;0.2;arrow_left.png;0.13;c;46.002195000008214;46.0094932000502;356436.5309569;3.0999653972685337e-06;0.4967239999677986;0.536729599989485;0.548759599972982;0.6185428999597207;0.7481917999684811;0.8788431999855675;0;0;0;1;0.01
11;1;3;18;letter181;letter357;congruent;0.04;letter181;0.05;0.07;fullmask;0.2;arrow_left.png;0.13;c;0.37183789996197447;0.37996469996869564;356438.4111947;3.0999653972685337e-06;0.5001764000044204;0.5401916999835521;0.5520481999847107;0.6216955999843776;0.7523300999891944;0.8819796000025235;0;0;0;1;0.01
11;1;3;19;letter181;letter357;congruent;0.04;letter181;0.05;0.07;fullmask;0.2;arrow_left.png;0.13;c;0.28632529999595135;0.2903243000037037;356440.1469831;3.200024366378784e-06;0.4964073000010103;0.5364104000036605;0.5483686000225134;0.6182304000249133;0.7478835000074469;1.0367490000207908;0;0;1;0;0.01
11;1;3;20;letter181;letter357;congruent;0.04;letter181;0.05;0.07;fullmask;0.2;arrow_left.png;0.13;c;0.20694110001204535;0.2094482000102289;356442.0189366;3.400025889277458e-06;0.4997729000169784;0.5398029999923892;0.5518253000336699;0.6215899999951944;0.7512457999982871;0.9600790999829769;0;0;1;0;0.01
11;1;3;21;letter181;letter357;congruent;0.04;letter357;0.05;0.07;fullmask;0.2;arrow_right.png;0.13;c;0.15375400002812967;0.15958500001579523;356443.8269582;2.800021320581436e-06;0.4993438000092283;0.5393820999888703;0.5514038000255823;0.6211659000255167;0.7109902999945916;0.7109929000143893;0;1;0;0;0.01
11;1;3;22;letter181;letter357;congruent;0.04;letter181;0.05;0.07;fullmask;0.2;arrow_left.png;0.13;c;0.39338110003154725;0.40016270003980026;356445.6669534;2.700020559132099e-06;0.5003996000159532;0.5404104000190273;0.5517804000410251;0.6218575000530109;0.7524177000159398;0.8820860999985598;0;0;0;1;0.01
11;1;3;23;letter181;letter357;congruent;0.04;letter357;0.05;0.07;fullmask;0.2;arrow_right.png;0.13;c;0.24836549995234236;0.2502260999754071;356447.3630099;2.6999623514711857e-06;0.5042727999971248;0.5442814999842085;0.5555190999875776;0.6261453999904916;0.7557953000068665;1.0045836999779567;0;0;1;0;0.01
11;1;3;24;letter181;letter357;congruent;0.04;letter357;0.05;0.07;fullmask;0.2;arrow_right.png;0.13;m;0.22626289998879656;0.22935320000397041;356449.2429586;2.7999631129205227e-06;0.49618469999404624;0.5362000999739394;0.5482672000071034;0.6179927999619395;0.747646400006488;0.9764938000007533;0;0;1;0;0.01
11;1;3;25;letter181;letter357;congruent;0.04;letter181;0.05;0.07;fullmask;0.2;arrow_left.png;0.13;m;0.22707919997628778;0.2293968999874778;356451.1149457;2.7999631129205227e-06;0.5018926999764517;0.5418998999521136;0.5539242999511771;0.6236984999850392;0.753346599987708;0.9821911999606527;0;0;1;0;0.01
11;1;3;26;letter181;letter357;congruent;0.04;letter357;0.05;0.07;fullmask;0.2;arrow_right.png;0.13;m;0.16588700003921986;0.16955120000056922;356452.9149446;2.700020559132099e-06;0.49841070000547916;0.5384272000519559;0.5504414000315592;0.6202176000224426;0.7199941000435501;0.7199966000043787;0;1;0;0;0.01
11;1;3;27;letter181;letter357;congruent;0.04;letter357;0.05;0.07;fullmask;0.2;arrow_right.png;0.13;c;0.15280079998774454;0.15963599999668077;356454.522953;3.300025127828121e-06;0.5009569000103511;0.5409911000169814;0.5530345000443049;0.622941300040111;0.7126698000356555;0.7126723999972455;0;1;0;0;0.01
11;1;3;28;letter181;letter357;congruent;0.04;letter357;0.05;0.07;fullmask;0.2;arrow_right.png;0.13;m;0.583592500013765;0.5902708999929018;356456.5549278;3.1999661587178707e-06;0.49949660000856966;0.5395266999839805;0.5517241999623366;0.6213353999773972;0.7509882000158541;0.8816133000073023;0;0;0;1;0.01
11;1;3;29;letter181;letter357;congruent;0.04;letter357;0.05;0.07;fullmask;0.2;arrow_right.png;0.13;m;0.255112899991218;0.2603543000295758;356458.2669534;3.300025127828121e-06;0.49612340005114675;0.5361446000169963;0.5475244999979623;0.6174201000249013;0.7479778000270016;1.0064682000083849;0;0;1;0;0.01
11;1;3;30;letter181;letter357;congruent;0.04;letter181;0.05;0.07;fullmask;0.2;arrow_left.png;0.13;m;0.21721400000387803;0.219425700022839;356460.170947;2.8999638743698597e-06;0.49650309997377917;0.5365204999689013;0.5485323999891989;0.6183051000116393;0.7479607000132091;0.9667935000034049;0;0;1;0;0.01
11;1;3;31;letter181;letter357;congruent;0.04;letter357;0.05;0.07;fullmask;0.2;arrow_right.png;0.13;m;0.28416420001303777;0.29027810000116006;356462.0991657;3.100023604929447e-06;0.5045010999892838;0.5445061000064015;0.5566031999769621;0.6262742999824695;0.7559324000030756;1.0448253999929875;0;0;1;0;0.01
11;1;3;32;letter181;letter357;congruent;0.04;letter181;0.05;0.07;fullmask;0.2;arrow_left.png;0.13;m;0.2787326999823563;0.28021180001087487;356464.0349928;3.600027412176132e-06;0.49969240004429594;0.5397011000313796;0.5517868000315502;0.6214726000325754;0.7511267000227235;1.0300205000094138;0;0;1;0;0.01
11;1;3;33;letter181;letter357;congruent;0.04;letter357;0.05;0.07;fullmask;0.2;arrow_right.png;0.13;m;0.23978189995978028;0.2402697000070475;356465.9070187;2.900022082030773e-06;0.5024214999866672;0.5424418000038713;0.5542601000051945;0.6239392000134103;0.7546191000146791;0.9927412000251934;0;0;1;0;0.01
11;1;3;34;letter181;letter357;congruent;0.04;letter357;0.05;0.07;fullmask;0.2;arrow_right.png;0.13;m;0.16512130002956837;0.17051560000982136;356467.7229804;2.7999631129205227e-06;0.5043372999643907;0.5443712999694981;0.5555844999616966;0.6264752999995835;0.7260994999669492;0.7261021999875084;0;1;0;0;0.01
11;1;3;35;letter181;letter357;congruent;0.04;letter181;0.05;0.07;fullmask;0.2;arrow_left.png;0.13;m;0.21728590002749115;0.21943120000651106;356469.3869556;3.200024366378784e-06;0.4957740000099875;0.5358066000044346;0.5477855000062846;0.617565700027626;0.7472158999880776;0.9660996000166051;0;0;1;0;0.01
11;1;3;36;letter181;letter357;congruent;0.04;letter357;0.05;0.07;fullmask;0.2;arrow_right.png;0.13;m;0.2460109000094235;0.2503740999964066;356471.2670154;2.9999646358191967e-06;0.4951481000171043;0.5351657000137493;0.5472868999931961;0.6169585000025108;0.7466299000079744;0.9954676000052132;0;0;1;0;0.01
11;1;3;37;letter181;letter357;congruent;0.04;letter181;0.05;0.07;fullmask;0.2;arrow_left.png;0.13;m;0.3007878999924287;0.3101752999937162;356473.2429439;2.700020559132099e-06;0.5035939000081271;0.543615700036753;0.5556417000479996;0.6254169000312686;0.7550624000141397;1.0639610000071116;0;0;1;0;0.01
11;1;3;38;letter181;letter357;congruent;0.04;letter357;0.05;0.07;fullmask;0.2;arrow_right.png;0.13;m;0.20349340001121163;0.20945820002816617;356475.1069054;3.3999676816165447e-06;0.49965099996188655;0.5396591000026092;0.5516664999886416;0.6214390999521129;0.7510995999909937;0.9599330999772064;0;0;1;0;0.01
11;1;3;39;letter181;letter357;congruent;0.04;letter181;0.05;0.07;fullmask;0.2;arrow_left.png;0.13;m;0.2405018000281416;0.25034260004758835;356476.9950396;2.9999646358191967e-06;0.5016384999617003;0.5416647999663837;0.5535923999850638;0.6233741999603808;0.7530307999695651;1.0019840999739245;0;0;1;0;0.01
11;1;3;40;letter181;letter357;congruent;0.04;letter181;0.05;0.07;fullmask;0.2;arrow_left.png;0.13;m;0.19128899998031557;0.19960699998773634;356478.8270477;2.5999615900218487e-06;0.5004163999692537;0.5404264999669977;0.5523679999751039;0.6221532999770716;0.7519852999830619;0.7519935999880545;0;1;0;0;0.01
11;1;3;41;letter181;letter357;congruent;0.04;letter357;0.05;0.07;fullmask;0.2;arrow_right.png;0.13;m;0.37395949999336153;0.3800492999725975;356480.6509232;3.1999661587178707e-06;0.5013468999532051;0.5413702999940142;0.5534608999732882;0.6232757999678142;0.7529309999663383;0.883579799963627;0;0;0;1;0.01
11;1;3;42;letter181;letter357;congruent;0.04;letter181;0.05;0.07;fullmask;0.2;arrow_left.png;0.13;m;0.170850700000301;0.17953640001360327;356482.2589298;2.900022082030773e-06;0.4957507000071928;0.5357815999886952;0.5477889999747276;0.6175679999869317;0.7273263999959454;0.7273290000157431;0;1;0;0;0.01
11;1;3;43;letter181;letter357;congruent;0.04;letter357;0.05;0.07;fullmask;0.2;arrow_right.png;0.13;m;0.24982430000090972;0.2502494999789633;356483.9789191;2.800021320581436e-06;0.5033763999817893;0.5434023999841884;0.5553814999875613;0.6250578000326641;0.7548052000347525;1.003692600002978;0;0;1;0;0.01
11;1;3;44;letter181;letter357;congruent;0.04;letter181;0.05;0.07;fullmask;0.2;arrow_left.png;0.13;m;0.15062259999103844;0.1596136000007391;356485.7710606;2.800021320581436e-06;0.4978924000170082;0.5379109000205062;0.5500170000013895;0.6197240000474267;0.709633800026495;0.7096420000307262;0;1;0;0;0.01
11;1;3;45;letter181;letter357;congruent;0.04;letter181;0.05;0.07;fullmask;0.2;arrow_left.png;0.13;m;0.3334519999916665;0.3401319999829866;356487.5549166;2.700020559132099e-06;0.501965300005395;0.5420060000033118;0.5540830999962054;0.6238782000145875;0.7535274000256322;0.8841769000282511;0;0;0;1;0.01
11;1;3;46;letter181;letter357;congruent;0.04;letter181;0.05;0.07;fullmask;0.2;arrow_left.png;0.13;m;0.3984829999972135;0.3999848000239581;356489.411028;2.800021320581436e-06;0.4986372999846935;0.5386783999856561;0.5506663999985904;0.6205609000171535;0.750077800010331;0.8807768999831751;0;0;0;1;0.01
11;1;3;47;letter181;letter357;congruent;0.04;letter181;0.05;0.07;fullmask;0.2;arrow_left.png;0.13;m;0.283547000028193;0.28967239998746663;356491.1473088;2.8999638743698597e-06;0.49493230000371113;0.5349394999793731;0.5469656999921426;0.6167216000030749;0.7463701999513432;1.0352683999808505;0;0;1;0;0.01
11;1;3;48;letter181;letter357;congruent;0.04;letter357;0.05;0.07;fullmask;0.2;arrow_right.png;0.13;m;0.3060441000270657;0.31018870003754273;356493.0909446;2.7999631129205227e-06;0.49482359999092296;0.5348485999857076;0.546763899968937;0.6165403999621049;0.7461879999609664;1.055192299943883;0;0;1;0;0.01
11;2;11;1;letter169;letter190;congruent;0.04;letter169;0.09;0.07;fullmask;0.3;arrow_left.png;0.13;m;3.0362356000114232;3.041510400013067;357395.7943119;3.6999699659645557e-06;0.5020330999977887;0.5420465999632142;0.5941372999805026;0.6635163999744691;0.893877699971199;1.0245805999729782;0;0;0;1;0.01
11;2;11;2;letter169;letter190;congruent;0.04;letter190;0.09;0.07;fullmask;0.3;arrow_right.png;0.13;m;0.21122140000807121;0.21945150004466996;357397.6821773;2.600019797682762e-06;0.5022678999812342;0.542295399995055;0.594217200006824;0.6640990999876522;0.813668199989479;0.8136708000092767;0;1;0;0;0.01
11;2;11;3;letter169;letter190;congruent;0.04;letter190;0.09;0.07;fullmask;0.3;arrow_right.png;0.13;m;0.2543705000425689;0.2604357000091113;357399.426418;2.7999631129205227e-06;0.5046075999853201;0.5446320999762975;0.5965149999829009;0.6662846999824978;0.8569611999555491;0.8569696999620646;0;1;0;0;0.01
11;2;11;4;letter169;letter190;congruent;0.04;letter169;0.09;0.07;fullmask;0.3;arrow_left.png;0.13;m;0.11119999998481944;0.11972249997779727;357401.0344209;2.800021320581436e-06;0.5018022000440396;0.5417998000048101;0.5937486000475474;0.663427599996794;0.7134742000489496;0.7134823999949731;0;1;0;0;0.01
11;2;11;5;letter169;letter190;congruent;0.04;letter169;0.09;0.07;fullmask;0.3;arrow_left.png;0.13;m;0.2464085000101477;0.25034660001983866;357402.9701733;2.8999638743698597e-06;0.49731929996050894;0.5373332999879494;0.5886517000035383;0.6594205999863334;0.8389998999773525;0.8390024999971502;0;1;0;0;0.01
11;2;11;6;letter169;letter190;congruent;0.04;letter169;0.09;0.07;fullmask;0.3;arrow_left.png;0.13;m;0.24446139996871352;0.24948509997921064;357404.8901642;2.800021320581436e-06;0.4953764000092633;0.5353935000021011;0.5874082000227645;0.6573135000071488;0.8368931000004523;0.8368959000217728;0;1;0;0;0.01
11;2;11;7;letter169;letter190;congruent;0.04;letter190;0.09;0.07;fullmask;0.3;arrow_right.png;0.13;m;0.28348370001185685;0.29040629998780787;357406.8504559;2.6999623514711857e-06;0.5031387999770232;0.5431581999873742;0.5951908999704756;0.6650925999856554;0.8856072999769822;0.8856155999819748;0;1;0;0;0.01
11;2;11;8;letter169;letter190;congruent;0.04;letter169;0.09;0.07;fullmask;0.3;arrow_left.png;0.13;c;0.3042388000176288;0.310335100046359;357408.6422903;3.3999676816165447e-06;0.5037297999951988;0.5437289999681525;0.5956974999862723;0.6655118999769911;0.8958930999506265;1.1041286999825388;0;0;1;0;0.01
11;2;11;9;letter169;letter190;congruent;0.04;letter190;0.09;0.07;fullmask;0.3;arrow_right.png;0.13;m;0.22904790000757203;0.22955089999595657;357410.538223;2.900022082030773e-06;0.4966139000025578;0.5366350000258535;0.588441000028979;0.6583684000070207;0.8179925999720581;0.8179952999926172;0;1;0;0;0.01
11;2;11;10;letter169;letter190;congruent;0.04;letter190;0.09;0.07;fullmask;0.3;arrow_right.png;0.13;m;0.4137864999938756;0.41989349998766556;357412.4341461;3.300025127828121e-06;0.5029388000257313;0.5429610999999568;0.5948449000134133;0.6646176000358537;0.895003900048323;1.2133972000447102;0;0;1;0;0.01
11;2;11;11;letter169;letter190;congruent;0.04;letter169;0.09;0.07;fullmask;0.3;arrow_left.png;0.13;c;0.28860599995823577;0.29024060000665486;357414.4102753;2.9999646358191967e-06;0.50474820000818;0.5447665999527089;0.5966039999620989;0.6663773999898694;0.8868456999771297;0.8868480999954045;0;1;0;0;0.01
11;2;11;12;letter169;letter190;congruent;0.04;letter190;0.09;0.07;fullmask;0.3;arrow_right.png;0.13;m;0.21343000000342727;0.22054500004742295;357416.1063151;3.00002284348011e-06;0.5014483999693766;0.5414623999968171;0.5933600999996997;0.6631466000108048;0.8139152000076137;0.8139235000126064;0;1;0;0;0.01
11;2;11;13;letter169;letter190;congruent;0.04;letter190;0.09;0.07;fullmask;0.3;arrow_right.png;0.13;m;0.29039590002503246;0.30029480002122;357417.8744055;2.9999646358191967e-06;0.5035533999907784;0.5435741999535821;0.5955080999992788;0.6654264999669977;0.8958022999577224;0.8958049999782816;0;1;0;0;0.01
11;2;11;14;letter169;letter190;congruent;0.04;letter190;0.09;0.07;fullmask;0.3;arrow_right.png;0.13;c;0.1350209999945946;0.13976669998373836;357419.4901609;2.8999638743698597e-06;0.4968879999942146;0.5369030999718234;0.5888215000159107;0.658720200008247;0.7285889000049792;0.7285912999650463;0;1;0;0;0.01
11;2;11;15;letter169;letter190;congruent;0.04;letter190;0.09;0.07;fullmask;0.3;arrow_right.png;0.13;m;0.258421000035014;0.26032470003701746;357421.4341467;2.7999631129205227e-06;0.5025806999765337;0.542612699966412;0.5939246999914758;0.6646946999826469;0.8542504999786615;0.8542529999976978;0;1;0;0;0.01
11;2;11;16;letter169;letter190;congruent;0.04;letter169;0.09;0.07;fullmask;0.3;arrow_left.png;0.13;m;0.23678530001780018;0.24038140004267916;357423.1543009;2.700020559132099e-06;0.500235200044699;0.5402409000089392;0.5922349000466056;0.6619293999974616;0.8326253000413999;0.8326335000456311;0;1;0;0;0.01
11;2;11;17;letter169;letter190;congruent;0.04;letter169;0.09;0.07;fullmask;0.3;arrow_left.png;0.13;m;0.24935349996667355;0.2593240999849513;357425.098221;2.800021320581436e-06;0.5046464000479318;0.5446688000229187;0.596751100034453;0.6665222000447102;0.8560742000117898;0.8560769000323489;0;1;0;0;0.01
11;2;11;18;letter169;letter190;congruent;0.04;letter169;0.09;0.07;fullmask;0.3;arrow_left.png;0.13;m;0.29814620001707226;0.3001718000159599;357427.0981523;2.700020559132099e-06;0.504768300044816;0.544791400025133;0.5967423000256531;0.6664722000132315;0.8969154000515118;0.8969179000123404;0;1;0;0;0.01
11;2;11;19;letter169;letter190;congruent;0.04;letter169;0.09;0.07;fullmask;0.3;arrow_left.png;0.13;c;0.32480610004859045;0.33013720001326874;357429.1061525;3.200024366378784e-06;0.4961413000128232;0.5361650999984704;0.5881795000168495;0.6580417000222951;0.8883152999915183;1.1165465000085533;0;0;1;0;0.01
11;2;11;20;letter169;letter190;congruent;0.04;letter190;0.09;0.07;fullmask;0.3;arrow_right.png;0.13;m;0.26755819999380037;0.27034180000191554;357431.0502019;3.00002284348011e-06;0.5015803999849595;0.5415962000261061;0.5936041999957524;0.6635073000215925;0.8639471000060439;0.8639508999767713;0;1;0;0;0.01
11;2;11;21;letter169;letter190;congruent;0.04;letter169;0.09;0.07;fullmask;0.3;arrow_left.png;0.13;c;0.28457519999938086;0.2904432999785058;357432.8181575;3.100023604929447e-06;0.5005646999925375;0.540511500032153;0.592304099991452;0.6622795999865048;0.8827470000251196;0.8827494999859482;0;1;0;0;0.01
11;2;11;22;letter169;letter190;congruent;0.04;letter169;0.09;0.07;fullmask;0.3;arrow_left.png;0.13;m;0.23937149997800589;0.2403743999893777;357434.5542138;2.700020559132099e-06;0.50359669997124;0.5436069999705069;0.5955363999819383;0.6653092000051402;0.8359120999812149;0.8359147000010125;0;1;0;0;0.01
11;2;11;23;letter169;letter190;congruent;0.04;letter190;0.09;0.07;fullmask;0.3;arrow_right.png;0.13;m;0.25618179998127744;0.2603223000187427;357436.4821788;3.1999661587178707e-06;0.4950533999945037;0.5350720999995247;0.586911299964413;0.6566814999678172;0.8472343999892473;0.847237000009045;0;1;0;0;0.01
11;2;11;24;letter169;letter190;congruent;0.04;letter190;0.09;0.07;fullmask;0.3;arrow_right.png;0.13;m;0.2746787000214681;0.28029120003338903;357438.2421409;2.800021320581436e-06;0.4997070000390522;0.5397585000027902;0.5919398000114597;0.6616343000205234;0.8722343000117689;0.8722425000160001;0;1;0;0;0.01
11;2;11;25;letter169;letter190;congruent;0.04;letter169;0.09;0.07;fullmask;0.3;arrow_left.png;0.13;c;0.29192709998460487;0.30036250001285225;357440.0103619;2.5999615900218487e-06;0.5028835000121035;0.5429168000118807;0.5949216000153683;0.6648266999982297;0.8952922999742441;0.8953007999807596;0;1;0;0;0.01
11;2;11;26;letter169;letter190;congruent;0.04;letter169;0.09;0.07;fullmask;0.3;arrow_left.png;0.13;c;0.3105665000039153;0.3200751999975182;357441.8101339;2.7999631129205227e-06;0.49630449997493997;0.5363247999921441;0.5883255999651738;0.6580077999969944;0.8883908999850973;1.1067179999663495;0;0;1;0;0.01
11;2;11;27;letter169;letter190;congruent;0.04;letter190;0.09;0.07;fullmask;0.3;arrow_right.png;0.13;m;0.27137829997809604;0.280440800008364;357443.7621539;3.0999653972685337e-06;0.5010880999616347;0.5411121000070125;0.5930272999685258;0.6629423999693245;0.8734702999936417;0.873473199957516;0;1;0;0;0.01
11;2;11;28;letter169;letter190;congruent;0.04;letter190;0.09;0.07;fullmask;0.3;arrow_right.png;0.13;m;0.27037760004168376;0.280263599997852;357445.5221563;2.6999623514711857e-06;0.5027470999630168;0.5427700000000186;0.5945440999930725;0.6643170999595895;0.8748089000000618;0.8748113999608904;0;1;0;0;0.01
11;2;11;29;letter169;letter190;congruent;0.04;letter169;0.09;0.07;fullmask;0.3;arrow_left.png;0.13;m;0.2714034000528045;0.27968020003754646;357447.2743045;3.1999661587178707e-06;0.4970762999728322;0.5370974999968894;0.5888622999773361;0.6586307999677956;0.8685434999642894;0.8685461999848485;0;1;0;0;0.01
11;2;11;30;letter169;letter190;congruent;0.04;letter190;0.09;0.07;fullmask;0.3;arrow_right.png;0.13;m;0.23753610003041103;0.24017640005331486;357449.202208;2.900022082030773e-06;0.49529019999317825;0.5353290000348352;0.5875828000134788;0.657136800000444;0.8277567000477575;0.8277618000283837;0;1;0;0;0.01
11;2;11;31;letter169;letter190;congruent;0.04;letter190;0.09;0.07;fullmask;0.3;arrow_right.png;0.13;m;0.27083170000696555;0.28026229998795316;357450.9461417;3.3999676816165447e-06;0.5010232999920845;0.5410267999977805;0.5928371999762021;0.6626080999849364;0.8731005999725312;0.8731031999923289;0;1;0;0;0.01
11;2;11;32;letter169;letter190;congruent;0.04;letter190;0.09;0.07;fullmask;0.3;arrow_right.png;0.13;m;0.30756689998088405;0.310186899965629;357452.7541281;2.900022082030773e-06;0.504125599982217;0.5441493000253104;0.5960419999901205;0.6658133000019006;0.8961971999960952;1.104519699991215;0;0;1;0;0.01
11;2;11;33;letter169;letter190;congruent;0.04;letter190;0.09;0.07;fullmask;0.3;arrow_right.png;0.13;m;0.27041599998483434;0.2802769999834709;357454.6982292;3.100023604929447e-06;0.49850700004026294;0.5385263000498526;0.5903914000373334;0.660155100049451;0.870670800039079;0.8706741000059992;0;1;0;0;0.01
11;2;11;34;letter169;letter190;congruent;0.04;letter169;0.09;0.07;fullmask;0.3;arrow_left.png;0.13;c;0.3732028999947943;0.38001949997851625;357456.5624631;3.00002284348011e-06;0.4992404999793507;0.5392543000052683;0.5914451999706216;0.6611137000145391;0.8915095999836922;1.1696919000241905;0;0;1;0;0.01
11;2;11;35;letter169;letter190;congruent;0.04;letter169;0.09;0.07;fullmask;0.3;arrow_left.png;0.13;m;0.26574989996152;0.27028950001113117;357458.5061271;2.9999646358191967e-06;0.4989402999635786;0.5389582999632694;0.5909157999558374;0.660688099975232;0.861206499976106;0.8612090999959037;0;1;0;0;0.01
11;2;11;36;letter169;letter190;congruent;0.04;letter169;0.09;0.07;fullmask;0.3;arrow_left.png;0.13;m;0.26657139998860657;0.2701781999785453;357460.4582017;2.9999646358191967e-06;0.4982421000022441;0.5382498999824747;0.5901991999708116;0.6599295999621972;0.8603785000159405;0.8603810999775305;0;1;0;0;0.01
11;2;11;37;letter169;letter190;congruent;0.04;letter190;0.09;0.07;fullmask;0.3;arrow_right.png;0.13;m;0.2932715000351891;0.30030270002316684;357462.4261747;2.6999623514711857e-06;0.504151200002525;0.5441761999973096;0.5961341999936849;0.6658633999759331;0.89644749998115;0.8964557999861427;0;1;0;0;0.01
11;2;11;38;letter169;letter190;congruent;0.04;letter169;0.09;0.07;fullmask;0.3;arrow_left.png;0.13;m;0.2962946000043303;0.3001364999799989;357464.2101204;3.00002284348011e-06;0.49878990004071966;0.538821900030598;0.590552200039383;0.6602434000233188;0.8906828000326641;0.8906852999934927;0;1;0;0;0.01
11;2;11;39;letter169;letter190;congruent;0.04;letter190;0.09;0.07;fullmask;0.3;arrow_right.png;0.13;m;0.2927244000020437;0.3002670999849215;357466.1781057;3.100023604929447e-06;0.49545410001883283;0.5354728000238538;0.5874727999907918;0.6573852000292391;0.8877393000293523;0.8877418999909423;0;1;0;0;0.01
11;2;11;40;letter169;letter190;congruent;0.04;letter190;0.09;0.07;fullmask;0.3;arrow_right.png;0.13;m;0.26359210000373423;0.2703493000008166;357467.9301179;2.800021320581436e-06;0.5027663999935612;0.54278840002371;0.5947895999997854;0.6646954999887384;0.8651382999960333;0.8651408000150695;0;1;0;0;0.01
11;2;11;41;letter169;letter190;congruent;0.04;letter169;0.09;0.07;fullmask;0.3;arrow_left.png;0.13;c;0.4005415000137873;0.4099154000286944;357469.8181121;3.00002284348011e-06;0.5026959999813698;0.5427119000232778;0.5946329000289552;0.6644125999882817;0.8947831999976188;1.2031550999963656;0;0;1;0;0.01
11;2;11;42;letter169;letter190;congruent;0.04;letter190;0.09;0.07;fullmask;0.3;arrow_right.png;0.13;m;0.24348820000886917;0.25046150002162904;357471.7624154;3.0999653972685337e-06;0.5033828999730758;0.5433984000119381;0.5953110000118613;0.665099999983795;0.8457822999916971;0.8457901999936439;0;1;0;0;0.01
11;2;11;43;letter169;letter190;congruent;0.04;letter169;0.09;0.07;fullmask;0.3;arrow_left.png;0.13;c;0.36805819999426603;0.37002339999889955;357473.6181129;3.4999684430658817e-06;0.4957406999892555;0.5359844999620691;0.5876747999573126;0.6574454999645241;0.8878225999651477;1.1561680999584496;0;0;1;0;0.01
11;2;11;44;letter169;letter190;congruent;0.04;letter169;0.09;0.07;fullmask;0.3;arrow_left.png;0.13;c;0.30877359997248277;0.3101856999564916;357475.6101159;3.200024366378784e-06;0.5007658000104129;0.5407734999898821;0.5926476999884471;0.6624229000299238;0.8928067000233568;1.1011387999751605;0;0;1;0;0.01
11;2;11;45;letter169;letter190;congruent;0.04;letter169;0.09;0.07;fullmask;0.3;arrow_left.png;0.13;c;0.30942700000014156;0.31018650002079085;357477.6021041;2.800021320581436e-06;0.4999892000341788;0.5400108000030741;0.5919267000281252;0.6616981000406668;0.8920817000325769;1.100372300017625;0;0;1;0;0.01
11;2;11;46;letter169;letter190;congruent;0.04;letter190;0.09;0.07;fullmask;0.3;arrow_right.png;0.13;m;0.26046939997468144;0.27040599996689707;357479.554412;2.800021320581436e-06;0.4960199000197463;0.536049600050319;0.5879342000116594;0.6577138000284322;0.8583503999980167;0.8583587000030093;0;1;0;0;0.01
11;2;11;47;letter169;letter190;congruent;0.04;letter190;0.09;0.07;fullmask;0.3;arrow_right.png;0.13;c;0.0970328000257723;0.09974490001332015;357481.1621132;3.1999661587178707e-06;0.50227779999841;0.5422919999691658;0.5941533999866806;0.6639253000030294;0.6938994000083767;0.6939018999692053;0;1;0;0;0.01
11;2;11;48;letter169;letter190;congruent;0.04;letter169;0.09;0.07;fullmask;0.3;arrow_left.png;0.13;c;0.33242320001590997;0.3401551000424661;357483.178105;2.900022082030773e-06;0.4987198000308126;0.5387265000026673;0.5900612000259571;0.6599703999818303;0.8902615000260994;1.1291331999818794;0;0;1;0;0.01
11;2;12;1;letter169;letter190;congruent;0.04;letter190;0.09;0.07;fullmask;0.25;arrow_right.png;0.13;m;0.3017851000186056;0.3102199000422843;357490.0420974;2.800021320581436e-06;0.5045704999938607;0.5446027999860235;0.5960847000242211;0.6658910000114702;0.8464061000267975;1.104955599992536;0;0;1;0;0.01
11;2;12;2;letter169;letter190;congruent;0.04;letter190;0.09;0.07;fullmask;0.25;arrow_right.png;0.13;c;0.08252550003817305;0.0907788000185974;357491.8341062;2.8999638743698597e-06;0.5033710999996401;0.5433734999969602;0.594834899995476;0.6646099999779835;0.6856145999627188;0.6856175999855623;0;1;0;0;0.01
11;2;12;3;letter169;letter190;congruent;0.04;letter169;0.09;0.07;fullmask;0.25;arrow_left.png;0.13;m;0.22891380003420636;0.23043680004775524;357493.7622318;3.0999653972685337e-06;0.5036645999643952;0.5436799000017345;0.5957192999776453;0.665391799993813;0.8261593999923207;0.8261678999988362;0;1;0;0;0.01
11;2;12;4;letter169;letter190;congruent;0.04;letter190;0.09;0.07;fullmask;0.25;arrow_right.png;0.13;m;0.28226659999927506;0.290158000017982;357495.7460855;3.200024366378784e-06;0.5027184000355192;0.5427381000481546;0.594030600041151;0.664718400046695;0.8442272000247613;1.0830911000375636;0;0;1;0;0.01
11;2;12;5;letter169;letter190;congruent;0.04;letter169;0.09;0.07;fullmask;0.25;arrow_left.png;0.13;c;0.26637440000195056;0.2702906000195071;357497.7220901;3.300025127828121e-06;0.5042730999994092;0.5442941000219434;0.5961861000396311;0.6659554000361823;0.8464759000344202;1.0646408000029624;0;0;1;0;0.01
11;2;12;6;letter169;letter190;congruent;0.04;letter190;0.09;0.07;fullmask;0.25;arrow_right.png;0.13;m;0.2491423999890685;0.2503502999898046;357499.6661726;2.800021320581436e-06;0.4986614999943413;0.5386783000431024;0.590600399998948;0.6603727000183426;0.8409517999971285;0.8409543000161648;0;1;0;0;0.01
11;2;12;7;letter169;letter190;congruent;0.04;letter190;0.09;0.07;fullmask;0.25;arrow_right.png;0.13;m;0.2621194999665022;0.27032409998355433;357501.4103386;3.00002284348011e-06;0.49793730000965297;0.5379666999797337;0.5899646999896504;0.6596433999948204;0.8401732000056654;1.0583173999912106;0;0;1;0;0.01
11;2;12;8;letter169;letter190;congruent;0.04;letter169;0.09;0.07;fullmask;0.25;arrow_left.png;0.13;m;0.32469090004451573;0.33004530001198873;357503.434093;2.800021320581436e-06;0.4968539000255987;0.536879500024952;0.5887840000214055;0.6584507000516169;0.8389775000396185;1.1172544000437483;0;0;1;0;0.01
11;2;12;9;letter169;letter190;congruent;0.04;letter169;0.09;0.07;fullmask;0.25;arrow_left.png;0.13;c;0.2572071999893524;0.2602778999716975;357505.5780873;3.100023604929447e-06;0.4950587000348605;0.5350922000361606;0.5870445999898948;0.6567729000234976;0.8372900999966078;1.0454096000175923;0;0;1;0;0.01
11;2;12;10;letter169;letter190;congruent;0.04;letter169;0.09;0.07;fullmask;0.25;arrow_left.png;0.13;c;0.3380618999945;0.34010619996115565;357507.6100865;2.700020559132099e-06;0.504594600002747;0.5446171999792568;0.5964518999680877;0.6662215999676846;0.8467391000012867;1.1349893999868073;0;0;1;0;0.01
11;2;12;11;letter169;letter190;congruent;0.04;letter190;0.09;0.07;fullmask;0.25;arrow_right.png;0.13;m;0.31052150001050904;0.3201918000122532;357509.5940786;2.800021320581436e-06;0.4996478000539355;0.5396612000185996;0.591723500052467;0.6616191000211984;0.8410486000357196;1.1100502000190318;0;0;1;0;0.01
11;2;12;12;letter169;letter190;congruent;0.04;letter169;0.09;0.07;fullmask;0.25;arrow_left.png;0.13;c;0.3111728999647312;0.32002669997746125;357511.5860804;2.9999646358191967e-06;0.5032973000197671;0.5433144000126049;0.5954455999890342;0.6650843999814242;0.8456013000104576;1.1136826999718323;0;0;1;0;0.01
11;2;12;13;letter169;letter190;congruent;0.04;letter190;0.09;0.07;fullmask;0.25;arrow_right.png;0.13;m;0.25400050001917407;0.260227799997665;357513.5300839;2.8999638743698597e-06;0.5041038999916054;0.54411680001067;0.5961170999798924;0.6657967999926768;0.8463122000102885;1.0544636999838986;0;0;1;0;0.01
11;2;12;14;letter169;letter190;congruent;0.04;letter190;0.09;0.07;fullmask;0.25;arrow_right.png;0.13;m;0.24087989999679849;0.25037259998498484;357515.4582447;2.900022082030773e-06;0.5005179000436328;0.5405354000395164;0.5925691000302322;0.6622592000057921;0.8429443000350147;0.8429524000384845;0;1;0;0;0.01
11;2;12;15;letter169;letter190;congruent;0.04;letter190;0.09;0.07;fullmask;0.25;arrow_right.png;0.13;m;0.2536034999648109;0.25937069999054074;357517.2020692;3.00002284348011e-06;0.49867160001304;0.5386915999697521;0.5907083000056446;0.6607695000129752;0.8400441000121646;1.0490324000129476;0;0;1;0;0.01
11;2;12;16;letter169;letter190;congruent;0.04;letter190;0.09;0.07;fullmask;0.25;arrow_right.png;0.13;m;0.2646402000100352;0.270393899991177;357519.1542964;3.0999653972685337e-06;0.49915709998458624;0.5391987999901175;0.5911189999897033;0.6610261999885552;0.8414508000132628;1.059533299994655;0;0;1;0;0.01
11;2;12;17;letter169;letter190;congruent;0.04;letter169;0.09;0.07;fullmask;0.25;arrow_left.png;0.13;c;0.32925509999040514;0.33028210001066327;357521.1701932;2.700020559132099e-06;0.4997410000069067;0.5397111999918707;0.5916789000038989;0.6615667000296526;0.841987700026948;1.120099299994763;0;0;1;0;0.01
11;2;12;18;letter169;letter190;congruent;0.04;letter169;0.09;0.07;fullmask;0.25;arrow_left.png;0.13;m;0.21402349998243153;0.22057599999243394;357523.0661998;2.800021320581436e-06;0.499186200031545;0.53919430001406;0.591098900011275;0.6611615000292659;0.8116832000087015;0.8116914000129327;0;1;0;0;0.01
11;2;12;19;letter169;letter190;congruent;0.04;letter190;0.09;0.07;fullmask;0.25;arrow_right.png;0.13;m;0.29064339998876676;0.3002779000089504;357525.0740743;2.600019797682762e-06;0.5005053000058979;0.5405249000177719;0.5924188999924809;0.6622595000080764;0.8427850999869406;1.0908752999966964;0;0;1;0;0.01
11;2;12;20;letter169;letter190;congruent;0.04;letter169;0.09;0.07;fullmask;0.25;arrow_left.png;0.13;c;0.4252866000169888;0.4300245000049472;357527.2100264;2.900022082030773e-06;0.5044116000062786;0.5444385000155307;0.5963484999956563;0.6662765999790281;0.8457982999971136;0.976453399984166;0;0;0;1;0.01
11;2;12;21;letter169;letter190;congruent;0.04;letter169;0.09;0.07;fullmask;0.25;arrow_left.png;0.13;m;2.6706034999806434;2.67187570000533;357531.386067;2.8999638743698597e-06;0.4969721999950707;0.5369843999505974;0.5883765000035055;0.6591630999464542;0.8386727999895811;0.9693327999557368;0;0;0;1;0.01
11;2;12;22;letter169;letter190;congruent;0.04;letter190;0.09;0.07;fullmask;0.25;arrow_right.png;0.13;m;0.24708669999381527;0.24939559999620542;357533.3460578;3.0999653972685337e-06;0.5048714999575168;0.5448722000000998;0.5969249999616295;0.6668353999848478;0.8463195999502204;0.8463222999707796;0;1;0;0;0.01
11;2;12;23;letter169;letter190;congruent;0.04;letter169;0.09;0.07;fullmask;0.25;arrow_left.png;0.13;c;2.6720053000026383;2.6819915999658406;357537.5220702;3.2999669201672077e-06;0.5019610999734141;0.541987499978859;0.5939915999770164;0.6638091999921016;0.8433265999774449;0.9739800000097603;0;0;0;1;0.01
11;2;12;24;letter169;letter190;congruent;0.04;letter169;0.09;0.07;fullmask;0.25;arrow_left.png;0.13;c;0.3294920999906026;0.33013319998281077;357539.3621496;2.600019797682762e-06;0.49547209998127073;0.5355000999988988;0.5873779999674298;0.6571501999860629;0.8376680000219494;1.115869199973531;0;0;1;0;0.01
11;2;12;25;letter169;letter190;congruent;0.04;letter169;0.09;0.07;fullmask;0.25;arrow_left.png;0.13;c;0.31004119996214285;0.31015879998449236;357541.3541219;3.100023604929447e-06;0.49565580004127696;0.5356726000318304;0.587684000027366;0.65758790000109;0.8370209000422619;1.096030700020492;0;0;1;0;0.01
11;2;12;26;letter169;letter190;congruent;0.04;letter190;0.09;0.07;fullmask;0.25;arrow_right.png;0.13;c;0.2589873000397347;0.2603232000255957;357543.3140385;3.100023604929447e-06;0.5015721000381745;0.541590700042434;0.5932712000212632;0.663045699999202;0.8435679000103846;1.0519446000107564;0;0;1;0;0.01
11;2;12;27;letter169;letter190;congruent;0.04;letter190;0.09;0.07;fullmask;0.25;arrow_right.png;0.13;m;0.29734009999083355;0.30037409998476505;357545.5140818;2.700020559132099e-06;0.5019121000077575;0.5419113000389189;0.5938830000231974;0.6637872999999672;0.8442132000345737;1.0922760000103153;0;0;1;0;0.01
11;2;12;28;letter169;letter190;congruent;0.04;letter190;0.09;0.07;fullmask;0.25;arrow_right.png;0.13;c;0.1940955999889411;0.19963400001870468;357547.4021803;2.700020559132099e-06;0.5005027999868616;0.5405157000059262;0.5925400999840349;0.6624520000186749;0.792182800010778;0.7921917000203393;0;1;0;0;0.01
11;2;12;29;letter169;letter190;congruent;0.04;letter190;0.09;0.07;fullmask;0.25;arrow_right.png;0.13;m;0.28091630002018064;0.2901912000379525;357549.3700617;2.7999631129205227e-06;0.4994941999902949;0.5395146000082605;0.5913865999900736;0.6611174999852665;0.8416331000044011;1.0798917000065558;0;0;1;0;0.01
11;2;12;30;letter169;letter190;congruent;0.04;letter190;0.09;0.07;fullmask;0.25;arrow_right.png;0.13;m;0.2356096999719739;0.24036669998895377;357551.3060456;2.700020559132099e-06;0.5031684000277892;0.5431790000293404;0.5950558999902569;0.6648245000396855;0.8354236000450328;0.8354261000058614;0;1;0;0;0.01
11;2;12;31;letter169;letter190;congruent;0.04;letter169;0.09;0.07;fullmask;0.25;arrow_left.png;0.13;m;0.24645340000279248;0.25034949998371303;357553.0580524;2.8999638743698597e-06;0.49765029997797683;0.5376734999590553;0.589570099953562;0.6593444999889471;0.8399207000038587;0.8399231999646872;0;1;0;0;0.01
11;2;12;32;letter169;letter190;congruent;0.04;letter169;0.09;0.07;fullmask;0.25;arrow_left.png;0.13;c;0.233332900039386;0.2401454000500962;357554.9860513;2.700020559132099e-06;0.49757010000757873;0.5375858999905176;0.5893635000102222;0.6589187000063248;0.8295027000131086;0.8295051000313833;0;1;0;0;0.01
11;2;12;33;letter169;letter190;congruent;0.04;letter190;0.09;0.07;fullmask;0.25;arrow_right.png;0.13;c;0.1667495999718085;0.17055629997048527;357556.6500405;2.800021320581436e-06;0.4997122000204399;0.5397189999930561;0.5909577999846078;0.6617265000240877;0.7615148000186309;0.7615172999794595;0;1;0;0;0.01
11;2;12;34;letter169;letter190;congruent;0.04;letter169;0.09;0.07;fullmask;0.25;arrow_left.png;0.13;m;0.2731322000036016;0.2802223000326194;357558.6180413;2.900022082030773e-06;0.5030219000182115;0.5430390000110492;0.5946743999957107;0.6644007000140846;0.8449125000042841;1.073404099966865;0;0;1;0;0.01
11;2;12;35;letter169;letter190;congruent;0.04;letter169;0.09;0.07;fullmask;0.25;arrow_left.png;0.13;c;0.3473558999830857;0.3500048999558203;357560.8740382;2.900022082030773e-06;0.4968706000363454;0.5368707000161521;0.5888597000157461;0.6585505999973975;0.839054100040812;1.1372635000152513;0;0;1;0;0.01
11;2;12;36;letter169;letter190;congruent;0.04;letter169;0.09;0.07;fullmask;0.25;arrow_left.png;0.13;c;0.1602724000113085;0.1696784000378102;357562.7382113;3.0999653972685337e-06;0.5031419000006281;0.5431672999984585;0.5950784999877214;0.6648657000041567;0.7647665999829769;0.7647747999872081;0;1;0;0;0.01
11;2;12;37;letter169;letter190;congruent;0.04;letter169;0.09;0.07;fullmask;0.25;arrow_left.png;0.13;c;0.23738020000746474;0.2402318000094965;357564.4660696;2.8999638743698597e-06;0.5031904999632388;0.5432064000051469;0.5948090999736451;0.6646883999928832;0.8350399999762885;0.8350425999960862;0;1;0;0;0.01
11;2;12;38;letter169;letter190;congruent;0.04;letter190;0.09;0.07;fullmask;0.25;arrow_right.png;0.13;c;0.14033310004742816;0.15076819999376312;357566.0900537;2.800021320581436e-06;0.4983158999821171;0.5383182999794371;0.5898375000106171;0.6597670000046492;0.7406065000104718;0.740609000029508;0;1;0;0;0.01
11;2;12;39;letter169;letter190;congruent;0.04;letter169;0.09;0.07;fullmask;0.25;arrow_left.png;0.13;m;0.19076000002678484;0.19945700000971556;357567.9620338;3.3999676816165447e-06;0.5013943999656476;0.5414163999957964;0.5933132999925874;0.6630611999426037;0.7927712999517098;0.792773799970746;0;1;0;0;0.01
11;2;12;40;letter169;letter190;congruent;0.04;letter190;0.09;0.07;fullmask;0.25;arrow_right.png;0.13;c;0.15536590002011508;0.15947369998320937;357569.8181142;2.700020559132099e-06;0.5006750000175089;0.5406595999957062;0.592799800040666;0.6623562999884598;0.7522766999900341;0.7522848999942653;0;1;0;0;0.01
11;2;12;41;letter169;letter190;congruent;0.04;letter190;0.09;0.07;fullmask;0.25;arrow_right.png;0.13;m;0.24628670001402497;0.2503481000312604;357571.7300395;2.6999623514711857e-06;0.49546069995267317;0.5354794999584556;0.5874485999811441;0.6572203999967314;0.8377978999633342;0.8378004999831319;0;1;0;0;0.01
11;2;12;42;letter169;letter190;congruent;0.04;letter169;0.09;0.07;fullmask;0.25;arrow_left.png;0.13;c;0.2332079000188969;0.24037249997491017;357573.4580431;3.1999661587178707e-06;0.5034922999911942;0.5435096999863163;0.5954315999988467;0.6652046999661252;0.8358054999844171;0.8358078999444842;0;1;0;0;0.01
11;2;12;43;letter169;letter190;congruent;0.04;letter169;0.09;0.07;fullmask;0.25;arrow_left.png;0.13;c;0.13608450000174344;0.13964150001993403;357575.0820321;2.800021320581436e-06;0.4978283999953419;0.5378571000183001;0.5897642000345513;0.659437499998603;0.7294068000046536;0.7294094000244513;0;1;0;0;0.01
11;2;12;44;letter169;letter190;congruent;0.04;letter169;0.09;0.07;fullmask;0.25;arrow_left.png;0.13;c;0.3069689000258222;0.3102218999993056;357576.874169;3.300025127828121e-06;0.49518610001541674;0.535220300022047;0.587340000027325;0.6570190000347793;0.8375487999874167;1.0955781000084244;0;0;1;0;0.01
11;2;12;45;letter169;letter190;congruent;0.04;letter190;0.09;0.07;fullmask;0.25;arrow_right.png;0.13;c;0.16368709999369457;0.16947199997957796;357578.7220551;2.800021320581436e-06;0.4969793999916874;0.5370045000454411;0.5890037000062875;0.658697500010021;0.7584700000006706;0.7584725000197068;0;1;0;0;0.01
11;2;12;46;letter169;letter190;congruent;0.04;letter190;0.09;0.07;fullmask;0.25;arrow_right.png;0.13;m;0.24658330000238493;0.25032310001552105;357580.6660399;2.9999646358191967e-06;0.5044364999630488;0.5444502999889664;0.5963303999742493;0.6660785999847576;0.8466547999996692;0.8466573999612592;0;1;0;0;0.01
11;2;12;47;letter169;letter190;congruent;0.04;letter190;0.09;0.07;fullmask;0.25;arrow_right.png;0.13;m;0.17940580000868067;0.18955500004813075;357582.3300958;3.100023604929447e-06;0.495347700023558;0.5353716000099666;0.5873640000354499;0.6572723000426777;0.7769184000208043;0.7769209000398405;0;1;0;0;0.01
11;2;12;48;letter169;letter190;congruent;0.04;letter169;0.09;0.07;fullmask;0.25;arrow_left.png;0.13;m;0.22287259995937347;0.23039839998818934;357584.0340452;3.100023604929447e-06;0.49620220001088455;0.5362196000060067;0.5876168999820948;0.6584081000182778;0.8180164999794215;0.8180190999992192;0;1;0;0;0.01
11;2;13;1;letter169;letter190;congruent;0.04;letter169;0.09;0.07;fullmask;0.2;arrow_left.png;0.13;m;2.378775100049097;2.381672699993942;357600.850022;2.7999631129205227e-06;0.5026727999793366;0.5426976999733597;0.5946646999800578;0.6644713999703526;0.7941260999650694;0.9247693999786861;0;0;0;1;0.01
11;2;13;2;letter169;letter190;congruent;0.04;letter190;0.09;0.07;fullmask;0.2;arrow_right.png;0.13;m;0.21221869997680187;0.2193824999849312;357602.5459943;3.00002284348011e-06;0.49653539998689666;0.5365720000118017;0.5885568999801762;0.658284500008449;0.787932200008072;1.0068723000003956;0;0;1;0;0.01
11;2;13;3;letter169;letter190;congruent;0.04;letter169;0.09;0.07;fullmask;0.2;arrow_left.png;0.13;c;0.26303299999563023;0.2703460000338964;357604.4980024;2.600019797682762e-06;0.49874170002294704;0.5387635000515729;0.5907212000456639;0.6607906999997795;0.7901924000470899;1.0591038000420667;0;0;1;0;0.01
11;2;13;4;letter169;letter190;congruent;0.04;letter169;0.09;0.07;fullmask;0.2;arrow_left.png;0.13;m;0.26241640001535416;0.2703402999904938;357606.4580199;2.800021320581436e-06;0.5009370000334457;0.5409344999934547;0.5922826000023633;0.6621877000434324;0.7927706000045873;1.061301600013394;0;0;1;0;0.01
11;2;13;5;letter169;letter190;congruent;0.04;letter190;0.09;0.07;fullmask;0.2;arrow_right.png;0.13;m;0.22648010001285002;0.2303093000082299;357608.3940367;2.9999646358191967e-06;0.5027692999574356;0.542790099978447;0.5947890999959782;0.6644809999852441;0.79510869999649;1.0231044999673031;0;0;1;0;0.01
11;2;13;6;letter169;letter190;congruent;0.04;letter169;0.09;0.07;fullmask;0.2;arrow_left.png;0.13;m;0.10729409998748451;0.1097217999631539;357610.1860096;3.0999653972685337e-06;0.5047558999503963;0.5447605999652296;0.5966796999564394;0.666450199962128;0.7064025999861769;0.7064050999470055;0;1;0;0;0.01
11;2;13;7;letter169;letter190;congruent;0.04;letter169;0.09;0.07;fullmask;0.2;arrow_left.png;0.13;m;0.13830519997281954;0.13972279999870807;357611.8181409;2.700020559132099e-06;0.5030318000353873;0.5430618000100367;0.5950579000054859;0.6649985000258312;0.7347815000102855;0.7347842000308447;0;1;0;0;0.01
11;2;13;8;letter169;letter190;congruent;0.04;letter190;0.09;0.07;fullmask;0.2;arrow_right.png;0.13;m;0.517099299991969;0.5194964000256732;357613.8180009;2.800021320581436e-06;0.501149500021711;0.5411540000350215;0.5931737000355497;0.6629373999894597;0.7925264000077732;0.9231544000213034;0;0;0;1;0.01
11;2;13;9;letter169;letter190;congruent;0.04;letter190;0.09;0.07;fullmask;0.2;arrow_right.png;0.13;m;0.16387570003280416;0.16961010004160926;357615.4660006;3.100023604929447e-06;0.5028882000478916;0.5429102000198327;0.5948496000492014;0.6649140000226907;0.7644591000280343;0.7644616000470705;0;1;0;0;0.01
11;2;13;10;letter169;letter190;congruent;0.04;letter190;0.09;0.07;fullmask;0.2;arrow_right.png;0.13;m;0.23082799999974668;0.2404007000150159;357617.194044;3.100023604929447e-06;0.5016236000228673;0.5416712000151165;0.59362510003848;0.6633163000224158;0.7939694999950007;1.0319738000398502;0;0;1;0;0.01
11;2;13;11;letter169;letter190;congruent;0.04;letter190;0.09;0.07;fullmask;0.2;arrow_right.png;0.13;m;0.23559469997417182;0.2403739999863319;357619.1300046;2.800021320581436e-06;0.5024018000112846;0.5424214999657124;0.5943265999667346;0.6640945000108331;0.7937508000177331;1.0327589999651536;0;0;1;0;0.01
11;2;13;12;letter169;letter190;congruent;0.04;letter169;0.09;0.07;fullmask;0.2;arrow_left.png;0.13;m;0.19035480002639815;0.19949180004186928;357621.0260381;2.8999638743698597e-06;0.49591070000315085;0.5359284000005573;0.5878410000004806;0.6576186000020243;0.7873336999909952;0.7873362000100315;0;1;0;0;0.01
11;2;13;13;letter169;letter190;congruent;0.04;letter169;0.09;0.07;fullmask;0.2;arrow_left.png;0.13;m;0.2151900000171736;0.21947820001514629;357622.7220162;2.8999638743698597e-06;0.5010281999711879;0.541049399995245;0.5930186999612488;0.6629241000046022;0.792489499959629;1.0113541999598965;0;0;1;0;0.01
11;2;13;14;letter169;letter190;congruent;0.04;letter169;0.09;0.07;fullmask;0.2;arrow_left.png;0.13;m;0.14411039999686182;0.14998129999730736;357624.5622184;2.700020559132099e-06;0.49916220002342016;0.5391768000554293;0.5911998000228778;0.6604412000160664;0.7411843000445515;0.7411896000267006;0;1;0;0;0.01
11;2;13;15;letter169;letter190;congruent;0.04;letter169;0.09;0.07;fullmask;0.2;arrow_left.png;0.13;m;0.1710363000165671;0.17957170004956424;357626.2101717;2.600019797682762e-06;0.504408799984958;0.5444323999690823;0.5964242999907583;0.6661017999867909;0.7759991000057198;0.7760069000069052;0;1;0;0;0.01
11;2;13;16;letter169;letter190;congruent;0.04;letter169;0.09;0.07;fullmask;0.2;arrow_left.png;0.13;m;1.0777876999927685;1.0801226000185125;357628.7779822;2.800021320581436e-06;0.501965300005395;0.541977200016845;0.5939668000210077;0.6637339000008069;0.7933895000023767;0.9240375999943353;0;0;0;1;0.01
11;2;13;17;letter169;letter190;congruent;0.04;letter190;0.09;0.07;fullmask;0.2;arrow_right.png;0.13;m;0.23009880003519356;0.23942930001066998;357630.4819849;3.00002284348011e-06;0.4962976000388153;0.5363125000149012;0.5883354000397958;0.6581609999993816;0.7878133000340313;1.0266604000353254;0;0;1;0;0.01
11;2;13;18;letter169;letter190;congruent;0.04;letter190;0.09;0.07;fullmask;0.2;arrow_right.png;0.13;m;0.2669194000191055;0.2703295000246726;357632.4500663;2.700020559132099e-06;0.49640579998958856;0.5364045000169426;0.5884439999936149;0.6581105000223033;0.787772900017444;1.0567184999817982;0;0;1;0;0.01
11;2;13;19;letter169;letter190;congruent;0.04;letter169;0.09;0.07;fullmask;0.2;arrow_left.png;0.13;m;0.331589300010819;0.34001820004777983;357634.4659813;2.800021320581436e-06;0.49830340000335127;0.5383499999879859;0.5903425000142306;0.6600101999938488;0.7896781000308692;0.920324000006076;0;0;0;1;0.01
11;2;13;20;letter169;letter190;congruent;0.04;letter190;0.09;0.07;fullmask;0.2;arrow_right.png;0.13;m;0.18254239996895194;0.18950999999651685;357636.1379789;2.900022082030773e-06;0.4990344999823719;0.5390544999972917;0.590919499984011;0.6606896999874152;0.7804310999927111;0.7804336000117473;0;1;0;0;0.01
11;2;13;21;letter169;letter190;congruent;0.04;letter190;0.09;0.07;fullmask;0.2;arrow_right.png;0.13;m;0.1773158999858424;0.17957149998983368;357637.7939754;3.200024366378784e-06;0.4962787000113167;0.5363017999916337;0.5883044999791309;0.6583553000236861;0.767875500023365;0.7678781999857165;0;1;0;0;0.01
11;2;13;22;letter169;letter190;congruent;0.04;letter190;0.09;0.07;fullmask;0.2;arrow_right.png;0.13;m;0.2223490999895148;0.22955549997277558;357639.4899622;2.9999646358191967e-06;0.5016197999939322;0.5416225999942981;0.5935300999553874;0.6634557999786921;0.7931085999589413;1.0219371999846771;0;0;1;0;0.01
11;2;13;23;letter169;letter190;congruent;0.04;letter190;0.09;0.07;fullmask;0.2;arrow_right.png;0.13;m;0.29326860001310706;0.30010629998287186;357641.4819686;3.100023604929447e-06;0.503936099994462;0.5439389999955893;0.5956876000273041;0.6652393999975175;0.7958645999897271;1.0943193000275642;0;0;1;0;0.01
11;2;13;24;letter169;letter190;congruent;0.04;letter169;0.09;0.07;fullmask;0.2;arrow_left.png;0.13;m;0.4141091000055894;0.41989730001660064;357643.5939801;2.700020559132099e-06;0.5007008999818936;0.540726299979724;0.5923396000289358;0.6621184999821708;0.7927655000239611;0.9224178000004031;0;0;0;1;0.01
11;2;13;25;letter169;letter190;congruent;0.04;letter190;0.09;0.07;fullmask;0.2;arrow_right.png;0.13;m;0.014382400026079267;0.019112400012090802;357645.105999;3.00002284348011e-06;0.4987505000317469;0.5387646000017412;0.5908895999891683;0.6588464000378735;0.6588495000032708;0.6588519000215456;1;0;0;0;0.01
11;2;13;26;letter169;letter190;congruent;0.04;letter190;0.09;0.07;fullmask;0.2;arrow_right.png;0.13;m;0.2395935999811627;0.24037070001941174;357646.8819762;2.700020559132099e-06;0.5018566999933682;0.5418678999994881;0.5937697000335902;0.6635409999871626;0.7931962999864481;1.0322122999932617;0;0;1;0;0.01
11;2;13;27;letter169;letter190;congruent;0.04;letter190;0.09;0.07;fullmask;0.2;arrow_right.png;0.13;m;0.25094860000535846;0.2604666000115685;357648.8342378;2.900022082030773e-06;0.5038589000469074;0.5438844000454992;0.5954140000394545;0.6653181000147015;0.7958789000404067;1.054207300010603;0;0;1;0;0.01
11;2;13;28;letter169;letter190;congruent;0.04;letter169;0.09;0.07;fullmask;0.2;arrow_left.png;0.13;m;0.2470571000012569;0.2503950000391342;357650.7619675;3.200024366378784e-06;0.5032655000104569;0.543264200037811;0.5951759000308812;0.6650857999920845;0.7946457000216469;1.043611700006295;0;0;1;0;0.01
11;2;13;29;letter169;letter190;congruent;0.04;letter169;0.09;0.07;fullmask;0.2;arrow_left.png;0.13;m;0.4115399000002071;0.42004900000756606;357652.8579669;3.00002284348011e-06;0.4977593999938108;0.5377675000345334;0.589953400020022;0.6598804999957792;0.7895356999943033;0.9191915999981575;0;0;0;1;0.01
11;2;13;30;letter169;letter190;congruent;0.04;letter169;0.09;0.07;fullmask;0.2;arrow_left.png;0.13;m;0.2566575000528246;0.26036529999691993;357654.5940135;3.100023604929447e-06;0.5010478000040166;0.5410661000059918;0.5929436000296846;0.6627611000440083;0.7924135000212118;1.0514054000377655;0;0;1;0;0.01
11;2;13;31;letter169;letter190;congruent;0.04;letter190;0.09;0.07;fullmask;0.2;arrow_right.png;0.13;m;0.23730159999104217;0.2403967000427656;357656.5060279;3.00002284348011e-06;0.4973026000079699;0.5373152000247501;0.5893250000081025;0.6590088999946602;0.789659500005655;1.0276514000142924;0;0;1;0;0.01
11;2;13;32;letter169;letter190;congruent;0.04;letter190;0.09;0.07;fullmask;0.2;arrow_right.png;0.13;m;0.340003399993293;0.3499889000086114;357658.5300254;3.500026650726795e-06;0.4992897000047378;0.5393236000090837;0.5913648999994621;0.661040100036189;0.7906935000210069;0.9213461000472307;0;0;0;1;0.01
11;2;13;33;letter169;letter190;congruent;0.04;letter169;0.09;0.07;fullmask;0.2;arrow_left.png;0.13;m;0.08892529999138787;0.0897722999798134;357660.1299631;2.800021320581436e-06;0.5022300999844447;0.5422449000179768;0.5941088999970816;0.663882500026375;0.6838821999845095;0.6838848000043072;0;1;0;0;0.01
11;2;13;34;letter169;letter190;congruent;0.04;letter190;0.09;0.07;fullmask;0.2;arrow_right.png;0.13;m;0.22242740000365302;0.2304475999553688;357661.8339603;3.00002284348011e-06;0.49910620000446215;0.5391266000224277;0.5904730000183918;0.6603811000240967;0.7909403000376187;1.019440600008238;0;0;1;0;0.01
11;2;13;35;letter169;letter190;congruent;0.04;letter169;0.09;0.07;fullmask;0.2;arrow_left.png;0.13;m;0.4287431999691762;0.43002639996120706;357663.962183;3.0999653972685337e-06;0.5008931999909692;0.5409176999819465;0.5929073999868706;0.6628129999735393;0.7923896999564022;0.9230240999604575;0;0;0;1;0.01
11;2;13;36;letter169;letter190;congruent;0.04;letter169;0.09;0.07;fullmask;0.2;arrow_left.png;0.13;m;0.19353279995266348;0.19947909994516522;357665.6180564;2.700020559132099e-06;0.4961499000201002;0.5361630000406876;0.5880267000175081;0.6577970000216737;0.7875063000246882;0.7875089000444859;0;1;0;0;0.01
11;2;13;37;letter169;letter190;congruent;0.04;letter190;0.09;0.07;fullmask;0.2;arrow_right.png;0.13;m;0.21631399996113032;0.22042809997219592;357667.3219684;2.700020559132099e-06;0.49950930004706606;0.5395223000086844;0.5914338000002317;0.6612062000203878;0.790860100009013;1.0098558000172488;0;0;1;0;0.01
11;2;13;38;letter169;letter190;congruent;0.04;letter169;0.09;0.07;fullmask;0.2;arrow_left.png;0.13;m;0.39357670000754297;0.4009531000046991;357669.4099496;3.100023604929447e-06;0.5027122999890707;0.5427193000214174;0.5941053000278771;0.6648771000327542;0.7945319000282325;0.9241883000358939;0;0;0;1;0.01
11;2;13;39;letter169;letter190;congruent;0.04;letter190;0.09;0.07;fullmask;0.2;arrow_right.png;0.13;m;0.31998279999243096;0.33017169998493046;357671.2181285;2.8999638743698597e-06;0.500403699988965;0.5404275999753736;0.5923823000048287;0.66201099997852;0.7917400999576785;1.1208274000091478;0;0;1;0;0.01
11;2;13;40;letter169;letter190;congruent;0.04;letter169;0.09;0.07;fullmask;0.2;arrow_left.png;0.13;m;0.37449820002075285;0.3799964000354521;357673.273959;2.6999623514711857e-06;0.4952490999712609;0.5352612999849953;0.5872220000019297;0.6569939999608323;0.7866470000008121;0.9172987999627367;0;0;0;1;0.01
11;2;13;41;letter169;letter190;congruent;0.04;letter169;0.09;0.07;fullmask;0.2;arrow_left.png;0.13;m;0.14732970000477508;0.14961229998152703;357674.8979432;2.9999646358191967e-06;0.49836569995386526;0.5383796999813057;0.5902884999522939;0.6600626999861561;0.7399021999444813;0.739904599962756;0;1;0;0;0.01
11;2;13;42;letter169;letter190;congruent;0.04;letter190;0.09;0.07;fullmask;0.2;arrow_right.png;0.13;m;0.19626519997837022;0.19948030001251027;357676.577939;3.0999653972685337e-06;0.5036812999751419;0.5436903999652714;0.5956010000081733;0.665373699972406;0.7950825999723747;0.795085099991411;0;1;0;0;0.01
11;2;13;43;letter169;letter190;congruent;0.04;letter190;0.09;0.07;fullmask;0.2;arrow_right.png;0.13;m;0.5051817999919876;0.5096558000077493;357678.5779414;3.1999661587178707e-06;0.4964046999812126;0.5364282999653369;0.5883410999667831;0.6581142999930307;0.7877664999687113;0.9184195999987423;0;0;0;1;0.01
11;2;13;44;letter169;letter190;congruent;0.04;letter190;0.09;0.07;fullmask;0.2;arrow_right.png;0.13;m;0.26586380001390353;0.2704130000201985;357680.3299848;3.400025889277458e-06;0.5042207000078633;0.5442556000198238;0.5962250000447966;0.6660065000178292;0.7956575000425801;1.064585000043735;0;0;1;0;0.01
11;2;13;45;letter169;letter190;congruent;0.04;letter169;0.09;0.07;fullmask;0.2;arrow_left.png;0.13;m;0.34473219997016713;0.3500728000071831;357682.3700047;3.500026650726795e-06;0.5023798000183888;0.5424195000086911;0.5942603000439703;0.664027500024531;0.7936807000078261;0.9243312000180595;0;0;0;1;0.01
11;2;13;46;letter169;letter190;congruent;0.04;letter190;0.09;0.07;fullmask;0.2;arrow_right.png;0.13;m;0.27371320000384003;0.2802683999761939;357684.1302219;2.800021320581436e-06;0.49880590004613623;0.5388039000099525;0.590713300043717;0.6604867000132799;0.7901390999904834;1.0691573999938555;0;0;1;0;0.01
11;2;13;47;letter169;letter190;congruent;0.04;letter169;0.09;0.07;fullmask;0.2;arrow_left.png;0.13;m;0.18608370004221797;0.1895434000180103;357685.9939407;2.800021320581436e-06;0.49605180002981797;0.5360589000047185;0.5880419000168331;0.6579397000023164;0.7775848999735899;0.7775875999941491;0;1;0;0;0.01
11;2;13;48;letter169;letter190;congruent;0.04;letter169;0.09;0.07;fullmask;0.2;arrow_left.png;0.13;m;0.17722140002297238;0.17977810004958883;357687.6660271;2.700020559132099e-06;0.49496530002215877;0.5349701999803074;0.586817900009919;0.6567314999992959;0.7666061000199988;0.7666145000257529;0;1;0;0;0.01
