subjnr;loop_m;blocknr;trialnr;cue_left_learn;cue_right_learn; congruence;cue_dur;cue;SOA;mask_dur;mask;target_dur;target;RW_dur;response;RT;kb_rt;response_absolute; fix_onset;cue_onset;cue_offset;mask_onset;mask_offset;target_offset;blank_onset;response_during_mask;response_during_targetalone;response_during_RW;response_during_blank;frame_dur
10;1;1;1;letter357;letter181;congruent;0.04;letter357;0.05;0.07;fullmask;0.3;arrow_left.png;0;c;0.3889281000010669;0.3899219000013545;96805.8910371;2.900007530115545e-06;0.49548670000513084;0.5355141000036383;0.5473273000097834;0.6171286000026157;0.8474289000005228;0.8474361000116915;0;0;0;1;0.01
10;1;1;2;letter357;letter181;congruent;0.04;letter181;0.05;0.07;fullmask;0.3;arrow_right.png;0;m;0.3852657000097679;0.3899794000026304;96808.1390488;3.100009053014219e-06;0.5036394000053406;0.5436530000006314;0.5556993000063812;0.6254787000070792;0.8558548000000883;0.855860700001358;0;0;0;1;0.01
10;1;1;3;letter357;letter181;congruent;0.04;letter181;0.05;0.07;fullmask;0.3;arrow_right.png;0;m;0.5363132000056794;0.5405809999938356;96810.1311199;3.000008291564882e-06;0.5031275000073947;0.5431471000047168;0.5550277000002097;0.6247927000076743;0.8550882999988971;0.8551104000071064;0;0;0;1;0.01
10;1;1;4;letter357;letter181;congruent;0.04;letter357;0.05;0.07;fullmask;0.3;arrow_left.png;0;c;0.3735393999959342;0.3810399999929359;96811.9390342;2.6000052457675338e-06;0.502581900000223;0.5426041000027908;0.5539078000001609;0.6238023000041721;0.8541205000074115;0.854143100004876;0;0;0;1;0.01
10;1;1;5;letter357;letter181;congruent;0.04;letter357;0.05;0.07;fullmask;0.3;arrow_left.png;0;c;0.40754489999380894;0.40996150000137277;96813.795036;2.7999922167509794e-06;0.49663749999308493;0.5366505999991205;0.5487773999921046;0.6178355000010924;0.8479765999945812;0.8479837999911979;0;0;0;1;0.01
10;1;1;6;letter357;letter181;congruent;0.04;letter181;0.05;0.07;fullmask;0.3;arrow_right.png;0;m;0.30832540000847075;0.3101751000067452;96815.5470154;3.0999945010989904e-06;0.49920609999389853;0.5392112999979872;0.55134530000214;0.6211025999946287;0.8515017999889096;0.8515079999924637;0;0;0;1;0.01
10;1;1;7;letter357;letter181;congruent;0.04;letter357;0.05;0.07;fullmask;0.3;arrow_left.png;0;c;0.3514914000115823;0.36005970000405796;96817.3310458;2.6000052457675338e-06;0.49753449999843724;0.5375658999982988;0.5494385000056354;0.6192061000037938;0.8495908000040799;0.8495971000083955;0;0;0;1;0.01
10;1;1;8;letter357;letter181;congruent;0.04;letter181;0.05;0.07;fullmask;0.3;arrow_right.png;0;m;0.27010569999401923;0.2791930999956094;96819.0510848;3.3999967854470015e-06;0.49882479998632334;0.5388594999967609;0.5509931999986293;0.6206924999860348;0.8301805999944918;0.8301829999982147;0;1;0;0;0.01
10;1;1;9;letter357;letter181;congruent;0.04;letter357;0.05;0.07;fullmask;0.3;arrow_left.png;0;c;0.293149800010724;0.3003579000069294;96820.7952434;2.7000060072168708e-06;0.49970530001155566;0.5397242000035476;0.5518830000073649;0.6217839000019012;0.8522490000032121;0.8522571000066819;0;1;0;0;0.01
10;1;1;10;letter357;letter181;congruent;0.04;letter181;0.05;0.07;fullmask;0.3;arrow_right.png;0;m;0.2958970999898156;0.30019339999125805;96822.5390086;2.5999906938523054e-06;0.49912849999964237;0.5391502999991644;0.5512050999968778;0.6209779999917373;0.8513995999965118;0.8514020000002347;0;1;0;0;0.01
10;1;1;11;letter357;letter181;congruent;0.04;letter181;0.05;0.07;fullmask;0.3;arrow_right.png;0;m;0.3126743000029819;0.3202034999994794;96824.3069998;2.6000052457675338e-06;0.49991710000904277;0.5399411000107648;0.5520862000121269;0.6219850000052247;0.8512849000107963;0.8512923000089359;0;0;0;1;0.01
10;1;1;12;letter357;letter181;congruent;0.04;letter357;0.05;0.07;fullmask;0.3;arrow_left.png;0;c;0.40761449999990873;0.40991590000339784;96826.1630394;3.0999945010989904e-06;0.4950628000078723;0.5350923999940278;0.5471872000052826;0.616958300000988;0.8473288999957731;0.8473434000043198;0;0;0;1;0.01
10;1;1;13;letter357;letter181;congruent;0.04;letter181;0.05;0.07;fullmask;0.3;arrow_right.png;0;m;0.3072993000096176;0.3112085000029765;96827.9231082;2.800006768666208e-06;0.49469190000672825;0.5347196000075201;0.546012899998459;0.616684599997825;0.847086699999636;0.8471067000064068;0;0;0;1;0.01
10;1;1;14;letter357;letter181;congruent;0.04;letter181;0.05;0.07;fullmask;0.3;arrow_right.png;0;m;0.38134409999474883;0.3901527999987593;96829.7390264;2.7999922167509794e-06;0.499064499992528;0.539058299997123;0.5511414999928093;0.6210610999987694;0.8504511999926763;0.8504575999977533;0;0;0;1;0.01
10;1;1;15;letter357;letter181;congruent;0.04;letter181;0.05;0.07;fullmask;0.3;arrow_right.png;0;m;0.34810240000660997;0.35007990000303835;96831.5470116;3.0999945010989904e-06;0.4948971999983769;0.5349085000052582;0.5470003999944311;0.61676570000418;0.8471685999975307;0.8471750000026077;0;0;0;1;0.01
10;1;1;16;letter357;letter181;congruent;0.04;letter357;0.05;0.07;fullmask;0.3;arrow_left.png;0;c;0.30925169998954516;0.31018879999464843;96833.2991142;2.8999929782003164e-06;0.5023400999925798;0.5423795999959111;0.5542684999963967;0.6240414999920176;0.8544248999969568;0.8544309999997495;0;0;0;1;0.01
10;1;1;17;letter357;letter181;congruent;0.04;letter357;0.05;0.07;fullmask;0.3;arrow_left.png;0;c;0.33385749999433756;0.3401412999955937;96835.0750706;2.7999922167509794e-06;0.4998912000010023;0.5399047999962931;0.5520281999924919;0.6219211999996332;0.8512161999969976;0.8512233999936143;0;0;0;1;0.01
10;1;1;18;letter357;letter181;congruent;0.04;letter181;0.05;0.07;fullmask;0.3;arrow_right.png;0;m;0.21921389999624807;0.2204693999956362;96836.7311184;2.800006768666208e-06;0.4980807000101777;0.5381025000096997;0.5497897000022931;0.6196925999975065;0.7702585000079125;0.7702609999978449;0;1;0;0;0.01
10;1;1;19;letter357;letter181;congruent;0.04;letter181;0.05;0.07;fullmask;0.3;arrow_right.png;0;c;0.21965700000873767;0.22932919999584556;96838.4030364;2.6999914553016424e-06;0.49889609999081586;0.5389197999902535;0.5509971999999834;0.6207692999887513;0.780327499989653;0.7803300999948988;0;1;0;0;0.01
10;1;1;20;letter357;letter181;congruent;0.04;letter357;0.05;0.07;fullmask;0.3;arrow_left.png;0;c;0.29257370000414085;0.3002887000038754;96840.3471839;3.1999952625483274e-06;0.5027968999929726;0.5428195999993477;0.5549181999958819;0.624649599994882;0.8552171999908751;0.8552251999935834;0;1;0;0;0.01
10;1;1;21;letter357;letter181;congruent;0.04;letter357;0.05;0.07;fullmask;0.3;arrow_left.png;0;c;0.35939299999154173;0.36018719999992754;96842.1551808;2.6000052457675338e-06;0.4959602000017185;0.536028400005307;0.5481922000035411;0.6180875999998534;0.8483756000059657;0.8483973000111291;0;0;0;1;0.01
10;1;1;22;letter357;letter181;congruent;0.04;letter357;0.05;0.07;fullmask;0.3;arrow_left.png;0;c;0.30424550001043826;0.3102163000003202;96843.8910421;3.1999952625483274e-06;0.49706029999651946;0.5370876999950269;0.5490955999994185;0.618986200002837;0.84927809999499;0.8492853000061586;0;0;0;1;0.01
10;1;1;23;letter357;letter181;congruent;0.04;letter181;0.05;0.07;fullmask;0.3;arrow_right.png;0;m;0.33338280000316445;0.34010689999558963;96845.6910281;3.0999945010989904e-06;0.4971740999899339;0.5371986999962246;0.5489241000032052;0.6186969999980647;0.849080200001481;0.8490863999904832;0;0;0;1;0.01
10;1;1;24;letter357;letter181;congruent;0.04;letter357;0.05;0.07;fullmask;0.3;arrow_left.png;0;c;0.34202660000300966;0.3500832999998238;96847.491136;2.8999929782003164e-06;0.5006769000028726;0.5406909000012092;0.5527382000000216;0.6225188999960665;0.8529028999910224;0.8529089999938151;0;0;0;1;0.01
10;1;1;25;letter357;letter181;congruent;0.04;letter357;0.05;0.07;fullmask;0.3;arrow_left.png;0.13;c;0.6285458000056678;0.6302756999939447;96915.1310016;2.6999914553016424e-06;0.4990847000008216;0.53909069999645;0.5512122999934945;0.6209284999931697;0.8513119999988703;0.9809662999905413;0;0;0;1;0.01
10;1;1;26;letter357;letter181;congruent;0.04;letter357;0.05;0.07;fullmask;0.3;arrow_left.png;0.13;m;0.25130249999347143;0.25931859998672735;96916.8350355;2.800006768666208e-06;0.5000790000049165;0.5401141000038479;0.5521525000076508;0.6219211999996332;0.8114720000012312;0.8114745000057155;0;1;0;0;0.01
10;1;1;27;letter357;letter181;congruent;0.04;letter181;0.05;0.07;fullmask;0.3;arrow_right.png;0.13;m;0.3161167999933241;0.32019129999389406;96918.8111025;2.9999937396496534e-06;0.5014685000060126;0.5414916000008816;0.5535836000053678;0.6232882000040263;0.8536555000027874;1.0718359000020428;0;0;1;0;0.01
10;1;1;28;letter357;letter181;congruent;0.04;letter181;0.05;0.07;fullmask;0.3;arrow_right.png;0.13;m;0.3048049999924842;0.31010109999624547;96920.7710807;2.7000060072168708e-06;0.4998037000041222;0.5398188999970444;0.5519405000086408;0.6216090000089025;0.8520008000050439;1.060167100004037;0;0;1;0;0.01
10;1;1;29;letter357;letter181;congruent;0.04;letter357;0.05;0.07;fullmask;0.3;arrow_left.png;0.13;c;0.2997559000068577;0.3001370999991195;96922.7070887;2.9999937396496534e-06;0.4963329000020167;0.5363610000058543;0.5482608000020264;0.6180370999936713;0.848398799993447;0.8484012999979313;0;1;0;0;0.01
10;1;1;30;letter357;letter181;congruent;0.04;letter357;0.05;0.07;fullmask;0.3;arrow_left.png;0.13;c;0.342352400009986;0.35012810000625905;96924.4910072;2.8999929782003164e-06;0.4976736999960849;0.5376938999979757;0.5498238000000129;0.6197286999959033;0.849025099989376;1.098033399990527;0;0;1;0;0.01
10;1;1;31;letter357;letter181;congruent;0.04;letter357;0.05;0.07;fullmask;0.3;arrow_left.png;0.13;c;0.4233457999944221;0.42983490000187885;96926.5632696;2.8999929782003164e-06;0.5017903999978444;0.5418134999927133;0.5539253000024473;0.6236209999915445;0.8539986999967368;1.182187200000044;0;0;1;0;0.01
10;1;1;32;letter357;letter181;congruent;0.04;letter357;0.05;0.07;fullmask;0.3;arrow_left.png;0.13;c;0.40858010000374634;0.4108398000098532;96928.6190162;2.8999929782003164e-06;0.4987381999962963;0.5387725999898976;0.5500579999934416;0.620729799993569;0.8501318999915384;1.1591753999964567;0;0;1;0;0.01
10;1;1;33;letter357;letter181;congruent;0.04;letter357;0.05;0.07;fullmask;0.3;arrow_left.png;0.13;c;0.33035950000339653;0.3401474000129383;96930.6029802;3.100009053014219e-06;0.49890639999648556;0.538956500007771;0.5511162000038894;0.6210184000083245;0.8503135000064503;1.0893212000082713;0;0;1;0;0.01
10;1;1;34;letter357;letter181;congruent;0.04;letter357;0.05;0.07;fullmask;0.3;arrow_left.png;0.13;c;0.37411050000810064;0.38106270000571385;96932.6270209;3.2999960239976645e-06;0.4992210000054911;0.5392359999968903;0.5504079999955138;0.6204647999984445;0.8506024999951478;1.1296276000066428;0;0;1;0;0.01
10;1;1;35;letter357;letter181;congruent;0.04;letter181;0.05;0.07;fullmask;0.3;arrow_right.png;0.13;m;0.31838680000510067;0.3203066999994917;96934.6030882;2.9999937396496534e-06;0.5020816000032937;0.5421105999994325;0.553761699993629;0.6235737999959383;0.8539568999985931;1.0724425999942468;0;0;1;0;0.01
10;1;1;36;letter357;letter181;congruent;0.04;letter181;0.05;0.07;fullmask;0.3;arrow_right.png;0.13;m;0.38072610000381246;0.3899278000026243;96936.6270222;2.7000060072168708e-06;0.4948997000028612;0.5349311000027228;0.5469112000137102;0.6166881000099238;0.8470757000031881;1.1353070000041043;0;0;1;0;0.01
10;1;1;37;letter357;letter181;congruent;0.04;letter181;0.05;0.07;fullmask;0.3;arrow_right.png;0.13;m;0.510225599995465;0.5104773999919416;96938.7870597;2.900007530115545e-06;0.4985925000073621;0.5386089999956312;0.5498146000027191;0.620578200003365;0.8508726000000024;0.9805277999985265;0;0;0;1;0.01
10;1;1;38;letter357;letter181;congruent;0.04;letter357;0.05;0.07;fullmask;0.3;arrow_left.png;0.13;c;0.3539930999977514;0.3600501000037184;96940.6030141;3.000008291564882e-06;0.5010212000051979;0.5410284000099637;0.5531615000072634;0.6229243999987375;0.8523136000003433;1.111389900004724;0;0;1;0;0.01
10;1;1;39;letter357;letter181;congruent;0.04;letter181;0.05;0.07;fullmask;0.3;arrow_right.png;0.13;m;0.2991591000027256;0.3003690000041388;96942.5391025;2.6999914553016424e-06;0.4982255999930203;0.5382565000036266;0.5500326000037603;0.6199346999928821;0.8504096999968169;0.8504180000018096;0;1;0;0;0.01
10;1;1;40;letter357;letter181;congruent;0.04;letter181;0.05;0.07;fullmask;0.3;arrow_right.png;0.13;m;0.3117659999988973;0.3202034999994794;96944.2830133;2.800006768666208e-06;0.49599310000485275;0.5360061000101268;0.5479773000115529;0.6178783000068506;0.848173600010341;1.0663443000084953;0;0;1;0;0.01
10;1;1;41;letter357;letter181;congruent;0.04;letter357;0.05;0.07;fullmask;0.3;arrow_left.png;0.13;c;0.31060620000062045;0.3202780999999959;96946.2431822;2.7000060072168708e-06;0.4986771999974735;0.5387021000060486;0.5507452000019839;0.6205388999951538;0.8509159999957774;1.0690494000009494;0;0;1;0;0.01
10;1;1;42;letter357;letter181;congruent;0.04;letter357;0.05;0.07;fullmask;0.3;arrow_left.png;0.13;c;0.3358472000109032;0.34013370001048315;96948.2189974;2.7000060072168708e-06;0.5012931999954162;0.5413288999989163;0.5526717000029748;0.6225563000043621;0.852853899996262;1.0916610999993281;0;0;1;0;0.01
10;1;1;43;letter357;letter181;congruent;0.04;letter181;0.05;0.07;fullmask;0.3;arrow_right.png;0.13;m;0.49878670000180136;0.5005858999938937;96950.3630084;2.800006768666208e-06;0.4980878000060329;0.5380888000072446;0.5492558999976609;0.6200195999990683;0.8503177999955369;0.9799708000064129;0;0;0;1;0.01
10;1;1;44;letter357;letter181;congruent;0.04;letter181;0.05;0.07;fullmask;0.3;arrow_right.png;0.13;c;0.3575167000090005;0.36111650000384543;96952.1631251;2.9999937396496534e-06;0.49863669999467675;0.5386390999919968;0.5499410000047646;0.6207071999961045;0.8500994999922113;1.1090249999979278;0;0;1;0;0.01
10;1;1;45;letter357;letter181;congruent;0.04;letter357;0.05;0.07;fullmask;0.3;arrow_left.png;0.13;c;0.3151952999905916;0.32019209999998566;96954.3230544;2.900007530115545e-06;0.49506560000008903;0.5350873999996111;0.5472363000008045;0.6169066000002204;0.847311899997294;1.0654372999997577;0;0;1;0;0.01
10;1;1;46;letter357;letter181;congruent;0.04;letter181;0.05;0.07;fullmask;0.3;arrow_right.png;0.13;m;0.4927811999950791;0.5005793999880552;96956.4509676;2.7000060072168708e-06;0.49607470000046305;0.5361114999977872;0.54730120000022;0.6180784000025596;0.8483578000013949;0.9780159999936586;0;0;0;1;0.01
10;1;1;47;letter357;letter181;congruent;0.04;letter181;0.05;0.07;fullmask;0.3;arrow_right.png;0.13;m;0.3807276000006823;0.39011069999833126;96958.2910067;2.7000060072168708e-06;0.5047983999975258;0.544794000001275;0.5568780000030529;0.6267851000011433;0.8561706000036793;1.1451715000002878;0;0;1;0;0.01
10;1;1;48;letter357;letter181;congruent;0.04;letter181;0.05;0.07;fullmask;0.3;arrow_right.png;0.13;m;0.48834440000064205;0.4907466000004206;96960.4190631;2.8999929782003164e-06;0.49610769998980686;0.536124899997958;0.5473200999986148;0.6181293999979971;0.8475188000011258;0.9781488000007812;0;0;0;1;0.01
10;1;2;1;letter357;letter181;congruent;0.04;letter181;0.05;0.07;fullmask;0.25;arrow_right.png;0.13;m;0.4771072000003187;0.47988620000251103;96976.659074;2.7999922167509794e-06;0.49641150000388734;0.5364240999915637;0.5484369000041625;0.6182318999926792;0.7977354000031482;0.9284025999950245;0;0;0;1;0.01
10;1;2;2;letter357;letter181;congruent;0.04;letter357;0.05;0.07;fullmask;0.25;arrow_left.png;0.13;c;0.2866405999957351;0.2902833999978611;96978.3789936;2.6000052457675338e-06;0.5010516000038479;0.541085100005148;0.552226999992854;0.6231390000029933;0.8025578999950085;1.0414091999991797;0;0;1;0;0.01
10;1;2;3;letter357;letter181;congruent;0.04;letter181;0.05;0.07;fullmask;0.25;arrow_right.png;0.13;m;0.263335299998289;0.2702010000066366;96980.3069936;2.5999906938523054e-06;0.5000471999956062;0.5400718999881065;0.5512725000007777;0.6220398000004934;0.8014677999890409;1.020397199987201;0;0;1;0;0.01
10;1;2;4;letter357;letter181;congruent;0.04;letter181;0.05;0.07;fullmask;0.25;arrow_right.png;0.13;m;0.28339680000499357;0.2902680999977747;96982.219163;2.800006768666208e-06;0.49507530000119004;0.5350903000071412;0.5472118000034243;0.6168888000102015;0.7974188000080176;1.0354511000041384;0;0;1;0;0.01
10;1;2;5;letter357;letter181;congruent;0.04;letter357;0.05;0.07;fullmask;0.25;arrow_left.png;0.13;c;0.2520692000107374;0.2603224000049522;96984.1390012;2.6000052457675338e-06;0.5036013000062667;0.5436216999951284;0.5556356000015512;0.6254074000025867;0.8049339999997756;1.013933399997768;0;0;1;0;0.01
10;1;2;6;letter357;letter181;congruent;0.04;letter181;0.05;0.07;fullmask;0.25;arrow_right.png;0.13;m;0.2037951999955112;0.20943489999626763;96986.0119682;2.6000052457675338e-06;0.4998981999960961;0.5399177999934182;0.5519419000047492;0.6217153000034159;0.7613779999956023;0.7613806000008481;0;1;0;0;0.01
10;1;2;7;letter357;letter181;congruent;0.04;letter357;0.05;0.07;fullmask;0.25;arrow_left.png;0.13;m;0.269722199998796;0.2802588000049582;96987.739005;2.900007530115545e-06;0.5025393999967491;0.5425610999955097;0.5546274000080302;0.6243897000094876;0.8039083000039682;1.0328870000084862;0;0;1;0;0.01
10;1;2;8;letter357;letter181;congruent;0.04;letter181;0.05;0.07;fullmask;0.25;arrow_right.png;0.13;m;0.428569099996821;0.4298560000024736;96990.0191301;2.9999937396496534e-06;0.4985041999898385;0.5385241999902064;0.5504916999925626;0.6205063999950653;0.8007651999942027;0.9304185999935726;0;0;0;1;0.01
10;1;2;9;letter357;letter181;congruent;0.04;letter357;0.05;0.07;fullmask;0.25;arrow_left.png;0.13;c;0.25125880000996403;0.26035480000427924;96991.7231863;2.7999922167509794e-06;0.5015366000006907;0.5415624999877764;0.5536987999948906;0.6233814000006532;0.8039046999911079;1.0118630999932066;0;0;1;0;0.01
10;1;2;10;letter357;letter181;congruent;0.04;letter357;0.05;0.07;fullmask;0.25;arrow_left.png;0.13;m;0.27232080000976566;0.2803112000110559;96993.6349936;2.8999929782003164e-06;0.49872920000052545;0.53875419999531;0.5504045999987284;0.6203050000040093;0.8007325999933528;1.0290608999930555;0;0;1;0;0.01
10;1;2;11;letter357;letter181;congruent;0.04;letter181;0.05;0.07;fullmask;0.25;arrow_right.png;0.13;c;0.5165452000073856;0.519625700006145;96996.0110564;2.900007530115545e-06;0.4991065000067465;0.5391380000073696;0.5512562000076286;0.6210284999979194;0.8005475999962073;0.9312014000024647;0;0;0;1;0.01
10;1;2;12;letter357;letter181;congruent;0.04;letter357;0.05;0.07;fullmask;0.25;arrow_left.png;0.13;m;0.2992408999998588;0.3001556000090204;96997.9551079;2.6000052457675338e-06;0.50402030000987;0.5440349000127753;0.556151900003897;0.6258216000132961;0.8053450000006706;1.0543707000033464;0;0;1;0;0.01
10;1;2;13;letter357;letter181;congruent;0.04;letter181;0.05;0.07;fullmask;0.25;arrow_right.png;0.13;m;0.5737315000005765;0.580236399997375;97000.371035;2.5000044843181968e-06;0.4962242000037804;0.5362424999912037;0.548419600003399;0.6179769000009401;0.798473599992576;0.9281271999934688;0;0;0;1;0.01
10;1;2;14;letter357;letter181;congruent;0.04;letter181;0.05;0.07;fullmask;0.25;arrow_right.png;0.13;m;0.2714025000022957;0.28029629999946337;97002.0990617;2.900007530115545e-06;0.5017563000001246;0.5418043000099715;0.5529928000032669;0.6239424000086728;0.8033109000098193;1.0320915000047535;0;0;1;0;0.01
10;1;2;15;letter357;letter181;congruent;0.04;letter357;0.05;0.07;fullmask;0.25;arrow_left.png;0.13;c;0.29990089999046177;0.30016249998880085;97004.0590693;2.9999937396496534e-06;0.5003891999949701;0.5404057999985525;0.5518794999952661;0.621781199995894;0.8022023999947123;1.0507382999930996;0;0;1;0;0.01
10;1;2;16;letter357;letter181;congruent;0.04;letter357;0.05;0.07;fullmask;0.25;arrow_left.png;0.13;m;0.22197650000452995;0.22930859999905806;97005.9230486;2.7000060072168708e-06;0.5008461999968858;0.540869999997085;0.5530093999987002;0.6227033000031952;0.7823120999964885;0.7823146000009729;0;1;0;0;0.01
10;1;2;17;letter357;letter181;congruent;0.04;letter181;0.05;0.07;fullmask;0.25;arrow_right.png;0.13;m;0.28336359999957494;0.2902831999963382;97007.8750096;3.1999952625483274e-06;0.5023597999970661;0.5423798999981955;0.5538776999892434;0.6236912999884225;0.8042056999984197;1.0427116999926511;0;0;1;0;0.01
10;1;2;18;letter357;letter181;congruent;0.04;letter357;0.05;0.07;fullmask;0.25;arrow_left.png;0.13;c;0.29358670000510756;0.3002118000003975;97009.8270003;2.9999937396496534e-06;0.4976390999945579;0.5376603999902727;0.5496811999910278;0.6194514999951934;0.7989709999965271;1.047977299997001;0;0;1;0;0.01
10;1;2;19;letter357;letter181;congruent;0.04;letter357;0.05;0.07;fullmask;0.25;arrow_left.png;0.13;c;0.3851849999919068;0.391011100000469;97011.8590014;3.0999945010989904e-06;0.4981679000047734;0.5381895000027725;0.5493604999937816;0.6202664000011282;0.7996879999991506;0.9303401000070153;0;0;0;1;0.01
10;1;2;20;letter357;letter181;congruent;0.04;letter357;0.05;0.07;fullmask;0.25;arrow_left.png;0.13;c;0.31371329999819864;0.3203242999879876;97013.6191948;2.800006768666208e-06;0.4963597000023583;0.536363800012623;0.5480531000066549;0.6178652000089642;0.798382600012701;1.0667434000060894;0;0;1;0;0.01
10;1;2;21;letter357;letter181;congruent;0.04;letter181;0.05;0.07;fullmask;0.25;arrow_right.png;0.13;c;0.2887344999908237;0.291247499990277;97015.554993;3.000008291564882e-06;0.5005496000085259;0.5405799000000115;0.5517602000036277;0.6225246000103652;0.8019552000041585;1.040908599999966;0;0;1;0;0.01
10;1;2;22;letter357;letter181;congruent;0.04;letter181;0.05;0.07;fullmask;0.25;arrow_right.png;0.13;m;0.27887290000217035;0.2802862000098685;97017.66699;3.1999952625483274e-06;0.4985176999907708;0.538536899999599;0.5502172999986215;0.6200740999920527;0.8005043000011938;1.0288643999956548;0;0;1;0;0.01
10;1;2;23;letter357;letter181;congruent;0.04;letter357;0.05;0.07;fullmask;0.25;arrow_left.png;0.13;m;0.25930170000356156;0.27027670000097714;97019.5790527;3.4999975468963385e-06;0.5017201000009663;0.5417332999932114;0.5538036999932956;0.6235726000013528;0.8030797999963397;1.0220407000015257;0;0;1;0;0.01
10;1;2;24;letter357;letter181;congruent;0.04;letter181;0.05;0.07;fullmask;0.25;arrow_right.png;0.13;m;4.275824199998169;4.282560600011493;97025.7069272;2.6000052457675338e-06;0.4985411999950884;0.5385686000081478;0.5506255000072997;0.6206431000027806;0.7999150999967242;0.9305649000016274;0;0;0;1;0.01
10;1;2;25;letter357;letter181;congruent;0.04;letter181;0.05;0.07;fullmask;0.25;arrow_right.png;0.13;m;0.3930746999976691;0.4008443999919109;97027.5469933;2.9999937396496534e-06;0.4971778000035556;0.5372422999935225;0.5484409000055166;0.6191977999988012;0.7986309999978403;0.9292806000012206;0;0;0;1;0.01
10;1;2;26;letter357;letter181;congruent;0.04;letter181;0.05;0.07;fullmask;0.25;arrow_right.png;0.13;m;0.2956123000039952;0.3002100000012433;97029.2910042;3.100009053014219e-06;0.4973822000029031;0.5374175000033574;0.548896500011324;0.618668200011598;0.7991843000054359;1.0477397000067867;0;0;1;0;0.01
10;1;2;27;letter357;letter181;congruent;0.04;letter181;0.05;0.07;fullmask;0.25;arrow_right.png;0.13;m;0.21064420000766404;0.22057050000876188;97031.1472108;2.6000052457675338e-06;0.4950578999996651;0.5350870000111172;0.5465031000057934;0.6164073999971151;0.7670820000057574;0.7670902000099886;0;1;0;0;0.01
10;1;2;28;letter357;letter181;congruent;0.04;letter357;0.05;0.07;fullmask;0.25;arrow_left.png;0.13;c;0.260860499998671;0.27029749999928754;97032.8589921;3.200009814463556e-06;0.49588170000060927;0.5358926000044448;0.5478086000075564;0.6175814000016544;0.7980998999992153;1.0161827999982052;0;0;1;0;0.01
10;1;2;29;letter357;letter181;congruent;0.04;letter357;0.05;0.07;fullmask;0.25;arrow_left.png;0.13;m;0.27741490000335034;0.2793107999896165;97034.7870224;3.100009053014219e-06;0.4994442000024719;0.5394587000046158;0.5516260000003967;0.6215353000006871;0.8008743999962462;1.0297930000087945;0;0;1;0;0.01
10;1;2;30;letter357;letter181;congruent;0.04;letter357;0.05;0.07;fullmask;0.25;arrow_left.png;0.13;c;0.2681487000081688;0.2702935000124853;97036.8989863;2.7000060072168708e-06;0.49865399999544024;0.5386714000051143;0.5507050000014715;0.6205622999987099;0.7999948999931803;1.01900050000404;0;0;1;0;0.01
10;1;2;31;letter357;letter181;congruent;0.04;letter357;0.05;0.07;fullmask;0.25;arrow_left.png;0.13;m;0.2508383000094909;0.25937290000729263;97038.8029931;2.7999922167509794e-06;0.5009047999919858;0.5409231999947224;0.553040200000396;0.6229477000015322;0.8023667999950703;1.0112453999900026;0;0;1;0;0.01
10;1;2;32;letter357;letter181;congruent;0.04;letter357;0.05;0.07;fullmask;0.25;arrow_left.png;0.13;c;0.3096934999921359;0.3101118999911705;97040.9630599;2.9999937396496534e-06;0.5017564999870956;0.5417839999863645;0.5537438999890583;0.6235179999930551;0.8040430999972159;1.0621258999890415;0;0;1;0;0.01
10;1;2;33;letter357;letter181;congruent;0.04;letter357;0.05;0.07;fullmask;0.25;arrow_left.png;0.13;m;0.2542472000059206;0.25935110000136774;97042.8589937;2.6999914553016424e-06;0.4956120999995619;0.5356240999972215;0.5477238999883411;0.6176149999955669;0.7970420999918133;1.005929599996307;0;0;1;0;0.01
10;1;2;34;letter357;letter181;congruent;0.04;letter181;0.05;0.07;fullmask;0.25;arrow_right.png;0.13;c;0.2617584999970859;0.2702026999904774;97045.0269944;2.800006768666208e-06;0.5040365000022575;0.5440672000113409;0.5552635000058217;0.6260277000110364;0.8054583000048297;1.0243887000106042;0;0;1;0;0.01
10;1;2;35;letter357;letter181;congruent;0.04;letter181;0.05;0.07;fullmask;0.25;arrow_right.png;0.13;m;0.4136243000102695;0.41992470000695903;97047.2909932;2.8999929782003164e-06;0.49626590000116266;0.5362865999923088;0.548258499999065;0.6181512999901315;0.7975807999901008;0.9282280999905197;0;0;0;1;0.01
10;1;2;36;letter357;letter181;congruent;0.04;letter181;0.05;0.07;fullmask;0.25;arrow_right.png;0.13;m;0.28042790001200046;0.29029020000598393;97049.019211;2.8999929782003164e-06;0.4975117999856593;0.5375444999954198;0.5497465999942506;0.6194362999958685;0.7989564999879804;1.0378679999994347;0;0;1;0;0.01
10;1;2;37;letter357;letter181;congruent;0.04;letter181;0.05;0.07;fullmask;0.25;arrow_right.png;0.13;m;0.2536263000074541;0.26036200000089593;97050.9229953;2.800006768666208e-06;0.5048031000042101;0.5448385000054259;0.5563668000104371;0.6262788000021828;0.8066950000065845;1.0151368000078946;0;0;1;0;0.01
10;1;2;38;letter357;letter181;congruent;0.04;letter357;0.05;0.07;fullmask;0.25;arrow_left.png;0.13;c;0.32783879998896737;0.3301796000014292;97052.8990044;2.8999929782003164e-06;0.49707779999880586;0.5371099999902071;0.549223299996811;0.6191237000020919;0.7985593999910634;1.0774658000009367;0;0;1;0;0.01
10;1;2;39;letter357;letter181;congruent;0.04;letter357;0.05;0.07;fullmask;0.25;arrow_left.png;0.13;c;0.2994226000009803;0.3002571999968495;97054.8509833;2.8999929782003164e-06;0.4951621999935014;0.5351722999912454;0.5464180999988457;0.6173220999917248;0.7967485999979544;1.0455106999870623;0;0;1;0;0.01
10;1;2;40;letter357;letter181;congruent;0.04;letter181;0.05;0.07;fullmask;0.25;arrow_right.png;0.13;m;0.29963139999017585;0.30034849999356084;97056.8032361;3.3999967854470015e-06;0.5044321999885142;0.5444715999910841;0.5564789999916684;0.626258099990082;0.8067784000013489;1.054768799993326;0;0;1;0;0.01
10;1;2;41;letter357;letter181;congruent;0.04;letter181;0.05;0.07;fullmask;0.25;arrow_right.png;0.13;m;0.2545516999962274;0.26022399999783374;97058.6989802;2.900007530115545e-06;0.5047781000030227;0.5448150000011083;0.5564231000025757;0.6261845999979414;0.806614900007844;1.0151213000062853;0;0;1;0;0.01
10;1;2;42;letter357;letter181;congruent;0.04;letter181;0.05;0.07;fullmask;0.25;arrow_right.png;0.13;m;0.344945100005134;0.3500835000013467;97060.6909782;2.8999929782003164e-06;0.4967319999996107;0.5367400999966776;0.5487343999993755;0.6185108999925433;0.798030199992354;1.0971134999999776;0;0;1;0;0.01
10;1;2;43;letter357;letter181;congruent;0.04;letter357;0.05;0.07;fullmask;0.25;arrow_left.png;0.13;c;0.35975249999319203;0.3600032999966061;97062.7070632;3.000008291564882e-06;0.49518349999561906;0.535177300000214;0.5471595999988494;0.6168995000043651;0.7964867999980925;1.1055597000085982;0;0;1;0;0.01
10;1;2;44;letter357;letter181;congruent;0.04;letter181;0.05;0.07;fullmask;0.25;arrow_right.png;0.13;m;0.1982801000121981;0.19950560000143014;97064.547063;2.6999914553016424e-06;0.5028463999915402;0.5428602999891154;0.5550175999960629;0.6246989999926882;0.754530899997917;0.7545385999983409;0;1;0;0;0.01
10;1;2;45;letter357;letter181;congruent;0.04;letter181;0.05;0.07;fullmask;0.25;arrow_right.png;0.13;m;0.3074434000009205;0.3101934000005713;97066.3070444;2.8999929782003164e-06;0.5014301000046544;0.5414626999991015;0.5533818999974756;0.6231624000065494;0.8036717000068165;1.0618103000015253;0;0;1;0;0.01
10;1;2;46;letter357;letter181;congruent;0.04;letter357;0.05;0.07;fullmask;0.25;arrow_left.png;0.13;c;0.25824670000292826;0.2603087999887066;97068.2190414;2.7999922167509794e-06;0.4976592000020901;0.5376918999972986;0.5495442999963416;0.6193057000054978;0.7998301000043284;1.0079635000001872;0;0;1;0;0.01
10;1;2;47;letter357;letter181;congruent;0.04;letter357;0.05;0.07;fullmask;0.25;arrow_left.png;0.13;m;0.18669090000912547;0.18947840000328142;97070.058982;3.1999952625483274e-06;0.5011790999997174;0.5411972000001697;0.5533313999912934;0.6231583000044338;0.7428102999983821;0.742812700002105;0;1;0;0;0.01
10;1;2;48;letter357;letter181;congruent;0.04;letter357;0.05;0.07;fullmask;0.25;arrow_left.png;0.13;m;0.2322580000036396;0.240533799995319;97071.9551286;2.6999914553016424e-06;0.5041437999898335;0.5441473999962909;0.5556683999893721;0.6255710999976145;0.7962114999972982;0.796219599986216;0;1;0;0;0.01
10;1;3;1;letter357;letter181;congruent;0.04;letter357;0.05;0.07;fullmask;0.2;arrow_left.png;0.13;c;0.30622059998859186;0.3103238999901805;97081.3551586;2.6000052457675338e-06;0.4981032000068808;0.5381329000083497;0.5497257000097306;0.6195186000113608;0.7501553000038257;1.0584619000001112;0;0;1;0;0.01
10;1;3;2;letter357;letter181;congruent;0.04;letter357;0.05;0.07;fullmask;0.2;arrow_left.png;0.13;c;0.22635819998686202;0.2294431999907829;97083.2269802;3.000008291564882e-06;0.5008916000078898;0.5409087000007275;0.5529336000035983;0.622838800001773;0.7524017000105232;0.9811602000118;0;0;1;0;0.01
10;1;3;3;letter357;letter181;congruent;0.04;letter357;0.05;0.07;fullmask;0.2;arrow_left.png;0.13;c;0.33374060000642203;0.340108100004727;97085.1950129;2.8999929782003164e-06;0.49950770000577904;0.539530800000648;0.5509977000037907;0.6207714000047417;0.7514193999959389;0.8810761000058847;0;0;0;1;0.01
10;1;3;4;letter357;letter181;congruent;0.04;letter357;0.05;0.07;fullmask;0.2;arrow_left.png;0.13;m;0.3078817000059644;0.3092200999963097;97086.9709998;2.6000052457675338e-06;0.4977763000060804;0.5377688000007765;0.5499415000085719;0.6198334000073373;0.7493940999993356;1.0581111000064993;0;0;1;0;0.01
10;1;3;5;letter357;letter181;congruent;0.04;letter357;0.05;0.07;fullmask;0.2;arrow_left.png;0.13;c;0.28470720000041183;0.29012939998938236;97088.8990576;2.5999906938523054e-06;0.49864759999036323;0.5386598999903072;0.550812199988286;0.6203677999874344;0.7499937999964459;1.0389842000004137;0;0;1;0;0.01
10;1;3;6;letter357;letter181;congruent;0.04;letter181;0.05;0.07;fullmask;0.2;arrow_right.png;0.13;c;0.2575173000077484;0.2594690999976592;97090.802993;2.8999929782003164e-06;0.5046269000013126;0.5446032999898307;0.5566561999876285;0.6265723999968031;0.7562292999937199;1.014942499998142;0;0;1;0;0.01
10;1;3;7;letter357;letter181;congruent;0.04;letter181;0.05;0.07;fullmask;0.2;arrow_right.png;0.13;m;0.2922134999971604;0.3001817000040319;97092.7389881;2.7999922167509794e-06;0.4996289999980945;0.5396636999939801;0.5517602999898372;0.6214943999948446;0.7511532999924384;1.0500002999906428;0;0;1;0;0.01
10;1;3;8;letter357;letter181;congruent;0.04;letter181;0.05;0.07;fullmask;0.2;arrow_right.png;0.13;m;0.16514670000469778;0.16960520000429824;97094.5629799;2.7000060072168708e-06;0.49770340000395663;0.5377162000077078;0.5496218000043882;0.6195179000060307;0.7192268000071635;0.7192294999986188;0;1;0;0;0.01
10;1;3;9;letter357;letter181;congruent;0.04;letter181;0.05;0.07;fullmask;0.2;arrow_right.png;0.13;m;0.3048285999975633;0.31120159999409225;97096.32299;2.900007530115545e-06;0.5039162000030046;0.5439305000036256;0.555133100002422;0.6258044999995036;0.7554648000077577;1.0642961999983527;0;0;1;0;0.01
10;1;3;10;letter357;letter181;congruent;0.04;letter181;0.05;0.07;fullmask;0.2;arrow_right.png;0.13;m;0.30479510000441223;0.3100849000038579;97098.2749679;3.000008291564882e-06;0.5035048999998253;0.5435307000007015;0.5554867000028025;0.6252476000081515;0.754815200009034;1.0638687000027858;0;0;1;0;0.01
10;1;3;11;letter357;letter181;congruent;0.04;letter181;0.05;0.07;fullmask;0.2;arrow_right.png;0.13;m;0.35427769999660086;0.36108109999622684;97100.2749677;3.000008291564882e-06;0.4965643000032287;0.5365807000052882;0.5477883999992628;0.6187123999989126;0.7482392000092659;0.8788906000118004;0;0;0;1;0.01
10;1;3;12;letter357;letter181;congruent;0.04;letter357;0.05;0.07;fullmask;0.2;arrow_left.png;0.13;c;0.2584368999960134;0.26036159999785013;97101.970999;2.7999922167509794e-06;0.5018011999927694;0.5418084999982966;0.5537521999940509;0.6238176999904681;0.7532136999943759;1.0121211999939987;0;0;1;0;0.01
10;1;3;13;letter357;letter181;congruent;0.04;letter181;0.05;0.07;fullmask;0.2;arrow_right.png;0.13;c;0.29349130000628065;0.3006292000063695;97103.9073469;3.0999945010989904e-06;0.49966590000258293;0.539686599993729;0.5517365999985486;0.6215476999932434;0.7512008999910904;1.050062700000126;0;0;1;0;0.01
10;1;3;14;letter357;letter181;congruent;0.04;letter181;0.05;0.07;fullmask;0.2;arrow_right.png;0.13;m;0.2975622999947518;0.2992164000024786;97105.8429736;2.7000060072168708e-06;0.501489300004323;0.5414715000079013;0.5538022000109777;0.6233399000047939;0.7530091000080574;1.0518013000109931;0;0;1;0;0.01
10;1;3;15;letter357;letter181;congruent;0.04;letter357;0.05;0.07;fullmask;0.2;arrow_left.png;0.13;m;0.24478750000707805;0.25033609999809414;97107.7309755;2.6999914553016424e-06;0.4970809999940684;0.5370911999925738;0.5489481999975396;0.6187127999874065;0.7483664999890607;0.997359899993171;0;0;1;0;0.01
10;1;3;16;letter357;letter181;congruent;0.04;letter357;0.05;0.07;fullmask;0.2;arrow_left.png;0.13;c;0.3233715999958804;0.3301311999966856;97109.6909717;3.1999952625483274e-06;0.4964146999991499;0.5364275999891106;0.5484786000015447;0.6182561999885365;0.7479089999978896;1.076763499993831;0;0;1;0;0.01
10;1;3;17;letter357;letter181;congruent;0.04;letter181;0.05;0.07;fullmask;0.2;arrow_right.png;0.13;m;0.3521638000092935;0.3600406000041403;97111.6911411;2.5999906938523054e-06;0.5002275999868289;0.5402713999937987;0.5524330999905942;0.6221108999889111;0.7516309999919031;0.882387399993604;0;0;0;1;0.01
10;1;3;18;letter357;letter181;congruent;0.04;letter181;0.05;0.07;fullmask;0.2;arrow_right.png;0.13;m;0.3278608999971766;0.33112820000678767;97113.4670523;3.0999945010989904e-06;0.5010819000017364;0.541121899994323;0.5523299999913434;0.6230014000029769;0.7526399999915157;1.0814236000005621;0;0;1;0;0.01
10;1;3;19;letter357;letter181;congruent;0.04;letter357;0.05;0.07;fullmask;0.2;arrow_left.png;0.13;c;0.3156569999991916;0.32016240000666585;97115.4269659;2.800006768666208e-06;0.49712270000600256;0.5371156000037445;0.5491904999944381;0.6189636000053724;0.7486178999970434;1.0674758999957703;0;0;1;0;0.01
10;1;3;20;letter357;letter181;congruent;0.04;letter181;0.05;0.07;fullmask;0.2;arrow_right.png;0.13;m;0.24249340000096709;0.24938039999688044;97117.3149754;2.5999906938523054e-06;0.5008956999954535;0.5409159999981057;0.552901799994288;0.6227964999998221;0.7523574999941047;1.0012052999954903;0;0;1;0;0.01
10;1;3;21;letter357;letter181;congruent;0.04;letter181;0.05;0.07;fullmask;0.2;arrow_right.png;0.13;m;0.3931594000023324;0.39997589999984484;97119.346967;2.800006768666208e-06;0.49928500001260545;0.5393306000041775;0.5514142000029096;0.6213045000040438;0.7508697000012035;0.8815196000068681;0;0;0;1;0.01
10;1;3;22;letter357;letter181;congruent;0.04;letter357;0.05;0.07;fullmask;0.2;arrow_left.png;0.13;m;0.17699030000949278;0.18061880000459496;97120.9710591;3.1999952625483274e-06;0.49649209999188315;0.5365119999914896;0.5476981999963755;0.6185939999995753;0.7283202999969944;0.7283251999906497;0;1;0;0;0.01
10;1;3;23;letter357;letter181;congruent;0.04;letter357;0.05;0.07;fullmask;0.2;arrow_left.png;0.13;c;0.3537555999937467;0.3609752999909688;97122.7790005;3.0999945010989904e-06;0.5010652999917511;0.5410802999977022;0.5523968000052264;0.6230917999928351;0.7527144000050612;0.8833718999958364;0;0;0;1;0.01
10;1;3;24;letter357;letter181;congruent;0.04;letter357;0.05;0.07;fullmask;0.2;arrow_left.png;0.13;m;0.23181420000037178;0.23937070000101812;97124.4989765;3.000008291564882e-06;0.4998859000043012;0.5399090999999316;0.5519416000024648;0.6217127999989316;0.7513674000074388;0.9901592000096571;0;0;1;0;0.01
10;1;3;25;letter357;letter181;congruent;0.04;letter181;0.05;0.07;fullmask;0.2;arrow_right.png;0.13;m;0.24066499999025837;0.24934729999222327;97126.3790091;2.6000052457675338e-06;0.5024935999972513;0.542535600005067;0.5545352000044659;0.6243057000101544;0.7539603000041097;1.0028139000060037;0;0;1;0;0.01
10;1;3;26;letter357;letter181;congruent;0.04;letter357;0.05;0.07;fullmask;0.2;arrow_left.png;0.13;c;0.3344205999892438;0.3412499999976717;97128.3631602;2.7000060072168708e-06;0.5008702000050107;0.5408843000041088;0.552087300005951;0.6229858000006061;0.7525518000038574;0.8832003000134137;0;0;0;1;0.01
10;1;3;27;letter357;letter181;congruent;0.04;letter181;0.05;0.07;fullmask;0.2;arrow_right.png;0.13;m;0.2704760000051465;0.2804120999935549;97130.091192;2.9999937396496534e-06;0.4968473999906564;0.5369040999939898;0.5489340999920387;0.6188342999957968;0.7483981999976095;1.027208999992581;0;0;1;0;0.01
10;1;3;28;letter357;letter181;congruent;0.04;letter357;0.05;0.07;fullmask;0.2;arrow_left.png;0.13;c;0.25697640000726096;0.25931609999679495;97132.0189718;2.7999922167509794e-06;0.5030345999985002;0.5430223000003025;0.5551138000009814;0.6248835000005784;0.7545370000007097;1.0133558999950765;0;0;1;0;0.01
10;1;3;29;letter357;letter181;congruent;0.04;letter181;0.05;0.07;fullmask;0.2;arrow_right.png;0.13;m;0.41982460000144783;0.4298722999956226;97134.0830405;3.1999952625483274e-06;0.49820219998946413;0.5382250999973621;0.5502888999908464;0.6200703999929829;0.749725399989984;0.8803652999922633;0;0;0;1;0.01
10;1;3;30;letter357;letter181;congruent;0.04;letter181;0.05;0.07;fullmask;0.2;arrow_right.png;0.13;m;0.288615800003754;0.29037469999457244;97135.8430171;3.200009814463556e-06;0.5024116999993566;0.5424303000036161;0.5544640000007348;0.6242270000075223;0.7538888999988558;1.042761899996549;0;0;1;0;0.01
10;1;3;31;letter357;letter181;congruent;0.04;letter357;0.05;0.07;fullmask;0.2;arrow_left.png;0.13;c;0.33727530000032857;0.34016300000075717;97137.8430443;3.000008291564882e-06;0.5038000000058673;0.5438207000115653;0.5559669000067515;0.6256511000101455;0.75532050000038;0.8859678000007989;0;0;0;1;0.01
10;1;3;32;letter357;letter181;congruent;0.04;letter181;0.05;0.07;fullmask;0.2;arrow_right.png;0.13;m;0.23825189999479335;0.23937989999831188;97139.5150588;2.6000052457675338e-06;0.49892530000943225;0.5389575000008335;0.5509976000030292;0.6207699000078719;0.7504231000057189;0.9892402000114089;0;0;1;0;0.01
10;1;3;33;letter357;letter181;congruent;0.04;letter357;0.05;0.07;fullmask;0.2;arrow_left.png;0.13;c;0.3497598999965703;0.3509866999957012;97141.5070385;2.9999937396496534e-06;0.49925310000253376;0.539279999997234;0.5505835999938427;0.6212603000021772;0.7509126999939326;0.881563200004166;0;0;0;1;0.01
10;1;3;34;letter357;letter181;congruent;0.04;letter181;0.05;0.07;fullmask;0.2;arrow_right.png;0.13;m;0.12071440000727307;0.1306959000066854;97143.059017;2.800006768666208e-06;0.4962329999980284;0.536267500006943;0.5474458999960916;0.6183345000026748;0.6781411999982083;0.6781438000034541;0;1;0;0;0.01
10;1;3;35;letter357;letter181;congruent;0.04;letter357;0.05;0.07;fullmask;0.2;arrow_left.png;0.13;c;0.30559079999511596;0.3113143999944441;97144.835048;3.000008291564882e-06;0.5034019000013359;0.5434192000102485;0.554740599996876;0.6255359000060707;0.7551749999984168;1.0637781999976141;0;0;1;0;0.01
10;1;3;36;letter357;letter181;congruent;0.04;letter357;0.05;0.07;fullmask;0.2;arrow_left.png;0.13;c;0.27550660000997595;0.2802640000008978;97146.7469638;2.7000060072168708e-06;0.5043160000059288;0.5443672000110382;0.5564142000075663;0.6261794000020018;0.7558378000103403;1.034651900001336;0;0;1;0;0.01
10;1;3;37;letter357;letter181;congruent;0.04;letter357;0.05;0.07;fullmask;0.2;arrow_left.png;0.13;m;0.28873440000461414;0.29020719999971334;97148.6910396;2.6000052457675338e-06;0.4970476000016788;0.5370717000041623;0.5487518000009004;0.6185769000003347;0.7491380999999819;1.0373928000044543;0;0;1;0;0.01
10;1;3;38;letter357;letter181;congruent;0.04;letter181;0.05;0.07;fullmask;0.2;arrow_right.png;0.13;m;0.3590676000021631;0.36001210000540596;97150.6830261;2.900007530115545e-06;0.49855610000668094;0.5385739000048488;0.5506739000120433;0.6203976000106195;0.7500494000123581;0.8807101000129478;0;0;0;1;0.01
10;1;3;39;letter357;letter181;congruent;0.04;letter181;0.05;0.07;fullmask;0.2;arrow_right.png;0.13;m;0.3019471000006888;0.31020669999998063;97152.4271233;2.7999922167509794e-06;0.49549760000081733;0.5355265999969561;0.5476916000043275;0.6173789000022225;0.7470068999973591;1.0558541999926092;0;0;1;0;0.01
10;1;3;40;letter357;letter181;congruent;0.04;letter357;0.05;0.07;fullmask;0.2;arrow_left.png;0.13;m;0.2326004000060493;0.23935920000076294;97154.299018;2.5999906938523054e-06;0.4960506999923382;0.5360596999962581;0.5482168999878922;0.6181305999925826;0.7476011999970069;0.9863508999987971;0;0;1;0;0.01
10;1;3;41;letter357;letter181;congruent;0.04;letter357;0.05;0.07;fullmask;0.2;arrow_left.png;0.13;c;0.26935830000729766;0.279301900009159;97156.2269965;2.6000052457675338e-06;0.5045451000041794;0.5446018999937223;0.5567116000020178;0.6257824000058463;0.7561654000019189;1.0348729999968782;0;0;1;0;0.01
10;1;3;42;letter357;letter181;congruent;0.04;letter181;0.05;0.07;fullmask;0.2;arrow_right.png;0.13;m;0.3721458999934839;0.37999780000245664;97158.2509284;3.0999945010989904e-06;0.4975494999962393;0.537572100001853;0.5496430999919539;0.6194133999961196;0.7490672999992967;0.8797133999905782;0;0;0;1;0.01
10;1;3;43;letter357;letter181;congruent;0.04;letter181;0.05;0.07;fullmask;0.2;arrow_right.png;0.13;m;0.30172389998915605;0.3102443999960087;97160.0111658;2.7000060072168708e-06;0.5042943000007654;0.5443319000041811;0.5558759999985341;0.6256467000057455;0.756310199998552;1.0646505000040634;0;0;1;0;0.01
10;1;3;44;letter357;letter181;congruent;0.04;letter181;0.05;0.07;fullmask;0.2;arrow_right.png;0.13;m;0.3097838999965461;0.3099851999868406;97161.9710265;3.000008291564882e-06;0.49708950000058394;0.537104700008058;0.5492176999978255;0.6188882999995258;0.748551700002281;1.057444400008535;0;0;1;0;0.01
10;1;3;45;letter357;letter181;congruent;0.04;letter357;0.05;0.07;fullmask;0.2;arrow_left.png;0.13;c;0.2704894000053173;0.28026550001231954;97163.882952;2.900007530115545e-06;0.5002554000093369;0.5402678000100423;0.5523418000084348;0.6221137000102317;0.7517665000050329;1.0305956000083825;0;0;1;0;0.01
10;1;3;46;letter357;letter181;congruent;0.04;letter357;0.05;0.07;fullmask;0.2;arrow_left.png;0.13;m;0.2052966000046581;0.20945999999821652;97165.7389848;2.800006768666208e-06;0.4958677999966312;0.5358794000057969;0.547947800005204;0.6177257999952417;0.747372700003325;0.9561653999990085;0;0;1;0;0.01
10;1;3;47;letter357;letter181;congruent;0.04;letter181;0.05;0.07;fullmask;0.2;arrow_right.png;0.13;m;0.25289830000838265;0.2602294000098482;97167.6269498;2.8999929782003164e-06;0.5006462999881478;0.5406712999974843;0.551901300001191;0.6225749000004726;0.7522275999945123;1.0109639000002062;0;0;1;0;0.01
10;1;3;48;letter357;letter181;congruent;0.04;letter357;0.05;0.07;fullmask;0.2;arrow_left.png;0.13;c;0.2728164000000106;0.2801766999909887;97169.5389639;2.7000060072168708e-06;0.4978855000081239;0.5379323000088334;0.5500455000001239;0.6197149000072386;0.7493753000017023;1.0282600000064122;0;0;1;0;0.01
10;2;11;1;letter169;letter190;congruent;0.04;letter190;0.09;0.07;fullmask;0.3;arrow_right.png;0.13;m;0.5745745000021998;0.5803998000046704;98119.6907427;2.900007530115545e-06;0.5009266999986721;0.5409502999973483;0.5928275000042049;0.6625321000028634;0.8929152000055183;1.0225754999992205;0;0;0;1;0.01
10;2;11;2;letter169;letter190;congruent;0.04;letter169;0.09;0.07;fullmask;0.3;arrow_left.png;0.13;c;0.525022000001627;0.5298192000045674;98121.7227461;2.6999914553016424e-06;0.4964263000001665;0.536440700001549;0.5885404000000563;0.6577796999918064;0.8879099999903701;1.0185625000012806;0;0;0;1;0.01
10;2;11;3;letter169;letter190;congruent;0.04;letter169;0.09;0.07;fullmask;0.3;arrow_left.png;0.13;c;0.40386830001079943;0.4099504000041634;98123.6427472;2.7999922167509794e-06;0.49691170000005513;0.5368854999978794;0.5888226999959443;0.6588789999950677;0.8890067999891471;1.1973223999957554;0;0;1;0;0.01
10;2;11;4;letter169;letter190;congruent;0.04;letter169;0.09;0.07;fullmask;0.3;arrow_left.png;0.13;c;0.31260889999975916;0.3202997000043979;98125.6429619;3.1999952625483274e-06;0.4982644999981858;0.5382788999995682;0.5903516999969725;0.6602447999903234;0.8905387999984669;1.1086863999953493;0;0;1;0;0.01
10;2;11;5;letter169;letter190;congruent;0.04;letter169;0.09;0.07;fullmask;0.3;arrow_left.png;0.13;c;0.34527230000821874;0.35012540000025183;98127.6667365;2.800006768666208e-06;0.501797600009013;0.5418322000041371;0.5937280000071041;0.6636309000023175;0.8939263000065694;1.142223600007128;0;0;1;0;0.01
10;2;11;6;letter169;letter190;congruent;0.04;letter190;0.09;0.07;fullmask;0.3;arrow_right.png;0.13;m;0.30799890001071617;0.31022980000125244;98129.6507315;2.800006768666208e-06;0.4942157000041334;0.5342392000020482;0.586108300005435;0.6560090999992099;0.8863053999957629;1.0946032000065316;0;0;1;0;0.01
10;2;11;7;letter169;letter190;congruent;0.04;letter190;0.09;0.07;fullmask;0.3;arrow_right.png;0.13;m;0.26856409999891184;0.26933850000204984;98131.6027436;2.8999929782003164e-06;0.5012195000017527;0.541245100001106;0.5932751999935135;0.6631880999921123;0.862613399993279;0.8626160999992862;0;1;0;0;0.01
10;2;11;8;letter169;letter190;congruent;0.04;letter169;0.09;0.07;fullmask;0.3;arrow_left.png;0.13;c;0.3015949999971781;0.31032250000862405;98133.3869206;3.3999967854470015e-06;0.5026668000064092;0.542672900002799;0.5947312000062084;0.6646271999925375;0.8949136000010185;1.1030523999943398;0;0;1;0;0.01
10;2;11;9;letter169;letter190;congruent;0.04;letter190;0.09;0.07;fullmask;0.3;arrow_right.png;0.13;m;0.2382989999896381;0.2404569999926025;98135.3148249;2.8999929782003164e-06;0.5022802999883424;0.5422672999993665;0.5942894999898272;0.6642056999990018;0.8347495999914827;0.8347543999989284;0;1;0;0;0.01
10;2;11;10;letter169;letter190;congruent;0.04;letter190;0.09;0.07;fullmask;0.3;arrow_right.png;0.13;m;0.3311689000111073;0.34010090000811033;98137.1387414;2.7999922167509794e-06;0.4953644999914104;0.535387099997024;0.587293899996439;0.657067799998913;0.8874448999995366;1.1257673999934923;0;0;1;0;0.01
10;2;11;11;letter169;letter190;congruent;0.04;letter190;0.09;0.07;fullmask;0.3;arrow_right.png;0.13;m;0.24796110000170302;0.2503441000008024;98139.0667393;2.7000060072168708e-06;0.4995933000027435;0.539591200009454;0.5914225000014994;0.661197200010065;0.8417677000106778;0.8417703000013717;0;1;0;0;0.01
10;2;11;12;letter169;letter190;congruent;0.04;letter169;0.09;0.07;fullmask;0.3;arrow_left.png;0.13;m;0.46679930000391323;0.46976490000088234;98141.0268276;3.0999945010989904e-06;0.49890489999961574;0.5389572999993106;0.5908817000017734;0.6606538999913028;0.8910388999938732;1.0206906999956118;0;0;0;1;0.01
10;2;11;13;letter169;letter190;congruent;0.04;letter169;0.09;0.07;fullmask;0.3;arrow_left.png;0.13;c;0.5253306999948109;0.5305478999944171;98143.2268146;2.8999929782003164e-06;0.4975577000004705;0.5375673999951687;0.5896142999990843;0.659300399987842;0.889691699994728;1.0193495999992592;0;0;0;1;0.01
10;2;11;14;letter169;letter190;congruent;0.04;letter190;0.09;0.07;fullmask;0.3;arrow_right.png;0.13;m;0.28015429999504704;0.29021919998922385;98145.0028133;2.8999929782003164e-06;0.49541999999200925;0.5354377999901772;0.5873587999958545;0.6571119000000181;0.8775787999911699;0.8775811999948928;0;1;0;0;0.01
10;2;11;15;letter169;letter190;congruent;0.04;letter190;0.09;0.07;fullmask;0.3;arrow_right.png;0.13;m;0.511655599999358;0.5206568999856245;98146.994732;3.0999945010989904e-06;0.5038515999913216;0.5438712999894051;0.595073999997112;0.6658435999997891;0.8952323999983491;1.0258828999940306;0;0;0;1;0.01
10;2;11;16;letter169;letter190;congruent;0.04;letter169;0.09;0.07;fullmask;0.3;arrow_left.png;0.13;c;0.4116410000133328;0.41988990000390913;98148.9067439;2.9999937396496534e-06;0.49779699998907745;0.5378280000004452;0.5897554999974091;0.6595248999947216;0.8899086000019452;1.208250700001372;0;0;1;0;0.01
10;2;11;17;letter169;letter190;congruent;0.04;letter169;0.09;0.07;fullmask;0.3;arrow_left.png;0.13;m;0.4321922000090126;0.43976439999823924;98151.0187524;2.9999937396496534e-06;0.5005825999978697;0.5405899999896064;0.5926512000005459;0.6623418999952264;0.8927454999939073;1.0223629999964032;0;0;0;1;0.01
10;2;11;18;letter169;letter190;congruent;0.04;letter190;0.09;0.07;fullmask;0.3;arrow_right.png;0.13;m;0.294895600003656;0.30022430000826716;98153.002735;2.6000052457675338e-06;0.4980784999934258;0.5380970999976853;0.5900529000064125;0.6598241000028793;0.8902780000062194;0.8902804999961518;0;1;0;0;0.01
10;2;11;19;letter169;letter190;congruent;0.04;letter190;0.09;0.07;fullmask;0.3;arrow_right.png;0.13;m;0.289759099992807;0.2902880999899935;98154.7788151;3.2999960239976645e-06;0.49979269999312237;0.5398233999876538;0.591857199993683;0.6619204999879003;0.8821447999944212;0.882147399999667;0;1;0;0;0.01
10;2;11;20;letter169;letter190;congruent;0.04;letter169;0.09;0.07;fullmask;0.3;arrow_left.png;0.13;c;0.2628670999984024;0.27036819999921136;98156.5229384;2.800006768666208e-06;0.49680580000858754;0.5368353000085335;0.5887405000103172;0.6586329999990994;0.8591124000085983;0.8591174000030151;0;1;0;0;0.01
10;2;11;21;letter169;letter190;congruent;0.04;letter169;0.09;0.07;fullmask;0.3;arrow_left.png;0.13;c;0.3215370999969309;0.3301266999915242;98158.3227534;2.6000052457675338e-06;0.49648099999467377;0.5365102999930969;0.5884449000004679;0.6582305000047199;0.8886136999935843;1.1168829999951413;0;0;1;0;0.01
10;2;11;22;letter169;letter190;congruent;0.04;letter190;0.09;0.07;fullmask;0.3;arrow_right.png;0.13;m;0.3203215999965323;0.33014389999152627;98160.3227662;2.5000044843181968e-06;0.4996240000036778;0.5396345000044676;0.5915228999947431;0.6612991000001784;0.8916878000018187;1.1200158999999985;0;0;1;0;0.01
10;2;11;23;letter169;letter190;congruent;0.04;letter169;0.09;0.07;fullmask;0.3;arrow_left.png;0.13;c;0.32694260000425857;0.3301264000037918;98162.3307219;2.7000060072168708e-06;0.498681500001112;0.5387085999973351;0.5906371000019135;0.6604082999983802;0.8907937000039965;1.1190815000009025;0;0;1;0;0.01
10;2;11;24;letter169;letter190;congruent;0.04;letter190;0.09;0.07;fullmask;0.3;arrow_right.png;0.13;m;0.3297082000062801;0.33001960000547115;98164.3548093;2.800006768666208e-06;0.49872220000543166;0.5387390999967465;0.5906851000036113;0.660457599995425;0.8908384999958798;1.119108300001244;0;0;1;0;0.01
10;2;11;25;letter169;letter190;congruent;0.04;letter190;0.09;0.07;fullmask;0.3;arrow_right.png;0.13;m;0.3025396000011824;0.310214500001166;98166.3389855;2.5999906938523054e-06;0.49466759999631904;0.534675499991863;0.5866899999964517;0.6563619999942603;0.8867683999997098;1.0950524999934714;0;0;1;0;0.01
10;2;11;26;letter169;letter190;congruent;0.04;letter190;0.09;0.07;fullmask;0.3;arrow_right.png;0.13;m;0.39511520000814926;0.3999411999975564;98168.4427353;2.800006768666208e-06;0.5018682000081753;0.5418781000043964;0.5937666999961948;0.6635362000088207;0.8939178000000538;1.192302600000403;0;0;1;0;0.01
10;2;11;27;letter169;letter190;congruent;0.04;letter169;0.09;0.07;fullmask;0.3;arrow_left.png;0.13;c;0.34842789999675006;0.35113099998852704;98170.5067386;2.900007530115545e-06;0.5011703000054695;0.5411805000039749;0.5924048000015318;0.6632474000070943;0.8926143999997294;1.1415851000056136;0;0;1;0;0.01
10;2;11;28;letter169;letter190;congruent;0.04;letter190;0.09;0.07;fullmask;0.3;arrow_right.png;0.13;m;0.27650059999723453;0.2805177999980515;98172.466807;2.7999922167509794e-06;0.4942300999973668;0.5347761000011815;0.5861617000045953;0.6560809999937192;0.8666889000014635;0.8666972999926656;0;1;0;0;0.01
10;2;11;29;letter169;letter190;congruent;0.04;letter169;0.09;0.07;fullmask;0.3;arrow_left.png;0.13;c;0.27505029999883845;0.2794302000111202;98174.2267127;2.7000060072168708e-06;0.49855940000270493;0.5385773000016343;0.5907195000036154;0.6599033999955282;0.870149099995615;0.8701516000000993;0;1;0;0;0.01
10;2;11;30;letter169;letter190;congruent;0.04;letter169;0.09;0.07;fullmask;0.3;arrow_left.png;0.13;c;0.4060399000009056;0.40983289999712724;98176.1387377;2.800006768666208e-06;0.5002450000029057;0.5402574000036111;0.5922947000071872;0.6619909000000916;0.8923508000007132;1.2007026000064798;0;0;1;0;0.01
10;2;11;31;letter169;letter190;congruent;0.04;letter190;0.09;0.07;fullmask;0.3;arrow_right.png;0.13;m;0.30529860001115594;0.31018919999769423;98178.138862;3.2999960239976645e-06;0.5003511999966577;0.5403613999951631;0.5919084000051953;0.6616780000040308;0.8920636999973794;1.1007288999971934;0;0;1;0;0.01
10;2;11;32;letter169;letter190;congruent;0.04;letter190;0.09;0.07;fullmask;0.3;arrow_right.png;0.13;m;0.4573262000048999;0.4597956000070553;98180.2827409;2.5999906938523054e-06;0.49811359999876004;0.5381429999979446;0.5902449999994133;0.6600241999985883;0.890399099997012;1.0200616999936756;0;0;0;1;0.01
10;2;11;33;letter169;letter190;congruent;0.04;letter190;0.09;0.07;fullmask;0.3;arrow_right.png;0.13;m;0.36226690000330564;0.370036499996786;98182.1389056;2.7000060072168708e-06;0.4946516000054544;0.5346894999966025;0.586768299996038;0.6564248000067892;0.8868254999979399;1.1551456000015605;0;0;1;0;0.01
10;2;11;34;letter169;letter190;congruent;0.04;letter169;0.09;0.07;fullmask;0.3;arrow_left.png;0.13;c;0.3689412999956403;0.36994200000481214;98184.1868229;2.900007530115545e-06;0.49413220000860747;0.5341463000077056;0.5861696000065422;0.6558621000003768;0.8862321000051452;1.154507500003092;0;0;1;0;0.01
10;2;11;35;letter169;letter190;congruent;0.04;letter190;0.09;0.07;fullmask;0.3;arrow_right.png;0.13;m;0.30942879999929573;0.319272099994123;98186.1787493;2.900007530115545e-06;0.5008033000049181;0.5408192000031704;0.5929662999988068;0.6627789000049233;0.8922339999990072;1.1111987000040244;0;0;1;0;0.01
10;2;11;36;letter169;letter190;congruent;0.04;letter190;0.09;0.07;fullmask;0.3;arrow_right.png;0.13;m;0.23635389999253675;0.24038139999902342;98188.1067354;2.7000060072168708e-06;0.49414160000742413;0.534157400004915;0.5860635999997612;0.6558409999997821;0.8264460000063991;0.826448599997093;0;1;0;0;0.01
10;2;11;37;letter169;letter190;congruent;0.04;letter169;0.09;0.07;fullmask;0.3;arrow_left.png;0.13;c;0.27308510000875685;0.2804113000020152;98189.9147398;3.0999945010989904e-06;0.5030483999871649;0.5430703999882098;0.595120300000417;0.6651767999865115;0.8755397999921115;0.8755477999948198;0;1;0;0;0.01
10;2;11;38;letter169;letter190;congruent;0.04;letter169;0.09;0.07;fullmask;0.3;arrow_left.png;0.13;c;0.3600449999939883;0.3699385999934748;98191.7627964;3.000008291564882e-06;0.4956862000108231;0.5357218999997713;0.5877241999987746;0.6574167000071611;0.8878039999981411;1.156104100009543;0;0;1;0;0.01
10;2;11;39;letter169;letter190;congruent;0.04;letter190;0.09;0.07;fullmask;0.3;arrow_right.png;0.13;m;0.41059020000102464;0.41993380000349134;98193.8747489;2.900007530115545e-06;0.5013253000070108;0.5413369000016246;0.593422100006137;0.6634821000043303;0.8936198000010336;1.211746300003142;0;0;1;0;0.01
10;2;11;40;letter169;letter190;congruent;0.04;letter190;0.09;0.07;fullmask;0.3;arrow_right.png;0.13;m;0.33597860000736546;0.3401047000079416;98195.8907443;3.100009053014219e-06;0.49890410000807606;0.5389262000098825;0.5902885999967111;0.6610607000038726;0.8904438000026857;1.1293142000067746;0;0;1;0;0.01
10;2;11;41;letter169;letter190;congruent;0.04;letter169;0.09;0.07;fullmask;0.3;arrow_left.png;0.13;c;0.32009810001181904;0.3302725000103237;98197.9068679;2.8999929782003164e-06;0.4998180999973556;0.5398395999945933;0.591888499999186;0.6618005999916932;0.8920702000032179;1.1202100999944378;0;0;1;0;0.01
10;2;11;42;letter169;letter190;congruent;0.04;letter169;0.09;0.07;fullmask;0.3;arrow_left.png;0.13;c;0.2853377999999793;0.29028200000175275;98199.8827163;3.100009053014219e-06;0.501579000003403;0.5415912000025855;0.5929654000065057;0.6628840000048513;0.8832472000067355;0.8832496000104584;0;1;0;0;0.01
10;2;11;43;letter169;letter190;congruent;0.04;letter190;0.09;0.07;fullmask;0.3;arrow_right.png;0.13;m;0.5223941000003833;0.5305960999976378;98201.8907559;2.6000052457675338e-06;0.4947633000119822;0.5347643000131939;0.5859863000077894;0.6567547000013292;0.8861433000129182;1.016793000002508;0;0;0;1;0.01
10;2;11;44;letter169;letter190;congruent;0.04;letter190;0.09;0.07;fullmask;0.3;arrow_right.png;0.13;m;0.47665569999662694;0.48062629999185447;98203.8667175;2.8999929782003164e-06;0.5015153999993345;0.5415020999935223;0.5931417999963742;0.6628943999967305;0.8931924999924377;1.0238419999950565;0;0;0;1;0.01
10;2;11;45;letter169;letter190;congruent;0.04;letter169;0.09;0.07;fullmask;0.3;arrow_left.png;0.13;c;0.31704189999436494;0.3201805999997305;98205.6587834;2.7999922167509794e-06;0.49695519999659155;0.5369737000000896;0.589036399993347;0.6587158999900566;0.8891005999903427;1.1073471999989124;0;0;1;0;0.01
10;2;11;46;letter169;letter190;congruent;0.04;letter169;0.09;0.07;fullmask;0.3;arrow_left.png;0.13;c;0.25578420000965707;0.260319500011974;98207.6187342;2.6000052457675338e-06;0.5006873000093037;0.5407070000073873;0.5926657000090927;0.6624381000001449;0.8529860999988159;0.8529885000025388;0;1;0;0;0.01
10;2;11;47;letter169;letter190;congruent;0.04;letter169;0.09;0.07;fullmask;0.3;arrow_left.png;0.13;c;0.40462480000860523;0.40991220000432804;98209.4987274;3.100009053014219e-06;0.49830380000639707;0.5383174000016879;0.5903262000065297;0.6600925000093412;0.8904814000125043;1.198747500005993;0;0;1;0;0.01
10;2;11;48;letter169;letter190;congruent;0.04;letter169;0.09;0.07;fullmask;0.3;arrow_left.png;0.13;m;0.24728440000035334;0.2493928999901982;98211.4427906;2.9999937396496534e-06;0.4999526000028709;0.5399782000022242;0.5920294999959879;0.6619309999950929;0.8414221999992151;0.8414247000036994;0;1;0;0;0.01
10;2;12;1;letter169;letter190;congruent;0.04;letter169;0.09;0.07;fullmask;0.25;arrow_left.png;0.13;c;0.2931276000017533;0.30024710000725463;98227.4187295;3.1999952625483274e-06;0.49955529998987913;0.5396004999929573;0.5914858999894932;0.6612915999867255;0.8418096999957925;1.0899479999934556;0;0;1;0;0.01
10;2;12;2;letter169;letter190;congruent;0.04;letter169;0.09;0.07;fullmask;0.25;arrow_left.png;0.13;c;0.1457178999989992;0.14962219999870285;98229.2428011;2.6999914553016424e-06;0.4999766999972053;0.5400021999957971;0.5921392000018386;0.6618096000020159;0.7417646999965655;0.7417730000015581;0;1;0;0;0.01
10;2;12;3;letter169;letter190;congruent;0.04;letter190;0.09;0.07;fullmask;0.25;arrow_right.png;0.13;m;0.3248927999957232;0.33013379998737946;98231.0427167;2.7000060072168708e-06;0.4949523999966914;0.534976099996129;0.5867845000029774;0.6565565000055358;0.8370735000062268;1.1153479000058724;0;0;1;0;0.01
10;2;12;4;letter169;letter190;congruent;0.04;letter169;0.09;0.07;fullmask;0.25;arrow_left.png;0.13;m;0.2435230999981286;0.25034020000020973;98232.9627186;3.0999945010989904e-06;0.5036828000011155;0.5437051000044448;0.5956203999958234;0.6653901999961818;0.8459614000021247;0.8459638000058476;0;1;0;0;0.01
10;2;12;5;letter169;letter190;congruent;0.04;letter190;0.09;0.07;fullmask;0.25;arrow_right.png;0.13;m;0.25616469999658875;0.25935130000289064;98234.9067198;2.6000052457675338e-06;0.5007823999912944;0.5407732000021497;0.5928068999928655;0.6628641999996034;0.8421259000024293;1.0511126999917906;0;0;1;0;0.01
10;2;12;6;letter169;letter190;congruent;0.04;letter190;0.09;0.07;fullmask;0.25;arrow_right.png;0.13;m;0.2449205000011716;0.24939270000322722;98236.8267471;2.7999922167509794e-06;0.49975369998719543;0.5397717999876477;0.591841099987505;0.6617413999920245;0.8412334999884479;0.8412359999929322;0;1;0;0;0.01
10;2;12;7;letter169;letter190;congruent;0.04;letter169;0.09;0.07;fullmask;0.25;arrow_left.png;0.13;c;0.27192830000421964;0.2802654000115581;98238.5947533;2.5999906938523054e-06;0.49856910000380594;0.5385881999973208;0.5905358000018168;0.6603071999998065;0.8408245000027819;1.068937799995183;0;0;1;0;0.01
10;2;12;8;letter169;letter190;congruent;0.04;letter169;0.09;0.07;fullmask;0.25;arrow_left.png;0.13;c;0.26069290000305045;0.27031959999294486;98240.5547568;3.000008291564882e-06;0.4998842000059085;0.539901900003315;0.5918220000021392;0.6616034000035143;0.8420938000053866;1.0602461000089534;0;0;1;0;0.01
10;2;12;9;letter169;letter190;congruent;0.04;letter190;0.09;0.07;fullmask;0.25;arrow_right.png;0.13;m;0.21140109999396373;0.2194312999927206;98242.4667203;2.4599998141638935e-05;0.4996759000059683;0.5397053000051528;0.5916097000008449;0.661382100006449;0.8110421000019414;0.8110446000064258;0;1;0;0;0.01
10;2;12;10;letter169;letter190;congruent;0.04;letter190;0.09;0.07;fullmask;0.25;arrow_right.png;0.13;m;0.2587543999979971;0.2604723000113154;98244.2348691;3.200009814463556e-06;0.5006315000064205;0.5406293999985792;0.5922371000051498;0.6621369000058621;0.842564599995967;1.0509663999982877;0;0;1;0;0.01
10;2;12;11;letter169;letter190;congruent;0.04;letter169;0.09;0.07;fullmask;0.25;arrow_left.png;0.13;c;0.269437700000708;0.2702887000050396;98246.1867566;3.000008291564882e-06;0.499120699998457;0.5391340000060154;0.5906962000008207;0.6604976000089664;0.8409802000096533;1.0594822999992175;0;0;1;0;0.01
10;2;12;12;letter169;letter190;congruent;0.04;letter190;0.09;0.07;fullmask;0.25;arrow_right.png;0.13;m;0.2038687000022037;0.21031009999569505;98248.0827253;2.900007530115545e-06;0.5029467999993358;0.5429689000011422;0.5947893999982625;0.6644994000089355;0.8050989000039408;0.8051014000084251;0;1;0;0;0.01
10;2;12;13;letter169;letter190;congruent;0.04;letter169;0.09;0.07;fullmask;0.25;arrow_left.png;0.13;c;0.2889334999927087;0.2901385000004666;98249.8587377;2.7999922167509794e-06;0.49461179999343585;0.5346158000029391;0.586337899992941;0.6560937000031117;0.8365228000038769;1.0749857000046177;0;0;1;0;0.01
10;2;12;14;letter169;letter190;congruent;0.04;letter169;0.09;0.07;fullmask;0.25;arrow_left.png;0.13;m;0.2713743000058457;0.28050470000016503;98251.8027085;3.3999967854470015e-06;0.4961172999901464;0.5361382999981288;0.5880921999923885;0.6579858999903081;0.8375174999964656;1.0664680999907432;0;0;1;0;0.01
10;2;12;15;letter169;letter190;congruent;0.04;letter169;0.09;0.07;fullmask;0.25;arrow_left.png;0.13;c;0.36658620000525843;0.3710655000031693;98254.0587129;3.1999952625483274e-06;0.5020284999918658;0.5420666999998502;0.5934241999930236;0.6633254000043962;0.8437520000006771;1.1624734999932116;0;0;1;0;0.01
10;2;12;16;letter169;letter190;congruent;0.04;letter169;0.09;0.07;fullmask;0.25;arrow_left.png;0.13;m;0.29860670000198297;0.3002551000099629;98256.0427163;2.7999922167509794e-06;0.4967449999967357;0.536759800001164;0.5887930000026245;0.658704100002069;0.8381258000008529;1.0871210000041174;0;0;1;0;0.01
10;2;12;17;letter169;letter190;congruent;0.04;letter190;0.09;0.07;fullmask;0.25;arrow_right.png;0.13;m;0.3558049999992363;0.36009099999500904;98258.290714;2.800006768666208e-06;0.4947402000107104;0.534761000002618;0.5861881000018911;0.6560853000119096;0.836515100003453;1.1451544000010472;0;0;1;0;0.01
10;2;12;18;letter169;letter190;congruent;0.04;letter190;0.09;0.07;fullmask;0.25;arrow_right.png;0.13;m;0.31839270000637043;0.32015749999845866;98260.3147153;3.2999960239976645e-06;0.5036825999995926;0.5437062999990303;0.5952207000082126;0.6649974000029033;0.8455095000099391;1.1140909000096144;0;0;1;0;0.01
10;2;12;19;letter169;letter190;congruent;0.04;letter190;0.09;0.07;fullmask;0.25;arrow_right.png;0.13;m;0.2906286000070395;0.3001231999951415;98262.2987141;2.8999929782003164e-06;0.4997714999917662;0.539793699994334;0.5917808999947738;0.6614806999859866;0.841973099988536;1.090179699996952;0;0;1;0;0.01
10;2;12;20;letter169;letter190;congruent;0.04;letter190;0.09;0.07;fullmask;0.25;arrow_right.png;0.13;m;0.291408599994611;0.30020779999904335;98264.2907072;3.200009814463556e-06;0.5041079000075115;0.5441315000061877;0.5960564999986673;0.665823300005286;0.8463399000029312;1.094501500003389;0;0;1;0;0.01
10;2;12;21;letter169;letter190;congruent;0.04;letter169;0.09;0.07;fullmask;0.25;arrow_left.png;0.13;m;0.2800715999910608;0.28022519999649376;98266.2507699;2.7999922167509794e-06;0.4966295999911381;0.5366456999909133;0.5887049000011757;0.6586046000011265;0.8380376999994041;1.0670026000007056;0;0;1;0;0.01
10;2;12;22;letter169;letter190;congruent;0.04;letter190;0.09;0.07;fullmask;0.25;arrow_right.png;0.13;m;0.32750310000847094;0.3310014000016963;98268.4588114;3.0999945010989904e-06;0.49815939999825787;0.5381839999899967;0.5894578000006732;0.6600834999990184;0.8396034999896074;1.118574299995089;0;0;1;0;0.01
10;2;12;23;letter169;letter190;congruent;0.04;letter190;0.09;0.07;fullmask;0.25;arrow_right.png;0.13;m;0.1716325000015786;0.1795418000110658;98270.315047;2.7999922167509794e-06;0.4982752999931108;0.5382947999896714;0.5903858999954537;0.6600593999901321;0.7699358999961987;0.7699437999981456;0;1;0;0;0.01
10;2;12;24;letter169;letter190;congruent;0.04;letter169;0.09;0.07;fullmask;0.25;arrow_left.png;0.13;c;0.39837370000896044;0.39998909999849275;98272.2027874;2.8999929782003164e-06;0.5004105999978492;0.5404482999874745;0.5924538999970537;0.6625146999867866;0.8417870999983279;0.9724379999970552;0;0;0;1;0.01
10;2;12;25;letter169;letter190;congruent;0.04;letter169;0.09;0.07;fullmask;0.25;arrow_left.png;0.13;c;0.2530957999988459;0.2603625000047032;98273.9387129;2.7999922167509794e-06;0.4998468999983743;0.5398679999925662;0.5919212000007974;0.6618185999977868;0.8412543000013102;1.0502447999897413;0;0;1;0;0.01
10;2;12;26;letter169;letter190;congruent;0.04;letter190;0.09;0.07;fullmask;0.25;arrow_right.png;0.13;m;0.3018748000031337;0.3103220000048168;98275.9387171;2.6000052457675338e-06;0.49706999999762047;0.537098300002981;0.5890672000095947;0.658974500009208;0.838496500000474;1.0974447000044165;0;0;1;0;0.01
10;2;12;27;letter169;letter190;congruent;0.04;letter190;0.09;0.07;fullmask;0.25;arrow_right.png;0.13;m;0.26919880000059493;0.27050729999609757;98277.907288;3.2999960239976645e-06;0.5012064000038663;0.5412188000045717;0.5931609999970533;0.6630444000038551;0.8425545000063721;1.0615607999934582;0;0;1;0;0.01
10;2;12;28;letter169;letter190;congruent;0.04;letter190;0.09;0.07;fullmask;0.25;arrow_right.png;0.13;m;0.301417800001218;0.3102208000054816;98279.8908614;2.6999914553016424e-06;0.5040915999998106;0.544113700001617;0.5961703999928432;0.6658486999949673;0.8463789999950677;1.1044777999923099;0;0;1;0;0.01
10;2;12;29;letter169;letter190;congruent;0.04;letter190;0.09;0.07;fullmask;0.25;arrow_right.png;0.13;m;0.29210649999731686;0.3002122000034433;98281.8827551;3.0999945010989904e-06;0.4946815000002971;0.5346929999941494;0.5866551999934018;0.6564268999936758;0.8369442999974126;1.085040999998455;0;0;1;0;0.01
10;2;12;30;letter169;letter190;congruent;0.04;letter169;0.09;0.07;fullmask;0.25;arrow_left.png;0.13;c;0.300795899995137;0.31018469999253284;98283.8827189;2.9999937396496534e-06;0.49642759999551345;0.536453699998674;0.5884169999917503;0.6581880999874556;0.8387051999889081;1.0968210999999428;0;0;1;0;0.01
10;2;12;31;letter169;letter190;congruent;0.04;letter169;0.09;0.07;fullmask;0.25;arrow_left.png;0.13;c;0.2755316000111634;0.28028679999988526;98285.8588503;2.900007530115545e-06;0.4995550000021467;0.5395840000128374;0.5916567000094801;0.6613395000022138;0.8418555000098422;1.0699488000100246;0;0;1;0;0.01
10;2;12;32;letter169;letter190;congruent;0.04;letter190;0.09;0.07;fullmask;0.25;arrow_right.png;0.13;m;0.2803082999889739;0.2902721999998903;98287.8348894;3.1999952625483274e-06;0.4987721000070451;0.5387889999983599;0.5908523999969475;0.6605275000038091;0.8410603999946034;1.079137399996398;0;0;1;0;0.01
10;2;12;33;letter169;letter190;congruent;0.04;letter190;0.09;0.07;fullmask;0.25;arrow_right.png;0.13;m;0.2370839000068372;0.24037040000257548;98289.7627573;2.7999922167509794e-06;0.5026047999999719;0.5426185999967856;0.5945165999874007;0.6642854999954579;0.8348878999968292;0.8348901999997906;0;1;0;0;0.01
10;2;12;34;letter169;letter190;congruent;0.04;letter169;0.09;0.07;fullmask;0.25;arrow_left.png;0.13;c;0.41786519999732263;0.4198876000009477;98291.6747012;2.8999929782003164e-06;0.4970039000036195;0.5375302000029478;0.5889733999938471;0.6587350000045262;0.8392542999936268;0.9689052000030642;0;0;0;1;0.01
10;2;12;35;letter169;letter190;congruent;0.04;letter169;0.09;0.07;fullmask;0.25;arrow_left.png;0.13;c;0.3065807999955723;0.31019959998957347;98293.4747106;2.6999914553016424e-06;0.4981240999914007;0.5381452000001445;0.5901317999960156;0.6599018999986583;0.8404191000008723;1.0984632000036072;0;0;1;0;0.01
10;2;12;36;letter169;letter190;congruent;0.04;letter169;0.09;0.07;fullmask;0.25;arrow_left.png;0.13;c;0.23553639999590814;0.24048659999971278;98295.39478;2.800006768666208e-06;0.4956592999951681;0.5356731000065338;0.5875087000022177;0.6572931999980938;0.8280050000030315;0.8280133000080241;0;1;0;0;0.01
10;2;12;37;letter169;letter190;congruent;0.04;letter169;0.09;0.07;fullmask;0.25;arrow_left.png;0.13;c;0.24825089999649208;0.25039169999945443;98297.1386977;3.0999945010989904e-06;0.49469769999268465;0.5347380999883171;0.5866559999994934;0.656556299989461;0.8370469999936176;0.837049499998102;0;1;0;0;0.01
10;2;12;38;letter169;letter190;congruent;0.04;letter190;0.09;0.07;fullmask;0.25;arrow_right.png;0.13;c;0.22710580000421032;0.2294032000063453;98298.8586952;3.1999952625483274e-06;0.49601990000519436;0.5360439999931259;0.5879987999942387;0.6577720000059344;0.8174032999959309;0.8174058000004152;0;1;0;0;0.01
10;2;12;39;letter169;letter190;congruent;0.04;letter169;0.09;0.07;fullmask;0.25;arrow_left.png;0.13;c;0.44793870000285096;0.44981790000747424;98301.0107443;2.9999937396496534e-06;0.5035255999973742;0.5435446999908891;0.59547199998633;0.6652491999993799;0.8457621999987168;0.9754142999881878;0;0;0;1;0.01
10;2;12;40;letter169;letter190;congruent;0.04;letter190;0.09;0.07;fullmask;0.25;arrow_right.png;0.13;m;0.25667309999698773;0.2602664000005461;98302.7708377;3.3999967854470015e-06;0.5002181000018027;0.5402604999981122;0.5922870000067633;0.6619786000082968;0.8424961999990046;1.0505690999998478;0;0;1;0;0.01
10;2;12;41;letter169;letter190;congruent;0.04;letter190;0.09;0.07;fullmask;0.25;arrow_right.png;0.13;m;0.24538059999758843;0.25035799999022856;98304.6906782;2.6000052457675338e-06;0.49579079999239184;0.535815499999444;0.5877447999955621;0.6575260999961756;0.8381038999941666;0.8381064999994123;0;1;0;0;0.01
10;2;12;42;letter169;letter190;congruent;0.04;letter169;0.09;0.07;fullmask;0.25;arrow_left.png;0.13;c;0.29819870000937954;0.30029020000074524;98306.4746977;3.200009814463556e-06;0.4952870000124676;0.5353165000124136;0.5873354000068503;0.6573992000048747;0.8366687000088859;1.0856798000022536;0;0;1;0;0.01
10;2;12;43;letter169;letter190;congruent;0.04;letter190;0.09;0.07;fullmask;0.25;arrow_right.png;0.13;m;0.2610182999924291;0.2702885999897262;98308.4187118;3.000008291564882e-06;0.4960454999963986;0.5360799000045517;0.5880074000015156;0.6577778000064427;0.8382953999971505;1.0563720000063768;0;0;1;0;0.01
10;2;12;44;letter169;letter190;congruent;0.04;letter169;0.09;0.07;fullmask;0.25;arrow_left.png;0.13;c;0.27567489999637473;0.2801757999986876;98310.3947239;2.9999937396496534e-06;0.5042285999952583;0.5442553000029875;0.5963034000014886;0.6659994999936316;0.8465144999936456;1.074628299989854;0;0;1;0;0.01
10;2;12;45;letter169;letter190;congruent;0.04;letter169;0.09;0.07;fullmask;0.25;arrow_left.png;0.13;m;0.27436589999706484;0.28029670000250917;98312.3547072;2.800006768666208e-06;0.4949482999945758;0.5349780999968061;0.5870272000029217;0.6569213000038872;0.8363534999953117;1.0652963000029558;0;0;1;0;0.01
10;2;12;46;letter169;letter190;congruent;0.04;letter169;0.09;0.07;fullmask;0.25;arrow_left.png;0.13;c;0.4009903999976814;0.4099190999986604;98314.6426578;2.7000060072168708e-06;0.5003208999987692;0.540355000004638;0.5923557999922195;0.662128500000108;0.8426466999953846;0.9722985999978846;0;0;0;1;0.01
10;2;12;47;letter169;letter190;congruent;0.04;letter190;0.09;0.07;fullmask;0.25;arrow_right.png;0.13;m;0.23204180000175256;0.23946410001371987;98316.3549521;3.100009053014219e-06;0.5002251999976579;0.5402498000039486;0.5922946000064258;0.662195700002485;0.8317619000008563;0.8317669000098249;0;1;0;0;0.01
10;2;12;48;letter169;letter190;congruent;0.04;letter190;0.09;0.07;fullmask;0.25;arrow_right.png;0.13;m;0.33666879999509547;0.3401653000037186;98318.2107137;2.5999906938523054e-06;0.5032005999964895;0.543211500000325;0.5952873999922303;0.6651914999965811;0.844622899996466;1.13362789999519;0;0;1;0;0.01
10;2;13;1;letter169;letter190;congruent;0.04;letter190;0.09;0.07;fullmask;0.2;arrow_right.png;0.13;m;0.30095459999574814;0.31021830000099726;98331.082694;2.8999929782003164e-06;0.49611979999463074;0.536134599999059;0.5875803999952041;0.657386699997005;0.7880344000004698;1.0964925000007497;0;0;1;0;0.01
10;2;13;2;letter169;letter190;congruent;0.04;letter190;0.09;0.07;fullmask;0.2;arrow_right.png;0.13;m;0.15323820000048727;0.15961679999600165;98332.9468605;2.800006768666208e-06;0.5030445000011241;0.5430565999995451;0.595099800004391;0.6647703000053298;0.7547193000063999;0.7547270999930333;0;1;0;0;0.01
10;2;13;3;letter169;letter190;congruent;0.04;letter169;0.09;0.07;fullmask;0.2;arrow_left.png;0.13;c;0.29409820000000764;0.3002113999973517;98334.7387053;2.800006768666208e-06;0.5014840999938315;0.5415248000063002;0.5934738000069046;0.6632476999948267;0.7929277999937767;1.0918754000012996;0;0;1;0;0.01
10;2;13;4;letter169;letter190;congruent;0.04;letter169;0.09;0.07;fullmask;0.2;arrow_left.png;0.13;c;0.13457910000579432;0.13967439999396447;98336.5706973;2.6000052457675338e-06;0.5022831999958726;0.5422982000018237;0.5945000000065193;0.664420400004019;0.7341740999981994;0.7341767000034451;0;1;0;0;0.01
10;2;13;5;letter169;letter190;congruent;0.04;letter169;0.09;0.07;fullmask;0.2;arrow_left.png;0.13;c;0.2798579999944195;0.2802264999918407;98338.3467308;2.9999937396496534e-06;0.5040996000025189;0.5441228999989107;0.5960212999925716;0.6659257999999681;0.795486200004234;1.0744688999984646;0;0;1;0;0.01
10;2;13;6;letter169;letter190;congruent;0.04;letter169;0.09;0.07;fullmask;0.2;arrow_left.png;0.13;c;0.1644741000054637;0.16970850000507198;98340.202776;2.800006768666208e-06;0.5023015000042506;0.542313700003433;0.5943781999958446;0.6642814000078943;0.7640952000074321;0.7641031999955885;0;1;0;0;0.01
10;2;13;7;letter169;letter190;congruent;0.04;letter169;0.09;0.07;fullmask;0.2;arrow_left.png;0.13;c;0.31406750000314787;0.320160000002943;98342.002756;3.100009053014219e-06;0.5001793999981601;0.5402138000063132;0.591599799998221;0.6623681000055512;0.7920204999973066;1.1105771000002278;0;0;1;0;0.01
10;2;13;8;letter169;letter190;congruent;0.04;letter169;0.09;0.07;fullmask;0.2;arrow_left.png;0.13;c;0.3103687000111677;0.32016690001182724;98344.0108346;2.9999937396496534e-06;0.4966190999984974;0.5366362999920966;0.5885038999986136;0.6582772999972804;0.78793659999792;1.1070094000024255;0;0;1;0;0.01
10;2;13;9;letter169;letter190;congruent;0.04;letter190;0.09;0.07;fullmask;0.2;arrow_right.png;0.13;m;0.1647374000021955;0.169560399997863;98345.8666835;2.9999937396496534e-06;0.49496840000210796;0.5349942000029841;0.5870525999926031;0.6568257000035373;0.7566137999965576;0.7566162000002805;0;1;0;0;0.01
10;2;13;10;letter169;letter190;congruent;0.04;letter190;0.09;0.07;fullmask;0.2;arrow_right.png;0.13;m;0.2697409000102198;0.2701264000061201;98347.6426877;3.0999945010989904e-06;0.5009035999974003;0.5409390999993775;0.5929315999965183;0.6626228999957675;0.7932518000015989;1.0612582999892766;0;0;1;0;0.01
10;2;13;11;letter169;letter190;congruent;0.04;letter190;0.09;0.07;fullmask;0.2;arrow_right.png;0.13;m;0.24648679999518208;0.25039089999336284;98349.5706736;2.8999929782003164e-06;0.498336599994218;0.5383552999992389;0.5903402999974787;0.6602424000011524;0.7898086999921361;1.0386755999934394;0;0;1;0;0.01
10;2;13;12;letter169;letter190;congruent;0.04;letter190;0.09;0.07;fullmask;0.2;arrow_right.png;0.13;m;0.3219587999919895;0.33113009999215137;98351.5866857;2.7000060072168708e-06;0.5045332000008784;0.5445353999966756;0.5958171999955084;0.6665876000042772;0.79623900000297;1.124943999995594;0;0;1;0;0.01
10;2;13;13;letter169;letter190;congruent;0.04;letter190;0.09;0.07;fullmask;0.2;arrow_right.png;0.13;m;0.2240663999982644;0.23042339998937678;98353.4906992;2.8999929782003164e-06;0.49869579999358393;0.5387109000002965;0.5905865999957314;0.6604710999963572;0.7900336000020616;1.0190241999953287;0;0;1;0;0.01
10;2;13;14;letter169;letter190;congruent;0.04;letter190;0.09;0.07;fullmask;0.2;arrow_right.png;0.13;m;0.36068189999787137;0.3700038999959361;98355.5387046;2.8999929782003164e-06;0.49757369999133516;0.537581999989925;0.5896378000034019;0.6595538999972632;0.7891054999927292;0.9196770999988075;0;0;0;1;0.01
10;2;13;15;letter169;letter190;congruent;0.04;letter169;0.09;0.07;fullmask;0.2;arrow_left.png;0.13;c;0.4154354000056628;0.41978120000567287;98357.4347313;3.100009053014219e-06;0.4999024999997346;0.5398695000039879;0.5920662999997148;0.6618111999996472;0.7913776000059443;0.9220091000024695;0;0;0;1;0.01
10;2;13;16;letter169;letter190;congruent;0.04;letter190;0.09;0.07;fullmask;0.2;arrow_right.png;0.13;m;0.256481000003987;0.26043560000834987;98359.1868083;2.900007530115545e-06;0.5014183000021148;0.5414451999968151;0.5933992000063881;0.6631728000065777;0.7928431000036653;1.0517980000004172;0;0;1;0;0.01
10;2;13;17;letter169;letter190;congruent;0.04;letter169;0.09;0.07;fullmask;0.2;arrow_left.png;0.13;c;0.27581829999689944;0.2803098000003956;98361.1467614;2.8999929782003164e-06;0.5009652000007918;0.5409807999967597;0.592303899989929;0.6631145999999717;0.7927669999917271;1.0713338999921689;0;0;1;0;0.01
10;2;13;18;letter169;letter190;congruent;0.04;letter169;0.09;0.07;fullmask;0.2;arrow_left.png;0.13;c;0.19185560000187252;0.1994812000048114;98363.0346937;2.900007530115545e-06;0.5027790000021923;0.5427848999970593;0.594742800007225;0.6645149999967543;0.7942249000043375;0.7942273000080604;0;1;0;0;0.01
10;2;13;19;letter169;letter190;congruent;0.04;letter190;0.09;0.07;fullmask;0.2;arrow_right.png;0.13;m;0.31282439999631606;0.32019169999693986;98364.8266668;2.7000060072168708e-06;0.49731220000830945;0.5373388000007253;0.589213600003859;0.6591072000010172;0.7886671000014758;1.107673300008173;0;0;1;0;0.01
10;2;13;20;letter169;letter190;congruent;0.04;letter190;0.09;0.07;fullmask;0.2;arrow_right.png;0.13;m;0.2821810000023106;0.2902643999987049;98366.7868213;3.200009814463556e-06;0.5026289000088582;0.542643799999496;0.594061399999191;0.6647512000054121;0.7944078000000445;1.0829893000045558;0;0;1;0;0.01
10;2;13;21;letter169;letter190;congruent;0.04;letter169;0.09;0.07;fullmask;0.2;arrow_left.png;0.13;c;0.3203146000014385;0.33013250000658445;98368.7867309;2.7000060072168708e-06;0.49929840001277626;0.5393216000084067;0.5912330000137445;0.6610054000047967;0.7906576000095811;1.1197232000122312;0;0;1;0;0.01
10;2;13;22;letter169;letter190;congruent;0.04;letter169;0.09;0.07;fullmask;0.2;arrow_left.png;0.13;c;0.3009825000044657;0.3101927999960026;98370.7786879;3.1999952625483274e-06;0.49470650000148453;0.5347256999957608;0.5866283999930602;0.6564136999950279;0.7860647000052268;1.0950493999989703;0;0;1;0;0.01
10;2;13;23;letter169;letter190;congruent;0.04;letter190;0.09;0.07;fullmask;0.2;arrow_right.png;0.13;m;0.26212490000762045;0.27029260000563227;98372.7306909;2.8999929782003164e-06;0.5044836999877589;0.5444981999899028;0.596000899997307;0.6657702999946196;0.7964195999957155;1.0648456999915652;0;0;1;0;0.01
10;2;13;24;letter169;letter190;congruent;0.04;letter169;0.09;0.07;fullmask;0.2;arrow_left.png;0.13;c;0.30435940000461414;0.3103220000048168;98374.7147578;3.0999945010989904e-06;0.4963932999962708;0.5364244000084;0.5884820000064792;0.6583749999990687;0.7879351000010502;1.0967713999998523;0;0;1;0;0.01
10;2;13;25;letter169;letter190;congruent;0.04;letter190;0.09;0.07;fullmask;0.2;arrow_right.png;0.13;m;0.2753030000021681;0.2802620000002207;98376.6666917;2.5999906938523054e-06;0.4946487999986857;0.534665799990762;0.5864682999963406;0.6562405999866314;0.7868910999968648;1.065016699998523;0;0;1;0;0.01
10;2;13;26;letter169;letter190;congruent;0.04;letter169;0.09;0.07;fullmask;0.2;arrow_left.png;0.13;c;0.21575809999194462;0.21947090000321623;98378.578686;2.7000060072168708e-06;0.4970443000056548;0.5370638000022154;0.5891372000041883;0.6590407000039704;0.7886011000082362;1.0073791000031633;0;0;1;0;0.01
10;2;13;27;letter169;letter190;congruent;0.04;letter169;0.09;0.07;fullmask;0.2;arrow_left.png;0.13;c;0.23660380000364967;0.23940930000389926;98380.4907282;2.9999937396496534e-06;0.498881599996821;0.5389067999931285;0.5909592999960296;0.6608519000001252;0.7904149999958463;1.0292347999929916;0;0;1;0;0.01
10;2;13;28;letter169;letter190;congruent;0.04;letter190;0.09;0.07;fullmask;0.2;arrow_right.png;0.13;m;0.3436747999949148;0.3502252000034787;98382.538999;3.1999952625483274e-06;0.5031429999944521;0.5432059000013396;0.5952017999952659;0.6651048000057926;0.7946678000007523;0.9253175000048941;0;0;0;1;0.01
10;2;13;29;letter169;letter190;congruent;0.04;letter169;0.09;0.07;fullmask;0.2;arrow_left.png;0.13;c;0.33416710000892635;0.34010800000396557;98384.370733;2.9999937396496534e-06;0.5001485999964643;0.5401681999937864;0.5922133999993093;0.6618531999993138;0.7925297000037972;0.9221808000002056;0;0;0;1;0.01
10;2;13;30;letter169;letter190;congruent;0.04;letter190;0.09;0.07;fullmask;0.2;arrow_right.png;0.13;m;0.28707950000534765;0.29023030000098515;98386.1547143;2.800006768666208e-06;0.4946589000028325;0.5346843000006629;0.5866400999948382;0.6564025999978185;0.7860644000029424;1.0750537999992957;0;0;1;0;0.01
10;2;13;31;letter169;letter190;congruent;0.04;letter169;0.09;0.07;fullmask;0.2;arrow_left.png;0.13;m;0.27397019999625627;0.28026539999700617;98388.1226701;2.900007530115545e-06;0.5045419999951264;0.5445682999998098;0.5963160999963293;0.6660890000057407;0.7967424999951618;1.0749321000039345;0;0;1;0;0.01
10;2;13;32;letter169;letter190;congruent;0.04;letter190;0.09;0.07;fullmask;0.2;arrow_right.png;0.13;m;0.2665808999881847;0.27042069999151863;98390.1067597;2.800006768666208e-06;0.5043206999980612;0.5443253999983426;0.5962672000023304;0.6660475999960909;0.7956993999978295;1.0646406000014395;0;0;1;0;0.01
10;2;13;33;letter169;letter190;congruent;0.04;letter190;0.09;0.07;fullmask;0.2;arrow_right.png;0.13;m;0.28701169999840204;0.2902810999948997;98392.0987551;2.6999914553016424e-06;0.5025173999893013;0.5425363999966066;0.594783099993947;0.6644755000015721;0.7941161999915494;1.0828873999998905;0;0;1;0;0.01
10;2;13;34;letter169;letter190;congruent;0.04;letter169;0.09;0.07;fullmask;0.2;arrow_left.png;0.13;c;0.2681943999923533;0.27029939999920316;98394.0507001;2.7000060072168708e-06;0.5002060000115307;0.5402169000008143;0.5919481000019005;0.6617295000032755;0.7923766000021715;1.0605548000021372;0;0;1;0;0.01
10;2;13;35;letter169;letter190;congruent;0.04;letter190;0.09;0.07;fullmask;0.2;arrow_right.png;0.13;m;0.3787324000004446;0.3799989999970421;98396.1227005;3.100009053014219e-06;0.5027817000081996;0.5428144000034081;0.5947453000117093;0.6645153999998001;0.7941690000006929;0.9248197000124492;0;0;0;1;0.01
10;2;13;36;letter169;letter190;congruent;0.04;letter169;0.09;0.07;fullmask;0.2;arrow_left.png;0.13;c;0.25170440001238603;0.2604249000141863;98397.866913;2.800006768666208e-06;0.49706170000717975;0.5370821000105934;0.5890650000073947;0.6588366000069072;0.7884905000100844;1.0474397000070894;0;0;1;0;0.01
10;2;13;37;letter169;letter190;congruent;0.04;letter190;0.09;0.07;fullmask;0.2;arrow_right.png;0.13;m;0.19037959999695886;0.19962780000059865;98399.7468727;3.000008291564882e-06;0.4987892000062857;0.5388088000036078;0.5908276000118349;0.6607283000048483;0.7904638000036357;0.7904717000055825;0;1;0;0;0.01
10;2;13;38;letter169;letter190;congruent;0.04;letter169;0.09;0.07;fullmask;0.2;arrow_left.png;0.13;c;0.22706879999896046;0.22944570000981912;98401.4746794;3.0999945010989904e-06;0.5024644999939483;0.542456499999389;0.5945454000029713;0.6644465999997919;0.7939268000045558;1.0228091000026325;0;0;1;0;0.01
10;2;13;39;letter169;letter190;congruent;0.04;letter169;0.09;0.07;fullmask;0.2;arrow_left.png;0.13;c;0.3120725000044331;0.32015559999854304;98403.4906989;2.8999929782003164e-06;0.5004237999964971;0.5404613999999128;0.5922634000016842;0.6620320999936666;0.7926819999993313;1.1108128999912878;0;0;1;0;0.01
10;2;13;40;letter169;letter190;congruent;0.04;letter169;0.09;0.07;fullmask;0.2;arrow_left.png;0.13;c;0.31063300000096206;0.32029609999153763;98405.490837;2.8999929782003164e-06;0.4985095000010915;0.5385218000010354;0.5906440999970073;0.660687900002813;0.7900956999947084;1.1088968999974895;0;0;1;0;0.01
10;2;13;41;letter169;letter190;congruent;0.04;letter169;0.09;0.07;fullmask;0.2;arrow_left.png;0.13;c;0.22533119999570772;0.23043009999673814;98407.4267559;3.0999945010989904e-06;0.4984515999967698;0.5384744000039063;0.5905102999968221;0.6601869000005536;0.7898470000072848;1.018782300001476;0;0;1;0;0.01
10;2;13;42;letter169;letter190;congruent;0.04;letter190;0.09;0.07;fullmask;0.2;arrow_right.png;0.13;m;0.24811610000324436;0.2503500000020722;98409.3706925;2.9999937396496534e-06;0.5004698999982793;0.5404792999906931;0.592441399989184;0.6622191999922507;0.7918699000001652;1.0408167999994475;0;0;1;0;0.01
10;2;13;43;letter169;letter190;congruent;0.04;letter190;0.09;0.07;fullmask;0.2;arrow_right.png;0.13;m;0.21896779999951832;0.22042040000087582;98411.2827184;2.900007530115545e-06;0.4952091000013752;0.5352265000110492;0.5871078000054695;0.6568793000042206;0.7865329000051133;1.005533600007766;0;0;1;0;0.01
10;2;13;44;letter169;letter190;congruent;0.04;letter169;0.09;0.07;fullmask;0.2;arrow_left.png;0.13;m;0.17153770000732038;0.1795334000053117;98413.1466762;2.6999914553016424e-06;0.4981128999934299;0.5381290999939665;0.5901712000049883;0.6599337999941781;0.7697055000026012;0.7697077999910107;0;1;0;0;0.01
10;2;13;45;letter169;letter190;congruent;0.04;letter169;0.09;0.07;fullmask;0.2;arrow_left.png;0.13;c;0.37259179999819025;0.3800436000019545;98415.0186735;2.6999914553016424e-06;0.502171999993152;0.5421955999918282;0.5941082999925129;0.6640127999999095;0.7935752999910619;0.9242078999959631;0;0;0;1;0.01
10;2;13;46;letter169;letter190;congruent;0.04;letter190;0.09;0.07;fullmask;0.2;arrow_right.png;0.13;m;0.25732869999774266;0.2603275000001304;98416.7547667;2.7999922167509794e-06;0.4948136000020895;0.5348287999950117;0.586909799996647;0.6566766000032658;0.7862351999938255;1.0451812999963295;0;0;1;0;0.01
10;2;13;47;letter169;letter190;congruent;0.04;letter190;0.09;0.07;fullmask;0.2;arrow_right.png;0.13;m;0.24214349999965634;0.25037729999166913;98418.6906767;2.5999906938523054e-06;0.502934499992989;0.542956499994034;0.5948786999942968;0.6647668999939924;0.7953287999989698;1.0432854999962728;0;0;1;0;0.01
10;2;13;48;letter169;letter190;congruent;0.04;letter190;0.09;0.07;fullmask;0.2;arrow_right.png;0.13;c;0.028942800010554492;0.029936600010842085;98420.4187567;2.800006768666208e-06;0.5008302000060212;0.5408466000080807;0.5928047000052175;0.6609217000077479;0.6609247000014875;0.6609270000044489;1;0;0;0;0.01
