subjnr;loop_m;blocknr;trialnr;cue_left_learn;cue_right_learn; congruence;cue_dur;cue;SOA;mask_dur;mask;target_dur;target;RW_dur;response;RT;kb_rt;response_absolute; fix_onset;cue_onset;cue_offset;mask_onset;mask_offset;target_offset;blank_onset;response_during_mask;response_during_targetalone;response_during_RW;response_during_blank;frame_dur
7;1;1;1;letter357;letter181;congruent;0.04;letter181;0.05;0.07;fullmask;0.3;arrow_right.png;0;m;0.788565099996049;0.7910216000163928;267507.1677528;2.9999646358191967e-06;0.4978694000164978;0.5378853000001982;0.5495204000035301;0.6192530000116676;0.8496479999739677;0.8496544999652542;0;0;0;1;0.01
7;1;1;2;letter357;letter181;congruent;0.04;letter181;0.05;0.07;fullmask;0.3;arrow_right.png;0;m;0.6745925999712199;0.6801030000206083;267509.33569;3.2999669201672077e-06;0.5011250999523327;0.5411504999501631;0.5532275000005029;0.622898300003726;0.8532964999903925;0.8533163999672979;0;0;0;1;0.01
7;1;1;3;letter357;letter181;congruent;0.04;letter181;0.05;0.07;fullmask;0.3;arrow_right.png;0;m;0.9958438000176102;1.0013384000048973;267511.7676588;2.8999638743698597e-06;0.5041139999520965;0.5441333999624476;0.5555571999866515;0.6253364000003785;0.8557170999702066;0.8557238999637775;0;0;0;1;0.01
7;1;1;4;letter357;letter181;congruent;0.04;letter181;0.05;0.07;fullmask;0.3;arrow_right.png;0;m;0.75758620002307;0.7600419000373222;267513.9516586;3.100023604929447e-06;0.5033549999934621;0.5433680000132881;0.5554772000177763;0.6253961999900639;0.8546919000218622;0.8546986000146717;0;0;0;1;0.01
7;1;1;5;letter357;letter181;congruent;0.04;letter181;0.05;0.07;fullmask;0.3;arrow_right.png;0;m;0.6382756999810226;0.6402761999634095;267516.0237495;2.6999623514711857e-06;0.497114599973429;0.5371269999886863;0.5492248999653384;0.6191411999752745;0.8494259999715723;0.8494329999666661;0;0;0;1;0.01
7;1;1;6;letter357;letter181;congruent;0.04;letter357;0.05;0.07;fullmask;0.3;arrow_left.png;0;c;0.7129119000164792;0.7200911000254564;267518.159661;2.7999631129205227e-06;0.49433289997978136;0.5343447999912314;0.5463703999994323;0.6161452999804169;0.8465560000040568;0.8465623999945819;0;0;0;1;0.01
7;1;1;7;letter357;letter181;congruent;0.04;letter357;0.05;0.07;fullmask;0.3;arrow_left.png;0;c;0.5874687000177801;0.590439299994614;267520.1756373;3.200024366378784e-06;0.49541299999691546;0.5354356000316329;0.547490100027062;0.6172619999852031;0.8476495000068098;0.8476554999942891;0;0;0;1;0.01
7;1;1;8;letter357;letter181;congruent;0.04;letter181;0.05;0.07;fullmask;0.3;arrow_right.png;0;m;0.5881350999698043;0.5905657999683172;267522.2076547;2.800021320581436e-06;0.504253700026311;0.5442795000271872;0.5563731000293046;0.6261452999897301;0.8565285999793559;0.8565350000280887;0;0;0;1;0.01
7;1;1;9;letter357;letter181;congruent;0.04;letter357;0.05;0.07;fullmask;0.3;arrow_left.png;0;c;0.5976671000244096;0.6014463000465184;267524.2477601;2.9999646358191967e-06;0.501000499993097;0.541029299958609;0.5523823999683373;0.6230592999490909;0.8524689999758266;0.8524890999542549;0;0;0;1;0.01
7;1;1;10;letter357;letter181;congruent;0.04;letter357;0.05;0.07;fullmask;0.3;arrow_left.png;0;c;0.5854418000089936;0.589440600015223;267526.2876272;2.900022082030773e-06;0.4974176000105217;0.5374363000155427;0.5495543000288308;0.6193238000269048;0.8497182999853976;0.8497241999721155;0;0;0;1;0.01
7;1;1;11;letter357;letter181;congruent;0.04;letter357;0.05;0.07;fullmask;0.3;arrow_left.png;0;c;0.5063008000142872;0.5096540999948047;267528.2396489;2.900022082030773e-06;0.49874730000738055;0.5387615999788977;0.5507274999981746;0.6205035999882966;0.8508840000140481;0.8508898000000045;0;0;0;1;0.01
7;1;1;12;letter357;letter181;congruent;0.04;letter357;0.05;0.07;fullmask;0.3;arrow_left.png;0;c;0.5936990999616683;0.6004106999607757;267530.2876453;3.100023604929447e-06;0.49852339999051765;0.5385516000096686;0.5498454999760725;0.6206163999740966;0.8500026999972761;0.8500085999839939;0;0;0;1;0.01
7;1;1;13;letter357;letter181;congruent;0.04;letter181;0.05;0.07;fullmask;0.3;arrow_right.png;0;m;0.4715608999831602;0.47962299996288493;267532.2476528;3.00002284348011e-06;0.4979120999923907;0.5379302999936044;0.5500199999660254;0.6196620999835432;0.8500994999776594;0.8501197000150569;0;0;0;1;0.01
7;1;1;14;letter357;letter181;congruent;0.04;letter181;0.05;0.07;fullmask;0.3;arrow_right.png;0;m;0.5904971999698319;0.6004595999838784;267534.2877144;2.9999646358191967e-06;0.49782649998087436;0.5378590999753214;0.5498293999698944;0.6196510999579914;0.8500339000020176;0.8500554999918677;0;0;0;1;0.01
7;1;1;15;letter357;letter181;congruent;0.04;letter357;0.05;0.07;fullmask;0.3;arrow_left.png;0;c;0.46913319994928315;0.4697545999661088;267536.2077156;3.1999661587178707e-06;0.49458270001923665;0.5346052999957465;0.5466275999788195;0.616398099984508;0.8467818999779411;0.846787599963136;0;0;0;1;0.01
7;1;1;16;letter357;letter181;congruent;0.04;letter181;0.05;0.07;fullmask;0.3;arrow_right.png;0;m;0.36780750000616536;0.37004959996556863;267538.0076475;2.7999631129205227e-06;0.5021687999833375;0.5421806999947876;0.5542236999608576;0.6239988000015728;0.8543974999920465;0.8544177999719977;0;0;0;1;0.01
7;1;1;17;letter357;letter181;congruent;0.04;letter357;0.05;0.07;fullmask;0.3;arrow_left.png;0;c;0.45657560002291575;0.45970010000746697;267539.8876394;2.900022082030773e-06;0.49628250004025176;0.5363011000445113;0.5484085000352934;0.6180778000270948;0.8484848000225611;0.8485044999979436;0;0;0;1;0.01
7;1;1;18;letter357;letter181;congruent;0.04;letter357;0.05;0.07;fullmask;0.3;arrow_left.png;0;c;0.511341099976562;0.5196749999886379;267541.8236359;2.700020559132099e-06;0.5032130000181496;0.5432387000182644;0.5553506999858655;0.6252594999969006;0.854555000027176;0.8545618000207469;0;0;0;1;0.01
7;1;1;19;letter357;letter181;congruent;0.04;letter181;0.05;0.07;fullmask;0.3;arrow_right.png;0;m;0.390146299963817;0.3999363000039011;267543.6636314;3.2999669201672077e-06;0.4988407000200823;0.5388670999673195;0.5508995999698527;0.6206617999705486;0.8510455000214279;0.851051900011953;0;0;0;1;0.01
7;1;1;20;letter357;letter181;congruent;0.04;letter357;0.05;0.07;fullmask;0.3;arrow_left.png;0;c;0.439829999988433;0.44083859998499975;267545.5436808;2.8999638743698597e-06;0.5006077999714762;0.5406247000209987;0.5518254999769852;0.6225955999689177;0.8519714999711141;0.851978299964685;0;0;0;1;0.01
7;1;1;21;letter357;letter181;congruent;0.04;letter357;0.05;0.07;fullmask;0.3;arrow_left.png;0;c;0.532016700017266;0.5406081000110134;267547.5279694;2.9999646358191967e-06;0.49828139995224774;0.5382834000047296;0.5503867999650538;0.6200695000006817;0.8504711999557912;0.8504909999901429;0;0;0;1;0.01
7;1;1;22;letter357;letter181;congruent;0.04;letter357;0.05;0.07;fullmask;0.3;arrow_left.png;0;c;0.726360599976033;0.7300752999726683;267549.7036271;2.900022082030773e-06;0.49998250004136935;0.5400075000361539;0.5521256000502035;0.6218995000235736;0.8522976000094786;0.8523044000030495;0;0;0;1;0.01
7;1;1;23;letter357;letter181;congruent;0.04;letter181;0.05;0.07;fullmask;0.3;arrow_right.png;0;m;0.6430597000289708;0.6502680000266992;267551.7916416;2.9999646358191967e-06;0.4986917999922298;0.5387076999759302;0.5507358000031672;0.6205084999674;0.8508808999904431;0.8508874999824911;0;0;0;1;0.01
7;1;1;24;letter357;letter181;congruent;0.04;letter181;0.05;0.07;fullmask;0.3;arrow_right.png;0;m;8.98367370001506;8.986039699986577;267562.2236988;2.900022082030773e-06;0.5000294999917969;0.5400404999963939;0.5521611000294797;0.6218207000056282;0.8522285000071861;0.8522491999901831;0;0;0;1;0.01
7;1;1;25;letter357;letter181;congruent;0.04;letter357;0.05;0.07;fullmask;0.3;arrow_left.png;0.13;c;0.8743761000223458;0.8805443000164814;267654.9997658;3.00002284348011e-06;0.504343600012362;0.5443664999911562;0.5564855000120588;0.6260345000191592;0.8564271000213921;0.98607099999208;0;0;0;1;0.01
7;1;1;26;letter357;letter181;congruent;0.04;letter181;0.05;0.07;fullmask;0.3;arrow_right.png;0.13;m;0.4568399000563659;0.45983410003827885;267656.9035935;2.800021320581436e-06;0.5011276000295766;0.5411502000060864;0.5531134000048041;0.6229349999921396;0.8533109999843873;0.9829717000247911;0;0;0;1;0.01
7;1;1;27;letter357;letter181;congruent;0.04;letter357;0.05;0.07;fullmask;0.3;arrow_left.png;0.13;c;0.7355460999533534;0.7400492999586277;267659.0635592;2.900022082030773e-06;0.4988493000273593;0.5388545999885537;0.5508789999876171;0.6206514000077732;0.8510352000012062;0.9806883999845013;0;0;0;1;0.01
7;1;1;28;letter357;letter181;congruent;0.04;letter181;0.05;0.07;fullmask;0.3;arrow_right.png;0.13;m;0.8589302999898791;0.8607620000257157;267661.3675356;3.00002284348011e-06;0.5000035000266507;0.5400045000133105;0.551205400028266;0.6221143000293523;0.8514095999998972;0.9820599000086077;0;0;0;1;0.01
7;1;1;29;letter357;letter181;congruent;0.04;letter357;0.05;0.07;fullmask;0.3;arrow_left.png;0.13;c;0.7950849999906495;0.8007859000354074;267663.6155402;2.9999646358191967e-06;0.4965552999638021;0.5365733999642543;0.5481329999747686;0.6188235000008717;0.8481945999665186;0.9788614999852143;0;0;0;1;0.01
7;1;1;30;letter357;letter181;congruent;0.04;letter357;0.05;0.07;fullmask;0.3;arrow_left.png;0.13;c;0.7330533000058495;0.7400864000082947;267665.7755316;2.800021320581436e-06;0.4966940999729559;0.5367132999817841;0.5488424000213854;0.6187503999681212;0.8480475000105798;0.9786980000208132;0;0;0;1;0.01
7;1;1;31;letter357;letter181;congruent;0.04;letter181;0.05;0.07;fullmask;0.3;arrow_right.png;0.13;m;0.6878137000021525;0.6902033000369556;267667.9115224;2.900022082030773e-06;0.49822649999987334;0.5382650999817997;0.5502010000054725;0.619971500011161;0.8503849999979138;0.980038899986539;0;0;0;1;0.01
7;1;1;32;letter357;letter181;congruent;0.04;letter181;0.05;0.07;fullmask;0.3;arrow_right.png;0.13;m;0.5823254999704659;0.5903536999830976;267669.9275282;2.8999638743698597e-06;0.4978006999590434;0.5378169000032358;0.5498934999923222;0.6195968999527395;0.8499800999998115;0.9796246999758296;0;0;0;1;0.01
7;1;1;33;letter357;letter181;congruent;0.04;letter181;0.05;0.07;fullmask;0.3;arrow_right.png;0.13;m;0.4150482999975793;0.41988729999866337;267671.7915317;2.8999638743698597e-06;0.5039304999518208;0.5439327999483794;0.555971399997361;0.6257444999646395;0.8561444999650121;1.1743595999432728;0;0;1;0;0.01
7;1;1;34;letter357;letter181;congruent;0.04;letter357;0.05;0.07;fullmask;0.3;arrow_left.png;0.13;c;0.3837051999871619;0.38997509999899194;267673.8315323;2.900022082030773e-06;0.5028345999890007;0.542866799980402;0.5548880000133067;0.6246614999836311;0.855048600002192;1.1432487000129186;0;0;1;0;0.01
7;1;1;35;letter357;letter181;congruent;0.04;letter181;0.05;0.07;fullmask;0.3;arrow_right.png;0.13;m;0.4123589000082575;0.41988539998419583;267675.9115254;3.00002284348011e-06;0.504100100020878;0.5441047000349499;0.5561435000272468;0.625919200014323;0.8562906000297517;1.1745148000190966;0;0;1;0;0.01
7;1;1;36;letter357;letter181;congruent;0.04;letter357;0.05;0.07;fullmask;0.3;arrow_left.png;0.13;c;0.37689090002095327;0.3798872000188567;267677.9275776;2.7999631129205227e-06;0.49506069999188185;0.535085599985905;0.547314399969764;0.6168702999711968;0.8472334999823943;1.125466899946332;0;0;1;0;0.01
7;1;1;37;letter357;letter181;congruent;0.04;letter357;0.05;0.07;fullmask;0.3;arrow_left.png;0.13;c;0.8140508999931626;0.8208136999746785;267680.3755286;3.2999669201672077e-06;0.49521000002278015;0.5352290999726392;0.5469327999744564;0.6166973999934271;0.8470811999868602;0.976734799973201;0;0;0;1;0.01
7;1;1;38;letter357;letter181;congruent;0.04;letter181;0.05;0.07;fullmask;0.3;arrow_right.png;0.13;m;0.6723625999875367;0.6801964999758638;267682.4955826;3.200024366378784e-06;0.4980174000374973;0.5380367000470869;0.55004070000723;0.619814200035762;0.8501984000322409;0.979853400029242;0;0;0;1;0.01
7;1;1;39;letter357;letter181;congruent;0.04;letter181;0.05;0.07;fullmask;0.3;arrow_right.png;0.13;m;0.5614295999985188;0.570402399986051;267684.4955213;2.8999638743698597e-06;0.49515380000229925;0.5351692999829538;0.546671099960804;0.6164422999718226;0.8467386999982409;0.9773850999772549;0;0;0;1;0.01
7;1;1;40;letter357;letter181;congruent;0.04;letter181;0.05;0.07;fullmask;0.3;arrow_right.png;0.13;m;0.5357079000095837;0.5405163000104949;267686.4716079;2.900022082030773e-06;0.4970000999746844;0.5370186999789439;0.5490377999958582;0.6187196000246331;0.8491182000143453;0.9787588000181131;0;0;0;1;0.01
7;1;1;41;letter357;letter181;congruent;0.04;letter181;0.05;0.07;fullmask;0.3;arrow_right.png;0.13;m;0.37234320002608;0.38015209999866784;267688.2795235;2.8999638743698597e-06;0.5027771999593824;0.5427959999651648;0.5548150999820791;0.6247370999772102;0.8541226999950595;1.133215299982112;0;0;1;0;0.01
7;1;1;42;letter357;letter181;congruent;0.04;letter357;0.05;0.07;fullmask;0.3;arrow_left.png;0.13;c;0.541051400010474;0.5495427999994718;267690.4795163;2.900022082030773e-06;0.5007064000237733;0.5407284999964759;0.552704099973198;0.6224795000161976;0.8528589999768883;0.9825134999700822;0;0;0;1;0.01
7;1;1;43;letter357;letter181;congruent;0.04;letter357;0.05;0.07;fullmask;0.3;arrow_left.png;0.13;c;0.46260159998200834;0.4708191999816336;267692.391547;3.00002284348011e-06;0.4957965000066906;0.535806700005196;0.5469806000473909;0.6177934000152163;0.8471834000083618;0.9778308999957517;0;0;0;1;0.01
7;1;1;44;letter357;letter181;congruent;0.04;letter357;0.05;0.07;fullmask;0.3;arrow_left.png;0.13;c;0.7988814000273123;0.8006883999914862;267694.6395102;2.8999638743698597e-06;0.4992217000108212;0.5392500999732874;0.5508558999863453;0.6214136999915354;0.8507861999678425;0.9814360999735072;0;0;0;1;0.01
7;1;1;45;letter357;letter181;congruent;0.04;letter181;0.05;0.07;fullmask;0.3;arrow_right.png;0.13;m;0.5730329999933019;0.5804578000097536;267696.6555053;3.00002284348011e-06;0.49860330001683906;0.5386222000233829;0.5506387000204995;0.6204078000155278;0.8507933000219055;0.9804500000318512;0;0;0;1;0.01
7;1;1;46;letter357;letter181;congruent;0.04;letter357;0.05;0.07;fullmask;0.3;arrow_left.png;0.13;c;0.4178298999904655;0.4198960000067018;267698.5115114;3.00002284348011e-06;0.495810899999924;0.5358252000296488;0.5477426000288688;0.6175193000235595;0.8478997999918647;1.1662452000309713;0;0;1;0;0.01
7;1;1;47;letter357;letter181;congruent;0.04;letter357;0.05;0.07;fullmask;0.3;arrow_left.png;0.13;c;0.5505738000501879;0.5605629000347108;267700.6955757;2.900022082030773e-06;0.49571689998265356;0.5357399000204168;0.5476493000169285;0.6177074000006542;0.8478467999957502;0.9775010999874212;0;0;0;1;0.01
7;1;1;48;letter357;letter181;congruent;0.04;letter181;0.05;0.07;fullmask;0.3;arrow_right.png;0.13;m;0.5338898000190966;0.5406246000202373;267702.6794999;2.800021320581436e-06;0.5026072000036947;0.542636499973014;0.5538446999853477;0.6247546999948099;0.8540519999805838;0.9847032999969088;0;0;0;1;0.01
7;1;2;1;letter357;letter181;congruent;0.04;letter181;0.05;0.07;fullmask;0.25;arrow_right.png;0.13;m;0.6308251000009477;0.6313791999709792;267717.1756672;2.900022082030773e-06;0.5028190000448376;0.5428389000007883;0.5539698000065982;0.624682700028643;0.8051967000355944;0.9348499000188895;0;0;0;1;0.01
7;1;2;2;letter357;letter181;congruent;0.04;letter357;0.05;0.07;fullmask;0.25;arrow_left.png;0.13;m;0.24430660001235083;0.2493868000456132;267718.871497;3.100023604929447e-06;0.49740799999563023;0.5374469999806024;0.5495596000109799;0.6194570999941789;0.7989455999922939;0.7989481000113301;0;1;0;0;0.01
7;1;2;3;letter357;letter181;congruent;0.04;letter181;0.05;0.07;fullmask;0.25;arrow_right.png;0.13;m;0.6559934999677353;0.6611550999805331;267721.1834912;3.1999661587178707e-06;0.5035398000036366;0.5435862999875098;0.5547670999658294;0.6254421999910846;0.8049597999779508;0.9356111999950372;0;0;0;1;0.01
7;1;2;4;letter357;letter181;congruent;0.04;letter181;0.05;0.07;fullmask;0.25;arrow_right.png;0.13;m;0.560247800021898;0.5706163999857381;267723.199564;3.0999653972685337e-06;0.5018678999622352;0.5418925000121817;0.5535325999953784;0.6232998999767005;0.8038101999554783;0.9334688999806531;0;0;0;1;0.01
7;1;2;5;letter357;letter181;congruent;0.04;letter181;0.05;0.07;fullmask;0.25;arrow_right.png;0.13;m;0.4423993000527844;0.44971100002294406;267725.103538;2.9999646358191967e-06;0.4988119999761693;0.5388392999884672;0.5509977999608964;0.6206894999486394;0.8002019999548793;0.9308349999482743;0;0;0;1;0.01
7;1;2;6;letter357;letter181;congruent;0.04;letter357;0.05;0.07;fullmask;0.25;arrow_left.png;0.13;m;0.27547660004347563;0.2795884000370279;267726.8474831;3.0999653972685337e-06;0.5017474999767728;0.5417616000049748;0.5535405999980867;0.6236281999736093;0.8031518000061624;1.0320830999989994;0;0;1;0;0.01
7;1;2;7;letter357;letter181;congruent;0.04;letter357;0.05;0.07;fullmask;0.25;arrow_left.png;0.13;c;0.4979608000139706;0.4996805000118911;267729.1914923;3.0999653972685337e-06;0.4971185000031255;0.5371471999678761;0.5490850000060163;0.6188560999580659;0.7993741999962367;0.9290189999737777;0;0;0;1;0.01
7;1;2;8;letter357;letter181;congruent;0.04;letter181;0.05;0.07;fullmask;0.25;arrow_right.png;0.13;m;0.4465716000413522;0.4497656000312418;267731.0715084;3.0999653972685337e-06;0.5047173000057228;0.5447368000168353;0.5568423999939114;0.6265174999716692;0.8060593999689445;0.9367148000164889;0;0;0;1;0.01
7;1;2;9;letter357;letter181;congruent;0.04;letter357;0.05;0.07;fullmask;0.25;arrow_left.png;0.13;c;0.3654186999774538;0.37007289996836334;267732.8714755;3.00002284348011e-06;0.5025357999838889;0.5425665000220761;0.5545504000037909;0.6244622999802232;0.8048657000181265;1.122960000007879;0;0;1;0;0.01
7;1;2;10;letter357;letter181;congruent;0.04;letter357;0.05;0.07;fullmask;0.25;arrow_left.png;0.13;m;0.4163181000039913;0.41989690001355484;267734.943487;2.9999646358191967e-06;0.5032544999849051;0.5432741999975406;0.5550722999614663;0.6248461999930441;0.8053632999653928;0.935016600007657;0;0;0;1;0.01
7;1;2;11;letter357;letter181;congruent;0.04;letter181;0.05;0.07;fullmask;0.25;arrow_right.png;0.13;m;0.622693800018169;0.6303332999814302;267737.1914858;2.7999631129205227e-06;0.5020180999999866;0.5420475999708287;0.5541450000018813;0.6239184999722056;0.8034400999895297;0.9340890999883413;0;0;0;1;0.01
7;1;2;12;letter357;letter181;congruent;0.04;letter357;0.05;0.07;fullmask;0.25;arrow_left.png;0.13;c;0.5463472999981605;0.550745900021866;267739.2156521;2.8999638743698597e-06;0.4972111000097357;0.5372324999771081;0.5485030999989249;0.6192697999649681;0.7988937000045553;0.9295372999622487;0;0;0;1;0.01
7;1;2;13;letter357;letter181;congruent;0.04;letter357;0.05;0.07;fullmask;0.25;arrow_left.png;0.13;c;0.6042207999853417;0.6103873000247404;267741.2554946;2.800021320581436e-06;0.5018274000030942;0.5418479000218213;0.5537896000314504;0.623563600005582;0.8040814999840222;0.9337340000201948;0;0;0;1;0.01
7;1;2;14;letter357;letter181;congruent;0.04;letter181;0.05;0.07;fullmask;0.25;arrow_right.png;0.13;m;3.9938328999560326;4.003427699964959;267746.6957379;3.00002284348011e-06;0.49761290004244074;0.5376174000557512;0.5488645000150427;0.6196252000518143;0.7991454000002705;0.9297960000112653;0;0;0;1;0.01
7;1;2;15;letter357;letter181;congruent;0.04;letter357;0.05;0.07;fullmask;0.25;arrow_left.png;0.13;c;0.4470791999483481;0.44970589998411015;267748.5834648;2.900022082030773e-06;0.49808829999528825;0.5381048999843188;0.5503051999839954;0.6199775999994017;0.7994771000230685;0.9301274999743327;0;0;0;1;0.01
7;1;2;16;letter357;letter181;congruent;0.04;letter357;0.05;0.07;fullmask;0.25;arrow_left.png;0.13;c;0.35802690003765747;0.36005580000346527;267750.3754684;3.400025889277458e-06;0.49748279998311773;0.5374989000265487;0.5495290000108071;0.6193005000241101;0.7988292000372894;1.1078865000163205;0;0;1;0;0.01
7;1;2;17;letter357;letter181;congruent;0.04;letter357;0.05;0.07;fullmask;0.25;arrow_left.png;0.13;c;0.35143480001715943;0.36006279999855906;267752.3595687;2.900022082030773e-06;0.49965499999234453;0.5396692000213079;0.5511001000413671;0.6208787999930792;0.8013950000167824;1.1100612999871373;0;0;1;0;0.01
7;1;2;18;letter357;letter181;congruent;0.04;letter357;0.05;0.07;fullmask;0.25;arrow_left.png;0.13;c;0.35949950001668185;0.3601296999840997;267754.3595984;2.9999646358191967e-06;0.49709909997181967;0.5371192999882624;0.5492320999619551;0.6191378000075929;0.7985693999798968;1.107507499982603;0;0;1;0;0.01
7;1;2;19;letter357;letter181;congruent;0.04;letter181;0.05;0.07;fullmask;0.25;arrow_right.png;0.13;m;0.3521329999784939;0.36004900000989437;267756.343479;3.00002284348011e-06;0.4972861999995075;0.5373273000004701;0.5493800000404008;0.6191613000119105;0.7986799000063911;1.1076882000197656;0;0;1;0;0.01
7;1;2;20;letter357;letter181;congruent;0.04;letter181;0.05;0.07;fullmask;0.25;arrow_right.png;0.13;c;0.26486940000904724;0.27029359998414293;267758.2474633;2.7999631129205227e-06;0.4950727999676019;0.5350766999763437;0.5470963999978267;0.6168683999567293;0.7963882999611087;1.0153999999747612;0;0;1;0;0.01
7;1;2;21;letter357;letter181;congruent;0.04;letter181;0.05;0.07;fullmask;0.25;arrow_right.png;0.13;m;0.5275098999845795;0.5295586999855004;267760.6314988;2.8999638743698597e-06;0.5030013999785297;0.543039999960456;0.5550652999663725;0.6247974999714643;0.8043197999941185;0.9349674999830313;0;0;0;1;0.01
7;1;2;22;letter357;letter181;congruent;0.04;letter181;0.05;0.07;fullmask;0.25;arrow_right.png;0.13;m;0.5402908999822102;0.5405877000303008;267762.6156097;3.1999661587178707e-06;0.49554360000183806;0.5355626000091434;0.547668999992311;0.6173668999690562;0.7968753000022843;0.927537499985192;0;0;0;1;0.01
7;1;2;23;letter357;letter181;congruent;0.04;letter357;0.05;0.07;fullmask;0.25;arrow_left.png;0.13;c;0.382940299983602;0.3899859000230208;267764.4394555;2.9999646358191967e-06;0.5027185999788344;0.5427466999972239;0.5547494000056759;0.6245416000019759;0.8040592999896035;0.9347042999579571;0;0;0;1;0.01
7;1;2;24;letter357;letter181;congruent;0.04;letter181;0.05;0.07;fullmask;0.25;arrow_right.png;0.13;m;0.5537289999774657;0.5595240999828093;267766.4314353;3.0999653972685337e-06;0.5005153999663889;0.5405222999979742;0.5525480000069365;0.6223170000012033;0.8018424999900162;0.9324934000032954;0;0;0;1;0.01
7;1;2;25;letter357;letter181;congruent;0.04;letter181;0.05;0.07;fullmask;0.25;arrow_right.png;0.13;m;0.34443060000194237;0.350126100005582;267768.223463;3.1999661587178707e-06;0.4985573999583721;0.5385708999820054;0.5506268999888562;0.6205354999983683;0.799963099998422;1.0989706999971531;0;0;1;0;0.01
7;1;2;26;letter357;letter181;congruent;0.04;letter181;0.05;0.07;fullmask;0.25;arrow_right.png;0.13;m;0.3536914000287652;0.3600938000017777;267770.2236296;2.800021320581436e-06;0.49637509998865426;0.5364051000215113;0.5480676000006497;0.6177564999670722;0.7982735999976285;1.1067794999689795;0;0;1;0;0.01
7;1;2;27;letter357;letter181;congruent;0.04;letter181;0.05;0.07;fullmask;0.25;arrow_right.png;0.13;m;0.33578120003221557;0.3401543000363745;267772.2074446;3.00002284348011e-06;0.5010681999847293;0.5410991000244394;0.5531981000094675;0.6231066000182182;0.8025353000266477;1.0914608999737538;0;0;1;0;0.01
7;1;2;28;letter357;letter181;congruent;0.04;letter357;0.05;0.07;fullmask;0.25;arrow_left.png;0.13;m;0.25259580003330484;0.25933150004129857;267774.0954557;2.8999638743698597e-06;0.4996007999870926;0.539618699986022;0.5516349999816157;0.6214030999690294;0.8009364999597892;1.0099306000047363;0;0;1;0;0.01
7;1;2;29;letter357;letter181;congruent;0.04;letter181;0.05;0.07;fullmask;0.25;arrow_right.png;0.13;m;0.4911887999624014;0.49967569997534156;267776.4154429;2.8999638743698597e-06;0.5022024000063539;0.5422256999881938;0.5542852999642491;0.6240558999706991;0.8035752999712713;0.934226099983789;0;0;0;1;0.01
7;1;2;30;letter357;letter181;congruent;0.04;letter181;0.05;0.07;fullmask;0.25;arrow_right.png;0.13;m;0.3580111999763176;0.3600717000081204;267778.2234954;3.00002284348011e-06;0.503637499990873;0.543645000027027;0.5556780999759212;0.6254655999946408;0.8048632999998517;1.1140114000299945;0;0;1;0;0.01
7;1;2;31;letter357;letter181;congruent;0.04;letter357;0.05;0.07;fullmask;0.25;arrow_left.png;0.13;c;0.3826724999817088;0.3899671999970451;267780.2394403;2.900022082030773e-06;0.4983372000278905;0.5383717000368051;0.5503822000464424;0.6201500000315718;0.7996721000527032;0.930327300040517;0;0;0;1;0.01
7;1;2;32;letter357;letter181;congruent;0.04;letter357;0.05;0.07;fullmask;0.25;arrow_left.png;0.13;c;0.36208950000582263;0.37003099999856204;267782.0394479;2.900022082030773e-06;0.49894070002483204;0.5389470999944024;0.5503893999848515;0.6201630000141449;0.8006800999864936;1.1193299000151455;0;0;1;0;0.01
7;1;2;33;letter357;letter181;congruent;0.04;letter357;0.05;0.07;fullmask;0.25;arrow_left.png;0.13;c;0.308214400021825;0.3101866000215523;267784.0074303;2.8999638743698597e-06;0.500769299978856;0.5407996999565512;0.5527733999770135;0.6225474999519065;0.8020670999540016;1.0611359999747947;0;0;1;0;0.01
7;1;2;34;letter357;letter181;congruent;0.04;letter181;0.05;0.07;fullmask;0.25;arrow_right.png;0.13;m;0.31106460001319647;0.3203112999908626;267785.9516029;2.700020559132099e-06;0.49822230002610013;0.5382309000124224;0.5502788000158034;0.6201905999914743;0.7996162999770604;1.0685730000259355;0;0;1;0;0.01
7;1;2;35;letter357;letter181;congruent;0.04;letter181;0.05;0.07;fullmask;0.25;arrow_right.png;0.13;m;0.3363771000294946;0.3411329999798909;267787.9275123;3.3999676816165447e-06;0.4980574999935925;0.5381055999896489;0.5494677000096999;0.6201575999730267;0.7996759999659844;1.088435199984815;0;0;1;0;0.01
7;1;2;36;letter357;letter181;congruent;0.04;letter181;0.05;0.07;fullmask;0.25;arrow_right.png;0.13;c;0.2545580000150949;0.2593670000205748;267789.8076245;2.8999638743698597e-06;0.4954829000052996;0.5355080000008456;0.5475499999593012;0.6174539999919944;0.7968827000004239;1.0058282999671064;0;0;1;0;0.01
7;1;2;37;letter357;letter181;congruent;0.04;letter357;0.05;0.07;fullmask;0.25;arrow_left.png;0.13;c;0.4289693999453448;0.43008339998777956;267792.0635133;2.900022082030773e-06;0.5041563999839127;0.5441831999924034;0.5563486000173725;0.6254337999853306;0.8058559999917634;0.936507900012657;0;0;0;1;0.01
7;1;2;38;letter357;letter181;congruent;0.04;letter357;0.05;0.07;fullmask;0.25;arrow_left.png;0.13;c;0.4337705000070855;0.4398835999891162;267793.9194519;2.800021320581436e-06;0.4953992000082508;0.5354185000178404;0.5475297999801114;0.616595400031656;0.7968682000064291;0.9275155999930575;0;0;0;1;0.01
7;1;2;39;letter357;letter181;congruent;0.04;letter357;0.05;0.07;fullmask;0.25;arrow_left.png;0.13;c;0.21927870000945404;0.22031810000771657;267795.5754328;3.200024366378784e-06;0.49883500003488734;0.5388552999938838;0.5502327000140212;0.6209013999905437;0.7705450000357814;0.77054749999661;0;1;0;0;0.01
7;1;2;40;letter357;letter181;congruent;0.04;letter181;0.05;0.07;fullmask;0.25;arrow_right.png;0.13;m;0.3835857000085525;0.38997280003968626;267797.3914578;2.9999646358191967e-06;0.4995924999821;0.5395982000045478;0.5516137999948114;0.6213896999834105;0.8009131999569945;0.9315595999942161;0;0;0;1;0.01
7;1;2;41;letter357;letter181;congruent;0.04;letter357;0.05;0.07;fullmask;0.25;arrow_left.png;0.13;c;0.4312591000343673;0.4407449000282213;267799.2794638;3.500026650726795e-06;0.502088500012178;0.5421093000331894;0.5532713000429794;0.6239476000191644;0.8034677000250667;0.9341180000337772;0;0;0;1;0.01
7;1;2;42;letter357;letter181;congruent;0.04;letter181;0.05;0.07;fullmask;0.25;arrow_right.png;0.13;m;0.2630332999979146;0.2693454999825917;267800.9833832;2.900022082030773e-06;0.5040716000366956;0.5440851000021212;0.5561809000209905;0.6260879000183195;0.8055204999982379;1.0244004999985918;0;0;1;0;0.01
7;1;2;43;letter357;letter181;congruent;0.04;letter181;0.05;0.07;fullmask;0.25;arrow_right.png;0.13;m;0.44382849999237806;0.44985959999030456;267803.0554207;2.800021320581436e-06;0.496714900014922;0.5367433000355959;0.5488469999982044;0.617913399997633;0.7981853000237606;0.928820600034669;0;0;0;1;0.01
7;1;2;44;letter357;letter181;congruent;0.04;letter357;0.05;0.07;fullmask;0.25;arrow_left.png;0.13;c;0.36867290001828223;0.36997379997046664;267804.8715015;3.00002284348011e-06;0.502042900014203;0.5420606000116095;0.5541854000184685;0.6238642000243999;0.803404500009492;1.1224459999939427;0;0;1;0;0.01
7;1;2;45;letter357;letter181;congruent;0.04;letter181;0.05;0.07;fullmask;0.25;arrow_right.png;0.13;m;0.36930159997427836;0.37007679999805987;267806.863395;3.00002284348011e-06;0.49556290003238246;0.5355903999879956;0.5476860000053421;0.6175938000087626;0.7970267999917269;1.115965100005269;0;0;1;0;0.01
7;1;2;46;letter357;letter181;congruent;0.04;letter357;0.05;0.07;fullmask;0.25;arrow_left.png;0.13;c;0.3680327000329271;0.37007720000110567;267808.8634275;2.9999646358191967e-06;0.4951868999633007;0.5352143999771215;0.5473164999857545;0.6172227999777533;0.7966566999675706;1.1155948999803513;0;0;1;0;0.01
7;1;2;47;letter357;letter181;congruent;0.04;letter357;0.05;0.07;fullmask;0.25;arrow_left.png;0.13;c;0.45272729999851435;0.45983150001848117;267810.9594286;2.900022082030773e-06;0.5042485000449233;0.5442567000281997;0.5563595000421628;0.6262657000334002;0.8056980000110343;0.9363464000052772;0;0;0;1;0.01
7;1;2;48;letter357;letter181;congruent;0.04;letter357;0.05;0.07;fullmask;0.25;arrow_left.png;0.13;c;0.4316798999789171;0.4399697000044398;267812.8396063;3.00002284348011e-06;0.5043121000053361;0.5443305000080727;0.5564226999995299;0.6262364000431262;0.805729000014253;0.9363809000351466;0;0;0;1;0.01
7;1;3;1;letter357;letter181;congruent;0.04;letter181;0.05;0.07;fullmask;0.2;arrow_right.png;0.13;m;0.5234826000523753;0.5295374999986961;267837.8474229;3.100023604929447e-06;0.4973217000369914;0.5373543000314385;0.5492999000125565;0.619105399993714;0.748758000030648;0.8794132000184618;0;0;0;1;0.01
7;1;3;2;letter357;letter181;congruent;0.04;letter181;0.05;0.07;fullmask;0.2;arrow_right.png;0.13;m;0.32213089999277145;0.33013419999042526;267839.6073872;3.200024366378784e-06;0.5011403000098653;0.5411609000293538;0.5531776000279933;0.6229526000097394;0.7526044999831356;1.0815166999818757;0;0;1;0;0.01
7;1;3;3;letter357;letter181;congruent;0.04;letter181;0.05;0.07;fullmask;0.2;arrow_right.png;0.13;m;0.360824599978514;0.36997770000016317;267841.6074769;3.300025127828121e-06;0.49812020000535995;0.5381370999966748;0.550272100022994;0.6199527999851853;0.7496103000012226;0.8802874999819323;0;0;0;1;0.01
7;1;3;4;letter357;letter181;congruent;0.04;letter357;0.05;0.07;fullmask;0.2;arrow_left.png;0.13;c;0.49378859996795654;0.4997104999492876;267843.5515369;3.200024366378784e-06;0.4967620000243187;0.5367762999958359;0.5488383999909274;0.6185165999922901;0.7481870999909006;0.8788427999825217;0;0;0;1;0.01
7;1;3;5;letter357;letter181;congruent;0.04;letter357;0.05;0.07;fullmask;0.2;arrow_left.png;0.13;m;0.29846709995763376;0.3002231999998912;267845.287416;3.00002284348011e-06;0.50012229999993;0.540096300013829;0.5520963000017218;0.6218928000307642;0.7515239000204019;1.050420200044755;0;0;1;0;0.01
7;1;3;6;letter357;letter181;congruent;0.04;letter357;0.05;0.07;fullmask;0.2;arrow_left.png;0.13;c;0.3731011999770999;0.37994909996632487;267847.3033859;2.900022082030773e-06;0.5043914999696426;0.5443998000118881;0.5564946999656968;0.62621560000116;0.7558685999829322;0.8865234999684617;0;0;0;1;0.01
7;1;3;7;letter357;letter181;congruent;0.04;letter181;0.05;0.07;fullmask;0.2;arrow_right.png;0.13;m;0.36486580001655966;0.37114220001967624;267849.13555;2.9999646358191967e-06;0.5037616999470629;0.5438054999685846;0.5550753999850713;0.6258413999457844;0.7554945999872871;0.8851591999991797;0;0;0;1;0.01
7;1;3;8;letter357;letter181;congruent;0.04;letter357;0.05;0.07;fullmask;0.2;arrow_left.png;0.13;c;0.3391241999925114;0.34002960001816973;267850.9115162;3.2999669201672077e-06;0.4970274000079371;0.5370703999651596;0.5488793000113219;0.6185774999903515;0.7492309999652207;0.878874399990309;0;0;0;1;0.01
7;1;3;9;letter357;letter181;congruent;0.04;letter181;0.05;0.07;fullmask;0.2;arrow_right.png;0.13;m;0.37971959996502846;0.3798928000032902;267852.7434622;2.8999638743698597e-06;0.5005169999785721;0.5405273999786004;0.5525582999689505;0.6223378999857232;0.7519911999697797;0.8826118999859318;0;0;0;1;0.01
7;1;3;10;letter357;letter181;congruent;0.04;letter181;0.05;0.07;fullmask;0.2;arrow_right.png;0.13;c;0.3824330999632366;0.38993559998925775;267854.5673733;2.700020559132099e-06;0.5026795000303537;0.5427067000418901;0.5547321999911219;0.6244993000291288;0.7541544000268914;0.884773200028576;0;0;0;1;0.01
7;1;3;11;letter357;letter181;congruent;0.04;letter357;0.05;0.07;fullmask;0.2;arrow_left.png;0.13;m;0.4693342999671586;0.4696769999573007;267856.4954573;3.100023604929447e-06;0.49489600001834333;0.5349080000305548;0.5469426999916323;0.6167172000277787;0.7463706000125967;0.8770176999969408;0;0;0;1;0.01
7;1;3;12;letter357;letter181;congruent;0.04;letter357;0.05;0.07;fullmask;0.2;arrow_left.png;0.13;c;0.40885599999455735;0.4109650999889709;267858.3353814;2.7999631129205227e-06;0.4968267999938689;0.5368243999546394;0.548033699975349;0.6188498999690637;0.7484997999854386;0.8791514000040479;0;0;0;1;0.01
7;1;3;13;letter357;letter181;congruent;0.04;letter181;0.05;0.07;fullmask;0.2;arrow_right.png;0.13;m;0.4114560000016354;0.4209370000171475;267860.1993876;3.100023604929447e-06;0.50080550002167;0.5408008000231348;0.5522048000129871;0.6221153000369668;0.7526733000413515;0.882327500032261;0;0;0;1;0.01
7;1;3;14;letter357;letter181;congruent;0.04;letter181;0.05;0.07;fullmask;0.2;arrow_right.png;0.13;m;0.45959540002513677;0.4597493000328541;267862.119458;3.100023604929447e-06;0.49680299998726696;0.5367861000122502;0.5489034000202082;0.6187222999869846;0.7483787999954075;0.8790284999995492;0;0;0;1;0.01
7;1;3;15;letter357;letter181;congruent;0.04;letter357;0.05;0.07;fullmask;0.2;arrow_left.png;0.13;c;0.34316640003817156;0.3510715000447817;267863.9034236;3.00002284348011e-06;0.5045427000150084;0.5445607000146993;0.5558446000213735;0.6266077000182122;0.7562604999984615;0.8859220000449568;0;0;0;1;0.01
7;1;3;16;letter357;letter181;congruent;0.04;letter357;0.05;0.07;fullmask;0.2;arrow_left.png;0.13;c;0.5092603000230156;0.5106064000283368;267865.8714927;2.9999646358191967e-06;0.5000498999725096;0.5399834999698214;0.5520789999864064;0.6217853999696672;0.7514505999861285;0.8820855999947526;0;0;0;1;0.01
7;1;3;17;letter357;letter181;congruent;0.04;letter357;0.05;0.07;fullmask;0.2;arrow_left.png;0.13;c;1.1179357999935746;1.1200207999791019;267868.4313687;2.7999631129205227e-06;0.49664550001034513;0.5366637000115588;0.5486884000129066;0.6184571000048891;0.7481152999680489;0.8787559999618679;0;0;0;1;0.01
7;1;3;18;letter357;letter181;congruent;0.04;letter357;0.05;0.07;fullmask;0.2;arrow_left.png;0.13;m;0.3903685999684967;0.399946799967438;267870.2554402;3.00002284348011e-06;0.5020737000158988;0.5420986000099219;0.5541147000039928;0.623888700036332;0.7535396000021137;0.8841844000271522;0;0;0;1;0.01
7;1;3;19;letter357;letter181;congruent;0.04;letter181;0.05;0.07;fullmask;0.2;arrow_right.png;0.13;m;0.4130232000024989;0.41998100001364946;267872.1193606;3.100023604929447e-06;0.49495439999736845;0.5349479000433348;0.5470195999951102;0.6168743000016548;0.7465270000393502;0.8771698999917135;0;0;0;1;0.01
7;1;3;20;letter357;letter181;congruent;0.04;letter181;0.05;0.07;fullmask;0.2;arrow_right.png;0.13;m;0.3579495999729261;0.3600571000133641;267873.9354268;3.00002284348011e-06;0.5010895000305027;0.5411298000253737;0.5531341999885626;0.6229249000316486;0.7525767000042833;0.8832321999943815;0;0;0;1;0.01
7;1;3;21;letter357;letter181;congruent;0.04;letter357;0.05;0.07;fullmask;0.2;arrow_left.png;0.13;c;0.5172577999765053;0.5206170000019483;267875.8954016;2.900022082030773e-06;0.5039787000278011;0.5440127000329085;0.5555120999924839;0.6252845000126399;0.7559323000023142;0.885588800010737;0;0;0;1;0.01
7;1;3;22;letter357;letter181;congruent;0.04;letter181;0.05;0.07;fullmask;0.2;arrow_right.png;0.13;m;0.23744540003826842;0.23937910003587604;267877.5673554;3.100023604929447e-06;0.4988201000378467;0.5388215000275522;0.5508375000208616;0.6206099000410177;0.7502641000319272;0.9891294000553899;0;0;1;0;0.01
7;1;3;23;letter357;letter181;congruent;0.04;letter357;0.05;0.07;fullmask;0.2;arrow_left.png;0.13;c;0.3542184999678284;0.36004449997562915;267879.5754169;2.800021320581436e-06;0.504283900023438;0.5443039000383578;0.5563687999965623;0.6261338000185788;0.7557863999973051;0.8864367000060156;0;0;0;1;0.01
7;1;3;24;letter357;letter181;congruent;0.04;letter181;0.05;0.07;fullmask;0.2;arrow_right.png;0.13;m;0.33120079996297136;0.3402442999649793;267881.3434724;3.200024366378784e-06;0.4974878000211902;0.5375201000133529;0.5495072000194341;0.6194129000068642;0.7489791000261903;0.8797185000148602;0;0;0;1;0.01
7;1;3;25;letter357;letter181;congruent;0.04;letter181;0.05;0.07;fullmask;0.2;arrow_right.png;0.13;m;0.3958573999698274;0.4000444000121206;267883.1994446;3.00002284348011e-06;0.4996343000093475;0.539652900013607;0.551804099988658;0.6217156000202522;0.7512734000338241;0.8819249999942258;0;0;0;1;0.01
7;1;3;26;letter357;letter181;congruent;0.04;letter357;0.05;0.07;fullmask;0.2;arrow_left.png;0.13;c;0.43299040000420064;0.4398203000309877;267885.0873572;3.00002284348011e-06;0.5004702999722213;0.5404909999924712;0.5522187000024132;0.6219941999879666;0.7526432999875396;0.8822972999769263;0;0;0;1;0.01
7;1;3;27;letter357;letter181;congruent;0.04;letter181;0.05;0.07;fullmask;0.2;arrow_right.png;0.13;m;0.38146669999696314;0.3899725999799557;267886.927348;2.8999638743698597e-06;0.5035981999826618;0.543620899959933;0.5556271999957971;0.6254006999661215;0.7550533999456093;0.8857046999619342;0;0;0;1;0.01
7;1;3;28;letter357;letter181;congruent;0.04;letter181;0.05;0.07;fullmask;0.2;arrow_right.png;0.13;c;0.2603588000056334;0.2702898000134155;267888.6474256;3.100023604929447e-06;0.5035264000180177;0.5435491000534967;0.5555544000235386;0.6253274000482634;0.754982500046026;1.0238665000069886;0;0;1;0;0.01
7;1;3;29;letter357;letter181;congruent;0.04;letter357;0.05;0.07;fullmask;0.2;arrow_left.png;0.13;m;0.30283540004165843;0.30997390003176406;267890.5913602;2.8999638743698597e-06;0.49919399997452274;0.5392101999605075;0.5514443999854848;0.6210132999694906;0.750659600016661;1.0595579000073485;0;0;1;0;0.01
7;1;3;30;letter357;letter181;congruent;0.04;letter181;0.05;0.07;fullmask;0.2;arrow_right.png;0.13;c;0.5277938999934122;0.5295954999746755;267892.7673447;3.100023604929447e-06;0.4995639000553638;0.5395765000139363;0.5515681000542827;0.621343600039836;0.7509953000117093;0.88163490005536;0;0;0;1;0.01
7;1;3;31;letter357;letter181;congruent;0.04;letter181;0.05;0.07;fullmask;0.2;arrow_right.png;0.13;m;0.6825258999597281;0.6901079999515787;267894.9033962;2.900022082030773e-06;0.5024341000244021;0.5424430000130087;0.5544747000094503;0.6241892999969423;0.7538413000293076;0.884489800024312;0;0;0;1;0.01
7;1;3;32;letter357;letter181;congruent;0.04;letter181;0.05;0.07;fullmask;0.2;arrow_right.png;0.13;m;0.27917140000499785;0.2803295000339858;267896.6314426;2.9999646358191967e-06;0.5046822999720462;0.5447111999965273;0.5567507999949157;0.626513299997896;0.7561653999728151;1.0350225999718532;0;0;1;0;0.01
7;1;3;33;letter357;letter181;congruent;0.04;letter181;0.05;0.07;fullmask;0.2;arrow_right.png;0.13;m;0.3759670999716036;0.37999379995744675;267898.6394399;2.900022082030773e-06;0.49773890001233667;0.5377459000446834;0.5497664000140503;0.6195554000441916;0.7492035000468604;0.8798550000065006;0;0;0;1;0.01
7;1;3;34;letter357;letter181;congruent;0.04;letter357;0.05;0.07;fullmask;0.2;arrow_left.png;0.13;c;0.42679840000346303;0.4298653000150807;267900.5113987;3.100023604929447e-06;0.5044327999930829;0.5444630000274628;0.5564124000375159;0.6261851000017487;0.755837100034114;0.8864870999823324;0;0;0;1;0.01
7;1;3;35;letter357;letter181;congruent;0.04;letter357;0.05;0.07;fullmask;0.2;arrow_left.png;0.13;c;0.47737650002818555;0.47985360003076494;267902.4233751;2.7999631129205227e-06;0.5003339999821037;0.5403508999734186;0.5525086999987252;0.6215729999821633;0.7519807000062428;0.8827115999883972;0;0;0;1;0.01
7;1;3;36;letter357;letter181;congruent;0.04;letter181;0.05;0.07;fullmask;0.2;arrow_right.png;0.13;m;0.5822574999765493;0.5905642000143416;267904.4393635;3.1999661587178707e-06;0.5013654999784194;0.5413921999861486;0.5534143999684602;0.6231864999863319;0.7527691000141203;0.8834988999878988;0;0;0;1;0.01
7;1;3;37;letter357;letter181;congruent;0.04;letter181;0.05;0.07;fullmask;0.2;arrow_right.png;0.13;m;0.5349050000077114;0.5397203000029549;267906.4234128;3.1999661587178707e-06;0.5001081000082195;0.5401214999728836;0.5522438999614678;0.6221532999770716;0.751711199991405;0.8823624000069685;0;0;0;1;0.01
7;1;3;38;letter357;letter181;congruent;0.04;letter357;0.05;0.07;fullmask;0.2;arrow_left.png;0.13;m;0.7156698000035249;0.7202396999928169;267908.5753331;3.100023604929447e-06;0.5008806000114419;0.5408917000168003;0.5528689000057057;0.6227953999768943;0.752443699981086;0.883092799980659;0;0;0;1;0.01
7;1;3;39;letter357;letter181;congruent;0.04;letter357;0.05;0.07;fullmask;0.2;arrow_left.png;0.13;m;0.2421551999868825;0.24939969996921718;267910.2633315;3.4999684430658817e-06;0.4988916000002064;0.5389192999573424;0.551014699973166;0.6209244999918155;0.7504870999837294;0.9992288000066765;0;0;1;0;0.01
7;1;3;40;letter357;letter181;congruent;0.04;letter181;0.05;0.07;fullmask;0.2;arrow_right.png;0.13;c;0.45502210000995547;0.4597973999916576;267912.3673346;2.900022082030773e-06;0.5038412999710999;0.5438548999954946;0.5558678000234067;0.6256391999777406;0.7553037999896333;0.8859547000029124;0;0;0;1;0.01
7;1;3;41;letter357;letter181;congruent;0.04;letter357;0.05;0.07;fullmask;0.2;arrow_left.png;0.13;c;0.5097564999596216;0.5194995999918319;267914.303516;3.200024366378784e-06;0.5010086999973282;0.5410380000248551;0.5532716999878176;0.6228273999877274;0.7524601999903098;0.8831119000096805;0;0;0;1;0.01
7;1;3;42;letter357;letter181;congruent;0.04;letter181;0.05;0.07;fullmask;0.2;arrow_right.png;0.13;c;0.3485452000168152;0.350081600015983;267916.1032991;2.7999631129205227e-06;0.5018523999606259;0.5418742999900132;0.5538300999905914;0.6236013000016101;0.7532596999662928;0.8839051999966614;0;0;0;1;0.01
7;1;3;43;letter357;letter181;congruent;0.04;letter181;0.05;0.07;fullmask;0.2;arrow_right.png;0.13;m;0.34339300001738593;0.3501070999773219;267917.8793228;3.2999669201672077e-06;0.4992560999817215;0.5392837999970652;0.5512663999688812;0.621058400021866;0.7507098999922164;0.8813717999728397;0;0;0;1;0.01
7;1;3;44;letter357;letter181;congruent;0.04;letter357;0.05;0.07;fullmask;0.2;arrow_left.png;0.13;c;0.14017229998717085;0.14961169997695833;267919.4473237;3.00002284348011e-06;0.49850980000337586;0.5385214000125416;0.550588299985975;0.620362900022883;0.7002010000287555;0.7002034999895841;0;1;0;0;0.01
7;1;3;45;letter357;letter181;congruent;0.04;letter357;0.05;0.07;fullmask;0.2;arrow_left.png;0.13;c;0.5601986999972723;0.5613977999892086;267921.4475422;3.0999653972685337e-06;0.5045300999772735;0.5445547999697737;0.5557872999925166;0.6266687999595888;0.75606709998101;0.8867202999535948;0;0;0;1;0.01
7;1;3;46;letter357;letter181;congruent;0.04;letter357;0.05;0.07;fullmask;0.2;arrow_left.png;0.13;c;0.37592969997785985;0.3799974999856204;267923.2553474;3.00002284348011e-06;0.5027854000218213;0.5428133999812417;0.5548122000182047;0.6245866999961436;0.7542375000193715;0.884888399974443;0;0;0;1;0.01
7;1;3;47;letter357;letter181;congruent;0.04;letter357;0.05;0.07;fullmask;0.2;arrow_left.png;0.13;m;0.35135840001748875;0.36010109999915585;267925.0713171;2.8999638743698597e-06;0.5030580000020564;0.5430566999712028;0.5544166999752633;0.6243338999920525;0.7548846999998204;0.8845402000006288;0;0;0;1;0.01
7;1;3;48;letter357;letter181;congruent;0.04;letter357;0.05;0.07;fullmask;0.2;arrow_left.png;0.13;c;0.44548420002683997;0.44976680004037917;267926.9673203;3.00002284348011e-06;0.5014373000012711;0.541456000006292;0.5535210000234656;0.6232535000308417;0.7529037000495009;0.8835524000460282;0;0;0;1;0.01
7;2;11;1;letter169;letter190;congruent;0.04;letter169;0.09;0.07;fullmask;0.3;arrow_left.png;0.13;c;0.38880689995130524;0.3899089999613352;269559.4779506;3.300025127828121e-06;0.49464610003633425;0.5346691000158899;0.5862982000107877;0.6560262000421062;0.8864024000358768;1.1750982000376098;0;0;1;0;0.01
7;2;11;2;letter169;letter190;congruent;0.04;letter169;0.09;0.07;fullmask;0.3;arrow_left.png;0.13;m;0.22723080002469942;0.22953730000881478;269561.398042;3.200024366378784e-06;0.4981364000122994;0.5381642000284046;0.5901006000349298;0.6598721000482328;0.8196387000498362;0.8196412000106648;0;1;0;0;0.01
7;2;11;3;letter169;letter190;congruent;0.04;letter169;0.09;0.07;fullmask;0.3;arrow_left.png;0.13;c;0.33403339999495074;0.34009199996944517;269563.4060069;2.9999646358191967e-06;0.49987509998027235;0.5398807000019588;0.5917644999572076;0.6615291999769397;0.8919124999665655;1.1302621999639086;0;0;1;0;0.01
7;2;11;4;letter169;letter190;congruent;0.04;letter169;0.09;0.07;fullmask;0.3;arrow_left.png;0.13;c;0.40287910000188276;0.41008629999123514;269565.4863096;2.8999638743698597e-06;0.502016199985519;0.5420290000038221;0.5940791000030003;0.6637384999776259;0.8941474999883212;1.2024654999841005;0;0;1;0;0.01
7;2;11;5;letter169;letter190;congruent;0.04;letter190;0.09;0.07;fullmask;0.3;arrow_right.png;0.13;m;0.23317179997684434;0.2402684999979101;269567.3979832;3.100023604929447e-06;0.4984919999842532;0.538509999983944;0.5905890000285581;0.6602469999925233;0.830850400030613;0.8308527999906801;0;1;0;0;0.01
7;2;11;6;letter169;letter190;congruent;0.04;letter190;0.09;0.07;fullmask;0.3;arrow_right.png;0.13;m;0.36020039999857545;0.3700265000225045;269569.2460078;2.8999638743698597e-06;0.5044831999693997;0.5444914999534376;0.5964396999916062;0.666212199954316;0.8965989999705926;1.1649043000070378;0;0;1;0;0.01
7;2;11;7;letter169;letter190;congruent;0.04;letter169;0.09;0.07;fullmask;0.3;arrow_left.png;0.13;c;0.39892469998449087;0.3999422999913804;269571.3259749;3.100023604929447e-06;0.49878500000340864;0.5388010000460781;0.5906676000449806;0.6604416000191122;0.8908206000342034;1.1892231000238098;0;0;1;0;0.01
7;2;11;8;letter169;letter190;congruent;0.04;letter169;0.09;0.07;fullmask;0.3;arrow_left.png;0.13;c;0.43148179998388514;0.43987589998869225;269573.4301657;2.900022082030773e-06;0.5024802000261843;0.5425141000305302;0.5946788000292145;0.6643814000417478;0.894763000018429;1.0244108000188135;0;0;0;1;0.01
7;2;11;9;letter169;letter190;congruent;0.04;letter190;0.09;0.07;fullmask;0.3;arrow_right.png;0.13;m;0.33403119997819886;0.3401043000048958;269575.2539359;3.00002284348011e-06;0.5018914000247605;0.5419056999962777;0.5940456999815069;0.663811500009615;0.894197300018277;1.1323126999777742;0;0;1;0;0.01
7;2;11;10;letter169;letter190;congruent;0.04;letter190;0.09;0.07;fullmask;0.3;arrow_right.png;0.13;m;0.3470089000184089;0.3500777999870479;269577.27798;2.800021320581436e-06;0.500107100000605;0.540129600034561;0.592035100038629;0.6618040000321344;0.8921890000347048;1.140518100000918;0;0;1;0;0.01
7;2;11;11;letter169;letter190;congruent;0.04;letter190;0.09;0.07;fullmask;0.3;arrow_right.png;0.13;m;0.4855641999747604;0.48975599999539554;269579.4379658;3.0999653972685337e-06;0.4961919999914244;0.5361973999533802;0.5882277999771759;0.6581388000049628;0.8884295999887399;1.0180867000017315;0;0;0;1;0.01
7;2;11;12;letter169;letter190;congruent;0.04;letter190;0.09;0.07;fullmask;0.3;arrow_right.png;0.13;m;0.26041729998541996;0.2703314999816939;269581.1741043;3.00002284348011e-06;0.5013107000268064;0.541345099976752;0.5933766000089236;0.6630788000184111;0.8637103000073694;0.8637183000100777;0;1;0;0;0.01
7;2;11;13;letter169;letter190;congruent;0.04;letter190;0.09;0.07;fullmask;0.3;arrow_right.png;0.13;m;0.2632704999996349;0.27029350004158914;269582.9180048;3.3999676816165447e-06;0.49878039996838197;0.5388002999825403;0.5907602999941446;0.6605338999652304;0.8610547999851406;0.8610572000034153;0;1;0;0;0.01
7;2;11;14;letter169;letter190;congruent;0.04;letter169;0.09;0.07;fullmask;0.3;arrow_left.png;0.13;c;0.41203330003190786;0.41994270001305267;269584.7979613;3.0999653972685337e-06;0.4987563999602571;0.5387773999827914;0.5908132999902591;0.6607201999868266;0.8910159000079148;1.2092395999934524;0;0;1;0;0.01
7;2;11;15;letter169;letter190;congruent;0.04;letter169;0.09;0.07;fullmask;0.3;arrow_left.png;0.13;c;0.4507727000163868;0.45983230002457276;269586.9180005;2.800021320581436e-06;0.49953190004453063;0.5395552000263706;0.5915328000555746;0.6614431000198238;0.8917363000218756;1.0213897000066936;0;0;0;1;0.01
7;2;11;16;letter169;letter190;congruent;0.04;letter190;0.09;0.07;fullmask;0.3;arrow_right.png;0.13;c;0.20544469996821135;0.2095032999641262;269588.613967;3.4999684430658817e-06;0.49976469995453954;0.5397953999927267;0.5918037999654189;0.6617182999616489;0.8013062999816611;0.8013088999432512;0;1;0;0;0.01
7;2;11;17;letter169;letter190;congruent;0.04;letter190;0.09;0.07;fullmask;0.3;arrow_right.png;0.13;m;0.3461712999851443;0.34984799998346716;269590.646015;3.300025127828121e-06;0.49878230004105717;0.5387853000429459;0.5909148000064306;0.6604491000180133;0.8908338000182994;1.1391969000105746;0;0;1;0;0.01
7;2;11;18;letter169;letter190;congruent;0.04;letter190;0.09;0.07;fullmask;0.3;arrow_right.png;0.13;m;0.2611062999931164;0.2702790999901481;269592.5820411;2.800021320581436e-06;0.4959000999806449;0.5359303000150248;0.5878165999893099;0.6575790999922901;0.8580964999855496;0.8580989000038244;0;1;0;0;0.01
7;2;11;19;letter169;letter190;congruent;0.04;letter169;0.09;0.07;fullmask;0.3;arrow_left.png;0.13;c;0.26965450000716373;0.27926909999223426;269594.3419676;2.8999638743698597e-06;0.49770989996613935;0.5377236999920569;0.5898662999970838;0.6596414999803528;0.869136499997694;0.8691390000167303;0;1;0;0;0.01
7;2;11;20;letter169;letter190;congruent;0.04;letter190;0.09;0.07;fullmask;0.3;arrow_right.png;0.13;m;0.284769999969285;0.2902786999475211;269596.1180966;2.7999631129205227e-06;0.4991036999854259;0.5391273999703117;0.5911384999635629;0.6608203999930993;0.8814203999936581;0.8814283999963664;0;1;0;0;0.01
7;2;11;21;letter169;letter190;congruent;0.04;letter190;0.09;0.07;fullmask;0.3;arrow_right.png;0.13;m;0.24963750003371388;0.2505164000322111;269597.8540956;3.00002284348011e-06;0.4950498000252992;0.5350643999991007;0.5870581000344828;0.6569791000219993;0.8375828000134788;0.8375909000169486;0;1;0;0;0.01
7;2;11;22;letter169;letter190;congruent;0.04;letter169;0.09;0.07;fullmask;0.3;arrow_left.png;0.13;m;0.2445307999732904;0.25035380001645535;269599.5899857;3.100023604929447e-06;0.4957299000234343;0.5357383000082336;0.587600700033363;0.6573772000265308;0.8379550999961793;0.8379575000144541;0;1;0;0;0.01
7;2;11;23;letter169;letter190;congruent;0.04;letter169;0.09;0.07;fullmask;0.3;arrow_left.png;0.13;c;0.35111279995180666;0.3600485999486409;269601.6378927;3.100023604929447e-06;0.5022203999687918;0.5422446000156924;0.5941684999852441;0.6639342000125907;0.8943179000052623;1.152637200022582;0;0;1;0;0.01
7;2;11;24;letter169;letter190;congruent;0.04;letter169;0.09;0.07;fullmask;0.3;arrow_left.png;0.13;c;0.29222800000570714;0.30033840000396594;269603.630241;2.900022082030773e-06;0.4977179000270553;0.5377261000103317;0.5895688000018708;0.6593358999816701;0.8899096000241116;0.8899177000275813;0;1;0;0;0.01
7;2;11;25;letter169;letter190;congruent;0.04;letter190;0.09;0.07;fullmask;0.3;arrow_right.png;0.13;m;0.3028544000117108;0.31022159999702126;269605.4222426;3.500026650726795e-06;0.4948749000323005;0.5348977000103332;0.586942900030408;0.6566203000256792;0.8870189000153914;1.0952475999947637;0;0;1;0;0.01
7;2;11;26;letter169;letter190;congruent;0.04;letter169;0.09;0.07;fullmask;0.3;arrow_left.png;0.13;c;0.22947040002327412;0.23040100000798702;269607.3500044;3.00002284348011e-06;0.4957971000112593;0.5358014000230469;0.5877000000327826;0.6574732000008225;0.8181020000483841;0.8181045000092126;0;1;0;0;0.01
7;2;11;27;letter169;letter190;congruent;0.04;letter190;0.09;0.07;fullmask;0.3;arrow_right.png;0.13;m;0.24832939996849746;0.25034429994411767;269609.0699605;3.00002284348011e-06;0.500160199997481;0.5401850999915041;0.5920844000065699;0.6618562000221573;0.8424295000149868;0.8424324000370689;0;1;0;0;0.01
7;2;11;28;letter169;letter190;congruent;0.04;letter169;0.09;0.07;fullmask;0.3;arrow_left.png;0.13;c;0.3091912000090815;0.31022560002747923;269610.8620588;3.1999661587178707e-06;0.5039561999728903;0.54399709997233;0.5959982999484055;0.6658978999475949;0.8961735999910161;1.1043520999955945;0;0;1;0;0.01
7;2;11;29;letter169;letter190;congruent;0.04;letter169;0.09;0.07;fullmask;0.3;arrow_left.png;0.13;c;0.43578409997280687;0.4398877999628894;269612.9899378;2.700020559132099e-06;0.5001113999751396;0.540114099974744;0.5921199999866076;0.6620319000212476;0.8923279999871738;1.0219764999928884;0;0;0;1;0.01
7;2;11;30;letter169;letter190;congruent;0.04;letter190;0.09;0.07;fullmask;0.3;arrow_right.png;0.13;m;0.2806599999894388;0.2902190000168048;269614.7659838;3.200024366378784e-06;0.5020054000196978;0.5420163000235334;0.5939470999874175;0.6637198000098579;0.8841670000110753;0.8841694000293501;0;1;0;0;0.01
7;2;11;31;letter169;letter190;congruent;0.04;letter190;0.09;0.07;fullmask;0.3;arrow_right.png;0.13;m;0.3355129000265151;0.3401100999908522;269616.5819337;2.900022082030773e-06;0.5000591999851167;0.540093399991747;0.5919563000206836;0.6617311000009067;0.892113599984441;1.1304754000157118;0;0;1;0;0.01
7;2;11;32;letter169;letter190;congruent;0.04;letter169;0.09;0.07;fullmask;0.3;arrow_left.png;0.13;c;0.37619540002197027;0.380035099980887;269618.654012;3.1999661587178707e-06;0.500904599961359;0.5409213999519125;0.5928764999844134;0.6625784999923781;0.8929428999545053;1.1713317999965511;0;0;1;0;0.01
7;2;11;33;letter169;letter190;congruent;0.04;letter169;0.09;0.07;fullmask;0.3;arrow_left.png;0.13;c;0.22888519999105483;0.23040120000950992;269620.5579797;3.00002284348011e-06;0.49860390002140775;0.5386275000055321;0.590529500041157;0.6603052000282332;0.8209317000000738;0.8209343000198714;0;1;0;0;0.01
7;2;11;34;letter169;letter190;congruent;0.04;letter190;0.09;0.07;fullmask;0.3;arrow_right.png;0.13;m;0.3277706999797374;0.33013379998737946;269622.357939;2.900022082030773e-06;0.5032473999890499;0.5432562999776565;0.5951401999918744;0.6649122000089847;0.895296500006225;1.1236318000010215;0;0;1;0;0.01
7;2;11;35;letter169;letter190;congruent;0.04;letter169;0.09;0.07;fullmask;0.3;arrow_left.png;0.13;c;0.49246219999622554;0.4996809999574907;269624.5339583;2.8999638743698597e-06;0.5038276999839582;0.5438547999947332;0.5957487999694422;0.6655220999964513;0.8959053999860771;1.0255649999598972;0;0;0;1;0.01
7;2;11;36;letter169;letter190;congruent;0.04;letter190;0.09;0.07;fullmask;0.3;arrow_right.png;0.13;m;0.409036599972751;0.4098077999660745;269626.4219105;3.0999653972685337e-06;0.5017733999993652;0.5417840000009164;0.5937927999766544;0.6634527000132948;0.8938355999998748;1.2022235000040382;0;0;1;0;0.01
7;2;11;37;letter169;letter190;congruent;0.04;letter169;0.09;0.07;fullmask;0.3;arrow_left.png;0.13;c;0.2898686000262387;0.29006830003345385;269628.3740598;3.0999653972685337e-06;0.4995866999961436;0.5395748000009917;0.591554399987217;0.6612335999961942;0.8816219999571331;0.8816245999769308;0;1;0;0;0.01
7;2;11;38;letter169;letter190;congruent;0.04;letter169;0.09;0.07;fullmask;0.3;arrow_left.png;0.13;c;0.3584699999773875;0.35996419994626194;269630.2139039;2.9999646358191967e-06;0.4966897999984212;0.5367145999916829;0.5887860999791883;0.6585547999711707;0.8888496999861673;1.1471034999703988;0;0;1;0;0.01
7;2;11;39;letter169;letter190;congruent;0.04;letter190;0.09;0.07;fullmask;0.3;arrow_right.png;0.13;m;0.38363029999891296;0.3899733999860473;269632.2699274;3.00002284348011e-06;0.4996347000123933;0.539654599968344;0.5912819000077434;0.6610560999833979;0.8914402999798767;1.1800788000109605;0;0;1;0;0.01
7;2;11;40;letter169;letter190;congruent;0.04;letter190;0.09;0.07;fullmask;0.3;arrow_right.png;0.13;m;0.4260964000131935;0.42986620002193376;269634.3739221;2.900022082030773e-06;0.4942099000327289;0.5342106000171043;0.5860398000222631;0.6558117000386119;0.8861962000373751;1.2146635000244714;0;0;1;0;0.01
7;2;11;41;letter169;letter190;congruent;0.04;letter169;0.09;0.07;fullmask;0.3;arrow_left.png;0.13;c;0.5184051000396721;0.5196743000415154;269636.5578862;2.700020559132099e-06;0.49763050000183284;0.5376560000004247;0.5897720000357367;0.6595857000211254;0.8899679000023752;1.0196056000422686;0;0;0;1;0.01
7;2;11;42;letter169;letter190;congruent;0.04;letter190;0.09;0.07;fullmask;0.3;arrow_right.png;0.13;m;0.3873699000105262;0.3899698000168428;269638.4379151;3.0999653972685337e-06;0.5022304999874905;0.5422585000051185;0.5941177999484353;0.6638905999716371;0.89427369995974;1.1826731999753974;0;0;1;0;0.01
7;2;11;43;letter169;letter190;congruent;0.04;letter190;0.09;0.07;fullmask;0.3;arrow_right.png;0.13;m;0.40600049996282905;0.40991079999366775;269640.5179222;2.800021320581436e-06;0.49661380000179633;0.5366299000452273;0.5885432999930345;0.658306099998299;0.8886901999940164;1.1970679000369273;0;0;1;0;0.01
7;2;11;44;letter169;letter190;congruent;0.04;letter190;0.09;0.07;fullmask;0.3;arrow_right.png;0.13;m;0.25283770001260564;0.26035509997745976;269642.4461925;3.2999669201672077e-06;0.4949072999879718;0.5349145999643952;0.5869223999907263;0.6565963999601081;0.847280599991791;0.8472883999929763;0;1;0;0;0.01
7;2;11;45;letter169;letter190;congruent;0.04;letter169;0.09;0.07;fullmask;0.3;arrow_left.png;0.13;m;0.6115523000480607;0.6202796000288799;269644.525917;2.7999631129205227e-06;0.4986843999940902;0.5386898999568075;0.5905958999646828;0.6602724999538623;0.8906582999625243;1.0203161999816075;0;0;0;1;0.01
7;2;11;46;letter169;letter190;congruent;0.04;letter169;0.09;0.07;fullmask;0.3;arrow_left.png;0.13;c;0.43019270000513643;0.43984100001398474;269646.6460163;3.300025127828121e-06;0.5027756000054069;0.5427898000343703;0.5946494999807328;0.6644228000077419;0.8948068000026979;1.0244624000042677;0;0;0;1;0.01
7;2;11;47;letter169;letter190;congruent;0.04;letter190;0.09;0.07;fullmask;0.3;arrow_right.png;0.13;c;0.28864049998810515;0.2901520000305027;269648.4059267;2.800021320581436e-06;0.5009577000164427;0.5409662000020035;0.593054500001017;0.6627334000077099;0.8832055000239052;0.8832080000429414;0;1;0;0;0.01
7;2;11;48;letter169;letter190;congruent;0.04;letter169;0.09;0.07;fullmask;0.3;arrow_left.png;0.13;c;0.353517199982889;0.3599472999922;269650.4221128;2.900022082030773e-06;0.5013507000403479;0.5413860999979079;0.5935204999987036;0.6630743000423536;0.8934543000068516;1.1517743000295013;0;0;1;0;0.01
7;2;12;1;letter169;letter190;congruent;0.04;letter169;0.09;0.07;fullmask;0.25;arrow_left.png;0.13;c;0.45822380000026897;0.4598245000233874;269655.9898997;3.200024366378784e-06;0.5042364000109956;0.5442562000243925;0.5959392000222579;0.6657451000064611;0.8462629000423476;0.9759152000187896;0;0;0;1;0.01
7;2;12;2;letter169;letter190;congruent;0.04;letter169;0.09;0.07;fullmask;0.25;arrow_left.png;0.13;c;0.22078829997917637;0.2304016999551095;269657.6939436;3.00002284348011e-06;0.49546449998160824;0.5354832999873906;0.5873801999841817;0.657154000014998;0.8177829000051133;0.8177853000233881;0;1;0;0;0.01
7;2;12;3;letter169;letter190;congruent;0.04;letter190;0.09;0.07;fullmask;0.25;arrow_right.png;0.13;m;0.35962859995197505;0.3599203999619931;269659.5340145;3.00002284348011e-06;0.5045270000118762;0.544548699981533;0.5965842999867164;0.6662392999860458;0.8467357999761589;1.154957499995362;0;0;1;0;0.01
7;2;12;4;letter169;letter190;congruent;0.04;letter169;0.09;0.07;fullmask;0.25;arrow_left.png;0.13;c;0.29238769999938086;0.30021379998652264;269661.5179126;3.00002284348011e-06;0.5041913000168279;0.5442120000370778;0.5960510000004433;0.6658271999913268;0.8463449000264518;1.094568900007289;0;0;1;0;0.01
7;2;12;5;letter169;letter190;congruent;0.04;letter169;0.09;0.07;fullmask;0.25;arrow_left.png;0.13;c;0.3550039000110701;0.36005289998138323;269663.541893;2.8999638743698597e-06;0.4986377999885008;0.538645299966447;0.5905794999562204;0.6603510999702848;0.8408679999993183;1.14904349995777;0;0;1;0;0.01
7;2;12;6;letter169;letter190;congruent;0.04;letter190;0.09;0.07;fullmask;0.25;arrow_right.png;0.13;m;0.26175659999717027;0.27029010001569986;269665.4698978;3.1999661587178707e-06;0.5014532000059262;0.5414828999782912;0.5933484999695793;0.6631156000075862;0.8436367000103928;1.0618171999813057;0;0;1;0;0.01
7;2;12;7;letter169;letter190;congruent;0.04;letter190;0.09;0.07;fullmask;0.25;arrow_right.png;0.13;m;0.28246080002281815;0.29027290001977235;269667.4220532;2.900022082030773e-06;0.4984532000380568;0.5384689000202343;0.5905574000207707;0.6602580000180751;0.8407703000120819;1.0788247000309639;0;0;1;0;0.01
7;2;12;8;letter169;letter190;congruent;0.04;letter169;0.09;0.07;fullmask;0.25;arrow_left.png;0.13;c;0.30723800003761426;0.31018510001013055;269669.3979359;2.900022082030773e-06;0.5008723000064492;0.5409010999719612;0.5928177000023425;0.6625883000087924;0.8431057999841869;1.1012623999849893;0;0;1;0;0.01
7;2;12;9;letter169;letter190;congruent;0.04;letter190;0.09;0.07;fullmask;0.25;arrow_right.png;0.13;m;2.943816200015135;2.951171200023964;269674.0058621;2.8999638743698597e-06;0.49791299999924377;0.5379308999981731;0.5899272999959067;0.6598381999647245;0.8392648999579251;0.9699155999696814;0;0;0;1;0.01
7;2;12;10;letter169;letter190;congruent;0.04;letter190;0.09;0.07;fullmask;0.25;arrow_right.png;0.13;m;0.36939589999383315;0.36998909997055307;269675.8540008;2.900022082030773e-06;0.5008560999995098;0.5408670000033453;0.5925549000385217;0.662280999997165;0.8427620000438765;1.161294599995017;0;0;1;0;0.01
7;2;12;11;letter169;letter190;congruent;0.04;letter169;0.09;0.07;fullmask;0.25;arrow_left.png;0.13;c;0.35174320003716275;0.36005260003730655;269677.877893;3.00002284348011e-06;0.49871399998664856;0.5387365000206046;0.5906402000109665;0.6604106000158936;0.8409281999920495;1.1491380999796093;0;0;1;0;0.01
7;2;12;12;letter169;letter190;congruent;0.04;letter190;0.09;0.07;fullmask;0.25;arrow_right.png;0.13;m;0.22443820000626147;0.23040090000722557;269679.7818751;3.200024366378784e-06;0.497839700023178;0.5378622999996878;0.5897327000275254;0.6595048000453971;0.8201347000431269;0.8201372000039555;0;1;0;0;0.01
7;2;12;13;letter169;letter190;congruent;0.04;letter190;0.09;0.07;fullmask;0.25;arrow_right.png;0.13;m;0.339288100018166;0.3402502000099048;269681.5979644;3.00002284348011e-06;0.49998319998849183;0.5400037000072189;0.5920122999814339;0.6619243000168353;0.841447499988135;1.1303826000075787;0;0;1;0;0.01
7;2;12;14;letter169;letter190;congruent;0.04;letter169;0.09;0.07;fullmask;0.25;arrow_left.png;0.13;c;0.2098944000317715;0.2193352000322193;269683.4698897;2.8999638743698597e-06;0.49528540001483634;0.535307299986016;0.5873281999956816;0.6570046999840997;0.8066624999628402;0.8066650999826379;0;1;0;0;0.01
7;2;12;15;letter169;letter190;congruent;0.04;letter169;0.09;0.07;fullmask;0.25;arrow_left.png;0.13;m;0.26491040003020316;0.27044680004473776;269685.2059627;2.6999623514711857e-06;0.5022993999882601;0.5423128000111319;0.5943167000077665;0.66422470001271;0.8446483999723569;1.062649599974975;0;0;1;0;0.01
7;2;12;16;letter169;letter190;congruent;0.04;letter190;0.09;0.07;fullmask;0.25;arrow_right.png;0.13;m;0.5075258000288159;0.50964030000614;269687.5898749;2.8999638743698597e-06;0.49785819998942316;0.5378853000001982;0.5897803999832831;0.6595533000072464;0.8400707999826409;0.9697134000016376;0;0;0;1;0.01
7;2;12;17;letter169;letter190;congruent;0.04;letter190;0.09;0.07;fullmask;0.25;arrow_right.png;0.13;m;0.4003610999789089;0.4104406999540515;269689.4540042;2.900022082030773e-06;0.49721140001202;0.5372271999949589;0.5891567000071518;0.6590681999805383;0.8394944000174291;0.9691478000022471;0;0;0;1;0.01
7;2;12;18;letter169;letter190;congruent;0.04;letter190;0.09;0.07;fullmask;0.25;arrow_right.png;0.13;m;0.38305609999224544;0.38996990001760423;269691.3179019;2.7999631129205227e-06;0.4997709000017494;0.5397770999697968;0.5916855999967083;0.6614718000055291;0.8420146999997087;0.9716224999865517;0;0;0;1;0.01
7;2;12;19;letter169;letter190;congruent;0.04;letter169;0.09;0.07;fullmask;0.25;arrow_left.png;0.13;c;0.4317819999996573;0.4398636999540031;269693.2379396;3.00002284348011e-06;0.5038556000217795;0.543868700042367;0.5958901999983937;0.6656784000224434;0.8461925000301562;0.9758512999978848;0;0;0;1;0.01
7;2;12;20;letter169;letter190;congruent;0.04;letter169;0.09;0.07;fullmask;0.25;arrow_left.png;0.13;c;0.3985619000159204;0.39994919998571277;269695.1258977;3.00002284348011e-06;0.49487629998475313;0.5348861999809742;0.5868278999696486;0.6566004999913275;0.8371168000157923;0.9667698999983259;0;0;0;1;0.01
7;2;12;21;letter169;letter190;congruent;0.04;letter169;0.09;0.07;fullmask;0.25;arrow_left.png;0.13;c;0.2531777000403963;0.2593213000218384;269696.8618621;2.8999638743698597e-06;0.4962369999848306;0.5362902999622747;0.5883583999820985;0.6581311000045389;0.8376511999522336;1.046626599971205;0;0;1;0;0.01
7;2;12;22;letter169;letter190;congruent;0.04;letter169;0.09;0.07;fullmask;0.25;arrow_left.png;0.13;c;0.3901884999941103;0.400609300006181;269698.9498899;3.400025889277458e-06;0.5039680000045337;0.5439731000224128;0.5958024000283331;0.6655756999971345;0.8460958999930881;0.9757526000030339;0;0;0;1;0.01
7;2;12;23;letter169;letter190;congruent;0.04;letter190;0.09;0.07;fullmask;0.25;arrow_right.png;0.13;c;0.27109529997687787;0.28038110001944005;269700.7020511;3.200024366378784e-06;0.4970659000100568;0.537077400018461;0.5889443000196479;0.6587386999744922;0.8392464999924414;1.0674284999840893;0;0;1;0;0.01
7;2;12;24;letter169;letter190;congruent;0.04;letter190;0.09;0.07;fullmask;0.25;arrow_right.png;0.13;m;0.4614686000277288;0.46971770003437996;269703.0538699;2.900022082030773e-06;0.5045377000351436;0.5445458000176586;0.596464800008107;0.666195500001777;0.8467128000338562;0.9763666000217199;0;0;0;1;0.01
7;2;12;25;letter169;letter190;congruent;0.04;letter169;0.09;0.07;fullmask;0.25;arrow_left.png;0.13;c;0.30420280003454536;0.3101834000553936;269704.8378723;2.800021320581436e-06;0.49997379997512326;0.5399723000009544;0.5918914999929257;0.661661299993284;0.8421787000261247;1.1003268000204116;0;0;1;0;0.01
7;2;12;26;letter169;letter190;congruent;0.04;letter190;0.09;0.07;fullmask;0.25;arrow_right.png;0.13;m;0.4588982999557629;0.4597776999580674;269706.9738537;2.6999623514711857e-06;0.4966274999896996;0.5366455999901518;0.5885777999646962;0.6583425999851897;0.8388791999896057;0.9685123999952339;0;0;0;1;0.01
7;2;12;27;letter169;letter190;congruent;0.04;letter190;0.09;0.07;fullmask;0.25;arrow_right.png;0.13;m;0.3356402000063099;0.3401455999701284;269708.7818949;2.900022082030773e-06;0.4964982000528835;0.5365294000366703;0.5884902999969199;0.658174600044731;0.8387127000023611;1.1269037000020035;0;0;1;0;0.01
7;2;12;28;letter169;letter190;congruent;0.04;letter190;0.09;0.07;fullmask;0.25;arrow_right.png;0.13;m;0.2463877000263892;0.2503429999924265;269710.6938319;3.100023604929447e-06;0.5014116000384092;0.5414217000361532;0.5932952000293881;0.6630683999974281;0.843639200029429;0.8436415999894962;0;1;0;0;0.01
7;2;12;29;letter169;letter190;congruent;0.04;letter169;0.09;0.07;fullmask;0.25;arrow_left.png;0.13;c;0.46320179995382205;0.46979979996103793;269712.6218633;3.00002284348011e-06;0.5021436000242829;0.5421647999901325;0.5941425000200979;0.664202900021337;0.8434744999976829;0.9741255000117235;0;0;0;1;0.01
7;2;12;30;letter169;letter190;congruent;0.04;letter169;0.09;0.07;fullmask;0.25;arrow_left.png;0.13;c;0.6900852000107989;0.690323700022418;269714.7899632;2.700020559132099e-06;0.5041465000249445;0.5441533999983221;0.5960978000075556;0.6660161000327207;0.8455357999773696;0.976166500011459;0;0;0;1;0.01
7;2;12;31;letter169;letter190;congruent;0.04;letter190;0.09;0.07;fullmask;0.25;arrow_right.png;0.13;m;0.19851700001163408;0.19953090004855767;269716.4698492;2.900022082030773e-06;0.5019649000023492;0.5419767000130378;0.5939669000217691;0.6638781999936327;0.7934973000083119;0.7934998000273481;0;1;0;0;0.01
7;2;12;32;letter169;letter190;congruent;0.04;letter190;0.09;0.07;fullmask;0.25;arrow_right.png;0.13;m;0.28942669997923076;0.29028920002747327;269718.2218506;3.00002284348011e-06;0.4964328000205569;0.5364533000392839;0.5884514999925159;0.6583576000411995;0.8377887000096962;1.0768160000443459;0;0;1;0;0.01
7;2;12;33;letter169;letter190;congruent;0.04;letter190;0.09;0.07;fullmask;0.25;arrow_right.png;0.13;m;0.2282744999974966;0.23039699997752905;269720.1418438;3.00002284348011e-06;0.502105500025209;0.5421277999994345;0.593980300007388;0.663751800020691;0.8243784999940544;0.8243810000130907;0;1;0;0;0.01
7;2;12;34;letter169;letter190;congruent;0.04;letter169;0.09;0.07;fullmask;0.25;arrow_left.png;0.13;c;0.37712440005270764;0.37998440000228584;269721.9818555;2.9999646358191967e-06;0.5006942999898456;0.5407336999778636;0.5926452999701723;0.6624040000024252;0.8429142999812029;1.1711451999726705;0;0;1;0;0.01
7;2;12;35;letter169;letter190;congruent;0.04;letter169;0.09;0.07;fullmask;0.25;arrow_left.png;0.13;c;0.3075988999917172;0.31023040000582114;269723.9739397;2.900022082030773e-06;0.4956370000145398;0.5356298999977298;0.5878468000446446;0.6575517000164837;0.8370674000470899;1.0960269000497647;0;0;1;0;0.01
7;2;12;36;letter169;letter190;congruent;0.04;letter169;0.09;0.07;fullmask;0.25;arrow_left.png;0.13;c;0.28652289998717606;0.29023859999142587;269725.9338458;3.00002284348011e-06;0.4981671000132337;0.5381942000240088;0.5900884000002407;0.6598619000287727;0.8403789000003599;1.0785527999978513;0;0;1;0;0.01
7;2;12;37;letter169;letter190;congruent;0.04;letter190;0.09;0.07;fullmask;0.25;arrow_right.png;0.13;c;0.2812679000198841;0.29024800000479445;269727.9098878;3.100023604929447e-06;0.4980389000265859;0.5380581000354141;0.5899679000140168;0.6597413000417873;0.8402576000080444;1.0784079000004567;0;0;1;0;0.01
7;2;12;38;letter169;letter190;congruent;0.04;letter190;0.09;0.07;fullmask;0.25;arrow_right.png;0.13;m;0.4718326000147499;0.47973159997491166;269730.2618438;3.00002284348011e-06;0.49962660000892356;0.5396369000081904;0.5915374999749474;0.6613115000072867;0.8418489000177942;0.9714796000043862;0;0;0;1;0.01
7;2;12;39;letter169;letter190;congruent;0.04;letter169;0.09;0.07;fullmask;0.25;arrow_left.png;0.13;m;0.43120940000517294;0.4407562999986112;269732.1819756;3.300025127828121e-06;0.49939690000610426;0.539432100020349;0.5908040000358596;0.6615028000087477;0.8409994000103325;0.971647700003814;0;0;0;1;0.01
7;2;12;40;letter169;letter190;congruent;0.04;letter169;0.09;0.07;fullmask;0.25;arrow_left.png;0.13;c;0.3351602000184357;0.34010510001098737;269734.1978225;2.800021320581436e-06;0.4977995000081137;0.5378180000116117;0.5897329000290483;0.6595106000313535;0.8400232000276446;1.128218800004106;0;0;1;0;0.01
7;2;12;41;letter169;letter190;congruent;0.04;letter190;0.09;0.07;fullmask;0.25;arrow_right.png;0.13;m;0.26591029996052384;0.2702922999742441;269736.1498343;3.00002284348011e-06;0.500947599997744;0.5409848000272177;0.5928324999986216;0.6626076999818906;0.8431221999926493;1.0613169000134803;0;0;1;0;0.01
7;2;12;42;letter169;letter190;congruent;0.04;letter169;0.09;0.07;fullmask;0.25;arrow_left.png;0.13;c;0.378659299982246;0.3799850999494083;269738.2139505;2.8999638743698597e-06;0.5030853999778628;0.5431076000095345;0.5950846999767236;0.6647385999676771;0.8451835999730974;1.1735153999761678;0;0;1;0;0.01
7;2;12;43;letter169;letter190;congruent;0.04;letter169;0.09;0.07;fullmask;0.25;arrow_left.png;0.13;c;0.3732923000352457;0.37999950000084937;269740.2698931;2.9999646358191967e-06;0.4998063999810256;0.5398320999811403;0.5917674999800511;0.6615410999511369;0.8420600999961607;1.1702537999954075;0;0;1;0;0.01
7;2;12;44;letter169;letter190;congruent;0.04;letter190;0.09;0.07;fullmask;0.25;arrow_right.png;0.13;m;0.338610399980098;0.3411026999820024;269742.2858427;2.900022082030773e-06;0.49717640003655106;0.5371882000472397;0.588422000000719;0.6591975000337698;0.838712900003884;1.1275607999996282;0;0;1;0;0.01
7;2;12;45;letter169;letter190;congruent;0.04;letter169;0.09;0.07;fullmask;0.25;arrow_left.png;0.13;c;0.34662460000254214;0.35005870001623407;269744.325856;2.9999646358191967e-06;0.5044572000042535;0.5444807999883778;0.5964048999594525;0.6661867999937385;0.8466730999643914;1.144873599987477;0;0;1;0;0.01
7;2;12;46;letter169;letter190;congruent;0.04;letter190;0.09;0.07;fullmask;0.25;arrow_right.png;0.13;m;0.27730630000587553;0.2802998999832198;269746.2779043;3.00002284348011e-06;0.4961899000336416;0.5362136000185274;0.5882144999923185;0.6579104000120424;0.8384113000356592;1.0665787000325508;0;0;1;0;0.01
7;2;12;47;letter169;letter190;congruent;0.04;letter190;0.09;0.07;fullmask;0.25;arrow_right.png;0.13;m;0.5239935999852605;0.530598099983763;269748.4857961;3.200024366378784e-06;0.5020946000004187;0.5420939000323415;0.5940145999775268;0.6637932999874465;0.8443072999943979;0.9739630999974906;0;0;0;1;0.01
7;2;12;48;letter169;letter190;congruent;0.04;letter169;0.09;0.07;fullmask;0.25;arrow_left.png;0.13;c;0.26737279997905716;0.27028990001417696;269750.2298867;2.9999646358191967e-06;0.49563739995937794;0.5356562999659218;0.586987099959515;0.657756700005848;0.8372785999672487;1.05600380001124;0;0;1;0;0.01
7;2;13;1;letter169;letter190;congruent;0.04;letter190;0.09;0.07;fullmask;0.2;arrow_right.png;0.13;m;2.205068300012499;2.21111800003564;269853.4137332;2.7999631129205227e-06;0.49588579998817295;0.535900299961213;0.5877946999971755;0.657602199993562;0.7872539999661967;0.9179040999733843;0;0;0;1;0.01
7;2;13;2;letter169;letter190;congruent;0.04;letter169;0.09;0.07;fullmask;0.2;arrow_left.png;0.13;c;0.24461190000874922;0.25035400001797825;269855.125824;2.800021320581436e-06;0.5008952000061981;0.5409143000142649;0.5929717000108212;0.6627369999769144;0.792297400010284;1.0412430000142194;0;0;1;0;0.01
7;2;13;3;letter169;letter190;congruent;0.04;letter169;0.09;0.07;fullmask;0.2;arrow_left.png;0.13;c;0.3614668999798596;0.37002480000955984;269857.173753;2.8999638743698597e-06;0.49486390000674874;0.5348775999736972;0.5867557000019588;0.65652829996543;0.7861810000031255;0.9168330999673344;0;0;0;1;0.01
7;2;13;4;letter169;letter190;congruent;0.04;letter169;0.09;0.07;fullmask;0.2;arrow_left.png;0.13;c;0.31424380000680685;0.3202080000191927;269858.9577412;2.900022082030773e-06;0.4966904000029899;0.536703200021293;0.588615300017409;0.6583486999734305;0.7880862000165507;1.1070890999981202;0;0;1;0;0.01
7;2;13;5;letter169;letter190;congruent;0.04;letter190;0.09;0.07;fullmask;0.2;arrow_right.png;0.13;m;0.2509734999621287;0.2605872999993153;269860.8857747;3.100023604929447e-06;0.5006917000282556;0.5407079000142403;0.5926189000019804;0.662533400056418;0.7921958000515588;1.0510459000361152;0;0;1;0;0.01
7;2;13;6;letter169;letter190;congruent;0.04;letter190;0.09;0.07;fullmask;0.2;arrow_right.png;0.13;m;0.3117430000565946;0.3201729000429623;269862.8778856;3.1999661587178707e-06;0.5032624999876134;0.5432755000074394;0.5952920999843627;0.6649470999836922;0.7956119999871589;1.1136672999709845;0;0;1;0;0.01
7;2;13;7;letter169;letter190;congruent;0.04;letter169;0.09;0.07;fullmask;0.2;arrow_left.png;0.13;c;0.24693079997086897;0.25034369999775663;269864.8137426;2.900022082030773e-06;0.5025283000431955;0.542536300024949;0.5939163000439294;0.6646850000252016;0.794337400002405;1.0428701000055298;0;0;1;0;0.01
7;2;13;8;letter169;letter190;congruent;0.04;letter190;0.09;0.07;fullmask;0.2;arrow_right.png;0.13;m;0.25923650001641363;0.2603209000080824;269866.7578377;2.8999638743698597e-06;0.4953813999891281;0.5354026000131853;0.5873152000131086;0.6570941999671049;0.7867407000157982;1.0457133000018075;0;0;1;0;0.01
7;2;13;9;letter169;letter190;congruent;0.04;letter190;0.09;0.07;fullmask;0.2;arrow_right.png;0.13;m;0.3402582999551669;0.3500572999473661;269868.789748;3.500026650726795e-06;0.5033686999813654;0.5433926000259817;0.5949336999910884;0.6647038999944925;0.7953368999878876;0.9249911999795586;0;0;0;1;0.01
7;2;13;10;letter169;letter190;congruent;0.04;letter169;0.09;0.07;fullmask;0.2;arrow_left.png;0.13;c;0.25879200000781566;0.26026210002601147;269870.549908;2.900022082030773e-06;0.5034532999852672;0.5434718999895267;0.5954614999936894;0.6651265000109561;0.7957999000209384;1.0538247000076808;0;0;1;0;0.01
7;2;13;11;letter169;letter190;congruent;0.04;letter169;0.09;0.07;fullmask;0.2;arrow_left.png;0.13;c;0.2941129000391811;0.3002134000416845;269872.525734;3.100023604929447e-06;0.5035880000214092;0.5436085999826901;0.5948212000075728;0.6655917000025511;0.7952414000174031;1.0939581000129692;0;0;1;0;0.01
7;2;13;12;letter169;letter190;congruent;0.04;letter190;0.09;0.07;fullmask;0.2;arrow_right.png;0.13;c;0.40995329996803775;0.41980019997572526;269874.6137215;2.900022082030773e-06;0.5045045000151731;0.5445225000148639;0.596608699997887;0.6661997000337578;0.795938000024762;0.9265887000365183;0;0;0;1;0.01
7;2;13;13;letter169;letter190;congruent;0.04;letter169;0.09;0.07;fullmask;0.2;arrow_left.png;0.13;c;0.4189243000000715;0.4198896000161767;269876.5338005;3.100023604929447e-06;0.5034021000028588;0.543421300011687;0.5953863000031561;0.665159699972719;0.7948162999819033;0.9254937000223435;0;0;0;1;0.01
7;2;13;14;letter169;letter190;congruent;0.04;letter169;0.09;0.07;fullmask;0.2;arrow_left.png;0.13;c;0.369766800024081;0.369925000006333;269878.3658606;3.100023604929447e-06;0.5011184000177309;0.541134700004477;0.593111400026828;0.6627877000137232;0.7934540000278503;0.9231077000149526;0;0;0;1;0.01
7;2;13;15;letter169;letter190;congruent;0.04;letter190;0.09;0.07;fullmask;0.2;arrow_right.png;0.13;c;0.16846100002294406;0.16956920002121478;269880.0057132;3.00002284348011e-06;0.4954600000055507;0.5354924999992363;0.587418700044509;0.6571922000148334;0.7569890000158921;0.7569915000349283;0;1;0;0;0.01
7;2;13;16;letter169;letter190;congruent;0.04;letter169;0.09;0.07;fullmask;0.2;arrow_left.png;0.13;c;0.443440799950622;0.4497065999894403;269881.9417551;3.0999653972685337e-06;0.5019042000058107;0.541940099967178;0.5938319999841042;0.6636047000065446;0.7932601000065915;0.9239081999985501;0;0;0;1;0.01
7;2;13;17;letter169;letter190;congruent;0.04;letter169;0.09;0.07;fullmask;0.2;arrow_left.png;0.13;m;0.22242439998080954;0.230546000006143;269883.6619822;3.0999653972685337e-06;0.5029535999638028;0.5429712000186555;0.5948691999656148;0.6646432999987155;0.7942961999797262;1.0233019000152126;0;0;1;0;0.01
7;2;13;18;letter169;letter190;congruent;0.04;letter190;0.09;0.07;fullmask;0.2;arrow_right.png;0.13;c;0.36095830000704154;0.3700265000225045;269885.7017493;3.00002284348011e-06;0.5017905000131577;0.5418139999965206;0.5937147000222467;0.6635037999949418;0.7941509999800473;0.9237814000225626;0;0;0;1;0.01
7;2;13;19;letter169;letter190;congruent;0.04;letter169;0.09;0.07;fullmask;0.2;arrow_left.png;0.13;c;0.28763910004636273;0.2901974000269547;269887.4697162;2.700020559132099e-06;0.49885299999732524;0.5388652000110596;0.5908614000072703;0.6605939000146464;0.7902456999872811;1.079242100007832;0;0;1;0;0.01
7;2;13;20;letter169;letter190;congruent;0.04;letter169;0.09;0.07;fullmask;0.2;arrow_left.png;0.13;m;0.27654799999436364;0.2801988000283018;269889.4297308;2.8999638743698597e-06;0.5032740999595262;0.5432755000074394;0.5951099999947473;0.664883799967356;0.7954543000087142;1.0736388000077568;0;0;1;0;0.01
7;2;13;21;letter169;letter190;congruent;0.04;letter190;0.09;0.07;fullmask;0.2;arrow_right.png;0.13;m;0.45316819997970015;0.4598330999724567;269891.5576998;2.900022082030773e-06;0.4951698000077158;0.535207100037951;0.5871181000256911;0.6570215999963693;0.7865887000225484;0.9172460000263527;0;0;0;1;0.01
7;2;13;22;letter169;letter190;congruent;0.04;letter190;0.09;0.07;fullmask;0.2;arrow_right.png;0.13;m;0.25646750000305474;0.26035230001434684;269893.3017975;3.00002284348011e-06;0.5046039000153542;0.5446343999938108;0.5960784000344574;0.6667714000213891;0.7964235999970697;1.054955500003416;0;0;1;0;0.01
7;2;13;23;letter169;letter190;congruent;0.04;letter190;0.09;0.07;fullmask;0.2;arrow_right.png;0.13;m;0.40271639998536557;0.40991980000399053;269895.389723;3.200024366378784e-06;0.5016317000263371;0.5416400000103749;0.5935126999975182;0.663199300004635;0.7929434000398032;0.9235935999895446;0;0;0;1;0.01
7;2;13;24;letter169;letter190;congruent;0.04;letter190;0.09;0.07;fullmask;0.2;arrow_right.png;0.13;m;0.3439944999990985;0.3500742999603972;269897.2217181;3.100023604929447e-06;0.5029490999877453;0.5429703000118025;0.5943362999823876;0.6651067999773659;0.7947604000219144;0.9244095999747515;0;0;0;1;0.01
7;2;13;25;letter169;letter190;congruent;0.04;letter190;0.09;0.07;fullmask;0.2;arrow_right.png;0.13;m;0.20623069995781407;0.20945849997224286;269898.9256795;3.100023604929447e-06;0.500594099983573;0.5405995000037365;0.5924868999863975;0.6622607000172138;0.7919162000180222;1.0009324999991804;0;0;1;0;0.01
7;2;13;26;letter169;letter190;congruent;0.04;letter190;0.09;0.07;fullmask;0.2;arrow_right.png;0.13;m;0.45898070000112057;0.45983730000443757;269901.0697422;2.800021320581436e-06;0.5021490000071935;0.542167600011453;0.5941472999984398;0.6640534999896772;0.7936167999869213;0.9242581999860704;0;0;0;1;0.01
7;2;13;27;letter169;letter190;congruent;0.04;letter169;0.09;0.07;fullmask;0.2;arrow_left.png;0.13;c;0.1900819999864325;0.19053989998064935;269902.7418107;3.0999653972685337e-06;0.49755579995689914;0.5375873000011779;0.5892644999548793;0.6591676999814808;0.7798076999606565;0.7798126999987289;0;1;0;0;0.01
7;2;13;28;letter169;letter190;congruent;0.04;letter190;0.09;0.07;fullmask;0.2;arrow_right.png;0.13;m;0.42668410000624135;0.4297898000222631;269904.6297705;2.8999638743698597e-06;0.4965520999976434;0.5365810999646783;0.5885573999839835;0.6582484999671578;0.7889129999675788;0.9185664999531582;0;0;0;1;0.01
7;2;13;29;letter169;letter190;congruent;0.04;letter190;0.09;0.07;fullmask;0.2;arrow_right.png;0.13;c;0.31141899997601286;0.3202060000039637;269906.4057379;2.800021320581436e-06;0.49871160002658144;0.5387459000339732;0.5907194000319578;0.6608006000169553;0.7901884000166319;1.10911830002442;0;0;1;0;0.01
7;2;13;30;letter169;letter190;congruent;0.04;letter169;0.09;0.07;fullmask;0.2;arrow_left.png;0.13;c;0.242093599983491;0.25035260000731796;269908.31772;2.800021320581436e-06;0.4975721000228077;0.5375909000285901;0.5895902999909595;0.6594523999956436;0.7890201000263914;1.0379185000201687;0;0;1;0;0.01
7;2;13;31;letter169;letter190;congruent;0.04;letter169;0.09;0.07;fullmask;0.2;arrow_left.png;0.13;c;0.20085899997502565;0.2094779000035487;269910.1976806;2.8999638743698597e-06;0.49990639998577535;0.5399267000029795;0.5918803999666125;0.6616562000126578;0.791307199979201;1.0002352999872528;0;0;1;0;0.01
7;2;13;32;letter169;letter190;congruent;0.04;letter169;0.09;0.07;fullmask;0.2;arrow_left.png;0.13;c;0.3680630000308156;0.370045600051526;269912.2457122;3.100023604929447e-06;0.49667640001280233;0.5366915999911726;0.5882600999902934;0.6590339000103995;0.7886853999807499;0.9183424999937415;0;0;0;1;0.01
7;2;13;33;letter169;letter190;congruent;0.04;letter190;0.09;0.07;fullmask;0.2;arrow_right.png;0.13;c;0.21447730000363663;0.2204700000002049;269913.9337267;3.100023604929447e-06;0.4964060999918729;0.5364321999950334;0.5884023999678902;0.658081499976106;0.7887334999977611;1.0067322999821045;0;0;1;0;0.01
7;2;13;34;letter169;letter190;congruent;0.04;letter190;0.09;0.07;fullmask;0.2;arrow_right.png;0.13;m;0.37928110000211746;0.3798947000177577;269915.9896953;3.0999653972685337e-06;0.49766059999819845;0.5376873000059277;0.589598799997475;0.6593723999685608;0.7890285999746993;0.9196763999643736;0;0;0;1;0.01
7;2;13;35;letter169;letter190;congruent;0.04;letter169;0.09;0.07;fullmask;0.2;arrow_left.png;0.13;m;0.26406689995201305;0.27028899994911626;269917.7257263;3.100023604929447e-06;0.49634599999990314;0.5363642000011168;0.5883212999906391;0.658090999990236;0.7877438000286929;1.0567078000167385;0;0;1;0;0.01
7;2;13;36;letter169;letter190;congruent;0.04;letter169;0.09;0.07;fullmask;0.2;arrow_left.png;0.13;m;0.32318790000863373;0.33032000000821427;269919.7261572;3.1999661587178707e-06;0.4966646999819204;0.5366799999610521;0.5886826000059955;0.6583579999860376;0.7880106999655254;1.1170658000046387;0;0;1;0;0.01
7;2;13;37;letter169;letter190;congruent;0.04;letter169;0.09;0.07;fullmask;0.2;arrow_left.png;0.13;c;0.2653757000225596;0.27020800003083423;269921.6697426;2.900022082030773e-06;0.4980576000525616;0.5380841000005603;0.5901910000247881;0.6598609000211582;0.7894979999982752;1.0584235000424087;0;0;1;0;0.01
7;2;13;38;letter169;letter190;congruent;0.04;letter190;0.09;0.07;fullmask;0.2;arrow_right.png;0.13;m;0.27828510000836104;0.280272200005129;269923.6136964;2.8999638743698597e-06;0.49724489997606725;0.5372677000123076;0.5891732999589294;0.658945599978324;0.7886056000133976;1.0676400999655016;0;0;1;0;0.01
7;2;13;39;letter169;letter190;congruent;0.04;letter190;0.09;0.07;fullmask;0.2;arrow_right.png;0.13;m;0.2694568000151776;0.27028739999514073;269925.5657271;2.9999646358191967e-06;0.4950134999817237;0.5350257999962196;0.5865246999892406;0.6562888999469578;0.786937199998647;1.0553702999604866;0;0;1;0;0.01
7;2;13;40;letter169;letter190;congruent;0.04;letter190;0.09;0.07;fullmask;0.2;arrow_right.png;0.13;m;0.27386750001460314;0.2804199000238441;269927.5419162;2.900022082030773e-06;0.49983879999490455;0.539843300008215;0.5918450999888591;0.6617495000245981;0.7913168999948539;1.070223700022325;0;0;1;0;0.01
7;2;13;41;letter169;letter190;congruent;0.04;letter169;0.09;0.07;fullmask;0.2;arrow_left.png;0.13;c;0.34646209998754784;0.35013059998163953;269929.5657005;2.800021320581436e-06;0.4963914999971166;0.5364086999907158;0.58832809998421;0.6582404000218958;0.787799299985636;0.9184552000369877;0;0;0;1;0.01
7;2;13;42;letter169;letter190;congruent;0.04;letter169;0.09;0.07;fullmask;0.2;arrow_left.png;0.13;c;0.22938089998206124;0.2304477000143379;269931.2697576;2.900022082030773e-06;0.49805659998673946;0.5380798000260256;0.58994169998914;0.659850700001698;0.7894148000050336;1.0183862000121735;0;0;1;0;0.01
7;2;13;43;letter169;letter190;congruent;0.04;letter169;0.09;0.07;fullmask;0.2;arrow_left.png;0.13;c;0.2320462999632582;0.23952909995568916;269933.1736771;2.9999646358191967e-06;0.5046150999842212;0.5446377999614924;0.5965205999673344;0.6664431999670342;0.796097899961751;1.0349400999839418;0;0;1;0;0.01
7;2;13;44;letter169;letter190;congruent;0.04;letter190;0.09;0.07;fullmask;0.2;arrow_right.png;0.13;m;0.32093550002900884;0.33017820003442466;269935.1738491;2.9999646358191967e-06;0.49555759999202564;0.5355703999521211;0.5875240999739617;0.6572207999997772;0.7868717999663204;1.1159525999682955;0;0;1;0;0.01
7;2;13;45;letter169;letter190;congruent;0.04;letter190;0.09;0.07;fullmask;0.2;arrow_right.png;0.13;c;0.23743599996669218;0.24029659997904673;269937.1016451;3.0999653972685337e-06;0.4996209999662824;0.539629100007005;0.591573299956508;0.6612666999571957;0.7919194999849424;1.0299541999702342;0;0;1;0;0.01
7;2;13;46;letter169;letter190;congruent;0.04;letter169;0.09;0.07;fullmask;0.2;arrow_left.png;0.13;c;0.34819779999088496;0.3500367000233382;269939.1336677;2.8999638743698597e-06;0.5024687999975868;0.5424818000174128;0.5944401000160724;0.6641725999652408;0.7938338000094518;0.9244762000162154;0;0;0;1;0.01
7;2;13;47;letter169;letter190;congruent;0.04;letter190;0.09;0.07;fullmask;0.2;arrow_right.png;0.13;m;0.20505109999794513;0.20945429999846965;269940.8216681;2.900022082030773e-06;0.49681899999268353;0.5368361999862827;0.5887572999927215;0.6585304000182077;0.7881829999969341;0.9971430000150576;0;0;1;0;0.01
7;2;13;48;letter169;letter190;congruent;0.04;letter169;0.09;0.07;fullmask;0.2;arrow_left.png;0.13;c;0.15572469995822757;0.1598062999546528;269942.6537399;3.0999653972685337e-06;0.5009573000133969;0.5409771999693476;0.5930529999895953;0.6630370999919251;0.7528581999940798;0.752860700013116;0;1;0;0;0.01
