subjnr;loop_m;blocknr;trialnr;cue_left_learn;cue_right_learn;option_up;option_down;practice;motivation; congruence;cue_dur;cue;SOA;mask_dur;mask;target_dur;target;response;RT;kb_rt;response_absolute; fix_onset;cue_onset;cue_offset;mask_onset;mask_offset;target_offset;blank_onset;frame_dur
5;1;6;1;letter181;letter357;letter357;letter181;1;0;congruent;0.12;letter357;0.14;0.07;fullmask;0.2;arrow_right.png;up;1.9360555000021122;1.9409149999992223;23537.8113234;3.1000017770566046e-06;0.49894320000021253;0.6190062999994552;0.6390181999995548;0.7090592000022298;0.8391464000014821;0.969245399999636;0.01
5;1;6;2;letter181;letter357;letter357;letter181;1;0;incongruent;0.12;letter357;0.14;0.07;fullmask;0.2;arrow_left.png;up;0.6094288000022061;0.6102906000014627;23539.9871859;3.0000010156072676e-06;0.49713300000075833;0.6171873999992386;0.6372039999987464;0.7072564999980386;0.8373179999980493;0.9674145999997563;0.01
5;1;6;3;letter181;letter357;letter357;letter181;1;0;incongruent;0.12;letter181;0.14;0.07;fullmask;0.2;arrow_right.png;down;3.6061200000003737;3.612497300000541;23545.1553306;3.0000010156072676e-06;0.498986499998864;0.6190575000000536;0.6390744999989693;0.7090914000000339;0.8392055000003893;0.969283300000825;0.01
5;1;6;4;letter181;letter357;letter357;letter181;1;0;congruent;0.12;letter181;0.14;0.07;fullmask;0.2;arrow_left.png;down;0.5689247000009345;0.5705247999976564;23547.2911324;2.9000002541579306e-06;0.5020291000000725;0.6221058000010089;0.6421029000011913;0.7121503000016673;0.8422277999998187;0.9723250999995798;0.01
5;1;6;5;letter181;letter357;letter357;letter181;1;0;congruent;0.12;letter181;0.14;0.07;fullmask;0.2;arrow_left.png;down;0.2922584000007191;0.3002095999981975;23549.1551938;2.9000002541579306e-06;0.504473600001802;0.6245438000005379;0.6445639000012306;0.7145835000010266;0.8446724999994331;0.9747687000017322;0.01
5;1;6;6;letter181;letter357;letter357;letter181;1;0;incongruent;0.12;letter357;0.14;0.07;fullmask;0.2;arrow_left.png;up;0.31081930000073044;0.3199287999996159;23551.0352551;2.9000002541579306e-06;0.49625059999743826;0.6162997999999789;0.6363210999988951;0.706348199997592;0.8364311999976053;0.9665148999993107;0.01
5;1;6;7;letter181;letter357;letter357;letter181;1;0;incongruent;0.12;letter181;0.14;0.07;fullmask;0.2;arrow_right.png;down;0.42751900000075693;0.43090010000014445;23553.0432061;2.9000002541579306e-06;0.5031110000018089;0.6232044999997015;0.6432107000000542;0.7132277999990038;0.8433210000002873;0.9734382999995432;0.01
5;1;6;8;letter181;letter357;letter357;letter181;1;0;incongruent;0.12;letter357;0.14;0.07;fullmask;0.2;arrow_left.png;up;0.012511699998867698;0.02011099999799626;23554.6191894;3.1000017770566046e-06;0.4971742000016093;0.6172301000005973;0.6372632999991765;0.7072685000021011;0.8373725000019476;0.9674491000005219;0.01
5;1;6;9;letter181;letter357;letter357;letter181;1;0;congruent;0.12;letter357;0.14;0.07;fullmask;0.2;arrow_right.png;up;0.5591821999987587;0.5604221999965375;23556.7472481;3.0000010156072676e-06;0.5004081000006408;0.6204867000014929;0.6405039999990549;0.7105465999993612;0.8406180999991193;0.9707300000009127;0.01
5;1;6;10;letter181;letter357;letter357;letter181;1;0;congruent;0.12;letter357;0.14;0.07;fullmask;0.2;arrow_right.png;up;0.4935138000000734;0.5005882000004931;23558.8031826;2.9000002541579306e-06;0.5051313000003574;0.6252260000001115;0.6452222000007168;0.7152428000008513;0.8453254999985802;0.9754207000005408;0.01
5;1;6;11;letter181;letter357;letter357;letter181;1;0;congruent;0.12;letter181;0.14;0.07;fullmask;0.2;arrow_left.png;down;0.3528958999995666;0.36024759999781963;23560.7235617;3.0999981390777975e-06;0.5047625000006519;0.6248138999981165;0.6448243999984697;0.7148749000007228;0.844943100000819;0.9750538000007509;0.01
5;1;6;12;letter181;letter357;letter357;letter181;1;0;incongruent;0.12;letter181;0.14;0.07;fullmask;0.2;arrow_right.png;down;0.6732134000012593;0.6809369000002334;23562.9551856;3.1000017770566046e-06;0.4969431999998051;0.616987400000653;0.6370007000004989;0.7070375000002969;0.8371179999994638;0.9672112000007473;0.01
5;1;7;1;letter181;letter357;letter357;letter181;0;0;incongruent;0.04;letter357;0.05;0.07;fullmask;0.2;arrow_left.png;down;3.647900199997821;3.6523563000009744;23586.2431653;3.0000010156072676e-06;0.5011116999994556;0.5411284000001615;0.5511394999994081;0.6211708000009821;0.7512500000011642;0.8813831000006758;0.01
5;1;7;2;letter181;letter357;letter357;letter181;0;0;incongruent;0.04;letter181;0.05;0.07;fullmask;0.2;arrow_right.png;down;1.0124237999989418;1.0203221999981906;23588.9312092;2.9000002541579306e-06;0.4985677000004216;0.5385826000019733;0.5486029000021517;0.618637999999919;0.7487337000020489;0.8788287000024866;0.01
5;1;7;3;letter181;letter357;letter357;letter181;0;0;congruent;0.04;letter357;0.05;0.07;fullmask;0.2;arrow_right.png;up;0.6808723999965878;0.6901809999981197;23591.0913552;3.0000010156072676e-06;0.5044450000023062;0.544478200001322;0.5544824000025983;0.6244970000007015;0.7546125000008033;0.8846908000014082;0.01
5;1;7;4;letter181;letter357;letter357;letter181;0;0;congruent;0.04;letter181;0.05;0.07;fullmask;0.2;arrow_left.png;up;0.9840003999997862;0.991513600001781;23593.5553066;3.0000010156072676e-06;0.49656229999891366;0.5365812000018195;0.5465865000005579;0.6166080000002694;0.7466907999987598;0.8767961000012292;0.01
5;1;7;5;letter181;letter357;letter357;letter181;0;0;incongruent;0.04;letter357;0.05;0.07;fullmask;0.2;arrow_left.png;up;1.111947000001237;1.121062999998685;23596.3551526;2.7999994927085936e-06;0.5037325999983295;0.5437619999975141;0.5537671999991289;0.6237992999995186;0.7538974999988568;0.8839857999992091;0.01
5;1;7;6;letter181;letter357;letter357;letter181;0;0;incongruent;0.04;letter181;0.05;0.07;fullmask;0.2;arrow_right.png;up;1.0543499999985215;1.0612236999986635;23598.8991608;2.9000002541579306e-06;0.5039226000008057;0.5439427999990585;0.5539430999997421;0.6239803999997093;0.7540607000009913;0.8841585000009218;0.01
5;1;7;7;letter181;letter357;letter357;letter181;0;0;incongruent;0.04;letter181;0.05;0.07;fullmask;0.2;arrow_right.png;up;0.6908343000031891;0.6911550000004354;23601.2673141;3.1000017770566046e-06;0.5016184000014619;0.5416413999992074;0.5516468000023451;0.6216915000004519;0.7517809999990277;0.8818802999994659;0.01
5;1;7;8;letter181;letter357;letter357;letter181;0;0;congruent;0.04;letter181;0.05;0.07;fullmask;0.2;arrow_left.png;down;0.5271327000009478;0.5306415000013658;23603.4752048;2.8000031306874007e-06;0.5039227000015671;0.5439322000020184;0.553907600002276;0.6239642000000458;0.7540294999998878;0.884146200001851;0.01
5;1;7;9;letter181;letter357;letter357;letter181;0;0;congruent;0.04;letter181;0.05;0.07;fullmask;0.2;arrow_left.png;down;0.5255717000000004;0.5306354999993346;23605.4751547;2.9999973776284605e-06;0.49436749999949825;0.5343992999987677;0.5444085999988602;0.6144280999978946;0.7445389999993495;0.8746164000003773;0.01
5;1;7;10;letter181;letter357;letter357;letter181;0;0;incongruent;0.04;letter357;0.05;0.07;fullmask;0.2;arrow_left.png;down;0.5569171999995888;0.5604243999987375;23607.5071676;2.9000002541579306e-06;0.5012745999993058;0.5412958000015351;0.5512763000006089;0.6213410999989719;0.7513995000008435;0.881512300002214;0.01
5;1;7;11;letter181;letter357;letter357;letter181;0;0;congruent;0.04;letter357;0.05;0.07;fullmask;0.2;arrow_right.png;down;0.42864319999716827;0.4299269999974058;23609.6111521;2.7999994927085936e-06;0.5037284999998519;0.5437291000016558;0.5537285999998858;0.6237885000009555;0.753847300002235;0.8839813000013237;0.01
5;1;7;12;letter181;letter357;letter357;letter181;0;1;congruent;0.12;letter181;0.14;0.07;fullmask;0.2;arrow_left.png;down;0.45334680000087246;0.45969160000095144;23611.8271582;2.9000002541579306e-06;0.5042302000001655;0.624303399999917;0.6443192000006093;0.7143792000024405;0.8444397999992361;0.9745698000006087;0.01
5;1;7;13;letter181;letter357;letter357;letter181;0;0;congruent;0.04;letter357;0.05;0.07;fullmask;0.2;arrow_right.png;down;0.5863223000014841;0.5903346999984933;23613.8911565;3.2999996619764715e-06;0.49689629999920726;0.536928400000761;0.5469131999998353;0.616958099999465;0.7470184000012523;0.8771353000011004;0.01
5;1;7;14;letter181;letter357;letter357;letter181;0;0;congruent;0.04;letter357;0.05;0.07;fullmask;0.2;arrow_right.png;up;0.4131371000003128;0.42090620000089984;23615.9792966;3.0000010156072676e-06;0.5003794999975071;0.5404061000008369;0.5504375999989861;0.6204374999979336;0.7505533000003197;0.8806273000009242;0.01
5;1;7;15;letter181;letter357;letter357;letter181;0;0;congruent;0.04;letter357;0.05;0.07;fullmask;0.2;arrow_right.png;up;0.7934034999998403;0.7997816999995848;23618.2511562;2.9000002541579306e-06;0.49807570000120904;0.5380946000004769;0.548124299999472;0.6181461000014679;0.7482357000008051;0.8783191000002262;0.01
5;1;7;16;letter181;letter357;letter357;letter181;0;0;incongruent;0.04;letter181;0.05;0.07;fullmask;0.2;arrow_right.png;up;0.518160200001148;0.5206680000010238;23620.2671993;3.0000010156072676e-06;0.5051127999977325;0.545136900000216;0.5551539000007324;0.6251765999986674;0.7552761000006285;0.8853645999988657;0.01
5;1;7;17;letter181;letter357;letter357;letter181;0;0;incongruent;0.04;letter181;0.05;0.07;fullmask;0.2;arrow_right.png;down;0.42842880000171135;0.4300626000003831;23622.3792637;2.9000002541579306e-06;0.4994107999991684;0.5394478999987768;0.5494385999991209;0.6194639999994251;0.7495674999991024;0.8796622000008938;0.01
5;1;7;18;letter181;letter357;letter357;letter181;0;0;congruent;0.04;letter181;0.05;0.07;fullmask;0.2;arrow_left.png;down;0.4779517000024498;0.48076470000160043;23624.3392501;3.0000010156072676e-06;0.5010378000006313;0.5410593000015069;0.5510595000014291;0.6211045999989437;0.7511741999987862;0.8813030999990588;0.01
5;1;7;19;letter181;letter357;letter357;letter181;0;0;incongruent;0.04;letter357;0.05;0.07;fullmask;0.2;arrow_left.png;up;0.4280475000014121;0.42990780000036466;23626.2511553;3.1000017770566046e-06;0.5040283000016643;0.5440483999991557;0.5540528999990784;0.6240801999992982;0.7541591000008339;0.8842607000005955;0.01
5;1;7;20;letter181;letter357;letter357;letter181;0;0;congruent;0.04;letter357;0.05;0.07;fullmask;0.2;arrow_right.png;up;0.4935336000016832;0.5008130000023812;23628.2272926;3.0000010156072676e-06;0.5026436000007379;0.542662100000598;0.5526548000016192;0.6226964999987104;0.7527898000007553;0.8828768000021228;0.01
5;1;7;21;letter181;letter357;letter357;letter181;0;1;congruent;0.12;letter357;0.14;0.07;fullmask;0.2;arrow_right.png;up;0.41383520000090357;0.42087890000038897;23630.2191494;3.0000010156072676e-06;0.49655019999772776;0.6166190000003553;0.6366281999980856;0.7066728999998304;0.8367510999996739;0.9668891000001167;0.01
5;1;7;22;letter181;letter357;letter357;letter181;0;0;congruent;0.04;letter181;0.05;0.07;fullmask;0.2;arrow_left.png;down;0.3525426999985939;0.36005590000058874;23632.059185;3.2000025385059416e-06;0.4969307999999728;0.5369473000027938;0.5469545000014477;0.6169989000009082;0.7470717000032892;0.8771838000029675;0.01
5;1;7;23;letter181;letter357;letter357;letter181;0;0;congruent;0.04;letter181;0.05;0.07;fullmask;0.2;arrow_left.png;up;0.41088830000080634;0.41979799999899114;23633.9391155;3.0999981390777975e-06;0.49625379999997676;0.536277399998653;0.5462690999993356;0.6163110999987111;0.7463882999982161;0.8764905999996699;0.01
5;1;7;24;letter181;letter357;letter357;letter181;0;0;incongruent;0.04;letter357;0.05;0.07;fullmask;0.2;arrow_left.png;up;0.5925638999979128;0.6013448999983666;23636.2113668;2.9000002541579306e-06;0.49523479999697884;0.5352643000005628;0.5452530000002298;0.6153250999996089;0.7453706999986025;0.875481299997773;0.01
5;1;7;25;letter181;letter357;letter357;letter181;0;0;incongruent;0.04;letter357;0.05;0.07;fullmask;0.2;arrow_left.png;up;0.5207690999995975;0.5305090000001655;23638.2111452;3.1999989005271345e-06;0.5008654000012029;0.5409132999993744;0.5508974000003946;0.6209367999981623;0.7509974999993574;0.8811022000008961;0.01
5;1;7;26;letter181;letter357;letter357;letter181;0;0;incongruent;0.04;letter181;0.05;0.07;fullmask;0.2;arrow_right.png;down;0.3990489999996498;0.3998481999988144;23640.0911911;2.9000002541579306e-06;0.4994031999995059;0.5394296000013128;0.5494307000008121;0.6194732000003569;0.7495578000016394;0.8796471000023303;0.01
5;1;7;27;letter181;letter357;letter357;letter181;0;0;incongruent;0.04;letter357;0.05;0.07;fullmask;0.2;arrow_left.png;up;0.5364229999977397;0.5404850999984774;23642.0991368;3.1000017770566046e-06;0.49795300000187126;0.537962599999446;0.5479873000003863;0.6180056000011973;0.7480966000002809;0.8781907000011415;0.01
5;1;7;28;letter181;letter357;letter357;letter181;0;0;congruent;0.04;letter357;0.05;0.07;fullmask;0.2;arrow_right.png;down;0.42665019999913056;0.4300125999980082;23644.0111865;2.9000002541579306e-06;0.5009838000005402;0.5410033000007388;0.5510205999999016;0.6210594000003766;0.7511470999997982;0.8812217999984568;0.01
5;1;7;29;letter181;letter357;letter357;letter181;0;0;congruent;0.04;letter181;0.05;0.07;fullmask;0.2;arrow_left.png;down;0.3415577999985544;0.3499883000004047;23646.0271358;3.1999989005271345e-06;0.4955990999987989;0.5356135000001814;0.5456061000004411;0.6156531000015093;0.7457443999992392;0.8758325999988301;0.01
5;1;7;30;letter181;letter357;letter357;letter181;0;1;incongruent;0.12;letter181;0.14;0.07;fullmask;0.2;arrow_right.png;down;0.4226946000017051;0.43076360000122804;23648.0191406;3.0000010156072676e-06;0.5006093000010878;0.6206939000003331;0.6406977000006009;0.7107389000011608;0.8408171000010043;0.9709225000005972;0.01
5;1;7;31;letter181;letter357;letter357;letter181;0;0;incongruent;0.04;letter181;0.05;0.07;fullmask;0.2;arrow_right.png;down;0.3448134999998729;0.3499859999974433;23649.8432074;2.9999973776284605e-06;0.5000045999986469;0.5400157999974908;0.550033399998938;0.6200587999992422;0.7501512999988336;0.8802353999999468;0.01
5;1;7;32;letter181;letter357;letter357;letter181;0;0;congruent;0.04;letter181;0.05;0.07;fullmask;0.2;arrow_left.png;down;0.8360843999980716;0.841142299999774;23652.1551482;2.9000002541579306e-06;0.4967032999993535;0.5367026999992959;0.5467124999995576;0.6167540999995254;0.746835199999623;0.876947000000655;0.01
5;1;7;33;letter181;letter357;letter357;letter181;0;0;congruent;0.04;letter357;0.05;0.07;fullmask;0.2;arrow_right.png;up;0.5003022999990208;0.5005042000011599;23654.1312189;2.9999973776284605e-06;0.4992664999990666;0.539318799998;0.5492994999985967;0.6193372999987332;0.7494088999992528;0.8795246999980009;0.01
5;1;7;34;letter181;letter357;letter357;letter181;0;0;incongruent;0.04;letter181;0.05;0.07;fullmask;0.2;arrow_right.png;down;0.38105500000165193;0.38998110000102315;23656.0031633;2.9000002541579306e-06;0.5040227000026789;0.5440415000011853;0.5540366000022914;0.624075300002005;0.7541582000012568;0.8842614000022877;0.01
5;1;7;35;letter181;letter357;letter357;letter181;0;0;incongruent;0.04;letter357;0.05;0.07;fullmask;0.2;arrow_left.png;up;0.44416829999681795;0.4508553999985452;23657.9471426;2.9000002541579306e-06;0.5019113999987894;0.5419193999987328;0.5519246999974712;0.6219600000003993;0.7520292999979574;0.8821048999998311;0.01
5;1;7;36;letter181;letter357;letter357;letter181;0;0;congruent;0.04;letter357;0.05;0.07;fullmask;0.2;arrow_right.png;up;0.8962744000018574;0.9006274999992456;23660.3312507;2.9000002541579306e-06;0.49593240000103833;0.5359690000004775;0.5459504999998899;0.6160091000019747;0.7460744000018167;0.8761947999992117;0.01
5;1;7;37;letter181;letter357;letter357;letter181;0;0;incongruent;0.04;letter357;0.05;0.07;fullmask;0.2;arrow_left.png;up;0.684837000000698;0.6899965000011434;23662.4912235;3.1000017770566046e-06;0.4995999999991909;0.5396120000004885;0.5496158999994805;0.619677300001058;0.7497282000003906;0.8798368999996455;0.01
5;1;7;38;letter181;letter357;letter357;letter181;0;0;incongruent;0.04;letter181;0.05;0.07;fullmask;0.2;arrow_right.png;down;0.677647500000603;0.6801909000023443;23664.6751299;2.9999973776284605e-06;0.5002960999991046;0.5403205999973579;0.550329599998804;0.6203763999983494;0.7504475999994611;0.8805558999993082;0.01
5;1;7;39;letter181;letter357;letter357;letter181;0;0;congruent;0.04;letter181;0.05;0.07;fullmask;0.2;arrow_left.png;down;0.34861910000108765;0.3501243000027898;23666.507124;2.9999973776284605e-06;0.5019952999973611;0.5420045999999274;0.5520432999983313;0.6220517999972799;0.7521390000001702;0.8822285999995074;0.01
5;1;7;40;letter181;letter357;letter357;letter181;0;0;incongruent;0.04;letter357;0.05;0.07;fullmask;0.2;arrow_left.png;up;0.5806892000000516;0.5904698999984248;23668.5711501;2.7999994927085936e-06;0.5011517000020831;0.5411731000021973;0.5511709999991581;0.6212077000018326;0.7512935000013385;0.8813900999994075;0.01
5;1;7;41;letter181;letter357;letter357;letter181;0;0;incongruent;0.04;letter181;0.05;0.07;fullmask;0.2;arrow_right.png;down;0.30783379999775207;0.31023649999769987;23670.3792104;2.9999973776284605e-06;0.5034061999976984;0.5434164999969653;0.5534496000000217;0.6234628999991401;0.7535532999972929;0.883643299999676;0.01
5;1;7;42;letter181;letter357;letter357;letter181;0;0;congruent;0.04;letter181;0.05;0.07;fullmask;0.2;arrow_left.png;up;0.468408200002159;0.4696598000009544;23672.3311718;2.9000002541579306e-06;0.5050076999978046;0.5450324999983422;0.5550328999997873;0.6250728999984858;0.755156100000022;0.885249399998429;0.01
5;1;7;43;letter181;letter357;letter357;letter181;0;1;incongruent;0.12;letter357;0.14;0.07;fullmask;0.2;arrow_left.png;up;0.3649651999985508;0.3699324000008346;23674.4591471;3.0000010156072676e-06;0.498331099999632;0.6183961000024283;0.638407599999482;0.7084531000000425;0.8385278999994625;0.9686383000007481;0.01
5;1;7;44;letter181;letter357;letter357;letter181;0;0;congruent;0.04;letter181;0.05;0.07;fullmask;0.2;arrow_left.png;down;0.4443293000003905;0.45081909999862546;23676.3793264;2.9000002541579306e-06;0.49493680000159657;0.5349654000019655;0.5449664000007033;0.6150109000009252;0.7450797999990755;0.8751822000012908;0.01
5;1;7;45;letter181;letter357;letter357;letter181;0;0;congruent;0.04;letter181;0.05;0.07;fullmask;0.2;arrow_left.png;down;0.35499049999998533;0.3599649000025238;23678.2111409;3.2999996619764715e-06;0.5002727999999479;0.5403108000027714;0.5503057000023546;0.6203347000009671;0.7504141999997955;0.8805060000013327;0.01
5;1;7;46;letter181;letter357;letter357;letter181;0;0;congruent;0.04;letter357;0.05;0.07;fullmask;0.2;arrow_right.png;up;0.3475298000012117;0.3499889999984589;23680.0351177;2.9999973776284605e-06;0.4982014999986859;0.5382218999984616;0.5482411999983015;0.61826579999979;0.7483409999986179;0.8784443999975338;0.01
5;1;7;47;letter181;letter357;letter357;letter181;0;0;congruent;0.04;letter357;0.05;0.07;fullmask;0.2;arrow_right.png;up;0.3866946000016469;0.39095850000012433;23681.9151299;2.7999994927085936e-06;0.5002965999992739;0.5403388000013365;0.5503466000009212;0.6203910000003816;0.7504551000020001;0.8805694000002404;0.01
5;1;7;48;letter181;letter357;letter357;letter181;0;0;incongruent;0.04;letter357;0.05;0.07;fullmask;0.2;arrow_left.png;up;0.3569504000006418;0.35995940000066184;23683.7471653;2.9999973776284605e-06;0.5012879999994766;0.5413147999970533;0.5513202000001911;0.6213532000001578;0.7514355999992404;0.8815326999974786;0.01
5;1;7;49;letter181;letter357;letter357;letter181;0;0;incongruent;0.04;letter181;0.05;0.07;fullmask;0.2;arrow_right.png;down;0.42830289999983506;0.4309103000014147;23685.6591561;2.7999994927085936e-06;0.5019097000003967;0.5419325000002573;0.5519382999991649;0.6219726999988779;0.7520580999989761;0.8821621999995841;0.01
5;1;7;50;letter181;letter357;letter357;letter181;0;0;incongruent;0.04;letter357;0.05;0.07;fullmask;0.2;arrow_left.png;up;0.41534129999854486;0.4210370000000694;23687.5473054;2.7999994927085936e-06;0.49487170000065817;0.5348759000007703;0.5448981999979878;0.614901999997528;0.7450043999997433;0.8750961999976425;0.01
5;1;7;51;letter181;letter357;letter357;letter181;0;0;congruent;0.04;letter357;0.05;0.07;fullmask;0.2;arrow_right.png;up;0.4275584000024537;0.42976720000297064;23689.4512078;2.8999966161791235e-06;0.5016304999990098;0.5416542999992089;0.5516944999981206;0.6217171999996935;0.7518033999986073;0.8818856999969285;0.01
5;1;7;52;letter181;letter357;letter357;letter181;0;0;incongruent;0.04;letter181;0.05;0.07;fullmask;0.2;arrow_right.png;down;0.4760505000012927;0.47964520000095945;23691.4111271;3.0000010156072676e-06;0.5034007000031124;0.5434282000023813;0.5534454000007827;0.6234677000029478;0.7535363000024518;0.8836418999999296;0.01
5;1;8;1;letter181;letter357;letter357;letter181;0;0;congruent;0.04;letter357;0.05;0.07;fullmask;0.2;arrow_right.png;up;0.7309482999989996;0.7401169999975536;23709.467106;3.0999981390777975e-06;0.4957563999996637;0.5357813999980863;0.5457677999984298;0.6158106999973825;0.7458922999976494;0.8759901999983413;0.01
5;1;8;2;letter181;letter357;letter357;letter181;0;0;incongruent;0.04;letter181;0.05;0.07;fullmask;0.2;arrow_right.png;down;0.4801444000004267;0.4806141999979445;23711.4272094;3.1999989005271345e-06;0.49982839999938733;0.5398274999970454;0.549828899998829;0.6198770999981207;0.7499462999985553;0.880063099997642;0.01
5;1;8;3;letter181;letter357;letter357;letter181;0;0;incongruent;0.04;letter357;0.05;0.07;fullmask;0.2;arrow_left.png;down;0.7739379999984521;0.7798423999993247;23713.6831126;3.2999996619764715e-06;0.5038156999980856;0.5438551000006555;0.5538238999979512;0.6238746999988507;0.7539436999977625;0.8840548000007402;0.01
5;1;8;4;letter181;letter357;letter357;letter181;0;0;congruent;0.04;letter181;0.05;0.07;fullmask;0.2;arrow_left.png;down;0.36312270000053104;0.37116129999776604;23715.7231156;2.9999973776284605e-06;0.4968952999988687;0.5369097999973746;0.5469091999984812;0.6169620000000577;0.747030899998208;0.8771352999974624;0.01
5;1;8;5;letter181;letter357;letter357;letter181;0;1;congruent;0.12;letter357;0.14;0.07;fullmask;0.2;arrow_right.png;up;0.2630238999990979;0.2692967000002682;23717.5551083;3.0000010156072676e-06;0.4967647000012221;0.6168376000023272;0.6368466000021726;0.7068944000020565;0.8369583000021521;0.96709390000251;0.01
5;1;8;6;letter181;letter357;letter357;letter181;0;0;incongruent;0.04;letter181;0.05;0.07;fullmask;0.2;arrow_right.png;down;0.3127682999984245;0.32103400000050897;23719.355126;3.0000010156072676e-06;0.5049336999982188;0.5449502999981632;0.554971999998088;0.6250008999995771;0.7550889999984065;0.8851877999986755;0.01
5;1;8;7;letter181;letter357;letter357;letter181;0;0;congruent;0.04;letter181;0.05;0.07;fullmask;0.2;arrow_left.png;down;0.36968830000114394;0.37093649999951595;23721.2031967;3.0000010156072676e-06;0.4960100999996939;0.5360345000008238;0.5460701000010886;0.6160721000014746;0.7461643000024196;0.8762549999992189;0.01
5;1;8;8;letter181;letter357;letter357;letter181;0;0;congruent;0.04;letter181;0.05;0.07;fullmask;0.2;arrow_left.png;up;0.5246417999987898;0.5306717999992543;23723.2193597;2.9000002541579306e-06;0.5030311000009533;0.5430592000011529;0.5530494000013277;0.6230916999993497;0.7531706999980088;0.8832863999996334;0.01
5;1;8;9;letter181;letter357;letter357;letter181;0;0;incongruent;0.04;letter181;0.05;0.07;fullmask;0.2;arrow_right.png;down;0.2722137000018847;0.28018109999902663;23725.1791158;2.9000002541579306e-06;0.50338980000015;0.5434086000022944;0.553462000003492;0.6234496000033687;0.7535463000021991;0.8836388000017905;0.01
5;1;8;10;letter181;letter357;letter357;letter181;0;0;incongruent;0.04;letter357;0.05;0.07;fullmask;0.2;arrow_left.png;up;0.40001569999731146;0.4008770000000368;23727.0671595;2.8999966161791235e-06;0.5035713999968721;0.5435901999990165;0.5535951999991084;0.6236277999996673;0.7537181999978202;0.8838131999982579;0.01
5;1;8;11;letter181;letter357;letter357;letter181;0;0;incongruent;0.04;letter357;0.05;0.07;fullmask;0.2;arrow_left.png;up;0.5045466000010492;0.5105623000017658;23729.0431512;3.0999981390777975e-06;0.5018009999985225;0.541830399997707;0.5518383999988146;0.6218681999998807;0.7519592999997258;0.8820654999981343;0.01
5;1;8;12;letter181;letter357;letter357;letter181;0;0;congruent;0.04;letter181;0.05;0.07;fullmask;0.2;arrow_left.png;down;0.40082759999859263;0.4099564999996801;23730.9310525;3.0000010156072676e-06;0.5014012999999977;0.5414089000005333;0.5514126000016404;0.621450200000254;0.7515352000009443;0.8816508000018075;0.01
5;1;8;13;letter181;letter357;letter357;letter181;0;0;incongruent;0.04;letter357;0.05;0.07;fullmask;0.2;arrow_left.png;up;0.38223130000187666;0.3911388000014995;23732.8030718;2.9000002541579306e-06;0.4988661999996111;0.5388874000018404;0.5488891000022704;0.6189164999996137;0.7490083000011509;0.8791022000004887;0.01
5;1;8;14;letter181;letter357;letter357;letter181;0;0;congruent;0.04;letter357;0.05;0.07;fullmask;0.2;arrow_right.png;up;0.3106809999990219;0.3202068999999028;23734.603109;2.9000002541579306e-06;0.5032328000015696;0.5432555000006687;0.55324450000262;0.6232871000029263;0.7533703000008245;0.8834726000022783;0.01
5;1;8;15;letter181;letter357;letter357;letter181;0;0;incongruent;0.04;letter357;0.05;0.07;fullmask;0.2;arrow_left.png;up;0.39122499999939464;0.3998571999982232;23736.4750916;3.1999989005271345e-06;0.4964908999972977;0.5365343999983452;0.5465213999996195;0.6165623999986565;0.7466456000001926;0.8767458999973314;0.01
5;1;8;16;letter181;letter357;letter357;letter181;0;0;incongruent;0.04;letter181;0.05;0.07;fullmask;0.2;arrow_right.png;down;0.27038900000115973;0.2803420999989612;23738.2351672;2.9000002541579306e-06;0.5043698999979824;0.5443827999988571;0.5543798999970022;0.6244164999989152;0.754502699997829;0.88460699999996;0.01
5;1;8;17;letter181;letter357;letter357;letter181;0;0;congruent;0.04;letter181;0.05;0.07;fullmask;0.2;arrow_left.png;down;0.29558600000018487;0.30020060000242665;23740.0111137;2.9000002541579306e-06;0.4960559999999532;0.5360753000022669;0.546080100000836;0.6161164000004646;0.7461909000012383;0.876299999999901;0.01
5;1;8;18;letter181;letter357;letter357;letter181;0;0;congruent;0.04;letter181;0.05;0.07;fullmask;0.2;arrow_left.png;down;0.4261947999984841;0.43089359999794397;23741.9232274;3.4000004234258085e-06;0.5033708000009938;0.5433856999989075;0.5533773999995901;0.6234063000010792;0.7535037999987253;0.8836244999984046;0.01
5;1;8;19;letter181;letter357;letter357;letter181;0;0;congruent;0.04;letter357;0.05;0.07;fullmask;0.2;arrow_right.png;up;0.3609832000001916;0.37007140000059735;23743.7790734;3.0000010156072676e-06;0.4966926999986754;0.5367136999993818;0.546726900000067;0.616752699999779;0.7468370999995386;0.876932899998792;0.01
5;1;8;20;letter181;letter357;letter357;letter181;0;0;congruent;0.04;letter357;0.05;0.07;fullmask;0.2;arrow_right.png;up;0.3515908999979729;0.359951499998715;23745.6111006;2.9000002541579306e-06;0.4966869999989285;0.5367076999973506;0.5467146999981196;0.6167437000003702;0.7468301999979303;0.8769243999995524;0.01
5;1;8;21;letter181;letter357;letter357;letter181;0;0;incongruent;0.04;letter357;0.05;0.07;fullmask;0.2;arrow_left.png;up;0.29236350000064704;0.3002607000016724;23747.4030847;2.9000002541579306e-06;0.5038587000017287;0.5438727000000654;0.5538777000001573;0.6239200000018172;0.7539917000030982;0.8841067000030307;0.01
5;1;8;22;letter181;letter357;letter357;letter181;0;0;congruent;0.04;letter181;0.05;0.07;fullmask;0.2;arrow_left.png;up;0.4609670999998343;0.4697670999994443;23749.3630855;3.1999989005271345e-06;0.5012295999986236;0.5412685999981477;0.5512520999982371;0.6212970999986283;0.7513734999993176;0.8814755999992485;0.01
5;1;8;23;letter181;letter357;letter357;letter181;0;1;incongruent;0.12;letter181;0.14;0.07;fullmask;0.2;arrow_right.png;down;0.1643344000003708;0.17056859999865992;23751.3072782;3.0000010156072676e-06;0.4987087999979849;0.618780799999513;0.6387935999991896;0.7088394999991579;0.838911899998493;0.9690286000004562;0.01
5;1;8;24;letter181;letter357;letter357;letter181;0;0;incongruent;0.04;letter357;0.05;0.07;fullmask;0.2;arrow_left.png;down;0.5122198999997636;0.5195439000017359;23753.3070997;3.2000025385059416e-06;0.5007901999997557;0.5408360000001267;0.5508717000011529;0.6208977000023879;0.7509614000009606;0.8810572000002139;0.01
5;1;8;25;letter181;letter357;letter357;letter181;0;0;congruent;0.04;letter357;0.05;0.07;fullmask;0.2;arrow_right.png;up;0.28922030000103405;0.29018010000072536;23755.2751687;3.2000025385059416e-06;0.49939029999950435;0.5394207000026654;0.5494195000028412;0.6194493000002694;0.7495357000007061;0.8796370000018214;0.01
5;1;8;26;letter181;letter357;letter357;letter181;0;0;incongruent;0.04;letter181;0.05;0.07;fullmask;0.2;arrow_right.png;up;0.39774709999983315;0.39985109999906854;23757.1550951;2.7999994927085936e-06;0.5042429999994056;0.5442494000017177;0.5542316999999457;0.6242770999997447;0.7543512000011106;0.884473900001467;0.01
5;1;8;27;letter181;letter357;letter357;letter181;0;0;congruent;0.04;letter357;0.05;0.07;fullmask;0.2;arrow_right.png;up;0.3247622000017145;0.33027170000059414;23759.1632977;2.8999966161791235e-06;0.5016253999965556;0.5416298999989522;0.5516273999965051;0.6216633999974874;0.7517553999969095;0.8818526999966707;0.01
5;1;8;28;letter181;letter357;letter357;letter181;0;0;congruent;0.04;letter357;0.05;0.07;fullmask;0.2;arrow_right.png;up;0.3520400999987032;0.3610835999970732;23761.0111072;2.9000002541579306e-06;0.5032592999996268;0.5432734000023629;0.5532931000016106;0.6233210999998846;0.7534090000008291;0.8835252999997465;0.01
5;1;8;29;letter181;letter357;letter357;letter181;0;0;incongruent;0.04;letter181;0.05;0.07;fullmask;0.2;arrow_right.png;down;0.4201463999997941;0.4299155000007886;23762.9310787;2.7999994927085936e-06;0.503570500000933;0.5435882999991009;0.5536351000009745;0.6236257000018668;0.7537458000006154;0.8838558999996167;0.01
5;1;8;30;letter181;letter357;letter357;letter181;0;0;incongruent;0.04;letter181;0.05;0.07;fullmask;0.2;arrow_right.png;down;0.3510232000007818;0.3601003999974637;23764.763244;2.9000002541579306e-06;0.4984689000011713;0.5384985000018787;0.5484829000015452;0.6185273000010056;0.7486099000016111;0.8787377000007837;0.01
5;1;8;31;letter181;letter357;letter357;letter181;0;0;congruent;0.04;letter181;0.05;0.07;fullmask;0.2;arrow_left.png;down;0.4160517999989679;0.41992430000027525;23766.6591931;2.9000002541579306e-06;0.4977519999993092;0.5377698999982385;0.5477700000010373;0.6178101000004972;0.7478828999992402;0.8779916999992565;0.01
5;1;8;32;letter181;letter357;letter357;letter181;0;1;congruent;0.12;letter181;0.14;0.07;fullmask;0.2;arrow_left.png;down;0.2809832999992068;0.2903666999991401;23768.5152997;2.9000002541579306e-06;0.497150999999576;0.6172305999971286;0.6372449999980745;0.7072752999993099;0.8373787999989872;0.9674659999982396;0.01
5;1;8;33;letter181;letter357;letter357;letter181;0;0;incongruent;0.04;letter357;0.05;0.07;fullmask;0.2;arrow_left.png;down;0.35163979999924777;0.3599789999971108;23770.3470692;2.9000002541579306e-06;0.5018091999991157;0.541807699999481;0.551811599998473;0.6218397999982699;0.7519157999995514;0.8820296999983839;0.01
5;1;8;34;letter181;letter357;letter357;letter181;0;0;incongruent;0.04;letter181;0.05;0.07;fullmask;0.2;arrow_right.png;up;0.31809699999939767;0.32029569999940577;23772.3550779;3.0000010156072676e-06;0.49756219999835594;0.5375827999996545;0.5475842999985616;0.6176291999981913;0.7476710000009916;0.877805799998896;0.01
5;1;8;35;letter181;letter357;letter357;letter181;0;0;congruent;0.04;letter357;0.05;0.07;fullmask;0.2;arrow_right.png;up;0.4314703999989433;0.4408383000009053;23774.4591739;2.9000002541579306e-06;0.5003250000008848;0.5403415000000678;0.5503295000016806;0.6203782000011415;0.7504449000007298;0.8805510000020149;0.01
5;1;8;36;letter181;letter357;letter357;letter181;0;0;congruent;0.04;letter357;0.05;0.07;fullmask;0.2;arrow_right.png;up;0.45149619999938295;0.45970820000002277;23776.4110684;3.0000010156072676e-06;0.5019692000023497;0.5419896000021254;0.5519941999991715;0.6220376999990549;0.7521128000007593;0.8822089999994205;0.01
5;1;8;37;letter181;letter357;letter357;letter181;0;0;congruent;0.04;letter357;0.05;0.07;fullmask;0.2;arrow_right.png;up;0.4525799000002735;0.46071719999963534;23778.3630734;2.9000002541579306e-06;0.5030520000000251;0.5430778000009013;0.5530752000013308;0.6231215000007069;0.7531874000014795;0.8832957000013266;0.01
5;1;8;38;letter181;letter357;letter357;letter181;0;0;incongruent;0.04;letter181;0.05;0.07;fullmask;0.2;arrow_right.png;up;0.3917246000019077;0.40099000000191154;23780.2431461;3.0000010156072676e-06;0.5001020999989123;0.5401325999991968;0.5500814999977592;0.6201567999996769;0.7502299999978277;0.880361499999708;0.01
5;1;8;39;letter181;letter357;letter357;letter181;0;0;incongruent;0.04;letter181;0.05;0.07;fullmask;0.2;arrow_right.png;down;0.7517296999976679;0.7600112999971316;23782.675096;3.0000010156072676e-06;0.4962799000022642;0.5362943000000087;0.5462862000022142;0.6163364000021829;0.7464168000005884;0.8765311999995902;0.01
5;1;8;40;letter181;letter357;letter357;letter181;0;0;incongruent;0.04;letter357;0.05;0.07;fullmask;0.2;arrow_left.png;down;0.33694289999766625;0.34115340000062133;23784.4911166;2.9000002541579306e-06;0.5030248000002757;0.5430402000019967;0.5530404000019189;0.6230859000024793;0.7531597000015609;0.8832710000024235;0.01
5;1;8;41;letter181;letter357;letter357;letter181;0;0;congruent;0.04;letter181;0.05;0.07;fullmask;0.2;arrow_left.png;down;0.35767000000123517;0.36095960000238847;23786.5230686;3.0000010156072676e-06;0.4964966000006825;0.5365094000007957;0.5465031000021554;0.616556800003309;0.7466271000012057;0.8767494000021543;0.01
5;1;8;42;letter181;letter357;letter357;letter181;0;0;congruent;0.04;letter181;0.05;0.07;fullmask;0.2;arrow_left.png;down;0.3960122999997111;0.3999240999983158;23788.4030663;2.9999973776284605e-06;0.5039245999978448;0.5439546999987215;0.5539456999977119;0.6239964999986114;0.7540696999967622;0.8841649999994843;0.01
5;1;8;43;letter181;letter357;letter357;letter181;0;0;congruent;0.04;letter357;0.05;0.07;fullmask;0.2;arrow_right.png;up;0.45926170000166167;0.4607858999988821;23790.3470922;2.7999994927085936e-06;0.5041486000009172;0.5441624999984924;0.5541642999996839;0.624210400001175;0.7543020000011893;0.8844138999993447;0.01
5;1;8;44;letter181;letter357;letter357;letter181;0;0;congruent;0.04;letter181;0.05;0.07;fullmask;0.2;arrow_left.png;down;0.31794389999777195;0.32014300000082585;23792.1470121;3.0000010156072676e-06;0.5028734000006807;0.5429143000001204;0.5528774999984307;0.6229622999999265;0.752995999999257;0.8831136000007973;0.01
5;1;8;45;letter181;letter357;letter357;letter181;0;0;incongruent;0.04;letter181;0.05;0.07;fullmask;0.2;arrow_right.png;down;0.316737799999828;0.32015339999998105;23793.9471323;3.0000010156072676e-06;0.5042351000010967;0.5442418000020552;0.5542488000028243;0.6242812000018603;0.7543617000010272;0.8844939000009617;0.01
5;1;8;46;letter181;letter357;letter357;letter181;0;0;congruent;0.04;letter357;0.05;0.07;fullmask;0.2;arrow_right.png;up;0.3797889999987092;0.3809113999996043;23795.8111584;2.9000002541579306e-06;0.5039665000003879;0.5439736000007542;0.5539869999993243;0.6240020000004733;0.7540851000012481;0.8841858000014327;0.01
5;1;8;47;letter181;letter357;letter357;letter181;0;0;incongruent;0.04;letter357;0.05;0.07;fullmask;0.2;arrow_left.png;down;0.36781889999838313;0.3700712999998359;23797.6510557;2.9000002541579306e-06;0.5009185000017169;0.5409367000029306;0.5509369999999763;0.6209685000030731;0.7510574000007182;0.8811568000019179;0.01
5;1;8;48;letter181;letter357;letter357;letter181;0;0;incongruent;0.04;letter357;0.05;0.07;fullmask;0.2;arrow_left.png;up;0.3588004999983241;0.3599707999965176;23799.6830964;2.9000002541579306e-06;0.49696839999887743;0.5372014999993553;0.5470195999987482;0.6170358999988821;0.7471179999993183;0.877214100000856;0.01
5;1;8;49;letter181;letter357;letter357;letter181;0;0;congruent;0.04;letter181;0.05;0.07;fullmask;0.2;arrow_left.png;down;0.3576503000003868;0.35997990000032587;23801.5231345;3.0000010156072676e-06;0.5048383000030299;0.5448692999998457;0.5548820000003616;0.6249021000003268;0.7550105000009353;0.8850894000024709;0.01
5;1;8;50;letter181;letter357;letter357;letter181;0;0;incongruent;0.04;letter357;0.05;0.07;fullmask;0.2;arrow_left.png;up;0.450211199997284;0.45978049999757786;23803.4670685;2.9999973776284605e-06;0.5025151999980153;0.5425334999999905;0.5525463999983913;0.6225905999999668;0.7526628999985405;0.8827582999983861;0.01
5;1;8;51;letter181;letter357;letter357;letter181;0;1;incongruent;0.12;letter357;0.14;0.07;fullmask;0.2;arrow_left.png;up;0.30728000000090105;0.3102214000027743;23805.3550535;3.0000010156072676e-06;0.500567900002352;0.6206514000004972;0.6406765000028827;0.7107226000007358;0.8407887000030314;0.9708965999998327;0.01
5;1;8;52;letter181;letter357;letter357;letter181;0;0;incongruent;0.04;letter181;0.05;0.07;fullmask;0.2;arrow_right.png;down;0.3699336999998195;0.37005869999848073;23807.2190784;2.7999994927085936e-06;0.5019356999982847;0.5419580999987375;0.5519770999999309;0.621995199999219;0.7520919999988109;0.8821821999990789;0.01
5;2;14;1;letter190;letter169;letter169;letter190;1;0;congruent;0.12;letter169;0.18;0.07;fullmask;0.2;arrow_right.png;up;0.8175621999980649;0.8197959999997693;24947.3385235;3.2000025385059416e-06;0.49988260000100126;0.6199628000031225;0.6800255000016477;0.7500180000024557;0.880120400001033;1.0102054000017233;0.01
5;2;14;2;letter190;letter169;letter169;letter190;1;0;congruent;0.12;letter190;0.18;0.07;fullmask;0.2;arrow_left.png;down;1.6746898999990663;1.6813985999979195;24950.6265423;2.7999994927085936e-06;0.5046519999996235;0.6247403999987;0.6847519999973883;0.7548028999990493;0.8848727999975381;1.014975999998569;0.01
5;2;14;3;letter190;letter169;letter169;letter190;1;0;incongruent;0.12;letter169;0.18;0.07;fullmask;0.2;arrow_left.png;up;0.8484597000024223;0.8507881000005;24953.082545;3.0999981390777975e-06;0.4942080000000715;0.6142806999996537;0.6742980999988504;0.7443579999999201;0.8744358999974793;1.0045325999999477;0.01
5;2;14;4;letter190;letter169;letter169;letter190;1;0;congruent;0.12;letter190;0.18;0.07;fullmask;0.2;arrow_left.png;down;0.48046980000071926;0.4907490000005055;24955.1865364;2.7999994927085936e-06;0.5024591999972472;0.6225552999967476;0.6826053999975557;0.7526270999987901;0.8827225999993971;1.012809699997888;0.01
5;2;14;5;letter190;letter169;letter169;letter190;1;0;incongruent;0.12;letter190;0.18;0.07;fullmask;0.2;arrow_right.png;down;0.38965539999844623;0.39101490000030026;24957.1866542;3.0000010156072676e-06;0.49630139999862877;0.6163730999978725;0.6764172000002873;0.7464550000004238;0.8765324999985751;1.006632599997829;0.01
5;2;14;6;letter190;letter169;letter169;letter190;1;0;incongruent;0.12;letter169;0.18;0.07;fullmask;0.2;arrow_left.png;up;0.14800630000172532;0.15060889999949723;24958.9465577;2.9000002541579306e-06;0.5054065999975137;0.6254895999991277;0.6855113999990863;0.7555166999991343;0.885618299998896;1.0157103999990795;0.01
5;2;14;7;letter190;letter169;letter169;letter190;1;0;incongruent;0.12;letter190;0.18;0.07;fullmask;0.2;arrow_right.png;down;0.2903454999977839;0.3002576999970188;24960.8505729;2.9000002541579306e-06;0.50120390000302;0.6212708000020939;0.6813183000012941;0.7513404000019364;0.8814304000006814;1.0115409000027284;0.01
5;2;14;8;letter190;letter169;letter169;letter190;1;0;incongruent;0.12;letter169;0.18;0.07;fullmask;0.2;arrow_left.png;up;0.29109100000277977;0.30014610000216635;24962.7625072;3.0000010156072676e-06;0.5039567999992869;0.6240245000008144;0.6840816000003542;0.7541373999993084;0.8841816000021936;1.0143286000020453;0.01
5;2;14;9;letter190;letter169;letter169;letter190;1;0;incongruent;0.12;letter190;0.18;0.07;fullmask;0.2;arrow_right.png;down;0.06846539999969536;0.06996720000097412;24964.4505191;2.9000002541579306e-06;0.4984839999997348;0.6185452999998233;0.6785775999996986;0.7486018000017793;0.8786978000025556;1.0088071000027412;0.01
5;2;14;10;letter190;letter169;letter169;letter190;1;0;congruent;0.12;letter169;0.18;0.07;fullmask;0.2;arrow_right.png;up;0.05966869999974733;0.061042499997711275;24966.1226351;2.9000002541579306e-06;0.5048669999996491;0.6249399000007543;0.6849823999982618;0.7550081000008504;0.8851078000006964;1.0151889999979176;0.01
5;2;14;11;letter190;letter169;letter169;letter190;1;0;congruent;0.12;letter169;0.18;0.07;fullmask;0.2;arrow_right.png;up;0.30225399999835645;0.3099145000014687;24968.0265199;2.9000002541579306e-06;0.5007517999983975;0.6208244000008563;0.6808810000002268;0.7508840000009513;0.8809820999995281;1.0110839000008127;0.01
5;2;14;12;letter190;letter169;letter169;letter190;1;0;congruent;0.12;letter190;0.18;0.07;fullmask;0.2;arrow_left.png;down;1.908999400002358;1.9110064000014972;24971.5545672;2.9999973776284605e-06;0.49535479999758536;0.6154417999969155;0.6754724999991595;0.7455258999980288;0.8755929999970249;1.0057022999972105;0.01
5;2;15;1;letter190;letter169;letter169;letter190;0;0;congruent;0.04;letter169;0.09;0.07;fullmask;0.2;arrow_right.png;down;0.6567729999987932;0.6603304999989632;24980.4984991;3.1999989005271345e-06;0.4952004999977362;0.5352171999984421;0.5852648999971279;0.6552964999973483;0.7853777999989688;0.9154887999975472;0.01
5;2;15;2;letter190;letter169;letter169;letter190;0;0;incongruent;0.04;letter169;0.09;0.07;fullmask;0.2;arrow_left.png;down;0.3007889999971667;0.3105668999996851;24982.5545755;2.9999973776284605e-06;0.5010412999981781;0.541054899997107;0.5910859999967215;0.6611135999992257;0.791206299996702;0.9212954999966314;0.01
5;2;15;3;letter190;letter169;letter169;letter190;0;0;incongruent;0.04;letter169;0.09;0.07;fullmask;0.2;arrow_left.png;up;0.5431683999995585;0.5504857000014454;24984.8186416;2.9000002541579306e-06;0.5002194000007876;0.5402410999995482;0.590256400002545;0.6603088000010757;0.7903928000014275;0.9204814000004262;0.01
5;2;15;4;letter190;letter169;letter169;letter190;0;0;incongruent;0.04;letter190;0.09;0.07;fullmask;0.2;arrow_right.png;down;0.2702084999982617;0.28031149999878835;24986.6265535;2.9000002541579306e-06;0.5013417999980447;0.5413678999975673;0.5913935999997193;0.6614289999997709;0.7915178000002925;0.9216359999991255;0.01
5;2;15;5;letter190;letter169;letter169;letter190;0;0;congruent;0.04;letter190;0.09;0.07;fullmask;0.2;arrow_left.png;down;0.23108439999850816;0.24037309999766876;24988.378492;2.9999973776284605e-06;0.4979758999979822;0.537998299998435;0.5880329999999958;0.6580632999975933;0.7881521999988763;0.9182412999980443;0.01
5;2;15;6;letter190;letter169;letter169;letter190;0;0;congruent;0.04;letter190;0.09;0.07;fullmask;0.2;arrow_left.png;down;0.032332700000551995;0.040786500001559034;24989.930514;3.0000010156072676e-06;0.49879689999943366;0.5388118999981089;0.5888511000011931;0.6588876999994682;0.7889739999991434;0.9190698999991582;0.01
5;2;15;7;letter190;letter169;letter169;letter190;0;0;congruent;0.04;letter169;0.09;0.07;fullmask;0.2;arrow_right.png;up;0.15915740000127698;0.16069820000120671;24991.6185759;2.9000002541579306e-06;0.5007752999990771;0.5408037999986846;0.5908294000000751;0.6608502999988559;0.7909540000000561;0.9210500999979558;0.01
5;2;15;8;letter190;letter169;letter169;letter190;0;0;incongruent;0.04;letter190;0.09;0.07;fullmask;0.2;arrow_right.png;down;2.07032640000034;2.071521499998198;24995.2106214;2.9000002541579306e-06;0.5016429999996035;0.5416689999983646;0.5917010999983177;0.6617461999994703;0.7918190999989747;0.9219455999991624;0.01
5;2;15;9;letter190;letter169;letter169;letter190;0;0;incongruent;0.04;letter190;0.09;0.07;fullmask;0.2;arrow_right.png;down;0.4933089000005566;0.4996802000023308;24997.2265356;2.9000002541579306e-06;0.4963817000025301;0.5364007000025595;0.5864259000009042;0.6564612000001944;0.7865186000017275;0.9166426000010688;0.01
5;2;15;10;letter190;letter169;letter169;letter190;0;0;congruent;0.04;letter169;0.09;0.07;fullmask;0.2;arrow_right.png;up;0.37016439999933937;0.37990200000058394;24999.1145004;2.9000002541579306e-06;0.5037733999997727;0.5438079999985348;0.5938212999972166;0.6638517999999749;0.7939353999972809;0.9240337999981421;0.01
5;2;15;11;letter190;letter169;letter169;letter190;0;0;congruent;0.04;letter190;0.09;0.07;fullmask;0.2;arrow_left.png;down;0.3676863000000594;0.3711588000005577;25001.0027022;3.1999989005271345e-06;0.4944768999994267;0.5344977999993716;0.5845203999997466;0.6545667999998841;0.7846486999987974;0.9147392999984731;0.01
5;2;15;12;letter190;letter169;letter169;letter190;0;0;incongruent;0.04;letter169;0.09;0.07;fullmask;0.2;arrow_left.png;up;0.24396680000063498;0.2504946999979438;25002.7707254;2.7999994927085936e-06;0.5009463999995205;0.5409717000002274;0.5910086999974737;0.6610397999975248;0.7911389999972016;0.9212324999971315;0.01
5;2;15;13;letter190;letter169;letter169;letter190;0;1;congruent;0.12;letter190;0.18;0.07;fullmask;0.2;arrow_left.png;down;0.07634980000148062;0.07995320000190986;25004.4745072;2.9000002541579306e-06;0.5045494000005419;0.6246281000021554;0.6846543999999994;0.7547149000019999;0.8847676000004867;1.0148704000021098;0.01
5;2;15;14;letter190;letter169;letter169;letter190;0;0;incongruent;0.04;letter169;0.09;0.07;fullmask;0.2;arrow_left.png;up;0.32335520000196993;0.3301668000021891;25006.3225037;2.9000002541579306e-06;0.5005118000008224;0.5405170999983966;0.5905478999993647;0.6605792999980622;0.7906712000003608;0.9207728000001225;0.01
5;2;15;15;letter190;letter169;letter169;letter190;0;0;incongruent;0.04;letter190;0.09;0.07;fullmask;0.2;arrow_right.png;down;0.26394689999870025;0.26932289999967907;25008.114534;2.9000002541579306e-06;0.49649349999890546;0.5364846999982547;0.5864995999982057;0.6565601000002061;0.786633299998357;0.916750399999728;0.01
5;2;15;16;letter190;letter169;letter169;letter190;0;0;congruent;0.04;letter190;0.09;0.07;fullmask;0.2;arrow_left.png;down;0.3476420999977563;0.3509708999990835;25009.978492;3.0000010156072676e-06;0.4992333999980474;0.5392541000001074;0.589292699998623;0.659318499998335;0.7894163999990269;0.9195039000005636;0.01
5;2;15;17;letter190;letter169;letter169;letter190;0;0;incongruent;0.04;letter169;0.09;0.07;fullmask;0.2;arrow_left.png;up;0.2977052000023832;0.3002252000005683;25011.8104955;3.0000010156072676e-06;0.49983399999837275;0.539858500000264;0.5898884999987786;0.6599246000005223;0.7900047000002814;0.9201193999979296;0.01
5;2;15;18;letter190;letter169;letter169;letter190;0;1;incongruent;0.12;letter169;0.18;0.07;fullmask;0.2;arrow_left.png;up;0.4431394999992335;0.45072979999895324;25013.8665878;3.4000004234258085e-06;0.5019633999982034;0.6220281999994768;0.682083200001216;0.7521024999987276;0.8821888999991643;1.0122607000012067;0.01
5;2;15;19;letter190;letter169;letter169;letter190;0;0;congruent;0.04;letter190;0.09;0.07;fullmask;0.2;arrow_left.png;down;0.2211654999991879;0.22939899999983027;25015.6265613;3.0000010156072676e-06;0.5054947999997239;0.5455222999989928;0.5955156999989413;0.6655719999980647;0.7956454999984999;0.9257700999987719;0.01
5;2;15;20;letter190;letter169;letter169;letter190;0;0;congruent;0.04;letter169;0.09;0.07;fullmask;0.2;arrow_right.png;up;0.27274999999644933;0.28017569999792613;25017.4184869;2.7999994927085936e-06;0.49607860000105575;0.5360884000001533;0.5861398999986704;0.656161200000497;0.786258899999666;0.9163477000001876;0.01
5;2;15;21;letter190;letter169;letter169;letter190;0;0;incongruent;0.04;letter169;0.09;0.07;fullmask;0.2;arrow_left.png;up;0.19341040000290377;0.2004969000008714;25019.1307597;3.0000010156072676e-06;0.49563280000074883;0.5356551000004401;0.5857296000031056;0.6557309000017995;0.7858427000028314;0.9159060000019963;0.01
5;2;15;22;letter190;letter169;letter169;letter190;0;0;congruent;0.04;letter169;0.09;0.07;fullmask;0.2;arrow_right.png;up;0.30638790000011795;0.31019730000116397;25020.9545928;2.9999973776284605e-06;0.499600899998768;0.539624899996852;0.5896526999968046;0.65968189999694;0.7897761999993236;0.9198679000000993;0.01
5;2;15;23;letter190;letter169;letter169;letter190;0;0;congruent;0.04;letter169;0.09;0.07;fullmask;0.2;arrow_right.png;up;0.2731878000013239;0.28026320000208216;25022.7624833;2.7999994927085936e-06;0.50313129999995;0.5431492999996408;0.5931897000009485;0.6632151000012527;0.7932935999997426;0.9234049000006053;0.01
5;2;15;24;letter190;letter169;letter169;letter190;0;0;congruent;0.04;letter190;0.09;0.07;fullmask;0.2;arrow_left.png;down;0.3621686000005866;0.3709214000009524;25024.6424896;3.0999981390777975e-06;0.4987102999984927;0.5387482000005548;0.5887589000012667;0.6587991999986116;0.7888768999982858;0.9189848999994865;0.01
5;2;15;25;letter190;letter169;letter169;letter190;0;0;incongruent;0.04;letter190;0.09;0.07;fullmask;0.2;arrow_right.png;down;0.24642729999686708;0.25025579999783076;25026.4185032;2.7999994927085936e-06;0.5052427999980864;0.5452549000001454;0.5953288999990036;0.6653293999988819;0.7954252999988967;0.9255129000011948;0.01
5;2;15;26;letter190;letter169;letter169;letter190;0;0;incongruent;0.04;letter190;0.09;0.07;fullmask;0.2;arrow_right.png;down;0.11746949999724166;0.1198487000001478;25028.0505479;2.9999973776284605e-06;0.4940763999984483;0.534100099997886;0.5841205999968224;0.654166799999075;0.7842383999995945;0.9143478999976651;0.01
5;2;15;27;letter190;letter169;letter169;letter190;0;0;congruent;0.04;letter169;0.09;0.07;fullmask;0.2;arrow_right.png;up;0.27612819999922067;0.2803005000023404;25029.8504362;2.8999966161791235e-06;0.5009913999965647;0.5409914999981993;0.5910131999989972;0.6610493999978644;0.7911340999999084;0.9212354999981471;0.01
5;2;15;28;letter190;letter169;letter169;letter190;0;0;incongruent;0.04;letter169;0.09;0.07;fullmask;0.2;arrow_left.png;up;0.2994318999990355;0.30021940000006;25031.6746643;3.0000010156072676e-06;0.503276100000221;0.5432825999996567;0.593306400001893;0.6633652000018628;0.7934400000012829;0.923532000000705;0.01
5;2;15;29;letter190;letter169;letter169;letter190;0;0;incongruent;0.04;letter169;0.09;0.07;fullmask;0.2;arrow_left.png;up;0.08054149999952642;0.08065960000021732;25033.2665302;3.1999989005271345e-06;0.5051682000012079;0.5451857000007294;0.5952094000022043;0.6652561000009882;0.7953288999997312;0.9254368000001705;0.01
5;2;15;30;letter190;letter169;letter169;letter190;0;0;incongruent;0.04;letter190;0.09;0.07;fullmask;0.2;arrow_right.png;down;0.3136283999992884;0.3211637000022165;25035.0905989;3.1000017770566046e-06;0.49601930000062566;0.5360374000010779;0.5860586000017065;0.6561063000008289;0.7861677000000782;0.9163019000006898;0.01
5;2;15;31;letter190;letter169;letter169;letter190;0;0;congruent;0.04;letter190;0.09;0.07;fullmask;0.2;arrow_left.png;down;0.40830650000134483;0.41106280000167317;25037.026536;3.0999981390777975e-06;0.5014378999985638;0.5414541999998619;0.5915019999993092;0.6615143999988504;0.7916073999986111;0.9217060999981186;0.01
5;2;15;32;letter190;letter169;letter169;letter190;0;1;congruent;0.12;letter169;0.18;0.07;fullmask;0.2;arrow_right.png;up;0.002840299999661511;0.009983500000089407;25038.6425365;3.2999996619764715e-06;0.5010887999997067;0.6211648999997124;0.6811965000015334;0.7512361000008241;0.8813173999988066;1.0114254000000074;0.01
5;2;15;33;letter190;letter169;letter169;letter190;0;0;congruent;0.04;letter169;0.09;0.07;fullmask;0.2;arrow_right.png;up;0.29589320000013686;0.30012259999784874;25040.4664521;2.8999966161791235e-06;0.5050329999976384;0.5450600999974995;0.5951150999972015;0.6651247999980114;0.7952173999983643;0.925307099998463;0.01
5;2;15;34;letter190;letter169;letter169;letter190;0;0;incongruent;0.04;letter190;0.09;0.07;fullmask;0.2;arrow_right.png;down;0.30880400000023656;0.3100923000019975;25042.2904737;3.2999996619764715e-06;0.5008330999989994;0.5408587999991141;0.5909041999984765;0.6609274000002188;0.7910205999978643;0.9211192000002484;0.01
5;2;15;35;letter190;letter169;letter169;letter190;0;0;incongruent;0.04;letter190;0.09;0.07;fullmask;0.2;arrow_right.png;down;0.4529392000004009;0.4598312000016449;25044.2664836;2.9999973776284605e-06;0.49913399999786634;0.5391514999973879;0.5891766999993706;0.6592213999974774;0.7892735999994329;0.9194123999986914;0.01
5;2;15;36;letter190;letter169;letter169;letter190;0;0;congruent;0.04;letter190;0.09;0.07;fullmask;0.2;arrow_left.png;down;0.5663089000008767;0.5706522000000405;25046.3705163;3.1000017770566046e-06;0.5017923999985214;0.5418372999993153;0.5918510000010428;0.6618774000016856;0.7919621000000916;0.9220644000015454;0.01
5;2;15;37;letter190;letter169;letter169;letter190;0;0;incongruent;0.04;letter169;0.09;0.07;fullmask;0.2;arrow_left.png;up;0.3527347000017471;0.3599662000015087;25048.2584729;2.9000002541579306e-06;0.5050544000005175;0.5450773000011395;0.5951244999996561;0.665119199999026;0.7952316000009887;0.9253145000002405;0.01
5;2;15;38;letter190;letter169;letter169;letter190;0;0;congruent;0.04;letter190;0.09;0.07;fullmask;0.2;arrow_left.png;down;0.3511886999986018;0.3602649999993446;25050.1385696;3.1000017770566046e-06;0.4995167000015499;0.5394535000014002;0.5894826000003377;0.6595132000002195;0.7895767000009073;0.9197035000033793;0.01
5;2;15;39;letter190;letter169;letter169;letter190;0;0;congruent;0.04;letter169;0.09;0.07;fullmask;0.2;arrow_right.png;up;0.18188010000085342;0.18955350000032922;25051.850551;2.9999973776284605e-06;0.5042753999987326;0.5442776999989292;0.5943206999982067;0.6643440999978338;0.7944454999997106;0.9245325999982015;0.01
5;2;15;40;letter190;letter169;letter169;letter190;0;0;congruent;0.04;letter190;0.09;0.07;fullmask;0.2;arrow_left.png;down;2.5613496999976633;2.562045099999523;25055.9304996;3.0000010156072676e-06;0.49736750000010943;0.5374013000000559;0.5874189999994996;0.6574632000010752;0.7875399000004109;0.9176453000000038;0.01
5;2;15;41;letter190;letter169;letter169;letter190;0;1;incongruent;0.12;letter190;0.18;0.07;fullmask;0.2;arrow_right.png;down;0.2061558999994304;0.20946429999821703;25057.7385733;3.0999981390777975e-06;0.5017440000010538;0.6218105000007199;0.6818492999991577;0.7518731999989541;0.8820106999992277;1.012056899999152;0.01
5;2;15;42;letter190;letter169;letter169;letter190;0;0;congruent;0.04;letter190;0.09;0.07;fullmask;0.2;arrow_left.png;down;0.24755459999869345;0.2502424999984214;25059.4904698;2.9000002541579306e-06;0.4962244999987888;0.5362492999993265;0.5862687000008009;0.6563190000015311;0.7863899000003585;0.9164913000022352;0.01
5;2;15;43;letter190;letter169;letter169;letter190;0;0;congruent;0.04;letter190;0.09;0.07;fullmask;0.2;arrow_left.png;down;1.4126222000013513;1.4213000000017928;25062.4265992;3.0000010156072676e-06;0.5004311999982747;0.5404484999999113;0.5905038999990211;0.6605129999989003;0.7906151999995927;0.9207411999996111;0.01
5;2;15;44;letter190;letter169;letter169;letter190;0;0;incongruent;0.04;letter169;0.09;0.07;fullmask;0.2;arrow_left.png;up;0.350538200000301;0.36009939999712515;25064.3064712;2.9000002541579306e-06;0.49959469999885187;0.5396121000012499;0.5896740999996837;0.659918800000014;0.7897866000021168;0.9198637000008603;0.01
5;2;15;45;letter190;letter169;letter169;letter190;0;0;congruent;0.04;letter169;0.09;0.07;fullmask;0.2;arrow_right.png;up;0.3434177000017371;0.35097550000136835;25066.1704604;3.0000010156072676e-06;0.4967599000010523;0.5367685000019264;0.5868174999995972;0.6568327999993926;0.7869261000014376;0.9170173999991675;0.01
5;2;15;46;letter190;letter169;letter169;letter190;0;0;incongruent;0.04;letter190;0.09;0.07;fullmask;0.2;arrow_right.png;down;0.22409999999945285;0.23044600000139326;25067.922558;3.0000010156072676e-06;0.5014610000034736;0.5414857000032498;0.5915091000024404;0.6615410000013071;0.7916224000000511;0.9217342000010831;0.01
5;2;15;47;letter190;letter169;letter169;letter190;0;0;incongruent;0.04;letter190;0.09;0.07;fullmask;0.2;arrow_right.png;down;0.29902369999763323;0.3001223999999638;25069.7384264;2.9000002541579306e-06;0.5002228999983345;0.5402453999995487;0.5902831999992486;0.660311499999807;0.7904048999989755;0.9204979999994976;0.01
5;2;15;48;letter190;letter169;letter169;letter190;0;0;congruent;0.04;letter169;0.09;0.07;fullmask;0.2;arrow_right.png;up;0.27156339999783086;0.28017609999733395;25071.5224522;2.7999994927085936e-06;0.49584540000068955;0.5358630000009725;0.5859195000011823;0.6559269999997923;0.7860476000023482;0.9161113000009209;0.01
5;2;15;49;letter190;letter169;letter169;letter190;0;0;incongruent;0.04;letter169;0.09;0.07;fullmask;0.2;arrow_left.png;up;0.23077069999999367;0.24041679999936605;25073.282473;2.6999987312592566e-06;0.5048677000013413;0.5449002999994264;0.5949236999986169;0.6649460000007821;0.7950367999983428;0.9251355999986117;0.01
5;2;15;50;letter190;letter169;letter169;letter190;0;0;congruent;0.04;letter169;0.09;0.07;fullmask;0.2;arrow_right.png;up;0.1818165999975463;0.19054719999985537;25074.994504;2.9000002541579306e-06;0.4978845999976329;0.5378991999969003;0.5879271999983757;0.6579559999991034;0.7880459999978484;0.9181500999984564;0.01
5;2;15;51;letter190;letter169;letter169;letter190;0;0;incongruent;0.04;letter169;0.09;0.07;fullmask;0.2;arrow_left.png;up;0.1663393000017095;0.17060480000145617;25076.69051;3.0000010156072676e-06;0.5006450000000768;0.540654699998413;0.5906756000003952;0.6607211999980791;0.7907945999977528;0.9209014000007301;0.01
5;2;15;52;letter190;letter169;letter169;letter190;0;0;incongruent;0.04;letter190;0.09;0.07;fullmask;0.2;arrow_right.png;down;0.09275549999802024;0.09966129999884288;25078.2984682;2.9000002541579306e-06;0.4978184000028705;0.5378318000002764;0.5878960000009101;0.6579104000011284;0.7880125000010594;0.918088300000818;0.01
5;2;16;1;letter190;letter169;letter169;letter190;0;0;incongruent;0.04;letter190;0.09;0.07;fullmask;0.2;arrow_right.png;down;0.4184327000002668;0.41998940000121365;25083.1064545;3.0000010156072676e-06;0.4986487999995006;0.5386609000015596;0.5887094000026991;0.6587045000014768;0.7888261000007333;0.9189192000012554;0.01
5;2;16;2;letter190;letter169;letter169;letter190;0;1;incongruent;0.12;letter190;0.18;0.07;fullmask;0.2;arrow_right.png;down;0.25865750000230037;0.2593680000027234;25084.9784513;3.0000010156072676e-06;0.4991236000023491;0.6191912000031152;0.6792370000002848;0.7492734000006749;0.8793316000010236;1.0094561000005342;0.01
5;2;16;3;letter190;letter169;letter169;letter190;0;0;congruent;0.04;letter190;0.09;0.07;fullmask;0.2;arrow_left.png;down;0.4457870999976876;0.4498615999982576;25086.9465446;3.0999981390777975e-06;0.5044963999971515;0.544526899997436;0.594542899998487;0.6645742999971844;0.7946558000003279;0.9247584999975516;0.01
5;2;16;4;letter190;letter169;letter169;letter190;0;0;incongruent;0.04;letter169;0.09;0.07;fullmask;0.2;arrow_left.png;up;0.02874320000046282;0.0299483999988297;25088.4904748;3.0999981390777975e-06;0.4956693999993149;0.5356948999979068;0.5857267999999749;0.6557714000009582;0.7858559999986028;0.9159426000005624;0.01
5;2;16;5;letter190;letter169;letter169;letter190;0;0;incongruent;0.04;letter169;0.09;0.07;fullmask;0.2;arrow_left.png;up;0.22913469999912195;0.22925589999795193;25090.2424741;3.2999996619764715e-06;0.5047669000014139;0.544774400001188;0.5947969000008015;0.6648497999995016;0.7949183999990055;0.9250508000004629;0.01
5;2;16;6;letter190;letter169;letter169;letter190;0;0;congruent;0.04;letter169;0.09;0.07;fullmask;0.2;arrow_right.png;up;0.1004555999970762;0.10972259999834932;25091.874459;3.1999989005271345e-06;0.4985061000006681;0.5385315999992599;0.5885754000009911;0.6585888999979943;0.7886885000007169;0.9187781000000541;0.01
5;2;16;7;letter190;letter169;letter169;letter190;0;0;incongruent;0.04;letter190;0.09;0.07;fullmask;0.2;arrow_right.png;down;0.3753719000014826;0.3797468000011577;25093.7704592;3.0999981390777975e-06;0.49630679999972926;0.5363322999983211;0.5863533000010648;0.6564022999991721;0.7864810999999463;0.916580500001146;0.01
5;2;16;8;letter190;letter169;letter169;letter190;0;0;incongruent;0.04;letter169;0.09;0.07;fullmask;0.2;arrow_left.png;up;0.2767303999971773;0.28127200000017183;25095.5624707;2.9000002541579306e-06;0.49574310000025434;0.5357557999996061;0.5857885000004899;0.6558297000010498;0.785898800000723;0.9160076000007393;0.01
5;2;16;9;letter190;letter169;letter169;letter190;0;0;congruent;0.04;letter169;0.09;0.07;fullmask;0.2;arrow_right.png;up;0.18129169999883743;0.19041769999967073;25097.258443;3.0000010156072676e-06;0.4952503999993496;0.5352624000006472;0.5853165000007721;0.6553294000004826;0.7854308999994828;0.9155250000003434;0.01
5;2;16;10;letter190;letter169;letter169;letter190;0;0;congruent;0.04;letter190;0.09;0.07;fullmask;0.2;arrow_left.png;down;0.3075669000027119;0.3102251000018441;25099.1064999;2.9000002541579306e-06;0.5056347999998252;0.5456372000007832;0.5956771999990451;0.665704299997742;0.7957939999978407;0.9258876999992935;0.01
5;2;16;11;letter190;letter169;letter169;letter190;0;0;incongruent;0.04;letter169;0.09;0.07;fullmask;0.2;arrow_left.png;up;0.2546805999991193;0.26022329999977956;25100.8744324;3.0000010156072676e-06;0.4962264999994659;0.5362200999989;0.5862534000007145;0.6562897000003431;0.7863622000004398;0.9164739000007103;0.01
5;2;16;12;letter190;letter169;letter169;letter190;0;0;incongruent;0.04;letter190;0.09;0.07;fullmask;0.2;arrow_right.png;down;0.04326280000168481;0.049789100001362385;25102.4344538;3.1999989005271345e-06;0.4958994000007806;0.5358969000008074;0.5859224999985599;0.6559526999990339;0.7860190999999759;0.9161256000006688;0.01
5;2;16;13;letter190;letter169;letter169;letter190;0;0;incongruent;0.04;letter169;0.09;0.07;fullmask;0.2;arrow_left.png;up;0.0386822000000393;0.04004709999935585;25104.0105033;3.0000010156072676e-06;0.5052424000023166;0.5452726000003167;0.5953131999995094;0.6653375000023516;0.795447200001945;0.9255317999995896;0.01
5;2;16;14;letter190;letter169;letter169;letter190;0;0;incongruent;0.04;letter190;0.09;0.07;fullmask;0.2;arrow_right.png;down;0.21616220000214525;0.22036970000044676;25105.7384863;2.9000002541579306e-06;0.49473089999810327;0.5347464999977092;0.5848000999976648;0.6548293999985617;0.7849198000003526;0.9150029999982507;0.01
5;2;16;15;letter190;letter169;letter169;letter190;0;0;congruent;0.04;letter169;0.09;0.07;fullmask;0.2;arrow_right.png;up;0.06478490000154125;0.0699663999985205;25107.3385248;2.9000002541579306e-06;0.5011802000008174;0.5411913999996614;0.5912380000008852;0.661270799999329;0.7913594999990892;0.92144879999978;0.01
5;2;16;16;letter190;letter169;letter169;letter190;0;1;congruent;0.12;letter169;0.18;0.07;fullmask;0.2;arrow_right.png;down;0.2579728000018804;0.2602203000024019;25109.2024452;2.9000002541579306e-06;0.5004733000023407;0.6205517000016698;0.6805819000001065;0.7506209000021045;0.8807109000008495;1.0108011000011174;0.01
5;2;16;17;letter190;letter169;letter169;letter190;0;0;congruent;0.04;letter190;0.09;0.07;fullmask;0.2;arrow_left.png;down;0.27571420000094804;0.2793124000017997;25111.2024481;2.9000002541579306e-06;0.4988009999979113;0.5388132999978552;0.5888543000000936;0.6588861999989604;0.7889723999978742;0.919055299997126;0.01
5;2;16;18;letter190;letter169;letter169;letter190;0;0;incongruent;0.04;letter190;0.09;0.07;fullmask;0.2;arrow_right.png;down;0.2986227000001236;0.30031569999846397;25113.0264881;2.8999966161791235e-06;0.5051058999997622;0.5451314999991155;0.5951851999998325;0.6652082000000519;0.795302399998036;0.9253876999973727;0.01
5;2;16;19;letter190;letter169;letter169;letter190;0;0;incongruent;0.04;letter169;0.09;0.07;fullmask;0.2;arrow_left.png;up;0.5256419999968784;0.5296454999988782;25115.0745133;3.0000010156072676e-06;0.5011776999999711;0.5411916000011843;0.591241699999955;0.6612619000006816;0.7913379000019631;0.9214272999997775;0.01
5;2;16;20;letter190;letter169;letter169;letter190;0;0;congruent;0.04;letter190;0.09;0.07;fullmask;0.2;arrow_left.png;down;0.012604100000316976;0.01997320000009495;25116.6024509;3.1999989005271345e-06;0.5019953999981226;0.5420258000012836;0.5920511000003899;0.6620834999994258;0.7921808999999485;0.9222647999995388;0.01
5;2;16;21;letter190;letter169;letter169;letter190;0;0;congruent;0.04;letter190;0.09;0.07;fullmask;0.2;arrow_left.png;up;0.4875123999991047;0.49060670000108075;25118.6184931;2.7999994927085936e-06;0.5024515000004612;0.5424688999992213;0.59250400000019;0.662539699998888;0.7926345999985642;0.9227199999986624;0.01
5;2;16;22;letter190;letter169;letter169;letter190;0;0;congruent;0.04;letter190;0.09;0.07;fullmask;0.2;arrow_left.png;down;0.8661608000002161;0.8708339000004344;25121.2184976;3.0999981390777975e-06;0.5035532000001695;0.5435696999993525;0.5936160999990534;0.6636426000004576;0.7937281000013172;0.9238254000010784;0.01
5;2;16;23;letter190;letter169;letter169;letter190;0;0;incongruent;0.04;letter190;0.09;0.07;fullmask;0.2;arrow_right.png;down;0.850847599998815;0.8607282999982999;25123.5945889;3.0000010156072676e-06;0.504495199998928;0.5445227000018349;0.5945327000008547;0.6645809000001464;0.7946527999993123;0.9247601999995823;0.01
5;2;16;24;letter190;letter169;letter169;letter190;0;0;congruent;0.04;letter169;0.09;0.07;fullmask;0.2;arrow_right.png;up;0.373048800000106;0.37999979999949574;25125.4985071;2.9000002541579306e-06;0.5022191999996721;0.5422351999986859;0.5922582999992301;0.6623185999997077;0.7923821000003954;0.9224895999977889;0.01
5;2;16;25;letter190;letter169;letter169;letter190;0;0;congruent;0.04;letter169;0.09;0.07;fullmask;0.2;arrow_right.png;up;0.31397800000195275;0.3200695000014093;25127.330449;2.9000002541579306e-06;0.5040848000026017;0.5441031000009389;0.5941547000002174;0.6641650000019581;0.7942489000015485;0.9243599000001268;0.01
5;2;16;26;letter190;letter169;letter169;letter190;0;0;incongruent;0.04;letter169;0.09;0.07;fullmask;0.2;arrow_left.png;up;0.27285630000187666;0.2801657999989402;25129.1304305;2.9000002541579306e-06;0.5055801999988034;0.5455934999990859;0.5956282000006468;0.6656724999993457;0.7957419999984268;0.9258525999975973;0.01
5;2;16;27;letter190;letter169;letter169;letter190;0;0;incongruent;0.04;letter190;0.09;0.07;fullmask;0.2;arrow_right.png;down;0.23734890000196174;0.2402786999991804;25130.9065082;2.8999966161791235e-06;0.4993959999992512;0.5394493999992847;0.5894437999995716;0.6594712999976764;0.7895630999992136;0.9196668999975373;0.01
5;2;16;28;letter190;letter169;letter169;letter190;0;0;incongruent;0.04;letter190;0.09;0.07;fullmask;0.2;arrow_right.png;down;0.24662069999976666;0.2502542000001995;25132.6664617;2.9999973776284605e-06;0.49709119999897666;0.5371199999972305;0.5871412999986205;0.6571807000000263;0.7872530999993614;0.917368999998871;0.01
5;2;16;29;letter190;letter169;letter169;letter190;0;0;congruent;0.04;letter190;0.09;0.07;fullmask;0.2;arrow_left.png;down;0.30485719999705907;0.31023049999930663;25134.5064287;3.0000010156072676e-06;0.503112999998848;0.5431322000004002;0.5931759000013699;0.6632067999998981;0.7932796999994025;0.9233841999994183;0.01
5;2;16;30;letter190;letter169;letter169;letter190;0;0;incongruent;0.04;letter169;0.09;0.07;fullmask;0.2;arrow_left.png;up;2.378037200000108;2.3818195999992895;25138.410401;3.0000010156072676e-06;0.5030866000015521;0.5431003000012424;0.593118200002209;0.6631615000005695;0.7932360000013432;0.9233509000005142;0.01
5;2;16;31;letter190;letter169;letter169;letter190;0;0;incongruent;0.04;letter169;0.09;0.07;fullmask;0.2;arrow_left.png;up;0.4257562999991933;0.4309308999982022;25140.370431;2.9000002541579306e-06;0.5022452999983216;0.542248899997503;0.5922804999972868;0.6623235999977624;0.7923994999982824;0.9225281999970321;0.01
5;2;16;32;letter190;letter169;letter169;letter190;0;1;congruent;0.12;letter190;0.18;0.07;fullmask;0.2;arrow_left.png;down;0.19445249999989755;0.20038860000204295;25142.1704215;3.0999981390777975e-06;0.4962463000010757;0.6163137000003189;0.6763499000007869;0.7464072000002488;0.8764779000011913;1.0066212999990967;0.01
5;2;16;33;letter190;letter169;letter169;letter190;0;0;incongruent;0.04;letter190;0.09;0.07;fullmask;0.2;arrow_right.png;down;0.2807269000004453;0.2892893999996886;25143.9784572;3.0000010156072676e-06;0.5036605000022973;0.5436885000017355;0.5937038000010944;0.6637494999995397;0.7938289000012446;0.9239240000024438;0.01
5;2;16;34;letter190;letter169;letter169;letter190;0;0;incongruent;0.04;letter169;0.09;0.07;fullmask;0.2;arrow_left.png;up;1.9261618999989878;1.9319657999985793;25147.4344748;2.9000002541579306e-06;0.5006581000016013;0.5406841000003624;0.5907249000010779;0.6607633999992686;0.7908372999991116;0.9209308999998029;0.01
5;2;16;35;letter190;letter169;letter169;letter190;0;0;congruent;0.04;letter169;0.09;0.07;fullmask;0.2;arrow_right.png;up;0.37592120000044815;0.3800370000026305;25149.346435;2.9000002541579306e-06;0.5036395999995875;0.5436534000000393;0.5936784000004991;0.6637257000002137;0.7937983000010718;0.923937700001261;0.01
5;2;16;36;letter190;letter169;letter169;letter190;0;0;congruent;0.04;letter169;0.09;0.07;fullmask;0.2;arrow_right.png;up;0.324455099998886;0.3299603000014031;25151.1864764;2.9000002541579306e-06;0.4976499000003969;0.5376853000016126;0.5877084000021568;0.6577397000000929;0.7878164000030665;0.9179205000000366;0.01
5;2;16;37;letter190;letter169;letter169;letter190;0;0;congruent;0.04;letter190;0.09;0.07;fullmask;0.2;arrow_left.png;down;0.33689070000036736;0.3400088999987929;25153.0504297;3.0000010156072676e-06;0.5008534000007785;0.5408652000005532;0.5909214000021166;0.660936700001912;0.7910469000016747;0.9211082000001625;0.01
5;2;16;38;letter190;letter169;letter169;letter190;0;0;congruent;0.04;letter169;0.09;0.07;fullmask;0.2;arrow_right.png;up;0.32999090000157594;0.33019180000337656;25154.9145288;2.8000031306874007e-06;0.500399100001232;0.5404225000020233;0.5904883000002883;0.6604895000018587;0.790603800000099;0.9206733999999415;0.01
5;2;16;39;letter190;letter169;letter169;letter190;0;0;incongruent;0.04;letter190;0.09;0.07;fullmask;0.2;arrow_right.png;down;0.2332282999996096;0.24037800000223797;25156.6586588;3.2999996619764715e-06;0.496459900001355;0.5364655000012135;0.5864714999988792;0.6565091000011307;0.7865987000004679;0.9166996999992989;0.01
5;2;16;40;letter190;letter169;letter169;letter190;0;0;congruent;0.04;letter169;0.09;0.07;fullmask;0.2;arrow_right.png;up;0.06419499999901745;0.06996280000021216;25158.2504303;3.2000025385059416e-06;0.5006417000004149;0.5406757000018843;0.5906861000003119;0.6607327000019723;0.7908160000006319;0.9209317000022565;0.01
5;2;16;41;letter190;letter169;letter169;letter190;0;0;congruent;0.04;letter169;0.09;0.07;fullmask;0.2;arrow_right.png;up;0.13834399999905145;0.13955079999868758;25159.906344;3.0000010156072676e-06;0.49790260000008857;0.5379248000026564;0.587990300002275;0.6579935000008845;0.7880970000005618;0.9181822999998985;0.01
5;2;16;42;letter190;letter169;letter169;letter190;0;0;congruent;0.04;letter169;0.09;0.07;fullmask;0.2;arrow_right.png;up;0.029772599998977967;0.030390599997190293;25161.4585;2.9000002541579306e-06;0.5005438000007416;0.5405566000008548;0.5905834000004688;0.6606199999987439;0.7907071999979962;0.9208354000002146;0.01
5;2;16;43;letter190;letter169;letter169;letter190;0;0;incongruent;0.04;letter169;0.09;0.07;fullmask;0.2;arrow_left.png;up;0.11244020000231103;0.11956629999986035;25163.0823792;2.9000002541579306e-06;0.49962410000080126;0.5396448999999848;0.5896850999997696;0.6597117000019352;0.7897823999992397;0.9198821999998472;0.01
5;2;16;44;letter190;letter169;letter169;letter190;0;0;incongruent;0.04;letter190;0.09;0.07;fullmask;0.2;arrow_right.png;down;0.07951079999838839;0.07981010000003153;25164.6905695;2.9999973776284605e-06;0.5018670999997994;0.5418862999977136;0.5919137999990198;0.6619487999996636;0.7920254999989993;0.9221309999993537;0.01
5;2;16;45;letter190;letter169;letter169;letter190;0;0;incongruent;0.04;letter190;0.09;0.07;fullmask;0.2;arrow_right.png;down;0.11841020000065328;0.11972269999751006;25166.3304491;3.0000010156072676e-06;0.5000092000009317;0.5400362000000314;0.5900483000004897;0.6601149999987683;0.7901691000006394;0.9202976000015042;0.01
5;2;16;46;letter190;letter169;letter169;letter190;0;0;incongruent;0.04;letter169;0.09;0.07;fullmask;0.2;arrow_left.png;up;1.78939569999784;1.7910996999999043;25169.6425951;2.9000002541579306e-06;0.5012282999996387;0.5412544999999227;0.5912840999990294;0.6613249000001815;0.7913985999985016;0.9215110000004643;0.01
5;2;16;47;letter190;letter169;letter169;letter190;0;0;congruent;0.04;letter169;0.09;0.07;fullmask;0.2;arrow_right.png;up;0.30909650000103284;0.3103479999990668;25171.4745149;2.9999973776284605e-06;0.5054951999991317;0.5455162999969616;0.595570499997848;0.6655760999965423;0.7956834999968123;0.9257739999993646;0.01
5;2;16;48;letter190;letter169;letter169;letter190;0;0;congruent;0.04;letter190;0.09;0.07;fullmask;0.2;arrow_left.png;down;0.32669890000033774;0.3312751000012213;25173.322463;2.9000002541579306e-06;0.5035889999999199;0.5435762999986764;0.5935939000009967;0.6636792999997851;0.793722099999286;0.9238225000008242;0.01
5;2;16;49;letter190;letter169;letter169;letter190;0;0;congruent;0.04;letter190;0.09;0.07;fullmask;0.2;arrow_left.png;down;0.2292486000005738;0.23030669999934616;25175.0664984;2.9000002541579306e-06;0.5013461999988067;0.541359899998497;0.5914220000013302;0.661434099998587;0.7915346000008867;0.9216182999989542;0.01
5;2;16;50;letter190;letter169;letter169;letter190;0;0;congruent;0.04;letter190;0.09;0.07;fullmask;0.2;arrow_left.png;down;0.31030140000075335;0.32015250000040396;25176.8984532;2.9000002541579306e-06;0.496314899999561;0.5363235000004352;0.5863461999979336;0.6563978999984101;0.7864630999974906;0.9165828000004694;0.01
5;2;16;51;letter190;letter169;letter169;letter190;0;0;congruent;0.04;letter190;0.09;0.07;fullmask;0.2;arrow_left.png;down;0.36459040000045206;0.36995459999889135;25178.7943992;2.9000002541579306e-06;0.5040377999976045;0.544058399998903;0.59408429999894;0.6641216999996686;0.7941967000006116;0.9243055999977514;0.01
5;2;16;52;letter190;letter169;letter169;letter190;0;1;incongruent;0.12;letter169;0.18;0.07;fullmask;0.2;arrow_left.png;up;0.17576809999809484;0.18054929999925662;25180.5864659;3.0000010156072676e-06;0.5013414999993984;0.6214173000007577;0.6814508999996178;0.7515036999975564;0.8815681999985827;1.0116850999984308;0.01
