subjnr;loop_m;blocknr;trialnr;cue_left_learn;cue_right_learn;option_up;option_down;practice;motivation; congruence;cue_dur;cue;SOA;mask_dur;mask;target_dur;target;response;RT;kb_rt;response_absolute; fix_onset;cue_onset;cue_offset;mask_onset;mask_offset;target_offset;blank_onset;frame_dur
7;1;6;1;letter357;letter181;letter357;letter181;1;0;congruent;0.12;letter181;0.14;0.07;fullmask;0.2;arrow_right.png;down;2.5004371000104584;2.502063799998723;268172.3193436;3.6999699659645557e-06;0.49592590000247583;0.6159996999776922;0.6360057999845594;0.7060526999994181;0.8361259999801405;0.9662154999678023;0.01
7;1;6;2;letter357;letter181;letter357;letter181;1;0;incongruent;0.12;letter181;0.14;0.07;fullmask;0.2;arrow_left.png;up;1.7879454999929294;1.791283399972599;268175.6791603;2.900022082030773e-06;0.4974495000205934;0.6175302000483498;0.6375376000069082;0.7075913000153378;0.8376540000317618;0.9677618000423536;0.01
7;1;6;3;letter357;letter181;letter357;letter181;1;0;congruent;0.12;letter357;0.14;0.07;fullmask;0.2;arrow_left.png;down;0.13884820003295317;0.13969219999853522;268177.5831271;3.0999653972685337e-06;0.4969434999511577;0.61701579997316;0.6370229999884032;0.7070706999511458;0.8371525999973528;0.9672642999794334;0.01
7;1;6;4;letter357;letter181;letter357;letter181;1;0;incongruent;0.12;letter181;0.14;0.07;fullmask;0.2;arrow_left.png;up;3.3076634000171907;3.312241300009191;268182.663141;3.100023604929447e-06;0.497242700017523;0.6173264000099152;0.6373198999790475;0.7073300000047311;0.8374280999996699;0.9675315000349656;0.01
7;1;6;5;letter357;letter181;letter357;letter181;1;0;congruent;0.12;letter181;0.14;0.07;fullmask;0.2;arrow_right.png;down;1.0905383999925107;1.0909913000068627;268185.5192247;3.100023604929447e-06;0.4967494000447914;0.6168220000108704;0.6368291000253521;0.7068619999918155;0.8369519000407308;0.967058900045231;0.01
7;1;6;6;letter357;letter181;letter357;letter181;1;0;congruent;0.12;letter181;0.14;0.07;fullmask;0.2;arrow_right.png;down;0.3328994999756105;0.3401101999916136;268187.4232048;3.00002284348011e-06;0.4993178999866359;0.6193952999892645;0.6394034000113606;0.7094263000180945;0.8395227000000887;0.9696175999706611;0.01
7;1;6;7;letter357;letter181;letter357;letter181;1;0;congruent;0.12;letter357;0.14;0.07;fullmask;0.2;arrow_left.png;down;0.005500599974766374;0.010144800005946308;268189.0071452;2.900022082030773e-06;0.5047379999887198;0.6248315999982879;0.6448344999807887;0.7148689000168815;0.8449444000143558;0.9750513000180945;0.01
7;1;6;8;letter357;letter181;letter357;letter181;1;0;incongruent;0.12;letter357;0.14;0.07;fullmask;0.2;arrow_right.png;up;3.522262900019996;3.522571300039999;268194.295284;2.900022082030773e-06;0.4971536000375636;0.6172300000325777;0.6372564000193961;0.7072794000268914;0.8373600000049919;0.9674591000075452;0.01
7;1;6;9;letter357;letter181;letter357;letter181;1;0;incongruent;0.12;letter357;0.14;0.07;fullmask;0.2;arrow_right.png;up;6.693108400038909;6.694136600010097;268202.5591078;2.6999623514711857e-06;0.501720700005535;0.6217944999807514;0.6418061999720521;0.7118287999765016;0.8419224999961443;0.9720221000025049;0.01
7;1;6;10;letter357;letter181;letter357;letter181;1;0;incongruent;0.12;letter357;0.14;0.07;fullmask;0.2;arrow_right.png;up;0.5796388000017032;0.5804667000193149;268204.7111634;3.0999653972685337e-06;0.5001295999973081;0.620195799972862;0.6402120999991894;0.7102564999950118;0.8403279999620281;0.9704390999977477;0.01
7;1;6;11;letter357;letter181;letter357;letter181;1;0;incongruent;0.12;letter181;0.14;0.07;fullmask;0.2;arrow_left.png;down;1.5268345000222325;1.5318302000523545;268207.7991146;2.8999638743698597e-06;0.5009295999770984;0.621006999979727;0.6410116999759339;0.7110561999725178;0.8411523999529891;0.9712428000057116;0.01
7;1;6;12;letter357;letter181;letter357;letter181;1;0;congruent;0.12;letter357;0.14;0.07;fullmask;0.2;arrow_left.png;up;0.6567012000014074;0.6604221999878064;268210.0311792;2.9999646358191967e-06;0.5024645999656059;0.6225968999788165;0.6426119999960065;0.7125702999765053;0.8426653000060469;0.9727310999878682;0.01
7;1;7;1;letter357;letter181;letter357;letter181;0;0;congruent;0.04;letter181;0.05;0.07;fullmask;0.2;arrow_right.png;down;1.1578191999578848;1.1611024999874644;268217.3672986;3.00002284348011e-06;0.5037895999848843;0.5437981000286527;0.5537824000348337;0.6238277000375092;0.753906800004188;0.8840136000071652;0.01
7;1;7;2;letter357;letter181;letter357;letter181;0;0;incongruent;0.04;letter357;0.05;0.07;fullmask;0.2;arrow_right.png;down;0.980534499976784;0.9812982000294141;268219.8310798;3.00002284348011e-06;0.5030374000198208;0.5430590999894775;0.5530708999722265;0.6230975000071339;0.7531885000062175;0.8832993999822065;0.01
7;1;7;3;letter357;letter181;letter357;letter181;0;0;congruent;0.04;letter181;0.05;0.07;fullmask;0.2;arrow_right.png;down;1.8723694999935105;1.8809310999931768;268223.375127;3.00002284348011e-06;0.4970852000406012;0.5371151000144891;0.5470962999970652;0.6171350000076927;0.7472302000387572;0.8773261000169441;0.01
7;1;7;4;letter357;letter181;letter357;letter181;0;0;incongruent;0.04;letter181;0.05;0.07;fullmask;0.2;arrow_left.png;up;1.0308712999685667;1.0313805000041611;268225.8953386;2.8999638743698597e-06;0.499219199991785;0.5392502999748103;0.5492552999639884;0.6192780999699607;0.7493646999937482;0.879468499973882;0.01
7;1;7;5;letter357;letter181;letter357;letter181;0;0;congruent;0.04;letter357;0.05;0.07;fullmask;0.2;arrow_left.png;down;1.198457500024233;1.2008527999860235;268228.7751069;3.0999653972685337e-06;0.5047830999828875;0.5448124999529682;0.5548248999984935;0.6248518999782391;0.7549447999917902;0.8850307999528013;0.01
7;1;7;6;letter357;letter181;letter357;letter181;0;0;congruent;0.04;letter357;0.05;0.07;fullmask;0.2;arrow_left.png;up;0.6611566999927163;0.6713854999979958;268231.119185;3.100023604929447e-06;0.5029629000346176;0.5429653000319377;0.5530084000201896;0.6230428999988362;0.7531225000275299;0.8832073000376113;0.01
7;1;7;7;letter357;letter181;letter357;letter181;0;0;incongruent;0.04;letter181;0.05;0.07;fullmask;0.2;arrow_left.png;up;0.6232054999563843;0.6302396999672055;268233.2230883;3.300025127828121e-06;0.5027614000136964;0.5427845999947749;0.5527834999957122;0.6228185000363737;0.7529157000244595;0.8830166000407189;0.01
7;1;7;8;letter357;letter181;letter357;letter181;0;0;congruent;0.04;letter181;0.05;0.07;fullmask;0.2;arrow_right.png;down;1.009453399979975;1.0103506000014022;268235.9111313;3.0999653972685337e-06;0.4968192999949679;0.5368500999757089;0.5468600000021979;0.6168923999648541;0.7469813000061549;0.8770680999732576;0.01
7;1;7;9;letter357;letter181;letter357;letter181;0;0;incongruent;0.04;letter357;0.05;0.07;fullmask;0.2;arrow_right.png;down;1.5041027000406757;1.5108870000112802;268238.8870951;3.100023604929447e-06;0.5030478999833576;0.5430650000344031;0.5530537000158802;0.6231102999881841;0.7531753000221215;0.8832813000190072;0.01
7;1;7;10;letter357;letter181;letter357;letter181;0;1;congruent;0.12;letter181;0.14;0.07;fullmask;0.2;arrow_right.png;down;1.048148600035347;1.050286200013943;268241.7031125;2.900022082030773e-06;0.5004601000109687;0.6205304000177421;0.6405354000162333;0.7105902000330389;0.8406651000259444;0.9707751999958418;0.01
7;1;7;11;letter357;letter181;letter357;letter181;0;0;incongruent;0.04;letter181;0.05;0.07;fullmask;0.2;arrow_left.png;up;0.5260707000270486;0.5296008000150323;268243.7031204;2.9999646358191967e-06;0.5015065000043251;0.5415387999964878;0.5515419999719597;0.6215641999733634;0.7516602000105195;0.8817612999700941;0.01
7;1;7;12;letter357;letter181;letter357;letter181;0;0;incongruent;0.04;letter357;0.05;0.07;fullmask;0.2;arrow_right.png;down;0.9096021000295877;0.9114945000037551;268246.2872223;2.800021320581436e-06;0.4983123000129126;0.5383313000202179;0.5483403000398539;0.6183616000344045;0.7484503000159748;0.8785580000258051;0.01
7;1;7;13;letter357;letter181;letter357;letter181;0;0;congruent;0.04;letter357;0.05;0.07;fullmask;0.2;arrow_left.png;up;0.485386100015603;0.4907513000071049;268248.4550893;3.100023604929447e-06;0.49509199999738485;0.5351230000378564;0.5451426000217907;0.6151631000102498;0.7452552000177093;0.8753453000099398;0.01
7;1;7;14;letter357;letter181;letter357;letter181;0;0;congruent;0.04;letter181;0.05;0.07;fullmask;0.2;arrow_right.png;down;1.0124476000200957;1.0204848000430502;268250.9433864;2.9999646358191967e-06;0.5016655999934301;0.5416931000072509;0.5516948999720626;0.6217302000150084;0.7518137999577448;0.8819267000071704;0.01
7;1;7;15;letter357;letter181;letter357;letter181;0;0;incongruent;0.04;letter357;0.05;0.07;fullmask;0.2;arrow_right.png;down;0.8783853999921121;0.8806625999859534;268253.3110713;3.00002284348011e-06;0.504517900000792;0.5445374000119045;0.5545225000241771;0.6245685000321828;0.7546712000039406;0.8847518000402488;0.01
7;1;7;16;letter357;letter181;letter357;letter181;0;0;congruent;0.04;letter181;0.05;0.07;fullmask;0.2;arrow_right.png;up;0.8927128000068478;0.9006614999962039;268255.8870769;2.9999646358191967e-06;0.4959921999834478;0.5360253999824636;0.5460124000092037;0.6160549999913201;0.7461303999880329;0.8762529999949038;0.01
7;1;7;17;letter357;letter181;letter357;letter181;0;0;congruent;0.04;letter181;0.05;0.07;fullmask;0.2;arrow_right.png;down;1.3848485000198707;1.390269699972123;268258.9512625;3.100023604929447e-06;0.5039275999879465;0.5439624999999069;0.5539421999710612;0.6239858000189997;0.7540589999989606;0.8841741000069305;0.01
7;1;7;18;letter357;letter181;letter357;letter181;0;0;incongruent;0.04;letter181;0.05;0.07;fullmask;0.2;arrow_left.png;up;0.6351759000099264;0.6402450000168756;268261.0630652;2.9999646358191967e-06;0.49915190000319853;0.5391949999611825;0.5491893999860622;0.6192153000156395;0.7493171999813057;0.8793990999693051;0.01
7;1;7;19;letter357;letter181;letter357;letter181;0;0;incongruent;0.04;letter181;0.05;0.07;fullmask;0.2;arrow_left.png;down;0.604156100016553;0.6103889000369236;268263.3430299;2.8999638743698597e-06;0.49521999998250976;0.5352441999712028;0.5452607999905013;0.6152826999896206;0.7453692999552004;0.8754685999592766;0.01
7;1;7;20;letter357;letter181;letter357;letter181;0;0;incongruent;0.04;letter181;0.05;0.07;fullmask;0.2;arrow_left.png;up;0.703918099985458;0.710112200002186;268265.5350383;3.2999669201672077e-06;0.5022538999910466;0.5422698999755085;0.5522776999860071;0.6223153999890201;0.752391499991063;0.8825019999640062;0.01
7;1;7;21;letter357;letter181;letter357;letter181;0;1;incongruent;0.12;letter357;0.14;0.07;fullmask;0.2;arrow_right.png;down;0.8145328999962658;0.8207426999579184;268268.127029;2.8999638743698597e-06;0.5033944000024348;0.6234540999867022;0.6434785000164993;0.7135295000043698;0.8436053000041284;0.9737044000066817;0.01
7;1;7;22;letter357;letter181;letter357;letter181;0;0;congruent;0.04;letter357;0.05;0.07;fullmask;0.2;arrow_left.png;down;0.7953969999798574;0.8007931999745779;268270.599071;2.9999646358191967e-06;0.49970099999336526;0.5397336999885738;0.5497107999981381;0.6197646000073291;0.7498349999659695;0.879964099964127;0.01
7;1;7;23;letter357;letter181;letter357;letter181;0;0;congruent;0.04;letter357;0.05;0.07;fullmask;0.2;arrow_left.png;up;0.8593668999965303;0.8596656000008807;268273.1351849;3.00002284348011e-06;0.49741199996788055;0.5374231999740005;0.5474175999988802;0.6174696999951266;0.7475412000203505;0.8776548000168987;0.01
7;1;7;24;letter357;letter181;letter357;letter181;0;0;congruent;0.04;letter357;0.05;0.07;fullmask;0.2;arrow_left.png;down;1.5457425999920815;1.5507794999866746;268276.1430537;2.9999646358191967e-06;0.49447689997032285;0.5344930999563076;0.5445071999565698;0.6145267999963835;0.7446174999931827;0.8747292999760248;0.01
7;1;7;25;letter357;letter181;letter357;letter181;0;0;incongruent;0.04;letter357;0.05;0.07;fullmask;0.2;arrow_right.png;up;0.708279800019227;0.7111820999998599;268278.5270542;2.900022082030773e-06;0.49762330000521615;0.5376418000087142;0.5476533999899402;0.6176857000100426;0.7477792000281624;0.8778933000285178;0.01
7;1;7;26;letter357;letter181;letter357;letter181;0;0;incongruent;0.04;letter357;0.05;0.07;fullmask;0.2;arrow_right.png;up;0.7461638999520801;0.750005499983672;268280.7670596;2.900022082030773e-06;0.5032470000442117;0.5432984000071883;0.5532911000191234;0.623328700021375;0.7534187000128441;0.8835246000089683;0.01
7;1;7;27;letter357;letter181;letter357;letter181;0;0;incongruent;0.04;letter357;0.05;0.07;fullmask;0.2;arrow_right.png;up;0.9172933000372723;0.9207017000298947;268283.1593473;2.900022082030773e-06;0.49802890000864863;0.5380503999767825;0.5480579999857582;0.6180848000221886;0.7481746000121348;0.8782658000127412;0.01
7;1;7;28;letter357;letter181;letter357;letter181;0;0;congruent;0.04;letter181;0.05;0.07;fullmask;0.2;arrow_right.png;down;0.6556288000429049;0.660158800019417;268285.2790513;2.900022082030773e-06;0.49705280002672225;0.537063300027512;0.5470834000152536;0.617124300042633;0.7472000000416301;0.8772918000468053;0.01
7;1;7;29;letter357;letter181;letter357;letter181;0;0;congruent;0.04;letter357;0.05;0.07;fullmask;0.2;arrow_left.png;down;1.8121973000233993;1.8210521000437438;268288.5670478;3.00002284348011e-06;0.5008711999980733;0.5408927000244148;0.5508936999831349;0.6209175999974832;0.7510152999893762;0.8811163000063971;0.01
7;1;7;30;letter357;letter181;letter357;letter181;0;0;congruent;0.04;letter357;0.05;0.07;fullmask;0.2;arrow_left.png;up;0.5500759999849834;0.5505047999904491;268290.8072076;2.9999646358191967e-06;0.5013618000084534;0.5413928999914788;0.5514120999723673;0.6214300999999978;0.7515226000105031;0.8816243999754079;0.01
7;1;7;31;letter357;letter181;letter357;letter181;0;0;incongruent;0.04;letter181;0.05;0.07;fullmask;0.2;arrow_left.png;down;5.102589699963573;5.103419399994891;268297.3910437;2.900022082030773e-06;0.5032364000217058;0.5432513999985531;0.5532564999884926;0.6232959000044502;0.7533743999665603;0.883494800014887;0.01
7;1;7;32;letter357;letter181;letter357;letter181;0;0;incongruent;0.04;letter357;0.05;0.07;fullmask;0.2;arrow_right.png;up;0.6228642000351101;0.6304808999993838;268299.4953087;2.9999646358191967e-06;0.5019511999562383;0.5419376000063494;0.5519685999606736;0.6219833999639377;0.7520814999588765;0.8821674999780953;0.01
7;1;7;33;letter357;letter181;letter357;letter181;0;0;congruent;0.04;letter181;0.05;0.07;fullmask;0.2;arrow_right.png;up;1.5170186000177637;1.5209945000242442;268302.511038;2.7999631129205227e-06;0.5022917999885976;0.5423251999891363;0.5523394999909215;0.6223774999962188;0.7524422999704257;0.8825406999676488;0.01
7;1;7;34;letter357;letter181;letter357;letter181;0;1;incongruent;0.12;letter181;0.14;0.07;fullmask;0.2;arrow_left.png;down;1.0405833999975584;1.0502061999868602;268305.3270337;3.100023604929447e-06;0.5028409999795258;0.6228976999991573;0.6429204000160098;0.7129561000037938;0.8430149999912828;0.9731389000080526;0.01
7;1;7;35;letter357;letter181;letter357;letter181;0;0;incongruent;0.04;letter357;0.05;0.07;fullmask;0.2;arrow_right.png;down;1.0294085000059567;1.0303111000102945;268307.8471506;3.00002284348011e-06;0.499618100002408;0.5396274999948218;0.5496358000091277;0.6196504000108689;0.7497628999990411;0.8798466000007465;0.01
7;1;7;36;letter357;letter181;letter357;letter181;0;0;incongruent;0.04;letter181;0.05;0.07;fullmask;0.2;arrow_left.png;up;3.5014544999576174;3.5027330999728292;268313.031086;3.00002284348011e-06;0.49963500001467764;0.5396493000444025;0.5496439000125974;0.6196848000399768;0.7497595000313595;0.8798730000271462;0.01
7;1;7;37;letter357;letter181;letter357;letter181;0;0;congruent;0.04;letter181;0.05;0.07;fullmask;0.2;arrow_right.png;down;0.7019998999894597;0.7101719999918714;268315.4150167;3.100023604929447e-06;0.5023847999982536;0.5424243000452407;0.5524407000048086;0.6224454000475816;0.7525364000466652;0.8826444000005722;0.01
7;1;7;38;letter357;letter181;letter357;letter181;0;0;congruent;0.04;letter357;0.05;0.07;fullmask;0.2;arrow_left.png;up;0.43243600003188476;0.4398973000352271;268317.3270266;3.00002284348011e-06;0.4946245000464842;0.5346459000138566;0.5446641000453383;0.61467460001586;0.7447797000058927;0.8748640000121668;0.01
7;1;7;39;letter357;letter181;letter357;letter181;0;0;incongruent;0.04;letter181;0.05;0.07;fullmask;0.2;arrow_left.png;down;0.6552618000423536;0.6602511000237428;268319.471054;2.9999646358191967e-06;0.49723729997640476;0.5372730999952182;0.5472692999755964;0.6173063999740407;0.7473881999612786;0.8774913999950513;0.01
7;1;7;40;letter357;letter181;letter357;letter181;0;0;congruent;0.04;letter181;0.05;0.07;fullmask;0.2;arrow_right.png;up;0.7084804999758489;0.7110281999921426;268321.6550312;3.200024366378784e-06;0.4974896000348963;0.5375262000015937;0.54752710001776;0.6175625000032596;0.7476420000311919;0.8777289000572637;0.01
7;1;7;41;letter357;letter181;letter357;letter181;0;0;incongruent;0.04;letter357;0.05;0.07;fullmask;0.2;arrow_right.png;down;0.8942865999997593;0.9006393000017852;268324.2232619;3.00002284348011e-06;0.4979215000057593;0.5379378000507131;0.5479415000299923;0.6179756000055932;0.7480564000434242;0.8781707000453025;0.01
7;1;7;42;letter357;letter181;letter357;letter181;0;0;congruent;0.04;letter181;0.05;0.07;fullmask;0.2;arrow_right.png;up;0.8828856999753043;0.890672400011681;268326.783021;2.900022082030773e-06;0.5018447000184096;0.5418666999903508;0.5518653999897651;0.6218981000129133;0.7519813000108115;0.8820880000130273;0.01
7;1;7;43;letter357;letter181;letter357;letter181;0;0;congruent;0.04;letter357;0.05;0.07;fullmask;0.2;arrow_left.png;down;1.4089534999802709;1.4103578999638557;268329.871039;3.00002284348011e-06;0.4964874000288546;0.5365285000298172;0.5465327000129037;0.6165608000010252;0.7466458000126295;0.8767462000250816;0.01
7;1;7;44;letter357;letter181;letter357;letter181;0;0;congruent;0.04;letter357;0.05;0.07;fullmask;0.2;arrow_left.png;up;1.0052621999639086;1.01123230002122;268332.5590333;3.00002284348011e-06;0.5043493999983184;0.5443741999915801;0.5543626000289805;0.624394399987068;0.7544987999717705;0.884602400008589;0.01
7;1;7;45;letter357;letter181;letter357;letter181;0;0;congruent;0.04;letter357;0.05;0.07;fullmask;0.2;arrow_left.png;down;5.585816500009969;5.594066900026519;268339.631314;3.100023604929447e-06;0.5054542000289075;0.5454626000137068;0.5554859000258148;0.6255108000477776;0.755597300012596;0.885704500018619;0.01
7;1;7;46;letter357;letter181;letter357;letter181;0;0;incongruent;0.04;letter357;0.05;0.07;fullmask;0.2;arrow_right.png;up;0.1772054000175558;0.18044069997267798;268341.4869849;2.900022082030773e-06;0.503857399977278;0.5438760999822989;0.5538602999877185;0.6239074000041;0.7539809999871068;0.8840939999790862;0.01
7;1;7;47;letter357;letter181;letter357;letter181;0;1;congruent;0.12;letter357;0.14;0.07;fullmask;0.2;arrow_left.png;up;3.053706599981524;3.0617826000088826;268346.0950091;2.9999646358191967e-06;0.49622199998702854;0.6162947000120766;0.6363143000053242;0.7063445000094362;0.8364255999913439;0.9665179000003263;0.01
7;1;7;48;letter357;letter181;letter357;letter181;0;0;incongruent;0.04;letter181;0.05;0.07;fullmask;0.2;arrow_left.png;up;0.8227019000332803;0.8308376999921165;268348.4070174;3.00002284348011e-06;0.5037442999891937;0.5437676000292413;0.5537907000398263;0.6238137999898754;0.7538996000075713;0.883999900019262;0.01
7;1;7;49;letter357;letter181;letter357;letter181;0;0;congruent;0.04;letter181;0.05;0.07;fullmask;0.2;arrow_right.png;down;1.7048388999537565;1.7104905999731272;268351.7910549;2.6999623514711857e-06;0.49602259998209774;0.5360600000130944;0.5460664000129327;0.6161039000144228;0.7461629000026733;0.876278400013689;0.01
7;1;7;50;letter357;letter181;letter357;letter181;0;0;incongruent;0.04;letter357;0.05;0.07;fullmask;0.2;arrow_right.png;up;0.7467693000216968;0.7499853000044823;268354.0150684;3.00002284348011e-06;0.4966603000066243;0.5366898000356741;0.5466990999993868;0.6167257000342943;0.7468094000359997;0.876920800015796;0.01
7;1;7;51;letter357;letter181;letter357;letter181;0;0;incongruent;0.04;letter181;0.05;0.07;fullmask;0.2;arrow_left.png;down;1.0914962000097148;1.1002240999951027;268356.5911449;2.900022082030773e-06;0.5000880000297911;0.5401136000291444;0.5500923999934457;0.6201426000334322;0.7502112000365742;0.8803367000073195;0.01
7;1;7;52;letter357;letter181;letter357;letter181;0;0;incongruent;0.04;letter181;0.05;0.07;fullmask;0.2;arrow_left.png;up;0.9584106000256725;0.9614884000038728;268359.0389729;2.8999638743698597e-06;0.4978745999978855;0.5378986999858171;0.5479153999476694;0.6179338999791071;0.7480226999614388;0.8781240999815054;0.01
7;1;8;1;letter357;letter181;letter357;letter181;0;0;incongruent;0.04;letter357;0.05;0.07;fullmask;0.2;arrow_right.png;down;1.9639622999820858;1.9717634999542497;268366.4389836;2.9999646358191967e-06;0.4941632999689318;0.5341780000017025;0.5441886999760754;0.6142382999532856;0.7443036999902688;0.874402999994345;0.01
7;1;8;2;letter357;letter181;letter357;letter181;0;0;incongruent;0.04;letter181;0.05;0.07;fullmask;0.2;arrow_left.png;up;0.1132462999667041;0.1196005999809131;268368.2310314;3.0999653972685337e-06;0.5039488999755122;0.5439626999432221;0.553972999972757;0.6239933999604546;0.7540815999964252;0.8841819999506697;0.01
7;1;8;3;letter357;letter181;letter357;letter181;0;0;incongruent;0.04;letter357;0.05;0.07;fullmask;0.2;arrow_right.png;up;2.490284600004088;2.4912631000042893;268372.3989774;2.9999646358191967e-06;0.5036944000166841;0.5437211999669671;0.553706599981524;0.6237415999639779;0.7538262999732979;0.8839564999798313;0.01
7;1;8;4;letter357;letter181;letter357;letter181;0;0;incongruent;0.04;letter357;0.05;0.07;fullmask;0.2;arrow_right.png;down;0.5600401000119746;0.5604125000536442;268374.4311303;2.9999646358191967e-06;0.4986176999518648;0.5386353999492712;0.5486670999671333;0.618704299966339;0.7487986999913119;0.8788651999784634;0.01
7;1;8;5;letter357;letter181;letter357;letter181;0;0;incongruent;0.04;letter181;0.05;0.07;fullmask;0.2;arrow_left.png;up;0.8639894999796525;0.8705971000017598;268376.966992;3.00002284348011e-06;0.49757900001714006;0.5376056000241078;0.5476091000018641;0.6176413000212051;0.7477320000180043;0.8778252999763936;0.01
7;1;8;6;letter357;letter181;letter357;letter181;0;1;congruent;0.12;letter181;0.14;0.07;fullmask;0.2;arrow_right.png;down;0.7665207000100054;0.7700047999969684;268379.5109806;3.100023604929447e-06;0.4972359000239521;0.6173029000055976;0.6373052999842912;0.7073354999884032;0.8374191999901086;0.9675282000098377;0.01
7;1;8;7;letter357;letter181;letter357;letter181;0;0;congruent;0.04;letter357;0.05;0.07;fullmask;0.2;arrow_left.png;down;0.9416233999654651;0.9515934999799356;268381.9270694;3.100023604929447e-06;0.49791340000228956;0.5379178000148386;0.5479414000292309;0.6179777000215836;0.748055900039617;0.8781608000281267;0.01
7;1;8;8;letter357;letter181;letter357;letter181;0;0;congruent;0.04;letter357;0.05;0.07;fullmask;0.2;arrow_left.png;down;2.445696600014344;2.4515090999775566;268386.0629759;3.100023604929447e-06;0.5043479000451043;0.5443637000280432;0.5543602000107057;0.6243905000155792;0.7544855000451207;0.8845787000027485;0.01
7;1;8;9;letter357;letter181;letter357;letter181;0;0;congruent;0.04;letter181;0.05;0.07;fullmask;0.2;arrow_right.png;up;1.2104443000280298;1.2107415000209585;268388.9510235;3.00002284348011e-06;0.4953873000340536;0.5354207000345923;0.5454029000247829;0.6154554000240751;0.7455242000287399;0.8756353000062518;0.01
7;1;8;10;letter357;letter181;letter357;letter181;0;0;congruent;0.04;letter357;0.05;0.07;fullmask;0.2;arrow_left.png;up;1.9431922000367194;1.9518702000495978;268392.57526;3.100023604929447e-06;0.5026414999738336;0.5426580000203103;0.5526914999936707;0.6226922000059858;0.7527887999895029;0.8828848000266589;0.01
7;1;8;11;letter357;letter181;letter357;letter181;0;0;congruent;0.04;letter357;0.05;0.07;fullmask;0.2;arrow_left.png;down;1.311147699947469;1.3114724999759346;268395.3750421;3.00002284348011e-06;0.5039593999972567;0.5439807000220753;0.5539820000412874;0.6240052000503056;0.754094600037206;0.8841920000268146;0.01
7;1;8;12;letter357;letter181;letter357;letter181;0;0;incongruent;0.04;letter181;0.05;0.07;fullmask;0.2;arrow_left.png;up;0.6783366000163369;0.6802008000086062;268397.7349735;3.200024366378784e-06;0.5024886000319384;0.5425096999970265;0.5525401000049897;0.6225526999915019;0.7527009000186808;0.8827274999930523;0.01
7;1;8;13;letter357;letter181;letter357;letter181;0;0;incongruent;0.04;letter181;0.05;0.07;fullmask;0.2;arrow_left.png;down;3.633583399991039;3.643069999990985;268403.0310055;2.9999646358191967e-06;0.49745689996052533;0.5374688999727368;0.5474807999562472;0.6175296999863349;0.747595899971202;0.8776944999699481;0.01
7;1;8;14;letter357;letter181;letter357;letter181;0;0;congruent;0.04;letter357;0.05;0.07;fullmask;0.2;arrow_left.png;up;0.9503379999659956;0.9516242999816313;268405.4710252;3.200024366378784e-06;0.5010788000072353;0.5411105999955907;0.5511128000216559;0.6211672000354156;0.751234800030943;0.8813275000429712;0.01
7;1;8;15;letter357;letter181;letter357;letter181;0;0;congruent;0.04;letter181;0.05;0.07;fullmask;0.2;arrow_right.png;up;0.6620881999842823;0.6703433999791741;268407.6152051;2.9999646358191967e-06;0.4971594999660738;0.5371983000077307;0.5471785999834538;0.6172276000143029;0.747304999968037;0.8774246000102721;0.01
7;1;8;16;letter357;letter181;letter357;letter181;0;1;congruent;0.12;letter357;0.14;0.07;fullmask;0.2;arrow_left.png;up;0.12626320001436397;0.12958100001560524;268409.5109632;3.100023604929447e-06;0.4994911000248976;0.6195494999992661;0.6395642000134103;0.7096068999962881;0.839691600005608;0.9697887999936938;0.01
7;1;8;17;letter357;letter181;letter357;letter181;0;0;incongruent;0.04;letter357;0.05;0.07;fullmask;0.2;arrow_right.png;up;0.21522960002766922;0.21934650000184774;268411.1909578;3.0999653972685337e-06;0.5004713999805972;0.540479899966158;0.5504875999758951;0.6205097999772988;0.7505934999790043;0.8806955000036396;0.01
7;1;8;18;letter357;letter181;letter357;letter181;0;0;incongruent;0.04;letter357;0.05;0.07;fullmask;0.2;arrow_right.png;up;0.18801340000936761;0.18954539997503161;268412.8549448;3.00002284348011e-06;0.5010575000196695;0.5410867999889888;0.5510952000040561;0.6211337000131607;0.7512250000145286;0.8813206999911927;0.01
7;1;8;19;letter357;letter181;letter357;letter181;0;0;congruent;0.04;letter357;0.05;0.07;fullmask;0.2;arrow_left.png;up;0.20508230000268668;0.2095040999702178;268414.5429494;3.00002284348011e-06;0.49967889999970794;0.539700300025288;0.5496918000280857;0.6197336000041105;0.7498201000271365;0.8799135999870487;0.01
7;1;8;20;letter357;letter181;letter357;letter181;0;0;incongruent;0.04;letter357;0.05;0.07;fullmask;0.2;arrow_right.png;up;0.8302596999565139;0.8308048999751918;268416.8391749;2.900022082030773e-06;0.5009961000178009;0.5410128000075929;0.5510367000242695;0.6210607999819331;0.7511185000184923;0.881234000029508;0.01
7;1;8;21;letter357;letter181;letter357;letter181;0;0;congruent;0.04;letter181;0.05;0.07;fullmask;0.2;arrow_right.png;down;0.6006005000090227;0.6102978000417352;268418.9110183;3.00002284348011e-06;0.4986456999904476;0.5386525000212714;0.5486443000263534;0.6186873000115156;0.7487576000276022;0.8788937000208534;0.01
7;1;8;22;letter357;letter181;letter357;letter181;0;0;congruent;0.04;letter181;0.05;0.07;fullmask;0.2;arrow_right.png;down;0.1916192999924533;0.2003841000259854;268420.5829921;3.00002284348011e-06;0.49733380001271144;0.5373744000098668;0.5473992000333965;0.6173906000331044;0.7475128999794833;0.8775726000312716;0.01
7;1;8;23;letter357;letter181;letter357;letter181;0;0;incongruent;0.04;letter181;0.05;0.07;fullmask;0.2;arrow_left.png;down;0.23637489997781813;0.24042119999649003;268422.3189497;3.0999653972685337e-06;0.49850509996758774;0.5385481999837793;0.5485534999752417;0.6185655999579467;0.7486708000069484;0.8787492999690585;0.01
7;1;8;24;letter357;letter181;letter357;letter181;0;0;congruent;0.04;letter181;0.05;0.07;fullmask;0.2;arrow_right.png;down;1.1870635999948718;1.1909514999715611;268424.9910056;3.00002284348011e-06;0.5020281000179239;0.5420720999827608;0.5520682000205852;0.622091899975203;0.7521853999933228;0.8822774000000209;0.01
7;1;8;25;letter357;letter181;letter357;letter181;0;0;congruent;0.04;letter181;0.05;0.07;fullmask;0.2;arrow_right.png;up;2.1256463999743573;2.1313639999716543;268428.5909353;3.00002284348011e-06;0.49954290001187474;0.5395512999966741;0.5495536000235006;0.6195854999823496;0.749666600022465;0.879770900006406;0.01
7;1;8;26;letter357;letter181;letter357;letter181;0;0;incongruent;0.04;letter181;0.05;0.07;fullmask;0.2;arrow_left.png;down;1.6187537999940105;1.6205919000203721;268431.8869004;2.900022082030773e-06;0.4990207999944687;0.5390380999888293;0.549044799990952;0.6190801000338979;0.7491795000387356;0.8792722999933176;0.01
7;1;8;27;letter357;letter181;letter357;letter181;0;0;congruent;0.04;letter181;0.05;0.07;fullmask;0.2;arrow_right.png;down;0.9896135000162758;0.9914110000245273;268434.3591252;2.700020559132099e-06;0.4987513999803923;0.5387628999887966;0.5487789000035264;0.6188130999798886;0.7489002000074834;0.8789870999753475;0.01
7;1;8;28;letter357;letter181;letter357;letter181;0;0;congruent;0.04;letter357;0.05;0.07;fullmask;0.2;arrow_left.png;down;0.5674083000048995;0.570525599992834;268436.3989331;3.100023604929447e-06;0.4996359000215307;0.5396489000413567;0.5496499000000767;0.6196788999950513;0.7497713000047952;0.8798270000261255;0.01
7;1;8;29;letter357;letter181;letter357;letter181;0;1;incongruent;0.12;letter181;0.14;0.07;fullmask;0.2;arrow_left.png;down;1.8596358000067994;1.861045500030741;268440.0228846;2.5999615900218487e-06;0.5001538000069559;0.6202308000065386;0.6402338999905623;0.7102750999620184;0.8403545999899507;0.9704724999610335;0.01
7;1;8;30;letter357;letter181;letter357;letter181;0;0;congruent;0.04;letter181;0.05;0.07;fullmask;0.2;arrow_right.png;up;1.5120203999686055;1.5210790999699384;268443.0069529;3.00002284348011e-06;0.5033233999856748;0.5433452000143006;0.5533279000082985;0.6233782999916002;0.753445099981036;0.8835699000046588;0.01
7;1;8;31;letter357;letter181;letter357;letter181;0;0;congruent;0.04;letter357;0.05;0.07;fullmask;0.2;arrow_left.png;down;1.1273352999705821;1.129858099971898;268445.8149153;3.00002284348011e-06;0.5057300999760628;0.5457590000005439;0.5557346999994479;0.6257748000207357;0.7558652000152506;0.8859678999870084;0.01
7;1;8;32;letter357;letter181;letter357;letter181;0;0;incongruent;0.04;letter181;0.05;0.07;fullmask;0.2;arrow_left.png;down;0.14159299997845665;0.1496214999933727;268447.6309236;3.100023604929447e-06;0.5031103999936022;0.5431450000032783;0.5531615000218153;0.6231745000113733;0.7532807000097819;0.8833559000049718;0.01
7;1;8;33;letter357;letter181;letter357;letter181;0;0;incongruent;0.04;letter357;0.05;0.07;fullmask;0.2;arrow_right.png;down;0.13721030001761392;0.140788100019563;268449.2470267;3.00002284348011e-06;0.5003907000063919;0.5404145000502467;0.550389600044582;0.6204506000503898;0.7505141000146978;0.8806368000223301;0.01
7;1;8;34;letter357;letter181;letter357;letter181;0;0;incongruent;0.04;letter357;0.05;0.07;fullmask;0.2;arrow_right.png;up;0.7734789999667555;0.7798899000044912;268451.6949288;2.800021320581436e-06;0.498700900003314;0.5387143000261858;0.5487049000221305;0.6187651000218466;0.7488245000131428;0.8789345999830402;0.01
7;1;8;35;letter357;letter181;letter357;letter181;0;0;congruent;0.04;letter181;0.05;0.07;fullmask;0.2;arrow_right.png;up;2.1140271999756806;2.121345299994573;268455.2869187;3.2999669201672077e-06;0.4966950999805704;0.5367205999791622;0.5467146000009961;0.6167584999930114;0.7468442000099458;0.8769568999996409;0.01
7;1;8;36;letter357;letter181;letter357;letter181;0;0;incongruent;0.04;letter357;0.05;0.07;fullmask;0.2;arrow_right.png;up;0.2158149000024423;0.220581800036598;268457.1909761;2.8999638743698597e-06;0.5016187999863178;0.5416378999943845;0.5516444999957457;0.6216791999759153;0.7517568999901414;0.8818617999786511;0.01
7;1;8;37;letter357;letter181;letter357;letter181;0;0;incongruent;0.04;letter357;0.05;0.07;fullmask;0.2;arrow_right.png;up;0.24303349998081103;0.25027829996543005;268458.918948;3.00002284348011e-06;0.49730560003081337;0.5373198000015691;0.5473193000070751;0.6173664000234567;0.7474400000064634;0.8775406000204384;0.01
7;1;8;38;letter357;letter181;letter357;letter181;0;0;congruent;0.04;letter181;0.05;0.07;fullmask;0.2;arrow_right.png;down;4.8334898999892175;4.8430534999934025;268465.2311173;3.00002284348011e-06;0.49678440002026036;0.5368050000397488;0.5468129000510089;0.6168391000246629;0.7469290000153705;0.8770238000433892;0.01
7;1;8;39;letter357;letter181;letter357;letter181;0;0;congruent;0.04;letter357;0.05;0.07;fullmask;0.2;arrow_left.png;down;0.5516097000217997;0.560520600003656;268467.2628889;3.00002284348011e-06;0.49704600003315136;0.5370589000522159;0.5470697000273503;0.6171108999988064;0.7471895000198856;0.8773021000088193;0.01
7;1;8;40;letter357;letter181;letter357;letter181;0;0;congruent;0.04;letter357;0.05;0.07;fullmask;0.2;arrow_left.png;up;0.02225390000967309;0.030087999999523163;268468.9749127;2.9999646358191967e-06;0.5046856999979354;0.5447069999645464;0.5547305999789387;0.6247592999716289;0.7548395999474451;0.8849203999852762;0.01
7;1;8;41;letter357;letter181;letter357;letter181;0;0;congruent;0.04;letter181;0.05;0.07;fullmask;0.2;arrow_right.png;down;10.71514450001996;10.717454400029965;268481.1590944;2.900022082030773e-06;0.49695330002577975;0.5369715000269935;0.5469706000294536;0.6170094999833964;0.7470999000361189;0.8772120000212453;0.01
7;1;8;42;letter357;letter181;letter357;letter181;0;0;congruent;0.04;letter357;0.05;0.07;fullmask;0.2;arrow_left.png;up;0.5991634000092745;0.6003176000085659;268483.2308535;3.100023604929447e-06;0.4975694000022486;0.5375903000240214;0.5476029000128619;0.6176473000086844;0.7477228000061586;0.8778160000219941;0.01
7;1;8;43;letter357;letter181;letter357;letter181;0;0;incongruent;0.04;letter181;0.05;0.07;fullmask;0.2;arrow_left.png;up;0.5037346999743022;0.5106209999648854;268485.2068836;3.3999676816165447e-06;0.4995409999974072;0.5395633999723941;0.54959329997655;0.6196094999904744;0.7497054999694228;0.8797902999795042;0.01
7;1;8;44;letter357;letter181;letter357;letter181;0;0;congruent;0.04;letter181;0.05;0.07;fullmask;0.2;arrow_right.png;up;1.5547232999815606;1.5609764999826439;268488.4390255;3.0999653972685337e-06;0.49715199996717274;0.5371730999904685;0.5471630999818444;0.6172255999990739;0.7472932999953628;0.8774114999687299;0.01
7;1;8;45;letter357;letter181;letter357;letter181;0;0;incongruent;0.04;letter181;0.05;0.07;fullmask;0.2;arrow_left.png;up;0.5998851000331342;0.6002325000008568;268490.7269234;3.0999653972685337e-06;0.5056674999650568;0.5456997000146657;0.5556789999827743;0.6257283000159077;0.7558013999951072;0.8859096000087447;0.01
7;1;8;46;letter357;letter181;letter357;letter181;0;0;incongruent;0.04;letter181;0.05;0.07;fullmask;0.2;arrow_left.png;down;0.38278769998578355;0.390191100013908;268492.7908858;3.100023604929447e-06;0.4993234000285156;0.5393367999931797;0.5493343999842182;0.6193917000200599;0.749462699983269;0.8795686999801546;0.01
7;1;8;47;letter357;letter181;letter357;letter181;0;0;incongruent;0.04;letter181;0.05;0.07;fullmask;0.2;arrow_left.png;down;0.5137669999967329;0.5207162000006065;268494.7831553;3.00002284348011e-06;0.49734930001432076;0.5373627999797463;0.547385599988047;0.6174113000161014;0.747505099978298;0.8776040999800898;0.01
7;1;8;48;letter357;letter181;letter357;letter181;0;1;incongruent;0.12;letter357;0.14;0.07;fullmask;0.2;arrow_right.png;down;0.040234899963252246;0.0497594999615103;268496.3910731;2.900022082030773e-06;0.4985535000450909;0.6186307000461966;0.6386377000017092;0.7086828000028618;0.8387483000406064;0.9688725000014529;0.01
7;1;8;49;letter357;letter181;letter357;letter181;0;0;incongruent;0.04;letter357;0.05;0.07;fullmask;0.2;arrow_right.png;up;0.6533763000043109;0.6602999999886379;268498.7348895;3.0999653972685337e-06;0.4989872999722138;0.5390014000004157;0.549019199970644;0.6190542000113055;0.7491321999696083;0.8792511000065133;0.01
7;1;8;50;letter357;letter181;letter357;letter181;0;0;incongruent;0.04;letter181;0.05;0.07;fullmask;0.2;arrow_left.png;down;0.6717126999865286;0.680196299974341;268500.8949215;3.0999653972685337e-06;0.49680879997322336;0.5368360999855213;0.546850299986545;0.6168869999819435;0.7469613999710418;0.8770527999731712;0.01
7;1;8;51;letter357;letter181;letter357;letter181;0;0;congruent;0.04;letter357;0.05;0.07;fullmask;0.2;arrow_left.png;up;0.4402315000188537;0.44980930001474917;268502.8148771;2.900022082030773e-06;0.5007237000390887;0.5407315000193194;0.5507532000192441;0.6207747000153176;0.7508600000292063;0.8809598000370897;0.01
7;1;8;52;letter357;letter181;letter357;letter181;0;0;incongruent;0.04;letter357;0.05;0.07;fullmask;0.2;arrow_right.png;up;1.740684699965641;1.7502505999873392;268506.0468726;3.4999684430658817e-06;0.49627719999989495;0.5363020999939181;0.5462942000012845;0.6163304999936372;0.7464188999729231;0.876553000009153;0.01
7;2;14;1;letter169;letter190;letter190;letter169;1;0;congruent;0.12;letter169;0.18;0.07;fullmask;0.2;arrow_left.png;down;1.0219983999850228;1.0311284000054002;270134.9335758;3.4999684430658817e-06;0.4962412999593653;0.6163179999566637;0.6763678999850526;0.7463965999777429;0.8764764000079595;1.0065944999805652;0.01
7;2;14;2;letter169;letter190;letter190;letter169;1;0;congruent;0.12;letter190;0.18;0.07;fullmask;0.2;arrow_right.png;down;5.020103199989535;5.0237380000180565;270141.5735756;2.9999646358191967e-06;0.4992361000040546;0.6193215000093915;0.6793509999988601;0.7493890000041574;0.8794587000156753;1.009574799973052;0.01
7;2;14;3;letter169;letter190;letter190;letter169;1;0;congruent;0.12;letter169;0.18;0.07;fullmask;0.2;arrow_left.png;down;1.8362101999809965;1.8419928000075743;270145.2135438;3.300025127828121e-06;0.5002119999844581;0.62028219999047;0.6803206999902613;0.7503573999856599;0.8804487999877892;1.0105561999953352;0.01
7;2;14;4;letter169;letter190;letter190;letter169;1;0;incongruent;0.12;letter169;0.18;0.07;fullmask;0.2;arrow_right.png;down;0.5518784999730997;0.5605658999993466;270147.3815411;2.9999646358191967e-06;0.5022034999565221;0.6222780999960378;0.6823226999840699;0.7523606999893673;0.8824625999550335;1.0125613999553025;0.01
7;2;14;5;letter169;letter190;letter190;letter169;1;0;incongruent;0.12;letter190;0.18;0.07;fullmask;0.2;arrow_left.png;up;0.2119920999975875;0.21958099998300895;270149.2138496;3.00002284348011e-06;0.49644730001455173;0.6165174000198022;0.6765641000238247;0.7465807999833487;0.8766702000284567;1.0067524000187404;0.01
7;2;14;6;letter169;letter190;letter190;letter169;1;0;incongruent;0.12;letter169;0.18;0.07;fullmask;0.2;arrow_right.png;up;0.06854619999649003;0.06983120000222698;270150.9015345;3.00002284348011e-06;0.504951200040523;0.6250099000171758;0.6850690999999642;0.7551151000079699;0.8851998000172898;1.0152979000122286;0.01
7;2;14;7;letter169;letter190;letter190;letter169;1;0;incongruent;0.12;letter190;0.18;0.07;fullmask;0.2;arrow_left.png;up;0.8534707999788225;0.860768599959556;270153.5575462;3.00002284348011e-06;0.4945074000279419;0.6145885000005364;0.6746345999999903;0.7446594000211917;0.8747448000358418;1.004852500045672;0.01
7;2;14;8;letter169;letter190;letter190;letter169;1;0;incongruent;0.12;letter190;0.18;0.07;fullmask;0.2;arrow_left.png;up;3.7697812999831513;3.771985700004734;270158.9255198;3.3999676816165447e-06;0.49577390000922605;0.6158397999824956;0.6758911000215448;0.7459129000199027;0.8759996999870054;1.0061000999994576;0.01
7;2;14;9;letter169;letter190;letter190;letter169;1;0;congruent;0.12;letter190;0.18;0.07;fullmask;0.2;arrow_right.png;up;0.25228930002776906;0.25954390002880245;270160.7815738;3.00002284348011e-06;0.4968712000409141;0.6169359000050463;0.6769880999927409;0.7470082000363618;0.8770950000034645;1.007189100026153;0.01
7;2;14;10;letter169;letter190;letter190;letter169;1;0;congruent;0.12;letter190;0.18;0.07;fullmask;0.2;arrow_right.png;up;4.3512619999819435;4.3523368000169285;270166.7415722;3.100023604929447e-06;0.49648010003147647;0.616552599996794;0.6765867000212893;0.7466328000300564;0.8767072000191547;1.00683010002831;0.01
7;2;14;11;letter169;letter190;letter190;letter169;1;0;incongruent;0.12;letter169;0.18;0.07;fullmask;0.2;arrow_right.png;up;0.045449200028087944;0.04978830000618473;270168.3895258;3.1999661587178707e-06;0.5002327999682166;0.6203004999551922;0.6803422999801114;0.7503789999755099;0.880459499952849;1.0105681999702938;0.01
7;2;14;12;letter169;letter190;letter190;letter169;1;0;congruent;0.12;letter169;0.18;0.07;fullmask;0.2;arrow_left.png;down;0.18686980003258213;0.19041410001227632;270170.3815213;2.9999646358191967e-06;0.5026339999749325;0.6227184999734163;0.6827361999894492;0.7527932999655604;0.8828572999918833;1.0129743000143208;0.01
7;2;15;1;letter169;letter190;letter190;letter169;0;0;congruent;0.04;letter169;0.09;0.07;fullmask;0.2;arrow_left.png;up;0.7399983999785036;0.740106699988246;270214.6936438;3.1999661587178707e-06;0.5021231999853626;0.5421359000029042;0.5921823999960907;0.6622092999750748;0.7922954999958165;0.9223813000135124;0.01
7;2;15;2;letter169;letter190;letter190;letter169;0;0;congruent;0.04;letter190;0.09;0.07;fullmask;0.2;arrow_right.png;up;0.4567881999537349;0.46069499995792285;270216.8614737;3.00002284348011e-06;0.5046508000232279;0.5446788999834098;0.5947237000218593;0.6647350999992341;0.7948324999888428;0.9249203000217676;0.01
7;2;15;3;letter169;letter190;letter190;letter169;0;0;congruent;0.04;letter169;0.09;0.07;fullmask;0.2;arrow_left.png;down;2.8528481000103056;2.8612438999698497;270221.2294696;3.200024366378784e-06;0.5005920000257902;0.5406157000106759;0.5906611999962479;0.6606791000231169;0.7907765000127256;0.9208671000087634;0.01
7;2;15;4;letter169;letter190;letter190;letter169;0;0;incongruent;0.04;letter190;0.09;0.07;fullmask;0.2;arrow_left.png;up;0.3044093000353314;0.3100951000233181;270223.0534812;2.900022082030773e-06;0.4988056000438519;0.5388416000059806;0.5888843000284396;0.6589125000173226;0.7889933999977075;0.9191012000082992;0.01
7;2;15;5;letter169;letter190;letter190;letter169;0;0;incongruent;0.04;letter169;0.09;0.07;fullmask;0.2;arrow_right.png;down;0.5635039000189863;0.5703949999879114;270225.1334631;2.900022082030773e-06;0.5036887000314891;0.5437052000197582;0.5937192999990657;0.6637505000107922;0.7938456000410952;0.923959800042212;0.01
7;2;15;6;letter169;letter190;letter190;letter169;0;0;incongruent;0.04;letter190;0.09;0.07;fullmask;0.2;arrow_left.png;up;0.13767440000083297;0.13954870001180097;270226.7895564;2.900022082030773e-06;0.5022207999718376;0.5422440000111237;0.5922829000046477;0.6623102999874391;0.7923956000013277;0.922489200020209;0.01
7;2;15;7;letter169;letter190;letter190;letter169;0;1;incongruent;0.12;letter190;0.18;0.07;fullmask;0.2;arrow_left.png;up;0.9850367999752052;0.9915100999642164;270229.3977255;2.9999646358191967e-06;0.5018492999952286;0.6219211999559775;0.681960399961099;0.7520126999588683;0.8820860999985598;1.0121821999782696;0.01
7;2;15;8;letter169;letter190;letter190;letter169;0;0;incongruent;0.04;letter169;0.09;0.07;fullmask;0.2;arrow_right.png;down;0.2092924999888055;0.2104898000252433;270231.1334901;3.100023604929447e-06;0.4972789000021294;0.5373089999775402;0.5873448000056669;0.6573780999751762;0.7874661000096239;0.9175662000197917;0.01
7;2;15;9;letter169;letter190;letter190;letter169;0;0;congruent;0.04;letter169;0.09;0.07;fullmask;0.2;arrow_left.png;down;0.4298763999831863;0.43988789996365085;270233.0855782;2.9999646358191967e-06;0.4962775000021793;0.5363006999832578;0.5863184999907389;0.6563780999858864;0.7864333000034094;0.9165567999589257;0.01
7;2;15;10;letter169;letter190;letter190;letter169;0;0;congruent;0.04;letter190;0.09;0.07;fullmask;0.2;arrow_right.png;up;0.5666655999957584;0.5704002000275068;270235.1734691;2.900022082030773e-06;0.49831860000267625;0.5383351999917068;0.5883615000057034;0.6584041999885812;0.7884899000055157;0.9186129000154324;0.01
7;2;15;11;letter169;letter190;letter190;letter169;0;0;congruent;0.04;letter190;0.09;0.07;fullmask;0.2;arrow_right.png;up;0.2776177000487223;0.28041820001089945;270236.9654965;3.200024366378784e-06;0.4973747000331059;0.5374326000455767;0.5874292000080459;0.6574576999992132;0.7875509000150487;0.9176370000350289;0.01
7;2;15;12;letter169;letter190;letter190;letter169;0;0;incongruent;0.04;letter190;0.09;0.07;fullmask;0.2;arrow_left.png;up;1.238468199968338;1.2417437999974936;270239.7174478;3.100023604929447e-06;0.49812260002363473;0.5381471000146121;0.5882005000021309;0.6582355999853462;0.7883314000209793;0.9183993000187911;0.01
7;2;15;13;letter169;letter190;letter190;letter169;0;0;incongruent;0.04;letter169;0.09;0.07;fullmask;0.2;arrow_right.png;down;0.331960599985905;0.34010610001860186;270241.5735197;3.100023604929447e-06;0.4997056000283919;0.5397157000261359;0.5897689000121318;0.6597854000283405;0.7898748000152409;0.9199689999804832;0.01
7;2;15;14;letter169;letter190;letter190;letter169;0;0;congruent;0.04;letter169;0.09;0.07;fullmask;0.2;arrow_left.png;down;0.15059450000990182;0.159638500015717;270243.2534272;3.0999653972685337e-06;0.5023638000129722;0.5423852999811061;0.592430799966678;0.662468499969691;0.792547499993816;0.9226334000122733;0.01
7;2;15;15;letter169;letter190;letter190;letter169;0;0;incongruent;0.04;letter190;0.09;0.07;fullmask;0.2;arrow_left.png;up;0.41361019999021664;0.4198236999800429;270245.1974585;3.00002284348011e-06;0.5019511000136845;0.5419675000011921;0.5920273999799974;0.6620368000003509;0.7921425999957137;0.9222359000123106;0.01
7;2;15;16;letter169;letter190;letter190;letter169;0;0;incongruent;0.04;letter169;0.09;0.07;fullmask;0.2;arrow_right.png;down;0.5144314999924973;0.5195891999755986;270247.2295373;3.100023604929447e-06;0.49937179998960346;0.5393985999980941;0.5894342000246979;0.6594609000021592;0.7895579999894835;0.9196468000300229;0.01
7;2;15;17;letter169;letter190;letter190;letter169;0;0;congruent;0.04;letter169;0.09;0.07;fullmask;0.2;arrow_left.png;up;1.1314945999765769;1.1408766999957152;270249.877523;3.100023604929447e-06;0.4974551000050269;0.5374818000127561;0.587514300015755;0.6575526000233367;0.787624099990353;0.9177255000104196;0.01
7;2;15;18;letter169;letter190;letter190;letter169;0;1;incongruent;0.12;letter169;0.18;0.07;fullmask;0.2;arrow_right.png;down;1.5477007000008598;1.5508629999822006;270253.2455049;2.7999631129205227e-06;0.5022447999799624;0.6223213999764994;0.6823849999927916;0.7524072999949567;0.8824800999718718;1.0125803999835625;0.01
7;2;15;19;letter169;letter190;letter190;letter169;0;0;incongruent;0.04;letter190;0.09;0.07;fullmask;0.2;arrow_left.png;up;0.4851654000231065;0.48961440002312884;270255.2454909;2.900022082030773e-06;0.5031661000102758;0.5431981000001542;0.5932279999833554;0.6632455000071786;0.7933318000286818;0.9234587000100873;0.01
7;2;15;20;letter169;letter190;letter190;letter169;0;0;congruent;0.04;letter190;0.09;0.07;fullmask;0.2;arrow_right.png;up;0.11462659999961033;0.12083710002480075;270256.8854538;3.00002284348011e-06;0.5055632999865338;0.545609200024046;0.595623400004115;0.6656516999937594;0.7957417999859899;0.9258536000270396;0.01
7;2;15;21;letter169;letter190;letter190;letter169;0;0;congruent;0.04;letter190;0.09;0.07;fullmask;0.2;arrow_right.png;up;0.4916191999800503;0.500761799979955;270258.8936881;2.9999646358191967e-06;0.4966335999779403;0.5366524999844842;0.5866776999901049;0.6567204999737442;0.7867929000058211;0.9169205999933183;0.01
7;2;15;22;letter169;letter190;letter190;letter169;0;0;incongruent;0.04;letter190;0.09;0.07;fullmask;0.2;arrow_left.png;down;0.6398610000032932;0.6403020000434481;270261.0535003;3.4999684430658817e-06;0.49848389998078346;0.5384950999869034;0.588583699951414;0.658561899967026;0.7886684999684803;0.9187688999809325;0.01
7;2;15;23;letter169;letter190;letter190;letter169;0;0;incongruent;0.04;letter169;0.09;0.07;fullmask;0.2;arrow_right.png;down;2.048114400007762;2.0513616000534967;270264.8134837;3.00002284348011e-06;0.5002385000116192;0.5402543999953195;0.5902968000154942;0.6603173000039533;0.7904162000049837;0.9205020000226796;0.01
7;2;15;24;letter169;letter190;letter190;letter169;0;0;congruent;0.04;letter190;0.09;0.07;fullmask;0.2;arrow_right.png;down;10.341757499962114;10.346394199994393;270276.6694425;2.800021320581436e-06;0.49683050002204254;0.5368562000221573;0.5869065000442788;0.6569310000049882;0.7870165000203997;0.9171044999966398;0.01
7;2;15;25;letter169;letter190;letter190;letter169;0;0;incongruent;0.04;letter169;0.09;0.07;fullmask;0.2;arrow_right.png;down;0.3785572000197135;0.38091519998852164;270278.7734225;3.00002284348011e-06;0.5047187000163831;0.5447388000320643;0.594779799983371;0.6648227000259794;0.7948978000204079;0.9250106000108644;0.01
7;2;15;26;letter169;letter190;letter190;letter169;0;0;congruent;0.04;letter169;0.09;0.07;fullmask;0.2;arrow_left.png;down;0.35728609998477623;0.36109849996864796;270280.6534217;3.0999653972685337e-06;0.49940129998140037;0.5394170999643393;0.5894655999727547;0.6594805999775417;0.7895772999618202;0.9196722999913618;0.01
7;2;15;27;letter169;letter190;letter190;letter169;0;0;incongruent;0.04;letter190;0.09;0.07;fullmask;0.2;arrow_left.png;up;0.43028099997900426;0.43093899998348206;270282.5976093;2.900022082030773e-06;0.4969194000004791;0.5369366999948397;0.5869902000413276;0.6570169000187889;0.7871083000209183;0.9171939000370912;0.01
7;2;15;28;letter169;letter190;letter190;letter169;0;0;congruent;0.04;letter169;0.09;0.07;fullmask;0.2;arrow_left.png;down;0.4387179999612272;0.44083919998956844;270284.5574129;3.1999661587178707e-06;0.5038687999476679;0.5438802999560721;0.5938926999806426;0.6639517999719828;0.7940189999644645;0.9241333999671042;0.01
7;2;15;29;letter169;letter190;letter190;letter169;0;0;incongruent;0.04;letter190;0.09;0.07;fullmask;0.2;arrow_left.png;up;0.33476479997625574;0.34015519998501986;270286.4054146;3.00002284348011e-06;0.49938619998283684;0.5394121999852359;0.5894316000049002;0.6594750999938697;0.7895433999947272;0.9196590000065044;0.01
7;2;15;30;letter169;letter190;letter190;letter169;0;0;incongruent;0.04;letter190;0.09;0.07;fullmask;0.2;arrow_left.png;up;0.4599562000366859;0.4606946000130847;270288.3813863;2.9999646358191967e-06;0.4993605999625288;0.5393936999607831;0.5894014000077732;0.6594425999792293;0.7895220000064;0.9196270999964327;0.01
7;2;15;31;letter169;letter190;letter190;letter169;0;0;congruent;0.04;letter169;0.09;0.07;fullmask;0.2;arrow_left.png;down;0.18449720001081005;0.18950810004025698;270290.0774058;3.1999661587178707e-06;0.5040495999855921;0.5440649000229314;0.5940803000121377;0.6641294999863021;0.794207600003574;0.9243215000024065;0.01
7;2;15;32;letter169;letter190;letter190;letter169;0;0;congruent;0.04;letter190;0.09;0.07;fullmask;0.2;arrow_right.png;up;0.3473480999819003;0.3501282999641262;270291.9414053;2.9999646358191967e-06;0.4978044999879785;0.5378245999454521;0.5878788999980316;0.6578937000012957;0.7879930999479257;0.9180865999660455;0.01
7;2;15;33;letter169;letter190;letter190;letter169;0;0;congruent;0.04;letter190;0.09;0.07;fullmask;0.2;arrow_right.png;up;0.918213700002525;0.9205472999601625;270294.3734508;3.00002284348011e-06;0.4983712999965064;0.5383860000292771;0.5884149000048637;0.6584638000349514;0.7885327000403777;0.9186485999962315;0.01
7;2;15;34;letter169;letter190;letter190;letter169;0;0;congruent;0.04;letter169;0.09;0.07;fullmask;0.2;arrow_left.png;down;0.07687569997506216;0.07995749998372048;270295.9734891;2.9999646358191967e-06;0.4966450000065379;0.5366682999883778;0.5866877000080422;0.6567288999794982;0.7868144999956712;0.9169177999719977;0.01
7;2;15;35;letter169;letter190;letter190;letter169;0;0;incongruent;0.04;letter169;0.09;0.07;fullmask;0.2;arrow_right.png;down;0.4759768000221811;0.4807328999741003;270297.9734091;3.100023604929447e-06;0.5007153999758884;0.5407426999881864;0.5907665999839082;0.6608088000211865;0.7908793999813497;0.9209905000170693;0.01
7;2;15;36;letter169;letter190;letter190;letter169;0;0;congruent;0.04;letter190;0.09;0.07;fullmask;0.2;arrow_right.png;up;0.18607970001176;0.18950700003188103;270299.6854037;2.9999646358191967e-06;0.5019067999674007;0.5419267999823205;0.5919486999628134;0.6620103999739513;0.7920638999785297;0.9221887000021525;0.01
7;2;15;37;letter169;letter190;letter190;letter169;0;1;congruent;0.12;letter190;0.18;0.07;fullmask;0.2;arrow_right.png;up;0.3629535000072792;0.3699512999737635;270301.6533993;3.100023604929447e-06;0.4964845000067726;0.6165603999979794;0.6765956000308506;0.7466512999963015;0.8767111000488512;1.0068245000438765;0.01
7;2;15;38;letter169;letter190;letter190;letter169;0;0;incongruent;0.04;letter169;0.09;0.07;fullmask;0.2;arrow_right.png;down;0.3439675000263378;0.3504911999916658;270303.5254897;3.00002284348011e-06;0.4951928000082262;0.5352144000353292;0.585260100022424;0.6552875000052154;0.7853846999933012;0.9154645000235178;0.01
7;2;15;39;letter169;letter190;letter190;letter169;0;0;incongruent;0.04;letter169;0.09;0.07;fullmask;0.2;arrow_right.png;down;0.4388706999598071;0.43987669999478385;270305.5013892;3.100023604929447e-06;0.505173499986995;0.5451939000049606;0.5952326999977231;0.6652683999855071;0.7953668999834917;0.9254533000057563;0.01
7;2;15;40;letter169;letter190;letter190;letter169;0;0;incongruent;0.04;letter169;0.09;0.07;fullmask;0.2;arrow_right.png;down;0.6375647999811918;0.6403448000201024;270307.6614003;3.1999661587178707e-06;0.5025996000040323;0.5426284999703057;0.5926528999698348;0.6626981999725103;0.7927653000224382;0.9228891999810003;0.01
7;2;15;41;letter169;letter190;letter190;letter169;0;0;congruent;0.04;letter169;0.09;0.07;fullmask;0.2;arrow_left.png;down;0.6298230999964289;0.630308200023137;270309.8055792;2.9999646358191967e-06;0.49722139997174963;0.5372390999691561;0.5872740999911912;0.6573057000059634;0.7874027999932878;0.9174944999977015;0.01
7;2;15;42;letter169;letter190;letter190;letter169;0;0;congruent;0.04;letter190;0.09;0.07;fullmask;0.2;arrow_right.png;up;0.15055150003172457;0.1595900000538677;270311.4773584;2.9999646358191967e-06;0.5049733999767341;0.5449928999878466;0.5950374999665655;0.6650743999634869;0.795159799978137;0.9252429999760352;0.01
7;2;15;43;letter169;letter190;letter190;letter169;0;0;incongruent;0.04;letter190;0.09;0.07;fullmask;0.2;arrow_left.png;up;0.3679948999779299;0.37093340000137687;270313.3653907;2.8999638743698597e-06;0.5016647999873385;0.5416873999638483;0.5917308999923989;0.6617492999648675;0.7918543999549001;0.9219339999835938;0.01
7;2;15;44;letter169;letter190;letter190;letter169;0;0;incongruent;0.04;letter190;0.09;0.07;fullmask;0.2;arrow_left.png;up;0.43034600000828505;0.4407428000122309;270315.3094095;3.3999676816165447e-06;0.49929249996785074;0.5393205999862403;0.5893229999928735;0.6593725999700837;0.7894746999954805;0.9195871999836527;0.01
7;2;15;45;letter169;letter190;letter190;letter169;0;0;congruent;0.04;letter190;0.09;0.07;fullmask;0.2;arrow_right.png;up;0.8370770000037737;0.8409147000056691;270317.6774157;3.1999661587178707e-06;0.5015401999698952;0.5415659999707714;0.5915775999892503;0.6616413000156172;0.7917030999669805;0.9218131999950856;0.01
7;2;15;46;letter169;letter190;letter190;letter169;0;0;congruent;0.04;letter169;0.09;0.07;fullmask;0.2;arrow_left.png;down;0.5418727999785915;0.5506805999903008;270319.7335169;3.100023604929447e-06;0.4971677999710664;0.5371455000131391;0.5871589999878779;0.6572152000153437;0.7872865999815986;0.9174132000189275;0.01
7;2;15;47;letter169;letter190;letter190;letter169;0;0;incongruent;0.04;letter169;0.09;0.07;fullmask;0.2;arrow_right.png;down;2.9022548999637365;2.9122757999575697;270324.1653827;2.900022082030773e-06;0.496841799991671;0.5368751999922097;0.5869065999868326;0.6569408000214025;0.787016800022684;0.9171128000016324;0.01
7;2;15;48;letter169;letter190;letter190;letter169;0;0;incongruent;0.04;letter169;0.09;0.07;fullmask;0.2;arrow_right.png;down;1.1573463999666274;1.1610344999935478;270326.853517;3.200024366378784e-06;0.5010932000004686;0.5411169999861158;0.5911367000080645;0.6611762000247836;0.7912427000119351;0.9213675000355579;0.01
7;2;15;49;letter169;letter190;letter190;letter169;0;0;congruent;0.04;letter169;0.09;0.07;fullmask;0.2;arrow_left.png;down;0.4520611999905668;0.4607848000014201;270328.8693854;2.9999646358191967e-06;0.5052744999993593;0.5453052999801002;0.5953195999609306;0.6653726999647915;0.7954334999667481;0.9255590999964625;0.01
7;2;15;50;letter169;letter190;letter190;letter169;0;0;incongruent;0.04;letter190;0.09;0.07;fullmask;0.2;arrow_left.png;up;0.4863550000009127;0.4907500999979675;270330.8853811;3.100023604929447e-06;0.504923400003463;0.5449431000160985;0.5949717000476085;0.6650141000282019;0.7950826000305824;0.925197200034745;0.01
7;2;15;51;letter169;letter190;letter190;letter169;0;0;congruent;0.04;letter190;0.09;0.07;fullmask;0.2;arrow_right.png;up;0.7330897999927402;0.7400842999923043;270333.1333781;3.200024366378784e-06;0.49704720004228875;0.5370736000477336;0.587125800026115;0.657150500046555;0.7872364000068046;0.9173186999978498;0.01
7;2;15;52;letter169;letter190;letter190;letter169;0;1;congruent;0.12;letter169;0.18;0.07;fullmask;0.2;arrow_left.png;down;0.7651029999833554;0.7699977000011131;270335.5173803;3.0999653972685337e-06;0.49849430000176653;0.618576499982737;0.678620399965439;0.7486603999859653;0.8787490999675356;1.0088420999818482;0.01
7;2;16;1;letter169;letter190;letter190;letter169;0;0;congruent;0.04;letter169;0.09;0.07;fullmask;0.2;arrow_left.png;down;0.7723354999907315;0.7800214000162669;270395.89333;2.9999646358191967e-06;0.49529659998370335;0.535317900008522;0.5853423000080511;0.6553886999608949;0.7854687999933958;0.9155647999723442;0.01
7;2;16;2;letter169;letter190;letter190;letter169;0;0;incongruent;0.04;letter190;0.09;0.07;fullmask;0.2;arrow_left.png;up;0.18550639995373785;0.1904773999704048;270397.5975233;3.100023604929447e-06;0.5048567000194453;0.5448826000210829;0.5948978000087664;0.6649398999870755;0.7950185000081547;0.9251331000123173;0.01
7;2;16;3;letter169;letter190;letter190;letter169;0;0;congruent;0.04;letter169;0.09;0.07;fullmask;0.2;arrow_left.png;down;0.48349859996233135;0.4896358999540098;270399.5972877;2.8999638743698597e-06;0.5030219999607652;0.5430420999764465;0.5930887999711558;0.6631111999740824;0.7931968999910168;0.9233214999549091;0.01
7;2;16;4;letter169;letter190;letter190;letter169;0;0;congruent;0.04;letter190;0.09;0.07;fullmask;0.2;arrow_right.png;up;1.8904249000479467;1.8908706000074744;270403.0054074;2.900022082030773e-06;0.4979460000176914;0.5379579999716952;0.5879807000164874;0.6580245000077412;0.7881175000220537;0.9182140000048093;0.01
7;2;16;5;letter169;letter190;letter190;letter169;0;0;incongruent;0.04;letter169;0.09;0.07;fullmask;0.2;arrow_right.png;down;0.2885386999696493;0.2901507999631576;270404.8053141;2.900022082030773e-06;0.5008380999788642;0.5408748000045307;0.5908964999835007;0.6609403000329621;0.7910177999874577;0.9211036000051536;0.01
7;2;16;6;letter169;letter190;letter190;letter169;0;0;congruent;0.04;letter190;0.09;0.07;fullmask;0.2;arrow_right.png;up;0.34747979999519885;0.35111039999173954;270406.6853295;3.200024366378784e-06;0.5011594999814406;0.5411814000108279;0.5911947999848053;0.6612454999703914;0.7913249999983236;0.9214328000089154;0.01
7;2;16;7;letter169;letter190;letter190;letter169;0;1;incongruent;0.12;letter190;0.18;0.07;fullmask;0.2;arrow_left.png;up;0.030064099992159754;0.039918299997225404;270408.3093398;3.00002284348011e-06;0.4980731999967247;0.6181365000084043;0.6781878999900073;0.7482246999861673;0.8782914000330493;1.0084089000010863;0.01
7;2;16;8;letter169;letter190;letter190;letter169;0;0;congruent;0.04;letter169;0.09;0.07;fullmask;0.2;arrow_left.png;down;0.2624192999792285;0.2702555999858305;270410.0932425;3.0999653972685337e-06;0.49921149999136105;0.5392331999610178;0.5892542999936268;0.6593034999677911;0.7893769000074826;0.9195037999888882;0.01
7;2;16;9;letter169;letter190;letter190;letter169;0;0;congruent;0.04;letter169;0.09;0.07;fullmask;0.2;arrow_left.png;down;0.6901956000365317;0.6912162000080571;270412.3013504;3.00002284348011e-06;0.4964040999766439;0.5364331000018865;0.5864719999954104;0.6565025000018068;0.7866054999758489;0.9166886000311933;0.01
7;2;16;10;letter169;letter190;letter190;letter169;0;0;incongruent;0.04;letter190;0.09;0.07;fullmask;0.2;arrow_left.png;up;0.12069879996124655;0.13071140000829473;270413.9333994;3.00002284348011e-06;0.4980981000117026;0.5381444999948144;0.5881526000448503;0.6581836999976076;0.7882774000172503;0.9183749000076205;0.01
7;2;16;11;letter169;letter190;letter190;letter169;0;0;congruent;0.04;letter190;0.09;0.07;fullmask;0.2;arrow_right.png;up;0.15126340003916994;0.1604965000296943;270415.6053105;2.9999646358191967e-06;0.5006269000004977;0.5406511999899521;0.5906879999674857;0.6607410999713466;0.7908037999877706;0.9209150999668054;0.01
7;2;16;12;letter169;letter190;letter190;letter169;0;0;congruent;0.04;letter190;0.09;0.07;fullmask;0.2;arrow_right.png;up;0.14265890000388026;0.1506216999841854;270417.2773849;2.8999638743698597e-06;0.49878480000188574;0.53879630001029;0.5888523999601603;0.6588634999934584;0.7889717000070959;0.9190532999928109;0.01
7;2;16;13;letter169;letter190;letter190;letter169;0;0;incongruent;0.04;letter169;0.09;0.07;fullmask;0.2;arrow_right.png;down;0.03353610000340268;0.04006239998852834;270418.8293338;2.900022082030773e-06;0.5023417000193149;0.5423685000278056;0.5923921000212431;0.6624313000356779;0.7925047000171617;0.9226270000217482;0.01
7;2;16;14;letter169;letter190;letter190;letter169;0;0;incongruent;0.04;letter169;0.09;0.07;fullmask;0.2;arrow_right.png;down;0.3803543000249192;0.3810467000002973;270420.7172917;3.0999653972685337e-06;0.4969462999724783;0.5369418999762274;0.5869705999502912;0.6570195999811403;0.7870923999580555;0.9172070999629796;0.01
7;2;16;15;letter169;letter190;letter190;letter169;0;0;incongruent;0.04;letter190;0.09;0.07;fullmask;0.2;arrow_left.png;up;1.035269599989988;1.0411385000334121;270423.2533986;3.100023604929447e-06;0.496193700004369;0.5362050000112504;0.5862265000469051;0.6562671000137925;0.7863656000117771;0.9164668000303209;0.01
7;2;16;16;letter169;letter190;letter190;letter169;0;0;congruent;0.04;letter169;0.09;0.07;fullmask;0.2;arrow_left.png;down;0.28348570002708584;0.29027350002434105;270425.0533045;2.900022082030773e-06;0.49866119999205694;0.5386780999833718;0.5887304000207223;0.6587503000046127;0.7888327999971807;0.9189311999944039;0.01
7;2;16;17;letter169;letter190;letter190;letter169;0;0;congruent;0.04;letter169;0.09;0.07;fullmask;0.2;arrow_left.png;down;0.31643000000622123;0.32106769998790696;270426.8772693;3.100023604929447e-06;0.4965899999951944;0.5366007999982685;0.586635000014212;0.6566644000122324;0.7867565000196919;0.9168480000225827;0.01
7;2;16;18;letter169;letter190;letter190;letter169;0;0;congruent;0.04;letter169;0.09;0.07;fullmask;0.2;arrow_left.png;down;0.7906521999975666;0.8009028999949805;270429.1734345;3.00002284348011e-06;0.49822920002043247;0.5382554000243545;0.5883136000484228;0.6583154000109062;0.7884055000031367;0.9185153000289574;0.01
7;2;16;19;letter169;letter190;letter190;letter169;0;0;incongruent;0.04;letter190;0.09;0.07;fullmask;0.2;arrow_left.png;up;0.26374520000535995;0.27034099999582395;270430.9572976;3.0999653972685337e-06;0.4974864999530837;0.5375037999474443;0.5875524999573827;0.657577299978584;0.787667499971576;0.9177597999805585;0.01
7;2;16;20;letter169;letter190;letter190;letter169;0;0;incongruent;0.04;letter190;0.09;0.07;fullmask;0.2;arrow_left.png;down;7.450492799980566;7.455125499982387;270439.9252967;3.0999653972685337e-06;0.4999756999895908;0.5399889999534935;0.5900189999956638;0.6600560999941081;0.7901391999912448;0.9202442999812774;0.01
7;2;16;21;letter169;letter190;letter190;letter169;0;1;congruent;0.12;letter190;0.18;0.07;fullmask;0.2;arrow_right.png;up;0.028395999979693443;0.029914599959738553;270441.7493573;3.0999653972685337e-06;0.49705740000354126;0.6171202000114135;0.6771624999819323;0.7472037999541499;0.8773038999643177;1.007414299994707;0.01
7;2;16;22;letter169;letter190;letter190;letter169;0;0;congruent;0.04;letter190;0.09;0.07;fullmask;0.2;arrow_right.png;up;0.049658400006592274;0.04989010002464056;270443.3014057;3.100023604929447e-06;0.4969281000085175;0.5369524999987334;0.5870104000205174;0.6570148000027984;0.7871176000335254;0.9172060000128113;0.01
7;2;16;23;letter169;letter190;letter190;letter169;0;0;incongruent;0.04;letter169;0.09;0.07;fullmask;0.2;arrow_right.png;down;0.24828629998955876;0.25051079998956993;270445.0614014;3.1999661587178707e-06;0.4986755999852903;0.5386931999819353;0.5887038999935612;0.6587546999799088;0.7888247999944724;0.9189448999823071;0.01
7;2;16;24;letter169;letter190;letter190;letter169;0;0;incongruent;0.04;letter190;0.09;0.07;fullmask;0.2;arrow_left.png;up;0.24721060000592843;0.2504960999940522;270446.8213543;2.800021320581436e-06;0.49883160000899807;0.5388652000110596;0.5889025999931619;0.6588895000168122;0.7890262000146322;0.9191051999805495;0.01
7;2;16;25;letter169;letter190;letter190;letter169;0;0;incongruent;0.04;letter169;0.09;0.07;fullmask;0.2;arrow_right.png;down;0.5423067000228912;0.5505937000270933;270448.8772784;3.00002284348011e-06;0.4972766999853775;0.5373014999786392;0.5873193999868818;0.6573609000188299;0.787450700008776;0.9175431000185199;0.01
7;2;16;26;letter169;letter190;letter190;letter169;0;0;incongruent;0.04;letter169;0.09;0.07;fullmask;0.2;arrow_right.png;down;0.5229707999969833;0.5305013000033796;270450.9092778;3.0999653972685337e-06;0.4982037000008859;0.5382283999933861;0.5882915999973193;0.658298599999398;0.7884143999544904;0.9184825999545865;0.01
7;2;16;27;letter169;letter190;letter190;letter169;0;0;incongruent;0.04;letter190;0.09;0.07;fullmask;0.2;arrow_left.png;up;0.3467942000133917;0.35010199999669567;270452.7653437;2.9999646358191967e-06;0.4966648999834433;0.5366874999599531;0.5867563999490812;0.6567706999485381;0.786833599966485;0.9169410999747925;0.01
7;2;16;28;letter169;letter190;letter190;letter169;0;0;incongruent;0.04;letter169;0.09;0.07;fullmask;0.2;arrow_right.png;down;1.5183505999739282;1.5210973999928683;270455.7973912;3.00002284348011e-06;0.5048529000487179;0.544865200005006;0.5949014000361785;0.6649341000011191;0.7950251000002027;0.9251275000278838;0.01
7;2;16;29;letter169;letter190;letter190;letter169;0;0;incongruent;0.04;letter190;0.09;0.07;fullmask;0.2;arrow_left.png;up;0.09390129998791963;0.09974569996120408;270457.4052949;3.100023604929447e-06;0.4992875999887474;0.5393219999969006;0.5893588999751955;0.6593868000200018;0.7894748999970034;0.9195699000265449;0.01
7;2;16;30;letter169;letter190;letter190;letter169;0;0;congruent;0.04;letter190;0.09;0.07;fullmask;0.2;arrow_right.png;up;0.2352555000106804;0.24042240000562742;270459.1572911;3.00002284348011e-06;0.5008006999851204;0.5408246000297368;0.5908584999851882;0.6608932000235654;0.7909839000203647;0.9210709999897517;0.01
7;2;16;31;letter169;letter190;letter190;letter169;0;0;congruent;0.04;letter169;0.09;0.07;fullmask;0.2;arrow_left.png;down;0.3577231999952346;0.3599598999717273;270461.021368;2.900022082030773e-06;0.4963778000092134;0.5364085000474006;0.5864546000375412;0.6564760000328533;0.786566800030414;0.9166575000272132;0.01
7;2;16;32;letter169;letter190;letter190;letter169;0;0;incongruent;0.04;letter190;0.09;0.07;fullmask;0.2;arrow_left.png;up;0.4091115999617614;0.411015999969095;270462.9333683;3.6999699659645557e-06;0.49479649995919317;0.5348121999995783;0.5848711999715306;0.6548857999732718;0.7850027999957092;0.9150653999531642;0.01
7;2;16;33;letter169;letter190;letter190;letter169;0;0;congruent;0.04;letter190;0.09;0.07;fullmask;0.2;arrow_right.png;up;0.3918024000013247;0.400854800012894;270464.8372763;3.100023604929447e-06;0.5047054000315256;0.5447329999879003;0.5947816999978386;0.6647948999889195;0.7948851999826729;0.9249840999837033;0.01
7;2;16;34;letter169;letter190;letter190;letter169;0;1;incongruent;0.12;letter169;0.18;0.07;fullmask;0.2;arrow_right.png;down;0.41393130004871637;0.41996510000899434;270466.8612819;2.9999646358191967e-06;0.49898939998820424;0.619053999951575;0.6791172999655828;0.749124399968423;0.8792289999546483;1.00930569996126;0.01
7;2;16;35;letter169;letter190;letter190;letter169;0;0;incongruent;0.04;letter169;0.09;0.07;fullmask;0.2;arrow_right.png;down;2.2286429000087082;2.231061899976339;270470.5973526;2.900022082030773e-06;0.49761610000859946;0.5376311999862082;0.5877041000057943;0.6576900000218302;0.7877950000111014;0.9178823999827728;0.01
7;2;16;36;letter169;letter190;letter190;letter169;0;0;incongruent;0.04;letter190;0.09;0.07;fullmask;0.2;arrow_left.png;up;0.2942302000010386;0.3002501999726519;270472.4052673;2.900022082030773e-06;0.4989356999867596;0.5389493000111543;0.5889764999737963;0.65901770000346;0.7890931000001729;0.919207600003574;0.01
7;2;16;37;letter169;letter190;letter190;letter169;0;0;congruent;0.04;letter190;0.09;0.07;fullmask;0.2;arrow_right.png;down;2.539343499985989;2.541292399982922;270476.4612677;3.00002284348011e-06;0.4989324000198394;0.5389558000024408;0.5889838000293821;0.6590678000357002;0.7890961000230163;0.9192022000206634;0.01
7;2;16;38;letter169;letter190;letter190;letter169;0;0;congruent;0.04;letter169;0.09;0.07;fullmask;0.2;arrow_left.png;down;0.38219149998622015;0.3900254999753088;270478.5572624;2.900022082030773e-06;0.49726040003588423;0.537277500028722;0.5873076000134461;0.6573419000487775;0.7874226000276394;0.9175319999922067;0.01
7;2;16;39;letter169;letter190;letter190;letter169;0;0;incongruent;0.04;letter169;0.09;0.07;fullmask;0.2;arrow_right.png;down;1.4793746000505053;1.4809565000468865;270481.565301;3.100023604929447e-06;0.5033262000069954;0.5433539000223391;0.5934023000299931;0.6634222000138834;0.7935133000137284;0.9236038000090048;0.01
7;2;16;40;letter169;letter190;letter190;letter169;0;0;congruent;0.04;letter169;0.09;0.07;fullmask;0.2;arrow_left.png;down;0.3911466000135988;0.39999549998901784;270483.4692502;3.0999653972685337e-06;0.499782899976708;0.5398191999993287;0.5898439000011422;0.6598827000125311;0.7899593999609351;0.9200706999981776;0.01
7;2;16;41;letter169;letter190;letter190;letter169;0;1;congruent;0.12;letter169;0.18;0.07;fullmask;0.2;arrow_left.png;down;0.5985903000109829;0.6004144999897107;270485.6773059;3.0999653972685337e-06;0.502155700000003;0.62221399997361;0.682262799993623;0.7522970999707468;0.8823750999872573;1.0124820999917574;0.01
7;2;16;42;letter169;letter190;letter190;letter169;0;0;incongruent;0.04;letter190;0.09;0.07;fullmask;0.2;arrow_left.png;up;0.4624690000200644;0.469909000035841;270487.6534295;2.9999646358191967e-06;0.5014591999934055;0.5414673999766819;0.591494899999816;0.6615243999985978;0.7916063999873586;0.9217176999663934;0.01
7;2;16;43;letter169;letter190;letter190;letter169;0;0;incongruent;0.04;letter190;0.09;0.07;fullmask;0.2;arrow_left.png;up;3.017037599987816;3.0219819999765605;270492.1892568;3.4999684430658817e-06;0.4981623999774456;0.5382196999853477;0.5882429999765009;0.6582821999909356;0.7883655999903567;0.9184726999956183;0.01
7;2;16;44;letter169;letter190;letter190;letter169;0;0;congruent;0.04;letter190;0.09;0.07;fullmask;0.2;arrow_right.png;up;0.47877789998892695;0.4806317000184208;270494.1732503;3.100023604929447e-06;0.49573500000406057;0.5357694000122137;0.585797400039155;0.6558211999945343;0.7859212000039406;0.9160335999913514;0.01
7;2;16;45;letter169;letter190;letter190;letter169;0;0;congruent;0.04;letter190;0.09;0.07;fullmask;0.2;arrow_right.png;up;2.6634574999916367;2.671919899992645;270498.3492517;3.00002284348011e-06;0.5012693000026047;0.5412875000038184;0.591360500024166;0.6613561999984086;0.7914651000173762;0.9215457999962382;0.01
7;2;16;46;letter169;letter190;letter190;letter169;0;0;incongruent;0.04;letter169;0.09;0.07;fullmask;0.2;arrow_right.png;down;0.43877619999693707;0.44074440002441406;270500.3572418;3.0999653972685337e-06;0.5013434999855235;0.5413730999571271;0.5913944999920204;0.6614350999589078;0.7915034999605268;0.9216363999876194;0.01
7;2;16;47;letter169;letter190;letter190;letter169;0;0;incongruent;0.04;letter169;0.09;0.07;fullmask;0.2;arrow_right.png;down;0.703862999973353;0.7112617999664508;270502.5734749;3.00002284348011e-06;0.4969600000185892;0.5369929000153206;0.5870051000383683;0.6570520999957807;0.7871272000484169;0.9172469000332057;0.01
7;2;16;48;letter169;letter190;letter190;letter169;0;0;congruent;0.04;letter169;0.09;0.07;fullmask;0.2;arrow_left.png;down;1.044245500001125;1.0512769999913871;270505.1254513;3.00002284348011e-06;0.49674259999301285;0.5367585000349209;0.5868149999878369;0.6570684000034817;0.786927499982994;0.9170168000273407;0.01
7;2;16;49;letter169;letter190;letter190;letter169;0;0;congruent;0.04;letter169;0.09;0.07;fullmask;0.2;arrow_left.png;down;0.5055920999730006;0.5096556000062265;270507.1492389;2.900022082030773e-06;0.5045783999958076;0.5445954999886453;0.5946174999698997;0.664660400012508;0.7947369000175968;0.9248534999787807;0.01
7;2;16;50;letter169;letter190;letter190;letter169;0;0;congruent;0.04;letter190;0.09;0.07;fullmask;0.2;arrow_right.png;up;0.24523820000467822;0.25034169998252764;270508.9492985;3.00002284348011e-06;0.5013758999994025;0.5413960000150837;0.5914421000052243;0.6614757000352256;0.7915646000183187;0.9216490000253543;0.01
7;2;16;51;letter169;letter190;letter190;letter169;0;0;congruent;0.04;letter190;0.09;0.07;fullmask;0.2;arrow_right.png;up;1.13791879999917;1.1409557000151835;270511.6132126;2.900022082030773e-06;0.5008744000224397;0.5408960999920964;0.5909227000083774;0.6609708999749273;0.7910377000225708;0.9211469999863766;0.01
7;2;16;52;letter169;letter190;letter190;letter169;0;0;incongruent;0.04;letter169;0.09;0.07;fullmask;0.2;arrow_right.png;down;0.3739260999718681;0.3801652999827638;270513.5013597;2.7999631129205227e-06;0.49628859997028485;0.5363210999639705;0.5863346999976784;0.6563785999896936;0.7864626999944448;0.9165779000031762;0.01
