subjnr;loop_m;blocknr;trialnr;cue_left_learn;cue_right_learn;option_up;option_down;practice;motivation; congruence;cue_dur;cue;SOA;mask_dur;mask;target_dur;target;response;RT;kb_rt;response_absolute; fix_onset;cue_onset;cue_offset;mask_onset;mask_offset;target_offset;blank_onset;frame_dur
2;1;6;1;letter181;letter357;letter357;letter181;1;0;congruent;0.12;letter181;0.14;0.07;fullmask;0.2;arrow_left.png;down;0.8417964999971446;0.8507173999969382;256236.3641677;4.0000013541430235e-06;0.5037560999917332;0.6238251999893691;0.6438377999875229;0.7138714999891818;0.8439585999876726;0.9740544999949634;0.01
2;1;6;2;letter181;letter357;letter357;letter181;1;0;congruent;0.12;letter357;0.14;0.07;fullmask;0.2;arrow_right.png;up;0.2503409000055399;0.2603635999839753;256238.2042573;2.6999914553016424e-06;0.5019839000015054;0.6220570000004955;0.6420749999815598;0.7121210999903269;0.8421998999838252;0.9723029999877326;0.01
2;1;6;3;letter181;letter357;letter357;letter181;1;0;congruent;0.12;letter181;0.14;0.07;fullmask;0.2;arrow_left.png;down;0.36491460000979714;0.3699328000075184;256240.1401704;2.600019797682762e-06;0.49753180000698194;0.6176086000050418;0.6376232000184245;0.7076500999974087;0.8377323000167962;0.9678255000035278;0.01
2;1;6;4;letter181;letter357;letter357;letter181;1;0;incongruent;0.12;letter181;0.14;0.07;fullmask;0.2;arrow_right.png;down;0.3757632000197191;0.3800420000043232;256242.0921532;2.6999914553016424e-06;0.49711629998637363;0.6171825999917928;0.6371458999929018;0.7072066999971867;0.8373053999966942;0.9673831999825779;0.01
2;1;6;5;letter181;letter357;letter357;letter181;1;0;congruent;0.12;letter357;0.14;0.07;fullmask;0.2;arrow_right.png;up;0.2445235000050161;0.2503533000126481;256243.9322172;2.6999914553016424e-06;0.5046351999917533;0.6246839000086766;0.6446951999969315;0.7150556000124197;0.8448172000062186;0.9749147999973502;0.01
2;1;6;6;letter181;letter357;letter357;letter181;1;0;incongruent;0.12;letter181;0.14;0.07;fullmask;0.2;arrow_right.png;down;0.2631999999866821;0.2702080000017304;256245.7721565;2.5999906938523054e-06;0.5008480999968015;0.6209175999974832;0.6409416999958921;0.7109748999937437;0.8410558000032324;0.9711717999889515;0.01
2;1;6;7;letter181;letter357;letter357;letter181;1;0;incongruent;0.12;letter181;0.14;0.07;fullmask;0.2;arrow_right.png;down;0.1655503000074532;0.16956039998331107;256247.5161615;2.5999906938523054e-06;0.49861119998968206;0.6186730999907013;0.6386978999944404;0.7087381999881472;0.8388120000017807;0.9689180999994278;0.01
2;1;6;8;letter181;letter357;letter357;letter181;1;0;congruent;0.12;letter181;0.14;0.07;fullmask;0.2;arrow_left.png;down;0.3908283999771811;0.399947699974291;256249.4922703;2.5999906938523054e-06;0.5049101999902632;0.6249730999988969;0.6449897999991663;0.7150426000007428;0.8451155000075232;0.9752217000059318;0.01
2;1;6;9;letter181;letter357;letter357;letter181;1;0;incongruent;0.12;letter357;0.14;0.07;fullmask;0.2;arrow_left.png;up;0.41935159999411553;0.41972519998671487;256251.4922942;2.5999906938523054e-06;0.4959145000029821;0.6159816000144929;0.6360025999892969;0.7060595999937505;0.8361023000034038;0.966212400002405;0.01
2;1;6;10;letter181;letter357;letter357;letter181;1;0;incongruent;0.12;letter357;0.14;0.07;fullmask;0.2;arrow_left.png;up;0.20456679997732863;0.21052209998015314;256253.2682649;2.6999914553016424e-06;0.5029864000098314;0.6230599999835249;0.6430652999843005;0.7131119999976363;0.8431959000008646;0.9733115999842994;0.01
2;1;6;11;letter181;letter357;letter357;letter181;1;0;congruent;0.12;letter357;0.14;0.07;fullmask;0.2;arrow_right.png;up;0.3107156999758445;0.32006069997441955;256255.1561719;2.6999914553016424e-06;0.5026887000130955;0.6227703999902587;0.6427813000045717;0.7131049000017811;0.842918100010138;0.9729888000001665;0.01
2;1;6;12;letter181;letter357;letter357;letter181;1;0;incongruent;0.12;letter357;0.14;0.07;fullmask;0.2;arrow_left.png;up;0.30777829998987727;0.3103246999962721;256257.044215;3.0999945010989904e-06;0.49521520000416785;0.615328000014415;0.6353314000007231;0.705347500013886;0.8354595999990124;0.9655570999893826;0.01
2;1;7;1;letter181;letter357;letter357;letter181;0;0;congruent;0.04;letter181;0.05;0.07;fullmask;0.2;arrow_left.png;down;0.2592925000062678;0.26932639998267405;256279.4203244;2.800021320581436e-06;0.49430849999771453;0.5343252000166103;0.5443371000001207;0.614367600006517;0.7444462999992538;0.8745496000046842;0.01
2;1;7;2;letter181;letter357;letter357;letter181;0;0;congruent;0.04;letter357;0.05;0.07;fullmask;0.2;arrow_right.png;up;0.27606759997433983;0.2803977000003215;256281.1881328;2.4999899324029684e-06;0.5023716000141576;0.5423942999914289;0.5524053999979515;0.6224610999925062;0.7525247000157833;0.8826157000148669;0.01
2;1;7;3;letter181;letter357;letter357;letter181;0;0;congruent;0.04;letter181;0.05;0.07;fullmask;0.2;arrow_left.png;down;0.4291707999946084;0.4298027000040747;256283.0922443;2.6999914553016424e-06;0.49637059998349287;0.5363897999923211;0.5464059999794699;0.6164355000073556;0.7465285999933258;0.8766427999944426;0.01
2;1;7;4;letter181;letter357;letter357;letter181;0;0;congruent;0.04;letter357;0.05;0.07;fullmask;0.2;arrow_right.png;up;0.33186779997777194;0.34010669999406673;256284.9161285;2.600019797682762e-06;0.5035598000104073;0.5435776000085752;0.5535751999996137;0.623611000017263;0.7536834000202361;0.8837925000116229;0.01
2;1;7;5;letter181;letter357;letter357;letter181;0;0;incongruent;0.04;letter181;0.05;0.07;fullmask;0.2;arrow_right.png;down;0.4306763999920804;0.43988429999444634;256286.8360962;2.6999914553016424e-06;0.49840099998982623;0.5384111999883316;0.5484400999848731;0.6184611000062432;0.7485471999971196;0.878636200010078;0.01
2;1;7;6;letter181;letter357;letter357;letter181;0;0;incongruent;0.04;letter181;0.05;0.07;fullmask;0.2;arrow_right.png;down;0.6594399999885354;0.660168700007489;256288.9961765;2.700020559132099e-06;0.5021812000195496;0.5421990000177175;0.5522091000166256;0.6222459000127856;0.7523499999952037;0.8824215000204276;0.01
2;1;7;7;letter181;letter357;letter357;letter181;0;0;congruent;0.04;letter181;0.05;0.07;fullmask;0.2;arrow_left.png;down;0.5179576000082307;0.5196690000011586;256290.9961361;2.6999914553016424e-06;0.498358000011649;0.5383607000112534;0.5483551000070293;0.6183971000136808;0.7484772000170778;0.8785944000119343;0.01
2;1;7;8;letter181;letter357;letter357;letter181;0;0;incongruent;0.04;letter357;0.05;0.07;fullmask;0.2;arrow_left.png;up;0.5634374000073876;0.570628499990562;256293.0521239;2.5999906938523054e-06;0.5047744000039529;0.5447867999901064;0.5547863999963738;0.6248292000091169;0.7549095000140369;0.8850277000165079;0.01
2;1;7;9;letter181;letter357;letter357;letter181;0;0;congruent;0.04;letter357;0.05;0.07;fullmask;0.2;arrow_right.png;up;0.7751924000040162;0.7798385999922175;256295.3161349;2.5999906938523054e-06;0.4944334000174422;0.534474100015359;0.5444712000025902;0.6145003999990877;0.7445986999955494;0.8746828000003006;0.01
2;1;7;10;letter181;letter357;letter357;letter181;0;0;incongruent;0.04;letter357;0.05;0.07;fullmask;0.2;arrow_left.png;up;0.6181267999927513;0.6204000000143424;256297.4201304;2.700020559132099e-06;0.49873930000467226;0.5387653000070713;0.548784800019348;0.6190859000198543;0.7488941000192426;0.8789873000059742;0.01
2;1;7;11;letter181;letter357;letter357;letter181;0;1;incongruent;0.12;letter357;0.14;0.07;fullmask;0.2;arrow_left.png;up;0.5291985999792814;0.5307098999910522;256299.5323307;3.0999945010989904e-06;0.5036775999760721;0.6237371999886818;0.6437580999918282;0.7138175999862142;0.8438822999887634;0.9739810999890324;0.01
2;1;7;12;letter181;letter357;letter357;letter181;0;0;incongruent;0.04;letter357;0.05;0.07;fullmask;0.2;arrow_left.png;down;0.4614030999946408;0.4698006999969948;256301.4761249;2.700020559132099e-06;0.49913030001334846;0.5391431000025477;0.5491735000105109;0.6191891000198666;0.7492858000041451;0.8793714000203181;0.01
2;1;7;13;letter181;letter357;letter357;letter181;0;0;incongruent;0.04;letter181;0.05;0.07;fullmask;0.2;arrow_right.png;down;0.3985208999947645;0.40085229999385774;256303.5641211;2.800021320581436e-06;0.5040011000237428;0.5440231999964453;0.5540288000192959;0.6243408000154886;0.7541423000220675;0.8842469000082929;0.01
2;1;7;14;letter181;letter357;letter357;letter181;0;1;congruent;0.12;letter181;0.14;0.07;fullmask;0.2;arrow_left.png;down;0.39264999999431893;0.39994649999425747;256305.5400668;2.5999906938523054e-06;0.5007025999948382;0.6207662000088021;0.6407782000023872;0.7108101999911014;0.8409047999884933;0.9709986000088975;0.01
2;1;7;15;letter181;letter357;letter357;letter181;0;0;incongruent;0.04;letter181;0.05;0.07;fullmask;0.2;arrow_right.png;down;0.5194521999801509;0.5304931999999098;256307.5482761;2.6999914553016424e-06;0.5026462999812793;0.5426806999894325;0.5526680999901146;0.6226643999980297;0.7527950999792665;0.8829003999999259;0.01
2;1;7;16;letter181;letter357;letter357;letter181;0;0;congruent;0.04;letter357;0.05;0.07;fullmask;0.2;arrow_right.png;up;0.4465263000165578;0.45081030001165345;256309.4761195;2.4999899324029684e-06;0.49798280000686646;0.5380233000032604;0.5480207999935374;0.6180511999991722;0.7481565999914892;0.8782342000049539;0.01
2;1;7;17;letter181;letter357;letter357;letter181;0;0;incongruent;0.04;letter357;0.05;0.07;fullmask;0.2;arrow_left.png;up;0.4450465000118129;0.45071510001434945;256311.3961075;2.5999906938523054e-06;0.4978776999923866;0.5379070999915712;0.5479015000164509;0.6179347000143025;0.7480159999977332;0.8781323000148404;0.01
2;1;7;18;letter181;letter357;letter357;letter181;0;0;incongruent;0.04;letter181;0.05;0.07;fullmask;0.2;arrow_right.png;down;0.33811680000508204;0.34001159999752417;256313.220104;2.600019797682762e-06;0.5041139000095427;0.5441352000052575;0.5541374000022188;0.6241786000027787;0.7542471000051592;0.8843671000213362;0.01
2;1;7;19;letter181;letter357;letter357;letter181;0;0;incongruent;0.04;letter357;0.05;0.07;fullmask;0.2;arrow_left.png;up;0.2521883000154048;0.2593475000176113;256314.9560693;2.7999922167509794e-06;0.4959081999841146;0.5359231999900658;0.5459196000010706;0.6159564999979921;0.7463726999994833;0.876147500006482;0.01
2;1;7;20;letter181;letter357;letter357;letter181;0;0;congruent;0.04;letter181;0.05;0.07;fullmask;0.2;arrow_left.png;down;0.365550099988468;0.3700730999989901;256316.820093;2.6999914553016424e-06;0.5054423999972641;0.5454629999876488;0.5554768999863882;0.6255273999995552;0.7555826999887358;0.885686399997212;0.01
2;1;7;21;letter181;letter357;letter357;letter181;0;0;congruent;0.04;letter357;0.05;0.07;fullmask;0.2;arrow_right.png;down;0.31982129998505116;0.3293338999792468;256318.6360989;2.6999914553016424e-06;0.5055538000015076;0.5455604000017047;0.5555846999923233;0.6256113999988884;0.7557102999999188;0.8857944999763276;0.01
2;1;7;22;letter181;letter357;letter357;letter181;0;0;congruent;0.04;letter181;0.05;0.07;fullmask;0.2;arrow_left.png;down;0.41510919999564067;0.4199265999777708;256320.7321128;2.700020559132099e-06;0.4972682000079658;0.5373103000165429;0.5472857000131626;0.6173441999999341;0.7474108000169508;0.8775133000162896;0.01
2;1;7;23;letter181;letter357;letter357;letter181;0;0;incongruent;0.04;letter357;0.05;0.07;fullmask;0.2;arrow_left.png;up;0.4582286000077147;0.46079320000717416;256322.6761559;2.800021320581436e-06;0.5019138000207022;0.541916600021068;0.5519576000224333;0.6220080000057351;0.7520788999972865;0.8821559000061825;0.01
2;1;7;24;letter181;letter357;letter357;letter181;0;0;incongruent;0.04;letter181;0.05;0.07;fullmask;0.2;arrow_right.png;down;0.2902481000055559;0.30013719998532906;256324.4601435;2.800021320581436e-06;0.5036762000236195;0.5437049000174738;0.5537177000078373;0.623745000018971;0.7538637999969069;0.8839404000027571;0.01
2;1;7;25;letter181;letter357;letter357;letter181;0;0;congruent;0.04;letter357;0.05;0.07;fullmask;0.2;arrow_right.png;up;0.3678210000216495;0.37093070000992157;256326.3080987;2.600019797682762e-06;0.49607400002423674;0.5360838000196964;0.5460741000133567;0.6161257000057958;0.7461884000222199;0.8762904000177514;0.01
2;1;7;26;letter181;letter357;letter357;letter181;0;0;congruent;0.04;letter181;0.05;0.07;fullmask;0.2;arrow_left.png;down;0.3626081999973394;0.37102399999275804;256328.1641038;2.700020559132099e-06;0.49934490001760423;0.5393683000002056;0.5493786000006367;0.6194045000011101;0.7494949000247288;0.8795856000215281;0.01
2;1;7;27;letter181;letter357;letter357;letter181;0;0;incongruent;0.04;letter357;0.05;0.07;fullmask;0.2;arrow_left.png;up;0.5009343000128865;0.510281800001394;256330.164292;2.6999914553016424e-06;0.5051349999848753;0.5451594999758527;0.5551553999830503;0.6252147999766748;0.7552896999986842;0.8853995999961626;0.01
2;1;7;28;letter181;letter357;letter357;letter181;0;0;congruent;0.04;letter357;0.05;0.07;fullmask;0.2;arrow_right.png;up;0.5344546000123955;0.5408068000106141;256332.1882648;2.5999906938523054e-06;0.5001855999871623;0.5402248000027612;0.5501968000025954;0.6202519999933429;0.7503214000025764;0.8804151999938767;0.01
2;1;7;29;letter181;letter357;letter357;letter181;0;0;incongruent;0.04;letter181;0.05;0.07;fullmask;0.2;arrow_right.png;down;0.3828487000137102;0.39101570000639185;256334.0680963;2.700020559132099e-06;0.5025619000080042;0.542601300025126;0.55258909999975;0.6226250000181608;0.7527238000184298;0.8828291000099853;0.01
2;1;7;30;letter181;letter357;letter357;letter181;0;0;incongruent;0.04;letter181;0.05;0.07;fullmask;0.2;arrow_right.png;down;0.49548979999963194;0.5006979999889154;256336.0520941;2.700020559132099e-06;0.5009009000204969;0.5409246000053827;0.5509274000069126;0.6209626000199933;0.7510377000144217;0.8811484000179917;0.01
2;1;7;31;letter181;letter357;letter357;letter181;0;0;incongruent;0.04;letter181;0.05;0.07;fullmask;0.2;arrow_right.png;down;0.53829689999111;0.5405464999785181;256338.0761032;2.6999914553016424e-06;0.4967365000047721;0.5367524999892339;0.5467630999919493;0.6168063000077382;0.7468769999977667;0.8769822999893222;0.01
2;1;7;32;letter181;letter357;letter357;letter181;0;0;congruent;0.04;letter181;0.05;0.07;fullmask;0.2;arrow_left.png;down;0.6108226000214927;0.6204025000042748;256340.1801395;2.700020559132099e-06;0.5033915000094566;0.543407399993157;0.553444799996214;0.6234386000141967;0.7535429999988992;0.8836414999968838;0.01
2;1;7;33;letter181;letter357;letter357;letter181;0;0;congruent;0.04;letter181;0.05;0.07;fullmask;0.2;arrow_left.png;down;0.38910929998382926;0.38997799999197014;256342.0601253;2.7999922167509794e-06;0.4966231999860611;0.5366481999808457;0.5466552999860141;0.616683500004001;0.7467880999902263;0.8768693000019994;0.01
2;1;7;34;letter181;letter357;letter357;letter181;0;0;congruent;0.04;letter181;0.05;0.07;fullmask;0.2;arrow_left.png;down;0.47840689998702146;0.48063659999752417;256344.0200722;2.5999906938523054e-06;0.5033719000057317;0.5433977999782655;0.5534040000056848;0.6234308999846689;0.7535209000052419;0.8836159999773372;0.01
2;1;7;35;letter181;letter357;letter357;letter181;0;1;congruent;0.12;letter357;0.14;0.07;fullmask;0.2;arrow_right.png;up;0.4611205999972299;0.47080509999068454;256346.084088;2.5999906938523054e-06;0.4978438999969512;0.6179028000042308;0.6379186999984086;0.7079754000005778;0.838047800003551;0.9681437000108417;0.01
2;1;7;36;letter181;letter357;letter357;letter181;0;0;incongruent;0.04;letter357;0.05;0.07;fullmask;0.2;arrow_left.png;up;0.5532793000165839;0.5605939000088256;256348.148076;2.6999914553016424e-06;0.5052951000106987;0.5453231999999844;0.5553284999914467;0.6253889999934472;0.7554611999948975;0.8855678999971133;0.01
2;1;7;37;letter181;letter357;letter357;letter181;0;0;congruent;0.04;letter357;0.05;0.07;fullmask;0.2;arrow_right.png;up;0.6146369999914896;0.6203910999756772;256350.2600907;2.8999929782003164e-06;0.4998943999817129;0.5399123999814037;0.5499304999830201;0.6199768999940716;0.7500066999928094;0.8801383999816608;0.01
2;1;7;38;letter181;letter357;letter357;letter181;0;0;congruent;0.04;letter357;0.05;0.07;fullmask;0.2;arrow_right.png;up;0.5444324999989476;0.5494510999997146;256352.2920833;3.0999945010989904e-06;0.5031939999898896;0.543216999998549;0.553229699988151;0.6232458000013139;0.7533433999924455;0.8834466999978758;0.01
2;1;7;39;letter181;letter357;letter357;letter181;0;0;incongruent;0.04;letter357;0.05;0.07;fullmask;0.2;arrow_left.png;up;0.4335906000051182;0.43992780000553466;256354.2120874;2.7999922167509794e-06;0.4969442000146955;0.5369600999983959;0.5469758000108413;0.6170005000021774;0.7470912999997381;0.87718589999713;0.01
2;1;7;40;letter181;letter357;letter357;letter181;0;1;incongruent;0.12;letter181;0.14;0.07;fullmask;0.2;arrow_right.png;down;0.36442779999924824;0.37007699999958277;256356.1640848;2.8999929782003164e-06;0.5003964000206906;0.6204633000015747;0.6404841000039596;0.7105468999943696;0.8406063000147697;0.9707132000185084;0.01
2;1;7;41;letter181;letter357;letter357;letter181;0;0;congruent;0.04;letter357;0.05;0.07;fullmask;0.2;arrow_right.png;up;0.4387542000040412;0.43988570000510663;256358.1001053;2.6999914553016424e-06;0.50421839999035;0.5442314999818336;0.5542468999919947;0.6242652999935672;0.7543498000013642;0.8844563000020571;0.01
2;1;7;42;letter181;letter357;letter357;letter181;0;0;incongruent;0.04;letter181;0.05;0.07;fullmask;0.2;arrow_right.png;down;0.48348759999498725;0.48976979998406023;256360.0761105;2.6999914553016424e-06;0.5048679999890737;0.5448903999931645;0.5551765999989584;0.6249322000076063;0.755030500004068;0.8851124999928288;0.01
2;1;7;43;letter181;letter357;letter357;letter181;0;0;congruent;0.04;letter181;0.05;0.07;fullmask;0.2;arrow_left.png;down;0.40124820001074113;0.4110590000054799;256361.9642967;2.5999906938523054e-06;0.4974797999893781;0.5374969000113197;0.547507899987977;0.6175418999919202;0.7476403999899048;0.8777230000123382;0.01
2;1;7;44;letter181;letter357;letter357;letter181;0;0;congruent;0.04;letter181;0.05;0.07;fullmask;0.2;arrow_left.png;down;0.7894066000008024;0.7908105999813415;256364.2440538;2.700020559132099e-06;0.5028810999938287;0.5429011000087485;0.5529108000046108;0.6229444000055082;0.7530301999941003;0.8831236000114586;0.01
2;1;7;45;letter181;letter357;letter357;letter181;0;0;congruent;0.04;letter357;0.05;0.07;fullmask;0.2;arrow_right.png;up;0.6779390999872703;0.6802434000128414;256366.4040734;2.6999914553016424e-06;0.4998489999852609;0.5398687999986578;0.5498892999894451;0.6199235999956727;0.7500188999983948;0.8800916000036523;0.01
2;1;7;46;letter181;letter357;letter357;letter181;0;0;incongruent;0.04;letter357;0.05;0.07;fullmask;0.2;arrow_left.png;up;0.5162433999939822;0.5196711999888066;256368.404056;2.4999899324029684e-06;0.49769600000581704;0.5376845000137109;0.5476657999970485;0.6176943999889772;0.7477913000038825;0.877900799998315;0.01
2;1;7;47;letter181;letter357;letter357;letter181;0;0;congruent;0.04;letter181;0.05;0.07;fullmask;0.2;arrow_left.png;down;0.46521550000761636;0.47089530000812374;256370.3640687;2.7999922167509794e-06;0.5013295999960974;0.5413558000000194;0.551360699988436;0.6213894999818876;0.7514774999872316;0.881594899983611;0.01
2;1;7;48;letter181;letter357;letter357;letter181;0;0;incongruent;0.04;letter181;0.05;0.07;fullmask;0.2;arrow_right.png;down;0.4240494999976363;0.4299765000178013;256372.2842912;2.700020559132099e-06;0.5012203000078443;0.5412397000181954;0.5512438000005204;0.6212894000054803;0.7513697000104003;0.8814627999963704;0.01
2;1;7;49;letter181;letter357;letter357;letter181;0;0;incongruent;0.04;letter181;0.05;0.07;fullmask;0.2;arrow_right.png;down;0.5064625999948476;0.5105536000046413;256374.268063;2.800021320581436e-06;0.49844840000150725;0.538467500009574;0.5484904000186361;0.618518800009042;0.7486028000130318;0.8786961000005249;0.01
2;1;7;50;letter181;letter357;letter357;letter181;0;0;congruent;0.04;letter357;0.05;0.07;fullmask;0.2;arrow_right.png;up;0.4273117000120692;0.4298609000106808;256376.1800525;2.6999914553016424e-06;0.5035539999953471;0.5435681999952067;0.5535991999786347;0.6236261999874841;0.7537241999816615;0.8837958999793045;0.01
2;1;7;51;letter181;letter357;letter357;letter181;0;0;incongruent;0.04;letter357;0.05;0.07;fullmask;0.2;arrow_left.png;up;0.5885424999869429;0.5903398999944329;256378.2521054;2.6999914553016424e-06;0.5036529999924824;0.543676899978891;0.5537030999839772;0.6237139999866486;0.7538320999883581;0.8838996999838855;0.01
2;1;7;52;letter181;letter357;letter357;letter181;0;0;incongruent;0.04;letter357;0.05;0.07;fullmask;0.2;arrow_left.png;up;0.6069747000001371;0.6102989999926649;256380.3320362;2.7999922167509794e-06;0.49614020000444725;0.5361531999951694;0.5461669999931473;0.616198700008681;0.7462686999933794;0.8763787999923807;0.01
2;1;8;1;letter181;letter357;letter357;letter181;0;0;incongruent;0.04;letter357;0.05;0.07;fullmask;0.2;arrow_left.png;down;0.7259096000052523;0.7310946000216063;256392.1080438;2.600019797682762e-06;0.5037891000101808;0.5438144000072498;0.5538039000239223;0.6241419000143651;0.7539278000185732;0.8840393000282347;0.01
2;1;8;2;letter181;letter357;letter357;letter181;0;0;congruent;0.04;letter181;0.05;0.07;fullmask;0.2;arrow_left.png;down;0.6094873000110965;0.6103609999991022;256394.4040989;2.5999906938523054e-06;0.5011087999737356;0.5411548999836668;0.5511669999978039;0.6211904999800026;0.7512868999911007;0.881379599974025;0.01
2;1;8;3;letter181;letter357;letter357;letter181;0;0;incongruent;0.04;letter357;0.05;0.07;fullmask;0.2;arrow_left.png;up;0.6061601999972481;0.6103122000058647;256396.4920367;2.6999914553016424e-06;0.4970113000017591;0.5370230000116862;0.5470453999878373;0.6170741000096314;0.7471537000092212;0.8772545999963768;0.01
2;1;8;4;letter181;letter357;letter357;letter181;0;0;congruent;0.04;letter181;0.05;0.07;fullmask;0.2;arrow_left.png;down;0.7533226999803446;0.7601923999900464;256398.74005;2.600019797682762e-06;0.5054662000038661;0.5455077000078745;0.5554908000049181;0.625536400009878;0.7556177000224125;0.8857158000173513;0.01
2;1;8;5;letter181;letter357;letter357;letter181;0;0;congruent;0.04;letter357;0.05;0.07;fullmask;0.2;arrow_right.png;up;3.1196295999980066;3.1216657000186387;256403.3480218;2.6999914553016424e-06;0.5022858000011183;0.5422984000178985;0.5523195000132546;0.6223459000175353;0.7524381999974139;0.8825362999923527;0.01
2;1;8;6;letter181;letter357;letter357;letter181;0;0;incongruent;0.04;letter357;0.05;0.07;fullmask;0.2;arrow_left.png;up;0.4832804999896325;0.49083329999120906;256405.3242639;2.4999899324029684e-06;0.5014293999993242;0.5414318999974057;0.5514391000033356;0.6215030000021216;0.751577199989697;0.8816663000034168;0.01
2;1;8;7;letter181;letter357;letter357;letter181;0;0;incongruent;0.04;letter357;0.05;0.07;fullmask;0.2;arrow_left.png;up;0.44558069997583516;0.4508097999787424;256407.2680082;2.7999922167509794e-06;0.501101000001654;0.5411207999859471;0.5511395999928936;0.6211728999915067;0.7512575000000652;0.8813438999932259;0.01
2;1;8;8;letter181;letter357;letter357;letter181;0;0;incongruent;0.04;letter181;0.05;0.07;fullmask;0.2;arrow_right.png;down;0.45803979999618605;0.45969329998479225;256409.2120419;2.5999906938523054e-06;0.5001992000034079;0.5402232999913394;0.5502359999809414;0.6202506999834441;0.7503811999922618;0.8804395999759436;0.01
2;1;8;9;letter181;letter357;letter357;letter181;0;0;incongruent;0.04;letter181;0.05;0.07;fullmask;0.2;arrow_right.png;down;0.30326200000126846;0.3100927999767009;256410.9880342;2.6999914553016424e-06;0.49722779999137856;0.5372647999902256;0.5472415999975055;0.6172923999838531;0.7474006999982521;0.8774713999882806;0.01
2;1;8;10;letter181;letter357;letter357;letter181;0;1;incongruent;0.12;letter181;0.14;0.07;fullmask;0.2;arrow_right.png;down;0.5117274000076577;0.5200675000087358;256413.068299;2.700020559132099e-06;0.49920010002097115;0.6192889000230934;0.6392879000050016;0.7093275000224821;0.8394081000005826;0.969501500017941;0.01
2;1;8;11;letter181;letter357;letter357;letter181;0;0;congruent;0.04;letter181;0.05;0.07;fullmask;0.2;arrow_left.png;down;0.5084081999957561;0.5106956000090577;256415.0760416;2.7999922167509794e-06;0.5029378999897745;0.5429128999821842;0.552940599998692;0.622994799981825;0.753096700005699;0.8831638999981806;0.01
2;1;8;12;letter181;letter357;letter357;letter181;0;0;incongruent;0.04;letter181;0.05;0.07;fullmask;0.2;arrow_right.png;down;0.5496808000025339;0.5505581999896094;256417.108146;2.6999914553016424e-06;0.4960193000151776;0.5360373000148684;0.5460585000109859;0.616073699988192;0.7461780000012368;0.8762562999909278;0.01
2;1;8;13;letter181;letter357;letter357;letter181;0;0;congruent;0.04;letter357;0.05;0.07;fullmask;0.2;arrow_right.png;up;0.5023978000099305;0.5106445999990683;256419.0920195;2.7999922167509794e-06;0.5011025999847334;0.5411230999743566;0.5511364999983925;0.6211641999834683;0.7512499000004027;0.8813435999909416;0.01
2;1;8;14;letter181;letter357;letter357;letter181;0;0;congruent;0.04;letter357;0.05;0.07;fullmask;0.2;arrow_right.png;up;0.5426493999839295;0.5508405999862589;256421.124223;2.6999914553016424e-06;0.5030849000031594;0.5431007999868598;0.5531158999947365;0.6231614999996964;0.7532455000036862;0.8833259999810252;0.01
2;1;8;15;letter181;letter357;letter357;letter181;0;0;congruent;0.04;letter357;0.05;0.07;fullmask;0.2;arrow_right.png;up;0.5756759000068996;0.5805101000005379;256423.1880266;2.5999906938523054e-06;0.5043176999897696;0.54430060001323;0.5543417999870144;0.6243686999951024;0.7544568000012077;0.8845532000123058;0.01
2;1;8;16;letter181;letter357;letter357;letter181;0;0;congruent;0.04;letter181;0.05;0.07;fullmask;0.2;arrow_left.png;down;0.42603660002350807;0.4298674000019673;256425.1000276;2.600019797682762e-06;0.5043908000225201;0.5443978999974206;0.554426999995485;0.6244430000078864;0.7545395000197459;0.884654599998612;0.01
2;1;8;17;letter181;letter357;letter357;letter181;0;1;congruent;0.12;letter181;0.14;0.07;fullmask;0.2;arrow_left.png;down;0.5129003999754786;0.5206327999767382;256427.1880259;2.6999914553016424e-06;0.5017483999836259;0.6218155999958981;0.6418245999957435;0.7118680999847129;0.8419499000010546;0.9720516999950632;0.01
2;1;8;18;letter181;letter357;letter357;letter181;0;0;incongruent;0.04;letter357;0.05;0.07;fullmask;0.2;arrow_left.png;up;0.4873377000039909;0.49065400002291426;256429.1640693;2.6999914553016424e-06;0.5015074000111781;0.5415248000063002;0.5515381000004709;0.6215709999960382;0.7516507999971509;0.8817478999844752;0.01
2;1;8;19;letter181;letter357;letter357;letter181;0;0;congruent;0.04;letter181;0.05;0.07;fullmask;0.2;arrow_left.png;down;0.37215300000389107;0.3799095000140369;256431.02002;2.6999914553016424e-06;0.5025296999956481;0.5425428999878932;0.5525536999921314;0.622589100006735;0.7526664999895729;0.8827721000125166;0.01
2;1;8;20;letter181;letter357;letter357;letter181;0;0;congruent;0.04;letter357;0.05;0.07;fullmask;0.2;arrow_right.png;down;0.8711913000151981;0.8808006000181194;256433.3801909;2.5999906938523054e-06;0.4961819000018295;0.5362000000022817;0.54619689998799;0.6162393999984488;0.7463219999917783;0.8764195000112522;0.01
2;1;8;21;letter181;letter357;letter357;letter181;0;0;incongruent;0.04;letter181;0.05;0.07;fullmask;0.2;arrow_right.png;down;0.6911866000154987;0.7001394999970216;256435.7720252;2.7999922167509794e-06;0.5021883999870624;0.5419220999756362;0.5519063999818172;0.6219412999926135;0.7520323999924585;0.8821295999805443;0.01
2;1;8;22;letter181;letter357;letter357;letter181;0;0;congruent;0.04;letter357;0.05;0.07;fullmask;0.2;arrow_right.png;up;0.42171009999583475;0.4297681000025477;256437.6840187;2.700020559132099e-06;0.5006431000074372;0.5406663000176195;0.550686600006884;0.6207057000137866;0.7508024999988265;0.8808770000177901;0.01
2;1;8;23;letter181;letter357;letter357;letter181;0;0;congruent;0.04;letter181;0.05;0.07;fullmask;0.2;arrow_left.png;down;0.4290481999923941;0.43090659999870695;256439.6119963;2.6999914553016424e-06;0.4992922999954317;0.5393165999848861;0.5493079999869224;0.6193589000031352;0.7494378999981564;0.8795439999958035;0.01
2;1;8;24;letter181;letter357;letter357;letter181;0;0;incongruent;0.04;letter357;0.05;0.07;fullmask;0.2;arrow_left.png;up;0.65908800001489;0.6602957000141032;256441.7640582;2.7999922167509794e-06;0.5012658000050578;0.5412849000131246;0.5513197999971453;0.6213265999977011;0.75143420000677;0.8815121999941766;0.01
2;1;8;25;letter181;letter357;letter357;letter181;0;0;incongruent;0.04;letter181;0.05;0.07;fullmask;0.2;arrow_right.png;down;0.47595320001710206;0.4798417999991216;256443.7321322;2.5999906938523054e-06;0.5021913999808021;0.542217799986247;0.5522371999977622;0.622251699998742;0.7523498999944422;0.8824399999866728;0.01
2;1;8;26;letter181;letter357;letter357;letter181;0;0;congruent;0.04;letter357;0.05;0.07;fullmask;0.2;arrow_right.png;up;0.7626173000026029;0.7700007999956142;256445.9800075;3.00002284348011e-06;0.4974345000227913;0.537445599999046;0.5474465000152122;0.6175129000039306;0.7475661000062246;0.8776693000108935;0.01
2;1;8;27;letter181;letter357;letter357;letter181;0;0;congruent;0.04;letter181;0.05;0.07;fullmask;0.2;arrow_left.png;down;0.4534892000083346;0.46077969999169;256447.9320055;2.700020559132099e-06;0.5008283000206575;0.5408377000130713;0.5508522000163794;0.6208930000138935;0.7509719000081532;0.8810674000123981;0.01
2;1;8;28;letter181;letter357;letter357;letter181;0;0;congruent;0.04;letter181;0.05;0.07;fullmask;0.2;arrow_left.png;down;0.4726904999988619;0.4807669000001624;256449.8922962;2.6999914553016424e-06;0.5037598999915645;0.543778499995824;0.5537835999857634;0.6238248999870848;0.7539046999881975;0.8840124999987893;0.01
2;1;8;29;letter181;letter357;letter357;letter181;0;0;congruent;0.04;letter357;0.05;0.07;fullmask;0.2;arrow_right.png;up;0.3916169000149239;0.4000889000017196;256451.7724824;2.6999914553016424e-06;0.4977184000017587;0.5377350999915507;0.5477384999976493;0.6177851999818813;0.7478742999956012;0.877973299997393;0.01
2;1;8;30;letter181;letter357;letter357;letter181;0;0;incongruent;0.04;letter357;0.05;0.07;fullmask;0.2;arrow_left.png;up;0.499977300001774;0.5007463999791071;256453.7721052;3.1999952625483274e-06;0.49871189999976195;0.5387192999769468;0.5487317999941297;0.6187733999977354;0.7488443999900483;0.8789478999970015;0.01
2;1;8;31;letter181;letter357;letter357;letter181;0;1;congruent;0.12;letter357;0.14;0.07;fullmask;0.2;arrow_right.png;up;0.41005020000739023;0.41993440000806004;256455.7641225;2.6999914553016424e-06;0.4994175999891013;0.6192317999957595;0.6392458000045735;0.7092704999959096;0.8393293999833986;0.9694527999963611;0.01
2;1;8;32;letter181;letter357;letter357;letter181;0;0;congruent;0.04;letter357;0.05;0.07;fullmask;0.2;arrow_right.png;up;0.3549018000194337;0.3600968999962788;256457.6200061;2.5999906938523054e-06;0.5036020999832544;0.5436161999823526;0.5536180000053719;0.6236644999880809;0.7537399999855552;0.883849999983795;0.01
2;1;8;33;letter181;letter357;letter357;letter181;0;0;incongruent;0.04;letter357;0.05;0.07;fullmask;0.2;arrow_left.png;up;0.5398637999896891;0.540571399993496;256459.6759576;2.5999906938523054e-06;0.5024527999921702;0.5424856999889016;0.5524780999985524;0.6225137999863364;0.7526136999949813;0.8827060000039637;0.01
2;1;8;34;letter181;letter357;letter357;letter181;0;0;congruent;0.04;letter357;0.05;0.07;fullmask;0.2;arrow_right.png;up;0.6311762999976054;0.6314700999937486;256461.7882214;2.400018274784088e-06;0.4961500000208616;0.5361477000114974;0.546157700009644;0.6161886000190862;0.7462731999985408;0.8763614000054076;0.01
2;1;8;35;letter181;letter357;letter357;letter181;0;0;incongruent;0.04;letter181;0.05;0.07;fullmask;0.2;arrow_right.png;down;0.35984379998990335;0.36095750000094995;256463.6281533;2.6999914553016424e-06;0.5027014999941457;0.5427209000044968;0.5527321000117809;0.6227551999909338;0.7528582999948412;0.8829381999967154;0.01
2;1;8;36;letter181;letter357;letter357;letter181;0;0;incongruent;0.04;letter181;0.05;0.07;fullmask;0.2;arrow_right.png;down;0.3902077999955509;0.3909642999933567;256465.4999383;2.8999929782003164e-06;0.49759509999421425;0.5376266000093892;0.5476148000161629;0.6176753000181634;0.7477357000170741;0.8778405000048224;0.01
2;1;8;37;letter181;letter357;letter357;letter181;0;0;incongruent;0.04;letter181;0.05;0.07;fullmask;0.2;arrow_right.png;down;0.3850015999923926;0.3899583000165876;256467.3559752;2.7999922167509794e-06;0.5012375999940559;0.5412588999897707;0.5512514000001829;0.6212819000065792;0.751375799998641;0.8814610999834258;0.01
2;1;8;38;letter181;letter357;letter357;letter181;0;0;congruent;0.04;letter181;0.05;0.07;fullmask;0.2;arrow_left.png;down;0.4354569000133779;0.4398644000175409;256469.2681219;2.5999906938523054e-06;0.4967406000068877;0.5367570999951568;0.5467775999859441;0.6168041999917477;0.7469214999873657;0.8769731000065804;0.01
2;1;8;39;letter181;letter357;letter357;letter181;0;0;congruent;0.04;letter181;0.05;0.07;fullmask;0.2;arrow_left.png;down;0.2982241999998223;0.30021849999320693;256471.0519791;2.600019797682762e-06;0.5026050000160467;0.5426148000115063;0.5526187000214122;0.6226587000128347;0.7527423000137787;0.8828390999988187;0.01
2;1;8;40;letter181;letter357;letter357;letter181;0;0;incongruent;0.04;letter357;0.05;0.07;fullmask;0.2;arrow_left.png;up;0.3428223000082653;0.35007499999483116;256472.8679864;2.6999914553016424e-06;0.4972235999885015;0.5372420999919996;0.5472590000135824;0.6172958000097424;0.747379100008402;0.8774659000046086;0.01
2;1;8;41;letter181;letter357;letter357;letter181;0;0;incongruent;0.04;letter181;0.05;0.07;fullmask;0.2;arrow_right.png;down;0.33817390000331216;0.3400137000135146;256474.6839687;2.700020559132099e-06;0.5017784000083338;0.5418005000101402;0.5518025000055786;0.6218494000204373;0.7519233000057284;0.8820282999949995;0.01
2;1;8;42;letter181;letter357;letter357;letter181;0;0;incongruent;0.04;letter357;0.05;0.07;fullmask;0.2;arrow_left.png;up;0.5112809000129346;0.5207666000060271;256476.6682673;2.700020559132099e-06;0.496944300015457;0.5369660000142176;0.5469668000005186;0.6169996000244282;0.7470873000274878;0.8771875000093132;0.01
2;1;8;43;letter181;letter357;letter357;letter181;0;0;incongruent;0.04;letter357;0.05;0.07;fullmask;0.2;arrow_left.png;up;0.5099460000055842;0.510585500014713;256478.6680533;2.800021320581436e-06;0.49803550000069663;0.5380455999984406;0.5480609000078402;0.6180937000026461;0.7481776000058744;0.8782651000074111;0.01
2;1;8;44;letter181;letter357;letter357;letter181;0;0;congruent;0.04;letter357;0.05;0.07;fullmask;0.2;arrow_right.png;up;0.3425144999928307;0.3500715999980457;256480.4919644;2.7999922167509794e-06;0.49885920001543127;0.5388761000067461;0.5488907000108156;0.6188952999946196;0.7490148000069894;0.8791095000051428;0.01
2;1;8;45;letter181;letter357;letter357;letter181;0;0;incongruent;0.04;letter181;0.05;0.07;fullmask;0.2;arrow_right.png;down;0.35344929998973384;0.3600469999946654;256482.3239729;2.700020559132099e-06;0.5012245000107214;0.5412498000077903;0.5512314999941736;0.6212994999950752;0.7513632000191137;0.8814662999939173;0.01
2;1;8;46;letter181;letter357;letter357;letter181;0;0;incongruent;0.04;letter181;0.05;0.07;fullmask;0.2;arrow_right.png;down;0.36988539999583736;0.3702194000070449;256484.1720609;2.6999914553016424e-06;0.5015128999948502;0.5415302999899723;0.5515269000025;0.6215766000095755;0.7516469999973197;0.8817377999948803;0.01
2;1;8;47;letter181;letter357;letter357;letter181;0;0;incongruent;0.04;letter357;0.05;0.07;fullmask;0.2;arrow_left.png;up;0.39140920000500046;0.4008925999805797;256486.0442161;2.6999914553016424e-06;0.5024908999912441;0.5425081999856047;0.5525223999866284;0.6225520999869332;0.7526445999974385;0.8827395999978762;0.01
2;1;8;48;letter181;letter357;letter357;letter181;0;1;incongruent;0.12;letter357;0.14;0.07;fullmask;0.2;arrow_left.png;up;0.37969370000064373;0.3798927000025287;256488.0040172;2.5999906938523054e-06;0.4994150999991689;0.6194758999918122;0.6394936999713536;0.7095234999724198;0.839607799978694;0.9697146999824326;0.01
2;1;8;49;letter181;letter357;letter357;letter181;0;0;congruent;0.04;letter357;0.05;0.07;fullmask;0.2;arrow_right.png;up;0.3903991999977734;0.3999369000084698;256489.8759656;2.7999922167509794e-06;0.5032987000013236;0.5433258999837562;0.5533110999967903;0.6233557999948971;0.7534394999966025;0.8835367999854498;0.01
2;1;8;50;letter181;letter357;letter357;letter181;0;0;congruent;0.04;letter181;0.05;0.07;fullmask;0.2;arrow_left.png;down;0.44735170001513325;0.4508235000248533;256491.8040036;2.6999914553016424e-06;0.5049999000038952;0.5450299000076484;0.5552882000047248;0.6250528999953531;0.7551389000145718;0.8852194999926724;0.01
2;1;8;51;letter181;letter357;letter357;letter181;0;0;congruent;0.04;letter181;0.05;0.07;fullmask;0.2;arrow_left.png;down;0.6101896000036504;0.6103628000128083;256493.9079819;2.6999914553016424e-06;0.5031293999927584;0.5431570000073407;0.5531837999878917;0.6232075000007171;0.7535967000003438;0.8833819999999832;0.01
2;1;8;52;letter181;letter357;letter357;letter181;0;0;incongruent;0.04;letter181;0.05;0.07;fullmask;0.2;arrow_right.png;down;0.2781709000119008;0.28016600001137704;256495.6679436;2.8999929782003164e-06;0.4948001000157092;0.534810400014976;0.5448237000091467;0.6148663999920245;0.7452206000161823;0.8750327000161633;0.01
2;2;14;1;letter169;letter190;letter190;letter169;1;0;congruent;0.12;letter169;0.18;0.07;fullmask;0.2;arrow_left.png;down;0.596386999997776;0.6004317000042647;257495.3471392;2.8999929782003164e-06;0.49794509998173453;0.6180154999892693;0.6780546999943908;0.748091999994358;0.8781881000031717;1.0082720999780577;0.01
2;2;14;2;letter169;letter190;letter190;letter169;1;0;congruent;0.12;letter190;0.18;0.07;fullmask;0.2;arrow_right.png;up;0.4812219000014011;0.49084029998630285;257497.4432642;2.7999922167509794e-06;0.4998219999833964;0.6198985999799334;0.6799290999770164;0.7499643999908585;0.8800631999911275;1.0101582999923266;0.01
2;2;14;3;letter169;letter190;letter190;letter169;1;0;incongruent;0.12;letter190;0.18;0.07;fullmask;0.2;arrow_left.png;up;0.34741449999273755;0.34998610001639463;257499.4111372;2.600019797682762e-06;0.5024188000243157;0.6224923000263516;0.6825258000171743;0.7525605000264477;0.8826421000121627;1.012742100021569;0.01
2;2;14;4;letter169;letter190;letter190;letter169;1;0;incongruent;0.12;letter169;0.18;0.07;fullmask;0.2;arrow_right.png;down;0.35233599998173304;0.36009699999704026;257501.3871348;2.600019797682762e-06;0.504539300018223;0.6246017000230495;0.6846427000127733;0.7546443000028376;0.8847609000222292;1.0148458000039682;0.01
2;2;14;5;letter169;letter190;letter190;letter169;1;0;congruent;0.12;letter190;0.18;0.07;fullmask;0.2;arrow_right.png;up;0.34061889999429695;0.3501109999779146;257503.3471371;2.700020559132099e-06;0.49790489999577403;0.6180011999967974;0.6780111000116449;0.7480596000095829;0.8781263999990188;1.008231000014348;0.01
2;2;14;6;letter169;letter190;letter190;letter169;1;0;incongruent;0.12;letter169;0.18;0.07;fullmask;0.2;arrow_right.png;down;0.45965370000340044;0.45989659999031574;257505.4272796;2.5999906938523054e-06;0.4970893999852706;0.6171679999970365;0.677210699999705;0.7472550999955274;0.8773283999762498;1.007436299987603;0.01
2;2;14;7;letter169;letter190;letter190;letter169;1;0;incongruent;0.12;letter190;0.18;0.07;fullmask;0.2;arrow_left.png;up;0.4200166999944486;0.4298642000067048;257507.4591862;2.900022082030773e-06;0.5011739000037778;0.6212505000003148;0.6812793000135571;0.7513220999971963;0.8813977999961935;1.011511699995026;0.01
2;2;14;8;letter169;letter190;letter190;letter169;1;0;congruent;0.12;letter169;0.18;0.07;fullmask;0.2;arrow_left.png;down;0.41957389999879524;0.4209314000036102;257509.4991665;2.6999914553016424e-06;0.4945545999798924;0.6146307999733835;0.6746826999878976;0.7446994999772869;0.8748105999839026;1.00488699998823;0.01
2;2;14;9;letter169;letter190;letter190;letter169;1;0;congruent;0.12;letter169;0.18;0.07;fullmask;0.2;arrow_left.png;down;0.3400007000018377;0.34013490000506863;257511.4511568;2.500019036233425e-06;0.5032928000146057;0.6233705000195187;0.6834037000080571;0.7534446000063326;0.883538399997633;1.0136251999938395;0.01
2;2;14;10;letter169;letter190;letter190;letter169;1;0;congruent;0.12;letter190;0.18;0.07;fullmask;0.2;arrow_right.png;up;0.3506154000060633;0.35993259999668226;257513.4033485;3.1999952625483274e-06;0.4980030999868177;0.6180943999788724;0.678142899996601;0.7481646999949589;0.878263299993705;1.008349099982297;0.01
2;2;14;11;letter169;letter190;letter190;letter169;1;0;incongruent;0.12;letter190;0.18;0.07;fullmask;0.2;arrow_left.png;up;0.4275584999995772;0.4308735000086017;257515.4511302;2.6999914553016424e-06;0.5013176999927964;0.6213945999916177;0.6814394999819342;0.7514843000099063;0.8818394999834709;1.011647899984382;0.01
2;2;14;12;letter169;letter190;letter190;letter169;1;0;incongruent;0.12;letter169;0.18;0.07;fullmask;0.2;arrow_right.png;down;0.39962199999717996;0.39984200001345016;257517.4752703;2.700020559132099e-06;0.5034205999982078;0.6235002000175882;0.6835380000120495;0.7535725000197999;0.8836468000081368;1.0137519999989308;0.01
2;2;15;1;letter169;letter190;letter190;letter169;0;0;incongruent;0.04;letter190;0.09;0.07;fullmask;0.2;arrow_left.png;up;0.9494360999960918;0.951545799995074;257535.1550958;2.700020559132099e-06;0.5032995000074152;0.5432986000087112;0.5933576000097673;0.6634045999962837;0.7938103000051342;0.923582899995381;0.01
2;2;15;2;letter169;letter190;letter190;letter169;0;0;congruent;0.04;letter190;0.09;0.07;fullmask;0.2;arrow_right.png;up;0.38907509998534806;0.3898773999826517;257537.0672686;2.700020559132099e-06;0.49987790000159293;0.5399000000033993;0.5899042999953963;0.6599603000213392;0.7900588000193238;0.920153900020523;0.01
2;2;15;3;letter169;letter190;letter190;letter169;0;0;congruent;0.04;letter190;0.09;0.07;fullmask;0.2;arrow_right.png;up;0.24466389999724925;0.25037629998405464;257538.8433262;2.5999906938523054e-06;0.5029934999765828;0.5429883999750018;0.5930448999861255;0.6630998999753501;0.7931679000030272;0.9232744999753777;0.01
2;2;15;4;letter169;letter190;letter190;letter169;0;0;congruent;0.04;letter169;0.09;0.07;fullmask;0.2;arrow_left.png;down;0.12931319998460822;0.1306715999962762;257540.4991348;2.6999914553016424e-06;0.5009277999924961;0.5409598000114784;0.5910355999949388;0.6610331000119913;0.7910787000146229;0.9212169999955222;0.01
2;2;15;5;letter169;letter190;letter190;letter169;0;0;congruent;0.04;letter169;0.09;0.07;fullmask;0.2;arrow_left.png;down;0.22377260000212118;0.23037880001356825;257542.2350971;2.700020559132099e-06;0.49908990002586506;0.539109900011681;0.5891381000110414;0.6591749000072014;0.7892512000107672;0.9193506000156049;0.01
2;2;15;6;letter169;letter190;letter190;letter169;0;1;congruent;0.12;letter190;0.18;0.07;fullmask;0.2;arrow_right.png;up;0.11889240000164136;0.12073870000313036;257543.9710273;2.700020559132099e-06;0.5020708000229206;0.6221882000099868;0.6822326000255998;0.7522428000229411;0.8823383999988437;1.0123947000247426;0.01
2;2;15;7;letter169;letter190;letter190;letter169;0;0;incongruent;0.04;letter169;0.09;0.07;fullmask;0.2;arrow_right.png;down;0.12791229999857023;0.13065690000075847;257545.6111604;2.800021320581436e-06;0.4968815000029281;0.536907900008373;0.5869208000076469;0.6569743000145536;0.78701350002666;0.9171014000021387;0.01
2;2;15;8;letter169;letter190;letter190;letter169;0;0;incongruent;0.04;letter169;0.09;0.07;fullmask;0.2;arrow_right.png;down;0.012922900001285598;0.02010840000002645;257547.1470987;2.6999914553016424e-06;0.4969878999982029;0.53700840001693;0.5870544000063092;0.6570699000149034;0.7871655999915674;0.9172572999959812;0.01
2;2;15;9;letter169;letter190;letter190;letter169;0;0;incongruent;0.04;letter190;0.09;0.07;fullmask;0.2;arrow_left.png;up;0.128235299984226;0.13067129999399185;257548.8032301;3.0999945010989904e-06;0.5041583999991417;0.5441757999942638;0.594216099998448;0.6642430999781936;0.7943414000037592;0.924426699988544;0.01
2;2;15;10;letter169;letter190;letter190;letter169;0;0;congruent;0.04;letter169;0.09;0.07;fullmask;0.2;arrow_left.png;down;0.05253960000118241;0.05978260000119917;257550.379111;2.8999929782003164e-06;0.5014185000036377;0.5414391999947838;0.5915003000118304;0.6615037000156008;0.7915983000129927;0.9216851000091992;0.01
2;2;15;11;letter169;letter190;letter190;letter169;0;0;congruent;0.04;letter190;0.09;0.07;fullmask;0.2;arrow_right.png;up;0.0955186000210233;0.10044410001137294;257552.0031009;2.5999906938523054e-06;0.4951176999893505;0.5351532999775372;0.5851618000015151;0.6552330999984406;0.7852928999927826;0.9153925999999046;0.01
2;2;15;12;letter169;letter190;letter190;letter169;0;0;incongruent;0.04;letter190;0.09;0.07;fullmask;0.2;arrow_left.png;up;0.05227519999607466;0.05986419998225756;257553.5710966;2.800021320581436e-06;0.4974777000024915;0.5374917000008281;0.5875252000114415;0.6575640999944881;0.7876426000148058;0.9177552000037394;0.01
2;2;15;13;letter169;letter190;letter190;letter169;0;0;incongruent;0.04;letter169;0.09;0.07;fullmask;0.2;arrow_right.png;down;0.05361770000308752;0.060171499993884936;257555.1630922;2.8999929782003164e-06;0.4970462000055704;0.5370634999999311;0.5871033000003081;0.657146899990039;0.7872212000074796;0.917319200001657;0.01
2;2;15;14;letter169;letter190;letter190;letter169;0;0;congruent;0.04;letter190;0.09;0.07;fullmask;0.2;arrow_right.png;up;0.10489739998592995;0.11089959999662824;257556.7950895;2.8999929782003164e-06;0.5031350000062957;0.5431377000059001;0.5931615000008605;0.6631616999802645;0.7932792000065092;0.9233789999852888;0.01
2;2;15;15;letter169;letter190;letter190;letter169;0;0;congruent;0.04;letter169;0.09;0.07;fullmask;0.2;arrow_left.png;down;0.5934274999890476;0.6004316999751609;257558.9150907;2.900022082030773e-06;0.5025536000030115;0.5425839000090491;0.5926049000117928;0.6626263000071049;0.7927246000035666;0.9227718000183813;0.01
2;2;15;16;letter169;letter190;letter190;letter169;0;0;incongruent;0.04;letter190;0.09;0.07;fullmask;0.2;arrow_left.png;up;0.30347909999545664;0.3092274000227917;257560.7470896;2.8999929782003164e-06;0.4985222000104841;0.5385484000144061;0.5885782999976072;0.6586054000072181;0.7886977000162005;0.918989199999487;0.01
2;2;15;17;letter169;letter190;letter190;letter169;0;0;congruent;0.04;letter169;0.09;0.07;fullmask;0.2;arrow_left.png;down;0.09472769999410957;0.09979080001357943;257562.3790957;2.5999906938523054e-06;0.5033504999883007;0.5433958999929018;0.5934012999932747;0.6634461999929044;0.7935210000141524;0.9236483999993652;0.01
2;2;15;18;letter169;letter190;letter190;letter169;0;0;incongruent;0.04;letter169;0.09;0.07;fullmask;0.2;arrow_right.png;down;2.02414600001066;2.031623499991838;257565.9393173;2.6999914553016424e-06;0.5015487000055145;0.541607599996496;0.5916367000027094;0.6616894000035245;0.791749299998628;0.9218701999925543;0.01
2;2;15;19;letter169;letter190;letter190;letter169;0;0;incongruent;0.04;letter190;0.09;0.07;fullmask;0.2;arrow_left.png;up;0.15162399999098852;0.16059469999163412;257567.6190987;2.900022082030773e-06;0.49999760001082905;0.5400189000065438;0.5900697000033688;0.6600838000013027;0.7901930000225548;0.9202794000157155;0.01
2;2;15;20;letter169;letter190;letter190;letter169;0;0;incongruent;0.04;letter190;0.09;0.07;fullmask;0.2;arrow_left.png;up;0.5486598999996204;0.5505418999819085;257569.7070861;2.7999922167509794e-06;0.5055313000048045;0.545535999990534;0.5955969000060577;0.6656077000079677;0.7957086999958847;0.9257688999932725;0.01
2;2;15;21;letter169;letter190;letter190;letter169;0;0;congruent;0.04;letter190;0.09;0.07;fullmask;0.2;arrow_right.png;up;0.5712196999811567;0.5805072999792174;257571.8111004;2.6999914553016424e-06;0.500919599988265;0.5409442999807652;0.5909669999964535;0.6610194999957457;0.7910967000061646;0.9212220000044908;0.01
2;2;15;22;letter169;letter190;letter190;letter169;0;0;congruent;0.04;letter169;0.09;0.07;fullmask;0.2;arrow_left.png;down;0.5181605000107083;0.5207269999955315;257573.8591273;2.6999914553016424e-06;0.5006398000114132;0.5406664999900386;0.5906886000011582;0.6607383000082336;0.7908341999864206;0.9209557000140194;0.01
2;2;15;23;letter169;letter190;letter190;letter169;0;1;congruent;0.12;letter169;0.18;0.07;fullmask;0.2;arrow_left.png;down;0.6241059000021778;0.6305114999995567;257576.1072189;2.800021320581436e-06;0.5017668000073172;0.6218290000106208;0.68187339999713;0.7519020000181627;0.881986299995333;1.012088000017684;0.01
2;2;15;24;letter169;letter190;letter190;letter169;0;0;congruent;0.04;letter190;0.09;0.07;fullmask;0.2;arrow_right.png;up;0.4168459000065923;0.41993629999342375;257578.0510617;2.700020559132099e-06;0.50059570002486;0.5406378000043333;0.5906441000115592;0.6606851000105962;0.79076289999648;0.9211499000084586;0.01
2;2;15;25;letter169;letter190;letter190;letter169;0;0;incongruent;0.04;letter169;0.09;0.07;fullmask;0.2;arrow_right.png;down;0.5481474999978673;0.5506869000091683;257580.1232134;2.5999906938523054e-06;0.5045172999962233;0.5445589000009932;0.5945719000010286;0.6646159999945667;0.7946833999885712;0.9247998000064399;0.01
2;2;15;26;letter169;letter190;letter190;letter169;0;0;incongruent;0.04;letter169;0.09;0.07;fullmask;0.2;arrow_right.png;down;0.4368602999893483;0.44083349997526966;257582.083071;2.5999906938523054e-06;0.5032325999927707;0.5432514999993145;0.5932546999829356;0.6633256000059191;0.7934059999824967;0.9235135999915656;0.01
2;2;15;27;letter169;letter190;letter190;letter169;0;0;incongruent;0.04;letter169;0.09;0.07;fullmask;0.2;arrow_right.png;down;0.3229921000020113;0.3300411000091117;257583.9310664;2.5999906938523054e-06;0.5047480000066571;0.544772399996873;0.5948029999854043;0.6648331999895163;0.7949174999957904;0.925013800006127;0.01
2;2;15;28;letter169;letter190;letter190;letter169;0;0;incongruent;0.04;letter169;0.09;0.07;fullmask;0.2;arrow_right.png;down;0.6399073000065982;0.6401286000036635;257586.0992621;2.6999914553016424e-06;0.5017140999843832;0.5420355999958701;0.5918170000077225;0.6618061999906786;0.7918920000083745;0.9220159999968018;0.01
2;2;15;29;letter169;letter190;letter190;letter169;0;0;congruent;0.04;letter169;0.09;0.07;fullmask;0.2;arrow_left.png;down;0.3109016999951564;0.3202717000094708;257587.9312266;2.6999914553016424e-06;0.5046135000011418;0.5446398000058252;0.5946626999939326;0.6647028000152204;0.7947776000073645;0.924880700011272;0.01
2;2;15;30;letter169;letter190;letter190;letter169;0;0;incongruent;0.04;letter190;0.09;0.07;fullmask;0.2;arrow_left.png;up;0.2770664000126999;0.2803073000104632;257589.7390552;2.5999906938523054e-06;0.5020688999793492;0.5420910999819171;0.5921061999979429;0.6621444999764208;0.7922104999888688;0.9223214999947231;0.01
2;2;15;31;letter169;letter190;letter190;letter169;0;0;congruent;0.04;letter169;0.09;0.07;fullmask;0.2;arrow_left.png;down;0.47065679999650456;0.47087950000423007;257591.7231846;2.7999922167509794e-06;0.4951823000155855;0.5351925000140909;0.5852351000066847;0.655269800015958;0.7853543999954127;0.9154559999878984;0.01
2;2;15;32;letter169;letter190;letter190;letter169;0;0;congruent;0.04;letter190;0.09;0.07;fullmask;0.2;arrow_right.png;up;0.3925755000091158;0.3998501999885775;257593.627046;2.600019797682762e-06;0.4987944000167772;0.5388169000216294;0.5888598000165075;0.6588814000133425;0.7890169000020251;0.9190568000194617;0.01
2;2;15;33;letter169;letter190;letter190;letter169;0;1;incongruent;0.12;letter169;0.18;0.07;fullmask;0.2;arrow_right.png;down;0.36378239997429773;0.3700805999978911;257595.6190586;2.700020559132099e-06;0.5006719000230078;0.6207630000135396;0.6807472000073176;0.7508366999973077;0.8808626000245567;1.011013900017133;0.01
2;2;15;34;letter169;letter190;letter190;letter169;0;0;congruent;0.04;letter190;0.09;0.07;fullmask;0.2;arrow_right.png;up;0.2388222999870777;0.24048739997670054;257597.3951123;2.6999914553016424e-06;0.5019788999925368;0.5420204999973066;0.5920438999892212;0.6620809999876656;0.7921653999947011;0.9222499000024982;0.01
2;2;15;35;letter169;letter190;letter190;letter169;0;0;congruent;0.04;letter169;0.09;0.07;fullmask;0.2;arrow_left.png;down;0.5352343999838922;0.540479499992216;257599.4431104;2.6999914553016424e-06;0.496714000008069;0.5367052000074182;0.586750899994513;0.6567969000025187;0.7868770000059158;0.9169656000158284;0.01
2;2;15;36;letter169;letter190;letter190;letter169;0;0;incongruent;0.04;letter190;0.09;0.07;fullmask;0.2;arrow_left.png;up;0.2682478000060655;0.2701979000121355;257601.2270514;2.7999922167509794e-06;0.4981919999991078;0.5382053999928758;0.5882465000031516;0.6582738000142854;0.7883569000114221;0.9184633000113536;0.01
2;2;15;37;letter169;letter190;letter190;letter169;0;0;incongruent;0.04;letter169;0.09;0.07;fullmask;0.2;arrow_right.png;down;0.372826900013024;0.3800487999978941;257603.1230551;2.5999906938523054e-06;0.5020836000039708;0.5421228999912273;0.5921464999846648;0.662186900008237;0.7922644999925978;0.922358699986944;0.01
2;2;15;38;letter169;letter190;letter190;letter169;0;0;congruent;0.04;letter190;0.09;0.07;fullmask;0.2;arrow_right.png;up;0.3176341999787837;0.3201639000035357;257604.979095;2.7999922167509794e-06;0.49808359998860396;0.5378234999952838;0.5878414000035264;0.6578849999932572;0.7879588000068907;0.9180651000060607;0.01
2;2;15;39;letter169;letter190;letter190;letter169;0;0;incongruent;0.04;letter190;0.09;0.07;fullmask;0.2;arrow_left.png;up;0.3482975000224542;0.35000000000582077;257606.8510516;2.7999922167509794e-06;0.501905999990413;0.5419253000000026;0.5919575000007171;0.6619752999977209;0.792086700006621;0.922171200014418;0.01
2;2;15;40;letter169;letter190;letter190;letter169;0;1;incongruent;0.12;letter190;0.18;0.07;fullmask;0.2;arrow_left.png;up;0.3615719000226818;0.37106910001602955;257608.8350371;2.7999922167509794e-06;0.5055526999931317;0.6255950000195298;0.6856535999977496;0.7556749999930616;0.8857659000204876;1.0158421999949496;0.01
2;2;15;41;letter169;letter190;letter190;letter169;0;0;incongruent;0.04;letter190;0.09;0.07;fullmask;0.2;arrow_left.png;up;0.45576740000979044;0.4598202000197489;257610.8110476;2.700020559132099e-06;0.49516099999891594;0.5351836000045296;0.5851955999969505;0.6552345000091009;0.7853153000178281;0.91541430001962;0.01
2;2;15;42;letter169;letter190;letter190;letter169;0;0;incongruent;0.04;letter190;0.09;0.07;fullmask;0.2;arrow_left.png;up;0.1884933999972418;0.18941749999066815;257612.5150217;2.6999914553016424e-06;0.5003693999897223;0.5404045000032056;0.5904223999823444;0.6604532999917865;0.7905460000038147;0.920642199984286;0.01
2;2;15;43;letter169;letter190;letter190;letter169;0;0;congruent;0.04;letter190;0.09;0.07;fullmask;0.2;arrow_right.png;up;0.41378760000225157;0.41993830000865273;257614.4510832;2.6999914553016424e-06;0.5020030000014231;0.5420449000084773;0.5920523999957368;0.6621086999948602;0.7921788000094239;0.9222976000164635;0.01
2;2;15;44;letter169;letter190;letter190;letter169;0;0;incongruent;0.04;letter169;0.09;0.07;fullmask;0.2;arrow_right.png;down;0.21056060001137666;0.22033089998876676;257616.179081;2.7999922167509794e-06;0.5022066999808885;0.5422163000039291;0.5922560000035446;0.6622914999898057;0.7923674999910872;0.9224766999832354;0.01
2;2;15;45;letter169;letter190;letter190;letter169;0;0;congruent;0.04;letter190;0.09;0.07;fullmask;0.2;arrow_right.png;up;0.2773130999994464;0.28032010002061725;257617.9870341;2.600019797682762e-06;0.5018302000244148;0.5418429000128526;0.5918804000248201;0.661921999999322;0.7920168999989983;0.9220925999979954;0.01
2;2;15;46;letter169;letter190;letter190;letter169;0;0;congruent;0.04;letter169;0.09;0.07;fullmask;0.2;arrow_left.png;down;0.26053279999177903;0.2703384999767877;257619.7711826;2.500019036233425e-06;0.5036641000187956;0.5436857000167947;0.5937173000129405;0.6637658000108786;0.7938307000149507;0.923925600014627;0.01
2;2;15;47;letter169;letter190;letter190;letter169;0;0;incongruent;0.04;letter190;0.09;0.07;fullmask;0.2;arrow_left.png;up;0.21329630000400357;0.22046900002169423;257621.5150283;2.5999906938523054e-06;0.5039968999917619;0.5440120999992359;0.5940348999865819;0.6640649999899324;0.7941609999979846;0.9242576000106055;0.01
2;2;15;48;letter169;letter190;letter190;letter169;0;0;incongruent;0.04;letter169;0.09;0.07;fullmask;0.2;arrow_right.png;down;0.2557407999993302;0.26035830000182614;257623.2990772;2.6999914553016424e-06;0.5017483000119682;0.5417486999940593;0.5917824000061955;0.6621054999995977;0.7919037000101525;0.9219992999860551;0.01
2;2;15;49;letter169;letter190;letter190;letter169;0;0;congruent;0.04;letter190;0.09;0.07;fullmask;0.2;arrow_right.png;up;0.2504198999959044;0.26024259999394417;257625.0750488;2.5999906938523054e-06;0.504288500000257;0.54430759997922;0.5943470999773126;0.6643752999952994;0.7944700999942143;0.9245715999859385;0.01
2;2;15;50;letter169;letter190;letter190;letter169;0;0;congruent;0.04;letter169;0.09;0.07;fullmask;0.2;arrow_left.png;down;0.4516252000175882;0.4608273000048939;257627.067008;2.5999906938523054e-06;0.5036805999989156;0.5436832999985199;0.5937187999952585;0.66377729998203;0.7938547999947332;0.9239339999912772;0.01
2;2;15;51;letter169;letter190;letter190;letter169;0;0;incongruent;0.04;letter169;0.09;0.07;fullmask;0.2;arrow_right.png;down;0.33183749997988343;0.3400110999937169;257628.9390201;2.700020559132099e-06;0.5035238999989815;0.5435618000046816;0.5935654000204522;0.6635932000062894;0.7936901000211947;0.9237959000165574;0.01
2;2;15;52;letter169;letter190;letter190;letter169;0;0;congruent;0.04;letter169;0.09;0.07;fullmask;0.2;arrow_left.png;down;0.2149202000000514;0.22057579999091104;257630.6830185;2.7999922167509794e-06;0.5005052000051364;0.5405175999912899;0.5905716000124812;0.6605933000100777;0.7906767000094987;0.9207673000055365;0.01
2;2;16;1;letter169;letter190;letter190;letter169;0;0;incongruent;0.04;letter169;0.09;0.07;fullmask;0.2;arrow_right.png;down;0.4972243999945931;0.5007953000022098;257640.1711948;2.700020559132099e-06;0.4979738999973051;0.5377418000134639;0.5877515000174753;0.6577912000066135;0.7878750000090804;0.9179753000207711;0.01
2;2;16;2;letter169;letter190;letter190;letter169;0;0;incongruent;0.04;letter169;0.09;0.07;fullmask;0.2;arrow_right.png;down;0.2820466999837663;0.29028859999380074;257641.9870222;2.6999914553016424e-06;0.5022039000177756;0.542230599996401;0.5922629999986384;0.6623035999946296;0.7923829999926966;0.9224920000124257;0.01
2;2;16;3;letter169;letter190;letter190;letter169;0;0;congruent;0.04;letter169;0.09;0.07;fullmask;0.2;arrow_left.png;down;0.19041239999933168;0.19952660001581535;257643.7070141;2.6999914553016424e-06;0.5013347000058275;0.541364100005012;0.591417999996338;0.6614260000060312;0.7915023000095971;0.9216167000122368;0.01
2;2;16;4;letter169;letter190;letter190;letter169;0;0;incongruent;0.04;letter190;0.09;0.07;fullmask;0.2;arrow_left.png;up;0.2453310999844689;0.2502515999949537;257645.4830249;2.4999899324029684e-06;0.5035040999937337;0.5435056999849621;0.5935342999873683;0.6636121000046842;0.7936744999897201;0.9237682999810204;0.01
2;2;16;5;letter169;letter190;letter190;letter169;0;1;congruent;0.12;letter190;0.18;0.07;fullmask;0.2;arrow_right.png;up;0.4004920999868773;0.4100167999858968;257647.4993529;2.7999922167509794e-06;0.5011093999783043;0.6211905999807641;0.6811905999784358;0.7512583999778144;0.8813462999823969;1.0114289999764878;0.01
2;2;16;6;letter169;letter190;letter190;letter169;0;0;incongruent;0.04;letter169;0.09;0.07;fullmask;0.2;arrow_right.png;down;0.3654601000016555;0.37102770002093166;257649.3951569;2.6999914553016424e-06;0.5025410999951418;0.5425530999782495;0.5925923999748193;0.6626395999919623;0.7927133999764919;0.9228093999845441;0.01
2;2;16;7;letter169;letter190;letter190;letter169;0;0;incongruent;0.04;letter190;0.09;0.07;fullmask;0.2;arrow_left.png;up;0.29998699997668155;0.3001739999745041;257651.2110852;2.6999914553016424e-06;0.5037472999829333;0.543762199988123;0.5937947999918833;0.6638469999888912;0.7939195999933872;0.9240208999835886;0.01
2;2;16;8;letter169;letter190;letter190;letter169;0;0;congruent;0.04;letter190;0.09;0.07;fullmask;0.2;arrow_right.png;up;0.37695849998272024;0.3809072999865748;257653.0989969;2.600019797682762e-06;0.4976393000106327;0.537657400011085;0.5876852000073995;0.6577298000047449;0.7878070000151638;0.9178915999946184;0.01
2;2;16;9;letter169;letter190;letter190;letter169;0;0;incongruent;0.04;letter169;0.09;0.07;fullmask;0.2;arrow_right.png;down;0.2279339000233449;0.2304428000061307;257654.8509943;2.7999922167509794e-06;0.5016001999902073;0.5416190999967512;0.5916420000139624;0.6616796999878716;0.7917578000051435;0.9218722000077832;0.01
2;2;16;10;letter169;letter190;letter190;letter169;0;0;incongruent;0.04;letter190;0.09;0.07;fullmask;0.2;arrow_left.png;up;0.2069709000061266;0.21046339999884367;257656.571089;2.7999922167509794e-06;0.49730210000416264;0.537315800000215;0.5873675000038929;0.657391299988376;0.7875007000111509;0.9175818999938201;0.01
2;2;16;11;letter169;letter190;letter190;letter169;0;0;congruent;0.04;letter169;0.09;0.07;fullmask;0.2;arrow_left.png;down;0.3235368999885395;0.33013230000506155;257658.4190032;2.7999922167509794e-06;0.5047291999799199;0.5447484999895096;0.5947798999841325;0.6648157000017818;0.794894699996803;0.9249918999848887;0.01
2;2;16;12;letter169;letter190;letter190;letter169;0;0;congruent;0.04;letter169;0.09;0.07;fullmask;0.2;arrow_left.png;down;0.35812930000247434;0.3600863999745343;257660.31499;2.6999914553016424e-06;0.5052744999993593;0.5453189999971073;0.5953448000072967;0.6653851000010036;0.7954610000015236;0.9255758000072092;0.01
2;2;16;13;letter169;letter190;letter190;letter169;0;0;incongruent;0.04;letter190;0.09;0.07;fullmask;0.2;arrow_left.png;up;0.3429842999903485;0.3501009999890812;257662.1709886;2.600019797682762e-06;0.49577590002445504;0.5357919000089169;0.5858382000005804;0.6561531000188552;0.7859574000176508;0.9160703000088688;0.01
2;2;16;14;letter169;letter190;letter190;letter169;0;0;incongruent;0.04;letter169;0.09;0.07;fullmask;0.2;arrow_right.png;down;0.3380374000116717;0.34015020000515506;257664.0269856;2.700020559132099e-06;0.4964029999973718;0.5364155000133906;0.5864295000210404;0.6564818000188097;0.7865469999960624;0.9166275000025053;0.01
2;2;16;15;letter169;letter190;letter190;letter169;0;0;congruent;0.04;letter190;0.09;0.07;fullmask;0.2;arrow_right.png;up;0.23805300000822172;0.23937369999475777;257665.7790764;2.600019797682762e-06;0.500267299998086;0.5402735999959987;0.590321199997561;0.6603589000005741;0.7904255000175908;0.9205170999921393;0.01
2;2;16;16;letter169;letter190;letter190;letter169;0;0;congruent;0.04;letter169;0.09;0.07;fullmask;0.2;arrow_left.png;down;0.22376949997851625;0.23031099999207072;257667.514985;2.8999929782003164e-06;0.5014653999824077;0.5411961999780033;0.5912338999914937;0.6612813999818172;0.7913457999820821;0.9214562999841291;0.01
2;2;16;17;letter169;letter190;letter190;letter169;0;0;congruent;0.04;letter190;0.09;0.07;fullmask;0.2;arrow_right.png;up;0.3420505999820307;0.3500637999968603;257669.3950038;2.6999914553016424e-06;0.5027091999945696;0.542706400010502;0.5927606000041123;0.662777699995786;0.7928865000139922;0.9229692000080831;0.01
2;2;16;18;letter169;letter190;letter190;letter169;0;0;congruent;0.04;letter190;0.09;0.07;fullmask;0.2;arrow_right.png;up;0.37530029998742975;0.3799985999939963;257671.298981;2.6999914553016424e-06;0.5000402000150643;0.5400513999920804;0.5901082000054885;0.660124399990309;0.7902177000069059;0.9203029999916907;0.01
2;2;16;19;letter169;letter190;letter190;letter169;0;0;incongruent;0.04;letter169;0.09;0.07;fullmask;0.2;arrow_right.png;down;0.306141100008972;0.3102311000111513;257673.1310237;2.5999906938523054e-06;0.5014812999870628;0.5415117999946233;0.5915362999949139;0.6615712999773677;0.791669499973068;0.9217465999827255;0.01
2;2;16;20;letter169;letter190;letter190;letter169;0;0;congruent;0.04;letter169;0.09;0.07;fullmask;0.2;arrow_left.png;down;0.1385840000002645;0.13954750000266358;257674.794987;2.6999914553016424e-06;0.4978772999893408;0.5379084999731276;0.5879468999919482;0.6579575999930967;0.7880764000001363;0.9181524999730755;0.01
2;2;16;21;letter169;letter190;letter190;letter169;0;0;congruent;0.04;letter169;0.09;0.07;fullmask;0.2;arrow_left.png;down;0.4297136999957729;0.43976899998961017;257676.7471303;2.6999914553016424e-06;0.5023780999763403;0.5423935999860987;0.5924354000017047;0.6624800999998115;0.7925527000043076;0.9226497999916319;0.01
2;2;16;22;letter169;letter190;letter190;letter169;0;1;incongruent;0.12;letter190;0.18;0.07;fullmask;0.2;arrow_left.png;up;0.5785487999964971;0.5803745000157505;257678.9469777;2.5999906938523054e-06;0.5029535999929067;0.6230323000054341;0.6832747999869753;0.7531053999846336;0.8831710999947973;1.013281099993037;0.01
2;2;16;23;letter169;letter190;letter190;letter169;0;0;congruent;0.04;letter190;0.09;0.07;fullmask;0.2;arrow_right.png;up;0.5987618999788538;0.6004108999914024;257681.058948;2.6999914553016424e-06;0.5035955999919679;0.5436264000018127;0.593642899999395;0.6636856000113767;0.7937741999921855;0.9238692999933846;0.01
2;2;16;24;letter169;letter190;letter190;letter169;0;0;incongruent;0.04;letter169;0.09;0.07;fullmask;0.2;arrow_right.png;down;0.3195436000241898;0.3200925000128336;257682.8910741;2.700020559132099e-06;0.49627820000750944;0.5363004000100773;0.5863440000102855;0.6563709000183735;0.7864605000067968;0.9165456000191625;0.01
2;2;16;25;letter169;letter190;letter190;letter169;0;0;incongruent;0.04;letter190;0.09;0.07;fullmask;0.2;arrow_left.png;up;0.23468300001695752;0.240271999995457;257684.6669807;2.6999914553016424e-06;0.50074400001904;0.5407467000186443;0.5907802000001539;0.6608161000185646;0.7909090000030119;0.9209969000075944;0.01
2;2;16;26;letter169;letter190;letter190;letter169;0;0;congruent;0.04;letter190;0.09;0.07;fullmask;0.2;arrow_right.png;up;0.12917390000075102;0.129637800011551;257686.3230674;2.6999914553016424e-06;0.5042346999980509;0.5442579999798909;0.5942849999992177;0.6643311000079848;0.7944031000079121;0.9244689999904949;0.01
2;2;16;27;letter169;letter190;letter190;letter169;0;0;incongruent;0.04;letter190;0.09;0.07;fullmask;0.2;arrow_left.png;up;0.5081300000019837;0.5106968999898527;257688.3629839;2.900022082030773e-06;0.5045962000149302;0.5446192999952473;0.5946457000100054;0.6646870000113267;0.7947699000069406;0.9248759000038262;0.01
2;2;16;28;letter169;letter190;letter190;letter169;0;0;congruent;0.04;letter190;0.09;0.07;fullmask;0.2;arrow_right.png;up;0.501111999998102;0.5106621999875642;257690.3871929;2.7999922167509794e-06;0.5052909000078216;0.5452947000158019;0.5953200999938417;0.6653756000159774;0.7954346000042278;0.9255549999943469;0.01
2;2;16;29;letter169;letter190;letter190;letter169;0;0;congruent;0.04;letter190;0.09;0.07;fullmask;0.2;arrow_right.png;up;0.4617191000143066;0.4698932000028435;257692.3793132;2.6999914553016424e-06;0.5012089000083506;0.5412371999991592;0.5912609999941196;0.6612946999957785;0.7913752000022214;0.9214895000040997;0.01
2;2;16;30;letter169;letter190;letter190;letter169;0;1;congruent;0.12;letter169;0.18;0.07;fullmask;0.2;arrow_left.png;down;0.4119158000103198;0.41997069999342784;257694.4109645;3.0999945010989904e-06;0.5019574999751057;0.6219984999916051;0.6820238999789581;0.7520576999813784;0.8821558999770787;1.012243999983184;0.01
2;2;16;31;letter169;letter190;letter190;letter169;0;0;congruent;0.04;letter190;0.09;0.07;fullmask;0.2;arrow_right.png;up;0.36482190000242554;0.370101300009992;257696.3150155;2.6999914553016424e-06;0.4991990999842528;0.5394978999975137;0.5892689999891445;0.6592941999842878;0.7894055999931879;0.9194732999894768;0.01
2;2;16;32;letter169;letter190;letter190;letter169;0;0;incongruent;0.04;letter169;0.09;0.07;fullmask;0.2;arrow_right.png;down;0.46575779997510836;0.4708070999768097;257698.3069448;2.5999906938523054e-06;0.5035436000034679;0.5435657000052743;0.5935905999795068;0.6636349000036716;0.7940144999884069;0.9238119999936316;0.01
2;2;16;33;letter169;letter190;letter190;letter169;0;0;incongruent;0.04;letter190;0.09;0.07;fullmask;0.2;arrow_left.png;up;0.3444772999791894;0.35007829999085516;257700.1871126;2.900022082030773e-06;0.5015647000109311;0.5415846000250895;0.5916154000151437;0.6616679000144359;0.7917360000137705;0.9218202000192832;0.01
2;2;16;34;letter169;letter190;letter190;letter169;0;0;incongruent;0.04;letter169;0.09;0.07;fullmask;0.2;arrow_right.png;down;0.5556463999964762;0.5604226999857929;257702.2589597;2.8999929782003164e-06;0.49528899998404086;0.5353041999915149;0.58563139999751;0.6553743999975268;0.7854794999875594;0.915560999972513;0.01
2;2;16;35;letter169;letter190;letter190;letter169;0;0;congruent;0.04;letter190;0.09;0.07;fullmask;0.2;arrow_right.png;up;0.2922375999914948;0.3007523999840487;257704.0669721;2.7999922167509794e-06;0.5011897999793291;0.5412229999783449;0.59124409998185;0.6615716999804135;0.7913666999957059;0.9214659999997821;0.01
2;2;16;36;letter169;letter190;letter190;letter169;0;0;congruent;0.04;letter169;0.09;0.07;fullmask;0.2;arrow_left.png;down;0.3026153999962844;0.31025889999000356;257705.8989491;2.7999922167509794e-06;0.5047067000123207;0.5447314000048209;0.5947478000016417;0.6647951999912038;0.7948722000000998;0.9249739999941085;0.01
2;2;16;37;letter169;letter190;letter190;letter169;0;0;incongruent;0.04;letter190;0.09;0.07;fullmask;0.2;arrow_left.png;up;0.149463099980494;0.15950469998642802;257707.5870872;2.6999914553016424e-06;0.501909299986437;0.5419028999749571;0.5919458999997005;0.6619866999972146;0.7920693999913055;0.9221599999873433;0.01
2;2;16;38;letter169;letter190;letter190;letter169;0;0;incongruent;0.04;letter169;0.09;0.07;fullmask;0.2;arrow_right.png;down;0.2523531000188086;0.2602355999988504;257709.3709577;2.7999922167509794e-06;0.495744999992894;0.5357736000150908;0.5858106999949086;0.655841200001305;0.7859310999920126;0.9160305999976117;0.01
2;2;16;39;letter169;letter190;letter190;letter169;0;0;incongruent;0.04;letter169;0.09;0.07;fullmask;0.2;arrow_right.png;down;0.15893210002104752;0.15966150001622736;257711.0589159;2.6999914553016424e-06;0.5026188000047114;0.5426419000141323;0.592672600003425;0.6627309999894351;0.7928434000059497;0.9228944999922533;0.01
2;2;16;40;letter169;letter190;letter190;letter169;0;0;congruent;0.04;letter169;0.09;0.07;fullmask;0.2;arrow_left.png;down;0.45630680001340806;0.46068849999574013;257713.0269631;2.600019797682762e-06;0.49576320001506247;0.5357512000191491;0.5858071999973617;0.655846500012558;0.785944200004451;0.9160257000185084;0.01
2;2;16;41;letter169;letter190;letter190;letter169;0;1;incongruent;0.12;letter169;0.18;0.07;fullmask;0.2;arrow_right.png;down;0.3531559999973979;0.3599648999806959;257714.9949448;2.7999922167509794e-06;0.5019638999947347;0.6220573000027798;0.6820779000117909;0.7521155000140425;0.8821873000124469;1.0122889000049327;0.01
2;2;16;42;letter169;letter190;letter190;letter169;0;0;congruent;0.04;letter169;0.09;0.07;fullmask;0.2;arrow_left.png;down;0.2942793999973219;0.3002674999879673;257716.8269907;2.7999922167509794e-06;0.5016586999990977;0.5416488999908324;0.5917044999951031;0.6617371999891475;0.7918251999944914;0.9219321999989916;0.01
2;2;16;43;letter169;letter190;letter190;letter169;0;0;congruent;0.04;letter169;0.09;0.07;fullmask;0.2;arrow_left.png;down;0.4567390999873169;0.4606925999978557;257718.811089;2.6999914553016424e-06;0.49600699997972697;0.5360175999812782;0.5860397999931592;0.6560950999846682;0.7861592999834102;0.916272200003732;0.01
2;2;16;44;letter169;letter190;letter190;letter169;0;0;congruent;0.04;letter190;0.09;0.07;fullmask;0.2;arrow_right.png;up;0.6192167999979574;0.6204018999997061;257720.9551275;2.6999914553016424e-06;0.503704699978698;0.5437213999975938;0.593775099987397;0.6638134999957401;0.7938849999918602;0.9239764999947511;0.01
2;2;16;45;letter169;letter190;letter190;letter169;0;0;congruent;0.04;letter169;0.09;0.07;fullmask;0.2;arrow_left.png;down;0.5761803000059444;0.5805362999963108;257723.0429394;2.5999906938523054e-06;0.4979402000026312;0.537970100005623;0.5880026000086218;0.658010999992257;0.788121499994304;0.9182254000043031;0.01
2;2;16;46;letter169;letter190;letter190;letter169;0;0;incongruent;0.04;letter190;0.09;0.07;fullmask;0.2;arrow_left.png;down;1.1725353999936488;1.1807601999898907;257725.7309349;2.6999914553016424e-06;0.502179699979024;0.542204600002151;0.592222999985097;0.6622759999881964;0.7923499000025913;0.9224510999920312;0.01
2;2;16;47;letter169;letter190;letter190;letter169;0;0;incongruent;0.04;letter169;0.09;0.07;fullmask;0.2;arrow_right.png;down;0.4222810000064783;0.4298990000097547;257727.8829581;2.7999922167509794e-06;0.4967537999909837;0.5367866999877151;0.5867957999871578;0.6568243999790866;0.7869044999824837;0.917013099999167;0.01
2;2;16;48;letter169;letter190;letter190;letter169;0;0;congruent;0.04;letter190;0.09;0.07;fullmask;0.2;arrow_right.png;up;0.2456862999824807;0.2503523000050336;257729.6669352;2.500019036233425e-06;0.5052349000179674;0.5452734999998938;0.5952945000026375;0.6653164000017568;0.7954123000090476;0.9255139000015333;0.01
2;2;16;49;letter169;letter190;letter190;letter169;0;0;congruent;0.04;letter169;0.09;0.07;fullmask;0.2;arrow_left.png;down;0.06816179997986183;0.06997539999429137;257731.2509432;3.00002284348011e-06;0.49509460001718253;0.5351283000200056;0.5851396000070963;0.655192000005627;0.785262600023998;0.9153707000077702;0.01
2;2;16;50;letter169;letter190;letter190;letter169;0;0;incongruent;0.04;letter190;0.09;0.07;fullmask;0.2;arrow_left.png;up;0.4520114000188187;0.4608806000032928;257733.2351795;2.700020559132099e-06;0.4969764999987092;0.5369821000203956;0.5870216000184882;0.6570516000210773;0.7871336000098381;0.9172441000118852;0.01
2;2;16;51;letter169;letter190;letter190;letter169;0;0;incongruent;0.04;letter190;0.09;0.07;fullmask;0.2;arrow_left.png;up;0.2696583999786526;0.27020239998819306;257735.0349675;2.6999914553016424e-06;0.5062363999895751;0.5459753999894019;0.5960145000135526;0.6660378999949899;0.7961256999988109;0.9262292000057641;0.01
2;2;16;52;letter169;letter190;letter190;letter169;0;0;incongruent;0.04;letter190;0.09;0.07;fullmask;0.2;arrow_left.png;up;0.5625959000026342;0.5694196999829728;257737.1390288;2.6999914553016424e-06;0.5042683999927249;0.5442740999860689;0.5943052999791689;0.664310199994361;0.7944500999874435;0.9245262999902479;0.01
