subjnr;loop_m;blocknr;trialnr;cue_left_learn;cue_right_learn;option_up;option_down;practice;motivation; congruence;cue_dur;cue;SOA;mask_dur;mask;target_dur;target;response;RT;kb_rt;response_absolute; fix_onset;cue_onset;cue_offset;mask_onset;mask_offset;target_offset;blank_onset;frame_dur
12;1;6;1;letter190;letter169;letter190;letter169;1;0;congruent;0.12;letter190;0.14;0.07;fullmask;0.2;arrow_left.png;up;2.0440905999857932;2.0505037999828346;436901.685082;2.900022082030773e-06;0.50324809999438;0.6233208000194281;0.6433374999905936;0.7133777000126429;0.8434743999969214;0.9735570999910124;0.01
12;1;6;2;letter190;letter169;letter190;letter169;1;0;incongruent;0.12;letter169;0.14;0.07;fullmask;0.2;arrow_left.png;down;1.6377991999615915;1.6407759999856353;436904.9011865;2.600019797682762e-06;0.49558190000243485;0.6156547000282444;0.6356683000340126;0.7057216999819502;0.8357819999800995;0.965887600032147;0.01
12;1;6;3;letter190;letter169;letter190;letter169;1;0;congruent;0.12;letter190;0.14;0.07;fullmask;0.2;arrow_left.png;up;0.7704017999931239;0.7710027000284754;436907.2449459;2.700020559132099e-06;0.5050052999868058;0.625061700004153;0.6450738999992609;0.7151230000308715;0.8451892000157386;0.9753017000039108;0.01
12;1;6;4;letter190;letter169;letter190;letter169;1;0;incongruent;0.12;letter169;0.14;0.07;fullmask;0.2;arrow_left.png;down;0.822552400000859;0.8307009999989532;436909.669031;2.600019797682762e-06;0.5055155000300147;0.6255868999869563;0.6455904000322334;0.7156402000109665;0.8457289999932982;0.9758283999981359;0.01
12;1;6;5;letter190;letter169;letter190;letter169;1;0;congruent;0.12;letter169;0.14;0.07;fullmask;0.2;arrow_right.png;down;0.5344458000035957;0.5405863000196405;436911.7729338;2.800021320581436e-06;0.5019705999875441;0.622040799993556;0.6420652000233531;0.712098199990578;0.8421875000349246;0.9722693000221625;0.01
12;1;6;6;letter190;letter169;letter190;letter169;1;0;incongruent;0.12;letter190;0.14;0.07;fullmask;0.2;arrow_right.png;up;0.43407360004493967;0.4409130000276491;436913.7733328;2.700020559132099e-06;0.49621080001816154;0.6162913999869488;0.6362939000246115;0.7063205000013113;0.8364075999706984;0.9665199000155553;0.01
12;1;6;7;letter190;letter169;letter190;letter169;1;0;congruent;0.12;letter190;0.14;0.07;fullmask;0.2;arrow_left.png;up;0.5919083000044338;0.6004577999701723;436915.9330537;2.700020559132099e-06;0.4974347000243142;0.617516300000716;0.6375212999992073;0.7075571000459604;0.8376286000129767;0.9677605000324547;0.01
12;1;6;8;letter190;letter169;letter190;letter169;1;0;incongruent;0.12;letter190;0.14;0.07;fullmask;0.2;arrow_right.png;up;0.37306879996322095;0.380034199974034;436917.8850051;2.600019797682762e-06;0.4991031999816187;0.6191713000298478;0.6391869999933988;0.7092325999983586;0.8392957000178285;0.969400100002531;0.01
12;1;6;9;letter190;letter169;letter190;letter169;1;0;incongruent;0.12;letter169;0.14;0.07;fullmask;0.2;arrow_left.png;down;0.7655645999475382;0.7700626999721862;436920.2291733;2.700020559132099e-06;0.5044917000341229;0.6245610000332817;0.6445854000048712;0.7146075000055134;0.8446860000258312;0.974794700043276;0.01
12;1;6;10;letter190;letter169;letter190;letter169;1;0;congruent;0.12;letter169;0.14;0.07;fullmask;0.2;arrow_right.png;down;0.5456297000055201;0.5504506999859586;436922.3409404;2.800021320581436e-06;0.5009613000438549;0.6210331000038423;0.6410474000149406;0.7110889000468887;0.8411772000254132;0.9713044000091031;0.01
12;1;6;11;letter190;letter169;letter190;letter169;1;0;congruent;0.12;letter169;0.14;0.07;fullmask;0.2;arrow_right.png;down;0.6086470999871381;0.6103615000029095;436924.5249551;2.700020559132099e-06;0.4989161000121385;0.6189823999884538;0.6389920000219718;0.7090422000037506;0.8391136000282131;0.9692109000170603;0.01
12;1;6;12;letter190;letter169;letter190;letter169;1;0;incongruent;0.12;letter190;0.14;0.07;fullmask;0.2;arrow_right.png;up;0.41314520000014454;0.41982950002420694;436926.5009328;2.700020559132099e-06;0.5019581000087783;0.6220571000012569;0.6420564000145532;0.7120874000247568;0.8421654999838211;0.9722622000263073;0.01
12;1;7;1;letter190;letter169;letter190;letter169;0;0;congruent;0.04;letter169;0.05;0.07;fullmask;0.2;arrow_right.png;down;0.5308785000233911;0.5407088000210933;436940.0769959;2.700020559132099e-06;0.5017568000475876;0.5417777000111528;0.551779700035695;0.6218094000359997;0.7519098000484519;0.8820241000503302;0.01
12;1;7;2;letter190;letter169;letter190;letter169;0;1;incongruent;0.12;letter169;0.14;0.07;fullmask;0.2;arrow_left.png;down;0.24566949997097254;0.25025039998581633;436941.8930141;2.700020559132099e-06;0.5049601999926381;0.6250422000302933;0.6450502999941818;0.7150811000028625;0.8451670000213198;0.9752796000102535;0.01
12;1;7;3;letter190;letter169;letter190;letter169;0;0;congruent;0.04;letter190;0.05;0.07;fullmask;0.2;arrow_left.png;up;0.5220468000043184;0.5306477000121959;436943.9009242;2.600019797682762e-06;0.5005329000414349;0.5405491000274196;0.5505647000391036;0.6205653000506572;0.7506800999981351;0.88077740004519;0.01
12;1;7;4;letter190;letter169;letter190;letter169;0;0;congruent;0.04;letter169;0.05;0.07;fullmask;0.2;arrow_right.png;down;0.8226361999986693;0.8308361999806948;436946.2129162;2.600019797682762e-06;0.5021522999741137;0.5421715999837033;0.5521813000086695;0.6222103000036441;0.7524802000261843;0.8824127999832854;0.01
12;1;7;5;letter190;letter169;letter190;letter169;0;0;congruent;0.04;letter190;0.05;0.07;fullmask;0.2;arrow_left.png;up;0.4814913999871351;0.49070499994559214;436948.1728935;2.700020559132099e-06;0.49810620001517236;0.5381361999898218;0.5481465000193566;0.618164399988018;0.7482623999821953;0.8783620999893174;0.01
12;1;7;6;letter190;letter169;letter190;letter169;0;0;incongruent;0.04;letter169;0.05;0.07;fullmask;0.2;arrow_left.png;down;0.5258917000028305;0.5306444999878295;436950.188967;2.700020559132099e-06;0.5044404999935068;0.5444565999787301;0.5544688000227325;0.6245250999927521;0.7545793000026606;0.88468970003305;0.01
12;1;7;7;letter190;letter169;letter190;letter169;0;0;incongruent;0.04;letter190;0.05;0.07;fullmask;0.2;arrow_right.png;up;0.5629551000311039;0.5706410999991931;436952.2372729;2.800021320581436e-06;0.5046760000404902;0.5446924000279978;0.5546964000095613;0.6247597000328824;0.7548139000427909;0.8849379000021145;0.01
12;1;7;8;letter190;letter169;letter190;letter169;0;0;congruent;0.04;letter190;0.05;0.07;fullmask;0.2;arrow_left.png;up;0.5356701000127941;0.5405866000219248;436954.2611371;2.700020559132099e-06;0.5052951000398025;0.5453262000228278;0.5553217999986373;0.6253515999997035;0.7554368000128306;0.8855645000003278;0.01
12;1;7;9;letter190;letter169;letter190;letter169;0;0;incongruent;0.04;letter169;0.05;0.07;fullmask;0.2;arrow_left.png;down;0.5137804000405595;0.5206709000049159;436956.26091;2.4999608285725117e-06;0.5009894999675453;0.5410103999893181;0.551014699973166;0.6210480000008829;0.7511438999790698;0.8812282999861054;0.01
12;1;7;10;letter190;letter169;letter190;letter169;0;0;congruent;0.04;letter169;0.05;0.07;fullmask;0.2;arrow_right.png;up;0.5027707999688573;0.5106976000242867;436958.2609279;2.600019797682762e-06;0.503947600023821;0.543969799997285;0.553986300015822;0.6240211999975145;0.7540931000257842;0.884196900005918;0.01
12;1;7;11;letter190;letter169;letter190;letter169;0;0;incongruent;0.04;letter190;0.05;0.07;fullmask;0.2;arrow_right.png;down;0.5888518000137992;0.5905125000281259;436960.5488947;2.700020559132099e-06;0.5056263000005856;0.5456397000234574;0.555631400027778;0.6256905000191182;0.7557763000368141;0.8858796000131406;0.01
12;1;7;12;letter190;letter169;letter190;letter169;0;0;incongruent;0.04;letter190;0.05;0.07;fullmask;0.2;arrow_right.png;up;1.0057783999945968;1.0103432000032626;436963.2372079;2.600019797682762e-06;0.5053865000372753;0.5453847000026144;0.5553914000047371;0.6254486000398174;0.7555045000044629;0.8856216000276618;0.01
12;1;7;13;letter190;letter169;letter190;letter169;0;0;incongruent;0.04;letter169;0.05;0.07;fullmask;0.2;arrow_left.png;down;0.8744698999798857;0.8808082999894395;436965.5969885;2.5999615900218487e-06;0.5023982999846339;0.5424519999651238;0.5524328000028618;0.6224728999659419;0.7525554999592714;0.8826611999538727;0.01
12;1;7;14;letter190;letter169;letter190;letter169;0;0;congruent;0.04;letter169;0.05;0.07;fullmask;0.2;arrow_right.png;down;0.6427818000083789;0.6501851999782957;436967.716909;2.700020559132099e-06;0.49596550001297146;0.5359884000499733;0.5459665000089444;0.6160112000070512;0.7461003000498749;0.8762117000296712;0.01
12;1;7;15;letter190;letter169;letter190;letter169;0;0;congruent;0.04;letter190;0.05;0.07;fullmask;0.2;arrow_left.png;up;0.8871068999869749;0.8906831999775022;436970.0930922;2.700020559132099e-06;0.5006158999749459;0.5406487999716774;0.5506395999691449;0.6206869999878109;0.7507558999932371;0.8808733000187203;0.01
12;1;7;16;letter190;letter169;letter190;letter169;0;0;incongruent;0.04;letter190;0.05;0.07;fullmask;0.2;arrow_right.png;down;0.5638863000203855;0.5703232000232674;436972.1409001;2.900022082030773e-06;0.5018619999755174;0.5418846000102349;0.5518887999933213;0.6219293000176549;0.7520075999782421;0.8821177000063471;0.01
12;1;7;17;letter190;letter169;letter190;letter169;0;0;congruent;0.04;letter169;0.05;0.07;fullmask;0.2;arrow_right.png;down;0.7760279000503942;0.779838300019037;436974.6049293;2.700020559132099e-06;0.5033194000134245;0.5433468000264838;0.5533401999855414;0.6234053000225686;0.753455700003542;0.8835721000214107;0.01
12;1;7;18;letter190;letter169;letter190;letter169;0;0;incongruent;0.04;letter169;0.05;0.07;fullmask;0.2;arrow_left.png;down;0.9409020999446511;0.950479399994947;436977.0209417;2.5999615900218487e-06;0.4970348000060767;0.5370165999629535;0.5470160999684595;0.6170509000075981;0.7471474999911152;0.877239900000859;0.01
12;1;7;19;letter190;letter169;letter190;letter169;0;1;congruent;0.12;letter190;0.14;0.07;fullmask;0.2;arrow_left.png;up;0.6513750999583863;0.6601571999490261;436979.2529946;2.700020559132099e-06;0.5007344000041485;0.6208078000345267;0.6408213000395335;0.7108684999984689;0.8409519999986514;0.9710400000330992;0.01
12;1;7;20;letter190;letter169;letter190;letter169;0;0;congruent;0.04;letter169;0.05;0.07;fullmask;0.2;arrow_right.png;down;0.6538716000504792;0.6604101000120863;436981.3972027;2.600019797682762e-06;0.4968802000512369;0.5368942000204697;0.546869300014805;0.6169200000003912;0.7469959000009112;0.8771117000142112;0.01
12;1;7;21;letter190;letter169;letter190;letter169;0;0;incongruent;0.04;letter190;0.05;0.07;fullmask;0.2;arrow_right.png;down;0.7664456000202335;0.7710017000208609;436983.6609011;2.8999638743698597e-06;0.5030711999861524;0.5430837000021711;0.5531174999778159;0.6231435000081547;0.7532225999748334;0.8833289999747649;0.01
12;1;7;22;letter190;letter169;letter190;letter169;0;0;incongruent;0.04;letter169;0.05;0.07;fullmask;0.2;arrow_left.png;down;0.9769960999838077;0.9813921999884769;436986.3328919;2.8999638743698597e-06;0.5018070999649353;0.5418199999839999;0.551836300001014;0.6218599999556318;0.7519599999650382;0.8820400999975391;0.01
12;1;7;23;letter190;letter169;letter190;letter169;0;0;congruent;0.04;letter190;0.05;0.07;fullmask;0.2;arrow_left.png;down;1.3146577999577858;1.3205316999810748;436989.1328862;3.100023604929447e-06;0.49915860005421564;0.5391681000473909;0.5491801000316627;0.6192083000205457;0.7493081000284292;0.8793854000396095;0.01
12;1;7;24;letter190;letter169;letter190;letter169;0;0;incongruent;0.04;letter169;0.05;0.07;fullmask;0.2;arrow_left.png;down;1.0955187000217848;1.1012188000022434;436991.9251382;2.700020559132099e-06;0.5012608999968506;0.5412790999980643;0.5513011000002734;0.6213203999795951;0.7514387000119314;0.881485000019893;0.01
12;1;7;25;letter190;letter169;letter190;letter169;0;0;incongruent;0.04;letter190;0.05;0.07;fullmask;0.2;arrow_right.png;up;0.7998239999869838;0.8009214000194333;436994.2210045;2.800021320581436e-06;0.5015904000028968;0.5416079999995418;0.5516148000024259;0.6216480000293814;0.7517476000357419;0.8818295000237413;0.01
12;1;7;26;letter190;letter169;letter190;letter169;0;0;congruent;0.04;letter190;0.05;0.07;fullmask;0.2;arrow_left.png;down;0.6763203000300564;0.6801959000295028;436996.3889587;2.600019797682762e-06;0.5016432999982499;0.5416591999819502;0.551695300033316;0.6217084000236355;0.7518187999958172;0.88189419999253;0.01
12;1;7;27;letter190;letter169;letter190;letter169;0;0;congruent;0.04;letter190;0.05;0.07;fullmask;0.2;arrow_left.png;down;0.9608981999917887;0.9705544000025839;436999.0452307;2.600019797682762e-06;0.5053823000052944;0.5453999000019394;0.5554184000357054;0.62544740003068;0.7555312000331469;0.8856265000067651;0.01
12;1;7;28;letter190;letter169;letter190;letter169;0;0;congruent;0.04;letter190;0.05;0.07;fullmask;0.2;arrow_left.png;up;0.7728224999736995;0.7809616000158712;437001.508888;2.800021320581436e-06;0.5039429000462405;0.5439612000482157;0.5539990000543185;0.6240005000145175;0.7540949000394903;0.8841933000367135;0.01
12;1;7;29;letter190;letter169;letter190;letter169;0;0;congruent;0.04;letter169;0.05;0.07;fullmask;0.2;arrow_right.png;down;0.591843499976676;0.6004562000161968;437003.5889861;2.700020559132099e-06;0.4993280000053346;0.5393140999949537;0.5493268999853171;0.619357299990952;0.7494479999877512;0.8795391999883577;0.01
12;1;7;30;letter190;letter169;letter190;letter169;0;0;incongruent;0.04;letter190;0.05;0.07;fullmask;0.2;arrow_right.png;up;1.1796412000549026;1.1809956000070088;437006.2689231;2.700020559132099e-06;0.5038773000123911;0.5439009999972768;0.553895500022918;0.6239342999760993;0.7540123999933712;0.8841179999872111;0.01
12;1;7;31;letter190;letter169;letter190;letter169;0;0;incongruent;0.04;letter169;0.05;0.07;fullmask;0.2;arrow_left.png;down;1.1585476999753155;1.160818799980916;437008.9088683;2.800021320581436e-06;0.502481599978637;0.5425077999825589;0.55250160000287;0.6225551000097767;0.7526198999839835;0.8827254999778233;0.01
12;1;7;32;letter190;letter169;letter190;letter169;0;0;congruent;0.04;letter190;0.05;0.07;fullmask;0.2;arrow_left.png;down;1.172001899976749;1.180796000000555;437011.5648594;2.800021320581436e-06;0.5023957000230439;0.5424159999820404;0.5524275000207126;0.622479600016959;0.7525493999710307;0.8826377000077628;0.01
12;1;7;33;letter190;letter169;letter190;letter169;0;0;incongruent;0.04;letter190;0.05;0.07;fullmask;0.2;arrow_right.png;up;0.7910216000163928;0.8009210000163876;437014.0449516;2.600019797682762e-06;0.4977035000338219;0.5377184000099078;0.5477399000083096;0.6177758000558242;0.7478743000538088;0.8779558000387624;0.01
12;1;7;34;letter190;letter169;letter190;letter169;0;0;incongruent;0.04;letter169;0.05;0.07;fullmask;0.2;arrow_left.png;down;0.6056997000123374;0.6112888000207022;437016.1409681;2.700020559132099e-06;0.5036670000408776;0.5436806000070646;0.5536826000316069;0.6237211000407115;0.7538053999887779;0.88392669998575;0.01
12;1;7;35;letter190;letter169;letter190;letter169;0;0;incongruent;0.04;letter169;0.05;0.07;fullmask;0.2;arrow_left.png;down;0.8657062000129372;0.8708186000003479;437018.4931054;2.700020559132099e-06;0.5007990000303835;0.5408121999935247;0.5508334999904037;0.620853700034786;0.7509450000361539;0.8810449999873526;0.01
12;1;7;36;letter190;letter169;letter190;letter169;0;0;congruent;0.04;letter169;0.05;0.07;fullmask;0.2;arrow_right.png;down;1.0819467999972403;1.0902328000520356;437021.0609522;2.6999623514711857e-06;0.5025466999504715;0.5425696999882348;0.5525812999694608;0.6226048999815248;0.752690099994652;0.8827909999527037;0.01
12;1;7;37;letter190;letter169;letter190;letter169;0;0;congruent;0.04;letter169;0.05;0.07;fullmask;0.2;arrow_right.png;down;0.8140032000374049;0.8198726000264287;437023.364904;3.00002284348011e-06;0.5009997999877669;0.5410131000098772;0.5510189000051469;0.6210448000347242;0.7511270000250079;0.8812347000348382;0.01
12;1;7;38;letter190;letter169;letter190;letter169;0;0;incongruent;0.04;letter190;0.05;0.07;fullmask;0.2;arrow_right.png;up;1.4412993000005372;1.4511713999672793;437026.292933;2.700020559132099e-06;0.504608100047335;0.5446431000018492;0.5546454000286758;0.6246619000448845;0.7547620999976061;0.8848608999978751;0.01
12;1;7;39;letter190;letter169;letter190;letter169;0;1;incongruent;0.12;letter190;0.14;0.07;fullmask;0.2;arrow_right.png;up;1.4029697999940254;1.4102923999889754;437029.2768767;2.700020559132099e-06;0.5001796000287868;0.6202548000146635;0.6402649000519887;0.7103029999998398;0.8403899000259116;0.9705026000156067;0.01
12;1;7;40;letter190;letter169;letter190;letter169;0;0;incongruent;0.04;letter190;0.05;0.07;fullmask;0.2;arrow_right.png;up;1.2558593999710865;1.2617795999976806;437032.0210659;2.6999623514711857e-06;0.49596799997380003;0.5359942999784835;0.5459912999649532;0.6160452999756671;0.7460971999680623;0.8762245999532752;0.01
12;1;7;41;letter190;letter169;letter190;letter169;0;0;incongruent;0.04;letter169;0.05;0.07;fullmask;0.2;arrow_left.png;down;1.2150308000273071;1.2207996000070125;437034.7328787;2.700020559132099e-06;0.5051431999891065;0.5451660999679007;0.5551616000011563;0.6252018999657594;0.7552905000047758;0.8853905000141822;0.01
12;1;7;42;letter190;letter169;letter190;letter169;0;0;congruent;0.04;letter190;0.05;0.07;fullmask;0.2;arrow_left.png;up;1.0101037999847904;1.011320199992042;437037.2289065;2.4999608285725117e-06;0.5026416999753565;0.5426717999507673;0.5526664999779314;0.6227035999763757;0.7527890999917872;0.8828942999825813;0.01
12;1;7;43;letter190;letter169;letter190;letter169;0;0;incongruent;0.04;letter169;0.05;0.07;fullmask;0.2;arrow_left.png;down;1.1619926000130363;1.1704134999890812;437039.8929356;2.6999623514711857e-06;0.503536099975463;0.5435706999851391;0.5535596999689005;0.6236022000084631;0.7536931000067852;0.8838093999656849;0.01
12;1;7;44;letter190;letter169;letter190;letter169;0;0;incongruent;0.04;letter190;0.05;0.07;fullmask;0.2;arrow_right.png;up;0.9840289000421762;0.9904117000405677;437042.3569086;2.7999631129205227e-06;0.4961007999954745;0.536117399984505;0.5461307999794371;0.6161585999652743;0.7462472000042908;0.8763450999977067;0.01
12;1;7;45;letter190;letter169;letter190;letter169;0;0;congruent;0.04;letter169;0.05;0.07;fullmask;0.2;arrow_right.png;down;0.8647634999942966;0.87059780000709;437044.7088556;2.700020559132099e-06;0.5021933999960311;0.542209500039462;0.5522189000039361;0.6222437000251375;0.7523545000003651;0.8824329000199214;0.01
12;1;7;46;letter190;letter169;letter190;letter169;0;1;congruent;0.12;letter169;0.14;0.07;fullmask;0.2;arrow_right.png;down;1.2070448000449687;1.2108913999982178;437047.4931611;2.600019797682762e-06;0.5047221999848261;0.624798099976033;0.6448092000209726;0.7148471999680623;0.8449304000241682;0.9750348000088707;0.01
12;1;7;47;letter190;letter169;letter190;letter169;0;0;congruent;0.04;letter169;0.05;0.07;fullmask;0.2;arrow_right.png;down;1.1890045999898575;1.1908794000046328;437050.1567752;2.700020559132099e-06;0.501427799987141;0.5414461999898776;0.5514700000057928;0.6214944000239484;0.751551199995447;0.8816716999863274;0.01
12;1;7;48;letter190;letter169;letter190;letter169;0;0;congruent;0.04;letter169;0.05;0.07;fullmask;0.2;arrow_right.png;down;1.0474800000083633;1.0501151999924332;437052.6768738;2.6999623514711857e-06;0.4966685000108555;0.5366808999679051;0.5467142999987118;0.6167283999966457;0.7468206000048667;0.8769029999966733;0.01
12;1;7;49;letter190;letter169;letter190;letter169;0;0;incongruent;0.04;letter190;0.05;0.07;fullmask;0.2;arrow_right.png;up;1.046104800014291;1.050261700002011;437055.1968734;2.700020559132099e-06;0.4945674000191502;0.5345961000421084;0.5446203000028618;0.6146289000171237;0.7447257000021636;0.8748198000248522;0.01
12;1;7;50;letter190;letter169;letter190;letter169;0;0;incongruent;0.04;letter169;0.05;0.07;fullmask;0.2;arrow_left.png;down;1.1160381000372581;1.1199275000253692;437057.7888363;2.700020559132099e-06;0.4983797000022605;0.5384169000317343;0.548409300041385;0.618441200000234;0.7485444000340067;0.8786318000056781;0.01
12;1;7;51;letter190;letter169;letter190;letter169;0;0;congruent;0.04;letter190;0.05;0.07;fullmask;0.2;arrow_left.png;up;0.9707526999991387;0.9804685999988578;437060.2448253;2.700020559132099e-06;0.498991800006479;0.5390347000211477;0.549034500028938;0.6190596999949776;0.749158599996008;0.8792519000126049;0.01
12;1;7;52;letter190;letter169;letter190;letter169;0;0;congruent;0.04;letter190;0.05;0.07;fullmask;0.2;arrow_left.png;up;1.331929299980402;1.341571600001771;437063.0771753;2.8999638743698597e-06;0.5034365999745205;0.5434632999822497;0.5534634999930859;0.623491499980446;0.7535761999897659;0.8836808999767527;0.01
12;1;8;1;letter190;letter169;letter190;letter169;0;0;congruent;0.04;letter169;0.05;0.07;fullmask;0.2;arrow_right.png;up;1.0418886999832466;1.051239499996882;437124.0769626;2.800021320581436e-06;0.496973600005731;0.5369827999966219;0.5469964999938384;0.6170268999994732;0.7471110000042245;0.8772363000316545;0.01
12;1;8;2;letter190;letter169;letter190;letter169;0;0;congruent;0.04;letter169;0.05;0.07;fullmask;0.2;arrow_right.png;down;0.5160401999601163;0.5207230999949388;437126.2930356;2.700020559132099e-06;0.5036585000343621;0.543675200024154;0.5536853999947198;0.6237129000364803;0.7538102000253275;0.883899400010705;0.01
12;1;8;3;letter190;letter169;letter190;letter169;0;0;congruent;0.04;letter190;0.05;0.07;fullmask;0.2;arrow_left.png;down;1.0099063999950886;1.0101215999457054;437128.788897;2.6999623514711857e-06;0.5010811999673024;0.5410993999685161;0.5511142999748699;0.6211289999773726;0.751229899993632;0.8813208999927156;0.01
12;1;8;4;letter190;letter169;letter190;letter169;0;0;incongruent;0.04;letter169;0.05;0.07;fullmask;0.2;arrow_left.png;down;0.6081202999921516;0.6102899999823421;437131.0688169;2.6999623514711857e-06;0.4982653000042774;0.5382855999632739;0.5482955999905244;0.6183313999790698;0.7484073999803513;0.8785247000050731;0.01
12;1;8;5;letter190;letter169;letter190;letter169;0;0;congruent;0.04;letter190;0.05;0.07;fullmask;0.2;arrow_left.png;down;0.6991375999641605;0.7002828999538906;437133.2609148;2.500019036233425e-06;0.5052597000030801;0.5452909999876283;0.5552984999958426;0.6253276999923401;0.7554110999917611;0.8855300000286661;0.01
12;1;8;6;letter190;letter169;letter190;letter169;0;0;congruent;0.04;letter169;0.05;0.07;fullmask;0.2;arrow_right.png;down;0.3993226000457071;0.39983390003908426;437135.332822;2.5999615900218487e-06;0.49607160000596195;0.5360698999720626;0.5460797999985516;0.6161193000152707;0.7461977999773808;0.8762972999829799;0.01
12;1;8;7;letter190;letter169;letter190;letter169;0;0;incongruent;0.04;letter190;0.05;0.07;fullmask;0.2;arrow_right.png;up;0.9621885999804363;0.9703929999959655;437137.7968683;2.4999608285725117e-06;0.49707099999068305;0.5370688999537379;0.5470997999655083;0.6171092999866232;0.7472274999599904;0.8772949999547563;0.01
12;1;8;8;letter190;letter169;letter190;letter169;0;1;incongruent;0.12;letter190;0.14;0.07;fullmask;0.2;arrow_right.png;up;0.45316619996447116;0.46078349999152124;437139.8290333;2.7999631129205227e-06;0.5032293999684043;0.6233023999957368;0.643309400009457;0.7133569999714382;0.8434327999711968;0.9735305999638513;0.01
12;1;8;9;letter190;letter169;letter190;letter169;0;0;incongruent;0.04;letter169;0.05;0.07;fullmask;0.2;arrow_left.png;down;0.5492529000039212;0.5504468999570236;437141.8768448;2.700020559132099e-06;0.5048317000037059;0.5448504000087269;0.5548468999913894;0.6248832999845035;0.754972499969881;0.8850853000185452;0.01
12;1;8;10;letter190;letter169;letter190;letter169;0;0;incongruent;0.04;letter169;0.05;0.07;fullmask;0.2;arrow_left.png;down;0.6224740999750793;0.6303860999760218;437143.9808208;2.6999623514711857e-06;0.4978537999559194;0.5379033999633975;0.5478741999831982;0.6179221999482252;0.7479955999879166;0.8781071999692358;0.01
12;1;8;11;letter190;letter169;letter190;letter169;0;0;incongruent;0.04;letter190;0.05;0.07;fullmask;0.2;arrow_right.png;up;0.4690526000340469;0.4708076000097208;437145.9489074;2.6999623514711857e-06;0.5000100999604911;0.5400369999697432;0.5500488000106998;0.6200663999770768;0.7501424999791197;0.8802583999931812;0.01
12;1;8;12;letter190;letter169;letter190;letter169;0;0;congruent;0.04;letter190;0.05;0.07;fullmask;0.2;arrow_left.png;up;0.4455896000145003;0.44986019999487326;437147.8768299;2.700020559132099e-06;0.4969662000075914;0.5369927000137977;0.5469977000029758;0.6170332000474446;0.7471213000244461;0.8772164999973029;0.01
12;1;8;13;letter190;letter169;letter190;letter169;0;0;incongruent;0.04;letter169;0.05;0.07;fullmask;0.2;arrow_left.png;down;0.354217600019183;0.3599602000322193;437149.7168321;2.700020559132099e-06;0.5047565000131726;0.5447762000258081;0.5547887000138871;0.62481619999744;0.7549073999980465;0.8849941000225954;0.01
12;1;8;14;letter190;letter169;letter190;letter169;0;0;incongruent;0.04;letter169;0.05;0.07;fullmask;0.2;arrow_left.png;down;0.5615512999938801;0.5703899000072852;437151.7648075;2.800021320581436e-06;0.5040338999824598;0.5440760999917984;0.5540504999808036;0.6240913000074215;0.7541744000045583;0.8842690999736078;0.01
12;1;8;15;letter190;letter169;letter190;letter169;0;0;congruent;0.04;letter190;0.05;0.07;fullmask;0.2;arrow_left.png;up;0.6957010999904014;0.7000906000030227;437153.9408294;2.700020559132099e-06;0.496050700021442;0.5360746000078507;0.5460912000271492;0.6161271000164561;0.746178500005044;0.8762858000118285;0.01
12;1;8;16;letter190;letter169;letter190;letter169;0;0;congruent;0.04;letter190;0.05;0.07;fullmask;0.2;arrow_left.png;up;0.5601906999945641;0.570565500005614;437155.9970736;2.700020559132099e-06;0.49962140002753586;0.5396536000189371;0.5496409999905154;0.6196869999985211;0.749769100046251;0.8798785000108182;0.01
12;1;8;17;letter190;letter169;letter190;letter169;0;1;congruent;0.12;letter169;0.14;0.07;fullmask;0.2;arrow_right.png;down;0.8927890000049956;0.9005137999774888;437158.4608311;2.700020559132099e-06;0.4949919999926351;0.6150637000100687;0.6350673999986611;0.7050977000035346;0.835178499983158;0.9652926999842748;0.01
12;1;8;18;letter190;letter169;letter190;letter169;0;0;congruent;0.04;letter169;0.05;0.07;fullmask;0.2;arrow_right.png;up;1.3497422999935225;1.3513099999981932;437161.3088669;2.600019797682762e-06;0.5038102000253275;0.543818200007081;0.5538416000199504;0.623853400000371;0.7539654999854974;0.8840416999883018;0.01
12;1;8;19;letter190;letter169;letter190;letter169;0;0;congruent;0.04;letter190;0.05;0.07;fullmask;0.2;arrow_left.png;down;0.7251496999524534;0.7301037999568507;437163.7170035;2.800021320581436e-06;0.4959030000027269;0.5359374000108801;0.5459474999806844;0.6159722000011243;0.7460758999804966;0.8761657000286505;0.01
12;1;8;20;letter190;letter169;letter190;letter169;0;0;incongruent;0.04;letter169;0.05;0.07;fullmask;0.2;arrow_left.png;down;0.7839912000345066;0.790809000027366;437166.1968056;2.900022082030773e-06;0.5027255999739282;0.5427424000226893;0.5527357999817468;0.6227747999946587;0.7528477999730967;0.8829585000057705;0.01
12;1;8;21;letter190;letter169;letter190;letter169;0;0;incongruent;0.04;letter190;0.05;0.07;fullmask;0.2;arrow_right.png;down;1.2983482000418007;1.3003278000396676;437168.9727893;2.6999623514711857e-06;0.5002598999999464;0.5402765999897383;0.5502980999881402;0.6203124999883585;0.7504288999480195;0.880498299957253;0.01
12;1;8;22;letter190;letter169;letter190;letter169;0;0;congruent;0.04;letter169;0.05;0.07;fullmask;0.2;arrow_right.png;down;0.5728541000280529;0.5804970000172034;437171.2290805;2.500019036233425e-06;0.5040187000413425;0.5440400000079535;0.5540391000104137;0.6240713000297546;0.7541612000204623;0.8842906000209041;0.01
12;1;8;23;letter190;letter169;letter190;letter169;0;0;congruent;0.04;letter190;0.05;0.07;fullmask;0.2;arrow_left.png;down;1.1275093000149354;1.1309975000331178;437173.8448129;2.600019797682762e-06;0.5009094999986701;0.5409289000090212;0.5509441000176594;0.6209733000141568;0.7510635000071488;0.8811545000062324;0.01
12;1;8;24;letter190;letter169;letter190;letter169;0;0;congruent;0.04;letter169;0.05;0.07;fullmask;0.2;arrow_right.png;down;0.5891358999651857;0.5903427999583073;437176.1088697;2.600019797682762e-06;0.5042966000037268;0.5443151000072248;0.5543176999781281;0.6243583000032231;0.7544351000105962;0.8845450999797322;0.01
12;1;8;25;letter190;letter169;letter190;letter169;0;0;incongruent;0.04;letter190;0.05;0.07;fullmask;0.2;arrow_right.png;up;0.5979045999702066;0.6005717999651097;437178.1889499;4.399975296109915e-06;0.4967579999938607;0.5367744999821298;0.5467841000063345;0.6168132000020705;0.7468991000205278;0.8770007999846712;0.01
12;1;8;26;letter190;letter169;letter190;letter169;0;0;incongruent;0.04;letter190;0.05;0.07;fullmask;0.2;arrow_right.png;up;0.7342408999684267;0.7400245000026189;437180.3968237;2.700020559132099e-06;0.4974046000279486;0.5374281000113115;0.5474235999863595;0.6174713000073098;0.7475417000241578;0.8776400000206195;0.01
12;1;8;27;letter190;letter169;letter190;letter169;0;1;congruent;0.12;letter190;0.14;0.07;fullmask;0.2;arrow_left.png;up;0.8149766999995336;0.8207233000430278;437182.7888612;2.8999638743698597e-06;0.502198199974373;0.6222588999662548;0.6425979999476112;0.7123422999866307;0.8423983999527991;0.9724983999622054;0.01
12;1;8;28;letter190;letter169;letter190;letter169;0;0;incongruent;0.04;letter190;0.05;0.07;fullmask;0.2;arrow_right.png;up;0.8981680999859236;0.901509299990721;437185.17285;2.4999608285725117e-06;0.5017617999692447;0.54177820001496;0.5517872999771498;0.6218347999965772;0.7519141999655403;0.881992699985858;0.01
12;1;8;29;letter190;letter169;letter190;letter169;0;0;congruent;0.04;letter169;0.05;0.07;fullmask;0.2;arrow_right.png;down;0.9618713000090793;0.9704824999789707;437187.6287788;2.600019797682762e-06;0.5057022999972105;0.5457316000247374;0.5557475999812596;0.6257739000138827;0.7558671000297181;0.885955500009004;0.01
12;1;8;30;letter190;letter169;letter190;letter169;0;0;congruent;0.04;letter190;0.05;0.07;fullmask;0.2;arrow_left.png;up;0.7360752000240609;0.7399558000033721;437189.8447676;2.600019797682762e-06;0.5022356000263244;0.5422596000134945;0.5522628999897279;0.622309900005348;0.7523909999872558;0.8824884000350721;0.01
12;1;8;31;letter190;letter169;letter190;letter169;0;0;incongruent;0.04;letter169;0.05;0.07;fullmask;0.2;arrow_left.png;down;0.7226674999692477;0.7299676999682561;437192.0528211;2.700020559132099e-06;0.5046412000083365;0.5446543000289239;0.5546672000200488;0.6247101000044495;0.7547852999996394;0.884884700004477;0.01
12;1;8;32;letter190;letter169;letter190;letter169;0;0;incongruent;0.04;letter190;0.05;0.07;fullmask;0.2;arrow_right.png;up;0.6557829999946989;0.6602975000278093;437194.1967174;2.800021320581436e-06;0.5024395000073127;0.5424556999932975;0.5524659000220709;0.62249849998625;0.7525786000187509;0.8826680000056513;0.01
12;1;8;33;letter190;letter169;letter190;letter169;0;0;incongruent;0.04;letter190;0.05;0.07;fullmask;0.2;arrow_right.png;up;0.8500858999905176;0.8506937999627553;437196.5328715;2.700020559132099e-06;0.5004261000431143;0.5404381000553258;0.5504369000555016;0.6204859000281431;0.7505469000316225;0.8806735000107437;0.01
12;1;8;34;letter190;letter169;letter190;letter169;0;0;congruent;0.04;letter169;0.05;0.07;fullmask;0.2;arrow_right.png;down;0.6070744000026025;0.6102991999941878;437198.6207114;2.700020559132099e-06;0.4954182999790646;0.5354235999984667;0.5454381000017747;0.615476300008595;0.7455589000019245;0.8756607000250369;0.01
12;1;8;35;letter190;letter169;letter190;letter169;0;0;incongruent;0.04;letter169;0.05;0.07;fullmask;0.2;arrow_left.png;down;0.6052910999860615;0.610293100005947;437200.7007086;2.7999631129205227e-06;0.49603619996923953;0.5360499999951571;0.546052299963776;0.616095100005623;0.74617960001342;0.8762933000107296;0.01
12;1;8;36;letter190;letter169;letter190;letter169;0;0;incongruent;0.04;letter169;0.05;0.07;fullmask;0.2;arrow_left.png;down;0.8259981999872252;0.8308033000212163;437203.0129258;2.700020559132099e-06;0.5039095000247471;0.5439245000015944;0.5539336000219919;0.6239789000246674;0.7540746000013314;0.8841551000368781;0.01
12;1;8;37;letter190;letter169;letter190;letter169;0;0;congruent;0.04;letter169;0.05;0.07;fullmask;0.2;arrow_right.png;down;0.7409417000017129;0.7510083999950439;437205.2290797;2.6999623514711857e-06;0.4971835999749601;0.5372254999820143;0.5472053000121377;0.6172643000027165;0.7473294999799691;0.8774344999692403;0.01
12;1;8;38;letter190;letter169;letter190;letter169;0;0;congruent;0.04;letter190;0.05;0.07;fullmask;0.2;arrow_left.png;up;0.6788397000054829;0.6802448999951594;437207.3886819;2.600019797682762e-06;0.4971561999991536;0.5371994000161067;0.5471879999968223;0.6172165999887511;0.7473047999665141;0.8773992999922484;0.01
12;1;8;39;letter190;letter169;letter190;letter169;0;0;incongruent;0.04;letter190;0.05;0.07;fullmask;0.2;arrow_right.png;up;0.7559026000089943;0.760982200037688;437209.6367177;2.700020559132099e-06;0.5052420999854803;0.5452603999874555;0.5552610000013374;0.6252935000229627;0.755385699972976;0.885481700010132;0.01
12;1;8;40;letter190;letter169;letter190;letter169;0;0;congruent;0.04;letter190;0.05;0.07;fullmask;0.2;arrow_left.png;up;0.7086509999935515;0.711251100001391;437211.8210024;2.7999631129205227e-06;0.4966712999739684;0.536690799985081;0.5467019999632612;0.6167573999846354;0.7468160999706015;0.8769195999484509;0.01
12;1;8;41;letter190;letter169;letter190;letter169;0;0;incongruent;0.04;letter169;0.05;0.07;fullmask;0.2;arrow_left.png;down;0.6287670999881811;0.6302293999469839;437213.932793;2.700020559132099e-06;0.503976900014095;0.5440353999729268;0.5540020000189543;0.6240465000155382;0.7541234000236727;0.8842330999905244;0.01
12;1;8;42;letter190;letter169;letter190;letter169;0;0;incongruent;0.04;letter190;0.05;0.07;fullmask;0.2;arrow_right.png;up;0.7338582000229508;0.7409854999859817;437216.1487521;2.700020559132099e-06;0.5023363000364043;0.5423716999939643;0.5523506000172347;0.6223798000137322;0.7524726000265218;0.8825829999987036;0.01
12;1;8;43;letter190;letter169;letter190;letter169;0;1;incongruent;0.12;letter169;0.14;0.07;fullmask;0.2;arrow_left.png;down;0.8381334000150673;0.8406697000027634;437218.5647005;2.900022082030773e-06;0.5044333999976516;0.6244909000233747;0.6445032000192441;0.7145504000363871;0.8446170000243001;0.9747289000079036;0.01
12;1;8;44;letter190;letter169;letter190;letter169;0;0;congruent;0.04;letter190;0.05;0.07;fullmask;0.2;arrow_left.png;up;0.8041424000402912;0.8098434000276029;437220.8530471;2.6999623514711857e-06;0.5006618999759667;0.5406836000038311;0.5506864999770187;0.6207257999922149;0.7508123999577947;0.8809298999840394;0.01
12;1;8;45;letter190;letter169;letter190;letter169;0;0;congruent;0.04;letter169;0.05;0.07;fullmask;0.2;arrow_right.png;down;0.7785357999964617;0.7798376000137068;437223.1087832;2.800021320581436e-06;0.49957480002194643;0.5396025000372902;0.5496011000359431;0.6196343000046909;0.7497259000083432;0.8798221000470221;0.01
12;1;8;46;letter190;letter169;letter190;letter169;0;0;incongruent;0.04;letter169;0.05;0.07;fullmask;0.2;arrow_left.png;down;0.8476055000210181;0.8505615000030957;437225.4287573;3.00002284348011e-06;0.5021483000018634;0.542171600041911;0.552189800015185;0.6222226000390947;0.7523044000263326;0.8824030000250787;0.01
12;1;8;47;letter190;letter169;letter190;letter169;0;0;congruent;0.04;letter169;0.05;0.07;fullmask;0.2;arrow_right.png;down;0.7715055999578908;0.7799773999722674;437227.6847306;2.700020559132099e-06;0.4967530000139959;0.5367619000026025;0.5467816999880597;0.6168136000051163;0.7468951999908313;0.8769960000063293;0.01
12;1;8;48;letter190;letter169;letter190;letter169;0;0;incongruent;0.04;letter169;0.05;0.07;fullmask;0.2;arrow_left.png;down;0.764583499985747;0.770874299982097;437229.9486583;2.8999638743698597e-06;0.5033005999866873;0.5433316999697126;0.5533359000110067;0.6233696999843232;0.7534580999636091;0.8835568999638781;0.01
12;1;8;49;letter190;letter169;letter190;letter169;0;0;incongruent;0.04;letter190;0.05;0.07;fullmask;0.2;arrow_right.png;up;0.7393764000153169;0.7409473999869078;437232.1648584;2.7999631129205227e-06;0.5041337999864481;0.5441668999847025;0.5541692999540828;0.6242109999875538;0.754274099948816;0.8843941999948584;0.01
12;1;8;50;letter190;letter169;letter190;letter169;0;0;congruent;0.04;letter169;0.05;0.07;fullmask;0.2;arrow_right.png;down;0.34972860000561923;0.34997480001766235;437233.9968175;2.600019797682762e-06;0.5008600000292063;0.5408630999736488;0.5508723999955691;0.6209050000179559;0.7509979999740608;0.8810844999970868;0.01
12;1;8;51;letter190;letter169;letter190;letter169;0;0;congruent;0.04;letter190;0.05;0.07;fullmask;0.2;arrow_left.png;up;0.460299699974712;0.4699098999844864;437235.9490172;2.5999615900218487e-06;0.5043672999599949;0.5443934999639168;0.5544038999942131;0.6244301999686286;0.7545094999950379;0.8846153999911621;0.01
12;1;8;52;letter190;letter169;letter190;letter169;0;0;incongruent;0.04;letter190;0.05;0.07;fullmask;0.2;arrow_right.png;up;0.49335200001951307;0.5007250999915414;437237.9327625;2.7999631129205227e-06;0.5025050999829546;0.5425194999552332;0.5525369999813847;0.6225735999760218;0.7526592999929562;0.8827364999451675;0.01
12;2;14;1;letter357;letter181;letter357;letter181;1;0;incongruent;0.12;letter181;0.18;0.07;fullmask;0.2;arrow_left.png;up;1.9254787000245415;1.9308628999860957;438627.6355738;2.800021320581436e-06;0.4966712999739684;0.6167381000122987;0.6767773000174202;0.7468244999763556;0.8769017999875359;1.00700510002207;0.01
12;2;14;2;letter357;letter181;letter357;letter181;1;0;incongruent;0.12;letter357;0.18;0.07;fullmask;0.2;arrow_right.png;up;0.3995714000193402;0.40084960003150627;438629.8516304;2.600019797682762e-06;0.5030587000073865;0.6231446000165306;0.6831771000288427;0.7531878000008874;0.8832879000110552;1.0133809000253677;0.01
12;2;14;3;letter357;letter181;letter357;letter181;1;0;congruent;0.12;letter181;0.18;0.07;fullmask;0.2;arrow_right.png;down;0.23808169999392703;0.24037170002702624;438631.6915938;3.00002284348011e-06;0.4948596000322141;0.6149236999917775;0.6749648000113666;0.7450069999904372;0.8750780000118539;1.0051794000319205;0.01
12;2;14;4;letter357;letter181;letter357;letter181;1;0;congruent;0.12;letter181;0.18;0.07;fullmask;0.2;arrow_right.png;down;0.03285860002506524;0.04023310000775382;438633.3475565;2.600019797682762e-06;0.505713900027331;0.6257911000284366;0.685832199989818;0.7558738000225276;0.8859524999861605;1.0160493000294082;0.01
12;2;14;5;letter357;letter181;letter357;letter181;1;0;incongruent;0.12;letter357;0.18;0.07;fullmask;0.2;arrow_right.png;up;3.519695499970112;3.522450199990999;438638.4755428;2.600019797682762e-06;0.5012651999713853;0.6213170000119135;0.681356200017035;0.7513829999952577;0.8814845000160858;1.0115726999938488;0.01
12;2;14;6;letter357;letter181;letter357;letter181;1;0;congruent;0.12;letter357;0.18;0.07;fullmask;0.2;arrow_left.png;up;0.6341219000169076;0.6403404000448063;438640.7235341;2.6999623514711857e-06;0.5028591999434866;0.6229395999689586;0.6829707999713719;0.7530273999436758;0.883091899973806;1.0132077999878675;0.01
12;2;14;7;letter357;letter181;letter357;letter181;1;0;incongruent;0.12;letter181;0.18;0.07;fullmask;0.2;arrow_left.png;down;0.35162040003342554;0.3602025000145659;438642.6919044;2.700020559132099e-06;0.5046042000176385;0.6246837000362575;0.6847206000238657;0.754747300001327;0.8848493000259623;1.0149384000105783;0.01
12;2;14;8;letter357;letter181;letter357;letter181;1;0;incongruent;0.12;letter357;0.18;0.07;fullmask;0.2;arrow_right.png;up;0.17180149996420369;0.18058949999976903;438644.483593;2.700020559132099e-06;0.49528680002549663;0.6153740999870934;0.6754042999818921;0.7454473000252619;0.8755188999930397;1.0056435000151396;0.01
12;2;14;9;letter357;letter181;letter357;letter181;1;0;congruent;0.12;letter357;0.18;0.07;fullmask;0.2;arrow_left.png;up;0.07660320005379617;0.07980120001593605;438646.1795765;2.6999623514711857e-06;0.4975671999854967;0.6176589999813586;0.6776809999719262;0.7477332999696955;0.877811299986206;1.0079061999567784;0.01
12;2;14;10;letter357;letter181;letter357;letter181;1;0;congruent;0.12;letter357;0.18;0.07;fullmask;0.2;arrow_left.png;up;0.03556119999848306;0.04006279999157414;438647.8196342;2.700020559132099e-06;0.5004187999875285;0.6204867000342347;0.6805269999895245;0.750574300007429;0.8806490999995731;1.010751000023447;0.01
12;2;14;11;letter357;letter181;letter357;letter181;1;0;congruent;0.12;letter181;0.18;0.07;fullmask;0.2;arrow_right.png;down;3.9208235000260174;3.9225872000097297;438653.3555303;2.5999615900218487e-06;0.5039284999947995;0.6240116999833845;0.6840231000096537;0.7540588999981992;0.884144599956926;1.0142428999533877;0.01
12;2;14;12;letter357;letter181;letter357;letter181;1;0;incongruent;0.12;letter181;0.18;0.07;fullmask;0.2;arrow_left.png;down;0.38678559998515993;0.3898824999923818;438655.3554803;2.700020559132099e-06;0.5041957999928854;0.6242654999950901;0.6843035999918357;0.7543347000028007;0.8844196000136435;1.0145273999660276;0.01
12;2;15;1;letter357;letter181;letter357;letter181;0;1;congruent;0.12;letter357;0.18;0.07;fullmask;0.2;arrow_left.png;up;0.6817634999752045;0.6914106999756768;438673.7717023;2.7999631129205227e-06;0.49845459999050945;0.6185288999695331;0.6785678999731317;0.7486038999632001;0.8786995999980718;1.0087910000002012;0.01
12;2;15;2;letter357;letter181;letter357;letter181;0;0;incongruent;0.04;letter181;0.09;0.07;fullmask;0.2;arrow_left.png;down;0.7398424000130035;0.7410831999732181;438676.0516786;2.800021320581436e-06;0.4995904000243172;0.5396107000415213;0.5896408000262454;0.6596807999885641;0.7897716000443324;0.9198653000057675;0.01
12;2;15;3;letter357;letter181;letter357;letter181;0;0;incongruent;0.04;letter357;0.09;0.07;fullmask;0.2;arrow_right.png;up;0.5207327000098303;0.5208839999977499;438678.0835994;2.700020559132099e-06;0.5009970999672078;0.5410150000243448;0.5910484999767505;0.6610795999877155;0.7911647000000812;0.9213043000199832;0.01
12;2;15;4;letter357;letter181;letter357;letter181;0;0;congruent;0.04;letter181;0.09;0.07;fullmask;0.2;arrow_right.png;down;0.5904791000066325;0.6004071999923326;438680.1956215;2.700020559132099e-06;0.5014818000490777;0.5415061000385322;0.5915341000072658;0.6615643000113778;0.7916827000444755;0.9217540000099689;0.01
12;2;15;5;letter357;letter181;letter357;letter181;0;0;incongruent;0.04;letter357;0.09;0.07;fullmask;0.2;arrow_right.png;up;0.5279731000191532;0.530599899997469;438682.2437694;2.700020559132099e-06;0.5040108000393957;0.5440380000509322;0.5940654000150971;0.6640923999948427;0.7941866000182927;0.9242796000326052;0.01
12;2;15;6;letter357;letter181;letter357;letter181;0;0;congruent;0.04;letter181;0.09;0.07;fullmask;0.2;arrow_right.png;down;0.4941664999932982;0.5005818999488838;438684.2515241;2.600019797682762e-06;0.5025703000137582;0.542581700021401;0.5926190000027418;0.6626653000130318;0.7927366999792866;0.9228425999754108;0.01
12;2;15;7;letter357;letter181;letter357;letter181;0;0;congruent;0.04;letter181;0.09;0.07;fullmask;0.2;arrow_right.png;down;0.5047454999876209;0.5106496000080369;438686.2835571;2.5999615900218487e-06;0.4979423999902792;0.5379606999922544;0.5879883000161499;0.6580212999833748;0.7881126999855042;0.9182123999926262;0.01
12;2;15;8;letter357;letter181;letter357;letter181;0;0;incongruent;0.04;letter357;0.09;0.07;fullmask;0.2;arrow_right.png;up;0.48957269999664277;0.4907031999900937;438688.2996423;2.5999615900218487e-06;0.49737669999012724;0.5374001999734901;0.5874458999605849;0.6574682999635115;0.7875509000150487;0.91764709999552;0.01
12;2;15;9;letter357;letter181;letter357;letter181;0;0;incongruent;0.04;letter181;0.09;0.07;fullmask;0.2;arrow_left.png;down;0.5926156000350602;0.6005630000145175;438690.4038438;2.800021320581436e-06;0.49754339997889474;0.5375823000213131;0.587598700018134;0.6576181999989785;0.7877249000011943;0.9178194999694824;0.01
12;2;15;10;letter357;letter181;letter357;letter181;0;0;congruent;0.04;letter357;0.09;0.07;fullmask;0.2;arrow_left.png;up;0.4630794999538921;0.4708073999499902;438692.3955762;2.800021320581436e-06;0.5050119000370614;0.5450313999899663;0.5950647999998182;0.6651055000256747;0.7951918999897316;0.9252800000249408;0.01
12;2;15;11;letter357;letter181;letter357;letter181;0;0;congruent;0.04;letter357;0.09;0.07;fullmask;0.2;arrow_left.png;up;0.47150550002697855;0.479781300004106;438694.3955899;2.800021320581436e-06;0.5023916999925859;0.542425199993886;0.5924346999963745;0.6624809000059031;0.7925674000289291;0.9226596999797039;0.01
12;2;15;12;letter357;letter181;letter357;letter181;0;0;incongruent;0.04;letter181;0.09;0.07;fullmask;0.2;arrow_left.png;down;0.43254690000321716;0.4408837000373751;438696.3475708;2.6999623514711857e-06;0.49482049996731803;0.5348395999753848;0.5848772000172175;0.654908099968452;0.7849899000138976;0.9150958000100218;0.01
12;2;15;13;letter357;letter181;letter357;letter181;0;0;congruent;0.04;letter357;0.09;0.07;fullmask;0.2;arrow_left.png;up;0.40734239999437705;0.41092290001688525;438698.2837779;2.600019797682762e-06;0.5051271000411361;0.5451504000229761;0.595188400009647;0.6652193000190891;0.7953121000318788;0.9254082000115886;0.01
12;2;15;14;letter357;letter181;letter357;letter181;0;0;incongruent;0.04;letter181;0.09;0.07;fullmask;0.2;arrow_left.png;down;0.4294378999620676;0.4298702999949455;438700.2276138;2.700020559132099e-06;0.4962181000155397;0.5362451000255533;0.5862780000315979;0.6563225000281818;0.786394199996721;0.916501600004267;0.01
12;2;15;15;letter357;letter181;letter357;letter181;0;0;incongruent;0.04;letter357;0.09;0.07;fullmask;0.2;arrow_right.png;up;0.38476990000344813;0.39101810002466664;438702.123545;2.6999623514711857e-06;0.4979365000035614;0.5379570999648422;0.588042699964717;0.6580373999895528;0.7881086999550462;0.9182138000032865;0.01
12;2;15;16;letter357;letter181;letter357;letter181;0;0;incongruent;0.04;letter181;0.09;0.07;fullmask;0.2;arrow_left.png;down;0.4475531000061892;0.45085699995979667;438704.1075204;2.7999631129205227e-06;0.503416899999138;0.5434466999722645;0.5934522000025027;0.6635077999671921;0.7935960000031628;0.9237133999704383;0.01
12;2;15;17;letter357;letter181;letter357;letter181;0;0;incongruent;0.04;letter181;0.09;0.07;fullmask;0.2;arrow_left.png;down;0.4437109000282362;0.44986779999453574;438706.0756057;2.700020559132099e-06;0.5051165000186302;0.545140000001993;0.5951892000157386;0.6651990000391379;0.7953253000159748;0.9253891000407748;0.01
12;2;15;18;letter357;letter181;letter357;letter181;0;0;congruent;0.04;letter357;0.09;0.07;fullmask;0.2;arrow_left.png;up;0.3686215000343509;0.3701050000381656;438707.9718027;2.9999646358191967e-06;0.49710249999770895;0.5371213000034913;0.5871518999920227;0.6571881999843754;0.7872720999876037;0.9173766999738291;0.01
12;2;15;19;letter357;letter181;letter357;letter181;0;0;congruent;0.04;letter357;0.09;0.07;fullmask;0.2;arrow_left.png;up;0.4831927999621257;0.489754099980928;438709.9875214;2.8999638743698597e-06;0.5054611999657936;0.5454899999895133;0.5955202999757603;0.6655486999661662;0.795804199995473;0.925734399992507;0.01
12;2;15;20;letter357;letter181;letter357;letter181;0;0;congruent;0.04;letter181;0.09;0.07;fullmask;0.2;arrow_right.png;down;0.39252299995860085;0.40097949997289106;438711.907486;2.700020559132099e-06;0.5043716999934986;0.5443733999854885;0.5944080000044778;0.6644402000238188;0.7945246000308543;0.9246295000193641;0.01
12;2;15;21;letter357;letter181;letter357;letter181;0;0;congruent;0.04;letter181;0.09;0.07;fullmask;0.2;arrow_right.png;down;0.45476829999824986;0.4597869000281207;438713.8914929;2.9999646358191967e-06;0.4995028999983333;0.5395111999823712;0.5895412999670953;0.6595803999807686;0.7896605999558233;0.9197721999953501;0.01
12;2;15;22;letter357;letter181;letter357;letter181;0;0;incongruent;0.04;letter357;0.09;0.07;fullmask;0.2;arrow_right.png;up;0.5320305000059307;0.5407087000203319;438715.9398534;2.700020559132099e-06;0.49681240000063553;0.5368447000510059;0.5868606000440195;0.6569166000117548;0.7869957000366412;0.9170965000521392;0.01
12;2;15;23;letter357;letter181;letter357;letter181;0;0;congruent;0.04;letter357;0.09;0.07;fullmask;0.2;arrow_left.png;up;0.6302724999841303;0.6403504000045359;438718.0995178;2.700020559132099e-06;0.49748570000519976;0.5375061999657191;0.5875389999710023;0.6575676999636926;0.7876570000080392;0.9177480000071228;0.01
12;2;15;24;letter357;letter181;letter357;letter181;0;1;congruent;0.12;letter181;0.18;0.07;fullmask;0.2;arrow_right.png;down;0.35464009997667745;0.3601169000030495;438720.0755693;2.6999623514711857e-06;0.5031454999698326;0.6232262999983504;0.6832675999612547;0.7532975999638438;0.883388299960643;1.013472999969963;0.01
12;2;15;25;letter357;letter181;letter357;letter181;0;0;incongruent;0.04;letter357;0.09;0.07;fullmask;0.2;arrow_right.png;up;0.5292598999803886;0.529493999958504;438722.1315594;2.700020559132099e-06;0.5008447000291198;0.5408561000367627;0.5909122000448406;0.6609329000348225;0.7910183000494726;0.9211154000367969;0.01
12;2;15;26;letter357;letter181;letter357;letter181;0;0;congruent;0.04;letter181;0.09;0.07;fullmask;0.2;arrow_right.png;down;0.4866325999610126;0.4908549999818206;438724.1397201;2.5999615900218487e-06;0.5010323000024073;0.5410579000017606;0.5910924999625422;0.6611132000107318;0.7912107000011019;0.9213200999656692;0.01
12;2;15;27;letter357;letter181;letter357;letter181;0;0;incongruent;0.04;letter357;0.09;0.07;fullmask;0.2;arrow_right.png;up;0.6132194999954663;0.6203679000027478;438726.2674118;2.6999623514711857e-06;0.5007213999633677;0.5407511999947019;0.5907704999553971;0.6608124999911524;0.7908849999657832;0.9209829999599606;0.01
12;2;15;28;letter357;letter181;letter357;letter181;0;1;incongruent;0.12;letter181;0.18;0.07;fullmask;0.2;arrow_left.png;down;0.4452422999893315;0.4498166999546811;438728.3314673;2.600019797682762e-06;0.5031856000423431;0.6232669000164606;0.6832944999914616;0.7533468999899924;0.8834278000285849;1.013545299996622;0.01
12;2;15;29;letter357;letter181;letter357;letter181;0;0;congruent;0.04;letter357;0.09;0.07;fullmask;0.2;arrow_left.png;up;0.5223976999986917;0.5305077999946661;438730.379503;2.800021320581436e-06;0.5037468000082299;0.5437679000315256;0.5938116000033915;0.6638633999973536;0.7939252000069246;0.9240322000114247;0.01
12;2;15;30;letter357;letter181;letter357;letter181;0;0;congruent;0.04;letter181;0.09;0.07;fullmask;0.2;arrow_right.png;down;0.4792629000148736;0.4806710000266321;438732.38759;2.700020559132099e-06;0.5050892999861389;0.5451180000090972;0.5951425000093877;0.6651930999942124;0.7952550000045449;0.9253829999943264;0.01
12;2;15;31;letter357;letter181;letter357;letter181;0;0;incongruent;0.04;letter181;0.09;0.07;fullmask;0.2;arrow_left.png;down;0.4698014999739826;0.470807200006675;438734.3795927;2.800021320581436e-06;0.496701399970334;0.5367185000213794;0.5867452999809757;0.6567793000140227;0.7868765000021085;0.9169704000232741;0.01
12;2;15;32;letter357;letter181;letter357;letter181;0;0;congruent;0.04;letter357;0.09;0.07;fullmask;0.2;arrow_left.png;up;0.5040463999612257;0.5095609999843873;438736.3955605;2.6999623514711857e-06;0.4968507000012323;0.5368839000002481;0.5869334999588318;0.656955000013113;0.7870499999844469;0.9171396999736317;0.01
12;2;15;33;letter357;letter181;letter357;letter181;0;0;congruent;0.04;letter357;0.09;0.07;fullmask;0.2;arrow_left.png;up;0.5791414999985136;0.5803599000209942;438738.4914365;2.600019797682762e-06;0.5032873000018299;0.5433022000361234;0.5933280999888666;0.6633696000208147;0.7934395000338554;0.9235596000216901;0.01
12;2;15;34;letter357;letter181;letter357;letter181;0;0;congruent;0.04;letter181;0.09;0.07;fullmask;0.2;arrow_right.png;down;0.44017060002079234;0.44085429998813197;438740.4437698;2.700020559132099e-06;0.5029089999734424;0.5429283999837935;0.5929214999778196;0.6630118999746628;0.793080999981612;0.9231848000199534;0.01
12;2;15;35;letter357;letter181;letter357;letter181;0;0;congruent;0.04;letter181;0.09;0.07;fullmask;0.2;arrow_right.png;down;0.550413999997545;0.5604254999780096;438742.5155596;2.5999615900218487e-06;0.5037326999590732;0.5437492000055499;0.5937612999696285;0.6638200999586843;0.7938902999740094;0.9239985999884084;0.01
12;2;15;36;letter357;letter181;letter357;letter181;0;0;incongruent;0.04;letter181;0.09;0.07;fullmask;0.2;arrow_left.png;down;0.41535269998712465;0.4208006999688223;438744.4515273;2.600019797682762e-06;0.5014170000213198;0.5414320999989286;0.591476799978409;0.6615019000018947;0.7915767999948002;0.9216799999703653;0.01
12;2;15;37;letter357;letter181;letter357;letter181;0;0;incongruent;0.04;letter357;0.09;0.07;fullmask;0.2;arrow_right.png;up;0.5557532000239007;0.560525500040967;438746.5237129;2.600019797682762e-06;0.4984102000016719;0.5384181999834254;0.5884555000229739;0.6585006000241265;0.7885682000196539;0.9186740000150166;0.01
12;2;15;38;letter357;letter181;letter357;letter181;0;0;incongruent;0.04;letter181;0.09;0.07;fullmask;0.2;arrow_left.png;down;0.5143019999959506;0.5205321999965236;438748.5634478;2.6999623514711857e-06;0.5051931999623775;0.5452083999989554;0.5952397999935783;0.6652939000050537;0.795366299978923;0.9254583999863826;0.01
12;2;15;39;letter357;letter181;letter357;letter181;0;0;incongruent;0.04;letter357;0.09;0.07;fullmask;0.2;arrow_right.png;up;0.48105539998505265;0.49060379998991266;438750.5714571;2.7999631129205227e-06;0.5042894999496639;0.5443164999596775;0.59436479996657;0.664397899992764;0.7944726999849081;0.9245656999992207;0.01
12;2;15;40;letter357;letter181;letter357;letter181;0;0;incongruent;0.04;letter181;0.09;0.07;fullmask;0.2;arrow_left.png;down;0.5181906999787316;0.5207895999774337;438752.6196919;2.700020559132099e-06;0.5023093000054359;0.5423336999956518;0.5923677000100724;0.6624069000245072;0.7924899000208825;0.9225834000390023;0.01
12;2;15;41;letter357;letter181;letter357;letter181;0;0;congruent;0.04;letter357;0.09;0.07;fullmask;0.2;arrow_left.png;up;0.6389500999939628;0.6412082999595441;438754.7714834;2.6999623514711857e-06;0.4976965999812819;0.5377042999607511;0.5877657000091858;0.657766799966339;0.7878540999954566;0.9179519999888726;0.01
12;2;15;42;letter357;letter181;letter357;letter181;0;0;congruent;0.04;letter181;0.09;0.07;fullmask;0.2;arrow_right.png;down;0.5587822000379674;0.5604264000430703;438756.843416;2.700020559132099e-06;0.5000633000163361;0.5401047000195831;0.5901448000222445;0.6601744000217877;0.7902491000131704;0.9203419000259601;0.01
12;2;15;43;letter357;letter181;letter357;letter181;0;0;incongruent;0.04;letter357;0.09;0.07;fullmask;0.2;arrow_right.png;up;0.5581399999791756;0.5605536999646574;438758.9234354;2.800021320581436e-06;0.4974523999844678;0.5374392999801785;0.587483000010252;0.6575153000303544;0.7875991000328213;0.9177123000263236;0.01
12;2;15;44;letter357;letter181;letter357;letter181;0;0;congruent;0.04;letter181;0.09;0.07;fullmask;0.2;arrow_right.png;down;0.5481808000477031;0.5506960999919102;438760.9954858;2.900022082030773e-06;0.5047276000259444;0.5447499000001699;0.5947897000005469;0.6648271000012755;0.7949184000026435;0.9249948000069708;0.01
12;2;15;45;letter357;letter181;letter357;letter181;0;0;congruent;0.04;letter357;0.09;0.07;fullmask;0.2;arrow_left.png;up;0.5248418999835849;0.5306446999893524;438763.0434937;2.600019797682762e-06;0.500855699996464;0.5408839000156149;0.5909128999919631;0.660951700003352;0.7910377000225708;0.921131500042975;0.01
12;2;15;46;letter357;letter181;letter357;letter181;0;0;incongruent;0.04;letter357;0.09;0.07;fullmask;0.2;arrow_right.png;up;0.5693451999686658;0.5705439999583177;438765.1394549;2.600019797682762e-06;0.502313100034371;0.5423345000017434;0.5923829000093974;0.6624040000024252;0.792502099997364;0.9225865000043996;0.01
12;2;15;47;letter357;letter181;letter357;letter181;0;0;incongruent;0.04;letter181;0.09;0.07;fullmask;0.2;arrow_left.png;down;0.5748195999767631;0.5804976000217721;438767.235527;2.600019797682762e-06;0.5028760000132024;0.5429063999908976;0.5929471999988891;0.6629728000261821;0.7930699000135064;0.9231591999996454;0.01
12;2;15;48;letter357;letter181;letter357;letter181;0;0;incongruent;0.04;letter357;0.09;0.07;fullmask;0.2;arrow_right.png;up;0.5870846000034362;0.5904832999804057;438769.3396831;2.5999615900218487e-06;0.4942439000005834;0.5342735999729484;0.5842954999534413;0.6543379999930039;0.7844245999585837;0.9145258999778889;0.01
12;2;15;49;letter357;letter181;letter357;letter181;0;1;incongruent;0.12;letter357;0.18;0.07;fullmask;0.2;arrow_right.png;up;0.5994157000095583;0.6005541000049561;438771.5634803;2.700020559132099e-06;0.5026890000444837;0.6227666000486352;0.6828075000084937;0.7528407000354491;0.8829152000253089;1.013013600022532;0.01
12;2;15;50;letter357;letter181;letter357;letter181;0;0;congruent;0.04;letter357;0.09;0.07;fullmask;0.2;arrow_left.png;up;0.5900837000226602;0.590398800035473;438773.6754835;2.600019797682762e-06;0.5012484000180848;0.5412659000139683;0.5913025999907404;0.6613444000249729;0.7914149000425823;0.9215145999914967;0.01
12;2;15;51;letter357;letter181;letter357;letter181;0;0;congruent;0.04;letter181;0.09;0.07;fullmask;0.2;arrow_right.png;down;0.5570761999697424;0.5606857999810018;438775.7636953;3.100023604929447e-06;0.5028683000127785;0.5429035000270233;0.592916099994909;0.6629645000211895;0.7930343000334688;0.9231374000082724;0.01
12;2;15;52;letter357;letter181;letter357;letter181;0;0;incongruent;0.04;letter181;0.09;0.07;fullmask;0.2;arrow_left.png;down;0.5711620000074618;0.5803245000424795;438777.8595184;2.700020559132099e-06;0.5030259000486694;0.5430482000228949;0.5930853000027128;0.6631166000152007;0.793211100040935;0.9233035000506788;0.01
12;2;16;1;letter357;letter181;letter357;letter181;0;1;congruent;0.12;letter181;0.18;0.07;fullmask;0.2;arrow_right.png;down;0.4683299000025727;0.4709838999551721;438783.2596577;2.6999623514711857e-06;0.49702899996191263;0.6171003999770619;0.6771423000027426;0.7471977999666706;0.8772716000094078;1.0073875999660231;0.01
12;2;16;2;letter357;letter181;letter357;letter181;0;0;congruent;0.04;letter357;0.09;0.07;fullmask;0.2;arrow_left.png;up;0.5324459000257775;0.5397168000345118;438785.315634;2.900022082030773e-06;0.5003586000530049;0.5403864000109024;0.5904207000276074;0.6604574000230059;0.7905445000506006;0.9206388000166044;0.01
12;2;16;3;letter357;letter181;letter357;letter181;0;0;incongruent;0.04;letter181;0.09;0.07;fullmask;0.2;arrow_left.png;down;0.5433212000061758;0.5506234000204131;438787.3874151;2.600019797682762e-06;0.5026750999968499;0.5427415000158362;0.5927156000398099;0.662755900004413;0.7928365000407211;0.922926000028383;0.01
12;2;16;4;letter357;letter181;letter357;letter181;0;0;incongruent;0.04;letter357;0.09;0.07;fullmask;0.2;arrow_right.png;up;0.5440371999866329;0.5505434999940917;438789.459524;2.800021320581436e-06;0.49727519997395575;0.5372765000211075;0.587319899990689;0.6573636999819428;0.7874383999733254;0.9175319999922067;0.01
12;2;16;5;letter357;letter181;letter357;letter181;0;0;incongruent;0.04;letter181;0.09;0.07;fullmask;0.2;arrow_left.png;down;0.47826980001991615;0.47977040003752336;438791.4754546;2.700020559132099e-06;0.5001121000386775;0.5401196000166237;0.5901620000367984;0.6601897000218742;0.7902827000361867;0.9203832000494003;0.01
12;2;16;6;letter357;letter181;letter357;letter181;0;0;incongruent;0.04;letter357;0.09;0.07;fullmask;0.2;arrow_right.png;up;0.5330438999808393;0.5405031000263989;438793.5314382;2.6999623514711857e-06;0.4964599999948405;0.5364841999835335;0.5865129999583587;0.6565526999766007;0.7866311999969184;0.9167282999842428;0.01
12;2;16;7;letter357;letter181;letter357;letter181;0;0;congruent;0.04;letter357;0.09;0.07;fullmask;0.2;arrow_left.png;up;0.6374747999943793;0.6404512000153773;438795.7075135;2.600019797682762e-06;0.5036977000418119;0.5437173000536859;0.5937496999977157;0.6637879000045359;0.7938815000234172;0.9239801000221632;0.01
12;2;16;8;letter357;letter181;letter357;letter181;0;0;congruent;0.04;letter181;0.09;0.07;fullmask;0.2;arrow_right.png;down;0.572799900022801;0.5804659000132233;438797.8834172;2.6999623514711857e-06;0.49677470000460744;0.5368056999868713;0.5868350999662653;0.6568692000000738;0.7869564999709837;0.9170406999764964;0.01
12;2;16;9;letter357;letter181;letter357;letter181;0;0;incongruent;0.04;letter357;0.09;0.07;fullmask;0.2;arrow_right.png;up;0.5270549000124447;0.5303125000209548;438799.9394973;2.6999623514711857e-06;0.5032005999819376;0.5432315999642015;0.593259199988097;0.6633140999474563;0.7933828999521211;0.9234887999482453;0.01
12;2;16;10;letter357;letter181;letter357;letter181;0;0;incongruent;0.04;letter181;0.09;0.07;fullmask;0.2;arrow_left.png;down;0.46016830002190545;0.46068770001875237;438801.9235447;2.600019797682762e-06;0.5034503000206314;0.5434795999899507;0.5934956999844871;0.6635480999830179;0.7936325999908149;0.9237345000146888;0.01
12;2;16;11;letter357;letter181;letter357;letter181;0;0;congruent;0.04;letter181;0.09;0.07;fullmask;0.2;arrow_right.png;down;0.4788190000108443;0.4806421000394039;438803.9234249;2.600019797682762e-06;0.5024265000247397;0.542456700000912;0.5924864999833517;0.6625083000399172;0.7925963000161573;0.9226915999897756;0.01
12;2;16;12;letter357;letter181;letter357;letter181;0;0;congruent;0.04;letter357;0.09;0.07;fullmask;0.2;arrow_left.png;up;0.5489440999808721;0.550451899995096;438805.9954422;2.700020559132099e-06;0.5033050000201911;0.5433193000499159;0.5933541000122204;0.6634126999997534;0.793477300030645;0.9235846000374295;0.01
12;2;16;13;letter357;letter181;letter357;letter181;0;0;congruent;0.04;letter181;0.09;0.07;fullmask;0.2;arrow_right.png;down;0.4855095000239089;0.4897464000387117;438808.0034625;2.700020559132099e-06;0.5002298000035807;0.5402348000206985;0.5902716999989934;0.6603126000263728;0.7904092000098899;0.9205040000379086;0.01
12;2;16;14;letter357;letter181;letter357;letter181;0;0;congruent;0.04;letter357;0.09;0.07;fullmask;0.2;arrow_left.png;up;0.6427985000191256;0.6512923000263982;438810.1714494;2.4999608285725117e-06;0.5029066999559291;0.5429701000102796;0.5929451999836601;0.6630040999734774;0.7930879999767058;0.9231839999556541;0.01
12;2;16;15;letter357;letter181;letter357;letter181;0;0;incongruent;0.04;letter181;0.09;0.07;fullmask;0.2;arrow_left.png;down;0.33536970004206523;0.34015300002647564;438812.0354717;2.700020559132099e-06;0.500762699986808;0.5407855000230484;0.5908060999936424;0.6608386000152677;0.7909158000256866;0.9210309999762103;0.01
12;2;16;16;letter357;letter181;letter357;letter181;0;0;congruent;0.04;letter357;0.09;0.07;fullmask;0.2;arrow_left.png;up;0.4379167999722995;0.43988660001195967;438814.0194839;2.5999615900218487e-06;0.49969189998228103;0.5397123000002466;0.5897573999827728;0.6597793999826536;0.789876299968455;0.9199725000071339;0.01
12;2;16;17;letter357;letter181;letter357;letter181;0;0;incongruent;0.04;letter357;0.09;0.07;fullmask;0.2;arrow_right.png;up;0.5187431999947876;0.520492700044997;438816.0514427;2.600019797682762e-06;0.49876360001508147;0.5387823000201024;0.5888339999946766;0.6588648000033572;0.7889440000290051;0.9190440999809653;0.01
12;2;16;18;letter357;letter181;letter357;letter181;0;0;incongruent;0.04;letter181;0.09;0.07;fullmask;0.2;arrow_left.png;down;0.4956665999488905;0.5006662999512628;438818.0596453;2.7999631129205227e-06;0.497170599992387;0.5371826000045985;0.5872719999752007;0.6572707999730483;0.7873634999850765;0.917461299977731;0.01
12;2;16;19;letter357;letter181;letter357;letter181;0;0;congruent;0.04;letter181;0.09;0.07;fullmask;0.2;arrow_right.png;down;0.5681095999898389;0.5704906000173651;438820.163427;2.600019797682762e-06;0.4987735000322573;0.5387882000068203;0.5888252000440843;0.6588605000288226;0.7889449000358582;0.9190428000292741;0.01
12;2;16;20;letter357;letter181;letter357;letter181;0;0;incongruent;0.04;letter357;0.09;0.07;fullmask;0.2;arrow_right.png;up;0.46066760004032403;0.46979510004166514;438822.1476372;2.800021320581436e-06;0.503091000020504;0.5431179000297561;0.5931458999984898;0.6631965999840759;0.7932630000286736;0.9233751000138;0.01
12;2;16;21;letter357;letter181;letter357;letter181;0;1;congruent;0.12;letter357;0.18;0.07;fullmask;0.2;arrow_left.png;up;0.47285620000911877;0.47981150000123307;438824.2514831;2.600019797682762e-06;0.49767419998534024;0.6177499999757856;0.6777922000037506;0.7478250999702141;0.8779120999970473;1.0080382999731228;0.01
12;2;16;22;letter357;letter181;letter357;letter181;0;0;congruent;0.04;letter181;0.09;0.07;fullmask;0.2;arrow_right.png;down;0.38972360000479966;0.3899350999854505;438826.1794989;2.800021320581436e-06;0.504734100017231;0.5447528000222519;0.5947800999856554;0.664830899972003;0.7949004999827594;0.9250208999728784;0.01
12;2;16;23;letter357;letter181;letter357;letter181;0;0;congruent;0.04;letter181;0.09;0.07;fullmask;0.2;arrow_right.png;down;0.42230899998685345;0.4297832999727689;438828.1235179;2.700020559132099e-06;0.4997146000387147;0.5396867000381462;0.5897437000530772;0.6597753000096418;0.7898741000099108;0.9199854000471532;0.01
12;2;16;24;letter357;letter181;letter357;letter181;0;0;incongruent;0.04;letter357;0.09;0.07;fullmask;0.2;arrow_right.png;up;0.47984580002957955;0.48064020002493635;438830.1316132;2.6999623514711857e-06;0.5008857999928296;0.5409155999659561;0.5909362999955192;0.6609898000024259;0.7910603999625891;0.9211707999929786;0.01
12;2;16;25;letter357;letter181;letter357;letter181;0;0;incongruent;0.04;letter181;0.09;0.07;fullmask;0.2;arrow_left.png;down;0.31214559997897595;0.32006310002179816;438831.9554769;2.7999631129205227e-06;0.501058199966792;0.541076899971813;0.5911106999847107;0.6611453999648802;0.7912210999638774;0.921316799998749;0.01
12;2;16;26;letter357;letter181;letter357;letter181;0;0;incongruent;0.04;letter357;0.09;0.07;fullmask;0.2;arrow_right.png;up;0.38488750002579764;0.38987970002926886;438833.8594911;2.800021320581436e-06;0.4993027000455186;0.5393321000155993;0.5893519000383094;0.6593975000432692;0.7894681000034325;0.9195699000265449;0.01
12;2;16;27;letter357;letter181;letter357;letter181;0;0;incongruent;0.04;letter181;0.09;0.07;fullmask;0.2;arrow_left.png;down;0.3935728999786079;0.3998548000236042;438835.7794195;2.6999623514711857e-06;0.503065199998673;0.543103699979838;0.5931195999728516;0.6631508999853395;0.7932402999722399;0.923342699999921;0.01
12;2;16;28;letter357;letter181;letter357;letter181;0;0;congruent;0.04;letter357;0.09;0.07;fullmask;0.2;arrow_left.png;up;0.3763584000407718;0.38014860003022477;438837.6836355;2.700020559132099e-06;0.5002553000231273;0.5402740000281483;0.5903053000220098;0.6603627000004053;0.7904009000048973;0.9205186000326648;0.01
12;2;16;29;letter357;letter181;letter357;letter181;0;0;congruent;0.04;letter181;0.09;0.07;fullmask;0.2;arrow_right.png;down;0.37936989997979254;0.3800096999621019;438839.5874498;2.600019797682762e-06;0.5002639000304043;0.540279200009536;0.5903252999996766;0.660350100020878;0.7904378999955952;0.9205282999901101;0.01
12;2;16;30;letter357;letter181;letter357;letter181;0;0;incongruent;0.04;letter357;0.09;0.07;fullmask;0.2;arrow_right.png;up;0.31232920003822073;0.3202090000268072;438841.4114505;2.800021320581436e-06;0.49923040001885965;0.5392530999961309;0.5892962000216357;0.6593173000146635;0.7894197999848984;0.9195095999748446;0.01
12;2;16;31;letter357;letter181;letter357;letter181;0;0;incongruent;0.04;letter357;0.09;0.07;fullmask;0.2;arrow_right.png;up;0.45532980002462864;0.46081130002858117;438843.3955967;2.6999623514711857e-06;0.5000829999917187;0.5401106999488547;0.5901301999692805;0.6601606999756768;0.7902632000041194;0.9203252999577671;0.01
12;2;16;32;letter357;letter181;letter357;letter181;0;0;incongruent;0.04;letter181;0.09;0.07;fullmask;0.2;arrow_left.png;down;0.2741419000085443;0.28029979998245835;438845.1957272;2.5999615900218487e-06;0.4959231999819167;0.5359417999861762;0.585995199973695;0.6560045999940485;0.7861188999959268;0.9161921999766491;0.01
12;2;16;33;letter357;letter181;letter357;letter181;0;0;congruent;0.04;letter181;0.09;0.07;fullmask;0.2;arrow_right.png;down;0.33075530000496656;0.3309506999794394;438847.0434446;2.700020559132099e-06;0.49659389996668324;0.536617000005208;0.5866373999742791;0.6566776999970898;0.7867668999824673;0.9168529000016861;0.01
12;2;16;34;letter357;letter181;letter357;letter181;0;0;incongruent;0.04;letter357;0.09;0.07;fullmask;0.2;arrow_right.png;up;0.14515599998412654;0.1505147999851033;438848.6994314;2.700020559132099e-06;0.49663010000949726;0.5366519999806769;0.5866769999847747;0.6567244000034407;0.7868006000062451;0.9169024999719113;0.01
12;2;16;35;letter357;letter181;letter357;letter181;0;0;congruent;0.04;letter357;0.09;0.07;fullmask;0.2;arrow_left.png;up;0.3621954999980517;0.3700208000373095;438850.5874876;2.6999623514711857e-06;0.5032983999699354;0.5433126999996603;0.5933602000004612;0.6633753000060096;0.7934829000150785;0.9235573000041768;0.01
12;2;16;36;letter357;letter181;letter357;letter181;0;0;congruent;0.04;letter357;0.09;0.07;fullmask;0.2;arrow_left.png;up;0.190411799994763;0.19953619997249916;438852.3073638;2.600019797682762e-06;0.5011138999834657;0.5411267000017688;0.591132799978368;0.6611982000176795;0.7912882000091486;0.9213906999793835;0.01
12;2;16;37;letter357;letter181;letter357;letter181;0;1;incongruent;0.12;letter181;0.18;0.07;fullmask;0.2;arrow_left.png;down;1.8741174999740906;1.8811094000120647;438855.8117496;2.5999615900218487e-06;0.5051196999847889;0.6251873999717645;0.6852300000027753;0.7552652999875136;0.8853506000014022;1.0154494000016712;0.01
12;2;16;38;letter357;letter181;letter357;letter181;0;0;congruent;0.04;letter357;0.09;0.07;fullmask;0.2;arrow_left.png;down;0.6637682000291534;0.6712177000008523;438858.0033811;2.700020559132099e-06;0.5008666000212543;0.5408871999825351;0.5909212999977171;0.6609475999721326;0.7910586000070907;0.9211224999744445;0.01
12;2;16;39;letter357;letter181;letter357;letter181;0;0;incongruent;0.04;letter181;0.09;0.07;fullmask;0.2;arrow_left.png;down;0.48203180002747104;0.49067179998382926;438860.2034339;2.5999615900218487e-06;0.49853419995633885;0.5385455999639817;0.5885708999703638;0.6586190999951214;0.7886885000043549;0.9188147999811918;0.01
12;2;16;40;letter357;letter181;letter357;letter181;0;0;congruent;0.04;letter357;0.09;0.07;fullmask;0.2;arrow_left.png;up;0.7584005999960937;0.7601313999621198;438862.4915864;2.4999608285725117e-06;0.500211099977605;0.5402579999645241;0.590262099984102;0.6603029999532737;0.7903990999911912;0.9205100999679416;0.01
12;2;16;41;letter357;letter181;letter357;letter181;0;0;congruent;0.04;letter181;0.09;0.07;fullmask;0.2;arrow_right.png;down;0.6929387000272982;0.7001915000146255;438864.7073555;2.600019797682762e-06;0.4986563000129536;0.5386738000088371;0.5887155000236817;0.6587437000125647;0.7890463000512682;0.9189247000031173;0.01
12;2;16;42;letter357;letter181;letter357;letter181;0;0;incongruent;0.04;letter357;0.09;0.07;fullmask;0.2;arrow_right.png;up;0.640114999958314;0.6402647999930196;438866.87544;2.800021320581436e-06;0.49607440002728254;0.5361026999889873;0.5861215000040829;0.6561633999808691;0.7862390000373125;0.9163447000319138;0.01
12;2;16;43;letter357;letter181;letter357;letter181;0;0;incongruent;0.04;letter181;0.09;0.07;fullmask;0.2;arrow_left.png;down;0.6858709999942221;0.6901689000078477;438869.0833213;2.600019797682762e-06;0.4978558999719098;0.5378676999825984;0.5879254000028595;0.6579395000007935;0.7880495000281371;0.9181294000009075;0.01
12;2;16;44;letter357;letter181;letter357;letter181;0;0;incongruent;0.04;letter357;0.09;0.07;fullmask;0.2;arrow_right.png;up;0.6194365000119433;0.6212821999797598;438871.2277052;2.5999615900218487e-06;0.5019666999578476;0.5419857999659143;0.592030200001318;0.6620782999671064;0.7921453999588266;0.9222458999720402;0.01
12;2;16;45;letter357;letter181;letter357;letter181;0;0;congruent;0.04;letter181;0.09;0.07;fullmask;0.2;arrow_right.png;down;0.4555741000222042;0.46083190001081675;438873.235402;2.800021320581436e-06;0.5015364999999292;0.5415701000019908;0.5915899000247009;0.6616283000330441;0.7917048000381328;0.9218075000098906;0.01
12;2;16;46;letter357;letter181;letter357;letter181;0;0;congruent;0.04;letter181;0.09;0.07;fullmask;0.2;arrow_right.png;down;0.5303707999992184;0.53055540000787;438875.2913923;2.800021320581436e-06;0.5051350999856368;0.545159200031776;0.595175200025551;0.6652525999816135;0.7953074999968521;0.9254034999758005;0.01
12;2;16;47;letter357;letter181;letter357;letter181;0;1;incongruent;0.12;letter357;0.18;0.07;fullmask;0.2;arrow_right.png;up;0.5129704000428319;0.5207715000142343;438877.435706;2.600019797682762e-06;0.5054637999855913;0.6255076000234112;0.685543300001882;0.7555811000056565;0.8856677999719977;1.0157631000038236;0.01
12;2;16;48;letter357;letter181;letter357;letter181;0;0;congruent;0.04;letter181;0.09;0.07;fullmask;0.2;arrow_right.png;down;0.4789394999970682;0.47963400004664436;438879.4434053;2.6999623514711857e-06;0.5004997999640182;0.5405033999704756;0.5905454999883659;0.6605946999625303;0.7906603000010364;0.9207729999907315;0.01
12;2;16;49;letter357;letter181;letter357;letter181;0;0;incongruent;0.04;letter181;0.09;0.07;fullmask;0.2;arrow_left.png;down;0.43003849999513477;0.4398859000066295;438881.3954033;2.700020559132099e-06;0.5021015999955125;0.5421196999959648;0.5921546000172384;0.6621885999920778;0.7922682000207715;0.9223832000279799;0.01
12;2;16;50;letter357;letter181;letter357;letter181;0;0;incongruent;0.04;letter181;0.09;0.07;fullmask;0.2;arrow_left.png;down;0.469384900003206;0.470665100030601;438883.3954561;2.600019797682762e-06;0.5046119000180624;0.544636900012847;0.5946537000127137;0.6647082000272349;0.7947912000236101;0.9248745000222698;0.01
12;2;16;51;letter357;letter181;letter357;letter181;0;0;congruent;0.04;letter357;0.09;0.07;fullmask;0.2;arrow_left.png;up;0.44588689994998276;0.4509569999645464;438885.3635528;2.700020559132099e-06;0.504006200004369;0.5440165000036359;0.5940507000195794;0.6640812999685295;0.7941706000128761;0.9242615000111982;0.01
12;2;16;52;letter357;letter181;letter357;letter181;0;0;congruent;0.04;letter357;0.09;0.07;fullmask;0.2;arrow_left.png;up;0.5240730000077747;0.5304992999881506;438887.403333;2.700020559132099e-06;0.4990570000372827;0.5390683000441641;0.5891127000213601;0.659144000033848;0.7892180000199005;0.9193298000027426;0.01
