subjnr;loop_m;blocknr;trialnr;cue_left_learn;cue_right_learn;option_up;option_down;practice;motivation; congruence;cue_dur;cue;SOA;mask_dur;mask;target_dur;target;response;RT;kb_rt;response_absolute; fix_onset;cue_onset;cue_offset;mask_onset;mask_offset;target_offset;blank_onset;frame_dur
9;1;6;1;letter190;letter169;letter190;letter169;1;0;congruent;0.12;letter190;0.14;0.07;fullmask;0.2;arrow_left.png;down;8.364666699955706;8.365737399959471;278711.4708036;2.800021320581436e-06;0.49454210000112653;0.614612000004854;0.6346182000124827;0.7046404000138864;0.8347486000275239;0.9648348999908194;0.01
9;1;6;2;letter190;letter169;letter190;letter169;1;0;incongruent;0.12;letter169;0.14;0.07;fullmask;0.2;arrow_left.png;down;1.2613896999973804;1.2704777999897487;278714.494585;2.700020559132099e-06;0.4961409000097774;0.6162217000382952;0.6362446999992244;0.706258499994874;0.8363628000370227;0.9664415000006557;0.01
9;1;6;3;letter190;letter169;letter190;letter169;1;0;incongruent;0.12;letter169;0.14;0.07;fullmask;0.2;arrow_left.png;up;0.6594685000018217;0.6602523000328802;278716.7345653;2.700020559132099e-06;0.5017590000061318;0.6218527000164613;0.6418488000053912;0.7118978000362404;0.841967000043951;0.9725813000113703;0.01
9;1;6;4;letter190;letter169;letter190;letter169;1;0;congruent;0.12;letter169;0.14;0.07;fullmask;0.2;arrow_right.png;down;0.5327016999945045;0.5407979000010528;278719.0391394;2.700020559132099e-06;0.49869049998233095;0.6187571000191383;0.6387780000222847;0.708821700012777;0.8388877999968827;0.9689874000032432;0.01
9;1;6;5;letter190;letter169;letter190;letter169;1;0;congruent;0.12;letter169;0.14;0.07;fullmask;0.2;arrow_right.png;down;0.3666016000206582;0.37002550001489;278720.9746136;2.700020559132099e-06;0.500326200039126;0.6203921000123955;0.6404083000379615;0.7104491000063717;0.8405303999898024;0.9706285000429489;0.01
9;1;6;6;letter190;letter169;letter190;letter169;1;0;incongruent;0.12;letter190;0.14;0.07;fullmask;0.2;arrow_right.png;up;0.43375380005454645;0.44082900002831593;278722.982559;2.7999631129205227e-06;0.5009445999749005;0.6210246999980882;0.6410459000035189;0.7110726999817416;0.8411514000035822;0.9713274999521673;0.01
9;1;6;7;letter190;letter169;letter190;letter169;1;0;congruent;0.12;letter169;0.14;0.07;fullmask;0.2;arrow_right.png;up;1.4006784000084735;1.4013982000178657;278725.950753;2.700020559132099e-06;0.5001704000169411;0.6202502999803983;0.640252600016538;0.7102897000149824;0.8403813000186346;0.970477299997583;0.01
9;1;6;8;letter190;letter169;letter190;letter169;1;0;incongruent;0.12;letter169;0.14;0.07;fullmask;0.2;arrow_left.png;down;1.17601359996479;1.1806576999952085;278728.8785978;2.600019797682762e-06;0.4966662999941036;0.6167562000337057;0.6367835000273772;0.7067966000176966;0.8368684999877587;0.966986800020095;0.01
9;1;6;9;letter190;letter169;letter190;letter169;1;0;congruent;0.12;letter190;0.14;0.07;fullmask;0.2;arrow_left.png;up;0.27495340001769364;0.28030220000073314;278730.7185076;2.700020559132099e-06;0.49529579997761175;0.6153548000147566;0.635353000019677;0.7053888000082225;0.8354765999829397;0.9655713000101969;0.01
9;1;6;10;letter190;letter169;letter190;letter169;1;0;incongruent;0.12;letter190;0.14;0.07;fullmask;0.2;arrow_right.png;up;0.34547170001314953;0.35012519999872893;278732.6306058;2.5999615900218487e-06;0.4966697999625467;0.6167585999937728;0.6367675999645144;0.7068039999576285;0.8368751999805681;0.9669892999809235;0.01
9;1;6;11;letter190;letter169;letter190;letter169;1;0;congruent;0.12;letter190;0.14;0.07;fullmask;0.2;arrow_left.png;up;0.09609299997100607;0.09979850001400337;278734.3027656;2.800021320581436e-06;0.4994887000066228;0.6195688000298105;0.639595200016629;0.7096108000259846;0.839701300021261;0.9697886999929324;0.01
9;1;6;12;letter190;letter169;letter190;letter169;1;0;incongruent;0.12;letter190;0.14;0.07;fullmask;0.2;arrow_right.png;up;0.19533839996438473;0.20047789998352528;278736.0625446;2.5999615900218487e-06;0.49508129997411743;0.6151678999885917;0.6351680999505334;0.7051992999622598;0.8352762999711558;0.9653730999561958;0.01
9;1;7;1;letter190;letter169;letter190;letter169;0;0;congruent;0.04;letter169;0.05;0.07;fullmask;0.2;arrow_right.png;down;2.069980700034648;2.071567100007087;278742.4705551;2.700020559132099e-06;0.5045605999766849;0.5445887999958359;0.5545937999850139;0.6246339000063017;0.754722399986349;0.8848130999831483;0.01
9;1;7;2;letter190;letter169;letter190;letter169;0;0;congruent;0.04;letter169;0.05;0.07;fullmask;0.2;arrow_right.png;down;0.7763062000158243;0.7808023000252433;278744.718627;3.00002284348011e-06;0.4944050000049174;0.5344285999890417;0.5444260999793187;0.6144558999803849;0.7445461000315845;0.8746396999922581;0.01
9;1;7;3;letter190;letter169;letter190;letter169;0;1;incongruent;0.12;letter169;0.14;0.07;fullmask;0.2;arrow_left.png;down;0.002265000017359853;0.010140000027604401;278746.2867174;2.700020559132099e-06;0.49643850000575185;0.6165257999673486;0.636536400008481;0.7065504000056535;0.8366531999781728;0.9667453999863937;0.01
9;1;7;4;letter190;letter169;letter190;letter169;0;0;incongruent;0.04;letter169;0.05;0.07;fullmask;0.2;arrow_left.png;up;0.43907349999062717;0.4398423000238836;278748.2146499;2.700020559132099e-06;0.5055326000438072;0.5455785000231117;0.555561300017871;0.6256070000235923;0.7556548000429757;0.8857923000468872;0.01
9;1;7;5;letter190;letter169;letter190;letter169;0;0;congruent;0.04;letter190;0.05;0.07;fullmask;0.2;arrow_left.png;up;0.28760440001497045;0.2902941000065766;278750.1747517;2.600019797682762e-06;0.49790489999577403;0.5379345000255853;0.5479292999953032;0.617960800009314;0.7480356000014581;0.878150700009428;0.01
9;1;7;6;letter190;letter169;letter190;letter169;0;0;congruent;0.04;letter169;0.05;0.07;fullmask;0.2;arrow_right.png;down;0.41106050001690164;0.4208720999886282;278752.0786474;2.700020559132099e-06;0.5029377000173554;0.5429430000367574;0.5529534000088461;0.6229755000094883;0.7530729999998584;0.8831711999955587;0.01
9;1;7;7;letter190;letter169;letter190;letter169;0;0;incongruent;0.04;letter190;0.05;0.07;fullmask;0.2;arrow_right.png;up;0.19949510000878945;0.20038960000965744;278753.7585949;2.700020559132099e-06;0.4982481000479311;0.5382723000366241;0.5482802000478841;0.6183245000429451;0.7483990000328049;0.8784911000402644;0.01
9;1;7;8;letter190;letter169;letter190;letter169;0;0;congruent;0.04;letter190;0.05;0.07;fullmask;0.2;arrow_left.png;down;0.12619290000293404;0.12966909998795018;278755.3665326;2.700020559132099e-06;0.5044894000166096;0.5445088000269607;0.5545175000443123;0.624552900029812;0.7546554000000469;0.8847375000477768;0.01
9;1;7;9;letter190;letter169;letter190;letter169;0;0;incongruent;0.04;letter169;0.05;0.07;fullmask;0.2;arrow_left.png;down;0.5815548999817111;0.5903970999643207;278757.6228513;2.5999615900218487e-06;0.4977841000072658;0.5377936000004411;0.5477908999891952;0.6178295999998227;0.7479121999931522;0.8780070999637246;0.01
9;1;7;10;letter190;letter169;letter190;letter169;0;0;incongruent;0.04;letter190;0.05;0.07;fullmask;0.2;arrow_right.png;up;0.15626459999475628;0.16063449997454882;278759.2784988;2.700020559132099e-06;0.5038929000147618;0.5439002000493929;0.5539175000158139;0.6239426000392996;0.754026300041005;0.8841314000310376;0.01
9;1;7;11;letter190;letter169;letter190;letter169;0;0;incongruent;0.04;letter190;0.05;0.07;fullmask;0.2;arrow_right.png;up;0.1691821999847889;0.1705480000237003;278760.9425513;2.800021320581436e-06;0.5026366999954917;0.5426724000135437;0.5526664999779314;0.6227062999969348;0.752801000024192;0.8829172999830917;0.01
9;1;7;12;letter190;letter169;letter190;letter169;0;0;incongruent;0.04;letter169;0.05;0.07;fullmask;0.2;arrow_left.png;down;0.09417070000199601;0.100743799994234;278762.5185386;2.700020559132099e-06;0.4958325999905355;0.5358593999990262;0.5458257999853231;0.6158719999948516;0.7459610000369139;0.876032900006976;0.01
9;1;7;13;letter190;letter169;letter190;letter169;0;0;congruent;0.04;letter190;0.05;0.07;fullmask;0.2;arrow_left.png;down;0.3628500000340864;0.3700245000072755;278764.358529;2.5999615900218487e-06;0.49951260001398623;0.5395425999886356;0.549545899964869;0.6195942999911495;0.7496690999832936;0.8797838999889791;0.01
9;1;7;14;letter190;letter169;letter190;letter169;0;0;congruent;0.04;letter169;0.05;0.07;fullmask;0.2;arrow_right.png;down;0.007215199992060661;0.010021800000686198;278766.0546976;2.6999623514711857e-06;0.4982797999982722;0.5382931999629363;0.548327700002119;0.6183391999802552;0.7484491000068374;0.878530599991791;0.01
9;1;7;15;letter190;letter169;letter190;letter169;0;0;congruent;0.04;letter190;0.05;0.07;fullmask;0.2;arrow_left.png;up;0.3245316999964416;0.33018089999677613;278767.8625083;2.6999623514711857e-06;0.50404410000192;0.544061699998565;0.5540797999710776;0.6241113999858499;0.7541889999993145;0.8842892000102438;0.01
9;1;7;16;letter190;letter169;letter190;letter169;0;0;congruent;0.04;letter190;0.05;0.07;fullmask;0.2;arrow_left.png;up;0.2949891000171192;0.300263500015717;278769.6545464;2.5999615900218487e-06;0.5001612000050955;0.5401735999621451;0.5501758999889717;0.6202174999634735;0.7502679000026546;0.8803971000015736;0.01
9;1;7;17;letter190;letter169;letter190;letter169;0;0;incongruent;0.04;letter190;0.05;0.07;fullmask;0.2;arrow_right.png;down;0.3563385000452399;0.3601020000060089;278771.4865413;2.6999623514711857e-06;0.49544559995410964;0.5354713999549858;0.5454798999708146;0.6155032999813557;0.7455916999606416;0.8756923999753781;0.01
9;1;7;18;letter190;letter169;letter190;letter169;0;0;incongruent;0.04;letter169;0.05;0.07;fullmask;0.2;arrow_left.png;up;0.06683189998148009;0.06998169998405501;278773.2386454;2.6999623514711857e-06;0.4984182000043802;0.5384544999687932;0.5484353000065312;0.6184726000064984;0.7485593999736011;0.878659299982246;0.01
9;1;7;19;letter190;letter169;letter190;letter169;0;0;congruent;0.04;letter190;0.05;0.07;fullmask;0.2;arrow_left.png;up;0.5004010999691673;0.5006694999756292;278775.4228513;2.600019797682762e-06;0.5031032000551932;0.543120100046508;0.5531246000318788;0.6231576999998651;0.753236900025513;0.8833639000076801;0.01
9;1;7;20;letter190;letter169;letter190;letter169;0;0;incongruent;0.04;letter190;0.05;0.07;fullmask;0.2;arrow_right.png;up;0.31865109998034313;0.32030000002123415;278777.2225385;2.700020559132099e-06;0.49744300002930686;0.5374834000249393;0.5474723000079393;0.6175057999789715;0.7475954000256024;0.8776968999882229;0.01
9;1;7;21;letter190;letter169;letter190;letter169;0;0;incongruent;0.04;letter190;0.05;0.07;fullmask;0.2;arrow_right.png;down;0.07767329999478534;0.07995729998219758;278778.782552;2.600019797682762e-06;0.5008599000284448;0.5408910000114702;0.5508790000458248;0.6209235000424087;0.7509940000018105;0.8811292000464164;0.01
9;1;7;22;letter190;letter169;letter190;letter169;0;0;incongruent;0.04;letter169;0.05;0.07;fullmask;0.2;arrow_left.png;down;0.5026323000201955;0.5105094999889843;278780.9585776;2.600019797682762e-06;0.497126100002788;0.5371501000481658;0.5471532000228763;0.6171988000278361;0.747267400030978;0.8773957000230439;0.01
9;1;7;23;letter190;letter169;letter190;letter169;0;0;congruent;0.04;letter169;0.05;0.07;fullmask;0.2;arrow_right.png;up;0.34059149998938665;0.3501146999769844;278782.7985637;2.700020559132099e-06;0.5001010000123642;0.5401337000075728;0.5501506000291556;0.6201711000176147;0.7502705000224523;0.8803689000196755;0.01
9;1;7;24;letter190;letter169;letter190;letter169;0;0;congruent;0.04;letter169;0.05;0.07;fullmask;0.2;arrow_right.png;down;0.7439103999640793;0.7508681999752298;278785.2226766;2.5999615900218487e-06;0.4941884999861941;0.5342283999780193;0.5442267999751493;0.6142564999754541;0.7443423999939114;0.8744381999713369;0.01
9;1;7;25;letter190;letter169;letter190;letter169;0;0;incongruent;0.04;letter169;0.05;0.07;fullmask;0.2;arrow_left.png;down;0.013789099990390241;0.02011559996753931;278786.7345655;2.6999623514711857e-06;0.5052806999883614;0.5452996999956667;0.5552964999806136;0.625333399977535;0.7554200000013225;0.8855115000042133;0.01
9;1;7;26;letter190;letter169;letter190;letter169;0;1;incongruent;0.12;letter190;0.14;0.07;fullmask;0.2;arrow_right.png;down;0.32153019995894283;0.3311801999807358;278788.6225506;2.6999623514711857e-06;0.4999266999657266;0.6200025999569334;0.6399982999428175;0.7100384999648668;0.8401167999836616;0.970210799947381;0.01
9;1;7;27;letter190;letter169;letter190;letter169;0;0;congruent;0.04;letter169;0.05;0.07;fullmask;0.2;arrow_right.png;up;1.9917964999913238;2.0016471999697387;278792.2948581;2.700020559132099e-06;0.49912639998365194;0.5391493000206538;0.5491428999812342;0.6191855000215583;0.7492687000194564;0.8793686999706551;0.01
9;1;7;28;letter190;letter169;letter190;letter169;0;0;incongruent;0.04;letter169;0.05;0.07;fullmask;0.2;arrow_left.png;down;2.183083500014618;2.191180700028781;278796.1585354;2.5999615900218487e-06;0.49957739998353645;0.5396019999752752;0.5496203999500722;0.6196367999655195;0.7497368999756873;0.879811399965547;0.01
9;1;7;29;letter190;letter169;letter190;letter169;0;0;incongruent;0.04;letter190;0.05;0.07;fullmask;0.2;arrow_right.png;up;0.6294125999556854;0.6303796999854967;278798.2866514;2.700020559132099e-06;0.5004509999998845;0.5404653999721631;0.5504497999791056;0.6205201999982819;0.7505944999866188;0.8806864999933168;0.01
9;1;7;30;letter190;letter169;letter190;letter169;0;0;congruent;0.04;letter169;0.05;0.07;fullmask;0.2;arrow_right.png;down;0.8558505000546575;0.8607261000433937;278800.6147296;2.700020559132099e-06;0.49734479998005554;0.5373686000239104;0.5473892000154592;0.6174053000286222;0.7475075999973342;0.8775927000096999;0.01
9;1;7;31;letter190;letter169;letter190;letter169;0;1;congruent;0.12;letter169;0.14;0.07;fullmask;0.2;arrow_right.png;down;0.3878870999906212;0.38990110001759604;278802.5585247;2.800021320581436e-06;0.4969221000210382;0.617014300019946;0.6370202000252903;0.7070535999955609;0.8371399000170641;0.967251900001429;0.01
9;1;7;32;letter190;letter169;letter190;letter169;0;0;congruent;0.04;letter190;0.05;0.07;fullmask;0.2;arrow_left.png;up;0.6872990999836475;0.6911651000264101;278804.7185095;2.700020559132099e-06;0.5000418000272475;0.5400784999947064;0.5500652000191621;0.6200902000418864;0.7501842000056058;0.8803026000387035;0.01
9;1;7;33;letter190;letter169;letter190;letter169;0;0;congruent;0.04;letter169;0.05;0.07;fullmask;0.2;arrow_right.png;down;0.6038872000062838;0.6105294000008143;278806.8065222;2.700020559132099e-06;0.501739599974826;0.5417299999971874;0.5517751000006683;0.6218094999785535;0.7518869999912567;0.8819893000181764;0.01
9;1;7;34;letter190;letter169;letter190;letter169;0;0;incongruent;0.04;letter190;0.05;0.07;fullmask;0.2;arrow_right.png;up;0.5065432999981567;0.5106581000145525;278808.7906954;2.600019797682762e-06;0.49845620000269264;0.5384606000152417;0.5484922000323422;0.6185018999967724;0.748604400025215;0.8786733000306413;0.01
9;1;7;35;letter190;letter169;letter190;letter169;0;0;congruent;0.04;letter190;0.05;0.07;fullmask;0.2;arrow_left.png;down;0.2511333000147715;0.26022489997558296;278810.526551;2.700020559132099e-06;0.5008971000206657;0.5409046999993734;0.5509100999915972;0.6209492000052705;0.7510364000336267;0.8811349000316113;0.01
9;1;7;36;letter190;letter169;letter190;letter169;0;0;incongruent;0.04;letter190;0.05;0.07;fullmask;0.2;arrow_right.png;up;0.5433166000293568;0.5505953999818303;278812.7505081;2.700020559132099e-06;0.4998151999898255;0.539832699985709;0.5498335000011139;0.6198699999949895;0.7499512999784201;0.8800416000303812;0.01
9;1;7;37;letter190;letter169;letter190;letter169;0;0;congruent;0.04;letter190;0.05;0.07;fullmask;0.2;arrow_left.png;up;0.13072590000228956;0.14068910002242774;278814.3585728;2.600019797682762e-06;0.503262700047344;0.5432738999952562;0.5533023000461981;0.6233184000011533;0.7534128000261262;0.8835144000477158;0.01
9;1;7;38;letter190;letter169;letter190;letter169;0;0;incongruent;0.04;letter169;0.05;0.07;fullmask;0.2;arrow_left.png;up;0.5555014999699779;0.5606708999839611;278816.4147035;2.600019797682762e-06;0.503264400002081;0.5432847000192851;0.55330710002454;0.6233163000433706;0.7534250000026077;0.8835127000347711;0.01
9;1;7;39;letter190;letter169;letter190;letter169;0;0;incongruent;0.04;letter169;0.05;0.07;fullmask;0.2;arrow_left.png;up;2.0140169000369497;2.0214917000266723;278820.0944486;2.8999638743698597e-06;0.4977229000069201;0.5377839999855496;0.5477472000056878;0.6177792999660596;0.7478847000165842;0.8779745000065304;0.01
9;1;7;40;letter190;letter169;letter190;letter169;0;0;congruent;0.04;letter169;0.05;0.07;fullmask;0.2;arrow_right.png;down;1.7214468999882229;1.7314592999755405;278823.4947874;2.600019797682762e-06;0.49689710000529885;0.5369211999932304;0.5469122999929823;0.6169543000287376;0.7470419000019319;0.87714340002276;0.01
9;1;7;41;letter190;letter169;letter190;letter169;0;0;congruent;0.04;letter190;0.05;0.07;fullmask;0.2;arrow_left.png;down;0.4215373999904841;0.43077330000232905;278825.4066411;2.7999631129205227e-06;0.49761839996790513;0.5376160999876447;0.5476237999973819;0.6176686999970116;0.7477400999632664;0.8778599000070244;0.01
9;1;7;42;letter190;letter169;letter190;letter169;0;0;congruent;0.04;letter169;0.05;0.07;fullmask;0.2;arrow_right.png;up;2.159572799981106;2.161193199979607;278829.2464811;2.800021320581436e-06;0.5036658000317402;0.5436758000287227;0.5536978000309318;0.6237296999897808;0.7538185000303201;0.8839076000149362;0.01
9;1;7;43;letter190;letter169;letter190;letter169;0;0;incongruent;0.04;letter169;0.05;0.07;fullmask;0.2;arrow_left.png;down;1.9175886000157334;1.9219849000219256;278832.8465791;2.700020559132099e-06;0.5038893999881111;0.5439265000168234;0.5539521999889985;0.6239482000237331;0.7540634000324644;0.8841421999968588;0.01
9;1;7;44;letter190;letter169;letter190;letter169;0;1;congruent;0.12;letter190;0.14;0.07;fullmask;0.2;arrow_left.png;up;0.9390413999790326;0.9405508000054397;278835.3505811;2.600019797682762e-06;0.4989487000275403;0.6190186000312679;0.6390464000287466;0.7090647000004537;0.8391458000405692;0.9692656000261195;0.01
9;1;7;45;letter190;letter169;letter190;letter169;0;0;incongruent;0.04;letter190;0.05;0.07;fullmask;0.2;arrow_right.png;down;0.6638123999582604;0.6702724999631755;278837.4864903;2.700020559132099e-06;0.5032505000126548;0.5432768000173382;0.553282400011085;0.6233037000056356;0.7533869000035338;0.8835147999925539;0.01
9;1;7;46;letter190;letter169;letter190;letter169;0;0;congruent;0.04;letter169;0.05;0.07;fullmask;0.2;arrow_right.png;down;0.737585199996829;0.739933300006669;278839.9024838;2.600019797682762e-06;0.4971875000046566;0.537160900013987;0.5471952999942005;0.6172046000137925;0.7473153999890201;0.87739059998421;0.01
9;1;7;47;letter190;letter169;letter190;letter169;0;0;incongruent;0.04;letter190;0.05;0.07;fullmask;0.2;arrow_right.png;up;0.5433472999720834;0.5505471999640577;278841.9187785;2.800021320581436e-06;0.49946010002167895;0.5394819999928586;0.5495094999787398;0.6195278000086546;0.7496362999663688;0.8797199999680743;0.01
9;1;7;48;letter190;letter169;letter190;letter169;0;0;incongruent;0.04;letter169;0.05;0.07;fullmask;0.2;arrow_left.png;down;0.5869334999588318;0.5903454999788664;278843.9744575;2.600019797682762e-06;0.4972601000335999;0.5372842000215314;0.5472975000157021;0.617313600028865;0.747410400013905;0.8775066999951378;0.01
9;1;7;49;letter190;letter169;letter190;letter169;0;0;congruent;0.04;letter190;0.05;0.07;fullmask;0.2;arrow_left.png;down;0.515809900010936;0.520630799990613;278845.9744392;2.800021320581436e-06;0.4982343000010587;0.5382608000072651;0.5482530000153929;0.6182922000298277;0.7483960000099614;0.8784783000010066;0.01
9;1;7;50;letter190;letter169;letter190;letter169;0;0;incongruent;0.04;letter169;0.05;0.07;fullmask;0.2;arrow_left.png;down;0.7083765999996103;0.710020300000906;278848.3584397;2.700020559132099e-06;0.49923800001852214;0.5392591999843717;0.5492978999973275;0.6192971999989823;0.7494137000176124;0.8795019999961369;0.01
9;1;7;51;letter190;letter169;letter190;letter169;0;0;incongruent;0.04;letter190;0.05;0.07;fullmask;0.2;arrow_right.png;up;0.5626690999488346;0.5695416999515146;278850.4144721;2.700020559132099e-06;0.5035585000296123;0.5435771000338718;0.5535810000146739;0.6239854000159539;0.7537076000007801;0.8838121999870054;0.01
9;1;7;52;letter190;letter169;letter190;letter169;0;0;congruent;0.04;letter190;0.05;0.07;fullmask;0.2;arrow_left.png;down;0.5844279999728315;0.590511099959258;278852.4867823;2.6999623514711857e-06;0.5022316999966279;0.5422199999447912;0.5522564999992028;0.6222880999557674;0.7523868999560364;0.8824766999459825;0.01
9;1;8;1;letter190;letter169;letter190;letter169;0;0;congruent;0.04;letter190;0.05;0.07;fullmask;0.2;arrow_left.png;up;0.33023929997580126;0.3401459999731742;278857.4465423;2.5999615900218487e-06;0.4980632999795489;0.5380833999952301;0.548097399994731;0.6181322999764234;0.748218699998688;0.8783129999646917;0.01
9;1;8;2;letter190;letter169;letter190;letter169;0;0;incongruent;0.04;letter190;0.05;0.07;fullmask;0.2;arrow_right.png;down;0.5357742999913171;0.5406792999710888;278859.4626732;2.700020559132099e-06;0.49754210002720356;0.5375554000493139;0.5475738000241108;0.6175925999996252;0.7476968000410125;0.8777819000533782;0.01
9;1;8;3;letter190;letter169;letter190;letter169;0;0;incongruent;0.04;letter190;0.05;0.07;fullmask;0.2;arrow_right.png;up;0.7040442999568768;0.7111150000127964;278861.8624978;2.6999623514711857e-06;0.5052536999573931;0.5452856999472715;0.5552986999973655;0.6253160999622196;0.7554124999442138;0.8855087999836542;0.01
9;1;8;4;letter190;letter169;letter190;letter169;0;1;congruent;0.12;letter190;0.14;0.07;fullmask;0.2;arrow_left.png;down;0.330495800008066;0.34070370002882555;278863.7505023;2.700020559132099e-06;0.499103499983903;0.6191855000215583;0.6391939999884926;0.7092278000200167;0.8392899999744259;0.9694028999656439;0.01
9;1;8;5;letter190;letter169;letter190;letter169;0;0;congruent;0.04;letter169;0.05;0.07;fullmask;0.2;arrow_right.png;down;0.9350087000057101;0.9404084999696352;278866.3664719;2.600019797682762e-06;0.49839170003542677;0.5384237000253052;0.5484152000281028;0.6184544000425376;0.7485441000317223;0.8786416000220925;0.01
9;1;8;6;letter190;letter169;letter190;letter169;0;0;incongruent;0.04;letter190;0.05;0.07;fullmask;0.2;arrow_right.png;down;0.44124790001660585;0.4498623000108637;278868.2944529;2.600019797682762e-06;0.5035520000383258;0.5435543000348844;0.5535845000413246;0.6235966000240296;0.7537201000377536;0.8837849000119604;0.01
9;1;8;7;letter190;letter169;letter190;letter169;0;0;incongruent;0.04;letter169;0.05;0.07;fullmask;0.2;arrow_left.png;down;0.5500988000421785;0.5506078000180423;278870.5345391;2.5999615900218487e-06;0.5003060000017285;0.5403190999641083;0.5503456000005826;0.6203737999894656;0.7504553999751806;0.8805380999692716;0.01
9;1;8;8;letter190;letter169;letter190;letter169;0;0;incongruent;0.04;letter169;0.05;0.07;fullmask;0.2;arrow_left.png;down;0.38876239996170625;0.39002479996997863;278872.4145644;2.6999623514711857e-06;0.5040117999888025;0.544008800003212;0.5540323999593966;0.6240598000003956;0.7541588000021875;0.8842523999628611;0.01
9;1;8;9;letter190;letter169;letter190;letter169;0;0;incongruent;0.04;letter190;0.05;0.07;fullmask;0.2;arrow_right.png;up;0.4636989000136964;0.47080650000134483;278874.3504548;2.700020559132099e-06;0.5022276999661699;0.5422623999766074;0.5522583000129089;0.62228170002345;0.7523654999677092;0.8824605999980122;0.01
9;1;8;10;letter190;letter169;letter190;letter169;0;0;congruent;0.04;letter169;0.05;0.07;fullmask;0.2;arrow_right.png;down;0.4244701999705285;0.4299584999680519;278876.2627568;2.700020559132099e-06;0.5033545000478625;0.5433601000113413;0.5533678000210784;0.623400800046511;0.7534797000116669;0.8835875000222586;0.01
9;1;8;11;letter190;letter169;letter190;letter169;0;0;incongruent;0.04;letter169;0.05;0.07;fullmask;0.2;arrow_left.png;down;0.4965869999723509;0.4997282000258565;278878.2464647;2.700020559132099e-06;0.4960494000115432;0.5360747000086121;0.5460657000076026;0.6161160999909043;0.7461870000115596;0.8762909999932162;0.01
9;1;8;12;letter190;letter169;letter190;letter169;0;0;congruent;0.04;letter190;0.05;0.07;fullmask;0.2;arrow_left.png;down;0.5657640999997966;0.5704981000162661;278880.2866703;2.6999623514711857e-06;0.5026852999581024;0.5427068999852054;0.5527053999830969;0.6227415999746881;0.7528369999490678;0.8829310999717563;0.01
9;1;8;13;letter190;letter169;letter190;letter169;0;0;congruent;0.04;letter169;0.05;0.07;fullmask;0.2;arrow_right.png;down;0.37598130002152175;0.38014980003936216;278882.3586343;2.700020559132099e-06;0.5021496000117622;0.542163799982518;0.55216510000173;0.622200799989514;0.75230819999706;0.8823991999961436;0.01
9;1;8;14;letter190;letter169;letter190;letter169;0;0;incongruent;0.04;letter190;0.05;0.07;fullmask;0.2;arrow_right.png;up;0.6431608999846503;0.6505023000063375;278884.4864132;2.5999615900218487e-06;0.49862269998993725;0.5386493999976665;0.5486708999960683;0.6186829999787733;0.7487777000060305;0.8788921000086702;0.01
9;1;8;15;letter190;letter169;letter190;letter169;0;0;congruent;0.04;letter169;0.05;0.07;fullmask;0.2;arrow_right.png;down;0.7919833000050858;0.8009255999932066;278886.7664739;2.5999615900218487e-06;0.4959421000094153;0.5359613999607973;0.5459611999685876;0.6159937999909744;0.7460743999690749;0.8761734999716282;0.01
9;1;8;16;letter190;letter169;letter190;letter169;0;0;incongruent;0.04;letter169;0.05;0.07;fullmask;0.2;arrow_left.png;down;0.5237807999947108;0.5295972999883816;278888.790386;2.600019797682762e-06;0.5005910000181757;0.540621199994348;0.550627299991902;0.6206579999998212;0.7507345000049099;0.8808497000136413;0.01
9;1;8;17;letter190;letter169;letter190;letter169;0;0;incongruent;0.04;letter169;0.05;0.07;fullmask;0.2;arrow_left.png;down;0.6414999000262469;0.6512988000176847;278890.9187811;2.7999631129205227e-06;0.5030494999955408;0.5430918000056408;0.5530899000004865;0.6231254999875091;0.7532218999695033;0.8833075999864377;0.01
9;1;8;18;letter190;letter169;letter190;letter169;0;0;congruent;0.04;letter190;0.05;0.07;fullmask;0.2;arrow_left.png;up;0.8958686999976635;0.9006075999932364;278893.2944537;2.7999631129205227e-06;0.4981976999551989;0.5382083999575116;0.5482085999683477;0.6182338999933563;0.7483309999806806;0.8784511999692768;0.01
9;1;8;19;letter190;letter169;letter190;letter169;0;0;congruent;0.04;letter169;0.05;0.07;fullmask;0.2;arrow_right.png;down;0.516405800008215;0.5206663999706507;278895.2865117;2.6999623514711857e-06;0.49583479994907975;0.5358846999588422;0.5458636999828741;0.6159051999566145;0.7459730999544263;0.8760800999589264;0.01
9;1;8;20;letter190;letter169;letter190;letter169;0;0;congruent;0.04;letter169;0.05;0.07;fullmask;0.2;arrow_right.png;down;0.610845299961511;0.6203543999581598;278897.3824041;2.5999615900218487e-06;0.5047399000031874;0.5447532999678515;0.5547637999989092;0.624802100006491;0.7548674999852665;0.8849675999954343;0.01
9;1;8;21;letter190;letter169;letter190;letter169;0;0;incongruent;0.04;letter169;0.05;0.07;fullmask;0.2;arrow_left.png;down;0.6310144999879412;0.6402205000049435;278899.4945803;2.7999631129205227e-06;0.4980411999858916;0.5380624000099488;0.5480795999756083;0.6181135000078939;0.748173100000713;0.8782860999926925;0.01
9;1;8;22;letter190;letter169;letter190;letter169;0;0;congruent;0.04;letter190;0.05;0.07;fullmask;0.2;arrow_left.png;down;0.47837960004108027;0.4807324000285007;278901.462423;2.7999631129205227e-06;0.500842199951876;0.5408392999670468;0.5508784999838099;0.6209051999612711;0.7509921999881044;0.8810867999563925;0.01
9;1;8;23;letter190;letter169;letter190;letter169;0;0;congruent;0.04;letter190;0.05;0.07;fullmask;0.2;arrow_left.png;down;0.519045700028073;0.5206719000125304;278903.6544403;2.800021320581436e-06;0.49619040003744885;0.5362110999994911;0.5462254000012763;0.6162734000245109;0.7463331000180915;0.8764434999902733;0.01
9;1;8;24;letter190;letter169;letter190;letter169;0;0;incongruent;0.04;letter190;0.05;0.07;fullmask;0.2;arrow_right.png;down;1.2557924999855459;1.261626299994532;278906.5826443;2.600019797682762e-06;0.494039100012742;0.5340711000026204;0.5440769999986514;0.6140988999977708;0.7441860000253655;0.8742825000081211;0.01
9;1;8;25;letter190;letter169;letter190;letter169;0;1;incongruent;0.12;letter190;0.14;0.07;fullmask;0.2;arrow_right.png;up;0.4706785000162199;0.47991320001892745;278908.8304569;2.700020559132099e-06;0.5043698999797925;0.624456099991221;0.644460599985905;0.7144797000219114;0.8445748999947682;0.9746837000129744;0.01
9;1;8;26;letter190;letter169;letter190;letter169;0;0;congruent;0.04;letter169;0.05;0.07;fullmask;0.2;arrow_right.png;down;0.5974895000108518;0.6004131000372581;278910.9183959;2.7999631129205227e-06;0.5055126000079326;0.5455202999874018;0.5555269999895245;0.6255598999559879;0.7556414999999106;0.8857520999736153;0.01
9;1;8;27;letter190;letter169;letter190;letter169;0;0;congruent;0.04;letter190;0.05;0.07;fullmask;0.2;arrow_left.png;up;0.983770800055936;0.9914060000446625;278913.3751718;2.700020559132099e-06;0.5009157000458799;0.5409409000421874;0.5509336999966763;0.6209662000183016;0.7510524000390433;0.8811569000245072;0.01
9;1;8;28;letter190;letter169;letter190;letter169;0;0;congruent;0.04;letter190;0.05;0.07;fullmask;0.2;arrow_left.png;up;0.7007809999631718;0.7100468999706209;278915.5745769;2.5999615900218487e-06;0.5035750999813899;0.5435954999993555;0.5536028000060469;0.6236442999797873;0.7537274999776855;0.8838177999714389;0.01
9;1;8;29;letter190;letter169;letter190;letter169;0;0;incongruent;0.04;letter169;0.05;0.07;fullmask;0.2;arrow_left.png;down;0.3018113999860361;0.3101850000093691;278917.3664203;2.500019036233425e-06;0.49723350000567734;0.5372334999847226;0.5472707999870181;0.6172824999666773;0.7473640000098385;0.8774483000161126;0.01
9;1;8;30;letter190;letter169;letter190;letter169;0;0;incongruent;0.04;letter190;0.05;0.07;fullmask;0.2;arrow_right.png;up;0.9081444999901578;0.9106261999695562;278919.7744242;2.5999615900218487e-06;0.5057014999911189;0.5457177999778651;0.5557207999518141;0.6257788999937475;0.7558359999675304;0.8859436999773607;0.01
9;1;8;31;letter190;letter169;letter190;letter169;0;0;congruent;0.04;letter190;0.05;0.07;fullmask;0.2;arrow_left.png;up;0.8915179999894463;0.9017413000110537;278922.1587011;2.4999608285725117e-06;0.5055976999574341;0.5456103999749757;0.5556150999618694;0.6256534999702126;0.7557484999997541;0.8858453999855556;0.01
9;1;8;32;letter190;letter169;letter190;letter169;0;0;incongruent;0.04;letter169;0.05;0.07;fullmask;0.2;arrow_left.png;up;0.9592058999696746;0.9603534999769181;278924.5983208;2.600019797682762e-06;0.4985390000510961;0.5385450000176206;0.5485634000506252;0.61858430004213;0.7486838000477292;0.8787705000140704;0.01
9;1;8;33;letter190;letter169;letter190;letter169;0;0;congruent;0.04;letter190;0.05;0.07;fullmask;0.2;arrow_left.png;down;0.44549820001702756;0.4498611000017263;278926.7264274;2.5999615900218487e-06;0.49427969998214394;0.5343035999685526;0.5442989000002854;0.6143444000044838;0.7444155999692157;0.8745246999897063;0.01
9;1;8;34;letter190;letter169;letter190;letter169;0;0;congruent;0.04;letter169;0.05;0.07;fullmask;0.2;arrow_right.png;down;0.7948506000102498;0.8010497000068426;278929.2067093;2.700020559132099e-06;0.5036390000022948;0.5436358000151813;0.5536527999793179;0.6236944000120275;0.7537583999801427;0.8838683000067249;0.01
9;1;8;35;letter190;letter169;letter190;letter169;0;1;congruent;0.12;letter169;0.14;0.07;fullmask;0.2;arrow_right.png;down;0.8964644999941811;0.9005154999904335;278931.6704381;2.6999623514711857e-06;0.5017219999572262;0.6217774999677204;0.6418161999899894;0.7118284999742173;0.8419274999760091;0.9720116999815218;0.01
9;1;8;36;letter190;letter169;letter190;letter169;0;0;congruent;0.04;letter169;0.05;0.07;fullmask;0.2;arrow_right.png;down;0.6074837999767624;0.6104319000151008;278933.7824029;2.6999623514711857e-06;0.5014987000031397;0.5415151999914087;0.5515249999589287;0.6215766000095755;0.7516553999739699;0.8817475999821909;0.01
9;1;8;37;letter190;letter169;letter190;letter169;0;0;congruent;0.04;letter169;0.05;0.07;fullmask;0.2;arrow_right.png;up;0.9100156999775209;0.9108071000082418;278936.1665822;2.700020559132099e-06;0.5026585999876261;0.5426898000296205;0.5526947000180371;0.6227272999822162;0.7528166000265628;0.8829030999913812;0.01
9;1;8;38;letter190;letter169;letter190;letter169;0;0;congruent;0.04;letter190;0.05;0.07;fullmask;0.2;arrow_left.png;up;0.46194799995282665;0.47075819998281077;278938.3103946;2.600019797682762e-06;0.5039545000181533;0.543972700019367;0.5539771000039764;0.6240120999864303;0.7540995000163093;0.884207500028424;0.01
9;1;8;39;letter190;letter169;letter190;letter169;0;0;incongruent;0.04;letter190;0.05;0.07;fullmask;0.2;arrow_right.png;up;0.5125699000200257;0.5206700999988243;278940.3023655;2.6999623514711857e-06;0.49443479999899864;0.5344685000018217;0.5444648999837227;0.6145385999698192;0.7445829999633133;0.8746846999856643;0.01
9;1;8;40;letter190;letter169;letter190;letter169;0;0;incongruent;0.04;letter190;0.05;0.07;fullmask;0.2;arrow_right.png;up;0.495942700013984;0.500576300022658;278942.2864417;2.5999615900218487e-06;0.5037889999803156;0.543833999952767;0.5538435999769717;0.6238941999617964;0.7539545999607071;0.8840479999780655;0.01
9;1;8;41;letter190;letter169;letter190;letter169;0;0;congruent;0.04;letter169;0.05;0.07;fullmask;0.2;arrow_right.png;down;0.48310690000653267;0.4907488999888301;278944.2551385;2.700020559132099e-06;0.5017430000007153;0.5417690000031143;0.5517871999763884;0.62180389999412;0.7518817000091076;0.8819773999857716;0.01
9;1;8;42;letter190;letter169;letter190;letter169;0;0;incongruent;0.04;letter190;0.05;0.07;fullmask;0.2;arrow_right.png;down;0.8106100999866612;0.8198277000337839;278946.5344722;2.8999638743698597e-06;0.49629119999008253;0.5362963000079617;0.5463155999896117;0.6163382999948226;0.7464343999745324;0.8765154999564402;0.01
9;1;8;43;letter190;letter169;letter190;letter169;0;0;incongruent;0.04;letter190;0.05;0.07;fullmask;0.2;arrow_right.png;down;0.415424200007692;0.42088809999404475;278948.6303591;2.700020559132099e-06;0.4959949000040069;0.5360228000208735;0.5460542000364512;0.6160508000175469;0.7461694000521675;0.8762409000191838;0.01
9;1;8;44;letter190;letter169;letter190;letter169;0;0;incongruent;0.04;letter169;0.05;0.07;fullmask;0.2;arrow_left.png;down;0.3775636000209488;0.3799980999901891;278950.6943422;2.700020559132099e-06;0.5037807000335306;0.5437818000209518;0.5538028000155464;0.6238282000413164;0.753924900025595;0.8840263999882154;0.01
9;1;8;45;letter190;letter169;letter190;letter169;0;0;incongruent;0.04;letter169;0.05;0.07;fullmask;0.2;arrow_left.png;down;0.600744700001087;0.6105305000091903;278952.7587007;2.800021320581436e-06;0.49878060002811253;0.5387913000304252;0.5488105000113137;0.6188337000203319;0.7489286999916658;0.8790194999892265;0.01
9;1;8;46;letter190;letter169;letter190;letter169;0;0;incongruent;0.04;letter190;0.05;0.07;fullmask;0.2;arrow_right.png;up;0.5257715999614447;0.5305054999771528;278954.7744278;2.600019797682762e-06;0.5039025000296533;0.5439078999916092;0.5539948000223376;0.6239729000371881;0.7540576999890618;0.8841464000288397;0.01
9;1;8;47;letter190;letter169;letter190;letter169;0;0;incongruent;0.04;letter169;0.05;0.07;fullmask;0.2;arrow_left.png;down;0.1723854000447318;0.1805875000427477;278956.4223672;2.5999615900218487e-06;0.5006461999728344;0.5406714999699034;0.5506392999668606;0.6207054000115022;0.7507972999592312;0.8809009999968112;0.01
9;1;8;48;letter190;letter169;letter190;letter169;0;0;congruent;0.04;letter190;0.05;0.07;fullmask;0.2;arrow_left.png;up;0.4970587999559939;0.5005792999872938;278958.398396;2.7999631129205227e-06;0.4986380999907851;0.5386376999667846;0.5486496999510564;0.6186900999746285;0.74878699996043;0.8788787999656051;0.01
9;1;8;49;letter190;letter169;letter190;letter169;0;0;congruent;0.04;letter169;0.05;0.07;fullmask;0.2;arrow_right.png;down;1.1183537999750115;1.1209657000144944;278960.9905489;2.800021320581436e-06;0.5030031999922357;0.5429803000297397;0.5529885999858379;0.6230184999876656;0.753101299982518;0.8831974000204355;0.01
9;1;8;50;letter190;letter169;letter190;letter169;0;0;congruent;0.04;letter190;0.05;0.07;fullmask;0.2;arrow_left.png;up;0.8540337999584153;0.8607625999720767;278963.3183907;2.6999623514711857e-06;0.4989697999553755;0.5389972999691963;0.5490046999766491;0.6190294999978505;0.749128999945242;0.8792205999488942;0.01
9;1;8;51;letter190;letter169;letter190;letter169;0;0;incongruent;0.04;letter169;0.05;0.07;fullmask;0.2;arrow_left.png;down;0.5528564999694936;0.5605661000008695;278965.3583172;2.600019797682762e-06;0.5038106000283733;0.5438350000185892;0.5538348000263795;0.62387630000012;0.7539280999917537;0.8840449000126682;0.01
9;1;8;52;letter190;letter169;letter190;letter169;0;1;incongruent;0.12;letter169;0.14;0.07;fullmask;0.2;arrow_left.png;down;0.3416084000491537;0.3508140000049025;278967.2783864;2.600019797682762e-06;0.5016266000457108;0.6216972999973223;0.6417034000041895;0.7117352000204846;0.8418293000431731;0.9719295999966562;0.01
9;2;14;1;letter181;letter357;letter357;letter181;1;0;congruent;0.12;letter357;0.18;0.07;fullmask;0.2;arrow_right.png;down;0.9150095999939367;0.9214397999458015;279911.8935633;2.6999623514711857e-06;0.49583390000043437;0.6159268000046723;0.6759286999586038;0.7459592999657616;0.8760492999572307;1.0061508999788202;0.01
9;2;14;2;letter181;letter357;letter357;letter181;1;0;incongruent;0.12;letter357;0.18;0.07;fullmask;0.2;arrow_left.png;up;0.5748409999650903;0.580499499978032;279914.2855433;2.700020559132099e-06;0.5035745000350289;0.6236315999994986;0.683681600028649;0.7537241000100039;0.8837955000344664;1.0139062000089325;0.01
9;2;14;3;letter181;letter357;letter357;letter181;1;0;incongruent;0.12;letter181;0.18;0.07;fullmask;0.2;arrow_right.png;up;0.22571079997578636;0.23031229997286573;279916.1177995;2.7999631129205227e-06;0.5037988999974914;0.6238663999829441;0.6839126999839209;0.7539503999869339;0.8840289999498054;1.0141299999668263;0.01
9;2;14;4;letter181;letter357;letter357;letter181;1;0;congruent;0.12;letter357;0.18;0.07;fullmask;0.2;arrow_right.png;up;0.4340129000484012;0.43998790002660826;279918.3579027;2.800021320581436e-06;0.4976485000224784;0.6177276999806054;0.6777586999814957;0.7477906999993138;0.8778812999953516;1.0080083000357263;0.01
9;2;14;5;letter181;letter357;letter357;letter181;1;0;congruent;0.12;letter181;0.18;0.07;fullmask;0.2;arrow_left.png;down;0.2890587000292726;0.2902443000348285;279920.253534;2.700020559132099e-06;0.498731300001964;0.6188026000163518;0.6788604999892414;0.7488695000065491;0.8789590999949723;1.0090540000237525;0.01
9;2;14;6;letter181;letter357;letter357;letter181;1;0;congruent;0.12;letter181;0.18;0.07;fullmask;0.2;arrow_left.png;down;0.20394170004874468;0.21045160002540797;279922.0695437;2.900022082030773e-06;0.5016820000018924;0.6217481000348926;0.681793000025209;0.7518251999863423;0.8819062000256963;1.012006399978418;0.01
9;2;14;7;letter181;letter357;letter357;letter181;1;0;congruent;0.12;letter357;0.18;0.07;fullmask;0.2;arrow_right.png;up;0.07055969996144995;0.08002080000005662;279923.7577026;2.800021320581436e-06;0.5026483000256121;0.6227366999955848;0.6827637000242248;0.7528079000185244;0.8828723000478931;1.0129778000409715;0.01
9;2;14;8;letter181;letter357;letter357;letter181;1;0;incongruent;0.12;letter357;0.18;0.07;fullmask;0.2;arrow_left.png;up;0.045134900021366775;0.050190199981443584;279925.4136148;2.600019797682762e-06;0.49781490000896156;0.61788209999213;0.6779250000254251;0.7479527000105008;0.8780453000217676;1.008134700008668;0.01
9;2;14;9;letter181;letter357;letter357;letter181;1;0;incongruent;0.12;letter181;0.18;0.07;fullmask;0.2;arrow_right.png;down;0.1549356000032276;0.16044430003967136;279927.1737457;2.600019797682762e-06;0.5019321999861859;0.62199720001081;0.6820250999880955;0.7520607999758795;0.8821574000176042;1.0122592999832705;0.01
9;2;14;10;letter181;letter357;letter357;letter181;1;0;congruent;0.12;letter181;0.18;0.07;fullmask;0.2;arrow_left.png;down;0.49765779997687787;0.5007198000093922;279929.2776565;2.6999623514711857e-06;0.49496859998907894;0.6150347999646328;0.6750832999823615;0.7451160000055097;0.8751919000060298;1.0052961999899708;0.01
9;2;14;11;letter181;letter357;letter357;letter181;1;0;incongruent;0.12;letter181;0.18;0.07;fullmask;0.2;arrow_right.png;down;0.09745750000001863;0.0997510000015609;279930.9895182;2.900022082030773e-06;0.5045624999911524;0.6246176999993622;0.6846678000292741;0.7546784000005573;0.8847638000152074;1.014867999998387;0.01
9;2;14;12;letter181;letter357;letter357;letter181;1;0;incongruent;0.12;letter357;0.18;0.07;fullmask;0.2;arrow_left.png;up;0.058099000016227365;0.0597513000248;279932.6615003;2.6999623514711857e-06;0.5031440999591723;0.6232051000115462;0.6832463999744505;0.7532888000132516;0.883350599964615;1.0134585999767296;0.01
9;2;15;1;letter181;letter357;letter357;letter181;0;1;incongruent;0.12;letter181;0.18;0.07;fullmask;0.2;arrow_right.png;down;2.480513700051233;2.4814049000269733;279945.1097528;2.900022082030773e-06;0.4979033999843523;0.617974900000263;0.6780097000300884;0.7480496999924071;0.8781318999826908;1.008221800031606;0.01
9;2;15;2;letter181;letter357;letter357;letter181;0;0;congruent;0.04;letter357;0.09;0.07;fullmask;0.2;arrow_right.png;up;0.607932900020387;0.6103862000163645;279947.2296925;2.900022082030773e-06;0.49613220000173897;0.5361692000296898;0.5861838000128046;0.6562226000241935;0.7863010999863036;0.9164078999892808;0.01
9;2;15;3;letter181;letter357;letter357;letter181;0;0;congruent;0.04;letter357;0.09;0.07;fullmask;0.2;arrow_right.png;up;0.23007779999170452;0.23036190000129864;279948.9735393;2.600019797682762e-06;0.4991870999801904;0.5392086000065319;0.5892442999756895;0.6592777000041679;0.7893538000062108;0.9194606000091881;0.01
9;2;15;4;letter181;letter357;letter357;letter181;0;0;congruent;0.04;letter181;0.09;0.07;fullmask;0.2;arrow_left.png;up;0.36116149998269975;0.37007489998359233;279950.8458974;2.8999638743698597e-06;0.4995236999820918;0.5395429999916814;0.5895733999786898;0.6596027999767102;0.7896996999625117;0.9197973000118509;0.01
9;2;15;5;letter181;letter357;letter357;letter181;0;0;congruent;0.04;letter181;0.09;0.07;fullmask;0.2;arrow_left.png;down;0.4094891999848187;0.4097405999782495;279952.9655978;2.600019797682762e-06;0.4951499000308104;0.5351745000225492;0.5852168999845162;0.6552612999803387;0.7853382999892347;0.915429699991364;0.01
9;2;15;6;letter181;letter357;letter357;letter181;0;0;incongruent;0.04;letter357;0.09;0.07;fullmask;0.2;arrow_left.png;down;0.24798499996541068;0.24939539999468252;279954.7255897;2.500019036233425e-06;0.49702790001174435;0.537036599998828;0.5870552000124007;0.6570995000074618;0.7871963999932632;0.9172861999832094;0.01
9;2;15;7;letter181;letter357;letter357;letter181;0;0;congruent;0.04;letter181;0.09;0.07;fullmask;0.2;arrow_left.png;down;0.5036721000215039;0.5105847999802791;279956.9415842;2.700020559132099e-06;0.5025600999942981;0.5425862999982201;0.5926139000221156;0.6626536999829113;0.7927416000165977;0.9228298999951221;0.01
9;2;15;8;letter181;letter357;letter357;letter181;0;0;congruent;0.04;letter357;0.09;0.07;fullmask;0.2;arrow_right.png;up;0.1459069999982603;0.14966319996165112;279958.6055769;2.700020559132099e-06;0.49961689999327064;0.5396224000141956;0.5896596999955364;0.6596967999939807;0.7897848000284284;0.9198810000088997;0.01
9;2;15;9;letter181;letter357;letter357;letter181;0;0;incongruent;0.04;letter181;0.09;0.07;fullmask;0.2;arrow_right.png;down;0.5647721999557689;0.5705254999920726;279960.6857471;2.600019797682762e-06;0.49643589998595417;0.536455699999351;0.5864691000315361;0.6565104000037536;0.7865764999878593;0.9166844999999739;0.01
9;2;15;10;letter181;letter357;letter357;letter181;0;0;incongruent;0.04;letter181;0.09;0.07;fullmask;0.2;arrow_right.png;down;0.5711594999884255;0.580371499992907;279962.7735127;2.900022082030773e-06;0.503742000029888;0.5437862999970093;0.5938007000368088;0.6638413000036962;0.7939335000119172;0.9240173000143841;0.01
9;2;15;11;letter181;letter357;letter357;letter181;0;0;incongruent;0.04;letter357;0.09;0.07;fullmask;0.2;arrow_left.png;up;0.47002980002434924;0.4706624000100419;279964.7735403;2.6999623514711857e-06;0.5045819999650121;0.5446207000059076;0.5946356999920681;0.6646778999711387;0.7947553999838419;0.9248604999738745;0.01
9;2;15;12;letter181;letter357;letter357;letter181;0;0;incongruent;0.04;letter357;0.09;0.07;fullmask;0.2;arrow_left.png;up;0.3605068000033498;0.3696290999650955;279966.6456345;2.600019797682762e-06;0.4960158999892883;0.5360446000122465;0.5860785000259057;0.6560949999839067;0.7861867999890819;0.916286299994681;0.01
9;2;15;13;letter181;letter357;letter357;letter181;0;0;incongruent;0.04;letter181;0.09;0.07;fullmask;0.2;arrow_right.png;down;0.32544919999781996;0.3300347000476904;279968.5017478;2.700020559132099e-06;0.5049931000103243;0.5450135000282899;0.5950433000107296;0.6650799000053667;0.7951585000264458;0.9252381999976933;0.01
9;2;15;14;letter181;letter357;letter357;letter181;0;0;congruent;0.04;letter357;0.09;0.07;fullmask;0.2;arrow_right.png;up;0.33244890003697947;0.34010390000185;279970.3496377;2.6999623514711857e-06;0.4964631999609992;0.5364859999972396;0.5865354999550618;0.6565657999599352;0.7866344999638386;0.9167356999823824;0.01
9;2;15;15;letter181;letter357;letter357;letter181;0;0;congruent;0.04;letter181;0.09;0.07;fullmask;0.2;arrow_left.png;down;0.3532890000496991;0.35992120002629235;279972.221536;2.6999623514711857e-06;0.4976617000065744;0.5376833999762312;0.5877292999648489;0.6577424999559298;0.7878476000041701;0.9179507999797352;0.01
9;2;15;16;letter181;letter357;letter357;letter181;0;0;congruent;0.04;letter357;0.09;0.07;fullmask;0.2;arrow_right.png;up;0.23215739999432117;0.2404130999930203;279973.981592;2.600019797682762e-06;0.49783130001742393;0.537871600012295;0.5878899000235833;0.65792440000223;0.7879976999829523;0.9181135999970138;0.01
9;2;15;17;letter181;letter357;letter357;letter181;0;0;incongruent;0.04;letter357;0.09;0.07;fullmask;0.2;arrow_left.png;up;0.37451010005315766;0.3801318000187166;279975.8857435;2.600019797682762e-06;0.49611170002026483;0.5361237000324763;0.5861747000017203;0.6561982000130229;0.7863005000399426;0.9163851999910548;0.01
9;2;15;18;letter181;letter357;letter357;letter181;0;0;congruent;0.04;letter181;0.09;0.07;fullmask;0.2;arrow_left.png;down;0.30730400001630187;0.3100827000453137;279977.7096062;2.6999623514711857e-06;0.49798300000838935;0.537989699980244;0.5880232999916188;0.6580563999596052;0.7881390000111423;0.9182399999699555;0.01
9;2;15;19;letter181;letter357;letter357;letter181;0;0;congruent;0.04;letter357;0.09;0.07;fullmask;0.2;arrow_right.png;up;0.27630729996599257;0.2801636999938637;279979.509529;2.600019797682762e-06;0.5046124000218697;0.5446458000224084;0.5946772000170313;0.6647152000223286;0.794807700032834;0.9248914000345394;0.01
9;2;15;20;letter181;letter357;letter357;letter181;0;0;incongruent;0.04;letter357;0.09;0.07;fullmask;0.2;arrow_left.png;up;0.4336697999970056;0.44084619998466223;279981.4775432;2.800021320581436e-06;0.49754050001502037;0.5375505000120029;0.5875820000073873;0.6576197000104003;0.7877220999798737;0.9178068999899551;0.01
9;2;15;21;letter181;letter357;letter357;letter181;0;0;incongruent;0.04;letter181;0.09;0.07;fullmask;0.2;arrow_right.png;down;0.13626379997003824;0.1406612999853678;279983.1417636;2.6999623514711857e-06;0.5053881999920122;0.5454099999624304;0.5954300999874249;0.6654745999840088;0.7955724999774247;0.9256542999646626;0.01
9;2;15;22;letter181;letter357;letter357;letter181;0;0;incongruent;0.04;letter181;0.09;0.07;fullmask;0.2;arrow_right.png;down;0.2484409000026062;0.24939799995627254;279984.9255704;2.6999623514711857e-06;0.5030848999740556;0.5431182999745943;0.5931379999965429;0.6631740999873728;0.7932776999659836;0.9233554999809712;0.01
9;2;15;23;letter181;letter357;letter357;letter181;0;0;congruent;0.04;letter181;0.09;0.07;fullmask;0.2;arrow_left.png;down;0.28780440002446994;0.2901457999832928;279986.7254797;2.800021320581436e-06;0.4976425999775529;0.537664900009986;0.5877023999928497;0.6577357000205666;0.7878217999823391;0.9179432999808341;0.01
9;2;15;24;letter181;letter357;letter357;letter181;0;1;congruent;0.12;letter357;0.18;0.07;fullmask;0.2;arrow_right.png;up;0.23693199997069314;0.2402804999728687;279988.5655708;2.600019797682762e-06;0.49827949999598786;0.6183632999891415;0.6783868999918923;0.7484130000229925;0.8784979000338353;1.0085981999873184;0.01
9;2;15;25;letter181;letter357;letter357;letter181;0;0;incongruent;0.04;letter181;0.09;0.07;fullmask;0.2;arrow_right.png;down;0.321570000029169;0.3302708999835886;279990.4214803;2.600019797682762e-06;0.5013218999956734;0.5413382999831811;0.5913707999861799;0.6614044000161812;0.7914931999985129;0.9215903999865986;0.01
9;2;15;26;letter181;letter357;letter357;letter181;0;0;incongruent;0.04;letter357;0.09;0.07;fullmask;0.2;arrow_left.png;up;0.48470070003531873;0.49085140001261607;279992.4458425;2.7999631129205227e-06;0.5034332999493927;0.54344310000306;0.5934886999893934;0.6635157999699004;0.7936109000002034;0.9237107999506406;0.01
9;2;15;27;letter181;letter357;letter357;letter181;0;0;incongruent;0.04;letter181;0.09;0.07;fullmask;0.2;arrow_right.png;down;0.1683756000129506;0.1696168000344187;279994.1415351;2.6999623514711857e-06;0.49666040000738576;0.5366651999647729;0.586707699985709;0.6567288999794982;0.786810899968259;0.9169295000028796;0.01
9;2;15;28;letter181;letter357;letter357;letter181;0;0;congruent;0.04;letter181;0.09;0.07;fullmask;0.2;arrow_left.png;down;0.22762439999496564;0.23039119999157265;279995.9015533;3.00002284348011e-06;0.5039851000183262;0.5439878000179306;0.5940430000191554;0.6640564000117593;0.794144099985715;0.9242521999985911;0.01
9;2;15;29;letter181;letter357;letter357;letter181;0;0;incongruent;0.04;letter181;0.09;0.07;fullmask;0.2;arrow_right.png;down;0.2587185999727808;0.2603190999943763;279997.6935371;2.800021320581436e-06;0.5012056999839842;0.5412270000088029;0.5912607000209391;0.6612975000170991;0.7913852999918163;0.9214900999795645;0.01
9;2;15;30;letter181;letter357;letter357;letter181;0;0;congruent;0.04;letter357;0.09;0.07;fullmask;0.2;arrow_right.png;up;0.18388769996818155;0.1904153999639675;279999.38956;3.00002284348011e-06;0.4947782999952324;0.5347885999944992;0.584840300027281;0.6548605000134557;0.7849511000094935;0.9150431000161916;0.01
9;2;15;31;letter181;letter357;letter357;letter181;0;0;incongruent;0.04;letter357;0.09;0.07;fullmask;0.2;arrow_left.png;up;0.5589364999905229;0.5607512999558821;280001.485722;2.700020559132099e-06;0.4986320000025444;0.5386346000013873;0.5886662999982946;0.6587036999990232;0.7887848000391386;0.9189073000452481;0.01
9;2;15;32;letter181;letter357;letter357;letter181;0;0;congruent;0.04;letter181;0.09;0.07;fullmask;0.2;arrow_left.png;down;0.30670860002283007;0.31019020004896447;280003.32561;2.7999631129205227e-06;0.5031572000007145;0.5431711999699473;0.5932079000049271;0.6632468999596313;0.7933250999776646;0.9234339999966323;0.01
9;2;15;33;letter181;letter357;letter357;letter181;0;0;congruent;0.04;letter357;0.09;0.07;fullmask;0.2;arrow_right.png;up;0.23598320002201945;0.24037280003540218;280005.0855035;2.6999623514711857e-06;0.49591830000281334;0.535919499990996;0.5859537000069395;0.6559946999768727;0.786069099965971;0.9161854999838397;0.01
9;2;15;34;letter181;letter357;letter357;letter181;0;0;incongruent;0.04;letter357;0.09;0.07;fullmask;0.2;arrow_left.png;up;0.1645645999815315;0.17046270001446828;280006.7655704;2.700020559132099e-06;0.4985131999710575;0.5385217000148259;0.588562200020533;0.6585971000022255;0.7886835999670438;0.9187771999859251;0.01
9;2;15;35;letter181;letter357;letter357;letter181;0;0;incongruent;0.04;letter357;0.09;0.07;fullmask;0.2;arrow_left.png;up;0.3455269999685697;0.3500843999790959;280008.6375432;2.6999623514711857e-06;0.4959554999950342;0.5359790999791585;0.5860147000057623;0.6560297999531031;0.786134599999059;0.9162505999556743;0.01
9;2;15;36;letter181;letter357;letter357;letter181;0;1;incongruent;0.12;letter357;0.18;0.07;fullmask;0.2;arrow_left.png;up;2.3245636000065133;2.3317550999927334;280012.5975358;2.700020559132099e-06;0.5007412999984808;0.6208251999923959;0.680858800013084;0.7508988999761641;0.8810052999760956;1.0110431999783032;0.01
9;2;15;37;letter181;letter357;letter357;letter181;0;0;congruent;0.04;letter181;0.09;0.07;fullmask;0.2;arrow_left.png;down;0.28029060002882034;0.29023820004658774;280014.4056234;2.600019797682762e-06;0.5039527000044473;0.5439659999683499;0.5939896999625489;0.6640414000139572;0.7941150999977253;0.9242156000109389;0.01
9;2;15;38;letter181;letter357;letter357;letter181;0;0;incongruent;0.04;letter181;0.09;0.07;fullmask;0.2;arrow_right.png;down;0.3485388999688439;0.350126100005582;280016.2855525;2.700020559132099e-06;0.5040501999901608;0.5440700000035577;0.5941043000202626;0.6641418000217527;0.7942222999990918;0.9243180000339635;0.01
9;2;15;39;letter181;letter357;letter357;letter181;0;0;congruent;0.04;letter357;0.09;0.07;fullmask;0.2;arrow_right.png;up;0.24489039997570217;0.24939620000077412;280018.0534648;2.5999615900218487e-06;0.5052640999783762;0.5452695999993011;0.5953080999897793;0.6653490999597125;0.7954103999654762;0.9255179999745451;0.01
9;2;15;40;letter181;letter357;letter357;letter181;0;0;incongruent;0.04;letter357;0.09;0.07;fullmask;0.2;arrow_left.png;up;0.5085544000030495;0.5108004999929108;280020.077741;2.9999646358191967e-06;0.49920139997266233;0.5392304999986663;0.589251899975352;0.6592948999605142;0.7893792999675497;0.9194762000115588;0.01
9;2;15;41;letter181;letter357;letter357;letter181;0;0;incongruent;0.04;letter181;0.09;0.07;fullmask;0.2;arrow_right.png;down;0.4512000999529846;0.46078389999456704;280022.0614958;2.5999615900218487e-06;0.5050894999876618;0.5450847999891266;0.5951209999620914;0.6651751999743283;0.7952350999694318;0.9253212999901734;0.01
9;2;15;42;letter181;letter357;letter357;letter181;0;0;incongruent;0.04;letter181;0.09;0.07;fullmask;0.2;arrow_right.png;down;0.3818845000350848;0.39102109998930246;280023.97353;2.800021320581436e-06;0.5054313000291586;0.5454537000041455;0.5954801000189036;0.6655121000367217;0.7956040000426583;0.9256977000040933;0.01
9;2;15;43;letter181;letter357;letter357;letter181;0;1;congruent;0.12;letter181;0.18;0.07;fullmask;0.2;arrow_left.png;down;0.45448970003053546;0.46067739999853075;280026.0375582;2.7999631129205227e-06;0.4966615999583155;0.6167461999575607;0.6767695999587886;0.7468262999900617;0.8768841999699362;1.0069941999972798;0.01
9;2;15;44;letter181;letter357;letter357;letter181;0;0;congruent;0.04;letter357;0.09;0.07;fullmask;0.2;arrow_right.png;up;0.40285129996482283;0.40974350000033155;280027.9575104;2.6999623514711857e-06;0.5024402999551967;0.5424482999951579;0.5925127000082284;0.6625266000046395;0.7926088999956846;0.9226972999749705;0.01
9;2;15;45;letter181;letter357;letter357;letter181;0;0;congruent;0.04;letter181;0.09;0.07;fullmask;0.2;arrow_left.png;down;0.4095166999613866;0.4098686999641359;280029.8855992;2.700020559132099e-06;0.4985640000086278;0.5385860000387765;0.5886351000517607;0.6586511000059545;0.788762400043197;0.9188452000380494;0.01
9;2;15;46;letter181;letter357;letter357;letter181;0;0;congruent;0.04;letter357;0.09;0.07;fullmask;0.2;arrow_right.png;up;0.4282010000315495;0.4297876000055112;280031.8454935;2.6999623514711857e-06;0.5023863999522291;0.5423872999963351;0.5924194999970496;0.6624700999818742;0.7925101000000723;0.9226432999712415;0.01
9;2;15;47;letter181;letter357;letter357;letter181;0;0;congruent;0.04;letter181;0.09;0.07;fullmask;0.2;arrow_left.png;down;0.4532390999956988;0.46083299996098503;280033.8214458;2.700020559132099e-06;0.49444219999713823;0.5344356999848969;0.584484999999404;0.6545109999715351;0.7846013000234962;0.914689900004305;0.01
9;2;15;48;letter181;letter357;letter357;letter181;0;0;incongruent;0.04;letter357;0.09;0.07;fullmask;0.2;arrow_left.png;up;0.18600129999686033;0.19055569998454303;280035.5255006;2.6999623514711857e-06;0.49617090000538155;0.536195199994836;0.5862276999978349;0.6562561999890022;0.7863477999926545;0.9164386999909766;0.01
9;2;15;49;letter181;letter357;letter357;letter181;0;0;incongruent;0.04;letter181;0.09;0.07;fullmask;0.2;arrow_right.png;down;0.4988494000281207;0.4997314000502229;280037.5495969;2.600019797682762e-06;0.5028363000019453;0.5428648000233807;0.5929088999982923;0.662937699991744;0.7930129999876954;0.9231163000222296;0.01
9;2;15;50;letter181;letter357;letter357;letter181;0;0;congruent;0.04;letter357;0.09;0.07;fullmask;0.2;arrow_right.png;up;0.5192375000333413;0.5195934000075795;280039.5815824;2.700020559132099e-06;0.4976516999886371;0.5376636000000872;0.5876973000122234;0.6577536999830045;0.7878180000116117;0.9179106000228785;0.01
9;2;15;51;letter181;letter357;letter357;letter181;0;0;congruent;0.04;letter181;0.09;0.07;fullmask;0.2;arrow_left.png;down;0.382539700018242;0.39003429998410866;280041.4857915;2.700020559132099e-06;0.4965665999916382;0.5365733000217006;0.5866080999840051;0.6566507000243291;0.7867166000069119;0.9168288999935612;0.01
9;2;15;52;letter181;letter357;letter357;letter181;0;0;incongruent;0.04;letter357;0.09;0.07;fullmask;0.2;arrow_left.png;up;0.39250499999616295;0.3998540000175126;280043.3974446;2.600019797682762e-06;0.5034296999801882;0.5434468999737874;0.5934803999844007;0.6635124000022188;0.7936118000070564;0.9237167999963276;0.01
9;2;16;1;letter181;letter357;letter357;letter181;0;0;congruent;0.04;letter181;0.09;0.07;fullmask;0.2;arrow_left.png;down;0.3801742000505328;0.38119330001063645;280048.757732;2.800021320581436e-06;0.5010400000028312;0.5410397999803536;0.5910834000096656;0.6611157999723218;0.7912028999999166;0.9213106000097468;0.01
9;2;16;2;letter181;letter357;letter357;letter181;0;0;congruent;0.04;letter357;0.09;0.07;fullmask;0.2;arrow_right.png;up;0.4546942000160925;0.46069730003364384;280050.7335263;2.7999631129205227e-06;0.4971011999878101;0.5371318999677896;0.5871400999603793;0.6571779999649152;0.787255399976857;0.9173755999654531;0.01
9;2;16;3;letter181;letter357;letter357;letter181;0;0;incongruent;0.04;letter357;0.09;0.07;fullmask;0.2;arrow_left.png;up;0.32871349999913946;0.3301315999706276;280052.5894175;3.00002284348011e-06;0.4966773000196554;0.5366955000208691;0.5867497000144795;0.6567523999838158;0.7868853000109084;0.9169415000360459;0.01
9;2;16;4;letter181;letter357;letter357;letter181;0;0;congruent;0.04;letter181;0.09;0.07;fullmask;0.2;arrow_left.png;down;0.4295684999669902;0.4297588999615982;280054.5415214;2.700020559132099e-06;0.497944800008554;0.537982199981343;0.5880330000072718;0.6580595999839716;0.7881407999666408;0.9182402999722399;0.01
9;2;16;5;letter181;letter357;letter357;letter181;0;0;incongruent;0.04;letter181;0.09;0.07;fullmask;0.2;arrow_right.png;down;0.33468979998724535;0.340101899986621;280056.3975065;2.7999631129205227e-06;0.5016747999470681;0.5416963999741711;0.5917243000003509;0.6617560999584384;0.7918434999883175;0.9219510999973863;0.01
9;2;16;6;letter181;letter357;letter357;letter181;0;0;incongruent;0.04;letter357;0.09;0.07;fullmask;0.2;arrow_left.png;up;0.16409600002225488;0.1707079000188969;280058.0777814;2.700020559132099e-06;0.49818819999927655;0.5382235000142828;0.5882294000475667;0.6582677999977022;0.7883553000283428;0.9184509000042453;0.01
9;2;16;7;letter181;letter357;letter357;letter181;0;0;incongruent;0.04;letter181;0.09;0.07;fullmask;0.2;arrow_right.png;down;0.4176202999660745;0.4198233999777585;280060.0134227;2.6999623514711857e-06;0.5026348999817856;0.5426569000119343;0.5927023999975063;0.6627236999920569;0.7928141999873333;0.9229035999742337;0.01
9;2;16;8;letter181;letter357;letter357;letter181;0;0;congruent;0.04;letter357;0.09;0.07;fullmask;0.2;arrow_right.png;up;0.3648543000454083;0.3700741000357084;280061.901499;2.600019797682762e-06;0.4963790000183508;0.5364226999809034;0.5864442000165582;0.6564956000074744;0.7865480000036769;0.9166704000090249;0.01
9;2;16;9;letter181;letter357;letter357;letter181;0;0;congruent;0.04;letter181;0.09;0.07;fullmask;0.2;arrow_left.png;down;0.311732700036373;0.32016360003035516;280063.7494904;2.700020559132099e-06;0.49897280003642663;0.5389852999942377;0.5890357000171207;0.6590529999812134;0.789141200017184;0.9192385000060312;0.01
9;2;16;10;letter181;letter357;letter357;letter181;0;1;incongruent;0.12;letter181;0.18;0.07;fullmask;0.2;arrow_right.png;down;0.2440181000274606;0.2493868000456132;280065.6534679;2.600019797682762e-06;0.503796599979978;0.6238760999985971;0.6839002000051551;0.7539161000167951;0.8840058000059798;1.0140982000157237;0.01
9;2;16;11;letter181;letter357;letter357;letter181;0;0;congruent;0.04;letter357;0.09;0.07;fullmask;0.2;arrow_right.png;up;0.1938022999675013;0.2006610999815166;280067.3737893;2.700020559132099e-06;0.5031964000081643;0.5432207999983802;0.5932458000024781;0.6632761000073515;0.7933786000357941;0.9234637999907136;0.01
9;2;16;12;letter181;letter357;letter357;letter181;0;0;incongruent;0.04;letter357;0.09;0.07;fullmask;0.2;arrow_left.png;up;0.4480651000048965;0.44995829998515546;280069.3496768;2.6999623514711857e-06;0.49697629996808246;0.5370049999910407;0.5870276999776252;0.6570648999768309;0.7871339999837801;0.9172681999625638;0.01
9;2;16;13;letter181;letter357;letter357;letter181;0;0;congruent;0.04;letter181;0.09;0.07;fullmask;0.2;arrow_left.png;down;0.4785101999877952;0.4797800999949686;280071.34144;2.7999631129205227e-06;0.4948342999559827;0.5348624999751337;0.5849080999614671;0.6549444000120275;0.7850094999885187;0.915118100005202;0.01
9;2;16;14;letter181;letter357;letter357;letter181;0;0;congruent;0.04;letter357;0.09;0.07;fullmask;0.2;arrow_right.png;up;0.2239139000303112;0.23030960001051426;280073.0774989;2.5999615900218487e-06;0.5041779999737628;0.544183999998495;0.5942133999778889;0.6642675999901257;0.7943256999715231;0.9244251999771222;0.01
9;2;16;15;letter181;letter357;letter357;letter181;0;0;incongruent;0.04;letter181;0.09;0.07;fullmask;0.2;arrow_right.png;down;0.37851860001683235;0.3799962000339292;280074.9734903;2.600019797682762e-06;0.4960009000496939;0.5360207000048831;0.5860610000090674;0.6560896000009961;0.7861862000427209;0.9162667000200599;0.01
9;2;16;16;letter181;letter357;letter357;letter181;0;0;congruent;0.04;letter357;0.09;0.07;fullmask;0.2;arrow_right.png;up;0.4558714000158943;0.46092109999153763;280076.9416986;2.7999631129205227e-06;0.5032898999634199;0.5433073000167497;0.5933612000080757;0.6633741999976337;0.793475300015416;0.9235711999936029;0.01
9;2;16;17;letter181;letter357;letter357;letter181;0;0;congruent;0.04;letter357;0.09;0.07;fullmask;0.2;arrow_right.png;up;0.4083972999942489;0.4109634999767877;280078.885404;2.600019797682762e-06;0.4966218000045046;0.5366284999763593;0.5866720000049099;0.6567024000105448;0.7867886999738403;0.916874699993059;0.01
9;2;16;18;letter181;letter357;letter357;letter181;0;0;congruent;0.04;letter181;0.09;0.07;fullmask;0.2;arrow_left.png;down;0.31692050001583993;0.32015749998390675;280080.7254709;2.700020559132099e-06;0.4947970000212081;0.5348216000129469;0.5848303000093438;0.6548678000108339;0.7849553000414744;0.9150591000216082;0.01
9;2;16;19;letter181;letter357;letter357;letter181;0;1;incongruent;0.12;letter357;0.18;0.07;fullmask;0.2;arrow_left.png;up;0.4354651999892667;0.4398491000174545;280082.7655152;2.700020559132099e-06;0.5022908999817446;0.6223560000071302;0.6824136999784969;0.7524252000148408;0.88252729998203;1.0126133000012487;0.01
9;2;16;20;letter181;letter357;letter357;letter181;0;0;incongruent;0.04;letter357;0.09;0.07;fullmask;0.2;arrow_left.png;up;0.5162043999880552;0.5206732000224292;280084.7975544;2.600019797682762e-06;0.4978628000244498;0.5378804000210948;0.5879165999940597;0.657934800023213;0.7880263999686576;0.9181361999944784;0.01
9;2;16;21;letter181;letter357;letter357;letter181;0;0;congruent;0.04;letter181;0.09;0.07;fullmask;0.2;arrow_left.png;down;0.8614612999954261;0.8706890000030398;280087.1735549;2.5999615900218487e-06;0.4976648999727331;0.5376775999902748;0.5877021999913268;0.6577407000004314;0.7878398000029847;0.9179306000005454;0.01
9;2;16;22;letter181;letter357;letter357;letter181;0;0;incongruent;0.04;letter181;0.09;0.07;fullmask;0.2;arrow_right.png;down;0.5119367000297643;0.5205283000250347;280089.2054831;2.800021320581436e-06;0.5026312000118196;0.542658600024879;0.5926954000024125;0.6627177000045776;0.7928076999960467;0.9229026000248268;0.01
9;2;16;23;letter181;letter357;letter357;letter181;0;0;incongruent;0.04;letter181;0.09;0.07;fullmask;0.2;arrow_right.png;down;0.5682685000356287;0.5705380000290461;280091.2934617;2.7999631129205227e-06;0.498651499976404;0.5386686999700032;0.588705999951344;0.6587386999744922;0.7888218999723904;0.9189341999590397;0.01
9;2;16;24;letter181;letter357;letter357;letter181;0;0;congruent;0.04;letter357;0.09;0.07;fullmask;0.2;arrow_right.png;up;0.5342361999792047;0.5394847000134178;280093.3414005;2.6999623514711857e-06;0.4970910999691114;0.5371323999715969;0.5871615999494679;0.6571757999481633;0.7872790999826975;0.9173654999467544;0.01
9;2;16;25;letter181;letter357;letter357;letter181;0;0;congruent;0.04;letter181;0.09;0.07;fullmask;0.2;arrow_left.png;down;0.6672959999996237;0.6702325000078417;280095.5256611;2.5999615900218487e-06;0.4978403999703005;0.5378577999654226;0.587882699968759;0.6579055999754928;0.7880027999635786;0.9181050999904983;0.01
9;2;16;26;letter181;letter357;letter357;letter181;0;0;incongruent;0.04;letter357;0.09;0.07;fullmask;0.2;arrow_left.png;up;0.501810799993109;0.5096885000239126;280097.5415301;2.700020559132099e-06;0.49842989997705445;0.538442799996119;0.5884643999743275;0.6585019999765791;0.7885859999805689;0.9186987999710254;0.01
9;2;16;27;letter181;letter357;letter357;letter181;0;0;congruent;0.04;letter181;0.09;0.07;fullmask;0.2;arrow_left.png;down;0.5027848000172526;0.5107002999866381;280099.5733955;2.700020559132099e-06;0.5053721999865957;0.5453760999953374;0.5954117000219412;0.6654395000077784;0.7955390000133775;0.9256189999869093;0.01
9;2;16;28;letter181;letter357;letter357;letter181;0;0;congruent;0.04;letter181;0.09;0.07;fullmask;0.2;arrow_left.png;down;0.41747489996487275;0.42079879995435476;280101.5095307;2.800021320581436e-06;0.49913469998864457;0.5391577000264078;0.5891924999887124;0.6592268000240438;0.7893154000048526;0.9194108999799937;0.01
9;2;16;29;letter181;letter357;letter357;letter181;0;1;congruent;0.12;letter181;0.18;0.07;fullmask;0.2;arrow_left.png;down;0.44175920000998303;0.44971309998072684;280103.5654435;2.5999615900218487e-06;0.49956689996179193;0.6196403999929316;0.6796823999611661;0.7497139999759383;0.8797976999776438;1.0098992999992333;0.01
9;2;16;30;letter181;letter357;letter357;letter181;0;0;congruent;0.04;letter357;0.09;0.07;fullmask;0.2;arrow_right.png;up;0.4551476999768056;0.46093249996192753;280105.5495958;2.700020559132099e-06;0.5037329000188038;0.5437449000310153;0.5937807000009343;0.6638093999936245;0.7938889000215568;0.9239835999906063;0.01
9;2;16;31;letter181;letter357;letter357;letter181;0;0;congruent;0.04;letter357;0.09;0.07;fullmask;0.2;arrow_right.png;up;0.3938687999616377;0.4009927000151947;280107.4694424;2.800021320581436e-06;0.49731860001338646;0.5373457000241615;0.5873813999933191;0.6574174000415951;0.7875117000075988;0.9176013999967836;0.01
9;2;16;32;letter181;letter357;letter357;letter181;0;0;congruent;0.04;letter181;0.09;0.07;fullmask;0.2;arrow_left.png;down;0.48820209997938946;0.4907509000040591;280109.4854664;2.700020559132099e-06;0.5056374000268988;0.5456728000426665;0.5957003000075929;0.6657450000056997;0.7958092000335455;0.9259336999966763;0.01
9;2;16;33;letter181;letter357;letter357;letter181;0;0;incongruent;0.04;letter357;0.09;0.07;fullmask;0.2;arrow_left.png;up;0.41526879998855293;0.42079379997448996;280111.4134742;2.6999623514711857e-06;0.49773080000886694;0.5377533999853767;0.5877944999956526;0.6578143999795429;0.7879184999619611;0.9180181999690831;0.01
9;2;16;34;letter181;letter357;letter357;letter181;0;0;incongruent;0.04;letter357;0.09;0.07;fullmask;0.2;arrow_left.png;down;0.5478988999966532;0.5506925000227056;280113.4776381;2.700020559132099e-06;0.4975823000422679;0.5376059000263922;0.5876554000424221;0.6576701000449248;0.7877614999888465;0.9178574000252411;0.01
9;2;16;35;letter181;letter357;letter357;letter181;0;0;congruent;0.04;letter357;0.09;0.07;fullmask;0.2;arrow_right.png;up;0.5482882999931462;0.5505162000190467;280115.7494869;2.5999615900218487e-06;0.4986720000160858;0.5386867999914102;0.5887212000088766;0.6587605999666266;0.7888463999843225;0.9189473000005819;0.01
9;2;16;36;letter181;letter357;letter357;letter181;0;0;incongruent;0.04;letter357;0.09;0.07;fullmask;0.2;arrow_left.png;up;0.47068560001207516;0.4797340999939479;280117.7335025;2.800021320581436e-06;0.4984491000068374;0.5384771000244655;0.5884924000129104;0.658531800028868;0.7886249999864958;0.9187279000179842;0.01
9;2;16;37;letter181;letter357;letter357;letter181;0;0;incongruent;0.04;letter181;0.09;0.07;fullmask;0.2;arrow_right.png;up;0.8480851000058465;0.8507418000372127;280120.101477;2.6999623514711857e-06;0.49910760001512244;0.5391259000170976;0.5891578000155278;0.6591971999732777;0.7892824999871664;0.9193750999984331;0.01
9;2;16;38;letter181;letter357;letter357;letter181;0;0;incongruent;0.04;letter181;0.09;0.07;fullmask;0.2;arrow_right.png;down;0.462355799973011;0.470803199976217;280122.2774505;2.600019797682762e-06;0.4993168000364676;0.5393295000540093;0.5893540000542998;0.6593989000539295;0.7894778000190854;0.9195758000132628;0.01
9;2;16;39;letter181;letter357;letter357;letter181;0;0;incongruent;0.04;letter357;0.09;0.07;fullmask;0.2;arrow_left.png;up;0.3825107999728061;0.39026660000672564;280124.1897608;2.5999615900218487e-06;0.5010669999755919;0.5410769999725744;0.5911085999687202;0.6611367000150494;0.7912316999863833;0.9213333000079729;0.01
9;2;16;40;letter181;letter357;letter357;letter181;0;0;incongruent;0.04;letter357;0.09;0.07;fullmask;0.2;arrow_left.png;up;0.48723919998155907;0.4897054000175558;280126.2054605;2.600019797682762e-06;0.5038242000155151;0.5438556000008248;0.5938793999957852;0.663920099963434;0.7939825999783352;0.9240893999813125;0.01
9;2;16;41;letter181;letter357;letter357;letter181;0;0;congruent;0.04;letter181;0.09;0.07;fullmask;0.2;arrow_left.png;down;0.4216606999980286;0.4299167999997735;280128.1414433;2.600019797682762e-06;0.4963718000217341;0.5363740000175312;0.5864022000459954;0.6564385000383481;0.7865419000154361;0.9166144999908283;0.01
9;2;16;42;letter181;letter357;letter357;letter181;0;0;incongruent;0.04;letter181;0.09;0.07;fullmask;0.2;arrow_right.png;down;0.4393901000148617;0.44100789999356493;280130.1097129;2.700020559132099e-06;0.4993962000007741;0.5394228000077419;0.5894352000323124;0.6594839000026695;0.7895850000204518;0.9196751000126824;0.01
9;2;16;43;letter181;letter357;letter357;letter181;0;0;incongruent;0.04;letter181;0.09;0.07;fullmask;0.2;arrow_right.png;down;0.44565170002169907;0.45086410001385957;280132.0776044;2.7999631129205227e-06;0.4985078999889083;0.5385584000032395;0.5885577999870293;0.6586156999692321;0.7886797999963164;0.9187918999814428;0.01
9;2;16;44;letter181;letter357;letter357;letter181;0;1;congruent;0.12;letter357;0.18;0.07;fullmask;0.2;arrow_right.png;up;0.45025059999898076;0.45992049999767914;280134.1334258;3.100023604929447e-06;0.49524250003742054;0.6153030000277795;0.6753449999960139;0.7453897000523284;0.875461500021629;1.0055593000142835;0.01
9;2;16;45;letter181;letter357;letter357;letter181;0;0;incongruent;0.04;letter181;0.09;0.07;fullmask;0.2;arrow_right.png;down;0.38643060001777485;0.38997489999746904;280136.0614453;2.700020559132099e-06;0.5056045000092126;0.545614900009241;0.5956471000099555;0.6656984000001103;0.7957632000325248;0.925878600042779;0.01
9;2;16;46;letter181;letter357;letter357;letter181;0;0;congruent;0.04;letter357;0.09;0.07;fullmask;0.2;arrow_right.png;up;1.0218264000141062;1.0303081999882124;280138.5974827;2.800021320581436e-06;0.49651940003968775;0.536538400046993;0.5865686000324786;0.6566135000321083;0.7866932000033557;0.9167918000021018;0.01
9;2;16;47;letter181;letter357;letter357;letter181;0;0;incongruent;0.04;letter181;0.09;0.07;fullmask;0.2;arrow_right.png;down;0.7263544999877922;0.7310625999816693;280140.8534416;2.800021320581436e-06;0.5051479000248946;0.5451696999953128;0.5952051000203937;0.6652431000256911;0.7953194000292569;0.9254041999811307;0.01
9;2;16;48;letter181;letter357;letter357;letter181;0;0;incongruent;0.04;letter357;0.09;0.07;fullmask;0.2;arrow_left.png;up;0.3690299000008963;0.371103800018318;280142.75745;3.100023604929447e-06;0.501967300020624;0.5419792999746278;0.5920157000073232;0.6620521000004373;0.7921313000260852;0.9222370000206865;0.01
9;2;16;49;letter181;letter357;letter357;letter181;0;0;congruent;0.04;letter181;0.09;0.07;fullmask;0.2;arrow_left.png;down;0.37351359997410327;0.3799928000080399;280144.653458;2.6999623514711857e-06;0.4958541999803856;0.5358811999903992;0.585921399993822;0.6559564999770373;0.7860317999729887;0.9161364999599755;0.01
9;2;16;50;letter181;letter357;letter357;letter181;0;0;congruent;0.04;letter357;0.09;0.07;fullmask;0.2;arrow_right.png;down;0.44823099998757243;0.45085719996131957;280146.6294574;2.600019797682762e-06;0.4977087000152096;0.5377143999794498;0.5877549999859184;0.6578149999841116;0.7878602999844588;0.9179736999794841;0.01
9;2;16;51;letter181;letter357;letter357;letter181;0;0;incongruent;0.04;letter181;0.09;0.07;fullmask;0.2;arrow_right.png;down;0.5983929000212811;0.600307899992913;280148.9413486;2.800021320581436e-06;0.5041962000541389;0.5442283000447787;0.5942225000471808;0.6642756000510417;0.7943731000414118;0.9244575000484474;0.01
9;2;16;52;letter181;letter357;letter357;letter181;0;0;incongruent;0.04;letter357;0.09;0.07;fullmask;0.2;arrow_left.png;up;0.4374148999922909;0.44088300003204495;280150.9014317;2.600019797682762e-06;0.4966950999805704;0.5367198999738321;0.5867444999748841;0.6567568000173196;0.7868586999829859;0.9169743999955244;0.01
