subjnr;loop_m;blocknr;trialnr;cue_left_learn;cue_right_learn;option_up;option_down;practice;motivation; congruence;cue_dur;cue;SOA;mask_dur;mask;target_dur;target;response;RT;kb_rt;response_absolute; fix_onset;cue_onset;cue_offset;mask_onset;mask_offset;target_offset;blank_onset;frame_dur
3;1;6;1;letter169;letter190;letter169;letter190;1;0;incongruent;0.12;letter169;0.14;0.07;fullmask;0.2;arrow_right.png;down;2.3579672999994727;2.361836399999447;5476.3957635;2.8000004022032954e-06;0.5011005000005753;0.6211695000001782;0.6411806000005527;0.7112385999998878;0.8413025999998354;0.9714125999998942;0.01
3;1;6;2;letter169;letter190;letter169;letter190;1;0;congruent;0.12;letter190;0.14;0.07;fullmask;0.2;arrow_right.png;down;0.6976952999993955;0.7009938999999576;5478.8678015;2.9000002541579306e-06;0.5021294999996826;0.6221969999996873;0.6421949000005043;0.7122658999996929;0.8423229999998512;0.9724378000000797;0.01
3;1;6;3;letter169;letter190;letter169;letter190;1;0;congruent;0.12;letter169;0.14;0.07;fullmask;0.2;arrow_left.png;up;0.25808539999979985;0.2602553999995507;5480.6997492;2.499999936844688e-06;0.5035546000008253;0.6236247000006188;0.6436357000002317;0.7136624000004304;0.8437563000006776;0.9738518000003751;0.01
3;1;6;4;letter169;letter190;letter169;letter190;1;0;incongruent;0.12;letter190;0.14;0.07;fullmask;0.2;arrow_left.png;up;0.4143283000003066;0.41993900000034046;5482.7077734;2.599999788799323e-06;0.5045519000004788;0.6246188000004622;0.6446427000000767;0.7146859000004042;0.8447490999997171;0.9748560999996698;0.01
3;1;6;5;letter169;letter190;letter169;letter190;1;0;congruent;0.12;letter190;0.14;0.07;fullmask;0.2;arrow_right.png;down;0.17490559999987454;0.1795799999999872;5484.6597517;2.399999175395351e-06;0.49780879999980243;0.6178837999996176;0.6378872999994201;0.7079256999995778;0.8380045999992944;0.9680948999994143;0.01
3;1;6;6;letter169;letter190;letter169;letter190;1;0;incongruent;0.12;letter169;0.14;0.07;fullmask;0.2;arrow_right.png;up;0.0958160999998654;0.09966429999985849;5486.3317517;2.600000698294025e-06;0.503969400000642;0.6240311000001384;0.6440549000008104;0.7140929000006508;0.8441817000002629;0.9742705000007845;0.01
3;1;6;7;letter169;letter190;letter169;letter190;1;0;incongruent;0.12;letter190;0.14;0.07;fullmask;0.2;arrow_left.png;up;0.15914129999964644;0.1596996999996918;5488.075784;2.4000000848900527e-06;0.5030925000000934;0.6231527999998434;0.6431652000001122;0.7132048000003124;0.8432795999997325;0.9733839000000444;0.01
3;1;6;8;letter169;letter190;letter169;letter190;1;0;congruent;0.12;letter190;0.14;0.07;fullmask;0.2;arrow_right.png;down;3.457490100000541;3.461800700000822;5493.3157645;2.499999936844688e-06;0.5047490999995716;0.6248216000003595;0.6448295999998663;0.7148590999995577;0.8449297999995906;0.9750570999995034;0.01
3;1;6;9;letter169;letter190;letter169;letter190;1;0;congruent;0.12;letter169;0.14;0.07;fullmask;0.2;arrow_left.png;up;0.06476409999959287;0.070731099999648;5494.955747;2.4000000848900527e-06;0.5049057000005632;0.6249784000001455;0.6449906000007104;0.7150225000004866;0.845103000000563;0.9752296000006027;0.01
3;1;6;10;letter169;letter190;letter169;letter190;1;0;incongruent;0.12;letter190;0.14;0.07;fullmask;0.2;arrow_left.png;down;3.215125299999272;3.221283599999879;5499.7477438;2.399999175395351e-06;0.5051241999999547;0.6252093999992212;0.6452200999992783;0.7152384999999413;0.8453176999992138;0.9754331999993155;0.01
3;1;6;11;letter169;letter190;letter169;letter190;1;0;incongruent;0.12;letter169;0.14;0.07;fullmask;0.2;arrow_right.png;up;0.016625999999632768;0.019979499999863037;5501.3317466;2.499999936844688e-06;0.4960621000000174;0.6161222000000635;0.6361305999998876;0.7061789999997927;0.8362550000001647;0.9663666999995257;0.01
3;1;6;12;letter169;letter190;letter169;letter190;1;0;congruent;0.12;letter169;0.14;0.07;fullmask;0.2;arrow_left.png;up;0.06553210000038234;0.06983020000006945;5502.9717059;2.600000698294025e-06;0.4942058000006;0.6142690000006041;0.6342948999999862;0.7042784000004758;0.8343941000002815;0.9645032000007632;0.01
3;1;7;1;letter169;letter190;letter169;letter190;0;0;incongruent;0.04;letter169;0.05;0.07;fullmask;0.2;arrow_right.png;down;0.06017489999976533;0.07002069999998639;5527.5318449;2.399999175395351e-06;0.4994608999995762;0.5394813999992039;0.5494577999998;0.619523699999263;0.7495941999995921;0.8796986999996079;0.01
3;1;7;2;letter169;letter190;letter169;letter190;0;0;congruent;0.04;letter169;0.05;0.07;fullmask;0.2;arrow_left.png;down;0.13268440000047121;0.14054850000047736;5529.3557381;2.4000000848900527e-06;0.5036261000004743;0.5436459000002287;0.5536588000004485;0.6239080000004833;0.753773700000238;0.8838673000000199;0.01
3;1;7;3;letter169;letter190;letter169;letter190;0;0;incongruent;0.04;letter190;0.05;0.07;fullmask;0.2;arrow_left.png;down;0.33305490000020654;0.3402425000003859;5531.3879324;2.499999936844688e-06;0.4985850000002756;0.5386066000000937;0.5486378000005061;0.6186439000002792;0.7487415000005058;0.8788553000003958;0.01
3;1;7;4;letter169;letter190;letter169;letter190;0;0;incongruent;0.04;letter169;0.05;0.07;fullmask;0.2;arrow_right.png;up;0.27807579999989684;0.28043150000030437;5533.1637875;2.4000000848900527e-06;0.503176799999892;0.5431957000000693;0.5532069000000774;0.6232418999998117;0.7533204999999725;0.8834195999997974;0.01
3;1;7;5;letter169;letter190;letter169;letter190;0;0;congruent;0.04;letter169;0.05;0.07;fullmask;0.2;arrow_left.png;up;0.483317199999874;0.4907036999993579;5535.1397415;2.3000002329354174e-06;0.5039775999994163;0.5440075999995315;0.5540181999995184;0.6240343999998004;0.7541390999995201;0.8842297000001054;0.01
3;1;7;6;letter169;letter190;letter169;letter190;0;0;incongruent;0.04;letter190;0.05;0.07;fullmask;0.2;arrow_left.png;down;0.25368280000020604;0.26036349999958475;5536.8917373;2.499999936844688e-06;0.5037059999995108;0.54370469999958;0.5537156999998842;0.6237432999996599;0.7538266999999905;0.883933099999922;0.01
3;1;7;7;letter169;letter190;letter169;letter190;0;0;congruent;0.04;letter190;0.05;0.07;fullmask;0.2;arrow_right.png;down;0.4082054000000426;0.4099647000002733;5538.7877176;2.499999936844688e-06;0.4965620000002673;0.5365812999998525;0.546590500000093;0.6166167999999743;0.7467094000003272;0.8768091000001732;0.01
3;1;7;8;letter169;letter190;letter169;letter190;0;0;congruent;0.04;letter190;0.05;0.07;fullmask;0.2;arrow_right.png;up;0.4074116000001595;0.4097487999997611;5540.6677171;2.499999936844688e-06;0.4996573999997054;0.5396823999999469;0.5496978999999556;0.6197216999999;0.749800900000082;0.8799128999999084;0.01
3;1;7;9;letter169;letter190;letter169;letter190;0;0;incongruent;0.04;letter169;0.05;0.07;fullmask;0.2;arrow_right.png;down;0.050385800000185554;0.06017859999974462;5542.4117501;2.1999994714860804e-06;0.5026956000001519;0.5427048999999897;0.5527227000002313;0.6227570999999443;0.7528268999994907;0.8829272000002675;0.01
3;1;7;10;letter169;letter190;letter169;letter190;0;0;congruent;0.04;letter190;0.05;0.07;fullmask;0.2;arrow_right.png;down;0.3008501000003889;0.31011769999986427;5544.4037796;2.499999936844688e-06;0.5040098999998008;0.544050900000002;0.5540455000000293;0.624073099999805;0.7541687000002639;0.8842793000003439;0.01
3;1;7;11;letter169;letter190;letter169;letter190;0;1;incongruent;0.12;letter169;0.14;0.07;fullmask;0.2;arrow_right.png;up;0.11359900000024936;0.11974280000049475;5546.1077545;2.499999936844688e-06;0.5037806000000273;0.6238505999999688;0.6438658000006399;0.7139063000004171;0.8439806000005774;0.9740838000006988;0.01
3;1;7;12;letter169;letter190;letter169;letter190;0;0;incongruent;0.04;letter190;0.05;0.07;fullmask;0.2;arrow_left.png;down;0.6407880999995541;0.6501878999997643;5548.2357022;2.4000000848900527e-06;0.5044867000005979;0.5445153999999093;0.5545097000003807;0.6245680000001812;0.7546286000006148;0.8847375000004831;0.01
3;1;7;13;letter169;letter190;letter169;letter190;0;0;congruent;0.04;letter169;0.05;0.07;fullmask;0.2;arrow_left.png;up;0.07513209999979154;0.07995029999983672;5549.8117323;2.2999993234407157e-06;0.5005110000001878;0.5405446999993728;0.5505538999996133;0.6205798000000868;0.7506656999994448;0.8807525000001988;0.01
3;1;7;14;letter169;letter190;letter169;letter190;0;0;incongruent;0.04;letter190;0.05;0.07;fullmask;0.2;arrow_left.png;down;0.36046669999996084;0.370071100000132;5551.6677396;2.4000000848900527e-06;0.5017391999999745;0.5420881999998528;0.5517608000000109;0.6217789000002085;0.7518613000002006;0.8819858000006207;0.01
3;1;7;15;letter169;letter190;letter169;letter190;0;0;congruent;0.04;letter169;0.05;0.07;fullmask;0.2;arrow_left.png;up;0.5029340000000957;0.5105746999997791;5553.6517107;2.499999936844688e-06;0.49736140000004525;0.5373618999992686;0.5474092999993445;0.6174260999996477;0.7475043999993431;0.8776094999993802;0.01
3;1;7;16;letter169;letter190;letter169;letter190;0;0;incongruent;0.04;letter169;0.05;0.07;fullmask;0.2;arrow_right.png;up;0.4719777999998769;0.48072270000011486;5555.6117159;2.4000000848900527e-06;0.4959423999998762;0.5359682999996949;0.5459725999999137;0.6159830999995393;0.7460891999999149;0.876181099999485;0.01
3;1;7;17;letter169;letter190;letter169;letter190;0;0;congruent;0.04;letter190;0.05;0.07;fullmask;0.2;arrow_right.png;up;0.5169599000000744;0.5206281999999192;5557.6277049;2.499999936844688e-06;0.5038215000004129;0.5438059000007343;0.553836300000512;0.623864400000457;0.7539505000004283;0.8840534000000844;0.01
3;1;7;18;letter169;letter190;letter169;letter190;0;0;congruent;0.04;letter169;0.05;0.07;fullmask;0.2;arrow_left.png;up;0.8451347999998688;0.8508343000003151;5560.1478044;2.499999936844688e-06;0.496026200000415;0.5360450000007404;0.5460534000003463;0.6160898000007364;0.7461733000000095;0.876270900000236;0.01
3;1;7;19;letter169;letter190;letter169;letter190;0;0;incongruent;0.04;letter190;0.05;0.07;fullmask;0.2;arrow_left.png;down;0.6020216000006258;0.610434900000655;5562.2357061;2.499999936844688e-06;0.503603999999541;0.5436025999997582;0.553587399999742;0.623645900000156;0.7537210000000414;0.8838146999996752;0.01
3;1;7;20;letter169;letter190;letter169;letter190;0;0;incongruent;0.04;letter169;0.05;0.07;fullmask;0.2;arrow_right.png;up;0.7259727999999086;0.729981599999519;5564.4517163;2.499999936844688e-06;0.5035821999999825;0.5436069999996107;0.553610299999491;0.6236657999997988;0.7537258000002112;0.8838273000001209;0.01
3;1;7;21;letter169;letter190;letter169;letter190;0;0;incongruent;0.04;letter190;0.05;0.07;fullmask;0.2;arrow_left.png;up;0.5469682000002649;0.550540700000056;5566.4837262;2.3000002329354174e-06;0.4976669999996375;0.5376878999995824;0.5476740000003701;0.6177452000001722;0.7477999000002455;0.8779074000003675;0.01
3;1;7;22;letter169;letter190;letter169;letter190;0;1;incongruent;0.12;letter190;0.14;0.07;fullmask;0.2;arrow_left.png;down;0.32732209999994666;0.330175699999927;5568.5956925;2.2999993234407157e-06;0.5016744999993534;0.6217405999996117;0.6417529000000286;0.7118110999999772;0.8418721999996706;0.9719843999992008;0.01
3;1;7;23;letter169;letter190;letter169;letter190;0;0;incongruent;0.04;letter169;0.05;0.07;fullmask;0.2;arrow_right.png;up;0.6743441999997231;0.6802404000000024;5570.7637094;2.4000000848900527e-06;0.5032366000004913;0.5432631000003312;0.5532854000002771;0.6233007999999245;0.7533816000004663;0.8834859000007782;0.01
3;1;7;24;letter169;letter190;letter169;letter190;0;0;congruent;0.04;letter190;0.05;0.07;fullmask;0.2;arrow_right.png;up;0.6230202999995527;0.6303220999998302;5572.8837212;2.4000000848900527e-06;0.49584709999999177;0.535857599999872;0.5458759000002829;0.6159102999999959;0.7459963000001153;0.8760876999995162;0.01
3;1;7;25;letter169;letter190;letter169;letter190;0;0;congruent;0.04;letter190;0.05;0.07;fullmask;0.2;arrow_right.png;down;0.7271195999992415;0.7300962999997864;5575.2996963;2.4000000848900527e-06;0.4960646999998062;0.5360891000000265;0.5460858999995253;0.6161330999993879;0.7462323999998262;0.8763296999995873;0.01
3;1;7;26;letter169;letter190;letter169;letter190;0;0;congruent;0.04;letter169;0.05;0.07;fullmask;0.2;arrow_left.png;up;0.5542611000000761;0.5605611999999383;5577.3477128;2.3000002329354174e-06;0.5001939000003404;0.540168999999878;0.5501918999998452;0.6202112000000852;0.7503069000003961;0.8803888000002189;0.01
3;1;7;27;letter169;letter190;letter169;letter190;0;0;congruent;0.04;letter190;0.05;0.07;fullmask;0.2;arrow_right.png;up;0.6389145999992252;0.6413026999998692;5579.4837689;2.499999936844688e-06;0.5035351999995328;0.5435431999994762;0.5535698999992746;0.6235944000000018;0.753678499999296;0.8837665999999444;0.01
3;1;7;28;letter169;letter190;letter169;letter190;0;0;incongruent;0.04;letter169;0.05;0.07;fullmask;0.2;arrow_right.png;up;1.1809150999997655;1.1908396999997422;5582.3478659;3.000000106112566e-06;0.4985255999999936;0.5385446000000229;0.5485641999994186;0.6185797999996794;0.7486665999995239;0.8787686999994548;0.01
3;1;7;29;letter169;letter190;letter169;letter190;0;0;incongruent;0.04;letter169;0.05;0.07;fullmask;0.2;arrow_right.png;up;0.5897330999996484;0.5904797000002873;5584.4277164;2.4000000848900527e-06;0.49846809999962716;0.5384851999997409;0.5484664999994493;0.6185123999994175;0.7485821999998734;0.8786977999998271;0.01
3;1;7;30;letter169;letter190;letter169;letter190;0;0;incongruent;0.04;letter169;0.05;0.07;fullmask;0.2;arrow_right.png;up;2.0200435999995534;2.0216513999994277;5587.9396656;2.4000000848900527e-06;0.5025221000005331;0.5425193000000945;0.5525441999998293;0.6225767000005362;0.7526535000006334;0.8827523999998448;0.01
3;1;7;31;letter169;letter190;letter169;letter190;0;0;congruent;0.04;letter169;0.05;0.07;fullmask;0.2;arrow_left.png;up;1.0036100000006627;1.0103612000002613;5590.4356979;2.600000698294025e-06;0.503144300000713;0.5431609000006574;0.5531872000001385;0.6231996000005893;0.7532914000003075;0.8833769000002576;0.01
3;1;7;32;letter169;letter190;letter169;letter190;0;0;incongruent;0.04;letter190;0.05;0.07;fullmask;0.2;arrow_left.png;up;0.8646647000005032;0.8707300000005489;5592.7877072;2.599999788799323e-06;0.4997514999995474;0.5397810999993453;0.5497776999991402;0.6198128999994879;0.7499103000000105;0.8799912999993467;0.01
3;1;7;33;letter169;letter190;letter169;letter190;0;0;incongruent;0.04;letter190;0.05;0.07;fullmask;0.2;arrow_left.png;up;1.8245600999998715;1.8309626999998727;5596.2998498;2.3000002329354174e-06;0.5031592000004821;0.5431734000003416;0.553188400000181;0.6232058000005054;0.7532998000006046;0.8833887000000686;0.01
3;1;7;34;letter169;letter190;letter169;letter190;0;0;incongruent;0.04;letter190;0.05;0.07;fullmask;0.2;arrow_left.png;down;2.448605700000371;2.4524265999998534;5600.4356852;2.4000000848900527e-06;0.5022217999994609;0.5422318999999334;0.5522265999998126;0.6222632999997586;0.7523536999997305;0.8824506999999358;0.01
3;1;7;35;letter169;letter190;letter169;letter190;0;0;congruent;0.04;letter169;0.05;0.07;fullmask;0.2;arrow_left.png;up;0.4198421999999482;0.42991020000044955;5602.3397606;2.4000000848900527e-06;0.500713800000085;0.5407291000001351;0.5507401000004393;0.6207821999996668;0.7508557999999539;0.8809541999999055;0.01
3;1;7;36;letter169;letter190;letter169;letter190;0;0;congruent;0.04;letter190;0.05;0.07;fullmask;0.2;arrow_right.png;up;0.39073540000026696;0.3999515999994401;5604.2118716;2.3000002329354174e-06;0.49633260000064183;0.5363398000008601;0.5463366000003589;0.6163745000003473;0.7464549000005718;0.8765668000005462;0.01
3;1;7;37;letter169;letter190;letter169;letter190;0;0;congruent;0.04;letter190;0.05;0.07;fullmask;0.2;arrow_right.png;up;1.342722700000195;1.3504500999997617;5607.2356993;2.4000000848900527e-06;0.4961219999995592;0.5361493999998856;0.5461405999994895;0.6161831999997958;0.7462625999996817;0.8763680000001841;0.01
3;1;7;38;letter169;letter190;letter169;letter190;0;0;congruent;0.04;letter169;0.05;0.07;fullmask;0.2;arrow_left.png;down;0.8470862000003763;0.8505615000003672;5609.7716608;2.499999936844688e-06;0.496295499999178;0.5363064999992275;0.5463245999999344;0.6163679999999658;0.7464314999997441;0.8765223000000333;0.01
3;1;7;39;letter169;letter190;letter169;letter190;0;1;congruent;0.12;letter169;0.14;0.07;fullmask;0.2;arrow_left.png;up;0.48134310000023106;0.48975050000080955;5612.0276833;2.4000000848900527e-06;0.5021121999998286;0.6221776000002137;0.6422014999998282;0.7122091000001092;0.8423025000001871;0.9724027000002025;0.01
3;1;7;40;letter169;letter190;letter169;letter190;0;0;incongruent;0.04;letter169;0.05;0.07;fullmask;0.2;arrow_right.png;up;0.43803530000059254;0.43974320000052103;5613.9556934;2.499999936844688e-06;0.5056575000007797;0.5456784000007247;0.5556884000006903;0.6257131000002119;0.7557944000000134;0.8859326000001602;0.01
3;1;7;41;letter169;letter190;letter169;letter190;0;0;incongruent;0.04;letter169;0.05;0.07;fullmask;0.2;arrow_right.png;down;0.4593615999992835;0.46077359999981127;5615.9076989;2.600000698294025e-06;0.5019805000001725;0.5420027000000118;0.5519946000003983;0.6220391000006202;0.7521145000000615;0.882229400000142;0.01
3;1;7;42;letter169;letter190;letter169;letter190;0;0;incongruent;0.04;letter190;0.05;0.07;fullmask;0.2;arrow_left.png;up;0.8132998999999472;0.8198673999995663;5618.403695;2.4000000848900527e-06;0.5015386999994007;0.54155449999962;0.5515639999994164;0.62159949999932;0.751690499999313;0.8817985999994562;0.01
3;1;7;43;letter169;letter190;letter169;letter190;0;0;incongruent;0.04;letter190;0.05;0.07;fullmask;0.2;arrow_left.png;down;0.7177670000000944;0.7201265000003332;5620.8196951;2.3000002329354174e-06;0.5019363999999769;0.5419541000001118;0.5519616000001406;0.6219938000003822;0.7520785000006072;0.8821928000006665;0.01
3;1;7;44;letter169;letter190;letter169;letter190;0;0;congruent;0.04;letter169;0.05;0.07;fullmask;0.2;arrow_left.png;down;0.9728695000003427;0.9803942999997162;5623.2756956;2.2999993234407157e-06;0.49608249999982945;0.5360915999999634;0.546085399999356;0.6161271999999371;0.746203599999717;0.876323799999227;0.01
3;1;7;45;letter169;letter190;letter169;letter190;0;0;congruent;0.04;letter169;0.05;0.07;fullmask;0.2;arrow_left.png;up;0.553074800000104;0.5604227000003448;5625.5076951;2.4000000848900527e-06;0.5026939999997921;0.5427066000002014;0.552702699999827;0.6227373000001535;0.7528335000006336;0.8829270000005636;0.01
3;1;7;46;letter169;letter190;letter169;letter190;0;0;congruent;0.04;letter190;0.05;0.07;fullmask;0.2;arrow_right.png;up;0.6393300999998246;0.6402027999993152;5627.6356943;2.4000000848900527e-06;0.5015438999998878;0.5415583000003608;0.5515597000003254;0.6215953000000809;0.7516760999997132;0.8817908999999418;0.01
3;1;7;47;letter169;letter190;letter169;letter190;0;0;incongruent;0.04;letter169;0.05;0.07;fullmask;0.2;arrow_right.png;up;0.5345823999996355;0.5406050999999934;5629.851696;2.4000000848900527e-06;0.49682560000019294;0.5368503999998211;0.5468406999998479;0.6168817999996463;0.7469676999999137;0.877059299999928;0.01
3;1;7;48;letter169;letter190;letter169;letter190;0;0;congruent;0.04;letter190;0.05;0.07;fullmask;0.2;arrow_right.png;down;0.8727374999998574;0.8806547000003775;5632.2116565;2.399999175395351e-06;0.5038552999994863;0.5438667999997051;0.5538692000000083;0.6239040999998906;0.7539889999998195;0.8841052999996464;0.01
3;1;7;49;letter169;letter190;letter169;letter190;0;0;incongruent;0.04;letter190;0.05;0.07;fullmask;0.2;arrow_left.png;down;1.0173952000004647;1.0211929000006421;5634.7076642;2.4000000848900527e-06;0.49639810000007856;0.5364218000004257;0.5464276000002428;0.6164588999999978;0.746544200000244;0.8766554000003453;0.01
3;1;7;50;letter169;letter190;letter169;letter190;0;1;congruent;0.12;letter190;0.14;0.07;fullmask;0.2;arrow_right.png;down;0.7122373000001971;0.7205120999997234;5637.003781;2.499999936844688e-06;0.5008938999999373;0.6209684999994352;0.6409769000001688;0.7110017999993943;0.8410851999997249;0.9711841999996977;0.01
3;1;7;51;letter169;letter190;letter169;letter190;0;0;congruent;0.04;letter190;0.05;0.07;fullmask;0.2;arrow_right.png;up;0.8461644999997588;0.8507463999994798;5639.339685;2.599999788799323e-06;0.49942430000010063;0.539439900000616;0.5494475000004968;0.6194755000005898;0.7495631000001595;0.879667199999858;0.01
3;1;7;52;letter169;letter190;letter169;letter190;0;0;congruent;0.04;letter169;0.05;0.07;fullmask;0.2;arrow_left.png;up;0.5867785000000367;0.5904860999999073;5641.6116863;2.499999936844688e-06;0.5016306999996232;0.5416354999997566;0.551659099999597;0.6216776000001119;0.7517729000001054;0.8818711000003532;0.01
3;1;8;1;letter169;letter190;letter169;letter190;0;0;incongruent;0.04;letter169;0.05;0.07;fullmask;0.2;arrow_right.png;up;0.3121769999997923;0.320324399999663;5664.01174;2.6999996407539584e-06;0.5022777999993195;0.5423136999997951;0.5523013000001811;0.6223356999998941;0.7524281999994855;0.8825632999996742;0.01
3;1;8;2;letter169;letter190;letter169;letter190;0;0;incongruent;0.04;letter169;0.05;0.07;fullmask;0.2;arrow_right.png;up;0.015161299999817857;0.020090699999855133;5665.5156535;2.399999175395351e-06;0.4958110999996279;0.5358389999992141;0.5458502999999837;0.6158694999994623;0.7459292999992613;0.8760701999999583;0.01
3;1;8;3;letter169;letter190;letter169;letter190;0;0;incongruent;0.04;letter190;0.05;0.07;fullmask;0.2;arrow_left.png;up;0.1876057999998011;0.18941679999988992;5667.1796552;2.599999788799323e-06;0.49942009999995207;0.5394311000000016;0.5494209999997111;0.6194637999997212;0.7495404000001145;0.8796630999995614;0.01
3;1;8;4;letter169;letter190;letter169;letter190;0;0;congruent;0.04;letter169;0.05;0.07;fullmask;0.2;arrow_left.png;down;0.2705719000005047;0.28031100000043807;5669.1236586;2.599999788799323e-06;0.4963579999994181;0.5363753999999972;0.5463866999998572;0.6164210999995703;0.7465096999994785;0.8766001999993023;0.01
3;1;8;5;letter169;letter190;letter169;letter190;0;0;congruent;0.04;letter169;0.05;0.07;fullmask;0.2;arrow_left.png;up;0.28562419999980193;0.29014339999957883;5671.0997281;2.599999788799323e-06;0.503739200000382;0.5437517999998818;0.5537647000001016;0.623793900000237;0.753893699999935;0.8839882000002035;0.01
3;1;8;6;letter169;letter190;letter169;letter190;0;0;congruent;0.04;letter190;0.05;0.07;fullmask;0.2;arrow_right.png;down;0.3305884999999762;0.34015069999986736;5672.9156614;2.499999936844688e-06;0.5012922000005346;0.5413060999999288;0.5513350999999602;0.621339899999839;0.7514342000004035;0.8815617999998722;0.01
3;1;8;7;letter169;letter190;letter169;letter190;0;0;congruent;0.04;letter190;0.05;0.07;fullmask;0.2;arrow_right.png;up;0.3191192000003866;0.32029729999976553;5674.7157236;2.3000002329354174e-06;0.4958555000002889;0.535868599999958;0.5458688000007896;0.6159109000000171;0.7459986000003482;0.8760956000005535;0.01
3;1;8;8;letter169;letter190;letter169;letter190;0;0;incongruent;0.04;letter190;0.05;0.07;fullmask;0.2;arrow_left.png;down;0.35615150000012363;0.36011099999996077;5676.7636556;2.4000000848900527e-06;0.5020282999994379;0.5420564999994895;0.552039799999875;0.6220884999993359;0.7521716999999626;0.8822738999997455;0.01
3;1;8;9;letter169;letter190;letter169;letter190;0;0;incongruent;0.04;letter169;0.05;0.07;fullmask;0.2;arrow_right.png;up;0.2531630999992558;0.2603194999992411;5678.4916557;2.499999936844688e-06;0.49771809999947436;0.537723399999777;0.5477506999995967;0.6177701999995406;0.7478457999995953;0.8779512000000977;0.01
3;1;8;10;letter169;letter190;letter169;letter190;0;0;incongruent;0.04;letter190;0.05;0.07;fullmask;0.2;arrow_left.png;up;0.5192878000007113;0.5194513000005827;5680.4997037;2.4000000848900527e-06;0.5031066000001374;0.5431226000000606;0.5531222999998135;0.6231524000004356;0.7532437999998365;0.8833511000002545;0.01
3;1;8;11;letter169;letter190;letter169;letter190;0;0;incongruent;0.04;letter169;0.05;0.07;fullmask;0.2;arrow_right.png;up;0.6558085999995455;0.6602985999998054;5682.8277339;2.4000000848900527e-06;0.4963060999998561;0.5363182999999481;0.5463415000003806;0.6163446000000476;0.7464544000004025;0.8765479000003324;0.01
3;1;8;12;letter169;letter190;letter169;letter190;0;1;congruent;0.12;letter190;0.14;0.07;fullmask;0.2;arrow_right.png;down;0.09635580000031041;0.09978570000021136;5684.4997261;2.599999788799323e-06;0.5043986000000587;0.6244904000004681;0.6444769999998243;0.7145024000001285;0.8445865000003323;0.9746878000005381;0.01
3;1;8;13;letter169;letter190;letter169;letter190;0;0;congruent;0.04;letter169;0.05;0.07;fullmask;0.2;arrow_left.png;up;0.36540419999982987;0.3699343999996927;5686.3396561;2.4000000848900527e-06;0.49734059999991587;0.5373713999997562;0.5473835000002509;0.6174116000001959;0.7474973999997019;0.877585000000181;0.01
3;1;8;14;letter169;letter190;letter169;letter190;0;0;congruent;0.04;letter190;0.05;0.07;fullmask;0.2;arrow_right.png;down;0.4282475999998496;0.4297570999997333;5688.2436466;2.3000002329354174e-06;0.49742520000017976;0.5374406000000818;0.5474495999997089;0.6174814999994851;0.7475613999995403;0.8776821999999811;0.01
3;1;8;15;letter169;letter190;letter169;letter190;0;0;congruent;0.04;letter169;0.05;0.07;fullmask;0.2;arrow_left.png;up;0.17124469999998837;0.18053749999944557;5689.9076592;2.4000000848900527e-06;0.5039980000001378;0.5440160999996806;0.5540346999996473;0.6240858000001026;0.7541379999993296;0.8842395000001488;0.01
3;1;8;16;letter169;letter190;letter169;letter190;0;0;congruent;0.04;letter169;0.05;0.07;fullmask;0.2;arrow_left.png;up;0.7028143999996246;0.7112336000000141;5692.0998363;2.4000000848900527e-06;0.4951381999999285;0.5351627000000008;0.5451363000001948;0.6151899000005869;0.7452882000006866;0.8753758000002563;0.01
3;1;8;17;letter169;letter190;letter169;letter190;0;0;congruent;0.04;letter190;0.05;0.07;fullmask;0.2;arrow_right.png;down;0.2292261000002327;0.23054420000062237;5693.8277651;2.599999788799323e-06;0.5041387999999642;0.5441620999999941;0.5541462000001047;0.6242106999998214;0.7542766999995365;0.8844054000001051;0.01
3;1;8;18;letter169;letter190;letter169;letter190;0;0;incongruent;0.04;letter169;0.05;0.07;fullmask;0.2;arrow_right.png;up;0.20388350000030186;0.2104976999999053;5695.5236639;2.499999936844688e-06;0.5028619000004255;0.54289240000071;0.5529015000001891;0.6229337000004307;0.7530139000000418;0.8831109000002471;0.01
3;1;8;19;letter169;letter190;letter169;letter190;0;0;incongruent;0.04;letter190;0.05;0.07;fullmask;0.2;arrow_left.png;down;0.13084089999938442;0.1405466999995042;5697.1316387;2.399999175395351e-06;0.4964037999998254;0.5364135999998325;0.5464221999991423;0.6164461999997002;0.7465468999998848;0.8766028999998525;0.01
3;1;8;20;letter169;letter190;letter169;letter190;0;0;congruent;0.04;letter169;0.05;0.07;fullmask;0.2;arrow_left.png;up;0.10728339999968739;0.109869300000355;5698.7396572;2.499999936844688e-06;0.5012067999996361;0.5412238999997498;0.5512238000001162;0.6212624999998297;0.7513483000002452;0.8814425999999003;0.01
3;1;8;21;letter169;letter190;letter169;letter190;0;0;incongruent;0.04;letter190;0.05;0.07;fullmask;0.2;arrow_left.png;down;0.21432279999953607;0.21947219999947265;5700.4277003;2.499999936844688e-06;0.4944793999993635;0.534481799999412;0.5445085999999719;0.614525599999979;0.7446159999999509;0.8747295999992275;0.01
3;1;8;22;letter169;letter190;letter169;letter190;0;0;congruent;0.04;letter190;0.05;0.07;fullmask;0.2;arrow_right.png;up;0.3197443999997631;0.32016180000027816;5702.2436749;2.4000000848900527e-06;0.501817100000153;0.541829300000245;0.5518506999997044;0.621871000000283;0.7519619000004241;0.8820590000004813;0.01
3;1;8;23;letter169;letter190;letter169;letter190;0;1;incongruent;0.12;letter169;0.14;0.07;fullmask;0.2;arrow_right.png;up;0.3164694999995845;0.32115169999997306;5704.3316926;2.4000000848900527e-06;0.5045428000003085;0.6245908000000782;0.6446039000002202;0.7146568999996816;0.8447161000003689;0.9748239000000467;0.01
3;1;8;24;letter169;letter190;letter169;letter190;0;0;incongruent;0.04;letter190;0.05;0.07;fullmask;0.2;arrow_left.png;down;0.1050357999993139;0.1097012000000177;5705.9316597;2.599999788799323e-06;0.5031847000000198;0.5431799999996656;0.553180699999757;0.6232288999999582;0.7532991999996739;0.8834219999998822;0.01
3;1;8;25;letter169;letter190;letter169;letter190;0;0;congruent;0.04;letter190;0.05;0.07;fullmask;0.2;arrow_right.png;up;2.065923600000133;2.0714943000002677;5709.4836268;2.2999993234407157e-06;0.49593349999940983;0.5359532999991643;0.54597079999985;0.615998899999795;0.746075799999744;0.8761789000000135;0.01
3;1;8;26;letter169;letter190;letter169;letter190;0;0;incongruent;0.04;letter169;0.05;0.07;fullmask;0.2;arrow_right.png;up;0.36343549999946845;0.3700682999997298;5711.5236343;2.499999936844688e-06;0.49428049999914947;0.5342929999997068;0.5443023999996512;0.6143232999993415;0.7444064999999682;0.8745301999997537;0.01
3;1;8;27;letter169;letter190;letter169;letter190;0;0;congruent;0.04;letter190;0.05;0.07;fullmask;0.2;arrow_right.png;up;0.5680942999997569;0.5704949000000852;5713.5796829;2.4000000848900527e-06;0.5022461000007752;0.542269400000805;0.5522794000007707;0.622309000000314;0.7524040000007517;0.8824903000004269;0.01
3;1;8;28;letter169;letter190;letter169;letter190;0;0;congruent;0.04;letter169;0.05;0.07;fullmask;0.2;arrow_left.png;up;0.5172177000004012;0.5205309000002671;5715.7797053;2.3000002329354174e-06;0.5037031000001662;0.5437112999998135;0.5537143999999898;0.6237474999998085;0.753830000000562;0.8839506000003894;0.01
3;1;8;29;letter169;letter190;letter169;letter190;0;0;incongruent;0.04;letter169;0.05;0.07;fullmask;0.2;arrow_right.png;up;0.4537414999995235;0.4606938999995691;5717.7077006;2.4000000848900527e-06;0.4965242999996917;0.5365756999999576;0.5465556999997716;0.6166080000002694;0.7466604000001098;0.8767701999995552;0.01
3;1;8;30;letter169;letter190;letter169;letter190;0;0;congruent;0.04;letter169;0.05;0.07;fullmask;0.2;arrow_left.png;up;1.3541556999998647;1.3602876999993896;5720.5396331;2.4000000848900527e-06;0.4981102000001556;0.5381302999994659;0.5481202000000849;0.6181560999993962;0.7482389999995576;0.8783579000000827;0.01
3;1;8;31;letter169;letter190;letter169;letter190;0;0;congruent;0.04;letter169;0.05;0.07;fullmask;0.2;arrow_left.png;up;2.2801110000000335;2.280959100000473;5724.3076765;2.4000000848900527e-06;0.49891110000044137;0.538922900000216;0.5489222000005611;0.618958200000634;0.749052400000437;0.8791496000003463;0.01
3;1;8;32;letter169;letter190;letter169;letter190;0;0;congruent;0.04;letter190;0.05;0.07;fullmask;0.2;arrow_right.png;up;0.27221800000006624;0.28027210000072955;5726.0518679;2.4000000848900527e-06;0.497338099999979;0.5373563000002832;0.5473619000003964;0.6173980000003212;0.7474786000002496;0.8775871999996525;0.01
3;1;8;33;letter169;letter190;letter169;letter190;0;0;incongruent;0.04;letter190;0.05;0.07;fullmask;0.2;arrow_left.png;down;0.3586842999993678;0.3600836999994499;5728.0996436;2.6999996407539584e-06;0.4968417000000045;0.5368518999994194;0.5468488999995316;0.6168932000000495;0.746969299999364;0.8770812000002479;0.01
3;1;8;34;letter169;letter190;letter169;letter190;0;0;congruent;0.04;letter190;0.05;0.07;fullmask;0.2;arrow_right.png;down;0.19794160000037664;0.20051370000055613;5729.7796245;2.499999936844688e-06;0.5029383999999482;0.5429633000003378;0.5529724999996688;0.6230020000002696;0.7530883999997968;0.8831729000003179;0.01
3;1;8;35;letter169;letter190;letter169;letter190;0;0;congruent;0.04;letter169;0.05;0.07;fullmask;0.2;arrow_left.png;up;0.43025349999970786;0.439746500000183;5731.6836938;2.599999788799323e-06;0.4960747999994055;0.5361180999998396;0.5460948999998436;0.6161594999994122;0.7462186000002475;0.8763371999993979;0.01
3;1;8;36;letter169;letter190;letter169;letter190;0;1;incongruent;0.12;letter190;0.14;0.07;fullmask;0.2;arrow_left.png;down;0.18763890000082029;0.19054860000051121;5733.4517062;2.499999936844688e-06;0.5044333999994706;0.624500399999306;0.6445138999997653;0.7145461999998588;0.8446340999998938;0.9747351999994862;0.01
3;1;8;37;letter169;letter190;letter169;letter190;0;0;congruent;0.04;letter190;0.05;0.07;fullmask;0.2;arrow_right.png;down;0.2660765000000538;0.2704255999997258;5735.2116426;2.4000000848900527e-06;0.4989283000004434;0.5389440000008108;0.5489481000004162;0.6189861000002566;0.7490631000000576;0.8794404000000213;0.01
3;1;8;38;letter169;letter190;letter169;letter190;0;0;incongruent;0.04;letter169;0.05;0.07;fullmask;0.2;arrow_right.png;up;0.26914769999984856;0.2702395999995133;5736.9557242;2.4000000848900527e-06;0.4965092000002187;0.5365314000000581;0.5465493000001516;0.6165669000001799;0.7466574000000037;0.87675660000059;0.01
3;1;8;39;letter169;letter190;letter169;letter190;0;0;congruent;0.04;letter169;0.05;0.07;fullmask;0.2;arrow_left.png;up;0.41389150000031805;0.42070930000045337;5738.8516325;2.499999936844688e-06;0.5044118000005255;0.5444328000003225;0.5544383000005837;0.6244665000003806;0.7545457000005626;0.8846539000005578;0.01
3;1;8;40;letter169;letter190;letter169;letter190;0;0;congruent;0.04;letter169;0.05;0.07;fullmask;0.2;arrow_left.png;up;0.31449050000082934;0.3200980999999956;5740.6436233;2.4000000848900527e-06;0.49694949999957316;0.5369801999995616;0.546963699999651;0.6170019000001048;0.7470864999995683;0.8771855999993932;0.01
3;1;8;41;letter169;letter190;letter169;letter190;0;0;incongruent;0.04;letter169;0.05;0.07;fullmask;0.2;arrow_right.png;up;0.4734250000001339;0.4796433999999863;5742.6036352;2.499999936844688e-06;0.50536910000028;0.5453943000002255;0.5553987000002962;0.6254429999999047;0.7555161999998745;0.8856068000004598;0.01
3;1;8;42;letter169;letter190;letter169;letter190;0;0;congruent;0.04;letter190;0.05;0.07;fullmask;0.2;arrow_right.png;down;0.30412040000010165;0.31019170000035956;5744.3958062;2.600000698294025e-06;0.5050977000000785;0.5451139000006151;0.5551064000001134;0.6251451000007364;0.755229600000348;0.8853465000001961;0.01
3;1;8;43;letter169;letter190;letter169;letter190;0;0;incongruent;0.04;letter190;0.05;0.07;fullmask;0.2;arrow_left.png;down;0.27168710000023566;0.2803059999996549;5746.1638411;2.4000000848900527e-06;0.5021854999995412;0.5422048999998879;0.5522236999995584;0.6222509999997783;0.7523416000003635;0.8824392999995325;0.01
3;1;8;44;letter169;letter190;letter169;letter190;0;0;incongruent;0.04;letter169;0.05;0.07;fullmask;0.2;arrow_right.png;down;0.9499153999995542;0.9505478999999468;5748.6036943;2.399999175395351e-06;0.5024862000000212;0.5425066999996488;0.552526399999806;0.6225362999994104;0.7526259999995091;0.8827252999999473;0.01
3;1;8;45;letter169;letter190;letter169;letter190;0;1;congruent;0.12;letter169;0.14;0.07;fullmask;0.2;arrow_left.png;up;0.2048237999997582;0.21036160000039672;5750.5796235;2.499999936844688e-06;0.49636000000009517;0.6164527999999336;0.6364548999999897;0.7064868000006754;0.8365558000004967;0.9666671000004499;0.01
3;1;8;46;letter169;letter190;letter169;letter190;0;0;incongruent;0.04;letter190;0.05;0.07;fullmask;0.2;arrow_left.png;down;0.43330969999988156;0.43988360000003013;5752.4996356;2.399999175395351e-06;0.49475099999926897;0.5347700999991503;0.5447496999995565;0.6147644999991826;0.7448598999999376;0.8749726999994891;0.01
3;1;8;47;letter169;letter190;letter169;letter190;0;0;incongruent;0.04;letter169;0.05;0.07;fullmask;0.2;arrow_right.png;up;0.28237429999990127;0.2901518999997279;5754.2997182;2.499999936844688e-06;0.5016946999994616;0.5416971999993621;0.5516726999994717;0.6217477000000144;0.7518107999994754;0.881926599999133;0.01
3;1;8;48;letter169;letter190;letter169;letter190;0;0;incongruent;0.04;letter190;0.05;0.07;fullmask;0.2;arrow_left.png;down;0.34839479999936884;0.35012579999965965;5756.1475936;2.4000000848900527e-06;0.5002013000002989;0.5402212999997573;0.550230200000442;0.6202385000005961;0.7503281999997853;0.8804215999998632;0.01
3;1;8;49;letter169;letter190;letter169;letter190;0;0;incongruent;0.04;letter190;0.05;0.07;fullmask;0.2;arrow_left.png;down;0.3551628000004712;0.3600845000000845;5757.9956904;2.599999788799323e-06;0.5056491000004826;0.5456782999999632;0.5556814000001395;0.6257114000000001;0.7558075000006284;0.8859128000003693;0.01
3;1;8;50;letter169;letter190;letter169;letter190;0;0;incongruent;0.04;letter190;0.05;0.07;fullmask;0.2;arrow_left.png;down;0.3321175000000949;0.3400320000000647;5759.803731;2.399999175395351e-06;0.5018470999993951;0.5418599999993603;0.5518454999992173;0.6219031000000541;0.7519876999995176;0.882090000000062;0.01
3;1;8;51;letter169;letter190;letter169;letter190;0;0;congruent;0.04;letter190;0.05;0.07;fullmask;0.2;arrow_right.png;down;0.42151560000002064;0.4299842999998873;5761.7239802;2.599999788799323e-06;0.5021787000005133;0.5421965000005002;0.5522141000001284;0.6222287000000506;0.7523307999999815;0.8824261999998271;0.01
3;1;8;52;letter169;letter190;letter169;letter190;0;0;incongruent;0.04;letter169;0.05;0.07;fullmask;0.2;arrow_right.png;up;0.21446890000061103;0.22033160000046337;5763.4276108;2.599999788799323e-06;0.49811469999986;0.5381287000000157;0.5481604999995398;0.6181648000001587;0.7482719999998153;0.8783633000002737;0.01
3;2;14;1;letter181;letter357;letter357;letter181;1;0;incongruent;0.12;letter181;0.18;0.07;fullmask;0.2;arrow_right.png;up;0.8129650000000765;0.8208386000005703;7016.8510269;2.600000698294025e-06;0.4969793000000209;0.6170433000006597;0.6770845999999437;0.7471223000002283;0.8772074000007706;1.0073201000004701;0.01
3;2;14;2;letter181;letter357;letter357;letter181;1;0;congruent;0.12;letter181;0.18;0.07;fullmask;0.2;arrow_left.png;down;0.28487940000013623;0.29023939999933646;7018.9550863;2.3000002329354174e-06;0.5008558999998058;0.6209133000002112;0.6809554000001299;0.7509872000000541;0.8810786000003645;1.0111765999999989;0.01
3;2;14;3;letter181;letter357;letter357;letter181;1;0;congruent;0.12;letter181;0.18;0.07;fullmask;0.2;arrow_left.png;down;0.1358088000006319;0.13968740000018443;7020.7070903;2.4000000848900527e-06;0.5029306000005818;0.6229965000002267;0.6830436000000191;0.7530555000003005;0.8831458000004204;1.0132460000004357;0.01
3;2;14;4;letter181;letter357;letter357;letter181;1;0;incongruent;0.12;letter357;0.18;0.07;fullmask;0.2;arrow_left.png;up;2.0062379000000874;2.010731099999248;7024.3390734;2.499999936844688e-06;0.505341000000044;0.6254016999992018;0.6854484999994384;0.7554843999996592;0.8855586999998195;1.0156730999997308;0.01
3;2;14;5;letter181;letter357;letter357;letter181;1;0;congruent;0.12;letter357;0.18;0.07;fullmask;0.2;arrow_right.png;up;0.10479990000021644;0.11072890000014013;7026.0590357;2.4000000848900527e-06;0.5039851000001363;0.6240451000003304;0.6840763000000152;0.7541134000002785;0.8842018000004828;1.0143029000000752;0.01
3;2;14;6;letter181;letter357;letter357;letter181;1;0;incongruent;0.12;letter181;0.18;0.07;fullmask;0.2;arrow_right.png;down;2.901079999999638;2.911187499999869;7030.5870442;2.499999936844688e-06;0.49941930000022694;0.6194900999998936;0.6795190000002549;0.7495570000000953;0.8796503000003213;1.0097471999997651;0.01
3;2;14;7;letter181;letter357;letter357;letter181;1;0;congruent;0.12;letter181;0.18;0.07;fullmask;0.2;arrow_left.png;down;0.16259249999984604;0.170703599999797;7032.3711887;2.5000008463393897e-06;0.4975424000003841;0.6176150000001144;0.677659500000118;0.7476837000003798;0.8777715000005628;1.0078744000002189;0.01
3;2;14;8;letter181;letter357;letter357;letter181;1;0;congruent;0.12;letter357;0.18;0.07;fullmask;0.2;arrow_right.png;up;2.9890266000002157;2.991788400000587;7036.9790261;2.4000000848900527e-06;0.5038263000005827;0.6238667000006899;0.6839088000006086;0.7539477000000261;0.8840273000005254;1.0141306000004988;0.01
3;2;14;9;letter181;letter357;letter357;letter181;1;0;incongruent;0.12;letter181;0.18;0.07;fullmask;0.2;arrow_right.png;down;0.3544086000001698;0.3600484000007782;7038.9470266;2.399999175395351e-06;0.4988960999999108;0.6189863999998124;0.6790148000000045;0.7490324999998847;0.8791267999995398;1.0092437999992399;0.01
3;2;14;10;letter181;letter357;letter357;letter181;1;0;incongruent;0.12;letter357;0.18;0.07;fullmask;0.2;arrow_left.png;up;0.5586389000000054;0.5605619000007209;7041.122968;2.4000000848900527e-06;0.5049449999996796;0.6250202999999601;0.6850604000001113;0.7550739999996949;0.8851725999993505;1.0152625000000626;0.01
3;2;14;11;letter181;letter357;letter357;letter181;1;0;congruent;0.12;letter357;0.18;0.07;fullmask;0.2;arrow_right.png;up;0.4493936999997459;0.44976349999978993;7043.1951522;2.399999175395351e-06;0.4962266999991698;0.6163154999994731;0.6763528999999835;0.7463767999997799;0.8764651999999842;1.0065608999993856;0.01
3;2;14;12;letter181;letter357;letter357;letter181;1;0;incongruent;0.12;letter357;0.18;0.07;fullmask;0.2;arrow_left.png;up;0.2999830999997357;0.300103599999602;7045.1070478;2.4000000848900527e-06;0.5027404000002207;0.6228173999998035;0.6828422999997201;0.7528903000002174;0.8829663999995319;1.0130809000002046;0.01
3;2;15;1;letter181;letter357;letter357;letter181;0;0;congruent;0.04;letter357;0.09;0.07;fullmask;0.2;arrow_right.png;up;0.2673256999996738;0.27038079999965703;7055.4110273;2.599999788799323e-06;0.501493599999776;0.5415275999994265;0.5915567000001829;0.6615986999995584;0.7916718999995283;0.9217640999995638;0.01
3;2;15;2;letter181;letter357;letter357;letter181;0;0;congruent;0.04;letter181;0.09;0.07;fullmask;0.2;arrow_left.png;down;0.422996599999351;0.4309204999999565;7057.3471536;2.499999936844688e-06;0.49583290000009583;0.5358619999997245;0.5858848999996553;0.655931999999666;0.7860037000000375;0.9161211999999068;0.01
3;2;15;3;letter181;letter357;letter357;letter181;0;0;incongruent;0.04;letter357;0.09;0.07;fullmask;0.2;arrow_left.png;up;0.2796675999998115;0.28033719999984896;7059.1550701;2.3000002329354174e-06;0.5050645000001168;0.5450797000003149;0.5951210000002902;0.665151600000172;0.7952384999998685;0.9253333999995448;0.01
3;2;15;4;letter181;letter357;letter357;letter181;0;0;incongruent;0.04;letter181;0.09;0.07;fullmask;0.2;arrow_right.png;down;0.41376579999996466;0.4198903999995309;7061.0909547;2.4000000848900527e-06;0.49523539999972854;0.5352504000002227;0.585286399999859;0.6553247000001647;0.7853943999998592;0.9155054000002565;0.01
3;2;15;5;letter181;letter357;letter357;letter181;0;0;congruent;0.04;letter357;0.09;0.07;fullmask;0.2;arrow_right.png;up;0.441197000000102;0.4508058000001256;7063.0590099;2.4000000848900527e-06;0.49918430000070657;0.5391930000005232;0.5892076000000088;0.659258000000591;0.7893638000005012;0.919443499999943;0.01
3;2;15;6;letter181;letter357;letter357;letter181;0;0;incongruent;0.04;letter357;0.09;0.07;fullmask;0.2;arrow_left.png;up;0.46972790000017994;0.4707883999999467;7065.0591197;2.499999936844688e-06;0.505031599999711;0.5450612999993609;0.5950769999999466;0.6651137999997445;0.7952021999999488;0.9253081999995629;0.01
3;2;15;7;letter181;letter357;letter357;letter181;0;1;congruent;0.12;letter181;0.18;0.07;fullmask;0.2;arrow_left.png;down;0.3827609999998458;0.39100349999989703;7067.0432845;2.499999936844688e-06;0.4957586000000447;0.6158268999997745;0.6758797000002232;0.7459087999995972;0.8759903999998642;1.0060962999996264;0.01
3;2;15;8;letter181;letter357;letter357;letter181;0;0;congruent;0.04;letter181;0.09;0.07;fullmask;0.2;arrow_left.png;down;0.5168100999999297;0.5206693999998606;7069.098983;2.6999996407539584e-06;0.504101599999558;0.5441129000000728;0.5941671000000497;0.6641929999996137;0.7942638999993505;0.9243661999998949;0.01
3;2;15;9;letter181;letter357;letter357;letter181;0;0;congruent;0.04;letter181;0.09;0.07;fullmask;0.2;arrow_left.png;down;0.45185510000010254;0.46078009999928327;7071.0750297;2.4000000848900527e-06;0.5033855000001495;0.5434070000001157;0.5934508999998798;0.6634432000000743;0.7935665000004519;0.9236717000003409;0.01
3;2;15;10;letter181;letter357;letter357;letter181;0;0;congruent;0.04;letter357;0.09;0.07;fullmask;0.2;arrow_right.png;up;0.5727010999999038;0.5804702999994333;7073.1869907;2.4000000848900527e-06;0.5054844999995112;0.5455189999993308;0.5955512999998973;0.6655713999998625;0.7956587999997282;0.9257503999997425;0.01
3;2;15;11;letter181;letter357;letter357;letter181;0;0;incongruent;0.04;letter181;0.09;0.07;fullmask;0.2;arrow_right.png;down;0.4464084000001094;0.4497101000006296;7075.1629649;2.5000008463393897e-06;0.496549600000435;0.5366692000006879;0.5866022000000157;0.6566428000005544;0.7867194000000381;0.9168224000004557;0.01
3;2;15;12;letter181;letter357;letter357;letter181;0;0;incongruent;0.04;letter357;0.09;0.07;fullmask;0.2;arrow_left.png;up;0.47537560000000667;0.4797372000002724;7077.1629961;2.4000000848900527e-06;0.5033822000004875;0.5433994000004532;0.5934217000003628;0.6634641999999076;0.7935367000000042;0.9236653000007209;0.01
3;2;15;13;letter181;letter357;letter357;letter181;0;0;incongruent;0.04;letter181;0.09;0.07;fullmask;0.2;arrow_right.png;down;0.45062289999987115;0.4507564999994429;7079.1390277;2.3000002329354174e-06;0.49895920000017213;0.5389654000000519;0.5889953000005335;0.6590358000003107;0.7891171000001123;0.9192159000003812;0.01
3;2;15;14;letter181;letter357;letter357;letter181;0;0;congruent;0.04;letter357;0.09;0.07;fullmask;0.2;arrow_right.png;up;0.5536089000006541;0.5605602000005092;7081.2029362;2.3000002329354174e-06;0.4964119000005667;0.5364378000003853;0.586480400000255;0.6565050000008341;0.7865935000008903;0.9166802000008829;0.01
3;2;15;15;letter181;letter357;letter357;letter181;0;0;congruent;0.04;letter181;0.09;0.07;fullmask;0.2;arrow_left.png;down;0.5572569000005387;0.5594387999999526;7083.2989451;2.2999993234407157e-06;0.5050823000001401;0.5451076999997895;0.5951380999995308;0.6651618999994753;0.7952522999994471;0.9253515999998854;0.01
3;2;15;16;letter181;letter357;letter357;letter181;0;0;incongruent;0.04;letter357;0.09;0.07;fullmask;0.2;arrow_left.png;up;0.5147866000006616;0.520667499999945;7085.3469812;2.499999936844688e-06;0.5054485000000568;0.5454748000001928;0.595510899999681;0.6655341000005137;0.7956224999998085;0.9257189999998445;0.01
3;2;15;17;letter181;letter357;letter357;letter181;0;0;incongruent;0.04;letter357;0.09;0.07;fullmask;0.2;arrow_left.png;up;0.3995709999999235;0.40098870000019815;7087.2830714;2.4000000848900527e-06;0.5025119000001723;0.5425246000004336;0.5925490999998146;0.6625866000003953;0.792670800000451;0.9227676000000429;0.01
3;2;15;18;letter181;letter357;letter357;letter181;0;0;congruent;0.04;letter357;0.09;0.07;fullmask;0.2;arrow_right.png;up;0.38838880000002973;0.3911015000003317;7089.2030502;2.499999936844688e-06;0.5032906999995248;0.5432957999992141;0.5933330999996542;0.6633683999998539;0.793450699999994;0.9235582999999679;0.01
3;2;15;19;letter181;letter357;letter357;letter181;0;0;congruent;0.04;letter181;0.09;0.07;fullmask;0.2;arrow_left.png;down;0.4743957999999111;0.47973020000063116;7091.2110028;2.499999936844688e-06;0.4986105999996653;0.5386320999996315;0.5886764999995648;0.6586907999999312;0.7888002999998207;0.9188875999998345;0.01
3;2;15;20;letter181;letter357;letter357;letter181;0;0;incongruent;0.04;letter181;0.09;0.07;fullmask;0.2;arrow_right.png;down;0.5995641999998043;0.6004271000001609;7093.346947;2.4000000848900527e-06;0.5027852000002895;0.5428050999998959;0.592859899999894;0.6628368000001501;0.7929678000000422;0.9230648000002475;0.01
3;2;15;21;letter181;letter357;letter357;letter181;0;0;incongruent;0.04;letter181;0.09;0.07;fullmask;0.2;arrow_right.png;down;0.47638629999983095;0.4807305999993332;7095.3550033;2.5000008463393897e-06;0.5028602000002138;0.542875100000856;0.592916100000366;0.662944100000459;0.7930405000006431;0.9231093000007604;0.01
3;2;15;22;letter181;letter357;letter357;letter181;0;0;congruent;0.04;letter181;0.09;0.07;fullmask;0.2;arrow_left.png;down;0.39922070000011445;0.4009496999997282;7097.2990977;2.499999936844688e-06;0.504658599999857;0.5446741999994629;0.5947053999998388;0.664765599999555;0.7948269999997137;0.9249299999992218;0.01
3;2;15;23;letter181;letter357;letter357;letter181;0;0;congruent;0.04;letter357;0.09;0.07;fullmask;0.2;arrow_right.png;up;0.46798220000073343;0.4707341000002998;7099.2989776;2.499999936844688e-06;0.5051499999999578;0.5451730999993742;0.5952049999996234;0.6652344999993147;0.7953093999994962;0.9254233999999997;0.01
3;2;15;24;letter181;letter357;letter357;letter181;0;1;incongruent;0.12;letter357;0.18;0.07;fullmask;0.2;arrow_left.png;up;0.4179285999998683;0.41989190000003873;7101.3309793;2.4000000848900527e-06;0.4976685000001453;0.6177447000000029;0.6777825999997731;0.7478240000000369;0.8779026000001977;1.0080096000001504;0.01
3;2;15;25;letter181;letter357;letter357;letter181;0;0;incongruent;0.04;letter357;0.09;0.07;fullmask;0.2;arrow_left.png;up;0.3964747999998508;0.39994519999982003;7103.2509916;2.7999994927085936e-06;0.5050410999992891;0.5450563999993392;0.5950815999995029;0.6651168999997026;0.7951992999996946;0.9253259999995862;0.01
3;2;15;26;letter181;letter357;letter357;letter181;0;0;incongruent;0.04;letter181;0.09;0.07;fullmask;0.2;arrow_right.png;down;0.379696399999375;0.379871600000115;7105.1550824;2.499999936844688e-06;0.5010399999991932;0.5410529999999198;0.5910775999991529;0.6611134999993737;0.7911967999998524;0.9213161999996373;0.01
3;2;15;27;letter181;letter357;letter357;letter181;0;0;congruent;0.04;letter181;0.09;0.07;fullmask;0.2;arrow_left.png;down;0.04018590000032418;0.05003000000033353;7106.7070172;2.4000000848900527e-06;0.4996002000007138;0.5396256000003632;0.5896330000005037;0.659679800000049;0.7897550000006959;0.9198728000001211;0.01
3;2;15;28;letter181;letter357;letter357;letter181;0;0;incongruent;0.04;letter181;0.09;0.07;fullmask;0.2;arrow_right.png;down;0.4619332000002032;0.47067449999940436;7108.698978;2.499999936844688e-06;0.5037419000000227;0.5437558000003264;0.593797600000471;0.6638279999997394;0.7939100000003236;0.9240158000002339;0.01
3;2;15;29;letter181;letter357;letter357;letter181;0;0;incongruent;0.04;letter357;0.09;0.07;fullmask;0.2;arrow_left.png;up;0.464281800000208;0.4706677000003765;7110.6830416;2.2999993234407157e-06;0.5028345000000627;0.542844900000091;0.592880399999558;0.6629002999998193;0.7929834999995364;0.9230969000000186;0.01
3;2;15;30;letter181;letter357;letter357;letter181;0;0;incongruent;0.04;letter357;0.09;0.07;fullmask;0.2;arrow_left.png;up;0.4989080000004833;0.500676100000419;7112.6989819;2.399999175395351e-06;0.4996655999993891;0.5396853999991436;0.589729599999373;0.6598143999999593;0.7898432999991201;0.9199411999998119;0.01
3;2;15;31;letter181;letter357;letter357;letter181;0;0;congruent;0.04;letter181;0.09;0.07;fullmask;0.2;arrow_left.png;down;0.42331279999962135;0.42977220000011584;7114.6350181;2.4000000848900527e-06;0.4959823999997752;0.5360034000004816;0.5860588000005009;0.656079000000318;0.7861677999999301;0.9162612999998601;0.01
3;2;15;32;letter181;letter357;letter357;letter181;0;0;incongruent;0.04;letter181;0.09;0.07;fullmask;0.2;arrow_right.png;down;0.4462919999996302;0.45084159999987605;7116.61903;2.4000000848900527e-06;0.5024345000001631;0.5424518999998327;0.5924795999999333;0.662529899999754;0.7925932999996803;0.9227097000002686;0.01
3;2;15;33;letter181;letter357;letter357;letter181;0;0;congruent;0.04;letter357;0.09;0.07;fullmask;0.2;arrow_right.png;down;0.5667882999996436;0.5705324000000473;7118.7310417;2.4000000848900527e-06;0.5010007999999289;0.5410239000002548;0.5910808999997244;0.6610817000000679;0.7911702999999761;0.921263899999758;0.01
3;2;15;34;letter181;letter357;letter357;letter181;0;1;congruent;0.12;letter357;0.18;0.07;fullmask;0.2;arrow_right.png;up;0.3456671000003553;0.35008490000018355;7120.8909744;2.6999996407539584e-06;0.49802679999993416;0.6180919999997059;0.678125700000237;0.7481527999998434;0.8782469999996465;1.0083488000000216;0.01
3;2;15;35;letter181;letter357;letter357;letter181;0;0;incongruent;0.04;letter181;0.09;0.07;fullmask;0.2;arrow_right.png;down;0.4765346000003774;0.480717000000368;7122.883108;2.499999936844688e-06;0.4981305000001157;0.538146400000187;0.5881763000006686;0.6582312000000456;0.7883015000006708;0.9184007000003476;0.01
3;2;15;36;letter181;letter357;letter357;letter181;0;0;congruent;0.04;letter357;0.09;0.07;fullmask;0.2;arrow_right.png;up;0.42928110000048036;0.4307678000004671;7124.8269453;2.499999936844688e-06;0.49947139999949286;0.5394986000001154;0.5895150999995167;0.6595530999993571;0.7896311999993486;0.9197404999995342;0.01
3;2;15;37;letter181;letter357;letter357;letter181;0;0;congruent;0.04;letter357;0.09;0.07;fullmask;0.2;arrow_right.png;up;0.4643117000005077;0.47066390000054525;7126.8030648;2.399999175395351e-06;0.497867099999894;0.5379049999992276;0.5879420999999638;0.6579463999996733;0.7880433999998786;0.9181612999991557;0.01
3;2;15;38;letter181;letter357;letter357;letter181;0;0;congruent;0.04;letter181;0.09;0.07;fullmask;0.2;arrow_left.png;down;0.370384799999556;0.37964849999934813;7128.690968;2.499999936844688e-06;0.4980285999999978;0.5380420999999842;0.5880644999997457;0.6581050000004325;0.7881802000001699;0.9183075000000827;0.01
3;2;15;39;letter181;letter357;letter357;letter181;0;0;incongruent;0.04;letter357;0.09;0.07;fullmask;0.2;arrow_left.png;up;0.42389209999964805;0.43081879999954253;7130.6350937;2.599999788799323e-06;0.4968983999997363;0.5369278999996823;0.5869507999996131;0.6569830999997066;0.7870812000001024;0.9171620999995866;0.01
3;2;15;40;letter181;letter357;letter357;letter181;0;0;congruent;0.04;letter181;0.09;0.07;fullmask;0.2;arrow_left.png;down;0.5199628999998822;0.5305288999998083;7132.6831458;2.4000000848900527e-06;0.505384299999605;0.5454243000003771;0.5954455000000962;0.6654548999995313;0.7955573999997796;0.9256414999999834;0.01
3;2;15;41;letter181;letter357;letter357;letter181;0;0;congruent;0.04;letter357;0.09;0.07;fullmask;0.2;arrow_right.png;up;0.46849029999975755;0.46980299999995623;7134.6830738;2.399999175395351e-06;0.49735769999915647;0.5373954999995476;0.5874277999992046;0.6574564999991708;0.7875353999997969;0.9176463999992848;0.01
3;2;15;42;letter181;letter357;letter357;letter181;0;0;congruent;0.04;letter357;0.09;0.07;fullmask;0.2;arrow_right.png;up;0.559243300000162;0.5604269000004933;7136.7549977;2.2999993234407157e-06;0.4963926000000356;0.5363839999999982;0.5864117000000988;0.6564531999993051;0.7865336999993815;0.9166370999992068;0.01
3;2;15;43;letter181;letter357;letter357;letter181;0;1;incongruent;0.12;letter181;0.18;0.07;fullmask;0.2;arrow_right.png;down;0.5559487000000445;0.560424299999795;7138.922964;2.499999936844688e-06;0.5041409000004933;0.6242193999996744;0.6842517000004591;0.75429720000011;0.8843735000000379;1.0144811000000118;0.01
3;2;15;44;letter181;letter357;letter357;letter181;0;0;incongruent;0.04;letter357;0.09;0.07;fullmask;0.2;arrow_left.png;up;0.5331196000006457;0.5405791000002864;7140.9711026;2.499999936844688e-06;0.4987189999992552;0.5387289000000237;0.5887498999991294;0.658799399999225;0.7888608999992357;0.9189868999992541;0.01
3;2;15;45;letter181;letter357;letter357;letter181;0;0;congruent;0.04;letter181;0.09;0.07;fullmask;0.2;arrow_left.png;down;0.47955000000001746;0.480634800000189;7142.9790592;2.4000000848900527e-06;0.5001637000004848;0.5401775000000271;0.5901964000004227;0.6602403000006234;0.7903289000005316;0.9204411999999138;0.01
3;2;15;46;letter181;letter357;letter357;letter181;0;0;incongruent;0.04;letter181;0.09;0.07;fullmask;0.2;arrow_right.png;down;0.4784777999993821;0.4807617999995273;7144.9789555;2.4000000848900527e-06;0.5017305999999735;0.5417594999998983;0.5918049000001702;0.6618643000001612;0.7919168999997055;0.9220244999996794;0.01
3;2;15;47;letter181;letter357;letter357;letter181;0;0;incongruent;0.04;letter357;0.09;0.07;fullmask;0.2;arrow_left.png;up;0.48523500000010245;0.49069969999982277;7146.9870342;2.599999788799323e-06;0.5038218999998207;0.5438369000003149;0.5938641000002463;0.6639009999998962;0.7939716000000772;0.9240817999998399;0.01
3;2;15;48;letter181;letter357;letter357;letter181;0;0;congruent;0.04;letter181;0.09;0.07;fullmask;0.2;arrow_left.png;down;0.44392940000034287;0.4507405000003928;7148.9471731;2.3000002329354174e-06;0.49663260000033915;0.5366549999998824;0.5867019000006621;0.6567150999999285;0.786806300000535;0.9169124000000011;0.01
3;2;15;49;letter181;letter357;letter357;letter181;0;0;incongruent;0.04;letter181;0.09;0.07;fullmask;0.2;arrow_right.png;down;0.5128058000000237;0.5205203000004985;7150.9869928;2.499999936844688e-06;0.5023630000005141;0.5423670000000129;0.5924248999999691;0.6624514000004638;0.7925285999999687;0.9226465000001554;0.01
3;2;15;50;letter181;letter357;letter357;letter181;0;0;congruent;0.04;letter357;0.09;0.07;fullmask;0.2;arrow_right.png;up;0.4733436000005895;0.48077590000048076;7152.978954;2.3000002329354174e-06;0.497179099999812;0.5371940000004543;0.5872315000005983;0.6572492000004786;0.7873436999998376;0.9174352999998518;0.01
3;2;15;51;letter181;letter357;letter357;letter181;0;0;incongruent;0.04;letter181;0.09;0.07;fullmask;0.2;arrow_right.png;down;0.39349330000004556;0.39998779999950784;7154.8909536;2.499999936844688e-06;0.5001812999998947;0.5402111999992485;0.5902286000000458;0.6602687999993577;0.7903338999994958;0.9204512999995131;0.01
3;2;15;52;letter181;letter357;letter357;letter181;0;0;incongruent;0.04;letter357;0.09;0.07;fullmask;0.2;arrow_left.png;up;0.43279749999965134;0.4408432999998695;7156.8511367;2.4000000848900527e-06;0.503875400000652;0.5438757000001715;0.5939052000003358;0.6639461000004303;0.7940267000003587;0.9241351000000577;0.01
3;2;16;1;letter181;letter357;letter357;letter181;0;0;incongruent;0.04;letter181;0.09;0.07;fullmask;0.2;arrow_right.png;down;0.34760629999982484;0.3511637999999948;7162.0189111;2.4000000848900527e-06;0.4964936000005764;0.5364868000006027;0.5865543999998408;0.6565951000002315;0.7866662000005817;0.9167791999998371;0.01
3;2;16;2;letter181;letter357;letter357;letter181;0;0;congruent;0.04;letter357;0.09;0.07;fullmask;0.2;arrow_right.png;up;0.36542929999995977;0.3699323999999251;7163.899009;2.499999936844688e-06;0.5029273999998622;0.542938999999933;0.5929667999998856;0.6629988999993657;0.7930807999991885;0.9231884999999238;0.01
3;2;16;3;letter181;letter357;letter357;letter181;0;0;congruent;0.04;letter181;0.09;0.07;fullmask;0.2;arrow_left.png;down;0.413093399999525;0.42096349999974336;7165.826942;2.4000000848900527e-06;0.4996659999997064;0.5396982000002026;0.5897143000001961;0.6597499999998035;0.7898310999999012;0.9199368999998114;0.01
3;2;16;4;letter181;letter357;letter357;letter181;0;1;incongruent;0.12;letter357;0.18;0.07;fullmask;0.2;arrow_left.png;up;0.3676147000005585;0.3699640000004365;7167.803017;2.3000002329354174e-06;0.4975690000001123;0.6176530000002458;0.6776803000002474;0.7477132000003621;0.8777877000002263;1.007897800000137;0.01
3;2;16;5;letter181;letter357;letter357;letter181;0;0;incongruent;0.04;letter181;0.09;0.07;fullmask;0.2;arrow_right.png;down;0.3884114000002228;0.39001770000049873;7169.7149872;2.4000000848900527e-06;0.5052937999998903;0.5453143000004275;0.5953442999998515;0.6653672000002189;0.7954631000002337;0.9255574999997407;0.01
3;2;16;6;letter181;letter357;letter357;letter181;0;0;incongruent;0.04;letter181;0.09;0.07;fullmask;0.2;arrow_right.png;down;0.3193567999996958;0.32106260000000475;7171.5469152;2.499999936844688e-06;0.4968458000003011;0.5368630000002668;0.5869050999999672;0.6569283999997424;0.7870097000004534;0.9171207999997932;0.01
3;2;16;7;letter181;letter357;letter357;letter181;0;0;incongruent;0.04;letter357;0.09;0.07;fullmask;0.2;arrow_left.png;up;0.3899538000005123;0.3908753000005163;7173.4590193;2.599999788799323e-06;0.5038567000001422;0.5438727000000654;0.5938986000001023;0.663939300000493;0.7940525000003618;0.9241441000003761;0.01
3;2;16;8;letter181;letter357;letter357;letter181;0;0;congruent;0.04;letter357;0.09;0.07;fullmask;0.2;arrow_right.png;up;0.30206750000070315;0.3101802000001044;7175.2829429;2.4000000848900527e-06;0.4987494000006336;0.5387619000002815;0.5887917000000016;0.6588211000007504;0.7889019000003827;0.919021700000485;0.01
3;2;16;9;letter181;letter357;letter357;letter181;0;0;incongruent;0.04;letter357;0.09;0.07;fullmask;0.2;arrow_left.png;up;0.3674477000004117;0.3700539999999819;7177.178957;2.4000000848900527e-06;0.4990736999998262;0.5390999999999622;0.5891148999999132;0.659162899999501;0.7892547000001287;0.9193585000002713;0.01
3;2;16;10;letter181;letter357;letter357;letter181;0;0;congruent;0.04;letter181;0.09;0.07;fullmask;0.2;arrow_left.png;down;0.4120667000006506;0.41993710000042483;7179.1149395;2.3000002329354174e-06;0.4980803999997079;0.5380917000002228;0.5881651999998212;0.6581539999997403;0.7882508000002417;0.9183505000000878;0.01
3;2;16;11;letter181;letter357;letter357;letter181;0;0;congruent;0.04;letter357;0.09;0.07;fullmask;0.2;arrow_right.png;up;0.4394635999997263;0.44084250000014435;7181.0830596;2.4000000848900527e-06;0.5049807000004876;0.5449971000007281;0.5950450000000274;0.6650862000005873;0.795145400000365;0.9252476000001479;0.01
3;2;16;12;letter181;letter357;letter357;letter181;0;0;incongruent;0.04;letter181;0.09;0.07;fullmask;0.2;arrow_right.png;down;0.18383470000026136;0.1904041000007055;7182.7789371;2.3000002329354174e-06;0.4978839000004882;0.5378914000002624;0.5879322000000684;0.6579671000008602;0.788041400000111;0.9181676000007428;0.01
3;2;16;13;letter181;letter357;letter357;letter181;0;0;congruent;0.04;letter357;0.09;0.07;fullmask;0.2;arrow_right.png;up;0.42615870000008726;0.4298017000000982;7184.7230117;2.499999936844688e-06;0.4991864000003261;0.5392145000005257;0.5892432000000554;0.6592669999999998;0.7893580999998449;0.9194625000000087;0.01
3;2;16;14;letter181;letter357;letter357;letter181;0;0;congruent;0.04;letter181;0.09;0.07;fullmask;0.2;arrow_left.png;down;0.3931047000005492;0.4000768000005337;7186.6509566;2.399999175395351e-06;0.5039991999992708;0.5440321999994921;0.5940669999999955;0.6640979999992851;0.7941807999995945;0.9242713999992702;0.01
3;2;16;15;letter181;letter357;letter357;letter181;0;0;incongruent;0.04;letter357;0.09;0.07;fullmask;0.2;arrow_left.png;up;0.4722102999994604;0.4807362000001376;7188.6510652;2.3000002329354174e-06;0.5056656999995539;0.5456835000004503;0.5957193000003826;0.6657462000002852;0.7958275999999387;0.9259455999999773;0.01
3;2;16;16;letter181;letter357;letter357;letter181;0;0;incongruent;0.04;letter181;0.09;0.07;fullmask;0.2;arrow_right.png;down;0.4144851999999446;0.41989229999944655;7190.5949436;2.3000002329354174e-06;0.5003938999998354;0.5404218000003311;0.5904633000000103;0.6604857000002085;0.7905901000003723;0.9206774000003861;0.01
3;2;16;17;letter181;letter357;letter357;letter181;0;0;congruent;0.04;letter181;0.09;0.07;fullmask;0.2;arrow_left.png;down;0.4335719999999128;0.4408020000000761;7192.5549374;2.499999936844688e-06;0.49934880000000703;0.5393710999996983;0.5893976999996084;0.6594340999999986;0.7895263000000341;0.9196070999996664;0.01
3;2;16;18;letter181;letter357;letter357;letter181;0;0;congruent;0.04;letter181;0.09;0.07;fullmask;0.2;arrow_left.png;down;0.36044700000002194;0.3700231000002532;7194.4429485;2.8000004022032954e-06;0.5044496999998955;0.5444600999999238;0.5945090000004711;0.6645464000002903;0.7946081000000049;0.9247061000005488;0.01
3;2;16;19;letter181;letter357;letter357;letter181;0;0;incongruent;0.04;letter357;0.09;0.07;fullmask;0.2;arrow_left.png;up;0.5093641000003117;0.5107925000002069;7196.4829802;2.499999936844688e-06;0.5049713000007614;0.5449828000000707;0.5950060000004669;0.6650389000005816;0.7951235000000452;0.9252288000006956;0.01
3;2;16;20;letter181;letter357;letter357;letter181;0;0;incongruent;0.04;letter357;0.09;0.07;fullmask;0.2;arrow_left.png;up;0.445656500000041;0.4498084999995626;7198.4509342;2.399999175395351e-06;0.49980909999976575;0.5398099999993065;0.5898643999998967;0.6598862000000736;0.7899717999998757;0.9200584000000163;0.01
3;2;16;21;letter181;letter357;letter357;letter181;0;0;congruent;0.04;letter357;0.09;0.07;fullmask;0.2;arrow_right.png;up;0.44263409999985015;0.45092599999952654;7200.4188935;2.5000008463393897e-06;0.4945774000007077;0.5346064000004844;0.5846292000005633;0.6546674000001076;0.7847422000004372;0.9148638000006031;0.01
3;2;16;22;letter181;letter357;letter357;letter181;0;0;congruent;0.04;letter357;0.09;0.07;fullmask;0.2;arrow_right.png;up;0.4155017000002772;0.42079889999968145;7202.3629257;2.6999996407539584e-06;0.5028372999995554;0.542865399999755;0.5929113000001962;0.6629341999996541;0.793015799999921;0.9231341999993674;0.01
3;2;16;23;letter181;letter357;letter357;letter181;0;0;incongruent;0.04;letter181;0.09;0.07;fullmask;0.2;arrow_right.png;down;0.36996369999997114;0.3799317000002702;7204.2589865;2.4000000848900527e-06;0.5005865000002814;0.5406001000001197;0.5906240000003891;0.6606603000000177;0.790742300000602;0.9208401000005324;0.01
3;2;16;24;letter181;letter357;letter357;letter181;0;1;incongruent;0.12;letter181;0.18;0.07;fullmask;0.2;arrow_right.png;down;0.20461410000007163;0.21035879999999452;7206.0749325;2.499999936844688e-06;0.4994974999999613;0.61958229999982;0.6796050000002651;0.7496599000005517;0.8797340000000986;1.009831899999881;0.01
3;2;16;25;letter181;letter357;letter357;letter181;0;0;congruent;0.04;letter181;0.09;0.07;fullmask;0.2;arrow_left.png;down;0.37759860000005574;0.38004629999977624;7207.978927;2.3000002329354174e-06;0.5041275000003225;0.5441616000007343;0.5941817000002629;0.6642187000006743;0.79430290000073;0.9243931999999404;0.01
3;2;16;26;letter181;letter357;letter357;letter181;0;0;incongruent;0.04;letter357;0.09;0.07;fullmask;0.2;arrow_left.png;up;0.40671090000068943;0.4109635000004346;7209.8989459;2.4000000848900527e-06;0.4959560999996029;0.5359683999995468;0.5860173000000941;0.6560492999997223;0.7861240000001999;0.916246300000239;0.01
3;2;16;27;letter181;letter357;letter357;letter181;0;0;incongruent;0.04;letter357;0.09;0.07;fullmask;0.2;arrow_left.png;up;0.5315491999999722;0.5407125000001543;7211.9551467;2.499999936844688e-06;0.5007089999999152;0.54073150000022;0.5907519000002139;0.6607928000003085;0.7909043999998175;0.9209833000004437;0.01
3;2;16;28;letter181;letter357;letter357;letter181;0;0;incongruent;0.04;letter357;0.09;0.07;fullmask;0.2;arrow_left.png;up;0.42241029999968305;0.4310280999998213;7213.9071046;2.7999994927085936e-06;0.5052372999998624;0.5452493000002505;0.5952892999994219;0.6653166999994937;0.7953976999997394;0.9255112000000736;0.01
3;2;16;29;letter181;letter357;letter357;letter181;0;0;congruent;0.04;letter181;0.09;0.07;fullmask;0.2;arrow_left.png;down;0.3844218999993245;0.38987360000010085;7215.8109251;2.499999936844688e-06;0.4958579000003738;0.5358839000000444;0.5859120000004623;0.6559432000003653;0.7860312000002523;0.9161300000005212;0.01
3;2;16;30;letter181;letter357;letter357;letter181;0;0;incongruent;0.04;letter181;0.09;0.07;fullmask;0.2;arrow_right.png;down;0.40091670000037993;0.40991570000005595;7217.7389315;2.6999996407539584e-06;0.4982399999998961;0.5382294999999431;0.5883079999994152;0.6583129000000554;0.7883979999996882;0.9185902999997779;0.01
3;2;16;31;letter181;letter357;letter357;letter181;0;0;incongruent;0.04;letter357;0.09;0.07;fullmask;0.2;arrow_left.png;up;0.26963640000030864;0.27926750000005995;7219.5389216;2.4000000848900527e-06;0.5028128999992987;0.5428332999999839;0.5928722999997262;0.662894399999459;0.7929887000000235;0.9230791999998473;0.01
3;2;16;32;letter181;letter357;letter357;letter181;0;0;incongruent;0.04;letter357;0.09;0.07;fullmask;0.2;arrow_left.png;up;0.40470079999977315;0.4100641999993968;7221.4750241;2.4000000848900527e-06;0.49787779999951454;0.5379036999993332;0.5879439000000275;0.6579701999999088;0.7880336999996871;0.9181650999998965;0.01
3;2;16;33;letter181;letter357;letter357;letter181;0;0;incongruent;0.04;letter181;0.09;0.07;fullmask;0.2;arrow_right.png;down;0.37534279999999853;0.3800387999999657;7223.386925;2.599999788799323e-06;0.5033682999992379;0.5433836999991399;0.5934206999991147;0.6634495999996943;0.7935218999991775;0.9236360999993849;0.01
3;2;16;34;letter181;letter357;letter357;letter181;0;0;congruent;0.04;letter181;0.09;0.07;fullmask;0.2;arrow_left.png;down;0.34871770000063407;0.3509827000007135;7225.2509121;2.4000000848900527e-06;0.4974218999996083;0.5374301000001651;0.5874562999997579;0.657485199999428;0.7875684999999066;0.917691300000115;0.01
3;2;16;35;letter181;letter357;letter357;letter181;0;0;congruent;0.04;letter357;0.09;0.07;fullmask;0.2;arrow_right.png;up;0.415823399999681;0.42092779999984486;7227.1789191;2.4000000848900527e-06;0.5010246000001644;0.541047300000173;0.5910788000001048;0.6611050000001342;0.7911960000001272;0.9212867999995069;0.01
3;2;16;36;letter181;letter357;letter357;letter181;0;0;congruent;0.04;letter181;0.09;0.07;fullmask;0.2;arrow_left.png;down;0.41830639999989216;0.42080729999997857;7229.1229345;2.499999936844688e-06;0.4993228999992425;0.5393537999998443;0.5893888999999035;0.6594101000000592;0.7895061999997779;0.9195976000000883;0.01
3;2;16;37;letter181;letter357;letter357;letter181;0;0;incongruent;0.04;letter181;0.09;0.07;fullmask;0.2;arrow_right.png;down;0.3830802999991647;0.3908769999998185;7231.0189212;2.499999936844688e-06;0.4974947999999131;0.5375088000000687;0.5875523999993675;0.6575862999998208;0.7876576999997269;0.9177374000000782;0.01
3;2;16;38;letter181;letter357;letter357;letter181;0;0;congruent;0.04;letter357;0.09;0.07;fullmask;0.2;arrow_right.png;up;0.49784420000014507;0.5006838999997854;7233.0349169;2.4000000848900527e-06;0.4996362000001682;0.5396543000006204;0.5896791000004669;0.659725299999991;0.7898016000008283;0.9199067000008654;0.01
3;2;16;39;letter181;letter357;letter357;letter181;0;1;congruent;0.12;letter181;0.18;0.07;fullmask;0.2;arrow_left.png;down;0.30658020000009856;0.3102357999996457;7234.9549359;2.3000002329354174e-06;0.5039095000001907;0.623990899999626;0.6840203000001566;0.7540496999999959;0.8841421999995873;1.0142421999998987;0.01
3;2;16;40;letter181;letter357;letter357;letter181;0;0;congruent;0.04;letter357;0.09;0.07;fullmask;0.2;arrow_right.png;up;0.3535123999999996;0.361055800000031;7236.8429196;2.3000002329354174e-06;0.5056988999995156;0.5457196999996086;0.5957482000003438;0.6657929000002696;0.7958707999996477;0.925970100000086;0.01
3;2;16;41;letter181;letter357;letter357;letter181;0;0;incongruent;0.04;letter181;0.09;0.07;fullmask;0.2;arrow_right.png;down;0.36757049999960145;0.37002429999938613;7238.7389272;2.499999936844688e-06;0.500658800000565;0.5406675000003816;0.5906870999997409;0.6607335999997304;0.7907901999997193;0.9209108000004562;0.01
3;2;16;42;letter181;letter357;letter357;letter181;0;0;congruent;0.04;letter181;0.09;0.07;fullmask;0.2;arrow_left.png;down;0.3889092999997956;0.39109629999984463;7240.6510381;2.3000002329354174e-06;0.5012955000001966;0.5413187000003745;0.5913509000001795;0.6613720000004832;0.7914564000002429;0.9215702000001329;0.01
3;2;16;43;letter181;letter357;letter357;letter181;0;0;congruent;0.04;letter357;0.09;0.07;fullmask;0.2;arrow_right.png;up;0.35736100000031;0.36005329999989044;7242.5309132;2.499999936844688e-06;0.5032143999997061;0.543228900000031;0.5932475999998132;0.6632820999993783;0.7933687999993708;0.9235140000000683;0.01
3;2;16;44;letter181;letter357;letter357;letter181;0;0;incongruent;0.04;letter181;0.09;0.07;fullmask;0.2;arrow_right.png;down;0.39646139999968;0.40083859999958804;7244.4509084;2.499999936844688e-06;0.5022428000002037;0.5422712999998112;0.5922899999995934;0.6623257999999623;0.7924076999997851;0.9225129999995261;0.01
3;2;16;45;letter181;letter357;letter357;letter181;0;0;incongruent;0.04;letter357;0.09;0.07;fullmask;0.2;arrow_left.png;up;0.3614212000002226;0.37106779999976425;7246.346991;2.4000000848900527e-06;0.5034944999997606;0.543511099999705;0.5935411000000386;0.6635756999994555;0.7936706000000413;0.9237665000000561;0.01
3;2;16;46;letter181;letter357;letter357;letter181;0;0;incongruent;0.04;letter357;0.09;0.07;fullmask;0.2;arrow_left.png;up;0.44025409999994736;0.44070949999968434;7248.3069451;2.4000000848900527e-06;0.496144099999583;0.5361641999998028;0.5862099999994825;0.6562213999995947;0.7863171999997576;0.9164106999996875;0.01
3;2;16;47;letter181;letter357;letter357;letter181;0;0;congruent;0.04;letter181;0.09;0.07;fullmask;0.2;arrow_left.png;down;0.5125968000002104;0.520533400000204;7250.3312255;2.499999936844688e-06;0.4970431000001554;0.5370502000005217;0.5870982000005824;0.657119600000442;0.7872262000000774;0.9172978000005969;0.01
3;2;16;48;letter181;letter357;letter357;letter181;0;0;congruent;0.04;letter357;0.09;0.07;fullmask;0.2;arrow_right.png;up;0.3364854999999807;0.33951230000002397;7252.1869449;2.200000380980782e-06;0.4959186000005502;0.5359594999999899;0.5859875000005559;0.6560143000006065;0.7861153000003469;0.9161911000001055;0.01
3;2;16;49;letter181;letter357;letter357;letter181;0;1;congruent;0.12;letter357;0.18;0.07;fullmask;0.2;arrow_right.png;up;0.36147689999961585;0.37007360000006884;7254.1629223;2.499999936844688e-06;0.49626639999951294;0.6163389999992432;0.6763738999998168;0.7464007999997193;0.8764926999992895;1.0065972999991573;0.01
3;2;16;50;letter181;letter357;letter357;letter181;0;0;congruent;0.04;letter181;0.09;0.07;fullmask;0.2;arrow_left.png;down;0.4546602000000348;0.4605421000005663;7256.1469067;2.4000000848900527e-06;0.5047474000002694;0.5447631999995792;0.594800299999406;0.6648367999996481;0.7949168999994072;0.9250178000002052;0.01
3;2;16;51;letter181;letter357;letter357;letter181;0;0;congruent;0.04;letter357;0.09;0.07;fullmask;0.2;arrow_right.png;up;0.859656300000097;0.8606298999993669;7258.5229433;2.6999996407539584e-06;0.5013794999995298;0.5414026999997077;0.591435399999682;0.6614679000003889;0.7915476999996827;0.9216471999998248;0.01
3;2;16;52;letter181;letter357;letter357;letter181;0;0;incongruent;0.04;letter181;0.09;0.07;fullmask;0.2;arrow_right.png;down;0.3820747999998275;0.390016000000287;7260.4269071;2.499999936844688e-06;0.49828079999952024;0.538289199999781;0.5883484999994835;0.6583682000000408;0.7884574999998222;0.9185668999998597;0.01
