subjnr;loop_m;blocknr;trialnr;cue_left_learn;cue_right_learn;option_up;option_down;practice;motivation; congruence;cue_dur;cue;SOA;mask_dur;mask;target_dur;target;response;RT;kb_rt;response_absolute; fix_onset;cue_onset;cue_offset;mask_onset;mask_offset;target_offset;blank_onset;frame_dur
10;1;6;1;letter357;letter181;letter357;letter181;1;0;incongruent;0.12;letter181;0.14;0.07;fullmask;0.2;arrow_left.png;up;1.740500300002168;1.7414297000068473;97440.298956;3.100009053014219e-06;0.5033925000025192;0.6235482000047341;0.6435264000028837;0.7135552999970969;0.8436379000049783;0.973725400006515;0.01
10;1;6;2;letter357;letter181;letter357;letter181;1;0;incongruent;0.12;letter181;0.14;0.07;fullmask;0.2;arrow_left.png;down;0.5220782000105828;0.5307306000031531;97442.6029448;2.6000052457675338e-06;0.49635590000252705;0.6164295000053244;0.6364328000054229;0.7064831000025151;0.8365617999952519;0.9666119000030449;0.01
10;1;6;3;letter357;letter181;letter357;letter181;1;0;incongruent;0.12;letter357;0.14;0.07;fullmask;0.2;arrow_right.png;up;0.34098269999958575;0.3511185999959707;97444.5629305;2.6000052457675338e-06;0.49606170000333805;0.6161399999982677;0.6361616000067443;0.7061782000091625;0.836279299997841;0.9663873999961652;0.01
10;1;6;4;letter357;letter181;letter357;letter181;1;0;incongruent;0.12;letter181;0.14;0.07;fullmask;0.2;arrow_left.png;down;2.6034684000042034;2.612004299997352;97448.7469105;2.7000060072168708e-06;0.49860580000677146;0.6186747000028845;0.6386832999996841;0.7086960000015097;0.8388259000057587;0.9689119999966351;0.01
10;1;6;5;letter357;letter181;letter357;letter181;1;0;congruent;0.12;letter181;0.14;0.07;fullmask;0.2;arrow_right.png;down;0.07912929999292828;0.08070930000394583;97450.3949836;2.5000044843181968e-06;0.49649190000491217;0.6165488999977242;0.6365700000023935;0.7066054000024451;0.8366878000088036;0.9667870999983279;0.01
10;1;6;6;letter357;letter181;letter357;letter181;1;0;incongruent;0.12;letter357;0.14;0.07;fullmask;0.2;arrow_right.png;up;1.659424699988449;1.6605813999922248;97453.6270079;2.5000044843181968e-06;0.49718330000177957;0.6172646000050008;0.637266699995962;0.7073041999974521;0.8373862000007648;0.9675081000023056;0.01
10;1;6;7;letter357;letter181;letter357;letter181;1;0;congruent;0.12;letter357;0.14;0.07;fullmask;0.2;arrow_left.png;up;0.283525799997733;0.2903857000055723;97455.4830841;2.6000052457675338e-06;0.4982105000090087;0.618290700003854;0.6383090000017546;0.7083431000064593;0.8384309999964898;0.9684901000000536;0.01
10;1;6;8;letter357;letter181;letter357;letter181;1;0;congruent;0.12;letter357;0.14;0.07;fullmask;0.2;arrow_left.png;up;0.16598720000183675;0.16947600001003593;97457.2269846;2.7000060072168708e-06;0.49988930000108667;0.6199611000047298;0.6399654999986524;0.7099925000075018;0.8400882999994792;0.9701773999986472;0.01
10;1;6;9;letter357;letter181;letter357;letter181;1;0;congruent;0.12;letter181;0.14;0.07;fullmask;0.2;arrow_right.png;up;0.025361699998029508;0.030087699997238815;97458.8669468;2.6000052457675338e-06;0.501765000008163;0.6218519000103697;0.6418583000049694;0.7119134000095073;0.841979300006642;0.9720803000091109;0.01
10;1;6;10;letter357;letter181;letter357;letter181;1;0;incongruent;0.12;letter357;0.14;0.07;fullmask;0.2;arrow_right.png;down;0.024089600003208034;0.029944200010504574;97460.6669384;5.199995939619839e-06;0.5017612000083318;0.6218217999994522;0.641824300008011;0.7118653000070481;0.8419436999975005;0.9720484999998007;0.01
10;1;6;11;letter357;letter181;letter357;letter181;1;0;congruent;0.12;letter357;0.14;0.07;fullmask;0.2;arrow_left.png;up;3.6386796000006143;3.642157499998575;97466.0830054;2.7000060072168708e-06;0.5040098000026774;0.6240890000044601;0.6441173000057461;0.7141383000125643;0.8442225000035251;0.9742887000029441;0.01
10;1;6;12;letter357;letter181;letter357;letter181;1;0;congruent;0.12;letter181;0.14;0.07;fullmask;0.2;arrow_right.png;down;0.0712855000019772;0.07993890000216197;97467.7389194;2.5000044843181968e-06;0.499639899993781;0.6197019999963231;0.6397195000026841;0.7097393000003649;0.8398451999964891;0.9699414000060642;0.01
10;1;7;1;letter357;letter181;letter357;letter181;0;0;incongruent;0.04;letter181;0.05;0.07;fullmask;0.2;arrow_left.png;up;0.8611178999999538;0.8708747000055155;97488.0111142;2.7000060072168708e-06;0.4987764000106836;0.5388062999991234;0.5488213000062387;0.618843400006881;0.7489472000015667;0.8790391000075033;0.01
10;1;7;2;letter357;letter181;letter357;letter181;0;1;congruent;0.12;letter357;0.14;0.07;fullmask;0.2;arrow_left.png;up;0.11565260001225397;0.12070290000701789;97489.906979;2.6000052457675338e-06;0.5031401000014739;0.6232089999975869;0.6432320000021718;0.7132635000016307;0.8433492000040133;0.973450600009528;0.01
10;1;7;3;letter357;letter181;letter357;letter181;0;0;congruent;0.04;letter181;0.05;0.07;fullmask;0.2;arrow_right.png;down;0.24442250000720378;0.2503584000078263;97491.6670732;2.5000044843181968e-06;0.5049529999960214;0.544955100005609;0.5549533000012161;0.6249849000014365;0.7550840000039898;0.8851613000006182;0.01
10;1;7;4;letter357;letter181;letter357;letter181;0;0;congruent;0.04;letter181;0.05;0.07;fullmask;0.2;arrow_right.png;down;0.19943029999558348;0.20052500000747386;97493.3629653;2.5000044843181968e-06;0.499838700008695;0.5398635000019567;0.5498723000055179;0.6199041000072611;0.7499890000035521;0.8800831999978982;0.01
10;1;7;5;letter357;letter181;letter357;letter181;0;0;incongruent;0.04;letter181;0.05;0.07;fullmask;0.2;arrow_left.png;down;0.12422700000752229;0.13065659999847412;97494.9789115;3.000008291564882e-06;0.49856599999475293;0.5385912000056123;0.5486076999950456;0.6186373999953503;0.7487181000033161;0.8788270000077318;0.01
10;1;7;6;letter357;letter181;letter357;letter181;0;0;congruent;0.04;letter357;0.05;0.07;fullmask;0.2;arrow_left.png;up;0.08945100000710227;0.09050429999479093;97496.5551068;2.800006768666208e-06;0.4996753000013996;0.5397325000085402;0.5497267000027932;0.6197582000022521;0.7498275999969337;0.8799384000012651;0.01
10;1;7;7;letter357;letter181;letter357;letter181;0;0;congruent;0.04;letter357;0.05;0.07;fullmask;0.2;arrow_left.png;up;0.10151069999847095;0.10987359999853652;97498.1389228;2.6000052457675338e-06;0.5032993000058923;0.5433185000001686;0.5533307000005152;0.6233684000035282;0.7534305000008317;0.8835646000079578;0.01
10;1;7;8;letter357;letter181;letter357;letter181;0;0;incongruent;0.04;letter357;0.05;0.07;fullmask;0.2;arrow_right.png;down;0.3994068000029074;0.40085309999994934;97500.0269211;2.5999906938523054e-06;0.49946279999858234;0.5394957999960752;0.5494852999981958;0.6195417999988422;0.749613899999531;0.8796964999928605;0.01
10;1;7;9;letter357;letter181;letter357;letter181;0;0;incongruent;0.04;letter181;0.05;0.07;fullmask;0.2;arrow_left.png;up;0.3034860000043409;0.3100909000058891;97502.0029408;2.6000052457675338e-06;0.49665380000078585;0.5366720000019995;0.5466754999943078;0.6167086000059498;0.746782100002747;0.8769047999958275;0.01
10;1;7;10;letter357;letter181;letter357;letter181;0;0;incongruent;0.04;letter357;0.05;0.07;fullmask;0.2;arrow_right.png;up;0.12051310000242665;0.1304773000010755;97503.8510998;2.5000044843181968e-06;0.4989832999999635;0.5390129000006709;0.5490486000053352;0.6190971000032732;0.7491776000097161;0.8792681000049924;0.01
10;1;7;11;letter357;letter181;letter357;letter181;0;0;incongruent;0.04;letter357;0.05;0.07;fullmask;0.2;arrow_right.png;up;0.35547749999386724;0.3600504999922123;97505.706924;2.7000060072168708e-06;0.5017258000007132;0.5417703999992227;0.5517496000102255;0.6217856000002939;0.7518722000095295;0.8819541999982903;0.01
10;1;7;12;letter357;letter181;letter357;letter181;0;0;congruent;0.04;letter357;0.05;0.07;fullmask;0.2;arrow_left.png;up;0.282420200004708;0.29027350000978913;97507.4749228;2.5999906938523054e-06;0.49953509999613743;0.5395652000006521;0.5495386999973562;0.6195798999979161;0.7496862999978475;0.8797761000023456;0.01
10;1;7;13;letter357;letter181;letter357;letter181;0;0;congruent;0.04;letter181;0.05;0.07;fullmask;0.2;arrow_right.png;down;0.49330190000182483;0.5007099999929778;97509.4669296;2.7000060072168708e-06;0.5039459000108764;0.5439638000098057;0.5539600000047358;0.62399639999785;0.7540803000010783;0.8841739000054076;0.01
10;1;7;14;letter357;letter181;letter357;letter181;0;0;congruent;0.04;letter181;0.05;0.07;fullmask;0.2;arrow_right.png;down;0.5178712999913841;0.5206539999926463;97511.4829219;2.6999914553016424e-06;0.4995420999912312;0.539573099988047;0.5495988999900874;0.6196173999924213;0.7497140999912517;0.8797972999891499;0.01
10;1;7;15;letter357;letter181;letter357;letter181;0;0;incongruent;0.04;letter357;0.05;0.07;fullmask;0.2;arrow_right.png;up;0.30856649999623187;0.3102320000034524;97513.2748972;2.6000052457675338e-06;0.4971332999994047;0.5371360999997705;0.5471305999963079;0.6171892999991542;0.7472435999952722;0.8773392000002787;0.01
10;1;7;16;letter357;letter181;letter357;letter181;0;0;incongruent;0.04;letter357;0.05;0.07;fullmask;0.2;arrow_right.png;up;0.3450282999983756;0.3500941999955103;97515.1230158;2.5000044843181968e-06;0.4967557000054512;0.5367540000006557;0.5467601999989711;0.6167931000090903;0.7468666000058874;0.8769719999982044;0.01
10;1;7;17;letter357;letter181;letter357;letter181;0;0;congruent;0.04;letter357;0.05;0.07;fullmask;0.2;arrow_left.png;up;0.4184858000080567;0.42079350000130944;97517.0269049;2.6000052457675338e-06;0.5019535000028554;0.5419688000110909;0.5519689000066137;0.622026700002607;0.7520904999983031;0.882200100008049;0.01
10;1;7;18;letter357;letter181;letter357;letter181;0;0;incongruent;0.04;letter181;0.05;0.07;fullmask;0.2;arrow_left.png;down;0.46105089999036863;0.4706597999902442;97518.9709167;2.5999906938523054e-06;0.5047232999932021;0.5447490999940783;0.5547530999901937;0.6247928999946453;0.7548865999997361;0.8849718999990728;0.01
10;1;7;19;letter357;letter181;letter357;letter181;0;0;incongruent;0.04;letter181;0.05;0.07;fullmask;0.2;arrow_left.png;down;0.6716922000050545;0.6801978000003146;97521.1229151;2.5999906938523054e-06;0.4942245999991428;0.5342317999893567;0.5442507999978261;0.6143061999900965;0.7443599999969592;0.874452799995197;0.01
10;1;7;20;letter357;letter181;letter357;letter181;0;0;congruent;0.04;letter357;0.05;0.07;fullmask;0.2;arrow_left.png;up;0.2297746999975061;0.2302816999872448;97522.842944;2.6000052457675338e-06;0.5028275000076974;0.5428580000007059;0.5528706000040984;0.6228940000000875;0.752974400005769;0.8830630000011297;0.01
10;1;7;21;letter357;letter181;letter357;letter181;0;1;incongruent;0.12;letter181;0.14;0.07;fullmask;0.2;arrow_left.png;down;0.3150325000024168;0.32018840000091586;97524.7389575;2.5999906938523054e-06;0.5004947999987053;0.6205611000041245;0.6405812000011792;0.7106153999920934;0.8406943000009051;0.9707936999911908;0.01
10;1;7;22;letter357;letter181;letter357;letter181;0;0;incongruent;0.04;letter181;0.05;0.07;fullmask;0.2;arrow_left.png;down;0.42576489999191836;0.4299040000041714;97526.6909161;2.7000060072168708e-06;0.501369200006593;0.5413951000082307;0.5514013000065461;0.6214497000037227;0.7515119000017876;0.8816029000008712;0.01
10;1;7;23;letter357;letter181;letter357;letter181;0;0;congruent;0.04;letter181;0.05;0.07;fullmask;0.2;arrow_right.png;down;0.4904346999974223;0.5004700999998022;97528.6670269;2.5999906938523054e-06;0.5003740999964066;0.5403879999939818;0.5504070999886608;0.6204416999971727;0.7505084999866085;0.8806192999909399;0.01
10;1;7;24;letter357;letter181;letter357;letter181;0;0;congruent;0.04;letter357;0.05;0.07;fullmask;0.2;arrow_left.png;up;0.2350659999938216;0.23942059998807963;97530.4028922;2.6999914553016424e-06;0.49868879999849014;0.5387143999978434;0.5487368999893079;0.6187571999907959;0.7488489999959711;0.8789321999938693;0.01
10;1;7;25;letter357;letter181;letter357;letter181;0;0;congruent;0.04;letter181;0.05;0.07;fullmask;0.2;arrow_right.png;up;0.3223066999926232;0.330268799996702;97532.2111037;2.5999906938523054e-06;0.49425749998772517;0.5343482999887783;0.5443201000016415;0.614342899993062;0.7444259999901988;0.8745257999980822;0.01
10;1;7;26;letter357;letter181;letter357;letter181;0;0;incongruent;0.04;letter357;0.05;0.07;fullmask;0.2;arrow_right.png;up;0.3594292000052519;0.36094860000594053;97534.258925;2.6000052457675338e-06;0.5018360000103712;0.5418815000011818;0.5518823000020348;0.6219218000042019;0.7520086000004085;0.8820980000018608;0.01
10;1;7;27;letter357;letter181;letter357;letter181;0;0;incongruent;0.04;letter357;0.05;0.07;fullmask;0.2;arrow_right.png;up;0.34930240000539925;0.34998510000878014;97536.0908911;2.7000060072168708e-06;0.5027274000021862;0.5427558999945177;0.5527850000071339;0.6227938999945763;0.7528906000079587;0.8829794000048423;0.01
10;1;7;28;letter357;letter181;letter357;letter181;0;0;congruent;0.04;letter357;0.05;0.07;fullmask;0.2;arrow_left.png;up;0.3845471000095131;0.3898809000093024;97537.9868926;2.6999914553016424e-06;0.5026795000012498;0.54270639999595;0.5526946000027237;0.6227570000046398;0.7528367999912007;0.8829178000014508;0.01
10;1;7;29;letter357;letter181;letter357;letter181;0;0;incongruent;0.04;letter181;0.05;0.07;fullmask;0.2;arrow_left.png;down;0.3348249999980908;0.34010669999406673;97539.8188567;2.5999906938523054e-06;0.49538079999911133;0.5353912999999011;0.5453998000011779;0.615439699991839;0.7455111999879591;0.8756214999884833;0.01
10;1;7;30;letter357;letter181;letter357;letter181;0;0;incongruent;0.04;letter357;0.05;0.07;fullmask;0.2;arrow_right.png;up;0.29639030000544153;0.3003835999988951;97541.6109803;2.7000060072168708e-06;0.5039328999991994;0.5439356999995653;0.553928299996187;0.623974799993448;0.7540589999989606;0.8841701000055764;0.01
10;1;7;31;letter357;letter181;letter357;letter181;0;0;incongruent;0.04;letter181;0.05;0.07;fullmask;0.2;arrow_left.png;down;0.31311420000565704;0.32019189999846276;97543.4189071;2.7000060072168708e-06;0.5015423000004375;0.5415500999952201;0.5515541000058874;0.6216118000011193;0.7516797999996925;0.8817888000048697;0.01
10;1;7;32;letter357;letter181;letter357;letter181;0;0;congruent;0.04;letter357;0.05;0.07;fullmask;0.2;arrow_left.png;up;0.22381069998664316;0.2304625999968266;97545.1308987;2.6999914553016424e-06;0.4999204999912763;0.5401207999966573;0.5499742999963928;0.6200109999917913;0.7500998999894364;0.8802073999977438;0.01
10;1;7;33;letter357;letter181;letter357;letter181;0;0;congruent;0.04;letter181;0.05;0.07;fullmask;0.2;arrow_right.png;up;0.34500829999160487;0.35012459999416023;97546.9629395;2.5999906938523054e-06;0.5001329999940936;0.5401477999985218;0.5501845999970101;0.6201899999869056;0.7502846999996109;0.8803390999964904;0.01
10;1;7;34;letter357;letter181;letter357;letter181;0;0;congruent;0.04;letter181;0.05;0.07;fullmask;0.2;arrow_right.png;up;0.3693509000004269;0.3701632000011159;97549.0189883;4.2000028770416975e-06;0.49981590000970755;0.5398436999967089;0.5498498000088148;0.6198805000021821;0.749964300004649;0.8800663000001805;0.01
10;1;7;35;letter357;letter181;letter357;letter181;0;0;congruent;0.04;letter357;0.05;0.07;fullmask;0.2;arrow_left.png;up;0.31803960000979714;0.3200677000131691;97551.0189086;2.6000052457675338e-06;0.5032349999964936;0.5432501000032062;0.5532679000025382;0.6232887000078335;0.7533868000027724;0.8834621999994852;0.01
10;1;7;36;letter357;letter181;letter357;letter181;0;0;incongruent;0.04;letter181;0.05;0.07;fullmask;0.2;arrow_left.png;up;0.45920029999979306;0.4607858000090346;97552.9709416;2.6000052457675338e-06;0.4979114000016125;0.5379348999995273;0.5479404000070645;0.6179784999985714;0.7480628000048455;0.8781612000020687;0.01
10;1;7;37;letter357;letter181;letter357;letter181;0;0;congruent;0.04;letter181;0.05;0.07;fullmask;0.2;arrow_right.png;down;0.3898594000056619;0.3907056000025477;97555.042946;2.5999906938523054e-06;0.502458499991917;0.5424710999941453;0.5524824999884004;0.6225192999991123;0.7526085999998031;0.8827091999992263;0.01
10;1;7;38;letter357;letter181;letter357;letter181;0;1;incongruent;0.12;letter357;0.14;0.07;fullmask;0.2;arrow_right.png;up;0.26676110000698827;0.27033710000978317;97556.8909024;2.6000052457675338e-06;0.5041789999959292;0.6242235999961849;0.6442424999986542;0.7142817999992985;0.8443617000011727;0.9744615999952657;0.01
10;1;7;39;letter357;letter181;letter357;letter181;0;0;incongruent;0.04;letter357;0.05;0.07;fullmask;0.2;arrow_right.png;up;0.30750029999762774;0.3103359999950044;97558.6829989;2.6000052457675338e-06;0.4950274000002537;0.5350533000018913;0.5450733000034234;0.6150991000031354;0.7451889000076335;0.8752562000008766;0.01
10;1;7;40;letter357;letter181;letter357;letter181;0;0;incongruent;0.04;letter357;0.05;0.07;fullmask;0.2;arrow_right.png;up;0.41195959999458864;0.4199267000076361;97560.5789554;2.5999906938523054e-06;0.5012991999974474;0.5413256999891018;0.5513422999938484;0.6213179999904241;0.7514576999965357;0.8815410999959568;0.01
10;1;7;41;letter357;letter181;letter357;letter181;0;0;congruent;0.04;letter181;0.05;0.07;fullmask;0.2;arrow_right.png;down;0.31899909999629017;0.3202039000025252;97562.3869226;2.5999906938523054e-06;0.5020346999954199;0.5420465999923181;0.5520388000004459;0.6220903999928851;0.7521703999955207;0.8824649000016507;0.01
10;1;7;42;letter357;letter181;letter357;letter181;0;0;incongruent;0.04;letter357;0.05;0.07;fullmask;0.2;arrow_right.png;down;0.6775842000060948;0.6801086000050418;97564.5469043;2.5000044843181968e-06;0.5022128999989945;0.5422458999964874;0.5522480999934487;0.6222693000017898;0.7523639999999432;0.8824412999965716;0.01
10;1;7;43;letter357;letter181;letter357;letter181;0;0;incongruent;0.04;letter181;0.05;0.07;fullmask;0.2;arrow_left.png;up;0.28437409999605734;0.2902838000009069;97566.5148451;2.6999914553016424e-06;0.4986862999940058;0.5386921000026632;0.5487156000017421;0.6187543999985792;0.7488249000016367;0.878928399994038;0.01
10;1;7;44;letter357;letter181;letter357;letter181;0;0;congruent;0.04;letter181;0.05;0.07;fullmask;0.2;arrow_right.png;down;0.3633428000030108;0.37117129999387544;97568.5550721;2.6000052457675338e-06;0.49655740000889637;0.5365740000124788;0.5466041000036057;0.6166150000062771;0.7467031000123825;0.8767952000052901;0.01
10;1;7;45;letter357;letter181;letter357;letter181;0;0;incongruent;0.04;letter357;0.05;0.07;fullmask;0.2;arrow_right.png;up;0.3775391999952262;0.37990569999965373;97570.410897;2.7000060072168708e-06;0.49616270000115037;0.5361752000026172;0.5461890000005951;0.6162190000031842;0.7462895000062417;0.8764188000059221;0.01
10;1;7;46;letter357;letter181;letter357;letter181;0;0;incongruent;0.04;letter181;0.05;0.07;fullmask;0.2;arrow_left.png;down;0.5402831000101287;0.5404224000085378;97572.4349129;2.7000060072168708e-06;0.4992328000080306;0.5392502000031527;0.5492820000072243;0.6193175000080373;0.7494001000013668;0.8794857000029879;0.01
10;1;7;47;letter357;letter181;letter357;letter181;0;0;congruent;0.04;letter357;0.05;0.07;fullmask;0.2;arrow_left.png;up;0.471146999989287;0.48063369998999406;97574.3868843;2.4999899324029684e-06;0.5027930999931414;0.5428021999978228;0.552818500000285;0.6228510999935679;0.7529321999900276;0.8830297999957111;0.01
10;1;7;48;letter357;letter181;letter357;letter181;0;0;congruent;0.04;letter181;0.05;0.07;fullmask;0.2;arrow_right.png;down;0.4945613999880152;0.5006774999928894;97576.3710508;2.6999914553016424e-06;0.5057527000026312;0.5457397999998648;0.5558580999932019;0.6258226999925682;0.7558877999981632;0.8860289000003831;0.01
10;1;7;49;letter357;letter181;letter357;letter181;0;0;congruent;0.04;letter357;0.05;0.07;fullmask;0.2;arrow_left.png;up;0.3548580999922706;0.3599695000011707;97578.2028893;2.6999914553016424e-06;0.49585119998664595;0.5358604999928502;0.545870299989474;0.6159110999869881;0.7459864999982528;0.8760569999867585;0.01
10;1;7;50;letter357;letter181;letter357;letter181;0;0;incongruent;0.04;letter181;0.05;0.07;fullmask;0.2;arrow_left.png;up;0.2971763999958057;0.3002208999969298;97579.9869617;2.6000052457675338e-06;0.49426419999508653;0.5342819999932544;0.5442897000029916;0.6143242999969516;0.7444150999945123;0.8745049999997718;0.01
10;1;7;51;letter357;letter181;letter357;letter181;0;1;congruent;0.12;letter181;0.14;0.07;fullmask;0.2;arrow_right.png;down;0.19438340001215693;0.200216500001261;97581.9548879;2.6000052457675338e-06;0.5019004000059795;0.6219771000032779;0.641986700007692;0.712023300002329;0.8421189000073355;0.9721911000087857;0.01
10;1;7;52;letter357;letter181;letter357;letter181;0;0;congruent;0.04;letter357;0.05;0.07;fullmask;0.2;arrow_left.png;up;0.37700029999541584;0.37996049999492243;97583.8189704;2.6000052457675338e-06;0.4966881000000285;0.5367127000063192;0.5467151000048034;0.6167615000013029;0.7468534000072395;0.8769414000125835;0.01
10;1;8;1;letter357;letter181;letter357;letter181;0;0;incongruent;0.04;letter357;0.05;0.07;fullmask;0.2;arrow_right.png;up;0.24968739999167155;0.2504157999937888;97589.3148497;2.6000052457675338e-06;0.49913690000539646;0.5391030000027968;0.549139800001285;0.6191855000070063;0.7492641999997431;0.8793792000069516;0.01
10;1;8;2;letter357;letter181;letter357;letter181;0;0;incongruent;0.04;letter181;0.05;0.07;fullmask;0.2;arrow_left.png;up;0.5586315999971703;0.5606627999950433;97591.3549416;2.7999922167509794e-06;0.5033179000020027;0.5433313999965321;0.55334959999891;0.6233686999912607;0.7534715999936452;0.8835165999917081;0.01
10;1;8;3;letter357;letter181;letter357;letter181;0;0;congruent;0.04;letter357;0.05;0.07;fullmask;0.2;arrow_left.png;up;0.2425070000026608;0.2493938999978127;97593.2909168;2.4999899324029684e-06;0.500408799998695;0.5403858999925433;0.5504040999949211;0.6204702999966685;0.7505532999930438;0.8806476999889128;0.01
10;1;8;4;letter357;letter181;letter357;letter181;0;0;incongruent;0.04;letter357;0.05;0.07;fullmask;0.2;arrow_right.png;up;0.3101190999877872;0.3103178999881493;97595.0989398;2.5000044843181968e-06;0.49826110000140034;0.5382835000054911;0.5483008000010159;0.6183448000083445;0.7484188000089489;0.8785349999961909;0.01
10;1;8;5;letter357;letter181;letter357;letter181;0;0;incongruent;0.04;letter357;0.05;0.07;fullmask;0.2;arrow_right.png;up;0.2945737999980338;0.30024529999354854;97596.8748955;2.5999906938523054e-06;0.4970057999889832;0.5370256000023801;0.5470376000012038;0.6170673000015086;0.747157599995262;0.8772406999923987;0.01
10;1;8;6;letter357;letter181;letter357;letter181;0;0;incongruent;0.04;letter181;0.05;0.07;fullmask;0.2;arrow_left.png;down;0.44733170000836253;0.44966549999662675;97598.8189278;2.6000052457675338e-06;0.49849969999922905;0.5385232999979053;0.5485248000040883;0.6185562000027858;0.7486520000093151;0.8787473999982467;0.01
10;1;8;7;letter357;letter181;letter357;letter181;0;0;congruent;0.04;letter181;0.05;0.07;fullmask;0.2;arrow_right.png;down;0.30858769999758806;0.31009009999979753;97600.6109423;2.5000044843181968e-06;0.501436200007447;0.5414426000061212;0.5514770000008866;0.6215263000049163;0.7515935999981593;0.8816837000049418;0.01
10;1;8;8;letter357;letter181;letter357;letter181;0;0;congruent;0.04;letter181;0.05;0.07;fullmask;0.2;arrow_right.png;down;0.4049226000061026;0.409829099997296;97602.4988768;2.4999899324029684e-06;0.5011823999957414;0.5411822000023676;0.5512077999883331;0.6212204999901587;0.7513280999992276;0.8814042000012705;0.01
10;1;8;9;letter357;letter181;letter357;letter181;0;0;incongruent;0.04;letter357;0.05;0.07;fullmask;0.2;arrow_right.png;up;0.3034584000124596;0.31022030000167433;97604.2988881;2.5000044843181968e-06;0.49919130001217127;0.5392201000067871;0.5492221000022255;0.6192490000103135;0.7493372000026284;0.879450700012967;0.01
10;1;8;10;letter357;letter181;letter357;letter181;0;1;congruent;0.12;letter181;0.14;0.07;fullmask;0.2;arrow_right.png;down;0.31082949999836273;0.31974300000001676;97606.1870959;2.6999914553016424e-06;0.500903299995116;0.6209817999915686;0.6410168000002159;0.7110342999949353;0.8410782999999356;0.971213999990141;0.01
10;1;8;11;letter357;letter181;letter357;letter181;0;0;incongruent;0.04;letter181;0.05;0.07;fullmask;0.2;arrow_left.png;down;0.4058911000029184;0.4109102000074927;97608.0830097;2.5000044843181968e-06;0.5014051000034669;0.5414642999967327;0.5514438999962294;0.6214992000022903;0.7515623999934178;0.8816540999978315;0.01
10;1;8;12;letter357;letter181;letter357;letter181;0;0;incongruent;0.04;letter181;0.05;0.07;fullmask;0.2;arrow_left.png;down;0.4564589999936288;0.4609296999988146;97610.0348963;2.6000052457675338e-06;0.4988947000092594;0.5389054999977816;0.5489021999965189;0.6189302999991924;0.7490192999975989;0.8791258999990532;0.01
10;1;8;13;letter357;letter181;letter357;letter181;0;0;congruent;0.04;letter357;0.05;0.07;fullmask;0.2;arrow_left.png;up;0.4254367999965325;0.43078690000402275;97611.9548863;2.5999906938523054e-06;0.5022077999892645;0.5422387999860803;0.5521941999904811;0.6222686999972211;0.7523441999946954;0.8824507999961497;0.01
10;1;8;14;letter357;letter181;letter357;letter181;0;0;incongruent;0.04;letter357;0.05;0.07;fullmask;0.2;arrow_right.png;up;0.33966979999968316;0.3399252999952296;97613.7709663;2.5000044843181968e-06;0.4969162000052165;0.5369386999955168;0.5469582000077935;0.6169870000012452;0.7470756999973673;0.8771835999941686;0.01
10;1;8;15;letter357;letter181;letter357;letter181;0;1;incongruent;0.12;letter181;0.14;0.07;fullmask;0.2;arrow_left.png;down;0.3242193999903975;0.3300355999963358;97615.6668904;2.5999906938523054e-06;0.5016818000003695;0.6217566999985138;0.6417720999888843;0.7118142999970587;0.8418971999926725;0.9719724000024144;0.01
10;1;8;16;letter357;letter181;letter357;letter181;0;0;congruent;0.04;letter181;0.05;0.07;fullmask;0.2;arrow_right.png;down;0.3833829999930458;0.3901091000007;97617.5470887;2.7000060072168708e-06;0.5000276999926427;0.5400316000013845;0.550023699994199;0.6200995999970473;0.7501774999982445;0.8802719999948749;0.01
10;1;8;17;letter357;letter181;letter357;letter181;0;0;congruent;0.04;letter181;0.05;0.07;fullmask;0.2;arrow_right.png;down;0.4940375000005588;0.49982570001157;97619.5390196;2.5999906938523054e-06;0.5002846999996109;0.5403068999876268;0.5503169000003254;0.6203499999974156;0.7504387999942992;0.8805393999937223;0.01
10;1;8;18;letter357;letter181;letter357;letter181;0;0;congruent;0.04;letter357;0.05;0.07;fullmask;0.2;arrow_left.png;up;0.34705599999870174;0.34998490000725724;97621.3629481;2.6000052457675338e-06;0.4976844000048004;0.5377121000055922;0.5477083000005223;0.6177537000039592;0.7478416000085417;0.8779344000067795;0.01
10;1;8;19;letter357;letter181;letter357;letter181;0;0;incongruent;0.04;letter357;0.05;0.07;fullmask;0.2;arrow_right.png;up;0.4596462000044994;0.4696698000043398;97623.3069582;2.5999906938523054e-06;0.5020985000010114;0.5421334999991814;0.5521324000001187;0.6221732999983942;0.7522471999982372;0.8823427999886917;0.01
10;1;8;20;letter357;letter181;letter357;letter181;0;0;incongruent;0.04;letter181;0.05;0.07;fullmask;0.2;arrow_left.png;down;0.47681439999723807;0.4807333000062499;97625.2748722;2.6000052457675338e-06;0.4999314000015147;0.5399417000007816;0.5499680000066292;0.6199832999991486;0.7500698000076227;0.8801915000076406;0.01
10;1;8;21;letter357;letter181;letter357;letter181;0;0;incongruent;0.04;letter357;0.05;0.07;fullmask;0.2;arrow_right.png;up;0.33099799999035895;0.34013909999339376;97627.0908655;2.6000052457675338e-06;0.5004973000031896;0.5405286000022897;0.5505235000018729;0.6205620000109775;0.7506529000092996;0.8807519000110915;0.01
10;1;8;22;letter357;letter181;letter357;letter181;0;0;congruent;0.04;letter357;0.05;0.07;fullmask;0.2;arrow_left.png;down;0.29971790000854526;0.3000159000075655;97628.8909927;2.5999906938523054e-06;0.49913159999414347;0.5391515999945113;0.5491827999940142;0.6191901999991387;0.749292599997716;0.8793748000025516;0.01
10;1;8;23;letter357;letter181;letter357;letter181;0;0;congruent;0.04;letter357;0.05;0.07;fullmask;0.2;arrow_left.png;up;1.1725118999893311;1.1808906999940518;97631.7549221;2.7000060072168708e-06;0.5023878000065451;0.5424025999964215;0.5524296000075992;0.6224510000029113;0.7525390999944648;0.8826204000069993;0.01
10;1;8;24;letter357;letter181;letter357;letter181;0;0;incongruent;0.04;letter181;0.05;0.07;fullmask;0.2;arrow_left.png;down;0.42101399999228306;0.429911400002311;97633.6749089;2.5000044843181968e-06;0.5002875999925891;0.5403449000004912;0.5503635999921244;0.6203887000010582;0.7504860000044573;0.8805558000021847;0.01
10;1;8;25;letter357;letter181;letter357;letter181;0;0;congruent;0.04;letter357;0.05;0.07;fullmask;0.2;arrow_left.png;up;0.32654000000911765;0.3311580000008689;97635.4910583;2.6999914553016424e-06;0.5040356999961659;0.5440699999890057;0.5540872999990825;0.6240934999950696;0.7542045000009239;0.8842736999940826;0.01
10;1;8;26;letter357;letter181;letter357;letter181;0;0;congruent;0.04;letter181;0.05;0.07;fullmask;0.2;arrow_right.png;down;0.38664079998852685;0.3898806999932276;97637.3628811;2.6999914553016424e-06;0.5010285999887856;0.5410693999874638;0.5510738999873865;0.6210859999991953;0.7511675999994623;0.8812612999900011;0.01
10;1;8;27;letter357;letter181;letter357;letter181;0;0;incongruent;0.04;letter181;0.05;0.07;fullmask;0.2;arrow_left.png;down;0.4978246999962721;0.5005662000039592;97639.3548832;2.6000052457675338e-06;0.4952746000053594;0.5352699000068242;0.5452893000037875;0.6153236000100151;0.7454068000079133;0.8755251999973552;0.01
10;1;8;28;letter357;letter181;letter357;letter181;0;0;incongruent;0.04;letter181;0.05;0.07;fullmask;0.2;arrow_left.png;down;0.5223045000020647;0.5305985000013607;97641.3708905;2.7999922167509794e-06;0.5054166999907466;0.5454433999984758;0.555449999999837;0.6254731999943033;0.7555565999937244;0.8856537999963621;0.01
10;1;8;29;letter357;letter181;letter357;letter181;0;0;incongruent;0.04;letter357;0.05;0.07;fullmask;0.2;arrow_right.png;up;0.3728004000004148;0.3799983999924734;97643.2429674;2.5999906938523054e-06;0.49905269998998847;0.5390789999946719;0.5490773999918019;0.6191261999920243;0.7491848999925423;0.8793116000015289;0.01
10;1;8;30;letter357;letter181;letter357;letter181;0;0;congruent;0.04;letter181;0.05;0.07;fullmask;0.2;arrow_right.png;down;0.4382055999885779;0.4408662999921944;97645.1789337;2.6000052457675338e-06;0.5036037999961991;0.5436430999980075;0.5536407000035979;0.623691200002213;0.753771699994104;0.8838690999982646;0.01
10;1;8;31;letter357;letter181;letter357;letter181;0;0;incongruent;0.04;letter357;0.05;0.07;fullmask;0.2;arrow_right.png;up;0.4505035000038333;0.46062549999624025;97647.1230762;2.6000052457675338e-06;0.4999419000087073;0.5399797999998555;0.549947899999097;0.619993100001011;0.7500733000051696;0.8801772000006167;0.01
10;1;8;32;letter357;letter181;letter357;letter181;0;0;incongruent;0.04;letter181;0.05;0.07;fullmask;0.2;arrow_left.png;down;0.38696090001030825;0.390058200006024;97649.0108822;2.6000052457675338e-06;0.5038996000075713;0.5439267000037944;0.553944400002365;0.6239580000110436;0.7540475999994669;0.8841468000027817;0.01
10;1;8;33;letter357;letter181;letter357;letter181;0;0;congruent;0.04;letter357;0.05;0.07;fullmask;0.2;arrow_left.png;up;0.340114699996775;0.34998220000125;97650.8349457;2.6999914553016424e-06;0.5023285999923246;0.5423367999901529;0.5523568999924464;0.6223810999945272;0.7524782999971649;0.8825758999882964;0.01
10;1;8;34;letter357;letter181;letter357;letter181;0;0;incongruent;0.04;letter357;0.05;0.07;fullmask;0.2;arrow_right.png;up;0.3954573000082746;0.4011042000056477;97652.7310961;2.5999906938523054e-06;0.5030616999865742;0.5430652999930317;0.553053199997521;0.6231327999994392;0.7532120999967447;0.8833056999865221;0.01
10;1;8;35;letter357;letter181;letter357;letter181;0;0;congruent;0.04;letter181;0.05;0.07;fullmask;0.2;arrow_right.png;down;0.32147490000352263;0.3300344000017503;97654.5388737;2.6999914553016424e-06;0.5013221999979578;0.5413319999934174;0.5513608999899589;0.6213915999978781;0.7514718999882462;0.8815629999880912;0.01
10;1;8;36;letter357;letter181;letter357;letter181;0;0;congruent;0.04;letter357;0.05;0.07;fullmask;0.2;arrow_left.png;up;0.4469583000027342;0.45070940000005066;97656.4749072;2.6000052457675338e-06;0.5032076000061352;0.5432188999984646;0.5532320000056643;0.6232539000047836;0.7533564000041224;0.8834337000007508;0.01
10;1;8;37;letter357;letter181;letter357;letter181;0;1;congruent;0.12;letter357;0.14;0.07;fullmask;0.2;arrow_left.png;up;0.42518930000369437;0.43080560000089463;97658.4748904;2.6999914553016424e-06;0.5012867000041297;0.6213777999946615;0.641369000004488;0.7113982000009855;0.8415027000010014;0.9715863000019453;0.01
10;1;8;38;letter357;letter181;letter357;letter181;0;0;congruent;0.04;letter181;0.05;0.07;fullmask;0.2;arrow_right.png;down;2.261905699997442;2.2720492999942508;97662.2428774;2.6999914553016424e-06;0.5009852999937721;0.541020299991942;0.5510195999959251;0.6210409000050277;0.751139999993029;0.8812488999974448;0.01
10;1;8;39;letter357;letter181;letter357;letter181;0;0;incongruent;0.04;letter181;0.05;0.07;fullmask;0.2;arrow_left.png;up;0.18939610000234097;0.20049010000366252;97663.9231424;2.6000052457675338e-06;0.5015975999995135;0.5416255000018282;0.551621199992951;0.621650100001716;0.7517477999936091;0.8818287000030978;0.01
10;1;8;40;letter357;letter181;letter357;letter181;0;0;congruent;0.04;letter181;0.05;0.07;fullmask;0.2;arrow_right.png;up;1.2787960999994539;1.2815007000026526;97666.8829005;2.6000052457675338e-06;0.4989144999999553;0.5389568999962648;0.548957099992549;0.6189985999953933;0.7490696000022581;0.8791861000063363;0.01
10;1;8;41;letter357;letter181;letter357;letter181;0;0;congruent;0.04;letter357;0.05;0.07;fullmask;0.2;arrow_left.png;up;0.21067529999709222;0.22046989999944344;97668.786867;2.5999906938523054e-06;0.5021895999961998;0.5422029999899678;0.5521750999905635;0.6222387999878265;0.7523183999874163;0.8824399000004632;0.01
10;1;8;42;letter357;letter181;letter357;letter181;0;0;congruent;0.04;letter181;0.05;0.07;fullmask;0.2;arrow_right.png;down;0.3435077000031015;0.3501025000005029;97670.6111443;2.6000052457675338e-06;0.4951493999978993;0.5351674999983516;0.545180100001744;0.6152104000066174;0.7453026000002865;0.8754206000012346;0.01
10;1;8;43;letter357;letter181;letter357;letter181;0;0;incongruent;0.04;letter357;0.05;0.07;fullmask;0.2;arrow_right.png;up;0.4001386000018101;0.40067119999730494;97672.4988671;2.5000044843181968e-06;0.5008958999969764;0.540929299997515;0.5509487000090303;0.620976400008658;0.7510507999977563;0.8811553999985335;0.01
10;1;8;44;letter357;letter181;letter357;letter181;0;1;incongruent;0.12;letter357;0.14;0.07;fullmask;0.2;arrow_right.png;up;1.3970072999945842;1.4014037000015378;97675.4668863;2.7000060072168708e-06;0.4978393000055803;0.6179158000013558;0.6379397000127938;0.7079763000074308;0.8380568000138737;0.9681159000028856;0.01
10;1;8;45;letter357;letter181;letter357;letter181;0;0;incongruent;0.04;letter181;0.05;0.07;fullmask;0.2;arrow_left.png;down;0.417370099996333;0.4208880000078352;97677.3788443;2.5999906938523054e-06;0.5003519999881973;0.5403903999977047;0.5503648999874713;0.6204036999988602;0.7504824999923585;0.8805946999927983;0.01
10;1;8;46;letter357;letter181;letter357;letter181;0;0;congruent;0.04;letter357;0.05;0.07;fullmask;0.2;arrow_left.png;up;0.4755014999973355;0.4797758999920916;97679.3388575;2.5000044843181968e-06;0.49521069999900647;0.5352282999956515;0.5452611000073375;0.6152809000050183;0.7453789999999572;0.8754615000070771;0.01
10;1;8;47;letter357;letter181;letter357;letter181;0;0;congruent;0.04;letter181;0.05;0.07;fullmask;0.2;arrow_right.png;down;0.42676980000396725;0.4308954000007361;97681.2508673;2.7999922167509794e-06;0.49998569999297615;0.5399879000033252;0.5499966999923345;0.6200291999994079;0.7501167000009445;0.8802219999925001;0.01
10;1;8;48;letter357;letter181;letter357;letter181;0;0;incongruent;0.04;letter357;0.05;0.07;fullmask;0.2;arrow_right.png;up;0.45667990000220016;0.45981939999910537;97683.2028819;2.7000060072168708e-06;0.5022175000049174;0.542238099995302;0.5522439000051236;0.6222707999986596;0.7523673999967286;0.8824599999934435;0.01
10;1;8;49;letter357;letter181;letter357;letter181;0;0;congruent;0.04;letter181;0.05;0.07;fullmask;0.2;arrow_right.png;down;0.48447500000474975;0.49074779999500606;97685.1708645;2.6000052457675338e-06;0.4990810000017518;0.53912620000483;0.5491586999996798;0.6191773000027752;0.7492704000032973;0.879360999999335;0.01
10;1;8;50;letter357;letter181;letter357;letter181;0;0;congruent;0.04;letter357;0.05;0.07;fullmask;0.2;arrow_left.png;up;0.8230482000071788;0.830163700011326;97687.4913658;2.5999906938523054e-06;0.5028377999988152;0.5428525999886915;0.5528569000016432;0.6228957999992417;0.7529866999975638;0.8830824999895412;0.01
10;1;8;51;letter357;letter181;letter357;letter181;0;0;congruent;0.04;letter357;0.05;0.07;fullmask;0.2;arrow_left.png;up;0.4932275000028312;0.5005921999982093;97689.4828693;2.5999906938523054e-06;0.5048792000015965;0.5449052999902051;0.5549085999955423;0.624941599991871;0.755019899996114;0.8851329999888549;0.01
10;1;8;52;letter357;letter181;letter357;letter181;0;0;incongruent;0.04;letter181;0.05;0.07;fullmask;0.2;arrow_left.png;down;0.3361501000035787;0.34010510001098737;97691.3068313;2.7000060072168708e-06;0.494431800005259;0.5344432999991113;0.544433700008085;0.6144656999967992;0.7445590999996057;0.8746495000086725;0.01
10;2;14;1;letter169;letter190;letter169;letter190;1;0;congruent;0.12;letter190;0.18;0.07;fullmask;0.2;arrow_right.png;down;0.7343043000000762;0.7400591000041459;98608.7547527;2.5000044843181968e-06;0.5040529000107199;0.6241287000011653;0.6841769000020577;0.754195500005153;0.8842809000052512;1.0143782000086503;0.01
10;2;14;2;letter169;letter190;letter169;letter190;1;0;incongruent;0.12;letter190;0.18;0.07;fullmask;0.2;arrow_left.png;down;0.10280029999557883;0.10985720000462607;98610.4746717;2.7000060072168708e-06;0.49832909999531694;0.6184207000042079;0.6784552000026451;0.7484370000020135;0.8785640999994939;1.0086812999943504;0.01
10;2;14;3;letter169;letter190;letter169;letter190;1;0;congruent;0.12;letter169;0.18;0.07;fullmask;0.2;arrow_left.png;up;0.2382396000029985;0.24040969999623485;98612.3307089;2.4999899324029684e-06;0.5023492999898735;0.6224174999952083;0.6824464999954216;0.7524887999898056;0.8825752999982797;1.0126757999969414;0.01
10;2;14;4;letter169;letter190;letter169;letter190;1;0;incongruent;0.12;letter169;0.18;0.07;fullmask;0.2;arrow_right.png;up;1.5126177000056487;1.5209657000086736;98615.4666535;2.5999906938523054e-06;0.5056368999939878;0.6257417000015266;0.6857664999988629;0.7558174000005238;0.885905899995123;1.0159879999991972;0.01
10;2;14;5;letter169;letter190;letter169;letter190;1;0;incongruent;0.12;letter169;0.18;0.07;fullmask;0.2;arrow_right.png;up;0.06245299999136478;0.06982699999934994;98617.1386729;2.5000044843181968e-06;0.49865069999941625;0.6187170000048354;0.6787632000050507;0.7488106000091648;0.8788969000015641;1.0089746000012383;0.01
10;2;14;6;letter169;letter190;letter169;letter190;1;0;congruent;0.12;letter190;0.18;0.07;fullmask;0.2;arrow_right.png;up;0.030065400002058595;0.040047800008323975;98618.7868203;2.5000044843181968e-06;0.5023290999961318;0.6224055000056978;0.682454299996607;0.7524944000033429;0.88257010000234;1.0126716999948258;0.01
10;2;14;7;letter169;letter190;letter169;letter190;1;0;congruent;0.12;letter169;0.18;0.07;fullmask;0.2;arrow_left.png;down;0.002488899990567006;0.010136899989447556;98620.6106758;2.6999914553016424e-06;0.5045239999890327;0.6245654999947874;0.684641499989084;0.7546852999948896;0.8847718999895733;1.0148727999912808;0.01
10;2;14;8;letter169;letter190;letter169;letter190;1;0;incongruent;0.12;letter190;0.18;0.07;fullmask;0.2;arrow_left.png;down;1.3834122999978717;1.3912061999872094;98623.8026547;2.6000052457675338e-06;0.4950241000042297;0.6151027000014437;0.6751354000007268;0.7451816999964649;0.8752569000062067;1.005354000008083;0.01
10;2;14;9;letter169;letter190;letter169;letter190;1;0;incongruent;0.12;letter190;0.18;0.07;fullmask;0.2;arrow_left.png;down;0.06906720000552014;0.06973390000348445;98625.4906557;2.800006768666208e-06;0.5056708000047365;0.6257469000120182;0.6857894000131637;0.7558175000012852;0.8859129000047687;1.0160013000131585;0.01
10;2;14;10;letter169;letter190;letter169;letter190;1;0;congruent;0.12;letter169;0.18;0.07;fullmask;0.2;arrow_left.png;up;0.12249120000342373;0.13055590000294615;98627.3546602;2.5000044843181968e-06;0.5044011999998474;0.6244388000050094;0.6844885000027716;0.7545260000042617;0.8846027999970829;1.0146982000005664;0.01
10;2;14;11;letter169;letter190;letter169;letter190;1;0;incongruent;0.12;letter169;0.18;0.07;fullmask;0.2;arrow_right.png;up;0.260661300009815;0.2693386000028113;98629.2347272;2.5999906938523054e-06;0.5002957999968203;0.6203346999973292;0.6803908000001684;0.7504362000036053;0.8805149999971036;1.0106309999973746;0.01
10;2;14;12;letter169;letter190;letter169;letter190;1;0;congruent;0.12;letter190;0.18;0.07;fullmask;0.2;arrow_right.png;down;0.9721544000058202;0.9806544000020949;98631.8267242;2.6000052457675338e-06;0.49906420000479557;0.6191390000021784;0.679183500004001;0.7492072000022745;0.8793091000115965;1.0094100999995135;0.01
10;2;15;1;letter169;letter190;letter169;letter190;0;0;incongruent;0.04;letter190;0.09;0.07;fullmask;0.2;arrow_left.png;down;0.3684815000015078;0.3702352999971481;98639.7787124;2.6000052457675338e-06;0.4991420000005746;0.5391642000031425;0.5891881999996258;0.6592285000078846;0.7893105000111973;0.9194019999995362;0.01
10;2;15;2;letter169;letter190;letter169;letter190;0;0;congruent;0.04;letter190;0.09;0.07;fullmask;0.2;arrow_right.png;down;0.23902549999183975;0.2402997999888612;98641.5306819;2.6999914553016424e-06;0.5002741999924183;0.5402856000000611;0.5903340999939246;0.6603598999936366;0.7904378999955952;0.9205443999962881;0.01
10;2;15;3;letter169;letter190;letter169;letter190;0;0;congruent;0.04;letter169;0.09;0.07;fullmask;0.2;arrow_left.png;up;0.3356753999978537;0.3401490000105696;98643.3786627;2.6000052457675338e-06;0.49656030000187457;0.5365676000074018;0.586597300003632;0.656637200008845;0.7867155999992974;0.9168230000068434;0.01
10;2;15;4;letter169;letter190;letter169;letter190;0;0;congruent;0.04;letter169;0.09;0.07;fullmask;0.2;arrow_left.png;up;0.08997050000471063;0.0993369000061648;98644.9946719;2.4999899324029684e-06;0.4968415999901481;0.5368550999992294;0.5869003999978304;0.6569504999933997;0.78701829999045;0.9171108000009554;0.01
10;2;15;5;letter169;letter190;letter169;letter190;0;1;incongruent;0.12;letter169;0.18;0.07;fullmask;0.2;arrow_right.png;up;0.1881271000020206;0.19055359999765642;98646.8026454;2.6000052457675338e-06;0.5023886000126367;0.6224139000114519;0.6824939000071026;0.7525495000008959;0.8826171000109753;1.012708800000837;0.01
10;2;15;6;letter169;letter190;letter169;letter190;0;0;incongruent;0.04;letter169;0.09;0.07;fullmask;0.2;arrow_right.png;up;0.18875039998965804;0.19054169999435544;98648.5149323;2.5999906938523054e-06;0.5012249999999767;0.541244199994253;0.5912781999941217;0.6613295999995898;0.7913963999890257;0.9215046999888727;0.01
10;2;15;7;letter169;letter190;letter169;letter190;0;0;incongruent;0.04;letter169;0.09;0.07;fullmask;0.2;arrow_right.png;up;0.2916776000056416;0.3003166999988025;98650.3389214;2.6999914553016424e-06;0.5046732000046177;0.5447177000023657;0.5947397999989334;0.6647603000019444;0.7948451999982353;0.9249503000028199;0.01
10;2;15;8;letter169;letter190;letter169;letter190;0;0;incongruent;0.04;letter169;0.09;0.07;fullmask;0.2;arrow_right.png;up;0.17204760000458919;0.17957990001013968;98652.0506436;2.6000052457675338e-06;0.5015717000060249;0.5415952000039397;0.5916298000083771;0.6616635000100359;0.7917581000074279;0.9218689999979688;0.01
10;2;15;9;letter169;letter190;letter169;letter190;0;0;incongruent;0.04;letter190;0.09;0.07;fullmask;0.2;arrow_left.png;down;0.2957228000013856;0.3002566999930423;98653.8746413;2.7000060072168708e-06;0.4974969000031706;0.5375023000087822;0.5875803999952041;0.6575842000020202;0.7876908000034746;0.9177901000075508;0.01
10;2;15;10;letter169;letter190;letter169;letter190;0;0;congruent;0.04;letter190;0.09;0.07;fullmask;0.2;arrow_right.png;down;0.21251810000103433;0.22033450000162702;98655.6026391;2.7000060072168708e-06;0.4993418000085512;0.5393713000084972;0.58939979999559;0.6594255000090925;0.7895078000001376;0.9196223000035388;0.01
10;2;15;11;letter169;letter190;letter169;letter190;0;0;congruent;0.04;letter190;0.09;0.07;fullmask;0.2;arrow_right.png;down;0.30294429999776185;0.31017319999227766;98657.4345991;2.6999914553016424e-06;0.49578769999789074;0.5358300999942003;0.5858105999941472;0.6558847999986028;0.7859629000013229;0.9161087999964366;0.01
10;2;15;12;letter169;letter190;letter169;letter190;0;0;congruent;0.04;letter169;0.09;0.07;fullmask;0.2;arrow_left.png;up;0.2416388999990886;0.2503553999995347;98659.1948623;2.5999906938523054e-06;0.49496739999449346;0.5350174999912269;0.5850352999987081;0.6550621999922441;0.7851385999965714;0.9152525999961654;0.01
10;2;15;13;letter169;letter190;letter169;letter190;0;0;incongruent;0.04;letter190;0.09;0.07;fullmask;0.2;arrow_left.png;down;0.2410440999956336;0.2502539999986766;98660.9546478;2.6999914553016424e-06;0.49786370000219904;0.537861899996642;0.5879117000004044;0.6579327999934321;0.7880243999970844;0.9181290999986231;0.01
10;2;15;14;letter169;letter190;letter169;letter190;0;1;congruent;0.12;letter190;0.18;0.07;fullmask;0.2;arrow_right.png;down;0.14914569999382365;0.14943930000299588;98662.71469;2.5999906938523054e-06;0.49981369999295566;0.6198772999923676;0.6799357999989297;0.7499570999934804;0.8800387999945087;1.0101405999885174;0.01
10;2;15;15;letter169;letter190;letter169;letter190;0;0;congruent;0.04;letter190;0.09;0.07;fullmask;0.2;arrow_right.png;down;0.33416030000080355;0.34010279999347404;98664.570653;2.6000052457675338e-06;0.5038419000047725;0.5438565999938874;0.5938920000044163;0.6639342999988003;0.7939699999988079;0.9241047999967122;0.01
10;2;15;16;letter169;letter190;letter169;letter190;0;0;incongruent;0.04;letter190;0.09;0.07;fullmask;0.2;arrow_left.png;down;0.2654744000028586;0.27043740000226535;98666.3626916;2.5999906938523054e-06;0.4995993000047747;0.5396298999985447;0.5896578999963822;0.6597053000004962;0.7897733999998309;0.9198623999982374;0.01
10;2;15;17;letter169;letter190;letter169;letter190;0;0;congruent;0.04;letter169;0.09;0.07;fullmask;0.2;arrow_left.png;up;0.24983790000260342;0.250382800004445;98668.1386705;2.6000052457675338e-06;0.4990632999979425;0.5390735999972094;0.5891252000001259;0.6591489999991609;0.789256000003661;0.9193269999959739;0.01
10;2;15;18;letter169;letter190;letter169;letter190;0;0;incongruent;0.04;letter190;0.09;0.07;fullmask;0.2;arrow_left.png;down;0.23847259998728987;0.2392814999911934;98669.898599;2.7999922167509794e-06;0.5010673999931896;0.5410828000021866;0.5911121999961324;0.6611493999953382;0.7912358999892604;0.9213339999987511;0.01
10;2;15;19;letter169;letter190;letter169;letter190;0;0;congruent;0.04;letter190;0.09;0.07;fullmask;0.2;arrow_right.png;down;0.26146460000018124;0.27029240000410937;98671.6826374;2.7000060072168708e-06;0.4965041000104975;0.5365239000093425;0.5865522000094643;0.6565985000052024;0.7866691000090213;0.9167656000063289;0.01
10;2;15;20;letter169;letter190;letter169;letter190;0;0;congruent;0.04;letter169;0.09;0.07;fullmask;0.2;arrow_left.png;up;0.31085510000411887;0.32020339999871794;98673.5226595;4.299989086575806e-06;0.5050420999905327;0.5450477999984287;0.5950895999994827;0.6651270000002114;0.7952089999889722;0.9253144999966025;0.01
10;2;15;21;letter169;letter190;letter169;letter190;0;0;incongruent;0.04;letter169;0.09;0.07;fullmask;0.2;arrow_right.png;up;0.30946360000234563;0.3103350000019418;98675.3628989;2.6000052457675338e-06;0.49446300001000054;0.5345215999986976;0.5845172999979695;0.6545566999993753;0.7846395000087796;0.9147606000042288;0.01
10;2;15;22;letter169;letter190;letter169;letter190;0;0;congruent;0.04;letter190;0.09;0.07;fullmask;0.2;arrow_right.png;down;0.21185769999283366;0.21947089998866431;98677.1066421;2.6000052457675338e-06;0.499235299997963;0.5392484000039985;0.5892762000003131;0.6593122000049334;0.7893910999991931;0.9194902000017464;0.01
10;2;15;23;letter169;letter190;letter169;letter190;0;0;congruent;0.04;letter169;0.09;0.07;fullmask;0.2;arrow_left.png;up;0.20904519999749027;0.2103610999911325;98678.8347182;2.800006768666208e-06;0.5018870000058087;0.5419101000006776;0.5919560000038473;0.661980200005928;0.7920747000025585;0.9221511000068858;0.01
10;2;15;24;letter169;letter190;letter169;letter190;0;0;incongruent;0.04;letter190;0.09;0.07;fullmask;0.2;arrow_left.png;down;0.3423890000121901;0.35009620001073927;98680.6986348;2.6000052457675338e-06;0.49745930000790395;0.5374836999981198;0.5875206000055186;0.6575715000071796;0.7876266000093892;0.9177272000088124;0.01
10;2;15;25;letter169;letter190;letter169;letter190;0;0;incongruent;0.04;letter169;0.09;0.07;fullmask;0.2;arrow_right.png;up;0.3515240000124322;0.3611966000025859;98682.5788482;2.7000060072168708e-06;0.49962719999894034;0.5396161999960896;0.5896589000039967;0.659698200004641;0.7897880999953486;0.9198744000022998;0.01
10;2;15;26;letter169;letter190;letter169;letter190;0;0;incongruent;0.04;letter169;0.09;0.07;fullmask;0.2;arrow_right.png;up;0.27127240000118036;0.2803031999937957;98684.3706448;2.6999914553016424e-06;0.49488450000353623;0.5349132999981521;0.58492949999345;0.6549652999965474;0.7850416000001132;0.9151498999999603;0.01
10;2;15;27;letter169;letter190;letter169;letter190;0;0;incongruent;0.04;letter190;0.09;0.07;fullmask;0.2;arrow_left.png;down;0.22090319999551866;0.23044349999690894;98686.1306666;2.5999906938523054e-06;0.5031320999987656;0.5431667999946512;0.5931903000018792;0.6632401999959257;0.7933054000022821;0.9234072999970522;0.01
10;2;15;28;letter169;letter190;letter169;letter190;0;0;congruent;0.04;letter169;0.09;0.07;fullmask;0.2;arrow_left.png;up;0.3192873999942094;0.3200622000003932;98687.9706356;2.6999914553016424e-06;0.5031640999950469;0.5431940999988001;0.5932098999910522;0.663247999997111;0.7933390999969561;0.9234245999978157;0.01
10;2;15;29;letter169;letter190;letter169;letter190;0;0;incongruent;0.04;letter190;0.09;0.07;fullmask;0.2;arrow_left.png;down;0.20628559999749996;0.21048369999334682;98689.698709;2.6999914553016424e-06;0.5033017999958247;0.5433050999999978;0.5933472000033362;0.6633850999933202;0.7934664999920642;0.9235678999975789;0.01
10;2;15;30;letter169;letter190;letter169;letter190;0;0;incongruent;0.04;letter169;0.09;0.07;fullmask;0.2;arrow_right.png;up;0.2650632000004407;0.2703237999958219;98691.4986507;2.5000044843181968e-06;0.5017947000014829;0.5417861000023549;0.5917924000095809;0.6618302999995649;0.7919019000109984;0.9220135000068694;0.01
10;2;15;31;letter169;letter190;letter169;letter190;0;0;incongruent;0.04;letter169;0.09;0.07;fullmask;0.2;arrow_right.png;up;0.24231139999756124;0.2503867000050377;98693.2666276;2.5999906938523054e-06;0.5011930000036955;0.5412325999932364;0.5912289999978384;0.6612822000024607;0.7913527999917278;0.9214404999947874;0.01
10;2;15;32;letter169;letter190;letter169;letter190;0;0;congruent;0.04;letter190;0.09;0.07;fullmask;0.2;arrow_right.png;down;0.2550954000034835;0.2603186999913305;98695.0506367;2.6000052457675338e-06;0.4987293000012869;0.5387489999993704;0.5887556000088807;0.6588028000114718;0.7888709000108065;0.9189728000055766;0.01
10;2;15;33;letter169;letter190;letter169;letter190;0;0;congruent;0.04;letter190;0.09;0.07;fullmask;0.2;arrow_right.png;down;0.4576870000018971;0.4607804999977816;98697.034746;2.7000060072168708e-06;0.5015113000117708;0.5415396000025794;0.5915707000094699;0.6615939000039361;0.7916599000018323;0.9217670000070939;0.01
10;2;15;34;letter169;letter190;letter169;letter190;0;0;incongruent;0.04;letter169;0.09;0.07;fullmask;0.2;arrow_right.png;up;0.3507300000055693;0.3509749000077136;98698.8986976;2.7000060072168708e-06;0.500566600007005;0.5405881000042427;0.590614300002926;0.6606578000064474;0.7907341000100132;0.9208292999974219;0.01
10;2;15;35;letter169;letter190;letter169;letter190;0;0;incongruent;0.04;letter190;0.09;0.07;fullmask;0.2;arrow_left.png;down;0.29320559999905527;0.30026420000649523;98700.7226573;2.5999906938523054e-06;0.5027196999872103;0.5427424999943469;0.5927826999977697;0.6628211999923224;0.7928991999942809;0.9230060999980196;0.01
10;2;15;36;letter169;letter190;letter169;letter190;0;0;congruent;0.04;letter169;0.09;0.07;fullmask;0.2;arrow_left.png;up;0.3338928000011947;0.3401337999966927;98702.594631;2.7000060072168708e-06;0.499007000005804;0.5390227000025334;0.5890538999956334;0.6590950999961933;0.7891843999968842;0.9192828999948688;0.01
10;2;15;37;letter169;letter190;letter169;letter190;0;0;congruent;0.04;letter169;0.09;0.07;fullmask;0.2;arrow_left.png;up;0.5362866000068607;0.539619400005904;98704.6586263;2.6000052457675338e-06;0.49797640000178944;0.5379925000015646;0.5880187000002479;0.6580469000036828;0.7881326000060653;0.9182616000034614;0.01
10;2;15;38;letter169;letter190;letter169;letter190;0;1;incongruent;0.12;letter190;0.18;0.07;fullmask;0.2;arrow_left.png;down;0.3655295000062324;0.37007100001210347;98706.6586407;2.4999899324029684e-06;0.5057457999937469;0.6258140999998432;0.6858401999925263;0.7558992999984184;0.8859634999971604;1.01607059998787;0.01
10;2;15;39;letter169;letter190;letter169;letter190;0;0;congruent;0.04;letter190;0.09;0.07;fullmask;0.2;arrow_right.png;down;0.2877297999948496;0.29024329999811016;98708.4826319;2.6000052457675338e-06;0.5010068000119645;0.5410261000070022;0.5910529000102542;0.661089200002607;0.7911811000085436;0.9212650000117719;0.01
10;2;15;40;letter169;letter190;letter169;letter190;0;0;incongruent;0.04;letter169;0.09;0.07;fullmask;0.2;arrow_right.png;up;0.38925220000965055;0.3901153000042541;98710.3947902;2.7000060072168708e-06;0.49981839999963995;0.5398412000067765;0.5898784000019077;0.6599113000120269;0.7899945000099251;0.9200975999992806;0.01
10;2;15;41;letter169;letter190;letter169;letter190;0;0;congruent;0.04;letter190;0.09;0.07;fullmask;0.2;arrow_right.png;down;0.33341730000393;0.34015040000667796;98712.2506253;2.5999906938523054e-06;0.5015377999952761;0.5415609999909066;0.5915857999934815;0.6616280000016559;0.7917053999990458;0.9217957999935606;0.01
10;2;15;42;letter169;letter190;letter169;letter190;0;0;congruent;0.04;letter169;0.09;0.07;fullmask;0.2;arrow_left.png;up;0.28035289999388624;0.2902710000053048;98714.0587918;2.6000052457675338e-06;0.4975280000071507;0.5375450999999885;0.5876006000034977;0.6576197000104003;0.7877161000069464;0.9177951000019675;0.01
10;2;15;43;letter169;letter190;letter169;letter190;0;0;incongruent;0.04;letter169;0.09;0.07;fullmask;0.2;arrow_right.png;up;0.2237745000020368;0.23030199999629986;98715.8026353;2.6999914553016424e-06;0.49742759999935515;0.5374035999993794;0.587488699995447;0.6575008999934653;0.7875822999922093;0.9176993000000948;0.01
10;2;15;44;letter169;letter190;letter169;letter190;0;0;incongruent;0.04;letter169;0.09;0.07;fullmask;0.2;arrow_right.png;up;0.27866460000223015;0.2803105999919353;98717.6186349;2.6999914553016424e-06;0.5002316999889445;0.5402448999957414;0.590291199987405;0.6603327999910107;0.7904202999925474;0.9205027999996673;0.01
10;2;15;45;letter169;letter190;letter169;letter190;0;1;congruent;0.12;letter169;0.18;0.07;fullmask;0.2;arrow_left.png;up;0.24349500000244007;0.25047830000403337;98719.474863;2.6000052457675338e-06;0.50265200001013;0.6227333999995608;0.6827636000089115;0.7528234000055818;0.8828891000011936;1.012996400007978;0.01
10;2;15;46;letter169;letter190;letter169;letter190;0;0;congruent;0.04;letter169;0.09;0.07;fullmask;0.2;arrow_left.png;up;0.3682416999945417;0.37006830000609625;98721.3706382;2.6000052457675338e-06;0.503510800001095;0.5435113999992609;0.5935488999966765;0.6635817000060342;0.7936573000042699;0.9237683999963338;0.01
10;2;15;47;letter169;letter190;letter169;letter190;0;0;congruent;0.04;letter169;0.09;0.07;fullmask;0.2;arrow_left.png;up;0.30879310000455007;0.3101028000091901;98723.2027584;2.5999906938523054e-06;0.5032573999924352;0.5432743999990635;0.5932702999998583;0.6633034999977099;0.7933807999943383;0.9234991999983322;0.01
10;2;15;48;letter169;letter190;letter169;letter190;0;0;congruent;0.04;letter190;0.09;0.07;fullmask;0.2;arrow_right.png;down;0.3038529000041308;0.3102344999933848;98725.0186281;2.5999906938523054e-06;0.4993153999967035;0.5393305999896256;0.5893471999879694;0.6593969999958063;0.7894916999939596;0.9195910999987973;0.01
10;2;15;49;letter169;letter190;letter169;letter190;0;0;incongruent;0.04;letter190;0.09;0.07;fullmask;0.2;arrow_left.png;down;0.30236460000742227;0.31033670000033453;98726.8587769;2.5999906938523054e-06;0.5007175999926403;0.540737999996054;0.5907689000014216;0.6608017999969888;0.7908910999976797;0.9209954999969341;0.01
10;2;15;50;letter169;letter190;letter169;letter190;0;0;incongruent;0.04;letter190;0.09;0.07;fullmask;0.2;arrow_left.png;down;0.24734539999917615;0.2504973999893991;98728.6346995;2.6000052457675338e-06;0.49677640000300016;0.5367794000048889;0.5868230000050971;0.6568723000091268;0.7869534000055864;0.9170356999966316;0.01
10;2;15;51;letter169;letter190;letter169;letter190;0;0;congruent;0.04;letter190;0.09;0.07;fullmask;0.2;arrow_right.png;down;0.31577309999556746;0.3201647999958368;98730.4746378;2.6999914553016424e-06;0.5015666999970563;0.541579599987017;0.5916060999879846;0.6616350999975111;0.791725499992026;0.9218185999925481;0.01
10;2;15;52;letter169;letter190;letter169;letter190;0;0;incongruent;0.04;letter190;0.09;0.07;fullmask;0.2;arrow_left.png;down;0.2992443999974057;0.3002567000075942;98732.2986189;2.5000044843181968e-06;0.505057600006694;0.5450511999952141;0.5950857999996515;0.6651184999936959;0.7952067000005627;0.9252991999965161;0.01
10;2;16;1;letter169;letter190;letter169;letter190;0;0;incongruent;0.04;letter169;0.09;0.07;fullmask;0.2;arrow_right.png;up;0.32320319999416824;0.3312182999943616;98748.0826095;2.6999914553016424e-06;0.5025656999932835;0.5425909000041429;0.59262189999572;0.6626519999990705;0.7927502999955323;0.9228399999992689;0.01
10;2;16;2;letter169;letter190;letter169;letter190;0;0;incongruent;0.04;letter169;0.09;0.07;fullmask;0.2;arrow_right.png;up;0.22306490001210477;0.229474100007792;98749.8346291;2.6000052457675338e-06;0.49868040000728797;0.538695800001733;0.588741100000334;0.6587552000128198;0.7888533000077587;0.9189417000015965;0.01
10;2;16;3;letter169;letter190;letter169;letter190;0;0;congruent;0.04;letter190;0.09;0.07;fullmask;0.2;arrow_right.png;down;0.22273049999785144;0.23054489999776706;98751.5948488;2.7999922167509794e-06;0.5003305999998702;0.5403472000034526;0.5903739999921527;0.6604130000050645;0.79049230000237;0.9205806999962078;0.01
10;2;16;4;letter169;letter190;letter169;letter190;0;0;incongruent;0.04;letter190;0.09;0.07;fullmask;0.2;arrow_left.png;down;0.3993422999919858;0.39981999999145046;98753.522701;2.5999906938523054e-06;0.5007057999901008;0.54073249999783;0.5907576999888988;0.660790599999018;0.7908812999958172;0.9209772999893175;0.01
10;2;16;5;letter169;letter190;letter169;letter190;0;0;incongruent;0.04;letter190;0.09;0.07;fullmask;0.2;arrow_left.png;down;0.1957987000059802;0.1995500000048196;98755.2506212;2.5999906938523054e-06;0.5047917999909259;0.5447881000000052;0.594799200000125;0.664875899994513;0.7949579999985872;0.9250690000044415;0.01
10;2;16;6;letter169;letter190;letter169;letter190;0;1;congruent;0.12;letter190;0.18;0.07;fullmask;0.2;arrow_right.png;down;0.20059910000418313;0.21036440000170842;98757.0666163;2.7000060072168708e-06;0.5030689999985043;0.6231141000025673;0.6831517000100575;0.7531764000013936;0.8832705999957398;1.0133597000094596;0.01
10;2;16;7;letter169;letter190;letter169;letter190;0;0;incongruent;0.04;letter190;0.09;0.07;fullmask;0.2;arrow_left.png;down;0.33385929999349173;0.3401369000057457;98758.9306175;2.6000052457675338e-06;0.5010138000070583;0.5410241000063252;0.5910898000001907;0.6610991000052309;0.7912064999982249;0.9212813000049209;0.01
10;2;16;8;letter169;letter190;letter169;letter190;0;0;congruent;0.04;letter190;0.09;0.07;fullmask;0.2;arrow_right.png;down;0.2007904000056442;0.21059690001129638;98760.6588051;3.0999945010989904e-06;0.5028717999957735;0.5429097000014735;0.5929136999911861;0.6629701999918325;0.7930314999975963;0.9231550999975298;0.01
10;2;16;9;letter169;letter190;letter169;letter190;0;0;incongruent;0.04;letter169;0.09;0.07;fullmask;0.2;arrow_right.png;up;0.21905020000122022;0.2194344000017736;98762.4186984;2.5999906938523054e-06;0.5004696999967564;0.5404953999968711;0.5905406999954721;0.6605640999914613;0.7906548000028124;0.9207402000029106;0.01
10;2;16;10;letter169;letter190;letter169;letter190;0;0;incongruent;0.04;letter169;0.09;0.07;fullmask;0.2;arrow_right.png;up;0.4779606999945827;0.47964209999190643;98764.4187026;2.6000052457675338e-06;0.5011555999953998;0.5411827000061749;0.5912009000021499;0.6612355999968713;0.7913365999993403;0.9214310999959707;0.01
10;2;16;11;letter169;letter190;letter169;letter190;0;0;congruent;0.04;letter169;0.09;0.07;fullmask;0.2;arrow_left.png;up;0.3410386999894399;0.35005399999499787;98766.282633;2.5000044843181968e-06;0.5020981000125175;0.5421172000060324;0.5921725000080187;0.6621842000022298;0.7922863000130747;0.9223803000058979;0.01
10;2;16;12;letter169;letter190;letter169;letter190;0;0;incongruent;0.04;letter190;0.09;0.07;fullmask;0.2;arrow_left.png;down;0.15758500000811182;0.15969349999795668;98767.9706695;2.6000052457675338e-06;0.5001441999920644;0.5401800999970874;0.5902171000052476;0.6602462000009837;0.7903233999968506;0.9204371999949217;0.01
10;2;16;13;letter169;letter190;letter169;letter190;0;0;incongruent;0.04;letter169;0.09;0.07;fullmask;0.2;arrow_right.png;up;0.15723650000290945;0.1607551000051899;98769.6507363;3.100009053014219e-06;0.49718720000237226;0.5372059000073932;0.5872463000123389;0.6572782000002917;0.7873657000018284;0.9174580000108108;0.01
10;2;16;14;letter169;letter190;letter169;letter190;0;0;incongruent;0.04;letter169;0.09;0.07;fullmask;0.2;arrow_right.png;up;0.34791630000108853;0.34998230000201147;98771.5226258;2.900007530115545e-06;0.5025210000021616;0.5425278000038816;0.5925594000000274;0.6626011000043945;0.7926735000073677;0.922774999999092;0.01
10;2;16;15;letter169;letter190;letter169;letter190;0;1;congruent;0.12;letter169;0.18;0.07;fullmask;0.2;arrow_left.png;up;0.2802934999926947;0.2902874999999767;98773.4267002;2.5999906938523054e-06;0.4977284999913536;0.6177873999986332;0.677790499990806;0.7478688999981387;0.8779598999972222;1.0080519999901298;0.01
10;2;16;16;letter169;letter190;letter169;letter190;0;0;congruent;0.04;letter169;0.09;0.07;fullmask;0.2;arrow_left.png;up;0.2652598999993643;0.27030509999895;98775.2026839;2.7999922167509794e-06;0.4958494000020437;0.5358785999997053;0.585885699998471;0.6559355999925174;0.7860304999921937;0.9161507999961032;0.01
10;2;16;17;letter169;letter190;letter169;letter190;0;0;congruent;0.04;letter190;0.09;0.07;fullmask;0.2;arrow_right.png;down;0.26646009999967646;0.2702627999969991;98776.9946056;2.5000044843181968e-06;0.5038534000050277;0.5438800000119954;0.5938996000040788;0.663939100006246;0.7940208000072744;0.9241247000027215;0.01
10;2;16;18;letter169;letter190;letter169;letter190;0;0;congruent;0.04;letter169;0.09;0.07;fullmask;0.2;arrow_left.png;up;0.24070969999593217;0.2503474999975879;98778.7706132;2.6000052457675338e-06;0.49899870000081137;0.5390259000123478;0.5890457000059541;0.6591104000108317;0.7891834000038216;0.9192815999995219;0.01
10;2;16;19;letter169;letter190;letter169;letter190;0;0;congruent;0.04;letter169;0.09;0.07;fullmask;0.2;arrow_left.png;up;0.2698122000001604;0.2703363000036916;98780.5707274;2.6999914553016424e-06;0.5013774999970337;0.5414026999933412;0.5914172999910079;0.6614733999886084;0.7915569999895524;0.9216301999986172;0.01
10;2;16;20;letter169;letter190;letter169;letter190;0;0;incongruent;0.04;letter190;0.09;0.07;fullmask;0.2;arrow_left.png;down;0.30270329999621026;0.3101892999984557;98782.3946358;3.0999945010989904e-06;0.499817100004293;0.5398490999941714;0.5898710000037681;0.6599013999948511;0.7899917000031564;0.9201028999959817;0.01
10;2;16;21;letter169;letter190;letter169;letter190;0;0;incongruent;0.04;letter190;0.09;0.07;fullmask;0.2;arrow_left.png;down;0.2877123000071151;0.2901456999970833;98784.2106246;2.7000060072168708e-06;0.5038820000045234;0.5439031999994768;0.5939423999952851;0.6639808000036282;0.794056400001864;0.9241575000050943;0.01
10;2;16;22;letter169;letter190;letter169;letter190;0;0;incongruent;0.04;letter169;0.09;0.07;fullmask;0.2;arrow_right.png;up;0.28772620001109317;0.2901603000063915;98786.0425951;2.5999906938523054e-06;0.505705499992473;0.5457251999905566;0.5957733999966877;0.6658088999975007;0.7958767999953125;0.9259694999927888;0.01
10;2;16;23;letter169;letter190;letter169;letter190;0;0;congruent;0.04;letter190;0.09;0.07;fullmask;0.2;arrow_right.png;down;0.4212563000037335;0.43091260000073817;98787.9866108;2.6999914553016424e-06;0.4972166999941692;0.5372239999996964;0.587255099992035;0.6573064999975031;0.7873665999941295;0.9174714999971911;0.01
10;2;16;24;letter169;letter190;letter169;letter190;0;0;congruent;0.04;letter169;0.09;0.07;fullmask;0.2;arrow_left.png;up;0.22990030000801198;0.23044369999843184;98789.7466736;2.6999914553016424e-06;0.4973061999917263;0.5373107999912463;0.5873597000027075;0.657385600003181;0.7874791999929585;0.9175700999912806;0.01
10;2;16;25;letter169;letter190;letter169;letter190;0;0;incongruent;0.04;letter190;0.09;0.07;fullmask;0.2;arrow_left.png;down;0.2944612999999663;0.3001194999960717;98791.5626248;2.7000060072168708e-06;0.5003140000044368;0.5403207000053953;0.5903556999983266;0.6603804000042146;0.7904622000060044;0.9205741000041598;0.01
10;2;16;26;letter169;letter190;letter169;letter190;0;0;congruent;0.04;letter190;0.09;0.07;fullmask;0.2;arrow_right.png;down;0.7694425999943633;0.7697783999901731;98793.8587061;2.6000052457675338e-06;0.5028884000057587;0.5429155000019819;0.5929486000095494;0.6629962000006344;0.793068700004369;0.9231537000014214;0.01
10;2;16;27;letter169;letter190;letter169;letter190;0;0;incongruent;0.04;letter169;0.09;0.07;fullmask;0.2;arrow_right.png;up;0.3559928000031505;0.36009700001159217;98795.7466876;2.4999899324029684e-06;0.5027753999893321;0.5428058999968925;0.5928184999938821;0.6628393999999389;0.7929254999908153;0.9230386999988696;0.01
10;2;16;28;letter169;letter190;letter169;letter190;0;0;incongruent;0.04;letter190;0.09;0.07;fullmask;0.2;arrow_left.png;down;0.13868319999892265;0.1395497999910731;98797.4106193;2.6000052457675338e-06;0.5044349999952829;0.544443599996157;0.5944634000043152;0.6644899999955669;0.7945877000020118;0.9247111000004224;0.01
10;2;16;29;letter169;letter190;letter169;letter190;0;1;incongruent;0.12;letter169;0.18;0.07;fullmask;0.2;arrow_right.png;up;0.1532959999894956;0.15963569999439642;98799.1866162;2.5999906938523054e-06;0.4989482999953907;0.6189804000023287;0.679047300000093;0.749098000000231;0.8791411999991396;1.0092934999993304;0.01
10;2;16;30;letter169;letter190;letter169;letter190;0;0;congruent;0.04;letter190;0.09;0.07;fullmask;0.2;arrow_right.png;down;0.2163698999938788;0.21946619999653194;98800.9307368;2.4999899324029684e-06;0.49750979999953415;0.5375227999902563;0.587566499991226;0.6575899999879766;0.7876663999923039;0.9177901999937603;0.01
10;2;16;31;letter169;letter190;letter169;letter190;0;0;incongruent;0.04;letter190;0.09;0.07;fullmask;0.2;arrow_left.png;down;0.25720530000398867;0.26046960000530817;98802.7226732;2.7000060072168708e-06;0.5036197000008542;0.5436272999941139;0.5936695999989752;0.6637040000059642;0.7937834000040311;0.9238874000002397;0.01
10;2;16;32;letter169;letter190;letter169;letter190;0;0;incongruent;0.04;letter169;0.09;0.07;fullmask;0.2;arrow_right.png;up;0.2768878000060795;0.2811721000034595;98804.5225991;2.5000044843181968e-06;0.5042570000077831;0.5442703000007896;0.5943107000057353;0.6643473000003723;0.7944170000118902;0.924528100003954;0.01
10;2;16;33;letter169;letter190;letter169;letter190;0;0;congruent;0.04;letter169;0.09;0.07;fullmask;0.2;arrow_left.png;up;0.34096769998723175;0.3499971999990521;98806.3786149;2.800006768666208e-06;0.4955781000026036;0.5356130000000121;0.5856196000095224;0.6556639000045834;0.7857230000081472;0.9158338999986881;0.01
10;2;16;34;letter169;letter190;letter169;letter190;0;0;congruent;0.04;letter190;0.09;0.07;fullmask;0.2;arrow_right.png;down;0.19805479999922682;0.2004808000056073;98808.1066441;2.7000060072168708e-06;0.503209100003005;0.543225600005826;0.5932532000006177;0.6632849000015995;0.7933614000066882;0.9234451999946032;0.01
10;2;16;35;letter169;letter190;letter169;letter190;0;0;incongruent;0.04;letter169;0.09;0.07;fullmask;0.2;arrow_right.png;up;0.25090060000366066;0.26020859999698587;98809.8906117;2.5999906938523054e-06;0.5049751999904402;0.5449971999914851;0.5950320999982068;0.6650674999982584;0.7951511999999639;0.9252644999942277;0.01
10;2;16;36;letter169;letter190;letter169;letter190;0;0;incongruent;0.04;letter190;0.09;0.07;fullmask;0.2;arrow_left.png;down;0.2703527999983635;0.280165299991495;98811.6907878;2.800006768666208e-06;0.5043975000007777;0.5443934000068111;0.5944507000094745;0.6644595000107074;0.7945788000070024;0.9246445000026142;0.01
10;2;16;37;letter169;letter190;letter169;letter190;0;0;congruent;0.04;letter190;0.09;0.07;fullmask;0.2;arrow_right.png;down;0.1327620000083698;0.14054880000185221;98813.3546224;2.4999899324029684e-06;0.5040109999972628;0.5440501999983098;0.594092899991665;0.6641134999954375;0.7941906999913044;0.9243000999995274;0.01
10;2;16;38;letter169;letter190;letter169;letter190;0;0;congruent;0.04;letter169;0.09;0.07;fullmask;0.2;arrow_left.png;up;0.30981259999680333;0.31013259998871945;98815.2026666;2.6000052457675338e-06;0.49740599999495316;0.5374288000020897;0.5874558999930741;0.6574897999962559;0.7875781000038842;0.9176713000051677;0.01
10;2;16;39;letter169;letter190;letter169;letter190;0;0;congruent;0.04;letter169;0.09;0.07;fullmask;0.2;arrow_left.png;up;0.9500868000031915;0.9503205000073649;98817.6746786;2.6000052457675338e-06;0.5001312999957008;0.5401453999947989;0.5901889999950072;0.6602126000070712;0.790307400005986;0.9203929000068456;0.01
10;2;16;40;letter169;letter190;letter169;letter190;0;0;congruent;0.04;letter190;0.09;0.07;fullmask;0.2;arrow_right.png;down;0.2467942000075709;0.2503858999989461;98819.4428074;2.6000052457675338e-06;0.49621420000039507;0.5362492999993265;0.5862572000041837;0.6563116000033915;0.7863950000028126;0.9164900000032503;0.01
10;2;16;41;letter169;letter190;letter169;letter190;0;0;congruent;0.04;letter169;0.09;0.07;fullmask;0.2;arrow_left.png;up;0.39002110000001267;0.40108959999633953;98821.3466914;2.7000060072168708e-06;0.4972574999992503;0.537275700000464;0.5873007000045618;0.6573334999993676;0.7874100000044564;0.9175129000068409;0.01
10;2;16;42;letter169;letter190;letter169;letter190;0;0;incongruent;0.04;letter190;0.09;0.07;fullmask;0.2;arrow_left.png;down;0.3167219000024488;0.3201922000007471;98823.1946204;2.5000044843181968e-06;0.5054307999962475;0.5454524000087986;0.5955041999986861;0.665515000000596;0.7956122000032337;0.9256988999986788;0.01
10;2;16;43;letter169;letter190;letter169;letter190;0;0;incongruent;0.04;letter190;0.09;0.07;fullmask;0.2;arrow_left.png;down;0.31528419999813195;0.3202041000040481;98825.0346152;2.6999914553016424e-06;0.4982079000037629;0.5382322999939788;0.5882427000033204;0.6583072999928845;0.7883652000018628;0.9184630999952788;0.01
10;2;16;44;letter169;letter190;letter169;letter190;0;0;congruent;0.04;letter190;0.09;0.07;fullmask;0.2;arrow_right.png;down;0.21847839999827556;0.22044999999343418;98826.7786109;2.6000052457675338e-06;0.5036815000057686;0.5436922999942908;0.5937335000053281;0.6637672999931965;0.7938566999946488;0.9239602000016021;0.01
10;2;16;45;letter169;letter190;letter169;letter190;0;0;congruent;0.04;letter190;0.09;0.07;fullmask;0.2;arrow_right.png;down;0.08674620000238065;0.0897947000048589;98828.3786366;2.5999906938523054e-06;0.5012657999905059;0.5412874999892665;0.5913253999897279;0.6613563999999315;0.791459499989287;0.9215392999903997;0.01
10;2;16;46;letter169;letter190;letter169;letter190;0;1;incongruent;0.12;letter190;0.18;0.07;fullmask;0.2;arrow_left.png;down;0.24248179999995045;0.250506000011228;98830.2349497;2.5000044843181968e-06;0.5034704999998212;0.6235388000059174;0.683575800008839;0.7536206000077073;0.8837007999973139;1.0138009000074817;0.01
10;2;16;47;letter169;letter190;letter169;letter190;0;0;congruent;0.04;letter190;0.09;0.07;fullmask;0.2;arrow_right.png;down;0.23882660000526812;0.24040799999784213;98832.0026053;2.7999922167509794e-06;0.49835179999354295;0.538384400002542;0.5883954000019003;0.6584450999944238;0.7885170999943512;0.9186363000044366;0.01
10;2;16;48;letter169;letter190;letter169;letter190;0;0;incongruent;0.04;letter169;0.09;0.07;fullmask;0.2;arrow_right.png;up;0.02161569999589119;0.029948900002636947;98833.5466208;2.6000052457675338e-06;0.5004101000085939;0.5404294000036316;0.5904469000088284;0.6604957000090508;0.7905765000032261;0.9206719000067096;0.01
10;2;16;49;letter169;letter190;letter169;letter190;0;0;incongruent;0.04;letter169;0.09;0.07;fullmask;0.2;arrow_right.png;up;0.30499209999106824;0.3101872999977786;98835.3706038;2.5000044843181968e-06;0.5006182000070112;0.540644799999427;0.590695400009281;0.6607195000106003;0.7908052999991924;0.9208751000114717;0.01
10;2;16;50;letter169;letter190;letter169;letter190;0;0;congruent;0.04;letter169;0.09;0.07;fullmask;0.2;arrow_left.png;up;0.32140659999276977;0.33004600000276696;98837.2185622;2.5999906938523054e-06;0.4958796999999322;0.5358896999969147;0.5859400999906939;0.655989299993962;0.7860799000045517;0.9161443000048166;0.01
10;2;16;51;letter169;letter190;letter169;letter190;0;0;congruent;0.04;letter169;0.09;0.07;fullmask;0.2;arrow_left.png;up;0.39026729999750387;0.39997779999976046;98839.1386161;2.6000052457675338e-06;0.4996162000024924;0.5396423000056529;0.589688500011107;0.6597159000084503;0.7898125000065193;0.9198813999973936;0.01
10;2;16;52;letter169;letter190;letter169;letter190;0;0;congruent;0.04;letter169;0.09;0.07;fullmask;0.2;arrow_left.png;up;0.5491768999927444;0.5504564000002574;98841.2185675;2.6999914553016424e-06;0.5031228000007104;0.5431429000018397;0.5931714000034845;0.6632221000036225;0.7932954999996582;0.9234046999918064;0.01
