subjnr;loop_m;blocknr;trialnr;cue_left_learn;cue_right_learn; congruence;cue_dur;cue;SOA;mask_dur;mask;target_dur;target;response;RT;kb_rt;response_absolute; fix_onset;cue_onset;cue_offset;mask_onset;mask_offset;target_offset;blank_onset;response_during_mask;response_during_targetalone;response_during_RW;response_during_blank;frame_dur
4;1;4;1;letter181;letter357;congruent;0.04;letter181;0.05;0.07;fullmask;0.2;arrow_left.png;c;0.31778010000016366;0.32028469999931986;9063.0900566;2.6000016077887267e-06;0.4989722000009351;0.5389668000007077;0.5501918999998452;0.6201449000000139;0.7507077000009303;1.0693215999999666;0;0;1;0;0.01
4;1;4;2;letter181;letter357;incongruent;0.04;letter357;0.05;0.07;fullmask;0.2;arrow_left.png;c;0.21645560000069963;0.22051900000042224;9064.6500983;2.4000000848900527e-06;0.5015093999991223;0.5415161000000808;0.553036899998915;0.6228090999993583;0.753475299999991;0.9718004999995173;0;0;1;0;0.01
4;1;4;3;letter181;letter357;incongruent;0.04;letter181;0.05;0.07;fullmask;0.2;arrow_right.png;c;0.28309629999967;0.29026969999904395;9066.2983079;2.4000000848900527e-06;0.5028344999991532;0.5428625000004104;0.5549267000005784;0.6246209999990242;0.7542733999998745;1.043146500000148;0;0;1;0;0.01
4;1;4;4;letter181;letter357;incongruent;0.04;letter181;0.05;0.07;fullmask;0.2;arrow_right.png;m;0.3303310999999667;0.3401490999985981;9067.9860196;2.499999027349986e-06;0.49578069999915897;0.5358212999999523;0.5472883999991609;0.6171904999991966;0.7477524999994785;0.8774073999993561;0;0;0;1;0.01
4;1;4;5;letter181;letter357;incongruent;0.04;letter357;0.05;0.07;fullmask;0.2;arrow_left.png;c;0.3671890000005078;0.3700222000006761;9069.514018;2.5000008463393897e-06;0.503194099999746;0.5432190000010451;0.554884299999685;0.6246587000005093;0.7553067999997438;0.8849604000006366;0;0;0;1;0.01
4;1;4;6;letter181;letter357;congruent;0.04;letter357;0.05;0.07;fullmask;0.2;arrow_right.png;m;0.3120015999993484;0.3200692999998864;9070.9700512;2.4000000848900527e-06;0.49926349999986996;0.5392838999996457;0.5512165000000095;0.6209823999997752;0.7505512999996427;1.0696297000013146;0;0;1;0;0.01
4;1;4;7;letter181;letter357;incongruent;0.04;letter357;0.05;0.07;fullmask;0.2;arrow_left.png;m;0.29541299999982584;0.30032980000032694;9072.6342274;2.3000011424301192e-06;0.5035554000005504;0.5435759000010876;0.5551917000011599;0.6249623000003339;0.7556230000009236;1.0539060999999492;0;0;1;0;0.01
4;1;4;8;letter181;letter357;congruent;0.04;letter181;0.05;0.07;fullmask;0.2;arrow_left.png;m;0.26821709999967425;0.2703972999988764;9074.2581052;2.4000000848900527e-06;0.49917219999952067;0.5391880000006495;0.5508143000006385;0.6206664999990608;0.7512348000000202;1.019522299999153;0;0;1;0;0.01
4;1;4;9;letter181;letter357;incongruent;0.04;letter181;0.05;0.07;fullmask;0.2;arrow_right.png;m;0.3365878000004159;0.3400359000006574;9075.9379991;2.5000008463393897e-06;0.4964233000009699;0.5364516000008734;0.5485707000007096;0.6182468000006338;0.7479182000006404;0.8785731000007218;0;0;0;1;0.01
4;1;4;10;letter181;letter357;congruent;0.04;letter357;0.05;0.07;fullmask;0.2;arrow_right.png;m;0.30861019999974815;0.31018419999963953;9077.4100809;2.499999027349986e-06;0.5021808999990753;0.5422051999994437;0.5534090000001015;0.6241797000002407;0.7538284000002022;1.0625392999991163;0;0;1;0;0.01
4;1;4;11;letter181;letter357;congruent;0.04;letter181;0.05;0.07;fullmask;0.2;arrow_left.png;c;0.2571576999998797;0.26019129999986035;9079.0099698;2.5000008463393897e-06;0.4971602999994502;0.5371931000008772;0.5486753000004683;0.6193158999994921;0.7489690000002156;1.0074772000007215;0;0;1;0;0.01
4;1;4;12;letter181;letter357;congruent;0.04;letter357;0.05;0.07;fullmask;0.2;arrow_right.png;m;0.2638054999988526;0.2701985000003333;9080.618018;2.499999027349986e-06;0.49695839999913005;0.5369769999997516;0.5488413000002765;0.618521200000032;0.7491718000001129;1.0172918000007485;0;0;1;0;0.01
4;1;4;13;letter181;letter357;congruent;0.04;letter357;0.05;0.07;fullmask;0.2;arrow_right.png;m;0.26919420000012906;0.27044040000146197;9082.2340639;2.499999027349986e-06;0.49408709999988787;0.5341048999998748;0.5455929999989166;0.6154938999989099;0.7460535999998683;1.014417799999137;0;0;1;0;0.01
4;1;4;14;letter181;letter357;congruent;0.04;letter181;0.05;0.07;fullmask;0.2;arrow_left.png;c;0.27381310000055237;0.2801729000002524;9083.8500026;2.3000011424301192e-06;0.4975508000006812;0.5375764000000345;0.5493506000002526;0.6190117000005557;0.7496810000011465;1.027895700000954;0;0;1;0;0.01
4;1;4;15;letter181;letter357;incongruent;0.04;letter357;0.05;0.07;fullmask;0.2;arrow_left.png;m;0.2850495000002411;0.2902398999995057;9085.4820221;2.4000000848900527e-06;0.5003964999996242;0.5404134999989765;0.5519224999989092;0.621695699999691;0.7523488999995607;1.040743499999735;0;0;1;0;0.01
4;1;4;16;letter181;letter357;incongruent;0.04;letter357;0.05;0.07;fullmask;0.2;arrow_left.png;c;0.23569680000036897;0.24042030000055092;9087.074015;2.499999027349986e-06;0.49899399999958405;0.5390213999999105;0.5508243999993283;0.620725400000083;0.750294199999189;0.9893142999990232;0;0;1;0;0.01
4;1;4;17;letter181;letter357;congruent;0.04;letter357;0.05;0.07;fullmask;0.2;arrow_right.png;c;0.3068058999997447;0.3101802000001044;9088.7461122;2.4000000848900527e-06;0.5048158000008698;0.5448228000004747;0.5565956999998889;0.626366099999359;0.7570171999996091;1.0651686000001064;0;0;1;0;0.01
4;1;4;18;letter181;letter357;incongruent;0.04;letter181;0.05;0.07;fullmask;0.2;arrow_right.png;m;0.35752949999914563;0.36008419999961916;9090.4580605;2.4000000848900527e-06;0.5045313000009628;0.5445458000012877;0.5564781000011862;0.6261637000006886;0.7568180000016582;0.8864664000011544;0;0;0;1;0.01
4;1;4;19;letter181;letter357;incongruent;0.04;letter181;0.05;0.07;fullmask;0.2;arrow_right.png;m;0.37646379999932833;0.3799502999991091;9091.9779986;2.3000011424301192e-06;0.4951448000010714;0.5351590999998734;0.5471268000001146;0.6170278999998118;0.7465829000011581;0.8772356000008585;0;0;0;1;0.01
4;1;4;20;letter181;letter357;incongruent;0.04;letter357;0.05;0.07;fullmask;0.2;arrow_left.png;c;0.26176479999958246;0.27029099999890605;9093.3940112;2.4000000848900527e-06;0.5015454000003956;0.5415752000008069;0.5532615000010992;0.6230359000001044;0.7536843000016233;1.0218858000007458;0;0;1;0;0.01
4;1;4;21;letter181;letter357;congruent;0.04;letter181;0.05;0.07;fullmask;0.2;arrow_left.png;c;0.31435749999945983;0.3200520999998844;9095.0580068;2.4000000848900527e-06;0.501213600000483;0.5412413000012748;0.5532889000005525;0.6230516000014177;0.7526069000014104;1.0715883000011672;0;0;1;0;0.01
4;1;4;22;letter181;letter357;incongruent;0.04;letter181;0.05;0.07;fullmask;0.2;arrow_right.png;m;0.3215713000008691;0.3301236000006611;9096.7460135;2.4000000848900527e-06;0.5043987999997626;0.5444157999991148;0.5561928999995871;0.625958399999945;0.7566221999986738;1.084771499999988;0;0;1;0;0.01
4;1;4;23;letter181;letter357;congruent;0.04;letter357;0.05;0.07;fullmask;0.2;arrow_right.png;m;0.28637849999904574;0.29035079999994196;9098.402134;2.5000008463393897e-06;0.5046019000001252;0.5446231000005355;0.5566228999996383;0.6264066999992792;0.7560598000000027;1.0449353000003612;0;0;1;0;0.01
4;1;4;24;letter181;letter357;congruent;0.04;letter181;0.05;0.07;fullmask;0.2;arrow_left.png;c;0.32737450000058743;0.3302719999992405;9100.0740134;1.5499999790336005e-05;0.501851799999713;0.5418752999994467;0.55370529999891;0.6236219000002166;0.7532706999991206;1.0822219000001496;0;0;1;0;0.01
4;1;4;25;letter181;letter357;congruent;0.04;letter181;0.05;0.07;fullmask;0.2;arrow_left.png;m;0.2960948999989341;0.30018269999891345;9101.7140069;2.5000008463393897e-06;0.4995385999991413;0.5395408999993379;0.5515761000006023;0.6213203000006615;0.7509740000004967;1.0498747000001458;0;0;1;0;0.01
4;1;4;26;letter181;letter357;congruent;0.04;letter357;0.05;0.07;fullmask;0.2;arrow_right.png;c;0.21329269999841927;0.22042269999838027;9103.2820664;2.4000000848900527e-06;0.5011955999998463;0.5412173000004259;0.5530598999994254;0.6228286000005028;0.7524828999994497;0.9715018999995664;0;0;1;0;0.01
4;1;4;27;letter181;letter357;incongruent;0.04;letter181;0.05;0.07;fullmask;0.2;arrow_right.png;m;0.31472500000018044;0.3200574000002234;9104.9540543;2.5000008463393897e-06;0.5037589000003209;0.5437818000009429;0.5551670000004378;0.6249317000001611;0.7554854999998497;1.0741226000009192;0;0;1;0;0.01
4;1;4;28;letter181;letter357;congruent;0.04;letter181;0.05;0.07;fullmask;0.2;arrow_left.png;c;0.31792680000035034;0.3211602999999741;9106.6180901;2.4000000848900527e-06;0.49976820000119915;0.5397917000009329;0.550941800000146;0.6215964000002714;0.7512636000010389;1.0701492999996844;0;0;1;0;0.01
4;1;4;29;letter181;letter357;incongruent;0.04;letter357;0.05;0.07;fullmask;0.2;arrow_left.png;c;0.34063919999971404;0.35010349999902246;9108.3220597;2.2999993234407157e-06;0.5028516999991552;0.5428916000000754;0.5542243999989296;0.6241035999992164;0.7546683000000485;0.884321399998953;0;0;0;1;0.01
4;1;4;30;letter181;letter357;incongruent;0.04;letter357;0.05;0.07;fullmask;0.2;arrow_left.png;c;0.32898560000103316;0.33004299999993236;9109.8020687;2.4000000848900527e-06;0.49672780000037164;0.536731599999257;0.5487711999994644;0.6184500999988813;0.7481024999997317;1.077089899999919;0;0;1;0;0.01
4;1;4;31;letter181;letter357;incongruent;0.04;letter357;0.05;0.07;fullmask;0.2;arrow_left.png;c;0.28616390000024694;0.29023899999992864;9111.4500093;2.4000000848900527e-06;0.5038567000010516;0.5438790999996854;0.5555918999998539;0.6253608999995777;0.75601800000004;1.0442087999999785;0;0;1;0;0.01
4;1;4;32;letter181;letter357;incongruent;0.04;letter181;0.05;0.07;fullmask;0.2;arrow_right.png;c;0.21340190000046277;0.2205671000010625;9113.0182683;2.4000000848900527e-06;0.4960910999998305;0.5361155999999028;0.5477952000001096;0.6176912999999331;0.7482518999986496;0.9663882000004378;0;0;1;0;0.01
4;1;4;33;letter181;letter357;incongruent;0.04;letter181;0.05;0.07;fullmask;0.2;arrow_right.png;c;0.3077271000001929;0.3102123999997275;9114.6740286;2.4000000848900527e-06;0.4996102000004612;0.5396467999999004;0.5517450000006647;0.6214336000011826;0.7510894999995799;1.0599588999994012;0;0;1;0;0.01
4;1;4;34;letter181;letter357;incongruent;0.04;letter357;0.05;0.07;fullmask;0.2;arrow_left.png;c;0.32152170000154;0.3311714999999822;9116.3379791;2.599999788799323e-06;0.49648229999911564;0.5364989999998215;0.5477012999999715;0.6185989000005065;0.7481626999997388;1.0768528999997216;0;0;1;0;0.01
4;1;4;35;letter181;letter357;congruent;0.04;letter181;0.05;0.07;fullmask;0.2;arrow_left.png;c;0.3134719999998197;0.32006770000043616;9118.0019898;2.2999993234407157e-06;0.4977960999985953;0.5378255999985413;0.5500101999987237;0.6196885999997903;0.7493459999986953;1.068160099999659;0;0;1;0;0.01
4;1;4;36;letter181;letter357;incongruent;0.04;letter357;0.05;0.07;fullmask;0.2;arrow_left.png;c;0.3947818999986339;0.3999221999984002;9119.7540187;2.5000008463393897e-06;0.5016638000015519;0.5416805000004388;0.5535260000015114;0.6232960000015737;0.7529274000007717;0.8835812000015721;0;0;0;1;0.01
4;1;4;37;letter181;letter357;congruent;0.04;letter357;0.05;0.07;fullmask;0.2;arrow_right.png;m;0.32433820000005653;0.33014689999981783;9121.234075;2.4000000848900527e-06;0.5021787999994558;0.5422137999994447;0.5535335000004125;0.6242944000005082;0.7539465000008931;1.0825392000006104;0;0;1;0;0.01
4;1;4;38;letter181;letter357;incongruent;0.04;letter181;0.05;0.07;fullmask;0.2;arrow_right.png;m;0.32318320000013046;0.33013089999985823;9122.9139767;2.4000000848900527e-06;0.5020447999995667;0.5420274000007339;0.553378700000394;0.6241468999996869;0.7537960000008752;1.0824068000001716;0;0;1;0;0.01
4;1;4;39;letter181;letter357;incongruent;0.04;letter357;0.05;0.07;fullmask;0.2;arrow_left.png;c;0.24403429999983928;0.25028670000028796;9124.5059901;2.599999788799323e-06;0.4961351999991166;0.5361493999989762;0.5475595000007161;0.6182367999990674;0.7478903999999602;0.9964634000007209;0;0;1;0;0.01
4;1;4;40;letter181;letter357;congruent;0.04;letter357;0.05;0.07;fullmask;0.2;arrow_right.png;m;0.30096749999938766;0.30992629999855126;9126.1540984;2.4000000848900527e-06;0.49595550000049116;0.5359743000008166;0.547543400001814;0.6171418000012636;0.7477065000002767;1.0563125000007858;0;0;1;0;0.01
4;1;4;41;letter181;letter357;congruent;0.04;letter357;0.05;0.07;fullmask;0.2;arrow_right.png;c;0.17001220000020112;0.17055830000026617;9127.6740081;2.4000000848900527e-06;0.4954087000005529;0.5353809000007459;0.5467669000008755;0.616493100000298;0.7173262000014802;0.7173283000010997;0;1;0;0;0.01
4;1;4;42;letter181;letter357;congruent;0.04;letter181;0.05;0.07;fullmask;0.2;arrow_left.png;c;0.29098440000052506;0.3002148000014131;9129.1061608;2.4000000848900527e-06;0.4954297999993287;0.5354455999986385;0.5471502000000328;0.6168192999994062;0.7474664999990637;1.0457731999995303;0;0;1;0;0.01
4;1;4;43;letter181;letter357;incongruent;0.04;letter181;0.05;0.07;fullmask;0.2;arrow_right.png;m;0.24960430000101042;0.2502478999995219;9130.7060285;2.6000016077887267e-06;0.4985121000008803;0.5385304999999789;0.5504388000008476;0.620111000000179;0.7507610000011482;0.9988368000012997;0;0;1;0;0.01
4;1;4;44;letter181;letter357;congruent;0.04;letter357;0.05;0.07;fullmask;0.2;arrow_right.png;m;0.3530007999997906;0.3611015000005864;9132.4099899;2.4000000848900527e-06;0.5022934000007808;0.5422933000008925;0.5537549000000581;0.6235778000009304;0.7542243000007147;0.8838812000012695;0;0;0;1;0.01
4;1;4;45;letter181;letter357;congruent;0.04;letter181;0.05;0.07;fullmask;0.2;arrow_left.png;c;0.300296100000196;0.31009129999984;9133.8581049;2.4000000848900527e-06;0.5021298000010574;0.5421436000015092;0.5534317000001465;0.6241091000010783;0.7537614000011672;1.062477100000251;0;0;1;0;0.01
4;1;4;46;letter181;letter357;congruent;0.04;letter181;0.05;0.07;fullmask;0.2;arrow_left.png;c;0.3086595999993733;0.3101861999984976;9135.5379868;2.5000008463393897e-06;0.5017547000006743;0.5417838000012125;0.5535214000010455;0.6232951000001776;0.7539443000005122;1.0621198999997432;0;0;1;0;0.01
4;1;4;47;letter181;letter357;congruent;0.04;letter357;0.05;0.07;fullmask;0.2;arrow_right.png;m;0.2714534000006097;0.28034200000001874;9137.1619386;2.899998435168527e-06;0.5014320999998745;0.5414585999988049;0.553288999999495;0.6231964999988122;0.7527586999985942;1.031807999999728;0;0;1;0;0.01
4;1;4;48;letter181;letter357;incongruent;0.04;letter181;0.05;0.07;fullmask;0.2;arrow_right.png;m;0.37671469999986584;0.3810348000006343;9138.8980335;2.499999027349986e-06;0.49628929999926186;0.5363102999999683;0.5479236999999557;0.617614799999501;0.7482522999998764;0.8779266000001371;0;0;0;1;0.01
4;1;5;1;letter181;letter357;incongruent;0.04;letter357;0.05;0.07;fullmask;0.2;arrow_left.png;c;0.3209176000000298;0.3302055999993172;9144.5459955;2.4000000848900527e-06;0.500892300000487;0.5409073999999237;0.5526194000012765;0.6227128999998968;0.7531164000010904;1.0812607999996544;0;0;1;0;0.01
4;1;5;2;letter181;letter357;incongruent;0.04;letter181;0.05;0.07;fullmask;0.2;arrow_right.png;c;0.25011170000107086;0.2504080000016984;9146.1461268;2.4000000848900527e-06;0.4980868999991799;0.538118200000099;0.5496874000000389;0.6194520999997621;0.7500125999995362;0.9984249999997701;0;0;1;0;0.01
4;1;5;3;letter181;letter357;congruent;0.04;letter357;0.05;0.07;fullmask;0.2;arrow_right.png;m;0.2748162999996566;0.2801268000002892;9147.762014;2.599999788799323e-06;0.49622350000026927;0.5362397000008059;0.547986999999921;0.6176178000005166;0.7482710000003863;1.026567500000965;0;0;1;0;0.01
4;1;5;4;letter181;letter357;congruent;0.04;letter357;0.05;0.07;fullmask;0.2;arrow_right.png;m;0.3322347000012087;0.3411005000016303;9149.4500076;2.4000000848900527e-06;0.5045964000000822;0.5446248999996897;0.5558796000004804;0.6266460999995616;0.7562985000004119;0.8859533000013471;0;0;0;1;0.01
4;1;5;5;letter181;letter357;incongruent;0.04;letter357;0.05;0.07;fullmask;0.2;arrow_left.png;c;0.28261449999990873;0.2901483999994525;9150.8819809;2.5000008463393897e-06;0.5005922000000282;0.5406185000010737;0.5525173000005452;0.6222023000009358;0.7528493000008893;1.040930600000138;0;0;1;0;0.01
4;1;5;6;letter181;letter357;congruent;0.04;letter181;0.05;0.07;fullmask;0.2;arrow_left.png;m;0.24955210000007355;0.2603512999994564;9152.4900412;2.499999027349986e-06;0.5024259999991045;0.5424531999997271;0.5544004999992467;0.6243244999986928;0.7538550999997824;1.0127242999988084;0;0;1;0;0.01
4;1;5;7;letter181;letter357;incongruent;0.04;letter181;0.05;0.07;fullmask;0.2;arrow_right.png;m;0.34456150000005437;0.34998649999943154;9154.1859752;2.4000000848900527e-06;0.5025697000000946;0.5425970000014786;0.5544628000006924;0.6242261000006692;0.7547924999998941;0.8844459000010829;0;0;0;1;0.01
4;1;5;8;letter181;letter357;congruent;0.04;letter181;0.05;0.07;fullmask;0.2;arrow_left.png;c;0.30027719999998226;0.31023280000044906;9155.6420471;2.4000000848900527e-06;0.5026364000004833;0.5426762999995844;0.5539214000000356;0.6238238999994792;0.7543893000001844;1.063018999999258;0;0;1;0;0.01
4;1;5;9;letter181;letter357;congruent;0.04;letter181;0.05;0.07;fullmask;0.2;arrow_left.png;m;0.3032659999989846;0.3103125999987242;9157.3063661;2.499999027349986e-06;0.5050231999994139;0.5450646999997844;0.5565654000001814;0.6262208999996801;0.7568881999995938;1.0653722999995807;0;0;1;0;0.01
4;1;5;10;letter181;letter357;incongruent;0.04;letter181;0.05;0.07;fullmask;0.2;arrow_right.png;m;0.2839382000001933;0.2901091000003362;9158.9379753;2.5000008463393897e-06;0.4978045999996539;0.5378261000005296;0.5492204000001948;0.6198538999997254;0.7495115000001533;1.0381491000007372;0;0;1;0;0.01
4;1;5;11;letter181;letter357;congruent;0.04;letter357;0.05;0.07;fullmask;0.2;arrow_right.png;m;0.3384184999995341;0.3401393999993161;9160.6339818;2.5000008463393897e-06;0.49605089999931806;0.5360657000001083;0.5479359000000841;0.6178357000007964;0.7473936999995203;0.8780430999995588;0;0;0;1;0.01
4;1;5;12;letter181;letter357;incongruent;0.04;letter357;0.05;0.07;fullmask;0.2;arrow_left.png;c;0.29807979999895906;0.3011200999990251;9162.0739824;2.499999027349986e-06;0.4954741000001377;0.5355067999989842;0.5467675999989297;0.6174429000002419;0.747096999999485;1.0458684999994148;0;0;1;0;0.01
4;1;5;13;letter181;letter357;incongruent;0.04;letter181;0.05;0.07;fullmask;0.2;arrow_right.png;m;0.3164240999994945;0.3201807999994344;9163.7541005;2.4000000848900527e-06;0.5049488000004203;0.5449757000005775;0.5569358000011562;0.6267067000007955;0.7563604000006308;1.0753008000010595;0;0;1;0;0.01
4;1;5;14;letter181;letter357;congruent;0.04;letter357;0.05;0.07;fullmask;0.2;arrow_right.png;m;0.24710469999990892;0.249293699998816;9165.3459758;2.499999027349986e-06;0.5005240999998932;0.5405510000000504;0.5526425999996718;0.6224142999999458;0.7519792999992205;1.0008414999992965;0;0;1;0;0.01
4;1;5;15;letter181;letter357;congruent;0.04;letter181;0.05;0.07;fullmask;0.2;arrow_left.png;c;0.16882110000005923;0.17060500000116008;9166.8580627;2.5000008463393897e-06;0.5000440000003437;0.5400617000013881;0.5515003000000434;0.6213132000011683;0.7221061000000191;0.7221090000002732;0;1;0;0;0.01
4;1;5;16;letter181;letter357;incongruent;0.04;letter181;0.05;0.07;fullmask;0.2;arrow_right.png;m;0.28976569999940693;0.2902819000009913;9168.2899993;2.4000000848900527e-06;0.4966358000001492;0.5366761000004772;0.5482544999995298;0.6181599999999889;0.7487203999990015;1.036997799999881;0;0;1;0;0.01
4;1;5;17;letter181;letter357;incongruent;0.04;letter181;0.05;0.07;fullmask;0.2;arrow_right.png;m;0.29045550000046205;0.30025279999972554;9169.921977;2.4000000848900527e-06;0.5006544000007125;0.5406705000004877;0.5525154999995721;0.6225799999992887;0.7519816999993054;1.0510138000008737;0;0;1;0;0.01
4;1;5;18;letter181;letter357;incongruent;0.04;letter357;0.05;0.07;fullmask;0.2;arrow_left.png;m;0.24753590000000258;0.2503911000003427;9171.5299973;2.7999994927085936e-06;0.504183799999737;0.5442058999997244;0.5559245999993436;0.625829499998872;0.756394399999408;1.0045152000002417;0;0;1;0;0.01
4;1;5;19;letter181;letter357;incongruent;0.04;letter357;0.05;0.07;fullmask;0.2;arrow_left.png;c;0.22462529999938852;0.23057800000060524;9173.0981263;2.4000000848900527e-06;0.5016789999990579;0.5417228999995132;0.5534623999992618;0.6233536999989155;0.7539318999988609;0.9820080999998027;0;0;1;0;0.01
4;1;5;20;letter181;letter357;congruent;0.04;letter357;0.05;0.07;fullmask;0.2;arrow_right.png;m;0.283740900000339;0.2902360999996745;9174.7381367;2.3000011424301192e-06;0.4975656999995408;0.5375819000000774;0.5492083000008279;0.6188481000008323;0.7495091000000684;1.0379167999999481;0;0;1;0;0.01
4;1;5;21;letter181;letter357;congruent;0.04;letter357;0.05;0.07;fullmask;0.2;arrow_right.png;m;0.20414569999957166;0.20935459999964223;9176.2899659;2.5000008463393897e-06;0.49642880000101286;0.5364650000010442;0.5484467000005679;0.6182012999997823;0.747769600000538;0.9567251000007673;0;0;1;0;0.01
4;1;5;22;letter181;letter357;congruent;0.04;letter181;0.05;0.07;fullmask;0.2;arrow_left.png;c;0.2937301000001753;0.3001162000000477;9177.9300067;2.499999027349986e-06;0.4975513999997929;0.537575199999992;0.549026299999241;0.6196973999994952;0.7493500000000495;1.047911399999066;0;0;1;0;0.01
4;1;5;23;letter181;letter357;congruent;0.04;letter181;0.05;0.07;fullmask;0.2;arrow_left.png;c;0.2107412999994267;0.22047380000003614;9179.4979749;2.599999788799323e-06;0.5048031000005722;0.5448292000000947;0.5561785999998392;0.6260818999999174;0.7566478000007919;0.9751138999999966;0;0;1;0;0.01
4;1;5;24;letter181;letter357;incongruent;0.04;letter357;0.05;0.07;fullmask;0.2;arrow_left.png;m;0.2814081999986229;0.29034759999922244;9181.1301737;2.2999993234407157e-06;0.49719030000051134;0.5372029000009206;0.5490853999999672;0.6188591000009183;0.7485109999997803;1.037529799999902;0;0;1;0;0.01
4;1;5;25;letter181;letter357;incongruent;0.04;letter357;0.05;0.07;fullmask;0.2;arrow_left.png;c;0.31047140000009676;0.32032040000012785;9182.8101988;2.4000000848900527e-06;0.5013815999991493;0.5414024999990943;0.5531816999991861;0.623082299998714;0.7526469999993424;1.0717439999989438;0;0;1;0;0.01
4;1;5;26;letter181;letter357;congruent;0.04;letter181;0.05;0.07;fullmask;0.2;arrow_left.png;c;0.32985160000134783;0.33114650000061374;9184.4901903;2.599999788799323e-06;0.5006573999999091;0.5406895000014629;0.5520027000002301;0.6227668000010453;0.7523332000000664;1.081029099999796;0;0;1;0;0.01
4;1;5;27;letter181;letter357;congruent;0.04;letter357;0.05;0.07;fullmask;0.2;arrow_right.png;m;0.28243689999908383;0.29014399999869056;9186.1139248;2.4000000848900527e-06;0.4983225999985734;0.5383413999988989;0.5497390999989875;0.6204123999996227;0.7500655000003462;1.0386627999996563;0;0;1;0;0.01
4;1;5;28;letter181;letter357;incongruent;0.04;letter357;0.05;0.07;fullmask;0.2;arrow_left.png;c;0.2735065000015311;0.2802640000008978;9187.7459658;2.5000008463393897e-06;0.5022877999999764;0.5423267999995005;0.5536197000001266;0.6243895999996312;0.75404300000082;1.0326189999996132;0;0;1;0;0.01
4;1;5;29;letter181;letter357;incongruent;0.04;letter357;0.05;0.07;fullmask;0.2;arrow_left.png;m;0.2924694000012096;0.3001175000008516;9189.3859642;2.5000008463393897e-06;0.5006188999996084;0.5406438000009075;0.5519555999999284;0.6226196000006894;0.7522705999999744;1.0509860000001936;0;0;1;0;0.01
4;1;5;30;letter181;letter357;incongruent;0.04;letter181;0.05;0.07;fullmask;0.2;arrow_right.png;m;0.3233479999998963;0.3300350999998045;9191.0579689;2.4000000848900527e-06;0.4978172999999515;0.5378469000006589;0.5492264999993495;0.6198966000010842;0.7495450000005803;1.078196599999501;0;0;1;0;0.01
4;1;5;31;letter181;letter357;incongruent;0.04;letter181;0.05;0.07;fullmask;0.2;arrow_right.png;m;0.33815729999878386;0.3402507999999216;9192.7540772;2.5000008463393897e-06;0.49558780000006664;0.5356167999998434;0.5472129000008863;0.6171162999999069;0.747674600001119;0.8773302999998123;0;0;0;1;0.01
4;1;5;32;letter181;letter357;incongruent;0.04;letter181;0.05;0.07;fullmask;0.2;arrow_right.png;m;0.3186939999995957;0.3200688999986596;9194.2259314;2.4000000848900527e-06;0.49820350000118196;0.5382306000010431;0.5501834999995481;0.6198643000006996;0.7495200000012119;1.0685664000011457;0;0;1;0;0.01
4;1;5;33;letter181;letter357;congruent;0.04;letter181;0.05;0.07;fullmask;0.2;arrow_left.png;c;0.36599939999905473;0.37002269999902637;9195.9540009;2.499999027349986e-06;0.503663499999675;0.5436801999985619;0.5553341999984696;0.625103799999124;0.755754199999501;0.8854076999996323;0;0;0;1;0.01
4;1;5;34;letter181;letter357;congruent;0.04;letter181;0.05;0.07;fullmask;0.2;arrow_left.png;c;0.3027683000000252;0.31018679999942833;9197.4020079;2.4000000848900527e-06;0.5012137000012444;0.5412389000011899;0.5531504999999015;0.6229237000006833;0.7525767000006454;1.0615783000012016;0;0;1;0;0.01
4;1;5;35;letter181;letter357;congruent;0.04;letter357;0.05;0.07;fullmask;0.2;arrow_right.png;c;0.2982178999991447;0.30019029999857594;9199.0579695;2.4000000848900527e-06;0.4972795999983646;0.5373014999986481;0.5486630999985209;0.619432899999083;0.748980099999244;1.0476369999996678;0;0;1;0;0.01
4;1;5;36;letter181;letter357;congruent;0.04;letter357;0.05;0.07;fullmask;0.2;arrow_right.png;m;0.08674429999882705;0.08992609999950218;9200.4980432;2.4000000848900527e-06;0.5029850999999326;0.543009399998482;0.5548566999987088;0.6247580999988713;0.6447835999988456;0.6447857999992266;0;1;0;0;0.01
4;1;5;37;letter181;letter357;incongruent;0.04;letter181;0.05;0.07;fullmask;0.2;arrow_right.png;c;0.29407499999979336;0.3003571000008378;9201.9461371;2.5000008463393897e-06;0.49945950000073935;0.5394816000007268;0.5512995999997656;0.6212090000008175;0.7507679000009375;1.0498368999997183;0;0;1;0;0.01
4;1;5;38;letter181;letter357;incongruent;0.04;letter357;0.05;0.07;fullmask;0.2;arrow_left.png;c;0.19526279999990948;0.20062340000004042;9203.4981285;2.499999027349986e-06;0.5009255999993911;0.5409507999993366;0.5525072999989789;0.622413900000538;0.7531378999992739;0.7531447000001208;0;1;0;0;0.01
4;1;5;39;letter181;letter357;congruent;0.04;letter181;0.05;0.07;fullmask;0.2;arrow_left.png;c;0.22849309999946854;0.23042279999936;9204.8820765;2.4000000848900527e-06;0.50434050000149;0.5443475000010949;0.5557534000017768;0.62646020000102;0.756091600000218;0.9846283000006224;0;0;1;0;0.01
4;1;5;40;letter181;letter357;congruent;0.04;letter181;0.05;0.07;fullmask;0.2;arrow_left.png;c;0.2808186000002024;0.2902916999992158;9206.5059514;2.599999788799323e-06;0.4962244999987888;0.536242799998945;0.5481897999998182;0.6182616999994934;0.7476678999992146;1.0365722999995342;0;0;1;0;0.01
4;1;5;41;letter181;letter357;incongruent;0.04;letter181;0.05;0.07;fullmask;0.2;arrow_right.png;c;0.27355589999933727;0.2792644000001019;9208.1299504;2.3000011424301192e-06;0.4961954999998852;0.5362147000014374;0.5483659000001353;0.6181405000006635;0.7477926000010484;1.0265240999997332;0;0;1;0;0.01
4;1;5;42;letter181;letter357;congruent;0.04;letter357;0.05;0.07;fullmask;0.2;arrow_right.png;m;0.26649299999917275;0.2692857999991247;9209.7540113;2.5000008463393897e-06;0.5019396000006964;0.5419696000008116;0.5541917999998986;0.6232125999995333;0.7536044999997102;1.0222584000002826;0;0;1;0;0.01
4;1;5;43;letter181;letter357;incongruent;0.04;letter357;0.05;0.07;fullmask;0.2;arrow_left.png;c;0.2801533000001655;0.2902536000001419;9211.3781973;2.5000008463393897e-06;0.49723719999929017;0.5372602999996161;0.5489887000003364;0.6189319999994041;0.7493223000001308;1.037580700000035;0;0;1;0;0.01
4;1;5;44;letter181;letter357;incongruent;0.04;letter357;0.05;0.07;fullmask;0.2;arrow_left.png;m;0.21740569999928994;0.22043719999965106;9212.9461368;2.4000000848900527e-06;0.4965877999984514;0.5366045999999187;0.5479805999984819;0.6186577999997098;0.7482492999988608;0.9668924999987212;0;0;1;0;0.01
4;1;5;45;letter181;letter357;congruent;0.04;letter357;0.05;0.07;fullmask;0.2;arrow_right.png;m;0.25546249999933934;0.25936770000043907;9214.5459134;2.5000008463393897e-06;0.4957591999991564;0.5357915999993565;0.5478688000002876;0.6177767999997741;0.7473398000001907;1.0060850999998365;0;0;1;0;0.01
4;1;5;46;letter181;letter357;incongruent;0.04;letter181;0.05;0.07;fullmask;0.2;arrow_right.png;m;0.3170659000006708;0.32014820000040345;9216.2180451;2.499999027349986e-06;0.49929989999873214;0.539306900000156;0.5508926999991672;0.6205515000001469;0.7511986999998044;1.069649600000048;0;0;1;0;0.01
4;1;5;47;letter181;letter357;congruent;0.04;letter181;0.05;0.07;fullmask;0.2;arrow_left.png;c;0.27036230000157957;0.2802621000009822;9217.8420373;2.5000008463393897e-06;0.4960374000002048;0.5360916000008729;0.5472764000005554;0.6180533000006108;0.7476968999999372;1.0263907999997173;0;0;1;0;0.01
4;1;5;48;letter181;letter357;congruent;0.04;letter357;0.05;0.07;fullmask;0.2;arrow_right.png;m;0.24859509999987495;0.2502591000011307;9219.4419152;2.499999027349986e-06;0.5019745999998122;0.5420061000004353;0.5538133999998536;0.6235858999989432;0.7542407999990246;1.0023008999996819;0;0;1;0;0.01
4;2;12;1;letter169;letter190;incongruent;0.04;letter190;0.09;0.07;fullmask;0.2;arrow_left.png;m;0.23014779999903112;0.23950890000014624;10184.7937147;2.599999788799323e-06;0.4988984999999957;0.5389187999990099;0.5910313999993377;0.6608278999992763;0.7904806999995344;1.0292415999992954;0;0;1;0;0.01
4;2;12;2;letter169;letter190;incongruent;0.04;letter169;0.09;0.07;fullmask;0.2;arrow_right.png;m;0.3037217999990389;0.3101886000004015;10186.4974935;2.4000000848900527e-06;0.5040460999989591;0.5440760000001319;0.5953311999983271;0.6661007999991853;0.7957556000001205;1.1044300999983534;0;0;1;0;0.01
4;2;12;3;letter169;letter190;congruent;0.04;letter169;0.09;0.07;fullmask;0.2;arrow_left.png;c;0.2840689000004204;0.2901454000002559;10188.1694872;2.5000008463393897e-06;0.49745140000050014;0.5374470000006113;0.5892785000014555;0.6589579999999842;0.7896042000011221;1.0778168000015285;0;0;1;0;0.01
4;2;12;4;letter169;letter190;congruent;0.04;letter169;0.09;0.07;fullmask;0.2;arrow_left.png;c;0.31522489999952086;0.32007530000009865;10189.881491;2.3000011424301192e-06;0.5039933000007295;0.5440149000005476;0.5956083000000945;0.6652916000002733;0.7959441000002698;1.1144001000011485;0;0;1;0;0.01
4;2;12;5;letter169;letter190;congruent;0.04;letter169;0.09;0.07;fullmask;0.2;arrow_left.png;c;0.20215180000013788;0.21047419999922568;10191.489647;2.70000055024866e-06;0.5004501000003074;0.5404748000000836;0.592188200000237;0.6618565999997372;0.7925207999996928;1.000778600000558;0;0;1;0;0.01
4;2;12;6;letter169;letter190;congruent;0.04;letter190;0.09;0.07;fullmask;0.2;arrow_right.png;m;0.23271980000026815;0.23942079999869748;10193.1215229;2.499999027349986e-06;0.5011847999994643;0.5412269999997079;0.5931952999999339;0.663011299999198;0.7926656999989063;1.0315379999992729;0;0;1;0;0.01
4;2;12;7;letter169;letter190;incongruent;0.04;letter169;0.09;0.07;fullmask;0.2;arrow_right.png;m;0.28042420000019774;0.29035209999892686;10194.8097524;2.4000000848900527e-06;0.49813480000011623;0.5381663000007393;0.5896216000001004;0.6593975000014325;0.7900583000009647;1.0785171000006812;0;0;1;0;0.01
4;2;12;8;letter169;letter190;incongruent;0.04;letter169;0.09;0.07;fullmask;0.2;arrow_right.png;c;0.2626632999999856;0.2702034000012645;10196.4734777;2.4000000848900527e-06;0.5024892000001273;0.5425119000010454;0.5943822999997792;0.6641512000005605;0.7947163000008004;1.0628670999994938;0;0;1;0;0.01
4;2;12;9;letter169;letter190;congruent;0.04;letter190;0.09;0.07;fullmask;0.2;arrow_right.png;m;0.2513306000000739;0.26023069999973814;10198.1134779;2.4000000848900527e-06;0.5009795000005397;0.5409956999992573;0.5931426999995892;0.6628211000006559;0.7924812000001111;1.0513315999996848;0;0;1;0;0.01
4;2;12;10;letter169;letter190;incongruent;0.04;letter190;0.09;0.07;fullmask;0.2;arrow_left.png;m;0.2410607000001619;0.2503390000001673;10199.7535219;2.4000000848900527e-06;0.49851739999940037;0.5385369999985414;0.5899338999988686;0.6606981999993877;0.7903551999988849;1.0388664999991306;0;0;1;0;0.01
4;2;12;11;letter169;letter190;congruent;0.04;letter190;0.09;0.07;fullmask;0.2;arrow_right.png;m;0.24201499999981024;0.25025690000074974;10201.3854837;2.5000008463393897e-06;0.5007024000005913;0.5407486000003701;0.5920775000013236;0.6620065000006434;0.7924106000009488;1.0410425000009127;0;0;1;0;0.01
4;2;12;12;letter169;letter190;incongruent;0.04;letter190;0.09;0.07;fullmask;0.2;arrow_left.png;m;0.2712152000003698;0.28129160000025877;10203.0656729;2.3000011424301192e-06;0.502045299999736;0.542060700001457;0.5933500000010099;0.6640158000009251;0.7936879999997473;1.0724086000009265;0;0;1;0;0.01
4;2;12;13;letter169;letter190;incongruent;0.04;letter190;0.09;0.07;fullmask;0.2;arrow_left.png;m;0.24775959999897168;0.25034059999961755;10204.713488;2.5000008463393897e-06;0.4966076000000612;0.5366329999997106;0.5881167000006826;0.6578855999996449;0.7885354000009102;1.0369581000013568;0;0;1;0;0.01
4;2;12;14;letter169;letter190;incongruent;0.04;letter169;0.09;0.07;fullmask;0.2;arrow_right.png;m;0.28660889999991923;0.2902834000014991;10206.3935486;2.5000008463393897e-06;0.5048329000001104;0.5448630999999295;0.5964956000007078;0.6664000000000669;0.7969615000001795;1.085203200000251;0;0;1;0;0.01
4;2;12;15;letter169;letter190;incongruent;0.04;letter169;0.09;0.07;fullmask;0.2;arrow_right.png;m;0.3116300000001502;0.32020550000015646;10208.089488;2.4000000848900527e-06;0.4951244999992923;0.5351377999995748;0.5866172000005463;0.6564323999991757;0.7870848000002297;1.105510499999582;0;0;1;0;0.01
4;2;12;16;letter169;letter190;congruent;0.04;letter169;0.09;0.07;fullmask;0.2;arrow_left.png;m;0.24846010000146634;0.2504757000006066;10209.7375482;2.4000000848900527e-06;0.49843589999909454;0.5384562999988702;0.5900727999996889;0.6598445999989053;0.7905095999994955;1.0387802999994165;0;0;1;0;0.01
4;2;12;17;letter169;letter190;incongruent;0.04;letter190;0.09;0.07;fullmask;0.2;arrow_left.png;c;0.46494610000081593;0.46967790000053355;10211.5854789;2.4000000848900527e-06;0.49539870000080555;0.5354311000010057;0.5874434000015754;0.6571295000012469;0.7867895000017597;0.9174491000012495;0;0;0;1;0.01
4;2;12;18;letter169;letter190;congruent;0.04;letter169;0.09;0.07;fullmask;0.2;arrow_left.png;c;0.2945970999990095;0.3002567999992607;10213.0654829;2.4000000848900527e-06;0.4990311000001384;0.5390537000002951;0.5903598999993847;0.6611720999990212;0.7908577999987756;1.0894057000004977;0;0;1;0;0.01
4;2;12;19;letter169;letter190;congruent;0.04;letter190;0.09;0.07;fullmask;0.2;arrow_right.png;m;0.2533806999999797;0.26024040000083914;10214.7054897;2.9000002541579306e-06;0.49652880000030564;0.5365598999997019;0.5880025999995269;0.6577754999998433;0.788425400000051;1.0468882999994094;0;0;1;0;0.01
4;2;12;20;letter169;letter190;congruent;0.04;letter190;0.09;0.07;fullmask;0.2;arrow_right.png;m;0.2597163999998884;0.26022120000016;10216.3535091;2.5000008463393897e-06;0.49628690000099596;0.5363169000011112;0.5883940000003349;0.6583172999999078;0.7877241999995022;1.0466417000006913;0;0;1;0;0.01
4;2;12;21;letter169;letter190;congruent;0.04;letter190;0.09;0.07;fullmask;0.2;arrow_right.png;m;0.561560100000861;0.5709661000000779;10218.3058641;2.4000000848900527e-06;0.5042203000011796;0.5442464000007021;0.5957796000002418;0.6655519000014465;0.7962134999997943;0.9258738000007725;0;0;0;1;0.01
4;2;12;22;letter169;letter190;incongruent;0.04;letter169;0.09;0.07;fullmask;0.2;arrow_right.png;c;0.24993309999990743;0.25035660000139615;10219.7456037;2.499999027349986e-06;0.49884190000011586;0.5388741999995545;0.5906508999996731;0.6605557000002591;0.7911182000007102;1.0391980999993393;0;0;1;0;0.01
4;2;12;23;letter169;letter190;incongruent;0.04;letter190;0.09;0.07;fullmask;0.2;arrow_left.png;m;0.2266087999996671;0.22944490000008955;10221.3535239;2.5000008463393897e-06;0.49637190000066767;0.536383399999977;0.5883604000009655;0.6582588000001124;0.787827300000572;1.0166984000006778;0;0;1;0;0.01
4;2;12;24;letter169;letter190;congruent;0.04;letter169;0.09;0.07;fullmask;0.2;arrow_left.png;c;0.2980912000002718;0.300096000000849;10223.0254771;2.499999027349986e-06;0.4961024999993242;0.5361227999983385;0.5875354999989213;0.6581879999994271;0.7878418000000238;1.0864763999998104;0;0;1;0;0.01
4;2;12;25;letter169;letter190;incongruent;0.04;letter169;0.09;0.07;fullmask;0.2;arrow_right.png;m;0.33640050000030897;0.3401037000003271;10224.7454669;2.4000000848900527e-06;0.4938299999994342;0.5338542999998026;0.5858578999996098;0.655631400000857;0.7852827000006073;0.9159343999999692;0;0;0;1;0.01
4;2;12;26;letter169;letter190;congruent;0.04;letter190;0.09;0.07;fullmask;0.2;arrow_right.png;m;0.2803340999998909;0.29038580000087677;10226.2096369;2.4000000848900527e-06;0.49957200000062585;0.5395960999994713;0.5908751999995729;0.6616871000005631;0.7913386000000173;1.0799404000008508;0;0;1;0;0.01
4;2;12;27;letter169;letter190;congruent;0.04;letter190;0.09;0.07;fullmask;0.2;arrow_right.png;c;0.15067329999874346;0.16058429999975488;10227.761475;2.4000000848900527e-06;0.503914299999451;0.5439311999998608;0.5956129000005603;0.6653845000000729;0.7561982000006537;0.7562001000005694;0;1;0;0;0.01
4;2;12;28;letter169;letter190;incongruent;0.04;letter190;0.09;0.07;fullmask;0.2;arrow_left.png;c;0.6334558999988076;0.6402204999994865;10229.5854632;2.4000000848900527e-06;0.5022005999999237;0.5422003999992739;0.5942281999996339;0.6639149999991787;0.7935614999987592;0.924212299998544;0;0;0;1;0.01
4;2;12;29;letter169;letter190;congruent;0.04;letter190;0.09;0.07;fullmask;0.2;arrow_right.png;m;0.30306449999989127;0.31107649999830755;10231.0655079;2.4000000848900527e-06;0.49792639999941457;0.537948499999402;0.589261400000396;0.6599225000009028;0.7895755000008648;1.0983238999997411;0;0;1;0;0.01
4;2;12;30;letter169;letter190;incongruent;0.04;letter169;0.09;0.07;fullmask;0.2;arrow_right.png;m;0.33717410000099335;0.34024809999937133;10232.8015661;2.4000000848900527e-06;0.5022281000001385;0.5422463999984757;0.5944129999988945;0.6642072999984521;0.7938825000001088;0.9245338000000629;0;0;0;1;0.01
4;2;12;31;letter169;letter190;incongruent;0.04;letter190;0.09;0.07;fullmask;0.2;arrow_left.png;c;0.296767900001214;0.30020320000039646;10234.2815604;2.4000000848900527e-06;0.49719399999958114;0.5370302999999694;0.5886074999998527;0.6592824999988807;0.7889402999990125;1.0873878999991575;0;0;1;0;0.01
4;2;12;32;letter169;letter190;congruent;0.04;letter190;0.09;0.07;fullmask;0.2;arrow_right.png;m;0.24528680000003078;0.25034790000063367;10235.9215037;2.4000000848900527e-06;0.5035074000006716;0.5435195999998541;0.595457899999019;0.6652319000004354;0.7948861000004399;1.0438629999989644;0;0;1;0;0.01
4;2;12;33;letter169;letter190;congruent;0.04;letter169;0.09;0.07;fullmask;0.2;arrow_left.png;c;0.35393110000040906;0.36010000000169384;10237.6814626;2.499999027349986e-06;0.5022250999991229;0.5422803000001295;0.5944658999997046;0.6635683000004065;0.7939334000002418;0.92458649999935;0;0;0;1;0.01
4;2;12;34;letter169;letter190;congruent;0.04;letter169;0.09;0.07;fullmask;0.2;arrow_left.png;c;0.3654733999992459;0.37002559999928053;10239.2334985;2.499999027349986e-06;0.5035678000003827;0.543594499999017;0.5952796999990824;0.6650503999990178;0.7957033999991836;0.9253582999990613;0;0;0;1;0.01
4;2;12;35;letter169;letter190;congruent;0.04;letter169;0.09;0.07;fullmask;0.2;arrow_left.png;c;0.29444729999886476;0.30035270000007586;10240.7136595;2.4000000848900527e-06;0.4965721000007761;0.5366142000002583;0.5884744000013598;0.6583716000004642;0.7879373000014311;1.0869571000002907;0;0;1;0;0.01
4;2;12;36;letter169;letter190;congruent;0.04;letter169;0.09;0.07;fullmask;0.2;arrow_left.png;c;0.1891286999998556;0.18933130000004894;10242.2895015;2.4000000848900527e-06;0.5019548000000214;0.5419899999997142;0.5939481000004889;0.6637133999993239;0.783278999999311;0.7832811000007496;0;1;0;0;0.01
4;2;12;37;letter169;letter190;incongruent;0.04;letter169;0.09;0.07;fullmask;0.2;arrow_right.png;m;0.28486960000009276;0.2902643999987049;10243.7455879;2.4000000848900527e-06;0.49523129999943194;0.535233499998867;0.5866649999989022;0.6573539000000892;0.7869926000003034;1.0755878999989363;0;0;1;0;0.01
4;2;12;38;letter169;letter190;congruent;0.04;letter190;0.09;0.07;fullmask;0.2;arrow_right.png;m;0.22702879999997094;0.23030829999879643;10245.3694264;2.5000008463393897e-06;0.5042279999997845;0.5442774000002828;0.596298399999796;0.666230099999666;0.7956412000003183;1.0245696000001772;0;0;1;0;0.01
4;2;12;39;letter169;letter190;incongruent;0.04;letter190;0.09;0.07;fullmask;0.2;arrow_left.png;m;0.23270430000047782;0.24036990000058722;10246.9854582;2.4000000848900527e-06;0.4952885000002425;0.535305999999764;0.5866624999998749;0.6574357999998028;0.7870856999998068;1.0256215999997949;0;0;1;0;0.01
4;2;12;40;letter169;letter190;incongruent;0.04;letter190;0.09;0.07;fullmask;0.2;arrow_left.png;c;0.28765240000029735;0.2902841000013723;10248.6814528;2.4000000848900527e-06;0.5016323999989254;0.5416590000004362;0.5930076000004192;0.6629063999989739;0.7934746999999334;1.0820086999992782;0;0;1;0;0.01
4;2;12;41;letter169;letter190;incongruent;0.04;letter169;0.09;0.07;fullmask;0.2;arrow_right.png;m;0.36845520000133547;0.3700241000005917;10250.4334629;2.5000008463393897e-06;0.4997784999995929;0.5397993999995379;0.5912816000000021;0.6610519999994722;0.791713599999639;0.9213570000010805;0;0;0;1;0.01
4;2;12;42;letter169;letter190;incongruent;0.04;letter190;0.09;0.07;fullmask;0.2;arrow_left.png;m;0.3412740000003396;0.35022310000022117;10251.9776383;2.499999027349986e-06;0.5048494000002393;0.544871799998873;0.5967008999996324;0.6666011999986949;0.7971626999988075;0.9268183000003773;0;0;0;1;0.01
4;2;12;43;letter169;letter190;congruent;0.04;letter169;0.09;0.07;fullmask;0.2;arrow_left.png;c;0.2904439000012644;0.30015070000081323;10253.4574876;2.5000008463393897e-06;0.5020707000003313;0.5420740999998088;0.5935994999999821;0.6633634999998321;0.793928600000072;1.0924245000005612;0;0;1;0;0.01
4;2;12;44;letter169;letter190;incongruent;0.04;letter169;0.09;0.07;fullmask;0.2;arrow_right.png;m;0.38281649999953515;0.3898788999995304;10255.2415334;2.5000008463393897e-06;0.5038494000000355;0.5438625999995566;0.5959696999998414;0.6656478000004427;0.7952999999997701;0.9259534000011627;0;0;0;1;0.01
4;2;12;45;letter169;letter190;congruent;0.04;letter169;0.09;0.07;fullmask;0.2;arrow_left.png;c;0.290072700001474;0.29020170000148937;10256.7294954;2.4000000848900527e-06;0.4986938000001828;0.5387226000002556;0.5905032999999094;0.6605474999996659;0.7909605000004376;1.0790551000009145;0;0;1;0;0.01
4;2;12;46;letter169;letter190;congruent;0.04;letter190;0.09;0.07;fullmask;0.2;arrow_right.png;m;0.24338849999912782;0.25050179999925604;10258.3538976;2.3000011424301192e-06;0.5032201000012719;0.5432381000009627;0.5950600000014674;0.6648246000004292;0.7953870000001189;1.0435741000001144;0;0;1;0;0.01
4;2;12;47;letter169;letter190;incongruent;0.04;letter169;0.09;0.07;fullmask;0.2;arrow_right.png;c;0.21049029999994673;0.22035069999947154;10259.9615677;2.4000000848900527e-06;0.4950998000003892;0.5351277999998274;0.5864627999999357;0.6571297999998933;0.7868087000006199;1.0054333999996743;0;0;1;0;0.01
4;2;12;48;letter169;letter190;incongruent;0.04;letter190;0.09;0.07;fullmask;0.2;arrow_left.png;m;0.2749076000000059;0.2802360999994562;10261.6174537;2.4000000848900527e-06;0.49531719999868074;0.535327800000232;0.5870998999998847;0.6568420000003243;0.7874949999986711;1.065665699999954;0;0;1;0;0.01
4;2;13;1;letter169;letter190;congruent;0.04;letter190;0.09;0.07;fullmask;0.2;arrow_right.png;m;0.3567698000006203;0.36014020000038727;10283.6334508;2.499999027349986e-06;0.4967703000002075;0.5367793999994319;0.588614399999642;0.6585556999998516;0.7881276000007347;0.9187770999997156;0;0;0;1;0.01
4;2;13;2;letter169;letter190;congruent;0.04;letter169;0.09;0.07;fullmask;0.2;arrow_left.png;c;0.3117335999995703;0.3201597999996011;10285.1294492;2.4000000848900527e-06;0.4959733000014239;0.5359936000004382;0.5878728000006959;0.6576449000003777;0.787298400000509;1.1063719000012497;0;0;1;0;0.01
4;2;13;3;letter169;letter190;incongruent;0.04;letter169;0.09;0.07;fullmask;0.2;arrow_right.png;m;0.2612149999986286;0.2703527999983635;10286.7696272;2.4000000848900527e-06;0.4959359000004042;0.5359533000009833;0.5874516000003496;0.6572156000001996;0.7877777000012429;1.056299100000615;0;0;1;0;0.01
4;2;13;4;letter169;letter190;congruent;0.04;letter190;0.09;0.07;fullmask;0.2;arrow_right.png;m;0.271815100000822;0.2802651000001788;10288.4414453;2.4000000848900527e-06;0.499268800000209;0.5392909000001964;0.5909355000003416;0.6607081000001926;0.7913604999994277;1.069650699999329;0;0;1;0;0.01
4;2;13;5;letter169;letter190;incongruent;0.04;letter190;0.09;0.07;fullmask;0.2;arrow_left.png;c;0.3127518000001146;0.3201908999999432;10290.1535016;2.2999993234407157e-06;0.5045670999988943;0.5445923999996012;0.596278799999709;0.6659767000001011;0.7966258999986167;1.114954900000157;0;0;1;0;0.01
4;2;13;6;letter169;letter190;incongruent;0.04;letter169;0.09;0.07;fullmask;0.2;arrow_right.png;m;0.25926959999924293;0.2602263999997376;10291.8014807;2.5000008463393897e-06;0.5040089000012813;0.5440287000001263;0.5960805000013352;0.6657592000010482;0.7954136000007566;1.0543568000011874;0;0;1;0;0.01
4;2;13;7;letter169;letter190;congruent;0.04;letter190;0.09;0.07;fullmask;0.2;arrow_right.png;m;0.2490440999990824;0.2503426999992371;10293.4414719;2.5000008463393897e-06;0.5005633000000671;0.5405332000009366;0.5917919000003167;0.662561099999948;0.7922163000002911;1.0409080999997968;0;0;1;0;0.01
4;2;13;8;letter169;letter190;incongruent;0.04;letter169;0.09;0.07;fullmask;0.2;arrow_right.png;m;0.24963609999940672;0.250344000000041;10295.0734359;2.4000000848900527e-06;0.4959837000005791;0.5359975000010309;0.5875389000011637;0.6573112000005494;0.7879599000007147;1.0363234000014927;0;0;1;0;0.01
4;2;13;9;letter169;letter190;congruent;0.04;letter169;0.09;0.07;fullmask;0.2;arrow_left.png;m;0.2747598999994807;0.2803082999998878;10296.7294384;2.4000000848900527e-06;0.493576299999404;0.5336100999993505;0.5849643000001379;0.6550289999995584;0.7854306999997789;1.063940800000637;0;0;1;0;0.01
4;2;13;10;letter169;letter190;incongruent;0.04;letter190;0.09;0.07;fullmask;0.2;arrow_left.png;m;0.2614383000000089;0.27020470000024943;10298.3774295;2.4000000848900527e-06;0.5035846999999194;0.5435985000003711;0.5952211000003444;0.6649045000012848;0.7955691000006482;1.063938600000256;0;0;1;0;0.01
4;2;13;11;letter169;letter190;incongruent;0.04;letter190;0.09;0.07;fullmask;0.2;arrow_left.png;m;0.3066952000008314;0.31119070000022475;10300.0734833;2.4000000848900527e-06;0.4998672000001534;0.53988340000069;0.591248300001098;0.6619222000008449;0.7915766000005533;1.1002751000014541;0;0;1;0;0.01
4;2;13;12;letter169;letter190;congruent;0.04;letter169;0.09;0.07;fullmask;0.2;arrow_left.png;c;0.3109856999999465;0.32002450000072713;10301.769422;2.2999993234407157e-06;0.4974908999993204;0.5375077999997302;0.5894265999995696;0.6591478999998799;0.7897173999990628;1.1078848999986803;0;0;1;0;0.01
4;2;13;13;letter169;letter190;incongruent;0.04;letter190;0.09;0.07;fullmask;0.2;arrow_left.png;c;0.3061735999999655;0.31018519999997807;10303.4654365;2.4000000848900527e-06;0.49730909999925643;0.5373268999992433;0.5889814000001934;0.6587603999996645;0.7894063999992795;1.0977089999996679;0;0;1;0;0.01
4;2;13;14;letter169;letter190;congruent;0.04;letter169;0.09;0.07;fullmask;0.2;arrow_left.png;c;0.27089949999935925;0.2803104999984498;10305.1214958;2.5000008463393897e-06;0.49725110000144923;0.5372705000008864;0.5891653000016959;0.6590687000007165;0.7886346000013873;1.0676210000001447;0;0;1;0;0.01
4;2;13;15;letter169;letter190;congruent;0.04;letter190;0.09;0.07;fullmask;0.2;arrow_right.png;m;0.24829359999966982;0.25049269999908574;10306.7695134;2.2999993234407157e-06;0.4978802999994514;0.5378985999996075;0.5893464000000677;0.6592471999992995;0.7898279999990336;1.0382157000003644;0;0;1;0;0.01
4;2;13;16;letter169;letter190;incongruent;0.04;letter169;0.09;0.07;fullmask;0.2;arrow_right.png;c;0.3024877000007109;0.3101864000000205;10308.465435;2.499999027349986e-06;0.49896500000068045;0.5389940999993996;0.591115199998967;0.6608701000004658;0.790536799999245;1.0993569000002026;0;0;1;0;0.01
4;2;13;17;letter169;letter190;congruent;0.04;letter169;0.09;0.07;fullmask;0.2;arrow_left.png;c;0.273800900000424;0.2802601000003051;10310.1374933;2.4000000848900527e-06;0.5032030000002123;0.5432514999993145;0.5950052999996842;0.6647725999991962;0.7954239999999118;1.073576700000558;0;0;1;0;0.01
4;2;13;18;letter169;letter190;incongruent;0.04;letter169;0.09;0.07;fullmask;0.2;arrow_right.png;c;0.30877719999989495;0.31010000000060245;10311.833449;2.399998265900649e-06;0.4978698999984772;0.5378951999991841;0.5895905999987008;0.6593561999998201;0.7899244999989605;1.0982610999999451;0;0;1;0;0.01
4;2;13;19;letter169;letter190;incongruent;0.04;letter169;0.09;0.07;fullmask;0.2;arrow_right.png;m;0.2658865000012156;0.27028940000127477;10313.4814614;2.399998265900649e-06;0.502424999998766;0.5424462999999378;0.5939560999995592;0.6637235999987752;0.7943750999984331;1.0627843999991455;0;0;1;0;0.01
4;2;13;20;letter169;letter190;congruent;0.04;letter169;0.09;0.07;fullmask;0.2;arrow_left.png;m;0.26051449999977194;0.27042509999955655;10315.1376211;2.4000000848900527e-06;0.4981489000001602;0.5381649999999354;0.5901225000015984;0.6601725000000442;0.7895782000014151;1.0584974000012153;0;0;1;0;0.01
4;2;13;21;letter169;letter190;congruent;0.04;letter190;0.09;0.07;fullmask;0.2;arrow_right.png;m;0.21543910000036703;0.22053939999932481;10316.7535136;2.5000008463393897e-06;0.49840690000019094;0.5384143000010226;0.5902824999993754;0.6600703999993129;0.7907204999992246;1.0087103999994724;0;0;1;0;0.01
4;2;13;22;letter169;letter190;incongruent;0.04;letter190;0.09;0.07;fullmask;0.2;arrow_left.png;c;0.2924159000012878;0.30021210000086285;10318.4414238;2.499999027349986e-06;0.5049390000003768;0.5449568999993062;0.5967213999992964;0.6664956999993592;0.797144299998763;1.0953160999997635;0;0;1;0;0.01
4;2;13;23;letter169;letter190;incongruent;0.04;letter190;0.09;0.07;fullmask;0.2;arrow_left.png;m;0.18504899999970803;0.18950340000083088;10320.025467;2.499999027349986e-06;0.5020152999986749;0.5420519999988755;0.5941433999996661;0.6639103999987128;0.7836477999990166;0.7836497999996936;0;1;0;0;0.01
4;2;13;24;letter169;letter190;congruent;0.04;letter190;0.09;0.07;fullmask;0.2;arrow_right.png;m;0.302464799999143;0.3100899000000936;10321.5134341;2.4000000848900527e-06;0.497482000000673;0.5375028000016755;0.5892696000009892;0.6589440000007016;0.7895981000001484;1.097865300000194;0;0;1;0;0.01
4;2;13;25;letter169;letter190;congruent;0.04;letter190;0.09;0.07;fullmask;0.2;arrow_right.png;m;0.2494408000002295;0.250494300000355;10323.1615686;2.499999027349986e-06;0.50313129999995;0.5431625999990501;0.5949848000000202;0.6648989999994228;0.7944501000001765;1.0434917000002315;0;0;1;0;0.01
4;2;13;26;letter169;letter190;incongruent;0.04;letter169;0.09;0.07;fullmask;0.2;arrow_right.png;m;0.33804459999919345;0.340114700000413;10324.8814522;2.5000008463393897e-06;0.4980118000003131;0.5380378000008932;0.5900959999999031;0.6598622000001342;0.789426999999705;0.9200172000000748;0;0;0;1;0.01
4;2;13;27;letter169;letter190;incongruent;0.04;letter169;0.09;0.07;fullmask;0.2;arrow_right.png;m;0.28164550000110466;0.29014680000000226;10326.3454791;2.499999027349986e-06;0.5004974999992555;0.5405246999998781;0.5920397999998386;0.6622145999990607;0.7923680999992939;1.0808735999999044;0;0;1;0;0.01
4;2;13;28;letter169;letter190;incongruent;0.04;letter190;0.09;0.07;fullmask;0.2;arrow_left.png;c;0.2368744000013976;0.2403797000006307;10327.9615071;2.4000000848900527e-06;0.49753400000008696;0.5375495000007504;0.5888061000005109;0.6595653000003949;0.7891276999998809;1.027863299999808;0;0;1;0;0.01
4;2;13;29;letter169;letter190;incongruent;0.04;letter190;0.09;0.07;fullmask;0.2;arrow_left.png;m;0.2934965000004013;0.3002128999996785;10329.649453;2.200000380980782e-06;0.5049722000003385;0.5450030000010884;0.5965085000007093;0.6662845999999263;0.7969312999994145;1.0953423000009934;0;0;1;0;0.01
4;2;13;30;letter169;letter190;congruent;0.04;letter169;0.09;0.07;fullmask;0.2;arrow_left.png;c;0.14074479999908363;0.15051619999940158;10331.1774238;2.399998265900649e-06;0.49918759999854956;0.5391993999983242;0.5903744999995979;0.6610466999991331;0.7408898999983649;0.7408918999990419;0;1;0;0;0.01
4;2;13;31;letter169;letter190;congruent;0.04;letter190;0.09;0.07;fullmask;0.2;arrow_right.png;m;0.3133073000008153;0.32006689999980154;10332.6814267;2.5000008463393897e-06;0.4985594999998284;0.5385961000010866;0.5903379000010318;0.6600142000006599;0.7906672000008257;1.108967100000882;0;0;1;0;0.01
4;2;13;32;letter169;letter190;congruent;0.04;letter169;0.09;0.07;fullmask;0.2;arrow_left.png;c;0.32262139999875217;0.33031649999975343;10334.4020135;2.599999788799323e-06;0.4990606999999727;0.5390914999989036;0.5910162000000128;0.6606887999987521;0.7903454999996029;1.1194563999997627;0;0;1;0;0.01
4;2;13;33;letter169;letter190;congruent;0.04;letter169;0.09;0.07;fullmask;0.2;arrow_left.png;c;0.2989562000002479;0.30028479999964475;10336.0894845;2.4000000848900527e-06;0.49858320000021195;0.5386146000000736;0.59056579999924;0.6604659000004176;0.7900284999996074;1.0889623000002757;0;0;1;0;0.01
4;2;13;34;letter169;letter190;congruent;0.04;letter190;0.09;0.07;fullmask;0.2;arrow_right.png;m;0.24984440000116592;0.2502992000008817;10337.7214535;2.2999993234407157e-06;0.4950802000003023;0.5350983000007545;0.5870773000006011;0.6568420999992668;0.7864974000003713;1.0354406000005838;0;0;1;0;0.01
4;2;13;35;letter169;letter190;incongruent;0.04;letter190;0.09;0.07;fullmask;0.2;arrow_left.png;m;0.2865527000012662;0.28924000000006345;10339.409427;2.4000000848900527e-06;0.4992775000009715;0.5392975000013394;0.5914677000000665;0.6612433999998757;0.7908932999998797;1.0796397000012803;0;0;1;0;0.01
4;2;13;36;letter169;letter190;incongruent;0.04;letter169;0.09;0.07;fullmask;0.2;arrow_right.png;c;0.17396980000012263;0.1805772000006982;10340.9774217;2.4000000848900527e-06;0.4981626000007964;0.5381945999997697;0.5898610000003828;0.659759899999699;0.7704374000004464;0.7704396999997698;0;1;0;0;0.01
4;2;13;37;letter169;letter190;incongruent;0.04;letter190;0.09;0.07;fullmask;0.2;arrow_left.png;c;0.283472700000857;0.29035509999994247;10342.4576159;2.4000000848900527e-06;0.5035268999999971;0.5435516999987158;0.5950326999991375;0.6648050999992847;0.7954632999990281;1.0839200999998866;0;0;1;0;0.01
4;2;13;38;letter169;letter190;incongruent;0.04;letter169;0.09;0.07;fullmask;0.2;arrow_right.png;c;0.21788779999951657;0.22046530000079656;10344.0734234;2.499999027349986e-06;0.5003983999995398;0.5404149999994843;0.5922059000004083;0.6622638999997434;0.7926497000007657;1.0107191000006424;0;0;1;0;0.01
4;2;13;39;letter169;letter190;congruent;0.04;letter190;0.09;0.07;fullmask;0.2;arrow_right.png;m;0.2566136999994342;0.2602265000004991;10345.7134292;2.499999027349986e-06;0.4963606000001164;0.5363705999989179;0.5884120999999141;0.6580931999997119;0.7877429999989545;1.0467023000001063;0;0;1;0;0.01
4;2;13;40;letter169;letter190;congruent;0.04;letter169;0.09;0.07;fullmask;0.2;arrow_left.png;m;0.276152300000831;0.2802652999998827;10347.3934203;2.4000000848900527e-06;0.5025121999988187;0.542526999999609;0.5939601999998558;0.6637308999997913;0.79438189999928;1.072877200000221;0;0;1;0;0.01
4;2;13;41;letter169;letter190;congruent;0.04;letter169;0.09;0.07;fullmask;0.2;arrow_left.png;c;0.3027039999997214;0.31009699999958684;10349.0814135;2.4000000848900527e-06;0.4943413999990298;0.5343518999998196;0.5861697000000277;0.6558538999997836;0.7865019000000757;1.0947178000005806;0;0;1;0;0.01
4;2;13;42;letter169;letter190;congruent;0.04;letter169;0.09;0.07;fullmask;0.2;arrow_left.png;m;0.26008229999933974;0.26037969999924826;10350.7295865;2.399998265900649e-06;0.4987718999982462;0.5387849999988248;0.59031369999866;0.6600821999982145;0.790636199999426;1.0491299999994226;0;0;1;0;0.01
4;2;13;43;letter169;letter190;incongruent;0.04;letter169;0.09;0.07;fullmask;0.2;arrow_right.png;c;0.2823134999998729;0.290144100001271;10352.3934244;2.4000000848900527e-06;0.49771359999976994;0.5377322000003915;0.5898027000002912;0.659479800000554;0.7891333000006853;1.0780978000002506;0;0;1;0;0.01
4;2;13;44;letter169;letter190;incongruent;0.04;letter169;0.09;0.07;fullmask;0.2;arrow_right.png;c;0.20941599999969185;0.21034829999916838;10354.0014727;2.2999993234407157e-06;0.5040295999988302;0.5440536999994947;0.5959945999984484;0.6657477999997354;0.7963105999988329;1.0043562999999267;0;0;1;0;0.01
4;2;13;45;letter169;letter190;congruent;0.04;letter190;0.09;0.07;fullmask;0.2;arrow_right.png;m;0.2647352999993018;0.27029509999920265;10355.6574238;2.5000008463393897e-06;0.5009147000000667;0.5409388000007311;0.5924850999999762;0.6622613000017736;0.7929130000011355;1.0612966000007873;0;0;1;0;0.01
4;2;13;46;letter169;letter190;congruent;0.04;letter190;0.09;0.07;fullmask;0.2;arrow_right.png;m;0.2915508000005502;0.30027919999884034;10357.3456096;2.4000000848900527e-06;0.4987545999993017;0.5387933000001794;0.5906173999992461;0.6603892000002816;0.7900432000005821;1.0891233999991528;0;0;1;0;0.01
4;2;13;47;letter169;letter190;incongruent;0.04;letter190;0.09;0.07;fullmask;0.2;arrow_left.png;c;0.3065046000010625;0.3100958000013634;10359.0414201;2.3000011424301192e-06;0.49751130000004196;0.5375358000001142;0.5891633999999613;0.6589323000007425;0.7894744000004721;1.097912900000665;0;0;1;0;0.01
4;2;13;48;letter169;letter190;incongruent;0.04;letter190;0.09;0.07;fullmask;0.2;arrow_left.png;c;0.2799866999994265;0.28127409999979136;10360.7055306;2.3000011424301192e-06;0.4972042999997939;0.5372239000007539;0.5883908000014344;0.6591567000014038;0.788716300001397;1.0675852000003943;0;0;1;0;0.01
subjnr;loop_m;blocknr;trialnr;cue_left_learn;cue_right_learn; congruence;cue_dur;cue;SOA;mask_dur;mask;target_dur;target;response;RT;kb_rt;response_absolute; fix_onset;cue_onset;cue_offset;mask_onset;mask_offset;target_offset;blank_onset;response_during_mask;response_during_targetalone;response_during_RW;response_during_blank;frame_dur
