subjnr;loop_m;blocknr;trialnr;cue_left_learn;cue_right_learn; congruence;cue_dur;cue;SOA;mask_dur;mask;target_dur;target;response;RT;kb_rt;response_absolute; fix_onset;cue_onset;cue_offset;mask_onset;mask_offset;target_offset;blank_onset;response_during_mask;response_during_targetalone;response_during_RW;response_during_blank;frame_dur
3;1;4;1;letter169;letter190;congruent;0.04;letter169;0.05;0.07;fullmask;0.2;arrow_left.png;c;0.3309546999998929;0.3412767999998323;5196.5398643;2.4000000848900527e-06;0.5039819000003263;0.5440088000004835;0.5552437000005739;0.6260543000007601;0.7557027000002563;0.885352100000091;0;0;0;1;0.01
3;1;4;2;letter169;letter190;congruent;0.04;letter169;0.05;0.07;fullmask;0.2;arrow_left.png;c;0.2554803000002721;0.26038270000026387;5197.9559443;2.4000000848900527e-06;0.5028235999998287;0.5428404000003866;0.5546714000001884;0.6245767000000342;0.7541479000001345;1.0131463999996413;0;0;1;0;0.01
3;1;4;3;letter169;letter190;incongruent;0.04;letter169;0.05;0.07;fullmask;0.2;arrow_right.png;m;0.3451457000001028;0.3511130000006233;5199.6759838;2.3000002329354174e-06;0.5044117000006736;0.5444321000004493;0.5555848000003607;0.6263634000006277;0.7560210999999981;0.8866807000003973;0;0;0;1;0.01
3;1;4;4;letter169;letter190;incongruent;0.04;letter190;0.05;0.07;fullmask;0.2;arrow_left.png;m;0.3577832999999373;0.36009759999978996;5201.179892;2.4000000848900527e-06;0.49507249999987835;0.5351166000000376;0.5465760999995837;0.6164793999996618;0.7470433999997113;0.8766943999999057;0;0;0;1;0.01
3;1;4;5;letter169;letter190;incongruent;0.04;letter190;0.05;0.07;fullmask;0.2;arrow_left.png;m;0.2542585000001054;0.2603473999997732;5202.587835;2.499999936844688e-06;0.5027594999992289;0.5427842999997665;0.5547492999994574;0.624636599999576;0.754201099999591;1.0130888999992749;0;0;1;0;0.01
3;1;4;6;letter169;letter190;incongruent;0.04;letter190;0.05;0.07;fullmask;0.2;arrow_left.png;c;0.3635849000002054;0.3699411000006876;5204.3078465;2.4000000848900527e-06;0.5041672000006656;0.5441882000004625;0.5558125000006839;0.6255833000004714;0.7561475000002247;0.8858026000007158;0;0;0;1;0.01
3;1;4;7;letter169;letter190;congruent;0.04;letter190;0.05;0.07;fullmask;0.2;arrow_right.png;m;0.2749826999997822;0.28025830000024143;5205.7398576;2.4000000848900527e-06;0.5033854000002975;0.5434113999999681;0.5546637999996165;0.625434800000221;0.7550874999997177;1.0337447000001703;0;0;1;0;0.01
3;1;4;8;letter169;letter190;congruent;0.04;letter190;0.05;0.07;fullmask;0.2;arrow_right.png;m;0.2998876999999993;0.3001090000007025;5207.3959349;2.4000000848900527e-06;0.49727340000026743;0.5372872999996616;0.5486775999997917;0.6193507999996655;0.7490059000001565;1.047628799999984;0;0;1;0;0.01
3;1;4;9;letter169;letter190;incongruent;0.04;letter169;0.05;0.07;fullmask;0.2;arrow_right.png;m;0.26642830000037065;0.2703381999999692;5209.0039063;2.499999936844688e-06;0.4989880000002813;0.5389986999998655;0.5507668000000194;0.6208364000003712;0.7512354000000414;1.019319699999869;0;0;1;0;0.01
3;1;4;10;letter169;letter190;congruent;0.04;letter190;0.05;0.07;fullmask;0.2;arrow_right.png;m;0.2871953999992911;0.2901274999994712;5210.6358562;2.499999936844688e-06;0.5019169000006514;0.5419353000006595;0.5538326000005327;0.6234911999999895;0.7541387999999642;1.042478200000005;0;0;1;0;0.01
3;1;4;11;letter169;letter190;congruent;0.04;letter169;0.05;0.07;fullmask;0.2;arrow_left.png;c;0.30205709999972896;0.31023740000000544;5212.2918451;2.499999936844688e-06;0.5034881999999925;0.5435121999998955;0.5554906000006667;0.6254085999999006;0.7549619999999777;1.0638578000007328;0;0;1;0;0.01
3;1;4;12;letter169;letter190;incongruent;0.04;letter169;0.05;0.07;fullmask;0.2;arrow_right.png;m;0.24139560000003257;0.2504410999999891;5213.8920967;2.499999936844688e-06;0.5035030999997616;0.5435291000003417;0.5553337999999712;0.6251111999999921;0.7547617999998693;1.0038186000001588;0;0;1;0;0.01
3;1;4;13;letter169;letter190;incongruent;0.04;letter190;0.05;0.07;fullmask;0.2;arrow_left.png;c;0.2458414000002449;0.24948180000046705;5215.5079248;2.4000000848900527e-06;0.5017307999996774;0.541776199999731;0.5539187999993374;0.6238143999999011;0.7533730999994077;1.0020395000001372;0;0;1;0;0.01
3;1;4;14;letter169;letter190;congruent;0.04;letter190;0.05;0.07;fullmask;0.2;arrow_right.png;m;0.2077844000004916;0.21049579999998969;5217.0999029;2.4000000848900527e-06;0.5038085000005594;0.5438247000001866;0.5549683999997796;0.6258708000004845;0.7554354000003514;0.9640879999997196;0;0;1;0;0.01
3;1;4;15;letter169;letter190;congruent;0.04;letter190;0.05;0.07;fullmask;0.2;arrow_right.png;c;0.21625359999961802;0.22033359999932145;5218.6598813;2.499999936844688e-06;0.49573249999957625;0.5357605999997759;0.5474396999998135;0.6171212999997806;0.7477692000002207;0.966056899999785;0;0;1;0;0.01
3;1;4;16;letter169;letter190;incongruent;0.04;letter190;0.05;0.07;fullmask;0.2;arrow_left.png;c;0.3577269999996133;0.36114159999942785;5220.371886;2.499999936844688e-06;0.4990040999991834;0.5390499999994063;0.5502460999996401;0.6210169999994832;0.7507643999997526;0.8804167999996935;0;0;0;1;0.01
3;1;4;17;letter169;letter190;incongruent;0.04;letter190;0.05;0.07;fullmask;0.2;arrow_left.png;m;0.24633869999979652;0.2502529000003051;5221.7718446;2.4000000848900527e-06;0.5027650000001813;0.5427903999998307;0.5543514999999388;0.6240333000005194;0.7546818999999232;1.0030736999997316;0;0;1;0;0.01
3;1;4;18;letter169;letter190;incongruent;0.04;letter169;0.05;0.07;fullmask;0.2;arrow_right.png;m;0.29351609999957873;0.3004798000001756;5223.4203327;2.499999936844688e-06;0.5049579000005906;0.5449665000005552;0.5568309999998746;0.6267367000000377;0.7572946000000229;1.0553066000002218;0;0;1;0;0.01
3;1;4;19;letter169;letter190;congruent;0.04;letter190;0.05;0.07;fullmask;0.2;arrow_right.png;m;0.3319424999999683;0.34001079999961803;5225.099851;2.499999936844688e-06;0.49587330000031216;0.5358729999998104;0.547768299999916;0.6175332000002527;0.7480972000003021;0.8777509000001373;0;0;0;1;0.01
3;1;4;20;letter169;letter190;congruent;0.04;letter169;0.05;0.07;fullmask;0.2;arrow_left.png;c;0.3372987999991892;0.34013899999990826;5226.5958501;2.600000698294025e-06;0.4958124000004318;0.5358096999998452;0.5473859000003358;0.6172819000003074;0.7478416000003563;0.8774950000006356;0;0;0;1;0.01
3;1;4;21;letter169;letter190;congruent;0.04;letter169;0.05;0.07;fullmask;0.2;arrow_left.png;c;0.31995550000010553;0.3300773000000845;5228.05989;3.000000106112566e-06;0.4987817000001087;0.5387903999999253;0.5507913999999801;0.620475699999588;0.7501220000003741;1.079137499999888;0;0;1;0;0.01
3;1;4;22;letter169;letter190;congruent;0.04;letter169;0.05;0.07;fullmask;0.2;arrow_left.png;m;0.39914020000014716;0.39996460000020306;5229.8198258;2.4000000848900527e-06;0.5015544000007139;0.5415724000004047;0.553251100000125;0.6230322000001252;0.7536896000001434;0.8833205000000817;0;0;0;1;0.01
3;1;4;23;letter169;letter190;incongruent;0.04;letter169;0.05;0.07;fullmask;0.2;arrow_right.png;m;0.2962180000004082;0.30034950000026583;5231.26796;2.4000000848900527e-06;0.4956606000005195;0.5356822000003376;0.5474272000001292;0.617292500000076;0.7478468999997858;1.0460227000003215;0;0;1;0;0.01
3;1;4;24;letter169;letter190;incongruent;0.04;letter169;0.05;0.07;fullmask;0.2;arrow_right.png;c;0.22336280000035913;0.23081430000002;5232.836147;2.599999788799323e-06;0.4965824999999313;0.5365918999996211;0.5483178000004045;0.6180014000001393;0.748645700000452;0.9768842000003133;0;0;1;0;0.01
3;1;4;25;letter169;letter190;congruent;0.04;letter169;0.05;0.07;fullmask;0.2;arrow_left.png;c;0.28228390000003856;0.29015290000006644;5234.4758441;2.499999936844688e-06;0.4965252000001783;0.5365406000000803;0.5480353000002651;0.6187377999995078;0.7483844999997018;1.036869100000331;0;0;1;0;0.01
3;1;4;26;letter169;letter190;incongruent;0.04;letter169;0.05;0.07;fullmask;0.2;arrow_right.png;m;0.2888823000002958;0.28998390000015206;5236.1238635;2.6999996407539584e-06;0.5049930000004679;0.5450122000002011;0.5568706000003658;0.6266488999999638;0.7570382000003519;1.0453524000004109;0;0;1;0;0.01
3;1;4;27;letter169;letter190;incongruent;0.04;letter169;0.05;0.07;fullmask;0.2;arrow_right.png;m;0.352154100000007;0.3600547000005463;5237.8278543;2.3000002329354174e-06;0.49628170000050886;0.5363163000001805;0.5478251000004093;0.6175987000005989;0.7482495000003837;0.8779023000006418;0;0;0;1;0.01
3;1;4;28;letter169;letter190;congruent;0.04;letter190;0.05;0.07;fullmask;0.2;arrow_right.png;m;0.30310199999985343;0.3102315999994971;5239.2999086;2.499999936844688e-06;0.5035759000002145;0.543555600000218;0.5552065000001676;0.625021700000616;0.7556727000001047;1.063887500000419;0;0;1;0;0.01
3;1;4;29;letter169;letter190;incongruent;0.04;letter190;0.05;0.07;fullmask;0.2;arrow_left.png;c;0.3061721000003672;0.31009369999992487;5240.9638322;2.4000000848900527e-06;0.5029695000002903;0.5429881999998543;0.5544372000003932;0.6251101999996536;0.7547608000004402;1.0633505000005243;0;0;1;0;0.01
3;1;4;30;letter169;letter190;congruent;0.04;letter190;0.05;0.07;fullmask;0.2;arrow_right.png;m;0.2765199000004941;0.28031819999978325;5242.5958158;2.4000000848900527e-06;0.4986460000000079;0.5386693000000378;0.550674600000093;0.6205976000001101;0.7501448000002711;1.0290177000006224;0;0;1;0;0.01
3;1;4;31;letter169;letter190;congruent;0.04;letter190;0.05;0.07;fullmask;0.2;arrow_right.png;m;0.30374490000031074;0.3102295000007871;5244.243834;2.4000000848900527e-06;0.49940740000056394;0.539440999999897;0.5511842000005345;0.6210922999998729;0.7506537999997818;1.0597584000006464;0;0;1;0;0.01
3;1;4;32;letter169;letter190;incongruent;0.04;letter190;0.05;0.07;fullmask;0.2;arrow_left.png;c;0.3244046999998318;0.3300387999997838;5245.9158281;2.499999936844688e-06;0.5004902000000584;0.5405197999998563;0.5525408000003154;0.6222206000002188;0.7518729000003077;1.0808735000000524;0;0;1;0;0.01
3;1;4;33;letter169;letter190;incongruent;0.04;letter169;0.05;0.07;fullmask;0.2;arrow_right.png;m;0.2595574000006309;0.2603625000001557;5247.5318069;2.4000000848900527e-06;0.49790980000034324;0.5379104000003281;0.5496842000002289;0.6195920000000115;0.7491534999999203;1.0082392000003892;0;0;1;0;0.01
3;1;4;34;letter169;letter190;incongruent;0.04;letter190;0.05;0.07;fullmask;0.2;arrow_left.png;c;0.23052589999952033;0.23964989999967656;5249.1240227;2.499999936844688e-06;0.5024871000005078;0.5425154000004113;0.5545013000000836;0.6244055000006483;0.7539710999999443;0.9928165999999692;0;0;1;0;0.01
3;1;4;35;letter169;letter190;congruent;0.04;letter169;0.05;0.07;fullmask;0.2;arrow_left.png;c;0.3332373000002917;0.340100600000369;5250.8278699;2.399999175395351e-06;0.4990648999992118;0.539077699999325;0.5511698999998771;0.6208672999991904;0.7505195999992793;0.8811374999995678;0;0;0;1;0.01
3;1;4;36;letter169;letter190;congruent;0.04;letter169;0.05;0.07;fullmask;0.2;arrow_left.png;c;0.24292479999985517;0.2504862999994657;5252.2278291;2.4000000848900527e-06;0.5026533999998719;0.5426637000000483;0.5540679999994609;0.6239834999996674;0.7546328999997058;1.0029771999998047;0;0;1;0;0.01
3;1;4;37;letter169;letter190;incongruent;0.04;letter190;0.05;0.07;fullmask;0.2;arrow_left.png;m;0.25163110000085;0.2604428000004191;5253.8278882;2.599999788799323e-06;0.5019573999998101;0.5419791999993322;0.5537176999996518;0.6237054999992324;0.7532674999993105;1.012301099999604;0;0;1;0;0.01
3;1;4;38;letter169;letter190;incongruent;0.04;letter190;0.05;0.07;fullmask;0.2;arrow_left.png;c;0.36083380000036414;0.3700717000001532;5255.5478657;2.4000000848900527e-06;0.4988892000001215;0.5389068000004045;0.5503829999997834;0.6202887999997984;0.7508513000002495;0.8805061000002752;0;0;0;1;0.01
3;1;4;39;letter169;letter190;congruent;0.04;letter190;0.05;0.07;fullmask;0.2;arrow_right.png;c;37.774045600000136;37.77419980000013;5294.4918718;2.499999936844688e-06;0.5016679000000295;0.5416874000002281;0.5529724999996688;0.6237452000004851;0.7533991999998761;0.8830550000002404;0;0;0;1;0.01
3;1;4;40;letter169;letter190;congruent;0.04;letter190;0.05;0.07;fullmask;0.2;arrow_right.png;m;5.614711399999578;5.623910299999807;5301.2678477;2.4000000848900527e-06;0.5006198999999469;0.540646100000231;0.552219299999706;0.6219528000001446;0.752596999999696;0.8822558000001663;0;0;0;1;0.01
3;1;4;41;letter169;letter190;incongruent;0.04;letter190;0.05;0.07;fullmask;0.2;arrow_left.png;c;0.3681082000002789;0.3700972000006004;5302.7958066;2.499999936844688e-06;0.49551309999969817;0.5355454999998983;0.5473327999998219;0.6173970999998346;0.7467999999998938;0.8774523000001864;0;0;0;1;0.01
3;1;4;42;letter169;letter190;congruent;0.04;letter169;0.05;0.07;fullmask;0.2;arrow_left.png;c;0.35177939999994123;0.36068619999969087;5304.2998053;2.600000698294025e-06;0.5041725999999471;0.544163400000798;0.5553239000000758;0.6259791000002224;0.7563888000004226;0.8860129000004235;0;0;0;1;0.01
3;1;4;43;letter169;letter190;congruent;0.04;letter190;0.05;0.07;fullmask;0.2;arrow_right.png;m;0.2459527999999409;0.24951319999945554;5305.7158773;2.499999936844688e-06;0.5016973000001599;0.5417164999998931;0.5537900999997873;0.6237068000000363;0.7532406999998784;1.002022399999987;0;0;1;0;0.01
3;1;4;44;letter169;letter190;incongruent;0.04;letter169;0.05;0.07;fullmask;0.2;arrow_right.png;c;0.21295809999992343;0.2194229999995514;5307.2838068;2.600000698294025e-06;0.5012353000001895;0.5412555000002612;0.5532167000001209;0.6229886000000988;0.7526416000000609;0.9715278000003309;0;0;1;0;0.01
3;1;4;45;letter169;letter190;congruent;0.04;letter169;0.05;0.07;fullmask;0.2;arrow_left.png;c;0.32206200000018725;0.3300906999993458;5308.9638473;2.499999936844688e-06;0.5040831999995135;0.5441070999995645;0.5559992999997121;0.6257381999994323;0.7553866999996899;1.0844646999994438;0;0;1;0;0.01
3;1;4;46;letter169;letter190;incongruent;0.04;letter169;0.05;0.07;fullmask;0.2;arrow_right.png;m;0.30551980000018375;0.31008159999964846;5310.6278324;2.4000000848900527e-06;0.5048305999998774;0.5448605000001407;0.5561991999993552;0.6269493999998303;0.7565206999997827;1.065190999999686;0;0;1;0;0.01
3;1;4;47;letter169;letter190;incongruent;0.04;letter169;0.05;0.07;fullmask;0.2;arrow_right.png;m;0.26803170000039245;0.270297600000049;5312.2519112;2.6999996407539584e-06;0.5010812999998961;0.5410916999999245;0.5529391000000032;0.6227030999998533;0.7532632000002195;1.021409400000266;0;0;1;0;0.01
3;1;4;48;letter169;letter190;congruent;0.04;letter169;0.05;0.07;fullmask;0.2;arrow_left.png;c;0.23942429999988235;0.2403045999999449;5313.8437945;2.499999936844688e-06;0.5012692000000243;0.5412984999993569;0.552592399999412;0.6232921999999235;0.7529433999998218;0.9915934999999081;0;0;1;0;0.01
3;1;5;1;letter169;letter190;incongruent;0.04;letter190;0.05;0.07;fullmask;0.2;arrow_left.png;c;0.34064110000053915;0.35011170000052516;5358.8439618;3.000000106112566e-06;0.496592899999996;0.5366136000002371;0.5480139999999665;0.617819099999906;0.748500800000329;0.8781202000000121;0;0;0;1;0.01
3;1;5;2;letter169;letter190;incongruent;0.04;letter190;0.05;0.07;fullmask;0.2;arrow_left.png;m;0.24728799999957118;0.2503686000000016;5360.2518504;2.4000000848900527e-06;0.5036375999998199;0.543660500000442;0.5553367000002254;0.6250178000000233;0.7556627000003573;1.0039627000005567;0;0;1;0;0.01
3;1;5;3;letter169;letter190;congruent;0.04;letter190;0.05;0.07;fullmask;0.2;arrow_right.png;m;0.34214109999993525;0.3500376000001779;5361.9477842;2.4000000848900527e-06;0.4958265000004758;0.5358728000001065;0.547582300000613;0.6173257000000376;0.7479766000005839;0.8776125000003958;0;0;0;1;0.01
3;1;5;4;letter169;letter190;incongruent;0.04;letter190;0.05;0.07;fullmask;0.2;arrow_left.png;c;0.2672188000005917;0.2702919000003021;5363.3637906;2.499999936844688e-06;0.49631460000000516;0.5363330000000133;0.5480304000002434;0.6178035000002637;0.7484492000003229;1.01664190000065;0;0;1;0;0.01
3;1;5;5;letter169;letter190;congruent;0.04;letter169;0.05;0.07;fullmask;0.2;arrow_left.png;m;0.27847010000004957;0.2803100999999515;5364.9957759;2.399999175395351e-06;0.49633779999930994;0.5363697999991928;0.5477540999991106;0.6176614999994854;0.7482210999996823;1.0266861000000063;0;0;1;0;0.01
3;1;5;6;letter169;letter190;congruent;0.04;letter190;0.05;0.07;fullmask;0.2;arrow_right.png;m;0.23726280000028055;0.24032910000005359;5366.5957786;2.399999175395351e-06;0.5013331999998627;0.5413822000000437;0.5529066999997667;0.6226389999992534;0.7532824999998411;0.9916521999994075;0;0;1;0;0.01
3;1;5;7;letter169;letter190;congruent;0.04;letter169;0.05;0.07;fullmask;0.2;arrow_left.png;c;0.30233859999952983;0.31019259999993665;5368.2517664;2.4000000848900527e-06;0.4961920999994618;0.5362249999998312;0.5476603999995859;0.6174430999999458;0.7481353000002855;1.0565611000001809;0;0;1;0;0.01
3;1;5;8;letter169;letter190;incongruent;0.04;letter169;0.05;0.07;fullmask;0.2;arrow_right.png;m;0.32283919999918;0.3301464999995005;5369.9237711;2.4000000848900527e-06;0.49773170000025857;0.5377496000000974;0.5496407000000545;0.619409199999609;0.7499464000002263;1.0781104999996387;0;0;1;0;0.01
3;1;5;9;letter169;letter190;congruent;0.04;letter169;0.05;0.07;fullmask;0.2;arrow_left.png;c;0.2802274999994552;0.2902379999995901;5371.5718775;2.4000000848900527e-06;0.5049242999994021;0.5449313999997685;0.5564337999994677;0.6262309999992794;0.7568618999994214;1.0452446999997846;0;0;1;0;0.01
3;1;5;10;letter169;letter190;incongruent;0.04;letter169;0.05;0.07;fullmask;0.2;arrow_right.png;m;0.4074270000000979;0.4109170000001541;5373.3398232;2.599999788799323e-06;0.50343089999933;0.543445199999951;0.5546560999991925;0.6254295999997339;0.7550871999992523;0.8857325999997556;0;0;0;1;0.01
3;1;5;11;letter169;letter190;incongruent;0.04;letter169;0.05;0.07;fullmask;0.2;arrow_right.png;c;0.17375110000011773;0.18043310000030033;5374.6677699;2.4000000848900527e-06;0.5037022999995315;0.5437243999995189;0.5555365999998685;0.6252934000003734;0.7359693999997035;0.7359715000002325;0;1;0;0;0.01
3;1;5;12;letter169;letter190;congruent;0.04;letter190;0.05;0.07;fullmask;0.2;arrow_right.png;m;0.42565599999943515;0.4310235000002649;5376.2599218;2.2999993234407157e-06;0.5034279999999853;0.5434532999997828;0.5546644999994896;0.6255816999992021;0.7551113999998051;0.8857803000000786;0;0;0;1;0.01
3;1;5;13;letter169;letter190;incongruent;0.04;letter169;0.05;0.07;fullmask;0.2;arrow_right.png;m;0.32378990000052;0.33013840000057826;5377.7398388;2.499999936844688e-06;0.5042401999999129;0.5442586999997729;0.556225600000289;0.6259958999999071;0.7565529000003153;1.0848237000000154;0;0;1;0;0.01
3;1;5;14;letter169;letter190;congruent;0.04;letter169;0.05;0.07;fullmask;0.2;arrow_left.png;c;0.30713980000018637;0.31018159999985073;5379.4038022;2.899999344663229e-06;0.49599189999935334;0.5360244999992574;0.5475381999995079;0.6173091999999087;0.747958899999503;1.0563734999996086;0;0;1;0;0.01
3;1;5;15;letter169;letter190;congruent;0.04;letter190;0.05;0.07;fullmask;0.2;arrow_right.png;m;0.27042789999995875;0.2802716000005603;5381.0278321;2.399999175395351e-06;0.49553979999927833;0.5355855999996493;0.546762499999204;0.6175427999996828;0.7471935999992638;1.0259002999991935;0;0;1;0;0.01
3;1;5;16;letter169;letter190;congruent;0.04;letter169;0.05;0.07;fullmask;0.2;arrow_left.png;c;0.2729688999997961;0.2803432000000612;5382.651809;2.499999936844688e-06;0.49589000000014494;0.535905300000195;0.5474813999999242;0.6174213000003874;0.7479812999999922;1.0262244000005012;0;0;1;0;0.01
3;1;5;17;letter169;letter190;incongruent;0.04;letter190;0.05;0.07;fullmask;0.2;arrow_left.png;c;0.3676282000005813;0.37005300000055286;5384.3878418;2.499999936844688e-06;0.5016519999999218;0.5416717999996763;0.5535762999998042;0.6232702999996036;0.7529087000002619;0.8835732999996253;0;0;0;1;0.01
3;1;5;18;letter169;letter190;congruent;0.04;letter190;0.05;0.07;fullmask;0.2;arrow_right.png;m;0.25712599999951635;0.2602998000002117;5385.7880036;2.4000000848900527e-06;0.4967476000001625;0.536765099999684;0.548362300000008;0.6180039000000761;0.7486515000000509;1.0070678000001863;0;0;1;0;0.01
3;1;5;19;letter169;letter190;incongruent;0.04;letter190;0.05;0.07;fullmask;0.2;arrow_left.png;c;0.3234140999993542;0.33014209999964805;5387.4757819;2.3000002329354174e-06;0.49927740000021004;0.5393389999999272;0.5513411000001724;0.6211307000003217;0.7507786000005581;1.0796518000006472;0;0;1;0;0.01
3;1;5;20;letter169;letter190;incongruent;0.04;letter190;0.05;0.07;fullmask;0.2;arrow_left.png;m;0.24249589999999444;0.250390499999412;5389.0757676;2.4000000848900527e-06;0.49770489999991696;0.5377382000006037;0.5495882000004713;0.6194964000005712;0.749058000000332;0.9980394000003798;0;0;1;0;0.01
3;1;5;21;letter169;letter190;incongruent;0.04;letter169;0.05;0.07;fullmask;0.2;arrow_right.png;m;0.29767290000017965;0.3002167000004192;5390.7318107;2.399999175395351e-06;0.5039763999993738;0.5439961999991283;0.5556952999995701;0.6254657999998017;0.7561235999992277;1.0543244999998933;0;0;1;0;0.01
3;1;5;22;letter169;letter190;incongruent;0.04;letter169;0.05;0.07;fullmask;0.2;arrow_right.png;m;0.34110099999998056;0.3500889000006282;5392.4359331;2.499999936844688e-06;0.5045287000002645;0.5445210999996561;0.5558722999994643;0.6266568999999436;0.7563042000001587;0.8859567999998035;0;0;0;1;0.01
3;1;5;23;letter169;letter190;congruent;0.04;letter190;0.05;0.07;fullmask;0.2;arrow_right.png;c;0.22394420000000537;0.23040779999973893;5393.8201411;2.599999788799323e-06;0.4980502999997043;0.5380661999997756;0.5498006999996505;0.6195785999998407;0.7501302999999098;0.9783588999998756;0;0;1;0;0.01
3;1;5;24;letter169;letter190;congruent;0.04;letter169;0.05;0.07;fullmask;0.2;arrow_left.png;c;0.3467338000000382;0.35011389999999665;5395.5237599;2.499999936844688e-06;0.5047529999992548;0.5447725999993054;0.5563046999996004;0.6260798999992403;0.7567314999996597;0.8863837999997486;0;0;0;1;0.01
3;1;5;25;letter169;letter190;congruent;0.04;letter169;0.05;0.07;fullmask;0.2;arrow_left.png;m;0.20780389999981708;0.210497299999588;5396.8758004;2.4000000848900527e-06;0.49981060000027355;0.5398428000007698;0.5513919000004535;0.6212964000005741;0.7518609000007928;0.9601768000002266;0;0;1;0;0.01
3;1;5;26;letter169;letter190;incongruent;0.04;letter169;0.05;0.07;fullmask;0.2;arrow_right.png;m;0.2647231999999349;0.2703362999991441;5398.4837684;2.499999936844688e-06;0.49668579999979556;0.5367013999994015;0.5483164999996006;0.6181308999994144;0.7487827999993897;1.0170134999998481;0;0;1;0;0.01
3;1;5;27;letter169;letter190;incongruent;0.04;letter169;0.05;0.07;fullmask;0.2;arrow_right.png;c;0.23716460000014195;0.2394057999999859;5400.067768;2.599999788799323e-06;0.49636910000026546;0.5364020000006349;0.5485108000002583;0.6184044999999969;0.7479677000001175;0.9866900000006353;0;0;1;0;0.01
3;1;5;28;letter169;letter190;incongruent;0.04;letter169;0.05;0.07;fullmask;0.2;arrow_right.png;m;2.5663235000001805;2.57106339999973;5403.9877554;2.499999936844688e-06;0.49869109999963257;0.5387055999999575;0.5506439000000682;0.6203551999997217;0.7510040999995908;0.8806576999995741;0;0;0;1;0.01
3;1;5;29;letter169;letter190;incongruent;0.04;letter190;0.05;0.07;fullmask;0.2;arrow_left.png;c;0.38816080000015063;0.3900067000004128;5405.5318097;2.499999936844688e-06;0.5008590999996159;0.5408745999993698;0.5526393000000098;0.6224204999998619;0.7530759000001126;0.8827231999994183;0;0;0;1;0.01
3;1;5;30;letter169;letter190;congruent;0.04;letter169;0.05;0.07;fullmask;0.2;arrow_left.png;c;0.35134259999995265;0.36010040000019217;5407.0357551;2.499999936844688e-06;0.4961502999994991;0.5361567999998442;0.5477010999993581;0.6176062999993519;0.7481689999995069;0.8778215999991517;0;0;0;1;0.01
3;1;5;31;letter169;letter190;incongruent;0.04;letter190;0.05;0.07;fullmask;0.2;arrow_left.png;c;0.3283392000003005;0.3301312000003236;5408.5237624;2.4000000848900527e-06;0.4966781000002811;0.5367016999998668;0.5482798000002731;0.618051700000251;0.748739999999998;1.0770538999995551;0;0;1;0;0.01
3;1;5;32;letter169;letter190;incongruent;0.04;letter190;0.05;0.07;fullmask;0.2;arrow_left.png;m;0.2953047000000879;0.300119900000027;5410.171791;2.7999994927085936e-06;0.49480319999929634;0.5348229999999603;0.5463933999999426;0.6170822999993106;0.7467392999997173;1.0451588999994783;0;0;1;0;0.01
3;1;5;33;letter169;letter190;incongruent;0.04;letter190;0.05;0.07;fullmask;0.2;arrow_left.png;m;0.27858239999932266;0.2811298999995415;5411.7957448;2.599999788799323e-06;0.4972883999998885;0.5372883000000002;0.5484832000001916;0.6191226000000825;0.748769199999515;1.0276121999995667;0;0;1;0;0.01
3;1;5;34;letter169;letter190;incongruent;0.04;letter190;0.05;0.07;fullmask;0.2;arrow_left.png;c;0.3409633000001122;0.35007730000052106;5413.4997082;2.399999175395351e-06;0.503828899999462;0.5438451999998506;0.5555587999997442;0.6253321999993204;0.7559840999992957;0.8856359999999768;0;0;0;1;0.01
3;1;5;35;letter169;letter190;congruent;0.04;letter190;0.05;0.07;fullmask;0.2;arrow_right.png;m;0.3005468999999721;0.3102279000004273;5414.9397591;2.499999936844688e-06;0.49600699999973585;0.5360329999994065;0.5472552999999607;0.618155499999375;0.7477223999994749;1.0563617999996495;0;0;1;0;0.01
3;1;5;36;letter169;letter190;congruent;0.04;letter169;0.05;0.07;fullmask;0.2;arrow_left.png;m;0.24730089999957272;0.2502513999997973;5416.547721;2.499999936844688e-06;0.5037314000001061;0.5437474999998813;0.5551262999997562;0.6258005999998204;0.755440500000077;1.0040488999993613;0;0;1;0;0.01
3;1;5;37;letter169;letter190;congruent;0.04;letter190;0.05;0.07;fullmask;0.2;arrow_right.png;m;0.2637944999996762;0.2702209999997649;5418.1559274;2.4000000848900527e-06;0.4952867000001788;0.5353090999997221;0.5473753999995097;0.6171463000000585;0.7466866999993726;1.0156210999994073;0;0;1;0;0.01
3;1;5;38;letter169;letter190;congruent;0.04;letter190;0.05;0.07;fullmask;0.2;arrow_right.png;m;0.3006894000000102;0.31009880000056;5419.8037853;2.600000698294025e-06;0.4983975000004648;0.5384180000000924;0.5504108000004635;0.6200919000002614;0.749743600000329;1.0587709999999788;0;0;1;0;0.01
3;1;5;39;letter169;letter190;incongruent;0.04;letter169;0.05;0.07;fullmask;0.2;arrow_right.png;m;0.3274695999998585;0.3301314000000275;5421.4917745;2.4000000848900527e-06;0.5016793000004327;0.5417032000004838;0.5538303000002998;0.6236085999998977;0.7532594000003883;1.0820456000001286;0;0;1;0;0.01
3;1;5;40;letter169;letter190;congruent;0.04;letter190;0.05;0.07;fullmask;0.2;arrow_right.png;m;0.2804201999997531;0.2901504000001296;5423.1157549;2.5000008463393897e-06;0.49844000000030064;0.5384659000001193;0.5505564000004597;0.6203236000001198;0.7498927000006006;1.0387863000005382;0;0;1;0;0.01
3;1;5;41;letter169;letter190;congruent;0.04;letter169;0.05;0.07;fullmask;0.2;arrow_left.png;c;0.27789560000019264;0.28040690000034374;5424.7638433;2.4000000848900527e-06;0.5034142999993492;0.5434410999996544;0.5550819999998566;0.624986999999237;0.7555449000001317;1.033798200000092;0;0;1;0;0.01
3;1;5;42;letter169;letter190;congruent;0.04;letter169;0.05;0.07;fullmask;0.2;arrow_left.png;c;0.26490389999980835;0.27033659999960946;5426.371749;2.2999993234407157e-06;0.49947029999930237;0.5395017000000735;0.5509994999993069;0.6209058999993431;0.7514668999992864;1.0198265999997602;0;0;1;0;0.01
3;1;5;43;letter169;letter190;congruent;0.04;letter169;0.05;0.07;fullmask;0.2;arrow_left.png;c;0.3337427000005846;0.3401504000003115;5428.0517464;2.600000698294025e-06;0.4968823000008342;0.5368952000007994;0.5485271000006833;0.6184322000008251;0.748995200000536;0.8786503999999695;0;0;0;1;0.01
3;1;5;44;letter169;letter190;incongruent;0.04;letter169;0.05;0.07;fullmask;0.2;arrow_right.png;c;0.22893810000005033;0.23030870000002324;5429.4277402;2.599999788799323e-06;0.49510669999926904;0.5351480999997875;0.5465980999997555;0.6162787999992361;0.7469326999998884;0.9754206999996313;0;0;1;0;0.01
3;1;5;45;letter169;letter190;congruent;0.04;letter190;0.05;0.07;fullmask;0.2;arrow_right.png;m;0.2956240000003163;0.30035360000056244;5431.0758397;2.499999936844688e-06;0.5027565999998842;0.5427698000003147;0.5546397000007346;0.6245490999999674;0.755087999999887;1.0531108000004679;0;0;1;0;0.01
3;1;5;46;letter169;letter190;incongruent;0.04;letter190;0.05;0.07;fullmask;0.2;arrow_left.png;c;0.39714400000048045;0.4009883999997328;5432.8277973;2.499999936844688e-06;0.5039916000005178;0.543996800000059;0.5552483000001303;0.6261500000000524;0.7557133000000249;0.8853705000001355;0;0;0;1;0.01
3;1;5;47;letter169;letter190;incongruent;0.04;letter169;0.05;0.07;fullmask;0.2;arrow_right.png;m;0.29143649999969057;0.3002563999998529;5434.2838744;2.499999936844688e-06;0.5015796000006958;0.5415947999999844;0.5536208000003171;0.6235262000000148;0.7530905000003258;1.0519475999999486;0;0;1;0;0.01
3;1;5;48;letter169;letter190;congruent;0.04;letter190;0.05;0.07;fullmask;0.2;arrow_right.png;m;0.304612900000393;0.3101832000002105;5435.9477525;2.499999936844688e-06;0.4955807000005734;0.5355982999999469;0.547267599999941;0.6170345999998972;0.7476848000005702;1.055935700000191;0;0;1;0;0.01
3;2;12;1;letter181;letter357;congruent;0.04;letter357;0.09;0.07;fullmask;0.2;arrow_right.png;m;0.3918789999997898;0.39998299999933806;6787.7230964;2.6999996407539584e-06;0.4998099000004004;0.5398345000003246;0.5913638000001811;0.6611703999997189;0.7918148999997356;0.9214738999999099;0;0;0;1;0.01
3;2;12;2;letter181;letter357;incongruent;0.04;letter181;0.09;0.07;fullmask;0.2;arrow_right.png;m;0.24682250000023487;0.25035269999989396;6789.1790959;2.600000698294025e-06;0.5045473000000129;0.5445661000003383;0.5961145999999644;0.6658950000000914;0.7965444999999818;1.0448940000005678;0;0;1;0;0.01
3;2;12;3;letter181;letter357;incongruent;0.04;letter181;0.09;0.07;fullmask;0.2;arrow_right.png;c;0.25133269999969343;0.2595531999995728;6790.8352728;2.499999936844688e-06;0.5002064000000246;0.540234000000055;0.5923877999994147;0.6614586999994572;0.7920162999998865;1.0505794000000606;0;0;1;0;0.01
3;2;12;4;letter181;letter357;congruent;0.04;letter181;0.09;0.07;fullmask;0.2;arrow_left.png;c;0.24644480000006297;0.25030599999990955;6792.4911132;2.599999788799323e-06;0.5012541000005513;0.5412691999999879;0.5930939999998373;0.6628332000000228;0.7934909000005064;1.0415917999998783;0;0;1;0;0.01
3;2;12;5;letter181;letter357;congruent;0.04;letter181;0.09;0.07;fullmask;0.2;arrow_left.png;c;0.287427100000059;0.2901534000002357;6794.1631294;2.4000000848900527e-06;0.4981025999995836;0.5381302999994659;0.5899361000001591;0.6596310999993875;0.7902702000001227;1.0784779999994498;0;0;1;0;0.01
3;2;12;6;letter181;letter357;congruent;0.04;letter357;0.09;0.07;fullmask;0.2;arrow_right.png;m;0.25484890000007;0.2602183999997578;6795.8110911;2.499999936844688e-06;0.5003938999998354;0.5404204999995272;0.5916855999994368;0.6624382999998488;0.7920049999993353;1.0507451999992554;0;0;1;0;0.01
3;2;12;7;letter181;letter357;incongruent;0.04;letter181;0.09;0.07;fullmask;0.2;arrow_right.png;m;0.249800999999934;0.2503714000004038;6797.4672328;2.499999936844688e-06;0.4987618000004659;0.5387791000002835;0.5901609000002281;0.6609393000007913;0.790580100000625;1.039121000000705;0;0;1;0;0.01
3;2;12;8;letter181;letter357;congruent;0.04;letter357;0.09;0.07;fullmask;0.2;arrow_right.png;m;0.28265599999940605;0.2902424999992945;6799.1312473;2.70000055024866e-06;0.4972806000005221;0.5373015000004671;0.5888000000004467;0.6585648000000219;0.7891285000005155;1.0776574999999866;0;0;1;0;0.01
3;2;12;9;letter181;letter357;congruent;0.04;letter181;0.09;0.07;fullmask;0.2;arrow_left.png;c;0.28959349999968254;0.290143000000171;6800.8191338;2.499999936844688e-06;0.5036758999995072;0.5437689000000319;0.5950745000000097;0.6657448999994813;0.7953973999992741;1.084063299999798;0;0;1;0;0.01
3;2;12;10;letter181;letter357;incongruent;0.04;letter357;0.09;0.07;fullmask;0.2;arrow_left.png;c;0.3460715999999593;0.3499865999992835;6802.5471008;2.499999936844688e-06;0.4951913000004424;0.535214200000155;0.5869999000005919;0.6566809000005378;0.7873286000003645;0.9169836999999461;0;0;0;1;0.01
3;2;12;11;letter181;letter357;incongruent;0.04;letter357;0.09;0.07;fullmask;0.2;arrow_left.png;c;0.36486689999946975;0.3699351999994178;6804.1071217;2.5000008463393897e-06;0.4990705000000162;0.5390921000007438;0.5911175000001094;0.6608867000004466;0.790452300000652;0.9211027000001195;0;0;0;1;0.01
3;2;12;12;letter181;letter357;incongruent;0.04;letter357;0.09;0.07;fullmask;0.2;arrow_left.png;c;0.25630660000024363;0.2604313000001639;6805.5791749;2.499999936844688e-06;0.50296679999974;0.5430043999995178;0.59460560000025;0.6643818000002284;0.7950273999995261;1.053342100000009;0;0;1;0;0.01
3;2;12;13;letter181;letter357;incongruent;0.04;letter357;0.09;0.07;fullmask;0.2;arrow_left.png;c;0.344802399999935;0.3501453999997466;6807.3391695;2.2999993234407157e-06;0.5001440999994884;0.5401679999995395;0.5922157999993942;0.6621234999993248;0.7916879999993398;0.9223425000000134;0;0;0;1;0.01
3;2;12;14;letter181;letter357;incongruent;0.04;letter181;0.09;0.07;fullmask;0.2;arrow_right.png;c;0.24662489999991521;0.2502783999998428;6808.7711186;2.4000000848900527e-06;0.4965740999996342;0.5365947000000233;0.5877772000003461;0.6584525999996913;0.7881078000000343;1.036915699999554;0;0;1;0;0.01
3;2;12;15;letter181;letter357;congruent;0.04;letter357;0.09;0.07;fullmask;0.2;arrow_right.png;m;0.2987638999993578;0.3002157000000807;6810.475065;2.600000698294025e-06;0.49770840000019234;0.5374804000002769;0.5894126000002871;0.6591869000003499;0.7888388999999734;1.0878224000007322;0;0;1;0;0.01
3;2;12;16;letter181;letter357;incongruent;0.04;letter357;0.09;0.07;fullmask;0.2;arrow_left.png;m;0.19828169999982492;0.20069019999937154;6812.0751116;2.499999936844688e-06;0.49862579999989975;0.5386435999998866;0.5900149999997666;0.6603107999999338;0.7907049999994342;0.7907071999998152;0;1;0;0;0.01
3;2;12;17;letter181;letter357;incongruent;0.04;letter357;0.09;0.07;fullmask;0.2;arrow_left.png;c;0.35108040000068286;0.3601148000007015;6813.6194873;2.4000000848900527e-06;0.4979625000005399;0.5379831000000195;0.5900383000007423;0.6597590000001219;0.7893672000000151;0.9200465000003533;0;0;0;1;0.01
3;2;12;18;letter181;letter357;congruent;0.04;letter181;0.09;0.07;fullmask;0.2;arrow_left.png;c;0.31045110000013665;0.3201987000002191;6815.1391886;2.599999788799323e-06;0.5034660000001168;0.5434894999998505;0.5948568000003434;0.6649280999999974;0.7953137000004062;1.1138511999997718;0;0;1;0;0.01
3;2;12;19;letter181;letter357;congruent;0.04;letter181;0.09;0.07;fullmask;0.2;arrow_left.png;c;0.33474310000019614;0.3401136000002225;6816.8750797;2.4000000848900527e-06;0.4987467999999353;0.5387575999993715;0.590633799999523;0.660297299999911;0.790948899999421;0.9206205999998929;0;0;0;1;0.01
3;2;12;20;letter181;letter357;incongruent;0.04;letter181;0.09;0.07;fullmask;0.2;arrow_right.png;m;0.2837893999994776;0.2902357999992091;6818.3550889;2.70000055024866e-06;0.5008586000003561;0.5408843000004708;0.592734400000154;0.6625152000005983;0.7921605999999883;1.0812264000005598;0;0;1;0;0.01
3;2;12;21;letter181;letter357;congruent;0.04;letter357;0.09;0.07;fullmask;0.2;arrow_right.png;m;0.28303409999989526;0.29010589999961667;6820.0351152;2.4000000848900527e-06;0.5036187000005157;0.5436413000006723;0.5952031000006173;0.6648380000006;0.7954911000006177;1.0840042999998332;0;0;1;0;0.01
3;2;12;22;letter181;letter357;congruent;0.04;letter181;0.09;0.07;fullmask;0.2;arrow_left.png;c;0.29553970000051777;0.30020320000039646;6821.7391261;2.399999175395351e-06;0.4982936999995218;0.5383098999991489;0.5902963999997155;0.6600620999997773;0.789714799999274;1.0886887999995452;0;0;1;0;0.01
3;2;12;23;letter181;letter357;incongruent;0.04;letter181;0.09;0.07;fullmask;0.2;arrow_right.png;m;0.2771357999999964;0.28031040000041685;6823.4110746;2.599999788799323e-06;0.49872750000031374;0.5387316999995164;0.5899879999997211;0.6608863000001293;0.7904548999995313;1.0690845999997691;0;0;1;0;0.01
3;2;12;24;letter181;letter357;congruent;0.04;letter357;0.09;0.07;fullmask;0.2;arrow_right.png;c;0.1500212000000829;0.15055479999955423;6824.9552104;2.4000000848900527e-06;0.4979596000002857;0.5379763999999341;0.5893992999999682;0.6591646999995646;0.739957300000242;0.7399616000002425;0;1;0;0;0.01
3;2;12;25;letter181;letter357;congruent;0.04;letter181;0.09;0.07;fullmask;0.2;arrow_left.png;c;0.3107804999999644;0.3203046999997241;6826.4672944;2.499999936844688e-06;0.5004317999992054;0.5404069999995045;0.5922927999999956;0.6621986000000106;0.7917600999999195;1.1107823999991524;0;0;1;0;0.01
3;2;12;26;letter181;letter357;congruent;0.04;letter357;0.09;0.07;fullmask;0.2;arrow_right.png;m;0.2619732000002841;0.2702920000001541;6828.139129;2.599999788799323e-06;0.5030896999996912;0.5430848999994851;0.5945118999998158;0.6642839999994976;0.7949367999999595;1.063424599999962;0;0;1;0;0.01
3;2;12;27;letter181;letter357;incongruent;0.04;letter357;0.09;0.07;fullmask;0.2;arrow_left.png;c;0.2591394000000946;0.2602223000003505;6829.787195;2.4000000848900527e-06;0.4971491000005699;0.537184800000432;0.5884239000006346;0.6590949999999793;0.7887464000004911;1.0475037000005614;0;0;1;0;0.01
3;2;12;28;letter181;letter357;incongruent;0.04;letter357;0.09;0.07;fullmask;0.2;arrow_left.png;c;0.4134045000000697;0.41993640000055166;6831.6030824;2.599999788799323e-06;0.5006608000003325;0.5406761000003826;0.5924903000004633;0.662398000000394;0.7919612000005145;0.9226114000002781;0;0;0;1;0.01
3;2;12;29;letter181;letter357;congruent;0.04;letter357;0.09;0.07;fullmask;0.2;arrow_right.png;c;0.2727401000001919;0.2802658999999039;6833.0830846;2.599999788799323e-06;0.5008195999998861;0.5408424999995987;0.5922864000003756;0.6620589000003747;0.7927006999998412;1.0712008000000424;0;0;1;0;0.01
3;2;12;30;letter181;letter357;incongruent;0.04;letter181;0.09;0.07;fullmask;0.2;arrow_right.png;m;0.25924899999972695;0.26015109999934793;6834.7310699;2.599999788799323e-06;0.4958211000002848;0.535851200000252;0.5876914999998917;0.65732509999998;0.7879892000000837;1.0461628000002747;0;0;1;0;0.01
3;2;12;31;letter181;letter357;incongruent;0.04;letter357;0.09;0.07;fullmask;0.2;arrow_left.png;c;0.2800719000006211;0.29027380000025005;6836.4033016;2.9000002541579306e-06;0.49504870000055234;0.5350575000002209;0.5872581000003265;0.6569426000005478;0.7866120999997293;1.0754271000005247;0;0;1;0;0.01
3;2;12;32;letter181;letter357;incongruent;0.04;letter181;0.09;0.07;fullmask;0.2;arrow_right.png;m;0.15107259999967937;0.1603303000001688;6837.9551198;2.499999936844688e-06;0.5032115000003614;0.5432004000003872;0.5951364000002286;0.664739499999996;0.7554662000002281;0.7554682999998477;0;1;0;0;0.01
3;2;12;33;letter181;letter357;congruent;0.04;letter357;0.09;0.07;fullmask;0.2;arrow_right.png;m;0.32047870000042167;0.3300373000001855;6839.4750769;2.4000000848900527e-06;0.5040909999997893;0.544110300000284;0.5957284000005529;0.6654926999999589;0.7960563000006005;1.1244950000000244;0;0;1;0;0.01
3;2;12;34;letter181;letter357;congruent;0.04;letter181;0.09;0.07;fullmask;0.2;arrow_left.png;c;0.303854699999647;0.31109099999957834;6841.1791284;2.499999936844688e-06;0.5049661000002743;0.5449808000003031;0.596172900000056;0.6668480999996973;0.7965088999999352;1.105367699999988;0;0;1;0;0.01
3;2;12;35;letter181;letter357;incongruent;0.04;letter181;0.09;0.07;fullmask;0.2;arrow_right.png;m;0.1464600999997856;0.1506243000003451;6842.7231733;2.4000000848900527e-06;0.5049101000004157;0.5449300999998741;0.5964579000001322;0.6671308000004501;0.7470902000004571;0.7470972999999503;0;1;0;0;0.01
3;2;12;36;letter181;letter357;congruent;0.04;letter181;0.09;0.07;fullmask;0.2;arrow_left.png;c;0.30135900000004767;0.3102193000004263;6844.2190605;2.4000000848900527e-06;0.5017028000002028;0.5417514999999185;0.5933729999997013;0.6632615999997142;0.793826899999658;1.1020760000001246;0;0;1;0;0.01
3;2;12;37;letter181;letter357;incongruent;0.04;letter181;0.09;0.07;fullmask;0.2;arrow_right.png;m;0.218268700000408;0.22033330000067508;6845.8270775;2.3000002329354174e-06;0.497069900000497;0.5370948999998291;0.5887766000005286;0.6584542000000511;0.7891060000001744;1.007399500000247;0;0;1;0;0.01
3;2;12;38;letter181;letter357;congruent;0.04;letter357;0.09;0.07;fullmask;0.2;arrow_right.png;c;0.13506170000073325;0.1396381000004112;6847.3550726;2.5000008463393897e-06;0.49948220000078436;0.539499500000602;0.5913525000005393;0.6611301000002641;0.7309920000006969;0.7309942000001683;0;1;0;0;0.01
3;2;12;39;letter181;letter357;congruent;0.04;letter181;0.09;0.07;fullmask;0.2;arrow_left.png;c;0.35680580000007467;0.3610519000003478;6848.9071937;2.4000000848900527e-06;0.4968258999997488;0.5368327999995017;0.5882129999999961;0.6588936999996804;0.7885415000000648;0.9191866999999547;0;0;0;1;0.01
3;2;12;40;letter181;letter357;congruent;0.04;letter181;0.09;0.07;fullmask;0.2;arrow_left.png;m;0.28586040000027424;0.29038370000034774;6850.3871583;2.399999175395351e-06;0.49552309999944555;0.5355372999993051;0.5868271999997887;0.6567326999993384;0.787290899999789;1.0758893999991415;0;0;1;0;0.01
3;2;12;41;letter181;letter357;incongruent;0.04;letter181;0.09;0.07;fullmask;0.2;arrow_right.png;m;0.2819272999995519;0.2902377999998862;6852.0750836;2.499999936844688e-06;0.5032214000002568;0.5432358999996723;0.595303199999762;0.6651656000003641;0.7947291000000405;1.0835903999995935;0;0;1;0;0.01
3;2;12;42;letter181;letter357;incongruent;0.04;letter357;0.09;0.07;fullmask;0.2;arrow_left.png;c;0.3453092999998262;0.35007039999982226;6853.8190759;2.499999936844688e-06;0.49574290000055043;0.5357493000001341;0.5873374000002514;0.6571031000003131;0.7877593000002889;0.91740690000006;0;0;0;1;0.01
3;2;12;43;letter181;letter357;congruent;0.04;letter357;0.09;0.07;fullmask;0.2;arrow_right.png;m;0.3007087000005413;0.3101743000006536;6855.3151064;2.3000002329354174e-06;0.5005252000000837;0.5405258999999205;0.591784799999914;0.6625549000000319;0.79220450000048;1.1009203000003254;0;0;1;0;0.01
3;2;12;44;letter181;letter357;congruent;0.04;letter357;0.09;0.07;fullmask;0.2;arrow_right.png;c;0.20674620000045252;0.20936270000038348;6856.923141;2.4000000848900527e-06;0.5045829000000595;0.5446038000000044;0.5967393999999331;0.6664371000006213;0.7960798000003706;1.0049057000005632;0;0;1;0;0.01
3;2;12;45;letter181;letter357;congruent;0.04;letter181;0.09;0.07;fullmask;0.2;arrow_left.png;c;0.3003982000000178;0.3102298999992854;6858.6271174;2.599999788799323e-06;0.5017045000004146;0.541717800000697;0.5931485999999495;0.6630524000001969;0.793609700000161;1.1020752000003995;0;0;1;0;0.01
3;2;12;46;letter181;letter357;incongruent;0.04;letter357;0.09;0.07;fullmask;0.2;arrow_left.png;c;0.4871663999992961;0.49069889999918814;6860.5150944;2.499999936844688e-06;0.4953170999997383;0.5353324999996403;0.5868768999998792;0.6566642999996475;0.7872949000002336;0.9169621000000916;0;0;0;1;0.01
3;2;12;47;letter181;letter357;incongruent;0.04;letter357;0.09;0.07;fullmask;0.2;arrow_left.png;m;0.26969089999965945;0.2701915999996345;6861.9791085;2.4000000848900527e-06;0.503440700000283;0.5434523000003537;0.5953927000000476;0.6650721000005433;0.7947259000002305;1.0637861000004705;0;0;1;0;0.01
3;2;12;48;letter181;letter357;incongruent;0.04;letter181;0.09;0.07;fullmask;0.2;arrow_right.png;m;0.28859639999973297;0.29024239999944257;6863.659074;2.4000000848900527e-06;0.5038814999998067;0.5439205000002403;0.5958539000002929;0.6656263000004401;0.7952800000002753;1.0842541000001802;0;0;1;0;0.01
3;2;13;1;letter181;letter357;incongruent;0.04;letter357;0.09;0.07;fullmask;0.2;arrow_left.png;c;0.29062729999986914;0.30038820000027044;6889.267169;2.499999936844688e-06;0.5003569999998945;0.5403847999996287;0.5919415999997;0.6618890999998257;0.7925334000001385;1.0907368999996834;0;0;1;0;0.01
3;2;13;2;letter181;letter357;incongruent;0.04;letter357;0.09;0.07;fullmask;0.2;arrow_left.png;c;0.2857123000003412;0.29026559999965684;6890.9631378;2.599999788799323e-06;0.49781780000012077;0.5378494000005958;0.589191000000028;0.6598832999998194;0.7895374999998239;1.0782024000000092;0;0;1;0;0.01
3;2;13;3;letter181;letter357;congruent;0.04;letter181;0.09;0.07;fullmask;0.2;arrow_left.png;c;0.3157971999999063;0.31936229999973875;6892.6750771;2.4000000848900527e-06;0.4950559999997495;0.5350727999993978;0.5871922999995149;0.6562525999997888;0.786813899999288;1.1054381999992984;0;0;1;0;0.01
3;2;13;4;letter181;letter357;congruent;0.04;letter181;0.09;0.07;fullmask;0.2;arrow_left.png;c;0.4314420999999129;0.4407489000004716;6894.491128;2.499999936844688e-06;0.49841860000015004;0.5384349000005386;0.5898803999998563;0.6596495000003415;0.7902128000005177;0.9198691999999937;0;0;0;1;0.01
3;2;13;5;letter181;letter357;incongruent;0.04;letter357;0.09;0.07;fullmask;0.2;arrow_left.png;c;2.6962609000001976;2.7019145000003846;6898.3871772;2.4000000848900527e-06;0.49826279999979306;0.5382884999999078;0.5899068999997326;0.6596705000001748;0.7903290000003835;0.9199770000004719;0;0;0;1;0.01
3;2;13;6;letter181;letter357;incongruent;0.04;letter181;0.09;0.07;fullmask;0.2;arrow_right.png;m;0.35985270000037417;0.359947199999624;6899.9631114;2.499999936844688e-06;0.5007395000002361;0.5407602000004772;0.5922112999996898;0.6619862999996258;0.7926386999997703;0.9222929999996268;0;0;0;1;0.01
3;2;13;7;letter181;letter357;congruent;0.04;letter181;0.09;0.07;fullmask;0.2;arrow_left.png;c;0.32245630000034;0.3301001999998334;6901.4671151;2.499999936844688e-06;0.4986042999998972;0.5386200000002646;0.590493300000162;0.6602634000000762;0.7908220999997866;1.1190157000000909;0;0;1;0;0.01
3;2;13;8;letter181;letter357;congruent;0.04;letter357;0.09;0.07;fullmask;0.2;arrow_right.png;m;0.2737003000002005;0.2801820000004227;6903.1391003;2.499999936844688e-06;0.5048234999994747;0.5448470999999699;0.5963467000001401;0.6660358999997698;0.7966797999997652;1.0751957000002221;0;0;1;0;0.01
3;2;13;9;letter181;letter357;incongruent;0.04;letter181;0.09;0.07;fullmask;0.2;arrow_right.png;m;0.2824049999999261;0.29037940000034723;6904.8193175;2.499999936844688e-06;0.5018677999996726;0.5418886999996175;0.5938294999996288;0.6637284999997064;0.7932957000002716;1.0822361999998975;0;0;1;0;0.01
3;2;13;10;letter181;letter357;incongruent;0.04;letter181;0.09;0.07;fullmask;0.2;arrow_right.png;m;0.32105630000023666;0.3301652999998623;6906.5392479;2.4000000848900527e-06;0.49800930000037624;0.5380275000006804;0.5901679000007789;0.6600764000004347;0.7896338000000469;1.1184167999999772;0;0;1;0;0.01
3;2;13;11;letter181;letter357;congruent;0.04;letter357;0.09;0.07;fullmask;0.2;arrow_right.png;m;0.3065144000001965;0.3100936000000729;6908.2351077;2.4000000848900527e-06;0.4963849999994636;0.5364119999994728;0.5878513999996358;0.6585284000002503;0.7881812999994509;1.0967694000000847;0;0;1;0;0.01
3;2;13;12;letter181;letter357;congruent;0.04;letter357;0.09;0.07;fullmask;0.2;arrow_right.png;m;0.2927452000003541;0.3002135000006092;6909.923081;2.4000000848900527e-06;0.504015999999865;0.5440559999997276;0.5961440999999468;0.6659204999996291;0.7955743000002258;1.094409799999994;0;0;1;0;0.01
3;2;13;13;letter181;letter357;incongruent;0.04;letter181;0.09;0.07;fullmask;0.2;arrow_right.png;m;0.18808799999987968;0.19041759999981878;6911.4990415;2.4000000848900527e-06;0.5021828999997524;0.5421982999996544;0.5938309000002846;0.6635155000003579;0.7842478000002302;0.7842498999998497;0;1;0;0;0.01
3;2;13;14;letter181;letter357;incongruent;0.04;letter357;0.09;0.07;fullmask;0.2;arrow_left.png;c;0.279384200000095;0.28026560000034806;6912.9710647;2.4000000848900527e-06;0.49652920000062295;0.5365498999999545;0.5880176999999094;0.6577987000000576;0.7884579000001395;1.0668972000003123;0;0;1;0;0.01
3;2;13;15;letter181;letter357;congruent;0.04;letter357;0.09;0.07;fullmask;0.2;arrow_right.png;c;0.24270099999921513;0.25035789999947156;6914.5952093;2.499999936844688e-06;0.5025826999999481;0.5426013999995121;0.5938324999997349;0.6645988999998735;0.7941649999993388;1.0429525999998077;0;0;1;0;0.01
3;2;13;16;letter181;letter357;incongruent;0.04;letter181;0.09;0.07;fullmask;0.2;arrow_right.png;m;0.3472257000003083;0.3500798000004579;6916.3310977;2.6999996407539584e-06;0.49866449999990436;0.5386945000000196;0.5902328000001944;0.6600034000002779;0.7906566000001476;0.9213105999997424;0;0;0;1;0.01
3;2;13;17;letter181;letter357;congruent;0.04;letter357;0.09;0.07;fullmask;0.2;arrow_right.png;m;0.26989010000033886;0.2702310000004218;6917.7951068;2.4000000848900527e-06;0.49744659999942087;0.5374679999995351;0.5893545999997514;0.6592420999995738;0.788804099999652;1.0578013999993345;0;0;1;0;0.01
3;2;13;18;letter181;letter357;congruent;0.04;letter357;0.09;0.07;fullmask;0.2;arrow_right.png;m;0.1472589999993943;0.15065659999982017;6919.3230163;2.399999175395351e-06;0.49619219999931374;0.5362025999993421;0.587579299999561;0.6574839999993856;0.738235399999212;0.7382375999995929;0;1;0;0;0.01
3;2;13;19;letter181;letter357;incongruent;0.04;letter181;0.09;0.07;fullmask;0.2;arrow_right.png;m;0.3103369999998904;0.3202083999995011;6920.8271517;2.70000055024866e-06;0.49667310000040743;0.5367089999999735;0.5882724000002781;0.6581722999999329;0.7887306000002354;1.1070590999997876;0;0;1;0;0.01
3;2;13;20;letter181;letter357;congruent;0.04;letter181;0.09;0.07;fullmask;0.2;arrow_left.png;m;0.17689830000017537;0.18053739999959362;6922.3951069;2.4000000848900527e-06;0.49960469999950874;0.5396336999992855;0.5915129999993951;0.6612777000000278;0.7720578999997088;0.7720650000001115;0;1;0;0;0.01
3;2;13;21;letter181;letter357;congruent;0.04;letter181;0.09;0.07;fullmask;0.2;arrow_left.png;c;0.4041778999999224;0.40996480000012525;6924.0030387;2.599999788799323e-06;0.5037811000001966;0.5438065999996979;0.5954452000005404;0.6655232000002798;0.7959121000003506;0.9255672999997842;0;0;0;1;0.01
3;2;13;22;letter181;letter357;incongruent;0.04;letter357;0.09;0.07;fullmask;0.2;arrow_left.png;c;0.3009046999995917;0.31009399999948073;6925.4910399;2.499999936844688e-06;0.49608510000052775;0.5361081999999442;0.5880000000006476;0.6577701000005618;0.7883326999999554;1.0964588000006188;0;0;1;0;0.01
3;2;13;23;letter181;letter357;incongruent;0.04;letter357;0.09;0.07;fullmask;0.2;arrow_left.png;m;0.26354020000053424;0.26929220000056375;6927.1550395;2.9000002541579306e-06;0.4957942000000912;0.5358052000001408;0.5879669000005379;0.6577365000002828;0.7873937000003934;1.056144199999835;0;0;1;0;0.01
3;2;13;24;letter181;letter357;congruent;0.04;letter181;0.09;0.07;fullmask;0.2;arrow_left.png;c;0.33125029999973776;0.3401522999993176;6928.8831805;3.000000106112566e-06;0.5026347000002716;0.5426704000001337;0.5941918000007718;0.6640489000001253;0.7946108000005552;0.9242811000003712;0;0;0;1;0.01
3;2;13;25;letter181;letter357;congruent;0.04;letter357;0.09;0.07;fullmask;0.2;arrow_right.png;m;0.38570329999947717;0.3898786999998265;6930.4590418;2.499999936844688e-06;0.49640369999997347;0.5364299000002575;0.5883969000005891;0.6580575000007229;0.7887215000000651;0.9183593000007022;0;0;0;1;0.01
3;2;13;26;letter181;letter357;incongruent;0.04;letter357;0.09;0.07;fullmask;0.2;arrow_left.png;c;0.358586500000456;0.3601158999999825;6932.0030261;2.499999936844688e-06;0.4951123999999254;0.5351087999997617;0.5871594000000186;0.6570559000001595;0.7866175999997722;0.917268399999557;0;0;0;1;0.01
3;2;13;27;letter181;letter357;incongruent;0.04;letter181;0.09;0.07;fullmask;0.2;arrow_right.png;m;0.25818100000014965;0.2603681000000506;6933.4430866;2.499999936844688e-06;0.49531719999959023;0.535331999999471;0.5868599999994331;0.6567771999998513;0.7873322999994343;1.0456585000001724;0;0;1;0;0.01
3;2;13;28;letter181;letter357;congruent;0.04;letter181;0.09;0.07;fullmask;0.2;arrow_left.png;m;0.25450420000015583;0.2593335000001389;6935.091072;2.4000000848900527e-06;0.5015961999997671;0.5416168000001562;0.593756499999472;0.6635323000000426;0.7931908000000476;1.0519610000001194;0;0;1;0;0.01
3;2;13;29;letter181;letter357;congruent;0.04;letter357;0.09;0.07;fullmask;0.2;arrow_right.png;m;0.26227380000000267;0.2701588999998421;6936.7390335;2.4000000848900527e-06;0.5028566999999384;0.5428702999997768;0.5941379000005327;0.6648691000000326;0.7944260000003851;1.0632058999999572;0;0;1;0;0.01
3;2;13;30;letter181;letter357;incongruent;0.04;letter181;0.09;0.07;fullmask;0.2;arrow_right.png;m;0.27468640000006417;0.2802672999996503;6938.4031869;2.4000000848900527e-06;0.49698650000027556;0.5370010999995429;0.5889527999997881;0.658627499999966;0.7882822999999917;1.06733819999954;0;0;1;0;0.01
3;2;13;31;letter181;letter357;incongruent;0.04;letter181;0.09;0.07;fullmask;0.2;arrow_right.png;m;0.34750760000042646;0.3500854000003528;6940.1470188;2.4000000848900527e-06;0.4969804000002114;0.5370006000002832;0.5888984000002893;0.6586736999997811;0.788332299999638;0.9189764000002469;0;0;0;1;0.01
3;2;13;32;letter181;letter357;congruent;0.04;letter357;0.09;0.07;fullmask;0.2;arrow_right.png;m;0.2789545999994516;0.2802725999999893;6941.6190375;2.399999175395351e-06;0.4963730999998006;0.5363911999993434;0.5878625999994256;0.6576439000000391;0.7882863999993788;1.0667488999997659;0;0;1;0;0.01
3;2;13;33;letter181;letter357;congruent;0.04;letter181;0.09;0.07;fullmask;0.2;arrow_left.png;m;0.20975319999979547;0.2104592000005141;6943.2110305;2.599999788799323e-06;0.4998219999997673;0.5398553999993965;0.5914370000000417;0.6612172999994073;0.7918601999999737;1.0001446999995096;0;0;1;0;0.01
3;2;13;34;letter181;letter357;incongruent;0.04;letter181;0.09;0.07;fullmask;0.2;arrow_right.png;m;0.32621839999956137;0.3292959000000337;6944.9390673;2.70000055024866e-06;0.5027952999998888;0.5428170000004684;0.5949526000003971;0.664972200000193;0.7945386999999755;1.1231907000001229;0;0;1;0;0.01
3;2;13;35;letter181;letter357;incongruent;0.04;letter357;0.09;0.07;fullmask;0.2;arrow_left.png;c;0.26935190000040166;0.27023600000029546;6946.6030793;2.499999936844688e-06;0.49659930000052555;0.5366021999998338;0.5885114000002432;0.6582073999998101;0.7888659000000189;1.0569346000002042;0;0;1;0;0.01
3;2;13;36;letter181;letter357;congruent;0.04;letter357;0.09;0.07;fullmask;0.2;arrow_right.png;m;0.2981741999992664;0.30025690000002214;6948.2830232;2.499999936844688e-06;0.5016287999997076;0.5416452999998;0.5936152000003858;0.6634289000003264;0.7930838000002041;1.0920014000002993;0;0;1;0;0.01
3;2;13;37;letter181;letter357;congruent;0.04;letter181;0.09;0.07;fullmask;0.2;arrow_left.png;c;0.3173880000003919;0.3202015000006213;6950.0030163;2.3000002329354174e-06;0.4973968000003879;0.5374077000005855;0.5890509999999267;0.658942200000638;0.7895078000001376;1.1077639000004638;0;0;1;0;0.01
3;2;13;38;letter181;letter357;incongruent;0.04;letter357;0.09;0.07;fullmask;0.2;arrow_left.png;m;0.2805634000005739;0.29014139999981126;6951.6670283;2.6999996407539584e-06;0.5027638999999908;0.5427752999994482;0.5941800000000512;0.6649399999996604;0.7945048999999926;1.0831356999997297;0;0;1;0;0.01
3;2;13;39;letter181;letter357;incongruent;0.04;letter357;0.09;0.07;fullmask;0.2;arrow_left.png;c;0.305744200000845;0.31114680000064254;6953.3632002;2.599999788799323e-06;0.49922049999986484;0.5392499999998108;0.5905510999991748;0.6611823999992339;0.790840799999387;1.099594999999681;0;0;1;0;0.01
3;2;13;40;letter181;letter357;incongruent;0.04;letter181;0.09;0.07;fullmask;0.2;arrow_right.png;c;0.18633929999941756;0.19053600000006554;6954.9551182;2.3000002329354174e-06;0.5003664999994726;0.5403829999995651;0.5919262999996135;0.6626258999995116;0.7824650000002293;0.7824718000001667;0;1;0;0;0.01
3;2;13;41;letter181;letter357;incongruent;0.04;letter357;0.09;0.07;fullmask;0.2;arrow_left.png;c;0.3594239000003654;0.35995619999994233;6956.4991034;2.499999936844688e-06;0.4982558000001518;0.5382896999999502;0.5898397000000841;0.6595177999997759;0.7901685999995607;0.9198214999996708;0;0;0;1;0.01
3;2;13;42;letter181;letter357;congruent;0.04;letter357;0.09;0.07;fullmask;0.2;arrow_right.png;m;0.2958287000001292;0.3002585000003819;6957.9870044;2.4000000848900527e-06;0.4995384000003469;0.5395563000001857;0.5916258000006565;0.6615294000002905;0.7910956000005172;1.0899235000006229;0;0;1;0;0.01
3;2;13;43;letter181;letter357;congruent;0.04;letter181;0.09;0.07;fullmask;0.2;arrow_left.png;c;0.2630942000005234;0.2702011000001221;6959.6350196;2.499999936844688e-06;0.49679999999989377;0.5368344999997134;0.5885408000003736;0.6583041000003504;0.7888710999995965;1.0571495000003779;0;0;1;0;0.01
3;2;13;44;letter181;letter357;congruent;0.04;letter181;0.09;0.07;fullmask;0.2;arrow_left.png;c;0.250514899999871;0.2603145000002769;6961.2831688;2.4000000848900527e-06;0.4995011000000886;0.5395151000002443;0.590908600000148;0.6616819999999279;0.7913417999998273;1.0498529999995299;0;0;1;0;0.01
3;2;13;45;letter181;letter357;incongruent;0.04;letter181;0.09;0.07;fullmask;0.2;arrow_right.png;m;0.3674326000000292;0.3710598999996364;6963.0511237;2.4000000848900527e-06;0.5032779000002847;0.5433080000002519;0.5946783999997933;0.665382000000136;0.7950338000000556;0.9256191000004037;0;0;0;1;0.01
3;2;13;46;letter181;letter357;incongruent;0.04;letter357;0.09;0.07;fullmask;0.2;arrow_left.png;c;0.36011040000084904;0.3699331000007078;6964.5950177;2.4000000848900527e-06;0.4958852999998271;0.5358914999997069;0.5874776999999085;0.6571549999998751;0.787812099999428;0.9174581999996008;0;0;0;1;0.01
3;2;13;47;letter181;letter357;congruent;0.04;letter357;0.09;0.07;fullmask;0.2;arrow_right.png;m;0.27329659999941214;0.2802592999996705;6966.0591761;2.4000000848900527e-06;0.49588439999934053;0.5359107999993284;0.5874686999995902;0.6572344999995039;0.7878869999995004;1.066260699999475;0;0;1;0;0.01
3;2;13;48;letter181;letter357;congruent;0.04;letter181;0.09;0.07;fullmask;0.2;arrow_left.png;c;0.3082923000001756;0.3102310000003854;6967.7550443;2.599999788799323e-06;0.49674790000062785;0.5367696000002979;0.5881405999998606;0.6580481999999392;0.7886090000001786;1.097137400000065;0;0;1;0;0.01
