subjnr;loop_m;blocknr;trialnr;cue_left_learn;cue_right_learn;option_up;option_down;practice;motivation; congruence;cue_dur;cue;SOA;mask_dur;mask;target_dur;target;response;RT;kb_rt;response_absolute;response_target;RT_target;kb_rt_target;response_absolute_target; fix_onset;cue_onset;cue_offset;mask_onset;mask_offset;target_offset;blank_onset;frame_dur
3;1;9;1;letter169;letter190;letter169;letter190;0;0;incongruent;0.04;letter169;0.05;0.07;fullmask;0.2;arrow_right.png;up;0.7116043999994872;0.7200617999997121;5869.9637335;c;2.4375974000004135;2.4396504000005734;5872.4116228;2.4000000848900527e-06;0.5038438999999926;0.5438534999993863;0.5538814999999886;0.6238900999996986;0.7539882999999463;0.8840677999996842;0.01
3;1;9;2;letter169;letter190;letter169;letter190;0;0;congruent;0.04;letter169;0.05;0.07;fullmask;0.2;arrow_left.png;up;2.885275499999807;2.892287700000452;5876.7797936;c;0.814942400000291;0.8188663000000815;5877.6035817;2.499999936844688e-06;0.5005081999997856;0.5405342000003657;0.5505309000000125;0.6205731000000014;0.750665200000185;0.8807587999999669;0.01
3;1;9;3;letter169;letter190;letter169;letter190;0;0;incongruent;0.04;letter190;0.05;0.07;fullmask;0.2;arrow_left.png;up;2.307948800000304;2.3120613999999478;5881.3955852;c;1.2433733999996548;1.250674699999763;5882.8435069;2.5000008463393897e-06;0.5029205000000729;0.5429192000001422;0.5529255000001285;0.6229559000003064;0.753037200000108;0.8831380999999965;0.01
3;1;9;4;letter169;letter190;letter169;letter190;0;0;incongruent;0.04;letter169;0.05;0.07;fullmask;0.2;arrow_right.png;up;1.7285855000000083;1.7314305999998396;5886.0595753;c;2.2511982000005446;2.260007800000494;5888.3155598;2.6999996407539584e-06;0.4999342000000979;0.5399483999999575;0.5499675000000934;0.6199840999997832;0.7500683999996909;0.8801757000001089;0.01
3;1;9;5;letter169;letter190;letter169;letter190;0;0;congruent;0.04;letter169;0.05;0.07;fullmask;0.2;arrow_left.png;up;2.7511695000002874;2.7525643999997556;5892.5556684;c;1.7245512000008603;1.7284234000007928;5894.2835547;2.8000004022032954e-06;0.5026039000003948;0.5426216000005297;0.5526284000006854;0.6226599999999962;0.7527429000001575;0.882856900000661;0.01
3;1;9;6;letter169;letter190;letter169;letter190;0;0;incongruent;0.04;letter190;0.05;0.07;fullmask;0.2;arrow_left.png;up;1.4348746999994546;1.4411654999994425;5897.2035594;c;1.6172562000001562;1.620680099999845;5899.0275536;2.599999788799323e-06;0.49631610000051296;0.5363274999999703;0.5463476000004448;0.616376200000559;0.7464448999999149;0.8765515000004598;0.01
3;1;9;7;letter169;letter190;letter169;letter190;0;0;congruent;0.04;letter190;0.05;0.07;fullmask;0.2;arrow_right.png;down;2.3701783999995314;2.371820899999875;5902.8916111;m;1.2844681000005949;1.2886128000000099;5904.1795528;2.2999993234407157e-06;0.5004540999998426;0.540439399999741;0.5504699999992226;0.6204979999993157;0.7505923999997322;0.8806839999997464;0.01
3;1;9;8;letter169;letter190;letter169;letter190;0;0;congruent;0.04;letter190;0.05;0.07;fullmask;0.2;arrow_right.png;down;1.2440293999998175;1.2506733999998687;5906.8995453;m;0.7193520999999237;0.7280985999996119;5907.6274855;2.499999936844688e-06;0.5006226000004972;0.5406456000000617;0.5506709000001138;0.6206929999998465;0.7507807000001776;0.8808710000002975;0.01
3;1;9;9;letter169;letter190;letter169;letter190;0;0;incongruent;0.04;letter169;0.05;0.07;fullmask;0.2;arrow_right.png;up;3.030622299999777;3.0328120000003764;5912.1475358;m;2.6918424999994386;2.698833899999954;5914.84351;2.499999936844688e-06;0.5033456999999544;0.5433609000001525;0.5533718000006047;0.6233866000002308;0.7534824000003937;0.8835810999999012;0.01
3;1;9;10;letter169;letter190;letter169;letter190;0;0;congruent;0.04;letter190;0.05;0.07;fullmask;0.2;arrow_right.png;up;2.4860876000002463;2.492519500000526;5918.8276427;m;1.3381486000007499;1.3414286000006541;5920.371549;2.4000000848900527e-06;0.5035698000001503;0.5435840999998618;0.5535895000002711;0.6236011000000872;0.7536869000005026;0.8837933000004341;0.01
3;1;9;11;letter169;letter190;letter169;letter190;0;1;incongruent;0.12;letter169;0.14;0.07;fullmask;0.2;arrow_right.png;up;1.2082737000000634;1.2108200000002398;5923.1635343;m;1.163502399999743;1.1689329000000726;5924.3315174;2.4000000848900527e-06;0.504359999999906;0.6244372999999541;0.64444100000037;0.7144989999997051;0.844561099999737;0.9746697999999014;0.01
3;1;9;12;letter169;letter190;letter169;letter190;0;0;incongruent;0.04;letter190;0.05;0.07;fullmask;0.2;arrow_left.png;down;1.6578567999995357;1.6614594000002398;5927.4755387;c;1.170507799999541;1.1788983999995253;5928.6515904;2.6999996407539584e-06;0.49729389999993145;0.5373012000000017;0.5473211999997147;0.61735200000021;0.7474370999998428;0.8775430000005144;0.01
3;1;9;13;letter169;letter190;letter169;letter190;0;0;congruent;0.04;letter169;0.05;0.07;fullmask;0.2;arrow_left.png;down;1.390940999999657;1.3911183000000165;5931.5315937;c;1.3033857000000353;1.3106133000001137;5933.035686;2.5000008463393897e-06;0.5037007000000813;0.5437223000008089;0.5537293000006684;0.6237816000002567;0.7538486000003104;0.8839490000000296;0.01
3;1;9;14;letter169;letter190;letter169;letter190;0;0;incongruent;0.04;letter190;0.05;0.07;fullmask;0.2;arrow_left.png;up;1.5503129999997327;1.5510016999996878;5936.0835599;c;0.6789212999992742;0.6802008999993632;5936.9636015;2.5000008463393897e-06;0.5039477000000261;0.5439640000004147;0.5539689000006547;0.6239959000004092;0.7540818000006766;0.8841896000003544;0.01
3;1;9;15;letter169;letter190;letter169;letter190;0;0;congruent;0.04;letter169;0.05;0.07;fullmask;0.2;arrow_left.png;up;1.0195922999992035;1.021273299999848;5939.4755645;c;0.9884253000000172;0.998441499999899;5940.4676249;2.4000000848900527e-06;0.5052380999995876;0.545254699999532;0.5552781999995204;0.6252784999996948;0.755384199999753;0.8854849999997896;0.01
3;1;9;16;letter169;letter190;letter169;letter190;0;0;incongruent;0.04;letter169;0.05;0.07;fullmask;0.2;arrow_right.png;up;1.0474543000000267;1.0513181000005716;5942.9955302;c;1.4102697999996963;1.4183582000005117;5944.4115004;2.1999994714860804e-06;0.49517939999986993;0.5352029999994556;0.5451942999998209;0.6152310999996189;0.7453041999997367;0.8754064999993716;0.01
3;1;9;17;letter169;letter190;letter169;letter190;0;0;congruent;0.04;letter190;0.05;0.07;fullmask;0.2;arrow_right.png;down;2.4228994000004604;2.431485299999622;5948.3235467;m;1.0854324000001725;1.0891430000001492;5949.4195013;2.8000004022032954e-06;0.5013528999998016;0.5413848999996844;0.5513722000005146;0.6214067000000796;0.7514833000004728;0.8815875999998752;0.01
3;1;9;18;letter169;letter190;letter169;letter190;0;0;congruent;0.04;letter169;0.05;0.07;fullmask;0.2;arrow_left.png;up;1.2352422999992996;1.2407051000000138;5952.1396042;c;1.1765293999997084;1.1788692999998602;5953.323534;2.4000000848900527e-06;0.4960388999998031;0.5360574999995151;0.5460551999995005;0.6160876999992979;0.7461788999999044;0.8762766999998348;0.01
3;1;9;19;letter169;letter190;letter169;letter190;0;0;incongruent;0.04;letter190;0.05;0.07;fullmask;0.2;arrow_left.png;up;1.669227200000023;1.6715887999998813;5956.4755361;c;0.7491655999992872;0.7500434999992649;5957.4274743;2.499999936844688e-06;0.4983916000001045;0.538400499999625;0.548416399999951;0.6184487999998964;0.7485217000003104;0.8786294999999882;0.01
3;1;9;20;letter169;letter190;letter169;letter190;0;0;incongruent;0.04;letter169;0.05;0.07;fullmask;0.2;arrow_right.png;down;2.757761200000459;2.761550100000022;5961.6675388;m;1.0207915999999386;1.0212447999992946;5962.8915653;2.499999936844688e-06;0.4973277999997663;0.5373853999999483;0.5473769000000175;0.6174292000005153;0.7474977000001672;0.877605499999845;0.01
3;1;9;21;letter169;letter190;letter169;letter190;0;0;incongruent;0.04;letter190;0.05;0.07;fullmask;0.2;arrow_left.png;up;2.327135399999861;2.331850300000042;5966.6995799;c;0.5867334000004121;0.5904696999996304;5967.4915102;2.6999996407539584e-06;0.4970437000001766;0.5370714000000589;0.5470643999997264;0.6171143999999913;0.7471763000003193;0.8773018000001684;0.01
3;1;9;22;letter169;letter190;letter169;letter190;0;1;incongruent;0.12;letter190;0.14;0.07;fullmask;0.2;arrow_left.png;down;0.8174340999994456;0.819869099999778;5969.8835984;c;1.107639000000745;1.1090844000000288;5970.9956152;2.4000000848900527e-06;0.4994968000000881;0.6195587000001979;0.639578100000108;0.7096111000000747;0.8396869999996852;0.9698018999997657;0.01
3;1;9;23;letter169;letter190;letter169;letter190;0;0;incongruent;0.04;letter169;0.05;0.07;fullmask;0.2;arrow_right.png;up;1.293365200000153;1.3005471000005855;5973.7716634;m;1.4549041999998735;1.4591554999997243;5975.2355805;2.499999936844688e-06;0.4992531999996572;0.5392750999999407;0.5492908999995052;0.6193281999994724;0.749408399999993;0.8795110000000932;0.01
3;1;9;24;letter169;letter190;letter169;letter190;0;0;congruent;0.04;letter190;0.05;0.07;fullmask;0.2;arrow_right.png;down;1.1923390000001746;1.2008391999997912;5977.9235113;m;1.1655871000002662;1.1679351000002498;5979.0995313;2.3000002329354174e-06;0.5026206000002276;0.5426390000002357;0.5526503999999477;0.6226890999996613;0.7527653999995891;0.8828622999999425;0.01
3;1;9;25;letter169;letter190;letter169;letter190;0;0;congruent;0.04;letter190;0.05;0.07;fullmask;0.2;arrow_right.png;down;1.908596100000068;1.9120534000003317;5982.4915414;m;0.5706490000002304;0.5775126999997156;5983.0674766;2.599999788799323e-06;0.5024483999995937;0.5424883999994563;0.5524899000001824;0.6225140999995347;0.752602300000035;0.8826983999997537;0.01
3;1;9;26;letter169;letter190;letter169;letter190;0;0;congruent;0.04;letter169;0.05;0.07;fullmask;0.2;arrow_left.png;up;1.3676048999996055;1.3712557999997443;5985.9234847;c;0.8584404000002905;0.867728199999874;5986.7875174;2.499999936844688e-06;0.5025266000002375;0.5425478000006478;0.5525642000002335;0.6225978000002215;0.7526766000000862;0.8827786000001652;0.01
3;1;9;27;letter169;letter190;letter169;letter190;0;0;congruent;0.04;letter190;0.05;0.07;fullmask;0.2;arrow_right.png;down;1.557366600000023;1.5607816000001549;5989.8355843;m;1.010727599999882;1.0194291999996494;5990.8516368;2.5000008463393897e-06;0.5014378000005308;0.5414569000004121;0.5514572000001863;0.6214925000003859;0.7515790000006746;0.8816960000003746;0.01
3;1;9;28;letter169;letter190;letter169;letter190;0;0;incongruent;0.04;letter169;0.05;0.07;fullmask;0.2;arrow_right.png;up;2.5289871000004496;2.5322868000002927;5994.8595143;m;1.2027281999999104;1.2088716999996905;5996.0674766;2.899999344663229e-06;0.49572360000001936;0.5357577999993737;0.5457501000000775;0.6157826999997269;0.7458664999994653;0.8759664999997767;0.01
3;1;9;29;letter169;letter190;letter169;letter190;0;0;incongruent;0.04;letter169;0.05;0.07;fullmask;0.2;arrow_right.png;up;1.9836162999999942;1.9918125999993208;5999.5477864;m;1.0697330000002694;1.078330299999834;6000.6275451;2.70000055024866e-06;0.5031137000005401;0.5431269999999131;0.5531453000003239;0.623179600000185;0.7532574000006207;0.8833596000004036;0.01
3;1;9;30;letter169;letter190;letter169;letter190;0;0;incongruent;0.04;letter169;0.05;0.07;fullmask;0.2;arrow_right.png;down;2.564183700000285;2.5711840000003576;6004.6914991;m;0.512666800000261;0.5207393999999113;6005.4116095;2.3000002329354174e-06;0.5022144000004118;0.5422342000001663;0.5522564000002603;0.6222685000002457;0.7523658000000069;0.8824695000002976;0.01
3;1;9;31;letter169;letter190;letter169;letter190;0;0;congruent;0.04;letter169;0.05;0.07;fullmask;0.2;arrow_left.png;up;1.134989900000619;1.1400006000003486;6008.0355906;c;0.8489782999995441;0.8587548999994397;6008.8915203;2.3000002329354174e-06;0.49720309999975143;0.5372301999996125;0.5472399999998743;0.6172832000002018;0.7473534000000654;0.8774486000002071;0.01
3;1;9;32;letter169;letter190;letter169;letter190;0;0;incongruent;0.04;letter190;0.05;0.07;fullmask;0.2;arrow_left.png;up;1.7811467999999877;1.791130499999781;6012.1635857;c;0.42159219999939523;0.42989810000017314;6012.7955716;2.399999175395351e-06;0.49923169999965467;0.5392345000000205;0.5492426999999225;0.6192702999996982;0.7493687999995018;0.8794614999997066;0.01
3;1;9;33;letter169;letter190;letter169;letter190;0;0;incongruent;0.04;letter190;0.05;0.07;fullmask;0.2;arrow_left.png;up;2.870903900000485;2.87234510000053;6017.1554599;c;0.4150560999996742;0.42079439999997703;6017.7715074;2.2999993234407157e-06;0.49694219999946654;0.5369643999993059;0.5469693999993979;0.6170015999996394;0.7470813999998427;0.8771859999997105;0.01
3;1;9;34;letter169;letter190;letter169;letter190;0;0;incongruent;0.04;letter190;0.05;0.07;fullmask;0.2;arrow_left.png;down;0.7832460999998148;0.7898732999992717;6020.0514873;c;1.3834225999999035;1.3893444999994244;6021.443473;2.399999175395351e-06;0.5051104999993186;0.5451211999998122;0.5551215999994383;0.6251646000000619;0.755237099999249;0.885347699999329;0.01
3;1;9;35;letter169;letter190;letter169;letter190;0;0;congruent;0.04;letter169;0.05;0.07;fullmask;0.2;arrow_left.png;down;1.4554471999999805;1.4611407000002146;6024.3954936;c;0.4338746999992509;0.43984049999926356;6025.035507;2.399999175395351e-06;0.5051684999998542;0.545191899999736;0.5552059999999983;0.6252149999991161;0.7553209999996398;0.8854058999995686;0.01
3;1;9;36;letter169;letter190;letter169;letter190;0;0;congruent;0.04;letter190;0.05;0.07;fullmask;0.2;arrow_right.png;up;2.440488500000356;2.441412300000593;6028.9635067;m;0.5186177000005046;0.519949400000769;6029.6835381;2.399999175395351e-06;0.5039207999998325;0.5439395999992485;0.5539604999994481;0.6239752999999837;0.7540667999992365;0.8841692999994848;0.01
3;1;9;37;letter169;letter190;letter169;letter190;0;0;congruent;0.04;letter190;0.05;0.07;fullmask;0.2;arrow_right.png;down;1.6135574999998425;1.6205793999997695;6032.7794969;m;0.550988399999369;0.5585544999994454;6033.339448;2.499999936844688e-06;0.49980239999968035;0.5398234000003868;0.5498201999998855;0.6198572000002969;0.7499397000001409;0.8800421000005372;0.01
3;1;9;38;letter169;letter190;letter169;letter190;0;0;congruent;0.04;letter169;0.05;0.07;fullmask;0.2;arrow_left.png;up;2.223993999999948;2.2321884000002683;6037.051778;c;0.6137682999997196;0.6185000000004948;6037.6755779;2.399999175395351e-06;0.49673249999978;0.5367613999997047;0.5467617999993308;0.6168145999999979;0.7468801999993957;0.8769815999994535;0.01
3;1;9;39;letter169;letter190;letter169;letter190;0;1;congruent;0.12;letter169;0.14;0.07;fullmask;0.2;arrow_left.png;up;0.7129429999995409;0.7211319999996704;6039.9634988;c;0.8298350000004575;0.8378106999998636;6040.8034647;2.499999936844688e-06;0.5008737999996811;0.6209421000003204;0.6409467000003133;0.7109989999999016;0.8410647000000608;0.9711818999994648;0.01
3;1;9;40;letter169;letter190;letter169;letter190;0;0;incongruent;0.04;letter169;0.05;0.07;fullmask;0.2;arrow_right.png;up;0.982204200000524;0.9903658000002906;6043.2754451;c;0.6779571000006399;0.6781579000007696;6043.9635341;2.499999936844688e-06;0.501288299999942;0.54129919999923;0.5513174999996409;0.6213370999994368;0.7514260999996623;0.8815324999995937;0.01
3;1;9;41;letter169;letter190;letter169;letter190;0;0;incongruent;0.04;letter169;0.05;0.07;fullmask;0.2;arrow_right.png;down;1.1909861999993154;1.1917625999994925;6046.6355066;m;0.9919920000002094;1.0009807000005821;6047.8276637;2.499999936844688e-06;0.49697070000001986;0.5369715999995606;0.5470170999997208;0.6170276000002559;0.7471269999996366;0.8772096000002421;0.01
3;1;9;42;letter169;letter190;letter169;letter190;0;0;incongruent;0.04;letter190;0.05;0.07;fullmask;0.2;arrow_left.png;up;2.0082892999998876;2.011121799999273;6051.3154793;c;0.7726062000001548;0.7799749000005249;6052.2914579;2.499999936844688e-06;0.4988939999993818;0.5388963999994303;0.5489072000000306;0.6189334000000599;0.7490233999997145;0.8791185999998561;0.01
3;1;9;43;letter169;letter190;letter169;letter190;0;0;incongruent;0.04;letter190;0.05;0.07;fullmask;0.2;arrow_left.png;down;0.8312992999999551;0.8407729999998992;6054.6117065;c;0.9486614999996164;0.9587343000002875;6055.5716803;2.499999936844688e-06;0.504593499999828;0.5445996999997078;0.5546230999998443;0.6246519999995144;0.7547373999996125;0.8848330999999234;0.01
3;1;9;44;letter169;letter190;letter169;letter190;0;0;congruent;0.04;letter169;0.05;0.07;fullmask;0.2;arrow_left.png;up;1.1175188999995953;1.121060899999975;6058.1794695;c;0.6025214999999662;0.6084263000002466;6058.7874777;2.499999936844688e-06;0.4964567999995779;0.5364786999998614;0.5464745999997831;0.616522199999963;0.7465901999994458;0.8767134999998234;0.01
3;1;9;45;letter169;letter190;letter169;letter190;0;0;congruent;0.04;letter169;0.05;0.07;fullmask;0.2;arrow_left.png;down;2.3852911000003587;2.3917860000001383;6062.6596138;c;0.37705130000085774;0.3799315000005663;6063.2435541;2.4000000848900527e-06;0.5015669000003982;0.5415812999999616;0.5515715999999884;0.6216279999998733;0.7516967999999906;0.8818127000004097;0.01
3;1;9;46;letter169;letter190;letter169;letter190;0;0;congruent;0.04;letter190;0.05;0.07;fullmask;0.2;arrow_right.png;up;1.3467042000002039;1.3514016999997693;6066.0834868;m;0.738799800000379;0.7400442999996812;6067.0274335;2.1999994714860804e-06;0.5043552999995882;0.5443648999998913;0.554364199999327;0.6244105999994645;0.7544783999992433;0.8845864999993864;0.01
3;1;9;47;letter169;letter190;letter169;letter190;0;0;incongruent;0.04;letter169;0.05;0.07;fullmask;0.2;arrow_right.png;up;0.7492507000006299;0.7500522000000274;6069.2594193;m;1.9973734999994122;1.9999051999993753;6071.2595303;2.499999936844688e-06;0.4989016999998057;0.5389200999998138;0.5489251999997578;0.6189638000005289;0.7490335000002233;0.8791615999998612;0.01
3;1;9;48;letter169;letter190;letter169;letter190;0;0;congruent;0.04;letter190;0.05;0.07;fullmask;0.2;arrow_right.png;up;1.4267481000006228;1.4302363000006153;6074.1794507;m;0.3960947000005035;0.3999797000005856;6074.7794763;2.599999788799323e-06;0.5017939999997907;0.5418199000005188;0.5518220000003566;0.6218440000002374;0.7519302000000607;0.8820457000001625;0.01
3;1;9;49;letter169;letter190;letter169;letter190;0;0;incongruent;0.04;letter190;0.05;0.07;fullmask;0.2;arrow_left.png;down;1.2432922999996663;1.2516638999995848;6077.5074993;c;0.9257072000000335;0.9286002999997436;6078.4435247;2.5000008463393897e-06;0.5011475999999675;0.5411721000000398;0.551186300000154;0.6212026000002879;0.7512897000005978;0.8813908000001902;0.01
3;1;9;50;letter169;letter190;letter169;letter190;0;1;congruent;0.12;letter190;0.14;0.07;fullmask;0.2;arrow_right.png;down;1.22594509999999;1.2306542999995145;6081.2434689;c;0.9293562000002566;0.9385443000001032;6082.1794773;2.6999996407539584e-06;0.5027496000002429;0.622807499999908;0.6428232999996908;0.7128571000002921;0.8429349999996703;0.9730397000002995;0.01
3;1;9;51;letter169;letter190;letter169;letter190;0;0;congruent;0.04;letter190;0.05;0.07;fullmask;0.2;arrow_right.png;down;0.9823070999991614;0.9914102999991883;6084.651464;c;0.8209585000004154;0.8278444999996282;6085.4834575;2.4000000848900527e-06;0.5029902999995102;0.5430200999999215;0.5530441000000792;0.6230556999998953;0.7531493999995291;0.8832461000001786;0.01
3;1;9;52;letter169;letter190;letter169;letter190;0;0;congruent;0.04;letter169;0.05;0.07;fullmask;0.2;arrow_left.png;up;0.8736152999999831;0.8805625000004511;6087.8354522;c;0.6471534000002066;0.6483474999995451;6088.4914887;2.4000000848900527e-06;0.4950932000001558;0.5351061000001209;0.5450975000003382;0.6151331999999456;0.7452168999998321;0.8753195999997843;0.01
3;1;10;1;letter169;letter190;letter169;letter190;0;0;incongruent;0.04;letter169;0.05;0.07;fullmask;0.2;arrow_right.png;up;1.952274700000089;1.9618565000000672;6135.5233857;m;0.4845615000003818;0.48774690000027476;6136.0194694;2.599999788799323e-06;0.5011249999997744;0.5411573999999746;0.5511192999993;0.6211946999992506;0.751271999999517;0.8813743999999133;0.01
3;1;10;2;letter169;letter190;letter169;letter190;0;0;incongruent;0.04;letter169;0.05;0.07;fullmask;0.2;arrow_right.png;up;0.8535867999999027;0.8607199999996737;6138.3474456;m;0.630926100000579;0.6383389000002353;6138.9874515;2.599999788799323e-06;0.4965801999996984;0.5365842000001066;0.5465912999998181;0.6166268999995737;0.746706500000073;0.876811699999962;0.01
3;1;10;3;letter169;letter190;letter169;letter190;0;0;incongruent;0.04;letter190;0.05;0.07;fullmask;0.2;arrow_left.png;down;0.8160166999996363;0.820940900000096;6141.2916551;c;1.7211483000000953;1.7295287999995708;6143.0195498;2.499999936844688e-06;0.4978528000001461;0.5378676000000269;0.547872300000563;0.6179225000005317;0.747996900000544;0.8780918000002202;0.01
3;1;10;4;letter169;letter190;letter169;letter190;0;0;congruent;0.04;letter169;0.05;0.07;fullmask;0.2;arrow_left.png;up;1.4329035999999178;1.4411655999992945;6145.9313989;c;0.5257845000005545;0.5276344000003519;6146.4673904;2.4000000848900527e-06;0.49548630000026606;0.5355067999998937;0.5455161999998381;0.6155528999997841;0.7456388000000516;0.8757555000001958;0.01
3;1;10;5;letter169;letter190;letter169;letter190;0;0;congruent;0.04;letter169;0.05;0.07;fullmask;0.2;arrow_left.png;up;0.8190858999996635;0.8208663999994315;6148.7794303;c;0.6283848000002763;0.6384577000007994;6149.411534;2.499999936844688e-06;0.5050551000003907;0.5450786999999764;0.5550930999997945;0.6251121000004787;0.7551980999996886;0.8852963999997883;0.01
3;1;10;6;letter169;letter190;letter169;letter190;0;0;congruent;0.04;letter190;0.05;0.07;fullmask;0.2;arrow_right.png;down;1.389128900000287;1.3914365999999063;6152.2914827;m;0.6038074999996752;0.6084319999999934;6152.8994348;2.2999993234407157e-06;0.505287999999382;0.5453150999992431;0.555315999999948;0.6253533999997671;0.7554229999996096;0.8855219999995825;0.01
3;1;10;7;letter169;letter190;letter169;letter190;0;0;congruent;0.04;letter190;0.05;0.07;fullmask;0.2;arrow_right.png;down;0.946276300000136;0.9504218000001856;6155.3314284;m;0.6739893999993001;0.6782450999999128;6156.0114595;2.499999936844688e-06;0.5036673000004157;0.5436808000004021;0.5536941999998817;0.6237300000002506;0.7538107999998829;0.8839095000002999;0.01
3;1;10;8;letter169;letter190;letter169;letter190;0;0;incongruent;0.04;letter190;0.05;0.07;fullmask;0.2;arrow_left.png;down;1.1867264000002251;1.1909746999999697;6158.6834746;c;0.5459277999998449;0.5486770999996224;6159.2354975;2.4000000848900527e-06;0.5037469000008059;0.5437899000007747;0.5537669000004826;0.6238113000008525;0.7538900000008653;0.883998000000247;0.01
3;1;10;9;letter169;letter190;letter169;letter190;0;0;incongruent;0.04;letter169;0.05;0.07;fullmask;0.2;arrow_right.png;up;0.8048571999997876;0.8108793000001242;6161.5234377;m;1.232036600000356;1.2387419000006048;6162.7634373;2.599999788799323e-06;0.4982460999999603;0.538272899999356;0.5482924999996612;0.6182648999993035;0.7484022999997251;0.8785029999999097;0.01
3;1;10;10;letter169;letter190;letter169;letter190;0;0;incongruent;0.04;letter190;0.05;0.07;fullmask;0.2;arrow_left.png;up;0.9123820999993768;0.9204628999996203;6165.1634251;c;0.6634518999999273;0.6702285999999731;6166.0354007;2.4000000848900527e-06;0.5049354000002495;0.5449514000001727;0.5549679999994623;0.6250076999995144;0.7550719999999274;0.885173699999541;0.01
3;1;10;11;letter169;letter190;letter169;letter190;0;0;incongruent;0.04;letter169;0.05;0.07;fullmask;0.2;arrow_right.png;up;1.4065890000001673;1.4113861000005272;6168.9394351;c;1.657331599999452;1.6596249999993233;6170.6033983;2.4000000848900527e-06;0.5042163999996774;0.5442411000003631;0.5542757000002894;0.6242799000001469;0.7543733000002248;0.8844660000004296;0.01
3;1;10;12;letter169;letter190;letter169;letter190;0;1;congruent;0.12;letter190;0.14;0.07;fullmask;0.2;arrow_right.png;down;1.2696544000000358;1.2715078999999605;6173.43545;m;2.1242812999998932;2.1294567999993887;6175.5635252;2.70000055024866e-06;0.4969206000005215;0.6169840000002296;0.6369992999998431;0.7070334999998522;0.8371255000001838;0.9672287000003053;0.01
3;1;10;13;letter169;letter190;letter169;letter190;0;0;congruent;0.04;letter169;0.05;0.07;fullmask;0.2;arrow_left.png;up;1.6426083000005747;1.6516198000008444;6178.6916061;c;0.6450448000005053;0.6484153999999762;6179.3474849;2.599999788799323e-06;0.5031800999995539;0.5431897999997091;0.5531935999997586;0.6232239000000845;0.7532894999994824;0.883410699999331;0.01
3;1;10;14;letter169;letter190;letter169;letter190;0;0;congruent;0.04;letter190;0.05;0.07;fullmask;0.2;arrow_right.png;down;1.091327299999648;1.1001513999999588;6181.9234129;m;1.941353700000036;1.9498404000005394;6183.8755304;2.5000008463393897e-06;0.495146800000839;0.5351579000007405;0.5451708000000508;0.6152002000007997;0.7452941999999894;0.8753824000004897;0.01
3;1;10;15;letter169;letter190;letter169;letter190;0;0;congruent;0.04;letter169;0.05;0.07;fullmask;0.2;arrow_left.png;up;1.1983274999993228;1.2007011999994575;6186.5634149;c;0.5717117000003782;0.5785132999999405;6187.1394258;2.399999175395351e-06;0.5021400999994512;0.542158099999142;0.5521643999991284;0.6221919999998136;0.7522720999995727;0.8823802999995678;0.01
3;1;10;16;letter169;letter190;letter169;letter190;0;0;congruent;0.04;letter169;0.05;0.07;fullmask;0.2;arrow_left.png;up;1.4569355999992695;1.4610191999991002;6190.0834398;c;0.7619306000005963;0.7689913000003799;6190.8513951;2.4000000848900527e-06;0.49783770000067307;0.5378688999999213;0.5478849000000992;0.6179118000000017;0.7480007000003752;0.8780835000006846;0.01
3;1;10;17;letter169;letter190;letter169;letter190;0;0;congruent;0.04;letter190;0.05;0.07;fullmask;0.2;arrow_right.png;down;0.9263937000005171;0.9305616000001464;6193.2754039;m;0.5699936999999409;0.5790441999997711;6193.8515029;2.499999936844688e-06;0.5053368999997474;0.5453767999997581;0.5553729000002932;0.6254025999996884;0.7554953999997451;0.885588000000098;0.01
3;1;10;18;letter169;letter190;letter169;letter190;0;0;incongruent;0.04;letter169;0.05;0.07;fullmask;0.2;arrow_right.png;down;1.7121651999996175;1.7214217999999164;6197.0435834;m;0.9351952999995774;0.9404366999997364;6198.1874486;2.499999936844688e-06;0.5019935999998779;0.5419996000000538;0.5520112999993216;0.6220318999994561;0.7521244999998089;0.8822417999999743;0.01
3;1;10;19;letter169;letter190;letter169;letter190;0;0;incongruent;0.04;letter190;0.05;0.07;fullmask;0.2;arrow_left.png;down;1.7778855999995358;1.7812968999996883;6201.4514805;c;0.6345521000002918;0.6383515999996234;6202.0913785;2.499999936844688e-06;0.49785719999999856;0.5378584000000046;0.5479012999994666;0.6179119999997056;0.748008800000207;0.8780906000001778;0.01
3;1;10;20;letter169;letter190;letter169;letter190;0;0;congruent;0.04;letter169;0.05;0.07;fullmask;0.2;arrow_left.png;up;0.7873510999997961;0.7910419999998339;6204.3634563;c;0.5064781999999468;0.5087917000000743;6204.8754627;2.4000000848900527e-06;0.49838529999942693;0.5383824999998978;0.5484064000002036;0.6184327000000849;0.7485183999997389;0.878642900000159;0.01
3;1;10;21;letter169;letter190;letter169;letter190;0;0;incongruent;0.04;letter190;0.05;0.07;fullmask;0.2;arrow_left.png;up;1.3172597000002497;1.3205303000004278;6207.675475;c;0.38018880000072386;0.38997480000034557;6208.2593782;2.399999175395351e-06;0.5040517999996155;0.5440668999999616;0.554087299999992;0.6241144999994503;0.7541936999996324;0.8842987999996694;0.01
3;1;10;22;letter169;letter190;letter169;letter190;0;0;congruent;0.04;letter190;0.05;0.07;fullmask;0.2;arrow_right.png;up;1.5734150999996928;1.5818219999991925;6211.3234941;m;0.4240648000004512;0.43086740000035206;6211.9554095;2.5000008463393897e-06;0.4980230000001029;0.5380371000001105;0.5480329000001802;0.6180741000007401;0.7481524000004356;0.8782629000006636;0.01
3;1;10;23;letter169;letter190;letter169;letter190;0;1;incongruent;0.12;letter169;0.14;0.07;fullmask;0.2;arrow_right.png;up;1.1742926000006264;1.1807687999998961;6214.707438;c;1.0474929000001794;1.0482727999997223;6215.7633425;2.499999936844688e-06;0.49870409999948606;0.618757000000187;0.638779699999759;0.7087929999997868;0.8389053999999305;0.9689775999995618;0.01
3;1;10;24;letter169;letter190;letter169;letter190;0;0;incongruent;0.04;letter190;0.05;0.07;fullmask;0.2;arrow_left.png;down;0.9103901999997106;0.9105469999994966;6218.1554913;c;0.6217567999992752;0.6283825000000434;6218.7794134;2.399999175395351e-06;0.5012199999991935;0.541250699999182;0.5512561999994432;0.6212814000000435;0.7513597999995909;0.8814628999998604;0.01
3;1;10;25;letter169;letter190;letter169;letter190;0;0;congruent;0.04;letter190;0.05;0.07;fullmask;0.2;arrow_right.png;down;1.7146677000000636;1.7215692999998282;6221.9716128;m;0.5832801999995354;0.5885772000001452;6222.5636182;2.6999996407539584e-06;0.4946311000003334;0.5346588000002157;0.5446530999997776;0.6146924000004219;0.74476390000018;0.8748555000001943;0.01
3;1;10;26;letter169;letter190;letter169;letter190;0;0;incongruent;0.04;letter169;0.05;0.07;fullmask;0.2;arrow_right.png;down;4.106237999999394;4.113018600000032;6228.1553999;m;0.7446390999994037;0.7500428999992437;6229.1073693;2.4000000848900527e-06;0.49920770000062475;0.5392059000005247;0.5492325000004712;0.6192637000003742;0.7493412000003445;0.879452900000615;0.01
3;1;10;27;letter169;letter190;letter169;letter190;0;0;congruent;0.04;letter190;0.05;0.07;fullmask;0.2;arrow_right.png;down;1.297847300000285;1.3014442000003328;6231.8914414;m;1.3224528999999166;1.328509999999369;6233.219425;2.499999936844688e-06;0.5002776000001177;0.5402813000000606;0.5503054000000702;0.6203177999996115;0.7504208999998809;0.8805058999996618;0.01
3;1;10;28;letter169;letter190;letter169;letter190;0;0;congruent;0.04;letter169;0.05;0.07;fullmask;0.2;arrow_left.png;up;0.9533859999992274;0.961444799999299;6235.6593883;c;0.573967299999822;0.5785008999991987;6236.2433632;2.3000002329354174e-06;0.498151499999949;0.538155000000188;0.5481712999999218;0.6182164000001649;0.748294399999395;0.8784060999996655;0.01
3;1;10;29;letter169;letter190;letter169;letter190;0;0;incongruent;0.04;letter169;0.05;0.07;fullmask;0.2;arrow_right.png;down;1.9873511999994662;1.9917325999995228;6239.7154378;m;0.41110420000040904;0.41997190000074625;6240.3313687;2.4000000848900527e-06;0.49702549999983603;0.5370547000002261;0.5470895999997083;0.6170953999999256;0.7471997000002375;0.8772786999998061;0.01
3;1;10;30;letter169;letter190;letter169;letter190;0;0;congruent;0.04;letter169;0.05;0.07;fullmask;0.2;arrow_left.png;up;0.9022842000003948;0.910626100000627;6242.7233838;c;0.5897028999997929;0.5984575000002224;6243.3233629;2.599999788799323e-06;0.49884410000049684;0.5388778000005914;0.5488786000005348;0.6189087000002473;0.7489870999997947;0.8791083000005528;0.01
3;1;10;31;letter169;letter190;letter169;letter190;0;0;congruent;0.04;letter169;0.05;0.07;fullmask;0.2;arrow_left.png;up;0.6650964000000386;0.6713370999996187;6245.5075802;c;0.3918156999998246;0.39806550000048446;6245.9074967;2.499999936844688e-06;0.5008985999993456;0.5409258999998201;0.5509351999999126;0.6209556999992856;0.7510420999997223;0.8811458999998649;0.01
3;1;10;32;letter169;letter190;letter169;letter190;0;0;congruent;0.04;letter190;0.05;0.07;fullmask;0.2;arrow_right.png;up;0.726545299999998;0.7299841000003653;6248.1313964;m;0.8439808000002813;0.8507898999996542;6249.1793659;2.4000000848900527e-06;0.5053368999997474;0.5453520000000935;0.5553578999997626;0.6254112999995414;0.7554764999995314;0.8855737000003501;0.01
3;1;10;33;letter169;letter190;letter169;letter190;0;0;incongruent;0.04;letter190;0.05;0.07;fullmask;0.2;arrow_left.png;down;1.0887181999996756;1.0911425000003874;6251.7553757;c;0.6276125000003958;0.6283733999998731;6252.3873553;2.4000000848900527e-06;0.500054199999795;0.5400750999997399;0.5500782999997682;0.6201076999996076;0.7501906999996208;0.8802940999994462;0.01
3;1;10;34;letter169;letter190;letter169;letter190;0;0;congruent;0.04;letter190;0.05;0.07;fullmask;0.2;arrow_right.png;down;0.6622293999998874;0.6701444000000265;6254.531371;m;0.6622721999992791;0.6682917999996789;6255.2035018;2.399999175395351e-06;0.49678299999959563;0.536808399999245;0.5468026999997164;0.6168351999995139;0.7469193999995696;0.8770306999995228;0.01
3;1;10;35;letter169;letter190;letter169;letter190;0;0;congruent;0.04;letter169;0.05;0.07;fullmask;0.2;arrow_left.png;down;1.8030373999999938;1.8112187000006088;6258.48338;c;0.3353823999996166;0.34010229999967123;6259.0273895;2.4000000848900527e-06;0.49643319999995583;0.5364462999996249;0.5464498999999705;0.6164816000000428;0.7465608000002248;0.8766626999995424;0.01
3;1;10;36;letter169;letter190;letter169;letter190;0;1;incongruent;0.12;letter190;0.14;0.07;fullmask;0.2;arrow_left.png;down;0.6399900999995225;0.6401929000003292;6261.243465;c;0.5738545000003796;0.5786164000001008;6261.8194596;2.499999936844688e-06;0.5031327000006058;0.6232091000001674;0.6432146000006469;0.7132313000001886;0.8433258000004571;0.9734287999999651;0.01
3;1;10;37;letter169;letter190;letter169;letter190;0;0;congruent;0.04;letter190;0.05;0.07;fullmask;0.2;arrow_right.png;down;0.4111056000001554;0.42089779999969323;6263.715484;c;0.7801462000006723;0.7879443000001629;6264.5073571;2.499999936844688e-06;0.49637990000064747;0.5363889000000199;0.5463955000004717;0.6164325999998255;0.746515100000579;0.8766261999999188;0.01
3;1;10;38;letter169;letter190;letter169;letter190;0;0;incongruent;0.04;letter169;0.05;0.07;fullmask;0.2;arrow_right.png;up;0.9271909000008236;0.9304960000008577;6266.9233897;c;0.7947143999999753;0.798905100000411;6267.7233583;2.599999788799323e-06;0.499820500000169;0.5398173000003226;0.5498534999996991;0.6198822999995173;0.7499608999996781;0.8800607000002856;0.01
3;1;10;39;letter169;letter190;letter169;letter190;0;0;congruent;0.04;letter169;0.05;0.07;fullmask;0.2;arrow_left.png;up;1.1389955000004193;1.1408719999999448;6270.3473891;c;0.5082234000001336;0.5086599000005663;6270.8594292;2.4000000848900527e-06;0.5016631000007692;0.5416820000000371;0.5516972000004898;0.6217181000001801;0.7518091000001732;0.8819078000005902;0.01
3;1;10;40;letter169;letter190;letter169;letter190;0;0;congruent;0.04;letter169;0.05;0.07;fullmask;0.2;arrow_left.png;up;0.6948067999992418;0.700116999999409;6273.0353798;c;0.5927093000000241;0.5984557000001587;6273.6353385;2.3000002329354174e-06;0.5021462999993673;0.5421211000002586;0.5521151000002646;0.6221553999994285;0.7522383999994418;0.8823496999993949;0.01
3;1;10;41;letter169;letter190;letter169;letter190;0;0;incongruent;0.04;letter169;0.05;0.07;fullmask;0.2;arrow_right.png;down;1.8413669000001391;1.8420958000006067;6276.963333;m;0.9999748999998701;1.00138539999989;6278.1634683;2.4000000848900527e-06;0.49782390000018495;0.537821800000529;0.5478540000003704;0.6178890999999567;0.7479597999999896;0.8780628000004072;0.01
3;1;10;42;letter169;letter190;letter169;letter190;0;0;congruent;0.04;letter190;0.05;0.07;fullmask;0.2;arrow_right.png;down;0.7743988000001991;0.7809966000004351;6280.4193656;m;0.4395355999995445;0.447883499999989;6280.8674131;2.4000000848900527e-06;0.4965738999999303;0.5365638000002946;0.5466135999995458;0.6166126999996777;0.7466926999995849;0.8767994999998336;0.01
3;1;10;43;letter169;letter190;letter169;letter190;0;0;incongruent;0.04;letter190;0.05;0.07;fullmask;0.2;arrow_left.png;down;1.404632899999342;1.411244899999474;6283.7714553;c;0.6233853000003364;0.6283937999996851;6284.4033876;2.4000000848900527e-06;0.5055196000002979;0.545532600000115;0.5555351000002702;0.6255663000001732;0.7556518999999753;0.8857641000004151;0.01
3;1;10;44;letter169;letter190;letter169;letter190;0;0;incongruent;0.04;letter169;0.05;0.07;fullmask;0.2;arrow_right.png;up;1.1060678000003463;1.1110444000005373;6286.9953426;m;0.4971747999998115;0.49775009999939357;6287.4994341;2.399999175395351e-06;0.5053587999991578;0.5453747999999905;0.555376399999659;0.6254182999991826;0.7555044999999154;0.8856206000000384;0.01
3;1;10;45;letter169;letter190;letter169;letter190;0;1;congruent;0.12;letter169;0.14;0.07;fullmask;0.2;arrow_left.png;up;0.8442759999998088;0.8507854999998017;6289.9154045;c;0.5915027999999438;0.598413900000196;6290.5153937;3.000000106112566e-06;0.5013127000001987;0.6213762000006682;0.6413855000000694;0.7114222000000154;0.8415010000007896;0.9716081000005943;0.01
3;1;10;46;letter169;letter190;letter169;letter190;0;0;incongruent;0.04;letter190;0.05;0.07;fullmask;0.2;arrow_left.png;down;1.0063264000000345;1.0114525999997568;6293.0194263;c;0.6330785999998625;0.6384535999995933;6293.6594671;2.4000000848900527e-06;0.5042835000003834;0.5442955999997139;0.5542870999997831;0.6243303999999625;0.754407600000377;0.884516000000076;0.01
3;1;10;47;letter169;letter190;letter169;letter190;0;0;incongruent;0.04;letter169;0.05;0.07;fullmask;0.2;arrow_right.png;up;0.8024538999998185;0.8108912999996392;6295.9473785;c;0.669730200000231;0.6788532999999006;6296.6274879;2.4000000848900527e-06;0.49557480000021314;0.5355810999999449;0.5456005000005462;0.6156332000000475;0.7457217999999557;0.8758115999999063;0.01
3;1;10;48;letter169;letter190;letter169;letter190;0;0;incongruent;0.04;letter190;0.05;0.07;fullmask;0.2;arrow_left.png;down;0.7303633999999875;0.7402346999997462;6298.8674344;c;0.6601149000007354;0.6692590000002383;6299.5393633;2.499999936844688e-06;0.49617830000079266;0.5361894000006941;0.5462035000000469;0.6162355000005846;0.7463129000007029;0.8764237000004869;0.01
3;1;10;49;letter169;letter190;letter169;letter190;0;0;incongruent;0.04;letter190;0.05;0.07;fullmask;0.2;arrow_left.png;down;0.6465969999999288;0.6503210999999283;6301.6753621;c;0.6583725999998933;0.659295899999961;6302.3393927;2.499999936844688e-06;0.5035305999999764;0.5435352000004059;0.5535483000003296;0.6235523000004832;0.7536691000004794;0.883758800000578;0.01
3;1;10;50;letter169;letter190;letter169;letter190;0;0;incongruent;0.04;letter190;0.05;0.07;fullmask;0.2;arrow_left.png;down;0.6549709999999322;0.6612370000002556;6304.4754978;c;0.6398134000000937;0.6478624000001219;6305.1234302;2.499999936844688e-06;0.5038496999995914;0.5438962999996875;0.5538700999995854;0.6239088000002084;0.7539892000004329;0.8840956000003644;0.01
3;1;10;51;letter169;letter190;letter169;letter190;0;0;congruent;0.04;letter190;0.05;0.07;fullmask;0.2;arrow_right.png;down;0.6870628999995461;0.6912143999998079;6307.299352;c;0.6499082999998791;0.6582967000003919;6307.9553436;2.4000000848900527e-06;0.49896869999975024;0.538971599999968;0.5489863000002515;0.6190280000000712;0.7491076000005705;0.8792136000001847;0.01
3;1;10;52;letter169;letter190;letter169;letter190;0;0;incongruent;0.04;letter169;0.05;0.07;fullmask;0.2;arrow_right.png;up;0.8373344000001453;0.8407715000003009;6310.2913557;c;0.6666158999996696;0.6682641999996122;6310.9633501;2.8000004022032954e-06;0.5031415000003108;0.543160799999896;0.5531662000003053;0.6231980000002295;0.7532791000003272;0.8833863999998357;0.01
3;2;17;1;letter181;letter357;letter357;letter181;0;0;congruent;0.04;letter357;0.09;0.07;fullmask;0.2;arrow_right.png;up;0.9045710000000327;0.9106854000001476;7294.1310686;c;1.2318756000004214;1.2387472000000344;7295.3708899;2.4000000848900527e-06;0.5034200999998575;0.5434307999994417;0.5934582999998383;0.6634776000000784;0.7935917999993762;0.9237152999994578;0.01
3;2;17;2;letter181;letter357;letter357;letter181;0;0;congruent;0.04;letter181;0.09;0.07;fullmask;0.2;arrow_left.png;down;0.5660307999996803;0.5705336999999417;7297.4748946;c;0.4975714000001972;0.4977678000004744;7297.9789129;2.599999788799323e-06;0.5012996999994357;0.5413330999999744;0.5913571000000957;0.6613925999999992;0.7914842999998655;0.9215664000003017;0.01
3;2;17;3;letter181;letter357;letter357;letter181;0;0;incongruent;0.04;letter357;0.09;0.07;fullmask;0.2;arrow_left.png;up;0.6680877999997392;0.6702765999998519;7300.1788839;c;0.4838694999998552;0.48775130000012723;7300.6668756;2.599999788799323e-06;0.50592400000005;0.5459467999999106;0.5960027999999511;0.6660102000005281;0.7961044000003312;0.9262037999997119;0.01
3;2;17;4;letter181;letter357;letter357;letter181;0;0;incongruent;0.04;letter181;0.09;0.07;fullmask;0.2;arrow_right.png;down;0.6825386000000435;0.6901712999997471;7302.8750759;m;0.9902860000001965;0.9983930999997028;7303.8748296;2.4000000848900527e-06;0.5005737999999837;0.5406042000004163;0.5906149000002188;0.6606484000003547;0.7907311000008121;0.9208364000005531;0.01
3;2;17;5;letter181;letter357;letter357;letter181;0;0;congruent;0.04;letter357;0.09;0.07;fullmask;0.2;arrow_right.png;up;0.7005716000003304;0.7101222000001144;7306.1148794;m;0.8285637999997562;0.8287276000000929;7306.9549283;2.499999936844688e-06;0.5018067000000883;0.5418315999995684;0.5918418999999631;0.6618816000000152;0.7919664000000921;0.9220752000001085;0.01
3;2;17;6;letter181;letter357;letter357;letter181;0;0;incongruent;0.04;letter357;0.09;0.07;fullmask;0.2;arrow_left.png;up;0.5752750999999989;0.5805075999996916;7309.0509332;c;0.6327512999996543;0.6383514999997715;7309.6908512;2.499999936844688e-06;0.4962097999996331;0.5362078999996811;0.5862778000000617;0.6563001999993503;0.7863977999995768;0.9164793999998437;0.01
3;2;17;7;letter181;letter357;letter357;letter181;0;1;congruent;0.12;letter181;0.18;0.07;fullmask;0.2;arrow_left.png;down;0.6771570000000793;0.681098999999449;7311.9949032;c;1.8421575000002122;1.8491265000002386;7313.842925;2.4000000848900527e-06;0.5056126999998014;0.6256602000003113;0.6857030999999552;0.7557324999997945;0.8858203999998295;1.015909499999907;0.01
3;2;17;8;letter181;letter357;letter357;letter181;0;0;congruent;0.04;letter181;0.09;0.07;fullmask;0.2;arrow_left.png;down;0.6720061000005444;0.680241200000637;7316.0428928;c;0.6618241000005582;0.6682714000007763;7316.7148863;2.499999936844688e-06;0.4998574000001099;0.5398861000003308;0.5899171999999453;0.6599450000003344;0.7900202000000718;0.9201222000001508;0.01
3;2;17;9;letter181;letter357;letter357;letter181;0;0;congruent;0.04;letter181;0.09;0.07;fullmask;0.2;arrow_left.png;down;0.6568985999992947;0.6612497999994957;7318.8989249;c;0.6898984999997992;0.698287000000164;7319.5950108;2.3000002329354174e-06;0.503066299999773;0.5430803999997806;0.5931227999999464;0.6631488000002719;0.7932349000002432;0.9233404000005976;0.01
3;2;17;10;letter181;letter357;letter357;letter181;0;0;congruent;0.04;letter357;0.09;0.07;fullmask;0.2;arrow_right.png;up;1.1409622000001036;1.1509882999998808;7322.2749409;m;0.5880050999994637;0.588138699999945;7322.8749074;2.399999175395351e-06;0.5038503999994646;0.5438697999998112;0.5938955999999962;0.6639183999996021;0.7940299999991112;0.9241208999992523;0.01
3;2;17;11;letter181;letter357;letter357;letter181;0;0;incongruent;0.04;letter181;0.09;0.07;fullmask;0.2;arrow_right.png;down;0.5268384000000879;0.5305904999995619;7324.9228638;m;0.9542760000003909;0.9584972000002381;7325.8828326;2.599999788799323e-06;0.5020391999996718;0.5420718999994278;0.5921058999992965;0.6621316000000661;0.7922172999997201;0.9223133999994388;0.01
3;2;17;12;letter181;letter357;letter357;letter181;0;0;incongruent;0.04;letter357;0.09;0.07;fullmask;0.2;arrow_left.png;up;0.6424545999998372;0.6505342000000383;7328.0512754;c;0.5896554999999353;0.5974493000003349;7328.6508463;2.499999936844688e-06;0.498196999999891;0.5381821999999374;0.5882452000005287;0.6582797000000937;0.7883467000001474;0.9185234000005948;0.01
3;2;17;13;letter181;letter357;letter357;letter181;0;0;incongruent;0.04;letter181;0.09;0.07;fullmask;0.2;arrow_right.png;down;0.6227335000003222;0.6302396000000954;7330.8028714;m;1.454529999999977;1.4591500000005908;7332.2668489;2.4000000848900527e-06;0.4984634000002188;0.5384778999996342;0.5885156999993342;0.6585955999998987;0.7886320999996315;0.9187511999998605;0.01
3;2;17;14;letter181;letter357;letter357;letter181;0;0;congruent;0.04;letter357;0.09;0.07;fullmask;0.2;arrow_right.png;up;0.74622939999972;0.7500104999999166;7334.5388684;m;0.8823202000003221;0.8886780000002545;7335.4269088;2.3000002329354174e-06;0.5003424000005907;0.5403594999997949;0.5903972000005524;0.6604320000005828;0.7904828000000634;0.9206186999999773;0.01
3;2;17;15;letter181;letter357;letter357;letter181;0;0;congruent;0.04;letter181;0.09;0.07;fullmask;0.2;arrow_left.png;down;0.6345854000001054;0.6402027000003727;7337.5788836;c;0.6004449000001841;0.608535600000323;7338.1868844;2.499999936844688e-06;0.49870610000016313;0.53872070000034;0.5887579000000187;0.6588024000002406;0.7888852999994924;0.9189940999995088;0.01
3;2;17;16;letter181;letter357;letter357;letter181;0;0;incongruent;0.04;letter357;0.09;0.07;fullmask;0.2;arrow_left.png;up;0.7590903999998773;0.7610297999999602;7340.474879;c;0.5561169000002337;0.5585892999997668;7341.034877;2.4000000848900527e-06;0.4960248999996111;0.5360352999996394;0.5860626000003322;0.6561009999995804;0.7861695000001419;0.9162663999995857;0.01
3;2;17;17;letter181;letter357;letter357;letter181;0;0;incongruent;0.04;letter357;0.09;0.07;fullmask;0.2;arrow_left.png;up;0.5885950000001685;0.5904319999999643;7343.1470448;c;0.5319977999997718;0.5376046999999744;7343.6828337;2.4000000848900527e-06;0.4978535999998712;0.5378692000003866;0.5879225999997288;0.6579550000005838;0.7880493000002389;0.9181330000001253;0.01
3;2;17;18;letter181;letter357;letter357;letter181;0;0;congruent;0.04;letter357;0.09;0.07;fullmask;0.2;arrow_right.png;down;2.194673399999374;2.2011070999997173;7347.3948463;m;0.48929099999986647;0.489625100000012;7348.0909135;2.499999936844688e-06;0.49703909999971074;0.5370505000000776;0.5870918999999049;0.6571233000004213;0.7872029999998631;0.9173006000000896;0.01
3;2;17;19;letter181;letter357;letter357;letter181;0;0;congruent;0.04;letter181;0.09;0.07;fullmask;0.2;arrow_left.png;down;0.6682972999997219;0.6702259000003323;7350.2908577;c;0.6040873000001739;0.6084229999996751;7350.8988187;2.599999788799323e-06;0.5053305999999793;0.545339100000092;0.5953596999997899;0.6654007999995883;0.7954933000000892;0.925578399999722;0.01
3;2;17;20;letter181;letter357;letter357;letter181;0;0;incongruent;0.04;letter181;0.09;0.07;fullmask;0.2;arrow_right.png;down;0.6589086999993015;0.6612740999999005;7353.0829047;m;0.8439715000004071;0.8488862000003792;7353.9310586;2.499999936844688e-06;0.5035748999998759;0.5436024000000543;0.5936111000000892;0.6636470000003101;0.7937482999996064;0.9238392999995995;0.01
3;2;17;21;letter181;letter357;letter357;letter181;0;0;incongruent;0.04;letter181;0.09;0.07;fullmask;0.2;arrow_right.png;down;0.5360627000000022;0.5396061000001282;7356.0028744;m;0.5625051999995776;0.568529899999703;7356.570865;2.599999788799323e-06;0.5045531000005212;0.5445813000005728;0.5945849999998245;0.6646363999998357;0.7947086000003765;0.924821300000076;0.01
3;2;17;22;letter181;letter357;letter357;letter181;0;0;congruent;0.04;letter181;0.09;0.07;fullmask;0.2;arrow_left.png;down;0.817066500000692;0.8207259000000704;7358.9148714;c;0.6264271000000008;0.6283787000002121;7359.5468921;2.4000000848900527e-06;0.5031520000002274;0.5431662999999389;0.5931886999997005;0.6632324000001972;0.7933007000001453;0.9234264999995503;0.01
3;2;17;23;letter181;letter357;letter357;letter181;0;0;congruent;0.04;letter357;0.09;0.07;fullmask;0.2;arrow_right.png;up;0.7429855999998836;0.7509088000006159;7361.8028878;m;0.48617319999993924;0.48786459999973886;7362.2989055;2.499999936844688e-06;0.49948089999998047;0.5395084000001589;0.5895356999999422;0.6595864999999321;0.7896622999996907;0.9197641999999178;0.01
3;2;17;24;letter181;letter357;letter357;letter181;0;1;incongruent;0.12;letter357;0.18;0.07;fullmask;0.2;arrow_left.png;up;0.608564899999692;0.6094171999993705;7364.5308206;c;0.6532162000003154;0.6593078000005335;7365.1868298;2.499999936844688e-06;0.5053178000007392;0.6253838000002361;0.6854132000007667;0.7554509999999937;0.8855320000002393;1.0156342000000222;0.01
3;2;17;25;letter181;letter357;letter357;letter181;0;0;incongruent;0.04;letter357;0.09;0.07;fullmask;0.2;arrow_left.png;up;0.6337828000005175;0.6413332000001901;7367.3468535;c;0.5905883000004906;0.5986355000004551;7367.9468493;2.4000000848900527e-06;0.49618650000047637;0.5361910000001444;0.5862412000005861;0.6562571000004027;0.7863492000005863;0.9164479000000938;0.01
3;2;17;26;letter181;letter357;letter357;letter181;0;0;incongruent;0.04;letter181;0.09;0.07;fullmask;0.2;arrow_right.png;down;0.515556899999865;0.5205213999997795;7370.0108414;m;0.6491280999998708;0.6583957999991981;7370.6668692;2.4000000848900527e-06;0.5019322999996803;0.5419317999994746;0.5919788999999582;0.6620241999999052;0.7920885999992606;0.9221913000001223;0.01
3;2;17;27;letter181;letter357;letter357;letter181;0;0;congruent;0.04;letter181;0.09;0.07;fullmask;0.2;arrow_left.png;down;0.7497880000000805;0.7499401000004582;7372.9468971;c;0.6537868000004892;0.6592878999999812;7373.6028487;2.499999936844688e-06;0.5028298999995968;0.5428542999998172;0.5928905999999188;0.662922499999695;0.7930065000000468;0.9231024999999136;0.01
3;2;17;28;letter181;letter357;letter357;letter181;0;0;incongruent;0.04;letter181;0.09;0.07;fullmask;0.2;arrow_right.png;down;0.6959749000006923;0.7000514000001203;7375.8348517;m;0.4899543999999878;0.4987232999992557;7376.3308174;2.499999936844688e-06;0.5035218000002715;0.5435476000002382;0.5936032999998133;0.663610499999777;0.7937095999996018;0.923792599999615;0.01
3;2;17;29;letter181;letter357;letter357;letter181;0;0;incongruent;0.04;letter357;0.09;0.07;fullmask;0.2;arrow_left.png;up;0.5517246999997951;0.5595586999997977;7378.4028444;c;0.54220019999957;0.5485932000001412;7378.9548184;2.499999936844688e-06;0.4968268000002354;0.5368388999995659;0.5868780000000697;0.6569039999994857;0.7869968999993944;0.9170880000001489;0.01
3;2;17;30;letter181;letter357;letter357;letter181;0;0;incongruent;0.04;letter357;0.09;0.07;fullmask;0.2;arrow_left.png;up;0.5769064000005528;0.5803685000000769;7381.0588475;c;0.9145451000003959;0.9185962999999902;7381.9787967;2.4000000848900527e-06;0.5054057000006651;0.5454352000006111;0.5954732000000149;0.6654937000002974;0.7955842999999732;0.9256900000000314;0.01
3;2;17;31;letter181;letter357;letter357;letter181;0;0;congruent;0.04;letter181;0.09;0.07;fullmask;0.2;arrow_left.png;down;0.6647652000001472;0.6712961000002906;7384.1788465;c;0.5836507000003621;0.5874781000002258;7384.7708529;2.4000000848900527e-06;0.5034503000006225;0.5434666999999536;0.5934929000004558;0.6635273000001689;0.7936133000002883;0.9237100000000282;0.01
3;2;17;32;letter181;letter357;letter357;letter181;0;0;incongruent;0.04;letter181;0.09;0.07;fullmask;0.2;arrow_right.png;down;0.6511914000002434;0.6611413000000539;7386.9469792;m;0.5880089000002044;0.5884415999998964;7387.5468824;2.599999788799323e-06;0.5021225999998933;0.5421498000005158;0.5921807000004264;0.6622114000001602;0.7922859000000244;0.922386700000061;0.01
3;2;17;33;letter181;letter357;letter357;letter181;0;0;congruent;0.04;letter357;0.09;0.07;fullmask;0.2;arrow_right.png;up;0.9107258999993064;0.9205516999991232;7389.978891;m;0.5001554000000397;0.5076891999997315;7390.4908197;2.4000000848900527e-06;0.50026489999982;0.5403078999997888;0.5903251999998247;0.6603606999997282;0.7904301999997188;0.9205332000001363;0.01
3;2;17;34;letter181;letter357;letter357;letter181;0;1;congruent;0.12;letter357;0.18;0.07;fullmask;0.2;arrow_right.png;up;0.4529699000004257;0.4598217000002478;7392.5628506;m;0.5193181999993612;0.5287393999997221;7393.0909562;2.599999788799323e-06;0.5046831999998176;0.6247671000000992;0.6848054000001866;0.7548245999996652;0.8849217999995744;1.0150206999996954;0.01
3;2;17;35;letter181;letter357;letter357;letter181;0;0;incongruent;0.04;letter181;0.09;0.07;fullmask;0.2;arrow_right.png;down;0.5390232999998261;0.5396190000001297;7395.1708926;m;0.5014375000000655;0.5086864000004425;7395.6748197;2.499999936844688e-06;0.5051450000000841;0.5451727999998184;0.5951857000000018;0.6652272999999695;0.7953026000004684;0.925418400000126;0.01
3;2;17;36;letter181;letter357;letter357;letter181;0;0;congruent;0.04;letter357;0.09;0.07;fullmask;0.2;arrow_right.png;down;0.9854012000005241;0.9902716000005967;7398.1788384;m;0.45866820000082953;0.45979090000037104;7398.8428184;2.499999936844688e-06;0.4989550000000236;0.5389691000000312;0.5890036000000691;0.6590301000005638;0.7891272000006211;0.9192384000007223;0.01
3;2;17;37;letter181;letter357;letter357;letter181;0;0;congruent;0.04;letter357;0.09;0.07;fullmask;0.2;arrow_right.png;up;0.573459900000671;0.5804575000001932;7400.9390025;m;0.48704149999957735;0.48780209999949875;7401.4348585;2.499999936844688e-06;0.5060048999994251;0.5460306999993918;0.5960458999998082;0.6660819999997329;0.796166600000106;0.926280399999996;0.01
3;2;17;38;letter181;letter357;letter357;letter181;0;0;congruent;0.04;letter181;0.09;0.07;fullmask;0.2;arrow_left.png;down;0.4299765000005209;0.4399046999997154;7403.3869068;c;0.5400873999997202;0.54914430000008;7403.9388426;2.4000000848900527e-06;0.4973916000008103;0.5374186000008194;0.5874363000002631;0.6574686000003567;0.7875702999999703;0.9176670000006197;0.01
3;2;17;39;letter181;letter357;letter357;letter181;0;0;incongruent;0.04;letter357;0.09;0.07;fullmask;0.2;arrow_left.png;up;0.47678199999973003;0.4807738999998037;7405.9548374;c;0.45803299999988667;0.4678052999997817;7406.4187972;2.4000000848900527e-06;0.5055302000000665;0.5455533999993349;0.5955669999993916;0.6656046999996761;0.795694899999944;0.9258077999993475;0.01
3;2;17;40;letter181;letter357;letter357;letter181;0;0;congruent;0.04;letter181;0.09;0.07;fullmask;0.2;arrow_left.png;down;0.5330592999998771;0.5407113000001118;7408.4829714;c;0.5905588000005082;0.5985533000002761;7409.0830192;2.4000000848900527e-06;0.49733459999970364;0.5373507000003883;0.587373899999875;0.6574110000001383;0.7874932000004264;0.9176083000002109;0.01
3;2;17;41;letter181;letter357;letter357;letter181;0;0;congruent;0.04;letter357;0.09;0.07;fullmask;0.2;arrow_right.png;up;0.943117799999527;0.9503688999993756;7411.5548314;m;0.47888740000053076;0.488745800000288;7412.0429099;2.599999788799323e-06;0.5014865000002828;0.5415084999995088;0.5915523000003304;0.6615719999999783;0.7916663999994853;0.9217749999997977;0.01
3;2;17;42;letter181;letter357;letter357;letter181;0;0;congruent;0.04;letter357;0.09;0.07;fullmask;0.2;arrow_right.png;up;0.5514281000005212;0.5604216000001543;7414.1148386;m;0.581037699999797;0.5884839999998803;7414.7068033;2.4000000848900527e-06;0.4965213000004951;0.5365438000007998;0.5865687000004982;0.6566007999999783;0.7867022000000361;0.9167987000000721;0.01
3;2;17;43;letter181;letter357;letter357;letter181;0;1;incongruent;0.12;letter181;0.18;0.07;fullmask;0.2;arrow_right.png;down;0.8851293999996415;0.8907721999994465;7417.2109246;m;0.6325285999992047;0.6383520999997927;7417.8509257;2.499999936844688e-06;0.4986795000004349;0.6187602999998489;0.6787897000003795;0.7488229000000501;0.8789220999997269;1.0090133000003334;0.01
3;2;17;44;letter181;letter357;letter357;letter181;0;0;incongruent;0.04;letter357;0.09;0.07;fullmask;0.2;arrow_left.png;up;0.5199093000001085;0.5206682999996701;7419.9068446;c;0.605279999999766;0.6084241999997175;7420.5148241;2.499999936844688e-06;0.5056856999999582;0.5457163999999466;0.5957507000002806;0.6657734000000346;0.795862500000112;0.9259707999999591;0.01
3;2;17;45;letter181;letter357;letter357;letter181;0;0;congruent;0.04;letter181;0.09;0.07;fullmask;0.2;arrow_left.png;down;0.4762275999992198;0.48076659999969706;7422.5148266;c;0.52948379999998;0.5386086000007708;7423.050791;2.4000000848900527e-06;0.4980676000004678;0.5380549000001338;0.5881171999999424;0.6581452999998874;0.7882282999999006;0.9183217999998305;0.01
3;2;17;46;letter181;letter357;letter357;letter181;0;0;incongruent;0.04;letter181;0.09;0.07;fullmask;0.2;arrow_right.png;down;0.7824942999995983;0.7909449999997378;7425.3628251;m;0.5496348000006037;0.5585822000002736;7425.9228486;2.499999936844688e-06;0.5036229999996067;0.5436470000004192;0.5936748000003718;0.6637065000004441;0.7937884000002668;0.9239133000000948;0.01
3;2;17;47;letter181;letter357;letter357;letter181;0;0;incongruent;0.04;letter357;0.09;0.07;fullmask;0.2;arrow_left.png;up;0.6541773999997531;0.6600711999999476;7428.1068482;c;0.6403778000003513;0.6494437000001199;7428.7550178;2.499999936844688e-06;0.5012615999994523;0.5412823999995453;0.591296899999179;0.6613484999998036;0.7914226999992025;0.921534299999621;0.01
3;2;17;48;letter181;letter357;letter357;letter181;0;0;congruent;0.04;letter181;0.09;0.07;fullmask;0.2;arrow_left.png;down;0.5447567000001072;0.5505477000006067;7430.8188173;c;0.6402980000002572;0.6483177999998588;7431.4668422;2.499999936844688e-06;0.4969426999996358;0.5369706000001315;0.586998599999788;0.6570250999993732;0.7871094000001904;0.9172062999996342;0.01
3;2;17;49;letter181;letter357;letter357;letter181;0;0;incongruent;0.04;letter181;0.09;0.07;fullmask;0.2;arrow_right.png;down;0.5103060000001278;0.5196363999993991;7433.5068404;m;0.5567215000000942;0.5585509000002276;7434.0748367;2.3000002329354174e-06;0.4985801000002539;0.5385612999998557;0.5886280000004263;0.6586569999999483;0.788743500000237;0.9188449000002947;0.01
3;2;17;50;letter181;letter357;letter357;letter181;0;0;congruent;0.04;letter357;0.09;0.07;fullmask;0.2;arrow_right.png;up;0.5654169999997976;0.5704982999995991;7436.1629941;m;0.5291519000002154;0.5387140000002546;7436.6990622;2.4000000848900527e-06;0.4982294000001275;0.5382528000000093;0.5882774000001518;0.6582969000000958;0.7883749000002354;0.9184986999998728;0.01
3;2;17;51;letter181;letter357;letter357;letter181;0;0;incongruent;0.04;letter181;0.09;0.07;fullmask;0.2;arrow_right.png;down;0.4349659999998039;0.43984699999964505;7438.6748373;m;0.5771398000006229;0.5785106000002997;7439.2587921;2.499999936844688e-06;0.5059065999994345;0.5459246000000348;0.5959493000000293;0.665982399999848;0.7960664000001998;0.9261729999998352;0.01
3;2;17;52;letter181;letter357;letter357;letter181;0;0;incongruent;0.04;letter357;0.09;0.07;fullmask;0.2;arrow_left.png;down;0.8217097999995531;0.8308640999994168;7441.6028078;c;0.3834470000001602;0.3909992999997485;7442.19483;2.499999936844688e-06;0.4969590999999127;0.5369835000001331;0.5869970000003377;0.6570357999999032;0.7871171999995568;0.9172304000003351;0.01
3;2;18;1;letter181;letter357;letter357;letter181;0;0;incongruent;0.04;letter181;0.09;0.07;fullmask;0.2;arrow_right.png;down;0.500045499999942;0.5007633999994141;7472.6907877;m;0.4453659000000698;0.4488569000004645;7473.1388053;2.8000004022032954e-06;0.4959656000000905;0.535976699999992;0.5860327999998844;0.6560365000004822;0.7861294000003909;0.9162246000005325;0.01
3;2;18;2;letter181;letter357;letter357;letter181;0;0;congruent;0.04;letter357;0.09;0.07;fullmask;0.2;arrow_right.png;up;0.6044832999996288;0.6105559999996331;7475.2670186;m;0.4479421000005459;0.44886010000027454;7475.7228714;2.499999936844688e-06;0.4965627999999924;0.5365867999998954;0.5866257999996378;0.6566603000001123;0.7867471999998088;0.9168375999997807;0.01
3;2;18;3;letter181;letter357;letter357;letter181;0;0;congruent;0.04;letter181;0.09;0.07;fullmask;0.2;arrow_left.png;down;0.4308396999995239;0.4408815999995568;7477.6748779;c;0.4999383000003945;0.5086898999998084;7478.1867989;2.4000000848900527e-06;0.49428700000044046;0.5343133000005764;0.5843373000006977;0.6543748000003689;0.784461199999896;0.9145661000002292;0.01
3;2;18;4;letter181;letter357;letter357;letter181;0;1;incongruent;0.12;letter357;0.18;0.07;fullmask;0.2;arrow_left.png;up;0.5010943000006591;0.5106805000004897;7480.3068085;c;0.4284746000002997;0.42882490000010876;7480.746803;2.499999936844688e-06;0.5022851000003357;0.6223434000003181;0.682394800000111;0.7524207000005845;0.8824773000005735;1.012615900000128;0.01
3;2;18;5;letter181;letter357;letter357;letter181;0;0;incongruent;0.04;letter181;0.09;0.07;fullmask;0.2;arrow_right.png;down;0.4528198000007251;0.4598128000006909;7482.7310745;m;0.4548657000004823;0.45881850000023405;7483.19477;2.600000698294025e-06;0.5037763000000268;0.5438002999999298;0.5938187000001562;0.663853800000652;0.7939421999999468;0.9240428000002794;0.01
3;2;18;6;letter181;letter357;letter357;letter181;0;0;incongruent;0.04;letter181;0.09;0.07;fullmask;0.2;arrow_right.png;down;0.523082699999577;0.5296429999998509;7485.2428118;m;0.41547320000063337;0.4189295000005586;7485.6667857;2.4000000848900527e-06;0.4985587999999552;0.5386011000000508;0.5886295999998765;0.6586541000006036;0.7887463000006392;0.9188485000004221;0.01
3;2;18;7;letter181;letter357;letter357;letter181;0;0;incongruent;0.04;letter357;0.09;0.07;fullmask;0.2;arrow_left.png;down;0.5877827999993315;0.590325699999994;7487.7788771;c;0.5728010000002541;0.5794596000005185;7488.5547759;2.499999936844688e-06;0.5025626999995438;0.5425771000000168;0.5926173999996536;0.6626525000001493;0.7927374000000782;0.9228327000000718;0.01
3;2;18;8;letter181;letter357;letter357;letter181;0;0;congruent;0.04;letter357;0.09;0.07;fullmask;0.2;arrow_right.png;up;0.8695717000000514;0.8797041999996509;7490.9629333;m;0.41201840000030643;0.419030300000486;7491.3869155;2.499999936844688e-06;0.5034808000000339;0.5435139000001072;0.5935582000001887;0.6635884000006627;0.7936708000006547;0.9237579000000551;0.01
3;2;18;9;letter181;letter357;letter357;letter181;0;0;incongruent;0.04;letter357;0.09;0.07;fullmask;0.2;arrow_left.png;up;0.5363857000002099;0.5404822999998942;7493.4509005;c;0.6258547999996154;0.6283771999997043;7494.0827966;2.4000000848900527e-06;0.49979910000001837;0.539827100000366;0.5898590000006152;0.659886400000687;0.7899611000002551;0.9200662000002922;0.01
3;2;18;10;letter181;letter357;letter357;letter181;0;0;congruent;0.04;letter181;0.09;0.07;fullmask;0.2;arrow_left.png;down;0.4103445000000647;0.419937800000298;7496.0268139;c;0.5724168000006102;0.5785095999999612;7496.610757;2.4000000848900527e-06;0.5042232999994667;0.5442388999999821;0.5942710999997871;0.6643140999995012;0.7943815999997241;0.9244840999999724;0.01
3;2;18;11;letter181;letter357;letter357;letter181;0;0;congruent;0.04;letter357;0.09;0.07;fullmask;0.2;arrow_right.png;up;0.5292417999999088;0.5307441000004474;7498.6670176;m;0.4605431999998473;0.4679017999997086;7499.1309488;2.4000000848900527e-06;0.5034563999997772;0.5434824000003573;0.5935070000004998;0.6635457000002134;0.7936299000002691;0.9237362000003486;0.01
3;2;18;12;letter181;letter357;letter357;letter181;0;0;incongruent;0.04;letter181;0.09;0.07;fullmask;0.2;arrow_right.png;down;0.399615399999675;0.4009883999997328;7501.0589346;m;0.5565183000007892;0.5575611000003846;7501.6187661;2.2999993234407157e-06;0.5044182999999975;0.5444477000000916;0.5944660999994085;0.6645042000000103;0.7945822000001499;0.9247089999998934;0.01
3;2;18;13;letter181;letter357;letter357;letter181;0;0;congruent;0.04;letter357;0.09;0.07;fullmask;0.2;arrow_right.png;up;0.6617007999993803;0.6702194999998028;7503.8027901;m;0.3894715999995242;0.3989872000001924;7504.202716;2.4000000848900527e-06;0.49939650000033;0.5394167000004018;0.5894729999999981;0.6594728999998551;0.7895640999995521;0.9196609000000535;0.01
3;2;18;14;letter181;letter357;letter357;letter181;0;0;congruent;0.04;letter181;0.09;0.07;fullmask;0.2;arrow_left.png;down;0.32555240000056074;0.3300423000000592;7506.0587965;c;0.6735289999996894;0.6782692999995561;7506.7387566;2.499999936844688e-06;0.5010300000003554;0.5410398000003624;0.59109030000036;0.6611023000004934;0.7912131000002773;0.9212938000000577;0.01
3;2;18;15;letter181;letter357;letter357;letter181;0;0;incongruent;0.04;letter357;0.09;0.07;fullmask;0.2;arrow_left.png;up;0.5601054999997359;0.5606394999995246;7508.8349754;c;0.7414125000004788;0.7480617999999595;7509.5787778;2.4000000848900527e-06;0.5030476000001727;0.5430813000002672;0.5930964999997741;0.6631519000002299;0.7932142999998177;0.9233202000004894;0.01
3;2;18;16;letter181;letter357;letter357;letter181;0;0;incongruent;0.04;letter181;0.09;0.07;fullmask;0.2;arrow_right.png;down;0.46231859999988956;0.4698039000004428;7511.5787813;m;0.5345772000000579;0.5385765000000902;7512.1228195;2.499999936844688e-06;0.5052496000007523;0.545276400000148;0.5952921000007336;0.6653344000005745;0.7954273000004832;0.9255267000007734;0.01
3;2;18;17;letter181;letter357;letter357;letter181;0;0;congruent;0.04;letter181;0.09;0.07;fullmask;0.2;arrow_left.png;down;0.7132861999998568;0.7211317999999665;7514.3707821;c;0.4621855000004871;0.467799300000479;7514.8427541;2.499999936844688e-06;0.5038117999993119;0.5438244999995732;0.5938411999995878;0.6638856999998097;0.7939650999996957;0.9241143999997803;0.01
3;2;18;18;letter181;letter357;letter357;letter181;0;0;congruent;0.04;letter181;0.09;0.07;fullmask;0.2;arrow_left.png;down;0.45726159999958327;0.46078919999945356;7516.8268706;c;0.5467710000002626;0.5486940000000686;7517.3790061;2.3000002329354174e-06;0.4982671999996455;0.5382681999999477;0.5883026999999856;0.6583388999997624;0.7884248000000298;0.9185161999994307;0.01
3;2;18;19;letter181;letter357;letter357;letter181;0;0;incongruent;0.04;letter357;0.09;0.07;fullmask;0.2;arrow_left.png;up;0.45395300000018324;0.4608264999997118;7519.3548645;c;0.5031130999996094;0.5086877000003369;7519.8667952;2.499999936844688e-06;0.5033064999997805;0.5433168999998088;0.593348700000206;0.6633951000003435;0.793464600000334;0.9235786999997799;0.01
3;2;18;20;letter181;letter357;letter357;letter181;0;0;incongruent;0.04;letter357;0.09;0.07;fullmask;0.2;arrow_left.png;up;0.4504995000006602;0.4507636000007551;7521.8429205;c;0.7735461000002033;0.7789751000000251;7522.6187496;2.599999788799323e-06;0.4979401999999027;0.5379229000000123;0.5879730999995445;0.6580043999992995;0.7880859999995664;0.9181947999995828;0.01
3;2;18;21;letter181;letter357;letter357;letter181;0;0;congruent;0.04;letter357;0.09;0.07;fullmask;0.2;arrow_right.png;up;0.548390300000392;0.5505522000003111;7524.6828304;m;0.49195010000039474;0.49881809999988036;7525.1787745;2.4000000848900527e-06;0.49643990000004123;0.5364731999998185;0.586495499999728;0.6565411000001404;0.7866141999993488;0.9167231000001266;0.01
3;2;18;22;letter181;letter357;letter357;letter181;0;0;congruent;0.04;letter357;0.09;0.07;fullmask;0.2;arrow_right.png;up;0.5282210000004852;0.5297420000006241;7527.2347656;m;0.580545699999675;0.5884765000000698;7527.8187745;2.3000002329354174e-06;0.500550600000679;0.5407810000006066;0.5905891000002157;0.6606146000003719;0.7907069000002593;0.9208168000004662;0.01
3;2;18;23;letter181;letter357;letter357;letter181;0;0;incongruent;0.04;letter181;0.09;0.07;fullmask;0.2;arrow_right.png;down;0.534353199999714;0.5396155999997063;7529.8828158;m;0.8008039999995162;0.8088871999998446;7530.6908242;2.599999788799323e-06;0.4944929000002958;0.5345001000005141;0.5845386999999391;0.6545754999997371;0.7846568000004481;0.9147522000002937;0.01
3;2;18;24;letter181;letter357;letter357;letter181;0;1;incongruent;0.12;letter181;0.18;0.07;fullmask;0.2;arrow_right.png;down;0.6827004000006127;0.6902142999997523;7533.0027888;m;0.5108221999998932;0.5188459999999395;7533.5229819;2.4000000848900527e-06;0.5051554000001488;0.6252258000004076;0.6852634000006219;0.7552998000001026;0.8853767000000516;1.0155008000001544;0.01
3;2;18;25;letter181;letter357;letter357;letter181;0;0;congruent;0.04;letter181;0.09;0.07;fullmask;0.2;arrow_left.png;down;0.4712758000005124;0.48075880000033067;7535.5227671;c;0.4927038000005268;0.4977271000007022;7536.0267916;2.499999936844688e-06;0.5028546000003189;0.5428768000001583;0.5929303000002619;0.6629460000003746;0.7930324999997538;0.9231258999998317;0.01
3;2;18;26;letter181;letter357;letter357;letter181;0;0;incongruent;0.04;letter357;0.09;0.07;fullmask;0.2;arrow_left.png;up;0.6572572999994009;0.6602435999993759;7538.210786;c;0.6750459999993836;0.6781939999991664;7538.8908039;2.4000000848900527e-06;0.4987574000006134;0.5387625000003027;0.5887872000002972;0.6588257000003068;0.7888964000003398;0.9190194000002521;0.01
3;2;18;27;letter181;letter357;letter357;letter181;0;0;incongruent;0.04;letter357;0.09;0.07;fullmask;0.2;arrow_left.png;down;0.7321694000002026;0.7411806999998589;7541.1469721;c;0.4076525999998921;0.41103209999982937;7541.7629354;2.499999936844688e-06;0.49595959999987826;0.5359772000001612;0.5860169999996288;0.6560499999995955;0.7861242999997557;0.9162114000000656;0.01
3;2;18;28;letter181;letter357;letter357;letter181;0;0;incongruent;0.04;letter357;0.09;0.07;fullmask;0.2;arrow_left.png;up;0.49219319999974687;0.500741900000321;7543.7789704;c;0.5654207999996288;0.568648899999971;7544.3548382;2.4000000848900527e-06;0.49949589999960153;0.5395111999996516;0.5895336000003226;0.6595697000002474;0.7896764999995867;0.9197562999997899;0.01
3;2;18;29;letter181;letter357;letter357;letter181;0;0;congruent;0.04;letter181;0.09;0.07;fullmask;0.2;arrow_left.png;down;0.5004392999999254;0.5005621999998766;7546.3788075;c;0.5498351999995066;0.5585561999996571;7546.9307308;2.4000000848900527e-06;0.4998941999992894;0.5399065999999948;0.5899337999999261;0.6599772999998095;0.7900348999992275;0.9201602999992247;0.01
3;2;18;30;letter181;letter357;letter357;letter181;0;0;incongruent;0.04;letter181;0.09;0.07;fullmask;0.2;arrow_right.png;down;0.46055619999970077;0.4707077000002755;7548.930839;m;0.4758678999996846;0.4778518000002805;7549.4187973;2.4000000848900527e-06;0.5032294000002366;0.5432610000007116;0.5932832000007693;0.6633277999999336;0.7934009999999034;0.9235631999999896;0.01
3;2;18;31;letter181;letter357;letter357;letter181;0;0;incongruent;0.04;letter357;0.09;0.07;fullmask;0.2;arrow_left.png;up;0.514698099999805;0.5197846000000936;7551.4668787;c;0.6091018999995867;0.6193898000001354;7552.0828863;2.499999936844688e-06;0.5001831999998103;0.5402047999996284;0.5902280999998766;0.6602670000002036;0.7903402000001734;0.9204490000001897;0.01
3;2;18;32;letter181;letter357;letter357;letter181;0;0;incongruent;0.04;letter357;0.09;0.07;fullmask;0.2;arrow_left.png;up;0.5412271000004694;0.5505757999999332;7554.1547275;c;0.5168432999998913;0.518667600000299;7554.6828599;2.599999788799323e-06;0.49458880000020145;0.5346108000003369;0.5846327999997811;0.6546570000000429;0.784751199999846;0.9148506999999881;0.01
3;2;18;33;letter181;letter357;letter357;letter181;0;0;incongruent;0.04;letter181;0.09;0.07;fullmask;0.2;arrow_right.png;down;0.4818974999998318;0.49074709999968036;7556.706781;m;0.5411959000002753;0.5485847999998441;7557.2587684;2.4000000848900527e-06;0.5057917000003727;0.5458101000003808;0.5958448000001226;0.665868699999919;0.7959541999998692;0.9260629999998855;0.01
3;2;18;34;letter181;letter357;letter357;letter181;0;0;congruent;0.04;letter181;0.09;0.07;fullmask;0.2;arrow_left.png;down;0.4955362000000605;0.4997132000007696;7559.2827664;c;0.5139001999996253;0.5186733000000459;7559.8027764;2.499999936844688e-06;0.49885639999956766;0.5388918999997259;0.588912000000164;0.6589640000001964;0.7890191999995295;0.9191181999995024;0.01
3;2;18;35;letter181;letter357;letter357;letter181;0;0;congruent;0.04;letter357;0.09;0.07;fullmask;0.2;arrow_right.png;down;1.218695900000057;1.2207958999997572;7562.5467672;m;0.2294873999999254;0.23043450000022858;7562.9787989;2.600000698294025e-06;0.4986062000007223;0.538612600000306;0.5886399999999412;0.6586858000000575;0.7887667000004512;0.9188866000004055;0.01
3;2;18;36;letter181;letter357;letter357;letter181;0;0;congruent;0.04;letter181;0.09;0.07;fullmask;0.2;arrow_left.png;down;0.4377081000002363;0.43983879999996134;7564.9387181;c;0.49997110000003886;0.5086993999993865;7565.4427548;2.2999993234407157e-06;0.4965392999993128;0.5365396999995937;0.5866022999998677;0.6566224999996848;0.7867146999997203;0.9168102999992698;0.01
3;2;18;37;letter181;letter357;letter357;letter181;0;0;incongruent;0.04;letter181;0.09;0.07;fullmask;0.2;arrow_right.png;down;0.5205808000000616;0.5304999999998472;7567.4827895;m;0.42004439999982424;0.42790639999930136;7567.9146952;2.70000055024866e-06;0.49727619999976014;0.5372982999997475;0.5873474999998507;0.6573841999997967;0.7874573999997665;0.9175721000001431;0.01
3;2;18;38;letter181;letter357;letter357;letter181;0;0;congruent;0.04;letter357;0.09;0.07;fullmask;0.2;arrow_right.png;up;0.9346156999999948;0.9403997999997955;7570.3787572;m;0.42423760000019684;0.4279046000001472;7570.810721;2.4000000848900527e-06;0.4977865999999267;0.5378096999993431;0.5878494999997201;0.6578749000000244;0.7879526999995505;0.9180623000002015;0.01
3;2;18;39;letter181;letter357;letter357;letter181;0;1;congruent;0.12;letter181;0.18;0.07;fullmask;0.2;arrow_left.png;down;0.41671299999961775;0.4200073000001794;7572.8427666;c;0.8508320999999341;0.858761799999229;7573.6987581;2.4000000848900527e-06;0.49911169999995764;0.6191847999998572;0.6792255000000296;0.7492550999995728;0.8793365999999878;1.0094368000000031;0.01
3;2;18;40;letter181;letter357;letter357;letter181;0;0;congruent;0.04;letter357;0.09;0.07;fullmask;0.2;arrow_right.png;up;0.7514542999997502;0.7610123000004023;7575.9787682;m;0.46845050000047195;0.477770700000292;7576.458719;2.3000002329354174e-06;0.49811769999996613;0.5381343000008201;0.5881629000004978;0.6581937000000835;0.7883065000005445;0.918399700000009;0.01
3;2;18;41;letter181;letter357;letter357;letter181;0;0;incongruent;0.04;letter181;0.09;0.07;fullmask;0.2;arrow_right.png;down;0.4378546000007191;0.44098610000037297;7578.4268545;m;0.67505809999966;0.6783445000000938;7579.1068748;2.499999936844688e-06;0.49816009999995003;0.538209000000279;0.5882107000006727;0.6582469000004494;0.7883326000001034;0.9184424000004583;0.01
3;2;18;42;letter181;letter357;letter357;letter181;0;0;congruent;0.04;letter181;0.09;0.07;fullmask;0.2;arrow_left.png;down;0.6204328000003443;0.6211812000001373;7581.2508841;c;0.5813576000000467;0.5885746000003564;7581.8350055;2.5000008463393897e-06;0.5002311000007467;0.5402630000007775;0.5902779000007286;0.6603115000007165;0.7903923000003488;0.9205079000003025;0.01
3;2;18;43;letter181;letter357;letter357;letter181;0;0;congruent;0.04;letter357;0.09;0.07;fullmask;0.2;arrow_right.png;up;0.8546345000004294;0.8606785000001764;7584.2269512;m;0.4719792999994752;0.4789491999999882;7584.7069143;2.499999936844688e-06;0.5044832000003225;0.5445072000002256;0.5945332999999664;0.6645639999997002;0.7946505999998408;0.9247636999998576;0.01
3;2;18;44;letter181;letter357;letter357;letter181;0;0;incongruent;0.04;letter181;0.09;0.07;fullmask;0.2;arrow_right.png;down;0.4966623000000254;0.5007218999999168;7586.7307327;m;0.5219836999995096;0.528643199999351;7587.2587144;2.499999936844688e-06;0.49607769999965967;0.5360756999998557;0.5861264999994091;0.6561586999996507;0.7862378999998327;0.9163567999994484;0.01
3;2;18;45;letter181;letter357;letter357;letter181;0;0;incongruent;0.04;letter357;0.09;0.07;fullmask;0.2;arrow_left.png;up;0.5529882999999245;0.5605161000003136;7589.3387635;c;0.686451899999156;0.6891990999993141;7590.0347004;2.4000000848900527e-06;0.5013533000001189;0.5413719999996829;0.5914152999994258;0.6614370999996027;0.7915222999999969;0.9216233999995893;0.01
3;2;18;46;letter181;letter357;letter357;letter181;0;0;incongruent;0.04;letter357;0.09;0.07;fullmask;0.2;arrow_left.png;up;0.7232842999992499;0.7311067999999068;7592.2907724;c;0.4782121999996889;0.48774560000038036;7592.7787468;2.3000002329354174e-06;0.5018057999996017;0.5418128999999681;0.5918456999997943;0.661880900000142;0.7919738999999026;0.9220827999997709;0.01
3;2;18;47;letter181;letter357;letter357;letter181;0;0;congruent;0.04;letter181;0.09;0.07;fullmask;0.2;arrow_left.png;down;0.3894706999999471;0.3909782000000632;7594.6988836;c;0.5886483000003864;0.5984537000003911;7595.2908742;2.9000002541579306e-06;0.49715960000048653;0.537188100000094;0.5872055999998338;0.6572478999996747;0.7873371000005136;0.9174308000001474;0.01
3;2;18;48;letter181;letter357;letter357;letter181;0;0;congruent;0.04;letter357;0.09;0.07;fullmask;0.2;arrow_right.png;up;0.6670039000000543;0.6702234000003955;7597.4987486;m;0.45079470000018773;0.4578205000007074;7597.9547015;2.399999175395351e-06;0.5049868999994942;0.5450086999999257;0.5950444000000061;0.6650646999996752;0.7951582999994571;0.9252557999998317;0.01
3;2;18;49;letter181;letter357;letter357;letter181;0;1;congruent;0.12;letter357;0.18;0.07;fullmask;0.2;arrow_right.png;up;0.4214137999997547;0.4298358999994889;7599.9947498;m;0.445681300000615;0.44893060000049445;7600.4507872;2.599999788799323e-06;0.49899120000009134;0.619070699999611;0.6790998999995281;0.7491455999997925;0.8792176999995718;1.0093176999998832;0.01
3;2;18;50;letter181;letter357;letter357;letter181;0;0;congruent;0.04;letter181;0.09;0.07;fullmask;0.2;arrow_left.png;down;0.38612860000012006;0.3900261999997383;7602.3707556;c;0.5542220999996061;0.5586733000000095;7602.9307879;2.499999936844688e-06;0.5029372999997577;0.5429534999993848;0.592990799999825;0.6630600999997114;0.7931009999992966;0.9232116999992286;0.01
3;2;18;51;letter181;letter357;letter357;letter181;0;0;congruent;0.04;letter357;0.09;0.07;fullmask;0.2;arrow_right.png;up;0.458867299999838;0.46082509999996546;7604.914803;m;0.5720007999998415;0.5785022999998546;7605.4907066;2.4000000848900527e-06;0.49618180000015855;0.5362169999998514;0.586216499999864;0.656274800000574;0.7863477999999304;0.9164728000005198;0.01
3;2;18;52;letter181;letter357;letter357;letter181;0;0;incongruent;0.04;letter181;0.09;0.07;fullmask;0.2;arrow_right.png;down;0.4484083000006649;0.4498183000005156;7607.4667249;m;0.50060780000058;0.5086825000007593;7607.9706893;2.3000002329354174e-06;0.49859900000046764;0.5386059000002206;0.5886563000003662;0.6586810999997397;0.7887722000004942;0.9188695000002554;0.01
