subjnr;loop_m;blocknr;trialnr;cue_left_learn;cue_right_learn; congruence;cue_dur;cue;SOA;mask_dur;mask;target_dur;target;RW_dur;response;RT;kb_rt;response_absolute; fix_onset;cue_onset;cue_offset;mask_onset;mask_offset;target_offset;blank_onset;response_during_mask;response_during_targetalone;response_during_RW;response_during_blank;frame_dur
2;1;1;1;letter181;letter357;congruent;0.04;letter357;0.05;0.07;fullmask;0.3;arrow_right.png;0;m;0.3546095000056084;0.3600136000022758;255667.732664;2.5999906938523054e-06;0.4969383999996353;0.5369623999868054;0.5487771999905817;0.6185084999888204;0.8488968999881763;0.8489034000085667;0;0;0;1;0.01
2;1;1;2;letter181;letter357;congruent;0.04;letter181;0.05;0.07;fullmask;0.3;arrow_left.png;0;c;0.2319668999989517;0.2402779000112787;255669.4606188;2.7999922167509794e-06;0.5030671999847982;0.5430886999820359;0.5543236999947112;0.625087699998403;0.7946003999968525;0.794602699985262;0;1;0;0;0.01
2;1;1;3;letter181;letter357;congruent;0.04;letter181;0.05;0.07;fullmask;0.3;arrow_left.png;0;c;0.31476770000881515;0.3202125999960117;255671.2046122;2.900022082030773e-06;0.4950035000219941;0.5350048000109382;0.546391300013056;0.6162048000260256;0.8465924000192899;0.8465993000136223;0;0;0;1;0.01
2;1;1;4;letter181;letter357;congruent;0.04;letter357;0.05;0.07;fullmask;0.3;arrow_right.png;0;m;0.20897340000374243;0.21045779998530634;255672.8606524;2.6999914553016424e-06;0.4950922999996692;0.535115999984555;0.5471793999895453;0.6169746000086889;0.7576400999969337;0.7576430999906734;0;1;0;0;0.01
2;1;1;5;letter181;letter357;congruent;0.04;letter357;0.05;0.07;fullmask;0.3;arrow_right.png;0;m;0.3018566000100691;0.3101905999938026;255674.6046103;2.4999899324029684e-06;0.49582109999028035;0.5358574999845587;0.5479165999859106;0.6176941999874543;0.8480794999923091;0.8480867999896873;0;0;0;1;0.01
2;1;1;6;letter181;letter357;congruent;0.04;letter181;0.05;0.07;fullmask;0.3;arrow_left.png;0;c;0.2974304000090342;0.3002159000025131;255676.3406044;2.6999914553016424e-06;0.49984089998179115;0.5398619000043254;0.5512445000058506;0.6210203999944497;0.8514615999883972;0.8514637000043876;0;1;0;0;0.01
2;1;1;7;letter181;letter357;congruent;0.04;letter181;0.05;0.07;fullmask;0.3;arrow_left.png;0;c;0.3222154000250157;0.3301209000055678;255678.1166885;2.500019036233425e-06;0.4946790000249166;0.5346638000046369;0.5462514000246301;0.6160203000181355;0.8463986999995541;0.8464054000214674;0;0;0;1;0.01
2;1;1;8;letter181;letter357;congruent;0.04;letter357;0.05;0.07;fullmask;0.3;arrow_right.png;0;m;0.2885189999942668;0.2893309999781195;255679.8446834;2.6999914553016424e-06;0.49511920000077225;0.5351295000000391;0.5472522999916691;0.6171024999930523;0.836577899986878;0.8365801000036299;0;1;0;0;0.01
2;1;1;9;letter181;letter357;congruent;0.04;letter357;0.05;0.07;fullmask;0.3;arrow_right.png;0;m;0.2775551000086125;0.28028590002213605;255681.5649195;2.3999891709536314e-06;0.5008754000009503;0.5408969999989495;0.55310940000345;0.6227862999949139;0.8333981999894604;0.8334049000113737;0;1;0;0;0.01
2;1;1;10;letter181;letter357;congruent;0.04;letter181;0.05;0.07;fullmask;0.3;arrow_left.png;0;m;0.2621471000020392;0.2693505999923218;255683.2605531;2.5999906938523054e-06;0.49976810000953265;0.5395009999920148;0.5516576000081841;0.6215685000061058;0.821007999998983;0.8210102000157349;0;1;0;0;0.01
2;1;1;11;letter181;letter357;congruent;0.04;letter181;0.05;0.07;fullmask;0.3;arrow_left.png;0;c;0.3050999999977648;0.310145299998112;255685.204698;2.6999914553016424e-06;0.49741399998310953;0.5374205999833066;0.5495383999950718;0.6192659999942407;0.8496521999768447;0.8496589999995194;0;0;0;1;0.01
2;1;1;12;letter181;letter357;congruent;0.04;letter357;0.05;0.07;fullmask;0.3;arrow_right.png;0;m;0.267974399990635;0.27040629999828525;255686.9085968;2.6999914553016424e-06;0.4965599999995902;0.5365825000044424;0.5486051999905612;0.6183744999871124;0.8190213000052609;0.8190283000003546;0;1;0;0;0.01
2;1;1;13;letter181;letter357;congruent;0.04;letter181;0.05;0.07;fullmask;0.3;arrow_left.png;0;c;0.27099369998904876;0.2802817999909166;255688.6128151;2.600019797682762e-06;0.4980385000235401;0.5380654000036884;0.550204200000735;0.6198953000130132;0.8304890000144951;0.8304955000057817;0;1;0;0;0.01
2;1;1;14;letter181;letter357;congruent;0.04;letter181;0.05;0.07;fullmask;0.3;arrow_left.png;0;c;0.279785200022161;0.2892424000019673;255690.33269;2.6999914553016424e-06;0.5022882999910507;0.5422907999891322;0.5544133000075817;0.6241873000108171;0.8436568999895826;0.8436591000063345;0;1;0;0;0.01
2;1;1;15;letter181;letter357;congruent;0.04;letter357;0.05;0.07;fullmask;0.3;arrow_right.png;0;m;0.2646307999966666;0.26929920000839047;255692.0686022;3.0999945010989904e-06;0.5039599000010639;0.5439765999908559;0.5560342000098899;0.6258072000055108;0.8253344999975525;0.8253366000135429;0;1;0;0;0.01
2;1;1;16;letter181;letter357;congruent;0.04;letter181;0.05;0.07;fullmask;0.3;arrow_left.png;0;c;0.25838409998686984;0.26023099999292754;255693.7725886;2.8999929782003164e-06;0.49890659999800846;0.5389265000121668;0.5501183999876957;0.6208026999956928;0.8103489000059199;0.8103509999928065;0;1;0;0;0.01
2;1;1;17;letter181;letter357;congruent;0.04;letter181;0.05;0.07;fullmask;0.3;arrow_left.png;0;c;0.30646590000833385;0.3092328000057023;255695.5326996;2.800021320581436e-06;0.4966489000071306;0.5364143000042532;0.5485316000122111;0.618444299994735;0.8477367000014056;0.8477437999972608;0;0;0;1;0.01
2;1;1;18;letter181;letter357;congruent;0.04;letter357;0.05;0.07;fullmask;0.3;arrow_right.png;0;m;0.2312552999937907;0.23940039999433793;255697.2286637;2.600019797682762e-06;0.503119400003925;0.5431496000092011;0.5553128000174183;0.6250100000179373;0.7947161000047345;0.7947227999975439;0;1;0;0;0.01
2;1;1;19;letter181;letter357;congruent;0.04;letter181;0.05;0.07;fullmask;0.3;arrow_left.png;0;c;0.21015850000549108;0.21943159998045303;255698.9085871;2.6999914553016424e-06;0.49824630000512116;0.5382689999823924;0.5503522999933921;0.6201280999812298;0.7697848999814596;0.76978699999745;0;1;0;0;0.01
2;1;1;20;letter181;letter357;congruent;0.04;letter357;0.05;0.07;fullmask;0.3;arrow_right.png;0;m;0.2698404000257142;0.27030900001409464;255700.6286749;2.500019036233425e-06;0.5017168000049423;0.5417387000052258;0.5531745000043884;0.623080800025491;0.8234832000161987;0.8234853000030853;0;1;0;0;0.01
2;1;1;21;letter181;letter357;congruent;0.04;letter357;0.05;0.07;fullmask;0.3;arrow_right.png;0;c;0.18210639999597333;0.189523899985943;255702.2525837;2.9999937396496534e-06;0.49696220000623725;0.536978399992222;0.5489500999974553;0.618726799992146;0.7384751999925356;0.7384773000085261;0;1;0;0;0.01
2;1;1;22;letter181;letter357;congruent;0.04;letter357;0.05;0.07;fullmask;0.3;arrow_right.png;0;m;0.2509779999963939;0.2602634000068065;255704.1727412;2.7999922167509794e-06;0.5028927999956068;0.5429121000051964;0.5549933000002056;0.6246882999839727;0.8152546999917831;0.8152587999938987;0;1;0;0;0.01
2;1;1;23;letter181;letter357;congruent;0.04;letter357;0.05;0.07;fullmask;0.3;arrow_right.png;0;c;0.1345973999996204;0.14064110000617802;255705.7565837;2.4999899324029684e-06;0.4983060999948066;0.5383498999872245;0.5495357000036165;0.6203073000069708;0.6901780999905895;0.6901801000058185;0;1;0;0;0.01
2;1;1;24;letter181;letter357;congruent;0.04;letter181;0.05;0.07;fullmask;0.3;arrow_left.png;0;c;0.2726050000055693;0.2802592000225559;255707.6766253;2.4999899324029684e-06;0.49614889998338185;0.5361685999960173;0.5482622999988962;0.6180251999758184;0.8285221999976784;0.8285243999853265;0;1;0;0;0.01
2;1;1;25;letter181;letter357;congruent;0.04;letter181;0.05;0.07;fullmask;0.3;arrow_left.png;0.13;c;0.35434190000523813;0.36004319999483414;255730.0525601;2.6999914553016424e-06;0.49842630000784993;0.5384490999858826;0.5504214999964461;0.620187900000019;0.850572800001828;1.1088122999935877;0;0;1;0;0.01
2;1;1;26;letter181;letter357;congruent;0.04;letter181;0.05;0.07;fullmask;0.3;arrow_left.png;0.13;c;0.4678476999979466;0.47066250001080334;255732.1565671;2.700020559132099e-06;0.49819350001052953;0.5382090000202879;0.5494154000189155;0.620095600024797;0.8504813000035938;0.9801280000247061;0;0;0;1;0.01
2;1;1;27;letter181;letter357;congruent;0.04;letter357;0.05;0.07;fullmask;0.3;arrow_right.png;0.13;m;0.2882138999993913;0.2902440000034403;255733.9085578;2.4999899324029684e-06;0.5035366999800317;0.5435739999811631;0.5551427999744192;0.6249292999855243;0.8453878999862354;0.8453899000014644;0;1;0;0;0.01
2;1;1;28;letter181;letter357;congruent;0.04;letter357;0.05;0.07;fullmask;0.3;arrow_right.png;0.13;m;0.2827824999985751;0.28955680000944994;255735.6447864;2.5999906938523054e-06;0.5019924999796785;0.541994600003818;0.554124199989019;0.6232006999780424;0.8436887999996543;0.8436956999939866;0;1;0;0;0.01
2;1;1;29;letter181;letter357;congruent;0.04;letter181;0.05;0.07;fullmask;0.3;arrow_left.png;0.13;c;0.2875759999733418;0.29023709998000413;255737.3806017;2.6999914553016424e-06;0.49759569999878295;0.5376127999916207;0.5496567999944091;0.6194273000000976;0.839895399985835;0.8398974000010639;0;1;0;0;0.01
2;1;1;30;letter181;letter357;congruent;0.04;letter181;0.05;0.07;fullmask;0.3;arrow_left.png;0.13;c;0.4272278999851551;0.4308970999845769;255739.2605555;2.6999914553016424e-06;0.5032030000002123;0.542920799984131;0.5541339000046719;0.6250324999855366;0.8543210999923758;1.1833273000083864;0;0;1;0;0.01
2;1;1;31;letter181;letter357;congruent;0.04;letter357;0.05;0.07;fullmask;0.3;arrow_right.png;0.13;m;0.47397439999622293;0.4808288000058383;255741.3885559;3.2999960239976645e-06;0.4979287999740336;0.537948699988192;0.5490920999727678;0.6199574999918696;0.849345299997367;0.9799985999998171;0;0;0;1;0.01
2;1;1;32;letter181;letter357;congruent;0.04;letter357;0.05;0.07;fullmask;0.3;arrow_right.png;0.13;m;0.3799660000076983;0.38996979998773895;255743.2367083;2.3999891709536314e-06;0.5032153999782167;0.5432158999901731;0.5552551999862771;0.6250393999798689;0.8554236999771092;1.1435990000027232;0;0;1;0;0.01
2;1;1;33;letter181;letter357;congruent;0.04;letter181;0.05;0.07;fullmask;0.3;arrow_left.png;0.13;c;0.4185163000074681;0.4198871999979019;255745.3165779;2.6999914553016424e-06;0.5025985999964178;0.5426172000006773;0.5546742000151426;0.6244422000017948;0.8548243000113871;1.1730404999980237;0;0;1;0;0.01
2;1;1;34;letter181;letter357;congruent;0.04;letter181;0.05;0.07;fullmask;0.3;arrow_left.png;0.13;c;0.35719629999948665;0.36004979998688214;255747.3165485;2.4999899324029684e-06;0.5036719999916386;0.5437070000043605;0.5557234000007156;0.6254897000035271;0.8558754000114277;1.1140362000151072;0;0;1;0;0.01
2;1;1;35;letter181;letter357;congruent;0.04;letter357;0.05;0.07;fullmask;0.3;arrow_right.png;0.13;m;0.42002099999808706;0.4298664999951143;255749.3805527;2.5999906938523054e-06;0.4990154999832157;0.5390424999932293;0.5509612999740057;0.6207323999842629;0.8511220999935176;1.1794702999759465;0;0;1;0;0.01
2;1;1;36;letter181;letter357;congruent;0.04;letter357;0.05;0.07;fullmask;0.3;arrow_right.png;0.13;m;0.3825986000010744;0.3899960999842733;255751.4047574;2.5999906938523054e-06;0.5030885000014678;0.5433946000121068;0.5553404999955092;0.6250167000107467;0.8554097000160255;1.1435080000082962;0;0;1;0;0.01
2;1;1;37;letter181;letter357;congruent;0.04;letter357;0.05;0.07;fullmask;0.3;arrow_right.png;0.13;m;0.4952654000080656;0.4996773999882862;255753.5485357;2.7999922167509794e-06;0.5020818999910261;0.5421090000018012;0.5541362999938428;0.6239098999940325;0.8542916000005789;0.9839461999945343;0;0;0;1;0.01
2;1;1;38;letter181;letter357;congruent;0.04;letter181;0.05;0.07;fullmask;0.3;arrow_left.png;0.13;c;0.2583481000037864;0.2603184999898076;255755.2525625;3.00002284348011e-06;0.5033589000231586;0.5433904000092298;0.5551169000100344;0.6248912000155542;0.815436500008218;0.815438500023447;0;1;0;0;0.01
2;1;1;39;letter181;letter357;congruent;0.04;letter181;0.05;0.07;fullmask;0.3;arrow_left.png;0.13;c;0.3956627000006847;0.40096950001316145;255757.1005869;2.8999929782003164e-06;0.49938530000508763;0.5393948999990243;0.5507361000054516;0.621508599986555;0.8508933999983128;1.1497730999835767;0;0;1;0;0.01
2;1;1;40;letter181;letter357;congruent;0.04;letter181;0.05;0.07;fullmask;0.3;arrow_left.png;0.13;c;0.32014220001292415;0.33016650000354275;255759.0767199;2.5999906938523054e-06;0.5052262999815866;0.545222399989143;0.5569084000017028;0.6266105999820866;0.8569689999858383;1.085567899979651;0;0;1;0;0.01
2;1;1;41;letter181;letter357;congruent;0.04;letter357;0.05;0.07;fullmask;0.3;arrow_right.png;0.13;m;0.38637660001404583;0.3900173000001814;255761.1245428;2.800021320581436e-06;0.5043906000209972;0.5444067000062205;0.5564092000131495;0.6263197000080254;0.8566101000178605;1.1447948999993969;0;0;1;0;0.01
2;1;1;42;letter181;letter357;congruent;0.04;letter357;0.05;0.07;fullmask;0.3;arrow_right.png;0.13;m;0.38575320001109503;0.3909697000053711;255763.1645438;2.5999906938523054e-06;0.5025413999974262;0.5422841999970842;0.553572200005874;0.624344799987739;0.8537297000002582;1.142629100009799;0;0;1;0;0.01
2;1;1;43;letter181;letter357;congruent;0.04;letter357;0.05;0.07;fullmask;0.3;arrow_right.png;0.13;m;0.44373320002341643;0.4504006000061054;255765.2445208;2.800021320581436e-06;0.5027897999971174;0.5428010000032373;0.5548103000037372;0.6247151000134181;0.8550072000070941;0.984662600007141;0;0;0;1;0.01
2;1;1;44;letter181;letter357;congruent;0.04;letter357;0.05;0.07;fullmask;0.3;arrow_right.png;0.13;m;0.40131560000008903;0.41095160000259057;255767.0928552;2.500019036233425e-06;0.5032650000066496;0.5432918000151403;0.5548352000187151;0.6245356000144966;0.854914000025019;1.1636857000121381;0;0;1;0;0.01
2;1;1;45;letter181;letter357;congruent;0.04;letter181;0.05;0.07;fullmask;0.3;arrow_left.png;0.13;c;0.31508659999235533;0.3192403999855742;255769.0685735;2.4999899324029684e-06;0.5038485999975819;0.5438867000048049;0.5560486000031233;0.6259826000023168;0.855283499986399;1.0742372999957297;0;0;1;0;0.01
2;1;1;46;letter181;letter357;congruent;0.04;letter357;0.05;0.07;fullmask;0.3;arrow_right.png;0.13;m;0.37085879998630844;0.3809772999957204;255771.0846324;2.500019036233425e-06;0.4989205000165384;0.5389563000062481;0.5501393000013195;0.6209128000191413;0.8502777999965474;1.1293258000223432;0;0;1;0;0.01
2;1;1;47;letter181;letter357;congruent;0.04;letter181;0.05;0.07;fullmask;0.3;arrow_left.png;0.13;c;0.29863960001966916;0.3002386000007391;255773.0446666;2.4999899324029684e-06;0.4957333999918774;0.5357609999773558;0.547904999984894;0.6175767999957316;0.8481467999808956;0.8481532000005245;0;1;0;0;0.01
2;1;1;48;letter181;letter357;congruent;0.04;letter181;0.05;0.07;fullmask;0.3;arrow_left.png;0.13;c;0.3982679999899119;0.4009696999855805;255774.8846009;2.7999922167509794e-06;0.5048863999836612;0.5449156999820843;0.5562561999831814;0.6268968000076711;0.8573305000027176;1.155332800000906;0;0;1;0;0.01
2;1;2;1;letter181;letter357;congruent;0.04;letter181;0.05;0.07;fullmask;0.25;arrow_left.png;0.13;c;0.33788609999464825;0.3402866999967955;255781.1487198;2.5999906938523054e-06;0.5005223999905866;0.5405578000063542;0.5523337000049651;0.6222672000003513;0.8026947999896947;1.0909148000064306;0;0;1;0;0.01
2;1;2;2;letter181;letter357;congruent;0.04;letter181;0.05;0.07;fullmask;0.25;arrow_left.png;0.13;m;0.23677849999512546;0.24018679998698644;255783.0285165;2.7999922167509794e-06;0.49554130001342855;0.5355610999977216;0.5469717000087257;0.6176502000016626;0.7871543999935966;0.787156500009587;0;1;0;0;0.01
2;1;2;3;letter181;letter357;congruent;0.04;letter357;0.05;0.07;fullmask;0.25;arrow_right.png;0.13;m;0.2628312000015285;0.2692979999992531;255784.9565347;2.3999891709536314e-06;0.5028444000054151;0.5428659000026528;0.5550202000013087;0.6248798999877181;0.8043139000074007;1.0231755999848247;0;0;1;0;0.01
2;1;2;4;letter181;letter357;congruent;0.04;letter357;0.05;0.07;fullmask;0.25;arrow_right.png;0.13;m;0.23766079999040812;0.23937679998925887;255786.8524992;2.8999929782003164e-06;0.5040295000071637;0.5440150999929756;0.5561016999999993;0.625882599997567;0.7954794999968726;0.7954815999837592;0;1;0;0;0.01
2;1;2;5;letter181;letter357;congruent;0.04;letter357;0.05;0.07;fullmask;0.25;arrow_right.png;0.13;m;0.265381899982458;0.2702926999772899;255788.5805975;2.700020559132099e-06;0.4999493000213988;0.5399582000100054;0.5512958000181243;0.6220825000200421;0.8015869000228122;1.0202796000230592;0;0;1;0;0.01
2;1;2;6;letter181;letter357;congruent;0.04;letter357;0.05;0.07;fullmask;0.25;arrow_right.png;0.13;m;0.2658427999995183;0.2703957000048831;255790.4925958;2.4999899324029684e-06;0.5023769999970682;0.5423609999998007;0.554057000001194;0.6238252999901306;0.8043382999894675;1.0227261999971233;0;0;1;0;0.01
2;1;2;7;letter181;letter357;congruent;0.04;letter181;0.05;0.07;fullmask;0.25;arrow_left.png;0.13;c;0.29021629999624565;0.3000890999974217;255792.4285573;2.4999899324029684e-06;0.49657469999510795;0.5366090000024997;0.5486497999809217;0.6182287999836262;0.7988154999911785;1.0469715999788605;0;0;1;0;0.01
2;1;2;8;letter181;letter357;congruent;0.04;letter357;0.05;0.07;fullmask;0.25;arrow_right.png;0.13;m;0.26279199999407865;0.2692011999897659;255794.3325506;2.600019797682762e-06;0.5008578000124544;0.5411751000210643;0.5530498000152875;0.6227280000166502;0.8022491000010632;1.0211684000096284;0;0;1;0;0.01
2;1;2;9;letter181;letter357;congruent;0.04;letter181;0.05;0.07;fullmask;0.25;arrow_left.png;0.13;c;0.2797683000098914;0.2803128000232391;255796.2605722;2.600019797682762e-06;0.49583240001811646;0.5358624000218697;0.5478661000088323;0.6177729000046384;0.7972020000161137;1.0261724000156391;0;0;1;0;0.01
2;1;2;10;letter181;letter357;congruent;0.04;letter181;0.05;0.07;fullmask;0.25;arrow_left.png;0.13;c;0.2763277000049129;0.27919900001143105;255798.1885748;2.700020559132099e-06;0.5022118000197224;0.5422566000197548;0.5544578000262845;0.6241504000208806;0.803672700014431;1.032571600022493;0;0;1;0;0.01
2;1;2;11;letter181;letter357;congruent;0.04;letter357;0.05;0.07;fullmask;0.25;arrow_right.png;0.13;m;0.2570073999813758;0.25909839998348616;255800.1005527;2.600019797682762e-06;0.4966705999977421;0.5367068000196014;0.5489607000199612;0.6185186000075191;0.7981008000206202;1.0069845000107307;0;0;1;0;0.01
2;1;2;12;letter181;letter357;congruent;0.04;letter181;0.05;0.07;fullmask;0.25;arrow_left.png;0.13;c;0.2658815000031609;0.27032409998355433;255802.2205022;3.2999960239976645e-06;0.4993813000037335;0.5394056999939494;0.5513912000169512;0.6212873999902513;0.8007148999895435;1.0197213999927044;0;0;1;0;0.01
2;1;2;13;letter181;letter357;congruent;0.04;letter357;0.05;0.07;fullmask;0.25;arrow_right.png;0.13;m;0.22857929999008775;0.22941030000220053;255804.0844881;2.600019797682762e-06;0.49955510001746006;0.5395798000099603;0.5516337000008207;0.6214140999945812;0.7810456000152044;0.7810476000013296;0;1;0;0;0.01
2;1;2;14;letter181;letter357;congruent;0.04;letter181;0.05;0.07;fullmask;0.25;arrow_left.png;0.13;c;0.28644149997853674;0.29071030000341125;255805.8125253;2.9999937396496534e-06;0.49646530000609346;0.5364995999843813;0.5476523999823257;0.6179826000006869;0.7984964000061154;1.0368361999862827;0;0;1;0;0.01
2;1;2;15;letter181;letter357;congruent;0.04;letter181;0.05;0.07;fullmask;0.25;arrow_left.png;0.13;c;0.2590106999850832;0.2602715000102762;255807.7167305;2.7999922167509794e-06;0.4960061999736354;0.536049299989827;0.5475938000017777;0.6182179999887012;0.7978000000002794;1.006365699984599;0;0;1;0;0.01
2;1;2;16;letter181;letter357;congruent;0.04;letter357;0.05;0.07;fullmask;0.25;arrow_right.png;0.13;m;0.2639227000181563;0.27019980002660304;255809.6124946;2.6999914553016424e-06;0.49646929997834377;0.5364837999804877;0.5476711999799591;0.61835369997425;0.7978674999903888;1.0167925999849103;0;0;1;0;0.01
2;1;2;17;letter181;letter357;congruent;0.04;letter181;0.05;0.07;fullmask;0.25;arrow_left.png;0.13;c;0.26408079999964684;0.2703682999999728;255811.5244998;2.4999899324029684e-06;0.4971539000107441;0.537175900011789;0.548987499991199;0.6187625000020489;0.7993535999848973;1.0174833000055514;0;0;1;0;0.01
2;1;2;18;letter181;letter357;congruent;0.04;letter357;0.05;0.07;fullmask;0.25;arrow_right.png;0.13;m;0.2546264000120573;0.2593689000059385;255813.4364945;2.5999906938523054e-06;0.5003467999922577;0.5406477999931667;0.5523963999876287;0.622303699987242;0.8017316999903414;1.01066699999501;0;0;1;0;0.01
2;1;2;19;letter181;letter357;congruent;0.04;letter181;0.05;0.07;fullmask;0.25;arrow_left.png;0.13;c;0.31160749998525716;0.3203098999802023;255815.4046519;2.7999922167509794e-06;0.503857399977278;0.5438676999765448;0.5558348999766167;0.6255813000025228;0.8051689999992959;1.074196999979904;0;0;1;0;0.01
2;1;2;20;letter181;letter357;congruent;0.04;letter181;0.05;0.07;fullmask;0.25;arrow_left.png;0.13;c;0.268947600008687;0.2703347000060603;255817.332451;2.6999914553016424e-06;0.502697599993553;0.5427245000028051;0.5538951999915298;0.6247985000081826;0.8042262000089977;1.0230432999960613;0;0;1;0;0.01
2;1;2;21;letter181;letter357;congruent;0.04;letter357;0.05;0.07;fullmask;0.25;arrow_right.png;0.13;m;0.2927004999946803;0.29926030000206083;255819.2684915;3.1999952625483274e-06;0.49619540001731366;0.5362077000027057;0.548447600012878;0.6183590000146069;0.7977822000102606;1.0465376999927685;0;0;1;0;0.01
2;1;2;22;letter181;letter357;congruent;0.04;letter357;0.05;0.07;fullmask;0.25;arrow_right.png;0.13;m;0.28049509998527355;0.2902782000019215;255821.1965075;2.5999906938523054e-06;0.5008809000137262;0.5409074999915902;0.5521170000138227;0.623011999996379;0.8034409999963827;1.0412216999975499;0;0;1;0;0.01
2;1;2;23;letter181;letter357;congruent;0.04;letter357;0.05;0.07;fullmask;0.25;arrow_right.png;0.13;m;0.19908240000950173;0.200386200012872;255823.0364975;2.6999914553016424e-06;0.49891279998701066;0.538920799997868;0.5503108999982942;0.6209695999859832;0.7506933000113349;0.7506960000027902;0;1;0;0;0.01
2;1;2;24;letter181;letter357;congruent;0.04;letter181;0.05;0.07;fullmask;0.25;arrow_left.png;0.13;c;0.28618800002732314;0.29114190000109375;255824.7644879;2.7999922167509794e-06;0.4952814999851398;0.535301999974763;0.5465054999804124;0.6171808999788482;0.7966969999833964;1.035600599978352;0;0;1;0;0.01
2;1;2;25;letter181;letter357;congruent;0.04;letter181;0.05;0.07;fullmask;0.25;arrow_left.png;0.13;c;0.252847900002962;0.2603151999937836;255826.6524807;2.8999929782003164e-06;0.4949503999960143;0.5349744000122882;0.5462765000120271;0.6170518999861088;0.7965650999976788;1.0052552999986801;0;0;1;0;0.01
2;1;2;26;letter181;letter357;congruent;0.04;letter357;0.05;0.07;fullmask;0.25;arrow_right.png;0.13;m;0.2788566999952309;0.2792196999944281;255828.580543;2.4999899324029684e-06;0.5001365999924019;0.5401934999972582;0.5522985999996308;0.6221933999913745;0.801624499988975;1.030472100013867;0;0;1;0;0.01
2;1;2;27;letter181;letter357;congruent;0.04;letter357;0.05;0.07;fullmask;0.25;arrow_right.png;0.13;m;0.32580580000649206;0.3303009000082966;255830.5485578;2.6999914553016424e-06;0.49626790001639165;0.536280500004068;0.5482544999977108;0.6180433999979869;0.7985667000175454;1.0766284000128508;0;0;1;0;0.01
2;1;2;28;letter181;letter357;congruent;0.04;letter181;0.05;0.07;fullmask;0.25;arrow_left.png;0.13;c;0.29033250000793487;0.30011609999928623;255832.4844761;2.3999891709536314e-06;0.5002169999934267;0.5402373000106309;0.552342500013765;0.6221081000112463;0.8015384000027552;1.0505456000100821;0;0;1;0;0.01
2;1;2;29;letter181;letter357;congruent;0.04;letter357;0.05;0.07;fullmask;0.25;arrow_right.png;0.13;m;0.2772374999767635;0.2802644999756012;255834.412563;2.700020559132099e-06;0.4980690000229515;0.5380895000125747;0.5501371000136714;0.6199229000194464;0.799430700019002;1.028414900007192;0;0;1;0;0.01
2;1;2;30;letter181;letter357;congruent;0.04;letter181;0.05;0.07;fullmask;0.25;arrow_left.png;0.13;c;0.3878882999997586;0.389965399983339;255836.4444849;2.600019797682762e-06;0.4975863000145182;0.5375908999994863;0.5496631000132766;0.6194295000168495;0.7989485000143759;0.9296011000114959;0;0;0;1;0.01
2;1;2;31;letter181;letter357;congruent;0.04;letter181;0.05;0.07;fullmask;0.25;arrow_left.png;0.13;c;0.2309188999934122;0.24048629999742843;255838.10863;2.8999929782003164e-06;0.4990148000069894;0.5390366000065114;0.5510518999944907;0.6207207999832463;0.7915475000045262;0.7915540999965742;0;1;0;0;0.01
2;1;2;32;letter181;letter357;congruent;0.04;letter181;0.05;0.07;fullmask;0.25;arrow_left.png;0.13;c;0.3100010000052862;0.31011239998042583;255839.8685307;2.7999922167509794e-06;0.4960356999945361;0.5360568999894895;0.5478192000009585;0.617486100003589;0.7981162999931257;1.056399599998258;0;0;1;0;0.01
2;1;2;33;letter181;letter357;congruent;0.04;letter181;0.05;0.07;fullmask;0.25;arrow_left.png;0.13;c;0.272002399986377;0.27986429998418316;255841.7724737;2.2999884095042944e-06;0.49532649997854605;0.5353619999950752;0.5477983999880962;0.6171694999793544;0.7966916000004858;1.025660399987828;0;0;1;0;0.01
2;1;2;34;letter181;letter357;congruent;0.04;letter357;0.05;0.07;fullmask;0.25;arrow_right.png;0.13;m;0.297636400006013;0.3002580000029411;255843.7084639;2.600019797682762e-06;0.499395100021502;0.5394205000193324;0.5509995000029448;0.6209035000065342;0.8013324000057764;1.0497427000082098;0;0;1;0;0.01
2;1;2;35;letter181;letter357;congruent;0.04;letter357;0.05;0.07;fullmask;0.25;arrow_right.png;0.13;m;0.27812730000005104;0.2803112000110559;255845.6204689;2.8999929782003164e-06;0.496984400000656;0.5370048999902792;0.5488683999865316;0.6187696999986656;0.7991867999953683;1.027330599987181;0;0;1;0;0.01
2;1;2;36;letter181;letter357;congruent;0.04;letter357;0.05;0.07;fullmask;0.25;arrow_right.png;0.13;m;0.29682960000354797;0.3003566000261344;255847.5405479;2.8999929782003164e-06;0.49958540001534857;0.5395717000064906;0.5515872999967542;0.6213294000190217;0.8009228000009898;1.0498955000075512;0;0;1;0;0.01
2;1;2;37;letter181;letter357;congruent;0.04;letter357;0.05;0.07;fullmask;0.25;arrow_right.png;0.13;m;0.3257961999916006;0.3302757999917958;255849.5005487;2.4999899324029684e-06;0.500418699986767;0.5404365999856964;0.5522400999907404;0.6222941000014544;0.8025683999876492;1.0807758999872021;0;0;1;0;0.01
2;1;2;38;letter181;letter357;congruent;0.04;letter357;0.05;0.07;fullmask;0.25;arrow_right.png;0.13;m;0.32410619998699985;0.3300588999991305;255851.4604936;2.700020559132099e-06;0.49583800000254996;0.5358866000024136;0.5480527000036091;0.6177468000096269;0.7972619000065606;1.0762122000160161;0;0;1;0;0.01
2;1;2;39;letter181;letter357;congruent;0.04;letter181;0.05;0.07;fullmask;0.25;arrow_left.png;0.13;c;0.32177280000178143;0.33049839999875985;255853.4285541;2.600019797682762e-06;0.5050560000236146;0.5447930000082124;0.5560982000024524;0.6260063000081573;0.8067510000255425;1.0851461000274867;0;0;1;0;0.01
2;1;2;40;letter181;letter357;congruent;0.04;letter181;0.05;0.07;fullmask;0.25;arrow_left.png;0.13;c;0.3423843999917153;0.3502188999846112;255855.4204531;2.5999906938523054e-06;0.5028331999783404;0.5428324999811593;0.5541928999882657;0.6241046999930404;0.804624899988994;1.1032116999849677;0;0;1;0;0.01
2;1;2;41;letter181;letter357;congruent;0.04;letter181;0.05;0.07;fullmask;0.25;arrow_left.png;0.13;c;0.4006940000108443;0.40991200000280514;255857.460483;2.5999906938523054e-06;0.4988000000012107;0.5388401999953203;0.5506147000123747;0.6203853999904823;0.8009165000112262;0.9305410000088159;0;0;0;1;0.01
2;1;2;42;letter181;letter357;congruent;0.04;letter181;0.05;0.07;fullmask;0.25;arrow_left.png;0.13;c;0.2691900999925565;0.27025159998447634;255859.2205653;2.4999899324029684e-06;0.5035815000010189;0.5435973999847192;0.5557582000037655;0.6254342999891378;0.8049628000007942;1.0242193999874871;0;0;1;0;0.01
2;1;2;43;letter181;letter357;congruent;0.04;letter181;0.05;0.07;fullmask;0.25;arrow_left.png;0.13;c;0.26425300000119023;0.27029440001933835;255861.1166016;2.800021320581436e-06;0.5011467000003904;0.5411697000090498;0.5530885000189301;0.622865700017428;0.8033800999983214;1.0214541000023019;0;0;1;0;0.01
2;1;2;44;letter181;letter357;congruent;0.04;letter357;0.05;0.07;fullmask;0.25;arrow_right.png;0.13;m;0.4006960999977309;0.4099229999992531;255863.1644755;2.7999922167509794e-06;0.4992584999999963;0.539291900000535;0.5514023999858182;0.621177599998191;0.8006947999820113;0.931346700002905;0;0;0;1;0.01
2;1;2;45;letter181;letter357;congruent;0.04;letter357;0.05;0.07;fullmask;0.25;arrow_right.png;0.13;m;0.35461599999689497;0.3610577999788802;255864.9486812;2.700020559132099e-06;0.4997250000014901;0.5397601000149734;0.5509722999995574;0.6217337000125553;0.8011652000132017;1.1101140000100713;0;0;1;0;0.01
2;1;2;46;letter181;letter357;congruent;0.04;letter181;0.05;0.07;fullmask;0.25;arrow_left.png;0.13;c;0.18477369999163784;0.19057800000882708;255866.7805227;2.400018274784088e-06;0.504458200011868;0.5444712000025902;0.556097900000168;0.625839200016344;0.7466850000200793;0.7466920000151731;0;1;0;0;0.01
2;1;2;47;letter181;letter357;congruent;0.04;letter357;0.05;0.07;fullmask;0.25;arrow_right.png;0.13;m;0.36323580000316724;0.37003530000220053;255868.5804516;2.800021320581436e-06;0.5041428000258747;0.5441878999990877;0.5562154000217561;0.6259900000004563;0.8055120000208262;1.1245454000018071;0;0;1;0;0.01
2;1;2;48;letter181;letter357;congruent;0.04;letter357;0.05;0.07;fullmask;0.25;arrow_right.png;0.13;m;0.35664060001727194;0.3600544999935664;255870.5644429;2.4999899324029684e-06;0.4983848999836482;0.5384199999971315;0.5497687000024598;0.6205390999966767;0.8000591000018176;1.1087764999829233;0;0;1;0;0.01
2;1;3;1;letter181;letter357;congruent;0.04;letter357;0.05;0.07;fullmask;0.2;arrow_right.png;0.13;c;0.8865671000094153;0.891041499999119;255889.4365042;2.8999929782003164e-06;0.49660069998935796;0.536624500004109;0.5483473999775015;0.6183064999931958;0.7488532999996096;0.8785082999966107;0;0;0;1;0.01
2;1;3;2;letter181;letter357;congruent;0.04;letter181;0.05;0.07;fullmask;0.2;arrow_left.png;0.13;c;0.3206977000227198;0.33013210000353865;255891.2124715;2.7999922167509794e-06;0.49708210001699626;0.5370998000144027;0.5491584000119474;0.618932000012137;0.7485866000060923;1.0774799000064377;0;0;1;0;0.01
2;1;3;3;letter181;letter357;congruent;0.04;letter357;0.05;0.07;fullmask;0.2;arrow_right.png;0.13;m;0.2962788000004366;0.3011143999756314;255893.148443;2.600019797682762e-06;0.5009356000227854;0.5409651000227313;0.5521532999991905;0.6228255000023637;0.7524796000216156;1.0513121999974828;0;0;1;0;0.01
2;1;3;4;letter181;letter357;congruent;0.04;letter357;0.05;0.07;fullmask;0.2;arrow_right.png;0.13;m;0.2763580000028014;0.28026759999920614;255895.0604315;2.6999914553016424e-06;0.4962980999844149;0.5363150000048336;0.5481756000081077;0.6179463999869768;0.7475988999940455;1.026632499997504;0;0;1;0;0.01
2;1;3;5;letter181;letter357;congruent;0.04;letter181;0.05;0.07;fullmask;0.2;arrow_left.png;0.13;c;0.28892669998458587;0.2903992999927141;255897.0044473;2.5999906938523054e-06;0.5001458999759052;0.5401730999874417;0.5522326999926008;0.6220481999916956;0.7517014999757521;1.0404875999956857;0;0;1;0;0.01
2;1;3;6;letter181;letter357;congruent;0.04;letter357;0.05;0.07;fullmask;0.2;arrow_right.png;0.13;m;0.26190119999228045;0.2704526000015903;255898.908574;2.5999906938523054e-06;0.495977300015511;0.5360373000148684;0.5480007999867667;0.617908999993233;0.7474768999963999;1.0163349999929778;0;0;1;0;0.01
2;1;3;7;letter181;letter357;congruent;0.04;letter181;0.05;0.07;fullmask;0.2;arrow_left.png;0.13;c;0.23849970000446774;0.24032979999901727;255900.7964526;2.5999906938523054e-06;0.5013849000097252;0.5414208000001963;0.5534440999908838;0.6231284000095911;0.7527995000127703;0.9917040000145789;0;0;1;0;0.01
2;1;3;8;letter181;letter357;congruent;0.04;letter357;0.05;0.07;fullmask;0.2;arrow_right.png;0.13;c;2.8313673000084236;2.8414166000147816;255905.2605001;2.700020559132099e-06;0.5021395000221673;0.5421194000227842;0.5541637999995146;0.6239574000064749;0.7534875000128523;0.8842422000016086;0;0;0;1;0.01
2;1;3;9;letter181;letter357;congruent;0.04;letter357;0.05;0.07;fullmask;0.2;arrow_right.png;0.13;m;0.2950739999942016;0.3002550999808591;255906.9964113;2.400018274784088e-06;0.5020728000090457;0.5421029000135604;0.5535510000190698;0.6234535000112373;0.7540305000147782;1.0524238999933004;0;0;1;0;0.01
2;1;3;10;letter181;letter357;congruent;0.04;letter181;0.05;0.07;fullmask;0.2;arrow_left.png;0.13;c;0.28932199999690056;0.29026879998855293;255908.9325922;2.5999906938523054e-06;0.49488620000192896;0.534908000001451;0.5470634000084829;0.6167570000106934;0.7463988999952562;1.0352261000080034;0;0;1;0;0.01
2;1;3;11;letter181;letter357;congruent;0.04;letter181;0.05;0.07;fullmask;0.2;arrow_left.png;0.13;c;0.22407959998236038;0.22940279997419566;255910.7884158;2.400018274784088e-06;0.5013013000134379;0.5413041000138037;0.5532861000101548;0.6230580999981612;0.7527117000136059;0.981588800001191;0;0;1;0;0.01
2;1;3;12;letter181;letter357;congruent;0.04;letter181;0.05;0.07;fullmask;0.2;arrow_left.png;0.13;c;0.2795790000236593;0.28027400001883507;255912.72442;2.7999922167509794e-06;0.5019044000073336;0.5419073000084609;0.553193800005829;0.6239658999838866;0.7536211999831721;1.0322315999947023;0;0;1;0;0.01
2;1;3;13;letter181;letter357;congruent;0.04;letter357;0.05;0.07;fullmask;0.2;arrow_right.png;0.13;c;0.18750259999069385;0.18942969999625348;255914.564404;2.6999914553016424e-06;0.5026227999769617;0.5426192999875639;0.5547348999825772;0.6244239999796264;0.7441600000020117;0.7441619999881368;0;1;0;0;0.01
2;1;3;14;letter181;letter357;congruent;0.04;letter357;0.05;0.07;fullmask;0.2;arrow_right.png;0.13;c;0.21907309998641722;0.22034279999206774;255916.2363954;2.6999914553016424e-06;0.5030106999911368;0.5430542999820318;0.5545232000004034;0.625229400000535;0.7548511999775656;0.9733268999843858;0;0;1;0;0.01
2;1;3;15;letter181;letter357;congruent;0.04;letter181;0.05;0.07;fullmask;0.2;arrow_left.png;0.13;c;0.26985559999593534;0.2701173000095878;255918.1484451;2.5999906938523054e-06;0.49656770000001416;0.5365862000035122;0.548137100005988;0.61790809998638;0.7484666999953333;1.0169235999928787;0;0;1;0;0.01
2;1;3;16;letter181;letter357;congruent;0.04;letter181;0.05;0.07;fullmask;0.2;arrow_left.png;0.13;m;0.27897489999304526;0.2803124999918509;255920.0683998;2.500019036233425e-06;0.4970954000018537;0.5371151000144891;0.5482753000105731;0.6192091999982949;0.7487427000014577;1.0274409000121523;0;0;1;0;0.01
2;1;3;17;letter181;letter357;congruent;0.04;letter181;0.05;0.07;fullmask;0.2;arrow_left.png;0.13;c;0.27469469999778084;0.2792693999945186;255921.9964106;2.8999929782003164e-06;0.5028739999979734;0.5429067999939434;0.5551118000003044;0.6241319999971893;0.7545364999969024;1.033223000005819;0;0;1;0;0.01
2;1;3;18;letter181;letter357;congruent;0.04;letter181;0.05;0.07;fullmask;0.2;arrow_left.png;0.13;c;0.28983180000795983;0.2902636000071652;255923.9325724;2.4999899324029684e-06;0.5017680999881122;0.5418199999839999;0.5538244999770541;0.6237309999996796;0.7532877999765333;1.042184099991573;0;0;1;0;0.01
2;1;3;19;letter181;letter357;congruent;0.04;letter357;0.05;0.07;fullmask;0.2;arrow_right.png;0.13;m;0.27857689998927526;0.2802168999915011;255925.8525621;2.5999906938523054e-06;0.4983617999823764;0.5383950999821536;0.5503876000002492;0.6200701000052504;0.7497407000046223;1.0287015000067186;0;0;1;0;0.01
2;1;3;20;letter181;letter357;congruent;0.04;letter181;0.05;0.07;fullmask;0.2;arrow_left.png;0.13;c;0.28514319998794235;0.29022699999040924;255927.7804047;2.7999922167509794e-06;0.49996139999711886;0.539975499996217;0.5520301999931689;0.6218032999895513;0.7514565000019502;1.040309999982128;0;0;1;0;0.01
2;1;3;21;letter181;letter357;congruent;0.04;letter181;0.05;0.07;fullmask;0.2;arrow_left.png;0.13;c;0.24875860000611283;0.25034890000824817;255929.6844188;2.5999906938523054e-06;0.5030484000162687;0.543064500001492;0.5542612000135705;0.6250364000152331;0.7546840000140946;1.0033585999917705;0;0;1;0;0.01
2;1;3;22;letter181;letter357;congruent;0.04;letter357;0.05;0.07;fullmask;0.2;arrow_right.png;0.13;c;0.25651880001532845;0.2592416000261437;255931.6043835;3.0999945010989904e-06;0.5022412999824155;0.5422559999860823;0.5544371999858413;0.6241232999891508;0.7537739999825135;1.0125711000000592;0;0;1;0;0.01
2;1;3;23;letter181;letter357;congruent;0.04;letter357;0.05;0.07;fullmask;0.2;arrow_right.png;0.13;m;0.2656134999997448;0.2703536000044551;255933.5245234;2.5999906938523054e-06;0.5023658999998588;0.5423828999919351;0.554387600015616;0.6240704999945592;0.7547221000131685;1.0226805999991484;0;0;1;0;0.01
2;1;3;24;letter181;letter357;congruent;0.04;letter357;0.05;0.07;fullmask;0.2;arrow_right.png;0.13;m;0.2403475999890361;0.24935629998799413;255935.4205558;2.5999906938523054e-06;0.49685429999954067;0.5368749999906868;0.5489332999859471;0.6187141999835148;0.7483645000029355;0.9971437999920454;0;0;1;0;0.01
2;1;3;25;letter181;letter357;congruent;0.04;letter357;0.05;0.07;fullmask;0.2;arrow_right.png;0.13;m;0.2536361000093166;0.26031730000977404;255937.324396;2.5999906938523054e-06;0.498624200001359;0.5386445999902207;0.5500422999903094;0.6198123999929521;0.7504626000009011;1.0089500999893062;0;0;1;0;0.01
2;1;3;26;letter181;letter357;congruent;0.04;letter357;0.05;0.07;fullmask;0.2;arrow_right.png;0.13;m;0.2619172999984585;0.27037419998669066;255939.2445576;2.700020559132099e-06;0.4964223999995738;0.536439400020754;0.5484959000023082;0.6182712000154424;0.7479034000134561;1.0167504000128247;0;0;1;0;0.01
2;1;3;27;letter181;letter357;congruent;0.04;letter357;0.05;0.07;fullmask;0.2;arrow_right.png;0.13;m;0.2787497999961488;0.27929939999012277;255941.172801;2.800021320581436e-06;0.49528600001940504;0.5352997000154573;0.5475440000009257;0.6164507000066806;0.7470130000147037;1.0256325000082143;0;0;1;0;0.01
2;1;3;28;letter181;letter357;congruent;0.04;letter181;0.05;0.07;fullmask;0.2;arrow_left.png;0.13;c;0.3173689999966882;0.32019120000768453;255943.1323887;2.4999899324029684e-06;0.5048009000020102;0.5448205999855418;0.5567831999796908;0.6269241999834776;0.756238999980269;1.075146199989831;0;0;1;0;0.01
2;1;3;29;letter181;letter357;congruent;0.04;letter181;0.05;0.07;fullmask;0.2;arrow_left.png;0.13;c;0.3103461999853607;0.32007719998364337;255945.0764188;2.800021320581436e-06;0.49683240000740625;0.5368895000137854;0.5486661000177264;0.6184276000130922;0.7489872000005562;1.0672397000016645;0;0;1;0;0.01
2;1;3;30;letter181;letter357;congruent;0.04;letter181;0.05;0.07;fullmask;0.2;arrow_left.png;0.13;c;0.23698040001909249;0.23952800000552088;255946.9643819;2.5999906938523054e-06;0.49525789998006076;0.5352461999864317;0.5471148999931756;0.6170389999751933;0.7466920999868307;0.9855715999729;0;0;1;0;0.01
2;1;3;31;letter181;letter357;congruent;0.04;letter181;0.05;0.07;fullmask;0.2;arrow_left.png;0.13;c;0.26015889999689534;0.2702092999825254;255948.8685334;2.700020559132099e-06;0.49896340002305806;0.5389894000254571;0.5506053999997675;0.6203029000025708;0.7509541000181343;1.0193004000175279;0;0;1;0;0.01
2;1;3;32;letter181;letter357;congruent;0.04;letter181;0.05;0.07;fullmask;0.2;arrow_left.png;0.13;c;0.17254440000397153;0.17953520000446588;255950.6923859;2.3999891709536314e-06;0.4977057999931276;0.5377368000044953;0.5495838999922853;0.6193545999994967;0.7291203000058886;0.7291222999920137;0;1;0;0;0.01
2;1;3;33;letter181;letter357;congruent;0.04;letter357;0.05;0.07;fullmask;0.2;arrow_right.png;0.13;m;0.32731609998154454;0.3301340999896638;255952.4684238;2.5999906938523054e-06;0.5006491999956779;0.540654699987499;0.5527252999891061;0.6224983999854885;0.752155700000003;1.0810231999785174;0;0;1;0;0.01
2;1;3;34;letter181;letter357;congruent;0.04;letter357;0.05;0.07;fullmask;0.2;arrow_right.png;0.13;m;0.22804489999543875;0.22939989998121746;255954.3403835;2.600019797682762e-06;0.4975364000129048;0.5375787999946624;0.5495789000124205;0.6193596000084653;0.7490059999981895;0.9778302000195254;0;0;1;0;0.01
2;1;3;35;letter181;letter357;congruent;0.04;letter181;0.05;0.07;fullmask;0.2;arrow_left.png;0.13;c;0.27765860001090914;0.2805872999888379;255956.2604591;2.900022082030773e-06;0.5002305000089109;0.5402568000135943;0.5515479000168853;0.6216251000005286;0.7521864000009373;1.0305639000143856;0;0;1;0;0.01
2;1;3;36;letter181;letter357;congruent;0.04;letter357;0.05;0.07;fullmask;0.2;arrow_right.png;0.13;m;0.26015190000180155;0.2701930000039283;255958.1645225;2.600019797682762e-06;0.4970544000098016;0.5370805000129621;0.5487087999936193;0.6184704000188503;0.74902970000403;1.017377200012561;0;0;1;0;0.01
2;1;3;37;letter181;letter357;congruent;0.04;letter357;0.05;0.07;fullmask;0.2;arrow_right.png;0.13;m;0.30037449998781085;0.31018430000403896;255960.1163798;2.7999922167509794e-06;0.49685530000715517;0.536889799986966;0.5489150999928825;0.6186882999900263;0.7483416000031866;1.0571457000041846;0;0;1;0;0.01
2;1;3;38;letter181;letter357;congruent;0.04;letter181;0.05;0.07;fullmask;0.2;arrow_left.png;0.13;c;0.2853234999929555;0.2903142999857664;255962.0523746;2.4999899324029684e-06;0.500870699994266;0.5408637000073213;0.5526993999956176;0.6225492999947164;0.7522013999987394;1.0411884000059217;0;0;1;0;0.01
2;1;3;39;letter181;letter357;congruent;0.04;letter181;0.05;0.07;fullmask;0.2;arrow_left.png;0.13;c;0.29626490001101047;0.3002477000118233;255964.0044694;2.5999906938523054e-06;0.5026425999822095;0.5426676000060979;0.5544126000022516;0.6241201999946497;0.754746199992951;1.0529937999963295;0;0;1;0;0.01
2;1;3;40;letter181;letter357;congruent;0.04;letter357;0.05;0.07;fullmask;0.2;arrow_right.png;0.13;m;0.2943142000003718;0.2992592000227887;255965.9643569;2.8999929782003164e-06;0.5008650000090711;0.5408787000051234;0.5532070999906864;0.6230215999821667;0.7526818999904208;1.0512077999883331;0;0;1;0;0.01
2;1;3;41;letter181;letter357;congruent;0.04;letter181;0.05;0.07;fullmask;0.2;arrow_left.png;0.13;c;0.3194321000191849;0.3201581000175793;255967.9404291;2.6999914553016424e-06;0.503361400013091;0.5433995999919716;0.555407700012438;0.6251803000050131;0.7548352000012528;1.0737281999900006;0;0;1;0;0.01
2;1;3;42;letter181;letter357;congruent;0.04;letter357;0.05;0.07;fullmask;0.2;arrow_right.png;0.13;m;0.25853570000617765;0.2603194000257645;255969.8603642;2.600019797682762e-06;0.49966370000038296;0.5396700999990571;0.5512543000222649;0.621027100016363;0.7516781000012998;1.0099846000084653;0;0;1;0;0.01
2;1;3;43;letter181;letter357;congruent;0.04;letter357;0.05;0.07;fullmask;0.2;arrow_right.png;0.13;m;0.25724710000213236;0.2603233999980148;255971.7804475;2.800021320581436e-06;0.5028909000102431;0.5429053000116255;0.5546410000242759;0.6243138000136241;0.7549489000230096;1.013212999998359;0;0;1;0;0.01
2;1;3;44;letter181;letter357;congruent;0.04;letter357;0.05;0.07;fullmask;0.2;arrow_right.png;0.13;m;0.24752469998202287;0.24934989999746904;255973.6923536;2.8999929782003164e-06;0.5021703999955207;0.5421687999914866;0.5542895999969915;0.6240652999840677;0.7537187999987509;1.0024817999801598;0;0;1;0;0.01
2;1;3;45;letter181;letter357;congruent;0.04;letter181;0.05;0.07;fullmask;0.2;arrow_left.png;0.13;c;0.29237800001283176;0.3002115999988746;255975.6283523;2.400018274784088e-06;0.5013519000203814;0.5413611000112724;0.5534095000184607;0.6231839999963995;0.7528362000011839;1.051652299996931;0;0;1;0;0.01
2;1;3;46;letter181;letter357;congruent;0.04;letter181;0.05;0.07;fullmask;0.2;arrow_left.png;0.13;c;0.24139009998179972;0.25033779998193495;255977.508461;2.7999922167509794e-06;0.501986899995245;0.5420066000078805;0.5539149999967776;0.6236888999992516;0.7533451000053901;1.002306399983354;0;0;1;0;0.01
2;1;3;47;letter181;letter357;congruent;0.04;letter357;0.05;0.07;fullmask;0.2;arrow_right.png;0.13;m;0.2858399999968242;0.28928510000696406;255979.4443635;2.8999929782003164e-06;0.5047406999801751;0.5447549999807961;0.5569150999945123;0.6268184999935329;0.7563861999951769;1.0450968999939505;0;0;1;0;0.01
2;1;3;48;letter181;letter357;congruent;0.04;letter181;0.05;0.07;fullmask;0.2;arrow_left.png;0.13;c;0.24476709999726154;0.24939290000475012;255981.3243627;2.500019036233425e-06;0.49782700001378544;0.5378562000114471;0.5498346000094898;0.619743200019002;0.7493033000209834;0.9981702000077348;0;0;1;0;0.01
2;2;11;1;letter169;letter190;congruent;0.04;letter169;0.09;0.07;fullmask;0.3;arrow_left.png;0.13;c;0.5823869000014383;0.5904073999845423;256990.6995294;2.7999922167509794e-06;0.5008944999717642;0.5408585999975912;0.5927901999966707;0.6626246999949217;0.8929156999802217;1.0225677999842446;0;0;0;1;0.01
2;2;11;2;letter169;letter190;congruent;0.04;letter169;0.09;0.07;fullmask;0.3;arrow_left.png;0.13;c;0.5531139000086114;0.5605128000024706;256992.7315661;2.600019797682762e-06;0.5024451000208501;0.5424696000118274;0.5943463000003248;0.6641162000014447;0.8945004000270274;1.024153300008038;0;0;0;1;0.01
2;2;11;3;letter169;letter190;congruent;0.04;letter190;0.09;0.07;fullmask;0.3;arrow_right.png;0.13;m;0.447586099995533;0.44982929999241605;256994.6675028;2.7999922167509794e-06;0.50276770000346;0.542785500001628;0.5948204000014812;0.6647089000034612;0.8949906999769155;1.02465239999583;0;0;0;1;0.01
2;2;11;4;letter169;letter190;congruent;0.04;letter169;0.09;0.07;fullmask;0.3;arrow_left.png;0.13;c;0.41507510002702475;0.42091870002332143;256996.5555225;2.500019036233425e-06;0.49821330001577735;0.5382205999922007;0.589565100002801;0.6602590999973472;0.8906162999919616;1.208657100010896;0;0;1;0;0.01
2;2;11;5;letter169;letter190;congruent;0.04;letter190;0.09;0.07;fullmask;0.3;arrow_right.png;0.13;m;0.3894922999897972;0.38979349998407997;256998.611642;2.4999899324029684e-06;0.4968508000019938;0.5368711999908555;0.5885740999947302;0.658338500012178;0.8886331999965478;1.1772837000025902;0;0;1;0;0.01
2;2;11;6;letter169;letter190;congruent;0.04;letter190;0.09;0.07;fullmask;0.3;arrow_right.png;0.13;m;0.4555851999903098;0.45969720001448877;257000.7394758;2.600019797682762e-06;0.4965233000111766;0.5365674000058789;0.588686900009634;0.6584572000137996;0.888752700004261;1.0184077000012621;0;0;0;1;0.01
2;2;11;7;letter169;letter190;congruent;0.04;letter169;0.09;0.07;fullmask;0.3;arrow_left.png;0.13;c;0.35897520001162775;0.36008300000685267;257002.564007;5.099980626255274e-06;0.4960776999942027;0.5360954999923706;0.5881312999990769;0.6578154999879189;0.888209700002335;1.146497299982002;0;0;1;0;0.01
2;2;11;8;letter169;letter190;congruent;0.04;letter190;0.09;0.07;fullmask;0.3;arrow_right.png;0.13;m;0.3712922999984585;0.3799136000161525;257004.6275217;2.4999899324029684e-06;0.49777019998873584;0.537795999989612;0.5897063000011258;0.6593758999952115;0.8897689000004902;1.1681729999836534;0;0;1;0;0.01
2;2;11;9;letter169;letter190;congruent;0.04;letter190;0.09;0.07;fullmask;0.3;arrow_right.png;0.13;m;0.42181329999584705;0.42986989999189973;257006.7395162;2.3999891709536314e-06;0.4963217999902554;0.5363353000138886;0.5883995000040159;0.6581771000055596;0.8885652000026312;1.2167788000078872;0;0;1;0;0.01
2;2;11;10;letter169;letter190;congruent;0.04;letter169;0.09;0.07;fullmask;0.3;arrow_left.png;0.13;c;0.33124689999385737;0.34022120002191514;257008.739579;3.0999945010989904e-06;0.5002441999968141;0.5402710999769624;0.5916112999839243;0.6615005999919958;0.8918852999922819;1.130657199973939;0;0;1;0;0.01
2;2;11;11;letter169;letter190;congruent;0.04;letter169;0.09;0.07;fullmask;0.3;arrow_left.png;0.13;c;0.3831837000034284;0.39012289998936467;257010.8035224;2.5999906938523054e-06;0.5041884999955073;0.5442083000089042;0.5962665000115521;0.6661713999928907;0.8964625000080559;1.1846264000050724;0;0;1;0;0.01
2;2;11;12;letter169;letter190;congruent;0.04;letter190;0.09;0.07;fullmask;0.3;arrow_right.png;0.13;m;0.36212930001784116;0.3700230000249576;257012.8434984;2.5999906938523054e-06;0.49392559999250807;0.5339544999878854;0.5857116999977734;0.655482399975881;0.8858634999778587;1.1543698000023142;0;0;1;0;0.01
2;2;11;13;letter169;letter190;congruent;0.04;letter169;0.09;0.07;fullmask;0.3;arrow_left.png;0.13;c;0.29276309997658245;0.3001234999974258;257014.8355117;2.4999899324029684e-06;0.5048165000043809;0.5448441999906208;0.5966679999837652;0.6664342999865767;0.8967912000080105;0.8967932999948971;0;1;0;0;0.01
2;2;11;14;letter169;letter190;congruent;0.04;letter190;0.09;0.07;fullmask;0.3;arrow_right.png;0.13;m;0.32168609998188913;0.33017659999313764;257016.6354981;2.8999929782003164e-06;0.4986996999941766;0.5387129999871831;0.5904704999993555;0.6603723999869544;0.8906705999979749;1.1190887999837287;0;0;1;0;0.01
2;2;11;15;letter169;letter190;congruent;0.04;letter190;0.09;0.07;fullmask;0.3;arrow_right.png;0.13;m;0.4649378999893088;0.47089969998341985;257018.7797127;2.5999906938523054e-06;0.4972911000077147;0.5373437000089325;0.5887474000046495;0.6586530999920797;0.8889503999962471;1.0195965000020806;0;0;0;1;0.01
2;2;11;16;letter169;letter190;congruent;0.04;letter169;0.09;0.07;fullmask;0.3;arrow_left.png;0.13;c;0.3308729999989737;0.3401488999952562;257020.5874863;2.8999929782003164e-06;0.5024406999873463;0.5424059999932069;0.5944534000009298;0.6643532000016421;0.8946513999835588;1.1328204000019468;0;0;1;0;0.01
2;2;11;17;letter169;letter190;congruent;0.04;letter169;0.09;0.07;fullmask;0.3;arrow_left.png;0.13;c;0.36559179998585023;0.3700718999898527;257022.6434904;2.5999906938523054e-06;0.5013562999956775;0.541353499982506;0.5934022000001278;0.6633042999892496;0.8936035999795422;1.1618010999809485;0;0;1;0;0.01
2;2;11;18;letter169;letter190;congruent;0.04;letter169;0.09;0.07;fullmask;0.3;arrow_left.png;0.13;c;0.3648904000001494;0.3707455999974627;257024.6834882;2.7999922167509794e-06;0.4965498999808915;0.5366160999983549;0.587994899979094;0.6586639999877661;0.8888764999865089;1.1569984999950975;0;0;1;0;0.01
2;2;11;19;letter169;letter190;congruent;0.04;letter190;0.09;0.07;fullmask;0.3;arrow_right.png;0.13;m;0.3629423000093084;0.37007159998756833;257026.7234871;2.6999914553016424e-06;0.4985434999980498;0.5385616999992635;0.5906019000103697;0.6605063000170048;0.8907834000128787;1.158963699999731;0;0;1;0;0.01
2;2;11;20;letter169;letter190;congruent;0.04;letter190;0.09;0.07;fullmask;0.3;arrow_right.png;0.13;m;0.3278682999953162;0.3303765000018757;257028.7395725;2.6999914553016424e-06;0.49980689998483285;0.5398180999909528;0.5917049999989104;0.6616172000067309;0.8919909999822266;1.1202048999839462;0;0;1;0;0.01
2;2;11;21;letter169;letter190;congruent;0.04;letter169;0.09;0.07;fullmask;0.3;arrow_left.png;0.13;c;0.3804494999931194;0.3901190000178758;257030.8836593;2.700020559132099e-06;0.5019320000137668;0.5419471000204794;0.5939961000112817;0.6640633000060916;0.8941957000060938;1.182376100012334;0;0;1;0;0.01
2;2;11;22;letter169;letter190;congruent;0.04;letter190;0.09;0.07;fullmask;0.3;arrow_right.png;0.13;m;0.25936639998690225;0.2602265999885276;257032.8434705;2.5999906938523054e-06;0.4997280999959912;0.539733299985528;0.5913327999878675;0.6611031999927945;0.8515581999963615;0.8515603999840096;0;1;0;0;0.01
2;2;11;23;letter169;letter190;congruent;0.04;letter190;0.09;0.07;fullmask;0.3;arrow_right.png;0.13;m;0.3017229000106454;0.3100974000117276;257034.6274429;2.6999914553016424e-06;0.4956590000074357;0.5356486999953631;0.5877521999937017;0.6574346999987029;0.8878187999944203;1.0960080999939237;0;0;1;0;0.01
2;2;11;24;letter169;letter190;congruent;0.04;letter169;0.09;0.07;fullmask;0.3;arrow_left.png;0.13;c;0.2953442999860272;0.3013564999855589;257036.6115105;2.4999899324029684e-06;0.5040630000003148;0.5440814000030514;0.5953473999979906;0.6652603000111412;0.8967047999904025;0.896706900006393;0;1;0;0;0.01
2;2;11;25;letter169;letter190;congruent;0.04;letter169;0.09;0.07;fullmask;0.3;arrow_left.png;0.13;c;0.32151120001799427;0.33015970000997186;257038.4196969;2.6999914553016424e-06;0.5009321999968961;0.5409513000049628;0.5930776000022888;0.6627934999996796;0.8931558000040241;1.1213144999928772;0;0;1;0;0.01
2;2;11;26;letter169;letter190;congruent;0.04;letter190;0.09;0.07;fullmask;0.3;arrow_right.png;0.13;m;0.31214900000486523;0.3200706000206992;257040.4115165;2.900022082030773e-06;0.4980509000015445;0.5380827000190038;0.5901243000116665;0.6598054000060074;0.8902032000187319;1.1084483000158798;0;0;1;0;0.01
2;2;11;27;letter169;letter190;congruent;0.04;letter190;0.09;0.07;fullmask;0.3;arrow_right.png;0.13;m;0.3349148000124842;0.3401014000119176;257042.4354873;2.6999914553016424e-06;0.49916269999812357;0.5391820000077132;0.5911501999944448;0.6609229999885429;0.8913032000127714;1.129580300010275;0;0;1;0;0.01
2;2;11;28;letter169;letter190;congruent;0.04;letter190;0.09;0.07;fullmask;0.3;arrow_right.png;0.13;m;0.31162390002282336;0.32015890002367087;257044.4434866;2.700020559132099e-06;0.5025350000069011;0.5425683000066783;0.5945050000154879;0.6642725999990944;0.8946682999958284;1.1129342000058386;0;0;1;0;0.01
2;2;11;29;letter169;letter190;congruent;0.04;letter190;0.09;0.07;fullmask;0.3;arrow_right.png;0.13;m;0.36844469999778084;0.370172700000694;257046.4915466;2.5999906938523054e-06;0.5017905999848153;0.5418459000065923;0.5937629999825731;0.6636695000051986;0.8939663000055589;1.162250800000038;0;0;1;0;0.01
2;2;11;30;letter169;letter190;congruent;0.04;letter169;0.09;0.07;fullmask;0.3;arrow_left.png;0.13;c;0.34736590000102296;0.3500814000144601;257048.5314676;2.6999914553016424e-06;0.49489460000768304;0.5349040000000969;0.5864863999886438;0.6562572999973781;0.8866378999955487;1.1352917999902274;0;0;1;0;0.01
2;2;11;31;letter169;letter190;congruent;0.04;letter169;0.09;0.07;fullmask;0.3;arrow_left.png;0.13;c;0.3257023000041954;0.3301307999936398;257050.5314695;2.6999914553016424e-06;0.4975735000043642;0.5375815999868792;0.5895407999923918;0.6593129999819212;0.8896985999890603;1.117967400001362;0;0;1;0;0.01
2;2;11;32;letter169;letter190;congruent;0.04;letter169;0.09;0.07;fullmask;0.3;arrow_left.png;0.13;c;0.35242910002125427;0.36006190002080984;257052.5794908;2.7999922167509794e-06;0.5025048999814317;0.5425032000057399;0.5944500000041444;0.6642239000066184;0.8946100999892224;1.1528997999848798;0;0;1;0;0.01
2;2;11;33;letter169;letter190;congruent;0.04;letter190;0.09;0.07;fullmask;0.3;arrow_right.png;0.13;m;0.337104400008684;0.340123300004052;257054.5956124;2.6999914553016424e-06;0.4971011000161525;0.537111100013135;0.589211400016211;0.6588938999921083;0.889278100017691;1.1274871999921743;0;0;1;0;0.01
2;2;11;34;letter169;letter190;congruent;0.04;letter190;0.09;0.07;fullmask;0.3;arrow_right.png;0.13;m;0.32364879999659024;0.33014199999161065;257056.6034708;2.5999906938523054e-06;0.4988376999972388;0.5388471999904141;0.5909520999994129;0.660719200008316;0.8911018999933731;1.119217600004049;0;0;1;0;0.01
2;2;11;35;letter169;letter190;congruent;0.04;letter169;0.09;0.07;fullmask;0.3;arrow_left.png;0.13;c;0.3686337000108324;0.37000359999365173;257058.6595998;2.700020559132099e-06;0.5031819000141695;0.5432103000057396;0.5951609000039753;0.6649284000159241;0.8952934000117239;1.1636406000179704;0;0;1;0;0.01
2;2;11;36;letter169;letter190;congruent;0.04;letter169;0.09;0.07;fullmask;0.3;arrow_left.png;0.13;c;0.35719790001166984;0.3600579000194557;257060.699467;2.7999922167509794e-06;0.5034654999908525;0.5434772000007797;0.595427699998254;0.6652041999914218;0.8955931999953464;1.153871699993033;0;0;1;0;0.01
2;2;11;37;letter169;letter190;congruent;0.04;letter169;0.09;0.07;fullmask;0.3;arrow_left.png;0.13;c;0.3559841999958735;0.36004729999694973;257062.7395856;2.500019036233425e-06;0.499993400007952;0.5400166000181343;0.5919859000132419;0.6617684999946505;0.8921519000141416;1.1504096999997273;0;0;1;0;0.01
2;2;11;38;letter169;letter190;congruent;0.04;letter169;0.09;0.07;fullmask;0.3;arrow_left.png;0.13;c;0.25328669999726117;0.26035529997898266;257064.6674613;2.500019036233425e-06;0.5038985999999568;0.5439377000147942;0.595169900014298;0.6659771999984514;0.8555259999993723;0.8555280000146013;0;1;0;0;0.01
2;2;11;39;letter169;letter190;congruent;0.04;letter190;0.09;0.07;fullmask;0.3;arrow_right.png;0.13;m;0.30354669998632744;0.3101942999928724;257066.4595225;2.4999899324029684e-06;0.5031611000013072;0.5431778999918606;0.5951051999873016;0.6648731000022963;0.8952628999832086;1.1035606999939773;0;0;1;0;0.01
2;2;11;40;letter169;letter190;congruent;0.04;letter190;0.09;0.07;fullmask;0.3;arrow_right.png;0.13;m;0.32024359999923036;0.33014400000683963;257068.467522;2.8999929782003164e-06;0.500928199995542;0.5409438000060618;0.5928960000164807;0.6626799000077881;0.8930546999908984;1.1213243000092916;0;0;1;0;0.01
2;2;11;41;letter169;letter190;congruent;0.04;letter169;0.09;0.07;fullmask;0.3;arrow_left.png;0.13;c;0.31744549999712035;0.3211873999971431;257070.4755097;2.5999906938523054e-06;0.4981242000067141;0.538141099998029;0.589595500001451;0.6602624999941327;0.8896811000013258;1.108523500006413;0;0;1;0;0.01
2;2;11;42;letter169;letter190;congruent;0.04;letter190;0.09;0.07;fullmask;0.3;arrow_right.png;0.13;m;0.31835899999714456;0.3212010999850463;257072.4674548;2.600019797682762e-06;0.4992748000076972;0.5392924000043422;0.5904922000190709;0.6613922000105958;0.8906936999992467;1.1096658000024036;0;0;1;0;0.01
2;2;11;43;letter169;letter190;congruent;0.04;letter190;0.09;0.07;fullmask;0.3;arrow_right.png;0.13;m;0.34030659997370094;0.3500707999919541;257074.4914481;2.5999906938523054e-06;0.49884720001136884;0.5388896999938879;0.5908300000010058;0.660602399992058;0.8909870999923442;1.139272800006438;0;0;1;0;0.01
2;2;11;44;letter169;letter190;congruent;0.04;letter169;0.09;0.07;fullmask;0.3;arrow_left.png;0.13;c;0.25304399998276494;0.2603215999843087;257076.4354724;2.500019036233425e-06;0.4979260000109207;0.5379433000052813;0.5898863000038546;0.6596640000061598;0.8502099000033922;0.8502259000088088;0;1;0;0;0.01
2;2;11;45;letter169;letter190;congruent;0.04;letter169;0.09;0.07;fullmask;0.3;arrow_left.png;0.13;c;0.3778518999752123;0.380034199974034;257078.2914882;2.600019797682762e-06;0.5022414000122808;0.5422696000023279;0.5942971000040416;0.6641930000041611;0.8944819000025745;1.172677399998065;0;0;1;0;0.01
2;2;11;46;letter169;letter190;congruent;0.04;letter169;0.09;0.07;fullmask;0.3;arrow_left.png;0.13;c;0.3067352999933064;0.31021150000742637;257080.29166;2.5999906938523054e-06;0.502693399990676;0.542718499986222;0.5947128999978304;0.664390399993863;0.8947900999919511;1.1030743999872357;0;0;1;0;0.01
2;2;11;47;letter169;letter190;congruent;0.04;letter190;0.09;0.07;fullmask;0.3;arrow_right.png;0.13;m;0.337200700014364;0.3401383000018541;257082.3234365;2.800021320581436e-06;0.5047240999992937;0.5447183000214864;0.5967484000138938;0.666644200013252;0.896935199998552;1.135095800011186;0;0;1;0;0.01
2;2;11;48;letter169;letter190;congruent;0.04;letter190;0.09;0.07;fullmask;0.3;arrow_right.png;0.13;m;0.3418572999944445;0.3501230999827385;257084.3394424;2.500019036233425e-06;0.5000353000068571;0.5400444000260904;0.5921135000244249;0.6621823000023142;0.8923130000184756;1.140448500023922;0;0;1;0;0.01
2;2;12;1;letter169;letter190;congruent;0.04;letter190;0.09;0.07;fullmask;0.25;arrow_right.png;0.13;m;0.3199175999907311;0.3200912000029348;257103.2194827;2.6999914553016424e-06;0.5045086999889463;0.5445431999978609;0.5964547999901697;0.6662707999930717;0.8467891000036616;1.1148899999971036;0;0;1;0;0.01
2;2;12;2;letter169;letter190;congruent;0.04;letter190;0.09;0.07;fullmask;0.25;arrow_right.png;0.13;m;0.3050873000174761;0.3100840999977663;257105.1954252;2.600019797682762e-06;0.4996947000036016;0.5397072000196204;0.5911218000110239;0.6618820000148844;0.8413090000103693;1.1000731000094675;0;0;1;0;0.01
2;2;12;3;letter169;letter190;congruent;0.04;letter169;0.09;0.07;fullmask;0.25;arrow_left.png;0.13;m;0.243180499994196;0.2495980999956373;257107.115428;3.1999952625483274e-06;0.4960064000042621;0.536026599991601;0.5880886999948416;0.658195900003193;0.8376862999866717;0.8376884000026621;0;1;0;0;0.01
2;2;12;4;letter169;letter190;congruent;0.04;letter190;0.09;0.07;fullmask;0.25;arrow_right.png;0.13;m;0.2940517999813892;0.30027720000362024;257109.1076002;2.6999914553016424e-06;0.4961976000049617;0.5362108999979682;0.5883340000000317;0.658101799985161;0.8376242000085767;1.0865792999975383;0;0;1;0;0.01
2;2;12;5;letter169;letter190;congruent;0.04;letter169;0.09;0.07;fullmask;0.25;arrow_left.png;0.13;c;0.21888920001219958;0.22046350000891834;257111.0035637;2.500019036233425e-06;0.4988743000139948;0.5389052999962587;0.5908723000029568;0.6606492999999318;0.8113405000185594;0.811344600020675;0;1;0;0;0.01
2;2;12;6;letter169;letter190;congruent;0.04;letter169;0.09;0.07;fullmask;0.25;arrow_left.png;0.13;c;0.2456874999916181;0.25036000000545755;257112.7314129;2.6999914553016424e-06;0.5009320999961346;0.54097269999329;0.5928824000002351;0.6626637000008486;0.8432436999864876;0.8432458000024781;0;1;0;0;0.01
2;2;12;7;letter169;letter190;congruent;0.04;letter169;0.09;0.07;fullmask;0.25;arrow_left.png;0.13;c;0.2745907999924384;0.28027769998880103;257114.4914075;2.4999899324029684e-06;0.5008465999853797;0.5408643999835476;0.592788699985249;0.6625685000035446;0.8430905999848619;1.0712293999968097;0;0;1;0;0.01
2;2;12;8;letter169;letter190;congruent;0.04;letter190;0.09;0.07;fullmask;0.25;arrow_right.png;0.13;m;0.24320169998100027;0.24939610000001267;257116.4114164;2.7999922167509794e-06;0.4998308999929577;0.5398492999956943;0.591913599986583;0.6619543999840971;0.8413089000096079;0.841311099997256;0;1;0;0;0.01
2;2;12;9;letter169;letter190;congruent;0.04;letter190;0.09;0.07;fullmask;0.25;arrow_right.png;0.13;m;0.2501582000113558;0.2602404000062961;257118.1394719;2.400018274784088e-06;0.4962148000195157;0.5362391000089701;0.5882938000140712;0.6588746000197716;0.8383938000188209;1.0465673000144307;0;0;1;0;0.01
2;2;12;10;letter169;letter190;congruent;0.04;letter169;0.09;0.07;fullmask;0.25;arrow_left.png;0.13;c;0.28696890000719577;0.2902401000028476;257120.1074096;2.6999914553016424e-06;0.49595279997447506;0.5359585999976844;0.5879091999959201;0.657683099998394;0.8381984999869019;1.0763272999902256;0;0;1;0;0.01
2;2;12;11;letter169;letter190;congruent;0.04;letter169;0.09;0.07;fullmask;0.25;arrow_left.png;0.13;c;0.22173690001363866;0.23039790001348592;257122.0034112;2.8999929782003164e-06;0.4982573999732267;0.5382726999814622;0.5901849999791011;0.6599627999821678;0.8205839000002015;0.8205859999870881;0;1;0;0;0.01
2;2;12;12;letter169;letter190;congruent;0.04;letter190;0.09;0.07;fullmask;0.25;arrow_right.png;0.13;m;0.2884763000183739;0.2902847000223119;257123.7713704;2.600019797682762e-06;0.4997557000024244;0.5397884999983944;0.5918276000011247;0.6617280000064056;0.8411613000207581;1.080133500014199;0;0;1;0;0.01
2;2;12;13;letter169;letter190;congruent;0.04;letter169;0.09;0.07;fullmask;0.25;arrow_left.png;0.13;c;0.2715916000015568;0.2802807000116445;257125.7157647;3.1999952625483274e-06;0.4966560000029858;0.5366860999783967;0.5887341999914497;0.6584108999813907;0.8389288999896962;1.0670156999840401;0;0;1;0;0.01
2;2;12;14;letter169;letter190;congruent;0.04;letter169;0.09;0.07;fullmask;0.25;arrow_left.png;0.13;c;0.2580821999872569;0.26033610000740737;257127.683401;2.3999891709536314e-06;0.5044723999744747;0.5444858999981079;0.5964308999828063;0.666204299981473;0.8467246999789495;1.054817299998831;0;0;1;0;0.01
2;2;12;15;letter169;letter190;congruent;0.04;letter190;0.09;0.07;fullmask;0.25;arrow_right.png;0.13;m;0.26288490000297315;0.2703023999929428;257129.6194459;2.800021320581436e-06;0.5031400000152644;0.5431870000029448;0.5951025000249501;0.6648758000228554;0.8454019000055268;1.0634770000178833;0;0;1;0;0.01
2;2;12;16;letter169;letter190;congruent;0.04;letter190;0.09;0.07;fullmask;0.25;arrow_right.png;0.13;m;0.21555870000156574;0.219427399977576;257131.5234006;2.5999906938523054e-06;0.49964590001036413;0.5399367999925744;0.5916254000039771;0.6613969999889378;0.8110534999868833;0.8110557000036351;0;1;0;0;0.01
2;2;12;17;letter169;letter190;congruent;0.04;letter190;0.09;0.07;fullmask;0.25;arrow_right.png;0.13;m;0.22841600002720952;0.23043100000359118;257133.2273632;2.600019797682762e-06;0.498103899997659;0.5381265000032727;0.5901193000026979;0.6598018000076991;0.820553600002313;0.8205600999935996;0;1;0;0;0.01
2;2;12;18;letter169;letter190;congruent;0.04;letter169;0.09;0.07;fullmask;0.25;arrow_left.png;0.13;c;0.23351700001512654;0.2403106999990996;257134.9235994;3.00002284348011e-06;0.4972837000095751;0.5373085000028368;0.5893488000147045;0.6590390000201296;0.8296575000276789;0.8296617000014521;0;1;0;0;0.01
2;2;12;19;letter169;letter190;congruent;0.04;letter190;0.09;0.07;fullmask;0.25;arrow_right.png;0.13;m;0.2081659999967087;0.20950040000025183;257136.6193863;2.700020559132099e-06;0.4983561000262853;0.5383572000137065;0.5904287000012118;0.6604953000205569;0.7999284000252374;0.7999307000136469;0;1;0;0;0.01
2;2;12;20;letter169;letter190;congruent;0.04;letter169;0.09;0.07;fullmask;0.25;arrow_left.png;0.13;c;0.19144569998024963;0.20047660000273027;257138.3233841;2.500019036233425e-06;0.49840040001436137;0.5384233000222594;0.5901087000092957;0.6598770999989938;0.7905864000204019;0.7905885000072885;0;1;0;0;0.01
2;2;12;21;letter169;letter190;congruent;0.04;letter169;0.09;0.07;fullmask;0.25;arrow_left.png;0.13;c;0.1961412999953609;0.19947920000413433;257140.0194352;3.6999990697950125e-06;0.5043671999883372;0.5443860999948811;0.5963465999811888;0.666119899979094;0.7958267999929376;0.7958288999798242;0;1;0;0;0.01
2;2;12;22;letter169;letter190;congruent;0.04;letter169;0.09;0.07;fullmask;0.25;arrow_left.png;0.13;c;0.16494149999925867;0.16947210000944324;257141.659432;2.6999914553016424e-06;0.495780899975216;0.5357866999984253;0.5878572999790777;0.6575374999956694;0.7573287999839522;0.7573307999991812;0;1;0;0;0.01
2;2;12;23;letter169;letter190;congruent;0.04;letter190;0.09;0.07;fullmask;0.25;arrow_right.png;0.13;m;0.2341133000154514;0.24031580000882968;257143.3796023;2.800021320581436e-06;0.5017258000152651;0.5417505000077654;0.5937809000024572;0.6634990000165999;0.8340964000090025;0.8341006000118796;0;1;0;0;0.01
2;2;12;24;letter169;letter190;congruent;0.04;letter190;0.09;0.07;fullmask;0.25;arrow_right.png;0.13;c;0.12138060000143014;0.13065910001751035;257144.9874583;2.4999899324029684e-06;0.4981727999984287;0.5381882000074256;0.5896924000116996;0.6594679999980144;0.7203527000092436;0.7203547999961302;0;1;0;0;0.01
2;2;12;25;letter169;letter190;congruent;0.04;letter190;0.09;0.07;fullmask;0.25;arrow_right.png;0.13;m;0.23982200000318699;0.24040129999048077;257146.9474851;2.6999914553016424e-06;0.49564969999482855;0.5356638999946881;0.5875662000034936;0.6573407000105362;0.8279685000015888;0.8279706999892369;0;1;0;0;0.01
2;2;12;26;letter169;letter190;congruent;0.04;letter169;0.09;0.07;fullmask;0.25;arrow_left.png;0.13;c;0.20859460000065155;0.209549799998058;257148.6273594;2.600019797682762e-06;0.49651170001016;0.5365375000110362;0.5884506000147667;0.6582219000265468;0.7980013000196777;0.7980034000065643;0;1;0;0;0.01
2;2;12;27;letter169;letter190;congruent;0.04;letter169;0.09;0.07;fullmask;0.25;arrow_left.png;0.13;m;0.24543170002289116;0.24940700002480298;257150.3554317;2.5999906938523054e-06;0.5010471999994479;0.5411016999860294;0.5931392999773379;0.6630598999909125;0.84254649997456;0.8425485999905504;0;1;0;0;0.01
2;2;12;28;letter169;letter190;congruent;0.04;letter169;0.09;0.07;fullmask;0.25;arrow_left.png;0.13;c;0.19615869998233393;0.1995073999860324;257152.2273835;2.600019797682762e-06;0.49726170001667924;0.5375662000151351;0.5893497999932151;0.6592375000182074;0.7888564000022598;0.7888587000197731;0;1;0;0;0.01
2;2;12;29;letter169;letter190;congruent;0.04;letter169;0.09;0.07;fullmask;0.25;arrow_left.png;0.13;c;0.27127399999881163;0.28028700000140816;257153.9635603;2.6999914553016424e-06;0.49506799998926;0.5350873999996111;0.58714359998703;0.6568392000044696;0.8373347999877296;1.0654285000055097;0;0;1;0;0.01
2;2;12;30;letter169;letter190;congruent;0.04;letter190;0.09;0.07;fullmask;0.25;arrow_right.png;0.13;m;0.2379406999971252;0.24037319998024032;257155.8913827;2.400018274784088e-06;0.4984124000184238;0.5384266000182834;0.5903810000163503;0.6601533000066411;0.8307552000042051;0.8307573000201955;0;1;0;0;0.01
2;2;12;31;letter169;letter190;congruent;0.04;letter169;0.09;0.07;fullmask;0.25;arrow_left.png;0.13;c;0.25485130000743084;0.2603356000036001;257157.6193936;2.8999929782003164e-06;0.497970800002804;0.5379648999951314;0.5899102999828756;0.6596868000051472;0.8401989999983925;1.04829969999264;0;0;1;0;0.01
2;2;12;32;letter169;letter190;congruent;0.04;letter169;0.09;0.07;fullmask;0.25;arrow_left.png;0.13;c;0.2095050999778323;0.21933369999169372;257159.5154405;2.6999914553016424e-06;0.5019158000068273;0.5419292000005953;0.5940396999940276;0.6637208000174724;0.8133732000133023;0.8133753000001889;0;1;0;0;0.01
2;2;12;33;letter169;letter190;congruent;0.04;letter190;0.09;0.07;fullmask;0.25;arrow_right.png;0.13;m;0.25839689999702387;0.2603458999947179;257161.2754395;3.2999960239976645e-06;0.49988269997993484;0.539897699985886;0.5920150999736506;0.6617107999918517;0.8412011999753304;1.0502424000005703;0;0;1;0;0.01
2;2;12;34;letter169;letter190;congruent;0.04;letter190;0.09;0.07;fullmask;0.25;arrow_right.png;0.13;m;0.237467300001299;0.24030810000840575;257163.1953878;2.6999914553016424e-06;0.4966639999765903;0.53671439999016;0.5884281999897212;0.6581258999940474;0.8287314999906812;0.8287336999783292;0;1;0;0;0.01
2;2;12;35;letter169;letter190;congruent;0.04;letter169;0.09;0.07;fullmask;0.25;arrow_left.png;0.13;c;0.21413740000571124;0.21942870001657866;257164.8833743;2.5999906938523054e-06;0.4980775000003632;0.538109799992526;0.5900508999766316;0.6598296999873128;0.8094806000008248;0.8094825999869499;0;1;0;0;0.01
2;2;12;36;letter169;letter190;congruent;0.04;letter169;0.09;0.07;fullmask;0.25;arrow_left.png;0.13;c;0.2190503999881912;0.2192520999815315;257166.5794849;2.7999922167509794e-06;0.49921319997520186;0.5392417999973986;0.591303399996832;0.660985399998026;0.8105546999722719;0.8105565999867395;0;1;0;0;0.01
2;2;12;37;letter169;letter190;congruent;0.04;letter169;0.09;0.07;fullmask;0.25;arrow_left.png;0.13;c;0.2201237000117544;0.22040680001373403;257168.3315092;2.9999937396496534e-06;0.5047424999938812;0.544777700008126;0.5966634000069462;0.6664290000044275;0.8170737999898847;0.8170778999920003;0;1;0;0;0.01
2;2;12;38;letter169;letter190;congruent;0.04;letter190;0.09;0.07;fullmask;0.25;arrow_right.png;0.13;m;0.26462699999683537;0.27031560000614263;257170.0674562;2.800021320581436e-06;0.497140000021318;0.5371656000206713;0.5894209000107367;0.6591038000187837;0.838639499997953;1.0574983000115026;0;0;1;0;0.01
2;2;12;39;letter169;letter190;congruent;0.04;letter190;0.09;0.07;fullmask;0.25;arrow_right.png;0.13;m;0.2135450000059791;0.21942070001387037;257171.9473718;2.500019036233425e-06;0.4964951000001747;0.5365238000231329;0.5885282000235748;0.6582976000208873;0.80794950001291;0.8079514999990351;0;1;0;0;0.01
2;2;12;40;letter169;letter190;congruent;0.04;letter169;0.09;0.07;fullmask;0.25;arrow_left.png;0.13;c;0.2084991000010632;0.2094509000016842;257173.643351;2.8999929782003164e-06;0.4980511000030674;0.5380673999898136;0.590015299996594;0.6597886999952607;0.7994677000096999;0.7994696999958251;0;1;0;0;0.01
2;2;12;41;letter169;letter190;congruent;0.04;letter190;0.09;0.07;fullmask;0.25;arrow_right.png;0.13;m;0.20949939999263734;0.2104549999930896;257175.3155004;2.800021320581436e-06;0.5014965000154916;0.5415314999991097;0.5935415000130888;0.6633122000203002;0.8039977000153158;0.8039997000014409;0;1;0;0;0.01
2;2;12;42;letter169;letter190;congruent;0.04;letter190;0.09;0.07;fullmask;0.25;arrow_right.png;0.13;m;0.19836749997921288;0.19939890000387095;257176.9953964;2.6999914553016424e-06;0.5001463999797124;0.5401529999799095;0.5921268999809399;0.661821499990765;0.7915204000019003;0.7915224999887869;0;1;0;0;0.01
2;2;12;43;letter169;letter190;congruent;0.04;letter190;0.09;0.07;fullmask;0.25;arrow_right.png;0.13;m;0.1751978000102099;0.17945110000437126;257178.6433706;2.8999929782003164e-06;0.5029023000097368;0.5428986999904737;0.59493960000691;0.6646298999839928;0.7743854000000283;0.7743874999869149;0;1;0;0;0.01
2;2;12;44;letter169;letter190;congruent;0.04;letter190;0.09;0.07;fullmask;0.25;arrow_right.png;0.13;m;0.21873079999932088;0.22042150000925176;257180.3473661;2.7999922167509794e-06;0.4999183999898378;0.5399704000155907;0.591372599999886;0.6611436000093818;0.8117949000152294;0.811797000002116;0;1;0;0;0.01
2;2;12;45;letter169;letter190;congruent;0.04;letter169;0.09;0.07;fullmask;0.25;arrow_left.png;0.13;c;0.2350123999931384;0.23936649999814108;257182.0753604;2.700020559132099e-06;0.5038713999965694;0.5439088999992236;0.5959473999973852;0.6657150000100955;0.8353148000023793;0.8353169000183698;0;1;0;0;0.01
2;2;12;46;letter169;letter190;congruent;0.04;letter190;0.09;0.07;fullmask;0.25;arrow_right.png;0.13;m;0.18605739998747595;0.18954250001115724;257183.7473653;2.600019797682762e-06;0.4994871999952011;0.5394996000104584;0.5914052000152878;0.6613046000129543;0.7809473999950569;0.7809496000118088;0;1;0;0;0.01
2;2;12;47;letter169;letter190;congruent;0.04;letter190;0.09;0.07;fullmask;0.25;arrow_right.png;0.13;m;0.2128208999929484;0.21947649997309782;257185.4353565;2.5999906938523054e-06;0.5002931999915745;0.540280499990331;0.592378799978178;0.6622795999865048;0.811854499974288;0.8118565999902785;0;1;0;0;0.01
2;2;12;48;letter169;letter190;congruent;0.04;letter169;0.09;0.07;fullmask;0.25;arrow_left.png;0.13;c;0.21614219999173656;0.2203490999818314;257187.1393671;2.900022082030773e-06;0.49525740000535734;0.5352814999932889;0.5869336000178009;0.6566203999973368;0.8072782999952324;0.8072803000104614;0;1;0;0;0.01
2;2;13;1;letter169;letter190;congruent;0.04;letter190;0.09;0.07;fullmask;0.2;arrow_right.png;0.13;m;0.2933883999940008;0.30024539999431;257207.5793502;3.100023604929447e-06;0.4951617000042461;0.5354615000251215;0.586510699999053;0.6573126000002958;0.7869637000258081;1.0855672000034247;0;0;1;0;0.01
2;2;13;2;letter169;letter190;congruent;0.04;letter190;0.09;0.07;fullmask;0.2;arrow_right.png;0.13;m;0.27383789999294095;0.28024349999031983;257209.5313337;2.4999899324029684e-06;0.49962190000223927;0.5396615999925416;0.5912421999964863;0.6610117999953218;0.7916432000056375;1.0699929000111297;0;0;1;0;0.01
2;2;13;3;letter169;letter190;congruent;0.04;letter169;0.09;0.07;fullmask;0.2;arrow_left.png;0.13;c;0.2488825999898836;0.25046099998871796;257211.4674182;3.2999960239976645e-06;0.4975397000089288;0.537562200013781;0.5889366999908816;0.6597277999971993;0.7893828999949619;1.0378837999887764;0;0;1;0;0.01
2;2;13;4;letter169;letter190;congruent;0.04;letter190;0.09;0.07;fullmask;0.2;arrow_right.png;0.13;m;0.22688830000697635;0.22939659998519346;257213.3874041;2.4999899324029684e-06;0.5044040000066161;0.5444095999991987;0.596520099992631;0.6662848999840207;0.7959434000076726;1.0247239999880549;0;0;1;0;0.01
2;2;13;5;letter169;letter190;congruent;0.04;letter190;0.09;0.07;fullmask;0.2;arrow_right.png;0.13;m;0.2144102999882307;0.22042619998683222;257215.2753436;2.6999914553016424e-06;0.4986062999814749;0.5386147999961395;0.5899217999831308;0.6606901999912225;0.7903447999851778;1.008922499982873;0;0;1;0;0.01
2;2;13;6;letter169;letter190;congruent;0.04;letter169;0.09;0.07;fullmask;0.2;arrow_left.png;0.13;c;0.19243290001759306;0.19947920000413433;257217.1554331;2.5999906938523054e-06;0.5023449000145774;0.5423589000129141;0.5945162000134587;0.664279999997234;0.7939965999976266;0.793998700013617;0;1;0;0;0.01
2;2;13;7;letter169;letter190;congruent;0.04;letter190;0.09;0.07;fullmask;0.2;arrow_right.png;0.13;m;0.23177439998835325;0.24040559999411926;257218.8755486;2.3999891709536314e-06;0.5004467999970075;0.5404607999953441;0.5923018000030424;0.6623703000077512;0.791772900003707;1.0307659000100102;0;0;1;0;0.01
2;2;13;8;letter169;letter190;congruent;0.04;letter169;0.09;0.07;fullmask;0.2;arrow_left.png;0.13;c;0.2460748000012245;0.25023989999317564;257220.8113194;2.900022082030773e-06;0.5028896000003442;0.5429148000257555;0.5950025000202004;0.6647605000180192;0.7943100999982562;1.0432409000059124;0;0;1;0;0.01
2;2;13;9;letter169;letter190;congruent;0.04;letter190;0.09;0.07;fullmask;0.2;arrow_right.png;0.13;m;0.20102520001819357;0.2103435000171885;257222.7073304;2.6999914553016424e-06;0.5040415000112262;0.5440837999922223;0.5959733999916352;0.6658884999924339;0.7962853999924846;1.004367799992906;0;0;1;0;0.01
2;2;13;10;letter169;letter190;congruent;0.04;letter169;0.09;0.07;fullmask;0.2;arrow_left.png;0.13;c;0.1801909999921918;0.18042819999391213;257224.5874442;2.8999929782003164e-06;0.5031106999958865;0.5431366999982856;0.5947721000120509;0.6645544999919366;0.7752012000128161;0.7752031999989413;0;1;0;0;0.01
2;2;13;11;letter169;letter190;congruent;0.04;letter169;0.09;0.07;fullmask;0.2;arrow_left.png;0.13;c;0.19917000000714324;0.20069210001383908;257226.2673364;2.7999922167509794e-06;0.4959318999899551;0.5359560000069905;0.5874069999845233;0.6574682999926154;0.7880984999937937;0.7881005999806803;0;1;0;0;0.01
2;2;13;12;letter169;letter190;congruent;0.04;letter169;0.09;0.07;fullmask;0.2;arrow_left.png;0.13;c;0.19951229999423958;0.20949919999111444;257227.9393969;2.700020559132099e-06;0.5006242000090424;0.5406424000102561;0.5927636999986134;0.662669100012863;0.7921486000122968;1.0009446000040043;0;0;1;0;0.01
2;2;13;13;letter169;letter190;congruent;0.04;letter169;0.09;0.07;fullmask;0.2;arrow_left.png;0.13;c;0.16265290000592358;0.16960560000734404;257229.803359;2.4999899324029684e-06;0.5002238000161014;0.539953700004844;0.5916727000148967;0.6615753000078257;0.7612776000169106;0.7612797000037972;0;1;0;0;0.01
2;2;13;14;letter169;letter190;congruent;0.04;letter190;0.09;0.07;fullmask;0.2;arrow_right.png;0.13;m;0.2551900999969803;0.2593561999965459;257231.5472839;2.7999922167509794e-06;0.502129700005753;0.5421485000115354;0.5941907000087667;0.6640902000071947;0.7936343000037596;1.052472300012596;0;0;1;0;0.01
2;2;13;15;letter169;letter190;congruent;0.04;letter169;0.09;0.07;fullmask;0.2;arrow_left.png;0.13;m;0.1699823000235483;0.17944269999861717;257233.4033429;2.600019797682762e-06;0.5011311999987811;0.5411475000146311;0.5932195000059437;0.6628974000050221;0.7726615999999922;0.7726635000144597;0;1;0;0;0.01
2;2;13;16;letter169;letter190;congruent;0.04;letter190;0.09;0.07;fullmask;0.2;arrow_right.png;0.13;m;0.21895370000856929;0.2193109999934677;257235.1233838;2.9999937396496534e-06;0.496134399989387;0.5361426000017673;0.5882170999830123;0.6579499999934342;0.7876004999852739;1.0064683000091463;0;0;1;0;0.01
2;2;13;17;letter169;letter190;congruent;0.04;letter169;0.09;0.07;fullmask;0.2;arrow_left.png;0.13;c;0.1896118999866303;0.1994014999945648;257236.9952971;2.8999929782003164e-06;0.49854959998629056;0.5385778000054415;0.5906851000036113;0.6603682999848388;0.790085899992846;0.7900880000088364;0;1;0;0;0.01
2;2;13;18;letter169;letter190;congruent;0.04;letter190;0.09;0.07;fullmask;0.2;arrow_right.png;0.13;m;0.22855570001411252;0.22930420000921004;257238.7152884;2.7999922167509794e-06;0.49697869998635724;0.5370207999949344;0.5890813999867532;0.6587607999972533;0.7884145999851171;1.0173301999748219;0;0;1;0;0.01
2;2;13;19;letter169;letter190;congruent;0.04;letter190;0.09;0.07;fullmask;0.2;arrow_right.png;0.13;m;0.22157170000718907;0.23043120000511408;257240.6193579;2.7999922167509794e-06;0.5001128000149038;0.5401566000073217;0.5920382000040263;0.6617146999924444;0.7923865999910049;1.0204464000125881;0;0;1;0;0.01
2;2;13;20;letter169;letter190;congruent;0.04;letter169;0.09;0.07;fullmask;0.2;arrow_left.png;0.13;c;0.19625499998801388;0.19948609999846667;257242.5153216;2.6999914553016424e-06;0.5039344999822788;0.543959900009213;0.5959080999891739;0.6656842000083998;0.7953956999990623;0.795397799985949;0;1;0;0;0.01
2;2;13;21;letter169;letter190;congruent;0.04;letter190;0.09;0.07;fullmask;0.2;arrow_right.png;0.13;m;0.2237369999929797;0.23040420000324957;257244.2033069;3.00002284348011e-06;0.497140000021318;0.5371574000164401;0.5885441999998875;0.6593141000194009;0.7889653000165708;1.0174701000214554;0;0;1;0;0.01
2;2;13;22;letter169;letter190;congruent;0.04;letter169;0.09;0.07;fullmask;0.2;arrow_left.png;0.13;c;0.14172049998887815;0.14964280001004227;257246.043304;2.500019036233425e-06;0.5032258999999613;0.5432452000095509;0.5954044000245631;0.665307200019015;0.7450465000001714;0.7450487000169232;0;1;0;0;0.01
2;2;13;23;letter169;letter190;congruent;0.04;letter169;0.09;0.07;fullmask;0.2;arrow_left.png;0.13;c;0.2790326999966055;0.2801757999986876;257247.8113735;2.6999914553016424e-06;0.5027645000081975;0.5427831999841146;0.5946665999945253;0.6643602999974973;0.7950113999831956;1.0731289999966975;0;0;1;0;0.01
2;2;13;24;letter169;letter190;congruent;0.04;letter190;0.09;0.07;fullmask;0.2;arrow_right.png;0.13;m;0.20357959999819286;0.20944849998340942;257249.7073191;2.7999922167509794e-06;0.5042637000151444;0.544278299988946;0.5962923000042792;0.6660680999921169;0.7957138000056148;1.0045781999942847;0;0;1;0;0.01
2;2;13;25;letter169;letter190;congruent;0.04;letter190;0.09;0.07;fullmask;0.2;arrow_right.png;0.13;m;0.22044720000121742;0.22939799999585375;257251.6354085;2.7999922167509794e-06;0.4989684999745805;0.538989099994069;0.5909958999836817;0.6607660999870859;0.7904196999734268;1.0192976999969687;0;0;1;0;0.01
2;2;13;26;letter169;letter190;congruent;0.04;letter169;0.09;0.07;fullmask;0.2;arrow_left.png;0.13;m;0.09897049999563023;0.09975190000841394;257253.4352973;2.7999922167509794e-06;0.5041013000009116;0.5441205000097398;0.5962564999936149;0.6660324000113178;0.6960096000111662;0.6960115999972913;0;1;0;0;0.01
2;2;13;27;letter169;letter190;congruent;0.04;letter169;0.09;0.07;fullmask;0.2;arrow_left.png;0.13;c;0.3502073000126984;0.36010390002047643;257255.2674522;2.4999899324029684e-06;0.5011495999933686;0.541153199999826;0.5931988999946043;0.6629161000018939;0.7925671999983024;0.9231952000118326;0;0;0;1;0.01
2;2;13;28;letter169;letter190;congruent;0.04;letter169;0.09;0.07;fullmask;0.2;arrow_left.png;0.13;c;0.21169900000677444;0.22041280000121333;257256.9793526;2.8999929782003164e-06;0.5022369000071194;0.5422672999848146;0.5934843999857549;0.6642436999827623;0.7938892999954987;1.0125327999994624;0;0;1;0;0.01
2;2;13;29;letter169;letter190;congruent;0.04;letter190;0.09;0.07;fullmask;0.2;arrow_right.png;0.13;m;0.22753509998437949;0.2293880000070203;257258.9473021;2.6999914553016424e-06;0.5037470000097528;0.5437417000066489;0.5958604000043124;0.6655470000114292;0.795273099996848;1.0240576000069268;0;0;1;0;0.01
2;2;13;30;letter169;letter190;congruent;0.04;letter190;0.09;0.07;fullmask;0.2;arrow_right.png;0.13;m;0.320509499986656;0.33014039997942746;257260.9713408;3.00002284348011e-06;0.5044669000199065;0.5444819999975152;0.5964273000136018;0.6661994000023697;0.7958531000185758;1.1248619000252802;0;0;1;0;0.01
2;2;13;31;letter169;letter190;congruent;0.04;letter190;0.09;0.07;fullmask;0.2;arrow_right.png;0.13;m;0.2398877999803517;0.24044679998769425;257262.9314296;3.0999945010989904e-06;0.5029465999978129;0.5429505000065546;0.594306199986022;0.6651164999930188;0.7947698000061791;1.033278299990343;0;0;1;0;0.01
2;2;13;32;letter169;letter190;congruent;0.04;letter190;0.09;0.07;fullmask;0.2;arrow_right.png;0.13;m;0.2605321000155527;0.2702958000008948;257264.8832909;2.800021320581436e-06;0.49663970002438873;0.5366471000015736;0.5879779000242706;0.6587540000036824;0.7884116000204813;1.0569993000244722;0;0;1;0;0.01
2;2;13;33;letter169;letter190;congruent;0.04;letter190;0.09;0.07;fullmask;0.2;arrow_right.png;0.13;m;0.20488139998633415;0.21039190000738017;257266.7792957;2.600019797682762e-06;0.4964184000273235;0.5364368000009563;0.5881519000104163;0.6579366000078153;0.7885818000067957;0.9967612000182271;0;0;1;0;0.01
2;2;13;34;letter169;letter190;congruent;0.04;letter190;0.09;0.07;fullmask;0.2;arrow_right.png;0.13;m;0.22538930000155233;0.229405099991709;257268.6913647;2.5999906938523054e-06;0.49741709997761063;0.5371955999871716;0.5892569999850821;0.6590305999852717;0.7887081999797374;1.017511399986688;0;0;1;0;0.01
2;2;13;35;letter169;letter190;congruent;0.04;letter169;0.09;0.07;fullmask;0.2;arrow_left.png;0.13;c;0.2642863000219222;0.2702927000063937;257270.6514512;2.5999906938523054e-06;0.5028482000052463;0.5428668000095058;0.5949117999989539;0.6645800999831408;0.7942341000016313;1.0632101999945007;0;0;1;0;0.01
2;2;13;36;letter169;letter190;congruent;0.04;letter190;0.09;0.07;fullmask;0.2;arrow_right.png;0.13;m;0.19290449999971315;0.19948149999254383;257272.5312841;2.7999922167509794e-06;0.5005892000044696;0.5406232999812346;0.5925969999807421;0.6623690999986138;0.7920795999816619;0.7920815999968909;0;1;0;0;0.01
2;2;13;37;letter169;letter190;congruent;0.04;letter169;0.09;0.07;fullmask;0.2;arrow_left.png;0.13;c;0.17783699999563396;0.17958149997866713;257274.1873594;2.6999914553016424e-06;0.4986575999937486;0.5386792999925092;0.5907359999837354;0.6606395999842789;0.7703169999876991;0.770319200004451;0;1;0;0;0.01
2;2;13;38;letter169;letter190;congruent;0.04;letter169;0.09;0.07;fullmask;0.2;arrow_left.png;0.13;c;0.21955839998554438;0.22042999998666346;257275.899304;2.5999906938523054e-06;0.4990932999935467;0.5390919999917969;0.5903283999941777;0.6611084000032861;0.7907593999989331;1.009415499982424;0;0;1;0;0.01
2;2;13;39;letter169;letter190;congruent;0.04;letter169;0.09;0.07;fullmask;0.2;arrow_left.png;0.13;c;0.21565350002492778;0.22054290000232868;257277.7872832;2.500019036233425e-06;0.5011771999998018;0.5412236000120174;0.5931059000140522;0.6628774999990128;0.7925358999927994;1.0115279000019655;0;0;1;0;0.01
2;2;13;40;letter169;letter190;congruent;0.04;letter169;0.09;0.07;fullmask;0.2;arrow_left.png;0.13;c;0.20234990000608377;0.2093511999992188;257279.6753775;2.800021320581436e-06;0.5042048000032082;0.5442375999991782;0.5962995000008959;0.6659741000039503;0.7966017000144348;1.0045406000281218;0;0;1;0;0.01
2;2;13;41;letter169;letter190;congruent;0.04;letter169;0.09;0.07;fullmask;0.2;arrow_left.png;0.13;c;0.2012438999954611;0.2103585999866482;257281.5552876;2.5999906938523054e-06;0.5038365999935195;0.5438625999959186;0.5957387000089511;0.6654173999850173;0.7960695000074338;1.0041545999993104;0;0;1;0;0.01
2;2;13;42;letter169;letter190;congruent;0.04;letter169;0.09;0.07;fullmask;0.2;arrow_left.png;0.13;c;0.20594029998756014;0.20943249997799285;257283.4512783;3.100023604929447e-06;0.5040245999989565;0.5440418000216596;0.5959991000127047;0.6657644000079017;0.7953997000004165;1.0043453000253066;0;0;1;0;0.01
2;2;13;43;letter169;letter190;congruent;0.04;letter190;0.09;0.07;fullmask;0.2;arrow_right.png;0.13;m;0.26676850000512786;0.2704395000182558;257285.4034093;2.5999906938523054e-06;0.5004633999778889;0.5404706999834161;0.592517199984286;0.6624207999848295;0.7919867000018712;1.0608212999941316;0;0;1;0;0.01
2;2;13;44;letter169;letter190;congruent;0.04;letter190;0.09;0.07;fullmask;0.2;arrow_right.png;0.13;m;0.2621137000096496;0.2702761999971699;257287.3392714;2.5999906938523054e-06;0.5010087999980897;0.5410282999800984;0.5923423999920487;0.6631783999910112;0.7927297999849543;1.0613661999814212;0;0;1;0;0.01
2;2;13;45;letter169;letter190;congruent;0.04;letter190;0.09;0.07;fullmask;0.2;arrow_right.png;0.13;m;0.22289740000269376;0.23054590000538155;257289.2514266;2.6999914553016424e-06;0.5033054999948945;0.5433206000016071;0.5947556000028271;0.6656573999789543;0.7952207000053022;1.0236378999834415;0;0;1;0;0.01
2;2;13;46;letter169;letter190;congruent;0.04;letter190;0.09;0.07;fullmask;0.2;arrow_right.png;0.13;m;0.1931392000115011;0.1996178000117652;257291.1232721;2.6999914553016424e-06;0.49973909999243915;0.5397597999835853;0.59156410000287;0.6614709999994375;0.7911826999916229;0.7911847999785095;0;1;0;0;0.01
2;2;13;47;letter169;letter190;congruent;0.04;letter169;0.09;0.07;fullmask;0.2;arrow_left.png;0.13;c;0.21576019999338314;0.21947469998849556;257292.8272757;2.3999891709536314e-06;0.49987359999795444;0.5399235000077169;0.5920380000025034;0.6619423000083771;0.7914256000076421;1.0102282000007108;0;0;1;0;0.01
2;2;13;48;letter169;letter190;congruent;0.04;letter169;0.09;0.07;fullmask;0.2;arrow_left.png;0.13;c;0.14744380000047386;0.15052140000625513;257294.6592502;2.6999914553016424e-06;0.49869929999113083;0.5387004000076558;0.5898940000042785;0.6605700000072829;0.7404147000052035;0.7404168999928515;0;1;0;0;0.01
