subjnr;loop_m;blocknr;trialnr;cue_left_learn;cue_right_learn; congruence;cue_dur;cue;SOA;mask_dur;mask;target_dur;target;RW_dur;response;RT;kb_rt;response_absolute; fix_onset;cue_onset;cue_offset;mask_onset;mask_offset;target_offset;blank_onset;response_during_mask;response_during_targetalone;response_during_RW;response_during_blank;frame_dur
4;1;1;1;letter181;letter357;congruent;0.04;letter357;0.05;0.07;fullmask;0.3;arrow_right.png;0;m;0.35674680000010994;0.3600128999987646;8718.4181855;2.5000008463393897e-06;0.49406660000022384;0.5340941000013117;0.5458424000007653;0.615569499999765;0.8459524000008969;0.8459581000006438;0;0;0;1;0.01
4;1;1;2;letter181;letter357;congruent;0.04;letter181;0.05;0.07;fullmask;0.3;arrow_left.png;0;c;0.348106800000096;0.350937299999714;8720.2901953;2.599999788799323e-06;0.496201399999336;0.536222099999577;0.5474097999995138;0.6179570000003878;0.8484241000005568;0.8484298999992461;0;0;0;1;0.01
4;1;1;3;letter181;letter357;congruent;0.04;letter181;0.05;0.07;fullmask;0.3;arrow_left.png;0;c;0.3705952999989677;0.3800519999986136;8722.1141732;2.70000055024866e-06;0.5010226000013063;0.5410508000004484;0.5525718000008055;0.622652800000651;0.8527701000002708;0.8527766999995947;0;0;0;1;0.01
4;1;1;4;letter181;letter357;congruent;0.04;letter181;0.05;0.07;fullmask;0.3;arrow_left.png;0;c;0.33304649999990943;0.3401310999997804;8723.8983973;2.2999993234407157e-06;0.500490099999297;0.5405116000001726;0.5526513999993767;0.6222899999993388;0.8527281999995466;0.8527470999997604;0;0;0;1;0.01
4;1;1;5;letter181;letter357;congruent;0.04;letter357;0.05;0.07;fullmask;0.3;arrow_right.png;0;m;0.3437893999998778;0.35002840000015567;8725.690279;2.4000000848900527e-06;0.4951621000000159;0.5351763999988179;0.5472996999997122;0.6169965999997657;0.8473805999983597;0.847399399999631;0;0;0;1;0.01
4;1;1;6;letter181;letter357;congruent;0.04;letter357;0.05;0.07;fullmask;0.3;arrow_right.png;0;m;0.33060699999987264;0.34011069999905885;8727.458188;2.4000000848900527e-06;0.5040891999997257;0.5441026999997121;0.556172599999627;0.625944299999901;0.8563340999990032;0.856339999998454;0;0;0;1;0.01
4;1;1;7;letter181;letter357;congruent;0.04;letter357;0.05;0.07;fullmask;0.3;arrow_right.png;0;m;0.3196903999996721;0.32007340000018303;8729.2182426;2.899998435168527e-06;0.49664169999959995;0.5366732999991655;0.5485715999984677;0.6183326999998826;0.8487229999991541;0.8487294999995356;0;0;0;1;0.01
4;1;1;8;letter181;letter357;congruent;0.04;letter181;0.05;0.07;fullmask;0.3;arrow_left.png;0;c;0.31129650000002584;0.3210804000009375;8730.9702705;2.5000008463393897e-06;0.5001502000013716;0.5401531999996223;0.5513532000004489;0.6220321000000695;0.8524140000008629;0.8524403999999777;0;0;0;1;0.01
4;1;1;9;letter181;letter357;congruent;0.04;letter181;0.05;0.07;fullmask;0.3;arrow_left.png;0;c;0.3322656000000279;0.34105749999980617;8732.7623377;2.5000008463393897e-06;0.4954827000001387;0.5355042999999569;0.5466612000000168;0.6172578999994585;0.8477132999996684;0.8477332000002207;0;0;0;1;0.01
4;1;1;10;letter181;letter357;congruent;0.04;letter357;0.05;0.07;fullmask;0.3;arrow_right.png;0;m;0.30024629999934405;0.3103322000006301;8734.5223407;2.5000008463393897e-06;0.5026868999993894;0.5427314000007755;0.5547360000000481;0.6245498999996926;0.8549101000007795;0.8549294999993435;0;0;0;1;0.01
4;1;1;11;letter181;letter357;congruent;0.04;letter181;0.05;0.07;fullmask;0.3;arrow_left.png;0;c;0.36490760000015143;0.3700080999988131;8736.338185;2.4000000848900527e-06;0.495602200000576;0.5356130000000121;0.547692800000732;0.6173610000005283;0.8478326000004017;0.847838600000614;0;0;0;1;0.01
4;1;1;12;letter181;letter357;congruent;0.04;letter357;0.05;0.07;fullmask;0.3;arrow_right.png;0;m;0.321783499999583;0.33010269999977027;8738.1061826;2.4000000848900527e-06;0.4985707999985607;0.5385838999991392;0.5506304999998974;0.620393499999409;0.8507605999984662;0.8507666999994399;0;0;0;1;0.01
4;1;1;13;letter181;letter357;congruent;0.04;letter357;0.05;0.07;fullmask;0.3;arrow_right.png;0;m;0.27066390000072715;0.280308999999761;8739.8261715;2.599999788799323e-06;0.4995440000002418;0.5395637000001443;0.5515852999997151;0.6214870999992854;0.8318929999986722;0.8318951000001107;0;1;0;0;0.01
4;1;1;14;letter181;letter357;congruent;0.04;letter181;0.05;0.07;fullmask;0.3;arrow_left.png;0;c;0.27746859999933804;0.2793048000003182;8741.5541705;2.599999788799323e-06;0.49945090000073833;0.5394833999998809;0.5515818999992916;0.6214860000000044;0.8308856999992713;0.8308875000002445;0;1;0;0;0.01
4;1;1;15;letter181;letter357;congruent;0.04;letter357;0.05;0.07;fullmask;0.3;arrow_right.png;0;m;0.2924120999996376;0.3001216000011482;8743.290237;2.4000000848900527e-06;0.49816329999885056;0.5381751000004442;0.5502966999993077;0.6199875999991491;0.8504133000005822;0.8504154000002018;0;1;0;0;0.01
4;1;1;16;letter181;letter357;congruent;0.04;letter357;0.05;0.07;fullmask;0.3;arrow_right.png;0;m;0.27937259999998787;0.2802654999995866;8745.0182198;2.4000000848900527e-06;0.5024904999991122;0.5425134999986767;0.5545384999986709;0.6243108999988181;0.8348048999996536;0.8348068999985117;0;1;0;0;0.01
4;1;1;17;letter181;letter357;congruent;0.04;letter181;0.05;0.07;fullmask;0.3;arrow_left.png;0;c;0.3281841000007262;0.3301348000004509;8746.7781981;2.5000008463393897e-06;0.4947587000006024;0.53478350000114;0.5468731000000844;0.6166449000011198;0.847033800000645;0.8470397000000958;0;0;0;1;0.01
4;1;1;18;letter181;letter357;congruent;0.04;letter357;0.05;0.07;fullmask;0.3;arrow_right.png;0;m;0.3209666000002471;0.33017610000024433;8748.5221586;2.6000016077887267e-06;0.5003450000003795;0.5403646000013396;0.5525100000013481;0.6224056000010023;0.8517043000010744;0.8517107000006945;0;0;0;1;0.01
4;1;1;19;letter181;letter357;congruent;0.04;letter181;0.05;0.07;fullmask;0.3;arrow_left.png;0;c;0.3340028999991773;0.34013539999978093;8750.306319;2.4000000848900527e-06;0.49771900000087044;0.537735400001111;0.5498705999998492;0.6195651000016369;0.8499471000013727;0.849966100000529;0;0;0;1;0.01
4;1;1;20;letter181;letter357;congruent;0.04;letter181;0.05;0.07;fullmask;0.3;arrow_left.png;0;c;0.29988460000095074;0.3012190000008559;8752.0423723;2.5000008463393897e-06;0.5011278000001766;0.5411450999999943;0.5523204000000987;0.6229892000010295;0.8535465000004478;0.8535530999997718;0;1;0;0;0.01
4;1;1;21;letter181;letter357;congruent;0.04;letter357;0.05;0.07;fullmask;0.3;arrow_right.png;0;m;0.2645426999988558;0.27019470000050205;8753.7381648;2.499999027349986e-06;0.5038335999997798;0.5438479999993433;0.5550441999985196;0.6257081999992806;0.8252379999994446;0.8252400000001217;0;1;0;0;0.01
4;1;1;22;letter181;letter357;congruent;0.04;letter181;0.05;0.07;fullmask;0.3;arrow_left.png;0;c;0.2405522999997629;0.24935240000013437;8755.4661741;2.3000011424301192e-06;0.4972265000014886;0.537257200001477;0.5493206999999529;0.6190960000003543;0.7986741000004258;0.7986762000000454;0;1;0;0;0.01
4;1;1;23;letter181;letter357;congruent;0.04;letter181;0.05;0.07;fullmask;0.3;arrow_left.png;0;c;0.2854685000002064;0.29023550000056275;8757.2021659;2.499999027349986e-06;0.501228799999808;0.5412464999990334;0.5533025999993697;0.6230743999985862;0.8435391999992135;0.843541299998833;0;1;0;0;0.01
4;1;1;24;letter181;letter357;congruent;0.04;letter357;0.05;0.07;fullmask;0.3;arrow_right.png;0;m;0.22922639999887906;0.2303087999989657;8758.8661867;2.499999027349986e-06;0.4983974999995553;0.538420999999289;0.5496404000004986;0.6205623000005289;0.7799486000003526;0.7799506999999721;0;1;0;0;0.01
4;1;1;25;letter181;letter357;congruent;0.04;letter357;0.05;0.07;fullmask;0.3;arrow_right.png;0.13;m;0.6060559999987163;0.6101482999984;8807.2341487;2.70000055024866e-06;0.5039730999997118;0.5439640000004147;0.5555100000001403;0.6260399000002508;0.8554248000000371;0.9860742000000755;0;0;0;1;0.01
4;1;1;26;letter181;letter357;congruent;0.04;letter357;0.05;0.07;fullmask;0.3;arrow_right.png;0.13;m;0.40467050000006566;0.41064430000005814;8809.0741051;2.499999027349986e-06;0.5016433000000688;0.5416606999988289;0.5532101999997394;0.622794499999145;0.8530854000000545;1.1620643999995082;0;0;1;0;0.01
4;1;1;27;letter181;letter357;congruent;0.04;letter181;0.05;0.07;fullmask;0.3;arrow_left.png;0.13;c;0.33776290000059817;0.3411494000010862;8811.058142;2.4000000848900527e-06;0.5039173000004666;0.5439487999992707;0.5551371999990806;0.6261677999991662;0.855336200000238;1.0943139999999403;0;0;1;0;0.01
4;1;1;28;letter181;letter357;congruent;0.04;letter357;0.05;0.07;fullmask;0.3;arrow_right.png;0.13;m;2.8955564000007143;2.901309599999877;8815.5781408;2.4000000848900527e-06;0.4986010000011447;0.5386598000004597;0.5507563999999547;0.6206567999997787;0.8499618000005285;0.9806053000011161;0;0;0;1;0.01
4;1;1;29;letter181;letter357;congruent;0.04;letter357;0.05;0.07;fullmask;0.3;arrow_right.png;0.13;m;0.4670534000015323;0.4697599999999511;8817.4821365;2.499999027349986e-06;0.4976902999987942;0.5377162999993743;0.5495565000001079;0.6193296999990707;0.849711799999568;0.9793663000000379;0;0;0;1;0.01
4;1;1;30;letter181;letter357;congruent;0.04;letter181;0.05;0.07;fullmask;0.3;arrow_left.png;0.13;c;0.2921429999987595;0.3002120000001014;8819.2181737;2.70000055024866e-06;0.5011212999997952;0.5411491000013484;0.5527137000008224;0.6224837000008847;0.8529272000014316;0.8529292000002897;0;1;0;0;0.01
4;1;1;31;letter181;letter357;congruent;0.04;letter357;0.05;0.07;fullmask;0.3;arrow_right.png;0.13;m;0.5393024999993941;0.5406122999993386;8821.186129;2.6000016077887267e-06;0.4963502000009612;0.5363686000000598;0.5476176000011037;0.6176859000006516;0.8478161000002729;0.9784652000016649;0;0;0;1;0.01
4;1;1;32;letter181;letter357;congruent;0.04;letter357;0.05;0.07;fullmask;0.3;arrow_right.png;0.13;m;0.4853144999997312;0.4898247999990417;8823.1142266;2.599999788799323e-06;0.49936090000119293;0.5393368000004557;0.5514118000010058;0.6211951000004774;0.8515741999999591;0.9812266000008094;0;0;0;1;0.01
4;1;1;33;letter181;letter357;congruent;0.04;letter181;0.05;0.07;fullmask;0.3;arrow_left.png;0.13;c;0.33414670000092883;0.3400734000006196;8824.874136;2.2999993234407157e-06;0.49965879999945173;0.5396743000001152;0.5516067000007752;0.6212618999998085;0.8517351999998937;1.0900528999991366;0;0;1;0;0.01
4;1;1;34;letter181;letter357;congruent;0.04;letter181;0.05;0.07;fullmask;0.3;arrow_left.png;0.13;c;0.3027985000007902;0.31023409999943397;8826.8341388;2.4000000848900527e-06;0.498988699999245;0.5390047000000777;0.5509996999990108;0.6209026999986236;0.8511992999992799;1.0593563999991602;0;0;1;0;0.01
4;1;1;35;letter181;letter357;congruent;0.04;letter181;0.05;0.07;fullmask;0.3;arrow_left.png;0.13;c;0.33756480000010924;0.340103900000031;8828.8101774;2.5000008463393897e-06;0.4953923000011855;0.5354174000003695;0.5474357000002783;0.6172110000006796;0.8475836000015988;1.085766700000022;0;0;1;0;0.01
4;1;1;36;letter181;letter357;congruent;0.04;letter181;0.05;0.07;fullmask;0.3;arrow_left.png;0.13;c;0.3063080000010814;0.31029970000054163;8830.7702169;2.999999196617864e-06;0.49969140000030166;0.539716799999951;0.5517650000001595;0.6215554999998858;0.8519331999996211;1.0600364000001719;0;0;1;0;0.01
4;1;1;37;letter181;letter357;congruent;0.04;letter357;0.05;0.07;fullmask;0.3;arrow_right.png;0.13;m;0.39495890000034706;0.3999440000006871;8832.8101357;2.499999027349986e-06;0.5028736999993271;0.5428874999997788;0.5549410999992688;0.6247147999984008;0.855090699998982;1.1532842999986315;0;0;1;0;0.01
4;1;1;38;letter181;letter357;congruent;0.04;letter357;0.05;0.07;fullmask;0.3;arrow_right.png;0.13;c;0.2475572999992437;0.24955360000058135;8834.714127;2.6000016077887267e-06;0.5029745000010735;0.5429751000010583;0.5551102000008541;0.6241754000002402;0.8046633000012662;0.8046654000008857;0;1;0;0;0.01
4;1;1;39;letter181;letter357;congruent;0.04;letter357;0.05;0.07;fullmask;0.3;arrow_right.png;0.13;m;0.28318989999934274;0.2902158999986568;8836.6501326;2.5000008463393897e-06;0.4995671000015136;0.539593600000444;0.5508730000001378;0.6216202000014164;0.8410901000006561;0.8410922000002756;0;1;0;0;0.01
4;1;1;40;letter181;letter357;congruent;0.04;letter181;0.05;0.07;fullmask;0.3;arrow_left.png;0.13;c;0.33426170000166167;0.34103240000149526;8838.4422427;2.599999788799323e-06;0.5021570000008069;0.5422039000004588;0.5533752999999706;0.6240455000006477;0.8544332000001305;1.0925248000003194;0;0;1;0;0.01
4;1;1;41;letter181;letter357;congruent;0.04;letter181;0.05;0.07;fullmask;0.3;arrow_left.png;0.13;c;0.27861310000116646;0.28026370000043244;8840.3781605;2.4000000848900527e-06;0.501928499999849;0.5419447999993281;0.5534439000002749;0.6232150999985606;0.8337085000002844;0.8337108999985503;0;1;0;0;0.01
4;1;1;42;letter181;letter357;congruent;0.04;letter181;0.05;0.07;fullmask;0.3;arrow_left.png;0.13;c;0.4557706999985385;0.46067649999895366;8842.2661256;2.2999993234407157e-06;0.5035595999997895;0.543578200000411;0.5547810999996727;0.6256912999997439;0.8558286999996199;0.9854804999995395;0;0;0;1;0.01
4;1;1;43;letter181;letter357;congruent;0.04;letter181;0.05;0.07;fullmask;0.3;arrow_left.png;0.13;c;0.3617346000010002;0.37007009999979346;8844.0741302;2.499999027349986e-06;0.4973219000003155;0.5373468999987381;0.5493613999988156;0.619262099999105;0.8495641999998043;1.1177188999990904;0;0;1;0;0.01
4;1;1;44;letter181;letter357;congruent;0.04;letter357;0.05;0.07;fullmask;0.3;arrow_right.png;0.13;m;0.31244390000028943;0.32034589999966556;8846.1062772;2.9000002541579306e-06;0.4998299999988376;0.5398508999987826;0.5519791999995505;0.6218802999992477;0.8511791999990237;1.070193300000028;0;0;1;0;0.01
4;1;1;45;letter181;letter357;congruent;0.04;letter357;0.05;0.07;fullmask;0.3;arrow_right.png;0.13;m;0.38588869999875897;0.39121650000015507;8848.1302014;2.2999993234407157e-06;0.5000043000000005;0.5400210999996489;0.5513785999992251;0.6220321000000695;0.8516796000003524;1.140424899998834;0;0;1;0;0.01
4;1;1;46;letter181;letter357;congruent;0.04;letter357;0.05;0.07;fullmask;0.3;arrow_right.png;0.13;m;0.3618507999999565;0.3700725999988208;8850.1381249;2.5000008463393897e-06;0.4987096000004385;0.5387339999997494;0.5507391999999527;0.6206442000002426;0.8509426000000531;1.1191079000000173;0;0;1;0;0.01
4;1;1;47;letter181;letter357;congruent;0.04;letter181;0.05;0.07;fullmask;0.3;arrow_left.png;0.13;c;0.4284462999985408;0.42984919999980775;8852.2260973;2.5000008463393897e-06;0.5004038999995828;0.5404228000006697;0.5525082000003749;0.6222617999992508;0.8526455000010174;1.180845999999292;0;0;1;0;0.01
4;1;1;48;letter181;letter357;congruent;0.04;letter181;0.05;0.07;fullmask;0.3;arrow_left.png;0.13;c;0.3571529999990162;0.3601985999994213;8854.2261955;2.5000008463393897e-06;0.49993970000105037;0.5399651000006997;0.5521112000005814;0.6220154000002367;0.8513163999996323;1.1103357000010874;0;0;1;0;0.01
4;1;2;1;letter181;letter357;congruent;0.04;letter357;0.05;0.07;fullmask;0.25;arrow_right.png;0.13;m;0.41869079999923997;0.41992519999985234;8861.9621393;2.4000000848900527e-06;0.49680029999944963;0.5368089000003238;0.548432600000524;0.6182373999999982;0.7987537999997585;0.9284191000006103;0;0;0;1;0.01
4;1;2;2;letter181;letter357;congruent;0.04;letter357;0.05;0.07;fullmask;0.25;arrow_right.png;0.13;c;0.18097299999863026;0.18941149999955087;8863.5861261;2.6000016077887267e-06;0.5026539000009507;0.542688100000305;0.5548117000016646;0.6244821000000229;0.7442188000004535;0.744220900000073;0;1;0;0;0.01
4;1;2;3;letter181;letter357;congruent;0.04;letter357;0.05;0.07;fullmask;0.25;arrow_right.png;0.13;m;0.2639115000001766;0.27032540000072913;8865.4902279;2.5000008463393897e-06;0.4983680000004824;0.5383944999994128;0.5505226000004768;0.6202197000002343;0.800739700000122;1.0187026000003243;0;0;1;0;0.01
4;1;2;4;letter181;letter357;congruent;0.04;letter357;0.05;0.07;fullmask;0.25;arrow_right.png;0.13;m;0.35850810000010824;0.3600129000005836;8867.5060691;2.5000008463393897e-06;0.5042857000007643;0.5443173000003299;0.5564389999999548;0.6261745000010706;0.8056914999997389;1.1146862000005058;0;0;1;0;0.01
4;1;2;5;letter181;letter357;congruent;0.04;letter181;0.05;0.07;fullmask;0.25;arrow_left.png;0.13;c;2.4933756999998877;2.500831699999253;8871.6421138;2.499999027349986e-06;0.4953583999995317;0.5353780000004917;0.5474063000001479;0.6176491000005626;0.7971949000002496;0.9268527999993239;0;0;0;1;0.01
4;1;2;6;letter181;letter357;congruent;0.04;letter181;0.05;0.07;fullmask;0.25;arrow_left.png;0.13;c;0.25701350000053935;0.2604676000009931;8873.3382074;2.4000000848900527e-06;0.4981716000002052;0.5381791999989218;0.5501473999993323;0.6200499000005948;0.8004786000001332;1.008504699999321;0;0;1;0;0.01
4;1;2;7;letter181;letter357;congruent;0.04;letter181;0.05;0.07;fullmask;0.25;arrow_left.png;0.13;c;0.2836401000004116;0.2902726000011171;8875.2661142;3.099999958067201e-06;0.5000378000004275;0.5400608999989345;0.5520648999990954;0.6219922000000224;0.8013883000003261;1.0403764999991836;0;0;1;0;0.01
4;1;2;8;letter181;letter357;congruent;0.04;letter357;0.05;0.07;fullmask;0.25;arrow_right.png;0.13;m;0.3066990999996051;0.31023539999841887;8877.2101958;2.5000008463393897e-06;0.503667700000733;0.5436922999997478;0.5554984999998851;0.6254000999997515;0.8058345000008558;1.0640499000001;0;0;1;0;0.01
4;1;2;9;letter181;letter357;congruent;0.04;letter181;0.05;0.07;fullmask;0.25;arrow_left.png;0.13;c;0.27506089999951655;0.2793115000004036;8879.1301111;2.2999993234407157e-06;0.5013189000001148;0.5413341999992554;0.5534444999993866;0.6233537000007345;0.8027779000003648;1.031654599999456;0;0;1;0;0.01
4;1;2;10;letter181;letter357;congruent;0.04;letter181;0.05;0.07;fullmask;0.25;arrow_left.png;0.13;c;0.2919803000004322;0.3002417999996396;8881.0582926;2.599999788799323e-06;0.5024045999998634;0.5424299999995128;0.5545712999992247;0.6242624999995314;0.8047542999993311;1.0527690999988408;0;0;1;0;0.01
4;1;2;11;letter181;letter357;congruent;0.04;letter357;0.05;0.07;fullmask;0.25;arrow_right.png;0.13;m;0.31655979999959527;0.32020359999842185;8883.0341131;2.499999027349986e-06;0.49791409999852476;0.5379351999999926;0.5500599999995757;0.6198737999984587;0.7993955000001733;1.0682756999995036;0;0;1;0;0.01
4;1;2;12;letter181;letter357;congruent;0.04;letter181;0.05;0.07;fullmask;0.25;arrow_left.png;0.13;c;0.30018459999882907;0.3101836000005278;8884.978215;2.399998265900649e-06;0.4963226999989274;0.5363733999984106;0.547690599998532;0.6184570999994321;0.7979799999993702;1.056699299999309;0;0;1;0;0.01
4;1;2;13;letter181;letter357;congruent;0.04;letter357;0.05;0.07;fullmask;0.25;arrow_right.png;0.13;m;0.29020390000005136;0.3002470000010362;8886.930283;2.4000000848900527e-06;0.49958089999927324;0.5396067000001494;0.5517397000003257;0.6214163000004191;0.8009366000005684;1.0499185000007856;0;0;1;0;0.01
4;1;2;14;letter181;letter357;congruent;0.04;letter357;0.05;0.07;fullmask;0.25;arrow_right.png;0.13;m;0.3148397000004479;0.32011100000090664;8888.9061571;2.5000008463393897e-06;0.5030111000014585;0.5430367999997543;0.55515910000031;0.6248606999997719;0.8053718999999546;1.0733796000004077;0;0;1;0;0.01
4;1;2;15;letter181;letter357;congruent;0.04;letter357;0.05;0.07;fullmask;0.25;arrow_right.png;0.13;m;0.36557469999934256;0.37005609999869193;8890.9381106;2.2999993234407157e-06;0.502357999999731;0.5423728999994637;0.554437599999801;0.6243273000000045;0.8037606999987474;1.1227366999992228;0;0;1;0;0.01
4;1;2;16;letter181;letter357;congruent;0.04;letter181;0.05;0.07;fullmask;0.25;arrow_left.png;0.13;c;0.33058119999986957;0.3400954000007914;8892.9141081;2.4000000848900527e-06;0.4962902999996004;0.5363034999991214;0.5480750000006083;0.6178371000005427;0.7983543999998801;1.0866812000003847;0;0;1;0;0.01
4;1;2;17;letter181;letter357;congruent;0.04;letter181;0.05;0.07;fullmask;0.25;arrow_left.png;0.13;c;0.307686799998919;0.3102292999992642;8894.8821029;2.499999027349986e-06;0.5001699999993434;0.5401734999995824;0.5515574000000925;0.6213731999996526;0.801889399999709;1.0605223999991722;0;0;1;0;0.01
4;1;2;18;letter181;letter357;congruent;0.04;letter357;0.05;0.07;fullmask;0.25;arrow_right.png;0.13;m;0.299720700000762;0.3000208000012208;8896.8261609;2.70000055024866e-06;0.49576410000008764;0.5357847000013862;0.547937200000888;0.6176214000006439;0.798139500000616;1.0461341999998695;0;0;1;0;0.01
4;1;2;19;letter181;letter357;congruent;0.04;letter357;0.05;0.07;fullmask;0.25;arrow_right.png;0.13;m;0.3104624000006879;0.3201169000003574;8898.7780965;2.4000000848900527e-06;0.49499310000101104;0.5350178999997297;0.5471164999999019;0.6168398000008892;0.7963598000005732;1.0653658999999607;0;0;1;0;0.01
4;1;2;20;letter181;letter357;congruent;0.04;letter181;0.05;0.07;fullmask;0.25;arrow_left.png;0.13;c;0.3054608999991615;0.31017959999917366;8900.7141058;2.5000008463393897e-06;0.4964251000001241;0.536435199999687;0.5482781000009709;0.6180442000004405;0.798565500001132;1.0567620000001625;0;0;1;0;0.01
4;1;2;21;letter181;letter357;congruent;0.04;letter181;0.05;0.07;fullmask;0.25;arrow_left.png;0.13;c;0.3150492000004306;0.3211585000008199;8902.674281;2.499999027349986e-06;0.5024008999989746;0.5424242999997659;0.5536066999993636;0.6242566000000807;0.8037956999996823;1.0727470999991056;0;0;1;0;0.01
4;1;2;22;letter181;letter357;congruent;0.04;letter181;0.05;0.07;fullmask;0.25;arrow_left.png;0.13;c;0.3435441000001447;0.3506326999995508;8904.6744111;2.499999027349986e-06;0.4992452999995294;0.5392649999994319;0.550835799998822;0.6206488999996509;0.8011635999991995;1.099640599999475;0;0;1;0;0.01
4;1;2;23;letter181;letter357;congruent;0.04;letter181;0.05;0.07;fullmask;0.25;arrow_left.png;0.13;c;0.30557429999862507;0.3101838999991742;8906.6181599;2.599999788799323e-06;0.5017399000007572;0.5417608999996446;0.5537717999995948;0.6235491999996157;0.8030638000000181;1.0620971999996982;0;0;1;0;0.01
4;1;2;24;letter181;letter357;congruent;0.04;letter357;0.05;0.07;fullmask;0.25;arrow_right.png;0.13;m;0.32212930000059714;0.33017519999884826;8908.5861034;2.599999788799323e-06;0.5031278999995266;0.5431616000005306;0.5552933999988454;0.6252036999994743;0.8046281999995699;1.0835017999997945;0;0;1;0;0.01
4;1;2;25;letter181;letter357;congruent;0.04;letter181;0.05;0.07;fullmask;0.25;arrow_left.png;0.13;c;0.32494709999991755;0.33012910000070406;8910.5700853;2.5000008463393897e-06;0.4989701000013156;0.5389955999999074;0.5510356000013417;0.6208020000012766;0.800321000000622;1.079353600000104;0;0;1;0;0.01
4;1;2;26;letter181;letter357;congruent;0.04;letter357;0.05;0.07;fullmask;0.25;arrow_right.png;0.13;m;0.29160139999839885;0.2992610999990575;8912.4980924;2.5000008463393897e-06;0.495220299999346;0.5352646999999706;0.5473665000008623;0.6172681999996712;0.7967029999999795;1.0455652000000555;0;0;1;0;0.01
4;1;2;27;letter181;letter357;congruent;0.04;letter181;0.05;0.07;fullmask;0.25;arrow_left.png;0.13;c;0.27832350000062434;0.2793145000014192;8914.4260631;2.499999027349986e-06;0.5047286999997596;0.5447459999995772;0.5568795999988652;0.6267798999997467;0.8062149999987014;1.0350729000001593;0;0;1;0;0.01
4;1;2;28;letter181;letter357;congruent;0.04;letter357;0.05;0.07;fullmask;0.25;arrow_right.png;0.13;m;0.3175740999995469;0.31986499999948137;8916.3860888;2.4000000848900527e-06;0.5041078000012931;0.5441295000000537;0.5558062000000064;0.6254105999996682;0.8057989000008092;1.0744814999998198;0;0;1;0;0.01
4;1;2;29;letter181;letter357;congruent;0.04;letter357;0.05;0.07;fullmask;0.25;arrow_right.png;0.13;m;0.34204979999958596;0.35023130000081437;8918.3621343;2.499999027349986e-06;0.5007210999992822;0.5407512999991013;0.5527318000004016;0.622632299999168;0.8030438999994658;1.101099699999395;0;0;1;0;0.01
4;1;2;30;letter181;letter357;congruent;0.04;letter181;0.05;0.07;fullmask;0.25;arrow_left.png;0.13;c;0.27855970000018715;0.2793151999994734;8920.2900692;2.3000011424301192e-06;0.49893950000114273;0.5389678000010463;0.5510967000009259;0.6210007000008773;0.8004374000011012;1.029271500001414;0;0;1;0;0.01
4;1;2;31;letter181;letter357;congruent;0.04;letter357;0.05;0.07;fullmask;0.25;arrow_right.png;0.13;m;0.3495542000000569;0.35023700000056124;8922.2820817;2.3000011424301192e-06;0.5024363000011363;0.5424629000008281;0.554380300000048;0.6243068000003404;0.8038280000000668;1.102819300000192;0;0;1;0;0.01
4;1;2;32;letter181;letter357;congruent;0.04;letter357;0.05;0.07;fullmask;0.25;arrow_right.png;0.13;m;0.3442231000008178;0.35010979999970004;8924.2581224;2.6999987312592566e-06;0.49584779999895545;0.5358806999993249;0.5478919999986829;0.6176656999996339;0.7971815000000788;1.0962356999989424;0;0;1;0;0.01
4;1;2;33;letter181;letter357;congruent;0.04;letter357;0.05;0.07;fullmask;0.25;arrow_right.png;0.13;m;0.359058100000766;0.36008399999991525;8926.2743449;2.599999788799323e-06;0.5020731999993586;0.5421017999997275;0.5542203999993944;0.6239040000000386;0.8044229000006453;1.1124646999996912;0;0;1;0;0.01
4;1;2;34;letter181;letter357;congruent;0.04;letter181;0.05;0.07;fullmask;0.25;arrow_left.png;0.13;c;0.2695818000011059;0.28026450000106706;8928.1860832;2.599999788799323e-06;0.4955226000001858;0.5355505000006815;0.5475805999994918;0.6173533999990468;0.7968710999994073;1.0258572999991884;0;0;1;0;0.01
4;1;2;35;letter181;letter357;congruent;0.04;letter181;0.05;0.07;fullmask;0.25;arrow_left.png;0.13;c;0.3623528999996779;0.37002919999940787;8930.2100975;2.5000008463393897e-06;0.5001788999998098;0.5401990000009391;0.5522505000008096;0.6220272999998997;0.8015458999998373;1.1205733999995573;0;0;1;0;0.01
4;1;2;36;letter181;letter357;congruent;0.04;letter181;0.05;0.07;fullmask;0.25;arrow_left.png;0.13;c;0.3911645000007411;0.3991886000003433;8932.2505898;2.499999027349986e-06;0.49860699999953795;0.538740299998608;0.5510816999994859;0.6198974999988422;0.8004156999995757;0.9310626999995293;0;0;0;1;0.01
4;1;2;37;letter181;letter357;congruent;0.04;letter181;0.05;0.07;fullmask;0.25;arrow_left.png;0.13;c;0.3258274999989226;0.33013279999977385;8934.0260895;2.4000000848900527e-06;0.4995213000001968;0.5395583000008628;0.5516409000010754;0.6214163000004191;0.8009329000014986;1.0798983000004228;0;0;1;0;0.01
4;1;2;38;letter181;letter357;congruent;0.04;letter357;0.05;0.07;fullmask;0.25;arrow_right.png;0.13;m;0.3146323000000848;0.32015750000027765;8935.9861269;2.2999993234407157e-06;0.4958907000000181;0.5359129999997094;0.5479742999996233;0.6177441999989242;0.7972644999990735;1.06627060000028;0;0;1;0;0.01
4;1;2;39;letter181;letter357;congruent;0.04;letter181;0.05;0.07;fullmask;0.25;arrow_left.png;0.13;c;0.2974113000000216;0.3002323000000615;8937.930119;4.499999704421498e-06;0.5011806000002252;0.5412247000003845;0.5532277999991493;0.6230005999987043;0.8025239999988116;1.0515168999991147;0;0;1;0;0.01
4;1;2;40;letter181;letter357;congruent;0.04;letter181;0.05;0.07;fullmask;0.25;arrow_left.png;0.13;m;0.2781003000000055;0.28041099999973085;8939.8421562;2.4000000848900527e-06;0.5008467000006931;0.5408391000000847;0.5529667999999219;0.6227085999998963;0.802297099999123;1.031155700000454;0;0;1;0;0.01
4;1;2;41;letter181;letter357;congruent;0.04;letter357;0.05;0.07;fullmask;0.25;arrow_right.png;0.13;m;0.3152157000004081;0.3201602000008279;8942.0100834;2.5000008463393897e-06;0.5018639000008989;0.5418845000003785;0.5534564999998111;0.6232354999992822;0.8037511000002269;1.072251600000527;0;0;1;0;0.01
4;1;2;42;letter181;letter357;congruent;0.04;letter357;0.05;0.07;fullmask;0.25;arrow_right.png;0.13;m;0.2982191999999486;0.3002123999995092;8943.9540834;2.4000000848900527e-06;0.4994373999998061;0.5394644999996672;0.5507627000006323;0.6214270000000397;0.8010551000006672;1.0497881999999663;0;0;1;0;0.01
4;1;2;43;letter181;letter357;congruent;0.04;letter181;0.05;0.07;fullmask;0.25;arrow_left.png;0.13;c;0.27857380000023113;0.28039870000066003;8945.8664106;2.599999788799323e-06;0.4963482000002841;0.5363697000011598;0.5483944000006886;0.6181660000002012;0.7976890000009007;1.0266776999997091;0;0;1;0;0.01
4;1;2;44;letter181;letter357;congruent;0.04;letter181;0.05;0.07;fullmask;0.25;arrow_left.png;0.13;c;0.24497689999952854;0.25027919999956794;8947.7541503;2.399998265900649e-06;0.5027341999993951;0.542763899999045;0.5549017999983334;0.6245643999991444;0.8051832999990438;0.8051871999996365;0;1;0;0;0.01
4;1;2;45;letter181;letter357;congruent;0.04;letter357;0.05;0.07;fullmask;0.25;arrow_right.png;0.13;m;0.31481679999888;0.32057419999910053;8949.5141013;2.499999027349986e-06;0.4994618000000628;0.5394770000002609;0.55064560000028;0.6217794000003778;0.801351699999941;1.069815099999687;0;0;1;0;0.01
4;1;2;46;letter181;letter357;congruent;0.04;letter181;0.05;0.07;fullmask;0.25;arrow_left.png;0.13;c;0.2668032999990828;0.2703366999994614;8951.4181853;2.70000055024866e-06;0.4980871000007028;0.5381163000001834;0.5501266999999643;0.6200265999996191;0.7994589999998425;1.018447099999321;0;0;1;0;0.01
4;1;2;47;letter181;letter357;congruent;0.04;letter357;0.05;0.07;fullmask;0.25;arrow_right.png;0.13;c;0.28533819999938714;0.2893194999996922;8953.3380772;2.4000000848900527e-06;0.4960356999999931;0.5360665999996854;0.5482131000007939;0.6181139000000258;0.7975483999998687;1.0363893000012467;0;0;1;0;0.01
4;1;2;48;letter181;letter357;congruent;0.04;letter357;0.05;0.07;fullmask;0.25;arrow_right.png;0.13;m;0.3421663000008266;0.3502244999999675;8955.5062395;2.4000000848900527e-06;0.5043807999991259;0.5444083999991562;0.5565267000001768;0.626430899999832;0.8058571000001393;1.1047681000000011;0;0;1;0;0.01
4;1;3;1;letter181;letter357;congruent;0.04;letter357;0.05;0.07;fullmask;0.2;arrow_right.png;0.13;m;0.37655369999993127;0.38102559999970254;8965.5061411;2.5000008463393897e-06;0.5038899999999558;0.5439220999996905;0.5551527999996324;0.6259537999994791;0.7556048999995255;0.8852588999998261;0;0;0;1;0.01
4;1;3;2;letter181;letter357;congruent;0.04;letter181;0.05;0.07;fullmask;0.2;arrow_left.png;0.13;c;0.29651059999923746;0.30021149999993213;8967.2580944;2.599999788799323e-06;0.5023441000012099;0.5423432000006869;0.5544053000012354;0.6241012000009505;0.7538323999997374;1.0526753000012832;0;0;1;0;0.01
4;1;3;3;letter181;letter357;congruent;0.04;letter181;0.05;0.07;fullmask;0.2;arrow_left.png;0.13;c;0.3017577999999048;0.3102310000012949;8969.1940664;2.599999788799323e-06;0.4983173999989958;0.5383461999990686;0.5498932999998942;0.6196333999996568;0.7503610000003391;1.0586915999992925;0;0;1;0;0.01
4;1;3;4;letter181;letter357;congruent;0.04;letter357;0.05;0.07;fullmask;0.2;arrow_right.png;0.13;m;0.3119206999999733;0.3199273999998695;8971.1462029;2.2999993234407157e-06;0.49927779999961786;0.5393040999988443;0.5515752999999677;0.6210962000004656;0.7507863999999245;1.0696475999993709;0;0;1;0;0.01
4;1;3;5;letter181;letter357;congruent;0.04;letter181;0.05;0.07;fullmask;0.2;arrow_left.png;0.13;c;0.30473999999958323;0.3101863999982015;8973.0900612;2.599999788799323e-06;0.4998193999999785;0.5398273999999219;0.5518790000005538;0.6216488000009122;0.7513018999998167;1.0601418000005651;0;0;1;0;0.01
4;1;3;6;letter181;letter357;congruent;0.04;letter357;0.05;0.07;fullmask;0.2;arrow_right.png;0.13;m;0.28349030000026687;0.29023769999912474;8975.0100655;2.599999788799323e-06;0.49817590000020573;0.5381949000002351;0.5502553999995143;0.6200269000000844;0.7496809999993275;1.0385155999993003;0;0;1;0;0.01
4;1;3;7;letter181;letter357;congruent;0.04;letter181;0.05;0.07;fullmask;0.2;arrow_left.png;0.13;c;0.23482289999992645;0.24036290000003646;8976.8822304;2.599999788799323e-06;0.4998505000003206;0.5398748999996315;0.5515350999994553;0.621299700000236;0.7519487999998091;0.9901723000002676;0;0;1;0;0.01
4;1;3;8;letter181;letter357;congruent;0.04;letter181;0.05;0.07;fullmask;0.2;arrow_left.png;0.13;c;0.34713879999981145;0.3500970999994024;8978.866215;2.5000008463393897e-06;0.49964709999949264;0.5396645000000717;0.5518028999995295;0.6214791000002151;0.7511432000010245;0.8817940999997518;0;0;0;1;0.01
4;1;3;9;letter181;letter357;congruent;0.04;letter357;0.05;0.07;fullmask;0.2;arrow_right.png;0.13;m;0.335947200001101;0.3401824000011402;8980.6260569;2.2999993234407157e-06;0.49621320000005653;0.5362287999996624;0.5482608000002074;0.6181632999996509;0.7477295999997295;0.8783777000007831;0;0;0;1;0.01
4;1;3;10;letter181;letter357;congruent;0.04;letter181;0.05;0.07;fullmask;0.2;arrow_left.png;0.13;c;0.260849700000108;0.2702735000002576;8982.3220843;2.4000000848900527e-06;0.5003893000011885;0.5404162000013457;0.5524235000011686;0.6222004999999626;0.7518338000008953;1.0207250000003114;0;0;1;0;0.01
4;1;3;11;letter181;letter357;congruent;0.04;letter357;0.05;0.07;fullmask;0.2;arrow_right.png;0.13;m;0.2614484999994602;0.26933939999980794;8984.2340609;2.599999788799323e-06;0.500558199999432;0.5405831999996735;0.5527469999997265;0.622654999999213;0.7522133999991638;1.0209058000000368;0;0;1;0;0.01
4;1;3;12;letter181;letter357;congruent;0.04;letter357;0.05;0.07;fullmask;0.2;arrow_right.png;0.13;m;0.326320800000758;0.3302701000011439;8986.2100928;2.4000000848900527e-06;0.5022038999995857;0.542206800000713;0.5543183000008867;0.6241050999997242;0.753749900000912;1.0825750999993033;0;0;1;0;0.01
4;1;3;13;letter181;letter357;congruent;0.04;letter357;0.05;0.07;fullmask;0.2;arrow_right.png;0.13;m;0.2519240000001446;0.26032040000063716;8988.1060592;2.499999027349986e-06;0.4986188000002585;0.5386400000006688;0.5498324000000139;0.620625999999902;0.7502543999999034;1.0089432000004308;0;0;1;0;0.01
4;1;3;14;letter181;letter357;congruent;0.04;letter357;0.05;0.07;fullmask;0.2;arrow_right.png;0.13;c;0.18665890000011132;0.19050240000069607;8989.9220544;2.4000000848900527e-06;0.5022325999998429;0.5422372000011819;0.5534881000003224;0.6242533000004187;0.7439916000002995;0.743993699999919;0;1;0;0;0.01
4;1;3;15;letter181;letter357;congruent;0.04;letter181;0.05;0.07;fullmask;0.2;arrow_left.png;0.13;c;0.3226950999996916;0.33016549999956624;8991.6900352;2.499999027349986e-06;0.4953691999999137;0.5353836999984196;0.5475126000001183;0.6174019999998563;0.746969399999216;1.0757430999983626;0;0;1;0;0.01
4;1;3;16;letter181;letter357;congruent;0.04;letter357;0.05;0.07;fullmask;0.2;arrow_right.png;0.13;m;0.2655253000011726;0.2694552000011754;8993.5941323;2.5000008463393897e-06;0.4986348000002181;0.5386601999998675;0.5508081999996648;0.6207109999995737;0.7502705000006245;1.0189657000009902;0;0;1;0;0.01
4;1;3;17;letter181;letter357;congruent;0.04;letter357;0.05;0.07;fullmask;0.2;arrow_right.png;0.13;m;0.27864299999964715;0.28031209999971907;8995.4980549;2.4000000848900527e-06;0.49544849999983853;0.5354692000000796;0.5472155000006751;0.6171169999997801;0.7476824999994278;1.0258016000007046;0;0;1;0;0.01
4;1;3;18;letter181;letter357;congruent;0.04;letter181;0.05;0.07;fullmask;0.2;arrow_left.png;0.13;c;0.3032106999999087;0.31018349999976635;8997.4341447;2.70000055024866e-06;0.5005111999998917;0.540536800001064;0.5525655000001279;0.6223399999998946;0.7519957000004069;1.060899000000063;0;0;1;0;0.01
4;1;3;19;letter181;letter357;congruent;0.04;letter181;0.05;0.07;fullmask;0.2;arrow_left.png;0.13;c;0.35813649999909103;0.3600576999997429;8999.4500608;2.999999196617864e-06;0.5006546000004164;0.5406628000000637;0.5524320000004082;0.6222118999994564;0.7528626000002987;0.8825147000006837;0;0;0;1;0.01
4;1;3;20;letter181;letter357;congruent;0.04;letter181;0.05;0.07;fullmask;0.2;arrow_left.png;0.13;c;0.3187186000013753;0.3201903000008315;9001.202154;2.499999027349986e-06;0.5017503999988548;0.5417680999998993;0.5539029999999912;0.6235940999995364;0.7532357999989472;1.072117800000342;0;0;1;0;0.01
4;1;3;21;letter181;letter357;congruent;0.04;letter181;0.05;0.07;fullmask;0.2;arrow_left.png;0.13;c;0.3359656000011455;0.34010070000113046;9003.170044;2.5000008463393897e-06;0.4974899999997433;0.5375151000007463;0.5490088000005926;0.6187757999996393;0.7494244000008621;0.879087500001333;0;0;0;1;0.01
4;1;3;22;letter181;letter357;congruent;0.04;letter357;0.05;0.07;fullmask;0.2;arrow_right.png;0.13;m;0.26837069999965024;0.2693204000006517;9004.874128;2.4000000848900527e-06;0.5019158000013704;0.541937500000131;0.5539904000015667;0.6237556000014592;0.753441600001679;1.022255200001382;0;0;1;0;0.01
4;1;3;23;letter181;letter357;congruent;0.04;letter357;0.05;0.07;fullmask;0.2;arrow_right.png;0.13;m;0.3030561999985366;0.30942770000001474;9006.8100972;2.5000008463393897e-06;0.49516179999955057;0.5351890000001731;0.5473123000010673;0.6165522000010242;0.7469472000011592;1.0555261000008613;0;0;1;0;0.01
4;1;3;24;letter181;letter357;congruent;0.04;letter181;0.05;0.07;fullmask;0.2;arrow_left.png;0.13;c;0.2758520999996108;0.280390100000659;9008.7140589;2.4000000848900527e-06;0.4967001999993954;0.5367172999995091;0.5487706999992952;0.6186522999996669;0.7482204000007187;1.0270454000001337;0;0;1;0;0.01
4;1;3;25;letter181;letter357;congruent;0.04;letter181;0.05;0.07;fullmask;0.2;arrow_left.png;0.13;c;0.29875449999963166;0.3001421000008122;9010.6580301;2.9000002541579306e-06;0.5047352999990835;0.5447380000005069;0.5566319999998086;0.6263089999993099;0.7569714000001113;1.0550763999999617;0;0;1;0;0.01
4;1;3;26;letter181;letter357;congruent;0.04;letter181;0.05;0.07;fullmask;0.2;arrow_left.png;0.13;c;0.1793455000006361;0.1794729000012012;9012.4900674;2.599999788799323e-06;0.5047441000006074;0.5447712000004685;0.5568423999993684;0.6266133999997692;0.7363169000000198;0.7363189999996393;0;1;0;0;0.01
4;1;3;27;letter181;letter357;congruent;0.04;letter357;0.05;0.07;fullmask;0.2;arrow_right.png;0.13;m;0.3663538000000699;0.3700297000013961;9014.2980758;2.599999788799323e-06;0.5003275999988546;0.540348599999561;0.5523862999998528;0.6221619999996619;0.7518141999989894;0.8824614000004658;0;0;0;1;0.01
4;1;3;28;letter181;letter357;congruent;0.04;letter357;0.05;0.07;fullmask;0.2;arrow_right.png;0.13;m;0.28615410000020347;0.2912477999998373;9016.0181435;2.599999788799323e-06;0.4984368000004906;0.5384606000006897;0.5495979000006628;0.6202745999999024;0.7499263000008796;1.0387841000010667;0;0;1;0;0.01
4;1;3;29;letter181;letter357;congruent;0.04;letter357;0.05;0.07;fullmask;0.2;arrow_right.png;0.13;m;0.19376630000078876;0.19952569999986736;9017.8580779;2.599999788799323e-06;0.5016847000006237;0.5416734000009455;0.5539038000006258;0.6235905000012281;0.7534320000013395;0.7534384000009595;0;1;0;0;0.01
4;1;3;30;letter181;letter357;congruent;0.04;letter357;0.05;0.07;fullmask;0.2;arrow_right.png;0.13;m;0.33275700000012876;0.34016069999961474;9019.6180379;2.70000055024866e-06;0.5003202999996574;0.5403416999997717;0.5524894000009226;0.6223026000006939;0.751958700000614;0.8826110000009066;0;0;0;1;0.01
4;1;3;31;letter181;letter357;congruent;0.04;letter357;0.05;0.07;fullmask;0.2;arrow_right.png;0.13;m;0.2918381999988924;0.3002128999996785;9021.3381263;2.6999987312592566e-06;0.4956043000001955;0.5356324000003951;0.5476572999996279;0.6174257000002399;0.747083999998722;1.0459592999995948;0;0;1;0;0.01
4;1;3;32;letter181;letter357;congruent;0.04;letter181;0.05;0.07;fullmask;0.2;arrow_left.png;0.13;m;0.29640349999863247;0.2992635999999038;9023.2740265;2.4000000848900527e-06;0.5035795000003418;0.5436061000000336;0.5557317000002513;0.6256336999995256;0.7552016000008734;1.0539389999994455;0;0;1;0;0.01
4;1;3;33;letter181;letter357;congruent;0.04;letter181;0.05;0.07;fullmask;0.2;arrow_left.png;0.13;c;2.101271800000177;2.111306400000103;9027.010111;2.3000011424301192e-06;0.5000113000005513;0.540025100001003;0.5521299000010913;0.6218056000016077;0.7515292000007321;0.882150500001444;0;0;0;1;0.01
4;1;3;34;letter181;letter357;congruent;0.04;letter181;0.05;0.07;fullmask;0.2;arrow_left.png;0.13;c;0.2638118000013492;0.2703536000008171;9028.714024;2.4000000848900527e-06;0.49821929999961867;0.5382504000008339;0.5494415000011941;0.6203536000011809;0.7499201999999059;1.0185696000007738;0;0;1;0;0.01
4;1;3;35;letter181;letter357;congruent;0.04;letter181;0.05;0.07;fullmask;0.2;arrow_left.png;0.13;c;0.2596936999998434;0.26934089999849675;9030.6020389;2.5000008463393897e-06;0.5000790000012785;0.5400977999997849;0.5522153000001708;0.6221285999999964;0.7516867000013008;1.0204227000012907;0;0;1;0;0.01
4;1;3;36;letter181;letter357;congruent;0.04;letter357;0.05;0.07;fullmask;0.2;arrow_right.png;0.13;m;0.338383000000249;0.33999299999959476;9032.6020086;2.800001311697997e-06;0.49727119999988645;0.5372996000005514;0.5494526000002224;0.6191060000001016;0.7487607000002754;0.8794156000003568;0;0;0;1;0.01
4;1;3;37;letter181;letter357;congruent;0.04;letter181;0.05;0.07;fullmask;0.2;arrow_left.png;0.13;c;0.3515650999997888;0.36005540000041947;9034.3860286;2.5000008463393897e-06;0.5010612999994919;0.5410891999999876;0.552939499999411;0.6227170000001934;0.7523660000006203;0.883020100000067;0;0;0;1;0.01
4;1;3;38;letter181;letter357;congruent;0.04;letter357;0.05;0.07;fullmask;0.2;arrow_right.png;0.13;m;0.2531003000003693;0.2603212000012718;9036.0980296;2.3000011424301192e-06;0.503865799999403;0.5438620000004448;0.5550247000010131;0.6257932000007713;0.7554497000000993;1.014167900000757;0;0;1;0;0.01
4;1;3;39;letter181;letter357;congruent;0.04;letter357;0.05;0.07;fullmask;0.2;arrow_right.png;0.13;m;0.2809681999988243;0.290392899998551;9038.0180286;2.2999993234407157e-06;0.5041516000001138;0.5441494999995484;0.5562437000007776;0.6260708999998315;0.7557130999994115;1.0444946999996318;0;0;1;0;0.01
4;1;3;40;letter181;letter357;congruent;0.04;letter357;0.05;0.07;fullmask;0.2;arrow_right.png;0.13;m;0.2538676999993186;0.25951569999961066;9039.9220704;2.4000000848900527e-06;0.5019580999996833;0.5419944999994186;0.5538796999990154;0.6239279000001261;0.7534818000003725;1.0121999999992113;0;0;1;0;0.01
4;1;3;41;letter181;letter357;congruent;0.04;letter181;0.05;0.07;fullmask;0.2;arrow_left.png;0.13;c;0.352478600001632;0.3599616999999853;9041.9220373;2.70000055024866e-06;0.5019071999995504;0.5419142999999167;0.5540361999992456;0.6237001999998029;0.7533659000000625;0.8840177000001859;0;0;0;1;0.01
4;1;3;42;letter181;letter357;congruent;0.04;letter181;0.05;0.07;fullmask;0.2;arrow_left.png;0.13;c;0.3294313999995211;0.3302845999987767;9043.6900348;2.3000011424301192e-06;0.502940899999885;0.542945499999405;0.5549661000004562;0.6248871000007057;0.7545405000000756;1.0833077000006597;0;0;1;0;0.01
4;1;3;43;letter181;letter357;congruent;0.04;letter357;0.05;0.07;fullmask;0.2;arrow_right.png;0.13;m;0.26634500000000116;0.27032880000115256;9045.5780793;2.3000011424301192e-06;0.49741549999998824;0.5374385000013717;0.5493232999997417;0.6190991000003123;0.7487878000010824;1.0177400000011403;0;0;1;0;0.01
4;1;3;44;letter181;letter357;congruent;0.04;letter181;0.05;0.07;fullmask;0.2;arrow_left.png;0.13;c;0.37109959999907005;0.38002380000034464;9047.5942442;2.70000055024866e-06;0.5032764000006864;0.5432982000002085;0.5553760999991937;0.6250629000005574;0.7547111999992921;0.8853703000004316;0;0;0;1;0.01
4;1;3;45;letter181;letter357;congruent;0.04;letter357;0.05;0.07;fullmask;0.2;arrow_right.png;0.13;m;0.269741599999179;0.2701737999996112;9049.3140728;2.4000000848900527e-06;0.4994707000005292;0.5395031000007293;0.5515845999998419;0.621285799999896;0.7509565000000293;1.0198049999999057;0;0;1;0;0.01
4;1;3;46;letter181;letter357;congruent;0.04;letter357;0.05;0.07;fullmask;0.2;arrow_right.png;0.13;m;0.24653880000005302;0.24934699999903387;9051.2020701;2.3000011424301192e-06;0.5030585000004066;0.543087200001537;0.5551434999997582;0.6249142000015127;0.7545672000014747;1.0033880999999383;0;0;1;0;0.01
4;1;3;47;letter181;letter357;congruent;0.04;letter181;0.05;0.07;fullmask;0.2;arrow_left.png;0.13;c;0.2933006999992358;0.30021080000005895;9053.1300285;2.4000000848900527e-06;0.502817700000378;0.5428353999996034;0.5548870000002353;0.62465709999924;0.7543105999993713;1.0531661999993958;0;0;1;0;0.01
4;1;3;48;letter181;letter357;congruent;0.04;letter181;0.05;0.07;fullmask;0.2;arrow_left.png;0.13;c;0.31384910000087984;0.3201898000006622;9055.0820199;2.70000055024866e-06;0.4993250999996235;0.5393638000005012;0.5516117999995913;0.621293300000616;0.7509609999997338;1.0697178999998869;0;0;1;0;0.01
4;2;11;1;letter169;letter190;congruent;0.04;letter190;0.09;0.07;fullmask;0.3;arrow_right.png;0.13;m;0.4441999000009673;0.44974569999976666;9886.3056713;2.6999987312592566e-06;0.49562999999943713;0.5356279999996332;0.5874532999987423;0.6571592999989662;0.8875441000000137;1.0171967999995104;0;0;0;1;0.01
4;2;11;2;letter169;letter190;congruent;0.04;letter169;0.09;0.07;fullmask;0.3;arrow_left.png;0.13;c;0.33272959999885643;0.3394989999997051;9888.1056335;2.599999788799323e-06;0.49548239999967336;0.5354975999998715;0.5875295999994705;0.656781099998625;0.8870561999992788;1.1258877000000211;0;0;1;0;0.01
4;2;11;3;letter169;letter190;congruent;0.04;letter169;0.09;0.07;fullmask;0.3;arrow_left.png;0.13;c;0.3158080000011978;0.32006250000085856;9890.0896386;2.2999993234407157e-06;0.5006033999998181;0.5406177000004391;0.5922888999994029;0.6620567999998457;0.8923439999998664;1.1109854000005726;0;0;1;0;0.01
4;2;11;4;letter169;letter190;congruent;0.04;letter190;0.09;0.07;fullmask;0.3;arrow_right.png;0.13;m;0.29417110000031244;0.30025620000014897;9892.049625;2.5000008463393897e-06;0.49768410000069707;0.5376885000005132;0.5897159000014653;0.6595288000007713;0.8899710000005143;0.8899730000011914;0;1;0;0;0.01
4;2;11;5;letter169;letter190;congruent;0.04;letter169;0.09;0.07;fullmask;0.3;arrow_left.png;0.13;c;0.3151115000000573;0.3201419999986683;9893.8416276;2.4000000848900527e-06;0.5023063999997248;0.5423284000007698;0.594272500000443;0.6640258999996149;0.8944169000005786;1.1126939000005223;0;0;1;0;0.01
4;2;11;6;letter169;letter190;congruent;0.04;letter190;0.09;0.07;fullmask;0.3;arrow_right.png;0.13;m;0.27799229999982344;0.2802936000007321;9895.7856968;2.599999788799323e-06;0.4994946999995591;0.5395128999989538;0.5913820999994641;0.6610510999998951;0.8716784999996889;0.8716853000005358;0;1;0;0;0.01
4;2;11;7;letter169;letter190;congruent;0.04;letter190;0.09;0.07;fullmask;0.3;arrow_right.png;0.13;m;0.44654330000048503;0.4497179000009055;9897.7056476;2.599999788799323e-06;0.49919629999931203;0.5392101999987062;0.5913522999999259;0.6610244000003149;0.891409099998782;1.0210639999986597;0;0;0;1;0.01
4;2;11;8;letter169;letter190;congruent;0.04;letter190;0.09;0.07;fullmask;0.3;arrow_right.png;0.13;m;0.3195560000003752;0.3201593000012508;9899.489667;2.6999987312592566e-06;0.5037563999994745;0.5437827999994624;0.5956920999997237;0.6654629999993631;0.8958466999993107;1.114148299999215;0;0;1;0;0.01
4;2;11;9;letter169;letter190;congruent;0.04;letter169;0.09;0.07;fullmask;0.3;arrow_left.png;0.13;c;0.3244045000010374;0.3301172999999835;9901.505708;2.5000008463393897e-06;0.5024374000004173;0.5424610999998549;0.5942768000004435;0.6640317000001232;0.8944179999998596;1.1228382000008423;0;0;1;0;0.01
4;2;11;10;letter169;letter190;congruent;0.04;letter169;0.09;0.07;fullmask;0.3;arrow_left.png;0.13;c;0.26692410000032396;0.270318099999713;9903.449707;2.5000008463393897e-06;0.4958731999995507;0.53589219999958;0.5879143000001932;0.6581399000006058;0.8582358000003296;0.8582426000011765;0;1;0;0;0.01
4;2;11;11;letter169;letter190;congruent;0.04;letter169;0.09;0.07;fullmask;0.3;arrow_left.png;0.13;c;0.3924505000013596;0.4008728000007977;9905.3058302;2.2999993234407157e-06;0.4952322999997705;0.5352521000004344;0.5867527999998856;0.6566886999989947;0.8868173999999271;1.1856826999992336;0;0;1;0;0.01
4;2;11;12;letter169;letter190;congruent;0.04;letter190;0.09;0.07;fullmask;0.3;arrow_right.png;0.13;m;0.29654560000017227;0.3002923000003648;9907.2816107;2.4000000848900527e-06;0.49836429999959364;0.5383844999996654;0.5902313000005961;0.6600063000005321;0.8905364999991434;0.8905386000005819;0;1;0;0;0.01
4;2;11;13;letter169;letter190;congruent;0.04;letter190;0.09;0.07;fullmask;0.3;arrow_right.png;0.13;m;0.44534139999996114;0.44981019999977434;9909.2016288;2.599999788799323e-06;0.49683809999987716;0.5368605999992724;0.5887965000001714;0.6585654000009526;0.8889514000002237;1.018602699999974;0;0;0;1;0.01
4;2;11;14;letter169;letter190;congruent;0.04;letter190;0.09;0.07;fullmask;0.3;arrow_right.png;0.13;m;0.2901311999994505;0.30021039999883214;9910.9776857;2.3000011424301192e-06;0.49566200000117533;0.535678199999893;0.587635699999737;0.657408500001111;0.887847400001192;0.8878494000000501;0;1;0;0;0.01
4;2;11;15;letter169;letter190;congruent;0.04;letter190;0.09;0.07;fullmask;0.3;arrow_right.png;0.13;m;0.38896589999967546;0.39002179999988584;9912.857743;2.2999993234407157e-06;0.4957025000003341;0.5357404000005772;0.5877691999994568;0.6574645999990025;0.8878447000006418;1.176156899999114;0;0;1;0;0.01
4;2;11;16;letter169;letter190;congruent;0.04;letter169;0.09;0.07;fullmask;0.3;arrow_left.png;0.13;c;0.3816263999997318;0.38996939999924507;9914.9216242;2.499999027349986e-06;0.5028873999999632;0.5429117000003316;0.594837999999072;0.664602200000445;0.8949929999998858;1.1833296999993763;0;0;1;0;0.01
4;2;11;17;letter169;letter190;congruent;0.04;letter169;0.09;0.07;fullmask;0.3;arrow_left.png;0.13;c;0.4143343999985518;0.41988990000027115;9917.0256583;2.499999027349986e-06;0.4955162999995082;0.535534299999199;0.5874602999992931;0.6572329999999056;0.8876167999987956;1.2059647999994922;0;0;1;0;0.01
4;2;11;18;letter169;letter190;congruent;0.04;letter169;0.09;0.07;fullmask;0.3;arrow_left.png;0.13;c;0.37101410000104806;0.37992380000105186;9919.0736438;2.599999788799323e-06;0.4945212000002357;0.5345419000004767;0.5864373999993404;0.6562102000007144;0.8865918000010424;1.1649627999995573;0;0;1;0;0.01
4;2;11;19;letter169;letter190;congruent;0.04;letter169;0.09;0.07;fullmask;0.3;arrow_left.png;0.13;c;0.41153029999986757;0.4199157999992167;9921.1857724;2.5000008463393897e-06;0.5007708000011917;0.5408071000001655;0.5929890999996132;0.662702999999965;0.8930440000003728;1.2112623000011808;0;0;1;0;0.01
4;2;11;20;letter169;letter190;congruent;0.04;letter190;0.09;0.07;fullmask;0.3;arrow_right.png;0.13;m;0.3981631999995443;0.3999915000003966;9923.273645;2.499999027349986e-06;0.4995008999994752;0.5395343000000139;0.5915879999993194;0.6614023000001907;0.8917897999999695;1.1899549999998271;0;0;1;0;0.01
4;2;11;21;letter169;letter190;congruent;0.04;letter190;0.09;0.07;fullmask;0.3;arrow_right.png;0.13;m;0.3727713999996922;0.3798994999997376;9925.3296103;2.499999027349986e-06;0.4986018999989028;0.5386325999988912;0.5907028000001446;0.6606214999992517;0.8907583999989583;1.1690299999991112;0;0;1;0;0.01
4;2;11;22;letter169;letter190;congruent;0.04;letter169;0.09;0.07;fullmask;0.3;arrow_left.png;0.13;c;0.45157079999989946;0.4598193000001629;9927.449614;2.4000000848900527e-06;0.49669039999935194;0.5367232999997213;0.5886854000000312;0.6585801999990508;0.8888735000000452;1.0185277999989921;0;0;0;1;0.01
4;2;11;23;letter169;letter190;congruent;0.04;letter190;0.09;0.07;fullmask;0.3;arrow_right.png;0.13;m;0.27050840000083554;0.2804171000007045;9929.2098468;2.9000002541579306e-06;0.4980598000001919;0.5380814999989525;0.5901026999999885;0.6600023999999394;0.8705272999995941;0.8705339999996795;0;1;0;0;0.01
4;2;11;24;letter169;letter190;congruent;0.04;letter169;0.09;0.07;fullmask;0.3;arrow_left.png;0.13;c;0.3173212000001513;0.32014859999981127;9931.0177248;2.70000055024866e-06;0.4963664000006247;0.5363858999990043;0.5883405000004132;0.6580797000005987;0.8884627999996155;1.1067528000003222;0;0;1;0;0.01
4;2;11;25;letter169;letter190;congruent;0.04;letter190;0.09;0.07;fullmask;0.3;arrow_right.png;0.13;m;0.34806829999979527;0.35007779999978084;9933.0496415;2.599999788799323e-06;0.4978649000004225;0.5378946999990148;0.5897277999993094;0.6594979000001331;0.889888300000166;1.1382990999991307;0;0;1;0;0.01
4;2;11;26;letter169;letter190;congruent;0.04;letter190;0.09;0.07;fullmask;0.3;arrow_right.png;0.13;m;0.4131808000001911;0.4208914000009827;9935.1456083;2.3000011424301192e-06;0.49758050000127696;0.537599000001137;0.5889922000005754;0.659760800001095;0.8891498000011779;1.2080390000010084;0;0;1;0;0.01
4;2;11;27;letter169;letter190;congruent;0.04;letter169;0.09;0.07;fullmask;0.3;arrow_left.png;0.13;c;0.3193327999997564;0.3196669999997539;9937.1536369;2.5000008463393897e-06;0.4967199000002438;0.536749000000782;0.588658900000155;0.6584049000011873;0.8884107000012591;1.1071126999995613;0;0;1;0;0.01
4;2;11;28;letter169;letter190;congruent;0.04;letter169;0.09;0.07;fullmask;0.3;arrow_left.png;0.13;c;0.3359885999998369;0.3401388999991468;9939.1616601;2.4000000848900527e-06;0.49793570000110776;0.5379645000011806;0.5899592000005214;0.659645300000193;0.8900101000017457;1.1283348000015394;0;0;1;0;0.01
4;2;11;29;letter169;letter190;congruent;0.04;letter169;0.09;0.07;fullmask;0.3;arrow_left.png;0.13;c;0.32454390000020794;0.330005899999378;9941.1616035;2.7999994927085936e-06;0.5020602000004146;0.5420892000001913;0.5941920000004757;0.6638356999992538;0.8942170000009355;1.1224722000006295;0;0;1;0;0.01
4;2;11;30;letter169;letter190;congruent;0.04;letter169;0.09;0.07;fullmask;0.3;arrow_left.png;0.13;c;0.29741250000006403;0.30021129999840923;9943.1456116;2.499999027349986e-06;0.49540559999877587;0.5354463999992731;0.5873768999990716;0.6571515999985422;0.8875898999995115;0.8875920999998925;0;1;0;0;0.01
4;2;11;31;letter169;letter190;congruent;0.04;letter190;0.09;0.07;fullmask;0.3;arrow_right.png;0.13;m;0.42836110000098415;0.4298716000012064;9945.0576667;3.0000010156072676e-06;0.49560550000023795;0.5356343000003108;0.5875300000006973;0.6573067999997875;0.88770040000054;1.2160528000003978;0;0;1;0;0.01
4;2;11;32;letter169;letter190;congruent;0.04;letter169;0.09;0.07;fullmask;0.3;arrow_left.png;0.13;c;0.3351016999986314;0.34004970000023604;9947.0656926;2.4000000848900527e-06;0.4957690999999613;0.5357889000006253;0.5876446999991458;0.6573289000007208;0.887723100000585;1.126172399999632;0;0;1;0;0.01
4;2;11;33;letter169;letter190;congruent;0.04;letter169;0.09;0.07;fullmask;0.3;arrow_left.png;0.13;c;0.36364379999940866;0.370025700000042;9949.1056042;2.4000000848900527e-06;0.5013199000004533;0.5413308000006509;0.5932613999993919;0.6630291000001307;0.8934171000000788;1.1617325999995955;0;0;1;0;0.01
4;2;11;34;letter169;letter190;congruent;0.04;letter190;0.09;0.07;fullmask;0.3;arrow_right.png;0.13;m;0.4103133999997226;0.41989009999997506;9951.1936051;2.5000008463393897e-06;0.5039329999999609;0.5439531000010902;0.5959070999997493;0.6656803000005311;0.8960619000008592;1.2143924000010884;0;0;1;0;0.01
4;2;11;35;letter169;letter190;congruent;0.04;letter169;0.09;0.07;fullmask;0.3;arrow_left.png;0.13;c;0.32499079999979585;0.33016680000037013;9953.2097123;2.70000055024866e-06;0.4973915999999008;0.5374260999997205;0.589447399999699;0.6590878999995766;0.8895216000000801;1.117803900000581;0;0;1;0;0.01
4;2;11;36;letter169;letter190;congruent;0.04;letter169;0.09;0.07;fullmask;0.3;arrow_left.png;0.13;c;0.3535948999997345;0.3604579000002559;9955.2496115;2.599999788799323e-06;0.5018352999995841;0.5418513000004168;0.5938867999993818;0.6635552999996435;0.8939462999987882;1.1522466999995231;0;0;1;0;0.01
4;2;11;37;letter169;letter190;congruent;0.04;letter190;0.09;0.07;fullmask;0.3;arrow_right.png;0.13;m;0.3783839000006992;0.38000000000101863;9957.3056199;2.5000008463393897e-06;0.5015603000010742;0.541575000001103;0.5935249000012845;0.6632984000007127;0.8936829000012949;1.1719895000005636;0;0;1;0;0.01
4;2;11;38;letter169;letter190;congruent;0.04;letter169;0.09;0.07;fullmask;0.3;arrow_left.png;0.13;c;0.3836484000003111;0.3909464000007574;9959.3616035;2.4000000848900527e-06;0.49889340000117954;0.5389152000007016;0.5902601000016148;0.66100809999989;0.890395600001284;1.1793262000010145;0;0;1;0;0.01
4;2;11;39;letter169;letter190;congruent;0.04;letter190;0.09;0.07;fullmask;0.3;arrow_right.png;0.13;m;0.3937984999993205;0.3999530000000959;9961.4338262;2.499999027349986e-06;0.4997910999991291;0.5398132999998779;0.5919092999993154;0.6615799999999581;0.8919630999989749;1.1902295999989292;0;0;1;0;0.01
4;2;11;40;letter169;letter190;congruent;0.04;letter190;0.09;0.07;fullmask;0.3;arrow_right.png;0.13;m;0.3142958999997063;0.3201498999987962;9963.4656472;2.9000002541579306e-06;0.4961533999994572;0.5361652999999933;0.5882363000000623;0.6580016999996587;0.8883832999999868;1.106550900000002;0;0;1;0;0.01
4;2;11;41;letter169;letter190;congruent;0.04;letter169;0.09;0.07;fullmask;0.3;arrow_left.png;0.13;c;0.47716660000151023;0.47994240000116406;9965.6096319;2.5000008463393897e-06;0.5007457000010618;0.5407640000012179;0.5926603000007162;0.6628957000011724;0.8930263000002014;1.0226798000003328;0;0;0;1;0.01
4;2;11;42;letter169;letter190;congruent;0.04;letter190;0.09;0.07;fullmask;0.3;arrow_right.png;0.13;m;0.32003400000030524;0.3300326999997196;9967.3936663;1.5800000255694613e-05;0.4986088000005111;0.538627699999779;0.5904592000006232;0.660127500001181;0.8905154000003677;1.1190052000001742;0;0;1;0;0.01
4;2;11;43;letter169;letter190;congruent;0.04;letter169;0.09;0.07;fullmask;0.3;arrow_left.png;0.13;c;0.22873529999924358;0.23040349999973841;9969.313643;2.4000000848900527e-06;0.4992929000000004;0.5393211000009615;0.5911394000013388;0.6608036000016;0.8215458000013314;0.8215525000014168;0;1;0;0;0.01
4;2;11;44;letter169;letter190;congruent;0.04;letter169;0.09;0.07;fullmask;0.3;arrow_left.png;0.13;c;0.3774910000011005;0.3799973000004684;9971.1535941;2.4000000848900527e-06;0.4998892999992677;0.5399118000004819;0.5918316999996023;0.6616037999992841;0.8919862999991892;1.1703149999993911;0;0;1;0;0.01
4;2;11;45;letter169;letter190;congruent;0.04;letter190;0.09;0.07;fullmask;0.3;arrow_right.png;0.13;m;0.33614250000027823;0.34010660000058124;9973.1535812;2.599999788799323e-06;0.49471730000004754;0.5347478000003321;0.5866906000010204;0.6564605000003212;0.8868445000007341;1.1251226000003953;0;0;1;0;0.01
4;2;11;46;letter169;letter190;congruent;0.04;letter190;0.09;0.07;fullmask;0.3;arrow_right.png;0.13;m;0.37484219999896595;0.38000040000042645;9975.1935776;2.7999994927085936e-06;0.4972152999998798;0.5372379999989789;0.5891888000005565;0.6589617999998154;0.8893439999992552;1.1676444000004267;0;0;1;0;0.01
4;2;11;47;letter169;letter190;congruent;0.04;letter190;0.09;0.07;fullmask;0.3;arrow_right.png;0.13;m;0.3654853000007279;0.3700509999998758;9977.2256667;2.499999027349986e-06;0.49625469999955385;0.5362715999999637;0.5883671999999933;0.658058399998481;0.888432499999908;1.1566722999996273;0;0;1;0;0.01
4;2;11;48;letter169;letter190;congruent;0.04;letter190;0.09;0.07;fullmask;0.3;arrow_right.png;0.13;m;0.33271849999982805;0.3401090999996086;9979.2335908;2.5000008463393897e-06;0.5012707000005321;0.5412981000008585;0.5927631000013207;0.6625371999998606;0.8929186000004847;1.1316881000002468;0;0;1;0;0.01
4;2;12;1;letter169;letter190;congruent;0.04;letter169;0.09;0.07;fullmask;0.25;arrow_left.png;0.13;c;0.3161232000002201;0.31952799999999115;9985.5617107;2.599999788799323e-06;0.4950595999998768;0.5350814000012178;0.5871893000003183;0.6563231000000087;0.8367404000000533;1.1054452000007586;0;0;1;0;0.01
4;2;12;2;letter169;letter190;congruent;0.04;letter190;0.09;0.07;fullmask;0.25;arrow_right.png;0.13;m;0.22295149999990826;0.22953550000056566;9987.449615;2.599999788799323e-06;0.4972608999996737;0.5372796999999991;0.5892005999994581;0.6591060999999172;0.8187370999985433;0.8187392999989243;0;1;0;0;0.01
4;2;12;3;letter169;letter190;congruent;0.04;letter190;0.09;0.07;fullmask;0.25;arrow_right.png;0.13;m;0.4157821000007971;0.4199242000013328;9989.3535806;2.599999788799323e-06;0.5032752999995864;0.5433011999994051;0.59525450000001;0.6650595999999496;0.8455787999992026;0.9752308999995876;0;0;0;1;0.01
4;2;12;4;letter169;letter190;congruent;0.04;letter169;0.09;0.07;fullmask;0.25;arrow_left.png;0.13;c;0.3245842999986053;0.33012889999918116;9991.1535856;2.499999027349986e-06;0.49543379999886383;0.5354473999996117;0.5874002000000473;0.6571703999998135;0.8376876999991509;1.1158297999991191;0;0;1;0;0.01
4;2;12;5;letter169;letter190;congruent;0.04;letter169;0.09;0.07;fullmask;0.25;arrow_left.png;0.13;m;0.27545029999964754;0.28017759999966074;9993.1056177;2.599999788799323e-06;0.4981926000000385;0.538265400000455;0.5900445999996009;0.6597347000006266;0.8402325000006385;1.0685654999997496;0;0;1;0;0.01
4;2;12;6;letter169;letter190;congruent;0.04;letter169;0.09;0.07;fullmask;0.25;arrow_left.png;0.13;c;0.35632430000077875;0.3600506000002497;9995.3375911;2.9000002541579306e-06;0.501183200000014;0.5412003999990702;0.5927389999997104;0.662510399999519;0.8430341000002954;1.1515944999991916;0;0;1;0;0.01
4;2;12;7;letter169;letter190;congruent;0.04;letter190;0.09;0.07;fullmask;0.25;arrow_right.png;0.13;m;0.4524767000002612;0.4597864999996091;9997.4656202;2.499999027349986e-06;0.4966308000002755;0.5366438000000926;0.5887580999988131;0.6585330999987491;0.8380527999997867;0.9687006999993173;0;0;0;1;0.01
4;2;12;8;letter169;letter190;congruent;0.04;letter190;0.09;0.07;fullmask;0.25;arrow_right.png;0.13;m;0.2734448999999586;0.2802977999999712;9999.2176317;2.4000000848900527e-06;0.49432340000021213;0.5343456999999034;0.5862586999992345;0.656034699999509;0.8365795000008802;1.0646995999995852;0;0;1;0;0.01
4;2;12;9;letter169;letter190;congruent;0.04;letter169;0.09;0.07;fullmask;0.25;arrow_left.png;0.13;c;0.27627810000012687;0.28038610000112385;10001.161654;2.999999196617864e-06;0.4974251000003278;0.5374499999998079;0.5893022999989626;0.6590839000000415;0.8396073000003526;1.0677992999990238;0;0;1;0;0.01
4;2;12;10;letter169;letter190;congruent;0.04;letter190;0.09;0.07;fullmask;0.25;arrow_right.png;0.13;m;0.2856718000002729;0.2902366999987862;10003.1216483;2.499999027349986e-06;0.49505039999894507;0.5350703999993129;0.5862674999989395;0.6570334999996703;0.8365533999985928;1.0754139999990002;0;0;1;0;0.01
4;2;12;11;letter169;letter190;congruent;0.04;letter190;0.09;0.07;fullmask;0.25;arrow_right.png;0.13;m;0.29428419999931066;0.3002096000000165;10005.0815818;2.4000000848900527e-06;0.5010624999995343;0.5411058000008779;0.5923583000003418;0.6631243000010727;0.8426476000004186;1.0914487000009103;0;0;1;0;0.01
4;2;12;12;letter169;letter190;congruent;0.04;letter169;0.09;0.07;fullmask;0.25;arrow_left.png;0.13;c;0.3681763000004139;0.3700551000001724;10007.1376029;2.4000000848900527e-06;0.5035826999992423;0.5435978999994404;0.5957269999998971;0.6654994999989867;0.8450193999997282;1.16401599999881;0;0;1;0;0.01
4;2;12;13;letter169;letter190;congruent;0.04;letter169;0.09;0.07;fullmask;0.25;arrow_left.png;0.13;m;0.31303050000133226;0.32017890000133775;10009.1136473;2.4000000848900527e-06;0.4972670000006474;0.5372867000005499;0.5893128000006982;0.6589901999996073;0.8395178000009764;1.1076647000008961;0;0;1;0;0.01
4;2;12;14;letter169;letter190;congruent;0.04;letter169;0.09;0.07;fullmask;0.25;arrow_left.png;0.13;m;0.2497099000011076;0.25028050000037183;10011.241636;2.4000000848900527e-06;0.5022910000006959;0.5423215000009804;0.5942329999998037;0.66394020000007;0.8445146000012755;0.8445166000001336;0;1;0;0;0.01
4;2;12;15;letter169;letter190;congruent;0.04;letter169;0.09;0.07;fullmask;0.25;arrow_left.png;0.13;c;0.28909009999915725;0.29024290000052133;10013.2016837;2.5000008463393897e-06;0.4982899999995425;0.5383110999991914;0.5896561999998085;0.6604241999993974;0.8399446999992506;1.078669299999092;0;0;1;0;0.01
4;2;12;16;letter169;letter190;congruent;0.04;letter169;0.09;0.07;fullmask;0.25;arrow_left.png;0.13;c;0.2952482999990025;0.3003267000003689;10015.1696693;2.4000000848900527e-06;0.5039859000007709;0.5439971000014339;0.595915400001104;0.6656870000006165;0.8462169000013091;1.0943554000004951;0;0;1;0;0.01
4;2;12;17;letter169;letter190;congruent;0.04;letter190;0.09;0.07;fullmask;0.25;arrow_right.png;0.13;c;0.32388840000021446;0.33020609999948647;10017.1696857;2.599999788799323e-06;0.49878239999998186;0.5388179000001401;0.5908361000001605;0.6605070000005071;0.8410088000000542;1.119181899999603;0;0;1;0;0.01
4;2;12;18;letter169;letter190;congruent;0.04;letter190;0.09;0.07;fullmask;0.25;arrow_right.png;0.13;m;0.3225115999994159;0.3300670999997237;10019.3695646;2.599999788799323e-06;0.4987646000008681;0.5388026000000536;0.5906642999998439;0.6603696000001946;0.840802500000791;1.1191665000005742;0;0;1;0;0.01
4;2;12;19;letter169;letter190;congruent;0.04;letter169;0.09;0.07;fullmask;0.25;arrow_left.png;0.13;c;0.3611553000009735;0.37002320000101463;10021.4095701;2.499999027349986e-06;0.5023250999984157;0.542338799999925;0.5942870999988372;0.6640575999990688;0.8445756999990408;1.1627493999985745;0;0;1;0;0.01
4;2;12;20;letter169;letter190;congruent;0.04;letter190;0.09;0.07;fullmask;0.25;arrow_right.png;0.13;m;0.24581810000017867;0.25033950000033656;10023.3456369;2.800001311697997e-06;0.49860290000106033;0.5386252000007516;0.5906637999996747;0.6603231000008236;0.8410056000011537;0.8410122000004776;0;1;0;0;0.01
4;2;12;21;letter169;letter190;congruent;0.04;letter190;0.09;0.07;fullmask;0.25;arrow_right.png;0.13;m;0.32263009999951464;0.33004710000022897;10025.1535585;2.599999788799323e-06;0.4953744000013103;0.535391500001424;0.5874340999998822;0.6571017000005668;0.8376349999998638;1.1157737000012276;0;0;1;0;0.01
4;2;12;22;letter169;letter190;congruent;0.04;letter169;0.09;0.07;fullmask;0.25;arrow_left.png;0.13;m;0.30748139999923296;0.31018029999904684;10027.1296018;2.5000008463393897e-06;0.49890960000084306;0.53892740000083;0.5908744999996998;0.6606443000000581;0.8411593000000721;1.0992916000013793;0;0;1;0;0.01
4;2;12;23;letter169;letter190;congruent;0.04;letter190;0.09;0.07;fullmask;0.25;arrow_right.png;0.13;m;0.24757669999962673;0.24985749999905238;10029.2415482;2.200000380980782e-06;0.4982540000000881;0.538274000000456;0.5906785999995918;0.6599573999992572;0.8405373000005056;0.8405394000001252;0;1;0;0;0.01
4;2;12;24;letter169;letter190;congruent;0.04;letter190;0.09;0.07;fullmask;0.25;arrow_right.png;0.13;m;0.3432890000003681;0.35036030000082974;10031.0579617;2.599999788799323e-06;0.4976757999993424;0.5377009000003454;0.589702600000237;0.6593809999994846;0.8399152999991202;1.1380950000002485;0;0;1;0;0.01
4;2;12;25;letter169;letter190;congruent;0.04;letter169;0.09;0.07;fullmask;0.25;arrow_left.png;0.13;c;0.2778818999995565;0.2802680999993754;10032.9936172;2.499999027349986e-06;0.49506039999869245;0.5350686999991012;0.5868451999995159;0.6566155000000435;0.8371353999991697;1.0654134999986127;0;0;1;0;0.01
4;2;12;26;letter169;letter190;congruent;0.04;letter169;0.09;0.07;fullmask;0.25;arrow_left.png;0.13;c;0.288484900000185;0.29022100000111095;10034.9455547;2.4000000848900527e-06;0.49617419999958656;0.5361947999990662;0.5880544999999984;0.6578079999999318;0.8383269000005384;1.0765455999990081;0;0;1;0;0.01
4;2;12;27;letter169;letter190;congruent;0.04;letter190;0.09;0.07;fullmask;0.25;arrow_right.png;0.13;m;0.3435544000003574;0.34998470000027737;10036.9615555;3.099999958067201e-06;0.5030616000003647;0.5430837000003521;0.5946184000003996;0.6643793000002916;0.84481439999945;1.143484800000806;0;0;1;0;0.01
4;2;12;28;letter169;letter190;congruent;0.04;letter190;0.09;0.07;fullmask;0.25;arrow_right.png;0.13;m;0.2658279000006587;0.27031650000026275;10038.9056882;2.5000008463393897e-06;0.5040097000000969;0.5440515999998752;0.5961293000000296;0.6658189999998285;0.846335000000181;1.0643644000010681;0;0;1;0;0.01
4;2;12;29;letter169;letter190;congruent;0.04;letter169;0.09;0.07;fullmask;0.25;arrow_left.png;0.13;c;0.3832706000011967;0.39087000000108674;10040.9535677;2.4000000848900527e-06;0.5008402999992541;0.5408575000001292;0.592143899999428;0.662898700000369;0.8423339000000851;0.9729829999996582;0;0;0;1;0.01
4;2;12;30;letter169;letter190;congruent;0.04;letter190;0.09;0.07;fullmask;0.25;arrow_right.png;0.13;m;0.25734379999994417;0.2593648999991274;10042.6895652;2.4000000848900527e-06;0.5036098999989918;0.5436303000005864;0.5956556999990426;0.6655558000002202;0.8449872000001051;1.053985399999874;0;0;1;0;0.01
4;2;12;31;letter169;letter190;congruent;0.04;letter190;0.09;0.07;fullmask;0.25;arrow_right.png;0.13;m;0.29249739999977464;0.30024669999875186;10044.6657708;2.4000000848900527e-06;0.4975200999997469;0.5375476999997773;0.5893613999996887;0.6591485999997531;0.8396661999995558;1.0878983000002336;0;0;1;0;0.01
4;2;12;32;letter169;letter190;congruent;0.04;letter169;0.09;0.07;fullmask;0.25;arrow_left.png;0.13;c;0.24892370000088704;0.2503458999999566;10046.5935912;2.5000008463393897e-06;0.5033282000003965;0.5433348000005935;0.5952962999999727;0.6650679000013042;0.8456432000002678;0.8456452999998874;0;1;0;0;0.01
4;2;12;33;letter169;letter190;congruent;0.04;letter169;0.09;0.07;fullmask;0.25;arrow_left.png;0.13;c;0.3337610999988101;0.3401025999992271;10048.4095563;2.499999027349986e-06;0.49916789999952016;0.5391863999993802;0.5911575999998604;0.6609296999995422;0.8414445999987947;1.1295660999985557;0;0;1;0;0.01
4;2;12;34;letter169;letter190;congruent;0.04;letter169;0.09;0.07;fullmask;0.25;arrow_left.png;0.13;c;0.3625043999982154;0.3700089999983902;10050.4495428;2.599999788799323e-06;0.4987457999995968;0.5387754000003042;0.590697600000567;0.6604532999990624;0.8409716000005574;1.1591747000002215;0;0;1;0;0.01
4;2;12;35;letter169;letter190;congruent;0.04;letter190;0.09;0.07;fullmask;0.25;arrow_right.png;0.13;m;0.25527580000016314;0.26043920000120124;10052.3936366;2.5000008463393897e-06;0.5004399999997986;0.5404601000009279;0.5923937000006845;0.6621844000001147;0.8426942999994935;1.0507964999997057;0;0;1;0;0.01
4;2;12;36;letter169;letter190;congruent;0.04;letter190;0.09;0.07;fullmask;0.25;arrow_right.png;0.13;m;0.3479762999995728;0.3500812999991467;10054.4175753;2.499999027349986e-06;0.4952051999989635;0.5352187999997113;0.5871482999991713;0.656918399999995;0.8374383999998827;1.1356121999997413;0;0;1;0;0.01
4;2;12;37;letter169;letter190;congruent;0.04;letter169;0.09;0.07;fullmask;0.25;arrow_left.png;0.13;c;0.2987167999999656;0.3002084999989165;10056.4096269;2.599999788799323e-06;0.4997159999984433;0.539742799999658;0.591667899998356;0.6614369999988412;0.8419594999995752;1.0901017999985925;0;0;1;0;0.01
4;2;12;38;letter169;letter190;congruent;0.04;letter190;0.09;0.07;fullmask;0.25;arrow_right.png;0.13;m;0.32535529999950086;0.3301291999996465;10058.4175504;2.499999027349986e-06;0.5002478000005794;0.5402725999992981;0.5922081000007893;0.6619795000005979;0.8425162999992608;1.1206438999997772;0;0;1;0;0.01
4;2;12;39;letter169;letter190;congruent;0.04;letter169;0.09;0.07;fullmask;0.25;arrow_left.png;0.13;c;0.4247752000010223;0.43088669999997364;10060.5376503;2.5000008463393897e-06;0.503444900001341;0.5434534000014537;0.5947934000014357;0.6654890999998315;0.845002400001249;0.9756548000004841;0;0;0;1;0.01
4;2;12;40;letter169;letter190;congruent;0.04;letter190;0.09;0.07;fullmask;0.25;arrow_right.png;0.13;m;0.2646299000007275;0.26929390000077547;10062.2895458;2.4000000848900527e-06;0.4989368000005925;0.5389787000003707;0.5910984000001918;0.6608573000012257;0.8403771000012057;1.0592954000003374;0;0;1;0;0.01
4;2;12;41;letter169;letter190;congruent;0.04;letter190;0.09;0.07;fullmask;0.25;arrow_right.png;0.13;m;0.3375584000004892;0.3400996000000305;10064.3135454;2.2999993234407157e-06;0.4997875999997632;0.5398079999995389;0.5917585000006511;0.6615285999996559;0.8420430000005581;1.1302008000002388;0;0;1;0;0.01
4;2;12;42;letter169;letter190;congruent;0.04;letter169;0.09;0.07;fullmask;0.25;arrow_left.png;0.13;c;0.25452039999981935;0.2604319999991276;10066.2418006;2.499999027349986e-06;0.4954280000001745;0.5354384000002028;0.5873814999995375;0.6571502999995573;0.83768549999877;1.0457619999997405;0;0;1;0;0.01
4;2;12;43;letter169;letter190;congruent;0.04;letter169;0.09;0.07;fullmask;0.25;arrow_left.png;0.13;c;0.31500990000131424;0.3201841999998578;10068.2336391;2.7999994927085936e-06;0.4967703000002075;0.536798600000111;0.5888528999985283;0.6585368999985803;0.8390578999988065;1.1071656999993138;0;0;1;0;0.01
4;2;12;44;letter169;letter190;congruent;0.04;letter169;0.09;0.07;fullmask;0.25;arrow_left.png;0.13;c;0.25187410000035015;0.2603190000008908;10070.161543;2.4000000848900527e-06;0.4966352999999799;0.536654700001236;0.5884772000008525;0.6582483000001957;0.8387636000006751;1.0469764000008581;0;0;1;0;0.01
4;2;12;45;letter169;letter190;congruent;0.04;letter190;0.09;0.07;fullmask;0.25;arrow_right.png;0.13;m;0.26309889999902225;0.2702921999989485;10072.113575;2.499999027349986e-06;0.4998507000000245;0.5398702999991656;0.5912534999988566;0.6620212999987416;0.8415409999997792;1.0602292999992642;0;0;1;0;0.01
4;2;12;46;letter169;letter190;congruent;0.04;letter190;0.09;0.07;fullmask;0.25;arrow_right.png;0.13;m;0.29937430000063614;0.30038150000109454;10074.0816082;2.5000008463393897e-06;0.49577750000025844;0.5358054999996966;0.5876991000004637;0.6577660000002652;0.8380290999994031;1.0861588999996457;0;0;1;0;0.01
4;2;12;47;letter169;letter190;congruent;0.04;letter190;0.09;0.07;fullmask;0.25;arrow_right.png;0.13;m;0.28790829999888956;0.2902467000003526;10076.0415657;2.5000008463393897e-06;0.5032804000002216;0.5433052999997017;0.5953564000010374;0.6650299000011728;0.8455610000000888;1.0836560000007012;0;0;1;0;0.01
4;2;12;48;letter169;letter190;congruent;0.04;letter169;0.09;0.07;fullmask;0.25;arrow_left.png;0.13;m;0.3113835000003746;0.3201951999999437;10078.0255775;2.5000008463393897e-06;0.5001152000004367;0.5401443000009749;0.5914594000005309;0.6613546000007773;0.8417857000004005;1.1104886000011902;0;0;1;0;0.01
4;2;13;1;letter169;letter190;congruent;0.04;letter190;0.09;0.07;fullmask;0.2;arrow_right.png;0.13;m;0.2872825999984343;0.2902730999994674;10089.6095039;2.499999027349986e-06;0.49573810000038065;0.535764599999311;0.5876785999989806;0.6574835999999777;0.7871386999995593;1.076120899999296;0;0;1;0;0.01
4;2;13;2;letter169;letter190;congruent;0.04;letter169;0.09;0.07;fullmask;0.2;arrow_left.png;0.13;c;0.17400509999970382;0.17943259999992733;10091.4575414;2.70000055024866e-06;0.4952251000013348;0.5352317000015319;0.5872064000013779;0.656874100001005;0.7666346000005433;0.7666367000001628;0;1;0;0;0.01
4;2;13;3;letter169;letter190;congruent;0.04;letter169;0.09;0.07;fullmask;0.2;arrow_left.png;0.13;c;0.31300569999984873;0.3201888000003237;10093.2576326;2.899998435168527e-06;0.5038362999985111;0.5438609999982873;0.595852599999489;0.6655329999994137;0.7961963999987347;1.1142259999996895;0;0;1;0;0.01
4;2;13;4;letter169;letter190;congruent;0.04;letter169;0.09;0.07;fullmask;0.2;arrow_left.png;0.13;c;0.283765800000765;0.2902386000005208;10095.2096079;2.5000008463393897e-06;0.49922830000105023;0.5392426000016712;0.5911776000011741;0.6609489000002213;0.7906018000012409;1.079599300001064;0;0;1;0;0.01
4;2;13;5;letter169;letter190;congruent;0.04;letter190;0.09;0.07;fullmask;0.2;arrow_right.png;0.13;m;0.25045850000060454;0.26031940000029863;10097.1375566;2.599999788799323e-06;0.49913009999909264;0.539147999999841;0.5910774000003585;0.6608497999986866;0.7905030000001716;1.0494774999988294;0;0;1;0;0.01
4;2;13;6;letter169;letter190;congruent;0.04;letter169;0.09;0.07;fullmask;0.2;arrow_left.png;0.13;c;0.27304390000062995;0.27931250000074215;10099.0815485;2.4000000848900527e-06;0.4993551000006846;0.5393775000011374;0.5914757999998983;0.6613770000003569;0.7909443999997166;1.0697323999993387;0;0;1;0;0.01
4;2;13;7;letter169;letter190;congruent;0.04;letter190;0.09;0.07;fullmask;0.2;arrow_right.png;0.13;m;0.2179883000007976;0.2205684000000474;10100.9776077;2.599999788799323e-06;0.4963346000004094;0.5363627999995515;0.5883288000004541;0.6582242999993468;0.7877883999990445;1.0066755000007106;0;0;1;0;0.01
4;2;13;8;letter169;letter190;congruent;0.04;letter190;0.09;0.07;fullmask;0.2;arrow_right.png;0.13;m;0.2808127999996941;0.2902371999989555;10102.9215979;2.599999788799323e-06;0.4977441999999428;0.5377699000000575;0.5896842000001925;0.659455999999409;0.7891084999992017;1.0781234000005497;0;0;1;0;0.01
4;2;13;9;letter169;letter190;congruent;0.04;letter169;0.09;0.07;fullmask;0.2;arrow_left.png;0.13;m;0.27949939999962226;0.28030820000094536;10104.8816235;2.599999788799323e-06;0.496696799998972;0.5367151999998896;0.5887129999991885;0.6586059999990539;0.7881760999989638;1.067046999998638;0;0;1;0;0.01
4;2;13;10;letter169;letter190;congruent;0.04;letter190;0.09;0.07;fullmask;0.2;arrow_right.png;0.13;m;0.26443340000150783;0.2705359000010503;10106.8177059;2.599999788799323e-06;0.5019363999999769;0.5419648999995843;0.5938631999997597;0.6637783000005584;0.7934294000006048;1.0623052999999345;0;0;1;0;0.01
4;2;13;11;letter169;letter190;congruent;0.04;letter190;0.09;0.07;fullmask;0.2;arrow_right.png;0.13;m;0.2949479999988398;0.30015459999958694;10108.8096101;2.4000000848900527e-06;0.5035787000015262;0.5436317000003328;0.5956403000000137;0.6653273000010813;0.794982200000959;1.0939625000009983;0;0;1;0;0.01
4;2;13;12;letter169;letter190;congruent;0.04;letter169;0.09;0.07;fullmask;0.2;arrow_left.png;0.13;c;0.2276893000016571;0.2304007000002457;10110.7135245;2.499999027349986e-06;0.49974660000043514;0.5397766000005504;0.5917045000005601;0.661480799999481;0.7911335999997391;1.0200851999998122;0;0;1;0;0.01
4;2;13;13;letter169;letter190;congruent;0.04;letter169;0.09;0.07;fullmask;0.2;arrow_left.png;0.13;c;0.20447100000092178;0.2094563000009657;10112.6015315;2.5000008463393897e-06;0.49983630000133417;0.5398623000000953;0.5917860999998084;0.6615648000006331;0.7912135000005946;1.0001585999998497;0;0;1;0;0.01
4;2;13;14;letter169;letter190;congruent;0.04;letter190;0.09;0.07;fullmask;0.2;arrow_right.png;0.13;m;0.2893690999990213;0.29036269999960496;10114.5776522;2.499999027349986e-06;0.49638450000020384;0.5363937999991322;0.5883383000000322;0.6581098999995447;0.7877659999994648;1.076753600000302;0;0;1;0;0.01
4;2;13;15;letter169;letter190;congruent;0.04;letter169;0.09;0.07;fullmask;0.2;arrow_left.png;0.13;c;0.25597170000037295;0.2603484999999637;10116.5056178;2.5000008463393897e-06;0.5033344000003126;0.543386700001065;0.595402599999943;0.665079100001094;0.7947469000009733;1.0536797000004299;0;0;1;0;0.01
4;2;13;16;letter169;letter190;congruent;0.04;letter169;0.09;0.07;fullmask;0.2;arrow_left.png;0.13;c;0.3247443000000203;0.33013320000100066;10118.5055187;2.2999993234407157e-06;0.49975369999992836;0.5398655000008148;0.5918020000008255;0.6615744999999151;0.7912310000010621;1.120261500000197;0;0;1;0;0.01
4;2;13;17;letter169;letter190;congruent;0.04;letter190;0.09;0.07;fullmask;0.2;arrow_right.png;0.13;m;0.2813724999996339;0.2902377999998862;10120.4735128;2.599999788799323e-06;0.5032718000002205;0.543288400000165;0.595303199999762;0.6650740000004589;0.7947287999995751;1.0836309000005713;0;0;1;0;0.01
4;2;13;18;letter169;letter190;congruent;0.04;letter190;0.09;0.07;fullmask;0.2;arrow_right.png;0.13;m;0.3143306999991182;0.32015900000078545;10122.4575328;2.5000008463393897e-06;0.5010218000006716;0.5410377000007429;0.5928564000005281;0.6626295000005484;0.7932964999999967;1.1114166999996087;0;0;1;0;0.01
4;2;13;19;letter169;letter190;congruent;0.04;letter190;0.09;0.07;fullmask;0.2;arrow_right.png;0.13;m;0.32328830000005837;0.3302270000003773;10124.4580426;2.4000000848900527e-06;0.49635769999986223;0.5363704999999754;0.5884575999989465;0.6581344000005629;0.7878072000003158;1.1167447999996511;0;0;1;0;0.01
4;2;13;20;letter169;letter190;congruent;0.04;letter190;0.09;0.07;fullmask;0.2;arrow_right.png;0.13;m;0.2997094999991532;0.3002011999997194;10126.4255748;2.4000000848900527e-06;0.5022158000010677;0.5422318000000814;0.5941612000005989;0.6639302000003227;0.7935825000004115;1.0926108000003296;0;0;1;0;0.01
4;2;13;21;letter169;letter190;congruent;0.04;letter169;0.09;0.07;fullmask;0.2;arrow_left.png;0.13;c;0.31430490000093414;0.32015619999947376;10128.4015137;2.4000000848900527e-06;0.5009995000000345;0.5410183000003599;0.5930151000011392;0.6627824000006513;0.7924397000006138;1.1113714000002801;0;0;1;0;0.01
4;2;13;22;letter169;letter190;congruent;0.04;letter190;0.09;0.07;fullmask;0.2;arrow_right.png;0.13;m;0.25914019999981974;0.26035199999932956;10130.3376456;2.499999027349986e-06;0.5027940999989369;0.5428202999992209;0.594850100000258;0.664522200000647;0.7941802999994252;1.0531418999999005;0;0;1;0;0.01
4;2;13;23;letter169;letter190;congruent;0.04;letter169;0.09;0.07;fullmask;0.2;arrow_left.png;0.13;c;0.3017792999999074;0.3102115000001504;10132.3215292;2.399998265900649e-06;0.49692209999921033;0.5369584999989456;0.5889658999985841;0.6586587999991025;0.7882921999989776;1.0972989999991114;0;0;1;0;0.01
4;2;13;24;letter169;letter190;congruent;0.04;letter169;0.09;0.07;fullmask;0.2;arrow_left.png;0.13;c;0.2464746000005107;0.2503732000004675;10134.2575515;2.599999788799323e-06;0.49454960000002757;0.5345734000002267;0.5866377999991528;0.6564952000007906;0.7860567000006995;1.0349093999993784;0;0;1;0;0.01
4;2;13;25;letter169;letter190;congruent;0.04;letter169;0.09;0.07;fullmask;0.2;arrow_left.png;0.13;c;0.2774104999989504;0.2802853999983199;10136.2095548;2.5000008463393897e-06;0.49515140000039537;0.5351638000011008;0.5870719000013196;0.6568609000005381;0.7865149000008387;1.065514500000063;0;0;1;0;0.01
4;2;13;26;letter169;letter190;congruent;0.04;letter169;0.09;0.07;fullmask;0.2;arrow_left.png;0.13;c;0.3481141000011121;0.3502232000009826;10138.2415901;2.4000000848900527e-06;0.5005127000003995;0.5405198999997083;0.5924953000012465;0.6624018000002252;0.7919636000005994;0.922610600000553;0;0;0;1;0.01
4;2;13;27;letter169;letter190;congruent;0.04;letter190;0.09;0.07;fullmask;0.2;arrow_right.png;0.13;m;0.2773544000010588;0.28012219999982335;10140.0015619;2.499999027349986e-06;0.5027874999996129;0.542809299999135;0.5943409999999858;0.6640955000002577;0.7946510999991006;1.0731551999997464;0;0;1;0;0.01
4;2;13;28;letter169;letter190;congruent;0.04;letter169;0.09;0.07;fullmask;0.2;arrow_left.png;0.13;c;0.30178669999986596;0.31031050000092364;10141.9777334;2.599999788799323e-06;0.5026061999997182;0.5426346000003832;0.5946583000004466;0.6644610000003013;0.7941104999990785;1.1029983999997057;0;0;1;0;0.01
4;2;13;29;letter169;letter190;congruent;0.04;letter169;0.09;0.07;fullmask;0.2;arrow_left.png;0.13;c;0.20233210000151303;0.20960280000144849;10143.8895033;2.4000000848900527e-06;0.503641699999207;0.5436645999998291;0.5956205000002228;0.6655420000006416;0.7951938000005612;1.003986600000644;0;0;1;0;0.01
4;2;13;30;letter169;letter190;congruent;0.04;letter169;0.09;0.07;fullmask;0.2;arrow_left.png;0.13;c;0.23111980000066978;0.24037029999999504;10145.8095188;2.4000000848900527e-06;0.4968802000003052;0.5368870000002062;0.5888544000008551;0.6586239000007481;0.788277300000118;1.0272141999994346;0;0;1;0;0.01
4;2;13;31;letter169;letter190;congruent;0.04;letter169;0.09;0.07;fullmask;0.2;arrow_left.png;0.13;c;0.285900999999285;0.29024159999971744;10147.7855146;2.599999788799323e-06;0.503888499999448;0.5439093999993929;0.5958515999991505;0.665624299999763;0.7952779999995983;1.0842563999995036;0;0;1;0;0.01
4;2;13;32;letter169;letter190;congruent;0.04;letter190;0.09;0.07;fullmask;0.2;arrow_right.png;0.13;m;0.21136590000060096;0.22055120000004536;10149.6816787;2.999999196617864e-06;0.4975801999989926;0.5375965999992331;0.5889767999997275;0.6597593000005872;0.7894114999999147;1.0079067000006035;0;0;1;0;0.01
4;2;13;33;letter169;letter190;congruent;0.04;letter190;0.09;0.07;fullmask;0.2;arrow_right.png;0.13;m;0.33589209999991;0.34016179999889573;10151.6975079;2.599999788799323e-06;0.49676999999974214;0.5367915999995603;0.5882590000001073;0.6580753999987792;0.7887260999996215;0.9183775000001333;0;0;0;1;0.01
4;2;13;34;letter169;letter190;congruent;0.04;letter190;0.09;0.07;fullmask;0.2;arrow_right.png;0.13;m;0.3240741999998136;0.3301279000006616;10153.4975205;2.4000000848900527e-06;0.494638499998473;0.5346498999988398;0.5867862999984936;0.6565555999986827;0.7862112000002526;1.1150404999989405;0;0;1;0;0.01
4;2;13;35;letter169;letter190;congruent;0.04;letter169;0.09;0.07;fullmask;0.2;arrow_left.png;0.13;m;0.2570173000003706;0.2603201000001718;10155.4415107;2.599999788799323e-06;0.5021929000013188;0.5422118000005867;0.5940986000005068;0.6638675000012881;0.793526400000701;1.0525367999998707;0;0;1;0;0.01
4;2;13;36;letter169;letter190;congruent;0.04;letter169;0.09;0.07;fullmask;0.2;arrow_left.png;0.13;c;0.27188329999989946;0.28036249999968277;10157.3776568;2.5000008463393897e-06;0.4976812000004429;0.5377012000008108;0.589644200001203;0.6594943000000058;0.7890521000008448;1.0680545000013808;0;0;1;0;0.01
4;2;13;37;letter169;letter190;congruent;0.04;letter190;0.09;0.07;fullmask;0.2;arrow_right.png;0.13;m;0.2663880000000063;0.2701985000003333;10159.3135528;2.4000000848900527e-06;0.4974901999994472;0.537508199999138;0.589593299999251;0.659269799998583;0.7889228999993065;1.057859799999278;0;0;1;0;0.01
4;2;13;38;letter169;letter190;congruent;0.04;letter190;0.09;0.07;fullmask;0.2;arrow_right.png;0.13;c;0.18115120000038587;0.18955100000130187;10161.1694954;2.499999027349986e-06;0.5013667999992322;0.541397799999686;0.5934083999982249;0.6633081999989372;0.7829587999985961;0.7829607999992731;0;1;0;0;0.01
4;2;13;39;letter169;letter190;congruent;0.04;letter190;0.09;0.07;fullmask;0.2;arrow_right.png;0.13;m;0.3122810999993817;0.320157800000743;10162.96151;2.7999994927085936e-06;0.4986430000008113;0.5386717000001227;0.5904972999996971;0.6602693000004365;0.7899216999994678;1.1090349000005517;0;0;1;0;0.01
4;2;13;40;letter169;letter190;congruent;0.04;letter169;0.09;0.07;fullmask;0.2;arrow_left.png;0.13;c;0.24140129999977944;0.2504606000002241;10164.8817265;2.499999027349986e-06;0.4991138999994291;0.5391483999992488;0.590780900000027;0.660551499999201;0.7911237999996956;1.0394569999989471;0;0;1;0;0.01
4;2;13;41;letter169;letter190;congruent;0.04;letter169;0.09;0.07;fullmask;0.2;arrow_left.png;0.13;c;0.3402709000001778;0.351080099999308;10166.9215046;2.800001311697997e-06;0.5031132000003709;0.5431429000000207;0.5944512000005489;0.6652217000009841;0.7948731000014959;0.924528100000316;0;0;0;1;0.01
4;2;13;42;letter169;letter190;congruent;0.04;letter190;0.09;0.07;fullmask;0.2;arrow_right.png;0.13;m;0.25446370000099705;0.2603188000011869;10168.6574619;2.4000000848900527e-06;0.5006834000014351;0.5407074000013381;0.5926147000009223;0.6623868000006041;0.7920405000004394;1.0510260999999446;0;0;1;0;0.01
4;2;13;43;letter169;letter190;congruent;0.04;letter169;0.09;0.07;fullmask;0.2;arrow_left.png;0.13;c;0.5571085999999923;0.560428700000557;10170.8814628;2.6999987312592566e-06;0.4979208999993716;0.5379483999986405;0.5899669999998878;0.659645300000193;0.7892961999987165;0.9199491999988822;0;0;0;1;0.01
4;2;13;44;letter169;letter190;congruent;0.04;letter190;0.09;0.07;fullmask;0.2;arrow_right.png;0.13;m;0.2545209999989311;0.2603211999994528;10172.6095018;2.4000000848900527e-06;0.497080700000879;0.5371099000003596;0.5884556000000885;0.6592335000004823;0.7889023000007;1.0474425000011252;0;0;1;0;0.01
4;2;13;45;letter169;letter190;congruent;0.04;letter190;0.09;0.07;fullmask;0.2;arrow_right.png;0.13;m;0.3207980999995925;0.3301362000001973;10174.6177255;2.4000000848900527e-06;0.5011181999998371;0.5411495999996987;0.5931880999996793;0.6628584999998566;0.7925147000005381;1.1215057999997953;0;0;1;0;0.01
4;2;13;46;letter169;letter190;congruent;0.04;letter190;0.09;0.07;fullmask;0.2;arrow_right.png;0.13;m;0.39344639999944775;0.39994540000043344;10176.6814982;2.4000000848900527e-06;0.5001185999990412;0.5401566999989882;0.5920368999995844;0.6618065000002389;0.7914585999988049;0.9221096000001126;0;0;0;1;0.01
4;2;13;47;letter169;letter190;congruent;0.04;letter190;0.09;0.07;fullmask;0.2;arrow_right.png;0.13;c;0.2261447999990196;0.2294480000000476;10178.3855231;2.5000008463393897e-06;0.49721169999975245;0.5372299000009662;0.589263400001073;0.6591623000003892;0.7887325000010605;1.0175586999994266;0;0;1;0;0.01
4;2;13;48;letter169;letter190;congruent;0.04;letter169;0.09;0.07;fullmask;0.2;arrow_left.png;0.13;c;0.2550105000009353;0.26033319999987725;10180.3055022;2.6999987312592566e-06;0.4984686999996484;0.5384842000003118;0.5904085999991366;0.660195799999201;0.7898494000000937;1.048816700000316;0;0;1;0;0.01
subjnr;loop_m;blocknr;trialnr;cue_left_learn;cue_right_learn; congruence;cue_dur;cue;SOA;mask_dur;mask;target_dur;target;RW_dur;response;RT;kb_rt;response_absolute; fix_onset;cue_onset;cue_offset;mask_onset;mask_offset;target_offset;blank_onset;response_during_mask;response_during_targetalone;response_during_RW;response_during_blank;frame_dur
