subjnr;loop_m;blocknr;trialnr;cue_left_learn;cue_right_learn;option_up;option_down;practice;motivation; congruence;cue_dur;cue;SOA;mask_dur;mask;target_dur;target;response;RT;kb_rt;response_absolute; fix_onset;cue_onset;cue_offset;mask_onset;mask_offset;target_offset;blank_onset;frame_dur
4;1;6;1;letter181;letter357;letter181;letter357;1;0;incongruent;0.12;letter357;0.14;0.07;fullmask;0.2;arrow_left.png;down;0.7887355000002572;0.789874800000689;9291.3379559;2.7999994927085936e-06;0.5020299999996496;0.6221019000004162;0.6421169999994163;0.7121580999992148;0.8422276000001148;0.9723290000001725;0.01
4;1;6;2;letter181;letter357;letter181;letter357;1;0;congruent;0.12;letter357;0.14;0.07;fullmask;0.2;arrow_right.png;down;0.05925489999935962;0.06031699999948614;9292.9699439;2.5000008463393897e-06;0.4957489999997051;0.6158102999997936;0.6358342000003177;0.7058465000009164;0.8359524000006786;0.9660478999994666;0.01
4;1;6;3;letter181;letter357;letter181;letter357;1;0;incongruent;0.12;letter357;0.14;0.07;fullmask;0.2;arrow_left.png;down;0.05253099999936239;0.05988009999964561;9294.5941104;2.3000011424301192e-06;0.5040116000000125;0.6240671000014117;0.6441037000004144;0.7141242000016064;0.8442205999999715;0.9743196000017633;0.01
4;1;6;4;letter181;letter357;letter181;letter357;1;0;congruent;0.12;letter181;0.14;0.07;fullmask;0.2;arrow_left.png;up;2.3476737000000867;2.351749999999811;9298.5299478;2.200000380980782e-06;0.5043342000008124;0.6244179000004806;0.6444103000012547;0.7144255000002886;0.8445228000000498;0.9746148000012909;0.01
4;1;6;5;letter181;letter357;letter181;letter357;1;0;incongruent;0.12;letter357;0.14;0.07;fullmask;0.2;arrow_left.png;down;1.9049353999998857;1.9112617999999202;9302.0100764;2.4000000848900527e-06;0.5015357000011136;0.6216019000003143;0.6416234000007535;0.711653500000466;0.8417343000000983;0.971832600000198;0.01
4;1;6;6;letter181;letter357;letter181;letter357;1;0;congruent;0.12;letter357;0.14;0.07;fullmask;0.2;arrow_right.png;down;0.32897440000124334;0.3310374000011507;9303.9059395;2.4000000848900527e-06;0.4992648999996163;0.619333300001017;0.6393614000007801;0.7093740000000253;0.839474300000802;0.9695541000000958;0.01
4;1;6;7;letter181;letter357;letter181;letter357;1;0;incongruent;0.12;letter181;0.14;0.07;fullmask;0.2;arrow_right.png;up;1.737136499999906;1.7403393000004144;9307.2259581;2.2999993234407157e-06;0.5017346000004181;0.6218064000004233;0.6418264000003546;0.7118683999997302;0.8419472000005044;0.972034899999926;0.01
4;1;6;8;letter181;letter357;letter181;letter357;1;0;incongruent;0.12;letter181;0.14;0.07;fullmask;0.2;arrow_right.png;up;0.03495499999917229;0.039869199999884586;9308.8259671;2.6999987312592566e-06;0.49481249999917054;0.6148877999985416;0.634920599999532;0.7049322999992;0.8350001999988308;0.9651115999986359;0.01
4;1;6;9;letter181;letter357;letter181;letter357;1;0;congruent;0.12;letter357;0.14;0.07;fullmask;0.2;arrow_right.png;down;1.6105160000006435;1.6115504000008514;9312.0019789;2.4000000848900527e-06;0.49775440000121307;0.617829000000711;0.6378420000000915;0.7078766000013275;0.8379593000008754;0.9680420000004233;0.01
4;1;6;10;letter181;letter357;letter181;letter357;1;0;congruent;0.12;letter181;0.14;0.07;fullmask;0.2;arrow_left.png;up;1.7977420000006532;1.8008804000000964;9315.3619277;2.4000000848900527e-06;0.4965365000007296;0.6165830999998434;0.6366213999990578;0.7066262000007555;0.8367096000001766;0.966810699999769;0.01
4;1;6;11;letter181;letter357;letter181;letter357;1;0;congruent;0.12;letter181;0.14;0.07;fullmask;0.2;arrow_left.png;up;1.8124013000015111;1.822022400001515;9318.7379228;2.4000000848900527e-06;0.4989819999991596;0.6190963999997621;0.6390670999990107;0.7091037999998662;0.8391765999986092;0.9692887999990489;0.01
4;1;6;12;letter181;letter357;letter181;letter357;1;0;incongruent;0.12;letter181;0.14;0.07;fullmask;0.2;arrow_right.png;up;0.027481799999804934;0.029931900000519818;9320.3459482;2.3000011424301192e-06;0.5021945999997115;0.6222880000004807;0.6422947999999451;0.7123267000006308;0.8424076000010245;0.972501000000193;0.01
4;1;7;1;letter181;letter357;letter181;letter357;0;0;incongruent;0.04;letter357;0.05;0.07;fullmask;0.2;arrow_left.png;up;0.6383318000007421;0.6405647000010504;9344.6419253;2.4000000848900527e-06;0.5003015000002051;0.5403206999999384;0.5503272000005381;0.6203533000007155;0.7504361000010249;0.8805535999999847;0.01
4;1;7;2;letter181;letter357;letter181;letter357;0;0;congruent;0.04;letter357;0.05;0.07;fullmask;0.2;arrow_right.png;up;0.2467369999994844;0.24938250000013795;9346.5619099;2.4000000848900527e-06;0.49646469999970577;0.5364695999996911;0.5464830999990227;0.616510500000004;0.7466065999997227;0.8767079999997804;0.01
4;1;7;3;letter181;letter357;letter181;letter357;0;0;congruent;0.04;letter357;0.05;0.07;fullmask;0.2;arrow_right.png;up;0.08589960000063002;0.08989500000097905;9348.3219173;2.399998265900649e-06;0.49833679999937885;0.5383406999990257;0.5483520999987377;0.6183747999984917;0.7484680999987177;0.8785787999986496;0.01
4;1;7;4;letter181;letter357;letter181;letter357;0;0;incongruent;0.04;letter357;0.05;0.07;fullmask;0.2;arrow_left.png;down;0.4189003999999841;0.42090210000060324;9350.4261192;2.4000000848900527e-06;0.504868300000453;0.5448950999998488;0.5548894000003202;0.6249392999998236;0.7550085999992007;0.8851176000007399;0.01
4;1;7;5;letter181;letter357;letter181;letter357;0;0;incongruent;0.04;letter181;0.05;0.07;fullmask;0.2;arrow_right.png;down;0.5493630999990273;0.5504545000003418;9352.4580106;2.499999027349986e-06;0.5044524999993882;0.5444711000000098;0.554470199998832;0.624511199999688;0.7545835999990231;0.8849527000002126;0.01
4;1;7;6;letter181;letter357;letter181;letter357;0;0;congruent;0.04;letter181;0.05;0.07;fullmask;0.2;arrow_left.png;up;1.7425159000013082;1.7512139000009483;9355.8819755;2.2999993234407157e-06;0.5036798999990424;0.5437005999992834;0.5537066999986564;0.6237492999989627;0.753817999999228;0.883936399999584;0.01
4;1;7;7;letter181;letter357;letter181;letter357;0;0;congruent;0.04;letter181;0.05;0.07;fullmask;0.2;arrow_left.png;up;0.23774080000112008;0.2404214000016509;9357.6099044;2.599999788799323e-06;0.5028063000008842;0.5428295000001526;0.5528199000000313;0.622863900000084;0.7529412000003504;0.8830429000008735;0.01
4;1;7;8;letter181;letter357;letter181;letter357;0;0;congruent;0.04;letter181;0.05;0.07;fullmask;0.2;arrow_left.png;up;0.045347100000071805;0.05003290000058769;9359.1379569;2.5000008463393897e-06;0.4980866000005335;0.5381045000012818;0.5481111000008241;0.6181452000000718;0.748230400000466;0.8783340999998472;0.01
4;1;7;9;letter181;letter357;letter181;letter357;0;1;congruent;0.12;letter357;0.14;0.07;fullmask;0.2;arrow_right.png;up;0.066289999998844;0.07082839999930002;9360.7699201;2.2999993234407157e-06;0.5045608999989781;0.6246481999987736;0.6446349999987433;0.7146620999992592;0.8447558999996545;0.9748652999987826;0.01
4;1;7;10;letter181;letter357;letter181;letter357;0;0;incongruent;0.04;letter181;0.05;0.07;fullmask;0.2;arrow_right.png;down;0.07278070000029402;0.0799444999993284;9362.5379247;2.3000011424301192e-06;0.5018598000006023;0.5418781000007584;0.5518874000008509;0.6219166000009864;0.7520036000005348;0.8821022000010998;0.01
4;1;7;11;letter181;letter357;letter181;letter357;0;0;incongruent;0.04;letter181;0.05;0.07;fullmask;0.2;arrow_right.png;up;0.06944500000099652;0.0699655000007624;9364.3061734;2.4000000848900527e-06;0.49856520000139426;0.538573499999984;0.548591500000839;0.6186151000001701;0.748699800000395;0.8788058000009187;0.01
4;1;7;12;letter181;letter357;letter181;letter357;0;0;congruent;0.04;letter357;0.05;0.07;fullmask;0.2;arrow_right.png;up;1.960919199998898;1.9617523999986588;9367.7381178;2.4000000848900527e-06;0.498919499999829;0.5389592999999877;0.5489421000002039;0.6189871000005951;0.7490570000009029;0.8791648000005807;0.01
4;1;7;13;letter181;letter357;letter181;letter357;0;0;incongruent;0.04;letter357;0.05;0.07;fullmask;0.2;arrow_left.png;down;0.10271330000068701;0.11086570000043139;9369.5219204;2.2999993234407157e-06;0.49724779999996827;0.5372836000005918;0.5472862999995414;0.6173206999992544;0.747416100000919;0.8775026000002981;0.01
4;1;7;14;letter181;letter357;letter181;letter357;0;0;congruent;0.04;letter181;0.05;0.07;fullmask;0.2;arrow_left.png;up;0.04144570000062231;0.05078930000127002;9371.0419119;2.4000000848900527e-06;0.49924690000079863;0.5392919999994774;0.5492770000000746;0.6193308999991132;0.7493967999998858;0.8795097000001988;0.01
4;1;7;15;letter181;letter357;letter181;letter357;0;0;congruent;0.04;letter357;0.05;0.07;fullmask;0.2;arrow_right.png;down;1.6681692999991355;1.670567299999675;9374.2099055;2.599999788799323e-06;0.5027757999996538;0.5427959999997256;0.5527912999987166;0.6228241999997408;0.7529147999994166;0.883008199998585;0.01
4;1;7;16;letter181;letter357;letter181;letter357;0;0;incongruent;0.04;letter181;0.05;0.07;fullmask;0.2;arrow_right.png;up;0.05271480000010342;0.060904600000867504;9375.7462107;2.4000000848900527e-06;0.5020064000000275;0.542025000000649;0.5520577000006597;0.6220789000017248;0.7521728000010626;0.8822508000012022;0.01
4;1;7;17;letter181;letter357;letter181;letter357;0;0;congruent;0.04;letter181;0.05;0.07;fullmask;0.2;arrow_left.png;up;1.6228518999996595;1.6306287000006705;9378.8578991;2.5000008463393897e-06;0.49882070000057865;0.5388351000001421;0.5488463000001502;0.6188930000007531;0.7489590000004682;0.879069000000527;0.01
4;1;7;18;letter181;letter357;letter181;letter357;0;0;incongruent;0.04;letter181;0.05;0.07;fullmask;0.2;arrow_right.png;up;0.021190399998886278;0.029925399998319335;9380.378019;2.399998265900649e-06;0.504401099999086;0.5444129999996221;0.5544171999990795;0.6244594999989204;0.7545414999985951;0.884645799998907;0.01
4;1;7;19;letter181;letter357;letter181;letter357;0;0;incongruent;0.04;letter357;0.05;0.07;fullmask;0.2;arrow_left.png;up;1.4305378999997629;1.4313058000007004;9383.2981155;2.6999987312592566e-06;0.5027110999999422;0.5427239999989979;0.5527451999987534;0.6227752999984659;0.7528540999992401;0.882953099999213;0.01
4;1;7;20;letter181;letter357;letter181;letter357;0;0;incongruent;0.04;letter357;0.05;0.07;fullmask;0.2;arrow_left.png;down;0.09208630000102858;0.09989870000026713;9385.0819171;2.800001311697997e-06;0.5008783000012045;0.540891600001487;0.5508906000013667;0.6209783000012976;0.7510087999999087;0.8811088000002201;0.01
4;1;7;21;letter181;letter357;letter181;letter357;0;0;congruent;0.04;letter357;0.05;0.07;fullmask;0.2;arrow_right.png;up;1.653132999999798;1.6605901999992057;9388.2338984;2.2999993234407157e-06;0.5024885000002541;0.5425104999994801;0.5525094999993598;0.6225666999998793;0.752627299998494;0.8827313000001595;0.01
4;1;7;22;letter181;letter357;letter181;letter357;0;1;incongruent;0.12;letter181;0.14;0.07;fullmask;0.2;arrow_right.png;up;1.4291196999984095;1.4311052999983076;9391.4423617;2.4000000848900527e-06;0.5048925999999483;0.6249674000009691;0.6449802999995882;0.7150082999996812;0.8450970000012603;0.9751929000012751;0.01
4;1;7;23;letter181;letter357;letter181;letter357;0;0;congruent;0.04;letter357;0.05;0.07;fullmask;0.2;arrow_right.png;up;2.142669000000751;2.151235400000587;9395.0578946;2.70000055024866e-06;0.49735789999976987;0.5373942000005627;0.5473899000007805;0.617441600001257;0.7474986000015633;0.8776014000013674;0.01
4;1;7;24;letter181;letter357;letter181;letter357;0;0;incongruent;0.04;letter181;0.05;0.07;fullmask;0.2;arrow_right.png;up;0.11107669999910286;0.12068899999940186;9396.8579055;2.4000000848900527e-06;0.4984946000004129;0.5384983000003558;0.5484856000002765;0.6185473000005004;0.7486298000003444;0.8787363999999798;0.01
4;1;7;25;letter181;letter357;letter181;letter357;0;0;incongruent;0.04;letter357;0.05;0.07;fullmask;0.2;arrow_left.png;up;0.06806870000036724;0.06997180000143999;9398.4259071;2.2999993234407157e-06;0.5031316000004153;0.5431346999994275;0.5531418999999005;0.6231551000000763;0.753254699999161;0.883366300000489;0.01
4;1;7;26;letter181;letter357;letter181;letter357;0;0;congruent;0.04;letter181;0.05;0.07;fullmask;0.2;arrow_left.png;up;1.8766825000002427;1.881005000001096;9401.9860058;2.4000000848900527e-06;0.4998352000002342;0.5398731999994197;0.5498814000002312;0.6198781999992207;0.7499862000004214;0.8800833000004786;0.01
4;1;7;27;letter181;letter357;letter181;letter357;0;0;incongruent;0.04;letter357;0.05;0.07;fullmask;0.2;arrow_left.png;up;1.4324488999991445;1.4412472000003618;9404.9141878;2.800001311697997e-06;0.5038834000006318;0.5438908000014635;0.5539071000002878;0.6239473000005091;0.7540196999998443;0.8841221000002406;0.01
4;1;7;28;letter181;letter357;letter181;letter357;0;0;incongruent;0.04;letter181;0.05;0.07;fullmask;0.2;arrow_right.png;up;0.17480459999933373;0.18068990000028862;9406.7780178;2.599999788799323e-06;0.5028989000002184;0.5429038000002038;0.5529323000009754;0.622955799999545;0.7530463999992207;0.8831571999999142;0.01
4;1;7;29;letter181;letter357;letter181;letter357;0;0;incongruent;0.04;letter181;0.05;0.07;fullmask;0.2;arrow_right.png;up;1.3313564999989467;1.3411328999991383;9409.5858851;2.4000000848900527e-06;0.49624039999980596;0.5362681999995402;0.5462737999987439;0.6162900999988778;0.7463929999994434;0.8764783999995416;0.01
4;1;7;30;letter181;letter357;letter181;letter357;0;0;incongruent;0.04;letter357;0.05;0.07;fullmask;0.2;arrow_left.png;up;1.9899070999999822;1.9916646999990917;9413.0658872;2.4000000848900527e-06;0.5012874999993073;0.5413046999983635;0.5513065999984974;0.6213155999994342;0.7514254999987315;0.881525299999339;0.01
4;1;7;31;letter181;letter357;letter181;letter357;0;0;congruent;0.04;letter181;0.05;0.07;fullmask;0.2;arrow_left.png;up;0.11754500000097323;0.12069020000126329;9414.8658794;2.499999027349986e-06;0.4980175999990024;0.5380112000002555;0.5480332000006456;0.6180621000003157;0.7481542999994417;0.8782532000004721;0.01
4;1;7;32;letter181;letter357;letter181;letter357;0;0;congruent;0.04;letter181;0.05;0.07;fullmask;0.2;arrow_left.png;up;0.027962600001046667;0.03007930000057968;9416.3778877;2.4000000848900527e-06;0.49573859999873093;0.5357588999995642;0.5457738999994035;0.6157984000001306;0.7458987999998499;0.8760040999986813;0.01
4;1;7;33;letter181;letter357;letter181;letter357;0;0;congruent;0.04;letter357;0.05;0.07;fullmask;0.2;arrow_right.png;up;1.6626267999999982;1.6703925000001618;9419.5139512;2.4000000848900527e-06;0.5023457000006601;0.5423670999989554;0.5523618000006536;0.6223988999990979;0.7524790999996185;0.8825837999993382;0.01
4;1;7;34;letter181;letter357;letter181;letter357;0;0;congruent;0.04;letter357;0.05;0.07;fullmask;0.2;arrow_right.png;up;1.6806569000000309;1.6903519999996206;9422.8738775;2.5000008463393897e-06;0.4944658000003983;0.5345016999999643;0.5444970000007743;0.61452140000074;0.7446173000007548;0.8747043000003032;0.01
4;1;7;35;letter181;letter357;letter181;letter357;0;1;incongruent;0.12;letter357;0.14;0.07;fullmask;0.2;arrow_left.png;down;1.0488368999995146;1.051285600000483;9425.7139359;2.2999993234407157e-06;0.5023858999993536;0.6224560999999085;0.6424563000000489;0.712497099999382;0.8425700000007055;0.9726718999991135;0.01
4;1;7;36;letter181;letter357;letter181;letter357;0;0;incongruent;0.04;letter181;0.05;0.07;fullmask;0.2;arrow_right.png;up;0.028877400000055786;0.029947699998956523;9427.2260029;2.599999788799323e-06;0.505163600000742;0.5451847000003909;0.5551797000007355;0.625215300000491;0.7552990000003774;0.8854045999996742;0.01
4;1;7;37;letter181;letter357;letter181;letter357;0;0;congruent;0.04;letter357;0.05;0.07;fullmask;0.2;arrow_right.png;up;0.11861920000046666;0.12083710000115389;9428.8258871;2.70000055024866e-06;0.49885750000066764;0.538890600000741;0.5489082000003691;0.618931100001646;0.7490146000000095;0.8791407000007894;0.01
4;1;7;38;letter181;letter357;letter181;letter357;0;0;congruent;0.04;letter181;0.05;0.07;fullmask;0.2;arrow_left.png;up;2.42052700000022;2.4316324000010354;9432.929955;2.4000000848900527e-06;0.499426799999128;0.5394161000003805;0.5494247999995423;0.6194725999994262;0.7495495000002848;0.879659599999286;0.01
4;1;7;39;letter181;letter357;letter181;letter357;0;0;incongruent;0.04;letter357;0.05;0.07;fullmask;0.2;arrow_left.png;down;1.4503511999992043;1.4512467999993532;9435.8821182;2.3000011424301192e-06;0.5024478000013914;0.5424638000004052;0.5524665000011737;0.6225020000001678;0.7525823000014498;0.8826992000012979;0.01
4;1;7;40;letter181;letter357;letter181;letter357;0;0;incongruent;0.04;letter181;0.05;0.07;fullmask;0.2;arrow_right.png;up;0.07096529999944323;0.08081239999955869;9437.4339072;2.3000011424301192e-06;0.5038566000002902;0.5438910000011674;0.5538992000001599;0.6239283000013529;0.7540134999999282;0.8841007000009995;0.01
4;1;7;41;letter181;letter357;letter181;letter357;0;0;incongruent;0.04;letter181;0.05;0.07;fullmask;0.2;arrow_right.png;up;0.17568070000015723;0.1805779000005714;9439.0898731;2.4000000848900527e-06;0.4965910000009899;0.53662230000009;0.5466228000004776;0.6166491000003589;0.7467441000007966;0.8768454000000929;0.01
4;1;7;42;letter181;letter357;letter181;letter357;0;0;congruent;0.04;letter181;0.05;0.07;fullmask;0.2;arrow_left.png;up;0.06249460000071849;0.06997489999957907;9440.6578836;2.4000000848900527e-06;0.502300500000274;0.5423337000011088;0.5523235000000568;0.6223590000008699;0.7524379000005865;0.8825479999995878;0.01
4;1;7;43;letter181;letter357;letter181;letter357;0;0;congruent;0.04;letter357;0.05;0.07;fullmask;0.2;arrow_right.png;up;1.2557223000003432;1.2615184999995108;9443.401855;2.5000008463393897e-06;0.5034300000006624;0.54344619999938;0.5534468999994715;0.623484699999608;0.7535676000006788;0.8836731000010332;0.01
4;1;7;44;letter181;letter357;letter181;letter357;0;0;incongruent;0.04;letter181;0.05;0.07;fullmask;0.2;arrow_right.png;up;0.5771436000013637;0.5803231000008964;9445.6658633;2.2999993234407157e-06;0.5033746999997675;0.543387799998527;0.5533986999998888;0.6234336999987136;0.7535114999991492;0.8836136999998416;0.01
4;1;7;45;letter181;letter357;letter181;letter357;0;0;congruent;0.04;letter357;0.05;0.07;fullmask;0.2;arrow_right.png;up;1.4863487999991776;1.4913671999984217;9448.6258681;2.4000000848900527e-06;0.49874799999997776;0.5387682000000495;0.5487954000000173;0.6188082999997278;0.7488972000010108;0.8789947999994183;0.01
4;1;7;46;letter181;letter357;letter181;letter357;0;1;congruent;0.12;letter181;0.14;0.07;fullmask;0.2;arrow_left.png;up;0.10237969999980123;0.10986070000035397;9450.5138799;2.2999993234407157e-06;0.5022941999995965;0.622360800000024;0.6423780000004626;0.7124119000000064;0.8425129999995988;0.9726123999989795;0.01
4;1;7;47;letter181;letter357;letter181;letter357;0;0;incongruent;0.04;letter357;0.05;0.07;fullmask;0.2;arrow_left.png;up;0.36296480000055453;0.37014340000132506;9452.385859;2.499999027349986e-06;0.5031049999997776;0.5431165999998484;0.5531390999985888;0.6231729999999516;0.7532592999996268;0.8833548000002338;0.01
4;1;7;48;letter181;letter357;letter181;letter357;0;0;congruent;0.04;letter181;0.05;0.07;fullmask;0.2;arrow_left.png;up;0.20973980000053416;0.21035810000103083;9454.2739186;2.4000000848900527e-06;0.49868620000052033;0.5387069000007614;0.548688900000343;0.6187241999996331;0.7487975000003644;0.8789188000009744;0.01
4;1;7;49;letter181;letter357;letter181;letter357;0;0;incongruent;0.04;letter357;0.05;0.07;fullmask;0.2;arrow_left.png;down;0.18106140000054438;0.19053730000086944;9455.9458739;2.4000000848900527e-06;0.5043416999997135;0.5443673999998282;0.5543839000001753;0.6244148000005225;0.7545095000004949;0.8845939000002545;0.01
4;1;7;50;letter181;letter357;letter181;letter357;0;0;incongruent;0.04;letter357;0.05;0.07;fullmask;0.2;arrow_left.png;down;0.17321240000092075;0.17953339999985474;9457.6098567;2.4000000848900527e-06;0.5040166999988287;0.5440316999993229;0.5540397999993729;0.6240701999995508;0.7541622999997344;0.8842721999990317;0.01
4;1;7;51;letter181;letter357;letter181;letter357;0;0;congruent;0.04;letter181;0.05;0.07;fullmask;0.2;arrow_left.png;up;0.1308654000004026;0.1405345999992278;9459.2178815;2.5000008463393897e-06;0.49704059999930905;0.5370781000001443;0.5470547999993869;0.6170932000004541;0.7471827999997913;0.8772807000004832;0.01
4;1;7;52;letter181;letter357;letter181;letter357;0;0;congruent;0.04;letter357;0.05;0.07;fullmask;0.2;arrow_right.png;up;0.2931611999993038;0.30019259999971837;9461.001864;2.499999027349986e-06;0.49410859999989043;0.5341267999992851;0.5441296999997576;0.6141654000002745;0.7442477999993571;0.8743486999992456;0.01
4;1;8;1;letter181;letter357;letter181;letter357;0;0;congruent;0.04;letter181;0.05;0.07;fullmask;0.2;arrow_left.png;up;0.40016749999995227;0.4098699000005581;9468.9938527;3.099999958067201e-06;0.49588560000120196;0.5358947000004264;0.5459030000001803;0.6159465000000637;0.7460098000010476;0.8761352000001352;0.01
4;1;8;2;letter181;letter357;letter181;letter357;0;0;congruent;0.04;letter181;0.05;0.07;fullmask;0.2;arrow_left.png;up;0.16552930000034394;0.17043250000097032;9470.649833;2.4000000848900527e-06;0.5031383000005007;0.5431525000003603;0.553159200000664;0.6231996999995317;0.7532854000000953;0.8833825000001525;0.01
4;1;8;3;letter181;letter357;letter181;letter357;0;0;incongruent;0.04;letter181;0.05;0.07;fullmask;0.2;arrow_right.png;up;0.24197429999912856;0.2504116999989492;9472.3778537;2.6000016077887267e-06;0.502513600000384;0.5425351000012597;0.5525436000007176;0.6225788000010652;0.7526692000010371;0.8827620000010938;0.01
4;1;8;4;letter181;letter357;letter181;letter357;0;0;incongruent;0.04;letter181;0.05;0.07;fullmask;0.2;arrow_right.png;up;0.08748530000048049;0.09073040000112087;9473.9540366;2.499999027349986e-06;0.49523520000002463;0.5352423999993334;0.5452632999986236;0.615288099999816;0.7453769999992801;0.875468299998829;0.01
4;1;8;5;letter181;letter357;letter181;letter357;0;0;congruent;0.04;letter357;0.05;0.07;fullmask;0.2;arrow_right.png;down;0.11591849999967963;0.1196085999999923;9475.5538705;2.4000000848900527e-06;0.4963989000007132;0.5364100000006147;0.5464133999994374;0.6164466999998695;0.7465317000005598;0.8766352999991796;0.01
4;1;8;6;letter181;letter357;letter181;letter357;0;0;congruent;0.04;letter357;0.05;0.07;fullmask;0.2;arrow_right.png;up;0.12937509999937902;0.13066780000008293;9477.1779053;2.5000008463393897e-06;0.5018390000004729;0.5418554999996559;0.5518620999991981;0.6218902000000526;0.7519914000004064;0.8820806999992783;0.01
4;1;8;7;letter181;letter357;letter181;letter357;0;0;incongruent;0.04;letter357;0.05;0.07;fullmask;0.2;arrow_left.png;down;0.10169709999900078;0.10986769999908574;9478.9619271;2.5000008463393897e-06;0.5005080000009912;0.5405277000008937;0.5505344000011974;0.620559000000867;0.7506529000002047;0.8807398000008106;0.01
4;1;8;8;letter181;letter357;letter181;letter357;0;0;congruent;0.04;letter357;0.05;0.07;fullmask;0.2;arrow_right.png;down;0.19735000000036962;0.20052290000057837;9480.6578603;2.4000000848900527e-06;0.5008784000001469;0.5409047000011924;0.5509053000005224;0.6209413000015047;0.751023200000418;0.8811286000000109;0.01
4;1;8;9;letter181;letter357;letter181;letter357;0;0;incongruent;0.04;letter181;0.05;0.07;fullmask;0.2;arrow_right.png;up;0.11020519999874523;0.11073109999961162;9482.2420379;2.2999993234407157e-06;0.49603790000037407;0.5360588999992615;0.5460574999997334;0.6161049000002095;0.7462113000001409;0.8762896999996883;0.01
4;1;8;10;letter181;letter357;letter181;letter357;0;0;incongruent;0.04;letter357;0.05;0.07;fullmask;0.2;arrow_left.png;up;0.07888269999966724;0.07994809999945574;9483.8018722;2.599999788799323e-06;0.5021622000003845;0.5422003999992739;0.5521920999999566;0.6222101999992447;0.7523058999995555;0.8824093000002904;0.01
4;1;8;11;letter181;letter357;letter181;letter357;0;0;congruent;0.04;letter357;0.05;0.07;fullmask;0.2;arrow_right.png;down;0.03780379999989236;0.04006690000096569;9485.5218515;2.499999027349986e-06;0.4979072999994969;0.5379166000002442;0.5479245000005903;0.6179535999999644;0.7480469999991328;0.8781350999997812;0.01
4;1;8;12;letter181;letter357;letter181;letter357;0;1;congruent;0.12;letter181;0.14;0.07;fullmask;0.2;arrow_left.png;up;0.06082859999878565;0.06982590000006894;9487.1458541;2.4000000848900527e-06;0.4975669999985257;0.6176368999986153;0.6376498999998148;0.7076597999985097;0.8377692999983992;0.9678721999989648;0.01
4;1;8;13;letter181;letter357;letter181;letter357;0;0;congruent;0.04;letter181;0.05;0.07;fullmask;0.2;arrow_left.png;up;0.08589779999965685;0.08992600000055972;9488.7218607;2.2999993234407157e-06;0.5040026999995462;0.5440111000007164;0.5540335000005143;0.6240593999991688;0.7541507999994792;0.8842330000006768;0.01
4;1;8;14;letter181;letter357;letter181;letter357;0;0;congruent;0.04;letter357;0.05;0.07;fullmask;0.2;arrow_right.png;down;0.06085890000031213;0.06984089999969001;9490.2579265;2.5000008463393897e-06;0.4949832000002061;0.5349986000001081;0.5450055000001157;0.6150482000011834;0.7451390000005631;0.8752282000004925;0.01
4;1;8;15;letter181;letter357;letter181;letter357;0;1;incongruent;0.12;letter181;0.14;0.07;fullmask;0.2;arrow_right.png;up;1.7876929999983986;1.7910847999992257;9493.6258489;2.599999788799323e-06;0.5024003999988054;0.6224635999988095;0.6424817999995867;0.7125231999998505;0.8426008999995247;0.9727071999986947;0.01
4;1;8;16;letter181;letter357;letter181;letter357;0;0;incongruent;0.04;letter357;0.05;0.07;fullmask;0.2;arrow_left.png;up;0.08331439999892609;0.08977559999948426;9495.193929;2.5000008463393897e-06;0.49637930000062624;0.5364012000009097;0.5464029000013397;0.6164443000016036;0.7465271000000939;0.8766380000015488;0.01
4;1;8;17;letter181;letter357;letter181;letter357;0;0;incongruent;0.04;letter357;0.05;0.07;fullmask;0.2;arrow_left.png;down;0.08804079999936221;0.08981820000008156;9496.9698508;2.2999993234407157e-06;0.5036512000006041;0.5436730000001262;0.5536596000001737;0.6237165000002278;0.7537923999989289;0.8838863000000856;0.01
4;1;8;18;letter181;letter357;letter181;letter357;0;0;incongruent;0.04;letter357;0.05;0.07;fullmask;0.2;arrow_left.png;down;0.06913130000066303;0.06996699999945122;9498.5220683;2.499999027349986e-06;0.5051242999998067;0.5451371999988623;0.5551503999995475;0.6251790999995137;0.7552901999988535;0.8853779999990365;0.01
4;1;8;19;letter181;letter357;letter181;letter357;0;0;congruent;0.04;letter181;0.05;0.07;fullmask;0.2;arrow_left.png;up;0.08665999999902851;0.08992229999967094;9500.0899067;2.4000000848900527e-06;0.4943621999991592;0.53438129999995;0.5443852999997034;0.6144136000002618;0.7444993999997678;0.8745970999989368;0.01
4;1;8;20;letter181;letter357;letter181;letter357;0;0;incongruent;0.04;letter181;0.05;0.07;fullmask;0.2;arrow_right.png;up;0.10949189999882947;0.10967329999948561;9501.673888;2.599999788799323e-06;0.49603969999952824;0.5361165999984223;0.5460709999988467;0.6161033999997017;0.7462021999999706;0.8763060999990557;0.01
4;1;8;21;letter181;letter357;letter181;letter357;0;0;incongruent;0.04;letter181;0.05;0.07;fullmask;0.2;arrow_right.png;up;1.7102157000008447;1.7113468000006833;9504.8658854;2.5000008463393897e-06;0.5039071999999578;0.5439227999995637;0.5539274000002479;0.6239674999997078;0.7540425000006508;0.8841456999998627;0.01
4;1;8;22;letter181;letter357;letter181;letter357;0;0;incongruent;0.04;letter357;0.05;0.07;fullmask;0.2;arrow_left.png;up;0.15813470000102825;0.15963060000103724;9506.505852;2.4000000848900527e-06;0.5001052999996318;0.5401251000002958;0.5501331000014034;0.6201672000006511;0.750253199999861;0.8803782000013598;0.01
4;1;8;23;letter181;letter357;letter181;letter357;0;0;incongruent;0.04;letter181;0.05;0.07;fullmask;0.2;arrow_right.png;up;0.0736335000001418;0.07994220000000496;9508.2823188;2.4000000848900527e-06;0.5049451000013505;0.5449642000003223;0.5549789000015153;0.6250094000006357;0.7550979000006919;0.8851907000007486;0.01
4;1;8;24;letter181;letter357;letter181;letter357;0;0;incongruent;0.04;letter357;0.05;0.07;fullmask;0.2;arrow_left.png;down;0.10229240000080608;0.11071270000138611;9509.8818505;2.599999788799323e-06;0.5039147999996203;0.5439239999996062;0.553943299999446;0.6239690000002156;0.754067899999427;0.8841597999999067;0.01
4;1;8;25;letter181;letter357;letter181;letter357;0;0;congruent;0.04;letter181;0.05;0.07;fullmask;0.2;arrow_left.png;up;0.13479589999951713;0.1396679999998014;9511.5058391;2.200000380980782e-06;0.4974703000007139;0.5375031000003219;0.5474852000006649;0.6175225000006321;0.7476074999995035;0.8777360999993107;0.01
4;1;8;26;letter181;letter357;letter181;letter357;0;0;congruent;0.04;letter357;0.05;0.07;fullmask;0.2;arrow_right.png;up;0.1704637000002549;0.18067399999927147;9513.1620337;2.4000000848900527e-06;0.49698309999985213;0.5369971999989502;0.5469888999996328;0.6170359999996435;0.7471182999997836;0.8772262999991653;0.01
4;1;8;27;letter181;letter357;letter181;letter357;0;0;congruent;0.04;letter181;0.05;0.07;fullmask;0.2;arrow_left.png;up;1.3951313999987178;1.4012879000001703;9516.2578308;2.4000000848900527e-06;0.5039747999999236;0.5439846999997826;0.5539886000005936;0.6240302000005613;0.7541092000010394;0.8842127999996592;0.01
4;1;8;28;letter181;letter357;letter181;letter357;0;0;incongruent;0.04;letter357;0.05;0.07;fullmask;0.2;arrow_left.png;down;0.1853945000002568;0.1905525000001944;9517.9298272;2.6000016077887267e-06;0.5015920000005281;0.5416154000013194;0.5516014000004361;0.6216343000014604;0.7517130000014731;0.881820600001447;0.01
4;1;8;29;letter181;letter357;letter181;letter357;0;0;congruent;0.04;letter357;0.05;0.07;fullmask;0.2;arrow_right.png;up;0.18618059999971592;0.19054739999955927;9519.6018305;2.4000000848900527e-06;0.4968485999997938;0.5368589000008797;0.546870599999238;0.6169086000008974;0.7469913999993878;0.8771231999999145;0.01
4;1;8;30;letter181;letter357;letter181;letter357;0;0;incongruent;0.04;letter181;0.05;0.07;fullmask;0.2;arrow_right.png;up;0.028490200000305776;0.029980400000567897;9521.3059411;2.2999993234407157e-06;0.4976502999998047;0.5376605000001291;0.5476693999989948;0.6177086999996391;0.7477832999993552;0.8778844999997091;0.01
4;1;8;31;letter181;letter357;letter181;letter357;0;0;incongruent;0.04;letter357;0.05;0.07;fullmask;0.2;arrow_left.png;up;0.08933880000040517;0.08990389999962645;9522.8979552;2.2999993234407157e-06;0.500826400000733;0.5408217999993212;0.5508286000003864;0.6208578000005218;0.7509511000007478;0.8810333000001265;0.01
4;1;8;32;letter181;letter357;letter181;letter357;0;1;congruent;0.12;letter357;0.14;0.07;fullmask;0.2;arrow_right.png;down;0.022955000000365544;0.0309426000003441;9524.681864;2.5000008463393897e-06;0.5050902000002679;0.6251444999998057;0.6451710000001185;0.7151983000003383;0.8452775000005204;0.9753827000004094;0.01
4;1;8;33;letter181;letter357;letter181;letter357;0;0;incongruent;0.04;letter181;0.05;0.07;fullmask;0.2;arrow_right.png;up;0.07951019999927667;0.08961920000001555;9526.2498884;2.4000000848900527e-06;0.4977303000014217;0.5377424000016617;0.5477464000014152;0.6177849000014248;0.7478776000007201;0.8779642000008607;0.01
4;1;8;34;letter181;letter357;letter181;letter357;0;0;congruent;0.04;letter181;0.05;0.07;fullmask;0.2;arrow_left.png;up;0.124317499999961;0.12971160000051896;9527.8658301;2.4000000848900527e-06;0.5002750999992713;0.5403034999999363;0.5503131000004942;0.6203258000005007;0.7504415999992489;0.8805156999987958;0.01
4;1;8;35;letter181;letter357;letter181;letter357;0;0;congruent;0.04;letter181;0.05;0.07;fullmask;0.2;arrow_left.png;up;0.17968480000126874;0.18053230000077747;9529.5219689;2.499999027349986e-06;0.5030709999991814;0.5431016999991698;0.5530905999985407;0.6231386999988899;0.7532164999993256;0.8833162999999331;0.01
4;1;8;36;letter181;letter357;letter181;letter357;0;0;incongruent;0.04;letter357;0.05;0.07;fullmask;0.2;arrow_left.png;up;0.1200633000007656;0.12931030000072496;9531.113835;2.4000000848900527e-06;0.4957561999999598;0.5357796000007511;0.5458001999995759;0.6158173000003444;0.7459324999999808;0.8760086999991472;0.01
4;1;8;37;letter181;letter357;letter181;letter357;0;0;incongruent;0.04;letter181;0.05;0.07;fullmask;0.2;arrow_right.png;up;0.14298649999909685;0.14952110000012908;9532.9378384;2.4000000848900527e-06;0.5030217999992601;0.5430476000001363;0.5530522999997629;0.6230902999996033;0.7531785999999556;0.8832564999993338;0.01
4;1;8;38;letter181;letter357;letter181;letter357;0;0;congruent;0.04;letter357;0.05;0.07;fullmask;0.2;arrow_right.png;down;0.048037399999884656;0.04991110000082699;9534.4738425;2.4000000848900527e-06;0.5045685999994021;0.5445918000004895;0.5545982999992702;0.6246315000007598;0.7547078999996302;0.8848115999990114;0.01
4;1;8;39;letter181;letter357;letter181;letter357;0;0;congruent;0.04;letter181;0.05;0.07;fullmask;0.2;arrow_left.png;up;0.06106769999860262;0.06997159999991709;9536.0180343;2.4000000848900527e-06;0.49751170000126876;0.5375244000006205;0.5475325000006706;0.6175488999997469;0.7476552999996784;0.8777522000000317;0.01
4;1;8;40;letter181;letter357;letter181;letter357;0;1;incongruent;0.12;letter357;0.14;0.07;fullmask;0.2;arrow_left.png;down;1.6761576999997487;1.6813910999990185;9539.2738276;2.3000011424301192e-06;0.502936500000942;0.6230132000000594;0.6430211000006238;0.713063900000634;0.8431387000000541;0.973241900001085;0.01
4;1;8;41;letter181;letter357;letter181;letter357;0;0;congruent;0.04;letter357;0.05;0.07;fullmask;0.2;arrow_right.png;up;0.16211120000116352;0.17055900000013935;9540.9218357;2.4000000848900527e-06;0.5053821000001335;0.5454103000010946;0.5554133000005095;0.6254472000000533;0.7555293000004895;0.8856222000013076;0.01
4;1;8;42;letter181;letter357;letter181;letter357;0;0;congruent;0.04;letter357;0.05;0.07;fullmask;0.2;arrow_right.png;up;0.016974599999230122;0.019974499999079853;9542.6178097;2.499999027349986e-06;0.5034797999996954;0.5435013000005711;0.5534986999991816;0.6235111000005418;0.7536163000004308;0.8837260000000242;0.01
4;1;8;43;letter181;letter357;letter181;letter357;0;0;incongruent;0.04;letter181;0.05;0.07;fullmask;0.2;arrow_right.png;down;0.05967369999962102;0.059757399998488836;9544.3618702;2.4000000848900527e-06;0.498953000000256;0.5389708000002429;0.548974299999827;0.6190071000000898;0.7490944000001036;0.879194400000415;0.01
4;1;8;44;letter181;letter357;letter181;letter357;0;0;incongruent;0.04;letter357;0.05;0.07;fullmask;0.2;arrow_left.png;down;0.07295850000082282;0.0807065999997576;9546.1058859;2.4000000848900527e-06;0.49524399999972957;0.5352779000004375;0.545265599999766;0.6153025999992678;0.745387999999366;0.8754941000006511;0.01
4;1;8;45;letter181;letter357;letter181;letter357;0;0;incongruent;0.04;letter181;0.05;0.07;fullmask;0.2;arrow_right.png;up;0.13787679999950342;0.14053880000028585;9547.7218954;2.4000000848900527e-06;0.5036983999998483;0.5437185999999201;0.5537290000011126;0.6237799000009545;0.7538531000009243;0.8839443000015308;0.01
4;1;8;46;letter181;letter357;letter181;letter357;0;0;congruent;0.04;letter357;0.05;0.07;fullmask;0.2;arrow_right.png;up;0.028328399999736575;0.0299364999991667;9549.2338124;2.3000011424301192e-06;0.49661960000048566;0.5366389999999228;0.5466384000010294;0.6166890000004059;0.7467668000008416;0.8768669000000955;0.01
4;1;8;47;letter181;letter357;letter181;letter357;0;0;congruent;0.04;letter181;0.05;0.07;fullmask;0.2;arrow_left.png;up;0.11016320000089763;0.11086210000030405;9551.0259279;2.5000008463393897e-06;0.5032583000011073;0.5432811000009679;0.5532983000011882;0.623323400001027;0.7534174000011262;0.883519900000465;0.01
4;1;8;48;letter181;letter357;letter181;letter357;0;0;congruent;0.04;letter357;0.05;0.07;fullmask;0.2;arrow_right.png;down;0.9344175000005635;0.9403789999996661;9553.4418098;2.5000008463393897e-06;0.5036398000011104;0.5436585999996169;0.5536545000013575;0.6237054000011995;0.7537843999998586;0.8838887000001705;0.01
4;1;8;49;letter181;letter357;letter181;letter357;0;0;congruent;0.04;letter181;0.05;0.07;fullmask;0.2;arrow_left.png;up;0.06470340000123542;0.06997229999979027;9554.9938211;2.2999993234407157e-06;0.4945568999992247;0.5345741000000999;0.544570099998964;0.6146109999990585;0.7446815000002971;0.8747937999996793;0.01
4;1;8;50;letter181;letter357;letter181;letter357;0;0;incongruent;0.04;letter181;0.05;0.07;fullmask;0.2;arrow_right.png;up;0.2137818999999581;0.22033569999985048;9556.6738121;2.4000000848900527e-06;0.49649239999962447;0.5365081999989343;0.5465211999999156;0.6165380999991612;0.7466351999992185;0.8767354999999952;0.01
4;1;8;51;letter181;letter357;letter181;letter357;0;0;incongruent;0.04;letter357;0.05;0.07;fullmask;0.2;arrow_left.png;up;0.30448340000111784;0.3102279000013368;9558.4658118;2.499999027349986e-06;0.503465600000709;0.5434757999992144;0.5534841999997298;0.6235053000000335;0.7535986000002595;0.8837002000000211;0.01
4;1;8;52;letter181;letter357;letter181;letter357;0;0;congruent;0.04;letter181;0.05;0.07;fullmask;0.2;arrow_left.png;up;0.2012260999999853;0.20950620000076015;9560.3538113;2.2999993234407157e-06;0.4977644999999029;0.5377826000003552;0.5477817999999388;0.6178230000004987;0.7479024000003847;0.8780005000007804;0.01
4;2;14;1;letter169;letter190;letter169;letter190;1;0;congruent;0.12;letter190;0.18;0.07;fullmask;0.2;arrow_right.png;down;0.7900941999996576;0.799841899999592;10381.3694303;2.599999788799323e-06;0.49603819999902043;0.6161154000001261;0.6761502999997901;0.7461841999993339;0.8762768999986292;1.006395499998689;0.01
4;2;14;2;letter169;letter190;letter169;letter190;1;0;congruent;0.12;letter190;0.18;0.07;fullmask;0.2;arrow_right.png;down;0.002567800000178977;0.010136299999430776;10382.9934372;2.4000000848900527e-06;0.49665619999905175;0.6167210999992676;0.6767746999994415;0.7468279999993683;0.8769114000006084;1.0070201999988058;0.01
4;2;14;3;letter169;letter190;letter169;letter190;1;0;congruent;0.12;letter169;0.18;0.07;fullmask;0.2;arrow_left.png;up;0.02152349999960279;0.02998010000010254;10384.6334512;2.2999993234407157e-06;0.4977208000000246;0.6177929999994376;0.6778383000000758;0.7478601999991952;0.8779574999989563;1.008045200000197;0.01
4;2;14;4;letter169;letter190;letter169;letter190;1;0;incongruent;0.12;letter169;0.18;0.07;fullmask;0.2;arrow_right.png;up;0.1407113000004756;0.14965960000154155;10386.3934579;2.5000008463393897e-06;0.5019173000000592;0.6220063000000664;0.6820545000009588;0.7520860000004177;0.8821691000011924;1.0122662000012497;0.01
4;2;14;5;letter169;letter190;letter169;letter190;1;0;incongruent;0.12;letter190;0.18;0.07;fullmask;0.2;arrow_left.png;down;0.06737919999977748;0.0698512999988452;10388.0814477;2.499999027349986e-06;0.49664909999955853;0.6167029999996885;0.6767514000002848;0.7467852999998286;0.8768739999995887;1.0069910000001983;0.01
4;2;14;6;letter169;letter190;letter169;letter190;1;0;congruent;0.12;letter190;0.18;0.07;fullmask;0.2;arrow_right.png;down;0.17021700000077544;0.17953330000091228;10389.8654399;2.3000011424301192e-06;0.49815400000079535;0.6182184000008419;0.6782614000003377;0.7482875000005151;0.8783792000012909;1.0084784000009677;0.01
4;2;14;7;letter169;letter190;letter169;letter190;1;0;incongruent;0.12;letter169;0.18;0.07;fullmask;0.2;arrow_right.png;up;0.16964679999910004;0.17060069999934058;10391.6655044;2.3000011424301192e-06;0.505656799999997;0.6257378000009339;0.685775800000556;0.7558260000005248;0.885887599999478;1.015994999999748;0.01
4;2;14;8;letter169;letter190;letter169;letter190;1;0;incongruent;0.12;letter190;0.18;0.07;fullmask;0.2;arrow_left.png;down;0.2024332000000868;0.21049719999973604;10393.4894143;2.2999993234407157e-06;0.5049822000000859;0.6250447000002168;0.6850839999988239;0.7550940000000992;0.8851954999990994;1.0153028999993694;0.01
4;2;14;9;letter169;letter190;letter169;letter190;1;0;incongruent;0.12;letter190;0.18;0.07;fullmask;0.2;arrow_left.png;down;0.10957190000044648;0.11086819999945874;10395.2175045;2.4000000848900527e-06;0.5037969000004523;0.6238659999999072;0.6839027999994869;0.7539488000002166;0.8840233999999327;1.0141146999994817;0.01
4;2;14;10;letter169;letter190;letter169;letter190;1;0;congruent;0.12;letter169;0.18;0.07;fullmask;0.2;arrow_left.png;up;0.07842349999918952;0.08081289999972796;10396.8974303;2.5000008463393897e-06;0.49718920000123035;0.6172615000014048;0.6772980000005191;0.7473471000012069;0.8774193000008381;1.007516300000134;0.01
4;2;14;11;letter169;letter190;letter169;letter190;1;0;incongruent;0.12;letter169;0.18;0.07;fullmask;0.2;arrow_right.png;up;0.1708253999986482;0.1795799999999872;10398.6814623;2.4000000848900527e-06;0.4965136999999231;0.6165930999995908;0.6766348999990441;0.746675000000323;0.8767437000005884;1.0068558999992092;0.01
4;2;14;12;letter169;letter190;letter169;letter190;1;0;congruent;0.12;letter169;0.18;0.07;fullmask;0.2;arrow_left.png;up;0.06568439999864495;0.06997869999941031;10400.3774296;2.3000011424301192e-06;0.5028646999999182;0.6229087000010622;0.6829563999999664;0.7529764000009891;0.8830711999999039;1.0131587000014406;0.01
4;2;15;1;letter169;letter190;letter169;letter190;0;0;congruent;0.04;letter190;0.09;0.07;fullmask;0.2;arrow_right.png;down;0.3741957000002003;0.38112809999984165;10406.8895966;2.4000000848900527e-06;0.5046901999994589;0.5447120999997423;0.5947419999993144;0.6647724999984348;0.7948572999994212;0.9249423000001116;0.01
4;2;15;2;letter169;letter190;letter169;letter190;0;0;incongruent;0.04;letter190;0.09;0.07;fullmask;0.2;arrow_left.png;down;0.07044490000043879;0.07994890000009036;10408.4974521;2.4000000848900527e-06;0.49854659999982687;0.538562699999602;0.5886011000002327;0.6586248000003252;0.7887093999997887;0.9188131999999314;0.01
4;2;15;3;letter169;letter190;letter169;letter190;0;0;incongruent;0.04;letter169;0.09;0.07;fullmask;0.2;arrow_right.png;up;0.16754600000058417;0.17046750000008615;10410.1855157;2.4000000848900527e-06;0.49593319999985397;0.5359644999989541;0.5860015999987809;0.6560203999997611;0.7861135999992257;0.9162232999988191;0.01
4;2;15;4;letter169;letter190;letter169;letter190;0;0;incongruent;0.04;letter169;0.09;0.07;fullmask;0.2;arrow_right.png;up;0.06595279999964987;0.06982570000036503;10411.7854273;2.3000011424301192e-06;0.49764000000141095;0.5376598000002559;0.5877100000016071;0.6577287000000069;0.7878338000009535;0.9179128000014316;0.01
4;2;15;5;letter169;letter190;letter169;letter190;0;0;incongruent;0.04;letter169;0.09;0.07;fullmask;0.2;arrow_right.png;up;0.15535559999989346;0.15962149999904796;10413.4654013;2.4000000848900527e-06;0.4963717999999062;0.5364039999985835;0.5864232999992964;0.656456499998967;0.7865432999988116;0.9166446999988693;0.01
4;2;15;6;letter169;letter190;letter169;letter190;0;0;congruent;0.04;letter169;0.09;0.07;fullmask;0.2;arrow_left.png;up;0.16290660000049684;0.17069330000049376;10415.1538142;2.599999788799323e-06;0.5023392000002787;0.5423627000000124;0.592383900000641;0.6624238999993395;0.7925125999990996;0.9226237000002584;0.01
4;2;15;7;letter169;letter190;letter169;letter190;0;0;congruent;0.04;letter169;0.09;0.07;fullmask;0.2;arrow_left.png;up;0.18306510000002163;0.189537799999016;10416.8656446;2.4000000848900527e-06;0.5028023999984725;0.5428441999993083;0.592895599998883;0.6629184999983408;0.7930225999989489;0.9231040999984543;0.01
4;2;15;8;letter169;letter190;letter169;letter190;0;0;congruent;0.04;letter169;0.09;0.07;fullmask;0.2;arrow_left.png;up;0.09436569999888889;0.1007458999993105;10418.497419;2.4000000848900527e-06;0.5046039999997447;0.5446314999990136;0.594651999999769;0.6646884000001592;0.7947767999994539;0.924880900000062;0.01
4;2;15;9;letter169;letter190;letter169;letter190;0;0;incongruent;0.04;letter190;0.09;0.07;fullmask;0.2;arrow_left.png;down;0.09934729999986303;0.10066039999946952;10420.1135209;2.4000000848900527e-06;0.4967553999995289;0.5367839999998978;0.5868324000002758;0.6568635999992694;0.7869365999995352;0.9170259999991686;0.01
4;2;15;10;letter169;letter190;letter169;letter190;0;0;congruent;0.04;letter190;0.09;0.07;fullmask;0.2;arrow_right.png;down;0.06188810000094236;0.06982460000108404;10421.697511;2.499999027349986e-06;0.49932259999877715;0.5393391999987216;0.5893650999987585;0.6594144999999116;0.7895109999990382;0.919608000000153;0.01
4;2;15;11;letter169;letter190;letter169;letter190;0;1;congruent;0.12;letter190;0.18;0.07;fullmask;0.2;arrow_right.png;down;0.013409900000624475;0.021063300000605523;10423.329409;2.2999993234407157e-06;0.49625860000014654;0.6163194000000658;0.6763716000004933;0.7463945999988937;0.876477599998907;1.0065832999989652;0.01
4;2;15;12;letter169;letter190;letter169;letter190;0;0;incongruent;0.04;letter190;0.09;0.07;fullmask;0.2;arrow_left.png;down;0.1934891000000789;0.19938700000056997;10425.0413973;2.4000000848900527e-06;0.4990548999994644;0.5390764000003401;0.5891054000003351;0.6591463000004296;0.7892119999996794;0.9193319000005431;0.01
4;2;15;13;letter169;letter190;letter169;letter190;0;0;congruent;0.04;letter190;0.09;0.07;fullmask;0.2;arrow_right.png;down;0.09659600000122737;0.09989560000030906;10426.6654789;2.5000008463393897e-06;0.49677650000012363;0.5367930000011256;0.5868279000005714;0.6568559999996069;0.78695770000013;0.9170458000007784;0.01
4;2;15;14;letter169;letter190;letter169;letter190;0;0;incongruent;0.04;letter169;0.09;0.07;fullmask;0.2;arrow_right.png;up;0.11779820000083419;0.12056940000002214;10428.2974728;2.2999993234407157e-06;0.49588740000035614;0.5359000999997079;0.5859216999997443;0.6559564999988652;0.7860342999993009;0.9161385999996128;0.01
4;2;15;15;letter169;letter190;letter169;letter190;0;0;incongruent;0.04;letter190;0.09;0.07;fullmask;0.2;arrow_left.png;down;0.06871760000103677;0.06982609999977285;10429.889397;2.6999987312592566e-06;0.4964810999990732;0.5364999999983411;0.5865138999997725;0.6565550999985135;0.7866380999985267;0.9167411999987962;0.01
4;2;15;16;letter169;letter190;letter169;letter190;0;0;congruent;0.04;letter190;0.09;0.07;fullmask;0.2;arrow_right.png;down;0.10152889999881154;0.10977169999932812;10431.5134241;2.4000000848900527e-06;0.4960062000009202;0.5360269000011613;0.5860838000007789;0.6560886000006576;0.7861873000001651;0.9162856000002648;0.01
4;2;15;17;letter169;letter190;letter169;letter190;0;0;congruent;0.04;letter169;0.09;0.07;fullmask;0.2;arrow_left.png;up;0.20727420000002894;0.21044609999989916;10433.2495204;2.499999027349986e-06;0.4998130999993009;0.5398206999998365;0.5898641000003408;0.659896099999969;0.7899784000001091;0.9200671999988117;0.01
4;2;15;18;letter169;letter190;letter169;letter190;0;0;incongruent;0.04;letter190;0.09;0.07;fullmask;0.2;arrow_left.png;down;0.2033690000007482;0.20949889999974403;10434.9773982;2.2999993234407157e-06;0.5019520999994711;0.5419756999999663;0.592009699999835;0.662042099998871;0.7921334000002389;0.9222389999995357;0.01
4;2;15;19;letter169;letter190;letter169;letter190;0;0;incongruent;0.04;letter190;0.09;0.07;fullmask;0.2;arrow_left.png;down;0.1831025999999838;0.19051519999993616;10436.6976343;2.4000000848900527e-06;0.5027972999996564;0.5428152999993472;0.5928432000000612;0.662879299999986;0.7929669000004651;0.9230595999997604;0.01
4;2;15;20;letter169;letter190;letter169;letter190;0;0;congruent;0.04;letter169;0.09;0.07;fullmask;0.2;arrow_left.png;up;0.11376329999984591;0.120740599999408;10438.3294166;2.5000008463393897e-06;0.49949970000125177;0.5395418000007339;0.5895583000001352;0.6596098999998503;0.7896708000007493;0.9197717000006378;0.01
4;2;15;21;letter169;letter190;letter169;letter190;0;0;congruent;0.04;letter169;0.09;0.07;fullmask;0.2;arrow_left.png;up;0.1441990999992413;0.14951549999932467;10440.0013981;2.4000000848900527e-06;0.5027203999998164;0.5427361999991263;0.5927835000002233;0.6627988000000187;0.7929086000003736;0.9229973000001337;0.01
4;2;15;22;letter169;letter190;letter169;letter190;0;0;congruent;0.04;letter190;0.09;0.07;fullmask;0.2;arrow_right.png;down;0.13726300000053016;0.1396377000000939;10441.6654135;2.5000008463393897e-06;0.4990964000007807;0.5391259999996691;0.5891517000000022;0.6591869000003499;0.7892685000006168;0.9193835999994917;0.01
4;2;15;23;letter169;letter190;letter169;letter190;0;0;congruent;0.04;letter190;0.09;0.07;fullmask;0.2;arrow_right.png;down;0.16288259999964794;0.17071849999956612;10443.3619308;2.200000380980782e-06;0.505402700000559;0.5454284999996162;0.5954498999999487;0.665489200000593;0.7955689000009443;0.9256752000001143;0.01
4;2;15;24;letter169;letter190;letter169;letter190;0;0;incongruent;0.04;letter169;0.09;0.07;fullmask;0.2;arrow_right.png;up;0.10556189999988419;0.11074980000012147;10444.9854816;2.2999993234407157e-06;0.4970945999994001;0.5371164999996836;0.5871642999991309;0.6571750000002794;0.7872638999997434;0.9173668999992515;0.01
4;2;15;25;letter169;letter190;letter169;letter190;0;0;incongruent;0.04;letter169;0.09;0.07;fullmask;0.2;arrow_right.png;up;0.1706250999995973;0.18057709999993676;10446.6814782;2.4000000848900527e-06;0.49680850000004284;0.5368020999994769;0.5868479000000661;0.6568858000009641;0.786973800000851;0.9170672000000195;0.01
4;2;15;26;letter169;letter190;letter169;letter190;0;1;congruent;0.12;letter169;0.18;0.07;fullmask;0.2;arrow_left.png;up;0.09884469999997236;0.09978969999974652;10448.4013989;2.499999027349986e-06;0.5025917000002664;0.6226650999997219;0.6827229999998963;0.7527663000000757;0.8828357000002143;1.0129336999998486;0.01
4;2;15;27;letter169;letter190;letter169;letter190;0;0;congruent;0.04;letter169;0.09;0.07;fullmask;0.2;arrow_left.png;up;0.16801230000055511;0.17046590000063588;10450.0813909;2.499999027349986e-06;0.4971072999996977;0.5371178999994299;0.5871489999990445;0.6571819000000687;0.7872735999990255;0.917374499998914;0.01
4;2;15;28;letter169;letter190;letter169;letter190;0;0;congruent;0.04;letter169;0.09;0.07;fullmask;0.2;arrow_left.png;up;0.07691849999901024;0.0798133999996935;10451.6814246;2.4000000848900527e-06;0.4963206000011269;0.5363511000014114;0.5863642000003892;0.6564096000001882;0.7864975000011327;0.9166199999999662;0.01
4;2;15;29;letter169;letter190;letter169;letter190;0;1;incongruent;0.12;letter190;0.18;0.07;fullmask;0.2;arrow_left.png;down;0.1760721000009653;0.18057640000006359;10453.4814045;2.2999993234407157e-06;0.49876619999849936;0.6188634999998612;0.6788843999984238;0.7489029999997001;0.8790024999998423;1.0091034999986732;0.01
4;2;15;30;letter169;letter190;letter169;letter190;0;0;congruent;0.04;letter190;0.09;0.07;fullmask;0.2;arrow_right.png;down;0.16251999999985856;0.16960710000057588;10455.169391;2.2999993234407157e-06;0.5011988999995083;0.541230099999666;0.5912435000009282;0.6612746000009793;0.7913573999994696;0.9214778999994451;0.01
4;2;15;31;letter169;letter190;letter169;letter190;0;0;incongruent;0.04;letter169;0.09;0.07;fullmask;0.2;arrow_right.png;up;0.15177270000094722;0.16058399999928952;10456.8494886;2.499999027349986e-06;0.5042515000004641;0.5442674999994779;0.5942882999988797;0.6643444999990606;0.7944124000005104;0.9245266999987507;0.01
4;2;15;32;letter169;letter190;letter169;letter190;0;0;incongruent;0.04;letter190;0.09;0.07;fullmask;0.2;arrow_left.png;down;0.20680220000031113;0.21049800000037067;10458.5853892;2.3000011424301192e-06;0.500439200000983;0.5404703000003792;0.590487800000119;0.6605303000014828;0.7906004000014946;0.9207199000011315;0.01
4;2;15;33;letter169;letter190;letter169;letter190;0;0;incongruent;0.04;letter169;0.09;0.07;fullmask;0.2;arrow_right.png;up;0.16491420000056678;0.169496500000605;10460.2654458;2.2999993234407157e-06;0.4966899999999441;0.5366723999995884;0.5867197999996279;0.6567626999985805;0.7868371999993542;0.916959099999076;0.01
4;2;15;34;letter169;letter190;letter169;letter190;0;0;congruent;0.04;letter190;0.09;0.07;fullmask;0.2;arrow_right.png;down;0.15238110000063898;0.1605835999998817;10461.9534022;2.4000000848900527e-06;0.5027626999999484;0.5427798999990046;0.5928022000007331;0.6628512999996019;0.7929225999996561;0.9230446999990818;0.01
4;2;15;35;letter169;letter190;letter169;letter190;0;0;incongruent;0.04;letter190;0.09;0.07;fullmask;0.2;arrow_left.png;down;0.15668419999929029;0.15964159999930416;10463.6493859;2.5000008463393897e-06;0.500398000000132;0.5404190000008384;0.5904647000006662;0.6604853000008006;0.7905828000002657;0.9206672000000253;0.01
4;2;15;36;letter169;letter190;letter169;letter190;0;0;incongruent;0.04;letter190;0.09;0.07;fullmask;0.2;arrow_left.png;down;0.14042130000052566;0.14076329999988957;10465.3134246;2.4000000848900527e-06;0.503428600000916;0.5434557000007771;0.5935021000004781;0.6635388000013336;0.7936057000006258;0.9237188000006427;0.01
4;2;15;37;letter169;letter190;letter169;letter190;0;0;congruent;0.04;letter169;0.09;0.07;fullmask;0.2;arrow_left.png;up;0.15679590000036114;0.15949750000072527;10467.0013941;2.2999993234407157e-06;0.5037382999998954;0.5437638000003062;0.5937933000004705;0.6638342999995075;0.793912499999351;0.9240251000010176;0.01
4;2;15;38;letter169;letter190;letter169;letter190;0;0;congruent;0.04;letter190;0.09;0.07;fullmask;0.2;arrow_right.png;down;0.16375180000068212;0.1695595000001049;10468.6893846;2.3000011424301192e-06;0.49674860000050103;0.5367722999999387;0.5868076000006113;0.6568336000000272;0.7869093000008434;0.9170276000004378;0.01
4;2;15;39;letter169;letter190;letter169;letter190;0;0;incongruent;0.04;letter169;0.09;0.07;fullmask;0.2;arrow_right.png;up;0.19255530000009458;0.19938659999934316;10470.4095297;2.4000000848900527e-06;0.5030194999999367;0.5430254000002606;0.5930656000000454;0.663091100001111;0.7931891999996878;0.9232766999994055;0.01
4;2;15;40;letter169;letter190;letter169;letter190;0;0;incongruent;0.04;letter169;0.09;0.07;fullmask;0.2;arrow_right.png;up;0.1811223999993672;0.1895542000002024;10472.1293947;2.4000000848900527e-06;0.5051419000010355;0.5451700000012352;0.5951975000007224;0.6652375000012398;0.7953130000005331;0.9255004000006011;0.01
4;2;15;41;letter169;letter190;letter169;letter190;0;0;congruent;0.04;letter169;0.09;0.07;fullmask;0.2;arrow_left.png;up;0.18243649999931222;0.18955339999956777;10473.8413917;2.4000000848900527e-06;0.50111619999916;0.5411405999984709;0.5911738999984664;0.6612019999993208;0.7913154999987455;0.9213979999985895;0.01
4;2;15;42;letter169;letter190;letter169;letter190;0;0;incongruent;0.04;letter190;0.09;0.07;fullmask;0.2;arrow_left.png;down;0.14566830000148911;0.1506232000010641;10475.5054658;2.4000000848900527e-06;0.49712300000101095;0.5371641000001546;0.5871812000004866;0.6572198000012577;0.7872935000013968;0.9173843000007764;0.01
4;2;15;43;letter169;letter190;letter169;letter190;0;0;congruent;0.04;letter190;0.09;0.07;fullmask;0.2;arrow_right.png;down;0.24216669999987062;0.24949389999892446;10477.2735816;2.4000000848900527e-06;0.5032339000008506;0.5432540000001609;0.5932829000012134;0.6633206000005885;0.793400800001109;0.9235083000003215;0.01
4;2;15;44;letter169;letter190;letter169;letter190;0;1;incongruent;0.12;letter169;0.18;0.07;fullmask;0.2;arrow_right.png;up;0.13275729999986652;0.1396896000005654;10479.0253799;2.4000000848900527e-06;0.49821520000114106;0.6182769000006374;0.6783166000004712;0.748368800001117;0.8784375000013824;1.0085347000003821;0.01
4;2;15;45;letter169;letter190;letter169;letter190;0;0;incongruent;0.04;letter190;0.09;0.07;fullmask;0.2;arrow_left.png;down;0.19211830000131158;0.2005235000015091;10480.7454493;2.599999788799323e-06;0.49896259999877657;0.5389617000000726;0.5889948999993067;0.6590312999996968;0.7891225999992457;0.9192150999988371;0.01
4;2;15;46;letter169;letter190;letter169;letter190;0;0;incongruent;0.04;letter169;0.09;0.07;fullmask;0.2;arrow_right.png;up;0.17689380000047095;0.1804388000000472;10482.4413692;2.5000008463393897e-06;0.49808669999947597;0.5381082999992941;0.5881365000004735;0.6581769000003987;0.788258799999312;0.9183410000005097;0.01
4;2;15;47;letter169;letter190;letter169;letter190;0;0;incongruent;0.04;letter190;0.09;0.07;fullmask;0.2;arrow_left.png;down;0.15429170000061276;0.160732199999984;10484.1295995;2.5000008463393897e-06;0.5028442000002542;0.5428799000001163;0.5928937000007863;0.6629392000013468;0.7930280000000494;0.9231227000000217;0.01
4;2;15;48;letter169;letter190;letter169;letter190;0;0;congruent;0.04;letter169;0.09;0.07;fullmask;0.2;arrow_left.png;up;0.16701820000162115;0.1705935000009049;10485.8334384;2.599999788799323e-06;0.5039046999991115;0.5439191999994364;0.593940400000065;0.6640057999993587;0.7940567999994528;0.9241829999991751;0.01
4;2;15;49;letter169;letter190;letter169;letter190;0;0;congruent;0.04;letter190;0.09;0.07;fullmask;0.2;arrow_right.png;down;0.09378999999898952;0.09979240000029677;10487.4413775;2.4000000848900527e-06;0.49921790000007604;0.539248500001122;0.5892801000009058;0.6593032000000676;0.7893862000000809;0.9195104999998875;0.01
4;2;15;50;letter169;letter190;letter169;letter190;0;0;incongruent;0.04;letter169;0.09;0.07;fullmask;0.2;arrow_right.png;up;0.15231110000058834;0.15972189999956754;10489.1213888;2.4000000848900527e-06;0.4970556000007491;0.5370730000013282;0.5871118000013666;0.6571409000007407;0.7872359000011784;0.9173299000012776;0.01
4;2;15;51;letter169;letter190;letter169;letter190;0;0;congruent;0.04;letter190;0.09;0.07;fullmask;0.2;arrow_right.png;down;0.11946809999972174;0.11965710000004037;10490.7694179;2.499999027349986e-06;0.49649159999898984;0.536520699999528;0.586554999999862;0.6565962999993644;0.786679599999843;0.9167723999998998;0.01
4;2;15;52;letter169;letter190;letter169;letter190;0;0;congruent;0.04;letter169;0.09;0.07;fullmask;0.2;arrow_left.png;up;0.028307200000199373;0.030078000001594773;10492.3293712;2.4000000848900527e-06;0.4987700000001496;0.5387863999985711;0.5888190999994549;0.658841599999505;0.7889300999995612;0.9190260999985185;0.01
4;2;16;1;letter169;letter190;letter169;letter190;0;0;congruent;0.04;letter190;0.09;0.07;fullmask;0.2;arrow_right.png;down;0.1321459999999206;0.13972869999997783;10495.7453869;2.5000008463393897e-06;0.5057133999998769;0.5455249000006006;0.5955567000000883;0.6655937000014092;0.7956823000004078;0.9257749999997031;0.01
4;2;16;2;letter169;letter190;letter169;letter190;0;0;congruent;0.04;letter190;0.09;0.07;fullmask;0.2;arrow_right.png;down;0.09740459999920859;0.09974319999855652;10497.3613668;2.1999985619913787e-06;0.49913159999960044;0.5391608999998425;0.5891668999993271;0.659207199998491;0.7892953999999008;0.9193954999991547;0.01
4;2;16;3;letter169;letter190;letter169;letter190;0;0;incongruent;0.04;letter169;0.09;0.07;fullmask;0.2;arrow_right.png;up;0.0759159000008367;0.07995090000076743;10498.9613823;2.4000000848900527e-06;0.4978642000005493;0.5378734000005352;0.5879175000009127;0.6579466000002867;0.7880296000003;0.9181226000000606;0.01
4;2;16;4;letter169;letter190;letter169;letter190;0;1;congruent;0.12;letter169;0.18;0.07;fullmask;0.2;arrow_left.png;up;0.05971279999903345;0.059868899999855785;10500.6256475;2.70000055024866e-06;0.4984782000010455;0.6185568000000785;0.6785939000001235;0.7486288000000059;0.8787097000003996;1.008824000000459;0.01
4;2;16;5;letter169;letter190;letter169;letter190;0;0;incongruent;0.04;letter169;0.09;0.07;fullmask;0.2;arrow_right.png;down;0.09421979999933683;0.09966239999994286;10502.2413728;2.2999993234407157e-06;0.5013825999994879;0.5414079999991372;0.5914254999988771;0.6614613000001555;0.7915407999989839;0.9216593000001012;0.01
4;2;16;6;letter169;letter190;letter169;letter190;0;0;incongruent;0.04;letter169;0.09;0.07;fullmask;0.2;arrow_right.png;up;0.05682410000008531;0.05987920000006852;10504.0254249;2.4000000848900527e-06;0.49827799999911804;0.5382925999983854;0.5883458999996947;0.6583621999998286;0.788446999998996;0.9185553999996046;0.01
4;2;16;7;letter169;letter190;letter169;letter190;0;0;congruent;0.04;letter169;0.09;0.07;fullmask;0.2;arrow_left.png;up;0.14808520000042336;0.14961310000035155;10505.6973762;2.4000000848900527e-06;0.49577030000000377;0.5357910000002448;0.5858170999999857;0.6558566999992763;0.7859423999998398;0.9160544999995182;0.01
4;2;16;8;letter169;letter190;letter169;letter190;0;0;incongruent;0.04;letter169;0.09;0.07;fullmask;0.2;arrow_right.png;up;0.06868820000090636;0.06998659999953816;10507.2894928;2.999999196617864e-06;0.4965599999995902;0.5365745999988576;0.5866115999997419;0.6566552000003867;0.7867303999992146;0.9168300999990606;0.01
4;2;16;9;letter169;letter190;letter169;letter190;0;0;incongruent;0.04;letter190;0.09;0.07;fullmask;0.2;arrow_left.png;down;0.17422219999934896;0.18053239999971993;10508.9853797;2.200000380980782e-06;0.4954816000008577;0.5355003999993642;0.5855405000002065;0.6555716000002576;0.7856590999999753;0.9157673999998224;0.01
4;2;16;10;letter169;letter190;letter169;letter190;0;0;incongruent;0.04;letter190;0.09;0.07;fullmask;0.2;arrow_left.png;down;0.171167600001354;0.18054120000124385;10510.6735248;2.4000000848900527e-06;0.49623590000010154;0.5362560000012309;0.5863027000013972;0.656320300000516;0.7864113000014186;0.9165165000013076;0.01
4;2;16;11;letter169;letter190;letter169;letter190;0;0;congruent;0.04;letter190;0.09;0.07;fullmask;0.2;arrow_right.png;down;0.13605060000008962;0.14054740000028687;10512.3293651;2.399998265900649e-06;0.5004592999994202;0.5404619999990246;0.5905013999999937;0.6605325999989873;0.7906180999998469;0.9207244999997783;0.01
4;2;16;12;letter169;letter190;letter169;letter190;0;0;congruent;0.04;letter190;0.09;0.07;fullmask;0.2;arrow_right.png;down;0.14659110000138753;0.1496595000007801;10514.0014057;2.4000000848900527e-06;0.5025932999997167;0.5426224000002549;0.5926481999995303;0.66268029999992;0.792765899999722;0.9228758000008384;0.01
4;2;16;13;letter169;letter190;letter169;letter190;0;0;congruent;0.04;letter190;0.09;0.07;fullmask;0.2;arrow_right.png;down;0.09416129999954137;0.10006090000024415;10515.6093769;2.4000000848900527e-06;0.49630059999981313;0.5363123000006453;0.5863413999995828;0.6563855999993393;0.7864578000007896;0.9165670999991562;0.01
4;2;16;14;letter169;letter190;letter169;letter190;0;0;congruent;0.04;letter169;0.09;0.07;fullmask;0.2;arrow_left.png;up;0.19435840000005555;0.19952639999974053;10517.3213508;2.4000000848900527e-06;0.495696300000418;0.5356853000012052;0.5857335000000603;0.6557511000009981;0.7858518000011827;0.9159393999998429;0.01
4;2;16;15;letter169;letter190;letter169;letter190;0;0;incongruent;0.04;letter190;0.09;0.07;fullmask;0.2;arrow_left.png;down;0.15149750000091444;0.1596320000007836;10519.0093995;2.4000000848900527e-06;0.5038426000010077;0.5438697999998112;0.593913300001077;0.6639368000014656;0.7940177000000403;0.9241230000006908;0.01
4;2;16;16;letter169;letter190;letter169;letter190;0;0;incongruent;0.04;letter190;0.09;0.07;fullmask;0.2;arrow_left.png;down;0.13287830000081158;0.14066550000097777;10520.6816218;2.599999788799323e-06;0.5011291000009805;0.5411675000013929;0.5912184000007983;0.6612385999997059;0.7913261000012426;0.9214085000003251;0.01
4;2;16;17;letter169;letter190;letter169;letter190;0;0;congruent;0.04;letter169;0.09;0.07;fullmask;0.2;arrow_left.png;up;0.10521689999950468;0.10976759999903152;10522.305374;2.4000000848900527e-06;0.4988780999992741;0.5389212999998563;0.5889394000005268;0.6589600999996037;0.7890662999998312;0.9191441000002669;0.01
4;2;16;18;letter169;letter190;letter169;letter190;0;0;congruent;0.04;letter190;0.09;0.07;fullmask;0.2;arrow_right.png;down;0.20078429999921354;0.21049569999922824;10524.0413605;2.599999788799323e-06;0.5021009000010963;0.5421255000001111;0.5921501000011631;0.6621888000008767;0.7922744999996212;0.92238560000078;0.01
4;2;16;19;letter169;letter190;letter169;letter190;0;0;incongruent;0.04;letter190;0.09;0.07;fullmask;0.2;arrow_left.png;down;0.1893631999992067;0.19064569999864034;10525.7615319;2.499999027349986e-06;0.49853989999974146;0.5385642000001098;0.5886316999985866;0.6586361999998189;0.7887307999990298;0.9188303999999334;0.01
4;2;16;20;letter169;letter190;letter169;letter190;0;0;incongruent;0.04;letter169;0.09;0.07;fullmask;0.2;arrow_right.png;up;0.1919660000003205;0.20041500000115775;10527.4655272;2.4000000848900527e-06;0.5004339999995864;0.5404343000009248;0.590470600000117;0.6605011000010563;0.7905940000000555;0.9206936000009591;0.01
4;2;16;21;letter169;letter190;letter169;letter190;0;0;congruent;0.04;letter169;0.09;0.07;fullmask;0.2;arrow_left.png;up;0.24662180000086664;0.2493956000016624;10529.241355;2.499999027349986e-06;0.498656600000686;0.5386846999990667;0.5887328999997408;0.6587541999997484;0.7888507999996364;0.9189384000001155;0.01
4;2;16;22;letter169;letter190;letter169;letter190;0;0;incongruent;0.04;letter190;0.09;0.07;fullmask;0.2;arrow_left.png;down;0.21217609999985143;0.22047120000024734;10530.9773551;2.5000008463393897e-06;0.4964008000006288;0.5364270000009128;0.586463100000401;0.6564959999996063;0.7865786999991542;0.9166784000008192;0.01
4;2;16;23;letter169;letter190;letter169;letter190;0;1;congruent;0.12;letter190;0.18;0.07;fullmask;0.2;arrow_right.png;down;0.1751726000002236;0.18043799999941257;10532.7613493;2.499999027349986e-06;0.4994415000001027;0.6195084999999381;0.6795404000004055;0.7495844999994006;0.879665999998906;1.009771199998795;0.01
4;2;16;24;letter169;letter190;letter169;letter190;0;0;congruent;0.04;letter169;0.09;0.07;fullmask;0.2;arrow_left.png;up;0.29744229999960226;0.3002974999999424;10534.5854497;2.5000008463393897e-06;0.4991263000010804;0.5391503000009834;0.5891652000009344;0.659209200000987;0.789288600000873;0.9194266000013158;0.01
4;2;16;25;letter169;letter190;letter169;letter190;0;0;incongruent;0.04;letter169;0.09;0.07;fullmask;0.2;arrow_right.png;up;0.23681609999948705;0.24040529999911087;10536.3454379;2.4000000848900527e-06;0.4959625000010419;0.5359709000003932;0.5860063000000082;0.6560408999994252;0.7861178000002838;0.9162285000002157;0.01
4;2;16;26;letter169;letter190;letter169;letter190;0;0;incongruent;0.04;letter169;0.09;0.07;fullmask;0.2;arrow_right.png;up;0.13971250000031432;0.14063400000122783;10538.0094338;2.5000008463393897e-06;0.496903299999758;0.5369205999995756;0.5869450999998662;0.6569916000007652;0.7870801999997639;0.9171507999999449;0.01
4;2;16;27;letter169;letter190;letter169;letter190;0;0;congruent;0.04;letter169;0.09;0.07;fullmask;0.2;arrow_left.png;up;0.09472819999973581;0.10079789999872446;10539.6253641;2.3000011424301192e-06;0.5055288000003202;0.5455220000003465;0.5955666000008932;0.6656048000004375;0.7956766999996034;0.9257783000011841;0.01
4;2;16;28;letter169;letter190;letter169;letter190;0;0;incongruent;0.04;letter169;0.09;0.07;fullmask;0.2;arrow_right.png;up;0.0888531000000512;0.089774000000034;10541.2413838;2.599999788799323e-06;0.5006733999998687;0.5407028999998147;0.5907329000001482;0.6607531999998173;0.7908495000010589;0.9209516000009899;0.01
4;2;16;29;letter169;letter190;letter169;letter190;0;0;incongruent;0.04;letter190;0.09;0.07;fullmask;0.2;arrow_left.png;down;0.1979853999982879;0.19952829999965616;10542.9613411;2.4000000848900527e-06;0.5002721000000747;0.5402951000014582;0.590345000000525;0.6603618000008282;0.7904559000016889;0.9205529999999271;0.01
4;2;16;30;letter169;letter190;letter169;letter190;0;0;incongruent;0.04;letter190;0.09;0.07;fullmask;0.2;arrow_left.png;down;0.1971570999994583;0.2006558999983099;10544.6814001;2.5000008463393897e-06;0.5030476000010822;0.543069800000012;0.5931441000011546;0.6631422999998904;0.7932299000003695;0.9233165000005101;0.01
4;2;16;31;letter169;letter190;letter169;letter190;0;0;incongruent;0.04;letter169;0.09;0.07;fullmask;0.2;arrow_right.png;up;0.2180917000005138;0.22042070000134117;10546.4332956;2.599999788799323e-06;0.5037281000004441;0.5437591000008979;0.593794300000809;0.6638261999996757;0.7939127999998163;0.9240117000008468;0.01
4;2;16;32;letter169;letter190;letter169;letter190;0;0;congruent;0.04;letter190;0.09;0.07;fullmask;0.2;arrow_right.png;down;0.1731433000004472;0.18057750000116357;10548.1293568;2.4000000848900527e-06;0.4983252000001812;0.538354000000254;0.5883838999998261;0.658420899999328;0.7885057000003144;0.9186226000001625;0.01
4;2;16;33;letter169;letter190;letter169;letter190;0;0;incongruent;0.04;letter169;0.09;0.07;fullmask;0.2;arrow_right.png;up;0.16601640000044426;0.1706235999990895;10549.8333543;2.4000000848900527e-06;0.5054598999995505;0.5454778999992413;0.5955138000008446;0.665538799999922;0.7956350999993447;0.9257338999996136;0.01
4;2;16;34;letter169;letter190;letter169;letter190;0;0;incongruent;0.04;letter190;0.09;0.07;fullmask;0.2;arrow_left.png;down;0.16516239999873505;0.17046529999970517;10551.5134441;4.699999408330768e-06;0.49826559999928577;0.5382970000009664;0.5883052999997744;0.6583473999999114;0.7884233999993739;0.9185634999994363;0.01
4;2;16;35;letter169;letter190;letter169;letter190;0;0;incongruent;0.04;letter190;0.09;0.07;fullmask;0.2;arrow_left.png;down;0.1311784000008629;0.13960489999954007;10553.1613269;2.5000008463393897e-06;0.49956230000134383;0.5395831000005273;0.5896199000017077;0.6596549000005325;0.7897478000013507;0.9198743000015384;0.01
4;2;16;36;letter169;letter190;letter169;letter190;0;0;congruent;0.04;letter190;0.09;0.07;fullmask;0.2;arrow_right.png;down;1.7025954999990063;1.7114164999984496;10556.3935642;2.2999993234407157e-06;0.505649299999277;0.5456580000009126;0.5957049000007828;0.6657317000008334;0.7958228000006784;0.9259117000001424;0.01
4;2;16;37;letter169;letter190;letter169;letter190;0;0;congruent;0.04;letter169;0.09;0.07;fullmask;0.2;arrow_left.png;up;0.08495819999916421;0.09091889999945124;10558.0174775;2.4000000848900527e-06;0.5044106000004831;0.5444284999994125;0.5944583000000421;0.6644961000001786;0.7945703000004869;0.9246689999999944;0.01
4;2;16;38;letter169;letter190;letter169;letter190;0;0;incongruent;0.04;letter190;0.09;0.07;fullmask;0.2;arrow_left.png;down;0.16907530000025872;0.16938970000046538;10559.7133925;2.2999993234407157e-06;0.5045351999997365;0.5445474999996804;0.5945899999987887;0.6646284999987984;0.7946955999996135;0.9248047000000952;0.01
4;2;16;39;letter169;letter190;letter169;letter190;0;1;incongruent;0.12;letter169;0.18;0.07;fullmask;0.2;arrow_right.png;up;0.0848839999998745;0.09092059999966295;10561.4094754;2.4000000848900527e-06;0.49496819999876607;0.615017899999657;0.6750821999994514;0.7451036999991629;0.8752158999996027;1.005293199999869;0.01
4;2;16;40;letter169;letter190;letter169;letter190;0;0;congruent;0.04;letter169;0.09;0.07;fullmask;0.2;arrow_left.png;up;0.19170049999956973;0.20052380000015546;10563.1374556;2.399998265900649e-06;0.505629899998894;0.5456550999988394;0.5956906999999774;0.6657069999982923;0.7958003999992798;0.9259010999994643;0.01
4;2;16;41;letter169;letter190;letter169;letter190;0;0;congruent;0.04;letter169;0.09;0.07;fullmask;0.2;arrow_left.png;up;0.11208809999880032;0.11964479999915056;10564.7696838;2.399998265900649e-06;0.49771829999917827;0.5377293999990798;0.5877432999986922;0.6577910999985761;0.7878667999993922;0.9179711999986466;0.01
4;2;16;42;letter169;letter190;letter169;letter190;0;0;congruent;0.04;letter190;0.09;0.07;fullmask;0.2;arrow_right.png;down;0.1970614999991085;0.20042599999942468;10566.5053347;2.5000008463393897e-06;0.49963990000105696;0.5396575000013399;0.5896809000005305;0.6597098000002006;0.7898015000009764;0.9199122999998508;0.01
4;2;16;43;letter169;letter190;letter169;letter190;0;0;congruent;0.04;letter190;0.09;0.07;fullmask;0.2;arrow_right.png;down;0.14003090000005614;0.15065820000017993;10568.1693406;2.4000000848900527e-06;0.49736250000023574;0.5373846999991656;0.587420399999246;0.6574253999988287;0.7875313999993523;0.9176477999990311;0.01
4;2;16;44;letter169;letter190;letter169;letter190;0;0;congruent;0.04;letter169;0.09;0.07;fullmask;0.2;arrow_left.png;up;0.07853609999983746;0.07971080000061193;10569.7693011;2.5000008463393897e-06;0.4978816000002553;0.537881300000663;0.5879234000003635;0.657949100001133;0.7880376000011893;0.9181413000005705;0.01
4;2;16;45;letter169;letter190;letter169;letter190;0;0;incongruent;0.04;letter190;0.09;0.07;fullmask;0.2;arrow_left.png;up;1.6196082000005845;1.6207264000004216;10572.9213056;2.499999027349986e-06;0.5055701000001136;0.5455715999996755;0.5956069999992906;0.6656564000004437;0.7957246000005398;0.9258362000000488;0.01
4;2;16;46;letter169;letter190;letter169;letter190;0;0;congruent;0.04;letter169;0.09;0.07;fullmask;0.2;arrow_left.png;up;0.08808080000017071;0.09077869999964605;10574.721339;2.4000000848900527e-06;0.49882660000002943;0.5388629999997647;0.5888867000012397;0.6589199000009103;0.7890133000000787;0.9191065000013623;0.01
4;2;16;47;letter169;letter190;letter169;letter190;0;1;incongruent;0.12;letter190;0.18;0.07;fullmask;0.2;arrow_left.png;down;0.2180739999985235;0.2194311999992351;10576.5533869;2.4000000848900527e-06;0.5044479999996838;0.6245345999996061;0.6845628000010038;0.7546008000008442;0.884680400000434;1.014780499999688;0.01
4;2;16;48;letter169;letter190;letter169;letter190;0;0;incongruent;0.04;letter169;0.09;0.07;fullmask;0.2;arrow_right.png;up;0.25936320000073465;0.26036560000102327;10578.3453596;2.5000008463393897e-06;0.5044189000000188;0.5444384000002174;0.5944792999998754;0.6645165999998426;0.7946024000011676;0.9246954000009282;0.01
4;2;16;49;letter169;letter190;letter169;letter190;0;0;congruent;0.04;letter190;0.09;0.07;fullmask;0.2;arrow_right.png;down;0.3027836000001116;0.3101829999995971;10580.1693355;2.599999788799323e-06;0.5019960000008723;0.5420399000013276;0.5920626999995875;0.6621097999995982;0.792181900000287;0.9222853999999643;0.01
4;2;16;50;letter169;letter190;letter169;letter190;0;0;congruent;0.04;letter169;0.09;0.07;fullmask;0.2;arrow_left.png;up;0.23308859999997367;0.24028110000108427;10581.9213245;2.2999993234407157e-06;0.4958922999994684;0.5359072999999626;0.5859335999994073;0.6559653000003891;0.7860495999993873;0.9161557999996148;0.01
4;2;16;51;letter169;letter190;letter169;letter190;0;0;congruent;0.04;letter190;0.09;0.07;fullmask;0.2;arrow_right.png;down;0.18451660000027914;0.19050339999921562;10583.6335249;2.2999993234407157e-06;0.5033963000005315;0.5434291999990819;0.5934639000006428;0.6634933999994246;0.7935663999996905;0.9236724000002141;0.01
4;2;16;52;letter169;letter190;letter169;letter190;0;0;incongruent;0.04;letter169;0.09;0.07;fullmask;0.2;arrow_right.png;up;0.15292669999871578;0.1596345999987534;10585.3133286;2.5000008463393897e-06;0.5030630000001111;0.543068900000435;0.5931137000006856;0.6631457000003138;0.7932352000007086;0.92333520000102;0.01
subjnr;loop_m;blocknr;trialnr;cue_left_learn;cue_right_learn;option_up;option_down;practice;motivation; congruence;cue_dur;cue;SOA;mask_dur;mask;target_dur;target;response;RT;kb_rt;response_absolute; fix_onset;cue_onset;cue_offset;mask_onset;mask_offset;target_offset;blank_onset;frame_dur
