subjnr;loop_m;blocknr;trialnr;cue_left_learn;cue_right_learn; congruence;cue_dur;cue;SOA;mask_dur;mask;target_dur;target;RW_dur;response;RT;kb_rt;response_absolute; fix_onset;cue_onset;cue_offset;mask_onset;mask_offset;target_offset;blank_onset;response_during_mask;response_during_targetalone;response_during_RW;response_during_blank;frame_dur
2;1;1;1;letter181;letter357;congruent;0.04;letter357;0.05;0.07;fullmask;0.3;arrow_right.png;0;m;0.35347389997332357;0.36007450000033714;254562.4217701;2.7999922167509794e-06;0.49635359999956563;0.5363895999907982;0.5480107000039425;0.6177451999974437;0.848144699994009;0.8481646000000183;0;0;0;1;0.01
2;1;1;2;letter181;letter357;congruent;0.04;letter181;0.05;0.07;fullmask;0.3;arrow_left.png;0;c;0.28369819998624735;0.2896483999793418;254564.213563;2.6999914553016424e-06;0.5023846999974921;0.5424031000002287;0.5544193999958225;0.6236043999961112;0.8440686999820173;0.8440707999980077;0;1;0;0;0.01
2;1;1;3;letter181;letter357;congruent;0.04;letter181;0.05;0.07;fullmask;0.3;arrow_left.png;0;c;0.3105702000029851;0.3201646000088658;254565.9815758;2.6999914553016424e-06;0.5001098999928217;0.5401258000056259;0.5521609999996144;0.6219280999794137;0.8523216999892611;0.8523281999805477;0;0;0;1;0.01
2;1;1;4;letter181;letter357;congruent;0.04;letter357;0.05;0.07;fullmask;0.3;arrow_right.png;0;m;0.34037009999156;0.3411385999934282;254567.7816671;2.700020559132099e-06;0.49690369999734685;0.5369247000198811;0.5481519000022672;0.6189548000111245;0.8483415000082459;0.8483479999995325;0;0;0;1;0.01
2;1;1;5;letter181;letter357;congruent;0.04;letter357;0.05;0.07;fullmask;0.3;arrow_right.png;0;m;0.3183638000045903;0.3201820999966003;254569.5417383;2.7999922167509794e-06;0.5037200999795459;0.5437155999825336;0.5558528999972623;0.6255253999843262;0.8559268999961205;0.8559464999998454;0;0;0;1;0.01
2;1;1;6;letter181;letter357;congruent;0.04;letter181;0.05;0.07;fullmask;0.3;arrow_left.png;0;c;0.37153889998444356;0.3801306000095792;254571.3659054;2.7999922167509794e-06;0.5009727000142448;0.5409946000145283;0.5529538000118919;0.6228455000091344;0.8531371999997646;0.8531580000126269;0;0;0;1;0.01
2;1;1;7;letter181;letter357;congruent;0.04;letter181;0.05;0.07;fullmask;0.3;arrow_left.png;0;c;0.2739988999965135;0.2802605000033509;254573.1095815;2.8999929782003164e-06;0.501912200008519;0.5419262000068557;0.5539377999957651;0.6237068999907933;0.8341990000044461;0.8342011999920942;0;1;0;0;0.01
2;1;1;8;letter181;letter357;congruent;0.04;letter357;0.05;0.07;fullmask;0.3;arrow_right.png;0;m;0.2712740999995731;0.2802648000069894;254574.8775399;2.400018274784088e-06;0.49873350001871586;0.5387731000082567;0.5503101000213064;0.6200842000253033;0.8305759000068065;0.8305779000220355;0;1;0;0;0.01
2;1;1;9;letter181;letter357;congruent;0.04;letter357;0.05;0.07;fullmask;0.3;arrow_right.png;0;m;0.32761439998284914;0.33013439999194816;254576.6455163;2.3999891709536314e-06;0.5009053999965545;0.5409134000074118;0.5530050999950618;0.6227817999897525;0.8531622999871615;0.8531683000037447;0;0;0;1;0.01
2;1;1;10;letter181;letter357;congruent;0.04;letter181;0.05;0.07;fullmask;0.3;arrow_left.png;0;c;0.2672548000118695;0.27043880001292564;254578.3656661;2.400018274784088e-06;0.50398259999929;0.5440034000203013;0.5554788000008557;0.6253889000217896;0.8259255000157282;0.8259324000100605;0;1;0;0;0.01
2;1;1;11;letter181;letter357;congruent;0.04;letter181;0.05;0.07;fullmask;0.3;arrow_left.png;0;c;0.2975463999900967;0.30020759999752045;254580.1175163;2.800021320581436e-06;0.49664530000882223;0.5366676000121515;0.5485894000157714;0.618353100027889;0.8487981000216678;0.8488001000077929;0;1;0;0;0.01
2;1;1;12;letter181;letter357;congruent;0.04;letter357;0.05;0.07;fullmask;0.3;arrow_right.png;0;m;0.22831989999394864;0.2294052999932319;254581.7895051;2.400018274784088e-06;0.5038286999915726;0.5438564000069164;0.5558450999960769;0.6256156000017654;0.7852513999969233;0.7852535000129137;0;1;0;0;0.01
2;1;1;13;letter181;letter357;congruent;0.04;letter181;0.05;0.07;fullmask;0.3;arrow_left.png;0;c;0.2273869999917224;0.22939469999982975;254583.469556;2.6999914553016424e-06;0.4947070000052918;0.5347258000110742;0.5466495000000577;0.6164177999889944;0.7760447000036947;0.7760466999898199;0;1;0;0;0.01
2;1;1;14;letter181;letter357;congruent;0.04;letter181;0.05;0.07;fullmask;0.3;arrow_left.png;0;c;0.2949401000223588;0.300209500011988;254585.1975119;3.2999960239976645e-06;0.5035281000018585;0.5435335999936797;0.5547982999996748;0.6255722999922;0.8550085999886505;0.8550107999762986;0;1;0;0;0.01
2;1;1;15;letter181;letter357;congruent;0.04;letter357;0.05;0.07;fullmask;0.3;arrow_right.png;0;m;0.2555850000062492;0.26024230002076365;254586.9095097;2.7999922167509794e-06;0.4983734999841545;0.5384015000017826;0.5498896999924909;0.6205864999792539;0.8101265000004787;0.8101286999881268;0;1;0;0;0.01
2;1;1;16;letter181;letter357;congruent;0.04;letter181;0.05;0.07;fullmask;0.3;arrow_left.png;0;c;0.24065190000692382;0.25039030000334606;254588.6055425;2.5999906938523054e-06;0.5042598999862093;0.5442913000006229;0.555636000004597;0.6255379999929573;0.8060250999988057;0.8060272999864537;0;1;0;0;0.01
2;1;1;17;letter181;letter357;congruent;0.04;letter181;0.05;0.07;fullmask;0.3;arrow_left.png;0;c;0.2846974999993108;0.289277600008063;254590.3415024;2.700020559132099e-06;0.5005230000242591;0.5405337000265718;0.5527141000202391;0.6217896000016481;0.8419911000237335;0.8419933000113815;0;1;0;0;0.01
2;1;1;18;letter181;letter357;congruent;0.04;letter357;0.05;0.07;fullmask;0.3;arrow_right.png;0;m;0.2364061000116635;0.24026459999731742;254592.013486;2.9999937396496534e-06;0.4951508000085596;0.5351787999970838;0.5465299999923445;0.6173028000048362;0.7867957999987993;0.7867979000147898;0;1;0;0;0.01
2;1;1;19;letter181;letter357;congruent;0.04;letter181;0.05;0.07;fullmask;0.3;arrow_left.png;0;c;0.20370449998881668;0.21046119998209178;254593.6617121;2.1999876480549574e-06;0.5001909999991767;0.5402083999942988;0.5514243999787141;0.6220993000024464;0.7618927999865264;0.7618999999831431;0;1;0;0;0.01
2;1;1;20;letter181;letter357;congruent;0.04;letter357;0.05;0.07;fullmask;0.3;arrow_right.png;0;m;0.23957490001339465;0.2494093000132125;254595.3495788;2.4999899324029684e-06;0.5002304999798071;0.5402490999840666;0.5523953999800142;0.6222963999898639;0.8018042999901809;0.8018064999778289;0;1;0;0;0.01
2;1;1;21;letter181;letter357;congruent;0.04;letter357;0.05;0.07;fullmask;0.3;arrow_right.png;0;c;0.15885430001071654;0.15962160000344738;254596.9496812;2.3999891709536314e-06;0.5001096999912988;0.5401342999830376;0.5520228999957908;0.6217183999833651;0.7116473999922164;0.7116540999850258;0;1;0;0;0.01
2;1;1;22;letter181;letter357;congruent;0.04;letter357;0.05;0.07;fullmask;0.3;arrow_right.png;0;m;0.2873810000019148;0.29024209998897277;254598.8695084;3.2999960239976645e-06;0.4957109999959357;0.535735499986913;0.5477686999947764;0.6175362000067253;0.8380117999913637;0.8380139000073541;0;1;0;0;0.01
2;1;1;23;letter181;letter357;congruent;0.04;letter357;0.05;0.07;fullmask;0.3;arrow_right.png;0;m;0.2582525000034366;0.2595531000115443;254600.5815795;2.700020559132099e-06;0.5042013000056613;0.5442023000214249;0.5563211000117008;0.6254100000078324;0.8158736000186764;0.8158758000063244;0;1;0;0;0.01
2;1;1;24;letter181;letter357;congruent;0.04;letter181;0.05;0.07;fullmask;0.3;arrow_left.png;0;c;0.24571339998510666;0.25024769999436103;254602.2695191;2.600019797682762e-06;0.4979338000121061;0.5379547000047751;0.549456700013252;0.6192308000172488;0.7997059000190347;0.7997081000066828;0;1;0;0;0.01
2;1;1;25;letter181;letter357;congruent;0.04;letter181;0.05;0.07;fullmask;0.3;arrow_left.png;0.13;c;0.5189752000151202;0.5193551999982446;254677.5015107;3.0999945010989904e-06;0.5037192999734543;0.5437343999801669;0.5558659999805968;0.6254335999838077;0.8558559999801219;0.985477299982449;0;0;0;1;0.01
2;1;1;26;letter181;letter357;congruent;0.04;letter181;0.05;0.07;fullmask;0.3;arrow_left.png;0.13;c;0.26764369997545145;0.2702123999770265;254679.2214467;2.9999937396496534e-06;0.4995280000148341;0.5395579999894835;0.5516741999890655;0.6213528999942355;0.8218821999907959;0.8218842000060249;0;1;0;0;0.01
2;1;1;27;letter181;letter357;congruent;0.04;letter357;0.05;0.07;fullmask;0.3;arrow_right.png;0.13;m;0.2989983999868855;0.3002566999930423;254680.9734007;3.1999952625483274e-06;0.5020723000052385;0.5420906000072137;0.5537146000133362;0.623531199991703;0.8539706000010483;0.8539725000155158;0;1;0;0;0.01
2;1;1;28;letter181;letter357;congruent;0.04;letter357;0.05;0.07;fullmask;0.3;arrow_right.png;0.13;m;0.47765249997610226;0.47977229999378324;254682.893421;2.5999906938523054e-06;0.4990864999999758;0.5390971999731846;0.5510031999729108;0.6208138999936637;0.8511973999848124;0.9808521999802906;0;0;0;1;0.01
2;1;1;29;letter181;letter357;congruent;0.04;letter181;0.05;0.07;fullmask;0.3;arrow_left.png;0.13;c;0.27436099998885766;0.28025469998829067;254684.6216596;2.700020559132099e-06;0.5005595000111498;0.5405741000140551;0.5527426000044215;0.6223912000132259;0.8329998000117484;0.8330065000045579;0;1;0;0;0.01
2;1;1;30;letter181;letter357;congruent;0.04;letter181;0.05;0.07;fullmask;0.3;arrow_left.png;0.13;c;0.2754344000131823;0.2803661999932956;254686.3335425;2.400018274784088e-06;0.4964328000205569;0.5364472000219394;0.5483313000004273;0.618102500011446;0.8287065000040457;0.8287131000251975;0;1;0;0;0.01
2;1;1;31;letter181;letter357;congruent;0.04;letter357;0.05;0.07;fullmask;0.3;arrow_right.png;0.13;m;0.30615870002657175;0.3102311000111513;254688.0854728;2.400018274784088e-06;0.5048480000114068;0.5449029000010341;0.5568426999961957;0.6267476000066381;0.8570421000185888;1.0652286999975331;0;0;1;0;0.01
2;1;1;32;letter181;letter357;congruent;0.04;letter357;0.05;0.07;fullmask;0.3;arrow_right.png;0.13;m;0.4749332999926992;0.479777100001229;254690.2054601;2.5999906938523054e-06;0.5036058999830857;0.5436385999782942;0.5555555000028107;0.6254592000041157;0.8557540999900084;0.985408099979395;0;0;0;1;0.01
2;1;1;33;letter181;letter357;congruent;0.04;letter181;0.05;0.07;fullmask;0.3;arrow_left.png;0.13;c;0.23357929999474436;0.2394227999902796;254691.885422;2.700020559132099e-06;0.5032148000027519;0.5432348000176717;0.5552626000135206;0.625168600003235;0.7946845999977086;0.794686700013699;0;1;0;0;0.01
2;1;1;34;letter181;letter357;congruent;0.04;letter181;0.05;0.07;fullmask;0.3;arrow_left.png;0.13;c;0.3674112999869976;0.37102279998362064;254693.7095152;2.6999914553016424e-06;0.5026160000124946;0.5426514999999199;0.5538316000020131;0.624623400013661;0.8540072999894619;1.1230120999971405;0;0;1;0;0.01
2;1;1;35;letter181;letter357;congruent;0.04;letter357;0.05;0.07;fullmask;0.3;arrow_right.png;0.13;m;0.27149630000349134;0.2802644000039436;254695.6454196;2.2999884095042944e-06;0.5038760000024922;0.5439088999992236;0.5556071999890264;0.6253736999933608;0.835872499999823;0.8358745999867097;0;1;0;0;0.01
2;1;1;36;letter181;letter357;congruent;0.04;letter357;0.05;0.07;fullmask;0.3;arrow_right.png;0.13;m;0.5040524000069126;0.5096640000119805;254697.5894158;2.800021320581436e-06;0.49964530000579543;0.5396760000148788;0.5517170999955852;0.6214918000041507;0.8518828000233043;0.9815359000058379;0;0;0;1;0.01
2;1;1;37;letter181;letter357;congruent;0.04;letter357;0.05;0.07;fullmask;0.3;arrow_right.png;0.13;m;0.28673920000437647;0.2902394000266213;254699.3334137;2.8999929782003164e-06;0.49558250000700355;0.5356138999923132;0.547713100007968;0.61748409998836;0.8379536000138614;0.837955700000748;0;1;0;0;0.01
2;1;1;38;letter181;letter357;congruent;0.04;letter181;0.05;0.07;fullmask;0.3;arrow_left.png;0.13;c;0.3035694999853149;0.309220600000117;254701.0614143;2.5999906938523054e-06;0.49810459997388534;0.5381232999789063;0.5503003999765497;0.6193564999848604;0.8494956999784335;1.058454799989704;0;0;1;0;0.01
2;1;1;39;letter181;letter357;congruent;0.04;letter181;0.05;0.07;fullmask;0.3;arrow_left.png;0.13;c;0.3293945000041276;0.33045760000823066;254703.0374891;2.7999922167509794e-06;0.502525699994294;0.5425543999881484;0.5537179000093602;0.623800500005018;0.8540949999878649;1.0829009999870323;0;0;1;0;0.01
2;1;1;40;letter181;letter357;congruent;0.04;letter181;0.05;0.07;fullmask;0.3;arrow_left.png;0.13;c;0.399121099995682;0.39997840000432916;254705.0694365;2.7999922167509794e-06;0.5005923999997322;0.5406069000018761;0.5527310000034049;0.6217856000002939;0.8519156000111252;1.1510034000093583;0;0;1;0;0.01
2;1;1;41;letter181;letter357;congruent;0.04;letter357;0.05;0.07;fullmask;0.3;arrow_right.png;0.13;m;0.42184749999432825;0.4298652999859769;254707.1334124;2.700020559132099e-06;0.49690920001012273;0.536924900021404;0.5489971000060905;0.6187648000195622;0.8491542999981903;1.1773669999965932;0;0;1;0;0.01
2;1;1;42;letter181;letter357;congruent;0.04;letter357;0.05;0.07;fullmask;0.3;arrow_right.png;0.13;m;0.49740180000662804;0.5006773000059184;254709.2694691;2.6999914553016424e-06;0.4944000999967102;0.5344325999903958;0.5456725000112783;0.6164444000169169;0.8458328999986406;0.9764816999959294;0;0;0;1;0.01
2;1;1;43;letter181;letter357;congruent;0.04;letter357;0.05;0.07;fullmask;0.3;arrow_right.png;0.13;m;0.3238679000060074;0.330165700026555;254711.037613;2.600019797682762e-06;0.503357200010214;0.5433775999990758;0.5550674000114668;0.6247661000234075;0.8551469000231009;1.0837465000222437;0;0;1;0;0.01
2;1;1;44;letter181;letter357;congruent;0.04;letter357;0.05;0.07;fullmask;0.3;arrow_right.png;0.13;m;0.36290100001497194;0.3710702000244055;254713.0373928;2.4999899324029684e-06;0.49786080000922084;0.5379022000124678;0.5490529999951832;0.61995520000346;0.8492548000067472;1.1182499999995343;0;0;1;0;0.01
2;1;1;45;letter181;letter357;congruent;0.04;letter181;0.05;0.07;fullmask;0.3;arrow_left.png;0.13;c;0.28694479999830946;0.2902347999915946;254714.973406;2.8999929782003164e-06;0.5019087999826297;0.5419341000088025;0.5537882999924477;0.6235575999889988;0.8440238999901339;0.8440259000053629;0;1;0;0;0.01
2;1;1;46;letter181;letter357;congruent;0.04;letter357;0.05;0.07;fullmask;0.3;arrow_right.png;0.13;m;0.27566419998765923;0.2802724000066519;254716.6934034;2.4999899324029684e-06;0.4967896999733057;0.5368116999743506;0.5488327999773901;0.618615299987141;0.8291063999931794;0.829108499980066;0;1;0;0;0.01
2;1;1;47;letter181;letter357;congruent;0.04;letter181;0.05;0.07;fullmask;0.3;arrow_left.png;0.13;c;0.2566944000136573;0.2604322000115644;254718.4055598;2.6999914553016424e-06;0.5017809999990277;0.5417998000048101;0.5538306999951601;0.6236200999992434;0.8142717000155244;0.8142785000090953;0;1;0;0;0.01
2;1;1;48;letter181;letter357;congruent;0.04;letter181;0.05;0.07;fullmask;0.3;arrow_left.png;0.13;c;0.3403018999961205;0.34115510000265203;254720.1893878;2.7999922167509794e-06;0.4964031999988947;0.5364206999947783;0.5475888999935705;0.6184886999835726;0.8477875999815296;1.086780199984787;0;0;1;0;0.01
2;1;2;1;letter181;letter357;congruent;0.04;letter181;0.05;0.07;fullmask;0.25;arrow_left.png;0.13;c;0.43127840000670403;0.43987680002464913;254729.8773841;2.8999929782003164e-06;0.49644010001793504;0.5364733000169508;0.5484860000142362;0.618299499998102;0.7978175000171177;0.9284584000124596;0;0;0;1;0.01
2;1;2;2;letter181;letter357;congruent;0.04;letter181;0.05;0.07;fullmask;0.25;arrow_left.png;0.13;c;0.2699630999995861;0.27926229999866337;254731.5973877;2.7999922167509794e-06;0.49843830001191236;0.5384515000041574;0.5505919000133872;0.6203672999981791;0.7998848000133876;1.0287815000046976;0;0;1;0;0.01
2;1;2;3;letter181;letter357;congruent;0.04;letter357;0.05;0.07;fullmask;0.25;arrow_right.png;0.13;m;0.2866918000217993;0.28915080000297166;254733.5254422;2.5999906938523054e-06;0.4951989999972284;0.5352200999914203;0.5474638000014238;0.6171581000089645;0.796661900007166;1.0355503000027966;0;0;1;0;0.01
2;1;2;4;letter181;letter357;congruent;0.04;letter357;0.05;0.07;fullmask;0.25;arrow_right.png;0.13;m;0.25154780002776533;0.25932680000551045;254735.4213531;2.4999899324029684e-06;0.49823100000503473;0.5382627999933902;0.5503046000085305;0.6200769999995828;0.7996042000013404;1.008528300008038;0;0;1;0;0.01
2;1;2;5;letter181;letter357;congruent;0.04;letter357;0.05;0.07;fullmask;0.25;arrow_right.png;0.13;m;0.28101420000893995;0.290251200000057;254737.3413814;2.4999899324029684e-06;0.5024695999745745;0.5424738999863621;0.553874499979429;0.6236472000018694;0.8041573999798857;1.0428032999916468;0;0;1;0;0.01
2;1;2;6;letter181;letter357;congruent;0.04;letter357;0.05;0.07;fullmask;0.25;arrow_right.png;0.13;m;0.28141799999866635;0.2902866999793332;254739.293409;2.600019797682762e-06;0.5021941000013612;0.5422114999964833;0.5539719000225887;0.6238752000208478;0.8043068000115454;1.0425404999987222;0;0;1;0;0.01
2;1;2;7;letter181;letter357;congruent;0.04;letter181;0.05;0.07;fullmask;0.25;arrow_left.png;0.13;c;0.32793679999304004;0.33016159999533556;254741.2615087;3.200024366378784e-06;0.5028030000103172;0.542816800007131;0.5549440000031609;0.6246392000175547;0.8041388000128791;1.0831750000070315;0;0;1;0;0.01
2;1;2;8;letter181;letter357;congruent;0.04;letter357;0.05;0.07;fullmask;0.25;arrow_right.png;0.13;m;0.23690419999184087;0.2403739999863319;254743.1413591;2.6999914553016424e-06;0.5042166000057478;0.5442490999994334;0.555972300004214;0.6257410999969579;0.7963472999981605;0.7963494000141509;0;1;0;0;0.01
2;1;2;9;letter181;letter357;congruent;0.04;letter181;0.05;0.07;fullmask;0.25;arrow_left.png;0.13;c;0.275533899985021;0.28026269999099895;254744.8613423;2.4999899324029684e-06;0.5048101999855135;0.5448227000015322;0.5568381999910343;0.6266143999819178;0.8061261999828275;1.03515719997813;0;0;1;0;0.01
2;1;2;10;letter181;letter357;congruent;0.04;letter181;0.05;0.07;fullmask;0.25;arrow_left.png;0.13;c;0.28113660000963137;0.2902180000091903;254746.7974459;2.6999914553016424e-06;0.5025509000115562;0.5425721000065096;0.5538458999944851;0.6246109000057913;0.8041310000116937;1.0428982000157703;0;0;1;0;0.01
2;1;2;11;letter181;letter357;congruent;0.04;letter357;0.05;0.07;fullmask;0.25;arrow_right.png;0.13;m;0.261536400008481;0.2705061000015121;254748.7095727;2.7999922167509794e-06;0.4950064000149723;0.5350268000038341;0.5467810000118334;0.616548399993917;0.7971860000106972;1.0153390000050422;0;0;1;0;0.01
2;1;2;12;letter181;letter357;congruent;0.04;letter181;0.05;0.07;fullmask;0.25;arrow_left.png;0.13;m;0.26186699999379925;0.27037060001748614;254750.6214285;2.8999929782003164e-06;0.49491360000683926;0.5349457999982405;0.5469944999786094;0.6167227999831084;0.7962629999965429;1.0152623000030871;0;0;1;0;0.01
2;1;2;13;letter181;letter357;congruent;0.04;letter357;0.05;0.07;fullmask;0.25;arrow_right.png;0.13;m;0.29019669999252073;0.30011549999471754;254753.5014484;3.200024366378784e-06;0.5011028000153601;0.5411241000110749;0.5530280000239145;0.6227343000064138;0.8032220000168309;1.0514265000238083;0;0;1;0;0.01
2;1;2;14;letter181;letter357;congruent;0.04;letter181;0.05;0.07;fullmask;0.25;arrow_left.png;0.13;c;0.3007723999908194;0.31015799997840077;254755.4934602;3.0999945010989904e-06;0.5016988999850582;0.5415860000066459;0.5537068999838084;0.623435999994399;0.8029712999996264;1.062008999986574;0;0;1;0;0.01
2;1;2;15;letter181;letter357;congruent;0.04;letter181;0.05;0.07;fullmask;0.25;arrow_left.png;0.13;c;0.2616814999782946;0.27020609998726286;254757.4453726;2.9999937396496534e-06;0.49830089998431504;0.5383288000011817;0.5501367999822833;0.6198193999880459;0.8003467999806162;1.0186055999947712;0;0;1;0;0.01
2;1;2;16;letter181;letter357;congruent;0.04;letter357;0.05;0.07;fullmask;0.25;arrow_right.png;0.13;m;0.2933210000046529;0.3013444999814965;254759.3975755;2.5999906938523054e-06;0.501543499995023;0.5415541999973357;0.5527026999916416;0.6235243999981321;0.8030487999785691;1.051898399979109;0;0;1;0;0.01
2;1;2;17;letter181;letter357;congruent;0.04;letter181;0.05;0.07;fullmask;0.25;arrow_left.png;0.13;c;0.2728765999781899;0.2792668999754824;254761.3093684;2.5999906938523054e-06;0.5012258999922778;0.5412044999829959;0.5533456999983173;0.6231180999893695;0.8026373999891803;1.0315181000041775;0;0;1;0;0.01
2;1;2;18;letter181;letter357;congruent;0.04;letter357;0.05;0.07;fullmask;0.25;arrow_right.png;0.13;m;0.23174320001271553;0.23952010000357404;254763.1893702;2.500019036233425e-06;0.4996834000048693;0.5396733000234235;0.5517485000018496;0.6216659000201616;0.7912693000107538;0.7912713999976404;0;1;0;0;0.01
2;1;2;19;letter181;letter357;congruent;0.04;letter181;0.05;0.07;fullmask;0.25;arrow_left.png;0.13;c;0.2688246000034269;0.27029870002297685;254764.9175163;2.5999906938523054e-06;0.5044978999940213;0.5445139999792445;0.5565335999999661;0.6263114000030328;0.8058312000066508;1.0248363999999128;0;0;1;0;0.01
2;1;2;20;letter181;letter357;congruent;0.04;letter181;0.05;0.07;fullmask;0.25;arrow_left.png;0.13;c;0.2801667999883648;0.28047359999618493;254766.8296068;2.5999906938523054e-06;0.49876419999054633;0.5388049999892246;0.5503564999962691;0.6202554999908898;0.8006847999931779;1.0291227999841794;0;0;1;0;0.01
2;1;2;21;letter181;letter357;congruent;0.04;letter357;0.05;0.07;fullmask;0.25;arrow_right.png;0.13;m;0.31022939999820665;0.32015519999549724;254768.7814228;2.6999914553016424e-06;0.5036782999814022;0.5436919999774545;0.5557599999883678;0.6255292999849189;0.8050747999805026;1.0740446999843698;0;0;1;0;0.01
2;1;2;22;letter181;letter357;congruent;0.04;letter357;0.05;0.07;fullmask;0.25;arrow_right.png;0.13;m;0.3154093000048306;0.3201639000035357;254770.7573247;2.7999922167509794e-06;0.5043245000124443;0.5443444999982603;0.5558454999991227;0.6256371999916155;0.8061492000124417;1.0746680999873206;0;0;1;0;0.01
2;1;2;23;letter181;letter357;congruent;0.04;letter357;0.05;0.07;fullmask;0.25;arrow_right.png;0.13;m;0.35163900000043213;0.36006219999399036;254772.7653584;2.700020559132099e-06;0.5012910000223201;0.5413028000039048;0.5533622000075411;0.6231360000092536;0.8026610000233632;1.111674400017364;0;0;1;0;0.01
2;1;2;24;letter181;letter357;congruent;0.04;letter181;0.05;0.07;fullmask;0.25;arrow_left.png;0.13;c;0.2866693999967538;0.29034050001064315;254774.7015791;2.6999914553016424e-06;0.5041344999917783;0.5441544000059366;0.5561218000075314;0.6259055999980774;0.8064095999870915;1.044488099985756;0;0;1;0;0.01
2;1;2;25;letter181;letter357;congruent;0.04;letter181;0.05;0.07;fullmask;0.25;arrow_left.png;0.13;c;0.299113999994006;0.29921029999968596;254776.6454252;2.6999914553016424e-06;0.5020266000065021;0.5420403000025544;0.5542106000066269;0.6240259000041988;0.8035480999969877;1.0524159999913536;0;0;1;0;0.01
2;1;2;26;letter181;letter357;congruent;0.04;letter357;0.05;0.07;fullmask;0.25;arrow_right.png;0.13;m;0.3127540999848861;0.3210456999950111;254778.5893567;2.7999922167509794e-06;0.5001060999929905;0.5401506999915;0.5513124999997672;0.6219697999767959;0.801489399978891;1.070476900000358;0;0;1;0;0.01
2;1;2;27;letter181;letter357;congruent;0.04;letter357;0.05;0.07;fullmask;0.25;arrow_right.png;0.13;m;0.3286904999986291;0.33013680001022294;254780.5573894;2.4999899324029684e-06;0.49552789999870583;0.5355237000039779;0.5475495999853592;0.6173265999823343;0.796836199995596;1.0758789999817964;0;0;1;0;0.01
2;1;2;28;letter181;letter357;congruent;0.04;letter181;0.05;0.07;fullmask;0.25;arrow_left.png;0.13;c;0.3302819000091404;0.33106679999036714;254782.5093995;2.4999899324029684e-06;0.500733399996534;0.5407702999946196;0.5519444000092335;0.6226886000076775;0.8021200000075623;1.0811006000149064;0;0;1;0;0.01
2;1;2;29;letter181;letter357;congruent;0.04;letter357;0.05;0.07;fullmask;0.25;arrow_right.png;0.13;m;0.36819750000722706;0.3699703000020236;254784.5093836;2.500019036233425e-06;0.5029535999929067;0.5429707000148483;0.5549763000162784;0.6246573000098579;0.8051890000060666;1.1233583000139333;0;0;1;0;0.01
2;1;2;30;letter181;letter357;congruent;0.04;letter181;0.05;0.07;fullmask;0.25;arrow_left.png;0.13;c;0.2141637000022456;0.22039349999977276;254786.3658813;2.6999914553016424e-06;0.5027053999947384;0.5427131000033114;0.5539316000067629;0.6246553999953903;0.7743258000118658;0.7743278999987524;0;1;0;0;0.01
2;1;2;31;letter181;letter357;congruent;0.04;letter181;0.05;0.07;fullmask;0.25;arrow_left.png;0.13;c;0.29647770000156015;0.3001358000037726;254788.1094352;3.2999960239976645e-06;0.49672389999614097;0.5369055999908596;0.5481386999890674;0.6179294000030495;0.7983929000038188;1.0471375999914017;0;0;1;0;0.01
2;1;2;32;letter181;letter357;congruent;0.04;letter181;0.05;0.07;fullmask;0.25;arrow_left.png;0.13;c;0.25457810002262704;0.2593695000105072;254790.0293981;2.8999929782003164e-06;0.4982517999887932;0.5383045999915339;0.5502726999984588;0.6201777000096627;0.7995991999923717;1.00860410000314;0;0;1;0;0.01
2;1;2;33;letter181;letter357;congruent;0.04;letter181;0.05;0.07;fullmask;0.25;arrow_left.png;0.13;c;0.2672026999935042;0.2694996999925934;254792.0133823;2.8999929782003164e-06;0.5045621999888681;0.5446621000010055;0.5566881000122521;0.62670990001061;0.8062238999991678;1.0249226999876555;0;0;1;0;0.01
2;1;2;34;letter181;letter357;congruent;0.04;letter357;0.05;0.07;fullmask;0.25;arrow_right.png;0.13;m;0.36211920002824627;0.36998960000346415;254794.0293675;2.5999906938523054e-06;0.49656279999180697;0.5365805999899749;0.5485264000017196;0.6184217999980319;0.7987802999850828;1.117023099999642;0;0;1;0;0.01
2;1;2;35;letter181;letter357;congruent;0.04;letter357;0.05;0.07;fullmask;0.25;arrow_right.png;0.13;m;0.31560719999833964;0.32016820000717416;254796.0133859;3.200024366378784e-06;0.5040763000142761;0.5440821000083815;0.5552546000108123;0.6261070000182372;0.8056043999968097;1.0744371000037063;0;0;1;0;0.01
2;1;2;36;letter181;letter357;congruent;0.04;letter357;0.05;0.07;fullmask;0.25;arrow_right.png;0.13;m;0.30471540000871755;0.3106325000117067;254797.9738614;2.500019036233425e-06;0.5025345000030939;0.5426120000192896;0.553867500013439;0.6245092000172008;0.8039876999973785;1.0629004000220448;0;0;1;0;0.01
2;1;2;37;letter181;letter357;congruent;0.04;letter357;0.05;0.07;fullmask;0.25;arrow_right.png;0.13;m;0.32024899998214096;0.33011029998306185;254800.1416257;3.1999952625483274e-06;0.4965696999861393;0.5365849999943748;0.5487009999924339;0.6184198999835644;0.7988517999765463;1.076937799982261;0;0;1;0;0.01
2;1;2;38;letter181;letter357;congruent;0.04;letter357;0.05;0.07;fullmask;0.25;arrow_right.png;0.13;m;0.3373396999959368;0.33993349998490885;254802.1493588;2.4999899324029684e-06;0.5018062999879476;0.5418569000030402;0.5533317999797873;0.6239675999968313;0.8034426999802236;1.0922070999804419;0;0;1;0;0.01
2;1;2;39;letter181;letter357;congruent;0.04;letter181;0.05;0.07;fullmask;0.25;arrow_left.png;0.13;c;0.4094829999958165;0.4098373999877367;254804.2133944;2.6999914553016424e-06;0.49976569999125786;0.5397895000060089;0.5519002999935765;0.6216706999985036;0.8011865000007674;0.9318454000167549;0;0;0;1;0.01
2;1;2;40;letter181;letter357;congruent;0.04;letter181;0.05;0.07;fullmask;0.25;arrow_left.png;0.13;c;0.2386965999903623;0.24037489999318495;254805.8933691;2.900022082030773e-06;0.5021618000173476;0.5421662000007927;0.5538555000093766;0.6236340000177734;0.7942311000078917;0.7942332000238821;0;1;0;0;0.01
2;1;2;41;letter181;letter357;congruent;0.04;letter181;0.05;0.07;fullmask;0.25;arrow_left.png;0.13;c;0.28331209998577833;0.2902728999906685;254807.6294986;2.7999922167509794e-06;0.4984223000064958;0.5384429999976419;0.5505626999947708;0.6202503000095021;0.8007862000085879;1.0387674999947194;0;0;1;0;0.01
2;1;2;42;letter181;letter357;congruent;0.04;letter181;0.05;0.07;fullmask;0.25;arrow_left.png;0.13;c;0.2419567999895662;0.24939589999848977;254809.5092936;2.7999922167509794e-06;0.4963971999823116;0.5364210999978241;0.5484408999909647;0.618344899994554;0.7978360999841243;0.7978383000008762;0;1;0;0;0.01
2;1;2;43;letter181;letter357;congruent;0.04;letter181;0.05;0.07;fullmask;0.25;arrow_left.png;0.13;c;0.20678659999975935;0.2094552000053227;254811.1653234;2.600019797682762e-06;0.4955885000235867;0.5356019000173546;0.5477463999995962;0.6175222000165377;0.7572025000117719;0.7572045999986585;0;1;0;0;0.01
2;1;2;44;letter181;letter357;congruent;0.04;letter357;0.05;0.07;fullmask;0.25;arrow_right.png;0.13;m;0.25982129998737946;0.26932369999121875;254812.8693264;2.7999922167509794e-06;0.5045806999842171;0.5446081999980379;0.5566569999791682;0.6264577999827452;0.8069757999910507;1.0249171999748796;0;0;1;0;0.01
2;1;2;45;letter181;letter357;congruent;0.04;letter357;0.05;0.07;fullmask;0.25;arrow_right.png;0.13;m;0.25546010001562536;0.26034539999091066;254814.7654052;2.6999914553016424e-06;0.5002754000015557;0.540311799995834;0.5515679999953136;0.622238899988588;0.8017644999781623;1.0105993999750353;0;0;1;0;0.01
2;1;2;46;letter181;letter357;congruent;0.04;letter181;0.05;0.07;fullmask;0.25;arrow_left.png;0.13;c;0.28954739999608137;0.2902415999851655;254816.7013321;2.6999914553016424e-06;0.5005467000009958;0.5405718999973033;0.5524617999908514;0.6222336000064388;0.8027507000078913;1.040893600002164;0;0;1;0;0.01
2;1;2;47;letter181;letter357;congruent;0.04;letter357;0.05;0.07;fullmask;0.25;arrow_right.png;0.13;m;0.3041320999909658;0.31022179999854416;254818.6373365;2.7999922167509794e-06;0.49662479999824427;0.5366470999724697;0.5487272999889683;0.6186220999807119;0.7980525999737438;1.0569887999736238;0;0;1;0;0.01
2;1;2;48;letter181;letter357;congruent;0.04;letter357;0.05;0.07;fullmask;0.25;arrow_right.png;0.13;m;0.3373027999768965;0.3400023999856785;254820.6213332;2.800021320581436e-06;0.5030409000173677;0.5430543000111356;0.5547176999971271;0.6244768000033218;0.8049009999958798;1.0934278000204358;0;0;1;0;0.01
2;1;3;1;letter181;letter357;congruent;0.04;letter357;0.05;0.07;fullmask;0.2;arrow_right.png;0.13;m;0.37026979998336174;0.3711114999896381;254832.501382;2.4999899324029684e-06;0.5026147000025958;0.5426662999961991;0.5538091999769676;0.6247563999786507;0.7543170999852009;0.8849672999931499;0;0;0;1;0.01
2;1;3;2;letter181;letter357;congruent;0.04;letter181;0.05;0.07;fullmask;0.2;arrow_left.png;0.13;c;0.27209620000212453;0.2802488000015728;254834.2053064;2.6999914553016424e-06;0.4969839999976102;0.5369923999824096;0.5490724999981467;0.6188102999876719;0.7484747999988031;1.0273236999928486;0;0;1;0;0.01
2;1;3;3;letter181;letter357;congruent;0.04;letter357;0.05;0.07;fullmask;0.2;arrow_right.png;0.13;m;0.24486840001191013;0.24933980000787415;254836.1093081;2.4999899324029684e-06;0.5048268999962602;0.5448423999769147;0.5569096999824978;0.6266746000037529;0.756326699978672;1.0051488000026438;0;0;1;0;0.01
2;1;3;4;letter181;letter357;congruent;0.04;letter357;0.05;0.07;fullmask;0.2;arrow_right.png;0.13;m;0.25758249999489635;0.25924809998832643;254838.0132933;2.7999922167509794e-06;0.5007796999998391;0.5407984999765176;0.5529249999963213;0.6226386999769602;0.7523029999865685;1.0111096999899019;0;0;1;0;0.01
2;1;3;5;letter181;letter357;congruent;0.04;letter181;0.05;0.07;fullmask;0.2;arrow_left.png;0.13;c;0.24707179999677464;0.25034929998219013;254839.8932818;2.600019797682762e-06;0.49597820002236404;0.5359962999937125;0.5474033000064082;0.6171746000181884;0.747831100015901;0.9962898000085261;0;0;1;0;0.01
2;1;3;6;letter181;letter357;congruent;0.04;letter357;0.05;0.07;fullmask;0.2;arrow_right.png;0.13;m;0.2772795000055339;0.28026289999252185;254841.8053111;2.300017513334751e-06;0.5030503000016324;0.5430690000066534;0.555096299998695;0.6248680000135209;0.7545144000032451;1.0333702000207268;0;0;1;0;0.01
2;1;3;7;letter181;letter357;congruent;0.04;letter181;0.05;0.07;fullmask;0.2;arrow_left.png;0.13;c;0.2463786999869626;0.2503450999793131;254843.6852976;2.700020559132099e-06;0.4989376000012271;0.5389652000158094;0.5506411000096705;0.6204133999999613;0.7510677000100259;0.9992652000219095;0;0;1;0;0.01
2;1;3;8;letter181;letter357;congruent;0.04;letter357;0.05;0.07;fullmask;0.2;arrow_right.png;0.13;m;0.24364850000711158;0.25025410001398996;254845.5732935;3.00002284348011e-06;0.5005589000065811;0.5405728000041563;0.551772400009213;0.6225394000066444;0.7521027000038885;1.000899800012121;0;0;1;0;0.01
2;1;3;9;letter181;letter357;congruent;0.04;letter357;0.05;0.07;fullmask;0.2;arrow_right.png;0.13;m;0.28366809998988174;0.2902853999985382;254847.4853292;2.600019797682762e-06;0.49653060000855476;0.5365913000132423;0.5486012000183109;0.6185049000196159;0.7480732000258286;1.0369223000016063;0;0;1;0;0.01
2;1;3;10;letter181;letter357;congruent;0.04;letter181;0.05;0.07;fullmask;0.2;arrow_left.png;0.13;c;0.2753030000021681;0.28127279999898747;254849.3973414;2.5999906938523054e-06;0.49564080001437105;0.5356502000067849;0.5468037000100594;0.6174766999902204;0.7471285999927204;1.0259686000063084;0;0;1;0;0.01
2;1;3;11;letter181;letter357;congruent;0.04;letter181;0.05;0.07;fullmask;0.2;arrow_left.png;0.13;c;0.23352529999101534;0.23989379999693483;254851.2777223;2.500019036233425e-06;0.50042840000242;0.5404439000121783;0.5525307999923825;0.6222060000000056;0.7518723999965005;0.9907557000115048;0;0;1;0;0.01
2;1;3;12;letter181;letter357;congruent;0.04;letter181;0.05;0.07;fullmask;0.2;arrow_left.png;0.13;m;0.19391549998545088;0.19949040000210516;254853.1092893;2.5999906938523054e-06;0.4980181000137236;0.5380517000157852;0.5500887999951374;0.6198641000082716;0.7495801000040956;0.7495824999932665;0;1;0;0;0.01
2;1;3;13;letter181;letter357;congruent;0.04;letter357;0.05;0.07;fullmask;0.2;arrow_right.png;0.13;m;0.31367380000301637;0.32010040001478046;254854.8693511;2.4999899324029684e-06;0.49816349998582155;0.5381698999844957;0.5494758999848273;0.6201756999944337;0.7498315999982879;1.0685191999946255;0;0;1;0;0.01
2;1;3;14;letter181;letter357;congruent;0.04;letter357;0.05;0.07;fullmask;0.2;arrow_right.png;0.13;c;0.20451549999415874;0.21049940001103096;254856.7013001;2.4999899324029684e-06;0.5015749000012875;0.5415834999876097;0.5527477999858093;0.6236493999895174;0.7532135999936145;0.9618566999852192;0;0;1;0;0.01
2;1;3;15;letter181;letter357;congruent;0.04;letter181;0.05;0.07;fullmask;0.2;arrow_left.png;0.13;c;0.26655440000467934;0.2703821000177413;254858.6054182;2.800021320581436e-06;0.49574690000736155;0.5357690000091679;0.5478253000183031;0.6176122000033502;0.7472373000055086;1.016078100015875;0;0;1;0;0.01
2;1;3;16;letter181;letter357;congruent;0.04;letter181;0.05;0.07;fullmask;0.2;arrow_left.png;0.13;c;0.2952116000233218;0.2993713000032585;254860.525293;2.700020559132099e-06;0.4991879000153858;0.5391690999967977;0.5512728000176139;0.6211928999982774;0.7508486000006087;1.0495454000192694;0;0;1;0;0.01
2;1;3;17;letter181;letter357;congruent;0.04;letter181;0.05;0.07;fullmask;0.2;arrow_left.png;0.13;c;0.26797329998225905;0.2692916999803856;254862.4292852;2.600019797682762e-06;0.4989120000100229;0.5389538000163157;0.5509889000095427;0.6207555000146385;0.7504103000101168;1.019246900017606;0;0;1;0;0.01
2;1;3;18;letter181;letter357;congruent;0.04;letter181;0.05;0.07;fullmask;0.2;arrow_left.png;0.13;c;0.26275409999652766;0.27029380001476966;254864.3252807;2.900022082030773e-06;0.5012397000100464;0.5412536000076216;0.5533118000021204;0.6230803000216838;0.7527434000221547;1.0215680000255816;0;0;1;0;0.01
2;1;3;19;letter181;letter357;congruent;0.04;letter357;0.05;0.07;fullmask;0.2;arrow_right.png;0.13;m;0.27390179998474196;0.28029669998795725;254866.2374548;2.9999937396496534e-06;0.5015906000044197;0.5416205999790691;0.5534853999852203;0.6231456999958027;0.7538093999901321;1.0319460000027902;0;0;1;0;0.01
2;1;3;20;letter181;letter357;congruent;0.04;letter181;0.05;0.07;fullmask;0.2;arrow_left.png;0.13;c;0.2743205000006128;0.28026880000834353;254868.1492678;2.6999914553016424e-06;0.5007892999856267;0.5407814999925904;0.5528396999870893;0.6226146999979392;0.75226829998428;1.031137799989665;0;0;1;0;0.01
2;1;3;21;letter181;letter357;congruent;0.04;letter181;0.05;0.07;fullmask;0.2;arrow_left.png;0.13;c;0.28109760000370443;0.29023419998702593;254870.0773049;2.500019036233425e-06;0.49685610001324676;0.5368659000087064;0.5489099000114948;0.6186846000200603;0.7483376000018325;1.0371852000243962;0;0;1;0;0.01
2;1;3;22;letter181;letter357;congruent;0.04;letter357;0.05;0.07;fullmask;0.2;arrow_right.png;0.13;m;0.26978510001208633;0.2792691999929957;254871.9972759;2.6999914553016424e-06;0.4993914999940898;0.5394051999901421;0.5514966999762692;0.6212690999964252;0.7509247999987565;1.0297102999757044;0;0;1;0;0.01
2;1;3;23;letter181;letter357;congruent;0.04;letter357;0.05;0.07;fullmask;0.2;arrow_right.png;0.13;m;0.3005128000222612;0.310118000023067;254873.9492389;2.7999922167509794e-06;0.5047508999996353;0.544747300009476;0.5568571999901906;0.6265650000132155;0.7562206000147853;1.0651007000124082;0;0;1;0;0.01
2;1;3;24;letter181;letter357;congruent;0.04;letter357;0.05;0.07;fullmask;0.2;arrow_right.png;0.13;m;0.2613167999952566;0.269264500006102;254875.8613391;2.2999884095042944e-06;0.4961853999993764;0.5361982999893371;0.5483430000022054;0.6181742000044324;0.7477364999940619;1.016528100008145;0;0;1;0;0.01
2;1;3;25;letter181;letter357;congruent;0.04;letter357;0.05;0.07;fullmask;0.2;arrow_right.png;0.13;m;0.2660418000014033;0.26932369999121875;254877.757266;2.4999899324029684e-06;0.500096499978099;0.5401001999853179;0.5522365999931935;0.6212820999789983;0.7516891999985091;1.020427599985851;0;0;1;0;0.01
2;1;3;26;letter181;letter357;congruent;0.04;letter357;0.05;0.07;fullmask;0.2;arrow_right.png;0.13;m;0.22181249997811392;0.23030319999088533;254879.613314;2.4999899324029684e-06;0.49789729999611154;0.5379491999919992;0.5491113999742083;0.6200310999993235;0.7494361999852117;0.9782134999986738;0;0;1;0;0.01
2;1;3;27;letter181;letter357;congruent;0.04;letter357;0.05;0.07;fullmask;0.2;arrow_right.png;0.13;m;0.3099231999949552;0.3102303000050597;254881.573527;2.7999922167509794e-06;0.5049601999926381;0.5449586999893654;0.557050999981584;0.626747800008161;0.7563821999938227;1.065294600004563;0;0;1;0;0.01
2;1;3;28;letter181;letter357;congruent;0.04;letter181;0.05;0.07;fullmask;0.2;arrow_left.png;0.13;c;0.2884568000154104;0.2902415000135079;254883.4932705;2.6999914553016424e-06;0.49861979999695905;0.538645099994028;0.5506953000149224;0.6204685000120662;0.7501159000094049;1.0389774999930523;0;0;1;0;0.01
2;1;3;29;letter181;letter357;congruent;0.04;letter181;0.05;0.07;fullmask;0.2;arrow_left.png;0.13;c;0.24529620000976138;0.24934270000085235;254885.3813572;2.500019036233425e-06;0.4982797999982722;0.5382984000025317;0.5503638999944087;0.6201256999920588;0.749774099997012;0.9986109000165015;0;0;1;0;0.01
2;1;3;30;letter181;letter357;congruent;0.04;letter181;0.05;0.07;fullmask;0.2;arrow_left.png;0.13;c;0.24286369999754243;0.2503442000015639;254887.2692612;2.7999922167509794e-06;0.49877209999249317;0.5387913000013214;0.5499723000102676;0.6207427000044845;0.7503885000187438;0.9990815999917686;0;0;1;0;0.01
2;1;3;31;letter181;letter357;congruent;0.04;letter181;0.05;0.07;fullmask;0.2;arrow_left.png;0.13;c;0.264717699988978;0.27021220000460744;254889.1732623;2.9999937396496534e-06;0.5003073000116274;0.5403061000106391;0.5524390999926254;0.6221468000148889;0.7517802999936976;1.0206268999900203;0;0;1;0;0.01
2;1;3;32;letter181;letter357;congruent;0.04;letter181;0.05;0.07;fullmask;0.2;arrow_left.png;0.13;c;0.2196088999917265;0.22939909997512586;254891.0292516;2.600019797682762e-06;0.5000896000128705;0.5401172999991104;0.5521132000139914;0.6218800999922678;0.7515348000160884;0.9803828000149224;0;0;1;0;0.01
2;1;3;33;letter181;letter357;congruent;0.04;letter357;0.05;0.07;fullmask;0.2;arrow_right.png;0.13;m;0.3584477999829687;0.36004919998231344;254893.0292767;2.7999922167509794e-06;0.49939380001160316;0.5394136999966577;0.5514045000018086;0.6211728999915067;0.750834800011944;0.8814736999920569;0;0;0;1;0.01
2;1;3;34;letter181;letter357;congruent;0.04;letter357;0.05;0.07;fullmask;0.2;arrow_right.png;0.13;c;0.2551654000126291;0.2592880000011064;254894.7172555;2.9999937396496534e-06;0.4983465000113938;0.5383872000093106;0.5504774000146426;0.6202517000201624;0.7499073000217322;1.0086683999979869;0;0;1;0;0.01
2;1;3;35;letter181;letter357;congruent;0.04;letter181;0.05;0.07;fullmask;0.2;arrow_left.png;0.13;c;0.2757768000010401;0.2801529999997001;254896.6292571;2.3999891709536314e-06;0.49593069998081774;0.5359526999818627;0.5482389999961015;0.6178166999889072;0.7474277000001166;1.026268399989931;0;0;1;0;0.01
2;1;3;36;letter181;letter357;congruent;0.04;letter357;0.05;0.07;fullmask;0.2;arrow_right.png;0.13;m;0.2710998000111431;0.2802032000035979;254898.5253074;2.5999906938523054e-06;0.4990133999963291;0.539002299978165;0.5508039999986067;0.6205035999882966;0.7511297999881208;1.0293292999849655;0;0;1;0;0.01
2;1;3;37;letter181;letter357;congruent;0.04;letter357;0.05;0.07;fullmask;0.2;arrow_right.png;0.13;m;0.25547699999879114;0.259326700004749;254900.4212481;2.600019797682762e-06;0.4993088000046555;0.5393025999946985;0.5514345999981742;0.621212199999718;0.750858799990965;1.0096087999991141;0;0;1;0;0.01
2;1;3;38;letter181;letter357;congruent;0.04;letter181;0.05;0.07;fullmask;0.2;arrow_left.png;0.13;m;0.22894510001060553;0.23040130001027137;254902.2852646;2.7999922167509794e-06;0.495858300011605;0.5358718000061344;0.5473412999999709;0.617113700020127;0.7477667000202928;0.9761715000204276;0;0;1;0;0.01
2;1;3;39;letter181;letter357;congruent;0.04;letter181;0.05;0.07;fullmask;0.2;arrow_left.png;0.13;c;0.3101166999840643;0.3111510000017006;254904.2374199;2.5999906938523054e-06;0.5006357999809552;0.5406626999902073;0.5518979000044055;0.6225102999887895;0.7521828000026289;1.0609898999973666;0;0;1;0;0.01
2;1;3;40;letter181;letter357;congruent;0.04;letter357;0.05;0.07;fullmask;0.2;arrow_right.png;0.13;m;0.28000220001558773;0.2803055999975186;254906.1494745;2.6999914553016424e-06;0.4952654000080656;0.5352865000022575;0.5474590999947395;0.617166099982569;0.7468226999917533;1.0256100999831688;0;0;1;0;0.01
2;1;3;41;letter181;letter357;congruent;0.04;letter181;0.05;0.07;fullmask;0.2;arrow_left.png;0.13;c;0.295265599997947;0.30021089999354444;254908.0852834;2.8999929782003164e-06;0.497438799997326;0.5374588000122458;0.5489411999878939;0.6187134000065271;0.7493581000017002;1.0477909999899566;0;0;1;0;0.01
2;1;3;42;letter181;letter357;congruent;0.04;letter357;0.05;0.07;fullmask;0.2;arrow_right.png;0.13;m;0.29023569999844767;0.3002146999933757;254910.021381;2.800021320581436e-06;0.4981421000265982;0.5381662000145297;0.5495243000041228;0.6202929000137374;0.7499463999993168;1.0484907000209205;0;0;1;0;0.01
2;1;3;43;letter181;letter357;congruent;0.04;letter357;0.05;0.07;fullmask;0.2;arrow_right.png;0.13;m;0.27812569998786785;0.2793122000002768;254911.9412676;2.7999922167509794e-06;0.49733079998986796;0.5373537999985274;0.5494724000163842;0.6193725999910384;0.74894220000715;1.0276674999913666;0;0;1;0;0.01
2;1;3;44;letter181;letter357;congruent;0.04;letter357;0.05;0.07;fullmask;0.2;arrow_right.png;0.13;m;0.2771471999876667;0.2804156999918632;254913.8613201;2.700020559132099e-06;0.5015041000151541;0.5415303000190761;0.553445700003067;0.6233629000198562;0.752897500002291;1.0318450000195298;0;0;1;0;0.01
2;1;3;45;letter181;letter357;congruent;0.04;letter181;0.05;0.07;fullmask;0.2;arrow_left.png;0.13;c;0.3225228000083007;0.3311771000153385;254915.8371997;2.8999929782003164e-06;0.5047210000047926;0.5447699000069406;0.5559539000096265;0.6268551000102889;0.7564214000012726;1.085124100005487;0;0;1;0;0.01
2;1;3;46;letter181;letter357;congruent;0.04;letter181;0.05;0.07;fullmask;0.2;arrow_left.png;0.13;c;0.2245501000143122;0.2293964000127744;254917.7012378;2.5999906938523054e-06;0.49787279998417944;0.5378595000074711;0.5498229000077117;0.619591800001217;0.7492461999936495;0.978180899983272;0;0;1;0;0.01
2;1;3;47;letter181;letter357;congruent;0.04;letter357;0.05;0.07;fullmask;0.2;arrow_right.png;0.13;c;0.20960410000407137;0.21060029999352992;254919.5573104;2.4999899324029684e-06;0.4953107000037562;0.5353365000046324;0.5470865000097547;0.6169891000026837;0.7475606999942102;0.9556048999947961;0;0;1;0;0.01
2;1;3;48;letter181;letter357;congruent;0.04;letter181;0.05;0.07;fullmask;0.2;arrow_left.png;0.13;c;0.28213849998428486;0.2902750999783166;254921.5014328;2.4999899324029684e-06;0.5023743999772705;0.5424050999863539;0.554536299983738;0.6242137999797706;0.753891999978805;1.0427342999901157;0;0;1;0;0.01
