date	time	script.currenttime	script.elapsedtime	build	script.currentexpt	subject	expressions.LRpleas_acq	expressions.SameOppo	expressions.condition_Lpleas	expressions.ABmasked	expressions.conditionCS_A	expressions.condition_1pleas	expressions.condition_distractor_AMP	expressions.AWACON_AMPEVA_first	trialcode	blockcode	blocknum	trialnum	windowcenter	inwindow	pretrialpause	posttrialpause	trialduration	trialtimeout	latency	response	expressions.correctedscore	correct	values.vis_performance	values.vis_rating_sum	values.vis_rating_mean	stimulusnumber1	stimulusitem1	stimulusonset1	stimulusnumber2	stimulusitem2	stimulusonset2	stimulusnumber3	stimulusitem3	stimulusonset3	stimulusnumber4	stimulusitem4	stimulusonset4	stimulusnumber5	stimulusitem5	stimulusonset5	stimulusnumber6	stimulusitem6	stimulusonset6	stimulusnumber7	stimulusitem7	stimulusonset7	stimulusnumber8	stimulusitem8	stimulusonset8	stimulusnumber9	stimulusitem9	stimulusonset9	stimulusnumber10	stimulusitem10	stimulusonset10	stimulusnumber11	stimulusitem11	stimulusonset11	stimulusnumber12	stimulusitem12	stimulusonset12	stimulusnumber13	stimulusitem13	stimulusonset13	stimulusnumber14	stimulusitem14	stimulusonset14	stimulusnumber15	stimulusitem15	stimulusonset15	stimulusnumber16	stimulusitem16	stimulusonset16	stimulusnumber17	stimulusitem17	stimulusonset17	stimulusnumber18	stimulusitem18	stimulusonset18
020619	10:58:24	11:00:16	109807	5.0.10.0	4_exp_AMP_EVA_AWA_CON	108	Rpleas_acq	Same	Rpleas	Bmasked	CS_B	1pleas	distractor1	EVAbeforeCON	acq_US_unple_masked	acq1_masked	1	1	0	0	300	300	0	0	891	46	0	1	0	0	0	1	blank2r.bmp	0	1	+	0	6	C2r.bmp	492	1	blank2r.bmp	786	1	GKQX	786	1	blank2r.bmp	866	4	tot	866	0	0	0	0	0	0	0	0	0	0	0	0	0	0	0	0	0	0	0	0	0	0	0	0	0	0	0	0	0	0	0	0	0
020619	10:58:24	11:00:18	111966	5.0.10.0	4_exp_AMP_EVA_AWA_CON	108	Rpleas_acq	Same	Rpleas	Bmasked	CS_B	1pleas	distractor1	EVAbeforeCON	acq_new_unple_masked	acq1_masked	1	2	0	0	300	300	0	0	468	50	0	0	0	0	0	1	blank2r.bmp	0	1	+	0	1	B1r.bmp	492	1	blank2r.bmp	786	3	B3r.bmp	786	1	blank2r.bmp	866	2	strafen	866	1	FEHLER	1372	0	0	0	0	0	0	0	0	0	0	0	0	0	0	0	0	0	0	0	0	0	0	0	0	0	0	0	0	0	0
020619	10:58:24	11:00:20	113752	5.0.10.0	4_exp_AMP_EVA_AWA_CON	108	Rpleas_acq	Same	Rpleas	Bmasked	CS_B	1pleas	distractor1	EVAbeforeCON	acq_new_pleas_masked	acq1_masked	1	3	0	0	300	300	0	0	514	50	0	1	0	0	0	1	blank2r.bmp	0	1	+	0	4	B4r.bmp	492	1	blank2r.bmp	786	7	C3r.bmp	786	1	blank2r.bmp	866	2	spielen	866	0	0	0	0	0	0	0	0	0	0	0	0	0	0	0	0	0	0	0	0	0	0	0	0	0	0	0	0	0	0	0	0	0
020619	10:58:24	11:00:22	115671	5.0.10.0	4_exp_AMP_EVA_AWA_CON	108	Rpleas_acq	Same	Rpleas	Bmasked	CS_B	1pleas	distractor1	EVAbeforeCON	acq_US_pleas_masked	acq1_masked	1	4	0	0	300	300	0	0	429	50	0	1	0	0	0	1	blank2r.bmp	0	1	+	0	3	B3r.bmp	492	1	blank2r.bmp	786	1	BMVZ	786	1	blank2r.bmp	866	1	freundlich	866	0	0	0	0	0	0	0	0	0	0	0	0	0	0	0	0	0	0	0	0	0	0	0	0	0	0	0	0	0	0	0	0	0
020619	10:58:24	11:00:24	117897	5.0.10.0	4_exp_AMP_EVA_AWA_CON	108	Rpleas_acq	Same	Rpleas	Bmasked	CS_B	1pleas	distractor1	EVAbeforeCON	acq_US_unple_masked	acq1_masked	1	5	0	0	300	300	0	0	518	50	0	0	0	0	0	1	blank2r.bmp	0	1	+	0	7	C3r.bmp	492	1	blank2r.bmp	786	1	GKQX	786	1	blank2r.bmp	866	3	lasch	866	1	FEHLER	1426	0	0	0	0	0	0	0	0	0	0	0	0	0	0	0	0	0	0	0	0	0	0	0	0	0	0	0	0	0	0
020619	10:58:24	11:00:26	119710	5.0.10.0	4_exp_AMP_EVA_AWA_CON	108	Rpleas_acq	Same	Rpleas	Bmasked	CS_B	1pleas	distractor1	EVAbeforeCON	acq_new_unple_masked	acq1_masked	1	6	0	0	300	300	0	0	545	46	0	1	0	0	0	1	blank2r.bmp	0	1	+	0	5	C1r.bmp	492	1	blank2r.bmp	786	2	B2r.bmp	786	1	blank2r.bmp	866	3	schroff	866	0	0	0	0	0	0	0	0	0	0	0	0	0	0	0	0	0	0	0	0	0	0	0	0	0	0	0	0	0	0	0	0	0
020619	10:58:24	11:00:28	121735	5.0.10.0	4_exp_AMP_EVA_AWA_CON	108	Rpleas_acq	Same	Rpleas	Bmasked	CS_B	1pleas	distractor1	EVAbeforeCON	acq_US_pleas_masked	acq1_masked	1	7	0	0	300	300	0	0	541	50	0	1	0	0	0	1	blank2r.bmp	0	1	+	0	8	C4r.bmp	492	1	blank2r.bmp	786	1	BMVZ	786	1	blank2r.bmp	866	2	ehrlich	866	0	0	0	0	0	0	0	0	0	0	0	0	0	0	0	0	0	0	0	0	0	0	0	0	0	0	0	0	0	0	0	0	0
020619	10:58:24	11:00:30	123655	5.0.10.0	4_exp_AMP_EVA_AWA_CON	108	Rpleas_acq	Same	Rpleas	Bmasked	CS_B	1pleas	distractor1	EVAbeforeCON	acq_new_unple_masked	acq1_masked	1	8	0	0	300	300	0	0	436	46	0	1	0	0	0	1	blank2r.bmp	0	1	+	0	2	B2r.bmp	492	1	blank2r.bmp	786	5	C1r.bmp	786	1	blank2r.bmp	866	1	leiden	866	0	0	0	0	0	0	0	0	0	0	0	0	0	0	0	0	0	0	0	0	0	0	0	0	0	0	0	0	0	0	0	0	0
020619	10:58:24	11:00:32	125627	5.0.10.0	4_exp_AMP_EVA_AWA_CON	108	Rpleas_acq	Same	Rpleas	Bmasked	CS_B	1pleas	distractor1	EVAbeforeCON	acq_US_unple_masked	acq1_masked	1	9	0	0	300	300	0	0	489	46	0	1	0	0	0	1	blank2r.bmp	0	1	+	0	3	B3r.bmp	492	1	blank2r.bmp	786	1	GKQX	786	1	blank2r.bmp	866	6	tyrannisch	866	0	0	0	0	0	0	0	0	0	0	0	0	0	0	0	0	0	0	0	0	0	0	0	0	0	0	0	0	0	0	0	0	0
020619	10:58:24	11:00:34	127600	5.0.10.0	4_exp_AMP_EVA_AWA_CON	108	Rpleas_acq	Same	Rpleas	Bmasked	CS_B	1pleas	distractor1	EVAbeforeCON	acq_new_pleas_masked	acq1_masked	1	10	0	0	300	300	0	0	483	50	0	1	0	0	0	1	blank2r.bmp	0	1	+	0	8	C4r.bmp	492	1	blank2r.bmp	786	4	B4r.bmp	786	1	blank2r.bmp	866	5	fair	866	0	0	0	0	0	0	0	0	0	0	0	0	0	0	0	0	0	0	0	0	0	0	0	0	0	0	0	0	0	0	0	0	0
020619	10:58:24	11:00:36	129586	5.0.10.0	4_exp_AMP_EVA_AWA_CON	108	Rpleas_acq	Same	Rpleas	Bmasked	CS_B	1pleas	distractor1	EVAbeforeCON	acq_new_pleas_masked	acq1_masked	1	11	0	0	300	300	0	0	501	50	0	1	0	0	0	1	blank2r.bmp	0	1	+	0	4	B4r.bmp	492	1	blank2r.bmp	786	8	C4r.bmp	786	1	blank2r.bmp	866	4	schön	866	0	0	0	0	0	0	0	0	0	0	0	0	0	0	0	0	0	0	0	0	0	0	0	0	0	0	0	0	0	0	0	0	0
020619	10:58:24	11:00:38	131545	5.0.10.0	4_exp_AMP_EVA_AWA_CON	108	Rpleas_acq	Same	Rpleas	Bmasked	CS_B	1pleas	distractor1	EVAbeforeCON	acq_US_pleas_masked	acq1_masked	1	12	0	0	300	300	0	0	473	50	0	1	0	0	0	1	blank2r.bmp	0	1	+	0	5	C1r.bmp	492	1	blank2r.bmp	786	1	BMVZ	786	1	blank2r.bmp	866	6	tolerant	866	0	0	0	0	0	0	0	0	0	0	0	0	0	0	0	0	0	0	0	0	0	0	0	0	0	0	0	0	0	0	0	0	0
020619	10:58:24	11:00:40	133451	5.0.10.0	4_exp_AMP_EVA_AWA_CON	108	Rpleas_acq	Same	Rpleas	Bmasked	CS_B	1pleas	distractor1	EVAbeforeCON	acq_new_pleas_masked	acq1_masked	1	13	0	0	300	300	0	0	414	50	0	1	0	0	0	1	blank2r.bmp	0	1	+	0	7	C3r.bmp	492	1	blank2r.bmp	786	6	C2r.bmp	786	1	blank2r.bmp	866	3	schlau	866	0	0	0	0	0	0	0	0	0	0	0	0	0	0	0	0	0	0	0	0	0	0	0	0	0	0	0	0	0	0	0	0	0
020619	10:58:24	11:00:42	135330	5.0.10.0	4_exp_AMP_EVA_AWA_CON	108	Rpleas_acq	Same	Rpleas	Bmasked	CS_B	1pleas	distractor1	EVAbeforeCON	acq_new_unple_masked	acq1_masked	1	14	0	0	300	300	0	0	410	46	0	1	0	0	0	1	blank2r.bmp	0	1	+	0	1	B1r.bmp	492	1	blank2r.bmp	786	1	B1r.bmp	786	1	blank2r.bmp	866	5	faul	866	0	0	0	0	0	0	0	0	0	0	0	0	0	0	0	0	0	0	0	0	0	0	0	0	0	0	0	0	0	0	0	0	0
020619	10:58:24	11:00:44	137289	5.0.10.0	4_exp_AMP_EVA_AWA_CON	108	Rpleas_acq	Same	Rpleas	Bmasked	CS_B	1pleas	distractor1	EVAbeforeCON	acq_US_pleas_masked	acq1_masked	1	15	0	0	300	300	0	0	468	50	0	1	0	0	0	1	blank2r.bmp	0	1	+	0	6	C2r.bmp	492	1	blank2r.bmp	786	1	BMVZ	786	1	blank2r.bmp	866	4	treu	866	0	0	0	0	0	0	0	0	0	0	0	0	0	0	0	0	0	0	0	0	0	0	0	0	0	0	0	0	0	0	0	0	0
020619	10:58:24	11:00:45	139222	5.0.10.0	4_exp_AMP_EVA_AWA_CON	108	Rpleas_acq	Same	Rpleas	Bmasked	CS_B	1pleas	distractor1	EVAbeforeCON	acq_new_pleas_masked	acq1_masked	1	16	0	0	300	300	0	0	444	50	0	1	0	0	0	1	blank2r.bmp	0	1	+	0	2	B2r.bmp	492	1	blank2r.bmp	786	8	C4r.bmp	786	1	blank2r.bmp	866	6	helfen	866	0	0	0	0	0	0	0	0	0	0	0	0	0	0	0	0	0	0	0	0	0	0	0	0	0	0	0	0	0	0	0	0	0
020619	10:58:24	11:00:47	141074	5.0.10.0	4_exp_AMP_EVA_AWA_CON	108	Rpleas_acq	Same	Rpleas	Bmasked	CS_B	1pleas	distractor1	EVAbeforeCON	acq_new_unple_masked	acq1_masked	1	17	0	0	300	300	0	0	367	46	0	1	0	0	0	1	blank2r.bmp	0	1	+	0	8	C4r.bmp	492	1	blank2r.bmp	786	6	C2r.bmp	786	1	blank2r.bmp	866	4	schlecht	866	0	0	0	0	0	0	0	0	0	0	0	0	0	0	0	0	0	0	0	0	0	0	0	0	0	0	0	0	0	0	0	0	0
020619	10:58:24	11:00:49	143287	5.0.10.0	4_exp_AMP_EVA_AWA_CON	108	Rpleas_acq	Same	Rpleas	Bmasked	CS_B	1pleas	distractor1	EVAbeforeCON	acq_US_unple_masked	acq1_masked	1	18	0	0	300	300	0	0	515	50	0	0	0	0	0	1	blank2r.bmp	0	1	+	0	4	B4r.bmp	492	1	blank2r.bmp	786	1	GKQX	786	1	blank2r.bmp	866	2	eitel	866	1	FEHLER	1412	0	0	0	0	0	0	0	0	0	0	0	0	0	0	0	0	0	0	0	0	0	0	0	0	0	0	0	0	0	0
020619	10:58:24	11:00:52	145299	5.0.10.0	4_exp_AMP_EVA_AWA_CON	108	Rpleas_acq	Same	Rpleas	Bmasked	CS_B	1pleas	distractor1	EVAbeforeCON	acq_new_unple_masked	acq1_masked	1	19	0	0	300	300	0	0	741	46	0	1	0	0	0	1	blank2r.bmp	0	1	+	0	3	B3r.bmp	492	1	blank2r.bmp	786	7	C3r.bmp	786	1	blank2r.bmp	866	6	hindern	866	0	0	0	0	0	0	0	0	0	0	0	0	0	0	0	0	0	0	0	0	0	0	0	0	0	0	0	0	0	0	0	0	0
020619	10:58:24	11:00:54	147485	5.0.10.0	4_exp_AMP_EVA_AWA_CON	108	Rpleas_acq	Same	Rpleas	Bmasked	CS_B	1pleas	distractor1	EVAbeforeCON	acq_US_unple_masked	acq1_masked	1	20	0	0	300	300	0	0	499	50	0	0	0	0	0	1	blank2r.bmp	0	1	+	0	5	C1r.bmp	492	1	blank2r.bmp	786	1	GKQX	786	1	blank2r.bmp	866	1	fanatisch	866	1	FEHLER	1399	0	0	0	0	0	0	0	0	0	0	0	0	0	0	0	0	0	0	0	0	0	0	0	0	0	0	0	0	0	0
020619	10:58:24	11:00:56	149337	5.0.10.0	4_exp_AMP_EVA_AWA_CON	108	Rpleas_acq	Same	Rpleas	Bmasked	CS_B	1pleas	distractor1	EVAbeforeCON	acq_US_unple_masked	acq1_masked	1	21	0	0	300	300	0	0	580	46	0	1	0	0	0	1	blank2r.bmp	0	1	+	0	2	B2r.bmp	492	1	blank2r.bmp	786	1	GKQX	786	1	blank2r.bmp	866	5	rächen	866	0	0	0	0	0	0	0	0	0	0	0	0	0	0	0	0	0	0	0	0	0	0	0	0	0	0	0	0	0	0	0	0	0
020619	10:58:24	11:00:57	151230	5.0.10.0	4_exp_AMP_EVA_AWA_CON	108	Rpleas_acq	Same	Rpleas	Bmasked	CS_B	1pleas	distractor1	EVAbeforeCON	acq_US_pleas_masked	acq1_masked	1	22	0	0	300	300	0	0	416	50	0	1	0	0	0	1	blank2r.bmp	0	1	+	0	7	C3r.bmp	492	1	blank2r.bmp	786	1	BMVZ	786	1	blank2r.bmp	866	5	retten	866	0	0	0	0	0	0	0	0	0	0	0	0	0	0	0	0	0	0	0	0	0	0	0	0	0	0	0	0	0	0	0	0	0
020619	10:58:24	11:00:59	153216	5.0.10.0	4_exp_AMP_EVA_AWA_CON	108	Rpleas_acq	Same	Rpleas	Bmasked	CS_B	1pleas	distractor1	EVAbeforeCON	acq_US_pleas_masked	acq1_masked	1	23	0	0	300	300	0	0	516	50	0	1	0	0	0	1	blank2r.bmp	0	1	+	0	6	C2r.bmp	492	1	blank2r.bmp	786	1	BMVZ	786	1	blank2r.bmp	866	3	loyal	866	0	0	0	0	0	0	0	0	0	0	0	0	0	0	0	0	0	0	0	0	0	0	0	0	0	0	0	0	0	0	0	0	0
020619	10:58:24	11:01:01	155148	5.0.10.0	4_exp_AMP_EVA_AWA_CON	108	Rpleas_acq	Same	Rpleas	Bmasked	CS_B	1pleas	distractor1	EVAbeforeCON	acq_new_pleas_masked	acq1_masked	1	24	0	0	300	300	0	0	444	50	0	1	0	0	0	1	blank2r.bmp	0	1	+	0	1	B1r.bmp	492	1	blank2r.bmp	786	4	B4r.bmp	786	1	blank2r.bmp	866	1	lachen	866	0	0	0	0	0	0	0	0	0	0	0	0	0	0	0	0	0	0	0	0	0	0	0	0	0	0	0	0	0	0	0	0	0
020619	10:58:24	11:01:03	157001	5.0.10.0	4_exp_AMP_EVA_AWA_CON	108	Rpleas_acq	Same	Rpleas	Bmasked	CS_B	1pleas	distractor1	EVAbeforeCON	acq_new_unple_masked	acq1_masked	1	25	0	0	300	300	0	0	369	46	0	1	0	0	0	1	blank2r.bmp	0	1	+	0	3	B3r.bmp	492	1	blank2r.bmp	786	1	B1r.bmp	786	1	blank2r.bmp	866	1	leiden	866	0	0	0	0	0	0	0	0	0	0	0	0	0	0	0	0	0	0	0	0	0	0	0	0	0	0	0	0	0	0	0	0	0
020619	10:58:24	11:01:05	159080	5.0.10.0	4_exp_AMP_EVA_AWA_CON	108	Rpleas_acq	Same	Rpleas	Bmasked	CS_B	1pleas	distractor1	EVAbeforeCON	acq_US_unple_masked	acq1_masked	1	26	0	0	300	300	0	0	595	46	0	1	0	0	0	1	blank2r.bmp	0	1	+	0	1	B1r.bmp	492	1	blank2r.bmp	786	1	GKQX	786	1	blank2r.bmp	866	5	rächen	866	0	0	0	0	0	0	0	0	0	0	0	0	0	0	0	0	0	0	0	0	0	0	0	0	0	0	0	0	0	0	0	0	0
020619	10:58:24	11:01:07	161079	5.0.10.0	4_exp_AMP_EVA_AWA_CON	108	Rpleas_acq	Same	Rpleas	Bmasked	CS_B	1pleas	distractor1	EVAbeforeCON	acq_US_pleas_masked	acq1_masked	1	27	0	0	300	300	0	0	507	50	0	1	0	0	0	1	blank2r.bmp	0	1	+	0	6	C2r.bmp	492	1	blank2r.bmp	786	1	BMVZ	786	1	blank2r.bmp	866	4	treu	866	0	0	0	0	0	0	0	0	0	0	0	0	0	0	0	0	0	0	0	0	0	0	0	0	0	0	0	0	0	0	0	0	0
020619	10:58:24	11:01:09	162972	5.0.10.0	4_exp_AMP_EVA_AWA_CON	108	Rpleas_acq	Same	Rpleas	Bmasked	CS_B	1pleas	distractor1	EVAbeforeCON	acq_new_pleas_masked	acq1_masked	1	28	0	0	300	300	0	0	411	50	0	1	0	0	0	1	blank2r.bmp	0	1	+	0	5	C1r.bmp	492	1	blank2r.bmp	786	3	B3r.bmp	786	1	blank2r.bmp	866	1	lachen	866	0	0	0	0	0	0	0	0	0	0	0	0	0	0	0	0	0	0	0	0	0	0	0	0	0	0	0	0	0	0	0	0	0
020619	10:58:24	11:01:11	164891	5.0.10.0	4_exp_AMP_EVA_AWA_CON	108	Rpleas_acq	Same	Rpleas	Bmasked	CS_B	1pleas	distractor1	EVAbeforeCON	acq_US_pleas_masked	acq1_masked	1	29	0	0	300	300	0	0	414	50	0	1	0	0	0	1	blank2r.bmp	0	1	+	0	8	C4r.bmp	492	1	blank2r.bmp	786	1	BMVZ	786	1	blank2r.bmp	866	2	ehrlich	866	0	0	0	0	0	0	0	0	0	0	0	0	0	0	0	0	0	0	0	0	0	0	0	0	0	0	0	0	0	0	0	0	0
020619	10:58:24	11:01:13	166744	5.0.10.0	4_exp_AMP_EVA_AWA_CON	108	Rpleas_acq	Same	Rpleas	Bmasked	CS_B	1pleas	distractor1	EVAbeforeCON	acq_new_unple_masked	acq1_masked	1	30	0	0	300	300	0	0	372	46	0	1	0	0	0	1	blank2r.bmp	0	1	+	0	7	C3r.bmp	492	1	blank2r.bmp	786	5	C1r.bmp	786	1	blank2r.bmp	866	4	schlecht	866	0	0	0	0	0	0	0	0	0	0	0	0	0	0	0	0	0	0	0	0	0	0	0	0	0	0	0	0	0	0	0	0	0
020619	10:58:24	11:01:15	168809	5.0.10.0	4_exp_AMP_EVA_AWA_CON	108	Rpleas_acq	Same	Rpleas	Bmasked	CS_B	1pleas	distractor1	EVAbeforeCON	acq_US_unple_masked	acq1_masked	1	31	0	0	300	300	0	0	367	50	0	0	0	0	0	1	blank2r.bmp	0	1	+	0	4	B4r.bmp	492	1	blank2r.bmp	786	1	GKQX	786	1	blank2r.bmp	866	3	lasch	866	1	FEHLER	1266	0	0	0	0	0	0	0	0	0	0	0	0	0	0	0	0	0	0	0	0	0	0	0	0	0	0	0	0	0	0
020619	10:58:24	11:01:17	170502	5.0.10.0	4_exp_AMP_EVA_AWA_CON	108	Rpleas_acq	Same	Rpleas	Bmasked	CS_B	1pleas	distractor1	EVAbeforeCON	acq_US_unple_masked	acq1_masked	1	32	0	0	300	300	0	0	420	46	0	1	0	0	0	1	blank2r.bmp	0	1	+	0	2	B2r.bmp	492	1	blank2r.bmp	786	1	GKQX	786	1	blank2r.bmp	866	4	tot	866	0	0	0	0	0	0	0	0	0	0	0	0	0	0	0	0	0	0	0	0	0	0	0	0	0	0	0	0	0	0	0	0	0
020619	10:58:24	11:01:19	172355	5.0.10.0	4_exp_AMP_EVA_AWA_CON	108	Rpleas_acq	Same	Rpleas	Bmasked	CS_B	1pleas	distractor1	EVAbeforeCON	acq_US_pleas_masked	acq1_masked	1	33	0	0	300	300	0	0	360	50	0	1	0	0	0	1	blank2r.bmp	0	1	+	0	2	B2r.bmp	492	1	blank2r.bmp	786	1	BMVZ	786	1	blank2r.bmp	866	1	freundlich	866	0	0	0	0	0	0	0	0	0	0	0	0	0	0	0	0	0	0	0	0	0	0	0	0	0	0	0	0	0	0	0	0	0
020619	10:58:24	11:01:20	174260	5.0.10.0	4_exp_AMP_EVA_AWA_CON	108	Rpleas_acq	Same	Rpleas	Bmasked	CS_B	1pleas	distractor1	EVAbeforeCON	acq_new_pleas_masked	acq1_masked	1	34	0	0	300	300	0	0	432	50	0	1	0	0	0	1	blank2r.bmp	0	1	+	0	6	C2r.bmp	492	1	blank2r.bmp	786	2	B2r.bmp	786	1	blank2r.bmp	866	6	helfen	866	0	0	0	0	0	0	0	0	0	0	0	0	0	0	0	0	0	0	0	0	0	0	0	0	0	0	0	0	0	0	0	0	0
020619	10:58:24	11:01:22	176126	5.0.10.0	4_exp_AMP_EVA_AWA_CON	108	Rpleas_acq	Same	Rpleas	Bmasked	CS_B	1pleas	distractor1	EVAbeforeCON	acq_new_pleas_masked	acq1_masked	1	35	0	0	300	300	0	0	375	50	0	1	0	0	0	1	blank2r.bmp	0	1	+	0	3	B3r.bmp	492	1	blank2r.bmp	786	4	B4r.bmp	786	1	blank2r.bmp	866	4	schön	866	0	0	0	0	0	0	0	0	0	0	0	0	0	0	0	0	0	0	0	0	0	0	0	0	0	0	0	0	0	0	0	0	0
020619	10:58:24	11:01:24	177952	5.0.10.0	4_exp_AMP_EVA_AWA_CON	108	Rpleas_acq	Same	Rpleas	Bmasked	CS_B	1pleas	distractor1	EVAbeforeCON	acq_new_unple_masked	acq1_masked	1	36	0	0	300	300	0	0	357	46	0	1	0	0	0	1	blank2r.bmp	0	1	+	0	4	B4r.bmp	492	1	blank2r.bmp	786	7	C3r.bmp	786	1	blank2r.bmp	866	2	strafen	866	0	0	0	0	0	0	0	0	0	0	0	0	0	0	0	0	0	0	0	0	0	0	0	0	0	0	0	0	0	0	0	0	0
020619	10:58:24	11:01:56	209739	5.0.10.0	4_exp_AMP_EVA_AWA_CON	108	Rpleas_acq	Same	Rpleas	Bmasked	CS_B	1pleas	distractor1	EVAbeforeCON	acq_US_unple_masked	acq2_masked	2	1	480	0	300	300	0	0	729	46	0	1	0	0	0	1	blank2r.bmp	0	1	+	0	7	C3r.bmp	492	1	blank2r.bmp	786	1	GKQX	786	1	blank2r.bmp	866	1	fanatisch	866	1	!	1319	1	!	-1	0	0	0	0	0	0	0	0	0	0	0	0	0	0	0	0	0	0	0	0	0	0	0	0	0	0	0
020619	10:58:24	11:01:58	212031	5.0.10.0	4_exp_AMP_EVA_AWA_CON	108	Rpleas_acq	Same	Rpleas	Bmasked	CS_B	1pleas	distractor1	EVAbeforeCON	acq_new_pleas_masked	acq2_masked	2	2	480	1	300	300	0	0	467	50	0	1	0	0	0	1	blank2r.bmp	0	1	+	0	8	C4r.bmp	492	1	blank2r.bmp	786	1	B1r.bmp	786	1	blank2r.bmp	866	3	schlau	866	1	!	1319	1	!	1372	0	0	0	0	0	0	0	0	0	0	0	0	0	0	0	0	0	0	0	0	0	0	0	0	0	0	0
020619	10:58:24	11:02:01	214417	5.0.10.0	4_exp_AMP_EVA_AWA_CON	108	Rpleas_acq	Same	Rpleas	Bmasked	CS_B	1pleas	distractor1	EVAbeforeCON	acq_US_pleas_masked	acq2_masked	2	3	480	0	300	300	0	0	377	46	0	0	0	0	0	1	blank2r.bmp	0	1	+	0	5	C1r.bmp	492	1	blank2r.bmp	786	1	BMVZ	786	1	blank2r.bmp	866	5	retten	866	1	FEHLER	1586	1	!	-1	1	!	-1	0	0	0	0	0	0	0	0	0	0	0	0	0	0	0	0	0	0	0	0	0	0	0	0
020619	10:58:24	11:02:03	216443	5.0.10.0	4_exp_AMP_EVA_AWA_CON	108	Rpleas_acq	Same	Rpleas	Bmasked	CS_B	1pleas	distractor1	EVAbeforeCON	acq_new_unple_masked	acq2_masked	2	4	480	1	300	300	0	0	441	46	0	1	0	0	0	1	blank2r.bmp	0	1	+	0	1	B1r.bmp	492	1	blank2r.bmp	786	8	C4r.bmp	786	1	blank2r.bmp	866	5	faul	866	1	!	1319	1	!	1346	0	0	0	0	0	0	0	0	0	0	0	0	0	0	0	0	0	0	0	0	0	0	0	0	0	0	0
020619	10:58:24	11:02:05	218829	5.0.10.0	4_exp_AMP_EVA_AWA_CON	108	Rpleas_acq	Same	Rpleas	Bmasked	CS_B	1pleas	distractor1	EVAbeforeCON	acq_new_unple_masked	acq2_masked	2	5	480	0	300	300	0	0	391	50	0	0	0	0	0	1	blank2r.bmp	0	1	+	0	4	B4r.bmp	492	1	blank2r.bmp	786	6	C2r.bmp	786	1	blank2r.bmp	866	3	schroff	866	1	FEHLER	1599	1	!	-1	1	!	-1	0	0	0	0	0	0	0	0	0	0	0	0	0	0	0	0	0	0	0	0	0	0	0	0
020619	10:58:24	11:02:07	221054	5.0.10.0	4_exp_AMP_EVA_AWA_CON	108	Rpleas_acq	Same	Rpleas	Bmasked	CS_B	1pleas	distractor1	EVAbeforeCON	acq_new_unple_masked	acq2_masked	2	6	480	1	300	300	0	0	426	50	0	0	0	0	0	1	blank2r.bmp	0	1	+	0	7	C3r.bmp	492	1	blank2r.bmp	786	5	C1r.bmp	786	1	blank2r.bmp	866	6	hindern	866	1	FEHLER	1652	1	!	1319	1	!	1332	0	0	0	0	0	0	0	0	0	0	0	0	0	0	0	0	0	0	0	0	0	0	0	0
020619	10:58:24	11:02:09	223240	5.0.10.0	4_exp_AMP_EVA_AWA_CON	108	Rpleas_acq	Same	Rpleas	Bmasked	CS_B	1pleas	distractor1	EVAbeforeCON	acq_new_pleas_masked	acq2_masked	2	7	480	0	300	300	0	0	401	46	0	0	0	0	0	1	blank2r.bmp	0	1	+	0	3	B3r.bmp	492	1	blank2r.bmp	786	2	B2r.bmp	786	1	blank2r.bmp	866	5	fair	866	1	FEHLER	1612	1	!	-1	1	!	-1	0	0	0	0	0	0	0	0	0	0	0	0	0	0	0	0	0	0	0	0	0	0	0	0
020619	10:58:24	11:02:11	225146	5.0.10.0	4_exp_AMP_EVA_AWA_CON	108	Rpleas_acq	Same	Rpleas	Bmasked	CS_B	1pleas	distractor1	EVAbeforeCON	acq_US_unple_masked	acq2_masked	2	8	480	0	300	300	0	0	350	46	0	1	0	0	0	1	blank2r.bmp	0	1	+	0	2	B2r.bmp	492	1	blank2r.bmp	786	1	GKQX	786	1	blank2r.bmp	866	2	eitel	866	1	!	-1	1	!	-1	0	0	0	0	0	0	0	0	0	0	0	0	0	0	0	0	0	0	0	0	0	0	0	0	0	0	0
020619	10:58:24	11:02:17	230331	5.0.10.0	4_exp_AMP_EVA_AWA_CON	108	Rpleas_acq	Same	Rpleas	Bmasked	CS_B	1pleas	distractor1	EVAbeforeCON	acq_new_pleas_masked	acq2_masked	2	9	480	0	300	300	0	0	3401	50	0	1	0	0	0	1	blank2r.bmp	0	1	+	0	5	C1r.bmp	492	1	blank2r.bmp	786	3	B3r.bmp	786	1	blank2r.bmp	866	2	spielen	866	1	!	1319	1	!	-1	0	0	0	0	0	0	0	0	0	0	0	0	0	0	0	0	0	0	0	0	0	0	0	0	0	0	0
020619	10:58:24	11:02:19	232436	5.0.10.0	4_exp_AMP_EVA_AWA_CON	108	Rpleas_acq	Same	Rpleas	Bmasked	CS_B	1pleas	distractor1	EVAbeforeCON	acq_US_pleas_masked	acq2_masked	2	10	480	0	300	300	0	0	310	50	0	1	0	0	0	1	blank2r.bmp	0	1	+	0	6	C2r.bmp	492	1	blank2r.bmp	786	1	BMVZ	786	1	blank2r.bmp	866	3	loyal	866	1	!	-1	1	!	-1	0	0	0	0	0	0	0	0	0	0	0	0	0	0	0	0	0	0	0	0	0	0	0	0	0	0	0
020619	10:58:24	11:02:21	234609	5.0.10.0	4_exp_AMP_EVA_AWA_CON	108	Rpleas_acq	Same	Rpleas	Bmasked	CS_B	1pleas	distractor1	EVAbeforeCON	acq_US_pleas_masked	acq2_masked	2	11	480	0	300	300	0	0	372	50	0	1	0	0	0	1	blank2r.bmp	0	1	+	0	8	C4r.bmp	492	1	blank2r.bmp	786	1	BMVZ	786	1	blank2r.bmp	866	6	tolerant	866	1	!	-1	1	!	-1	0	0	0	0	0	0	0	0	0	0	0	0	0	0	0	0	0	0	0	0	0	0	0	0	0	0	0
020619	10:58:24	11:02:23	236768	5.0.10.0	4_exp_AMP_EVA_AWA_CON	108	Rpleas_acq	Same	Rpleas	Bmasked	CS_B	1pleas	distractor1	EVAbeforeCON	acq_US_unple_masked	acq2_masked	2	12	480	0	300	300	0	0	372	46	0	1	0	0	0	1	blank2r.bmp	0	1	+	0	1	B1r.bmp	492	1	blank2r.bmp	786	1	GKQX	786	1	blank2r.bmp	866	6	tyrannisch	866	1	!	-1	1	!	-1	0	0	0	0	0	0	0	0	0	0	0	0	0	0	0	0	0	0	0	0	0	0	0	0	0	0	0
020619	10:58:24	11:02:25	239020	5.0.10.0	4_exp_AMP_EVA_AWA_CON	108	Rpleas_acq	Same	Rpleas	Bmasked	CS_B	1pleas	distractor1	EVAbeforeCON	acq_new_pleas_masked	acq2_masked	2	13	480	1	300	300	0	0	447	50	0	1	0	0	0	1	blank2r.bmp	0	1	+	0	4	B4r.bmp	492	1	blank2r.bmp	786	1	B1r.bmp	786	1	blank2r.bmp	866	6	helfen	866	1	!	1319	1	!	1346	0	0	0	0	0	0	0	0	0	0	0	0	0	0	0	0	0	0	0	0	0	0	0	0	0	0	0
020619	10:58:24	11:02:27	241246	5.0.10.0	4_exp_AMP_EVA_AWA_CON	108	Rpleas_acq	Same	Rpleas	Bmasked	CS_B	1pleas	distractor1	EVAbeforeCON	acq_US_pleas_masked	acq2_masked	2	14	480	1	300	300	0	0	426	50	0	1	0	0	0	1	blank2r.bmp	0	1	+	0	8	C4r.bmp	492	1	blank2r.bmp	786	1	BMVZ	786	1	blank2r.bmp	866	6	tolerant	866	1	!	1319	1	!	1332	0	0	0	0	0	0	0	0	0	0	0	0	0	0	0	0	0	0	0	0	0	0	0	0	0	0	0
020619	10:58:24	11:02:30	243392	5.0.10.0	4_exp_AMP_EVA_AWA_CON	108	Rpleas_acq	Same	Rpleas	Bmasked	CS_B	1pleas	distractor1	EVAbeforeCON	acq_new_unple_masked	acq2_masked	2	15	480	0	300	300	0	0	375	46	0	1	0	0	0	1	blank2r.bmp	0	1	+	0	7	C3r.bmp	492	1	blank2r.bmp	786	6	C2r.bmp	786	1	blank2r.bmp	866	6	hindern	866	1	!	-1	1	!	-1	0	0	0	0	0	0	0	0	0	0	0	0	0	0	0	0	0	0	0	0	0	0	0	0	0	0	0
020619	10:58:24	11:02:32	245724	5.0.10.0	4_exp_AMP_EVA_AWA_CON	108	Rpleas_acq	Same	Rpleas	Bmasked	CS_B	1pleas	distractor1	EVAbeforeCON	acq_US_unple_masked	acq2_masked	2	16	480	1	300	300	0	0	526	46	0	1	0	0	0	1	blank2r.bmp	0	1	+	0	2	B2r.bmp	492	1	blank2r.bmp	786	1	GKQX	786	1	blank2r.bmp	866	5	rächen	866	1	!	1319	1	!	1426	0	0	0	0	0	0	0	0	0	0	0	0	0	0	0	0	0	0	0	0	0	0	0	0	0	0	0
020619	10:58:24	11:02:34	247990	5.0.10.0	4_exp_AMP_EVA_AWA_CON	108	Rpleas_acq	Same	Rpleas	Bmasked	CS_B	1pleas	distractor1	EVAbeforeCON	acq_new_unple_masked	acq2_masked	2	17	480	1	300	300	0	0	472	46	0	1	0	0	0	1	blank2r.bmp	0	1	+	0	3	B3r.bmp	492	1	blank2r.bmp	786	4	B4r.bmp	786	1	blank2r.bmp	866	4	schlecht	866	1	!	1319	1	!	1372	0	0	0	0	0	0	0	0	0	0	0	0	0	0	0	0	0	0	0	0	0	0	0	0	0	0	0
020619	10:58:24	11:02:37	250296	5.0.10.0	4_exp_AMP_EVA_AWA_CON	108	Rpleas_acq	Same	Rpleas	Bmasked	CS_B	1pleas	distractor1	EVAbeforeCON	acq_US_unple_masked	acq2_masked	2	18	480	1	300	300	0	0	514	46	0	1	0	0	0	1	blank2r.bmp	0	1	+	0	6	C2r.bmp	492	1	blank2r.bmp	786	1	GKQX	786	1	blank2r.bmp	866	4	tot	866	1	!	1319	1	!	1412	0	0	0	0	0	0	0	0	0	0	0	0	0	0	0	0	0	0	0	0	0	0	0	0	0	0	0
020619	10:58:24	11:02:39	252548	5.0.10.0	4_exp_AMP_EVA_AWA_CON	108	Rpleas_acq	Same	Rpleas	Bmasked	CS_B	1pleas	distractor1	EVAbeforeCON	acq_US_unple_masked	acq2_masked	2	19	480	1	300	300	0	0	453	46	0	1	0	0	0	1	blank2r.bmp	0	1	+	0	1	B1r.bmp	492	1	blank2r.bmp	786	1	GKQX	786	1	blank2r.bmp	866	6	tyrannisch	866	1	!	1319	1	!	1359	0	0	0	0	0	0	0	0	0	0	0	0	0	0	0	0	0	0	0	0	0	0	0	0	0	0	0
020619	10:58:24	11:02:41	254840	5.0.10.0	4_exp_AMP_EVA_AWA_CON	108	Rpleas_acq	Same	Rpleas	Bmasked	CS_B	1pleas	distractor1	EVAbeforeCON	acq_new_pleas_masked	acq2_masked	2	20	480	1	300	300	0	0	498	50	0	1	0	0	0	1	blank2r.bmp	0	1	+	0	5	C1r.bmp	492	1	blank2r.bmp	786	7	C3r.bmp	786	1	blank2r.bmp	866	1	lachen	866	1	!	1319	1	!	1399	0	0	0	0	0	0	0	0	0	0	0	0	0	0	0	0	0	0	0	0	0	0	0	0	0	0	0
020619	10:58:24	11:02:43	257119	5.0.10.0	4_exp_AMP_EVA_AWA_CON	108	Rpleas_acq	Same	Rpleas	Bmasked	CS_B	1pleas	distractor1	EVAbeforeCON	acq_US_pleas_masked	acq2_masked	2	21	480	1	300	300	0	0	486	50	0	1	0	0	0	1	blank2r.bmp	0	1	+	0	1	B1r.bmp	492	1	blank2r.bmp	786	1	BMVZ	786	1	blank2r.bmp	866	5	retten	866	1	!	1319	1	!	1386	0	0	0	0	0	0	0	0	0	0	0	0	0	0	0	0	0	0	0	0	0	0	0	0	0	0	0
020619	10:58:24	11:02:46	259372	5.0.10.0	4_exp_AMP_EVA_AWA_CON	108	Rpleas_acq	Same	Rpleas	Bmasked	CS_B	1pleas	distractor1	EVAbeforeCON	acq_new_pleas_masked	acq2_masked	2	22	480	1	300	300	0	0	455	50	0	1	0	0	0	1	blank2r.bmp	0	1	+	0	4	B4r.bmp	492	1	blank2r.bmp	786	2	B2r.bmp	786	1	blank2r.bmp	866	2	spielen	866	1	!	1319	1	!	1359	0	0	0	0	0	0	0	0	0	0	0	0	0	0	0	0	0	0	0	0	0	0	0	0	0	0	0
020619	10:58:24	11:02:48	261624	5.0.10.0	4_exp_AMP_EVA_AWA_CON	108	Rpleas_acq	Same	Rpleas	Bmasked	CS_B	1pleas	distractor1	EVAbeforeCON	acq_new_unple_masked	acq2_masked	2	23	480	1	300	300	0	0	462	46	0	1	0	0	0	1	blank2r.bmp	0	1	+	0	7	C3r.bmp	492	1	blank2r.bmp	786	5	C1r.bmp	786	1	blank2r.bmp	866	5	faul	866	1	!	1319	1	!	1359	0	0	0	0	0	0	0	0	0	0	0	0	0	0	0	0	0	0	0	0	0	0	0	0	0	0	0
020619	10:58:24	11:02:50	263930	5.0.10.0	4_exp_AMP_EVA_AWA_CON	108	Rpleas_acq	Same	Rpleas	Bmasked	CS_B	1pleas	distractor1	EVAbeforeCON	acq_US_pleas_masked	acq2_masked	2	24	480	1	300	300	0	0	513	50	0	1	0	0	0	1	blank2r.bmp	0	1	+	0	6	C2r.bmp	492	1	blank2r.bmp	786	1	BMVZ	786	1	blank2r.bmp	866	4	treu	866	1	!	1319	1	!	1412	0	0	0	0	0	0	0	0	0	0	0	0	0	0	0	0	0	0	0	0	0	0	0	0	0	0	0
020619	10:58:24	11:02:52	266182	5.0.10.0	4_exp_AMP_EVA_AWA_CON	108	Rpleas_acq	Same	Rpleas	Bmasked	CS_B	1pleas	distractor1	EVAbeforeCON	acq_US_unple_masked	acq2_masked	2	25	480	1	300	300	0	0	444	46	0	1	0	0	0	1	blank2r.bmp	0	1	+	0	3	B3r.bmp	492	1	blank2r.bmp	786	1	GKQX	786	1	blank2r.bmp	866	3	lasch	866	1	!	1319	1	!	1346	0	0	0	0	0	0	0	0	0	0	0	0	0	0	0	0	0	0	0	0	0	0	0	0	0	0	0
020619	10:58:24	11:02:55	268341	5.0.10.0	4_exp_AMP_EVA_AWA_CON	108	Rpleas_acq	Same	Rpleas	Bmasked	CS_B	1pleas	distractor1	EVAbeforeCON	acq_new_unple_masked	acq2_masked	2	26	480	0	300	300	0	0	398	46	0	1	0	0	0	1	blank2r.bmp	0	1	+	0	5	C1r.bmp	492	1	blank2r.bmp	786	8	C4r.bmp	786	1	blank2r.bmp	866	1	leiden	866	1	!	-1	1	!	-1	0	0	0	0	0	0	0	0	0	0	0	0	0	0	0	0	0	0	0	0	0	0	0	0	0	0	0
020619	10:58:24	11:02:57	270514	5.0.10.0	4_exp_AMP_EVA_AWA_CON	108	Rpleas_acq	Same	Rpleas	Bmasked	CS_B	1pleas	distractor1	EVAbeforeCON	acq_new_pleas_masked	acq2_masked	2	27	480	0	300	300	0	0	389	50	0	1	0	0	0	1	blank2r.bmp	0	1	+	0	2	B2r.bmp	492	1	blank2r.bmp	786	3	B3r.bmp	786	1	blank2r.bmp	866	3	schlau	866	1	!	-1	1	!	-1	0	0	0	0	0	0	0	0	0	0	0	0	0	0	0	0	0	0	0	0	0	0	0	0	0	0	0
020619	10:58:24	11:02:59	272820	5.0.10.0	4_exp_AMP_EVA_AWA_CON	108	Rpleas_acq	Same	Rpleas	Bmasked	CS_B	1pleas	distractor1	EVAbeforeCON	acq_new_pleas_masked	acq2_masked	2	28	480	1	300	300	0	0	502	50	0	1	0	0	0	1	blank2r.bmp	0	1	+	0	8	C4r.bmp	492	1	blank2r.bmp	786	6	C2r.bmp	786	1	blank2r.bmp	866	4	schön	866	1	!	1319	1	!	1399	0	0	0	0	0	0	0	0	0	0	0	0	0	0	0	0	0	0	0	0	0	0	0	0	0	0	0
020619	10:58:24	11:03:01	274992	5.0.10.0	4_exp_AMP_EVA_AWA_CON	108	Rpleas_acq	Same	Rpleas	Bmasked	CS_B	1pleas	distractor1	EVAbeforeCON	acq_US_unple_masked	acq2_masked	2	29	480	0	300	300	0	0	411	46	0	1	0	0	0	1	blank2r.bmp	0	1	+	0	5	C1r.bmp	492	1	blank2r.bmp	786	1	GKQX	786	1	blank2r.bmp	866	1	fanatisch	866	1	!	-1	1	!	-1	0	0	0	0	0	0	0	0	0	0	0	0	0	0	0	0	0	0	0	0	0	0	0	0	0	0	0
020619	10:58:24	11:03:04	277511	5.0.10.0	4_exp_AMP_EVA_AWA_CON	108	Rpleas_acq	Same	Rpleas	Bmasked	CS_B	1pleas	distractor1	EVAbeforeCON	acq_US_unple_masked	acq2_masked	2	30	480	1	300	300	0	0	499	50	0	0	0	0	0	1	blank2r.bmp	0	1	+	0	3	B3r.bmp	492	1	blank2r.bmp	786	1	GKQX	786	1	blank2r.bmp	866	2	eitel	866	1	FEHLER	1719	1	!	1319	1	!	1399	0	0	0	0	0	0	0	0	0	0	0	0	0	0	0	0	0	0	0	0	0	0	0	0
020619	10:58:24	11:03:06	279657	5.0.10.0	4_exp_AMP_EVA_AWA_CON	108	Rpleas_acq	Same	Rpleas	Bmasked	CS_B	1pleas	distractor1	EVAbeforeCON	acq_new_pleas_masked	acq2_masked	2	31	480	0	300	300	0	0	591	50	0	1	0	0	0	1	blank2r.bmp	0	1	+	0	4	B4r.bmp	492	1	blank2r.bmp	786	2	B2r.bmp	786	1	blank2r.bmp	866	5	fair	866	1	!	1319	1	!	-1	0	0	0	0	0	0	0	0	0	0	0	0	0	0	0	0	0	0	0	0	0	0	0	0	0	0	0
020619	10:58:24	11:03:08	281763	5.0.10.0	4_exp_AMP_EVA_AWA_CON	108	Rpleas_acq	Same	Rpleas	Bmasked	CS_B	1pleas	distractor1	EVAbeforeCON	acq_US_pleas_masked	acq2_masked	2	32	480	0	300	300	0	0	322	50	0	1	0	0	0	1	blank2r.bmp	0	1	+	0	1	B1r.bmp	492	1	blank2r.bmp	786	1	BMVZ	786	1	blank2r.bmp	866	2	ehrlich	866	1	!	-1	1	!	-1	0	0	0	0	0	0	0	0	0	0	0	0	0	0	0	0	0	0	0	0	0	0	0	0	0	0	0
020619	10:58:24	11:03:10	284055	5.0.10.0	4_exp_AMP_EVA_AWA_CON	108	Rpleas_acq	Same	Rpleas	Bmasked	CS_B	1pleas	distractor1	EVAbeforeCON	acq_US_pleas_masked	acq2_masked	2	33	480	1	300	300	0	0	486	50	0	1	0	0	0	1	blank2r.bmp	0	1	+	0	6	C2r.bmp	492	1	blank2r.bmp	786	1	BMVZ	786	1	blank2r.bmp	866	3	loyal	866	1	!	1319	1	!	1386	0	0	0	0	0	0	0	0	0	0	0	0	0	0	0	0	0	0	0	0	0	0	0	0	0	0	0
020619	10:58:24	11:03:13	286534	5.0.10.0	4_exp_AMP_EVA_AWA_CON	108	Rpleas_acq	Same	Rpleas	Bmasked	CS_B	1pleas	distractor1	EVAbeforeCON	acq_new_unple_masked	acq2_masked	2	34	480	1	300	300	0	0	454	50	0	0	0	0	0	1	blank2r.bmp	0	1	+	0	8	C4r.bmp	492	1	blank2r.bmp	786	5	C1r.bmp	786	1	blank2r.bmp	866	3	schroff	866	1	FEHLER	1679	1	!	1319	1	!	1359	0	0	0	0	0	0	0	0	0	0	0	0	0	0	0	0	0	0	0	0	0	0	0	0
020619	10:58:24	11:03:15	288560	5.0.10.0	4_exp_AMP_EVA_AWA_CON	108	Rpleas_acq	Same	Rpleas	Bmasked	CS_B	1pleas	distractor1	EVAbeforeCON	acq_new_unple_masked	acq2_masked	2	35	480	1	300	300	0	0	448	46	0	1	0	0	0	1	blank2r.bmp	0	1	+	0	7	C3r.bmp	492	1	blank2r.bmp	786	3	B3r.bmp	786	1	blank2r.bmp	866	2	strafen	866	1	!	1319	1	!	1346	0	0	0	0	0	0	0	0	0	0	0	0	0	0	0	0	0	0	0	0	0	0	0	0	0	0	0
020619	10:58:24	11:03:17	290812	5.0.10.0	4_exp_AMP_EVA_AWA_CON	108	Rpleas_acq	Same	Rpleas	Bmasked	CS_B	1pleas	distractor1	EVAbeforeCON	acq_US_pleas_masked	acq2_masked	2	36	480	1	300	300	0	0	460	50	0	1	0	0	0	1	blank2r.bmp	0	1	+	0	2	B2r.bmp	492	1	blank2r.bmp	786	1	BMVZ	786	1	blank2r.bmp	866	1	freundlich	866	1	!	1319	1	!	1359	0	0	0	0	0	0	0	0	0	0	0	0	0	0	0	0	0	0	0	0	0	0	0	0	0	0	0
020619	10:58:24	11:03:31	304367	5.0.10.0	4_exp_AMP_EVA_AWA_CON	108	Rpleas_acq	Same	Rpleas	Bmasked	CS_B	1pleas	distractor1	EVAbeforeCON	acq_US_pleas_masked	acq3_masked	3	1	453	1	300	300	0	0	471	50	0	1	0	0	0	1	blank2r.bmp	0	1	+	0	8	C4r.bmp	492	1	blank2r.bmp	786	1	BMVZ	786	1	blank2r.bmp	866	3	loyal	866	1	!	1292	1	!	1372	0	0	0	0	0	0	0	0	0	0	0	0	0	0	0	0	0	0	0	0	0	0	0	0	0	0	0
020619	10:58:24	11:03:33	306579	5.0.10.0	4_exp_AMP_EVA_AWA_CON	108	Rpleas_acq	Same	Rpleas	Bmasked	CS_B	1pleas	distractor1	EVAbeforeCON	acq_US_pleas_masked	acq3_masked	3	2	453	1	300	300	0	0	399	50	0	1	0	0	0	1	blank2r.bmp	0	1	+	0	5	C1r.bmp	492	1	blank2r.bmp	786	1	BMVZ	786	1	blank2r.bmp	866	1	freundlich	866	1	!	1292	1	!	1306	0	0	0	0	0	0	0	0	0	0	0	0	0	0	0	0	0	0	0	0	0	0	0	0	0	0	0
020619	10:58:24	11:03:35	308778	5.0.10.0	4_exp_AMP_EVA_AWA_CON	108	Rpleas_acq	Same	Rpleas	Bmasked	CS_B	1pleas	distractor1	EVAbeforeCON	acq_US_pleas_masked	acq3_masked	3	3	453	1	300	300	0	0	400	50	0	1	0	0	0	1	blank2r.bmp	0	1	+	0	1	B1r.bmp	492	1	blank2r.bmp	786	1	BMVZ	786	1	blank2r.bmp	866	5	retten	866	1	!	1292	1	!	1306	0	0	0	0	0	0	0	0	0	0	0	0	0	0	0	0	0	0	0	0	0	0	0	0	0	0	0
020619	10:58:24	11:03:37	310977	5.0.10.0	4_exp_AMP_EVA_AWA_CON	108	Rpleas_acq	Same	Rpleas	Bmasked	CS_B	1pleas	distractor1	EVAbeforeCON	acq_US_unple_masked	acq3_masked	3	4	453	1	300	300	0	0	404	46	0	1	0	0	0	1	blank2r.bmp	0	1	+	0	2	B2r.bmp	492	1	blank2r.bmp	786	1	GKQX	786	1	blank2r.bmp	866	4	tot	866	1	!	1292	1	!	1306	0	0	0	0	0	0	0	0	0	0	0	0	0	0	0	0	0	0	0	0	0	0	0	0	0	0	0
020619	10:58:24	11:03:39	313270	5.0.10.0	4_exp_AMP_EVA_AWA_CON	108	Rpleas_acq	Same	Rpleas	Bmasked	CS_B	1pleas	distractor1	EVAbeforeCON	acq_US_pleas_masked	acq3_masked	3	5	453	1	300	300	0	0	499	50	0	1	0	0	0	1	blank2r.bmp	0	1	+	0	4	B4r.bmp	492	1	blank2r.bmp	786	1	BMVZ	786	1	blank2r.bmp	866	4	treu	866	1	!	1292	1	!	1399	0	0	0	0	0	0	0	0	0	0	0	0	0	0	0	0	0	0	0	0	0	0	0	0	0	0	0
020619	10:58:24	11:03:42	315509	5.0.10.0	4_exp_AMP_EVA_AWA_CON	108	Rpleas_acq	Same	Rpleas	Bmasked	CS_B	1pleas	distractor1	EVAbeforeCON	acq_US_unple_masked	acq3_masked	3	6	453	1	300	300	0	0	444	46	0	1	0	0	0	1	blank2r.bmp	0	1	+	0	7	C3r.bmp	492	1	blank2r.bmp	786	1	GKQX	786	1	blank2r.bmp	866	5	rächen	866	1	!	1292	1	!	1346	0	0	0	0	0	0	0	0	0	0	0	0	0	0	0	0	0	0	0	0	0	0	0	0	0	0	0
020619	10:58:24	11:03:44	317814	5.0.10.0	4_exp_AMP_EVA_AWA_CON	108	Rpleas_acq	Same	Rpleas	Bmasked	CS_B	1pleas	distractor1	EVAbeforeCON	acq_US_pleas_masked	acq3_masked	3	7	453	1	300	300	0	0	507	50	0	1	0	0	0	1	blank2r.bmp	0	1	+	0	6	C2r.bmp	492	1	blank2r.bmp	786	1	BMVZ	786	1	blank2r.bmp	866	6	tolerant	866	1	!	1292	1	!	1412	0	0	0	0	0	0	0	0	0	0	0	0	0	0	0	0	0	0	0	0	0	0	0	0	0	0	0
020619	10:58:24	11:03:46	319987	5.0.10.0	4_exp_AMP_EVA_AWA_CON	108	Rpleas_acq	Same	Rpleas	Bmasked	CS_B	1pleas	distractor1	EVAbeforeCON	acq_US_unple_masked	acq3_masked	3	8	453	0	300	300	0	0	386	46	0	1	0	0	0	1	blank2r.bmp	0	1	+	0	3	B3r.bmp	492	1	blank2r.bmp	786	1	GKQX	786	1	blank2r.bmp	866	1	fanatisch	866	1	!	-1	1	!	-1	0	0	0	0	0	0	0	0	0	0	0	0	0	0	0	0	0	0	0	0	0	0	0	0	0	0	0
020619	10:58:24	11:03:49	322519	5.0.10.0	4_exp_AMP_EVA_AWA_CON	108	Rpleas_acq	Same	Rpleas	Bmasked	CS_B	1pleas	distractor1	EVAbeforeCON	acq_US_unple_masked	acq3_masked	3	9	453	1	300	300	0	0	514	50	0	0	0	0	0	1	blank2r.bmp	0	1	+	0	8	C4r.bmp	492	1	blank2r.bmp	786	1	GKQX	786	1	blank2r.bmp	866	2	eitel	866	1	FEHLER	1732	1	!	1292	1	!	1412	0	0	0	0	0	0	0	0	0	0	0	0	0	0	0	0	0	0	0	0	0	0	0	0
020619	10:58:24	11:03:51	324518	5.0.10.0	4_exp_AMP_EVA_AWA_CON	108	Rpleas_acq	Same	Rpleas	Bmasked	CS_B	1pleas	distractor1	EVAbeforeCON	acq_US_unple_masked	acq3_masked	3	10	453	1	300	300	0	0	401	46	0	1	0	0	0	1	blank2r.bmp	0	1	+	0	1	B1r.bmp	492	1	blank2r.bmp	786	1	GKQX	786	1	blank2r.bmp	866	3	lasch	866	1	!	1292	1	!	1306	0	0	0	0	0	0	0	0	0	0	0	0	0	0	0	0	0	0	0	0	0	0	0	0	0	0	0
020619	10:58:24	11:03:53	326717	5.0.10.0	4_exp_AMP_EVA_AWA_CON	108	Rpleas_acq	Same	Rpleas	Bmasked	CS_B	1pleas	distractor1	EVAbeforeCON	acq_US_pleas_masked	acq3_masked	3	11	453	1	300	300	0	0	399	50	0	1	0	0	0	1	blank2r.bmp	0	1	+	0	7	C3r.bmp	492	1	blank2r.bmp	786	1	BMVZ	786	1	blank2r.bmp	866	2	ehrlich	866	1	!	1292	1	!	1306	0	0	0	0	0	0	0	0	0	0	0	0	0	0	0	0	0	0	0	0	0	0	0	0	0	0	0
020619	10:58:24	11:03:55	328943	5.0.10.0	4_exp_AMP_EVA_AWA_CON	108	Rpleas_acq	Same	Rpleas	Bmasked	CS_B	1pleas	distractor1	EVAbeforeCON	acq_US_unple_masked	acq3_masked	3	12	453	1	300	300	0	0	433	46	0	1	0	0	0	1	blank2r.bmp	0	1	+	0	5	C1r.bmp	492	1	blank2r.bmp	786	1	GKQX	786	1	blank2r.bmp	866	6	tyrannisch	866	1	!	1292	1	!	1332	0	0	0	0	0	0	0	0	0	0	0	0	0	0	0	0	0	0	0	0	0	0	0	0	0	0	0
020619	10:58:24	11:03:57	331182	5.0.10.0	4_exp_AMP_EVA_AWA_CON	108	Rpleas_acq	Same	Rpleas	Bmasked	CS_B	1pleas	distractor1	EVAbeforeCON	acq_US_unple_masked	acq3_masked	3	13	453	1	300	300	0	0	449	46	0	1	0	0	0	1	blank2r.bmp	0	1	+	0	2	B2r.bmp	492	1	blank2r.bmp	786	1	GKQX	786	1	blank2r.bmp	866	5	rächen	866	1	!	1292	1	!	1346	0	0	0	0	0	0	0	0	0	0	0	0	0	0	0	0	0	0	0	0	0	0	0	0	0	0	0
020619	10:58:24	11:04:00	333408	5.0.10.0	4_exp_AMP_EVA_AWA_CON	108	Rpleas_acq	Same	Rpleas	Bmasked	CS_B	1pleas	distractor1	EVAbeforeCON	acq_US_pleas_masked	acq3_masked	3	14	453	1	300	300	0	0	424	50	0	1	0	0	0	1	blank2r.bmp	0	1	+	0	4	B4r.bmp	492	1	blank2r.bmp	786	1	BMVZ	786	1	blank2r.bmp	866	2	ehrlich	866	1	!	1292	1	!	1319	0	0	0	0	0	0	0	0	0	0	0	0	0	0	0	0	0	0	0	0	0	0	0	0	0	0	0
020619	10:58:24	11:04:02	335607	5.0.10.0	4_exp_AMP_EVA_AWA_CON	108	Rpleas_acq	Same	Rpleas	Bmasked	CS_B	1pleas	distractor1	EVAbeforeCON	acq_US_pleas_masked	acq3_masked	3	15	453	1	300	300	0	0	403	50	0	1	0	0	0	1	blank2r.bmp	0	1	+	0	6	C2r.bmp	492	1	blank2r.bmp	786	1	BMVZ	786	1	blank2r.bmp	866	6	tolerant	866	1	!	1292	1	!	1306	0	0	0	0	0	0	0	0	0	0	0	0	0	0	0	0	0	0	0	0	0	0	0	0	0	0	0
020619	10:58:24	11:04:04	337819	5.0.10.0	4_exp_AMP_EVA_AWA_CON	108	Rpleas_acq	Same	Rpleas	Bmasked	CS_B	1pleas	distractor1	EVAbeforeCON	acq_US_unple_masked	acq3_masked	3	16	453	1	300	300	0	0	424	46	0	1	0	0	0	1	blank2r.bmp	0	1	+	0	3	B3r.bmp	492	1	blank2r.bmp	786	1	GKQX	786	1	blank2r.bmp	866	6	tyrannisch	866	1	!	1292	1	!	1319	0	0	0	0	0	0	0	0	0	0	0	0	0	0	0	0	0	0	0	0	0	0	0	0	0	0	0
020619	10:58:24	11:04:06	340032	5.0.10.0	4_exp_AMP_EVA_AWA_CON	108	Rpleas_acq	Same	Rpleas	Bmasked	CS_B	1pleas	distractor1	EVAbeforeCON	acq_US_pleas_masked	acq3_masked	3	17	453	1	300	300	0	0	416	50	0	1	0	0	0	1	blank2r.bmp	0	1	+	0	8	C4r.bmp	492	1	blank2r.bmp	786	1	BMVZ	786	1	blank2r.bmp	866	5	retten	866	1	!	1292	1	!	1319	0	0	0	0	0	0	0	0	0	0	0	0	0	0	0	0	0	0	0	0	0	0	0	0	0	0	0
020619	10:58:24	11:04:08	342231	5.0.10.0	4_exp_AMP_EVA_AWA_CON	108	Rpleas_acq	Same	Rpleas	Bmasked	CS_B	1pleas	distractor1	EVAbeforeCON	acq_US_unple_masked	acq3_masked	3	18	453	1	300	300	0	0	400	46	0	1	0	0	0	1	blank2r.bmp	0	1	+	0	4	B4r.bmp	492	1	blank2r.bmp	786	1	GKQX	786	1	blank2r.bmp	866	4	tot	866	1	!	1292	1	!	1306	0	0	0	0	0	0	0	0	0	0	0	0	0	0	0	0	0	0	0	0	0	0	0	0	0	0	0
020619	10:58:24	11:04:11	344603	5.0.10.0	4_exp_AMP_EVA_AWA_CON	108	Rpleas_acq	Same	Rpleas	Bmasked	CS_B	1pleas	distractor1	EVAbeforeCON	acq_US_unple_masked	acq3_masked	3	19	453	0	300	300	0	0	380	50	0	0	0	0	0	1	blank2r.bmp	0	1	+	0	5	C1r.bmp	492	1	blank2r.bmp	786	1	GKQX	786	1	blank2r.bmp	866	3	lasch	866	1	FEHLER	1586	1	!	-1	1	!	-1	0	0	0	0	0	0	0	0	0	0	0	0	0	0	0	0	0	0	0	0	0	0	0	0
020619	10:58:24	11:04:13	346869	5.0.10.0	4_exp_AMP_EVA_AWA_CON	108	Rpleas_acq	Same	Rpleas	Bmasked	CS_B	1pleas	distractor1	EVAbeforeCON	acq_US_unple_masked	acq3_masked	3	20	453	1	300	300	0	0	476	50	0	0	0	0	0	1	blank2r.bmp	0	1	+	0	6	C2r.bmp	492	1	blank2r.bmp	786	1	GKQX	786	1	blank2r.bmp	866	2	eitel	866	1	FEHLER	1692	1	!	1292	1	!	1372	0	0	0	0	0	0	0	0	0	0	0	0	0	0	0	0	0	0	0	0	0	0	0	0
020619	10:58:24	11:04:15	348908	5.0.10.0	4_exp_AMP_EVA_AWA_CON	108	Rpleas_acq	Same	Rpleas	Bmasked	CS_B	1pleas	distractor1	EVAbeforeCON	acq_US_pleas_masked	acq3_masked	3	21	453	1	300	300	0	0	453	50	0	1	0	0	0	1	blank2r.bmp	0	1	+	0	2	B2r.bmp	492	1	blank2r.bmp	786	1	BMVZ	786	1	blank2r.bmp	866	1	freundlich	866	1	!	1292	1	!	1359	0	0	0	0	0	0	0	0	0	0	0	0	0	0	0	0	0	0	0	0	0	0	0	0	0	0	0
020619	10:58:24	11:04:18	351387	5.0.10.0	4_exp_AMP_EVA_AWA_CON	108	Rpleas_acq	Same	Rpleas	Bmasked	CS_B	1pleas	distractor1	EVAbeforeCON	acq_US_unple_masked	acq3_masked	3	22	453	1	300	300	0	0	470	50	0	0	0	0	0	1	blank2r.bmp	0	1	+	0	7	C3r.bmp	492	1	blank2r.bmp	786	1	GKQX	786	1	blank2r.bmp	866	1	fanatisch	866	1	FEHLER	1692	1	!	1292	1	!	1372	0	0	0	0	0	0	0	0	0	0	0	0	0	0	0	0	0	0	0	0	0	0	0	0
020619	10:58:24	11:04:20	353413	5.0.10.0	4_exp_AMP_EVA_AWA_CON	108	Rpleas_acq	Same	Rpleas	Bmasked	CS_B	1pleas	distractor1	EVAbeforeCON	acq_US_pleas_masked	acq3_masked	3	23	453	1	300	300	0	0	447	50	0	1	0	0	0	1	blank2r.bmp	0	1	+	0	3	B3r.bmp	492	1	blank2r.bmp	786	1	BMVZ	786	1	blank2r.bmp	866	3	loyal	866	1	!	1292	1	!	1346	0	0	0	0	0	0	0	0	0	0	0	0	0	0	0	0	0	0	0	0	0	0	0	0	0	0	0
020619	10:58:24	11:04:22	355799	5.0.10.0	4_exp_AMP_EVA_AWA_CON	108	Rpleas_acq	Same	Rpleas	Bmasked	CS_B	1pleas	distractor1	EVAbeforeCON	acq_US_pleas_masked	acq3_masked	3	24	453	0	300	300	0	0	383	46	0	0	0	0	0	1	blank2r.bmp	0	1	+	0	1	B1r.bmp	492	1	blank2r.bmp	786	1	BMVZ	786	1	blank2r.bmp	866	4	treu	866	1	FEHLER	1586	1	!	-1	1	!	-1	0	0	0	0	0	0	0	0	0	0	0	0	0	0	0	0	0	0	0	0	0	0	0	0
020619	10:58:24	11:04:24	357838	5.0.10.0	4_exp_AMP_EVA_AWA_CON	108	Rpleas_acq	Same	Rpleas	Bmasked	CS_B	1pleas	distractor1	EVAbeforeCON	acq_US_unple_masked	acq3_masked	3	25	453	1	300	300	0	0	453	46	0	1	0	0	0	1	blank2r.bmp	0	1	+	0	5	C1r.bmp	492	1	blank2r.bmp	786	1	GKQX	786	1	blank2r.bmp	866	5	rächen	866	1	!	1292	1	!	1359	0	0	0	0	0	0	0	0	0	0	0	0	0	0	0	0	0	0	0	0	0	0	0	0	0	0	0
020619	10:58:24	11:04:26	359970	5.0.10.0	4_exp_AMP_EVA_AWA_CON	108	Rpleas_acq	Same	Rpleas	Bmasked	CS_B	1pleas	distractor1	EVAbeforeCON	acq_US_pleas_masked	acq3_masked	3	26	453	0	300	300	0	0	361	50	0	1	0	0	0	1	blank2r.bmp	0	1	+	0	3	B3r.bmp	492	1	blank2r.bmp	786	1	BMVZ	786	1	blank2r.bmp	866	2	ehrlich	866	1	!	-1	1	!	-1	0	0	0	0	0	0	0	0	0	0	0	0	0	0	0	0	0	0	0	0	0	0	0	0	0	0	0
020619	10:58:24	11:04:29	362289	5.0.10.0	4_exp_AMP_EVA_AWA_CON	108	Rpleas_acq	Same	Rpleas	Bmasked	CS_B	1pleas	distractor1	EVAbeforeCON	acq_US_pleas_masked	acq3_masked	3	27	453	0	300	300	0	0	532	50	0	1	0	0	0	1	blank2r.bmp	0	1	+	0	7	C3r.bmp	492	1	blank2r.bmp	786	1	BMVZ	786	1	blank2r.bmp	866	6	tolerant	866	1	!	1292	1	!	-1	0	0	0	0	0	0	0	0	0	0	0	0	0	0	0	0	0	0	0	0	0	0	0	0	0	0	0
020619	10:58:24	11:04:31	364595	5.0.10.0	4_exp_AMP_EVA_AWA_CON	108	Rpleas_acq	Same	Rpleas	Bmasked	CS_B	1pleas	distractor1	EVAbeforeCON	acq_US_unple_masked	acq3_masked	3	28	453	0	300	300	0	0	298	50	0	0	0	0	0	1	blank2r.bmp	0	1	+	0	2	B2r.bmp	492	1	blank2r.bmp	786	1	GKQX	786	1	blank2r.bmp	866	4	tot	866	1	FEHLER	1506	1	!	-1	1	!	-1	0	0	0	0	0	0	0	0	0	0	0	0	0	0	0	0	0	0	0	0	0	0	0	0
020619	10:58:24	11:04:33	366634	5.0.10.0	4_exp_AMP_EVA_AWA_CON	108	Rpleas_acq	Same	Rpleas	Bmasked	CS_B	1pleas	distractor1	EVAbeforeCON	acq_US_unple_masked	acq3_masked	3	29	453	1	300	300	0	0	465	46	0	1	0	0	0	1	blank2r.bmp	0	1	+	0	8	C4r.bmp	492	1	blank2r.bmp	786	1	GKQX	786	1	blank2r.bmp	866	6	tyrannisch	866	1	!	1292	1	!	1359	0	0	0	0	0	0	0	0	0	0	0	0	0	0	0	0	0	0	0	0	0	0	0	0	0	0	0
020619	10:58:24	11:04:35	368833	5.0.10.0	4_exp_AMP_EVA_AWA_CON	108	Rpleas_acq	Same	Rpleas	Bmasked	CS_B	1pleas	distractor1	EVAbeforeCON	acq_US_pleas_masked	acq3_masked	3	30	453	1	300	300	0	0	412	50	0	1	0	0	0	1	blank2r.bmp	0	1	+	0	6	C2r.bmp	492	1	blank2r.bmp	786	1	BMVZ	786	1	blank2r.bmp	866	4	treu	866	1	!	1292	1	!	1306	0	0	0	0	0	0	0	0	0	0	0	0	0	0	0	0	0	0	0	0	0	0	0	0	0	0	0
020619	10:58:24	11:04:38	371352	5.0.10.0	4_exp_AMP_EVA_AWA_CON	108	Rpleas_acq	Same	Rpleas	Bmasked	CS_B	1pleas	distractor1	EVAbeforeCON	acq_US_unple_masked	acq3_masked	3	31	453	1	300	300	0	0	505	50	0	0	0	0	0	1	blank2r.bmp	0	1	+	0	1	B1r.bmp	492	1	blank2r.bmp	786	1	GKQX	786	1	blank2r.bmp	866	1	fanatisch	866	1	FEHLER	1732	1	!	1292	1	!	1412	0	0	0	0	0	0	0	0	0	0	0	0	0	0	0	0	0	0	0	0	0	0	0	0
020619	10:58:24	11:04:40	373418	5.0.10.0	4_exp_AMP_EVA_AWA_CON	108	Rpleas_acq	Same	Rpleas	Bmasked	CS_B	1pleas	distractor1	EVAbeforeCON	acq_US_unple_masked	acq3_masked	3	32	453	1	300	300	0	0	479	46	0	1	0	0	0	1	blank2r.bmp	0	1	+	0	4	B4r.bmp	492	1	blank2r.bmp	786	1	GKQX	786	1	blank2r.bmp	866	2	eitel	866	1	!	1292	1	!	1386	0	0	0	0	0	0	0	0	0	0	0	0	0	0	0	0	0	0	0	0	0	0	0	0	0	0	0
020619	10:58:24	11:04:42	375684	5.0.10.0	4_exp_AMP_EVA_AWA_CON	108	Rpleas_acq	Same	Rpleas	Bmasked	CS_B	1pleas	distractor1	EVAbeforeCON	acq_US_unple_masked	acq3_masked	3	33	453	1	300	300	0	0	473	46	0	1	0	0	0	1	blank2r.bmp	0	1	+	0	3	B3r.bmp	492	1	blank2r.bmp	786	1	GKQX	786	1	blank2r.bmp	866	3	lasch	866	1	!	1292	1	!	1372	0	0	0	0	0	0	0	0	0	0	0	0	0	0	0	0	0	0	0	0	0	0	0	0	0	0	0
020619	10:58:24	11:04:44	377896	5.0.10.0	4_exp_AMP_EVA_AWA_CON	108	Rpleas_acq	Same	Rpleas	Bmasked	CS_B	1pleas	distractor1	EVAbeforeCON	acq_US_pleas_masked	acq3_masked	3	34	453	1	300	300	0	0	423	50	0	1	0	0	0	1	blank2r.bmp	0	1	+	0	8	C4r.bmp	492	1	blank2r.bmp	786	1	BMVZ	786	1	blank2r.bmp	866	5	retten	866	1	!	1292	1	!	1319	0	0	0	0	0	0	0	0	0	0	0	0	0	0	0	0	0	0	0	0	0	0	0	0	0	0	0
020619	10:58:24	11:04:46	380109	5.0.10.0	4_exp_AMP_EVA_AWA_CON	108	Rpleas_acq	Same	Rpleas	Bmasked	CS_B	1pleas	distractor1	EVAbeforeCON	acq_US_pleas_masked	acq3_masked	3	35	453	1	300	300	0	0	420	50	0	1	0	0	0	1	blank2r.bmp	0	1	+	0	1	B1r.bmp	492	1	blank2r.bmp	786	1	BMVZ	786	1	blank2r.bmp	866	1	freundlich	866	1	!	1292	1	!	1319	0	0	0	0	0	0	0	0	0	0	0	0	0	0	0	0	0	0	0	0	0	0	0	0	0	0	0
020619	10:58:24	11:04:48	382201	5.0.10.0	4_exp_AMP_EVA_AWA_CON	108	Rpleas_acq	Same	Rpleas	Bmasked	CS_B	1pleas	distractor1	EVAbeforeCON	acq_US_pleas_masked	acq3_masked	3	36	453	0	300	300	0	0	325	50	0	1	0	0	0	1	blank2r.bmp	0	1	+	0	2	B2r.bmp	492	1	blank2r.bmp	786	1	BMVZ	786	1	blank2r.bmp	866	3	loyal	866	1	!	-1	1	!	-1	0	0	0	0	0	0	0	0	0	0	0	0	0	0	0	0	0	0	0	0	0	0	0	0	0	0	0
020619	10:58:24	11:05:05	398714	5.0.10.0	4_exp_AMP_EVA_AWA_CON	108	Rpleas_acq	Same	Rpleas	Bmasked	CS_B	1pleas	distractor1	EVAbeforeCON	acq_US_pleas_masked	acq45_masked	4	1	400	1	300	300	0	0	430	50	0	1	0	0	0	1	blank2r.bmp	0	1	+	0	5	C1r.bmp	492	1	blank2r.bmp	786	1	BMVZ	786	1	blank2r.bmp	866	3	loyal	866	1	!	1239	1	!	1332	0	0	0	0	0	0	0	0	0	0	0	0	0	0	0	0	0	0	0	0	0	0	0	0	0	0	0
020619	10:58:24	11:05:07	400913	5.0.10.0	4_exp_AMP_EVA_AWA_CON	108	Rpleas_acq	Same	Rpleas	Bmasked	CS_B	1pleas	distractor1	EVAbeforeCON	acq_US_unple_masked	acq45_masked	4	2	400	1	300	300	0	0	398	46	0	1	0	0	0	1	blank2r.bmp	0	1	+	0	7	C3r.bmp	492	1	blank2r.bmp	786	1	GKQX	786	1	blank2r.bmp	866	5	rächen	866	1	!	1239	1	!	1292	0	0	0	0	0	0	0	0	0	0	0	0	0	0	0	0	0	0	0	0	0	0	0	0	0	0	0
020619	10:58:24	11:05:09	403099	5.0.10.0	4_exp_AMP_EVA_AWA_CON	108	Rpleas_acq	Same	Rpleas	Bmasked	CS_B	1pleas	distractor1	EVAbeforeCON	acq_US_unple_masked	acq45_masked	4	3	400	1	300	300	0	0	377	46	0	1	0	0	0	1	blank2r.bmp	0	1	+	0	4	B4r.bmp	492	1	blank2r.bmp	786	1	GKQX	786	1	blank2r.bmp	866	4	tot	866	1	!	1239	1	!	1279	0	0	0	0	0	0	0	0	0	0	0	0	0	0	0	0	0	0	0	0	0	0	0	0	0	0	0
020619	10:58:24	11:05:12	405298	5.0.10.0	4_exp_AMP_EVA_AWA_CON	108	Rpleas_acq	Same	Rpleas	Bmasked	CS_B	1pleas	distractor1	EVAbeforeCON	acq_US_unple_masked	acq45_masked	4	4	400	1	300	300	0	0	387	46	0	1	0	0	0	1	blank2r.bmp	0	1	+	0	6	C2r.bmp	492	1	blank2r.bmp	786	1	GKQX	786	1	blank2r.bmp	866	6	tyrannisch	866	1	!	1239	1	!	1292	0	0	0	0	0	0	0	0	0	0	0	0	0	0	0	0	0	0	0	0	0	0	0	0	0	0	0
020619	10:58:24	11:05:14	407497	5.0.10.0	4_exp_AMP_EVA_AWA_CON	108	Rpleas_acq	Same	Rpleas	Bmasked	CS_B	1pleas	distractor1	EVAbeforeCON	acq_US_pleas_masked	acq45_masked	4	5	400	1	300	300	0	0	389	50	0	1	0	0	0	1	blank2r.bmp	0	1	+	0	7	C3r.bmp	492	1	blank2r.bmp	786	1	BMVZ	786	1	blank2r.bmp	866	4	treu	866	1	!	1239	1	!	1292	0	0	0	0	0	0	0	0	0	0	0	0	0	0	0	0	0	0	0	0	0	0	0	0	0	0	0
020619	10:58:24	11:05:16	409790	5.0.10.0	4_exp_AMP_EVA_AWA_CON	108	Rpleas_acq	Same	Rpleas	Bmasked	CS_B	1pleas	distractor1	EVAbeforeCON	acq_US_unple_masked	acq45_masked	4	6	400	0	300	300	0	0	517	50	0	0	0	0	0	1	blank2r.bmp	0	1	+	0	2	B2r.bmp	492	1	blank2r.bmp	786	1	GKQX	786	1	blank2r.bmp	866	2	eitel	866	1	!	1239	1	!	-1	0	0	0	0	0	0	0	0	0	0	0	0	0	0	0	0	0	0	0	0	0	0	0	0	0	0	0
020619	10:58:24	11:05:18	412055	5.0.10.0	4_exp_AMP_EVA_AWA_CON	108	Rpleas_acq	Same	Rpleas	Bmasked	CS_B	1pleas	distractor1	EVAbeforeCON	acq_US_unple_masked	acq45_masked	4	7	400	1	300	300	0	0	464	50	0	0	0	0	0	1	blank2r.bmp	0	1	+	0	8	C4r.bmp	492	1	blank2r.bmp	786	1	GKQX	786	1	blank2r.bmp	866	3	lasch	866	1	!	1239	1	!	1359	0	0	0	0	0	0	0	0	0	0	0	0	0	0	0	0	0	0	0	0	0	0	0	0	0	0	0
020619	10:58:24	11:05:20	414294	5.0.10.0	4_exp_AMP_EVA_AWA_CON	108	Rpleas_acq	Same	Rpleas	Bmasked	CS_B	1pleas	distractor1	EVAbeforeCON	acq_US_pleas_masked	acq45_masked	4	8	400	1	300	300	0	0	442	46	0	0	0	0	0	1	blank2r.bmp	0	1	+	0	1	B1r.bmp	492	1	blank2r.bmp	786	1	BMVZ	786	1	blank2r.bmp	866	5	retten	866	1	!	1239	1	!	1346	0	0	0	0	0	0	0	0	0	0	0	0	0	0	0	0	0	0	0	0	0	0	0	0	0	0	0
020619	10:58:24	11:05:23	416480	5.0.10.0	4_exp_AMP_EVA_AWA_CON	108	Rpleas_acq	Same	Rpleas	Bmasked	CS_B	1pleas	distractor1	EVAbeforeCON	acq_US_pleas_masked	acq45_masked	4	9	400	1	300	300	0	0	390	50	0	1	0	0	0	1	blank2r.bmp	0	1	+	0	6	C2r.bmp	492	1	blank2r.bmp	786	1	BMVZ	786	1	blank2r.bmp	866	1	freundlich	866	1	!	1239	1	!	1292	0	0	0	0	0	0	0	0	0	0	0	0	0	0	0	0	0	0	0	0	0	0	0	0	0	0	0
020619	10:58:24	11:05:25	418639	5.0.10.0	4_exp_AMP_EVA_AWA_CON	108	Rpleas_acq	Same	Rpleas	Bmasked	CS_B	1pleas	distractor1	EVAbeforeCON	acq_US_unple_masked	acq45_masked	4	10	400	1	300	300	0	0	370	46	0	1	0	0	0	1	blank2r.bmp	0	1	+	0	4	B4r.bmp	492	1	blank2r.bmp	786	1	GKQX	786	1	blank2r.bmp	866	1	fanatisch	866	1	!	1239	1	!	1266	0	0	0	0	0	0	0	0	0	0	0	0	0	0	0	0	0	0	0	0	0	0	0	0	0	0	0
020619	10:58:24	11:05:27	420838	5.0.10.0	4_exp_AMP_EVA_AWA_CON	108	Rpleas_acq	Same	Rpleas	Bmasked	CS_B	1pleas	distractor1	EVAbeforeCON	acq_US_unple_masked	acq45_masked	4	11	400	1	300	300	0	0	407	46	0	1	0	0	0	1	blank2r.bmp	0	1	+	0	3	B3r.bmp	492	1	blank2r.bmp	786	1	GKQX	786	1	blank2r.bmp	866	6	tyrannisch	866	1	!	1239	1	!	1306	0	0	0	0	0	0	0	0	0	0	0	0	0	0	0	0	0	0	0	0	0	0	0	0	0	0	0
020619	10:58:24	11:05:29	423024	5.0.10.0	4_exp_AMP_EVA_AWA_CON	108	Rpleas_acq	Same	Rpleas	Bmasked	CS_B	1pleas	distractor1	EVAbeforeCON	acq_US_pleas_masked	acq45_masked	4	12	400	1	300	300	0	0	389	50	0	1	0	0	0	1	blank2r.bmp	0	1	+	0	5	C1r.bmp	492	1	blank2r.bmp	786	1	BMVZ	786	1	blank2r.bmp	866	2	ehrlich	866	1	!	1239	1	!	1292	0	0	0	0	0	0	0	0	0	0	0	0	0	0	0	0	0	0	0	0	0	0	0	0	0	0	0
020619	10:58:24	11:05:31	425237	5.0.10.0	4_exp_AMP_EVA_AWA_CON	108	Rpleas_acq	Same	Rpleas	Bmasked	CS_B	1pleas	distractor1	EVAbeforeCON	acq_US_pleas_masked	acq45_masked	4	13	400	1	300	300	0	0	423	46	0	0	0	0	0	1	blank2r.bmp	0	1	+	0	3	B3r.bmp	492	1	blank2r.bmp	786	1	BMVZ	786	1	blank2r.bmp	866	6	tolerant	866	1	!	1239	1	!	1319	0	0	0	0	0	0	0	0	0	0	0	0	0	0	0	0	0	0	0	0	0	0	0	0	0	0	0
020619	10:58:24	11:05:34	427462	5.0.10.0	4_exp_AMP_EVA_AWA_CON	108	Rpleas_acq	Same	Rpleas	Bmasked	CS_B	1pleas	distractor1	EVAbeforeCON	acq_US_pleas_masked	acq45_masked	4	14	400	1	300	300	0	0	432	50	0	1	0	0	0	1	blank2r.bmp	0	1	+	0	6	C2r.bmp	492	1	blank2r.bmp	786	1	BMVZ	786	1	blank2r.bmp	866	5	retten	866	1	!	1239	1	!	1332	0	0	0	0	0	0	0	0	0	0	0	0	0	0	0	0	0	0	0	0	0	0	0	0	0	0	0
020619	10:58:24	11:05:36	429648	5.0.10.0	4_exp_AMP_EVA_AWA_CON	108	Rpleas_acq	Same	Rpleas	Bmasked	CS_B	1pleas	distractor1	EVAbeforeCON	acq_US_pleas_masked	acq45_masked	4	15	400	1	300	300	0	0	388	50	0	1	0	0	0	1	blank2r.bmp	0	1	+	0	5	C1r.bmp	492	1	blank2r.bmp	786	1	BMVZ	786	1	blank2r.bmp	866	3	loyal	866	1	!	1239	1	!	1292	0	0	0	0	0	0	0	0	0	0	0	0	0	0	0	0	0	0	0	0	0	0	0	0	0	0	0
020619	10:58:24	11:05:38	431741	5.0.10.0	4_exp_AMP_EVA_AWA_CON	108	Rpleas_acq	Same	Rpleas	Bmasked	CS_B	1pleas	distractor1	EVAbeforeCON	acq_US_pleas_masked	acq45_masked	4	16	400	0	300	300	0	0	317	50	0	1	0	0	0	1	blank2r.bmp	0	1	+	0	8	C4r.bmp	492	1	blank2r.bmp	786	1	BMVZ	786	1	blank2r.bmp	866	6	tolerant	866	1	!	-1	1	!	-1	0	0	0	0	0	0	0	0	0	0	0	0	0	0	0	0	0	0	0	0	0	0	0	0	0	0	0
020619	10:58:24	11:05:40	433900	5.0.10.0	4_exp_AMP_EVA_AWA_CON	108	Rpleas_acq	Same	Rpleas	Bmasked	CS_B	1pleas	distractor1	EVAbeforeCON	acq_US_unple_masked	acq45_masked	4	17	400	1	300	300	0	0	346	46	0	1	0	0	0	1	blank2r.bmp	0	1	+	0	4	B4r.bmp	492	1	blank2r.bmp	786	1	GKQX	786	1	blank2r.bmp	866	5	rächen	866	1	!	1239	1	!	1252	0	0	0	0	0	0	0	0	0	0	0	0	0	0	0	0	0	0	0	0	0	0	0	0	0	0	0
020619	10:58:24	11:05:42	436125	5.0.10.0	4_exp_AMP_EVA_AWA_CON	108	Rpleas_acq	Same	Rpleas	Bmasked	CS_B	1pleas	distractor1	EVAbeforeCON	acq_US_unple_masked	acq45_masked	4	18	400	1	300	300	0	0	429	50	0	0	0	0	0	1	blank2r.bmp	0	1	+	0	7	C3r.bmp	492	1	blank2r.bmp	786	1	GKQX	786	1	blank2r.bmp	866	1	fanatisch	866	1	!	1239	1	!	1332	0	0	0	0	0	0	0	0	0	0	0	0	0	0	0	0	0	0	0	0	0	0	0	0	0	0	0
020619	10:58:24	11:05:45	438351	5.0.10.0	4_exp_AMP_EVA_AWA_CON	108	Rpleas_acq	Same	Rpleas	Bmasked	CS_B	1pleas	distractor1	EVAbeforeCON	acq_US_unple_masked	acq45_masked	4	19	400	1	300	300	0	0	437	50	0	0	0	0	0	1	blank2r.bmp	0	1	+	0	1	B1r.bmp	492	1	blank2r.bmp	786	1	GKQX	786	1	blank2r.bmp	866	2	eitel	866	1	!	1239	1	!	1332	0	0	0	0	0	0	0	0	0	0	0	0	0	0	0	0	0	0	0	0	0	0	0	0	0	0	0
020619	10:58:24	11:05:47	440550	5.0.10.0	4_exp_AMP_EVA_AWA_CON	108	Rpleas_acq	Same	Rpleas	Bmasked	CS_B	1pleas	distractor1	EVAbeforeCON	acq_US_pleas_masked	acq45_masked	4	20	400	1	300	300	0	0	406	50	0	1	0	0	0	1	blank2r.bmp	0	1	+	0	2	B2r.bmp	492	1	blank2r.bmp	786	1	BMVZ	786	1	blank2r.bmp	866	1	freundlich	866	1	!	1239	1	!	1306	0	0	0	0	0	0	0	0	0	0	0	0	0	0	0	0	0	0	0	0	0	0	0	0	0	0	0
020619	10:58:24	11:05:49	442749	5.0.10.0	4_exp_AMP_EVA_AWA_CON	108	Rpleas_acq	Same	Rpleas	Bmasked	CS_B	1pleas	distractor1	EVAbeforeCON	acq_US_unple_masked	acq45_masked	4	21	400	1	300	300	0	0	409	46	0	1	0	0	0	1	blank2r.bmp	0	1	+	0	2	B2r.bmp	492	1	blank2r.bmp	786	1	GKQX	786	1	blank2r.bmp	866	3	lasch	866	1	!	1239	1	!	1306	0	0	0	0	0	0	0	0	0	0	0	0	0	0	0	0	0	0	0	0	0	0	0	0	0	0	0
020619	10:58:24	11:05:51	444988	5.0.10.0	4_exp_AMP_EVA_AWA_CON	108	Rpleas_acq	Same	Rpleas	Bmasked	CS_B	1pleas	distractor1	EVAbeforeCON	acq_US_pleas_masked	acq45_masked	4	22	400	1	300	300	0	0	450	50	0	1	0	0	0	1	blank2r.bmp	0	1	+	0	1	B1r.bmp	492	1	blank2r.bmp	786	1	BMVZ	786	1	blank2r.bmp	866	2	ehrlich	866	1	!	1239	1	!	1346	0	0	0	0	0	0	0	0	0	0	0	0	0	0	0	0	0	0	0	0	0	0	0	0	0	0	0
020619	10:58:24	11:05:53	447174	5.0.10.0	4_exp_AMP_EVA_AWA_CON	108	Rpleas_acq	Same	Rpleas	Bmasked	CS_B	1pleas	distractor1	EVAbeforeCON	acq_US_unple_masked	acq45_masked	4	23	400	1	300	300	0	0	390	46	0	1	0	0	0	1	blank2r.bmp	0	1	+	0	3	B3r.bmp	492	1	blank2r.bmp	786	1	GKQX	786	1	blank2r.bmp	866	4	tot	866	1	!	1239	1	!	1292	0	0	0	0	0	0	0	0	0	0	0	0	0	0	0	0	0	0	0	0	0	0	0	0	0	0	0
020619	10:58:24	11:05:56	449347	5.0.10.0	4_exp_AMP_EVA_AWA_CON	108	Rpleas_acq	Same	Rpleas	Bmasked	CS_B	1pleas	distractor1	EVAbeforeCON	acq_US_pleas_masked	acq45_masked	4	24	400	1	300	300	0	0	384	46	0	0	0	0	0	1	blank2r.bmp	0	1	+	0	6	C2r.bmp	492	1	blank2r.bmp	786	1	BMVZ	786	1	blank2r.bmp	866	4	treu	866	1	!	1239	1	!	1279	0	0	0	0	0	0	0	0	0	0	0	0	0	0	0	0	0	0	0	0	0	0	0	0	0	0	0
020619	10:58:24	11:05:58	451559	5.0.10.0	4_exp_AMP_EVA_AWA_CON	108	Rpleas_acq	Same	Rpleas	Bmasked	CS_B	1pleas	distractor1	EVAbeforeCON	acq_US_pleas_masked	acq45_masked	4	25	400	1	300	300	0	0	413	46	0	0	0	0	0	1	blank2r.bmp	0	1	+	0	4	B4r.bmp	492	1	blank2r.bmp	786	1	BMVZ	786	1	blank2r.bmp	866	6	tolerant	866	1	!	1239	1	!	1319	0	0	0	0	0	0	0	0	0	0	0	0	0	0	0	0	0	0	0	0	0	0	0	0	0	0	0
020619	10:58:24	11:06:00	453771	5.0.10.0	4_exp_AMP_EVA_AWA_CON	108	Rpleas_acq	Same	Rpleas	Bmasked	CS_B	1pleas	distractor1	EVAbeforeCON	acq_US_pleas_masked	acq45_masked	4	26	400	1	300	300	0	0	421	50	0	1	0	0	0	1	blank2r.bmp	0	1	+	0	8	C4r.bmp	492	1	blank2r.bmp	786	1	BMVZ	786	1	blank2r.bmp	866	2	ehrlich	866	1	!	1239	1	!	1319	0	0	0	0	0	0	0	0	0	0	0	0	0	0	0	0	0	0	0	0	0	0	0	0	0	0	0
020619	10:58:24	11:06:02	456024	5.0.10.0	4_exp_AMP_EVA_AWA_CON	108	Rpleas_acq	Same	Rpleas	Bmasked	CS_B	1pleas	distractor1	EVAbeforeCON	acq_US_unple_masked	acq45_masked	4	27	400	1	300	300	0	0	464	50	0	0	0	0	0	1	blank2r.bmp	0	1	+	0	5	C1r.bmp	492	1	blank2r.bmp	786	1	GKQX	786	1	blank2r.bmp	866	2	eitel	866	1	!	1239	1	!	1359	0	0	0	0	0	0	0	0	0	0	0	0	0	0	0	0	0	0	0	0	0	0	0	0	0	0	0
020619	10:58:24	11:06:04	458223	5.0.10.0	4_exp_AMP_EVA_AWA_CON	108	Rpleas_acq	Same	Rpleas	Bmasked	CS_B	1pleas	distractor1	EVAbeforeCON	acq_US_unple_masked	acq45_masked	4	28	400	1	300	300	0	0	403	46	0	1	0	0	0	1	blank2r.bmp	0	1	+	0	7	C3r.bmp	492	1	blank2r.bmp	786	1	GKQX	786	1	blank2r.bmp	866	3	lasch	866	1	!	1239	1	!	1306	0	0	0	0	0	0	0	0	0	0	0	0	0	0	0	0	0	0	0	0	0	0	0	0	0	0	0
020619	10:58:24	11:06:07	460435	5.0.10.0	4_exp_AMP_EVA_AWA_CON	108	Rpleas_acq	Same	Rpleas	Bmasked	CS_B	1pleas	distractor1	EVAbeforeCON	acq_US_unple_masked	acq45_masked	4	29	400	1	300	300	0	0	413	46	0	1	0	0	0	1	blank2r.bmp	0	1	+	0	1	B1r.bmp	492	1	blank2r.bmp	786	1	GKQX	786	1	blank2r.bmp	866	5	rächen	866	1	!	1239	1	!	1319	0	0	0	0	0	0	0	0	0	0	0	0	0	0	0	0	0	0	0	0	0	0	0	0	0	0	0
020619	10:58:24	11:06:09	462608	5.0.10.0	4_exp_AMP_EVA_AWA_CON	108	Rpleas_acq	Same	Rpleas	Bmasked	CS_B	1pleas	distractor1	EVAbeforeCON	acq_US_pleas_masked	acq45_masked	4	30	400	1	300	300	0	0	380	50	0	1	0	0	0	1	blank2r.bmp	0	1	+	0	5	C1r.bmp	492	1	blank2r.bmp	786	1	BMVZ	786	1	blank2r.bmp	866	3	loyal	866	1	!	1239	1	!	1279	0	0	0	0	0	0	0	0	0	0	0	0	0	0	0	0	0	0	0	0	0	0	0	0	0	0	0
020619	10:58:24	11:06:11	464834	5.0.10.0	4_exp_AMP_EVA_AWA_CON	108	Rpleas_acq	Same	Rpleas	Bmasked	CS_B	1pleas	distractor1	EVAbeforeCON	acq_US_pleas_masked	acq45_masked	4	31	400	1	300	300	0	0	426	50	0	1	0	0	0	1	blank2r.bmp	0	1	+	0	8	C4r.bmp	492	1	blank2r.bmp	786	1	BMVZ	786	1	blank2r.bmp	866	4	treu	866	1	!	1239	1	!	1332	0	0	0	0	0	0	0	0	0	0	0	0	0	0	0	0	0	0	0	0	0	0	0	0	0	0	0
020619	10:58:24	11:06:13	467099	5.0.10.0	4_exp_AMP_EVA_AWA_CON	108	Rpleas_acq	Same	Rpleas	Bmasked	CS_B	1pleas	distractor1	EVAbeforeCON	acq_US_unple_masked	acq45_masked	4	32	400	0	300	300	0	0	492	50	0	0	0	0	0	1	blank2r.bmp	0	1	+	0	7	C3r.bmp	492	1	blank2r.bmp	786	1	GKQX	786	1	blank2r.bmp	866	1	fanatisch	866	1	!	1239	1	!	-1	0	0	0	0	0	0	0	0	0	0	0	0	0	0	0	0	0	0	0	0	0	0	0	0	0	0	0
020619	10:58:24	11:06:16	469352	5.0.10.0	4_exp_AMP_EVA_AWA_CON	108	Rpleas_acq	Same	Rpleas	Bmasked	CS_B	1pleas	distractor1	EVAbeforeCON	acq_US_pleas_masked	acq45_masked	4	33	400	1	300	300	0	0	442	50	0	1	0	0	0	1	blank2r.bmp	0	1	+	0	3	B3r.bmp	492	1	blank2r.bmp	786	1	BMVZ	786	1	blank2r.bmp	866	5	retten	866	1	!	1239	1	!	1346	0	0	0	0	0	0	0	0	0	0	0	0	0	0	0	0	0	0	0	0	0	0	0	0	0	0	0
020619	10:58:24	11:06:18	471551	5.0.10.0	4_exp_AMP_EVA_AWA_CON	108	Rpleas_acq	Same	Rpleas	Bmasked	CS_B	1pleas	distractor1	EVAbeforeCON	acq_US_pleas_masked	acq45_masked	4	34	400	1	300	300	0	0	392	50	0	1	0	0	0	1	blank2r.bmp	0	1	+	0	4	B4r.bmp	492	1	blank2r.bmp	786	1	BMVZ	786	1	blank2r.bmp	866	1	freundlich	866	1	!	1239	1	!	1292	0	0	0	0	0	0	0	0	0	0	0	0	0	0	0	0	0	0	0	0	0	0	0	0	0	0	0
020619	10:58:24	11:06:20	473790	5.0.10.0	4_exp_AMP_EVA_AWA_CON	108	Rpleas_acq	Same	Rpleas	Bmasked	CS_B	1pleas	distractor1	EVAbeforeCON	acq_US_unple_masked	acq45_masked	4	35	400	1	300	300	0	0	427	46	0	1	0	0	0	1	blank2r.bmp	0	1	+	0	2	B2r.bmp	492	1	blank2r.bmp	786	1	GKQX	786	1	blank2r.bmp	866	4	tot	866	1	!	1239	1	!	1332	0	0	0	0	0	0	0	0	0	0	0	0	0	0	0	0	0	0	0	0	0	0	0	0	0	0	0
020619	10:58:24	11:06:22	476016	5.0.10.0	4_exp_AMP_EVA_AWA_CON	108	Rpleas_acq	Same	Rpleas	Bmasked	CS_B	1pleas	distractor1	EVAbeforeCON	acq_US_unple_masked	acq45_masked	4	36	400	1	300	300	0	0	428	46	0	1	0	0	0	1	blank2r.bmp	0	1	+	0	6	C2r.bmp	492	1	blank2r.bmp	786	1	GKQX	786	1	blank2r.bmp	866	6	tyrannisch	866	1	!	1239	1	!	1332	0	0	0	0	0	0	0	0	0	0	0	0	0	0	0	0	0	0	0	0	0	0	0	0	0	0	0
020619	10:58:24	11:06:34	487384	5.0.10.0	4_exp_AMP_EVA_AWA_CON	108	Rpleas_acq	Same	Rpleas	Bmasked	CS_B	1pleas	distractor1	EVAbeforeCON	acq_US_pleas_masked	acq45_masked	5	1	400	0	300	300	0	0	479	50	0	1	0	0	0	1	blank2r.bmp	0	1	+	0	6	C2r.bmp	492	1	blank2r.bmp	786	1	BMVZ	786	1	blank2r.bmp	866	3	loyal	866	1	!	1239	1	!	-1	0	0	0	0	0	0	0	0	0	0	0	0	0	0	0	0	0	0	0	0	0	0	0	0	0	0	0
020619	10:58:24	11:06:36	489623	5.0.10.0	4_exp_AMP_EVA_AWA_CON	108	Rpleas_acq	Same	Rpleas	Bmasked	CS_B	1pleas	distractor1	EVAbeforeCON	acq_US_pleas_masked	acq45_masked	5	2	400	1	300	300	0	0	436	46	0	0	0	0	0	1	blank2r.bmp	0	1	+	0	8	C4r.bmp	492	1	blank2r.bmp	786	1	BMVZ	786	1	blank2r.bmp	866	5	retten	866	1	!	1239	1	!	1332	0	0	0	0	0	0	0	0	0	0	0	0	0	0	0	0	0	0	0	0	0	0	0	0	0	0	0
020619	10:58:24	11:06:38	491876	5.0.10.0	4_exp_AMP_EVA_AWA_CON	108	Rpleas_acq	Same	Rpleas	Bmasked	CS_B	1pleas	distractor1	EVAbeforeCON	acq_US_unple_masked	acq45_masked	5	3	400	0	300	300	0	0	491	46	0	1	0	0	0	1	blank2r.bmp	0	1	+	0	3	B3r.bmp	492	1	blank2r.bmp	786	1	GKQX	786	1	blank2r.bmp	866	6	tyrannisch	866	1	!	1239	1	!	-1	0	0	0	0	0	0	0	0	0	0	0	0	0	0	0	0	0	0	0	0	0	0	0	0	0	0	0
020619	10:58:24	11:06:40	494115	5.0.10.0	4_exp_AMP_EVA_AWA_CON	108	Rpleas_acq	Same	Rpleas	Bmasked	CS_B	1pleas	distractor1	EVAbeforeCON	acq_US_pleas_masked	acq45_masked	5	4	400	1	300	300	0	0	431	50	0	1	0	0	0	1	blank2r.bmp	0	1	+	0	4	B4r.bmp	492	1	blank2r.bmp	786	1	BMVZ	786	1	blank2r.bmp	866	4	treu	866	1	!	1239	1	!	1332	0	0	0	0	0	0	0	0	0	0	0	0	0	0	0	0	0	0	0	0	0	0	0	0	0	0	0
020619	10:58:24	11:06:43	496367	5.0.10.0	4_exp_AMP_EVA_AWA_CON	108	Rpleas_acq	Same	Rpleas	Bmasked	CS_B	1pleas	distractor1	EVAbeforeCON	acq_US_unple_masked	acq45_masked	5	5	400	1	300	300	0	0	452	50	0	0	0	0	0	1	blank2r.bmp	0	1	+	0	7	C3r.bmp	492	1	blank2r.bmp	786	1	GKQX	786	1	blank2r.bmp	866	2	eitel	866	1	!	1239	1	!	1359	0	0	0	0	0	0	0	0	0	0	0	0	0	0	0	0	0	0	0	0	0	0	0	0	0	0	0
020619	10:58:24	11:06:45	498606	5.0.10.0	4_exp_AMP_EVA_AWA_CON	108	Rpleas_acq	Same	Rpleas	Bmasked	CS_B	1pleas	distractor1	EVAbeforeCON	acq_US_pleas_masked	acq45_masked	5	6	400	1	300	300	0	0	448	50	0	1	0	0	0	1	blank2r.bmp	0	1	+	0	2	B2r.bmp	492	1	blank2r.bmp	786	1	BMVZ	786	1	blank2r.bmp	866	6	tolerant	866	1	!	1239	1	!	1346	0	0	0	0	0	0	0	0	0	0	0	0	0	0	0	0	0	0	0	0	0	0	0	0	0	0	0
020619	10:58:24	11:06:47	500792	5.0.10.0	4_exp_AMP_EVA_AWA_CON	108	Rpleas_acq	Same	Rpleas	Bmasked	CS_B	1pleas	distractor1	EVAbeforeCON	acq_US_pleas_masked	acq45_masked	5	7	400	1	300	300	0	0	394	50	0	1	0	0	0	1	blank2r.bmp	0	1	+	0	5	C1r.bmp	492	1	blank2r.bmp	786	1	BMVZ	786	1	blank2r.bmp	866	1	freundlich	866	1	!	1239	1	!	1292	0	0	0	0	0	0	0	0	0	0	0	0	0	0	0	0	0	0	0	0	0	0	0	0	0	0	0
020619	10:58:24	11:06:50	503791	5.0.10.0	4_exp_AMP_EVA_AWA_CON	108	Rpleas_acq	Same	Rpleas	Bmasked	CS_B	1pleas	distractor1	EVAbeforeCON	acq_US_unple_masked	acq45_masked	5	8	400	0	300	300	0	0	1236	46	0	1	0	0	0	1	blank2r.bmp	0	1	+	0	1	B1r.bmp	492	1	blank2r.bmp	786	1	GKQX	786	1	blank2r.bmp	866	1	fanatisch	866	1	!	1239	1	!	-1	0	0	0	0	0	0	0	0	0	0	0	0	0	0	0	0	0	0	0	0	0	0	0	0	0	0	0
020619	10:58:24	11:06:52	506057	5.0.10.0	4_exp_AMP_EVA_AWA_CON	108	Rpleas_acq	Same	Rpleas	Bmasked	CS_B	1pleas	distractor1	EVAbeforeCON	acq_US_pleas_masked	acq45_masked	5	9	400	0	300	300	0	0	479	50	0	1	0	0	0	1	blank2r.bmp	0	1	+	0	8	C4r.bmp	492	1	blank2r.bmp	786	1	BMVZ	786	1	blank2r.bmp	866	2	ehrlich	866	1	!	1239	1	!	-1	0	0	0	0	0	0	0	0	0	0	0	0	0	0	0	0	0	0	0	0	0	0	0	0	0	0	0
020619	10:58:24	11:06:54	508229	5.0.10.0	4_exp_AMP_EVA_AWA_CON	108	Rpleas_acq	Same	Rpleas	Bmasked	CS_B	1pleas	distractor1	EVAbeforeCON	acq_US_unple_masked	acq45_masked	5	10	400	1	300	300	0	0	365	46	0	1	0	0	0	1	blank2r.bmp	0	1	+	0	7	C3r.bmp	492	1	blank2r.bmp	786	1	GKQX	786	1	blank2r.bmp	866	4	tot	866	1	!	1239	1	!	1266	0	0	0	0	0	0	0	0	0	0	0	0	0	0	0	0	0	0	0	0	0	0	0	0	0	0	0
020619	10:58:24	11:06:57	510415	5.0.10.0	4_exp_AMP_EVA_AWA_CON	108	Rpleas_acq	Same	Rpleas	Bmasked	CS_B	1pleas	distractor1	EVAbeforeCON	acq_US_unple_masked	acq45_masked	5	11	400	1	300	300	0	0	387	46	0	1	0	0	0	1	blank2r.bmp	0	1	+	0	3	B3r.bmp	492	1	blank2r.bmp	786	1	GKQX	786	1	blank2r.bmp	866	5	rächen	866	1	!	1239	1	!	1292	0	0	0	0	0	0	0	0	0	0	0	0	0	0	0	0	0	0	0	0	0	0	0	0	0	0	0
020619	10:58:24	11:06:59	512640	5.0.10.0	4_exp_AMP_EVA_AWA_CON	108	Rpleas_acq	Same	Rpleas	Bmasked	CS_B	1pleas	distractor1	EVAbeforeCON	acq_US_pleas_masked	acq45_masked	5	12	400	1	300	300	0	0	429	50	0	1	0	0	0	1	blank2r.bmp	0	1	+	0	2	B2r.bmp	492	1	blank2r.bmp	786	1	BMVZ	786	1	blank2r.bmp	866	4	treu	866	1	!	1239	1	!	1332	0	0	0	0	0	0	0	0	0	0	0	0	0	0	0	0	0	0	0	0	0	0	0	0	0	0	0
020619	10:58:24	11:07:01	514840	5.0.10.0	4_exp_AMP_EVA_AWA_CON	108	Rpleas_acq	Same	Rpleas	Bmasked	CS_B	1pleas	distractor1	EVAbeforeCON	acq_US_unple_masked	acq45_masked	5	13	400	1	300	300	0	0	394	46	0	1	0	0	0	1	blank2r.bmp	0	1	+	0	1	B1r.bmp	492	1	blank2r.bmp	786	1	GKQX	786	1	blank2r.bmp	866	3	lasch	866	1	!	1239	1	!	1292	0	0	0	0	0	0	0	0	0	0	0	0	0	0	0	0	0	0	0	0	0	0	0	0	0	0	0
020619	10:58:24	11:07:03	516945	5.0.10.0	4_exp_AMP_EVA_AWA_CON	108	Rpleas_acq	Same	Rpleas	Bmasked	CS_B	1pleas	distractor1	EVAbeforeCON	acq_US_pleas_masked	acq45_masked	5	14	400	0	300	300	0	0	329	50	0	1	0	0	0	1	blank2r.bmp	0	1	+	0	5	C1r.bmp	492	1	blank2r.bmp	786	1	BMVZ	786	1	blank2r.bmp	866	3	loyal	866	1	!	-1	1	!	-1	0	0	0	0	0	0	0	0	0	0	0	0	0	0	0	0	0	0	0	0	0	0	0	0	0	0	0
020619	10:58:24	11:07:05	519144	5.0.10.0	4_exp_AMP_EVA_AWA_CON	108	Rpleas_acq	Same	Rpleas	Bmasked	CS_B	1pleas	distractor1	EVAbeforeCON	acq_US_unple_masked	acq45_masked	5	15	400	1	300	300	0	0	392	46	0	1	0	0	0	1	blank2r.bmp	0	1	+	0	4	B4r.bmp	492	1	blank2r.bmp	786	1	GKQX	786	1	blank2r.bmp	866	1	fanatisch	866	1	!	1239	1	!	1292	0	0	0	0	0	0	0	0	0	0	0	0	0	0	0	0	0	0	0	0	0	0	0	0	0	0	0
020619	10:58:24	11:07:08	521317	5.0.10.0	4_exp_AMP_EVA_AWA_CON	108	Rpleas_acq	Same	Rpleas	Bmasked	CS_B	1pleas	distractor1	EVAbeforeCON	acq_US_unple_masked	acq45_masked	5	16	400	1	300	300	0	0	367	46	0	1	0	0	0	1	blank2r.bmp	0	1	+	0	6	C2r.bmp	492	1	blank2r.bmp	786	1	GKQX	786	1	blank2r.bmp	866	4	tot	866	1	!	1239	1	!	1266	0	0	0	0	0	0	0	0	0	0	0	0	0	0	0	0	0	0	0	0	0	0	0	0	0	0	0
020619	10:58:24	11:07:10	523409	5.0.10.0	4_exp_AMP_EVA_AWA_CON	108	Rpleas_acq	Same	Rpleas	Bmasked	CS_B	1pleas	distractor1	EVAbeforeCON	acq_US_pleas_masked	acq45_masked	5	17	400	0	300	300	0	0	325	50	0	1	0	0	0	1	blank2r.bmp	0	1	+	0	5	C1r.bmp	492	1	blank2r.bmp	786	1	BMVZ	786	1	blank2r.bmp	866	1	freundlich	866	1	!	-1	1	!	-1	0	0	0	0	0	0	0	0	0	0	0	0	0	0	0	0	0	0	0	0	0	0	0	0	0	0	0
020619	10:58:24	11:07:12	525662	5.0.10.0	4_exp_AMP_EVA_AWA_CON	108	Rpleas_acq	Same	Rpleas	Bmasked	CS_B	1pleas	distractor1	EVAbeforeCON	acq_US_unple_masked	acq45_masked	5	18	400	1	300	300	0	0	448	46	0	1	0	0	0	1	blank2r.bmp	0	1	+	0	8	C4r.bmp	492	1	blank2r.bmp	786	1	GKQX	786	1	blank2r.bmp	866	3	lasch	866	1	!	1239	1	!	1346	0	0	0	0	0	0	0	0	0	0	0	0	0	0	0	0	0	0	0	0	0	0	0	0	0	0	0
020619	10:58:24	11:07:14	527887	5.0.10.0	4_exp_AMP_EVA_AWA_CON	108	Rpleas_acq	Same	Rpleas	Bmasked	CS_B	1pleas	distractor1	EVAbeforeCON	acq_US_pleas_masked	acq45_masked	5	19	400	1	300	300	0	0	429	50	0	1	0	0	0	1	blank2r.bmp	0	1	+	0	6	C2r.bmp	492	1	blank2r.bmp	786	1	BMVZ	786	1	blank2r.bmp	866	5	retten	866	1	!	1239	1	!	1332	0	0	0	0	0	0	0	0	0	0	0	0	0	0	0	0	0	0	0	0	0	0	0	0	0	0	0
020619	10:58:24	11:07:16	530073	5.0.10.0	4_exp_AMP_EVA_AWA_CON	108	Rpleas_acq	Same	Rpleas	Bmasked	CS_B	1pleas	distractor1	EVAbeforeCON	acq_US_pleas_masked	acq45_masked	5	20	400	1	300	300	0	0	395	50	0	1	0	0	0	1	blank2r.bmp	0	1	+	0	3	B3r.bmp	492	1	blank2r.bmp	786	1	BMVZ	786	1	blank2r.bmp	866	2	ehrlich	866	1	!	1239	1	!	1292	0	0	0	0	0	0	0	0	0	0	0	0	0	0	0	0	0	0	0	0	0	0	0	0	0	0	0
020619	10:58:24	11:07:18	532259	5.0.10.0	4_exp_AMP_EVA_AWA_CON	108	Rpleas_acq	Same	Rpleas	Bmasked	CS_B	1pleas	distractor1	EVAbeforeCON	acq_US_pleas_masked	acq45_masked	5	21	400	1	300	300	0	0	389	46	0	0	0	0	0	1	blank2r.bmp	0	1	+	0	1	B1r.bmp	492	1	blank2r.bmp	786	1	BMVZ	786	1	blank2r.bmp	866	6	tolerant	866	1	!	1239	1	!	1292	0	0	0	0	0	0	0	0	0	0	0	0	0	0	0	0	0	0	0	0	0	0	0	0	0	0	0
020619	10:58:24	11:07:21	534498	5.0.10.0	4_exp_AMP_EVA_AWA_CON	108	Rpleas_acq	Same	Rpleas	Bmasked	CS_B	1pleas	distractor1	EVAbeforeCON	acq_US_unple_masked	acq45_masked	5	22	400	1	300	300	0	0	443	46	0	1	0	0	0	1	blank2r.bmp	0	1	+	0	4	B4r.bmp	492	1	blank2r.bmp	786	1	GKQX	786	1	blank2r.bmp	866	5	rächen	866	1	!	1239	1	!	1346	0	0	0	0	0	0	0	0	0	0	0	0	0	0	0	0	0	0	0	0	0	0	0	0	0	0	0
020619	10:58:24	11:07:23	536697	5.0.10.0	4_exp_AMP_EVA_AWA_CON	108	Rpleas_acq	Same	Rpleas	Bmasked	CS_B	1pleas	distractor1	EVAbeforeCON	acq_US_unple_masked	acq45_masked	5	23	400	1	300	300	0	0	410	46	0	1	0	0	0	1	blank2r.bmp	0	1	+	0	2	B2r.bmp	492	1	blank2r.bmp	786	1	GKQX	786	1	blank2r.bmp	866	6	tyrannisch	866	1	!	1239	1	!	1306	0	0	0	0	0	0	0	0	0	0	0	0	0	0	0	0	0	0	0	0	0	0	0	0	0	0	0
020619	10:58:24	11:07:25	538883	5.0.10.0	4_exp_AMP_EVA_AWA_CON	108	Rpleas_acq	Same	Rpleas	Bmasked	CS_B	1pleas	distractor1	EVAbeforeCON	acq_US_unple_masked	acq45_masked	5	24	400	1	300	300	0	0	394	46	0	1	0	0	0	1	blank2r.bmp	0	1	+	0	7	C3r.bmp	492	1	blank2r.bmp	786	1	GKQX	786	1	blank2r.bmp	866	2	eitel	866	1	!	1239	1	!	1292	0	0	0	0	0	0	0	0	0	0	0	0	0	0	0	0	0	0	0	0	0	0	0	0	0	0	0
020619	10:58:24	11:07:27	541122	5.0.10.0	4_exp_AMP_EVA_AWA_CON	108	Rpleas_acq	Same	Rpleas	Bmasked	CS_B	1pleas	distractor1	EVAbeforeCON	acq_US_pleas_masked	acq45_masked	5	25	400	1	300	300	0	0	446	46	0	0	0	0	0	1	blank2r.bmp	0	1	+	0	7	C3r.bmp	492	1	blank2r.bmp	786	1	BMVZ	786	1	blank2r.bmp	866	6	tolerant	866	1	!	1239	1	!	1346	0	0	0	0	0	0	0	0	0	0	0	0	0	0	0	0	0	0	0	0	0	0	0	0	0	0	0
020619	10:58:24	11:07:30	543374	5.0.10.0	4_exp_AMP_EVA_AWA_CON	108	Rpleas_acq	Same	Rpleas	Bmasked	CS_B	1pleas	distractor1	EVAbeforeCON	acq_US_unple_masked	acq45_masked	5	26	400	1	300	300	0	0	458	46	0	1	0	0	0	1	blank2r.bmp	0	1	+	0	5	C1r.bmp	492	1	blank2r.bmp	786	1	GKQX	786	1	blank2r.bmp	866	3	lasch	866	1	!	1239	1	!	1359	0	0	0	0	0	0	0	0	0	0	0	0	0	0	0	0	0	0	0	0	0	0	0	0	0	0	0
020619	10:58:24	11:07:32	545667	5.0.10.0	4_exp_AMP_EVA_AWA_CON	108	Rpleas_acq	Same	Rpleas	Bmasked	CS_B	1pleas	distractor1	EVAbeforeCON	acq_US_pleas_masked	acq45_masked	5	27	400	0	300	300	0	0	522	50	0	1	0	0	0	1	blank2r.bmp	0	1	+	0	1	B1r.bmp	492	1	blank2r.bmp	786	1	BMVZ	786	1	blank2r.bmp	866	2	ehrlich	866	1	!	1239	1	!	-1	0	0	0	0	0	0	0	0	0	0	0	0	0	0	0	0	0	0	0	0	0	0	0	0	0	0	0
020619	10:58:24	11:07:34	547879	5.0.10.0	4_exp_AMP_EVA_AWA_CON	108	Rpleas_acq	Same	Rpleas	Bmasked	CS_B	1pleas	distractor1	EVAbeforeCON	acq_US_pleas_masked	acq45_masked	5	28	400	1	300	300	0	0	395	50	0	1	0	0	0	1	blank2r.bmp	0	1	+	0	6	C2r.bmp	492	1	blank2r.bmp	786	1	BMVZ	786	1	blank2r.bmp	866	4	treu	866	1	!	1239	1	!	1292	0	0	0	0	0	0	0	0	0	0	0	0	0	0	0	0	0	0	0	0	0	0	0	0	0	0	0
020619	10:58:24	11:07:36	550158	5.0.10.0	4_exp_AMP_EVA_AWA_CON	108	Rpleas_acq	Same	Rpleas	Bmasked	CS_B	1pleas	distractor1	EVAbeforeCON	acq_US_pleas_masked	acq45_masked	5	29	400	0	300	300	0	0	503	50	0	1	0	0	0	1	blank2r.bmp	0	1	+	0	2	B2r.bmp	492	1	blank2r.bmp	786	1	BMVZ	786	1	blank2r.bmp	866	5	retten	866	1	!	1239	1	!	-1	0	0	0	0	0	0	0	0	0	0	0	0	0	0	0	0	0	0	0	0	0	0	0	0	0	0	0
020619	10:58:24	11:07:39	552384	5.0.10.0	4_exp_AMP_EVA_AWA_CON	108	Rpleas_acq	Same	Rpleas	Bmasked	CS_B	1pleas	distractor1	EVAbeforeCON	acq_US_pleas_masked	acq45_masked	5	30	400	1	300	300	0	0	416	50	0	1	0	0	0	1	blank2r.bmp	0	1	+	0	8	C4r.bmp	492	1	blank2r.bmp	786	1	BMVZ	786	1	blank2r.bmp	866	1	freundlich	866	1	!	1239	1	!	1319	0	0	0	0	0	0	0	0	0	0	0	0	0	0	0	0	0	0	0	0	0	0	0	0	0	0	0
020619	10:58:24	11:07:41	554543	5.0.10.0	4_exp_AMP_EVA_AWA_CON	108	Rpleas_acq	Same	Rpleas	Bmasked	CS_B	1pleas	distractor1	EVAbeforeCON	acq_US_unple_masked	acq45_masked	5	31	400	1	300	300	0	0	359	46	0	1	0	0	0	1	blank2r.bmp	0	1	+	0	3	B3r.bmp	492	1	blank2r.bmp	786	1	GKQX	786	1	blank2r.bmp	866	6	tyrannisch	866	1	!	1239	1	!	1266	0	0	0	0	0	0	0	0	0	0	0	0	0	0	0	0	0	0	0	0	0	0	0	0	0	0	0
020619	10:58:24	11:07:43	556796	5.0.10.0	4_exp_AMP_EVA_AWA_CON	108	Rpleas_acq	Same	Rpleas	Bmasked	CS_B	1pleas	distractor1	EVAbeforeCON	acq_US_unple_masked	acq45_masked	5	32	400	1	300	300	0	0	452	46	0	1	0	0	0	1	blank2r.bmp	0	1	+	0	4	B4r.bmp	492	1	blank2r.bmp	786	1	GKQX	786	1	blank2r.bmp	866	4	tot	866	1	!	1239	1	!	1359	0	0	0	0	0	0	0	0	0	0	0	0	0	0	0	0	0	0	0	0	0	0	0	0	0	0	0
020619	10:58:24	11:07:45	558968	5.0.10.0	4_exp_AMP_EVA_AWA_CON	108	Rpleas_acq	Same	Rpleas	Bmasked	CS_B	1pleas	distractor1	EVAbeforeCON	acq_US_unple_masked	acq45_masked	5	33	400	1	300	300	0	0	382	46	0	1	0	0	0	1	blank2r.bmp	0	1	+	0	6	C2r.bmp	492	1	blank2r.bmp	786	1	GKQX	786	1	blank2r.bmp	866	1	fanatisch	866	1	!	1239	1	!	1279	0	0	0	0	0	0	0	0	0	0	0	0	0	0	0	0	0	0	0	0	0	0	0	0	0	0	0
020619	10:58:24	11:07:47	561194	5.0.10.0	4_exp_AMP_EVA_AWA_CON	108	Rpleas_acq	Same	Rpleas	Bmasked	CS_B	1pleas	distractor1	EVAbeforeCON	acq_US_unple_masked	acq45_masked	5	34	400	1	300	300	0	0	431	46	0	1	0	0	0	1	blank2r.bmp	0	1	+	0	5	C1r.bmp	492	1	blank2r.bmp	786	1	GKQX	786	1	blank2r.bmp	866	5	rächen	866	1	!	1239	1	!	1332	0	0	0	0	0	0	0	0	0	0	0	0	0	0	0	0	0	0	0	0	0	0	0	0	0	0	0
020619	10:58:24	11:07:50	563446	5.0.10.0	4_exp_AMP_EVA_AWA_CON	108	Rpleas_acq	Same	Rpleas	Bmasked	CS_B	1pleas	distractor1	EVAbeforeCON	acq_US_unple_masked	acq45_masked	5	35	400	0	300	300	0	0	479	50	0	0	0	0	0	1	blank2r.bmp	0	1	+	0	7	C3r.bmp	492	1	blank2r.bmp	786	1	GKQX	786	1	blank2r.bmp	866	2	eitel	866	1	!	1239	1	!	-1	0	0	0	0	0	0	0	0	0	0	0	0	0	0	0	0	0	0	0	0	0	0	0	0	0	0	0
020619	10:58:24	11:07:52	565672	5.0.10.0	4_exp_AMP_EVA_AWA_CON	108	Rpleas_acq	Same	Rpleas	Bmasked	CS_B	1pleas	distractor1	EVAbeforeCON	acq_US_pleas_masked	acq45_masked	5	36	400	1	300	300	0	0	415	50	0	1	0	0	0	1	blank2r.bmp	0	1	+	0	8	C4r.bmp	492	1	blank2r.bmp	786	1	BMVZ	786	1	blank2r.bmp	866	3	loyal	866	1	!	1239	1	!	1319	0	0	0	0	0	0	0	0	0	0	0	0	0	0	0	0	0	0	0	0	0	0	0	0	0	0	0
020619	10:58:24	11:08:30	603763	5.0.10.0	4_exp_AMP_EVA_AWA_CON	108	Rpleas_acq	Same	Rpleas	Bmasked	CS_B	1pleas	distractor1	EVAbeforeCON	AMP_CSunple	AMP1_masked	6	1	0	0	300	300	0	0	1583	50	0	0	0	0	0	1	blank2r.bmp	0	1	GKQX	0	1	blank2r.bmp	79	98	pic98.bmp	199	1	whitenoise_No3.bmp	306	0	0	0	0	0	0	0	0	0	0	0	0	0	0	0	0	0	0	0	0	0	0	0	0	0	0	0	0	0	0	0	0	0	0	0	0	0	0	0
020619	10:58:24	11:08:32	605642	5.0.10.0	4_exp_AMP_EVA_AWA_CON	108	Rpleas_acq	Same	Rpleas	Bmasked	CS_B	1pleas	distractor1	EVAbeforeCON	AMP_CSunple	AMP1_masked	6	2	0	0	300	300	0	0	969	46	0	1	0	0	0	1	blank2r.bmp	0	1	GKQX	0	1	blank2r.bmp	79	84	pic84.bmp	199	1	whitenoise_No3.bmp	306	0	0	0	0	0	0	0	0	0	0	0	0	0	0	0	0	0	0	0	0	0	0	0	0	0	0	0	0	0	0	0	0	0	0	0	0	0	0	0
020619	10:58:24	11:08:33	607188	5.0.10.0	4_exp_AMP_EVA_AWA_CON	108	Rpleas_acq	Same	Rpleas	Bmasked	CS_B	1pleas	distractor1	EVAbeforeCON	AMP_CSpleas	AMP1_masked	6	3	0	0	300	300	0	0	620	46	0	0	0	0	0	1	blank2r.bmp	0	1	BMVZ	0	1	blank2r.bmp	79	77	pic77.bmp	199	1	whitenoise_No3.bmp	306	0	0	0	0	0	0	0	0	0	0	0	0	0	0	0	0	0	0	0	0	0	0	0	0	0	0	0	0	0	0	0	0	0	0	0	0	0	0	0
020619	10:58:24	11:08:35	608601	5.0.10.0	4_exp_AMP_EVA_AWA_CON	108	Rpleas_acq	Same	Rpleas	Bmasked	CS_B	1pleas	distractor1	EVAbeforeCON	AMP_distractor	AMP1_masked	6	4	0	0	300	300	0	0	491	50	0	0	0	0	0	1	blank2r.bmp	0	1	WFPH	0	1	blank2r.bmp	79	114	pic114.bmp	199	1	whitenoise_No3.bmp	306	0	0	0	0	0	0	0	0	0	0	0	0	0	0	0	0	0	0	0	0	0	0	0	0	0	0	0	0	0	0	0	0	0	0	0	0	0	0	0
020619	10:58:24	11:08:36	609920	5.0.10.0	4_exp_AMP_EVA_AWA_CON	108	Rpleas_acq	Same	Rpleas	Bmasked	CS_B	1pleas	distractor1	EVAbeforeCON	AMP_distractor	AMP1_masked	6	5	0	0	300	300	0	0	393	46	0	0	0	0	0	1	blank2r.bmp	0	1	WFPH	0	1	blank2r.bmp	79	66	pic66.bmp	199	1	whitenoise_No3.bmp	306	0	0	0	0	0	0	0	0	0	0	0	0	0	0	0	0	0	0	0	0	0	0	0	0	0	0	0	0	0	0	0	0	0	0	0	0	0	0	0
020619	10:58:24	11:08:37	611200	5.0.10.0	4_exp_AMP_EVA_AWA_CON	108	Rpleas_acq	Same	Rpleas	Bmasked	CS_B	1pleas	distractor1	EVAbeforeCON	AMP_CSunple	AMP1_masked	6	6	0	0	300	300	0	0	355	46	0	1	0	0	0	1	blank2r.bmp	0	1	GKQX	0	1	blank2r.bmp	79	56	pic56.bmp	199	1	whitenoise_No3.bmp	306	0	0	0	0	0	0	0	0	0	0	0	0	0	0	0	0	0	0	0	0	0	0	0	0	0	0	0	0	0	0	0	0	0	0	0	0	0	0	0
020619	10:58:24	11:08:39	612439	5.0.10.0	4_exp_AMP_EVA_AWA_CON	108	Rpleas_acq	Same	Rpleas	Bmasked	CS_B	1pleas	distractor1	EVAbeforeCON	AMP_CSunple	AMP1_masked	6	7	0	0	300	300	0	0	318	50	0	0	0	0	0	1	blank2r.bmp	0	1	GKQX	0	1	blank2r.bmp	79	149	pic149.bmp	199	1	whitenoise_No3.bmp	306	0	0	0	0	0	0	0	0	0	0	0	0	0	0	0	0	0	0	0	0	0	0	0	0	0	0	0	0	0	0	0	0	0	0	0	0	0	0	0
020619	10:58:24	11:08:40	613599	5.0.10.0	4_exp_AMP_EVA_AWA_CON	108	Rpleas_acq	Same	Rpleas	Bmasked	CS_B	1pleas	distractor1	EVAbeforeCON	AMP_CSpleas	AMP1_masked	6	8	0	0	300	300	0	0	229	46	0	0	0	0	0	1	blank2r.bmp	0	1	BMVZ	0	1	blank2r.bmp	79	78	pic78.bmp	199	1	whitenoise_No3.bmp	306	0	0	0	0	0	0	0	0	0	0	0	0	0	0	0	0	0	0	0	0	0	0	0	0	0	0	0	0	0	0	0	0	0	0	0	0	0	0	0
020619	10:58:24	11:08:41	614852	5.0.10.0	4_exp_AMP_EVA_AWA_CON	108	Rpleas_acq	Same	Rpleas	Bmasked	CS_B	1pleas	distractor1	EVAbeforeCON	AMP_CSunple	AMP1_masked	6	9	0	0	300	300	0	0	330	50	0	0	0	0	0	1	blank2r.bmp	0	1	GKQX	0	1	blank2r.bmp	79	79	pic79.bmp	199	1	whitenoise_No3.bmp	306	0	0	0	0	0	0	0	0	0	0	0	0	0	0	0	0	0	0	0	0	0	0	0	0	0	0	0	0	0	0	0	0	0	0	0	0	0	0	0
020619	10:58:24	11:08:42	616051	5.0.10.0	4_exp_AMP_EVA_AWA_CON	108	Rpleas_acq	Same	Rpleas	Bmasked	CS_B	1pleas	distractor1	EVAbeforeCON	AMP_distractor	AMP1_masked	6	10	0	0	300	300	0	0	275	46	0	0	0	0	0	1	blank2r.bmp	0	1	WFPH	0	1	blank2r.bmp	79	36	pic36.bmp	199	1	whitenoise_No3.bmp	306	0	0	0	0	0	0	0	0	0	0	0	0	0	0	0	0	0	0	0	0	0	0	0	0	0	0	0	0	0	0	0	0	0	0	0	0	0	0	0
020619	10:58:24	11:08:44	617451	5.0.10.0	4_exp_AMP_EVA_AWA_CON	108	Rpleas_acq	Same	Rpleas	Bmasked	CS_B	1pleas	distractor1	EVAbeforeCON	AMP_distractor	AMP1_masked	6	11	0	0	300	300	0	0	476	50	0	0	0	0	0	1	blank2r.bmp	0	1	WFPH	0	1	blank2r.bmp	79	115	pic115.bmp	199	1	whitenoise_No3.bmp	306	0	0	0	0	0	0	0	0	0	0	0	0	0	0	0	0	0	0	0	0	0	0	0	0	0	0	0	0	0	0	0	0	0	0	0	0	0	0	0
020619	10:58:24	11:08:45	618943	5.0.10.0	4_exp_AMP_EVA_AWA_CON	108	Rpleas_acq	Same	Rpleas	Bmasked	CS_B	1pleas	distractor1	EVAbeforeCON	AMP_CSpleas	AMP1_masked	6	12	0	0	300	300	0	0	569	50	0	1	0	0	0	1	blank2r.bmp	0	1	BMVZ	0	1	blank2r.bmp	79	22	pic22.bmp	199	1	whitenoise_No3.bmp	306	0	0	0	0	0	0	0	0	0	0	0	0	0	0	0	0	0	0	0	0	0	0	0	0	0	0	0	0	0	0	0	0	0	0	0	0	0	0	0
020619	10:58:24	11:08:46	620236	5.0.10.0	4_exp_AMP_EVA_AWA_CON	108	Rpleas_acq	Same	Rpleas	Bmasked	CS_B	1pleas	distractor1	EVAbeforeCON	AMP_CSunple	AMP1_masked	6	13	0	0	300	300	0	0	363	46	0	1	0	0	0	1	blank2r.bmp	0	1	GKQX	0	1	blank2r.bmp	79	72	pic72.bmp	199	1	whitenoise_No3.bmp	306	0	0	0	0	0	0	0	0	0	0	0	0	0	0	0	0	0	0	0	0	0	0	0	0	0	0	0	0	0	0	0	0	0	0	0	0	0	0	0
020619	10:58:24	11:08:48	621569	5.0.10.0	4_exp_AMP_EVA_AWA_CON	108	Rpleas_acq	Same	Rpleas	Bmasked	CS_B	1pleas	distractor1	EVAbeforeCON	AMP_CSpleas	AMP1_masked	6	14	0	0	300	300	0	0	415	50	0	1	0	0	0	1	blank2r.bmp	0	1	BMVZ	0	1	blank2r.bmp	79	131	pic131.bmp	199	1	whitenoise_No3.bmp	306	0	0	0	0	0	0	0	0	0	0	0	0	0	0	0	0	0	0	0	0	0	0	0	0	0	0	0	0	0	0	0	0	0	0	0	0	0	0	0
020619	10:58:24	11:08:49	622875	5.0.10.0	4_exp_AMP_EVA_AWA_CON	108	Rpleas_acq	Same	Rpleas	Bmasked	CS_B	1pleas	distractor1	EVAbeforeCON	AMP_CSpleas	AMP1_masked	6	15	0	0	300	300	0	0	394	50	0	1	0	0	0	1	blank2r.bmp	0	1	BMVZ	0	1	blank2r.bmp	79	134	pic134.bmp	199	1	whitenoise_No3.bmp	306	0	0	0	0	0	0	0	0	0	0	0	0	0	0	0	0	0	0	0	0	0	0	0	0	0	0	0	0	0	0	0	0	0	0	0	0	0	0	0
020619	10:58:24	11:08:50	624194	5.0.10.0	4_exp_AMP_EVA_AWA_CON	108	Rpleas_acq	Same	Rpleas	Bmasked	CS_B	1pleas	distractor1	EVAbeforeCON	AMP_CSpleas	AMP1_masked	6	16	0	0	300	300	0	0	392	50	0	1	0	0	0	1	blank2r.bmp	0	1	BMVZ	0	1	blank2r.bmp	79	126	pic126.bmp	199	1	whitenoise_No3.bmp	306	0	0	0	0	0	0	0	0	0	0	0	0	0	0	0	0	0	0	0	0	0	0	0	0	0	0	0	0	0	0	0	0	0	0	0	0	0	0	0
020619	10:58:24	11:08:52	625660	5.0.10.0	4_exp_AMP_EVA_AWA_CON	108	Rpleas_acq	Same	Rpleas	Bmasked	CS_B	1pleas	distractor1	EVAbeforeCON	AMP_CSpleas	AMP1_masked	6	17	0	0	300	300	0	0	537	46	0	0	0	0	0	1	blank2r.bmp	0	1	BMVZ	0	1	blank2r.bmp	79	82	pic82.bmp	199	1	whitenoise_No3.bmp	306	0	0	0	0	0	0	0	0	0	0	0	0	0	0	0	0	0	0	0	0	0	0	0	0	0	0	0	0	0	0	0	0	0	0	0	0	0	0	0
020619	10:58:24	11:08:53	627193	5.0.10.0	4_exp_AMP_EVA_AWA_CON	108	Rpleas_acq	Same	Rpleas	Bmasked	CS_B	1pleas	distractor1	EVAbeforeCON	AMP_distractor	AMP1_masked	6	18	0	0	300	300	0	0	611	50	0	0	0	0	0	1	blank2r.bmp	0	1	WFPH	0	1	blank2r.bmp	79	136	pic136.bmp	199	1	whitenoise_No3.bmp	306	0	0	0	0	0	0	0	0	0	0	0	0	0	0	0	0	0	0	0	0	0	0	0	0	0	0	0	0	0	0	0	0	0	0	0	0	0	0	0
020619	10:58:24	11:08:55	628579	5.0.10.0	4_exp_AMP_EVA_AWA_CON	108	Rpleas_acq	Same	Rpleas	Bmasked	CS_B	1pleas	distractor1	EVAbeforeCON	AMP_distractor	AMP1_masked	6	19	0	0	300	300	0	0	478	46	0	0	0	0	0	1	blank2r.bmp	0	1	WFPH	0	1	blank2r.bmp	79	8	pic8.bmp	199	1	whitenoise_No3.bmp	306	0	0	0	0	0	0	0	0	0	0	0	0	0	0	0	0	0	0	0	0	0	0	0	0	0	0	0	0	0	0	0	0	0	0	0	0	0	0	0
020619	10:58:24	11:08:56	629899	5.0.10.0	4_exp_AMP_EVA_AWA_CON	108	Rpleas_acq	Same	Rpleas	Bmasked	CS_B	1pleas	distractor1	EVAbeforeCON	AMP_CSpleas	AMP1_masked	6	20	0	0	300	300	0	0	396	46	0	0	0	0	0	1	blank2r.bmp	0	1	BMVZ	0	1	blank2r.bmp	79	129	pic129.bmp	199	1	whitenoise_No3.bmp	306	0	0	0	0	0	0	0	0	0	0	0	0	0	0	0	0	0	0	0	0	0	0	0	0	0	0	0	0	0	0	0	0	0	0	0	0	0	0	0
020619	10:58:24	11:08:57	631018	5.0.10.0	4_exp_AMP_EVA_AWA_CON	108	Rpleas_acq	Same	Rpleas	Bmasked	CS_B	1pleas	distractor1	EVAbeforeCON	AMP_distractor	AMP1_masked	6	21	0	0	300	300	0	0	187	50	0	0	0	0	0	1	blank2r.bmp	0	1	WFPH	0	1	blank2r.bmp	79	26	pic26.bmp	199	1	whitenoise_No3.bmp	306	0	0	0	0	0	0	0	0	0	0	0	0	0	0	0	0	0	0	0	0	0	0	0	0	0	0	0	0	0	0	0	0	0	0	0	0	0	0	0
020619	10:58:24	11:08:58	632271	5.0.10.0	4_exp_AMP_EVA_AWA_CON	108	Rpleas_acq	Same	Rpleas	Bmasked	CS_B	1pleas	distractor1	EVAbeforeCON	AMP_CSunple	AMP1_masked	6	22	0	0	300	300	0	0	341	50	0	0	0	0	0	1	blank2r.bmp	0	1	GKQX	0	1	blank2r.bmp	79	31	pic31.bmp	199	1	whitenoise_No3.bmp	306	0	0	0	0	0	0	0	0	0	0	0	0	0	0	0	0	0	0	0	0	0	0	0	0	0	0	0	0	0	0	0	0	0	0	0	0	0	0	0
020619	10:58:24	11:09:00	633564	5.0.10.0	4_exp_AMP_EVA_AWA_CON	108	Rpleas_acq	Same	Rpleas	Bmasked	CS_B	1pleas	distractor1	EVAbeforeCON	AMP_CSunple	AMP1_masked	6	23	0	0	300	300	0	0	371	46	0	1	0	0	0	1	blank2r.bmp	0	1	GKQX	0	1	blank2r.bmp	79	3	pic3.bmp	199	1	whitenoise_No3.bmp	306	0	0	0	0	0	0	0	0	0	0	0	0	0	0	0	0	0	0	0	0	0	0	0	0	0	0	0	0	0	0	0	0	0	0	0	0	0	0	0
020619	10:58:24	11:09:01	634870	5.0.10.0	4_exp_AMP_EVA_AWA_CON	108	Rpleas_acq	Same	Rpleas	Bmasked	CS_B	1pleas	distractor1	EVAbeforeCON	AMP_distractor	AMP1_masked	6	24	0	0	300	300	0	0	384	50	0	0	0	0	0	1	blank2r.bmp	0	1	WFPH	0	1	blank2r.bmp	79	107	pic107.bmp	199	1	whitenoise_No3.bmp	306	0	0	0	0	0	0	0	0	0	0	0	0	0	0	0	0	0	0	0	0	0	0	0	0	0	0	0	0	0	0	0	0	0	0	0	0	0	0	0
020619	10:58:24	11:09:02	636203	5.0.10.0	4_exp_AMP_EVA_AWA_CON	108	Rpleas_acq	Same	Rpleas	Bmasked	CS_B	1pleas	distractor1	EVAbeforeCON	AMP_CSpleas	AMP1_masked	6	25	0	0	300	300	0	0	405	50	0	1	0	0	0	1	blank2r.bmp	0	1	BMVZ	0	1	blank2r.bmp	79	106	pic106.bmp	199	1	whitenoise_No3.bmp	306	0	0	0	0	0	0	0	0	0	0	0	0	0	0	0	0	0	0	0	0	0	0	0	0	0	0	0	0	0	0	0	0	0	0	0	0	0	0	0
020619	10:58:24	11:09:04	637496	5.0.10.0	4_exp_AMP_EVA_AWA_CON	108	Rpleas_acq	Same	Rpleas	Bmasked	CS_B	1pleas	distractor1	EVAbeforeCON	AMP_distractor	AMP1_masked	6	26	0	0	300	300	0	0	371	46	0	0	0	0	0	1	blank2r.bmp	0	1	WFPH	0	1	blank2r.bmp	79	32	pic32.bmp	199	1	whitenoise_No3.bmp	306	0	0	0	0	0	0	0	0	0	0	0	0	0	0	0	0	0	0	0	0	0	0	0	0	0	0	0	0	0	0	0	0	0	0	0	0	0	0	0
020619	10:58:24	11:09:05	638948	5.0.10.0	4_exp_AMP_EVA_AWA_CON	108	Rpleas_acq	Same	Rpleas	Bmasked	CS_B	1pleas	distractor1	EVAbeforeCON	AMP_CSpleas	AMP1_masked	6	27	0	0	300	300	0	0	526	46	0	0	0	0	0	1	blank2r.bmp	0	1	BMVZ	0	1	blank2r.bmp	79	67	pic67.bmp	199	1	whitenoise_No3.bmp	306	0	0	0	0	0	0	0	0	0	0	0	0	0	0	0	0	0	0	0	0	0	0	0	0	0	0	0	0	0	0	0	0	0	0	0	0	0	0	0
020619	10:58:24	11:09:07	640294	5.0.10.0	4_exp_AMP_EVA_AWA_CON	108	Rpleas_acq	Same	Rpleas	Bmasked	CS_B	1pleas	distractor1	EVAbeforeCON	AMP_CSpleas	AMP1_masked	6	28	0	0	300	300	0	0	417	50	0	1	0	0	0	1	blank2r.bmp	0	1	BMVZ	0	1	blank2r.bmp	79	137	pic137.bmp	199	1	whitenoise_No3.bmp	306	0	0	0	0	0	0	0	0	0	0	0	0	0	0	0	0	0	0	0	0	0	0	0	0	0	0	0	0	0	0	0	0	0	0	0	0	0	0	0
020619	10:58:24	11:09:08	641694	5.0.10.0	4_exp_AMP_EVA_AWA_CON	108	Rpleas_acq	Same	Rpleas	Bmasked	CS_B	1pleas	distractor1	EVAbeforeCON	AMP_distractor	AMP1_masked	6	29	0	0	300	300	0	0	474	50	0	0	0	0	0	1	blank2r.bmp	0	1	WFPH	0	1	blank2r.bmp	79	133	pic133.bmp	199	1	whitenoise_No3.bmp	306	0	0	0	0	0	0	0	0	0	0	0	0	0	0	0	0	0	0	0	0	0	0	0	0	0	0	0	0	0	0	0	0	0	0	0	0	0	0	0
020619	10:58:24	11:09:09	642973	5.0.10.0	4_exp_AMP_EVA_AWA_CON	108	Rpleas_acq	Same	Rpleas	Bmasked	CS_B	1pleas	distractor1	EVAbeforeCON	AMP_CSpleas	AMP1_masked	6	30	0	0	300	300	0	0	357	46	0	0	0	0	0	1	blank2r.bmp	0	1	BMVZ	0	1	blank2r.bmp	79	60	pic60.bmp	199	1	whitenoise_No3.bmp	306	0	0	0	0	0	0	0	0	0	0	0	0	0	0	0	0	0	0	0	0	0	0	0	0	0	0	0	0	0	0	0	0	0	0	0	0	0	0	0
020619	10:58:24	11:09:11	644333	5.0.10.0	4_exp_AMP_EVA_AWA_CON	108	Rpleas_acq	Same	Rpleas	Bmasked	CS_B	1pleas	distractor1	EVAbeforeCON	AMP_distractor	AMP1_masked	6	31	0	0	300	300	0	0	428	50	0	0	0	0	0	1	blank2r.bmp	0	1	WFPH	0	1	blank2r.bmp	79	153	pic153.bmp	199	1	whitenoise_No3.bmp	306	0	0	0	0	0	0	0	0	0	0	0	0	0	0	0	0	0	0	0	0	0	0	0	0	0	0	0	0	0	0	0	0	0	0	0	0	0	0	0
020619	10:58:24	11:09:12	645652	5.0.10.0	4_exp_AMP_EVA_AWA_CON	108	Rpleas_acq	Same	Rpleas	Bmasked	CS_B	1pleas	distractor1	EVAbeforeCON	AMP_distractor	AMP1_masked	6	32	0	0	300	300	0	0	389	46	0	0	0	0	0	1	blank2r.bmp	0	1	WFPH	0	1	blank2r.bmp	79	97	pic97.bmp	199	1	whitenoise_No3.bmp	306	0	0	0	0	0	0	0	0	0	0	0	0	0	0	0	0	0	0	0	0	0	0	0	0	0	0	0	0	0	0	0	0	0	0	0	0	0	0	0
020619	10:58:24	11:09:13	646998	5.0.10.0	4_exp_AMP_EVA_AWA_CON	108	Rpleas_acq	Same	Rpleas	Bmasked	CS_B	1pleas	distractor1	EVAbeforeCON	AMP_CSpleas	AMP1_masked	6	33	0	0	300	300	0	0	430	46	0	0	0	0	0	1	blank2r.bmp	0	1	BMVZ	0	1	blank2r.bmp	79	147	pic147.bmp	199	1	whitenoise_No3.bmp	306	0	0	0	0	0	0	0	0	0	0	0	0	0	0	0	0	0	0	0	0	0	0	0	0	0	0	0	0	0	0	0	0	0	0	0	0	0	0	0
020619	10:58:24	11:09:15	648411	5.0.10.0	4_exp_AMP_EVA_AWA_CON	108	Rpleas_acq	Same	Rpleas	Bmasked	CS_B	1pleas	distractor1	EVAbeforeCON	AMP_CSunple	AMP1_masked	6	34	0	0	300	300	0	0	481	46	0	1	0	0	0	1	blank2r.bmp	0	1	GKQX	0	1	blank2r.bmp	79	29	pic29.bmp	199	1	whitenoise_No3.bmp	306	0	0	0	0	0	0	0	0	0	0	0	0	0	0	0	0	0	0	0	0	0	0	0	0	0	0	0	0	0	0	0	0	0	0	0	0	0	0	0
020619	10:58:24	11:09:16	649624	5.0.10.0	4_exp_AMP_EVA_AWA_CON	108	Rpleas_acq	Same	Rpleas	Bmasked	CS_B	1pleas	distractor1	EVAbeforeCON	AMP_CSunple	AMP1_masked	6	35	0	0	300	300	0	0	299	50	0	0	0	0	0	1	blank2r.bmp	0	1	GKQX	0	1	blank2r.bmp	79	27	pic27.bmp	199	1	whitenoise_No3.bmp	306	0	0	0	0	0	0	0	0	0	0	0	0	0	0	0	0	0	0	0	0	0	0	0	0	0	0	0	0	0	0	0	0	0	0	0	0	0	0	0
020619	10:58:24	11:09:17	651183	5.0.10.0	4_exp_AMP_EVA_AWA_CON	108	Rpleas_acq	Same	Rpleas	Bmasked	CS_B	1pleas	distractor1	EVAbeforeCON	AMP_CSunple	AMP1_masked	6	36	0	0	300	300	0	0	627	46	0	1	0	0	0	1	blank2r.bmp	0	1	GKQX	0	1	blank2r.bmp	79	45	pic45.bmp	199	1	whitenoise_No3.bmp	306	0	0	0	0	0	0	0	0	0	0	0	0	0	0	0	0	0	0	0	0	0	0	0	0	0	0	0	0	0	0	0	0	0	0	0	0	0	0	0
020619	10:58:24	11:09:19	652503	5.0.10.0	4_exp_AMP_EVA_AWA_CON	108	Rpleas_acq	Same	Rpleas	Bmasked	CS_B	1pleas	distractor1	EVAbeforeCON	AMP_distractor	AMP1_masked	6	37	0	0	300	300	0	0	394	46	0	0	0	0	0	1	blank2r.bmp	0	1	WFPH	0	1	blank2r.bmp	79	5	pic5.bmp	199	1	whitenoise_No3.bmp	306	0	0	0	0	0	0	0	0	0	0	0	0	0	0	0	0	0	0	0	0	0	0	0	0	0	0	0	0	0	0	0	0	0	0	0	0	0	0	0
020619	10:58:24	11:09:20	653795	5.0.10.0	4_exp_AMP_EVA_AWA_CON	108	Rpleas_acq	Same	Rpleas	Bmasked	CS_B	1pleas	distractor1	EVAbeforeCON	AMP_CSunple	AMP1_masked	6	38	0	0	300	300	0	0	358	50	0	0	0	0	0	1	blank2r.bmp	0	1	GKQX	0	1	blank2r.bmp	79	85	pic85.bmp	199	1	whitenoise_No3.bmp	306	0	0	0	0	0	0	0	0	0	0	0	0	0	0	0	0	0	0	0	0	0	0	0	0	0	0	0	0	0	0	0	0	0	0	0	0	0	0	0
020619	10:58:24	11:09:21	655235	5.0.10.0	4_exp_AMP_EVA_AWA_CON	108	Rpleas_acq	Same	Rpleas	Bmasked	CS_B	1pleas	distractor1	EVAbeforeCON	AMP_distractor	AMP1_masked	6	39	0	0	300	300	0	0	521	46	0	0	0	0	0	1	blank2r.bmp	0	1	WFPH	0	1	blank2r.bmp	79	62	pic62.bmp	199	1	whitenoise_No3.bmp	306	0	0	0	0	0	0	0	0	0	0	0	0	0	0	0	0	0	0	0	0	0	0	0	0	0	0	0	0	0	0	0	0	0	0	0	0	0	0	0
020619	10:58:24	11:09:23	656514	5.0.10.0	4_exp_AMP_EVA_AWA_CON	108	Rpleas_acq	Same	Rpleas	Bmasked	CS_B	1pleas	distractor1	EVAbeforeCON	AMP_distractor	AMP1_masked	6	40	0	0	300	300	0	0	370	50	0	0	0	0	0	1	blank2r.bmp	0	1	WFPH	0	1	blank2r.bmp	79	58	pic58.bmp	199	1	whitenoise_No3.bmp	306	0	0	0	0	0	0	0	0	0	0	0	0	0	0	0	0	0	0	0	0	0	0	0	0	0	0	0	0	0	0	0	0	0	0	0	0	0	0	0
020619	10:58:24	11:09:24	657767	5.0.10.0	4_exp_AMP_EVA_AWA_CON	108	Rpleas_acq	Same	Rpleas	Bmasked	CS_B	1pleas	distractor1	EVAbeforeCON	AMP_distractor	AMP1_masked	6	41	0	0	300	300	0	0	321	46	0	0	0	0	0	1	blank2r.bmp	0	1	WFPH	0	1	blank2r.bmp	79	15	pic15.bmp	199	1	whitenoise_No3.bmp	306	0	0	0	0	0	0	0	0	0	0	0	0	0	0	0	0	0	0	0	0	0	0	0	0	0	0	0	0	0	0	0	0	0	0	0	0	0	0	0
020619	10:58:24	11:09:25	659073	5.0.10.0	4_exp_AMP_EVA_AWA_CON	108	Rpleas_acq	Same	Rpleas	Bmasked	CS_B	1pleas	distractor1	EVAbeforeCON	AMP_CSpleas	AMP1_masked	6	42	0	0	300	300	0	0	374	50	0	1	0	0	0	1	blank2r.bmp	0	1	BMVZ	0	1	blank2r.bmp	79	151	pic151.bmp	199	1	whitenoise_No3.bmp	306	0	0	0	0	0	0	0	0	0	0	0	0	0	0	0	0	0	0	0	0	0	0	0	0	0	0	0	0	0	0	0	0	0	0	0	0	0	0	0
020619	10:58:24	11:09:27	660353	5.0.10.0	4_exp_AMP_EVA_AWA_CON	108	Rpleas_acq	Same	Rpleas	Bmasked	CS_B	1pleas	distractor1	EVAbeforeCON	AMP_CSpleas	AMP1_masked	6	43	0	0	300	300	0	0	354	46	0	0	0	0	0	1	blank2r.bmp	0	1	BMVZ	0	1	blank2r.bmp	79	47	pic47.bmp	199	1	whitenoise_No3.bmp	306	0	0	0	0	0	0	0	0	0	0	0	0	0	0	0	0	0	0	0	0	0	0	0	0	0	0	0	0	0	0	0	0	0	0	0	0	0	0	0
020619	10:58:24	11:09:28	661739	5.0.10.0	4_exp_AMP_EVA_AWA_CON	108	Rpleas_acq	Same	Rpleas	Bmasked	CS_B	1pleas	distractor1	EVAbeforeCON	AMP_CSunple	AMP1_masked	6	44	0	0	300	300	0	0	460	46	0	1	0	0	0	1	blank2r.bmp	0	1	GKQX	0	1	blank2r.bmp	79	65	pic65.bmp	199	1	whitenoise_No3.bmp	306	0	0	0	0	0	0	0	0	0	0	0	0	0	0	0	0	0	0	0	0	0	0	0	0	0	0	0	0	0	0	0	0	0	0	0	0	0	0	0
020619	10:58:24	11:09:29	663032	5.0.10.0	4_exp_AMP_EVA_AWA_CON	108	Rpleas_acq	Same	Rpleas	Bmasked	CS_B	1pleas	distractor1	EVAbeforeCON	AMP_CSunple	AMP1_masked	6	45	0	0	300	300	0	0	365	50	0	0	0	0	0	1	blank2r.bmp	0	1	GKQX	0	1	blank2r.bmp	79	111	pic111.bmp	199	1	whitenoise_No3.bmp	306	0	0	0	0	0	0	0	0	0	0	0	0	0	0	0	0	0	0	0	0	0	0	0	0	0	0	0	0	0	0	0	0	0	0	0	0	0	0	0
020619	10:58:24	11:09:31	664351	5.0.10.0	4_exp_AMP_EVA_AWA_CON	108	Rpleas_acq	Same	Rpleas	Bmasked	CS_B	1pleas	distractor1	EVAbeforeCON	AMP_CSunple	AMP1_masked	6	46	0	0	300	300	0	0	387	50	0	0	0	0	0	1	blank2r.bmp	0	1	GKQX	0	1	blank2r.bmp	79	105	pic105.bmp	199	1	whitenoise_No3.bmp	306	0	0	0	0	0	0	0	0	0	0	0	0	0	0	0	0	0	0	0	0	0	0	0	0	0	0	0	0	0	0	0	0	0	0	0	0	0	0	0
020619	10:58:24	11:09:32	665604	5.0.10.0	4_exp_AMP_EVA_AWA_CON	108	Rpleas_acq	Same	Rpleas	Bmasked	CS_B	1pleas	distractor1	EVAbeforeCON	AMP_distractor	AMP1_masked	6	47	0	0	300	300	0	0	338	46	0	0	0	0	0	1	blank2r.bmp	0	1	WFPH	0	1	blank2r.bmp	79	43	pic43.bmp	199	1	whitenoise_No3.bmp	306	0	0	0	0	0	0	0	0	0	0	0	0	0	0	0	0	0	0	0	0	0	0	0	0	0	0	0	0	0	0	0	0	0	0	0	0	0	0	0
020619	10:58:24	11:09:33	666883	5.0.10.0	4_exp_AMP_EVA_AWA_CON	108	Rpleas_acq	Same	Rpleas	Bmasked	CS_B	1pleas	distractor1	EVAbeforeCON	AMP_CSunple	AMP1_masked	6	48	0	0	300	300	0	0	366	46	0	1	0	0	0	1	blank2r.bmp	0	1	GKQX	0	1	blank2r.bmp	79	30	pic30.bmp	199	1	whitenoise_No3.bmp	306	0	0	0	0	0	0	0	0	0	0	0	0	0	0	0	0	0	0	0	0	0	0	0	0	0	0	0	0	0	0	0	0	0	0	0	0	0	0	0
020619	10:58:24	11:09:34	668230	5.0.10.0	4_exp_AMP_EVA_AWA_CON	108	Rpleas_acq	Same	Rpleas	Bmasked	CS_B	1pleas	distractor1	EVAbeforeCON	AMP_CSpleas	AMP1_masked	6	49	0	0	300	300	0	0	426	46	0	0	0	0	0	1	blank2r.bmp	0	1	BMVZ	0	1	blank2r.bmp	79	7	pic7.bmp	199	1	whitenoise_No3.bmp	306	0	0	0	0	0	0	0	0	0	0	0	0	0	0	0	0	0	0	0	0	0	0	0	0	0	0	0	0	0	0	0	0	0	0	0	0	0	0	0
020619	10:58:24	11:09:36	669496	5.0.10.0	4_exp_AMP_EVA_AWA_CON	108	Rpleas_acq	Same	Rpleas	Bmasked	CS_B	1pleas	distractor1	EVAbeforeCON	AMP_CSpleas	AMP1_masked	6	50	0	0	300	300	0	0	356	46	0	0	0	0	0	1	blank2r.bmp	0	1	BMVZ	0	1	blank2r.bmp	79	116	pic116.bmp	199	1	whitenoise_No3.bmp	306	0	0	0	0	0	0	0	0	0	0	0	0	0	0	0	0	0	0	0	0	0	0	0	0	0	0	0	0	0	0	0	0	0	0	0	0	0	0	0
020619	10:58:24	11:09:37	670735	5.0.10.0	4_exp_AMP_EVA_AWA_CON	108	Rpleas_acq	Same	Rpleas	Bmasked	CS_B	1pleas	distractor1	EVAbeforeCON	AMP_CSunple	AMP1_masked	6	51	0	0	300	300	0	0	315	50	0	0	0	0	0	1	blank2r.bmp	0	1	GKQX	0	1	blank2r.bmp	79	110	pic110.bmp	199	1	whitenoise_No3.bmp	306	0	0	0	0	0	0	0	0	0	0	0	0	0	0	0	0	0	0	0	0	0	0	0	0	0	0	0	0	0	0	0	0	0	0	0	0	0	0	0
020619	10:58:24	11:09:45	679145	5.0.10.0	4_exp_AMP_EVA_AWA_CON	108	Rpleas_acq	Same	Rpleas	Bmasked	CS_B	1pleas	distractor1	EVAbeforeCON	AMP_CSpleas	AMP23	7	1	0	0	300	300	0	0	617	50	0	1	0	0	0	1	blank2r.bmp	0	1	BMVZ	0	1	blank2r.bmp	79	95	pic95.bmp	199	1	whitenoise_No3.bmp	306	0	0	0	0	0	0	0	0	0	0	0	0	0	0	0	0	0	0	0	0	0	0	0	0	0	0	0	0	0	0	0	0	0	0	0	0	0	0	0
020619	10:58:24	11:09:47	680624	5.0.10.0	4_exp_AMP_EVA_AWA_CON	108	Rpleas_acq	Same	Rpleas	Bmasked	CS_B	1pleas	distractor1	EVAbeforeCON	AMP_distractor	AMP23	7	2	0	0	300	300	0	0	571	50	0	0	0	0	0	1	blank2r.bmp	0	1	WFPH	0	1	blank2r.bmp	79	109	pic109.bmp	199	1	whitenoise_No3.bmp	306	0	0	0	0	0	0	0	0	0	0	0	0	0	0	0	0	0	0	0	0	0	0	0	0	0	0	0	0	0	0	0	0	0	0	0	0	0	0	0
020619	10:58:24	11:09:48	682011	5.0.10.0	4_exp_AMP_EVA_AWA_CON	108	Rpleas_acq	Same	Rpleas	Bmasked	CS_B	1pleas	distractor1	EVAbeforeCON	AMP_CSunple	AMP23	7	3	0	0	300	300	0	0	464	50	0	0	0	0	0	1	blank2r.bmp	0	1	GKQX	0	1	blank2r.bmp	79	122	pic122.bmp	199	1	whitenoise_No3.bmp	306	0	0	0	0	0	0	0	0	0	0	0	0	0	0	0	0	0	0	0	0	0	0	0	0	0	0	0	0	0	0	0	0	0	0	0	0	0	0	0
020619	10:58:24	11:09:50	683330	5.0.10.0	4_exp_AMP_EVA_AWA_CON	108	Rpleas_acq	Same	Rpleas	Bmasked	CS_B	1pleas	distractor1	EVAbeforeCON	AMP_distractor	AMP23	7	4	0	0	300	300	0	0	403	50	0	0	0	0	0	1	blank2r.bmp	0	1	WFPH	0	1	blank2r.bmp	79	68	pic68.bmp	199	1	whitenoise_No3.bmp	306	0	0	0	0	0	0	0	0	0	0	0	0	0	0	0	0	0	0	0	0	0	0	0	0	0	0	0	0	0	0	0	0	0	0	0	0	0	0	0
020619	10:58:24	11:09:51	684556	5.0.10.0	4_exp_AMP_EVA_AWA_CON	108	Rpleas_acq	Same	Rpleas	Bmasked	CS_B	1pleas	distractor1	EVAbeforeCON	AMP_distractor	AMP23	7	5	0	0	300	300	0	0	299	50	0	0	0	0	0	1	blank2r.bmp	0	1	WFPH	0	1	blank2r.bmp	79	4	pic4.bmp	199	1	whitenoise_No3.bmp	306	0	0	0	0	0	0	0	0	0	0	0	0	0	0	0	0	0	0	0	0	0	0	0	0	0	0	0	0	0	0	0	0	0	0	0	0	0	0	0
020619	10:58:24	11:09:52	686102	5.0.10.0	4_exp_AMP_EVA_AWA_CON	108	Rpleas_acq	Same	Rpleas	Bmasked	CS_B	1pleas	distractor1	EVAbeforeCON	AMP_CSpleas	AMP23	7	6	0	0	300	300	0	0	636	50	0	1	0	0	0	1	blank2r.bmp	0	1	BMVZ	0	1	blank2r.bmp	79	123	pic123.bmp	199	1	whitenoise_No3.bmp	306	0	0	0	0	0	0	0	0	0	0	0	0	0	0	0	0	0	0	0	0	0	0	0	0	0	0	0	0	0	0	0	0	0	0	0	0	0	0	0
020619	10:58:24	11:09:54	687328	5.0.10.0	4_exp_AMP_EVA_AWA_CON	108	Rpleas_acq	Same	Rpleas	Bmasked	CS_B	1pleas	distractor1	EVAbeforeCON	AMP_distractor	AMP23	7	7	0	0	300	300	0	0	298	50	0	0	0	0	0	1	blank2r.bmp	0	1	WFPH	0	1	blank2r.bmp	79	33	pic33.bmp	199	1	whitenoise_No3.bmp	306	0	0	0	0	0	0	0	0	0	0	0	0	0	0	0	0	0	0	0	0	0	0	0	0	0	0	0	0	0	0	0	0	0	0	0	0	0	0	0
020619	10:58:24	11:09:55	688541	5.0.10.0	4_exp_AMP_EVA_AWA_CON	108	Rpleas_acq	Same	Rpleas	Bmasked	CS_B	1pleas	distractor1	EVAbeforeCON	AMP_CSpleas	AMP23	7	8	0	0	300	300	0	0	283	50	0	1	0	0	0	1	blank2r.bmp	0	1	BMVZ	0	1	blank2r.bmp	79	91	pic91.bmp	199	1	whitenoise_No3.bmp	306	0	0	0	0	0	0	0	0	0	0	0	0	0	0	0	0	0	0	0	0	0	0	0	0	0	0	0	0	0	0	0	0	0	0	0	0	0	0	0
020619	10:58:24	11:09:56	689754	5.0.10.0	4_exp_AMP_EVA_AWA_CON	108	Rpleas_acq	Same	Rpleas	Bmasked	CS_B	1pleas	distractor1	EVAbeforeCON	AMP_CSunple	AMP23	7	9	0	0	300	300	0	0	287	50	0	0	0	0	0	1	blank2r.bmp	0	1	GKQX	0	1	blank2r.bmp	79	44	pic44.bmp	199	1	whitenoise_No3.bmp	306	0	0	0	0	0	0	0	0	0	0	0	0	0	0	0	0	0	0	0	0	0	0	0	0	0	0	0	0	0	0	0	0	0	0	0	0	0	0	0
020619	10:58:24	11:09:58	691713	5.0.10.0	4_exp_AMP_EVA_AWA_CON	108	Rpleas_acq	Same	Rpleas	Bmasked	CS_B	1pleas	distractor1	EVAbeforeCON	AMP_CSunple	AMP23	7	10	0	0	300	300	0	0	1033	50	0	0	0	0	0	1	blank2r.bmp	0	1	GKQX	0	1	blank2r.bmp	79	118	pic118.bmp	199	1	whitenoise_No3.bmp	306	0	0	0	0	0	0	0	0	0	0	0	0	0	0	0	0	0	0	0	0	0	0	0	0	0	0	0	0	0	0	0	0	0	0	0	0	0	0	0
020619	10:58:24	11:09:59	692873	5.0.10.0	4_exp_AMP_EVA_AWA_CON	108	Rpleas_acq	Same	Rpleas	Bmasked	CS_B	1pleas	distractor1	EVAbeforeCON	AMP_CSpleas	AMP23	7	11	0	0	300	300	0	0	243	50	0	1	0	0	0	1	blank2r.bmp	0	1	BMVZ	0	1	blank2r.bmp	79	148	pic148.bmp	199	1	whitenoise_No3.bmp	306	0	0	0	0	0	0	0	0	0	0	0	0	0	0	0	0	0	0	0	0	0	0	0	0	0	0	0	0	0	0	0	0	0	0	0	0	0	0	0
020619	10:58:24	11:10:00	694179	5.0.10.0	4_exp_AMP_EVA_AWA_CON	108	Rpleas_acq	Same	Rpleas	Bmasked	CS_B	1pleas	distractor1	EVAbeforeCON	AMP_CSpleas	AMP23	7	12	0	0	300	300	0	0	392	46	0	0	0	0	0	1	blank2r.bmp	0	1	BMVZ	0	1	blank2r.bmp	79	64	pic64.bmp	199	1	whitenoise_No3.bmp	306	0	0	0	0	0	0	0	0	0	0	0	0	0	0	0	0	0	0	0	0	0	0	0	0	0	0	0	0	0	0	0	0	0	0	0	0	0	0	0
020619	10:58:24	11:10:02	695552	5.0.10.0	4_exp_AMP_EVA_AWA_CON	108	Rpleas_acq	Same	Rpleas	Bmasked	CS_B	1pleas	distractor1	EVAbeforeCON	AMP_distractor	AMP23	7	13	0	0	300	300	0	0	452	46	0	0	0	0	0	1	blank2r.bmp	0	1	WFPH	0	1	blank2r.bmp	79	13	pic13.bmp	199	1	whitenoise_No3.bmp	306	0	0	0	0	0	0	0	0	0	0	0	0	0	0	0	0	0	0	0	0	0	0	0	0	0	0	0	0	0	0	0	0	0	0	0	0	0	0	0
020619	10:58:24	11:10:03	696831	5.0.10.0	4_exp_AMP_EVA_AWA_CON	108	Rpleas_acq	Same	Rpleas	Bmasked	CS_B	1pleas	distractor1	EVAbeforeCON	AMP_distractor	AMP23	7	14	0	0	300	300	0	0	364	50	0	0	0	0	0	1	blank2r.bmp	0	1	WFPH	0	1	blank2r.bmp	79	88	pic88.bmp	199	1	whitenoise_No3.bmp	306	0	0	0	0	0	0	0	0	0	0	0	0	0	0	0	0	0	0	0	0	0	0	0	0	0	0	0	0	0	0	0	0	0	0	0	0	0	0	0
020619	10:58:24	11:10:04	698204	5.0.10.0	4_exp_AMP_EVA_AWA_CON	108	Rpleas_acq	Same	Rpleas	Bmasked	CS_B	1pleas	distractor1	EVAbeforeCON	AMP_CSpleas	AMP23	7	15	0	0	300	300	0	0	455	50	0	1	0	0	0	1	blank2r.bmp	0	1	BMVZ	0	1	blank2r.bmp	79	25	pic25.bmp	199	1	whitenoise_No3.bmp	306	0	0	0	0	0	0	0	0	0	0	0	0	0	0	0	0	0	0	0	0	0	0	0	0	0	0	0	0	0	0	0	0	0	0	0	0	0	0	0
020619	10:58:24	11:10:06	699670	5.0.10.0	4_exp_AMP_EVA_AWA_CON	108	Rpleas_acq	Same	Rpleas	Bmasked	CS_B	1pleas	distractor1	EVAbeforeCON	AMP_distractor	AMP23	7	16	0	0	300	300	0	0	549	50	0	0	0	0	0	1	blank2r.bmp	0	1	WFPH	0	1	blank2r.bmp	79	11	pic11.bmp	199	1	whitenoise_No3.bmp	306	0	0	0	0	0	0	0	0	0	0	0	0	0	0	0	0	0	0	0	0	0	0	0	0	0	0	0	0	0	0	0	0	0	0	0	0	0	0	0
020619	10:58:24	11:10:07	701043	5.0.10.0	4_exp_AMP_EVA_AWA_CON	108	Rpleas_acq	Same	Rpleas	Bmasked	CS_B	1pleas	distractor1	EVAbeforeCON	AMP_distractor	AMP23	7	17	0	0	300	300	0	0	465	50	0	0	0	0	0	1	blank2r.bmp	0	1	WFPH	0	1	blank2r.bmp	79	24	pic24.bmp	199	1	whitenoise_No3.bmp	306	0	0	0	0	0	0	0	0	0	0	0	0	0	0	0	0	0	0	0	0	0	0	0	0	0	0	0	0	0	0	0	0	0	0	0	0	0	0	0
020619	10:58:24	11:10:09	702389	5.0.10.0	4_exp_AMP_EVA_AWA_CON	108	Rpleas_acq	Same	Rpleas	Bmasked	CS_B	1pleas	distractor1	EVAbeforeCON	AMP_distractor	AMP23	7	18	0	0	300	300	0	0	400	46	0	0	0	0	0	1	blank2r.bmp	0	1	WFPH	0	1	blank2r.bmp	79	48	pic48.bmp	199	1	whitenoise_No3.bmp	306	0	0	0	0	0	0	0	0	0	0	0	0	0	0	0	0	0	0	0	0	0	0	0	0	0	0	0	0	0	0	0	0	0	0	0	0	0	0	0
020619	10:58:24	11:10:10	703642	5.0.10.0	4_exp_AMP_EVA_AWA_CON	108	Rpleas_acq	Same	Rpleas	Bmasked	CS_B	1pleas	distractor1	EVAbeforeCON	AMP_distractor	AMP23	7	19	0	0	300	300	0	0	338	50	0	0	0	0	0	1	blank2r.bmp	0	1	WFPH	0	1	blank2r.bmp	79	12	pic12.bmp	199	1	whitenoise_No3.bmp	306	0	0	0	0	0	0	0	0	0	0	0	0	0	0	0	0	0	0	0	0	0	0	0	0	0	0	0	0	0	0	0	0	0	0	0	0	0	0	0
020619	10:58:24	11:10:12	705521	5.0.10.0	4_exp_AMP_EVA_AWA_CON	108	Rpleas_acq	Same	Rpleas	Bmasked	CS_B	1pleas	distractor1	EVAbeforeCON	AMP_CSpleas	AMP23	7	20	0	0	300	300	0	0	955	46	0	0	0	0	0	1	blank2r.bmp	0	1	BMVZ	0	1	blank2r.bmp	79	87	pic87.bmp	199	1	whitenoise_No3.bmp	306	0	0	0	0	0	0	0	0	0	0	0	0	0	0	0	0	0	0	0	0	0	0	0	0	0	0	0	0	0	0	0	0	0	0	0	0	0	0	0
020619	10:58:24	11:10:13	706907	5.0.10.0	4_exp_AMP_EVA_AWA_CON	108	Rpleas_acq	Same	Rpleas	Bmasked	CS_B	1pleas	distractor1	EVAbeforeCON	AMP_CSunple	AMP23	7	21	0	0	300	300	0	0	470	50	0	0	0	0	0	1	blank2r.bmp	0	1	GKQX	0	1	blank2r.bmp	79	103	pic103.bmp	199	1	whitenoise_No3.bmp	306	0	0	0	0	0	0	0	0	0	0	0	0	0	0	0	0	0	0	0	0	0	0	0	0	0	0	0	0	0	0	0	0	0	0	0	0	0	0	0
020619	10:58:24	11:10:15	708306	5.0.10.0	4_exp_AMP_EVA_AWA_CON	108	Rpleas_acq	Same	Rpleas	Bmasked	CS_B	1pleas	distractor1	EVAbeforeCON	AMP_distractor	AMP23	7	22	0	0	300	300	0	0	466	46	0	0	0	0	0	1	blank2r.bmp	0	1	WFPH	0	1	blank2r.bmp	79	71	pic71.bmp	199	1	whitenoise_No3.bmp	306	0	0	0	0	0	0	0	0	0	0	0	0	0	0	0	0	0	0	0	0	0	0	0	0	0	0	0	0	0	0	0	0	0	0	0	0	0	0	0
020619	10:58:24	11:10:16	709546	5.0.10.0	4_exp_AMP_EVA_AWA_CON	108	Rpleas_acq	Same	Rpleas	Bmasked	CS_B	1pleas	distractor1	EVAbeforeCON	AMP_CSunple	AMP23	7	23	0	0	300	300	0	0	320	50	0	0	0	0	0	1	blank2r.bmp	0	1	GKQX	0	1	blank2r.bmp	79	80	pic80.bmp	199	1	whitenoise_No3.bmp	306	0	0	0	0	0	0	0	0	0	0	0	0	0	0	0	0	0	0	0	0	0	0	0	0	0	0	0	0	0	0	0	0	0	0	0	0	0	0	0
020619	10:58:24	11:10:17	710839	5.0.10.0	4_exp_AMP_EVA_AWA_CON	108	Rpleas_acq	Same	Rpleas	Bmasked	CS_B	1pleas	distractor1	EVAbeforeCON	AMP_distractor	AMP23	7	24	0	0	300	300	0	0	379	46	0	0	0	0	0	1	blank2r.bmp	0	1	WFPH	0	1	blank2r.bmp	79	19	pic19.bmp	199	1	whitenoise_No3.bmp	306	0	0	0	0	0	0	0	0	0	0	0	0	0	0	0	0	0	0	0	0	0	0	0	0	0	0	0	0	0	0	0	0	0	0	0	0	0	0	0
020619	10:58:24	11:10:18	712265	5.0.10.0	4_exp_AMP_EVA_AWA_CON	108	Rpleas_acq	Same	Rpleas	Bmasked	CS_B	1pleas	distractor1	EVAbeforeCON	AMP_CSunple	AMP23	7	25	0	0	300	300	0	0	506	50	0	0	0	0	0	1	blank2r.bmp	0	1	GKQX	0	1	blank2r.bmp	79	142	pic142.bmp	199	1	whitenoise_No3.bmp	306	0	0	0	0	0	0	0	0	0	0	0	0	0	0	0	0	0	0	0	0	0	0	0	0	0	0	0	0	0	0	0	0	0	0	0	0	0	0	0
020619	10:58:24	11:10:20	713624	5.0.10.0	4_exp_AMP_EVA_AWA_CON	108	Rpleas_acq	Same	Rpleas	Bmasked	CS_B	1pleas	distractor1	EVAbeforeCON	AMP_CSunple	AMP23	7	26	0	0	300	300	0	0	447	50	0	0	0	0	0	1	blank2r.bmp	0	1	GKQX	0	1	blank2r.bmp	79	35	pic35.bmp	199	1	whitenoise_No3.bmp	306	0	0	0	0	0	0	0	0	0	0	0	0	0	0	0	0	0	0	0	0	0	0	0	0	0	0	0	0	0	0	0	0	0	0	0	0	0	0	0
020619	10:58:24	11:10:21	714957	5.0.10.0	4_exp_AMP_EVA_AWA_CON	108	Rpleas_acq	Same	Rpleas	Bmasked	CS_B	1pleas	distractor1	EVAbeforeCON	AMP_CSpleas	AMP23	7	27	0	0	300	300	0	0	407	50	0	1	0	0	0	1	blank2r.bmp	0	1	BMVZ	0	1	blank2r.bmp	79	90	pic90.bmp	199	1	whitenoise_No3.bmp	306	0	0	0	0	0	0	0	0	0	0	0	0	0	0	0	0	0	0	0	0	0	0	0	0	0	0	0	0	0	0	0	0	0	0	0	0	0	0	0
020619	10:58:24	11:10:23	716356	5.0.10.0	4_exp_AMP_EVA_AWA_CON	108	Rpleas_acq	Same	Rpleas	Bmasked	CS_B	1pleas	distractor1	EVAbeforeCON	AMP_CSunple	AMP23	7	28	0	0	300	300	0	0	480	50	0	0	0	0	0	1	blank2r.bmp	0	1	GKQX	0	1	blank2r.bmp	79	51	pic51.bmp	199	1	whitenoise_No3.bmp	306	0	0	0	0	0	0	0	0	0	0	0	0	0	0	0	0	0	0	0	0	0	0	0	0	0	0	0	0	0	0	0	0	0	0	0	0	0	0	0
020619	10:58:24	11:10:24	717649	5.0.10.0	4_exp_AMP_EVA_AWA_CON	108	Rpleas_acq	Same	Rpleas	Bmasked	CS_B	1pleas	distractor1	EVAbeforeCON	AMP_CSpleas	AMP23	7	29	0	0	300	300	0	0	375	50	0	1	0	0	0	1	blank2r.bmp	0	1	BMVZ	0	1	blank2r.bmp	79	59	pic59.bmp	199	1	whitenoise_No3.bmp	306	0	0	0	0	0	0	0	0	0	0	0	0	0	0	0	0	0	0	0	0	0	0	0	0	0	0	0	0	0	0	0	0	0	0	0	0	0	0	0
020619	10:58:24	11:10:25	718955	5.0.10.0	4_exp_AMP_EVA_AWA_CON	108	Rpleas_acq	Same	Rpleas	Bmasked	CS_B	1pleas	distractor1	EVAbeforeCON	AMP_CSunple	AMP23	7	30	0	0	300	300	0	0	392	46	0	1	0	0	0	1	blank2r.bmp	0	1	GKQX	0	1	blank2r.bmp	79	141	pic141.bmp	199	1	whitenoise_No3.bmp	306	0	0	0	0	0	0	0	0	0	0	0	0	0	0	0	0	0	0	0	0	0	0	0	0	0	0	0	0	0	0	0	0	0	0	0	0	0	0	0
020619	10:58:24	11:10:27	720501	5.0.10.0	4_exp_AMP_EVA_AWA_CON	108	Rpleas_acq	Same	Rpleas	Bmasked	CS_B	1pleas	distractor1	EVAbeforeCON	AMP_distractor	AMP23	7	31	0	0	300	300	0	0	625	50	0	0	0	0	0	1	blank2r.bmp	0	1	WFPH	0	1	blank2r.bmp	79	53	pic53.bmp	199	1	whitenoise_No3.bmp	306	0	0	0	0	0	0	0	0	0	0	0	0	0	0	0	0	0	0	0	0	0	0	0	0	0	0	0	0	0	0	0	0	0	0	0	0	0	0	0
020619	10:58:24	11:10:28	721834	5.0.10.0	4_exp_AMP_EVA_AWA_CON	108	Rpleas_acq	Same	Rpleas	Bmasked	CS_B	1pleas	distractor1	EVAbeforeCON	AMP_CSunple	AMP23	7	32	0	0	300	300	0	0	422	50	0	0	0	0	0	1	blank2r.bmp	0	1	GKQX	0	1	blank2r.bmp	79	112	pic112.bmp	199	1	whitenoise_No3.bmp	306	0	0	0	0	0	0	0	0	0	0	0	0	0	0	0	0	0	0	0	0	0	0	0	0	0	0	0	0	0	0	0	0	0	0	0	0	0	0	0
020619	10:58:24	11:10:29	723154	5.0.10.0	4_exp_AMP_EVA_AWA_CON	108	Rpleas_acq	Same	Rpleas	Bmasked	CS_B	1pleas	distractor1	EVAbeforeCON	AMP_CSunple	AMP23	7	33	0	0	300	300	0	0	395	50	0	0	0	0	0	1	blank2r.bmp	0	1	GKQX	0	1	blank2r.bmp	79	130	pic130.bmp	199	1	whitenoise_No3.bmp	306	0	0	0	0	0	0	0	0	0	0	0	0	0	0	0	0	0	0	0	0	0	0	0	0	0	0	0	0	0	0	0	0	0	0	0	0	0	0	0
020619	10:58:24	11:10:31	724513	5.0.10.0	4_exp_AMP_EVA_AWA_CON	108	Rpleas_acq	Same	Rpleas	Bmasked	CS_B	1pleas	distractor1	EVAbeforeCON	AMP_CSunple	AMP23	7	34	0	0	300	300	0	0	433	50	0	0	0	0	0	1	blank2r.bmp	0	1	GKQX	0	1	blank2r.bmp	79	139	pic139.bmp	199	1	whitenoise_No3.bmp	306	0	0	0	0	0	0	0	0	0	0	0	0	0	0	0	0	0	0	0	0	0	0	0	0	0	0	0	0	0	0	0	0	0	0	0	0	0	0	0
020619	10:58:24	11:10:32	725859	5.0.10.0	4_exp_AMP_EVA_AWA_CON	108	Rpleas_acq	Same	Rpleas	Bmasked	CS_B	1pleas	distractor1	EVAbeforeCON	AMP_distractor	AMP23	7	35	0	0	300	300	0	0	418	46	0	0	0	0	0	1	blank2r.bmp	0	1	WFPH	0	1	blank2r.bmp	79	74	pic74.bmp	199	1	whitenoise_No3.bmp	306	0	0	0	0	0	0	0	0	0	0	0	0	0	0	0	0	0	0	0	0	0	0	0	0	0	0	0	0	0	0	0	0	0	0	0	0	0	0	0
