date	time	script.currenttime	script.elapsedtime	build	script.currentexpt	subject	expressions.LRpleas_acq	expressions.SameOppo	expressions.condition_Lpleas	expressions.ABmasked	expressions.conditionCS_A	expressions.condition_1pleas	expressions.condition_distractor_AMP	expressions.AWACON_AMPEVA_first	trialcode	blockcode	blocknum	trialnum	windowcenter	inwindow	pretrialpause	posttrialpause	trialduration	trialtimeout	latency	response	expressions.correctedscore	correct	values.vis_performance	values.vis_rating_sum	values.vis_rating_mean	stimulusnumber1	stimulusitem1	stimulusonset1	stimulusnumber2	stimulusitem2	stimulusonset2	stimulusnumber3	stimulusitem3	stimulusonset3	stimulusnumber4	stimulusitem4	stimulusonset4	stimulusnumber5	stimulusitem5	stimulusonset5	stimulusnumber6	stimulusitem6	stimulusonset6	stimulusnumber7	stimulusitem7	stimulusonset7	stimulusnumber8	stimulusitem8	stimulusonset8	stimulusnumber9	stimulusitem9	stimulusonset9	stimulusnumber10	stimulusitem10	stimulusonset10	stimulusnumber11	stimulusitem11	stimulusonset11	stimulusnumber12	stimulusitem12	stimulusonset12	stimulusnumber13	stimulusitem13	stimulusonset13	stimulusnumber14	stimulusitem14	stimulusonset14	stimulusnumber15	stimulusitem15	stimulusonset15	stimulusnumber16	stimulusitem16	stimulusonset16	stimulusnumber17	stimulusitem17	stimulusonset17	stimulusnumber18	stimulusitem18	stimulusonset18
011519	11:19:01	11:21:36	154735	5.0.10.0	4_exp_AMP_EVA_AWA_CON	68	Rpleas_acq	Same	Rpleas	Amasked	CS_A	1pleas	distractor1	EVAbeforeCON	acq_US_unple_masked	acq1_masked	1	1	0	0	300	300	0	0	9388	46	0	1	0	0	0	1	blank2r.bmp	0	1	+	0	4	B4r.bmp	492	1	blank2r.bmp	786	1	DHJF	786	1	blank2r.bmp	866	2	gierig	866	0	0	0	0	0	0	0	0	0	0	0	0	0	0	0	0	0	0	0	0	0	0	0	0	0	0	0	0	0	0	0	0	0
011519	11:19:01	11:21:39	157348	5.0.10.0	4_exp_AMP_EVA_AWA_CON	68	Rpleas_acq	Same	Rpleas	Amasked	CS_A	1pleas	distractor1	EVAbeforeCON	acq_US_pleas_masked	acq1_masked	1	2	0	0	300	300	0	0	1122	50	0	1	0	0	0	1	blank2r.bmp	0	1	+	0	1	B1r.bmp	492	1	blank2r.bmp	786	1	CPLW	786	1	blank2r.bmp	866	1	besonnen	866	0	0	0	0	0	0	0	0	0	0	0	0	0	0	0	0	0	0	0	0	0	0	0	0	0	0	0	0	0	0	0	0	0
011519	11:19:01	11:21:41	159440	5.0.10.0	4_exp_AMP_EVA_AWA_CON	68	Rpleas_acq	Same	Rpleas	Amasked	CS_A	1pleas	distractor1	EVAbeforeCON	acq_US_unple_masked	acq1_masked	1	3	0	0	300	300	0	0	620	46	0	1	0	0	0	1	blank2r.bmp	0	1	+	0	2	B2r.bmp	492	1	blank2r.bmp	786	1	DHJF	786	1	blank2r.bmp	866	6	geizig	866	0	0	0	0	0	0	0	0	0	0	0	0	0	0	0	0	0	0	0	0	0	0	0	0	0	0	0	0	0	0	0	0	0
011519	11:19:01	11:21:43	161573	5.0.10.0	4_exp_AMP_EVA_AWA_CON	68	Rpleas_acq	Same	Rpleas	Amasked	CS_A	1pleas	distractor1	EVAbeforeCON	acq_new_pleas_masked	acq1_masked	1	4	0	0	300	300	0	0	652	50	0	1	0	0	0	1	blank2r.bmp	0	1	+	0	5	C1r.bmp	492	1	blank2r.bmp	786	1	B1r.bmp	786	1	blank2r.bmp	866	4	engagiert	866	0	0	0	0	0	0	0	0	0	0	0	0	0	0	0	0	0	0	0	0	0	0	0	0	0	0	0	0	0	0	0	0	0
011519	11:19:01	11:21:45	163678	5.0.10.0	4_exp_AMP_EVA_AWA_CON	68	Rpleas_acq	Same	Rpleas	Amasked	CS_A	1pleas	distractor1	EVAbeforeCON	acq_new_unple_masked	acq1_masked	1	5	0	0	300	300	0	0	615	46	0	1	0	0	0	1	blank2r.bmp	0	1	+	0	3	B3r.bmp	492	1	blank2r.bmp	786	4	B4r.bmp	786	1	blank2r.bmp	866	2	krank	866	0	0	0	0	0	0	0	0	0	0	0	0	0	0	0	0	0	0	0	0	0	0	0	0	0	0	0	0	0	0	0	0	0
011519	11:19:01	11:21:47	165718	5.0.10.0	4_exp_AMP_EVA_AWA_CON	68	Rpleas_acq	Same	Rpleas	Amasked	CS_A	1pleas	distractor1	EVAbeforeCON	acq_US_pleas_masked	acq1_masked	1	6	0	0	300	300	0	0	556	50	0	1	0	0	0	1	blank2r.bmp	0	1	+	0	6	C2r.bmp	492	1	blank2r.bmp	786	1	CPLW	786	1	blank2r.bmp	866	4	vergnügt	866	0	0	0	0	0	0	0	0	0	0	0	0	0	0	0	0	0	0	0	0	0	0	0	0	0	0	0	0	0	0	0	0	0
011519	11:19:01	11:21:49	167783	5.0.10.0	4_exp_AMP_EVA_AWA_CON	68	Rpleas_acq	Same	Rpleas	Amasked	CS_A	1pleas	distractor1	EVAbeforeCON	acq_US_unple_masked	acq1_masked	1	7	0	0	300	300	0	0	582	46	0	1	0	0	0	1	blank2r.bmp	0	1	+	0	7	C3r.bmp	492	1	blank2r.bmp	786	1	DHJF	786	1	blank2r.bmp	866	5	krise	866	0	0	0	0	0	0	0	0	0	0	0	0	0	0	0	0	0	0	0	0	0	0	0	0	0	0	0	0	0	0	0	0	0
011519	11:19:01	11:21:52	169889	5.0.10.0	4_exp_AMP_EVA_AWA_CON	68	Rpleas_acq	Same	Rpleas	Amasked	CS_A	1pleas	distractor1	EVAbeforeCON	acq_new_pleas_masked	acq1_masked	1	8	0	0	300	300	0	0	625	50	0	1	0	0	0	1	blank2r.bmp	0	1	+	0	8	C4r.bmp	492	1	blank2r.bmp	786	2	B2r.bmp	786	1	blank2r.bmp	866	6	sonnig	866	0	0	0	0	0	0	0	0	0	0	0	0	0	0	0	0	0	0	0	0	0	0	0	0	0	0	0	0	0	0	0	0	0
011519	11:19:01	11:21:54	172088	5.0.10.0	4_exp_AMP_EVA_AWA_CON	68	Rpleas_acq	Same	Rpleas	Amasked	CS_A	1pleas	distractor1	EVAbeforeCON	acq_new_unple_masked	acq1_masked	1	9	0	0	300	300	0	0	720	46	0	1	0	0	0	1	blank2r.bmp	0	1	+	0	7	C3r.bmp	492	1	blank2r.bmp	786	8	C4r.bmp	786	1	blank2r.bmp	866	6	sterben	866	0	0	0	0	0	0	0	0	0	0	0	0	0	0	0	0	0	0	0	0	0	0	0	0	0	0	0	0	0	0	0	0	0
011519	11:19:01	11:21:56	174687	5.0.10.0	4_exp_AMP_EVA_AWA_CON	68	Rpleas_acq	Same	Rpleas	Amasked	CS_A	1pleas	distractor1	EVAbeforeCON	acq_new_pleas_masked	acq1_masked	1	10	0	0	300	300	0	0	1114	50	0	1	0	0	0	1	blank2r.bmp	0	1	+	0	2	B2r.bmp	492	1	blank2r.bmp	786	3	B3r.bmp	786	1	blank2r.bmp	866	1	anregung	866	0	0	0	0	0	0	0	0	0	0	0	0	0	0	0	0	0	0	0	0	0	0	0	0	0	0	0	0	0	0	0	0	0
011519	11:19:01	11:21:59	177086	5.0.10.0	4_exp_AMP_EVA_AWA_CON	68	Rpleas_acq	Same	Rpleas	Amasked	CS_A	1pleas	distractor1	EVAbeforeCON	acq_new_unple_masked	acq1_masked	1	11	0	0	300	300	0	0	913	46	0	1	0	0	0	1	blank2r.bmp	0	1	+	0	8	C4r.bmp	492	1	blank2r.bmp	786	6	C2r.bmp	786	1	blank2r.bmp	866	4	engstirnig	866	0	0	0	0	0	0	0	0	0	0	0	0	0	0	0	0	0	0	0	0	0	0	0	0	0	0	0	0	0	0	0	0	0
011519	11:19:01	11:22:01	179379	5.0.10.0	4_exp_AMP_EVA_AWA_CON	68	Rpleas_acq	Same	Rpleas	Amasked	CS_A	1pleas	distractor1	EVAbeforeCON	acq_US_pleas_masked	acq1_masked	1	12	0	0	300	300	0	0	801	50	0	1	0	0	0	1	blank2r.bmp	0	1	+	0	3	B3r.bmp	492	1	blank2r.bmp	786	1	CPLW	786	1	blank2r.bmp	866	6	gesittet	866	0	0	0	0	0	0	0	0	0	0	0	0	0	0	0	0	0	0	0	0	0	0	0	0	0	0	0	0	0	0	0	0	0
011519	11:19:01	11:22:03	181524	5.0.10.0	4_exp_AMP_EVA_AWA_CON	68	Rpleas_acq	Same	Rpleas	Amasked	CS_A	1pleas	distractor1	EVAbeforeCON	acq_new_unple_masked	acq1_masked	1	13	0	0	300	300	0	0	676	46	0	1	0	0	0	1	blank2r.bmp	0	1	+	0	6	C2r.bmp	492	1	blank2r.bmp	786	5	C1r.bmp	786	1	blank2r.bmp	866	5	versagen	866	0	0	0	0	0	0	0	0	0	0	0	0	0	0	0	0	0	0	0	0	0	0	0	0	0	0	0	0	0	0	0	0	0
011519	11:19:01	11:22:05	183710	5.0.10.0	4_exp_AMP_EVA_AWA_CON	68	Rpleas_acq	Same	Rpleas	Amasked	CS_A	1pleas	distractor1	EVAbeforeCON	acq_US_unple_masked	acq1_masked	1	14	0	0	300	300	0	0	702	46	0	1	0	0	0	1	blank2r.bmp	0	1	+	0	1	B1r.bmp	492	1	blank2r.bmp	786	1	DHJF	786	1	blank2r.bmp	866	3	gemein	866	0	0	0	0	0	0	0	0	0	0	0	0	0	0	0	0	0	0	0	0	0	0	0	0	0	0	0	0	0	0	0	0	0
011519	11:19:01	11:22:08	185896	5.0.10.0	4_exp_AMP_EVA_AWA_CON	68	Rpleas_acq	Same	Rpleas	Amasked	CS_A	1pleas	distractor1	EVAbeforeCON	acq_US_pleas_masked	acq1_masked	1	15	0	0	300	300	0	0	693	50	0	1	0	0	0	1	blank2r.bmp	0	1	+	0	5	C1r.bmp	492	1	blank2r.bmp	786	1	CPLW	786	1	blank2r.bmp	866	3	genießen	866	0	0	0	0	0	0	0	0	0	0	0	0	0	0	0	0	0	0	0	0	0	0	0	0	0	0	0	0	0	0	0	0	0
011519	11:19:01	11:22:10	187948	5.0.10.0	4_exp_AMP_EVA_AWA_CON	68	Rpleas_acq	Same	Rpleas	Amasked	CS_A	1pleas	distractor1	EVAbeforeCON	acq_new_unple_masked	acq1_masked	1	16	0	0	300	300	0	0	572	46	0	1	0	0	0	1	blank2r.bmp	0	1	+	0	4	B4r.bmp	492	1	blank2r.bmp	786	7	C3r.bmp	786	1	blank2r.bmp	866	3	töten	866	0	0	0	0	0	0	0	0	0	0	0	0	0	0	0	0	0	0	0	0	0	0	0	0	0	0	0	0	0	0	0	0	0
011519	11:19:01	11:22:12	190001	5.0.10.0	4_exp_AMP_EVA_AWA_CON	68	Rpleas_acq	Same	Rpleas	Amasked	CS_A	1pleas	distractor1	EVAbeforeCON	acq_US_unple_masked	acq1_masked	1	17	0	0	300	300	0	0	574	46	0	1	0	0	0	1	blank2r.bmp	0	1	+	0	7	C3r.bmp	492	1	blank2r.bmp	786	1	DHJF	786	1	blank2r.bmp	866	1	bange	866	0	0	0	0	0	0	0	0	0	0	0	0	0	0	0	0	0	0	0	0	0	0	0	0	0	0	0	0	0	0	0	0	0
011519	11:19:01	11:22:14	192013	5.0.10.0	4_exp_AMP_EVA_AWA_CON	68	Rpleas_acq	Same	Rpleas	Amasked	CS_A	1pleas	distractor1	EVAbeforeCON	acq_US_pleas_masked	acq1_masked	1	18	0	0	300	300	0	0	532	50	0	1	0	0	0	1	blank2r.bmp	0	1	+	0	8	C4r.bmp	492	1	blank2r.bmp	786	1	CPLW	786	1	blank2r.bmp	866	2	gütig	866	0	0	0	0	0	0	0	0	0	0	0	0	0	0	0	0	0	0	0	0	0	0	0	0	0	0	0	0	0	0	0	0	0
011519	11:19:01	11:22:17	195066	5.0.10.0	4_exp_AMP_EVA_AWA_CON	68	Rpleas_acq	Same	Rpleas	Amasked	CS_A	1pleas	distractor1	EVAbeforeCON	acq_US_unple_masked	acq1_masked	1	19	0	0	300	300	0	0	1583	46	0	1	0	0	0	1	blank2r.bmp	0	1	+	0	4	B4r.bmp	492	1	blank2r.bmp	786	1	DHJF	786	1	blank2r.bmp	866	4	verbissen	866	0	0	0	0	0	0	0	0	0	0	0	0	0	0	0	0	0	0	0	0	0	0	0	0	0	0	0	0	0	0	0	0	0
011519	11:19:01	11:22:19	197278	5.0.10.0	4_exp_AMP_EVA_AWA_CON	68	Rpleas_acq	Same	Rpleas	Amasked	CS_A	1pleas	distractor1	EVAbeforeCON	acq_new_unple_masked	acq1_masked	1	20	0	0	300	300	0	0	725	46	0	1	0	0	0	1	blank2r.bmp	0	1	+	0	6	C2r.bmp	492	1	blank2r.bmp	786	4	B4r.bmp	786	1	blank2r.bmp	866	1	ausrottung	866	0	0	0	0	0	0	0	0	0	0	0	0	0	0	0	0	0	0	0	0	0	0	0	0	0	0	0	0	0	0	0	0	0
011519	11:19:01	11:22:21	199357	5.0.10.0	4_exp_AMP_EVA_AWA_CON	68	Rpleas_acq	Same	Rpleas	Amasked	CS_A	1pleas	distractor1	EVAbeforeCON	acq_US_pleas_masked	acq1_masked	1	21	0	0	300	300	0	0	593	50	0	1	0	0	0	1	blank2r.bmp	0	1	+	0	1	B1r.bmp	492	1	blank2r.bmp	786	1	CPLW	786	1	blank2r.bmp	866	5	kuss	866	0	0	0	0	0	0	0	0	0	0	0	0	0	0	0	0	0	0	0	0	0	0	0	0	0	0	0	0	0	0	0	0	0
011519	11:19:01	11:22:23	201676	5.0.10.0	4_exp_AMP_EVA_AWA_CON	68	Rpleas_acq	Same	Rpleas	Amasked	CS_A	1pleas	distractor1	EVAbeforeCON	acq_new_pleas_masked	acq1_masked	1	22	0	0	300	300	0	0	838	50	0	1	0	0	0	1	blank2r.bmp	0	1	+	0	5	C1r.bmp	492	1	blank2r.bmp	786	3	B3r.bmp	786	1	blank2r.bmp	866	3	träumen	866	0	0	0	0	0	0	0	0	0	0	0	0	0	0	0	0	0	0	0	0	0	0	0	0	0	0	0	0	0	0	0	0	0
011519	11:19:01	11:22:25	203769	5.0.10.0	4_exp_AMP_EVA_AWA_CON	68	Rpleas_acq	Same	Rpleas	Amasked	CS_A	1pleas	distractor1	EVAbeforeCON	acq_new_pleas_masked	acq1_masked	1	23	0	0	300	300	0	0	623	50	0	1	0	0	0	1	blank2r.bmp	0	1	+	0	3	B3r.bmp	492	1	blank2r.bmp	786	2	B2r.bmp	786	1	blank2r.bmp	866	5	vertrauen	866	0	0	0	0	0	0	0	0	0	0	0	0	0	0	0	0	0	0	0	0	0	0	0	0	0	0	0	0	0	0	0	0	0
011519	11:19:01	11:22:27	205781	5.0.10.0	4_exp_AMP_EVA_AWA_CON	68	Rpleas_acq	Same	Rpleas	Amasked	CS_A	1pleas	distractor1	EVAbeforeCON	acq_new_pleas_masked	acq1_masked	1	24	0	0	300	300	0	0	530	50	0	1	0	0	0	1	blank2r.bmp	0	1	+	0	2	B2r.bmp	492	1	blank2r.bmp	786	6	C2r.bmp	786	1	blank2r.bmp	866	2	kreativ	866	0	0	0	0	0	0	0	0	0	0	0	0	0	0	0	0	0	0	0	0	0	0	0	0	0	0	0	0	0	0	0	0	0
011519	11:19:01	11:22:30	208060	5.0.10.0	4_exp_AMP_EVA_AWA_CON	68	Rpleas_acq	Same	Rpleas	Amasked	CS_A	1pleas	distractor1	EVAbeforeCON	acq_new_pleas_masked	acq1_masked	1	25	0	0	300	300	0	0	795	50	0	1	0	0	0	1	blank2r.bmp	0	1	+	0	2	B2r.bmp	492	1	blank2r.bmp	786	1	B1r.bmp	786	1	blank2r.bmp	866	2	kreativ	866	0	0	0	0	0	0	0	0	0	0	0	0	0	0	0	0	0	0	0	0	0	0	0	0	0	0	0	0	0	0	0	0	0
011519	11:19:01	11:22:32	210126	5.0.10.0	4_exp_AMP_EVA_AWA_CON	68	Rpleas_acq	Same	Rpleas	Amasked	CS_A	1pleas	distractor1	EVAbeforeCON	acq_US_pleas_masked	acq1_masked	1	26	0	0	300	300	0	0	574	50	0	1	0	0	0	1	blank2r.bmp	0	1	+	0	4	B4r.bmp	492	1	blank2r.bmp	786	1	CPLW	786	1	blank2r.bmp	866	3	genießen	866	0	0	0	0	0	0	0	0	0	0	0	0	0	0	0	0	0	0	0	0	0	0	0	0	0	0	0	0	0	0	0	0	0
011519	11:19:01	11:22:34	212205	5.0.10.0	4_exp_AMP_EVA_AWA_CON	68	Rpleas_acq	Same	Rpleas	Amasked	CS_A	1pleas	distractor1	EVAbeforeCON	acq_new_pleas_masked	acq1_masked	1	27	0	0	300	300	0	0	605	50	0	1	0	0	0	1	blank2r.bmp	0	1	+	0	5	C1r.bmp	492	1	blank2r.bmp	786	8	C4r.bmp	786	1	blank2r.bmp	866	1	anregung	866	0	0	0	0	0	0	0	0	0	0	0	0	0	0	0	0	0	0	0	0	0	0	0	0	0	0	0	0	0	0	0	0	0
011519	11:19:01	11:22:36	214231	5.0.10.0	4_exp_AMP_EVA_AWA_CON	68	Rpleas_acq	Same	Rpleas	Amasked	CS_A	1pleas	distractor1	EVAbeforeCON	acq_US_pleas_masked	acq1_masked	1	28	0	0	300	300	0	0	544	50	0	1	0	0	0	1	blank2r.bmp	0	1	+	0	1	B1r.bmp	492	1	blank2r.bmp	786	1	CPLW	786	1	blank2r.bmp	866	6	gesittet	866	0	0	0	0	0	0	0	0	0	0	0	0	0	0	0	0	0	0	0	0	0	0	0	0	0	0	0	0	0	0	0	0	0
011519	11:19:01	11:22:38	216323	5.0.10.0	4_exp_AMP_EVA_AWA_CON	68	Rpleas_acq	Same	Rpleas	Amasked	CS_A	1pleas	distractor1	EVAbeforeCON	acq_US_unple_masked	acq1_masked	1	29	0	0	300	300	0	0	604	46	0	1	0	0	0	1	blank2r.bmp	0	1	+	0	8	C4r.bmp	492	1	blank2r.bmp	786	1	DHJF	786	1	blank2r.bmp	866	6	geizig	866	0	0	0	0	0	0	0	0	0	0	0	0	0	0	0	0	0	0	0	0	0	0	0	0	0	0	0	0	0	0	0	0	0
011519	11:19:01	11:22:40	218416	5.0.10.0	4_exp_AMP_EVA_AWA_CON	68	Rpleas_acq	Same	Rpleas	Amasked	CS_A	1pleas	distractor1	EVAbeforeCON	acq_US_pleas_masked	acq1_masked	1	30	0	0	300	300	0	0	609	50	0	1	0	0	0	1	blank2r.bmp	0	1	+	0	6	C2r.bmp	492	1	blank2r.bmp	786	1	CPLW	786	1	blank2r.bmp	866	1	besonnen	866	0	0	0	0	0	0	0	0	0	0	0	0	0	0	0	0	0	0	0	0	0	0	0	0	0	0	0	0	0	0	0	0	0
011519	11:19:01	11:22:42	220402	5.0.10.0	4_exp_AMP_EVA_AWA_CON	68	Rpleas_acq	Same	Rpleas	Amasked	CS_A	1pleas	distractor1	EVAbeforeCON	acq_US_unple_masked	acq1_masked	1	31	0	0	300	300	0	0	502	46	0	1	0	0	0	1	blank2r.bmp	0	1	+	0	3	B3r.bmp	492	1	blank2r.bmp	786	1	DHJF	786	1	blank2r.bmp	866	3	gemein	866	0	0	0	0	0	0	0	0	0	0	0	0	0	0	0	0	0	0	0	0	0	0	0	0	0	0	0	0	0	0	0	0	0
011519	11:19:01	11:22:44	222468	5.0.10.0	4_exp_AMP_EVA_AWA_CON	68	Rpleas_acq	Same	Rpleas	Amasked	CS_A	1pleas	distractor1	EVAbeforeCON	acq_new_unple_masked	acq1_masked	1	32	0	0	300	300	0	0	584	46	0	1	0	0	0	1	blank2r.bmp	0	1	+	0	7	C3r.bmp	492	1	blank2r.bmp	786	5	C1r.bmp	786	1	blank2r.bmp	866	6	sterben	866	0	0	0	0	0	0	0	0	0	0	0	0	0	0	0	0	0	0	0	0	0	0	0	0	0	0	0	0	0	0	0	0	0
011519	11:19:01	11:22:46	224640	5.0.10.0	4_exp_AMP_EVA_AWA_CON	68	Rpleas_acq	Same	Rpleas	Amasked	CS_A	1pleas	distractor1	EVAbeforeCON	acq_new_unple_masked	acq1_masked	1	33	0	0	300	300	0	0	693	46	0	1	0	0	0	1	blank2r.bmp	0	1	+	0	1	B1r.bmp	492	1	blank2r.bmp	786	7	C3r.bmp	786	1	blank2r.bmp	866	1	ausrottung	866	0	0	0	0	0	0	0	0	0	0	0	0	0	0	0	0	0	0	0	0	0	0	0	0	0	0	0	0	0	0	0	0	0
011519	11:19:01	11:22:48	226679	5.0.10.0	4_exp_AMP_EVA_AWA_CON	68	Rpleas_acq	Same	Rpleas	Amasked	CS_A	1pleas	distractor1	EVAbeforeCON	acq_new_pleas_masked	acq1_masked	1	34	0	0	300	300	0	0	565	50	0	1	0	0	0	1	blank2r.bmp	0	1	+	0	3	B3r.bmp	492	1	blank2r.bmp	786	7	C3r.bmp	786	1	blank2r.bmp	866	5	vertrauen	866	0	0	0	0	0	0	0	0	0	0	0	0	0	0	0	0	0	0	0	0	0	0	0	0	0	0	0	0	0	0	0	0	0
011519	11:19:01	11:22:50	228665	5.0.10.0	4_exp_AMP_EVA_AWA_CON	68	Rpleas_acq	Same	Rpleas	Amasked	CS_A	1pleas	distractor1	EVAbeforeCON	acq_US_unple_masked	acq1_masked	1	35	0	0	300	300	0	0	503	46	0	1	0	0	0	1	blank2r.bmp	0	1	+	0	5	C1r.bmp	492	1	blank2r.bmp	786	1	DHJF	786	1	blank2r.bmp	866	2	gierig	866	0	0	0	0	0	0	0	0	0	0	0	0	0	0	0	0	0	0	0	0	0	0	0	0	0	0	0	0	0	0	0	0	0
011519	11:19:01	11:22:52	230731	5.0.10.0	4_exp_AMP_EVA_AWA_CON	68	Rpleas_acq	Same	Rpleas	Amasked	CS_A	1pleas	distractor1	EVAbeforeCON	acq_new_unple_masked	acq1_masked	1	36	0	0	300	300	0	0	582	46	0	1	0	0	0	1	blank2r.bmp	0	1	+	0	4	B4r.bmp	492	1	blank2r.bmp	786	8	C4r.bmp	786	1	blank2r.bmp	866	4	engstirnig	866	0	0	0	0	0	0	0	0	0	0	0	0	0	0	0	0	0	0	0	0	0	0	0	0	0	0	0	0	0	0	0	0	0
011519	11:19:01	11:23:33	271008	5.0.10.0	4_exp_AMP_EVA_AWA_CON	68	Rpleas_acq	Same	Rpleas	Amasked	CS_A	1pleas	distractor1	EVAbeforeCON	acq_US_pleas_masked	acq2_masked	2	1	480	1	300	300	0	0	526	50	0	1	0	0	0	1	blank2r.bmp	0	1	+	0	7	C3r.bmp	492	1	blank2r.bmp	786	1	CPLW	786	1	blank2r.bmp	866	5	kuss	866	1	!	1319	1	!	1426	0	0	0	0	0	0	0	0	0	0	0	0	0	0	0	0	0	0	0	0	0	0	0	0	0	0	0
011519	11:19:01	11:23:35	273273	5.0.10.0	4_exp_AMP_EVA_AWA_CON	68	Rpleas_acq	Same	Rpleas	Amasked	CS_A	1pleas	distractor1	EVAbeforeCON	acq_new_unple_masked	acq2_masked	2	2	480	1	300	300	0	0	467	46	0	1	0	0	0	1	blank2r.bmp	0	1	+	0	2	B2r.bmp	492	1	blank2r.bmp	786	6	C2r.bmp	786	1	blank2r.bmp	866	5	versagen	866	1	!	1319	1	!	1372	0	0	0	0	0	0	0	0	0	0	0	0	0	0	0	0	0	0	0	0	0	0	0	0	0	0	0
011519	11:19:01	11:23:37	275526	5.0.10.0	4_exp_AMP_EVA_AWA_CON	68	Rpleas_acq	Same	Rpleas	Amasked	CS_A	1pleas	distractor1	EVAbeforeCON	acq_US_unple_masked	acq2_masked	2	3	480	1	300	300	0	0	458	46	0	1	0	0	0	1	blank2r.bmp	0	1	+	0	6	C2r.bmp	492	1	blank2r.bmp	786	1	DHJF	786	1	blank2r.bmp	866	1	bange	866	1	!	1319	1	!	1359	0	0	0	0	0	0	0	0	0	0	0	0	0	0	0	0	0	0	0	0	0	0	0	0	0	0	0
011519	11:19:01	11:23:40	277858	5.0.10.0	4_exp_AMP_EVA_AWA_CON	68	Rpleas_acq	Same	Rpleas	Amasked	CS_A	1pleas	distractor1	EVAbeforeCON	acq_US_unple_masked	acq2_masked	2	4	480	1	300	300	0	0	538	46	0	1	0	0	0	1	blank2r.bmp	0	1	+	0	8	C4r.bmp	492	1	blank2r.bmp	786	1	DHJF	786	1	blank2r.bmp	866	4	verbissen	866	1	!	1319	1	!	1439	0	0	0	0	0	0	0	0	0	0	0	0	0	0	0	0	0	0	0	0	0	0	0	0	0	0	0
011519	11:19:01	11:23:42	280097	5.0.10.0	4_exp_AMP_EVA_AWA_CON	68	Rpleas_acq	Same	Rpleas	Amasked	CS_A	1pleas	distractor1	EVAbeforeCON	acq_new_unple_masked	acq2_masked	2	5	480	1	300	300	0	0	441	46	0	1	0	0	0	1	blank2r.bmp	0	1	+	0	8	C4r.bmp	492	1	blank2r.bmp	786	5	C1r.bmp	786	1	blank2r.bmp	866	2	krank	866	1	!	1319	1	!	1346	0	0	0	0	0	0	0	0	0	0	0	0	0	0	0	0	0	0	0	0	0	0	0	0	0	0	0
011519	11:19:01	11:23:44	282323	5.0.10.0	4_exp_AMP_EVA_AWA_CON	68	Rpleas_acq	Same	Rpleas	Amasked	CS_A	1pleas	distractor1	EVAbeforeCON	acq_new_pleas_masked	acq2_masked	2	6	480	1	300	300	0	0	435	50	0	1	0	0	0	1	blank2r.bmp	0	1	+	0	6	C2r.bmp	492	1	blank2r.bmp	786	3	B3r.bmp	786	1	blank2r.bmp	866	3	träumen	866	1	!	1319	1	!	1332	0	0	0	0	0	0	0	0	0	0	0	0	0	0	0	0	0	0	0	0	0	0	0	0	0	0	0
011519	11:19:01	11:23:46	284709	5.0.10.0	4_exp_AMP_EVA_AWA_CON	68	Rpleas_acq	Same	Rpleas	Amasked	CS_A	1pleas	distractor1	EVAbeforeCON	acq_new_pleas_masked	acq2_masked	2	7	480	0	300	300	0	0	390	46	0	0	0	0	0	1	blank2r.bmp	0	1	+	0	3	B3r.bmp	492	1	blank2r.bmp	786	2	B2r.bmp	786	1	blank2r.bmp	866	4	engagiert	866	1	FEHLER	1599	1	!	-1	1	!	-1	0	0	0	0	0	0	0	0	0	0	0	0	0	0	0	0	0	0	0	0	0	0	0	0
011519	11:19:01	11:23:48	286774	5.0.10.0	4_exp_AMP_EVA_AWA_CON	68	Rpleas_acq	Same	Rpleas	Amasked	CS_A	1pleas	distractor1	EVAbeforeCON	acq_new_pleas_masked	acq2_masked	2	8	480	1	300	300	0	0	484	50	0	1	0	0	0	1	blank2r.bmp	0	1	+	0	5	C1r.bmp	492	1	blank2r.bmp	786	4	B4r.bmp	786	1	blank2r.bmp	866	6	sonnig	866	1	!	1319	1	!	1386	0	0	0	0	0	0	0	0	0	0	0	0	0	0	0	0	0	0	0	0	0	0	0	0	0	0	0
011519	11:19:01	11:23:51	289067	5.0.10.0	4_exp_AMP_EVA_AWA_CON	68	Rpleas_acq	Same	Rpleas	Amasked	CS_A	1pleas	distractor1	EVAbeforeCON	acq_US_pleas_masked	acq2_masked	2	9	480	1	300	300	0	0	498	50	0	1	0	0	0	1	blank2r.bmp	0	1	+	0	7	C3r.bmp	492	1	blank2r.bmp	786	1	CPLW	786	1	blank2r.bmp	866	2	gütig	866	1	!	1319	1	!	1399	0	0	0	0	0	0	0	0	0	0	0	0	0	0	0	0	0	0	0	0	0	0	0	0	0	0	0
011519	11:19:01	11:23:53	291226	5.0.10.0	4_exp_AMP_EVA_AWA_CON	68	Rpleas_acq	Same	Rpleas	Amasked	CS_A	1pleas	distractor1	EVAbeforeCON	acq_new_unple_masked	acq2_masked	2	10	480	0	300	300	0	0	388	46	0	1	0	0	0	1	blank2r.bmp	0	1	+	0	4	B4r.bmp	492	1	blank2r.bmp	786	1	B1r.bmp	786	1	blank2r.bmp	866	3	töten	866	1	!	-1	1	!	-1	0	0	0	0	0	0	0	0	0	0	0	0	0	0	0	0	0	0	0	0	0	0	0	0	0	0	0
011519	11:19:01	11:23:55	293558	5.0.10.0	4_exp_AMP_EVA_AWA_CON	68	Rpleas_acq	Same	Rpleas	Amasked	CS_A	1pleas	distractor1	EVAbeforeCON	acq_US_unple_masked	acq2_masked	2	11	480	1	300	300	0	0	508	46	0	1	0	0	0	1	blank2r.bmp	0	1	+	0	2	B2r.bmp	492	1	blank2r.bmp	786	1	DHJF	786	1	blank2r.bmp	866	5	krise	866	1	!	1319	1	!	1412	0	0	0	0	0	0	0	0	0	0	0	0	0	0	0	0	0	0	0	0	0	0	0	0	0	0	0
011519	11:19:01	11:23:57	295811	5.0.10.0	4_exp_AMP_EVA_AWA_CON	68	Rpleas_acq	Same	Rpleas	Amasked	CS_A	1pleas	distractor1	EVAbeforeCON	acq_US_pleas_masked	acq2_masked	2	12	480	1	300	300	0	0	463	50	0	1	0	0	0	1	blank2r.bmp	0	1	+	0	1	B1r.bmp	492	1	blank2r.bmp	786	1	CPLW	786	1	blank2r.bmp	866	4	vergnügt	866	1	!	1319	1	!	1359	0	0	0	0	0	0	0	0	0	0	0	0	0	0	0	0	0	0	0	0	0	0	0	0	0	0	0
011519	11:19:01	11:24:00	298116	5.0.10.0	4_exp_AMP_EVA_AWA_CON	68	Rpleas_acq	Same	Rpleas	Amasked	CS_A	1pleas	distractor1	EVAbeforeCON	acq_new_pleas_masked	acq2_masked	2	13	480	1	300	300	0	0	494	50	0	1	0	0	0	1	blank2r.bmp	0	1	+	0	1	B1r.bmp	492	1	blank2r.bmp	786	6	C2r.bmp	786	1	blank2r.bmp	866	6	sonnig	866	1	!	1319	1	!	1399	0	0	0	0	0	0	0	0	0	0	0	0	0	0	0	0	0	0	0	0	0	0	0	0	0	0	0
011519	11:19:01	11:24:02	300342	5.0.10.0	4_exp_AMP_EVA_AWA_CON	68	Rpleas_acq	Same	Rpleas	Amasked	CS_A	1pleas	distractor1	EVAbeforeCON	acq_US_unple_masked	acq2_masked	2	14	480	1	300	300	0	0	426	46	0	1	0	0	0	1	blank2r.bmp	0	1	+	0	2	B2r.bmp	492	1	blank2r.bmp	786	1	DHJF	786	1	blank2r.bmp	866	1	bange	866	1	!	1319	1	!	1332	0	0	0	0	0	0	0	0	0	0	0	0	0	0	0	0	0	0	0	0	0	0	0	0	0	0	0
011519	11:19:01	11:24:04	302661	5.0.10.0	4_exp_AMP_EVA_AWA_CON	68	Rpleas_acq	Same	Rpleas	Amasked	CS_A	1pleas	distractor1	EVAbeforeCON	acq_US_pleas_masked	acq2_masked	2	15	480	1	300	300	0	0	524	50	0	1	0	0	0	1	blank2r.bmp	0	1	+	0	5	C1r.bmp	492	1	blank2r.bmp	786	1	CPLW	786	1	blank2r.bmp	866	6	gesittet	866	1	!	1319	1	!	1426	0	0	0	0	0	0	0	0	0	0	0	0	0	0	0	0	0	0	0	0	0	0	0	0	0	0	0
011519	11:19:01	11:24:07	304887	5.0.10.0	4_exp_AMP_EVA_AWA_CON	68	Rpleas_acq	Same	Rpleas	Amasked	CS_A	1pleas	distractor1	EVAbeforeCON	acq_new_unple_masked	acq2_masked	2	16	480	1	300	300	0	0	428	46	0	1	0	0	0	1	blank2r.bmp	0	1	+	0	7	C3r.bmp	492	1	blank2r.bmp	786	5	C1r.bmp	786	1	blank2r.bmp	866	2	krank	866	1	!	1319	1	!	1332	0	0	0	0	0	0	0	0	0	0	0	0	0	0	0	0	0	0	0	0	0	0	0	0	0	0	0
011519	11:19:01	11:24:09	307113	5.0.10.0	4_exp_AMP_EVA_AWA_CON	68	Rpleas_acq	Same	Rpleas	Amasked	CS_A	1pleas	distractor1	EVAbeforeCON	acq_new_pleas_masked	acq2_masked	2	17	480	1	300	300	0	0	426	50	0	1	0	0	0	1	blank2r.bmp	0	1	+	0	8	C4r.bmp	492	1	blank2r.bmp	786	7	C3r.bmp	786	1	blank2r.bmp	866	3	träumen	866	1	!	1319	1	!	1332	0	0	0	0	0	0	0	0	0	0	0	0	0	0	0	0	0	0	0	0	0	0	0	0	0	0	0
011519	11:19:01	11:24:11	309458	5.0.10.0	4_exp_AMP_EVA_AWA_CON	68	Rpleas_acq	Same	Rpleas	Amasked	CS_A	1pleas	distractor1	EVAbeforeCON	acq_new_pleas_masked	acq2_masked	2	18	480	0	300	300	0	0	574	50	0	1	0	0	0	1	blank2r.bmp	0	1	+	0	3	B3r.bmp	492	1	blank2r.bmp	786	8	C4r.bmp	786	1	blank2r.bmp	866	1	anregung	866	1	!	1319	1	!	-1	0	0	0	0	0	0	0	0	0	0	0	0	0	0	0	0	0	0	0	0	0	0	0	0	0	0	0
011519	11:19:01	11:24:13	311697	5.0.10.0	4_exp_AMP_EVA_AWA_CON	68	Rpleas_acq	Same	Rpleas	Amasked	CS_A	1pleas	distractor1	EVAbeforeCON	acq_US_pleas_masked	acq2_masked	2	19	480	1	300	300	0	0	427	50	0	1	0	0	0	1	blank2r.bmp	0	1	+	0	4	B4r.bmp	492	1	blank2r.bmp	786	1	CPLW	786	1	blank2r.bmp	866	2	gütig	866	1	!	1319	1	!	1332	0	0	0	0	0	0	0	0	0	0	0	0	0	0	0	0	0	0	0	0	0	0	0	0	0	0	0
011519	11:19:01	11:24:16	313883	5.0.10.0	4_exp_AMP_EVA_AWA_CON	68	Rpleas_acq	Same	Rpleas	Amasked	CS_A	1pleas	distractor1	EVAbeforeCON	acq_new_unple_masked	acq2_masked	2	20	480	0	300	300	0	0	412	46	0	1	0	0	0	1	blank2r.bmp	0	1	+	0	6	C2r.bmp	492	1	blank2r.bmp	786	4	B4r.bmp	786	1	blank2r.bmp	866	1	ausrottung	866	1	!	-1	1	!	-1	0	0	0	0	0	0	0	0	0	0	0	0	0	0	0	0	0	0	0	0	0	0	0	0	0	0	0
011519	11:19:01	11:24:18	316122	5.0.10.0	4_exp_AMP_EVA_AWA_CON	68	Rpleas_acq	Same	Rpleas	Amasked	CS_A	1pleas	distractor1	EVAbeforeCON	acq_US_unple_masked	acq2_masked	2	21	480	1	300	300	0	0	426	46	0	1	0	0	0	1	blank2r.bmp	0	1	+	0	5	C1r.bmp	492	1	blank2r.bmp	786	1	DHJF	786	1	blank2r.bmp	866	2	gierig	866	1	!	1319	1	!	1332	0	0	0	0	0	0	0	0	0	0	0	0	0	0	0	0	0	0	0	0	0	0	0	0	0	0	0
011519	11:19:01	11:24:20	318375	5.0.10.0	4_exp_AMP_EVA_AWA_CON	68	Rpleas_acq	Same	Rpleas	Amasked	CS_A	1pleas	distractor1	EVAbeforeCON	acq_new_unple_masked	acq2_masked	2	22	480	1	300	300	0	0	455	46	0	1	0	0	0	1	blank2r.bmp	0	1	+	0	3	B3r.bmp	492	1	blank2r.bmp	786	2	B2r.bmp	786	1	blank2r.bmp	866	3	töten	866	1	!	1319	1	!	1359	0	0	0	0	0	0	0	0	0	0	0	0	0	0	0	0	0	0	0	0	0	0	0	0	0	0	0
011519	11:19:01	11:24:22	320467	5.0.10.0	4_exp_AMP_EVA_AWA_CON	68	Rpleas_acq	Same	Rpleas	Amasked	CS_A	1pleas	distractor1	EVAbeforeCON	acq_US_pleas_masked	acq2_masked	2	23	480	0	300	300	0	0	331	50	0	1	0	0	0	1	blank2r.bmp	0	1	+	0	4	B4r.bmp	492	1	blank2r.bmp	786	1	CPLW	786	1	blank2r.bmp	866	4	vergnügt	866	1	!	-1	1	!	-1	0	0	0	0	0	0	0	0	0	0	0	0	0	0	0	0	0	0	0	0	0	0	0	0	0	0	0
011519	11:19:01	11:24:24	322720	5.0.10.0	4_exp_AMP_EVA_AWA_CON	68	Rpleas_acq	Same	Rpleas	Amasked	CS_A	1pleas	distractor1	EVAbeforeCON	acq_US_unple_masked	acq2_masked	2	24	480	1	300	300	0	0	449	46	0	1	0	0	0	1	blank2r.bmp	0	1	+	0	8	C4r.bmp	492	1	blank2r.bmp	786	1	DHJF	786	1	blank2r.bmp	866	6	geizig	866	1	!	1319	1	!	1346	0	0	0	0	0	0	0	0	0	0	0	0	0	0	0	0	0	0	0	0	0	0	0	0	0	0	0
011519	11:19:01	11:24:27	324999	5.0.10.0	4_exp_AMP_EVA_AWA_CON	68	Rpleas_acq	Same	Rpleas	Amasked	CS_A	1pleas	distractor1	EVAbeforeCON	acq_US_unple_masked	acq2_masked	2	25	480	1	300	300	0	0	467	46	0	1	0	0	0	1	blank2r.bmp	0	1	+	0	7	C3r.bmp	492	1	blank2r.bmp	786	1	DHJF	786	1	blank2r.bmp	866	5	krise	866	1	!	1319	1	!	1372	0	0	0	0	0	0	0	0	0	0	0	0	0	0	0	0	0	0	0	0	0	0	0	0	0	0	0
011519	11:19:01	11:24:29	327184	5.0.10.0	4_exp_AMP_EVA_AWA_CON	68	Rpleas_acq	Same	Rpleas	Amasked	CS_A	1pleas	distractor1	EVAbeforeCON	acq_new_pleas_masked	acq2_masked	2	26	480	0	300	300	0	0	413	50	0	1	0	0	0	1	blank2r.bmp	0	1	+	0	1	B1r.bmp	492	1	blank2r.bmp	786	3	B3r.bmp	786	1	blank2r.bmp	866	2	kreativ	866	1	!	-1	1	!	-1	0	0	0	0	0	0	0	0	0	0	0	0	0	0	0	0	0	0	0	0	0	0	0	0	0	0	0
011519	11:19:01	11:24:31	329490	5.0.10.0	4_exp_AMP_EVA_AWA_CON	68	Rpleas_acq	Same	Rpleas	Amasked	CS_A	1pleas	distractor1	EVAbeforeCON	acq_new_pleas_masked	acq2_masked	2	27	480	1	300	300	0	0	479	50	0	1	0	0	0	1	blank2r.bmp	0	1	+	0	2	B2r.bmp	492	1	blank2r.bmp	786	1	B1r.bmp	786	1	blank2r.bmp	866	5	vertrauen	866	1	!	1319	1	!	1386	0	0	0	0	0	0	0	0	0	0	0	0	0	0	0	0	0	0	0	0	0	0	0	0	0	0	0
011519	11:19:01	11:24:33	331676	5.0.10.0	4_exp_AMP_EVA_AWA_CON	68	Rpleas_acq	Same	Rpleas	Amasked	CS_A	1pleas	distractor1	EVAbeforeCON	acq_US_pleas_masked	acq2_masked	2	28	480	0	300	300	0	0	404	50	0	1	0	0	0	1	blank2r.bmp	0	1	+	0	6	C2r.bmp	492	1	blank2r.bmp	786	1	CPLW	786	1	blank2r.bmp	866	5	kuss	866	1	!	-1	1	!	-1	0	0	0	0	0	0	0	0	0	0	0	0	0	0	0	0	0	0	0	0	0	0	0	0	0	0	0
011519	11:19:01	11:24:36	333995	5.0.10.0	4_exp_AMP_EVA_AWA_CON	68	Rpleas_acq	Same	Rpleas	Amasked	CS_A	1pleas	distractor1	EVAbeforeCON	acq_new_unple_masked	acq2_masked	2	29	480	1	300	300	0	0	495	46	0	1	0	0	0	1	blank2r.bmp	0	1	+	0	1	B1r.bmp	492	1	blank2r.bmp	786	8	C4r.bmp	786	1	blank2r.bmp	866	4	engstirnig	866	1	!	1319	1	!	1399	0	0	0	0	0	0	0	0	0	0	0	0	0	0	0	0	0	0	0	0	0	0	0	0	0	0	0
011519	11:19:01	11:24:38	336181	5.0.10.0	4_exp_AMP_EVA_AWA_CON	68	Rpleas_acq	Same	Rpleas	Amasked	CS_A	1pleas	distractor1	EVAbeforeCON	acq_US_pleas_masked	acq2_masked	2	30	480	0	300	300	0	0	413	50	0	1	0	0	0	1	blank2r.bmp	0	1	+	0	2	B2r.bmp	492	1	blank2r.bmp	786	1	CPLW	786	1	blank2r.bmp	866	3	genießen	866	1	!	-1	1	!	-1	0	0	0	0	0	0	0	0	0	0	0	0	0	0	0	0	0	0	0	0	0	0	0	0	0	0	0
011519	11:19:01	11:24:40	338566	5.0.10.0	4_exp_AMP_EVA_AWA_CON	68	Rpleas_acq	Same	Rpleas	Amasked	CS_A	1pleas	distractor1	EVAbeforeCON	acq_new_unple_masked	acq2_masked	2	31	480	0	300	300	0	0	375	50	0	0	0	0	0	1	blank2r.bmp	0	1	+	0	4	B4r.bmp	492	1	blank2r.bmp	786	6	C2r.bmp	786	1	blank2r.bmp	866	5	versagen	866	1	FEHLER	1585	1	!	-1	1	!	-1	0	0	0	0	0	0	0	0	0	0	0	0	0	0	0	0	0	0	0	0	0	0	0	0
011519	11:19:01	11:24:42	340672	5.0.10.0	4_exp_AMP_EVA_AWA_CON	68	Rpleas_acq	Same	Rpleas	Amasked	CS_A	1pleas	distractor1	EVAbeforeCON	acq_new_pleas_masked	acq2_masked	2	32	480	1	300	300	0	0	521	50	0	1	0	0	0	1	blank2r.bmp	0	1	+	0	6	C2r.bmp	492	1	blank2r.bmp	786	5	C1r.bmp	786	1	blank2r.bmp	866	4	engagiert	866	1	!	1319	1	!	1426	0	0	0	0	0	0	0	0	0	0	0	0	0	0	0	0	0	0	0	0	0	0	0	0	0	0	0
011519	11:19:01	11:24:45	342965	5.0.10.0	4_exp_AMP_EVA_AWA_CON	68	Rpleas_acq	Same	Rpleas	Amasked	CS_A	1pleas	distractor1	EVAbeforeCON	acq_US_unple_masked	acq2_masked	2	33	480	1	300	300	0	0	502	46	0	1	0	0	0	1	blank2r.bmp	0	1	+	0	5	C1r.bmp	492	1	blank2r.bmp	786	1	DHJF	786	1	blank2r.bmp	866	4	verbissen	866	1	!	1319	1	!	1399	0	0	0	0	0	0	0	0	0	0	0	0	0	0	0	0	0	0	0	0	0	0	0	0	0	0	0
011519	11:19:01	11:24:47	345150	5.0.10.0	4_exp_AMP_EVA_AWA_CON	68	Rpleas_acq	Same	Rpleas	Amasked	CS_A	1pleas	distractor1	EVAbeforeCON	acq_US_unple_masked	acq2_masked	2	34	480	0	300	300	0	0	412	46	0	1	0	0	0	1	blank2r.bmp	0	1	+	0	8	C4r.bmp	492	1	blank2r.bmp	786	1	DHJF	786	1	blank2r.bmp	866	3	gemein	866	1	!	-1	1	!	-1	0	0	0	0	0	0	0	0	0	0	0	0	0	0	0	0	0	0	0	0	0	0	0	0	0	0	0
011519	11:19:01	11:24:49	347496	5.0.10.0	4_exp_AMP_EVA_AWA_CON	68	Rpleas_acq	Same	Rpleas	Amasked	CS_A	1pleas	distractor1	EVAbeforeCON	acq_US_pleas_masked	acq2_masked	2	35	480	0	300	300	0	0	559	50	0	1	0	0	0	1	blank2r.bmp	0	1	+	0	3	B3r.bmp	492	1	blank2r.bmp	786	1	CPLW	786	1	blank2r.bmp	866	1	besonnen	866	1	!	1319	1	!	-1	0	0	0	0	0	0	0	0	0	0	0	0	0	0	0	0	0	0	0	0	0	0	0	0	0	0	0
011519	11:19:01	11:24:51	349748	5.0.10.0	4_exp_AMP_EVA_AWA_CON	68	Rpleas_acq	Same	Rpleas	Amasked	CS_A	1pleas	distractor1	EVAbeforeCON	acq_new_unple_masked	acq2_masked	2	36	480	1	300	300	0	0	450	46	0	1	0	0	0	1	blank2r.bmp	0	1	+	0	7	C3r.bmp	492	1	blank2r.bmp	786	4	B4r.bmp	786	1	blank2r.bmp	866	6	sterben	866	1	!	1319	1	!	1346	0	0	0	0	0	0	0	0	0	0	0	0	0	0	0	0	0	0	0	0	0	0	0	0	0	0	0
011519	11:19:01	11:25:11	368874	5.0.10.0	4_exp_AMP_EVA_AWA_CON	68	Rpleas_acq	Same	Rpleas	Amasked	CS_A	1pleas	distractor1	EVAbeforeCON	acq_US_unple_masked	acq3_masked	3	1	453	1	300	300	0	0	469	46	0	1	0	0	0	1	blank2r.bmp	0	1	+	0	6	C2r.bmp	492	1	blank2r.bmp	786	1	DHJF	786	1	blank2r.bmp	866	4	verbissen	866	1	!	1292	1	!	1372	0	0	0	0	0	0	0	0	0	0	0	0	0	0	0	0	0	0	0	0	0	0	0	0	0	0	0
011519	11:19:01	11:25:13	371100	5.0.10.0	4_exp_AMP_EVA_AWA_CON	68	Rpleas_acq	Same	Rpleas	Amasked	CS_A	1pleas	distractor1	EVAbeforeCON	acq_US_pleas_masked	acq3_masked	3	2	453	1	300	300	0	0	435	50	0	1	0	0	0	1	blank2r.bmp	0	1	+	0	2	B2r.bmp	492	1	blank2r.bmp	786	1	CPLW	786	1	blank2r.bmp	866	1	besonnen	866	1	!	1292	1	!	1332	0	0	0	0	0	0	0	0	0	0	0	0	0	0	0	0	0	0	0	0	0	0	0	0	0	0	0
011519	11:19:01	11:25:15	373325	5.0.10.0	4_exp_AMP_EVA_AWA_CON	68	Rpleas_acq	Same	Rpleas	Amasked	CS_A	1pleas	distractor1	EVAbeforeCON	acq_US_pleas_masked	acq3_masked	3	3	453	1	300	300	0	0	431	50	0	1	0	0	0	1	blank2r.bmp	0	1	+	0	4	B4r.bmp	492	1	blank2r.bmp	786	1	CPLW	786	1	blank2r.bmp	866	3	genießen	866	1	!	1292	1	!	1332	0	0	0	0	0	0	0	0	0	0	0	0	0	0	0	0	0	0	0	0	0	0	0	0	0	0	0
011519	11:19:01	11:25:17	375431	5.0.10.0	4_exp_AMP_EVA_AWA_CON	68	Rpleas_acq	Same	Rpleas	Amasked	CS_A	1pleas	distractor1	EVAbeforeCON	acq_US_unple_masked	acq3_masked	3	4	453	0	300	300	0	0	331	46	0	1	0	0	0	1	blank2r.bmp	0	1	+	0	7	C3r.bmp	492	1	blank2r.bmp	786	1	DHJF	786	1	blank2r.bmp	866	6	geizig	866	1	!	-1	1	!	-1	0	0	0	0	0	0	0	0	0	0	0	0	0	0	0	0	0	0	0	0	0	0	0	0	0	0	0
011519	11:19:01	11:25:19	377644	5.0.10.0	4_exp_AMP_EVA_AWA_CON	68	Rpleas_acq	Same	Rpleas	Amasked	CS_A	1pleas	distractor1	EVAbeforeCON	acq_US_pleas_masked	acq3_masked	3	5	453	1	300	300	0	0	399	50	0	1	0	0	0	1	blank2r.bmp	0	1	+	0	5	C1r.bmp	492	1	blank2r.bmp	786	1	CPLW	786	1	blank2r.bmp	866	5	kuss	866	1	!	1292	1	!	1306	0	0	0	0	0	0	0	0	0	0	0	0	0	0	0	0	0	0	0	0	0	0	0	0	0	0	0
011519	11:19:01	11:25:22	380069	5.0.10.0	4_exp_AMP_EVA_AWA_CON	68	Rpleas_acq	Same	Rpleas	Amasked	CS_A	1pleas	distractor1	EVAbeforeCON	acq_US_pleas_masked	acq3_masked	3	6	453	1	300	300	0	0	418	46	0	0	0	0	0	1	blank2r.bmp	0	1	+	0	3	B3r.bmp	492	1	blank2r.bmp	786	1	CPLW	786	1	blank2r.bmp	866	2	gütig	866	1	FEHLER	1639	1	!	1292	1	!	1319	0	0	0	0	0	0	0	0	0	0	0	0	0	0	0	0	0	0	0	0	0	0	0	0
011519	11:19:01	11:25:24	382055	5.0.10.0	4_exp_AMP_EVA_AWA_CON	68	Rpleas_acq	Same	Rpleas	Amasked	CS_A	1pleas	distractor1	EVAbeforeCON	acq_US_unple_masked	acq3_masked	3	7	453	1	300	300	0	0	411	46	0	1	0	0	0	1	blank2r.bmp	0	1	+	0	8	C4r.bmp	492	1	blank2r.bmp	786	1	DHJF	786	1	blank2r.bmp	866	1	bange	866	1	!	1292	1	!	1306	0	0	0	0	0	0	0	0	0	0	0	0	0	0	0	0	0	0	0	0	0	0	0	0	0	0	0
011519	11:19:01	11:25:26	384321	5.0.10.0	4_exp_AMP_EVA_AWA_CON	68	Rpleas_acq	Same	Rpleas	Amasked	CS_A	1pleas	distractor1	EVAbeforeCON	acq_US_unple_masked	acq3_masked	3	8	453	1	300	300	0	0	477	46	0	1	0	0	0	1	blank2r.bmp	0	1	+	0	1	B1r.bmp	492	1	blank2r.bmp	786	1	DHJF	786	1	blank2r.bmp	866	3	gemein	866	1	!	1292	1	!	1372	0	0	0	0	0	0	0	0	0	0	0	0	0	0	0	0	0	0	0	0	0	0	0	0	0	0	0
011519	11:19:01	11:25:28	386573	5.0.10.0	4_exp_AMP_EVA_AWA_CON	68	Rpleas_acq	Same	Rpleas	Amasked	CS_A	1pleas	distractor1	EVAbeforeCON	acq_US_unple_masked	acq3_masked	3	9	453	1	300	300	0	0	457	46	0	1	0	0	0	1	blank2r.bmp	0	1	+	0	2	B2r.bmp	492	1	blank2r.bmp	786	1	DHJF	786	1	blank2r.bmp	866	5	krise	866	1	!	1292	1	!	1359	0	0	0	0	0	0	0	0	0	0	0	0	0	0	0	0	0	0	0	0	0	0	0	0	0	0	0
011519	11:19:01	11:25:31	388932	5.0.10.0	4_exp_AMP_EVA_AWA_CON	68	Rpleas_acq	Same	Rpleas	Amasked	CS_A	1pleas	distractor1	EVAbeforeCON	acq_US_unple_masked	acq3_masked	3	10	453	0	300	300	0	0	361	50	0	0	0	0	0	1	blank2r.bmp	0	1	+	0	7	C3r.bmp	492	1	blank2r.bmp	786	1	DHJF	786	1	blank2r.bmp	866	2	gierig	866	1	FEHLER	1572	1	!	-1	1	!	-1	0	0	0	0	0	0	0	0	0	0	0	0	0	0	0	0	0	0	0	0	0	0	0	0
011519	11:19:01	11:25:33	391011	5.0.10.0	4_exp_AMP_EVA_AWA_CON	68	Rpleas_acq	Same	Rpleas	Amasked	CS_A	1pleas	distractor1	EVAbeforeCON	acq_US_pleas_masked	acq3_masked	3	11	453	1	300	300	0	0	504	50	0	1	0	0	0	1	blank2r.bmp	0	1	+	0	5	C1r.bmp	492	1	blank2r.bmp	786	1	CPLW	786	1	blank2r.bmp	866	4	vergnügt	866	1	!	1292	1	!	1399	0	0	0	0	0	0	0	0	0	0	0	0	0	0	0	0	0	0	0	0	0	0	0	0	0	0	0
011519	11:19:01	11:25:35	393304	5.0.10.0	4_exp_AMP_EVA_AWA_CON	68	Rpleas_acq	Same	Rpleas	Amasked	CS_A	1pleas	distractor1	EVAbeforeCON	acq_US_pleas_masked	acq3_masked	3	12	453	1	300	300	0	0	500	50	0	1	0	0	0	1	blank2r.bmp	0	1	+	0	4	B4r.bmp	492	1	blank2r.bmp	786	1	CPLW	786	1	blank2r.bmp	866	6	gesittet	866	1	!	1292	1	!	1399	0	0	0	0	0	0	0	0	0	0	0	0	0	0	0	0	0	0	0	0	0	0	0	0	0	0	0
011519	11:19:01	11:25:37	395503	5.0.10.0	4_exp_AMP_EVA_AWA_CON	68	Rpleas_acq	Same	Rpleas	Amasked	CS_A	1pleas	distractor1	EVAbeforeCON	acq_US_unple_masked	acq3_masked	3	13	453	1	300	300	0	0	401	46	0	1	0	0	0	1	blank2r.bmp	0	1	+	0	1	B1r.bmp	492	1	blank2r.bmp	786	1	DHJF	786	1	blank2r.bmp	866	2	gierig	866	1	!	1292	1	!	1306	0	0	0	0	0	0	0	0	0	0	0	0	0	0	0	0	0	0	0	0	0	0	0	0	0	0	0
011519	11:19:01	11:25:39	397729	5.0.10.0	4_exp_AMP_EVA_AWA_CON	68	Rpleas_acq	Same	Rpleas	Amasked	CS_A	1pleas	distractor1	EVAbeforeCON	acq_US_unple_masked	acq3_masked	3	14	453	1	300	300	0	0	432	46	0	1	0	0	0	1	blank2r.bmp	0	1	+	0	3	B3r.bmp	492	1	blank2r.bmp	786	1	DHJF	786	1	blank2r.bmp	866	5	krise	866	1	!	1292	1	!	1332	0	0	0	0	0	0	0	0	0	0	0	0	0	0	0	0	0	0	0	0	0	0	0	0	0	0	0
011519	11:19:01	11:25:42	399848	5.0.10.0	4_exp_AMP_EVA_AWA_CON	68	Rpleas_acq	Same	Rpleas	Amasked	CS_A	1pleas	distractor1	EVAbeforeCON	acq_US_unple_masked	acq3_masked	3	15	453	0	300	300	0	0	350	46	0	1	0	0	0	1	blank2r.bmp	0	1	+	0	6	C2r.bmp	492	1	blank2r.bmp	786	1	DHJF	786	1	blank2r.bmp	866	3	gemein	866	1	!	-1	1	!	-1	0	0	0	0	0	0	0	0	0	0	0	0	0	0	0	0	0	0	0	0	0	0	0	0	0	0	0
011519	11:19:01	11:25:44	402140	5.0.10.0	4_exp_AMP_EVA_AWA_CON	68	Rpleas_acq	Same	Rpleas	Amasked	CS_A	1pleas	distractor1	EVAbeforeCON	acq_US_pleas_masked	acq3_masked	3	16	453	1	300	300	0	0	477	50	0	1	0	0	0	1	blank2r.bmp	0	1	+	0	8	C4r.bmp	492	1	blank2r.bmp	786	1	CPLW	786	1	blank2r.bmp	866	6	gesittet	866	1	!	1292	1	!	1372	0	0	0	0	0	0	0	0	0	0	0	0	0	0	0	0	0	0	0	0	0	0	0	0	0	0	0
011519	11:19:01	11:25:46	404446	5.0.10.0	4_exp_AMP_EVA_AWA_CON	68	Rpleas_acq	Same	Rpleas	Amasked	CS_A	1pleas	distractor1	EVAbeforeCON	acq_US_pleas_masked	acq3_masked	3	17	453	1	300	300	0	0	512	50	0	1	0	0	0	1	blank2r.bmp	0	1	+	0	1	B1r.bmp	492	1	blank2r.bmp	786	1	CPLW	786	1	blank2r.bmp	866	3	genießen	866	1	!	1292	1	!	1412	0	0	0	0	0	0	0	0	0	0	0	0	0	0	0	0	0	0	0	0	0	0	0	0	0	0	0
011519	11:19:01	11:25:48	406565	5.0.10.0	4_exp_AMP_EVA_AWA_CON	68	Rpleas_acq	Same	Rpleas	Amasked	CS_A	1pleas	distractor1	EVAbeforeCON	acq_US_pleas_masked	acq3_masked	3	18	453	0	300	300	0	0	356	50	0	1	0	0	0	1	blank2r.bmp	0	1	+	0	7	C3r.bmp	492	1	blank2r.bmp	786	1	CPLW	786	1	blank2r.bmp	866	2	gütig	866	1	!	-1	1	!	-1	0	0	0	0	0	0	0	0	0	0	0	0	0	0	0	0	0	0	0	0	0	0	0	0	0	0	0
011519	11:19:01	11:25:50	408777	5.0.10.0	4_exp_AMP_EVA_AWA_CON	68	Rpleas_acq	Same	Rpleas	Amasked	CS_A	1pleas	distractor1	EVAbeforeCON	acq_US_unple_masked	acq3_masked	3	19	453	1	300	300	0	0	399	46	0	1	0	0	0	1	blank2r.bmp	0	1	+	0	6	C2r.bmp	492	1	blank2r.bmp	786	1	DHJF	786	1	blank2r.bmp	866	4	verbissen	866	1	!	1292	1	!	1306	0	0	0	0	0	0	0	0	0	0	0	0	0	0	0	0	0	0	0	0	0	0	0	0	0	0	0
011519	11:19:01	11:25:53	411070	5.0.10.0	4_exp_AMP_EVA_AWA_CON	68	Rpleas_acq	Same	Rpleas	Amasked	CS_A	1pleas	distractor1	EVAbeforeCON	acq_US_pleas_masked	acq3_masked	3	20	453	1	300	300	0	0	495	50	0	1	0	0	0	1	blank2r.bmp	0	1	+	0	5	C1r.bmp	492	1	blank2r.bmp	786	1	CPLW	786	1	blank2r.bmp	866	4	vergnügt	866	1	!	1292	1	!	1399	0	0	0	0	0	0	0	0	0	0	0	0	0	0	0	0	0	0	0	0	0	0	0	0	0	0	0
011519	11:19:01	11:25:55	413282	5.0.10.0	4_exp_AMP_EVA_AWA_CON	68	Rpleas_acq	Same	Rpleas	Amasked	CS_A	1pleas	distractor1	EVAbeforeCON	acq_US_unple_masked	acq3_masked	3	21	453	1	300	300	0	0	423	46	0	1	0	0	0	1	blank2r.bmp	0	1	+	0	4	B4r.bmp	492	1	blank2r.bmp	786	1	DHJF	786	1	blank2r.bmp	866	1	bange	866	1	!	1292	1	!	1319	0	0	0	0	0	0	0	0	0	0	0	0	0	0	0	0	0	0	0	0	0	0	0	0	0	0	0
011519	11:19:01	11:25:57	415548	5.0.10.0	4_exp_AMP_EVA_AWA_CON	68	Rpleas_acq	Same	Rpleas	Amasked	CS_A	1pleas	distractor1	EVAbeforeCON	acq_US_pleas_masked	acq3_masked	3	22	453	1	300	300	0	0	476	50	0	1	0	0	0	1	blank2r.bmp	0	1	+	0	8	C4r.bmp	492	1	blank2r.bmp	786	1	CPLW	786	1	blank2r.bmp	866	5	kuss	866	1	!	1292	1	!	1372	0	0	0	0	0	0	0	0	0	0	0	0	0	0	0	0	0	0	0	0	0	0	0	0	0	0	0
011519	11:19:01	11:26:00	417854	5.0.10.0	4_exp_AMP_EVA_AWA_CON	68	Rpleas_acq	Same	Rpleas	Amasked	CS_A	1pleas	distractor1	EVAbeforeCON	acq_US_pleas_masked	acq3_masked	3	23	453	1	300	300	0	0	517	50	0	1	0	0	0	1	blank2r.bmp	0	1	+	0	3	B3r.bmp	492	1	blank2r.bmp	786	1	CPLW	786	1	blank2r.bmp	866	1	besonnen	866	1	!	1292	1	!	1412	0	0	0	0	0	0	0	0	0	0	0	0	0	0	0	0	0	0	0	0	0	0	0	0	0	0	0
011519	11:19:01	11:26:02	420053	5.0.10.0	4_exp_AMP_EVA_AWA_CON	68	Rpleas_acq	Same	Rpleas	Amasked	CS_A	1pleas	distractor1	EVAbeforeCON	acq_US_unple_masked	acq3_masked	3	24	453	1	300	300	0	0	399	46	0	1	0	0	0	1	blank2r.bmp	0	1	+	0	2	B2r.bmp	492	1	blank2r.bmp	786	1	DHJF	786	1	blank2r.bmp	866	6	geizig	866	1	!	1292	1	!	1306	0	0	0	0	0	0	0	0	0	0	0	0	0	0	0	0	0	0	0	0	0	0	0	0	0	0	0
011519	11:19:01	11:26:04	422265	5.0.10.0	4_exp_AMP_EVA_AWA_CON	68	Rpleas_acq	Same	Rpleas	Amasked	CS_A	1pleas	distractor1	EVAbeforeCON	acq_US_pleas_masked	acq3_masked	3	25	453	1	300	300	0	0	413	50	0	1	0	0	0	1	blank2r.bmp	0	1	+	0	6	C2r.bmp	492	1	blank2r.bmp	786	1	CPLW	786	1	blank2r.bmp	866	5	kuss	866	1	!	1292	1	!	1319	0	0	0	0	0	0	0	0	0	0	0	0	0	0	0	0	0	0	0	0	0	0	0	0	0	0	0
011519	11:19:01	11:26:06	424678	5.0.10.0	4_exp_AMP_EVA_AWA_CON	68	Rpleas_acq	Same	Rpleas	Amasked	CS_A	1pleas	distractor1	EVAbeforeCON	acq_US_pleas_masked	acq3_masked	3	26	453	1	300	300	0	0	410	46	0	0	0	0	0	1	blank2r.bmp	0	1	+	0	2	B2r.bmp	492	1	blank2r.bmp	786	1	CPLW	786	1	blank2r.bmp	866	1	besonnen	866	1	FEHLER	1625	1	!	1292	1	!	1306	0	0	0	0	0	0	0	0	0	0	0	0	0	0	0	0	0	0	0	0	0	0	0	0
011519	11:19:01	11:26:08	426770	5.0.10.0	4_exp_AMP_EVA_AWA_CON	68	Rpleas_acq	Same	Rpleas	Amasked	CS_A	1pleas	distractor1	EVAbeforeCON	acq_US_pleas_masked	acq3_masked	3	27	453	0	300	300	0	0	532	50	0	1	0	0	0	1	blank2r.bmp	0	1	+	0	5	C1r.bmp	492	1	blank2r.bmp	786	1	CPLW	786	1	blank2r.bmp	866	4	vergnügt	866	1	!	1292	1	!	-1	0	0	0	0	0	0	0	0	0	0	0	0	0	0	0	0	0	0	0	0	0	0	0	0	0	0	0
011519	11:19:01	11:26:11	428929	5.0.10.0	4_exp_AMP_EVA_AWA_CON	68	Rpleas_acq	Same	Rpleas	Amasked	CS_A	1pleas	distractor1	EVAbeforeCON	acq_US_unple_masked	acq3_masked	3	28	453	0	300	300	0	0	375	46	0	1	0	0	0	1	blank2r.bmp	0	1	+	0	7	C3r.bmp	492	1	blank2r.bmp	786	1	DHJF	786	1	blank2r.bmp	866	6	geizig	866	1	!	-1	1	!	-1	0	0	0	0	0	0	0	0	0	0	0	0	0	0	0	0	0	0	0	0	0	0	0	0	0	0	0
011519	11:19:01	11:26:13	431088	5.0.10.0	4_exp_AMP_EVA_AWA_CON	68	Rpleas_acq	Same	Rpleas	Amasked	CS_A	1pleas	distractor1	EVAbeforeCON	acq_US_pleas_masked	acq3_masked	3	29	453	0	300	300	0	0	377	50	0	1	0	0	0	1	blank2r.bmp	0	1	+	0	8	C4r.bmp	492	1	blank2r.bmp	786	1	CPLW	786	1	blank2r.bmp	866	2	gütig	866	1	!	-1	1	!	-1	0	0	0	0	0	0	0	0	0	0	0	0	0	0	0	0	0	0	0	0	0	0	0	0	0	0	0
011519	11:19:01	11:26:15	433541	5.0.10.0	4_exp_AMP_EVA_AWA_CON	68	Rpleas_acq	Same	Rpleas	Amasked	CS_A	1pleas	distractor1	EVAbeforeCON	acq_US_unple_masked	acq3_masked	3	30	453	1	300	300	0	0	427	50	0	0	0	0	0	1	blank2r.bmp	0	1	+	0	4	B4r.bmp	492	1	blank2r.bmp	786	1	DHJF	786	1	blank2r.bmp	866	3	gemein	866	1	FEHLER	1652	1	!	1292	1	!	1332	0	0	0	0	0	0	0	0	0	0	0	0	0	0	0	0	0	0	0	0	0	0	0	0
011519	11:19:01	11:26:17	435593	5.0.10.0	4_exp_AMP_EVA_AWA_CON	68	Rpleas_acq	Same	Rpleas	Amasked	CS_A	1pleas	distractor1	EVAbeforeCON	acq_US_pleas_masked	acq3_masked	3	31	453	1	300	300	0	0	467	50	0	1	0	0	0	1	blank2r.bmp	0	1	+	0	1	B1r.bmp	492	1	blank2r.bmp	786	1	CPLW	786	1	blank2r.bmp	866	3	genießen	866	1	!	1292	1	!	1372	0	0	0	0	0	0	0	0	0	0	0	0	0	0	0	0	0	0	0	0	0	0	0	0	0	0	0
011519	11:19:01	11:26:19	437819	5.0.10.0	4_exp_AMP_EVA_AWA_CON	68	Rpleas_acq	Same	Rpleas	Amasked	CS_A	1pleas	distractor1	EVAbeforeCON	acq_US_pleas_masked	acq3_masked	3	32	453	1	300	300	0	0	432	50	0	1	0	0	0	1	blank2r.bmp	0	1	+	0	3	B3r.bmp	492	1	blank2r.bmp	786	1	CPLW	786	1	blank2r.bmp	866	6	gesittet	866	1	!	1292	1	!	1332	0	0	0	0	0	0	0	0	0	0	0	0	0	0	0	0	0	0	0	0	0	0	0	0	0	0	0
011519	11:19:01	11:26:22	440098	5.0.10.0	4_exp_AMP_EVA_AWA_CON	68	Rpleas_acq	Same	Rpleas	Amasked	CS_A	1pleas	distractor1	EVAbeforeCON	acq_US_unple_masked	acq3_masked	3	33	453	1	300	300	0	0	484	46	0	1	0	0	0	1	blank2r.bmp	0	1	+	0	4	B4r.bmp	492	1	blank2r.bmp	786	1	DHJF	786	1	blank2r.bmp	866	2	gierig	866	1	!	1292	1	!	1386	0	0	0	0	0	0	0	0	0	0	0	0	0	0	0	0	0	0	0	0	0	0	0	0	0	0	0
011519	11:19:01	11:26:24	442404	5.0.10.0	4_exp_AMP_EVA_AWA_CON	68	Rpleas_acq	Same	Rpleas	Amasked	CS_A	1pleas	distractor1	EVAbeforeCON	acq_US_unple_masked	acq3_masked	3	34	453	0	300	300	0	0	532	46	0	1	0	0	0	1	blank2r.bmp	0	1	+	0	1	B1r.bmp	492	1	blank2r.bmp	786	1	DHJF	786	1	blank2r.bmp	866	1	bange	866	1	!	1292	1	!	-1	0	0	0	0	0	0	0	0	0	0	0	0	0	0	0	0	0	0	0	0	0	0	0	0	0	0	0
011519	11:19:01	11:26:26	444843	5.0.10.0	4_exp_AMP_EVA_AWA_CON	68	Rpleas_acq	Same	Rpleas	Amasked	CS_A	1pleas	distractor1	EVAbeforeCON	acq_US_unple_masked	acq3_masked	3	35	453	1	300	300	0	0	411	50	0	0	0	0	0	1	blank2r.bmp	0	1	+	0	2	B2r.bmp	492	1	blank2r.bmp	786	1	DHJF	786	1	blank2r.bmp	866	5	krise	866	1	FEHLER	1625	1	!	1292	1	!	1306	0	0	0	0	0	0	0	0	0	0	0	0	0	0	0	0	0	0	0	0	0	0	0	0
011519	11:19:01	11:26:29	447055	5.0.10.0	4_exp_AMP_EVA_AWA_CON	68	Rpleas_acq	Same	Rpleas	Amasked	CS_A	1pleas	distractor1	EVAbeforeCON	acq_US_unple_masked	acq3_masked	3	36	453	1	300	300	0	0	416	50	0	0	0	0	0	1	blank2r.bmp	0	1	+	0	5	C1r.bmp	492	1	blank2r.bmp	786	1	DHJF	786	1	blank2r.bmp	866	4	verbissen	866	1	FEHLER	1639	1	!	1292	1	!	1319	0	0	0	0	0	0	0	0	0	0	0	0	0	0	0	0	0	0	0	0	0	0	0	0
011519	11:19:01	11:26:46	464608	5.0.10.0	4_exp_AMP_EVA_AWA_CON	68	Rpleas_acq	Same	Rpleas	Amasked	CS_A	1pleas	distractor1	EVAbeforeCON	acq_US_unple_masked	acq45_masked	4	1	400	1	300	300	0	0	444	46	0	1	0	0	0	1	blank2r.bmp	0	1	+	0	6	C2r.bmp	492	1	blank2r.bmp	786	1	DHJF	786	1	blank2r.bmp	866	5	krise	866	1	!	1239	1	!	1346	0	0	0	0	0	0	0	0	0	0	0	0	0	0	0	0	0	0	0	0	0	0	0	0	0	0	0
011519	11:19:01	11:26:48	466780	5.0.10.0	4_exp_AMP_EVA_AWA_CON	68	Rpleas_acq	Same	Rpleas	Amasked	CS_A	1pleas	distractor1	EVAbeforeCON	acq_US_pleas_masked	acq45_masked	4	2	400	1	300	300	0	0	380	50	0	1	0	0	0	1	blank2r.bmp	0	1	+	0	3	B3r.bmp	492	1	blank2r.bmp	786	1	CPLW	786	1	blank2r.bmp	866	2	gütig	866	1	!	1239	1	!	1279	0	0	0	0	0	0	0	0	0	0	0	0	0	0	0	0	0	0	0	0	0	0	0	0	0	0	0
011519	11:19:01	11:26:51	469046	5.0.10.0	4_exp_AMP_EVA_AWA_CON	68	Rpleas_acq	Same	Rpleas	Amasked	CS_A	1pleas	distractor1	EVAbeforeCON	acq_US_pleas_masked	acq45_masked	4	3	400	0	300	300	0	0	504	50	0	1	0	0	0	1	blank2r.bmp	0	1	+	0	8	C4r.bmp	492	1	blank2r.bmp	786	1	CPLW	786	1	blank2r.bmp	866	3	genießen	866	1	!	1239	1	!	-1	0	0	0	0	0	0	0	0	0	0	0	0	0	0	0	0	0	0	0	0	0	0	0	0	0	0	0
011519	11:19:01	11:26:53	471098	5.0.10.0	4_exp_AMP_EVA_AWA_CON	68	Rpleas_acq	Same	Rpleas	Amasked	CS_A	1pleas	distractor1	EVAbeforeCON	acq_US_pleas_masked	acq45_masked	4	4	400	0	300	300	0	0	270	46	0	0	0	0	0	1	blank2r.bmp	0	1	+	0	7	C3r.bmp	492	1	blank2r.bmp	786	1	CPLW	786	1	blank2r.bmp	866	5	kuss	866	1	!	-1	1	!	-1	0	0	0	0	0	0	0	0	0	0	0	0	0	0	0	0	0	0	0	0	0	0	0	0	0	0	0
011519	11:19:01	11:26:55	473311	5.0.10.0	4_exp_AMP_EVA_AWA_CON	68	Rpleas_acq	Same	Rpleas	Amasked	CS_A	1pleas	distractor1	EVAbeforeCON	acq_US_unple_masked	acq45_masked	4	5	400	1	300	300	0	0	407	46	0	1	0	0	0	1	blank2r.bmp	0	1	+	0	6	C2r.bmp	492	1	blank2r.bmp	786	1	DHJF	786	1	blank2r.bmp	866	1	bange	866	1	!	1239	1	!	1306	0	0	0	0	0	0	0	0	0	0	0	0	0	0	0	0	0	0	0	0	0	0	0	0	0	0	0
011519	11:19:01	11:26:57	475417	5.0.10.0	4_exp_AMP_EVA_AWA_CON	68	Rpleas_acq	Same	Rpleas	Amasked	CS_A	1pleas	distractor1	EVAbeforeCON	acq_US_pleas_masked	acq45_masked	4	6	400	0	300	300	0	0	333	50	0	1	0	0	0	1	blank2r.bmp	0	1	+	0	4	B4r.bmp	492	1	blank2r.bmp	786	1	CPLW	786	1	blank2r.bmp	866	4	vergnügt	866	1	!	-1	1	!	-1	0	0	0	0	0	0	0	0	0	0	0	0	0	0	0	0	0	0	0	0	0	0	0	0	0	0	0
011519	11:19:01	11:26:59	477682	5.0.10.0	4_exp_AMP_EVA_AWA_CON	68	Rpleas_acq	Same	Rpleas	Amasked	CS_A	1pleas	distractor1	EVAbeforeCON	acq_US_unple_masked	acq45_masked	4	7	400	0	300	300	0	0	479	50	0	0	0	0	0	1	blank2r.bmp	0	1	+	0	3	B3r.bmp	492	1	blank2r.bmp	786	1	DHJF	786	1	blank2r.bmp	866	2	gierig	866	1	!	1239	1	!	-1	0	0	0	0	0	0	0	0	0	0	0	0	0	0	0	0	0	0	0	0	0	0	0	0	0	0	0
011519	11:19:01	11:27:02	479961	5.0.10.0	4_exp_AMP_EVA_AWA_CON	68	Rpleas_acq	Same	Rpleas	Amasked	CS_A	1pleas	distractor1	EVAbeforeCON	acq_US_pleas_masked	acq45_masked	4	8	400	0	300	300	0	0	504	50	0	1	0	0	0	1	blank2r.bmp	0	1	+	0	2	B2r.bmp	492	1	blank2r.bmp	786	1	CPLW	786	1	blank2r.bmp	866	6	gesittet	866	1	!	1239	1	!	-1	0	0	0	0	0	0	0	0	0	0	0	0	0	0	0	0	0	0	0	0	0	0	0	0	0	0	0
011519	11:19:01	11:27:04	482134	5.0.10.0	4_exp_AMP_EVA_AWA_CON	68	Rpleas_acq	Same	Rpleas	Amasked	CS_A	1pleas	distractor1	EVAbeforeCON	acq_US_unple_masked	acq45_masked	4	9	400	1	300	300	0	0	364	50	0	0	0	0	0	1	blank2r.bmp	0	1	+	0	1	B1r.bmp	492	1	blank2r.bmp	786	1	DHJF	786	1	blank2r.bmp	866	3	gemein	866	1	!	1239	1	!	1266	0	0	0	0	0	0	0	0	0	0	0	0	0	0	0	0	0	0	0	0	0	0	0	0	0	0	0
011519	11:19:01	11:27:06	484373	5.0.10.0	4_exp_AMP_EVA_AWA_CON	68	Rpleas_acq	Same	Rpleas	Amasked	CS_A	1pleas	distractor1	EVAbeforeCON	acq_US_unple_masked	acq45_masked	4	10	400	1	300	300	0	0	434	46	0	1	0	0	0	1	blank2r.bmp	0	1	+	0	5	C1r.bmp	492	1	blank2r.bmp	786	1	DHJF	786	1	blank2r.bmp	866	4	verbissen	866	1	!	1239	1	!	1332	0	0	0	0	0	0	0	0	0	0	0	0	0	0	0	0	0	0	0	0	0	0	0	0	0	0	0
011519	11:19:01	11:27:08	486599	5.0.10.0	4_exp_AMP_EVA_AWA_CON	68	Rpleas_acq	Same	Rpleas	Amasked	CS_A	1pleas	distractor1	EVAbeforeCON	acq_US_unple_masked	acq45_masked	4	11	400	1	300	300	0	0	432	46	0	1	0	0	0	1	blank2r.bmp	0	1	+	0	8	C4r.bmp	492	1	blank2r.bmp	786	1	DHJF	786	1	blank2r.bmp	866	6	geizig	866	1	!	1239	1	!	1332	0	0	0	0	0	0	0	0	0	0	0	0	0	0	0	0	0	0	0	0	0	0	0	0	0	0	0
011519	11:19:01	11:27:11	488864	5.0.10.0	4_exp_AMP_EVA_AWA_CON	68	Rpleas_acq	Same	Rpleas	Amasked	CS_A	1pleas	distractor1	EVAbeforeCON	acq_US_unple_masked	acq45_masked	4	12	400	1	300	300	0	0	466	46	0	1	0	0	0	1	blank2r.bmp	0	1	+	0	7	C3r.bmp	492	1	blank2r.bmp	786	1	DHJF	786	1	blank2r.bmp	866	5	krise	866	1	!	1239	1	!	1372	0	0	0	0	0	0	0	0	0	0	0	0	0	0	0	0	0	0	0	0	0	0	0	0	0	0	0
011519	11:19:01	11:27:13	491010	5.0.10.0	4_exp_AMP_EVA_AWA_CON	68	Rpleas_acq	Same	Rpleas	Amasked	CS_A	1pleas	distractor1	EVAbeforeCON	acq_US_pleas_masked	acq45_masked	4	13	400	1	300	300	0	0	358	46	0	0	0	0	0	1	blank2r.bmp	0	1	+	0	6	C2r.bmp	492	1	blank2r.bmp	786	1	CPLW	786	1	blank2r.bmp	866	1	besonnen	866	1	!	1239	1	!	1252	0	0	0	0	0	0	0	0	0	0	0	0	0	0	0	0	0	0	0	0	0	0	0	0	0	0	0
011519	11:19:01	11:27:15	493209	5.0.10.0	4_exp_AMP_EVA_AWA_CON	68	Rpleas_acq	Same	Rpleas	Amasked	CS_A	1pleas	distractor1	EVAbeforeCON	acq_US_pleas_masked	acq45_masked	4	14	400	1	300	300	0	0	395	50	0	1	0	0	0	1	blank2r.bmp	0	1	+	0	5	C1r.bmp	492	1	blank2r.bmp	786	1	CPLW	786	1	blank2r.bmp	866	5	kuss	866	1	!	1239	1	!	1292	0	0	0	0	0	0	0	0	0	0	0	0	0	0	0	0	0	0	0	0	0	0	0	0	0	0	0
011519	11:19:01	11:27:17	495382	5.0.10.0	4_exp_AMP_EVA_AWA_CON	68	Rpleas_acq	Same	Rpleas	Amasked	CS_A	1pleas	distractor1	EVAbeforeCON	acq_US_unple_masked	acq45_masked	4	15	400	1	300	300	0	0	369	46	0	1	0	0	0	1	blank2r.bmp	0	1	+	0	7	C3r.bmp	492	1	blank2r.bmp	786	1	DHJF	786	1	blank2r.bmp	866	1	bange	866	1	!	1239	1	!	1266	0	0	0	0	0	0	0	0	0	0	0	0	0	0	0	0	0	0	0	0	0	0	0	0	0	0	0
011519	11:19:01	11:27:19	497581	5.0.10.0	4_exp_AMP_EVA_AWA_CON	68	Rpleas_acq	Same	Rpleas	Amasked	CS_A	1pleas	distractor1	EVAbeforeCON	acq_US_pleas_masked	acq45_masked	4	16	400	1	300	300	0	0	411	50	0	1	0	0	0	1	blank2r.bmp	0	1	+	0	3	B3r.bmp	492	1	blank2r.bmp	786	1	CPLW	786	1	blank2r.bmp	866	3	genießen	866	1	!	1239	1	!	1306	0	0	0	0	0	0	0	0	0	0	0	0	0	0	0	0	0	0	0	0	0	0	0	0	0	0	0
011519	11:19:01	11:27:21	499833	5.0.10.0	4_exp_AMP_EVA_AWA_CON	68	Rpleas_acq	Same	Rpleas	Amasked	CS_A	1pleas	distractor1	EVAbeforeCON	acq_US_pleas_masked	acq45_masked	4	17	400	1	300	300	0	0	455	50	0	1	0	0	0	1	blank2r.bmp	0	1	+	0	2	B2r.bmp	492	1	blank2r.bmp	786	1	CPLW	786	1	blank2r.bmp	866	1	besonnen	866	1	!	1239	1	!	1359	0	0	0	0	0	0	0	0	0	0	0	0	0	0	0	0	0	0	0	0	0	0	0	0	0	0	0
011519	11:19:01	11:27:24	502019	5.0.10.0	4_exp_AMP_EVA_AWA_CON	68	Rpleas_acq	Same	Rpleas	Amasked	CS_A	1pleas	distractor1	EVAbeforeCON	acq_US_unple_masked	acq45_masked	4	18	400	1	300	300	0	0	386	46	0	1	0	0	0	1	blank2r.bmp	0	1	+	0	8	C4r.bmp	492	1	blank2r.bmp	786	1	DHJF	786	1	blank2r.bmp	866	4	verbissen	866	1	!	1239	1	!	1292	0	0	0	0	0	0	0	0	0	0	0	0	0	0	0	0	0	0	0	0	0	0	0	0	0	0	0
011519	11:19:01	11:27:26	504231	5.0.10.0	4_exp_AMP_EVA_AWA_CON	68	Rpleas_acq	Same	Rpleas	Amasked	CS_A	1pleas	distractor1	EVAbeforeCON	acq_US_unple_masked	acq45_masked	4	19	400	1	300	300	0	0	420	46	0	1	0	0	0	1	blank2r.bmp	0	1	+	0	4	B4r.bmp	492	1	blank2r.bmp	786	1	DHJF	786	1	blank2r.bmp	866	6	geizig	866	1	!	1239	1	!	1319	0	0	0	0	0	0	0	0	0	0	0	0	0	0	0	0	0	0	0	0	0	0	0	0	0	0	0
011519	11:19:01	11:27:28	506377	5.0.10.0	4_exp_AMP_EVA_AWA_CON	68	Rpleas_acq	Same	Rpleas	Amasked	CS_A	1pleas	distractor1	EVAbeforeCON	acq_US_pleas_masked	acq45_masked	4	20	400	1	300	300	0	0	346	46	0	0	0	0	0	1	blank2r.bmp	0	1	+	0	1	B1r.bmp	492	1	blank2r.bmp	786	1	CPLW	786	1	blank2r.bmp	866	6	gesittet	866	1	!	1239	1	!	1252	0	0	0	0	0	0	0	0	0	0	0	0	0	0	0	0	0	0	0	0	0	0	0	0	0	0	0
011519	11:19:01	11:27:30	508643	5.0.10.0	4_exp_AMP_EVA_AWA_CON	68	Rpleas_acq	Same	Rpleas	Amasked	CS_A	1pleas	distractor1	EVAbeforeCON	acq_US_unple_masked	acq45_masked	4	21	400	0	300	300	0	0	479	46	0	1	0	0	0	1	blank2r.bmp	0	1	+	0	4	B4r.bmp	492	1	blank2r.bmp	786	1	DHJF	786	1	blank2r.bmp	866	2	gierig	866	1	!	1239	1	!	-1	0	0	0	0	0	0	0	0	0	0	0	0	0	0	0	0	0	0	0	0	0	0	0	0	0	0	0
011519	11:19:01	11:27:33	510855	5.0.10.0	4_exp_AMP_EVA_AWA_CON	68	Rpleas_acq	Same	Rpleas	Amasked	CS_A	1pleas	distractor1	EVAbeforeCON	acq_US_unple_masked	acq45_masked	4	22	400	1	300	300	0	0	407	46	0	1	0	0	0	1	blank2r.bmp	0	1	+	0	7	C3r.bmp	492	1	blank2r.bmp	786	1	DHJF	786	1	blank2r.bmp	866	3	gemein	866	1	!	1239	1	!	1306	0	0	0	0	0	0	0	0	0	0	0	0	0	0	0	0	0	0	0	0	0	0	0	0	0	0	0
011519	11:19:01	11:27:35	513028	5.0.10.0	4_exp_AMP_EVA_AWA_CON	68	Rpleas_acq	Same	Rpleas	Amasked	CS_A	1pleas	distractor1	EVAbeforeCON	acq_US_unple_masked	acq45_masked	4	23	400	1	300	300	0	0	361	50	0	0	0	0	0	1	blank2r.bmp	0	1	+	0	1	B1r.bmp	492	1	blank2r.bmp	786	1	DHJF	786	1	blank2r.bmp	866	4	verbissen	866	1	!	1239	1	!	1266	0	0	0	0	0	0	0	0	0	0	0	0	0	0	0	0	0	0	0	0	0	0	0	0	0	0	0
011519	11:19:01	11:27:37	515227	5.0.10.0	4_exp_AMP_EVA_AWA_CON	68	Rpleas_acq	Same	Rpleas	Amasked	CS_A	1pleas	distractor1	EVAbeforeCON	acq_US_unple_masked	acq45_masked	4	24	400	1	300	300	0	0	409	46	0	1	0	0	0	1	blank2r.bmp	0	1	+	0	5	C1r.bmp	492	1	blank2r.bmp	786	1	DHJF	786	1	blank2r.bmp	866	1	bange	866	1	!	1239	1	!	1306	0	0	0	0	0	0	0	0	0	0	0	0	0	0	0	0	0	0	0	0	0	0	0	0	0	0	0
011519	11:19:01	11:27:39	517386	5.0.10.0	4_exp_AMP_EVA_AWA_CON	68	Rpleas_acq	Same	Rpleas	Amasked	CS_A	1pleas	distractor1	EVAbeforeCON	acq_US_pleas_masked	acq45_masked	4	25	400	1	300	300	0	0	360	50	0	1	0	0	0	1	blank2r.bmp	0	1	+	0	3	B3r.bmp	492	1	blank2r.bmp	786	1	CPLW	786	1	blank2r.bmp	866	4	vergnügt	866	1	!	1239	1	!	1266	0	0	0	0	0	0	0	0	0	0	0	0	0	0	0	0	0	0	0	0	0	0	0	0	0	0	0
011519	11:19:01	11:27:41	519692	5.0.10.0	4_exp_AMP_EVA_AWA_CON	68	Rpleas_acq	Same	Rpleas	Amasked	CS_A	1pleas	distractor1	EVAbeforeCON	acq_US_pleas_masked	acq45_masked	4	26	400	0	300	300	0	0	535	50	0	1	0	0	0	1	blank2r.bmp	0	1	+	0	6	C2r.bmp	492	1	blank2r.bmp	786	1	CPLW	786	1	blank2r.bmp	866	2	gütig	866	1	!	1239	1	!	-1	0	0	0	0	0	0	0	0	0	0	0	0	0	0	0	0	0	0	0	0	0	0	0	0	0	0	0
011519	11:19:01	11:27:44	521917	5.0.10.0	4_exp_AMP_EVA_AWA_CON	68	Rpleas_acq	Same	Rpleas	Amasked	CS_A	1pleas	distractor1	EVAbeforeCON	acq_US_unple_masked	acq45_masked	4	27	400	1	300	300	0	0	420	46	0	1	0	0	0	1	blank2r.bmp	0	1	+	0	8	C4r.bmp	492	1	blank2r.bmp	786	1	DHJF	786	1	blank2r.bmp	866	2	gierig	866	1	!	1239	1	!	1319	0	0	0	0	0	0	0	0	0	0	0	0	0	0	0	0	0	0	0	0	0	0	0	0	0	0	0
011519	11:19:01	11:27:46	524090	5.0.10.0	4_exp_AMP_EVA_AWA_CON	68	Rpleas_acq	Same	Rpleas	Amasked	CS_A	1pleas	distractor1	EVAbeforeCON	acq_US_pleas_masked	acq45_masked	4	28	400	1	300	300	0	0	379	46	0	0	0	0	0	1	blank2r.bmp	0	1	+	0	2	B2r.bmp	492	1	blank2r.bmp	786	1	CPLW	786	1	blank2r.bmp	866	1	besonnen	866	1	!	1239	1	!	1279	0	0	0	0	0	0	0	0	0	0	0	0	0	0	0	0	0	0	0	0	0	0	0	0	0	0	0
011519	11:19:01	11:27:48	526236	5.0.10.0	4_exp_AMP_EVA_AWA_CON	68	Rpleas_acq	Same	Rpleas	Amasked	CS_A	1pleas	distractor1	EVAbeforeCON	acq_US_unple_masked	acq45_masked	4	29	400	1	300	300	0	0	346	46	0	1	0	0	0	1	blank2r.bmp	0	1	+	0	1	B1r.bmp	492	1	blank2r.bmp	786	1	DHJF	786	1	blank2r.bmp	866	5	krise	866	1	!	1239	1	!	1252	0	0	0	0	0	0	0	0	0	0	0	0	0	0	0	0	0	0	0	0	0	0	0	0	0	0	0
011519	11:19:01	11:27:50	528355	5.0.10.0	4_exp_AMP_EVA_AWA_CON	68	Rpleas_acq	Same	Rpleas	Amasked	CS_A	1pleas	distractor1	EVAbeforeCON	acq_US_pleas_masked	acq45_masked	4	30	400	0	300	300	0	0	332	50	0	1	0	0	0	1	blank2r.bmp	0	1	+	0	8	C4r.bmp	492	1	blank2r.bmp	786	1	CPLW	786	1	blank2r.bmp	866	5	kuss	866	1	!	-1	1	!	-1	0	0	0	0	0	0	0	0	0	0	0	0	0	0	0	0	0	0	0	0	0	0	0	0	0	0	0
011519	11:19:01	11:27:52	530474	5.0.10.0	4_exp_AMP_EVA_AWA_CON	68	Rpleas_acq	Same	Rpleas	Amasked	CS_A	1pleas	distractor1	EVAbeforeCON	acq_US_unple_masked	acq45_masked	4	31	400	0	300	300	0	0	332	50	0	0	0	0	0	1	blank2r.bmp	0	1	+	0	6	C2r.bmp	492	1	blank2r.bmp	786	1	DHJF	786	1	blank2r.bmp	866	6	geizig	866	1	!	-1	1	!	-1	0	0	0	0	0	0	0	0	0	0	0	0	0	0	0	0	0	0	0	0	0	0	0	0	0	0	0
011519	11:19:01	11:27:54	532713	5.0.10.0	4_exp_AMP_EVA_AWA_CON	68	Rpleas_acq	Same	Rpleas	Amasked	CS_A	1pleas	distractor1	EVAbeforeCON	acq_US_pleas_masked	acq45_masked	4	32	400	1	300	300	0	0	428	50	0	1	0	0	0	1	blank2r.bmp	0	1	+	0	5	C1r.bmp	492	1	blank2r.bmp	786	1	CPLW	786	1	blank2r.bmp	866	4	vergnügt	866	1	!	1239	1	!	1332	0	0	0	0	0	0	0	0	0	0	0	0	0	0	0	0	0	0	0	0	0	0	0	0	0	0	0
011519	11:19:01	11:27:57	534885	5.0.10.0	4_exp_AMP_EVA_AWA_CON	68	Rpleas_acq	Same	Rpleas	Amasked	CS_A	1pleas	distractor1	EVAbeforeCON	acq_US_pleas_masked	acq45_masked	4	33	400	1	300	300	0	0	375	46	0	0	0	0	0	1	blank2r.bmp	0	1	+	0	2	B2r.bmp	492	1	blank2r.bmp	786	1	CPLW	786	1	blank2r.bmp	866	6	gesittet	866	1	!	1239	1	!	1279	0	0	0	0	0	0	0	0	0	0	0	0	0	0	0	0	0	0	0	0	0	0	0	0	0	0	0
011519	11:19:01	11:27:59	536978	5.0.10.0	4_exp_AMP_EVA_AWA_CON	68	Rpleas_acq	Same	Rpleas	Amasked	CS_A	1pleas	distractor1	EVAbeforeCON	acq_US_unple_masked	acq45_masked	4	34	400	0	300	300	0	0	329	50	0	0	0	0	0	1	blank2r.bmp	0	1	+	0	3	B3r.bmp	492	1	blank2r.bmp	786	1	DHJF	786	1	blank2r.bmp	866	3	gemein	866	1	!	-1	1	!	-1	0	0	0	0	0	0	0	0	0	0	0	0	0	0	0	0	0	0	0	0	0	0	0	0	0	0	0
011519	11:19:01	11:28:01	539150	5.0.10.0	4_exp_AMP_EVA_AWA_CON	68	Rpleas_acq	Same	Rpleas	Amasked	CS_A	1pleas	distractor1	EVAbeforeCON	acq_US_pleas_masked	acq45_masked	4	35	400	1	300	300	0	0	359	50	0	1	0	0	0	1	blank2r.bmp	0	1	+	0	7	C3r.bmp	492	1	blank2r.bmp	786	1	CPLW	786	1	blank2r.bmp	866	2	gütig	866	1	!	1239	1	!	1266	0	0	0	0	0	0	0	0	0	0	0	0	0	0	0	0	0	0	0	0	0	0	0	0	0	0	0
011519	11:19:01	11:28:03	541296	5.0.10.0	4_exp_AMP_EVA_AWA_CON	68	Rpleas_acq	Same	Rpleas	Amasked	CS_A	1pleas	distractor1	EVAbeforeCON	acq_US_pleas_masked	acq45_masked	4	36	400	1	300	300	0	0	357	46	0	0	0	0	0	1	blank2r.bmp	0	1	+	0	4	B4r.bmp	492	1	blank2r.bmp	786	1	CPLW	786	1	blank2r.bmp	866	3	genießen	866	1	!	1239	1	!	1252	0	0	0	0	0	0	0	0	0	0	0	0	0	0	0	0	0	0	0	0	0	0	0	0	0	0	0
011519	11:19:01	11:28:12	550146	5.0.10.0	4_exp_AMP_EVA_AWA_CON	68	Rpleas_acq	Same	Rpleas	Amasked	CS_A	1pleas	distractor1	EVAbeforeCON	acq_US_pleas_masked	acq45_masked	5	1	400	0	300	300	0	0	783	50	0	1	0	0	0	1	blank2r.bmp	0	1	+	0	4	B4r.bmp	492	1	blank2r.bmp	786	1	CPLW	786	1	blank2r.bmp	866	2	gütig	866	1	!	1239	1	!	-1	0	0	0	0	0	0	0	0	0	0	0	0	0	0	0	0	0	0	0	0	0	0	0	0	0	0	0
011519	11:19:01	11:28:14	552412	5.0.10.0	4_exp_AMP_EVA_AWA_CON	68	Rpleas_acq	Same	Rpleas	Amasked	CS_A	1pleas	distractor1	EVAbeforeCON	acq_US_unple_masked	acq45_masked	5	2	400	1	300	300	0	0	456	46	0	1	0	0	0	1	blank2r.bmp	0	1	+	0	1	B1r.bmp	492	1	blank2r.bmp	786	1	DHJF	786	1	blank2r.bmp	866	4	verbissen	866	1	!	1239	1	!	1359	0	0	0	0	0	0	0	0	0	0	0	0	0	0	0	0	0	0	0	0	0	0	0	0	0	0	0
011519	11:19:01	11:28:16	554624	5.0.10.0	4_exp_AMP_EVA_AWA_CON	68	Rpleas_acq	Same	Rpleas	Amasked	CS_A	1pleas	distractor1	EVAbeforeCON	acq_US_unple_masked	acq45_masked	5	3	400	1	300	300	0	0	408	46	0	1	0	0	0	1	blank2r.bmp	0	1	+	0	2	B2r.bmp	492	1	blank2r.bmp	786	1	DHJF	786	1	blank2r.bmp	866	2	gierig	866	1	!	1239	1	!	1306	0	0	0	0	0	0	0	0	0	0	0	0	0	0	0	0	0	0	0	0	0	0	0	0	0	0	0
011519	11:19:01	11:28:18	556770	5.0.10.0	4_exp_AMP_EVA_AWA_CON	68	Rpleas_acq	Same	Rpleas	Amasked	CS_A	1pleas	distractor1	EVAbeforeCON	acq_US_pleas_masked	acq45_masked	5	4	400	1	300	300	0	0	346	50	0	1	0	0	0	1	blank2r.bmp	0	1	+	0	7	C3r.bmp	492	1	blank2r.bmp	786	1	CPLW	786	1	blank2r.bmp	866	4	vergnügt	866	1	!	1239	1	!	1252	0	0	0	0	0	0	0	0	0	0	0	0	0	0	0	0	0	0	0	0	0	0	0	0	0	0	0
011519	11:19:01	11:28:21	558955	5.0.10.0	4_exp_AMP_EVA_AWA_CON	68	Rpleas_acq	Same	Rpleas	Amasked	CS_A	1pleas	distractor1	EVAbeforeCON	acq_US_unple_masked	acq45_masked	5	5	400	1	300	300	0	0	390	46	0	1	0	0	0	1	blank2r.bmp	0	1	+	0	6	C2r.bmp	492	1	blank2r.bmp	786	1	DHJF	786	1	blank2r.bmp	866	1	bange	866	1	!	1239	1	!	1292	0	0	0	0	0	0	0	0	0	0	0	0	0	0	0	0	0	0	0	0	0	0	0	0	0	0	0
011519	11:19:01	11:28:23	561101	5.0.10.0	4_exp_AMP_EVA_AWA_CON	68	Rpleas_acq	Same	Rpleas	Amasked	CS_A	1pleas	distractor1	EVAbeforeCON	acq_US_pleas_masked	acq45_masked	5	6	400	1	300	300	0	0	350	50	0	1	0	0	0	1	blank2r.bmp	0	1	+	0	5	C1r.bmp	492	1	blank2r.bmp	786	1	CPLW	786	1	blank2r.bmp	866	3	genießen	866	1	!	1239	1	!	1252	0	0	0	0	0	0	0	0	0	0	0	0	0	0	0	0	0	0	0	0	0	0	0	0	0	0	0
011519	11:19:01	11:28:25	563314	5.0.10.0	4_exp_AMP_EVA_AWA_CON	68	Rpleas_acq	Same	Rpleas	Amasked	CS_A	1pleas	distractor1	EVAbeforeCON	acq_US_pleas_masked	acq45_masked	5	7	400	1	300	300	0	0	405	50	0	1	0	0	0	1	blank2r.bmp	0	1	+	0	3	B3r.bmp	492	1	blank2r.bmp	786	1	CPLW	786	1	blank2r.bmp	866	1	besonnen	866	1	!	1239	1	!	1306	0	0	0	0	0	0	0	0	0	0	0	0	0	0	0	0	0	0	0	0	0	0	0	0	0	0	0
011519	11:19:01	11:28:27	565566	5.0.10.0	4_exp_AMP_EVA_AWA_CON	68	Rpleas_acq	Same	Rpleas	Amasked	CS_A	1pleas	distractor1	EVAbeforeCON	acq_US_pleas_masked	acq45_masked	5	8	400	1	300	300	0	0	462	50	0	1	0	0	0	1	blank2r.bmp	0	1	+	0	8	C4r.bmp	492	1	blank2r.bmp	786	1	CPLW	786	1	blank2r.bmp	866	5	kuss	866	1	!	1239	1	!	1359	0	0	0	0	0	0	0	0	0	0	0	0	0	0	0	0	0	0	0	0	0	0	0	0	0	0	0
011519	11:19:01	11:28:29	567739	5.0.10.0	4_exp_AMP_EVA_AWA_CON	68	Rpleas_acq	Same	Rpleas	Amasked	CS_A	1pleas	distractor1	EVAbeforeCON	acq_US_unple_masked	acq45_masked	5	9	400	1	300	300	0	0	380	46	0	1	0	0	0	1	blank2r.bmp	0	1	+	0	3	B3r.bmp	492	1	blank2r.bmp	786	1	DHJF	786	1	blank2r.bmp	866	3	gemein	866	1	!	1239	1	!	1279	0	0	0	0	0	0	0	0	0	0	0	0	0	0	0	0	0	0	0	0	0	0	0	0	0	0	0
011519	11:19:01	11:28:32	569924	5.0.10.0	4_exp_AMP_EVA_AWA_CON	68	Rpleas_acq	Same	Rpleas	Amasked	CS_A	1pleas	distractor1	EVAbeforeCON	acq_US_unple_masked	acq45_masked	5	10	400	1	300	300	0	0	395	46	0	1	0	0	0	1	blank2r.bmp	0	1	+	0	7	C3r.bmp	492	1	blank2r.bmp	786	1	DHJF	786	1	blank2r.bmp	866	5	krise	866	1	!	1239	1	!	1292	0	0	0	0	0	0	0	0	0	0	0	0	0	0	0	0	0	0	0	0	0	0	0	0	0	0	0
011519	11:19:01	11:28:34	572097	5.0.10.0	4_exp_AMP_EVA_AWA_CON	68	Rpleas_acq	Same	Rpleas	Amasked	CS_A	1pleas	distractor1	EVAbeforeCON	acq_US_pleas_masked	acq45_masked	5	11	400	1	300	300	0	0	385	50	0	1	0	0	0	1	blank2r.bmp	0	1	+	0	4	B4r.bmp	492	1	blank2r.bmp	786	1	CPLW	786	1	blank2r.bmp	866	6	gesittet	866	1	!	1239	1	!	1279	0	0	0	0	0	0	0	0	0	0	0	0	0	0	0	0	0	0	0	0	0	0	0	0	0	0	0
011519	11:19:01	11:28:36	574269	5.0.10.0	4_exp_AMP_EVA_AWA_CON	68	Rpleas_acq	Same	Rpleas	Amasked	CS_A	1pleas	distractor1	EVAbeforeCON	acq_US_unple_masked	acq45_masked	5	12	400	1	300	300	0	0	374	50	0	0	0	0	0	1	blank2r.bmp	0	1	+	0	6	C2r.bmp	492	1	blank2r.bmp	786	1	DHJF	786	1	blank2r.bmp	866	6	geizig	866	1	!	1239	1	!	1279	0	0	0	0	0	0	0	0	0	0	0	0	0	0	0	0	0	0	0	0	0	0	0	0	0	0	0
011519	11:19:01	11:28:38	576522	5.0.10.0	4_exp_AMP_EVA_AWA_CON	68	Rpleas_acq	Same	Rpleas	Amasked	CS_A	1pleas	distractor1	EVAbeforeCON	acq_US_pleas_masked	acq45_masked	5	13	400	0	300	300	0	0	486	50	0	1	0	0	0	1	blank2r.bmp	0	1	+	0	2	B2r.bmp	492	1	blank2r.bmp	786	1	CPLW	786	1	blank2r.bmp	866	2	gütig	866	1	!	1239	1	!	-1	0	0	0	0	0	0	0	0	0	0	0	0	0	0	0	0	0	0	0	0	0	0	0	0	0	0	0
011519	11:19:01	11:28:40	578707	5.0.10.0	4_exp_AMP_EVA_AWA_CON	68	Rpleas_acq	Same	Rpleas	Amasked	CS_A	1pleas	distractor1	EVAbeforeCON	acq_US_unple_masked	acq45_masked	5	14	400	1	300	300	0	0	373	46	0	1	0	0	0	1	blank2r.bmp	0	1	+	0	8	C4r.bmp	492	1	blank2r.bmp	786	1	DHJF	786	1	blank2r.bmp	866	5	krise	866	1	!	1239	1	!	1279	0	0	0	0	0	0	0	0	0	0	0	0	0	0	0	0	0	0	0	0	0	0	0	0	0	0	0
011519	11:19:01	11:28:43	580893	5.0.10.0	4_exp_AMP_EVA_AWA_CON	68	Rpleas_acq	Same	Rpleas	Amasked	CS_A	1pleas	distractor1	EVAbeforeCON	acq_US_pleas_masked	acq45_masked	5	15	400	1	300	300	0	0	390	50	0	1	0	0	0	1	blank2r.bmp	0	1	+	0	5	C1r.bmp	492	1	blank2r.bmp	786	1	CPLW	786	1	blank2r.bmp	866	5	kuss	866	1	!	1239	1	!	1292	0	0	0	0	0	0	0	0	0	0	0	0	0	0	0	0	0	0	0	0	0	0	0	0	0	0	0
011519	11:19:01	11:28:45	582986	5.0.10.0	4_exp_AMP_EVA_AWA_CON	68	Rpleas_acq	Same	Rpleas	Amasked	CS_A	1pleas	distractor1	EVAbeforeCON	acq_US_pleas_masked	acq45_masked	5	16	400	0	300	300	0	0	325	46	0	0	0	0	0	1	blank2r.bmp	0	1	+	0	1	B1r.bmp	492	1	blank2r.bmp	786	1	CPLW	786	1	blank2r.bmp	866	1	besonnen	866	1	!	-1	1	!	-1	0	0	0	0	0	0	0	0	0	0	0	0	0	0	0	0	0	0	0	0	0	0	0	0	0	0	0
011519	11:19:01	11:28:47	585251	5.0.10.0	4_exp_AMP_EVA_AWA_CON	68	Rpleas_acq	Same	Rpleas	Amasked	CS_A	1pleas	distractor1	EVAbeforeCON	acq_US_unple_masked	acq45_masked	5	17	400	0	300	300	0	0	479	46	0	1	0	0	0	1	blank2r.bmp	0	1	+	0	4	B4r.bmp	492	1	blank2r.bmp	786	1	DHJF	786	1	blank2r.bmp	866	6	geizig	866	1	!	1239	1	!	-1	0	0	0	0	0	0	0	0	0	0	0	0	0	0	0	0	0	0	0	0	0	0	0	0	0	0	0
011519	11:19:01	11:28:49	587557	5.0.10.0	4_exp_AMP_EVA_AWA_CON	68	Rpleas_acq	Same	Rpleas	Amasked	CS_A	1pleas	distractor1	EVAbeforeCON	acq_US_unple_masked	acq45_masked	5	18	400	0	300	300	0	0	511	46	0	1	0	0	0	1	blank2r.bmp	0	1	+	0	6	C2r.bmp	492	1	blank2r.bmp	786	1	DHJF	786	1	blank2r.bmp	866	4	verbissen	866	1	!	1239	1	!	-1	0	0	0	0	0	0	0	0	0	0	0	0	0	0	0	0	0	0	0	0	0	0	0	0	0	0	0
011519	11:19:01	11:28:51	589636	5.0.10.0	4_exp_AMP_EVA_AWA_CON	68	Rpleas_acq	Same	Rpleas	Amasked	CS_A	1pleas	distractor1	EVAbeforeCON	acq_US_pleas_masked	acq45_masked	5	19	400	0	300	300	0	0	295	46	0	0	0	0	0	1	blank2r.bmp	0	1	+	0	1	B1r.bmp	492	1	blank2r.bmp	786	1	CPLW	786	1	blank2r.bmp	866	4	vergnügt	866	1	!	-1	1	!	-1	0	0	0	0	0	0	0	0	0	0	0	0	0	0	0	0	0	0	0	0	0	0	0	0	0	0	0
011519	11:19:01	11:28:54	591889	5.0.10.0	4_exp_AMP_EVA_AWA_CON	68	Rpleas_acq	Same	Rpleas	Amasked	CS_A	1pleas	distractor1	EVAbeforeCON	acq_US_pleas_masked	acq45_masked	5	20	400	1	300	300	0	0	428	50	0	1	0	0	0	1	blank2r.bmp	0	1	+	0	5	C1r.bmp	492	1	blank2r.bmp	786	1	CPLW	786	1	blank2r.bmp	866	3	genießen	866	1	!	1239	1	!	1332	0	0	0	0	0	0	0	0	0	0	0	0	0	0	0	0	0	0	0	0	0	0	0	0	0	0	0
011519	11:19:01	11:28:56	594114	5.0.10.0	4_exp_AMP_EVA_AWA_CON	68	Rpleas_acq	Same	Rpleas	Amasked	CS_A	1pleas	distractor1	EVAbeforeCON	acq_US_pleas_masked	acq45_masked	5	21	400	1	300	300	0	0	429	50	0	1	0	0	0	1	blank2r.bmp	0	1	+	0	2	B2r.bmp	492	1	blank2r.bmp	786	1	CPLW	786	1	blank2r.bmp	866	6	gesittet	866	1	!	1239	1	!	1332	0	0	0	0	0	0	0	0	0	0	0	0	0	0	0	0	0	0	0	0	0	0	0	0	0	0	0
011519	11:19:01	11:28:58	596327	5.0.10.0	4_exp_AMP_EVA_AWA_CON	68	Rpleas_acq	Same	Rpleas	Amasked	CS_A	1pleas	distractor1	EVAbeforeCON	acq_US_unple_masked	acq45_masked	5	22	400	1	300	300	0	0	422	46	0	1	0	0	0	1	blank2r.bmp	0	1	+	0	3	B3r.bmp	492	1	blank2r.bmp	786	1	DHJF	786	1	blank2r.bmp	866	1	bange	866	1	!	1239	1	!	1319	0	0	0	0	0	0	0	0	0	0	0	0	0	0	0	0	0	0	0	0	0	0	0	0	0	0	0
011519	11:19:01	11:29:00	598486	5.0.10.0	4_exp_AMP_EVA_AWA_CON	68	Rpleas_acq	Same	Rpleas	Amasked	CS_A	1pleas	distractor1	EVAbeforeCON	acq_US_unple_masked	acq45_masked	5	23	400	1	300	300	0	0	346	50	0	0	0	0	0	1	blank2r.bmp	0	1	+	0	7	C3r.bmp	492	1	blank2r.bmp	786	1	DHJF	786	1	blank2r.bmp	866	2	gierig	866	1	!	1239	1	!	1252	0	0	0	0	0	0	0	0	0	0	0	0	0	0	0	0	0	0	0	0	0	0	0	0	0	0	0
011519	11:19:01	11:29:02	600658	5.0.10.0	4_exp_AMP_EVA_AWA_CON	68	Rpleas_acq	Same	Rpleas	Amasked	CS_A	1pleas	distractor1	EVAbeforeCON	acq_US_pleas_masked	acq45_masked	5	24	400	1	300	300	0	0	380	50	0	1	0	0	0	1	blank2r.bmp	0	1	+	0	8	C4r.bmp	492	1	blank2r.bmp	786	1	CPLW	786	1	blank2r.bmp	866	2	gütig	866	1	!	1239	1	!	1279	0	0	0	0	0	0	0	0	0	0	0	0	0	0	0	0	0	0	0	0	0	0	0	0	0	0	0
011519	11:19:01	11:29:04	602817	5.0.10.0	4_exp_AMP_EVA_AWA_CON	68	Rpleas_acq	Same	Rpleas	Amasked	CS_A	1pleas	distractor1	EVAbeforeCON	acq_US_unple_masked	acq45_masked	5	25	400	1	300	300	0	0	360	46	0	1	0	0	0	1	blank2r.bmp	0	1	+	0	6	C2r.bmp	492	1	blank2r.bmp	786	1	DHJF	786	1	blank2r.bmp	866	3	gemein	866	1	!	1239	1	!	1266	0	0	0	0	0	0	0	0	0	0	0	0	0	0	0	0	0	0	0	0	0	0	0	0	0	0	0
011519	11:19:01	11:29:07	605017	5.0.10.0	4_exp_AMP_EVA_AWA_CON	68	Rpleas_acq	Same	Rpleas	Amasked	CS_A	1pleas	distractor1	EVAbeforeCON	acq_US_unple_masked	acq45_masked	5	26	400	1	300	300	0	0	402	46	0	1	0	0	0	1	blank2r.bmp	0	1	+	0	8	C4r.bmp	492	1	blank2r.bmp	786	1	DHJF	786	1	blank2r.bmp	866	5	krise	866	1	!	1239	1	!	1306	0	0	0	0	0	0	0	0	0	0	0	0	0	0	0	0	0	0	0	0	0	0	0	0	0	0	0
011519	11:19:01	11:29:09	607202	5.0.10.0	4_exp_AMP_EVA_AWA_CON	68	Rpleas_acq	Same	Rpleas	Amasked	CS_A	1pleas	distractor1	EVAbeforeCON	acq_US_pleas_masked	acq45_masked	5	27	400	1	300	300	0	0	392	50	0	1	0	0	0	1	blank2r.bmp	0	1	+	0	3	B3r.bmp	492	1	blank2r.bmp	786	1	CPLW	786	1	blank2r.bmp	866	3	genießen	866	1	!	1239	1	!	1292	0	0	0	0	0	0	0	0	0	0	0	0	0	0	0	0	0	0	0	0	0	0	0	0	0	0	0
011519	11:19:01	11:29:11	609401	5.0.10.0	4_exp_AMP_EVA_AWA_CON	68	Rpleas_acq	Same	Rpleas	Amasked	CS_A	1pleas	distractor1	EVAbeforeCON	acq_US_unple_masked	acq45_masked	5	28	400	1	300	300	0	0	410	46	0	1	0	0	0	1	blank2r.bmp	0	1	+	0	5	C1r.bmp	492	1	blank2r.bmp	786	1	DHJF	786	1	blank2r.bmp	866	6	geizig	866	1	!	1239	1	!	1306	0	0	0	0	0	0	0	0	0	0	0	0	0	0	0	0	0	0	0	0	0	0	0	0	0	0	0
011519	11:19:01	11:29:13	611574	5.0.10.0	4_exp_AMP_EVA_AWA_CON	68	Rpleas_acq	Same	Rpleas	Amasked	CS_A	1pleas	distractor1	EVAbeforeCON	acq_US_pleas_masked	acq45_masked	5	29	400	1	300	300	0	0	373	50	0	1	0	0	0	1	blank2r.bmp	0	1	+	0	4	B4r.bmp	492	1	blank2r.bmp	786	1	CPLW	786	1	blank2r.bmp	866	1	besonnen	866	1	!	1239	1	!	1279	0	0	0	0	0	0	0	0	0	0	0	0	0	0	0	0	0	0	0	0	0	0	0	0	0	0	0
011519	11:19:01	11:29:15	613826	5.0.10.0	4_exp_AMP_EVA_AWA_CON	68	Rpleas_acq	Same	Rpleas	Amasked	CS_A	1pleas	distractor1	EVAbeforeCON	acq_US_unple_masked	acq45_masked	5	30	400	0	300	300	0	0	484	46	0	1	0	0	0	1	blank2r.bmp	0	1	+	0	7	C3r.bmp	492	1	blank2r.bmp	786	1	DHJF	786	1	blank2r.bmp	866	1	bange	866	1	!	1239	1	!	-1	0	0	0	0	0	0	0	0	0	0	0	0	0	0	0	0	0	0	0	0	0	0	0	0	0	0	0
011519	11:19:01	11:29:18	615932	5.0.10.0	4_exp_AMP_EVA_AWA_CON	68	Rpleas_acq	Same	Rpleas	Amasked	CS_A	1pleas	distractor1	EVAbeforeCON	acq_US_pleas_masked	acq45_masked	5	31	400	0	300	300	0	0	324	50	0	1	0	0	0	1	blank2r.bmp	0	1	+	0	1	B1r.bmp	492	1	blank2r.bmp	786	1	CPLW	786	1	blank2r.bmp	866	5	kuss	866	1	!	-1	1	!	-1	0	0	0	0	0	0	0	0	0	0	0	0	0	0	0	0	0	0	0	0	0	0	0	0	0	0	0
011519	11:19:01	11:29:20	618024	5.0.10.0	4_exp_AMP_EVA_AWA_CON	68	Rpleas_acq	Same	Rpleas	Amasked	CS_A	1pleas	distractor1	EVAbeforeCON	acq_US_unple_masked	acq45_masked	5	32	400	0	300	300	0	0	316	46	0	1	0	0	0	1	blank2r.bmp	0	1	+	0	2	B2r.bmp	492	1	blank2r.bmp	786	1	DHJF	786	1	blank2r.bmp	866	4	verbissen	866	1	!	-1	1	!	-1	0	0	0	0	0	0	0	0	0	0	0	0	0	0	0	0	0	0	0	0	0	0	0	0	0	0	0
011519	11:19:01	11:29:22	620317	5.0.10.0	4_exp_AMP_EVA_AWA_CON	68	Rpleas_acq	Same	Rpleas	Amasked	CS_A	1pleas	distractor1	EVAbeforeCON	acq_US_pleas_masked	acq45_masked	5	33	400	0	300	300	0	0	507	50	0	1	0	0	0	1	blank2r.bmp	0	1	+	0	3	B3r.bmp	492	1	blank2r.bmp	786	1	CPLW	786	1	blank2r.bmp	866	6	gesittet	866	1	!	1239	1	!	-1	0	0	0	0	0	0	0	0	0	0	0	0	0	0	0	0	0	0	0	0	0	0	0	0	0	0	0
011519	11:19:01	11:29:24	622543	5.0.10.0	4_exp_AMP_EVA_AWA_CON	68	Rpleas_acq	Same	Rpleas	Amasked	CS_A	1pleas	distractor1	EVAbeforeCON	acq_US_pleas_masked	acq45_masked	5	34	400	1	300	300	0	0	419	50	0	1	0	0	0	1	blank2r.bmp	0	1	+	0	1	B1r.bmp	492	1	blank2r.bmp	786	1	CPLW	786	1	blank2r.bmp	866	4	vergnügt	866	1	!	1239	1	!	1319	0	0	0	0	0	0	0	0	0	0	0	0	0	0	0	0	0	0	0	0	0	0	0	0	0	0	0
011519	11:19:01	11:29:26	624635	5.0.10.0	4_exp_AMP_EVA_AWA_CON	68	Rpleas_acq	Same	Rpleas	Amasked	CS_A	1pleas	distractor1	EVAbeforeCON	acq_US_unple_masked	acq45_masked	5	35	400	0	300	300	0	0	323	46	0	1	0	0	0	1	blank2r.bmp	0	1	+	0	6	C2r.bmp	492	1	blank2r.bmp	786	1	DHJF	786	1	blank2r.bmp	866	3	gemein	866	1	!	-1	1	!	-1	0	0	0	0	0	0	0	0	0	0	0	0	0	0	0	0	0	0	0	0	0	0	0	0	0	0	0
011519	11:19:01	11:29:28	626834	5.0.10.0	4_exp_AMP_EVA_AWA_CON	68	Rpleas_acq	Same	Rpleas	Amasked	CS_A	1pleas	distractor1	EVAbeforeCON	acq_US_unple_masked	acq45_masked	5	36	400	1	300	300	0	0	387	46	0	1	0	0	0	1	blank2r.bmp	0	1	+	0	2	B2r.bmp	492	1	blank2r.bmp	786	1	DHJF	786	1	blank2r.bmp	866	2	gierig	866	1	!	1239	1	!	1292	0	0	0	0	0	0	0	0	0	0	0	0	0	0	0	0	0	0	0	0	0	0	0	0	0	0	0
011519	11:19:01	11:30:26	684157	5.0.10.0	4_exp_AMP_EVA_AWA_CON	68	Rpleas_acq	Same	Rpleas	Amasked	CS_A	1pleas	distractor1	EVAbeforeCON	AMP_distractor	AMP1_masked	6	1	0	0	300	300	0	0	5625	50	0	0	0	0	0	1	blank2r.bmp	0	1	ZGXT	0	1	blank2r.bmp	79	42	pic42.bmp	199	1	whitenoise_No3.bmp	306	0	0	0	0	0	0	0	0	0	0	0	0	0	0	0	0	0	0	0	0	0	0	0	0	0	0	0	0	0	0	0	0	0	0	0	0	0	0	0
011519	11:19:01	11:30:28	686716	5.0.10.0	4_exp_AMP_EVA_AWA_CON	68	Rpleas_acq	Same	Rpleas	Amasked	CS_A	1pleas	distractor1	EVAbeforeCON	AMP_distractor	AMP1_masked	6	2	0	0	300	300	0	0	1641	46	0	0	0	0	0	1	blank2r.bmp	0	1	ZGXT	0	1	blank2r.bmp	79	134	pic134.bmp	199	1	whitenoise_No3.bmp	306	0	0	0	0	0	0	0	0	0	0	0	0	0	0	0	0	0	0	0	0	0	0	0	0	0	0	0	0	0	0	0	0	0	0	0	0	0	0	0
011519	11:19:01	11:30:31	689155	5.0.10.0	4_exp_AMP_EVA_AWA_CON	68	Rpleas_acq	Same	Rpleas	Amasked	CS_A	1pleas	distractor1	EVAbeforeCON	AMP_CSpleas	AMP1_masked	6	3	0	0	300	300	0	0	1528	46	0	0	0	0	0	1	blank2r.bmp	0	1	CPLW	0	1	blank2r.bmp	79	123	pic123.bmp	199	1	whitenoise_No3.bmp	306	0	0	0	0	0	0	0	0	0	0	0	0	0	0	0	0	0	0	0	0	0	0	0	0	0	0	0	0	0	0	0	0	0	0	0	0	0	0	0
011519	11:19:01	11:30:32	690675	5.0.10.0	4_exp_AMP_EVA_AWA_CON	68	Rpleas_acq	Same	Rpleas	Amasked	CS_A	1pleas	distractor1	EVAbeforeCON	AMP_CSpleas	AMP1_masked	6	4	0	0	300	300	0	0	587	50	0	1	0	0	0	1	blank2r.bmp	0	1	CPLW	0	1	blank2r.bmp	79	37	pic37.bmp	199	1	whitenoise_No3.bmp	306	0	0	0	0	0	0	0	0	0	0	0	0	0	0	0	0	0	0	0	0	0	0	0	0	0	0	0	0	0	0	0	0	0	0	0	0	0	0	0
011519	11:19:01	11:30:34	692634	5.0.10.0	4_exp_AMP_EVA_AWA_CON	68	Rpleas_acq	Same	Rpleas	Amasked	CS_A	1pleas	distractor1	EVAbeforeCON	AMP_distractor	AMP1_masked	6	5	0	0	300	300	0	0	1028	50	0	0	0	0	0	1	blank2r.bmp	0	1	ZGXT	0	1	blank2r.bmp	79	120	pic120.bmp	199	1	whitenoise_No3.bmp	306	0	0	0	0	0	0	0	0	0	0	0	0	0	0	0	0	0	0	0	0	0	0	0	0	0	0	0	0	0	0	0	0	0	0	0	0	0	0	0
011519	11:19:01	11:30:37	695299	5.0.10.0	4_exp_AMP_EVA_AWA_CON	68	Rpleas_acq	Same	Rpleas	Amasked	CS_A	1pleas	distractor1	EVAbeforeCON	AMP_distractor	AMP1_masked	6	6	0	0	300	300	0	0	1749	50	0	0	0	0	0	1	blank2r.bmp	0	1	ZGXT	0	1	blank2r.bmp	79	5	pic5.bmp	199	1	whitenoise_No3.bmp	306	0	0	0	0	0	0	0	0	0	0	0	0	0	0	0	0	0	0	0	0	0	0	0	0	0	0	0	0	0	0	0	0	0	0	0	0	0	0	0
011519	11:19:01	11:30:39	697019	5.0.10.0	4_exp_AMP_EVA_AWA_CON	68	Rpleas_acq	Same	Rpleas	Amasked	CS_A	1pleas	distractor1	EVAbeforeCON	AMP_CSpleas	AMP1_masked	6	7	0	0	300	300	0	0	811	50	0	1	0	0	0	1	blank2r.bmp	0	1	CPLW	0	1	blank2r.bmp	79	128	pic128.bmp	199	1	whitenoise_No3.bmp	306	0	0	0	0	0	0	0	0	0	0	0	0	0	0	0	0	0	0	0	0	0	0	0	0	0	0	0	0	0	0	0	0	0	0	0	0	0	0	0
011519	11:19:01	11:30:45	703309	5.0.10.0	4_exp_AMP_EVA_AWA_CON	68	Rpleas_acq	Same	Rpleas	Amasked	CS_A	1pleas	distractor1	EVAbeforeCON	AMP_distractor	AMP1_masked	6	8	0	0	300	300	0	0	5363	50	0	0	0	0	0	1	blank2r.bmp	0	1	ZGXT	0	1	blank2r.bmp	79	68	pic68.bmp	199	1	whitenoise_No3.bmp	306	0	0	0	0	0	0	0	0	0	0	0	0	0	0	0	0	0	0	0	0	0	0	0	0	0	0	0	0	0	0	0	0	0	0	0	0	0	0	0
011519	11:19:01	11:30:47	704949	5.0.10.0	4_exp_AMP_EVA_AWA_CON	68	Rpleas_acq	Same	Rpleas	Amasked	CS_A	1pleas	distractor1	EVAbeforeCON	AMP_distractor	AMP1_masked	6	9	0	0	300	300	0	0	712	50	0	0	0	0	0	1	blank2r.bmp	0	1	ZGXT	0	1	blank2r.bmp	79	31	pic31.bmp	199	1	whitenoise_No3.bmp	306	0	0	0	0	0	0	0	0	0	0	0	0	0	0	0	0	0	0	0	0	0	0	0	0	0	0	0	0	0	0	0	0	0	0	0	0	0	0	0
011519	11:19:01	11:30:48	706588	5.0.10.0	4_exp_AMP_EVA_AWA_CON	68	Rpleas_acq	Same	Rpleas	Amasked	CS_A	1pleas	distractor1	EVAbeforeCON	AMP_CSunple	AMP1_masked	6	10	0	0	300	300	0	0	717	50	0	0	0	0	0	1	blank2r.bmp	0	1	DHJF	0	1	blank2r.bmp	79	45	pic45.bmp	199	1	whitenoise_No3.bmp	306	0	0	0	0	0	0	0	0	0	0	0	0	0	0	0	0	0	0	0	0	0	0	0	0	0	0	0	0	0	0	0	0	0	0	0	0	0	0	0
011519	11:19:01	11:30:50	708094	5.0.10.0	4_exp_AMP_EVA_AWA_CON	68	Rpleas_acq	Same	Rpleas	Amasked	CS_A	1pleas	distractor1	EVAbeforeCON	AMP_CSpleas	AMP1_masked	6	11	0	0	300	300	0	0	596	46	0	0	0	0	0	1	blank2r.bmp	0	1	CPLW	0	1	blank2r.bmp	79	27	pic27.bmp	199	1	whitenoise_No3.bmp	306	0	0	0	0	0	0	0	0	0	0	0	0	0	0	0	0	0	0	0	0	0	0	0	0	0	0	0	0	0	0	0	0	0	0	0	0	0	0	0
011519	11:19:01	11:30:55	713239	5.0.10.0	4_exp_AMP_EVA_AWA_CON	68	Rpleas_acq	Same	Rpleas	Amasked	CS_A	1pleas	distractor1	EVAbeforeCON	AMP_CSunple	AMP1_masked	6	12	0	0	300	300	0	0	4214	46	0	1	0	0	0	1	blank2r.bmp	0	1	DHJF	0	1	blank2r.bmp	79	126	pic126.bmp	199	1	whitenoise_No3.bmp	306	0	0	0	0	0	0	0	0	0	0	0	0	0	0	0	0	0	0	0	0	0	0	0	0	0	0	0	0	0	0	0	0	0	0	0	0	0	0	0
011519	11:19:01	11:30:56	714638	5.0.10.0	4_exp_AMP_EVA_AWA_CON	68	Rpleas_acq	Same	Rpleas	Amasked	CS_A	1pleas	distractor1	EVAbeforeCON	AMP_CSpleas	AMP1_masked	6	13	0	0	300	300	0	0	478	50	0	1	0	0	0	1	blank2r.bmp	0	1	CPLW	0	1	blank2r.bmp	79	10	pic10.bmp	199	1	whitenoise_No3.bmp	306	0	0	0	0	0	0	0	0	0	0	0	0	0	0	0	0	0	0	0	0	0	0	0	0	0	0	0	0	0	0	0	0	0	0	0	0	0	0	0
011519	11:19:01	11:30:58	716104	5.0.10.0	4_exp_AMP_EVA_AWA_CON	68	Rpleas_acq	Same	Rpleas	Amasked	CS_A	1pleas	distractor1	EVAbeforeCON	AMP_CSpleas	AMP1_masked	6	14	0	0	300	300	0	0	554	46	0	0	0	0	0	1	blank2r.bmp	0	1	CPLW	0	1	blank2r.bmp	79	77	pic77.bmp	199	1	whitenoise_No3.bmp	306	0	0	0	0	0	0	0	0	0	0	0	0	0	0	0	0	0	0	0	0	0	0	0	0	0	0	0	0	0	0	0	0	0	0	0	0	0	0	0
011519	11:19:01	11:30:59	717503	5.0.10.0	4_exp_AMP_EVA_AWA_CON	68	Rpleas_acq	Same	Rpleas	Amasked	CS_A	1pleas	distractor1	EVAbeforeCON	AMP_distractor	AMP1_masked	6	15	0	0	300	300	0	0	484	50	0	0	0	0	0	1	blank2r.bmp	0	1	ZGXT	0	1	blank2r.bmp	79	88	pic88.bmp	199	1	whitenoise_No3.bmp	306	0	0	0	0	0	0	0	0	0	0	0	0	0	0	0	0	0	0	0	0	0	0	0	0	0	0	0	0	0	0	0	0	0	0	0	0	0	0	0
011519	11:19:01	11:31:01	718943	5.0.10.0	4_exp_AMP_EVA_AWA_CON	68	Rpleas_acq	Same	Rpleas	Amasked	CS_A	1pleas	distractor1	EVAbeforeCON	AMP_CSunple	AMP1_masked	6	16	0	0	300	300	0	0	511	50	0	0	0	0	0	1	blank2r.bmp	0	1	DHJF	0	1	blank2r.bmp	79	55	pic55.bmp	199	1	whitenoise_No3.bmp	306	0	0	0	0	0	0	0	0	0	0	0	0	0	0	0	0	0	0	0	0	0	0	0	0	0	0	0	0	0	0	0	0	0	0	0	0	0	0	0
011519	11:19:01	11:31:02	720489	5.0.10.0	4_exp_AMP_EVA_AWA_CON	68	Rpleas_acq	Same	Rpleas	Amasked	CS_A	1pleas	distractor1	EVAbeforeCON	AMP_CSpleas	AMP1_masked	6	17	0	0	300	300	0	0	625	50	0	1	0	0	0	1	blank2r.bmp	0	1	CPLW	0	1	blank2r.bmp	79	59	pic59.bmp	199	1	whitenoise_No3.bmp	306	0	0	0	0	0	0	0	0	0	0	0	0	0	0	0	0	0	0	0	0	0	0	0	0	0	0	0	0	0	0	0	0	0	0	0	0	0	0	0
011519	11:19:01	11:31:04	721942	5.0.10.0	4_exp_AMP_EVA_AWA_CON	68	Rpleas_acq	Same	Rpleas	Amasked	CS_A	1pleas	distractor1	EVAbeforeCON	AMP_CSunple	AMP1_masked	6	18	0	0	300	300	0	0	541	50	0	0	0	0	0	1	blank2r.bmp	0	1	DHJF	0	1	blank2r.bmp	79	64	pic64.bmp	199	1	whitenoise_No3.bmp	306	0	0	0	0	0	0	0	0	0	0	0	0	0	0	0	0	0	0	0	0	0	0	0	0	0	0	0	0	0	0	0	0	0	0	0	0	0	0	0
011519	11:19:01	11:31:06	724527	5.0.10.0	4_exp_AMP_EVA_AWA_CON	68	Rpleas_acq	Same	Rpleas	Amasked	CS_A	1pleas	distractor1	EVAbeforeCON	AMP_CSunple	AMP1_masked	6	19	0	0	300	300	0	0	1666	46	0	1	0	0	0	1	blank2r.bmp	0	1	DHJF	0	1	blank2r.bmp	79	21	pic21.bmp	199	1	whitenoise_No3.bmp	306	0	0	0	0	0	0	0	0	0	0	0	0	0	0	0	0	0	0	0	0	0	0	0	0	0	0	0	0	0	0	0	0	0	0	0	0	0	0	0
011519	11:19:01	11:31:08	726047	5.0.10.0	4_exp_AMP_EVA_AWA_CON	68	Rpleas_acq	Same	Rpleas	Amasked	CS_A	1pleas	distractor1	EVAbeforeCON	AMP_CSpleas	AMP1_masked	6	20	0	0	300	300	0	0	601	46	0	0	0	0	0	1	blank2r.bmp	0	1	CPLW	0	1	blank2r.bmp	79	79	pic79.bmp	199	1	whitenoise_No3.bmp	306	0	0	0	0	0	0	0	0	0	0	0	0	0	0	0	0	0	0	0	0	0	0	0	0	0	0	0	0	0	0	0	0	0	0	0	0	0	0	0
011519	11:19:01	11:31:09	727499	5.0.10.0	4_exp_AMP_EVA_AWA_CON	68	Rpleas_acq	Same	Rpleas	Amasked	CS_A	1pleas	distractor1	EVAbeforeCON	AMP_CSunple	AMP1_masked	6	21	0	0	300	300	0	0	537	50	0	0	0	0	0	1	blank2r.bmp	0	1	DHJF	0	1	blank2r.bmp	79	111	pic111.bmp	199	1	whitenoise_No3.bmp	306	0	0	0	0	0	0	0	0	0	0	0	0	0	0	0	0	0	0	0	0	0	0	0	0	0	0	0	0	0	0	0	0	0	0	0	0	0	0	0
011519	11:19:01	11:31:11	728899	5.0.10.0	4_exp_AMP_EVA_AWA_CON	68	Rpleas_acq	Same	Rpleas	Amasked	CS_A	1pleas	distractor1	EVAbeforeCON	AMP_CSunple	AMP1_masked	6	22	0	0	300	300	0	0	479	50	0	0	0	0	0	1	blank2r.bmp	0	1	DHJF	0	1	blank2r.bmp	79	78	pic78.bmp	199	1	whitenoise_No3.bmp	306	0	0	0	0	0	0	0	0	0	0	0	0	0	0	0	0	0	0	0	0	0	0	0	0	0	0	0	0	0	0	0	0	0	0	0	0	0	0	0
011519	11:19:01	11:31:12	730298	5.0.10.0	4_exp_AMP_EVA_AWA_CON	68	Rpleas_acq	Same	Rpleas	Amasked	CS_A	1pleas	distractor1	EVAbeforeCON	AMP_CSpleas	AMP1_masked	6	23	0	0	300	300	0	0	479	50	0	1	0	0	0	1	blank2r.bmp	0	1	CPLW	0	1	blank2r.bmp	79	15	pic15.bmp	199	1	whitenoise_No3.bmp	306	0	0	0	0	0	0	0	0	0	0	0	0	0	0	0	0	0	0	0	0	0	0	0	0	0	0	0	0	0	0	0	0	0	0	0	0	0	0	0
011519	11:19:01	11:31:15	733550	5.0.10.0	4_exp_AMP_EVA_AWA_CON	68	Rpleas_acq	Same	Rpleas	Amasked	CS_A	1pleas	distractor1	EVAbeforeCON	AMP_distractor	AMP1_masked	6	24	0	0	300	300	0	0	2329	50	0	0	0	0	0	1	blank2r.bmp	0	1	ZGXT	0	1	blank2r.bmp	79	121	pic121.bmp	199	1	whitenoise_No3.bmp	306	0	0	0	0	0	0	0	0	0	0	0	0	0	0	0	0	0	0	0	0	0	0	0	0	0	0	0	0	0	0	0	0	0	0	0	0	0	0	0
011519	11:19:01	11:31:17	735683	5.0.10.0	4_exp_AMP_EVA_AWA_CON	68	Rpleas_acq	Same	Rpleas	Amasked	CS_A	1pleas	distractor1	EVAbeforeCON	AMP_distractor	AMP1_masked	6	25	0	0	300	300	0	0	1206	50	0	0	0	0	0	1	blank2r.bmp	0	1	ZGXT	0	1	blank2r.bmp	79	81	pic81.bmp	199	1	whitenoise_No3.bmp	306	0	0	0	0	0	0	0	0	0	0	0	0	0	0	0	0	0	0	0	0	0	0	0	0	0	0	0	0	0	0	0	0	0	0	0	0	0	0	0
011519	11:19:01	11:31:19	737095	5.0.10.0	4_exp_AMP_EVA_AWA_CON	68	Rpleas_acq	Same	Rpleas	Amasked	CS_A	1pleas	distractor1	EVAbeforeCON	AMP_CSpleas	AMP1_masked	6	26	0	0	300	300	0	0	504	46	0	0	0	0	0	1	blank2r.bmp	0	1	CPLW	0	1	blank2r.bmp	79	54	pic54.bmp	199	1	whitenoise_No3.bmp	306	0	0	0	0	0	0	0	0	0	0	0	0	0	0	0	0	0	0	0	0	0	0	0	0	0	0	0	0	0	0	0	0	0	0	0	0	0	0	0
011519	11:19:01	11:31:20	738721	5.0.10.0	4_exp_AMP_EVA_AWA_CON	68	Rpleas_acq	Same	Rpleas	Amasked	CS_A	1pleas	distractor1	EVAbeforeCON	AMP_distractor	AMP1_masked	6	27	0	0	300	300	0	0	704	50	0	0	0	0	0	1	blank2r.bmp	0	1	ZGXT	0	1	blank2r.bmp	79	4	pic4.bmp	199	1	whitenoise_No3.bmp	306	0	0	0	0	0	0	0	0	0	0	0	0	0	0	0	0	0	0	0	0	0	0	0	0	0	0	0	0	0	0	0	0	0	0	0	0	0	0	0
011519	11:19:01	11:31:23	741334	5.0.10.0	4_exp_AMP_EVA_AWA_CON	68	Rpleas_acq	Same	Rpleas	Amasked	CS_A	1pleas	distractor1	EVAbeforeCON	AMP_CSunple	AMP1_masked	6	28	0	0	300	300	0	0	1683	46	0	1	0	0	0	1	blank2r.bmp	0	1	DHJF	0	1	blank2r.bmp	79	150	pic150.bmp	199	1	whitenoise_No3.bmp	306	0	0	0	0	0	0	0	0	0	0	0	0	0	0	0	0	0	0	0	0	0	0	0	0	0	0	0	0	0	0	0	0	0	0	0	0	0	0	0
011519	11:19:01	11:31:25	743160	5.0.10.0	4_exp_AMP_EVA_AWA_CON	68	Rpleas_acq	Same	Rpleas	Amasked	CS_A	1pleas	distractor1	EVAbeforeCON	AMP_CSpleas	AMP1_masked	6	29	0	0	300	300	0	0	915	50	0	1	0	0	0	1	blank2r.bmp	0	1	CPLW	0	1	blank2r.bmp	79	114	pic114.bmp	199	1	whitenoise_No3.bmp	306	0	0	0	0	0	0	0	0	0	0	0	0	0	0	0	0	0	0	0	0	0	0	0	0	0	0	0	0	0	0	0	0	0	0	0	0	0	0	0
011519	11:19:01	11:31:27	745812	5.0.10.0	4_exp_AMP_EVA_AWA_CON	68	Rpleas_acq	Same	Rpleas	Amasked	CS_A	1pleas	distractor1	EVAbeforeCON	AMP_CSunple	AMP1_masked	6	30	0	0	300	300	0	0	1728	50	0	0	0	0	0	1	blank2r.bmp	0	1	DHJF	0	1	blank2r.bmp	79	14	pic14.bmp	199	1	whitenoise_No3.bmp	306	0	0	0	0	0	0	0	0	0	0	0	0	0	0	0	0	0	0	0	0	0	0	0	0	0	0	0	0	0	0	0	0	0	0	0	0	0	0	0
011519	11:19:01	11:31:30	748224	5.0.10.0	4_exp_AMP_EVA_AWA_CON	68	Rpleas_acq	Same	Rpleas	Amasked	CS_A	1pleas	distractor1	EVAbeforeCON	AMP_CSpleas	AMP1_masked	6	31	0	0	300	300	0	0	1486	46	0	0	0	0	0	1	blank2r.bmp	0	1	CPLW	0	1	blank2r.bmp	79	65	pic65.bmp	199	1	whitenoise_No3.bmp	306	0	0	0	0	0	0	0	0	0	0	0	0	0	0	0	0	0	0	0	0	0	0	0	0	0	0	0	0	0	0	0	0	0	0	0	0	0	0	0
011519	11:19:01	11:31:32	749890	5.0.10.0	4_exp_AMP_EVA_AWA_CON	68	Rpleas_acq	Same	Rpleas	Amasked	CS_A	1pleas	distractor1	EVAbeforeCON	AMP_CSunple	AMP1_masked	6	32	0	0	300	300	0	0	755	50	0	0	0	0	0	1	blank2r.bmp	0	1	DHJF	0	1	blank2r.bmp	79	84	pic84.bmp	199	1	whitenoise_No3.bmp	306	0	0	0	0	0	0	0	0	0	0	0	0	0	0	0	0	0	0	0	0	0	0	0	0	0	0	0	0	0	0	0	0	0	0	0	0	0	0	0
011519	11:19:01	11:31:33	751676	5.0.10.0	4_exp_AMP_EVA_AWA_CON	68	Rpleas_acq	Same	Rpleas	Amasked	CS_A	1pleas	distractor1	EVAbeforeCON	AMP_CSunple	AMP1_masked	6	33	0	0	300	300	0	0	853	46	0	1	0	0	0	1	blank2r.bmp	0	1	DHJF	0	1	blank2r.bmp	79	86	pic86.bmp	199	1	whitenoise_No3.bmp	306	0	0	0	0	0	0	0	0	0	0	0	0	0	0	0	0	0	0	0	0	0	0	0	0	0	0	0	0	0	0	0	0	0	0	0	0	0	0	0
011519	11:19:01	11:31:35	753182	5.0.10.0	4_exp_AMP_EVA_AWA_CON	68	Rpleas_acq	Same	Rpleas	Amasked	CS_A	1pleas	distractor1	EVAbeforeCON	AMP_CSunple	AMP1_masked	6	34	0	0	300	300	0	0	587	50	0	0	0	0	0	1	blank2r.bmp	0	1	DHJF	0	1	blank2r.bmp	79	32	pic32.bmp	199	1	whitenoise_No3.bmp	306	0	0	0	0	0	0	0	0	0	0	0	0	0	0	0	0	0	0	0	0	0	0	0	0	0	0	0	0	0	0	0	0	0	0	0	0	0	0	0
011519	11:19:01	11:31:37	755168	5.0.10.0	4_exp_AMP_EVA_AWA_CON	68	Rpleas_acq	Same	Rpleas	Amasked	CS_A	1pleas	distractor1	EVAbeforeCON	AMP_distractor	AMP1_masked	6	35	0	0	300	300	0	0	1058	50	0	0	0	0	0	1	blank2r.bmp	0	1	ZGXT	0	1	blank2r.bmp	79	29	pic29.bmp	199	1	whitenoise_No3.bmp	306	0	0	0	0	0	0	0	0	0	0	0	0	0	0	0	0	0	0	0	0	0	0	0	0	0	0	0	0	0	0	0	0	0	0	0	0	0	0	0
011519	11:19:01	11:31:39	757260	5.0.10.0	4_exp_AMP_EVA_AWA_CON	68	Rpleas_acq	Same	Rpleas	Amasked	CS_A	1pleas	distractor1	EVAbeforeCON	AMP_CSunple	AMP1_masked	6	36	0	0	300	300	0	0	1181	46	0	1	0	0	0	1	blank2r.bmp	0	1	DHJF	0	1	blank2r.bmp	79	107	pic107.bmp	199	1	whitenoise_No3.bmp	306	0	0	0	0	0	0	0	0	0	0	0	0	0	0	0	0	0	0	0	0	0	0	0	0	0	0	0	0	0	0	0	0	0	0	0	0	0	0	0
011519	11:19:01	11:31:41	759659	5.0.10.0	4_exp_AMP_EVA_AWA_CON	68	Rpleas_acq	Same	Rpleas	Amasked	CS_A	1pleas	distractor1	EVAbeforeCON	AMP_distractor	AMP1_masked	6	37	0	0	300	300	0	0	1470	50	0	0	0	0	0	1	blank2r.bmp	0	1	ZGXT	0	1	blank2r.bmp	79	23	pic23.bmp	199	1	whitenoise_No3.bmp	306	0	0	0	0	0	0	0	0	0	0	0	0	0	0	0	0	0	0	0	0	0	0	0	0	0	0	0	0	0	0	0	0	0	0	0	0	0	0	0
011519	11:19:01	11:31:43	761032	5.0.10.0	4_exp_AMP_EVA_AWA_CON	68	Rpleas_acq	Same	Rpleas	Amasked	CS_A	1pleas	distractor1	EVAbeforeCON	AMP_distractor	AMP1_masked	6	38	0	0	300	300	0	0	464	50	0	0	0	0	0	1	blank2r.bmp	0	1	ZGXT	0	1	blank2r.bmp	79	102	pic102.bmp	199	1	whitenoise_No3.bmp	306	0	0	0	0	0	0	0	0	0	0	0	0	0	0	0	0	0	0	0	0	0	0	0	0	0	0	0	0	0	0	0	0	0	0	0	0	0	0	0
011519	11:19:01	11:31:44	762711	5.0.10.0	4_exp_AMP_EVA_AWA_CON	68	Rpleas_acq	Same	Rpleas	Amasked	CS_A	1pleas	distractor1	EVAbeforeCON	AMP_CSunple	AMP1_masked	6	39	0	0	300	300	0	0	764	46	0	1	0	0	0	1	blank2r.bmp	0	1	DHJF	0	1	blank2r.bmp	79	75	pic75.bmp	199	1	whitenoise_No3.bmp	306	0	0	0	0	0	0	0	0	0	0	0	0	0	0	0	0	0	0	0	0	0	0	0	0	0	0	0	0	0	0	0	0	0	0	0	0	0	0	0
011519	11:19:01	11:31:48	766057	5.0.10.0	4_exp_AMP_EVA_AWA_CON	68	Rpleas_acq	Same	Rpleas	Amasked	CS_A	1pleas	distractor1	EVAbeforeCON	AMP_distractor	AMP1_masked	6	40	0	0	300	300	0	0	2414	46	0	0	0	0	0	1	blank2r.bmp	0	1	ZGXT	0	1	blank2r.bmp	79	144	pic144.bmp	199	1	whitenoise_No3.bmp	306	0	0	0	0	0	0	0	0	0	0	0	0	0	0	0	0	0	0	0	0	0	0	0	0	0	0	0	0	0	0	0	0	0	0	0	0	0	0	0
011519	11:19:01	11:31:49	767456	5.0.10.0	4_exp_AMP_EVA_AWA_CON	68	Rpleas_acq	Same	Rpleas	Amasked	CS_A	1pleas	distractor1	EVAbeforeCON	AMP_distractor	AMP1_masked	6	41	0	0	300	300	0	0	483	50	0	0	0	0	0	1	blank2r.bmp	0	1	ZGXT	0	1	blank2r.bmp	79	50	pic50.bmp	199	1	whitenoise_No3.bmp	306	0	0	0	0	0	0	0	0	0	0	0	0	0	0	0	0	0	0	0	0	0	0	0	0	0	0	0	0	0	0	0	0	0	0	0	0	0	0	0
011519	11:19:01	11:31:51	769549	5.0.10.0	4_exp_AMP_EVA_AWA_CON	68	Rpleas_acq	Same	Rpleas	Amasked	CS_A	1pleas	distractor1	EVAbeforeCON	AMP_distractor	AMP1_masked	6	42	0	0	300	300	0	0	1160	46	0	0	0	0	0	1	blank2r.bmp	0	1	ZGXT	0	1	blank2r.bmp	79	92	pic92.bmp	199	1	whitenoise_No3.bmp	306	0	0	0	0	0	0	0	0	0	0	0	0	0	0	0	0	0	0	0	0	0	0	0	0	0	0	0	0	0	0	0	0	0	0	0	0	0	0	0
011519	11:19:01	11:31:53	771308	5.0.10.0	4_exp_AMP_EVA_AWA_CON	68	Rpleas_acq	Same	Rpleas	Amasked	CS_A	1pleas	distractor1	EVAbeforeCON	AMP_CSunple	AMP1_masked	6	43	0	0	300	300	0	0	842	46	0	1	0	0	0	1	blank2r.bmp	0	1	DHJF	0	1	blank2r.bmp	79	153	pic153.bmp	199	1	whitenoise_No3.bmp	306	0	0	0	0	0	0	0	0	0	0	0	0	0	0	0	0	0	0	0	0	0	0	0	0	0	0	0	0	0	0	0	0	0	0	0	0	0	0	0
011519	11:19:01	11:31:55	773067	5.0.10.0	4_exp_AMP_EVA_AWA_CON	68	Rpleas_acq	Same	Rpleas	Amasked	CS_A	1pleas	distractor1	EVAbeforeCON	AMP_CSpleas	AMP1_masked	6	44	0	0	300	300	0	0	835	50	0	1	0	0	0	1	blank2r.bmp	0	1	CPLW	0	1	blank2r.bmp	79	93	pic93.bmp	199	1	whitenoise_No3.bmp	306	0	0	0	0	0	0	0	0	0	0	0	0	0	0	0	0	0	0	0	0	0	0	0	0	0	0	0	0	0	0	0	0	0	0	0	0	0	0	0
011519	11:19:01	11:31:57	774986	5.0.10.0	4_exp_AMP_EVA_AWA_CON	68	Rpleas_acq	Same	Rpleas	Amasked	CS_A	1pleas	distractor1	EVAbeforeCON	AMP_CSpleas	AMP1_masked	6	45	0	0	300	300	0	0	990	50	0	1	0	0	0	1	blank2r.bmp	0	1	CPLW	0	1	blank2r.bmp	79	48	pic48.bmp	199	1	whitenoise_No3.bmp	306	0	0	0	0	0	0	0	0	0	0	0	0	0	0	0	0	0	0	0	0	0	0	0	0	0	0	0	0	0	0	0	0	0	0	0	0	0	0	0
011519	11:19:01	11:31:59	776906	5.0.10.0	4_exp_AMP_EVA_AWA_CON	68	Rpleas_acq	Same	Rpleas	Amasked	CS_A	1pleas	distractor1	EVAbeforeCON	AMP_CSpleas	AMP1_masked	6	46	0	0	300	300	0	0	987	50	0	1	0	0	0	1	blank2r.bmp	0	1	CPLW	0	1	blank2r.bmp	79	44	pic44.bmp	199	1	whitenoise_No3.bmp	306	0	0	0	0	0	0	0	0	0	0	0	0	0	0	0	0	0	0	0	0	0	0	0	0	0	0	0	0	0	0	0	0	0	0	0	0	0	0	0
011519	11:19:01	11:32:00	778412	5.0.10.0	4_exp_AMP_EVA_AWA_CON	68	Rpleas_acq	Same	Rpleas	Amasked	CS_A	1pleas	distractor1	EVAbeforeCON	AMP_distractor	AMP1_masked	6	47	0	0	300	300	0	0	593	46	0	0	0	0	0	1	blank2r.bmp	0	1	ZGXT	0	1	blank2r.bmp	79	66	pic66.bmp	199	1	whitenoise_No3.bmp	306	0	0	0	0	0	0	0	0	0	0	0	0	0	0	0	0	0	0	0	0	0	0	0	0	0	0	0	0	0	0	0	0	0	0	0	0	0	0	0
011519	11:19:01	11:32:01	779784	5.0.10.0	4_exp_AMP_EVA_AWA_CON	68	Rpleas_acq	Same	Rpleas	Amasked	CS_A	1pleas	distractor1	EVAbeforeCON	AMP_CSpleas	AMP1_masked	6	48	0	0	300	300	0	0	460	50	0	1	0	0	0	1	blank2r.bmp	0	1	CPLW	0	1	blank2r.bmp	79	26	pic26.bmp	199	1	whitenoise_No3.bmp	306	0	0	0	0	0	0	0	0	0	0	0	0	0	0	0	0	0	0	0	0	0	0	0	0	0	0	0	0	0	0	0	0	0	0	0	0	0	0	0
011519	11:19:01	11:32:03	781557	5.0.10.0	4_exp_AMP_EVA_AWA_CON	68	Rpleas_acq	Same	Rpleas	Amasked	CS_A	1pleas	distractor1	EVAbeforeCON	AMP_CSunple	AMP1_masked	6	49	0	0	300	300	0	0	858	50	0	0	0	0	0	1	blank2r.bmp	0	1	DHJF	0	1	blank2r.bmp	79	56	pic56.bmp	199	1	whitenoise_No3.bmp	306	0	0	0	0	0	0	0	0	0	0	0	0	0	0	0	0	0	0	0	0	0	0	0	0	0	0	0	0	0	0	0	0	0	0	0	0	0	0	0
011519	11:19:01	11:32:05	783410	5.0.10.0	4_exp_AMP_EVA_AWA_CON	68	Rpleas_acq	Same	Rpleas	Amasked	CS_A	1pleas	distractor1	EVAbeforeCON	AMP_CSpleas	AMP1_masked	6	50	0	0	300	300	0	0	920	50	0	1	0	0	0	1	blank2r.bmp	0	1	CPLW	0	1	blank2r.bmp	79	152	pic152.bmp	199	1	whitenoise_No3.bmp	306	0	0	0	0	0	0	0	0	0	0	0	0	0	0	0	0	0	0	0	0	0	0	0	0	0	0	0	0	0	0	0	0	0	0	0	0	0	0	0
011519	11:19:01	11:32:07	785129	5.0.10.0	4_exp_AMP_EVA_AWA_CON	68	Rpleas_acq	Same	Rpleas	Amasked	CS_A	1pleas	distractor1	EVAbeforeCON	AMP_CSunple	AMP1_masked	6	51	0	0	300	300	0	0	811	50	0	0	0	0	0	1	blank2r.bmp	0	1	DHJF	0	1	blank2r.bmp	79	1	pic1.bmp	199	1	whitenoise_No3.bmp	306	0	0	0	0	0	0	0	0	0	0	0	0	0	0	0	0	0	0	0	0	0	0	0	0	0	0	0	0	0	0	0	0	0	0	0	0	0	0	0
011519	11:19:01	11:32:16	793939	5.0.10.0	4_exp_AMP_EVA_AWA_CON	68	Rpleas_acq	Same	Rpleas	Amasked	CS_A	1pleas	distractor1	EVAbeforeCON	AMP_distractor	AMP23	7	1	0	0	300	300	0	0	1242	46	0	0	0	0	0	1	blank2r.bmp	0	1	ZGXT	0	1	blank2r.bmp	79	11	pic11.bmp	199	1	whitenoise_No3.bmp	306	0	0	0	0	0	0	0	0	0	0	0	0	0	0	0	0	0	0	0	0	0	0	0	0	0	0	0	0	0	0	0	0	0	0	0	0	0	0	0
011519	11:19:01	11:32:18	796378	5.0.10.0	4_exp_AMP_EVA_AWA_CON	68	Rpleas_acq	Same	Rpleas	Amasked	CS_A	1pleas	distractor1	EVAbeforeCON	AMP_distractor	AMP23	7	2	0	0	300	300	0	0	1529	46	0	0	0	0	0	1	blank2r.bmp	0	1	ZGXT	0	1	blank2r.bmp	79	117	pic117.bmp	199	1	whitenoise_No3.bmp	306	0	0	0	0	0	0	0	0	0	0	0	0	0	0	0	0	0	0	0	0	0	0	0	0	0	0	0	0	0	0	0	0	0	0	0	0	0	0	0
011519	11:19:01	11:32:19	797657	5.0.10.0	4_exp_AMP_EVA_AWA_CON	68	Rpleas_acq	Same	Rpleas	Amasked	CS_A	1pleas	distractor1	EVAbeforeCON	AMP_CSpleas	AMP23	7	3	0	0	300	300	0	0	356	50	0	1	0	0	0	1	blank2r.bmp	0	1	CPLW	0	1	blank2r.bmp	79	80	pic80.bmp	199	1	whitenoise_No3.bmp	306	0	0	0	0	0	0	0	0	0	0	0	0	0	0	0	0	0	0	0	0	0	0	0	0	0	0	0	0	0	0	0	0	0	0	0	0	0	0	0
011519	11:19:01	11:32:21	799110	5.0.10.0	4_exp_AMP_EVA_AWA_CON	68	Rpleas_acq	Same	Rpleas	Amasked	CS_A	1pleas	distractor1	EVAbeforeCON	AMP_distractor	AMP23	7	4	0	0	300	300	0	0	526	50	0	0	0	0	0	1	blank2r.bmp	0	1	ZGXT	0	1	blank2r.bmp	79	41	pic41.bmp	199	1	whitenoise_No3.bmp	306	0	0	0	0	0	0	0	0	0	0	0	0	0	0	0	0	0	0	0	0	0	0	0	0	0	0	0	0	0	0	0	0	0	0	0	0	0	0	0
011519	11:19:01	11:32:23	800856	5.0.10.0	4_exp_AMP_EVA_AWA_CON	68	Rpleas_acq	Same	Rpleas	Amasked	CS_A	1pleas	distractor1	EVAbeforeCON	AMP_CSpleas	AMP23	7	5	0	0	300	300	0	0	824	50	0	1	0	0	0	1	blank2r.bmp	0	1	CPLW	0	1	blank2r.bmp	79	101	pic101.bmp	199	1	whitenoise_No3.bmp	306	0	0	0	0	0	0	0	0	0	0	0	0	0	0	0	0	0	0	0	0	0	0	0	0	0	0	0	0	0	0	0	0	0	0	0	0	0	0	0
011519	11:19:01	11:32:24	802309	5.0.10.0	4_exp_AMP_EVA_AWA_CON	68	Rpleas_acq	Same	Rpleas	Amasked	CS_A	1pleas	distractor1	EVAbeforeCON	AMP_CSunple	AMP23	7	6	0	0	300	300	0	0	522	50	0	0	0	0	0	1	blank2r.bmp	0	1	DHJF	0	1	blank2r.bmp	79	17	pic17.bmp	199	1	whitenoise_No3.bmp	306	0	0	0	0	0	0	0	0	0	0	0	0	0	0	0	0	0	0	0	0	0	0	0	0	0	0	0	0	0	0	0	0	0	0	0	0	0	0	0
011519	11:19:01	11:32:25	803801	5.0.10.0	4_exp_AMP_EVA_AWA_CON	68	Rpleas_acq	Same	Rpleas	Amasked	CS_A	1pleas	distractor1	EVAbeforeCON	AMP_CSunple	AMP23	7	7	0	0	300	300	0	0	572	50	0	0	0	0	0	1	blank2r.bmp	0	1	DHJF	0	1	blank2r.bmp	79	36	pic36.bmp	199	1	whitenoise_No3.bmp	306	0	0	0	0	0	0	0	0	0	0	0	0	0	0	0	0	0	0	0	0	0	0	0	0	0	0	0	0	0	0	0	0	0	0	0	0	0	0	0
011519	11:19:01	11:32:27	805161	5.0.10.0	4_exp_AMP_EVA_AWA_CON	68	Rpleas_acq	Same	Rpleas	Amasked	CS_A	1pleas	distractor1	EVAbeforeCON	AMP_CSpleas	AMP23	7	8	0	0	300	300	0	0	446	50	0	1	0	0	0	1	blank2r.bmp	0	1	CPLW	0	1	blank2r.bmp	79	106	pic106.bmp	199	1	whitenoise_No3.bmp	306	0	0	0	0	0	0	0	0	0	0	0	0	0	0	0	0	0	0	0	0	0	0	0	0	0	0	0	0	0	0	0	0	0	0	0	0	0	0	0
011519	11:19:01	11:32:30	808026	5.0.10.0	4_exp_AMP_EVA_AWA_CON	68	Rpleas_acq	Same	Rpleas	Amasked	CS_A	1pleas	distractor1	EVAbeforeCON	AMP_CSpleas	AMP23	7	9	0	0	300	300	0	0	1939	50	0	1	0	0	0	1	blank2r.bmp	0	1	CPLW	0	1	blank2r.bmp	79	89	pic89.bmp	199	1	whitenoise_No3.bmp	306	0	0	0	0	0	0	0	0	0	0	0	0	0	0	0	0	0	0	0	0	0	0	0	0	0	0	0	0	0	0	0	0	0	0	0	0	0	0	0
011519	11:19:01	11:32:31	809745	5.0.10.0	4_exp_AMP_EVA_AWA_CON	68	Rpleas_acq	Same	Rpleas	Amasked	CS_A	1pleas	distractor1	EVAbeforeCON	AMP_distractor	AMP23	7	10	0	0	300	300	0	0	786	50	0	0	0	0	0	1	blank2r.bmp	0	1	ZGXT	0	1	blank2r.bmp	79	147	pic147.bmp	199	1	whitenoise_No3.bmp	306	0	0	0	0	0	0	0	0	0	0	0	0	0	0	0	0	0	0	0	0	0	0	0	0	0	0	0	0	0	0	0	0	0	0	0	0	0	0	0
011519	11:19:01	11:32:33	811265	5.0.10.0	4_exp_AMP_EVA_AWA_CON	68	Rpleas_acq	Same	Rpleas	Amasked	CS_A	1pleas	distractor1	EVAbeforeCON	AMP_CSunple	AMP23	7	11	0	0	300	300	0	0	600	50	0	0	0	0	0	1	blank2r.bmp	0	1	DHJF	0	1	blank2r.bmp	79	145	pic145.bmp	199	1	whitenoise_No3.bmp	306	0	0	0	0	0	0	0	0	0	0	0	0	0	0	0	0	0	0	0	0	0	0	0	0	0	0	0	0	0	0	0	0	0	0	0	0	0	0	0
011519	11:19:01	11:32:35	813077	5.0.10.0	4_exp_AMP_EVA_AWA_CON	68	Rpleas_acq	Same	Rpleas	Amasked	CS_A	1pleas	distractor1	EVAbeforeCON	AMP_CSunple	AMP23	7	12	0	0	300	300	0	0	903	50	0	0	0	0	0	1	blank2r.bmp	0	1	DHJF	0	1	blank2r.bmp	79	60	pic60.bmp	199	1	whitenoise_No3.bmp	306	0	0	0	0	0	0	0	0	0	0	0	0	0	0	0	0	0	0	0	0	0	0	0	0	0	0	0	0	0	0	0	0	0	0	0	0	0	0	0
011519	11:19:01	11:32:38	815943	5.0.10.0	4_exp_AMP_EVA_AWA_CON	68	Rpleas_acq	Same	Rpleas	Amasked	CS_A	1pleas	distractor1	EVAbeforeCON	AMP_CSunple	AMP23	7	13	0	0	300	300	0	0	1943	46	0	1	0	0	0	1	blank2r.bmp	0	1	DHJF	0	1	blank2r.bmp	79	33	pic33.bmp	199	1	whitenoise_No3.bmp	306	0	0	0	0	0	0	0	0	0	0	0	0	0	0	0	0	0	0	0	0	0	0	0	0	0	0	0	0	0	0	0	0	0	0	0	0	0	0	0
011519	11:19:01	11:32:40	818755	5.0.10.0	4_exp_AMP_EVA_AWA_CON	68	Rpleas_acq	Same	Rpleas	Amasked	CS_A	1pleas	distractor1	EVAbeforeCON	AMP_CSpleas	AMP23	7	14	0	0	300	300	0	0	1899	50	0	1	0	0	0	1	blank2r.bmp	0	1	CPLW	0	1	blank2r.bmp	79	96	pic96.bmp	199	1	whitenoise_No3.bmp	306	0	0	0	0	0	0	0	0	0	0	0	0	0	0	0	0	0	0	0	0	0	0	0	0	0	0	0	0	0	0	0	0	0	0	0	0	0	0	0
011519	11:19:01	11:32:42	820221	5.0.10.0	4_exp_AMP_EVA_AWA_CON	68	Rpleas_acq	Same	Rpleas	Amasked	CS_A	1pleas	distractor1	EVAbeforeCON	AMP_distractor	AMP23	7	15	0	0	300	300	0	0	546	46	0	0	0	0	0	1	blank2r.bmp	0	1	ZGXT	0	1	blank2r.bmp	79	9	pic9.bmp	199	1	whitenoise_No3.bmp	306	0	0	0	0	0	0	0	0	0	0	0	0	0	0	0	0	0	0	0	0	0	0	0	0	0	0	0	0	0	0	0	0	0	0	0	0	0	0	0
011519	11:19:01	11:32:45	823393	5.0.10.0	4_exp_AMP_EVA_AWA_CON	68	Rpleas_acq	Same	Rpleas	Amasked	CS_A	1pleas	distractor1	EVAbeforeCON	AMP_CSunple	AMP23	7	16	0	0	300	300	0	0	2263	46	0	1	0	0	0	1	blank2r.bmp	0	1	DHJF	0	1	blank2r.bmp	79	22	pic22.bmp	199	1	whitenoise_No3.bmp	306	0	0	0	0	0	0	0	0	0	0	0	0	0	0	0	0	0	0	0	0	0	0	0	0	0	0	0	0	0	0	0	0	0	0	0	0	0	0	0
011519	11:19:01	11:32:47	825352	5.0.10.0	4_exp_AMP_EVA_AWA_CON	68	Rpleas_acq	Same	Rpleas	Amasked	CS_A	1pleas	distractor1	EVAbeforeCON	AMP_distractor	AMP23	7	17	0	0	300	300	0	0	1031	46	0	0	0	0	0	1	blank2r.bmp	0	1	ZGXT	0	1	blank2r.bmp	79	35	pic35.bmp	199	1	whitenoise_No3.bmp	306	0	0	0	0	0	0	0	0	0	0	0	0	0	0	0	0	0	0	0	0	0	0	0	0	0	0	0	0	0	0	0	0	0	0	0	0	0	0	0
011519	11:19:01	11:32:49	826858	5.0.10.0	4_exp_AMP_EVA_AWA_CON	68	Rpleas_acq	Same	Rpleas	Amasked	CS_A	1pleas	distractor1	EVAbeforeCON	AMP_CSpleas	AMP23	7	18	0	0	300	300	0	0	597	46	0	0	0	0	0	1	blank2r.bmp	0	1	CPLW	0	1	blank2r.bmp	79	116	pic116.bmp	199	1	whitenoise_No3.bmp	306	0	0	0	0	0	0	0	0	0	0	0	0	0	0	0	0	0	0	0	0	0	0	0	0	0	0	0	0	0	0	0	0	0	0	0	0	0	0	0
011519	11:19:01	11:32:54	832243	5.0.10.0	4_exp_AMP_EVA_AWA_CON	68	Rpleas_acq	Same	Rpleas	Amasked	CS_A	1pleas	distractor1	EVAbeforeCON	AMP_CSunple	AMP23	7	19	0	0	300	300	0	0	4457	46	0	1	0	0	0	1	blank2r.bmp	0	1	DHJF	0	1	blank2r.bmp	79	70	pic70.bmp	199	1	whitenoise_No3.bmp	306	0	0	0	0	0	0	0	0	0	0	0	0	0	0	0	0	0	0	0	0	0	0	0	0	0	0	0	0	0	0	0	0	0	0	0	0	0	0	0
011519	11:19:01	11:32:55	833642	5.0.10.0	4_exp_AMP_EVA_AWA_CON	68	Rpleas_acq	Same	Rpleas	Amasked	CS_A	1pleas	distractor1	EVAbeforeCON	AMP_CSpleas	AMP23	7	20	0	0	300	300	0	0	478	50	0	1	0	0	0	1	blank2r.bmp	0	1	CPLW	0	1	blank2r.bmp	79	20	pic20.bmp	199	1	whitenoise_No3.bmp	306	0	0	0	0	0	0	0	0	0	0	0	0	0	0	0	0	0	0	0	0	0	0	0	0	0	0	0	0	0	0	0	0	0	0	0	0	0	0	0
011519	11:19:01	11:32:57	835295	5.0.10.0	4_exp_AMP_EVA_AWA_CON	68	Rpleas_acq	Same	Rpleas	Amasked	CS_A	1pleas	distractor1	EVAbeforeCON	AMP_CSpleas	AMP23	7	21	0	0	300	300	0	0	730	50	0	1	0	0	0	1	blank2r.bmp	0	1	CPLW	0	1	blank2r.bmp	79	136	pic136.bmp	199	1	whitenoise_No3.bmp	306	0	0	0	0	0	0	0	0	0	0	0	0	0	0	0	0	0	0	0	0	0	0	0	0	0	0	0	0	0	0	0	0	0	0	0	0	0	0	0
011519	11:19:01	11:32:59	837361	5.0.10.0	4_exp_AMP_EVA_AWA_CON	68	Rpleas_acq	Same	Rpleas	Amasked	CS_A	1pleas	distractor1	EVAbeforeCON	AMP_CSpleas	AMP23	7	22	0	0	300	300	0	0	1136	50	0	1	0	0	0	1	blank2r.bmp	0	1	CPLW	0	1	blank2r.bmp	79	125	pic125.bmp	199	1	whitenoise_No3.bmp	306	0	0	0	0	0	0	0	0	0	0	0	0	0	0	0	0	0	0	0	0	0	0	0	0	0	0	0	0	0	0	0	0	0	0	0	0	0	0	0
011519	11:19:01	11:33:01	839573	5.0.10.0	4_exp_AMP_EVA_AWA_CON	68	Rpleas_acq	Same	Rpleas	Amasked	CS_A	1pleas	distractor1	EVAbeforeCON	AMP_distractor	AMP23	7	23	0	0	300	300	0	0	1280	46	0	0	0	0	0	1	blank2r.bmp	0	1	ZGXT	0	1	blank2r.bmp	79	67	pic67.bmp	199	1	whitenoise_No3.bmp	306	0	0	0	0	0	0	0	0	0	0	0	0	0	0	0	0	0	0	0	0	0	0	0	0	0	0	0	0	0	0	0	0	0	0	0	0	0	0	0
011519	11:19:01	11:33:04	841892	5.0.10.0	4_exp_AMP_EVA_AWA_CON	68	Rpleas_acq	Same	Rpleas	Amasked	CS_A	1pleas	distractor1	EVAbeforeCON	AMP_distractor	AMP23	7	24	0	0	300	300	0	0	1404	46	0	0	0	0	0	1	blank2r.bmp	0	1	ZGXT	0	1	blank2r.bmp	79	7	pic7.bmp	199	1	whitenoise_No3.bmp	306	0	0	0	0	0	0	0	0	0	0	0	0	0	0	0	0	0	0	0	0	0	0	0	0	0	0	0	0	0	0	0	0	0	0	0	0	0	0	0
011519	11:19:01	11:33:05	843758	5.0.10.0	4_exp_AMP_EVA_AWA_CON	68	Rpleas_acq	Same	Rpleas	Amasked	CS_A	1pleas	distractor1	EVAbeforeCON	AMP_CSunple	AMP23	7	25	0	0	300	300	0	0	953	50	0	0	0	0	0	1	blank2r.bmp	0	1	DHJF	0	1	blank2r.bmp	79	57	pic57.bmp	199	1	whitenoise_No3.bmp	306	0	0	0	0	0	0	0	0	0	0	0	0	0	0	0	0	0	0	0	0	0	0	0	0	0	0	0	0	0	0	0	0	0	0	0	0	0	0	0
011519	11:19:01	11:33:07	845184	5.0.10.0	4_exp_AMP_EVA_AWA_CON	68	Rpleas_acq	Same	Rpleas	Amasked	CS_A	1pleas	distractor1	EVAbeforeCON	AMP_distractor	AMP23	7	26	0	0	300	300	0	0	516	50	0	0	0	0	0	1	blank2r.bmp	0	1	ZGXT	0	1	blank2r.bmp	79	105	pic105.bmp	199	1	whitenoise_No3.bmp	306	0	0	0	0	0	0	0	0	0	0	0	0	0	0	0	0	0	0	0	0	0	0	0	0	0	0	0	0	0	0	0	0	0	0	0	0	0	0	0
011519	11:19:01	11:33:10	847863	5.0.10.0	4_exp_AMP_EVA_AWA_CON	68	Rpleas_acq	Same	Rpleas	Amasked	CS_A	1pleas	distractor1	EVAbeforeCON	AMP_CSunple	AMP23	7	27	0	0	300	300	0	0	1755	46	0	1	0	0	0	1	blank2r.bmp	0	1	DHJF	0	1	blank2r.bmp	79	108	pic108.bmp	199	1	whitenoise_No3.bmp	306	0	0	0	0	0	0	0	0	0	0	0	0	0	0	0	0	0	0	0	0	0	0	0	0	0	0	0	0	0	0	0	0	0	0	0	0	0	0	0
011519	11:19:01	11:33:11	849516	5.0.10.0	4_exp_AMP_EVA_AWA_CON	68	Rpleas_acq	Same	Rpleas	Amasked	CS_A	1pleas	distractor1	EVAbeforeCON	AMP_distractor	AMP23	7	28	0	0	300	300	0	0	744	50	0	0	0	0	0	1	blank2r.bmp	0	1	ZGXT	0	1	blank2r.bmp	79	2	pic2.bmp	199	1	whitenoise_No3.bmp	306	0	0	0	0	0	0	0	0	0	0	0	0	0	0	0	0	0	0	0	0	0	0	0	0	0	0	0	0	0	0	0	0	0	0	0	0	0	0	0
011519	11:19:01	11:33:13	851355	5.0.10.0	4_exp_AMP_EVA_AWA_CON	68	Rpleas_acq	Same	Rpleas	Amasked	CS_A	1pleas	distractor1	EVAbeforeCON	AMP_distractor	AMP23	7	29	0	0	300	300	0	0	899	46	0	0	0	0	0	1	blank2r.bmp	0	1	ZGXT	0	1	blank2r.bmp	79	47	pic47.bmp	199	1	whitenoise_No3.bmp	306	0	0	0	0	0	0	0	0	0	0	0	0	0	0	0	0	0	0	0	0	0	0	0	0	0	0	0	0	0	0	0	0	0	0	0	0	0	0	0
011519	11:19:01	11:33:15	853461	5.0.10.0	4_exp_AMP_EVA_AWA_CON	68	Rpleas_acq	Same	Rpleas	Amasked	CS_A	1pleas	distractor1	EVAbeforeCON	AMP_CSpleas	AMP23	7	30	0	0	300	300	0	0	1188	46	0	0	0	0	0	1	blank2r.bmp	0	1	CPLW	0	1	blank2r.bmp	79	139	pic139.bmp	199	1	whitenoise_No3.bmp	306	0	0	0	0	0	0	0	0	0	0	0	0	0	0	0	0	0	0	0	0	0	0	0	0	0	0	0	0	0	0	0	0	0	0	0	0	0	0	0
011519	11:19:01	11:33:20	858299	5.0.10.0	4_exp_AMP_EVA_AWA_CON	68	Rpleas_acq	Same	Rpleas	Amasked	CS_A	1pleas	distractor1	EVAbeforeCON	AMP_distractor	AMP23	7	31	0	0	300	300	0	0	3917	50	0	0	0	0	0	1	blank2r.bmp	0	1	ZGXT	0	1	blank2r.bmp	79	52	pic52.bmp	199	1	whitenoise_No3.bmp	306	0	0	0	0	0	0	0	0	0	0	0	0	0	0	0	0	0	0	0	0	0	0	0	0	0	0	0	0	0	0	0	0	0	0	0	0	0	0	0
011519	11:19:01	11:33:22	860351	5.0.10.0	4_exp_AMP_EVA_AWA_CON	68	Rpleas_acq	Same	Rpleas	Amasked	CS_A	1pleas	distractor1	EVAbeforeCON	AMP_CSunple	AMP23	7	32	0	0	300	300	0	0	1134	50	0	0	0	0	0	1	blank2r.bmp	0	1	DHJF	0	1	blank2r.bmp	79	97	pic97.bmp	199	1	whitenoise_No3.bmp	306	0	0	0	0	0	0	0	0	0	0	0	0	0	0	0	0	0	0	0	0	0	0	0	0	0	0	0	0	0	0	0	0	0	0	0	0	0	0	0
011519	11:19:01	11:33:24	862404	5.0.10.0	4_exp_AMP_EVA_AWA_CON	68	Rpleas_acq	Same	Rpleas	Amasked	CS_A	1pleas	distractor1	EVAbeforeCON	AMP_CSunple	AMP23	7	33	0	0	300	300	0	0	1129	50	0	0	0	0	0	1	blank2r.bmp	0	1	DHJF	0	1	blank2r.bmp	79	132	pic132.bmp	199	1	whitenoise_No3.bmp	306	0	0	0	0	0	0	0	0	0	0	0	0	0	0	0	0	0	0	0	0	0	0	0	0	0	0	0	0	0	0	0	0	0	0	0	0	0	0	0
011519	11:19:01	11:33:27	865696	5.0.10.0	4_exp_AMP_EVA_AWA_CON	68	Rpleas_acq	Same	Rpleas	Amasked	CS_A	1pleas	distractor1	EVAbeforeCON	AMP_CSpleas	AMP23	7	34	0	0	300	300	0	0	2358	46	0	0	0	0	0	1	blank2r.bmp	0	1	CPLW	0	1	blank2r.bmp	79	83	pic83.bmp	199	1	whitenoise_No3.bmp	306	0	0	0	0	0	0	0	0	0	0	0	0	0	0	0	0	0	0	0	0	0	0	0	0	0	0	0	0	0	0	0	0	0	0	0	0	0	0	0
011519	11:19:01	11:33:29	867615	5.0.10.0	4_exp_AMP_EVA_AWA_CON	68	Rpleas_acq	Same	Rpleas	Amasked	CS_A	1pleas	distractor1	EVAbeforeCON	AMP_CSunple	AMP23	7	35	0	0	300	300	0	0	1007	46	0	1	0	0	0	1	blank2r.bmp	0	1	DHJF	0	1	blank2r.bmp	79	16	pic16.bmp	199	1	whitenoise_No3.bmp	306	0	0	0	0	0	0	0	0	0	0	0	0	0	0	0	0	0	0	0	0	0	0	0	0	0	0	0	0	0	0	0	0	0	0	0	0	0	0	0
011519	11:19:01	11:33:32	870201	5.0.10.0	4_exp_AMP_EVA_AWA_CON	68	Rpleas_acq	Same	Rpleas	Amasked	CS_A	1pleas	distractor1	EVAbeforeCON	AMP_CSunple	AMP23	7	36	0	0	300	300	0	0	1657	50	0	0	0	0	0	1	blank2r.bmp	0	1	DHJF	0	1	blank2r.bmp	79	82	pic82.bmp	199	1	whitenoise_No3.bmp	306	0	0	0	0	0	0	0	0	0	0	0	0	0	0	0	0	0	0	0	0	0	0	0	0	0	0	0	0	0	0	0	0	0	0	0	0	0	0	0
