date	time	script.currenttime	script.elapsedtime	build	subject	expressions.LRpleas_acq	expressions.SameOppo	expressions.condition_Lpleas	expressions.ABmasked	expressions.conditionCS_A	expressions.condition_1pleas	expressions.condition_distractor_AMP	trialcode	blockcode	blocknum	trialnum	windowcenter	inwindow	pretrialpause	posttrialpause	trialduration	trialtimeout	latency	response	expressions.correctedscore	correct	values.vis_performance	values.vis_rating_sum	values.vis_rating_mean	stimulusnumber1	stimulusitem1	stimulusonset1	stimulusnumber2	stimulusitem2	stimulusonset2	stimulusnumber3	stimulusitem3	stimulusonset3	stimulusnumber4	stimulusitem4	stimulusonset4	stimulusnumber5	stimulusitem5	stimulusonset5	stimulusnumber6	stimulusitem6	stimulusonset6	stimulusnumber7	stimulusitem7	stimulusonset7	stimulusnumber8	stimulusitem8	stimulusonset8	stimulusnumber9	stimulusitem9	stimulusonset9	stimulusnumber10	stimulusitem10	stimulusonset10	stimulusnumber11	stimulusitem11	stimulusonset11	stimulusnumber12	stimulusitem12	stimulusonset12	stimulusnumber13	stimulusitem13	stimulusonset13	stimulusnumber14	stimulusitem14	stimulusonset14	stimulusnumber15	stimulusitem15	stimulusonset15	stimulusnumber16	stimulusitem16	stimulusonset16	stimulusnumber17	stimulusitem17	stimulusonset17	stimulusnumber18	stimulusitem18	stimulusonset18
112818	13:10:53	13:13:02	125976	5.0.10.0	994	Rpleas_acq	Same	Rpleas	Bmasked	CS_B	1pleas	distractor2	acq_new_unple_masked	acq1_masked	1	1	0	0	300	300	0	0	865	46	0	1	0	0	0	1	blank2r.bmp	0	1	+	0	2	B2r.bmp	370	1	blank2r.bmp	590	6	lasch	650	0	0	0	0	0	0	0	0	0	0	0	0	0	0	0	0	0	0	0	0	0	0	0	0	0	0	0	0	0	0	0	0	0	0	0	0	0	0	0
112818	13:10:53	13:13:04	127886	5.0.10.0	994	Rpleas_acq	Same	Rpleas	Bmasked	CS_B	2pleas	distractor2	acq_US_unple_masked	acq1_masked	1	2	0	0	300	300	0	0	645	46	0	1	0	0	0	1	blank2r.bmp	0	1	+	0	6	C2r.bmp	370	1	blank2r.bmp	590	1	BMVZ	590	1	blank2r.bmp	650	5	eitel	650	0	0	0	0	0	0	0	0	0	0	0	0	0	0	0	0	0	0	0	0	0	0	0	0	0	0	0	0	0	0	0	0	0
112818	13:10:53	13:13:05	129606	5.0.10.0	994	Rpleas_acq	Same	Rpleas	Bmasked	CS_B	2pleas	distractor2	acq_US_unple_masked	acq1_masked	1	3	0	0	300	300	0	0	451	46	0	1	0	0	0	1	blank2r.bmp	0	1	+	0	5	C1r.bmp	370	1	blank2r.bmp	590	1	BMVZ	590	1	blank2r.bmp	650	4	schroff	650	0	0	0	0	0	0	0	0	0	0	0	0	0	0	0	0	0	0	0	0	0	0	0	0	0	0	0	0	0	0	0	0	0
112818	13:10:53	13:13:07	131416	5.0.10.0	994	Rpleas_acq	Same	Rpleas	Bmasked	CS_B	2pleas	distractor2	acq_US_pleas_masked	acq1_masked	1	4	0	0	300	300	0	0	549	50	0	1	0	0	0	1	blank2r.bmp	0	1	+	0	3	B3r.bmp	370	1	blank2r.bmp	590	1	GKQX	590	1	blank2r.bmp	650	1	tolerant	650	0	0	0	0	0	0	0	0	0	0	0	0	0	0	0	0	0	0	0	0	0	0	0	0	0	0	0	0	0	0	0	0	0
112818	13:10:53	13:13:09	133396	5.0.10.0	994	Rpleas_acq	Same	Rpleas	Bmasked	CS_B	2pleas	distractor2	acq_US_unple_masked	acq1_masked	1	5	0	0	300	300	0	0	725	46	0	1	0	0	0	1	blank2r.bmp	0	1	+	0	7	C3r.bmp	370	1	blank2r.bmp	590	1	BMVZ	590	1	blank2r.bmp	650	6	tot	650	0	0	0	0	0	0	0	0	0	0	0	0	0	0	0	0	0	0	0	0	0	0	0	0	0	0	0	0	0	0	0	0	0
112818	13:10:53	13:13:11	135426	5.0.10.0	994	Rpleas_acq	Same	Rpleas	Bmasked	CS_B	2pleas	distractor2	acq_US_pleas_masked	acq1_masked	1	6	0	0	300	300	0	0	768	50	0	1	0	0	0	1	blank2r.bmp	0	1	+	0	8	C4r.bmp	370	1	blank2r.bmp	590	1	GKQX	590	1	blank2r.bmp	650	3	schön	650	0	0	0	0	0	0	0	0	0	0	0	0	0	0	0	0	0	0	0	0	0	0	0	0	0	0	0	0	0	0	0	0	0
112818	13:10:53	13:13:13	137266	5.0.10.0	994	Rpleas_acq	Same	Rpleas	Bmasked	CS_B	2pleas	distractor2	acq_US_pleas_masked	acq1_masked	1	7	0	0	300	300	0	0	580	50	0	1	0	0	0	1	blank2r.bmp	0	1	+	0	1	B1r.bmp	370	1	blank2r.bmp	590	1	GKQX	590	1	blank2r.bmp	650	2	spielen	650	0	0	0	0	0	0	0	0	0	0	0	0	0	0	0	0	0	0	0	0	0	0	0	0	0	0	0	0	0	0	0	0	0
112818	13:10:53	13:13:15	139266	5.0.10.0	994	Rpleas_acq	Same	Rpleas	Bmasked	CS_B	2pleas	distractor2	acq_new_pleas_masked	acq1_masked	1	8	0	0	300	300	0	0	748	50	0	1	0	0	0	1	blank2r.bmp	0	1	+	0	4	B4r.bmp	370	1	blank2r.bmp	590	5	schlau	650	0	0	0	0	0	0	0	0	0	0	0	0	0	0	0	0	0	0	0	0	0	0	0	0	0	0	0	0	0	0	0	0	0	0	0	0	0	0	0
112818	13:10:53	13:13:17	141066	5.0.10.0	994	Rpleas_acq	Same	Rpleas	Bmasked	CS_B	2pleas	distractor2	acq_new_pleas_masked	acq1_masked	1	9	0	0	300	300	0	0	525	50	0	1	0	0	0	1	blank2r.bmp	0	1	+	0	3	B3r.bmp	370	1	blank2r.bmp	590	6	fair	650	0	0	0	0	0	0	0	0	0	0	0	0	0	0	0	0	0	0	0	0	0	0	0	0	0	0	0	0	0	0	0	0	0	0	0	0	0	0	0
112818	13:10:53	13:13:19	142746	5.0.10.0	994	Rpleas_acq	Same	Rpleas	Bmasked	CS_B	2pleas	distractor2	acq_US_unple_masked	acq1_masked	1	10	0	0	300	300	0	0	415	46	0	1	0	0	0	1	blank2r.bmp	0	1	+	0	1	B1r.bmp	370	1	blank2r.bmp	590	1	BMVZ	590	1	blank2r.bmp	650	3	tyrannisch	650	0	0	0	0	0	0	0	0	0	0	0	0	0	0	0	0	0	0	0	0	0	0	0	0	0	0	0	0	0	0	0	0	0
112818	13:10:53	13:13:20	144536	5.0.10.0	994	Rpleas_acq	Same	Rpleas	Bmasked	CS_B	2pleas	distractor2	acq_US_pleas_masked	acq1_masked	1	11	0	0	300	300	0	0	517	50	0	1	0	0	0	1	blank2r.bmp	0	1	+	0	4	B4r.bmp	370	1	blank2r.bmp	590	1	GKQX	590	1	blank2r.bmp	650	5	lachen	650	0	0	0	0	0	0	0	0	0	0	0	0	0	0	0	0	0	0	0	0	0	0	0	0	0	0	0	0	0	0	0	0	0
112818	13:10:53	13:13:22	146246	5.0.10.0	994	Rpleas_acq	Same	Rpleas	Bmasked	CS_B	2pleas	distractor2	acq_US_pleas_masked	acq1_masked	1	12	0	0	300	300	0	0	451	50	0	1	0	0	0	1	blank2r.bmp	0	1	+	0	5	C1r.bmp	370	1	blank2r.bmp	590	1	GKQX	590	1	blank2r.bmp	650	4	helfen	650	0	0	0	0	0	0	0	0	0	0	0	0	0	0	0	0	0	0	0	0	0	0	0	0	0	0	0	0	0	0	0	0	0
112818	13:10:53	13:13:24	147936	5.0.10.0	994	Rpleas_acq	Same	Rpleas	Bmasked	CS_B	2pleas	distractor2	acq_new_pleas_masked	acq1_masked	1	13	0	0	300	300	0	0	427	50	0	1	0	0	0	1	blank2r.bmp	0	1	+	0	8	C4r.bmp	370	1	blank2r.bmp	590	4	ehrlich	650	0	0	0	0	0	0	0	0	0	0	0	0	0	0	0	0	0	0	0	0	0	0	0	0	0	0	0	0	0	0	0	0	0	0	0	0	0	0	0
112818	13:10:53	13:13:25	149665	5.0.10.0	994	Rpleas_acq	Same	Rpleas	Bmasked	CS_B	2pleas	distractor2	acq_US_unple_masked	acq1_masked	1	14	0	0	300	300	0	0	473	46	0	1	0	0	0	1	blank2r.bmp	0	1	+	0	7	C3r.bmp	370	1	blank2r.bmp	590	1	BMVZ	590	1	blank2r.bmp	650	1	faul	650	0	0	0	0	0	0	0	0	0	0	0	0	0	0	0	0	0	0	0	0	0	0	0	0	0	0	0	0	0	0	0	0	0
112818	13:10:53	13:13:27	151635	5.0.10.0	994	Rpleas_acq	Same	Rpleas	Bmasked	CS_B	2pleas	distractor2	acq_new_unple_masked	acq1_masked	1	15	0	0	300	300	0	0	499	50	0	0	0	0	0	1	blank2r.bmp	0	1	+	0	6	C2r.bmp	370	1	blank2r.bmp	590	1	leiden	650	1	FEHLER	1179	0	0	0	0	0	0	0	0	0	0	0	0	0	0	0	0	0	0	0	0	0	0	0	0	0	0	0	0	0	0	0	0	0	0	0	0
112818	13:10:53	13:13:29	153355	5.0.10.0	994	Rpleas_acq	Same	Rpleas	Bmasked	CS_B	2pleas	distractor2	acq_US_pleas_masked	acq1_masked	1	16	0	0	300	300	0	0	454	46	0	0	0	0	0	1	blank2r.bmp	0	1	+	0	2	B2r.bmp	370	1	blank2r.bmp	590	1	GKQX	590	1	blank2r.bmp	650	6	retten	650	1	FEHLER	1129	0	0	0	0	0	0	0	0	0	0	0	0	0	0	0	0	0	0	0	0	0	0	0	0	0	0	0	0	0	0
112818	13:10:53	13:13:31	154965	5.0.10.0	994	Rpleas_acq	Same	Rpleas	Bmasked	CS_B	2pleas	distractor2	acq_new_unple_masked	acq1_masked	1	17	0	0	300	300	0	0	560	46	0	1	0	0	0	1	blank2r.bmp	0	1	+	0	5	C1r.bmp	370	1	blank2r.bmp	590	5	strafen	650	0	0	0	0	0	0	0	0	0	0	0	0	0	0	0	0	0	0	0	0	0	0	0	0	0	0	0	0	0	0	0	0	0	0	0	0	0	0	0
112818	13:10:53	13:13:33	156865	5.0.10.0	994	Rpleas_acq	Same	Rpleas	Bmasked	CS_B	2pleas	distractor2	acq_US_pleas_masked	acq1_masked	1	18	0	0	300	300	0	0	425	46	0	0	0	0	0	1	blank2r.bmp	0	1	+	0	4	B4r.bmp	370	1	blank2r.bmp	590	1	GKQX	590	1	blank2r.bmp	650	6	retten	650	1	FEHLER	1099	0	0	0	0	0	0	0	0	0	0	0	0	0	0	0	0	0	0	0	0	0	0	0	0	0	0	0	0	0	0
112818	13:10:53	13:13:34	158425	5.0.10.0	994	Rpleas_acq	Same	Rpleas	Bmasked	CS_B	2pleas	distractor2	acq_US_pleas_masked	acq1_masked	1	19	0	0	300	300	0	0	499	50	0	1	0	0	0	1	blank2r.bmp	0	1	+	0	1	B1r.bmp	370	1	blank2r.bmp	590	1	GKQX	590	1	blank2r.bmp	650	2	spielen	650	0	0	0	0	0	0	0	0	0	0	0	0	0	0	0	0	0	0	0	0	0	0	0	0	0	0	0	0	0	0	0	0	0
112818	13:10:53	13:13:36	160175	5.0.10.0	994	Rpleas_acq	Same	Rpleas	Bmasked	CS_B	2pleas	distractor2	acq_US_unple_masked	acq1_masked	1	20	0	0	300	300	0	0	493	46	0	1	0	0	0	1	blank2r.bmp	0	1	+	0	6	C2r.bmp	370	1	blank2r.bmp	590	1	BMVZ	590	1	blank2r.bmp	650	2	schlecht	650	0	0	0	0	0	0	0	0	0	0	0	0	0	0	0	0	0	0	0	0	0	0	0	0	0	0	0	0	0	0	0	0	0
112818	13:10:53	13:13:38	161855	5.0.10.0	994	Rpleas_acq	Same	Rpleas	Bmasked	CS_B	2pleas	distractor2	acq_US_pleas_masked	acq1_masked	1	21	0	0	300	300	0	0	418	50	0	1	0	0	0	1	blank2r.bmp	0	1	+	0	8	C4r.bmp	370	1	blank2r.bmp	590	1	GKQX	590	1	blank2r.bmp	650	3	schön	650	0	0	0	0	0	0	0	0	0	0	0	0	0	0	0	0	0	0	0	0	0	0	0	0	0	0	0	0	0	0	0	0	0
112818	13:10:53	13:13:40	163855	5.0.10.0	994	Rpleas_acq	Same	Rpleas	Bmasked	CS_B	2pleas	distractor2	acq_new_unple_masked	acq1_masked	1	22	0	0	300	300	0	0	510	50	0	0	0	0	0	1	blank2r.bmp	0	1	+	0	3	B3r.bmp	370	1	blank2r.bmp	590	4	rächen	650	1	FEHLER	1189	0	0	0	0	0	0	0	0	0	0	0	0	0	0	0	0	0	0	0	0	0	0	0	0	0	0	0	0	0	0	0	0	0	0	0	0
112818	13:10:53	13:13:41	165585	5.0.10.0	994	Rpleas_acq	Same	Rpleas	Bmasked	CS_B	2pleas	distractor2	acq_US_unple_masked	acq1_masked	1	23	0	0	300	300	0	0	472	50	0	0	0	0	0	1	blank2r.bmp	0	1	+	0	2	B2r.bmp	370	1	blank2r.bmp	590	1	BMVZ	590	1	blank2r.bmp	650	5	eitel	650	1	FEHLER	1149	0	0	0	0	0	0	0	0	0	0	0	0	0	0	0	0	0	0	0	0	0	0	0	0	0	0	0	0	0	0
112818	13:10:53	13:13:43	167115	5.0.10.0	994	Rpleas_acq	Same	Rpleas	Bmasked	CS_B	2pleas	distractor2	acq_US_unple_masked	acq1_masked	1	24	0	0	300	300	0	0	469	46	0	1	0	0	0	1	blank2r.bmp	0	1	+	0	7	C3r.bmp	370	1	blank2r.bmp	590	1	BMVZ	590	1	blank2r.bmp	650	1	faul	650	0	0	0	0	0	0	0	0	0	0	0	0	0	0	0	0	0	0	0	0	0	0	0	0	0	0	0	0	0	0	0	0	0
112818	13:10:53	13:13:45	168875	5.0.10.0	994	Rpleas_acq	Same	Rpleas	Bmasked	CS_B	2pleas	distractor2	acq_new_unple_masked	acq1_masked	1	25	0	0	300	300	0	0	500	46	0	1	0	0	0	1	blank2r.bmp	0	1	+	0	4	B4r.bmp	370	1	blank2r.bmp	590	3	fanatisch	650	0	0	0	0	0	0	0	0	0	0	0	0	0	0	0	0	0	0	0	0	0	0	0	0	0	0	0	0	0	0	0	0	0	0	0	0	0	0	0
112818	13:10:53	13:13:46	170605	5.0.10.0	994	Rpleas_acq	Same	Rpleas	Bmasked	CS_B	2pleas	distractor2	acq_US_unple_masked	acq1_masked	1	26	0	0	300	300	0	0	468	46	0	1	0	0	0	1	blank2r.bmp	0	1	+	0	5	C1r.bmp	370	1	blank2r.bmp	590	1	BMVZ	590	1	blank2r.bmp	650	2	schlecht	650	0	0	0	0	0	0	0	0	0	0	0	0	0	0	0	0	0	0	0	0	0	0	0	0	0	0	0	0	0	0	0	0	0
112818	13:10:53	13:13:48	172305	5.0.10.0	994	Rpleas_acq	Same	Rpleas	Bmasked	CS_B	2pleas	distractor2	acq_US_pleas_masked	acq1_masked	1	27	0	0	300	300	0	0	448	50	0	1	0	0	0	1	blank2r.bmp	0	1	+	0	6	C2r.bmp	370	1	blank2r.bmp	590	1	GKQX	590	1	blank2r.bmp	650	5	lachen	650	0	0	0	0	0	0	0	0	0	0	0	0	0	0	0	0	0	0	0	0	0	0	0	0	0	0	0	0	0	0	0	0	0
112818	13:10:53	13:13:50	174365	5.0.10.0	994	Rpleas_acq	Same	Rpleas	Bmasked	CS_B	2pleas	distractor2	acq_US_pleas_masked	acq1_masked	1	28	0	0	300	300	0	0	570	46	0	0	0	0	0	1	blank2r.bmp	0	1	+	0	2	B2r.bmp	370	1	blank2r.bmp	590	1	GKQX	590	1	blank2r.bmp	650	1	tolerant	650	1	FEHLER	1249	0	0	0	0	0	0	0	0	0	0	0	0	0	0	0	0	0	0	0	0	0	0	0	0	0	0	0	0	0	0
112818	13:10:53	13:13:52	175875	5.0.10.0	994	Rpleas_acq	Same	Rpleas	Bmasked	CS_B	2pleas	distractor2	acq_new_pleas_masked	acq1_masked	1	29	0	0	300	300	0	0	456	50	0	1	0	0	0	1	blank2r.bmp	0	1	+	0	7	C3r.bmp	370	1	blank2r.bmp	590	1	freundlich	650	0	0	0	0	0	0	0	0	0	0	0	0	0	0	0	0	0	0	0	0	0	0	0	0	0	0	0	0	0	0	0	0	0	0	0	0	0	0	0
112818	13:10:53	13:13:53	177615	5.0.10.0	994	Rpleas_acq	Same	Rpleas	Bmasked	CS_B	2pleas	distractor2	acq_US_pleas_masked	acq1_masked	1	30	0	0	300	300	0	0	486	50	0	1	0	0	0	1	blank2r.bmp	0	1	+	0	8	C4r.bmp	370	1	blank2r.bmp	590	1	GKQX	590	1	blank2r.bmp	650	4	helfen	650	0	0	0	0	0	0	0	0	0	0	0	0	0	0	0	0	0	0	0	0	0	0	0	0	0	0	0	0	0	0	0	0	0
112818	13:10:53	13:13:55	179375	5.0.10.0	994	Rpleas_acq	Same	Rpleas	Bmasked	CS_B	2pleas	distractor2	acq_US_unple_masked	acq1_masked	1	31	0	0	300	300	0	0	497	46	0	1	0	0	0	1	blank2r.bmp	0	1	+	0	3	B3r.bmp	370	1	blank2r.bmp	590	1	BMVZ	590	1	blank2r.bmp	650	4	schroff	650	0	0	0	0	0	0	0	0	0	0	0	0	0	0	0	0	0	0	0	0	0	0	0	0	0	0	0	0	0	0	0	0	0
112818	13:10:53	13:13:57	181395	5.0.10.0	994	Rpleas_acq	Same	Rpleas	Bmasked	CS_B	2pleas	distractor2	acq_new_unple_masked	acq1_masked	1	32	0	0	300	300	0	0	751	46	0	1	0	0	0	1	blank2r.bmp	0	1	+	0	1	B1r.bmp	370	1	blank2r.bmp	590	2	hindern	650	0	0	0	0	0	0	0	0	0	0	0	0	0	0	0	0	0	0	0	0	0	0	0	0	0	0	0	0	0	0	0	0	0	0	0	0	0	0	0
112818	13:10:53	13:13:59	183225	5.0.10.0	994	Rpleas_acq	Same	Rpleas	Bmasked	CS_B	2pleas	distractor2	acq_US_unple_masked	acq1_masked	1	33	0	0	300	300	0	0	561	46	0	1	0	0	0	1	blank2r.bmp	0	1	+	0	8	C4r.bmp	370	1	blank2r.bmp	590	1	BMVZ	590	1	blank2r.bmp	650	6	tot	650	0	0	0	0	0	0	0	0	0	0	0	0	0	0	0	0	0	0	0	0	0	0	0	0	0	0	0	0	0	0	0	0	0
112818	13:10:53	13:14:01	185205	5.0.10.0	994	Rpleas_acq	Same	Rpleas	Bmasked	CS_B	2pleas	distractor2	acq_new_pleas_masked	acq1_masked	1	34	0	0	300	300	0	0	518	46	0	0	0	0	0	1	blank2r.bmp	0	1	+	0	4	B4r.bmp	370	1	blank2r.bmp	590	2	loyal	650	1	FEHLER	1189	0	0	0	0	0	0	0	0	0	0	0	0	0	0	0	0	0	0	0	0	0	0	0	0	0	0	0	0	0	0	0	0	0	0	0	0
112818	13:10:53	13:14:03	186745	5.0.10.0	994	Rpleas_acq	Same	Rpleas	Bmasked	CS_B	2pleas	distractor2	acq_US_pleas_masked	acq1_masked	1	35	0	0	300	300	0	0	478	50	0	1	0	0	0	1	blank2r.bmp	0	1	+	0	1	B1r.bmp	370	1	blank2r.bmp	590	1	GKQX	590	1	blank2r.bmp	650	1	tolerant	650	0	0	0	0	0	0	0	0	0	0	0	0	0	0	0	0	0	0	0	0	0	0	0	0	0	0	0	0	0	0	0	0	0
112818	13:10:53	13:14:04	188645	5.0.10.0	994	Rpleas_acq	Same	Rpleas	Bmasked	CS_B	2pleas	distractor2	acq_US_unple_masked	acq1_masked	1	36	0	0	300	300	0	0	633	46	0	1	0	0	0	1	blank2r.bmp	0	1	+	0	5	C1r.bmp	370	1	blank2r.bmp	590	1	BMVZ	590	1	blank2r.bmp	650	3	tyrannisch	650	0	0	0	0	0	0	0	0	0	0	0	0	0	0	0	0	0	0	0	0	0	0	0	0	0	0	0	0	0	0	0	0	0
112818	13:10:53	13:15:03	247423	5.0.10.0	994	Rpleas_acq	Same	Rpleas	Bmasked	CS_B	2pleas	distractor2	acq_new_pleas_masked	acq2_masked	2	1	480	1	300	300	0	0	488	50	0	1	0	0	0	1	blank2r.bmp	0	1	+	0	7	C3r.bmp	370	1	blank2r.bmp	590	3	treu	650	1	!	1089	1	!	1159	0	0	0	0	0	0	0	0	0	0	0	0	0	0	0	0	0	0	0	0	0	0	0	0	0	0	0	0	0	0	0	0	0
112818	13:10:53	13:15:05	249453	5.0.10.0	994	Rpleas_acq	Same	Rpleas	Bmasked	CS_B	2pleas	distractor2	acq_US_unple_masked	acq2_masked	2	2	480	1	300	300	0	0	459	46	0	1	0	0	0	1	blank2r.bmp	0	1	+	0	2	B2r.bmp	370	1	blank2r.bmp	590	1	BMVZ	590	1	blank2r.bmp	650	3	tyrannisch	650	1	!	1089	1	!	1139	0	0	0	0	0	0	0	0	0	0	0	0	0	0	0	0	0	0	0	0	0	0	0	0	0	0	0
112818	13:10:53	13:15:07	251693	5.0.10.0	994	Rpleas_acq	Same	Rpleas	Bmasked	CS_B	2pleas	distractor2	acq_US_unple_masked	acq2_masked	2	3	480	1	300	300	0	0	466	50	0	0	0	0	0	1	blank2r.bmp	0	1	+	0	3	B3r.bmp	370	1	blank2r.bmp	590	1	BMVZ	590	1	blank2r.bmp	650	5	eitel	650	1	FEHLER	1449	1	!	1089	1	!	1139	0	0	0	0	0	0	0	0	0	0	0	0	0	0	0	0	0	0	0	0	0	0	0	0
112818	13:10:53	13:15:09	253483	5.0.10.0	994	Rpleas_acq	Same	Rpleas	Bmasked	CS_B	2pleas	distractor2	acq_US_pleas_masked	acq2_masked	2	4	480	1	300	300	0	0	420	50	0	1	0	0	0	1	blank2r.bmp	0	1	+	0	6	C2r.bmp	370	1	blank2r.bmp	590	1	GKQX	590	1	blank2r.bmp	650	5	lachen	650	1	!	1089	1	!	1099	0	0	0	0	0	0	0	0	0	0	0	0	0	0	0	0	0	0	0	0	0	0	0	0	0	0	0
112818	13:10:53	13:15:11	255613	5.0.10.0	994	Rpleas_acq	Same	Rpleas	Bmasked	CS_B	2pleas	distractor2	acq_US_pleas_masked	acq2_masked	2	5	480	0	300	300	0	0	560	50	0	1	0	0	0	1	blank2r.bmp	0	1	+	0	7	C3r.bmp	370	1	blank2r.bmp	590	1	GKQX	590	1	blank2r.bmp	650	6	retten	650	1	!	1089	1	!	-1	0	0	0	0	0	0	0	0	0	0	0	0	0	0	0	0	0	0	0	0	0	0	0	0	0	0	0
112818	13:10:53	13:15:13	257603	5.0.10.0	994	Rpleas_acq	Same	Rpleas	Bmasked	CS_B	2pleas	distractor2	acq_new_unple_masked	acq2_masked	2	6	480	1	300	300	0	0	420	46	0	1	0	0	0	1	blank2r.bmp	0	1	+	0	4	B4r.bmp	370	1	blank2r.bmp	590	6	lasch	650	1	!	1089	1	!	1099	0	0	0	0	0	0	0	0	0	0	0	0	0	0	0	0	0	0	0	0	0	0	0	0	0	0	0	0	0	0	0	0	0
112818	13:10:53	13:15:16	259843	5.0.10.0	994	Rpleas_acq	Same	Rpleas	Bmasked	CS_B	2pleas	distractor2	acq_new_pleas_masked	acq2_masked	2	7	480	1	300	300	0	0	459	46	0	0	0	0	0	1	blank2r.bmp	0	1	+	0	8	C4r.bmp	370	1	blank2r.bmp	590	5	schlau	650	1	FEHLER	1449	1	!	1089	1	!	1139	0	0	0	0	0	0	0	0	0	0	0	0	0	0	0	0	0	0	0	0	0	0	0	0	0	0	0	0	0	0
112818	13:10:53	13:15:18	261893	5.0.10.0	994	Rpleas_acq	Same	Rpleas	Bmasked	CS_B	2pleas	distractor2	acq_new_unple_masked	acq2_masked	2	8	480	1	300	300	0	0	481	50	0	0	0	0	0	1	blank2r.bmp	0	1	+	0	6	C2r.bmp	370	1	blank2r.bmp	590	2	hindern	650	1	FEHLER	1469	1	!	1089	1	!	1159	0	0	0	0	0	0	0	0	0	0	0	0	0	0	0	0	0	0	0	0	0	0	0	0	0	0	0	0	0	0
112818	13:10:53	13:15:20	263963	5.0.10.0	994	Rpleas_acq	Same	Rpleas	Bmasked	CS_B	2pleas	distractor2	acq_new_unple_masked	acq2_masked	2	9	480	1	300	300	0	0	509	50	0	0	0	0	0	1	blank2r.bmp	0	1	+	0	1	B1r.bmp	370	1	blank2r.bmp	590	5	strafen	650	1	FEHLER	1489	1	!	1089	1	!	1180	0	0	0	0	0	0	0	0	0	0	0	0	0	0	0	0	0	0	0	0	0	0	0	0	0	0	0	0	0	0
112818	13:10:53	13:15:22	265873	5.0.10.0	994	Rpleas_acq	Same	Rpleas	Bmasked	CS_B	2pleas	distractor2	acq_new_unple_masked	acq2_masked	2	10	480	1	300	300	0	0	549	46	0	1	0	0	0	1	blank2r.bmp	0	1	+	0	3	B3r.bmp	370	1	blank2r.bmp	590	4	rächen	650	1	!	1089	1	!	1229	0	0	0	0	0	0	0	0	0	0	0	0	0	0	0	0	0	0	0	0	0	0	0	0	0	0	0	0	0	0	0	0	0
112818	13:10:53	13:15:24	267893	5.0.10.0	994	Rpleas_acq	Same	Rpleas	Bmasked	CS_B	2pleas	distractor2	acq_US_unple_masked	acq2_masked	2	11	480	1	300	300	0	0	455	46	0	1	0	0	0	1	blank2r.bmp	0	1	+	0	5	C1r.bmp	370	1	blank2r.bmp	590	1	BMVZ	590	1	blank2r.bmp	650	1	faul	650	1	!	1089	1	!	1129	0	0	0	0	0	0	0	0	0	0	0	0	0	0	0	0	0	0	0	0	0	0	0	0	0	0	0
112818	13:10:53	13:15:26	269922	5.0.10.0	994	Rpleas_acq	Same	Rpleas	Bmasked	CS_B	2pleas	distractor2	acq_US_pleas_masked	acq2_masked	2	12	480	1	300	300	0	0	468	50	0	1	0	0	0	1	blank2r.bmp	0	1	+	0	2	B2r.bmp	370	1	blank2r.bmp	590	1	GKQX	590	1	blank2r.bmp	650	2	spielen	650	1	!	1089	1	!	1139	0	0	0	0	0	0	0	0	0	0	0	0	0	0	0	0	0	0	0	0	0	0	0	0	0	0	0
112818	13:10:53	13:15:28	271942	5.0.10.0	994	Rpleas_acq	Same	Rpleas	Bmasked	CS_B	2pleas	distractor2	acq_US_pleas_masked	acq2_masked	2	13	480	1	300	300	0	0	440	50	0	1	0	0	0	1	blank2r.bmp	0	1	+	0	2	B2r.bmp	370	1	blank2r.bmp	590	1	GKQX	590	1	blank2r.bmp	650	4	helfen	650	1	!	1089	1	!	1119	0	0	0	0	0	0	0	0	0	0	0	0	0	0	0	0	0	0	0	0	0	0	0	0	0	0	0
112818	13:10:53	13:15:30	273932	5.0.10.0	994	Rpleas_acq	Same	Rpleas	Bmasked	CS_B	2pleas	distractor2	acq_US_unple_masked	acq2_masked	2	14	480	1	300	300	0	0	420	46	0	1	0	0	0	1	blank2r.bmp	0	1	+	0	1	B1r.bmp	370	1	blank2r.bmp	590	1	BMVZ	590	1	blank2r.bmp	650	2	schlecht	650	1	!	1089	1	!	1099	0	0	0	0	0	0	0	0	0	0	0	0	0	0	0	0	0	0	0	0	0	0	0	0	0	0	0
112818	13:10:53	13:15:32	276212	5.0.10.0	994	Rpleas_acq	Same	Rpleas	Bmasked	CS_B	2pleas	distractor2	acq_US_pleas_masked	acq2_masked	2	15	480	1	300	300	0	0	498	46	0	0	0	0	0	1	blank2r.bmp	0	1	+	0	5	C1r.bmp	370	1	blank2r.bmp	590	1	GKQX	590	1	blank2r.bmp	650	3	schön	650	1	FEHLER	1479	1	!	1089	1	!	1169	0	0	0	0	0	0	0	0	0	0	0	0	0	0	0	0	0	0	0	0	0	0	0	0
112818	13:10:53	13:15:34	278132	5.0.10.0	994	Rpleas_acq	Same	Rpleas	Bmasked	CS_B	2pleas	distractor2	acq_new_pleas_masked	acq2_masked	2	16	480	0	300	300	0	0	572	50	0	1	0	0	0	1	blank2r.bmp	0	1	+	0	8	C4r.bmp	370	1	blank2r.bmp	590	2	loyal	650	1	!	1089	1	!	-1	0	0	0	0	0	0	0	0	0	0	0	0	0	0	0	0	0	0	0	0	0	0	0	0	0	0	0	0	0	0	0	0	0
112818	13:10:53	13:15:36	280142	5.0.10.0	994	Rpleas_acq	Same	Rpleas	Bmasked	CS_B	2pleas	distractor2	acq_US_unple_masked	acq2_masked	2	17	480	1	300	300	0	0	443	46	0	1	0	0	0	1	blank2r.bmp	0	1	+	0	7	C3r.bmp	370	1	blank2r.bmp	590	1	BMVZ	590	1	blank2r.bmp	650	4	schroff	650	1	!	1089	1	!	1119	0	0	0	0	0	0	0	0	0	0	0	0	0	0	0	0	0	0	0	0	0	0	0	0	0	0	0
112818	13:10:53	13:15:38	282192	5.0.10.0	994	Rpleas_acq	Same	Rpleas	Bmasked	CS_B	2pleas	distractor2	acq_US_unple_masked	acq2_masked	2	18	480	1	300	300	0	0	472	46	0	1	0	0	0	1	blank2r.bmp	0	1	+	0	4	B4r.bmp	370	1	blank2r.bmp	590	1	BMVZ	590	1	blank2r.bmp	650	6	tot	650	1	!	1089	1	!	1149	0	0	0	0	0	0	0	0	0	0	0	0	0	0	0	0	0	0	0	0	0	0	0	0	0	0	0
112818	13:10:53	13:15:40	284242	5.0.10.0	994	Rpleas_acq	Same	Rpleas	Bmasked	CS_B	2pleas	distractor2	acq_US_unple_masked	acq2_masked	2	19	480	1	300	300	0	0	486	46	0	1	0	0	0	1	blank2r.bmp	0	1	+	0	6	C2r.bmp	370	1	blank2r.bmp	590	1	BMVZ	590	1	blank2r.bmp	650	3	tyrannisch	650	1	!	1089	1	!	1159	0	0	0	0	0	0	0	0	0	0	0	0	0	0	0	0	0	0	0	0	0	0	0	0	0	0	0
112818	13:10:53	13:15:42	286242	5.0.10.0	994	Rpleas_acq	Same	Rpleas	Bmasked	CS_B	2pleas	distractor2	acq_US_pleas_masked	acq2_masked	2	20	480	1	300	300	0	0	420	50	0	1	0	0	0	1	blank2r.bmp	0	1	+	0	3	B3r.bmp	370	1	blank2r.bmp	590	1	GKQX	590	1	blank2r.bmp	650	3	schön	650	1	!	1089	1	!	1099	0	0	0	0	0	0	0	0	0	0	0	0	0	0	0	0	0	0	0	0	0	0	0	0	0	0	0
112818	13:10:53	13:15:44	288222	5.0.10.0	994	Rpleas_acq	Same	Rpleas	Bmasked	CS_B	2pleas	distractor2	acq_new_unple_masked	acq2_masked	2	21	480	0	300	300	0	0	411	46	0	1	0	0	0	1	blank2r.bmp	0	1	+	0	1	B1r.bmp	370	1	blank2r.bmp	590	3	fanatisch	650	1	!	-1	1	!	-1	0	0	0	0	0	0	0	0	0	0	0	0	0	0	0	0	0	0	0	0	0	0	0	0	0	0	0	0	0	0	0	0	0
112818	13:10:53	13:15:46	290252	5.0.10.0	994	Rpleas_acq	Same	Rpleas	Bmasked	CS_B	2pleas	distractor2	acq_new_pleas_masked	acq2_masked	2	22	480	1	300	300	0	0	452	50	0	1	0	0	0	1	blank2r.bmp	0	1	+	0	2	B2r.bmp	370	1	blank2r.bmp	590	3	treu	650	1	!	1089	1	!	1129	0	0	0	0	0	0	0	0	0	0	0	0	0	0	0	0	0	0	0	0	0	0	0	0	0	0	0	0	0	0	0	0	0
112818	13:10:53	13:15:48	292252	5.0.10.0	994	Rpleas_acq	Same	Rpleas	Bmasked	CS_B	2pleas	distractor2	acq_new_pleas_masked	acq2_masked	2	23	480	1	300	300	0	0	423	50	0	1	0	0	0	1	blank2r.bmp	0	1	+	0	3	B3r.bmp	370	1	blank2r.bmp	590	4	ehrlich	650	1	!	1089	1	!	1099	0	0	0	0	0	0	0	0	0	0	0	0	0	0	0	0	0	0	0	0	0	0	0	0	0	0	0	0	0	0	0	0	0
112818	13:10:53	13:15:50	294362	5.0.10.0	994	Rpleas_acq	Same	Rpleas	Bmasked	CS_B	2pleas	distractor2	acq_US_pleas_masked	acq2_masked	2	24	480	0	300	300	0	0	341	46	0	0	0	0	0	1	blank2r.bmp	0	1	+	0	7	C3r.bmp	370	1	blank2r.bmp	590	1	GKQX	590	1	blank2r.bmp	650	5	lachen	650	1	FEHLER	1319	1	!	-1	1	!	-1	0	0	0	0	0	0	0	0	0	0	0	0	0	0	0	0	0	0	0	0	0	0	0	0
112818	13:10:53	13:15:52	296432	5.0.10.0	994	Rpleas_acq	Same	Rpleas	Bmasked	CS_B	2pleas	distractor2	acq_US_pleas_masked	acq2_masked	2	25	480	0	300	300	0	0	718	50	0	1	0	0	0	1	blank2r.bmp	0	1	+	0	8	C4r.bmp	370	1	blank2r.bmp	590	1	GKQX	590	1	blank2r.bmp	650	4	helfen	650	1	!	1089	1	!	-1	0	0	0	0	0	0	0	0	0	0	0	0	0	0	0	0	0	0	0	0	0	0	0	0	0	0	0
112818	13:10:53	13:15:54	298322	5.0.10.0	994	Rpleas_acq	Same	Rpleas	Bmasked	CS_B	2pleas	distractor2	acq_new_unple_masked	acq2_masked	2	26	480	0	300	300	0	0	334	46	0	1	0	0	0	1	blank2r.bmp	0	1	+	0	4	B4r.bmp	370	1	blank2r.bmp	590	1	leiden	650	1	!	-1	1	!	-1	0	0	0	0	0	0	0	0	0	0	0	0	0	0	0	0	0	0	0	0	0	0	0	0	0	0	0	0	0	0	0	0	0
112818	13:10:53	13:15:56	300652	5.0.10.0	994	Rpleas_acq	Same	Rpleas	Bmasked	CS_B	2pleas	distractor2	acq_US_unple_masked	acq2_masked	2	27	480	0	300	300	0	0	562	50	0	0	0	0	0	1	blank2r.bmp	0	1	+	0	5	C1r.bmp	370	1	blank2r.bmp	590	1	BMVZ	590	1	blank2r.bmp	650	2	schlecht	650	1	FEHLER	1539	1	!	1089	1	!	-1	0	0	0	0	0	0	0	0	0	0	0	0	0	0	0	0	0	0	0	0	0	0	0	0
112818	13:10:53	13:15:58	302392	5.0.10.0	994	Rpleas_acq	Same	Rpleas	Bmasked	CS_B	2pleas	distractor2	acq_US_pleas_masked	acq2_masked	2	28	480	0	300	300	0	0	396	50	0	1	0	0	0	1	blank2r.bmp	0	1	+	0	6	C2r.bmp	370	1	blank2r.bmp	590	1	GKQX	590	1	blank2r.bmp	650	6	retten	650	1	!	-1	1	!	-1	0	0	0	0	0	0	0	0	0	0	0	0	0	0	0	0	0	0	0	0	0	0	0	0	0	0	0
112818	13:10:53	13:16:00	304512	5.0.10.0	994	Rpleas_acq	Same	Rpleas	Bmasked	CS_B	2pleas	distractor2	acq_US_pleas_masked	acq2_masked	2	29	480	0	300	300	0	0	560	50	0	1	0	0	0	1	blank2r.bmp	0	1	+	0	8	C4r.bmp	370	1	blank2r.bmp	590	1	GKQX	590	1	blank2r.bmp	650	2	spielen	650	1	!	1089	1	!	-1	0	0	0	0	0	0	0	0	0	0	0	0	0	0	0	0	0	0	0	0	0	0	0	0	0	0	0
112818	13:10:53	13:16:03	306772	5.0.10.0	994	Rpleas_acq	Same	Rpleas	Bmasked	CS_B	2pleas	distractor2	acq_new_pleas_masked	acq2_masked	2	30	480	1	300	300	0	0	493	46	0	0	0	0	0	1	blank2r.bmp	0	1	+	0	6	C2r.bmp	370	1	blank2r.bmp	590	1	freundlich	650	1	FEHLER	1479	1	!	1089	1	!	1169	0	0	0	0	0	0	0	0	0	0	0	0	0	0	0	0	0	0	0	0	0	0	0	0	0	0	0	0	0	0
112818	13:10:53	13:16:04	308622	5.0.10.0	994	Rpleas_acq	Same	Rpleas	Bmasked	CS_B	2pleas	distractor2	acq_US_unple_masked	acq2_masked	2	31	480	1	300	300	0	0	488	46	0	1	0	0	0	1	blank2r.bmp	0	1	+	0	3	B3r.bmp	370	1	blank2r.bmp	590	1	BMVZ	590	1	blank2r.bmp	650	1	faul	650	1	!	1089	1	!	1159	0	0	0	0	0	0	0	0	0	0	0	0	0	0	0	0	0	0	0	0	0	0	0	0	0	0	0
112818	13:10:53	13:16:06	310621	5.0.10.0	994	Rpleas_acq	Same	Rpleas	Bmasked	CS_B	2pleas	distractor2	acq_US_unple_masked	acq2_masked	2	32	480	1	300	300	0	0	433	46	0	1	0	0	0	1	blank2r.bmp	0	1	+	0	1	B1r.bmp	370	1	blank2r.bmp	590	1	BMVZ	590	1	blank2r.bmp	650	6	tot	650	1	!	1089	1	!	1109	0	0	0	0	0	0	0	0	0	0	0	0	0	0	0	0	0	0	0	0	0	0	0	0	0	0	0
112818	13:10:53	13:16:09	312771	5.0.10.0	994	Rpleas_acq	Same	Rpleas	Bmasked	CS_B	2pleas	distractor2	acq_new_pleas_masked	acq2_masked	2	33	480	0	300	300	0	0	385	46	0	0	0	0	0	1	blank2r.bmp	0	1	+	0	2	B2r.bmp	370	1	blank2r.bmp	590	6	fair	650	1	FEHLER	1359	1	!	-1	1	!	-1	0	0	0	0	0	0	0	0	0	0	0	0	0	0	0	0	0	0	0	0	0	0	0	0	0	0	0	0	0	0
112818	13:10:53	13:16:10	314651	5.0.10.0	994	Rpleas_acq	Same	Rpleas	Bmasked	CS_B	2pleas	distractor2	acq_new_unple_masked	acq2_masked	2	34	480	1	300	300	0	0	503	46	0	1	0	0	0	1	blank2r.bmp	0	1	+	0	5	C1r.bmp	370	1	blank2r.bmp	590	1	leiden	650	1	!	1089	1	!	1179	0	0	0	0	0	0	0	0	0	0	0	0	0	0	0	0	0	0	0	0	0	0	0	0	0	0	0	0	0	0	0	0	0
112818	13:10:53	13:16:13	316741	5.0.10.0	994	Rpleas_acq	Same	Rpleas	Bmasked	CS_B	2pleas	distractor2	acq_US_unple_masked	acq2_masked	2	35	480	1	300	300	0	0	527	46	0	1	0	0	0	1	blank2r.bmp	0	1	+	0	7	C3r.bmp	370	1	blank2r.bmp	590	1	BMVZ	590	1	blank2r.bmp	650	5	eitel	650	1	!	1089	1	!	1199	0	0	0	0	0	0	0	0	0	0	0	0	0	0	0	0	0	0	0	0	0	0	0	0	0	0	0
112818	13:10:53	13:16:15	318891	5.0.10.0	994	Rpleas_acq	Same	Rpleas	Bmasked	CS_B	2pleas	distractor2	acq_US_pleas_masked	acq2_masked	2	36	480	0	300	300	0	0	583	50	0	1	0	0	0	1	blank2r.bmp	0	1	+	0	4	B4r.bmp	370	1	blank2r.bmp	590	1	GKQX	590	1	blank2r.bmp	650	1	tolerant	650	1	!	1089	1	!	-1	0	0	0	0	0	0	0	0	0	0	0	0	0	0	0	0	0	0	0	0	0	0	0	0	0	0	0
112818	13:10:53	13:16:44	348241	5.0.10.0	994	Rpleas_acq	Same	Rpleas	Bmasked	CS_B	2pleas	distractor2	acq_new_unple_masked	acq3_masked	3	1	453	0	300	300	0	0	6333	46	0	1	0	0	0	1	blank2r.bmp	0	1	+	0	7	C3r.bmp	370	1	blank2r.bmp	590	4	rächen	650	1	!	1069	1	!	-1	0	0	0	0	0	0	0	0	0	0	0	0	0	0	0	0	0	0	0	0	0	0	0	0	0	0	0	0	0	0	0	0	0
112818	13:10:53	13:16:46	350341	5.0.10.0	994	Rpleas_acq	Same	Rpleas	Bmasked	CS_B	2pleas	distractor2	acq_US_unple_masked	acq3_masked	3	2	453	0	300	300	0	0	544	46	0	1	0	0	0	1	blank2r.bmp	0	1	+	0	8	C4r.bmp	370	1	blank2r.bmp	590	1	BMVZ	590	1	blank2r.bmp	650	4	schroff	650	1	!	1069	1	!	-1	0	0	0	0	0	0	0	0	0	0	0	0	0	0	0	0	0	0	0	0	0	0	0	0	0	0	0
112818	13:10:53	13:16:48	352490	5.0.10.0	994	Rpleas_acq	Same	Rpleas	Bmasked	CS_B	2pleas	distractor2	acq_US_unple_masked	acq3_masked	3	3	453	0	300	300	0	0	586	46	0	1	0	0	0	1	blank2r.bmp	0	1	+	0	2	B2r.bmp	370	1	blank2r.bmp	590	1	BMVZ	590	1	blank2r.bmp	650	4	schroff	650	1	!	1069	1	!	-1	0	0	0	0	0	0	0	0	0	0	0	0	0	0	0	0	0	0	0	0	0	0	0	0	0	0	0
112818	13:10:53	13:16:50	354380	5.0.10.0	994	Rpleas_acq	Same	Rpleas	Bmasked	CS_B	2pleas	distractor2	acq_US_pleas_masked	acq3_masked	3	4	453	0	300	300	0	0	338	50	0	1	0	0	0	1	blank2r.bmp	0	1	+	0	6	C2r.bmp	370	1	blank2r.bmp	590	1	GKQX	590	1	blank2r.bmp	650	5	lachen	650	1	!	-1	1	!	-1	0	0	0	0	0	0	0	0	0	0	0	0	0	0	0	0	0	0	0	0	0	0	0	0	0	0	0
112818	13:10:53	13:16:52	356380	5.0.10.0	994	Rpleas_acq	Same	Rpleas	Bmasked	CS_B	2pleas	distractor2	acq_US_pleas_masked	acq3_masked	3	5	453	1	300	300	0	0	426	50	0	1	0	0	0	1	blank2r.bmp	0	1	+	0	5	C1r.bmp	370	1	blank2r.bmp	590	1	GKQX	590	1	blank2r.bmp	650	3	schön	650	1	!	1069	1	!	1099	0	0	0	0	0	0	0	0	0	0	0	0	0	0	0	0	0	0	0	0	0	0	0	0	0	0	0
112818	13:10:53	13:16:54	358490	5.0.10.0	994	Rpleas_acq	Same	Rpleas	Bmasked	CS_B	2pleas	distractor2	acq_US_unple_masked	acq3_masked	3	6	453	0	300	300	0	0	548	46	0	1	0	0	0	1	blank2r.bmp	0	1	+	0	3	B3r.bmp	370	1	blank2r.bmp	590	1	BMVZ	590	1	blank2r.bmp	650	2	schlecht	650	1	!	1069	1	!	-1	0	0	0	0	0	0	0	0	0	0	0	0	0	0	0	0	0	0	0	0	0	0	0	0	0	0	0
112818	13:10:53	13:16:56	360490	5.0.10.0	994	Rpleas_acq	Same	Rpleas	Bmasked	CS_B	2pleas	distractor2	acq_new_pleas_masked	acq3_masked	3	7	453	1	300	300	0	0	435	50	0	1	0	0	0	1	blank2r.bmp	0	1	+	0	4	B4r.bmp	370	1	blank2r.bmp	590	6	fair	650	1	!	1069	1	!	1109	0	0	0	0	0	0	0	0	0	0	0	0	0	0	0	0	0	0	0	0	0	0	0	0	0	0	0	0	0	0	0	0	0
112818	13:10:53	13:16:58	362530	5.0.10.0	994	Rpleas_acq	Same	Rpleas	Bmasked	CS_B	2pleas	distractor2	acq_US_pleas_masked	acq3_masked	3	8	453	1	300	300	0	0	478	50	0	1	0	0	0	1	blank2r.bmp	0	1	+	0	1	B1r.bmp	370	1	blank2r.bmp	590	1	GKQX	590	1	blank2r.bmp	650	4	helfen	650	1	!	1069	1	!	1149	0	0	0	0	0	0	0	0	0	0	0	0	0	0	0	0	0	0	0	0	0	0	0	0	0	0	0
112818	13:10:53	13:17:00	364650	5.0.10.0	994	Rpleas_acq	Same	Rpleas	Bmasked	CS_B	2pleas	distractor2	acq_new_pleas_masked	acq3_masked	3	9	453	0	300	300	0	0	568	50	0	1	0	0	0	1	blank2r.bmp	0	1	+	0	2	B2r.bmp	370	1	blank2r.bmp	590	3	treu	650	1	!	1069	1	!	-1	0	0	0	0	0	0	0	0	0	0	0	0	0	0	0	0	0	0	0	0	0	0	0	0	0	0	0	0	0	0	0	0	0
112818	13:10:53	13:17:02	366620	5.0.10.0	994	Rpleas_acq	Same	Rpleas	Bmasked	CS_B	2pleas	distractor2	acq_US_pleas_masked	acq3_masked	3	10	453	1	300	300	0	0	400	50	0	1	0	0	0	1	blank2r.bmp	0	1	+	0	4	B4r.bmp	370	1	blank2r.bmp	590	1	GKQX	590	1	blank2r.bmp	650	2	spielen	650	1	!	1069	1	!	1079	0	0	0	0	0	0	0	0	0	0	0	0	0	0	0	0	0	0	0	0	0	0	0	0	0	0	0
112818	13:10:53	13:17:04	368650	5.0.10.0	994	Rpleas_acq	Same	Rpleas	Bmasked	CS_B	2pleas	distractor2	acq_new_unple_masked	acq3_masked	3	11	453	1	300	300	0	0	468	46	0	1	0	0	0	1	blank2r.bmp	0	1	+	0	6	C2r.bmp	370	1	blank2r.bmp	590	2	hindern	650	1	!	1069	1	!	1139	0	0	0	0	0	0	0	0	0	0	0	0	0	0	0	0	0	0	0	0	0	0	0	0	0	0	0	0	0	0	0	0	0
112818	13:10:53	13:17:06	370650	5.0.10.0	994	Rpleas_acq	Same	Rpleas	Bmasked	CS_B	2pleas	distractor2	acq_US_unple_masked	acq3_masked	3	12	453	1	300	300	0	0	439	46	0	1	0	0	0	1	blank2r.bmp	0	1	+	0	8	C4r.bmp	370	1	blank2r.bmp	590	1	BMVZ	590	1	blank2r.bmp	650	6	tot	650	1	!	1069	1	!	1109	0	0	0	0	0	0	0	0	0	0	0	0	0	0	0	0	0	0	0	0	0	0	0	0	0	0	0
112818	13:10:53	13:17:08	372670	5.0.10.0	994	Rpleas_acq	Same	Rpleas	Bmasked	CS_B	2pleas	distractor2	acq_new_unple_masked	acq3_masked	3	13	453	1	300	300	0	0	443	46	0	1	0	0	0	1	blank2r.bmp	0	1	+	0	3	B3r.bmp	370	1	blank2r.bmp	590	6	lasch	650	1	!	1069	1	!	1119	0	0	0	0	0	0	0	0	0	0	0	0	0	0	0	0	0	0	0	0	0	0	0	0	0	0	0	0	0	0	0	0	0
112818	13:10:53	13:17:10	374670	5.0.10.0	994	Rpleas_acq	Same	Rpleas	Bmasked	CS_B	2pleas	distractor2	acq_US_pleas_masked	acq3_masked	3	14	453	0	300	300	0	0	235	46	0	0	0	0	0	1	blank2r.bmp	0	1	+	0	7	C3r.bmp	370	1	blank2r.bmp	590	1	GKQX	590	1	blank2r.bmp	650	6	retten	650	1	FEHLER	1209	1	!	-1	1	!	-1	0	0	0	0	0	0	0	0	0	0	0	0	0	0	0	0	0	0	0	0	0	0	0	0
112818	13:10:53	13:17:12	376610	5.0.10.0	994	Rpleas_acq	Same	Rpleas	Bmasked	CS_B	2pleas	distractor2	acq_US_unple_masked	acq3_masked	3	15	453	0	300	300	0	0	585	46	0	1	0	0	0	1	blank2r.bmp	0	1	+	0	5	C1r.bmp	370	1	blank2r.bmp	590	1	BMVZ	590	1	blank2r.bmp	650	5	eitel	650	1	!	1069	1	!	-1	0	0	0	0	0	0	0	0	0	0	0	0	0	0	0	0	0	0	0	0	0	0	0	0	0	0	0
112818	13:10:53	13:17:15	378770	5.0.10.0	994	Rpleas_acq	Same	Rpleas	Bmasked	CS_B	2pleas	distractor2	acq_US_unple_masked	acq3_masked	3	16	453	0	300	300	0	0	597	46	0	1	0	0	0	1	blank2r.bmp	0	1	+	0	1	B1r.bmp	370	1	blank2r.bmp	590	1	BMVZ	590	1	blank2r.bmp	650	1	faul	650	1	!	1069	1	!	-1	0	0	0	0	0	0	0	0	0	0	0	0	0	0	0	0	0	0	0	0	0	0	0	0	0	0	0
112818	13:10:53	13:17:17	380800	5.0.10.0	994	Rpleas_acq	Same	Rpleas	Bmasked	CS_B	2pleas	distractor2	acq_US_unple_masked	acq3_masked	3	17	453	1	300	300	0	0	460	46	0	1	0	0	0	1	blank2r.bmp	0	1	+	0	3	B3r.bmp	370	1	blank2r.bmp	590	1	BMVZ	590	1	blank2r.bmp	650	3	tyrannisch	650	1	!	1069	1	!	1139	0	0	0	0	0	0	0	0	0	0	0	0	0	0	0	0	0	0	0	0	0	0	0	0	0	0	0
112818	13:10:53	13:17:19	382920	5.0.10.0	994	Rpleas_acq	Same	Rpleas	Bmasked	CS_B	2pleas	distractor2	acq_US_pleas_masked	acq3_masked	3	18	453	0	300	300	0	0	353	46	0	0	0	0	0	1	blank2r.bmp	0	1	+	0	8	C4r.bmp	370	1	blank2r.bmp	590	1	GKQX	590	1	blank2r.bmp	650	1	tolerant	650	1	FEHLER	1329	1	!	-1	1	!	-1	0	0	0	0	0	0	0	0	0	0	0	0	0	0	0	0	0	0	0	0	0	0	0	0
112818	13:10:53	13:17:21	384850	5.0.10.0	994	Rpleas_acq	Same	Rpleas	Bmasked	CS_B	2pleas	distractor2	acq_US_pleas_masked	acq3_masked	3	19	453	0	300	300	0	0	570	50	0	1	0	0	0	1	blank2r.bmp	0	1	+	0	7	C3r.bmp	370	1	blank2r.bmp	590	1	GKQX	590	1	blank2r.bmp	650	2	spielen	650	1	!	1069	1	!	-1	0	0	0	0	0	0	0	0	0	0	0	0	0	0	0	0	0	0	0	0	0	0	0	0	0	0	0
112818	13:10:53	13:17:23	386860	5.0.10.0	994	Rpleas_acq	Same	Rpleas	Bmasked	CS_B	2pleas	distractor2	acq_US_unple_masked	acq3_masked	3	20	453	1	300	300	0	0	435	46	0	1	0	0	0	1	blank2r.bmp	0	1	+	0	6	C2r.bmp	370	1	blank2r.bmp	590	1	BMVZ	590	1	blank2r.bmp	650	1	faul	650	1	!	1069	1	!	1109	0	0	0	0	0	0	0	0	0	0	0	0	0	0	0	0	0	0	0	0	0	0	0	0	0	0	0
112818	13:10:53	13:17:25	389010	5.0.10.0	994	Rpleas_acq	Same	Rpleas	Bmasked	CS_B	2pleas	distractor2	acq_US_pleas_masked	acq3_masked	3	21	453	0	300	300	0	0	379	46	0	0	0	0	0	1	blank2r.bmp	0	1	+	0	1	B1r.bmp	370	1	blank2r.bmp	590	1	GKQX	590	1	blank2r.bmp	650	1	tolerant	650	1	FEHLER	1359	1	!	-1	1	!	-1	0	0	0	0	0	0	0	0	0	0	0	0	0	0	0	0	0	0	0	0	0	0	0	0
112818	13:10:53	13:17:27	391539	5.0.10.0	994	Rpleas_acq	Same	Rpleas	Bmasked	CS_B	2pleas	distractor2	acq_new_unple_masked	acq3_masked	3	22	453	0	300	300	0	0	1163	46	0	1	0	0	0	1	blank2r.bmp	0	1	+	0	2	B2r.bmp	370	1	blank2r.bmp	590	5	strafen	650	1	!	1069	1	!	-1	0	0	0	0	0	0	0	0	0	0	0	0	0	0	0	0	0	0	0	0	0	0	0	0	0	0	0	0	0	0	0	0	0
112818	13:10:53	13:17:29	393689	5.0.10.0	994	Rpleas_acq	Same	Rpleas	Bmasked	CS_B	2pleas	distractor2	acq_new_pleas_masked	acq3_masked	3	23	453	0	300	300	0	0	581	50	0	1	0	0	0	1	blank2r.bmp	0	1	+	0	4	B4r.bmp	370	1	blank2r.bmp	590	4	ehrlich	650	1	!	1069	1	!	-1	0	0	0	0	0	0	0	0	0	0	0	0	0	0	0	0	0	0	0	0	0	0	0	0	0	0	0	0	0	0	0	0	0
112818	13:10:53	13:17:32	395769	5.0.10.0	994	Rpleas_acq	Same	Rpleas	Bmasked	CS_B	2pleas	distractor2	acq_new_pleas_masked	acq3_masked	3	24	453	1	300	300	0	0	518	50	0	1	0	0	0	1	blank2r.bmp	0	1	+	0	5	C1r.bmp	370	1	blank2r.bmp	590	1	freundlich	650	1	!	1069	1	!	1189	0	0	0	0	0	0	0	0	0	0	0	0	0	0	0	0	0	0	0	0	0	0	0	0	0	0	0	0	0	0	0	0	0
112818	13:10:53	13:17:34	397799	5.0.10.0	994	Rpleas_acq	Same	Rpleas	Bmasked	CS_B	2pleas	distractor2	acq_new_pleas_masked	acq3_masked	3	25	453	1	300	300	0	0	453	50	0	1	0	0	0	1	blank2r.bmp	0	1	+	0	1	B1r.bmp	370	1	blank2r.bmp	590	5	schlau	650	1	!	1069	1	!	1129	0	0	0	0	0	0	0	0	0	0	0	0	0	0	0	0	0	0	0	0	0	0	0	0	0	0	0	0	0	0	0	0	0
112818	13:10:53	13:17:36	399879	5.0.10.0	994	Rpleas_acq	Same	Rpleas	Bmasked	CS_B	2pleas	distractor2	acq_US_unple_masked	acq3_masked	3	26	453	1	300	300	0	0	510	46	0	1	0	0	0	1	blank2r.bmp	0	1	+	0	2	B2r.bmp	370	1	blank2r.bmp	590	1	BMVZ	590	1	blank2r.bmp	650	6	tot	650	1	!	1069	1	!	1189	0	0	0	0	0	0	0	0	0	0	0	0	0	0	0	0	0	0	0	0	0	0	0	0	0	0	0
112818	13:10:53	13:17:38	401939	5.0.10.0	994	Rpleas_acq	Same	Rpleas	Bmasked	CS_B	2pleas	distractor2	acq_US_pleas_masked	acq3_masked	3	27	453	1	300	300	0	0	492	50	0	1	0	0	0	1	blank2r.bmp	0	1	+	0	8	C4r.bmp	370	1	blank2r.bmp	590	1	GKQX	590	1	blank2r.bmp	650	4	helfen	650	1	!	1069	1	!	1169	0	0	0	0	0	0	0	0	0	0	0	0	0	0	0	0	0	0	0	0	0	0	0	0	0	0	0
112818	13:10:53	13:17:40	403889	5.0.10.0	994	Rpleas_acq	Same	Rpleas	Bmasked	CS_B	2pleas	distractor2	acq_new_pleas_masked	acq3_masked	3	28	453	0	300	300	0	0	390	50	0	1	0	0	0	1	blank2r.bmp	0	1	+	0	5	C1r.bmp	370	1	blank2r.bmp	590	2	loyal	650	1	!	-1	1	!	-1	0	0	0	0	0	0	0	0	0	0	0	0	0	0	0	0	0	0	0	0	0	0	0	0	0	0	0	0	0	0	0	0	0
112818	13:10:53	13:17:42	405809	5.0.10.0	994	Rpleas_acq	Same	Rpleas	Bmasked	CS_B	2pleas	distractor2	acq_new_unple_masked	acq3_masked	3	29	453	0	300	300	0	0	368	46	0	1	0	0	0	1	blank2r.bmp	0	1	+	0	3	B3r.bmp	370	1	blank2r.bmp	590	3	fanatisch	650	1	!	-1	1	!	-1	0	0	0	0	0	0	0	0	0	0	0	0	0	0	0	0	0	0	0	0	0	0	0	0	0	0	0	0	0	0	0	0	0
112818	13:10:53	13:17:44	407899	5.0.10.0	994	Rpleas_acq	Same	Rpleas	Bmasked	CS_B	2pleas	distractor2	acq_US_unple_masked	acq3_masked	3	30	453	0	300	300	0	0	535	46	0	1	0	0	0	1	blank2r.bmp	0	1	+	0	6	C2r.bmp	370	1	blank2r.bmp	590	1	BMVZ	590	1	blank2r.bmp	650	3	tyrannisch	650	1	!	1069	1	!	-1	0	0	0	0	0	0	0	0	0	0	0	0	0	0	0	0	0	0	0	0	0	0	0	0	0	0	0
112818	13:10:53	13:17:46	409909	5.0.10.0	994	Rpleas_acq	Same	Rpleas	Bmasked	CS_B	2pleas	distractor2	acq_new_unple_masked	acq3_masked	3	31	453	0	300	300	0	0	248	50	0	0	0	0	0	1	blank2r.bmp	0	1	+	0	4	B4r.bmp	370	1	blank2r.bmp	590	6	lasch	650	1	FEHLER	1219	1	!	-1	1	!	-1	0	0	0	0	0	0	0	0	0	0	0	0	0	0	0	0	0	0	0	0	0	0	0	0	0	0	0	0	0	0
112818	13:10:53	13:17:47	411629	5.0.10.0	994	Rpleas_acq	Same	Rpleas	Bmasked	CS_B	2pleas	distractor2	acq_US_unple_masked	acq3_masked	3	32	453	0	300	300	0	0	364	46	0	1	0	0	0	1	blank2r.bmp	0	1	+	0	7	C3r.bmp	370	1	blank2r.bmp	590	1	BMVZ	590	1	blank2r.bmp	650	2	schlecht	650	1	!	-1	1	!	-1	0	0	0	0	0	0	0	0	0	0	0	0	0	0	0	0	0	0	0	0	0	0	0	0	0	0	0
112818	13:10:53	13:17:49	413599	5.0.10.0	994	Rpleas_acq	Same	Rpleas	Bmasked	CS_B	2pleas	distractor2	acq_US_pleas_masked	acq3_masked	3	33	453	1	300	300	0	0	405	50	0	1	0	0	0	1	blank2r.bmp	0	1	+	0	1	B1r.bmp	370	1	blank2r.bmp	590	1	GKQX	590	1	blank2r.bmp	650	5	lachen	650	1	!	1069	1	!	1079	0	0	0	0	0	0	0	0	0	0	0	0	0	0	0	0	0	0	0	0	0	0	0	0	0	0	0
112818	13:10:53	13:17:51	415699	5.0.10.0	994	Rpleas_acq	Same	Rpleas	Bmasked	CS_B	2pleas	distractor2	acq_US_pleas_masked	acq3_masked	3	34	453	0	300	300	0	0	530	50	0	1	0	0	0	1	blank2r.bmp	0	1	+	0	2	B2r.bmp	370	1	blank2r.bmp	590	1	GKQX	590	1	blank2r.bmp	650	6	retten	650	1	!	1069	1	!	-1	0	0	0	0	0	0	0	0	0	0	0	0	0	0	0	0	0	0	0	0	0	0	0	0	0	0	0
112818	13:10:53	13:17:53	417639	5.0.10.0	994	Rpleas_acq	Same	Rpleas	Bmasked	CS_B	2pleas	distractor2	acq_US_unple_masked	acq3_masked	3	35	453	0	300	300	0	0	386	46	0	1	0	0	0	1	blank2r.bmp	0	1	+	0	3	B3r.bmp	370	1	blank2r.bmp	590	1	BMVZ	590	1	blank2r.bmp	650	5	eitel	650	1	!	-1	1	!	-1	0	0	0	0	0	0	0	0	0	0	0	0	0	0	0	0	0	0	0	0	0	0	0	0	0	0	0
112818	13:10:53	13:17:55	419659	5.0.10.0	994	Rpleas_acq	Same	Rpleas	Bmasked	CS_B	2pleas	distractor2	acq_US_pleas_masked	acq3_masked	3	36	453	1	300	300	0	0	446	50	0	1	0	0	0	1	blank2r.bmp	0	1	+	0	5	C1r.bmp	370	1	blank2r.bmp	590	1	GKQX	590	1	blank2r.bmp	650	3	schön	650	1	!	1069	1	!	1119	0	0	0	0	0	0	0	0	0	0	0	0	0	0	0	0	0	0	0	0	0	0	0	0	0	0	0
112818	13:10:53	13:18:18	441808	5.0.10.0	994	Rpleas_acq	Same	Rpleas	Bmasked	CS_B	2pleas	distractor2	acq_US_unple_masked	acq45_masked	4	1	400	0	300	300	0	0	480	46	0	1	0	0	0	1	blank2r.bmp	0	1	+	0	4	B4r.bmp	370	1	blank2r.bmp	590	1	BMVZ	590	1	blank2r.bmp	650	4	schroff	650	1	!	1009	1	!	-1	0	0	0	0	0	0	0	0	0	0	0	0	0	0	0	0	0	0	0	0	0	0	0	0	0	0	0
112818	13:10:53	13:18:20	443768	5.0.10.0	994	Rpleas_acq	Same	Rpleas	Bmasked	CS_B	2pleas	distractor2	acq_US_pleas_masked	acq45_masked	4	2	400	1	300	300	0	0	397	50	0	1	0	0	0	1	blank2r.bmp	0	1	+	0	8	C4r.bmp	370	1	blank2r.bmp	590	1	GKQX	590	1	blank2r.bmp	650	3	schön	650	1	!	1009	1	!	1069	0	0	0	0	0	0	0	0	0	0	0	0	0	0	0	0	0	0	0	0	0	0	0	0	0	0	0
112818	13:10:53	13:18:22	445828	5.0.10.0	994	Rpleas_acq	Same	Rpleas	Bmasked	CS_B	2pleas	distractor2	acq_US_pleas_masked	acq45_masked	4	3	400	0	300	300	0	0	493	50	0	1	0	0	0	1	blank2r.bmp	0	1	+	0	7	C3r.bmp	370	1	blank2r.bmp	590	1	GKQX	590	1	blank2r.bmp	650	6	retten	650	1	!	1009	1	!	-1	0	0	0	0	0	0	0	0	0	0	0	0	0	0	0	0	0	0	0	0	0	0	0	0	0	0	0
112818	13:10:53	13:18:24	447868	5.0.10.0	994	Rpleas_acq	Same	Rpleas	Bmasked	CS_B	2pleas	distractor2	acq_US_unple_masked	acq45_masked	4	4	400	1	300	300	0	0	464	50	0	0	0	0	0	1	blank2r.bmp	0	1	+	0	6	C2r.bmp	370	1	blank2r.bmp	590	1	BMVZ	590	1	blank2r.bmp	650	5	eitel	650	1	!	1009	1	!	1139	0	0	0	0	0	0	0	0	0	0	0	0	0	0	0	0	0	0	0	0	0	0	0	0	0	0	0
112818	13:10:53	13:18:26	449908	5.0.10.0	994	Rpleas_acq	Same	Rpleas	Bmasked	CS_B	2pleas	distractor2	acq_US_unple_masked	acq45_masked	4	5	400	0	300	300	0	0	487	46	0	1	0	0	0	1	blank2r.bmp	0	1	+	0	7	C3r.bmp	370	1	blank2r.bmp	590	1	BMVZ	590	1	blank2r.bmp	650	1	faul	650	1	!	1009	1	!	-1	0	0	0	0	0	0	0	0	0	0	0	0	0	0	0	0	0	0	0	0	0	0	0	0	0	0	0
112818	13:10:53	13:18:28	451938	5.0.10.0	994	Rpleas_acq	Same	Rpleas	Bmasked	CS_B	2pleas	distractor2	acq_US_unple_masked	acq45_masked	4	6	400	1	300	300	0	0	461	46	0	1	0	0	0	1	blank2r.bmp	0	1	+	0	8	C4r.bmp	370	1	blank2r.bmp	590	1	BMVZ	590	1	blank2r.bmp	650	3	tyrannisch	650	1	!	1009	1	!	1139	0	0	0	0	0	0	0	0	0	0	0	0	0	0	0	0	0	0	0	0	0	0	0	0	0	0	0
112818	13:10:53	13:18:30	453958	5.0.10.0	994	Rpleas_acq	Same	Rpleas	Bmasked	CS_B	2pleas	distractor2	acq_US_unple_masked	acq45_masked	4	7	400	1	300	300	0	0	451	46	0	1	0	0	0	1	blank2r.bmp	0	1	+	0	3	B3r.bmp	370	1	blank2r.bmp	590	1	BMVZ	590	1	blank2r.bmp	650	4	schroff	650	1	!	1009	1	!	1129	0	0	0	0	0	0	0	0	0	0	0	0	0	0	0	0	0	0	0	0	0	0	0	0	0	0	0
112818	13:10:53	13:18:32	455908	5.0.10.0	994	Rpleas_acq	Same	Rpleas	Bmasked	CS_B	2pleas	distractor2	acq_US_unple_masked	acq45_masked	4	8	400	1	300	300	0	0	379	50	0	0	0	0	0	1	blank2r.bmp	0	1	+	0	4	B4r.bmp	370	1	blank2r.bmp	590	1	BMVZ	590	1	blank2r.bmp	650	2	schlecht	650	1	!	1009	1	!	1049	0	0	0	0	0	0	0	0	0	0	0	0	0	0	0	0	0	0	0	0	0	0	0	0	0	0	0
112818	13:10:53	13:18:34	457898	5.0.10.0	994	Rpleas_acq	Same	Rpleas	Bmasked	CS_B	2pleas	distractor2	acq_US_pleas_masked	acq45_masked	4	9	400	1	300	300	0	0	411	46	0	0	0	0	0	1	blank2r.bmp	0	1	+	0	6	C2r.bmp	370	1	blank2r.bmp	590	1	GKQX	590	1	blank2r.bmp	650	1	tolerant	650	1	!	1009	1	!	1089	0	0	0	0	0	0	0	0	0	0	0	0	0	0	0	0	0	0	0	0	0	0	0	0	0	0	0
112818	13:10:53	13:18:36	459938	5.0.10.0	994	Rpleas_acq	Same	Rpleas	Bmasked	CS_B	2pleas	distractor2	acq_US_pleas_masked	acq45_masked	4	10	400	0	300	300	0	0	488	50	0	1	0	0	0	1	blank2r.bmp	0	1	+	0	1	B1r.bmp	370	1	blank2r.bmp	590	1	GKQX	590	1	blank2r.bmp	650	2	spielen	650	1	!	1009	1	!	-1	0	0	0	0	0	0	0	0	0	0	0	0	0	0	0	0	0	0	0	0	0	0	0	0	0	0	0
112818	13:10:53	13:18:38	462018	5.0.10.0	994	Rpleas_acq	Same	Rpleas	Bmasked	CS_B	2pleas	distractor2	acq_US_pleas_masked	acq45_masked	4	11	400	0	300	300	0	0	526	50	0	1	0	0	0	1	blank2r.bmp	0	1	+	0	2	B2r.bmp	370	1	blank2r.bmp	590	1	GKQX	590	1	blank2r.bmp	650	5	lachen	650	1	!	1009	1	!	-1	0	0	0	0	0	0	0	0	0	0	0	0	0	0	0	0	0	0	0	0	0	0	0	0	0	0	0
112818	13:10:53	13:18:40	464058	5.0.10.0	994	Rpleas_acq	Same	Rpleas	Bmasked	CS_B	2pleas	distractor2	acq_US_unple_masked	acq45_masked	4	12	400	1	300	300	0	0	465	46	0	1	0	0	0	1	blank2r.bmp	0	1	+	0	5	C1r.bmp	370	1	blank2r.bmp	590	1	BMVZ	590	1	blank2r.bmp	650	6	tot	650	1	!	1009	1	!	1139	0	0	0	0	0	0	0	0	0	0	0	0	0	0	0	0	0	0	0	0	0	0	0	0	0	0	0
112818	13:10:53	13:18:42	466048	5.0.10.0	994	Rpleas_acq	Same	Rpleas	Bmasked	CS_B	2pleas	distractor2	acq_US_pleas_masked	acq45_masked	4	13	400	1	300	300	0	0	423	50	0	1	0	0	0	1	blank2r.bmp	0	1	+	0	4	B4r.bmp	370	1	blank2r.bmp	590	1	GKQX	590	1	blank2r.bmp	650	4	helfen	650	1	!	1009	1	!	1099	0	0	0	0	0	0	0	0	0	0	0	0	0	0	0	0	0	0	0	0	0	0	0	0	0	0	0
112818	13:10:53	13:18:44	468068	5.0.10.0	994	Rpleas_acq	Same	Rpleas	Bmasked	CS_B	2pleas	distractor2	acq_US_pleas_masked	acq45_masked	4	14	400	1	300	300	0	0	441	50	0	1	0	0	0	1	blank2r.bmp	0	1	+	0	6	C2r.bmp	370	1	blank2r.bmp	590	1	GKQX	590	1	blank2r.bmp	650	6	retten	650	1	!	1009	1	!	1119	0	0	0	0	0	0	0	0	0	0	0	0	0	0	0	0	0	0	0	0	0	0	0	0	0	0	0
112818	13:10:53	13:18:46	470108	5.0.10.0	994	Rpleas_acq	Same	Rpleas	Bmasked	CS_B	2pleas	distractor2	acq_US_unple_masked	acq45_masked	4	15	400	0	300	300	0	0	480	46	0	1	0	0	0	1	blank2r.bmp	0	1	+	0	7	C3r.bmp	370	1	blank2r.bmp	590	1	BMVZ	590	1	blank2r.bmp	650	1	faul	650	1	!	1009	1	!	-1	0	0	0	0	0	0	0	0	0	0	0	0	0	0	0	0	0	0	0	0	0	0	0	0	0	0	0
112818	13:10:53	13:18:48	472147	5.0.10.0	994	Rpleas_acq	Same	Rpleas	Bmasked	CS_B	2pleas	distractor2	acq_US_pleas_masked	acq45_masked	4	16	400	0	300	300	0	0	480	50	0	1	0	0	0	1	blank2r.bmp	0	1	+	0	1	B1r.bmp	370	1	blank2r.bmp	590	1	GKQX	590	1	blank2r.bmp	650	1	tolerant	650	1	!	1009	1	!	-1	0	0	0	0	0	0	0	0	0	0	0	0	0	0	0	0	0	0	0	0	0	0	0	0	0	0	0
112818	13:10:53	13:18:50	474187	5.0.10.0	994	Rpleas_acq	Same	Rpleas	Bmasked	CS_B	2pleas	distractor2	acq_US_unple_masked	acq45_masked	4	17	400	0	300	300	0	0	486	50	0	0	0	0	0	1	blank2r.bmp	0	1	+	0	3	B3r.bmp	370	1	blank2r.bmp	590	1	BMVZ	590	1	blank2r.bmp	650	5	eitel	650	1	!	1009	1	!	-1	0	0	0	0	0	0	0	0	0	0	0	0	0	0	0	0	0	0	0	0	0	0	0	0	0	0	0
112818	13:10:53	13:18:52	476167	5.0.10.0	994	Rpleas_acq	Same	Rpleas	Bmasked	CS_B	2pleas	distractor2	acq_US_pleas_masked	acq45_masked	4	18	400	1	300	300	0	0	408	50	0	1	0	0	0	1	blank2r.bmp	0	1	+	0	2	B2r.bmp	370	1	blank2r.bmp	590	1	GKQX	590	1	blank2r.bmp	650	2	spielen	650	1	!	1009	1	!	1079	0	0	0	0	0	0	0	0	0	0	0	0	0	0	0	0	0	0	0	0	0	0	0	0	0	0	0
112818	13:10:53	13:18:54	478167	5.0.10.0	994	Rpleas_acq	Same	Rpleas	Bmasked	CS_B	2pleas	distractor2	acq_US_pleas_masked	acq45_masked	4	19	400	1	300	300	0	0	427	50	0	1	0	0	0	1	blank2r.bmp	0	1	+	0	5	C1r.bmp	370	1	blank2r.bmp	590	1	GKQX	590	1	blank2r.bmp	650	4	helfen	650	1	!	1009	1	!	1099	0	0	0	0	0	0	0	0	0	0	0	0	0	0	0	0	0	0	0	0	0	0	0	0	0	0	0
112818	13:10:53	13:18:56	480187	5.0.10.0	994	Rpleas_acq	Same	Rpleas	Bmasked	CS_B	2pleas	distractor2	acq_US_pleas_masked	acq45_masked	4	20	400	1	300	300	0	0	448	50	0	1	0	0	0	1	blank2r.bmp	0	1	+	0	8	C4r.bmp	370	1	blank2r.bmp	590	1	GKQX	590	1	blank2r.bmp	650	5	lachen	650	1	!	1009	1	!	1119	0	0	0	0	0	0	0	0	0	0	0	0	0	0	0	0	0	0	0	0	0	0	0	0	0	0	0
112818	13:10:53	13:18:58	482197	5.0.10.0	994	Rpleas_acq	Same	Rpleas	Bmasked	CS_B	2pleas	distractor2	acq_US_pleas_masked	acq45_masked	4	21	400	1	300	300	0	0	442	50	0	1	0	0	0	1	blank2r.bmp	0	1	+	0	4	B4r.bmp	370	1	blank2r.bmp	590	1	GKQX	590	1	blank2r.bmp	650	3	schön	650	1	!	1009	1	!	1119	0	0	0	0	0	0	0	0	0	0	0	0	0	0	0	0	0	0	0	0	0	0	0	0	0	0	0
112818	13:10:53	13:19:00	484157	5.0.10.0	994	Rpleas_acq	Same	Rpleas	Bmasked	CS_B	2pleas	distractor2	acq_US_unple_masked	acq45_masked	4	22	400	1	300	300	0	0	391	46	0	1	0	0	0	1	blank2r.bmp	0	1	+	0	3	B3r.bmp	370	1	blank2r.bmp	590	1	BMVZ	590	1	blank2r.bmp	650	6	tot	650	1	!	1009	1	!	1069	0	0	0	0	0	0	0	0	0	0	0	0	0	0	0	0	0	0	0	0	0	0	0	0	0	0	0
112818	13:10:53	13:19:02	486237	5.0.10.0	994	Rpleas_acq	Same	Rpleas	Bmasked	CS_B	2pleas	distractor2	acq_US_unple_masked	acq45_masked	4	23	400	0	300	300	0	0	512	46	0	1	0	0	0	1	blank2r.bmp	0	1	+	0	2	B2r.bmp	370	1	blank2r.bmp	590	1	BMVZ	590	1	blank2r.bmp	650	2	schlecht	650	1	!	1009	1	!	-1	0	0	0	0	0	0	0	0	0	0	0	0	0	0	0	0	0	0	0	0	0	0	0	0	0	0	0
112818	13:10:53	13:19:04	488207	5.0.10.0	994	Rpleas_acq	Same	Rpleas	Bmasked	CS_B	2pleas	distractor2	acq_US_unple_masked	acq45_masked	4	24	400	1	300	300	0	0	400	46	0	1	0	0	0	1	blank2r.bmp	0	1	+	0	8	C4r.bmp	370	1	blank2r.bmp	590	1	BMVZ	590	1	blank2r.bmp	650	4	schroff	650	1	!	1009	1	!	1079	0	0	0	0	0	0	0	0	0	0	0	0	0	0	0	0	0	0	0	0	0	0	0	0	0	0	0
112818	13:10:53	13:19:06	490187	5.0.10.0	994	Rpleas_acq	Same	Rpleas	Bmasked	CS_B	2pleas	distractor2	acq_US_unple_masked	acq45_masked	4	25	400	1	300	300	0	0	409	46	0	1	0	0	0	1	blank2r.bmp	0	1	+	0	6	C2r.bmp	370	1	blank2r.bmp	590	1	BMVZ	590	1	blank2r.bmp	650	3	tyrannisch	650	1	!	1009	1	!	1089	0	0	0	0	0	0	0	0	0	0	0	0	0	0	0	0	0	0	0	0	0	0	0	0	0	0	0
112818	13:10:53	13:19:08	492107	5.0.10.0	994	Rpleas_acq	Same	Rpleas	Bmasked	CS_B	2pleas	distractor2	acq_US_unple_masked	acq45_masked	4	26	400	1	300	300	0	0	358	46	0	1	0	0	0	1	blank2r.bmp	0	1	+	0	5	C1r.bmp	370	1	blank2r.bmp	590	1	BMVZ	590	1	blank2r.bmp	650	1	faul	650	1	!	1009	1	!	1029	0	0	0	0	0	0	0	0	0	0	0	0	0	0	0	0	0	0	0	0	0	0	0	0	0	0	0
112818	13:10:53	13:19:10	493887	5.0.10.0	994	Rpleas_acq	Same	Rpleas	Bmasked	CS_B	2pleas	distractor2	acq_US_pleas_masked	acq45_masked	4	27	400	0	300	300	0	0	224	46	0	0	0	0	0	1	blank2r.bmp	0	1	+	0	1	B1r.bmp	370	1	blank2r.bmp	590	1	GKQX	590	1	blank2r.bmp	650	2	spielen	650	1	!	-1	1	!	-1	0	0	0	0	0	0	0	0	0	0	0	0	0	0	0	0	0	0	0	0	0	0	0	0	0	0	0
112818	13:10:53	13:19:12	495927	5.0.10.0	994	Rpleas_acq	Same	Rpleas	Bmasked	CS_B	2pleas	distractor2	acq_US_unple_masked	acq45_masked	4	28	400	0	300	300	0	0	482	46	0	1	0	0	0	1	blank2r.bmp	0	1	+	0	7	C3r.bmp	370	1	blank2r.bmp	590	1	BMVZ	590	1	blank2r.bmp	650	4	schroff	650	1	!	1009	1	!	-1	0	0	0	0	0	0	0	0	0	0	0	0	0	0	0	0	0	0	0	0	0	0	0	0	0	0	0
112818	13:10:53	13:19:14	497967	5.0.10.0	994	Rpleas_acq	Same	Rpleas	Bmasked	CS_B	2pleas	distractor2	acq_US_unple_masked	acq45_masked	4	29	400	0	300	300	0	0	483	46	0	1	0	0	0	1	blank2r.bmp	0	1	+	0	8	C4r.bmp	370	1	blank2r.bmp	590	1	BMVZ	590	1	blank2r.bmp	650	5	eitel	650	1	!	1009	1	!	-1	0	0	0	0	0	0	0	0	0	0	0	0	0	0	0	0	0	0	0	0	0	0	0	0	0	0	0
112818	13:10:53	13:19:16	499887	5.0.10.0	994	Rpleas_acq	Same	Rpleas	Bmasked	CS_B	2pleas	distractor2	acq_US_pleas_masked	acq45_masked	4	30	400	1	300	300	0	0	358	50	0	1	0	0	0	1	blank2r.bmp	0	1	+	0	5	C1r.bmp	370	1	blank2r.bmp	590	1	GKQX	590	1	blank2r.bmp	650	4	helfen	650	1	!	1009	1	!	1029	0	0	0	0	0	0	0	0	0	0	0	0	0	0	0	0	0	0	0	0	0	0	0	0	0	0	0
112818	13:10:53	13:19:18	501767	5.0.10.0	994	Rpleas_acq	Same	Rpleas	Bmasked	CS_B	2pleas	distractor2	acq_US_pleas_masked	acq45_masked	4	31	400	0	300	300	0	0	319	50	0	1	0	0	0	1	blank2r.bmp	0	1	+	0	1	B1r.bmp	370	1	blank2r.bmp	590	1	GKQX	590	1	blank2r.bmp	650	6	retten	650	1	!	-1	1	!	-1	0	0	0	0	0	0	0	0	0	0	0	0	0	0	0	0	0	0	0	0	0	0	0	0	0	0	0
112818	13:10:53	13:19:20	503797	5.0.10.0	994	Rpleas_acq	Same	Rpleas	Bmasked	CS_B	2pleas	distractor2	acq_US_unple_masked	acq45_masked	4	32	400	1	300	300	0	0	454	46	0	1	0	0	0	1	blank2r.bmp	0	1	+	0	2	B2r.bmp	370	1	blank2r.bmp	590	1	BMVZ	590	1	blank2r.bmp	650	3	tyrannisch	650	1	!	1009	1	!	1129	0	0	0	0	0	0	0	0	0	0	0	0	0	0	0	0	0	0	0	0	0	0	0	0	0	0	0
112818	13:10:53	13:19:22	505777	5.0.10.0	994	Rpleas_acq	Same	Rpleas	Bmasked	CS_B	2pleas	distractor2	acq_US_pleas_masked	acq45_masked	4	33	400	1	300	300	0	0	402	50	0	1	0	0	0	1	blank2r.bmp	0	1	+	0	6	C2r.bmp	370	1	blank2r.bmp	590	1	GKQX	590	1	blank2r.bmp	650	5	lachen	650	1	!	1009	1	!	1079	0	0	0	0	0	0	0	0	0	0	0	0	0	0	0	0	0	0	0	0	0	0	0	0	0	0	0
112818	13:10:53	13:19:24	507807	5.0.10.0	994	Rpleas_acq	Same	Rpleas	Bmasked	CS_B	2pleas	distractor2	acq_US_pleas_masked	acq45_masked	4	34	400	1	300	300	0	0	455	50	0	1	0	0	0	1	blank2r.bmp	0	1	+	0	7	C3r.bmp	370	1	blank2r.bmp	590	1	GKQX	590	1	blank2r.bmp	650	3	schön	650	1	!	1009	1	!	1129	0	0	0	0	0	0	0	0	0	0	0	0	0	0	0	0	0	0	0	0	0	0	0	0	0	0	0
112818	13:10:53	13:19:26	509797	5.0.10.0	994	Rpleas_acq	Same	Rpleas	Bmasked	CS_B	2pleas	distractor2	acq_US_unple_masked	acq45_masked	4	35	400	1	300	300	0	0	418	46	0	1	0	0	0	1	blank2r.bmp	0	1	+	0	4	B4r.bmp	370	1	blank2r.bmp	590	1	BMVZ	590	1	blank2r.bmp	650	6	tot	650	1	!	1009	1	!	1089	0	0	0	0	0	0	0	0	0	0	0	0	0	0	0	0	0	0	0	0	0	0	0	0	0	0	0
112818	13:10:53	13:19:28	511777	5.0.10.0	994	Rpleas_acq	Same	Rpleas	Bmasked	CS_B	2pleas	distractor2	acq_US_pleas_masked	acq45_masked	4	36	400	1	300	300	0	0	411	46	0	0	0	0	0	1	blank2r.bmp	0	1	+	0	3	B3r.bmp	370	1	blank2r.bmp	590	1	GKQX	590	1	blank2r.bmp	650	1	tolerant	650	1	!	1009	1	!	1089	0	0	0	0	0	0	0	0	0	0	0	0	0	0	0	0	0	0	0	0	0	0	0	0	0	0	0
112818	13:10:53	13:19:52	536266	5.0.10.0	994	Rpleas_acq	Same	Rpleas	Bmasked	CS_B	2pleas	distractor2	acq_US_unple_masked	acq45_masked	5	1	400	0	300	300	0	0	580	46	0	1	0	0	0	1	blank2r.bmp	0	1	+	0	3	B3r.bmp	370	1	blank2r.bmp	590	1	BMVZ	590	1	blank2r.bmp	650	2	schlecht	650	1	!	1010	1	!	-1	0	0	0	0	0	0	0	0	0	0	0	0	0	0	0	0	0	0	0	0	0	0	0	0	0	0	0
112818	13:10:53	13:19:54	538286	5.0.10.0	994	Rpleas_acq	Same	Rpleas	Bmasked	CS_B	2pleas	distractor2	acq_US_unple_masked	acq45_masked	5	2	400	1	300	300	0	0	455	50	0	0	0	0	0	1	blank2r.bmp	0	1	+	0	4	B4r.bmp	370	1	blank2r.bmp	590	1	BMVZ	590	1	blank2r.bmp	650	5	eitel	650	1	!	1009	1	!	1129	0	0	0	0	0	0	0	0	0	0	0	0	0	0	0	0	0	0	0	0	0	0	0	0	0	0	0
112818	13:10:53	13:19:56	540366	5.0.10.0	994	Rpleas_acq	Same	Rpleas	Bmasked	CS_B	2pleas	distractor2	acq_US_pleas_masked	acq45_masked	5	3	400	0	300	300	0	0	513	50	0	1	0	0	0	1	blank2r.bmp	0	1	+	0	5	C1r.bmp	370	1	blank2r.bmp	590	1	GKQX	590	1	blank2r.bmp	650	6	retten	650	1	!	1009	1	!	-1	0	0	0	0	0	0	0	0	0	0	0	0	0	0	0	0	0	0	0	0	0	0	0	0	0	0	0
112818	13:10:53	13:19:58	542376	5.0.10.0	994	Rpleas_acq	Same	Rpleas	Bmasked	CS_B	2pleas	distractor2	acq_US_unple_masked	acq45_masked	5	4	400	1	300	300	0	0	442	46	0	1	0	0	0	1	blank2r.bmp	0	1	+	0	2	B2r.bmp	370	1	blank2r.bmp	590	1	BMVZ	590	1	blank2r.bmp	650	6	tot	650	1	!	1009	1	!	1119	0	0	0	0	0	0	0	0	0	0	0	0	0	0	0	0	0	0	0	0	0	0	0	0	0	0	0
112818	13:10:53	13:20:00	544456	5.0.10.0	994	Rpleas_acq	Same	Rpleas	Bmasked	CS_B	2pleas	distractor2	acq_US_unple_masked	acq45_masked	5	5	400	0	300	300	0	0	517	46	0	1	0	0	0	1	blank2r.bmp	0	1	+	0	6	C2r.bmp	370	1	blank2r.bmp	590	1	BMVZ	590	1	blank2r.bmp	650	4	schroff	650	1	!	1009	1	!	-1	0	0	0	0	0	0	0	0	0	0	0	0	0	0	0	0	0	0	0	0	0	0	0	0	0	0	0
112818	13:10:53	13:20:02	546456	5.0.10.0	994	Rpleas_acq	Same	Rpleas	Bmasked	CS_B	2pleas	distractor2	acq_US_pleas_masked	acq45_masked	5	6	400	1	300	300	0	0	432	50	0	1	0	0	0	1	blank2r.bmp	0	1	+	0	8	C4r.bmp	370	1	blank2r.bmp	590	1	GKQX	590	1	blank2r.bmp	650	5	lachen	650	1	!	1009	1	!	1109	0	0	0	0	0	0	0	0	0	0	0	0	0	0	0	0	0	0	0	0	0	0	0	0	0	0	0
112818	13:10:53	13:20:04	548476	5.0.10.0	994	Rpleas_acq	Same	Rpleas	Bmasked	CS_B	2pleas	distractor2	acq_US_pleas_masked	acq45_masked	5	7	400	1	300	300	0	0	450	46	0	0	0	0	0	1	blank2r.bmp	0	1	+	0	7	C3r.bmp	370	1	blank2r.bmp	590	1	GKQX	590	1	blank2r.bmp	650	3	schön	650	1	!	1009	1	!	1129	0	0	0	0	0	0	0	0	0	0	0	0	0	0	0	0	0	0	0	0	0	0	0	0	0	0	0
112818	13:10:53	13:20:06	550366	5.0.10.0	994	Rpleas_acq	Same	Rpleas	Bmasked	CS_B	2pleas	distractor2	acq_US_unple_masked	acq45_masked	5	8	400	0	300	300	0	0	321	46	0	1	0	0	0	1	blank2r.bmp	0	1	+	0	1	B1r.bmp	370	1	blank2r.bmp	590	1	BMVZ	590	1	blank2r.bmp	650	1	faul	650	1	!	-1	1	!	-1	0	0	0	0	0	0	0	0	0	0	0	0	0	0	0	0	0	0	0	0	0	0	0	0	0	0	0
112818	13:10:53	13:20:08	552335	5.0.10.0	994	Rpleas_acq	Same	Rpleas	Bmasked	CS_B	2pleas	distractor2	acq_US_pleas_masked	acq45_masked	5	9	400	1	300	300	0	0	407	50	0	1	0	0	0	1	blank2r.bmp	0	1	+	0	8	C4r.bmp	370	1	blank2r.bmp	590	1	GKQX	590	1	blank2r.bmp	650	4	helfen	650	1	!	1009	1	!	1079	0	0	0	0	0	0	0	0	0	0	0	0	0	0	0	0	0	0	0	0	0	0	0	0	0	0	0
112818	13:10:53	13:20:10	554365	5.0.10.0	994	Rpleas_acq	Same	Rpleas	Bmasked	CS_B	2pleas	distractor2	acq_US_unple_masked	acq45_masked	5	10	400	1	300	300	0	0	465	46	0	1	0	0	0	1	blank2r.bmp	0	1	+	0	5	C1r.bmp	370	1	blank2r.bmp	590	1	BMVZ	590	1	blank2r.bmp	650	3	tyrannisch	650	1	!	1009	1	!	1139	0	0	0	0	0	0	0	0	0	0	0	0	0	0	0	0	0	0	0	0	0	0	0	0	0	0	0
112818	13:10:53	13:20:12	556425	5.0.10.0	994	Rpleas_acq	Same	Rpleas	Bmasked	CS_B	2pleas	distractor2	acq_US_unple_masked	acq45_masked	5	11	400	0	300	300	0	0	501	50	0	0	0	0	0	1	blank2r.bmp	0	1	+	0	1	B1r.bmp	370	1	blank2r.bmp	590	1	BMVZ	590	1	blank2r.bmp	650	2	schlecht	650	1	!	1009	1	!	-1	0	0	0	0	0	0	0	0	0	0	0	0	0	0	0	0	0	0	0	0	0	0	0	0	0	0	0
112818	13:10:53	13:20:14	558565	5.0.10.0	994	Rpleas_acq	Same	Rpleas	Bmasked	CS_B	2pleas	distractor2	acq_US_pleas_masked	acq45_masked	5	12	400	0	300	300	0	0	581	50	0	1	0	0	0	1	blank2r.bmp	0	1	+	0	2	B2r.bmp	370	1	blank2r.bmp	590	1	GKQX	590	1	blank2r.bmp	650	1	tolerant	650	1	!	1009	1	!	-1	0	0	0	0	0	0	0	0	0	0	0	0	0	0	0	0	0	0	0	0	0	0	0	0	0	0	0
112818	13:10:53	13:20:16	560635	5.0.10.0	994	Rpleas_acq	Same	Rpleas	Bmasked	CS_B	2pleas	distractor2	acq_US_pleas_masked	acq45_masked	5	13	400	0	300	300	0	0	526	50	0	1	0	0	0	1	blank2r.bmp	0	1	+	0	6	C2r.bmp	370	1	blank2r.bmp	590	1	GKQX	590	1	blank2r.bmp	650	2	spielen	650	1	!	1009	1	!	-1	0	0	0	0	0	0	0	0	0	0	0	0	0	0	0	0	0	0	0	0	0	0	0	0	0	0	0
112818	13:10:53	13:20:19	562755	5.0.10.0	994	Rpleas_acq	Same	Rpleas	Bmasked	CS_B	2pleas	distractor2	acq_US_pleas_masked	acq45_masked	5	14	400	0	300	300	0	0	563	46	0	0	0	0	0	1	blank2r.bmp	0	1	+	0	7	C3r.bmp	370	1	blank2r.bmp	590	1	GKQX	590	1	blank2r.bmp	650	6	retten	650	1	!	1009	1	!	-1	0	0	0	0	0	0	0	0	0	0	0	0	0	0	0	0	0	0	0	0	0	0	0	0	0	0	0
112818	13:10:53	13:20:20	564665	5.0.10.0	994	Rpleas_acq	Same	Rpleas	Bmasked	CS_B	2pleas	distractor2	acq_US_unple_masked	acq45_masked	5	15	400	1	300	300	0	0	340	46	0	1	0	0	0	1	blank2r.bmp	0	1	+	0	4	B4r.bmp	370	1	blank2r.bmp	590	1	BMVZ	590	1	blank2r.bmp	650	3	tyrannisch	650	1	!	1009	1	!	1019	0	0	0	0	0	0	0	0	0	0	0	0	0	0	0	0	0	0	0	0	0	0	0	0	0	0	0
112818	13:10:53	13:20:22	566625	5.0.10.0	994	Rpleas_acq	Same	Rpleas	Bmasked	CS_B	2pleas	distractor2	acq_US_unple_masked	acq45_masked	5	16	400	1	300	300	0	0	399	50	0	0	0	0	0	1	blank2r.bmp	0	1	+	0	3	B3r.bmp	370	1	blank2r.bmp	590	1	BMVZ	590	1	blank2r.bmp	650	5	eitel	650	1	!	1009	1	!	1079	0	0	0	0	0	0	0	0	0	0	0	0	0	0	0	0	0	0	0	0	0	0	0	0	0	0	0
112818	13:10:53	13:20:24	568665	5.0.10.0	994	Rpleas_acq	Same	Rpleas	Bmasked	CS_B	2pleas	distractor2	acq_US_pleas_masked	acq45_masked	5	17	400	0	300	300	0	0	480	50	0	1	0	0	0	1	blank2r.bmp	0	1	+	0	4	B4r.bmp	370	1	blank2r.bmp	590	1	GKQX	590	1	blank2r.bmp	650	3	schön	650	1	!	1009	1	!	-1	0	0	0	0	0	0	0	0	0	0	0	0	0	0	0	0	0	0	0	0	0	0	0	0	0	0	0
112818	13:10:53	13:20:26	570625	5.0.10.0	994	Rpleas_acq	Same	Rpleas	Bmasked	CS_B	2pleas	distractor2	acq_US_pleas_masked	acq45_masked	5	18	400	1	300	300	0	0	395	50	0	1	0	0	0	1	blank2r.bmp	0	1	+	0	6	C2r.bmp	370	1	blank2r.bmp	590	1	GKQX	590	1	blank2r.bmp	650	4	helfen	650	1	!	1009	1	!	1069	0	0	0	0	0	0	0	0	0	0	0	0	0	0	0	0	0	0	0	0	0	0	0	0	0	0	0
112818	13:10:53	13:20:28	572675	5.0.10.0	994	Rpleas_acq	Same	Rpleas	Bmasked	CS_B	2pleas	distractor2	acq_US_unple_masked	acq45_masked	5	19	400	0	300	300	0	0	480	46	0	1	0	0	0	1	blank2r.bmp	0	1	+	0	1	B1r.bmp	370	1	blank2r.bmp	590	1	BMVZ	590	1	blank2r.bmp	650	4	schroff	650	1	!	1009	1	!	-1	0	0	0	0	0	0	0	0	0	0	0	0	0	0	0	0	0	0	0	0	0	0	0	0	0	0	0
112818	13:10:53	13:20:30	574625	5.0.10.0	994	Rpleas_acq	Same	Rpleas	Bmasked	CS_B	2pleas	distractor2	acq_US_pleas_masked	acq45_masked	5	20	400	1	300	300	0	0	388	50	0	1	0	0	0	1	blank2r.bmp	0	1	+	0	8	C4r.bmp	370	1	blank2r.bmp	590	1	GKQX	590	1	blank2r.bmp	650	5	lachen	650	1	!	1009	1	!	1059	0	0	0	0	0	0	0	0	0	0	0	0	0	0	0	0	0	0	0	0	0	0	0	0	0	0	0
112818	13:10:53	13:20:32	576665	5.0.10.0	994	Rpleas_acq	Same	Rpleas	Bmasked	CS_B	2pleas	distractor2	acq_US_pleas_masked	acq45_masked	5	21	400	0	300	300	0	0	480	50	0	1	0	0	0	1	blank2r.bmp	0	1	+	0	3	B3r.bmp	370	1	blank2r.bmp	590	1	GKQX	590	1	blank2r.bmp	650	1	tolerant	650	1	!	1009	1	!	-1	0	0	0	0	0	0	0	0	0	0	0	0	0	0	0	0	0	0	0	0	0	0	0	0	0	0	0
112818	13:10:53	13:20:34	578675	5.0.10.0	994	Rpleas_acq	Same	Rpleas	Bmasked	CS_B	2pleas	distractor2	acq_US_unple_masked	acq45_masked	5	22	400	1	300	300	0	0	430	46	0	1	0	0	0	1	blank2r.bmp	0	1	+	0	2	B2r.bmp	370	1	blank2r.bmp	590	1	BMVZ	590	1	blank2r.bmp	650	6	tot	650	1	!	1009	1	!	1109	0	0	0	0	0	0	0	0	0	0	0	0	0	0	0	0	0	0	0	0	0	0	0	0	0	0	0
112818	13:10:53	13:20:36	580685	5.0.10.0	994	Rpleas_acq	Same	Rpleas	Bmasked	CS_B	2pleas	distractor2	acq_US_unple_masked	acq45_masked	5	23	400	1	300	300	0	0	434	46	0	1	0	0	0	1	blank2r.bmp	0	1	+	0	7	C3r.bmp	370	1	blank2r.bmp	590	1	BMVZ	590	1	blank2r.bmp	650	1	faul	650	1	!	1009	1	!	1109	0	0	0	0	0	0	0	0	0	0	0	0	0	0	0	0	0	0	0	0	0	0	0	0	0	0	0
112818	13:10:53	13:20:39	582775	5.0.10.0	994	Rpleas_acq	Same	Rpleas	Bmasked	CS_B	2pleas	distractor2	acq_US_unple_masked	acq45_masked	5	24	400	0	300	300	0	0	529	46	0	1	0	0	0	1	blank2r.bmp	0	1	+	0	5	C1r.bmp	370	1	blank2r.bmp	590	1	BMVZ	590	1	blank2r.bmp	650	2	schlecht	650	1	!	1009	1	!	-1	0	0	0	0	0	0	0	0	0	0	0	0	0	0	0	0	0	0	0	0	0	0	0	0	0	0	0
112818	13:10:53	13:20:40	584645	5.0.10.0	994	Rpleas_acq	Same	Rpleas	Bmasked	CS_B	2pleas	distractor2	acq_US_pleas_masked	acq45_masked	5	25	400	0	300	300	0	0	313	50	0	1	0	0	0	1	blank2r.bmp	0	1	+	0	1	B1r.bmp	370	1	blank2r.bmp	590	1	GKQX	590	1	blank2r.bmp	650	2	spielen	650	1	!	-1	1	!	-1	0	0	0	0	0	0	0	0	0	0	0	0	0	0	0	0	0	0	0	0	0	0	0	0	0	0	0
112818	13:10:53	13:20:42	586685	5.0.10.0	994	Rpleas_acq	Same	Rpleas	Bmasked	CS_B	2pleas	distractor2	acq_US_unple_masked	acq45_masked	5	26	400	0	300	300	0	0	485	46	0	1	0	0	0	1	blank2r.bmp	0	1	+	0	5	C1r.bmp	370	1	blank2r.bmp	590	1	BMVZ	590	1	blank2r.bmp	650	5	eitel	650	1	!	1009	1	!	-1	0	0	0	0	0	0	0	0	0	0	0	0	0	0	0	0	0	0	0	0	0	0	0	0	0	0	0
112818	13:10:53	13:20:44	588635	5.0.10.0	994	Rpleas_acq	Same	Rpleas	Bmasked	CS_B	2pleas	distractor2	acq_US_unple_masked	acq45_masked	5	27	400	1	300	300	0	0	383	46	0	1	0	0	0	1	blank2r.bmp	0	1	+	0	4	B4r.bmp	370	1	blank2r.bmp	590	1	BMVZ	590	1	blank2r.bmp	650	4	schroff	650	1	!	1009	1	!	1059	0	0	0	0	0	0	0	0	0	0	0	0	0	0	0	0	0	0	0	0	0	0	0	0	0	0	0
112818	13:10:53	13:20:46	590545	5.0.10.0	994	Rpleas_acq	Same	Rpleas	Bmasked	CS_B	2pleas	distractor2	acq_US_unple_masked	acq45_masked	5	28	400	1	300	300	0	0	346	46	0	1	0	0	0	1	blank2r.bmp	0	1	+	0	2	B2r.bmp	370	1	blank2r.bmp	590	1	BMVZ	590	1	blank2r.bmp	650	6	tot	650	1	!	1009	1	!	1019	0	0	0	0	0	0	0	0	0	0	0	0	0	0	0	0	0	0	0	0	0	0	0	0	0	0	0
112818	13:10:53	13:20:48	592545	5.0.10.0	994	Rpleas_acq	Same	Rpleas	Bmasked	CS_B	2pleas	distractor2	acq_US_pleas_masked	acq45_masked	5	29	400	1	300	300	0	0	436	50	0	1	0	0	0	1	blank2r.bmp	0	1	+	0	3	B3r.bmp	370	1	blank2r.bmp	590	1	GKQX	590	1	blank2r.bmp	650	5	lachen	650	1	!	1009	1	!	1109	0	0	0	0	0	0	0	0	0	0	0	0	0	0	0	0	0	0	0	0	0	0	0	0	0	0	0
112818	13:10:53	13:20:50	594484	5.0.10.0	994	Rpleas_acq	Same	Rpleas	Bmasked	CS_B	2pleas	distractor2	acq_US_pleas_masked	acq45_masked	5	30	400	1	300	300	0	0	367	50	0	1	0	0	0	1	blank2r.bmp	0	1	+	0	6	C2r.bmp	370	1	blank2r.bmp	590	1	GKQX	590	1	blank2r.bmp	650	6	retten	650	1	!	1009	1	!	1039	0	0	0	0	0	0	0	0	0	0	0	0	0	0	0	0	0	0	0	0	0	0	0	0	0	0	0
112818	13:10:53	13:20:52	596444	5.0.10.0	994	Rpleas_acq	Same	Rpleas	Bmasked	CS_B	2pleas	distractor2	acq_US_pleas_masked	acq45_masked	5	31	400	1	300	300	0	0	396	46	0	0	0	0	0	1	blank2r.bmp	0	1	+	0	7	C3r.bmp	370	1	blank2r.bmp	590	1	GKQX	590	1	blank2r.bmp	650	1	tolerant	650	1	!	1009	1	!	1069	0	0	0	0	0	0	0	0	0	0	0	0	0	0	0	0	0	0	0	0	0	0	0	0	0	0	0
112818	13:10:53	13:20:54	598484	5.0.10.0	994	Rpleas_acq	Same	Rpleas	Bmasked	CS_B	2pleas	distractor2	acq_US_pleas_masked	acq45_masked	5	32	400	1	300	300	0	0	466	50	0	1	0	0	0	1	blank2r.bmp	0	1	+	0	8	C4r.bmp	370	1	blank2r.bmp	590	1	GKQX	590	1	blank2r.bmp	650	2	spielen	650	1	!	1009	1	!	1139	0	0	0	0	0	0	0	0	0	0	0	0	0	0	0	0	0	0	0	0	0	0	0	0	0	0	0
112818	13:10:53	13:20:56	600524	5.0.10.0	994	Rpleas_acq	Same	Rpleas	Bmasked	CS_B	2pleas	distractor2	acq_US_unple_masked	acq45_masked	5	33	400	0	300	300	0	0	482	46	0	1	0	0	0	1	blank2r.bmp	0	1	+	0	2	B2r.bmp	370	1	blank2r.bmp	590	1	BMVZ	590	1	blank2r.bmp	650	3	tyrannisch	650	1	!	1009	1	!	-1	0	0	0	0	0	0	0	0	0	0	0	0	0	0	0	0	0	0	0	0	0	0	0	0	0	0	0
112818	13:10:53	13:20:58	602514	5.0.10.0	994	Rpleas_acq	Same	Rpleas	Bmasked	CS_B	2pleas	distractor2	acq_US_pleas_masked	acq45_masked	5	34	400	1	300	300	0	0	422	50	0	1	0	0	0	1	blank2r.bmp	0	1	+	0	5	C1r.bmp	370	1	blank2r.bmp	590	1	GKQX	590	1	blank2r.bmp	650	4	helfen	650	1	!	1009	1	!	1099	0	0	0	0	0	0	0	0	0	0	0	0	0	0	0	0	0	0	0	0	0	0	0	0	0	0	0
112818	13:10:53	13:21:00	604464	5.0.10.0	994	Rpleas_acq	Same	Rpleas	Bmasked	CS_B	2pleas	distractor2	acq_US_pleas_masked	acq45_masked	5	35	400	1	300	300	0	0	374	50	0	1	0	0	0	1	blank2r.bmp	0	1	+	0	6	C2r.bmp	370	1	blank2r.bmp	590	1	GKQX	590	1	blank2r.bmp	650	3	schön	650	1	!	1009	1	!	1049	0	0	0	0	0	0	0	0	0	0	0	0	0	0	0	0	0	0	0	0	0	0	0	0	0	0	0
112818	13:10:53	13:21:02	606604	5.0.10.0	994	Rpleas_acq	Same	Rpleas	Bmasked	CS_B	2pleas	distractor2	acq_US_unple_masked	acq45_masked	5	36	400	0	300	300	0	0	576	46	0	1	0	0	0	1	blank2r.bmp	0	1	+	0	1	B1r.bmp	370	1	blank2r.bmp	590	1	BMVZ	590	1	blank2r.bmp	650	1	faul	650	1	!	1009	1	!	-1	0	0	0	0	0	0	0	0	0	0	0	0	0	0	0	0	0	0	0	0	0	0	0	0	0	0	0
112818	13:10:53	13:21:40	644553	5.0.10.0	994	Rpleas_acq	Same	Rpleas	Bmasked	CS_B	2pleas	distractor2	EvalRating_firsttwo	EvalRating_firsttwo	6	1	0	0	300	300	0	0	18569	line	-9,765625	0	0	0	0	1	eraser	1	1	Wie angenehm oder unangenehm finden Sie die  Buchstabenkette distractor_B1?	1	1	leftborder	1	1	rightborder	1	1	line	1	1	Unangenehm	1	1	Angenehm	1	0	0	0	0	0	0	0	0	0	0	0	0	0	0	0	0	0	0	0	0	0	0	0	0	0	0	0	0	0	0	0	0	0
112818	13:10:53	13:21:47	651573	5.0.10.0	994	Rpleas_acq	Same	Rpleas	Bmasked	CS_B	2pleas	distractor2	EvalRating_lastfour	EvalRating_lastfour	7	1	0	0	300	300	0	0	4561	line	49,31640625	0	0	0	0	1	eraser	0	2	Wie angenehm oder unangenehm finden Sie die  Buchstabenkette GKQX?	0	1	leftborder	0	1	rightborder	0	1	line	0	1	Unangenehm	0	1	Angenehm	0	0	0	0	0	0	0	0	0	0	0	0	0	0	0	0	0	0	0	0	0	0	0	0	0	0	0	0	0	0	0	0	0	0
112818	13:10:53	13:21:50	653963	5.0.10.0	994	Rpleas_acq	Same	Rpleas	Bmasked	CS_B	2pleas	distractor2	blank_screen	EvalRating_lastfour	7	3	0	0	300	300	0	0	0	0	49,31640625	0	0	0	0	1	eraser	0	0	0	0	0	0	0	0	0	0	0	0	0	0	0	0	0	0	0	0	0	0	0	0	0	0	0	0	0	0	0	0	0	0	0	0	0	0	0	0	0	0	0	0	0	0	0	0	0	0	0	0
112818	13:10:53	13:21:53	656933	5.0.10.0	994	Rpleas_acq	Same	Rpleas	Bmasked	CS_B	2pleas	distractor2	EvalRating_lastfour	EvalRating_lastfour	7	4	0	0	300	300	0	0	2376	line	-13,916015625	0	0	0	0	1	eraser	1	1	Wie angenehm oder unangenehm finden Sie die  Buchstabenkette BMVZ?	1	1	leftborder	1	1	rightborder	1	1	line	1	1	Unangenehm	1	1	Angenehm	1	0	0	0	0	0	0	0	0	0	0	0	0	0	0	0	0	0	0	0	0	0	0	0	0	0	0	0	0	0	0	0	0	0
112818	13:10:53	13:21:55	659333	5.0.10.0	994	Rpleas_acq	Same	Rpleas	Bmasked	CS_B	2pleas	distractor2	blank_screen	EvalRating_lastfour	7	6	0	0	300	300	0	0	0	0	-13,916015625	0	0	0	0	1	eraser	0	0	0	0	0	0	0	0	0	0	0	0	0	0	0	0	0	0	0	0	0	0	0	0	0	0	0	0	0	0	0	0	0	0	0	0	0	0	0	0	0	0	0	0	0	0	0	0	0	0	0	0
112818	13:10:53	13:22:08	671713	5.0.10.0	994	Rpleas_acq	Same	Rpleas	Bmasked	CS_B	2pleas	distractor2	EvalRating_lastfour	EvalRating_lastfour	7	7	0	0	300	300	0	0	11793	line	-32,958984375	0	0	0	0	1	eraser	0	3	Wie angenehm oder unangenehm finden Sie die  Buchstabenkette distractor_B2?	0	1	leftborder	0	1	rightborder	0	1	line	0	1	Unangenehm	0	1	Angenehm	0	0	0	0	0	0	0	0	0	0	0	0	0	0	0	0	0	0	0	0	0	0	0	0	0	0	0	0	0	0	0	0	0	0
112818	13:10:53	13:22:44	707842	5.0.10.0	994	Rpleas_acq	Same	Rpleas	Bmasked	CS_B	2pleas	distractor2	AMP_CSpleas	AMP1_masked	8	1	0	0	300	300	0	0	1047	50	-32,958984375	1	0	0	0	1	blank2r.bmp	0	1	GKQX	0	1	blank2r.bmp	60	107	pic107.bmp	150	1	whitenoise.bmp	230	0	0	0	0	0	0	0	0	0	0	0	0	0	0	0	0	0	0	0	0	0	0	0	0	0	0	0	0	0	0	0	0	0	0	0	0	0	0	0
112818	13:10:53	13:22:45	709532	5.0.10.0	994	Rpleas_acq	Same	Rpleas	Bmasked	CS_B	2pleas	distractor2	AMP_CSunple	AMP1_masked	8	2	0	0	300	300	0	0	848	50	-32,958984375	0	0	0	0	1	blank2r.bmp	0	1	BMVZ	0	1	blank2r.bmp	60	66	pic66.bmp	150	1	whitenoise.bmp	230	0	0	0	0	0	0	0	0	0	0	0	0	0	0	0	0	0	0	0	0	0	0	0	0	0	0	0	0	0	0	0	0	0	0	0	0	0	0	0
112818	13:10:53	13:22:47	711372	5.0.10.0	994	Rpleas_acq	Same	Rpleas	Bmasked	CS_B	2pleas	distractor2	AMP_distractor	AMP1_masked	8	3	0	0	300	300	0	0	1002	50	-32,958984375	0	0	0	0	1	blank2r.bmp	0	1	distractor_B2	0	1	blank2r.bmp	60	9	pic9.bmp	150	1	whitenoise.bmp	230	0	0	0	0	0	0	0	0	0	0	0	0	0	0	0	0	0	0	0	0	0	0	0	0	0	0	0	0	0	0	0	0	0	0	0	0	0	0	0
112818	13:10:53	13:22:49	712752	5.0.10.0	994	Rpleas_acq	Same	Rpleas	Bmasked	CS_B	2pleas	distractor2	AMP_CSunple	AMP1_masked	8	4	0	0	300	300	0	0	531	46	-32,958984375	1	0	0	0	1	blank2r.bmp	0	1	BMVZ	0	1	blank2r.bmp	60	131	pic131.bmp	150	1	whitenoise.bmp	230	0	0	0	0	0	0	0	0	0	0	0	0	0	0	0	0	0	0	0	0	0	0	0	0	0	0	0	0	0	0	0	0	0	0	0	0	0	0	0
112818	13:10:53	13:22:50	714322	5.0.10.0	994	Rpleas_acq	Same	Rpleas	Bmasked	CS_B	2pleas	distractor2	AMP_CSpleas	AMP1_masked	8	5	0	0	300	300	0	0	734	50	-32,958984375	1	0	0	0	1	blank2r.bmp	0	1	GKQX	0	1	blank2r.bmp	60	71	pic71.bmp	150	1	whitenoise.bmp	230	0	0	0	0	0	0	0	0	0	0	0	0	0	0	0	0	0	0	0	0	0	0	0	0	0	0	0	0	0	0	0	0	0	0	0	0	0	0	0
112818	13:10:53	13:22:52	715711	5.0.10.0	994	Rpleas_acq	Same	Rpleas	Bmasked	CS_B	2pleas	distractor2	AMP_CSunple	AMP1_masked	8	6	0	0	300	300	0	0	557	50	-32,958984375	0	0	0	0	1	blank2r.bmp	0	1	BMVZ	0	1	blank2r.bmp	60	150	pic150.bmp	150	1	whitenoise.bmp	230	0	0	0	0	0	0	0	0	0	0	0	0	0	0	0	0	0	0	0	0	0	0	0	0	0	0	0	0	0	0	0	0	0	0	0	0	0	0	0
112818	13:10:53	13:22:53	717071	5.0.10.0	994	Rpleas_acq	Same	Rpleas	Bmasked	CS_B	2pleas	distractor2	AMP_CSunple	AMP1_masked	8	7	0	0	300	300	0	0	502	46	-32,958984375	1	0	0	0	1	blank2r.bmp	0	1	BMVZ	0	1	blank2r.bmp	60	124	pic124.bmp	150	1	whitenoise.bmp	230	0	0	0	0	0	0	0	0	0	0	0	0	0	0	0	0	0	0	0	0	0	0	0	0	0	0	0	0	0	0	0	0	0	0	0	0	0	0	0
112818	13:10:53	13:22:54	718461	5.0.10.0	994	Rpleas_acq	Same	Rpleas	Bmasked	CS_B	2pleas	distractor2	AMP_distractor	AMP1_masked	8	8	0	0	300	300	0	0	555	50	-32,958984375	0	0	0	0	1	blank2r.bmp	0	1	distractor_B2	0	1	blank2r.bmp	60	25	pic25.bmp	150	1	whitenoise.bmp	230	0	0	0	0	0	0	0	0	0	0	0	0	0	0	0	0	0	0	0	0	0	0	0	0	0	0	0	0	0	0	0	0	0	0	0	0	0	0	0
112818	13:10:53	13:22:56	719871	5.0.10.0	994	Rpleas_acq	Same	Rpleas	Bmasked	CS_B	2pleas	distractor2	AMP_distractor	AMP1_masked	8	9	0	0	300	300	0	0	559	50	-32,958984375	0	0	0	0	1	blank2r.bmp	0	1	distractor_B2	0	1	blank2r.bmp	60	111	pic111.bmp	150	1	whitenoise.bmp	230	0	0	0	0	0	0	0	0	0	0	0	0	0	0	0	0	0	0	0	0	0	0	0	0	0	0	0	0	0	0	0	0	0	0	0	0	0	0	0
112818	13:10:53	13:22:57	721111	5.0.10.0	994	Rpleas_acq	Same	Rpleas	Bmasked	CS_B	2pleas	distractor2	AMP_distractor	AMP1_masked	8	10	0	0	300	300	0	0	397	46	-32,958984375	0	0	0	0	1	blank2r.bmp	0	1	distractor_B2	0	1	blank2r.bmp	60	143	pic143.bmp	150	1	whitenoise.bmp	230	0	0	0	0	0	0	0	0	0	0	0	0	0	0	0	0	0	0	0	0	0	0	0	0	0	0	0	0	0	0	0	0	0	0	0	0	0	0	0
112818	13:10:53	13:22:58	722451	5.0.10.0	994	Rpleas_acq	Same	Rpleas	Bmasked	CS_B	2pleas	distractor2	AMP_CSunple	AMP1_masked	8	11	0	0	300	300	0	0	487	46	-32,958984375	1	0	0	0	1	blank2r.bmp	0	1	BMVZ	0	1	blank2r.bmp	60	42	pic42.bmp	150	1	whitenoise.bmp	230	0	0	0	0	0	0	0	0	0	0	0	0	0	0	0	0	0	0	0	0	0	0	0	0	0	0	0	0	0	0	0	0	0	0	0	0	0	0	0
112818	13:10:53	13:23:00	723701	5.0.10.0	994	Rpleas_acq	Same	Rpleas	Bmasked	CS_B	2pleas	distractor2	AMP_CSpleas	AMP1_masked	8	12	0	0	300	300	0	0	395	50	-32,958984375	1	0	0	0	1	blank2r.bmp	0	1	GKQX	0	1	blank2r.bmp	60	147	pic147.bmp	150	1	whitenoise.bmp	230	0	0	0	0	0	0	0	0	0	0	0	0	0	0	0	0	0	0	0	0	0	0	0	0	0	0	0	0	0	0	0	0	0	0	0	0	0	0	0
112818	13:10:53	13:23:01	725061	5.0.10.0	994	Rpleas_acq	Same	Rpleas	Bmasked	CS_B	2pleas	distractor2	AMP_CSpleas	AMP1_masked	8	13	0	0	300	300	0	0	518	46	-32,958984375	0	0	0	0	1	blank2r.bmp	0	1	GKQX	0	1	blank2r.bmp	60	146	pic146.bmp	150	1	whitenoise.bmp	230	0	0	0	0	0	0	0	0	0	0	0	0	0	0	0	0	0	0	0	0	0	0	0	0	0	0	0	0	0	0	0	0	0	0	0	0	0	0	0
112818	13:10:53	13:23:02	726201	5.0.10.0	994	Rpleas_acq	Same	Rpleas	Bmasked	CS_B	2pleas	distractor2	AMP_CSpleas	AMP1_masked	8	14	0	0	300	300	0	0	292	46	-32,958984375	0	0	0	0	1	blank2r.bmp	0	1	GKQX	0	1	blank2r.bmp	60	11	pic11.bmp	150	1	whitenoise.bmp	230	0	0	0	0	0	0	0	0	0	0	0	0	0	0	0	0	0	0	0	0	0	0	0	0	0	0	0	0	0	0	0	0	0	0	0	0	0	0	0
112818	13:10:53	13:23:03	727421	5.0.10.0	994	Rpleas_acq	Same	Rpleas	Bmasked	CS_B	2pleas	distractor2	AMP_distractor	AMP1_masked	8	15	0	0	300	300	0	0	378	50	-32,958984375	0	0	0	0	1	blank2r.bmp	0	1	distractor_B2	0	1	blank2r.bmp	60	40	pic40.bmp	150	1	whitenoise.bmp	230	0	0	0	0	0	0	0	0	0	0	0	0	0	0	0	0	0	0	0	0	0	0	0	0	0	0	0	0	0	0	0	0	0	0	0	0	0	0	0
112818	13:10:53	13:23:05	728921	5.0.10.0	994	Rpleas_acq	Same	Rpleas	Bmasked	CS_B	2pleas	distractor2	AMP_CSunple	AMP1_masked	8	16	0	0	300	300	0	0	651	46	-32,958984375	1	0	0	0	1	blank2r.bmp	0	1	BMVZ	0	1	blank2r.bmp	60	82	pic82.bmp	150	1	whitenoise.bmp	230	0	0	0	0	0	0	0	0	0	0	0	0	0	0	0	0	0	0	0	0	0	0	0	0	0	0	0	0	0	0	0	0	0	0	0	0	0	0	0
112818	13:10:53	13:23:06	730231	5.0.10.0	994	Rpleas_acq	Same	Rpleas	Bmasked	CS_B	2pleas	distractor2	AMP_CSunple	AMP1_masked	8	17	0	0	300	300	0	0	459	50	-32,958984375	0	0	0	0	1	blank2r.bmp	0	1	BMVZ	0	1	blank2r.bmp	60	101	pic101.bmp	150	1	whitenoise.bmp	230	0	0	0	0	0	0	0	0	0	0	0	0	0	0	0	0	0	0	0	0	0	0	0	0	0	0	0	0	0	0	0	0	0	0	0	0	0	0	0
112818	13:10:53	13:23:07	731461	5.0.10.0	994	Rpleas_acq	Same	Rpleas	Bmasked	CS_B	2pleas	distractor2	AMP_distractor	AMP1_masked	8	18	0	0	300	300	0	0	386	46	-32,958984375	0	0	0	0	1	blank2r.bmp	0	1	distractor_B2	0	1	blank2r.bmp	60	31	pic31.bmp	150	1	whitenoise.bmp	230	0	0	0	0	0	0	0	0	0	0	0	0	0	0	0	0	0	0	0	0	0	0	0	0	0	0	0	0	0	0	0	0	0	0	0	0	0	0	0
112818	13:10:53	13:23:09	732821	5.0.10.0	994	Rpleas_acq	Same	Rpleas	Bmasked	CS_B	2pleas	distractor2	AMP_CSunple	AMP1_masked	8	19	0	0	300	300	0	0	516	46	-32,958984375	1	0	0	0	1	blank2r.bmp	0	1	BMVZ	0	1	blank2r.bmp	60	21	pic21.bmp	150	1	whitenoise.bmp	230	0	0	0	0	0	0	0	0	0	0	0	0	0	0	0	0	0	0	0	0	0	0	0	0	0	0	0	0	0	0	0	0	0	0	0	0	0	0	0
112818	13:10:53	13:23:10	734191	5.0.10.0	994	Rpleas_acq	Same	Rpleas	Bmasked	CS_B	2pleas	distractor2	AMP_CSunple	AMP1_masked	8	20	0	0	300	300	0	0	521	50	-32,958984375	0	0	0	0	1	blank2r.bmp	0	1	BMVZ	0	1	blank2r.bmp	60	10	pic10.bmp	150	1	whitenoise.bmp	230	0	0	0	0	0	0	0	0	0	0	0	0	0	0	0	0	0	0	0	0	0	0	0	0	0	0	0	0	0	0	0	0	0	0	0	0	0	0	0
112818	13:10:53	13:23:11	735681	5.0.10.0	994	Rpleas_acq	Same	Rpleas	Bmasked	CS_B	2pleas	distractor2	AMP_CSunple	AMP1_masked	8	21	0	0	300	300	0	0	645	46	-32,958984375	1	0	0	0	1	blank2r.bmp	0	1	BMVZ	0	1	blank2r.bmp	60	55	pic55.bmp	150	1	whitenoise.bmp	230	0	0	0	0	0	0	0	0	0	0	0	0	0	0	0	0	0	0	0	0	0	0	0	0	0	0	0	0	0	0	0	0	0	0	0	0	0	0	0
112818	13:10:53	13:23:13	737221	5.0.10.0	994	Rpleas_acq	Same	Rpleas	Bmasked	CS_B	2pleas	distractor2	AMP_distractor	AMP1_masked	8	22	0	0	300	300	0	0	682	46	-32,958984375	0	0	0	0	1	blank2r.bmp	0	1	distractor_B2	0	1	blank2r.bmp	60	99	pic99.bmp	150	1	whitenoise.bmp	230	0	0	0	0	0	0	0	0	0	0	0	0	0	0	0	0	0	0	0	0	0	0	0	0	0	0	0	0	0	0	0	0	0	0	0	0	0	0	0
112818	13:10:53	13:23:14	738531	5.0.10.0	994	Rpleas_acq	Same	Rpleas	Bmasked	CS_B	2pleas	distractor2	AMP_distractor	AMP1_masked	8	23	0	0	300	300	0	0	470	46	-32,958984375	0	0	0	0	1	blank2r.bmp	0	1	distractor_B2	0	1	blank2r.bmp	60	135	pic135.bmp	150	1	whitenoise.bmp	230	0	0	0	0	0	0	0	0	0	0	0	0	0	0	0	0	0	0	0	0	0	0	0	0	0	0	0	0	0	0	0	0	0	0	0	0	0	0	0
112818	13:10:53	13:23:16	739731	5.0.10.0	994	Rpleas_acq	Same	Rpleas	Bmasked	CS_B	2pleas	distractor2	AMP_CSpleas	AMP1_masked	8	24	0	0	300	300	0	0	350	46	-32,958984375	0	0	0	0	1	blank2r.bmp	0	1	GKQX	0	1	blank2r.bmp	60	141	pic141.bmp	150	1	whitenoise.bmp	230	0	0	0	0	0	0	0	0	0	0	0	0	0	0	0	0	0	0	0	0	0	0	0	0	0	0	0	0	0	0	0	0	0	0	0	0	0	0	0
112818	13:10:53	13:23:17	741031	5.0.10.0	994	Rpleas_acq	Same	Rpleas	Bmasked	CS_B	2pleas	distractor2	AMP_distractor	AMP1_masked	8	25	0	0	300	300	0	0	453	46	-32,958984375	0	0	0	0	1	blank2r.bmp	0	1	distractor_B2	0	1	blank2r.bmp	60	145	pic145.bmp	150	1	whitenoise.bmp	230	0	0	0	0	0	0	0	0	0	0	0	0	0	0	0	0	0	0	0	0	0	0	0	0	0	0	0	0	0	0	0	0	0	0	0	0	0	0	0
112818	13:10:53	13:23:18	742471	5.0.10.0	994	Rpleas_acq	Same	Rpleas	Bmasked	CS_B	2pleas	distractor2	AMP_distractor	AMP1_masked	8	26	0	0	300	300	0	0	600	50	-32,958984375	0	0	0	0	1	blank2r.bmp	0	1	distractor_B2	0	1	blank2r.bmp	60	95	pic95.bmp	150	1	whitenoise.bmp	230	0	0	0	0	0	0	0	0	0	0	0	0	0	0	0	0	0	0	0	0	0	0	0	0	0	0	0	0	0	0	0	0	0	0	0	0	0	0	0
112818	13:10:53	13:23:20	744021	5.0.10.0	994	Rpleas_acq	Same	Rpleas	Bmasked	CS_B	2pleas	distractor2	AMP_CSunple	AMP1_masked	8	27	0	0	300	300	0	0	717	46	-32,958984375	1	0	0	0	1	blank2r.bmp	0	1	BMVZ	0	1	blank2r.bmp	60	44	pic44.bmp	150	1	whitenoise.bmp	230	0	0	0	0	0	0	0	0	0	0	0	0	0	0	0	0	0	0	0	0	0	0	0	0	0	0	0	0	0	0	0	0	0	0	0	0	0	0	0
112818	13:10:53	13:23:21	745441	5.0.10.0	994	Rpleas_acq	Same	Rpleas	Bmasked	CS_B	2pleas	distractor2	AMP_distractor	AMP1_masked	8	28	0	0	300	300	0	0	573	50	-32,958984375	0	0	0	0	1	blank2r.bmp	0	1	distractor_B2	0	1	blank2r.bmp	60	15	pic15.bmp	150	1	whitenoise.bmp	230	0	0	0	0	0	0	0	0	0	0	0	0	0	0	0	0	0	0	0	0	0	0	0	0	0	0	0	0	0	0	0	0	0	0	0	0	0	0	0
112818	13:10:53	13:23:23	746951	5.0.10.0	994	Rpleas_acq	Same	Rpleas	Bmasked	CS_B	2pleas	distractor2	AMP_distractor	AMP1_masked	8	29	0	0	300	300	0	0	668	50	-32,958984375	0	0	0	0	1	blank2r.bmp	0	1	distractor_B2	0	1	blank2r.bmp	60	74	pic74.bmp	150	1	whitenoise.bmp	230	0	0	0	0	0	0	0	0	0	0	0	0	0	0	0	0	0	0	0	0	0	0	0	0	0	0	0	0	0	0	0	0	0	0	0	0	0	0	0
112818	13:10:53	13:23:24	748301	5.0.10.0	994	Rpleas_acq	Same	Rpleas	Bmasked	CS_B	2pleas	distractor2	AMP_CSpleas	AMP1_masked	8	30	0	0	300	300	0	0	500	50	-32,958984375	1	0	0	0	1	blank2r.bmp	0	1	GKQX	0	1	blank2r.bmp	60	86	pic86.bmp	150	1	whitenoise.bmp	230	0	0	0	0	0	0	0	0	0	0	0	0	0	0	0	0	0	0	0	0	0	0	0	0	0	0	0	0	0	0	0	0	0	0	0	0	0	0	0
112818	13:10:53	13:23:25	749491	5.0.10.0	994	Rpleas_acq	Same	Rpleas	Bmasked	CS_B	2pleas	distractor2	AMP_CSpleas	AMP1_masked	8	31	0	0	300	300	0	0	349	50	-32,958984375	1	0	0	0	1	blank2r.bmp	0	1	GKQX	0	1	blank2r.bmp	60	38	pic38.bmp	150	1	whitenoise.bmp	230	0	0	0	0	0	0	0	0	0	0	0	0	0	0	0	0	0	0	0	0	0	0	0	0	0	0	0	0	0	0	0	0	0	0	0	0	0	0	0
112818	13:10:53	13:23:27	751331	5.0.10.0	994	Rpleas_acq	Same	Rpleas	Bmasked	CS_B	2pleas	distractor2	AMP_CSunple	AMP1_masked	8	32	0	0	300	300	0	0	1001	50	-32,958984375	0	0	0	0	1	blank2r.bmp	0	1	BMVZ	0	1	blank2r.bmp	60	129	pic129.bmp	150	1	whitenoise.bmp	230	0	0	0	0	0	0	0	0	0	0	0	0	0	0	0	0	0	0	0	0	0	0	0	0	0	0	0	0	0	0	0	0	0	0	0	0	0	0	0
112818	13:10:53	13:23:28	752641	5.0.10.0	994	Rpleas_acq	Same	Rpleas	Bmasked	CS_B	2pleas	distractor2	AMP_distractor	AMP1_masked	8	33	0	0	300	300	0	0	476	50	-32,958984375	0	0	0	0	1	blank2r.bmp	0	1	distractor_B2	0	1	blank2r.bmp	60	148	pic148.bmp	150	1	whitenoise.bmp	230	0	0	0	0	0	0	0	0	0	0	0	0	0	0	0	0	0	0	0	0	0	0	0	0	0	0	0	0	0	0	0	0	0	0	0	0	0	0	0
112818	13:10:53	13:23:30	754171	5.0.10.0	994	Rpleas_acq	Same	Rpleas	Bmasked	CS_B	2pleas	distractor2	AMP_CSunple	AMP1_masked	8	34	0	0	300	300	0	0	687	50	-32,958984375	0	0	0	0	1	blank2r.bmp	0	1	BMVZ	0	1	blank2r.bmp	60	14	pic14.bmp	150	1	whitenoise.bmp	230	0	0	0	0	0	0	0	0	0	0	0	0	0	0	0	0	0	0	0	0	0	0	0	0	0	0	0	0	0	0	0	0	0	0	0	0	0	0	0
112818	13:10:53	13:23:31	755500	5.0.10.0	994	Rpleas_acq	Same	Rpleas	Bmasked	CS_B	2pleas	distractor2	AMP_CSpleas	AMP1_masked	8	35	0	0	300	300	0	0	483	50	-32,958984375	1	0	0	0	1	blank2r.bmp	0	1	GKQX	0	1	blank2r.bmp	60	119	pic119.bmp	150	1	whitenoise.bmp	230	0	0	0	0	0	0	0	0	0	0	0	0	0	0	0	0	0	0	0	0	0	0	0	0	0	0	0	0	0	0	0	0	0	0	0	0	0	0	0
112818	13:10:53	13:23:33	756760	5.0.10.0	994	Rpleas_acq	Same	Rpleas	Bmasked	CS_B	2pleas	distractor2	AMP_CSunple	AMP1_masked	8	36	0	0	300	300	0	0	415	46	-32,958984375	1	0	0	0	1	blank2r.bmp	0	1	BMVZ	0	1	blank2r.bmp	60	67	pic67.bmp	150	1	whitenoise.bmp	230	0	0	0	0	0	0	0	0	0	0	0	0	0	0	0	0	0	0	0	0	0	0	0	0	0	0	0	0	0	0	0	0	0	0	0	0	0	0	0
112818	13:10:53	13:23:34	758070	5.0.10.0	994	Rpleas_acq	Same	Rpleas	Bmasked	CS_B	2pleas	distractor2	AMP_CSpleas	AMP1_masked	8	37	0	0	300	300	0	0	462	50	-32,958984375	1	0	0	0	1	blank2r.bmp	0	1	GKQX	0	1	blank2r.bmp	60	20	pic20.bmp	150	1	whitenoise.bmp	230	0	0	0	0	0	0	0	0	0	0	0	0	0	0	0	0	0	0	0	0	0	0	0	0	0	0	0	0	0	0	0	0	0	0	0	0	0	0	0
112818	13:10:53	13:23:35	759330	5.0.10.0	994	Rpleas_acq	Same	Rpleas	Bmasked	CS_B	2pleas	distractor2	AMP_CSpleas	AMP1_masked	8	38	0	0	300	300	0	0	418	50	-32,958984375	1	0	0	0	1	blank2r.bmp	0	1	GKQX	0	1	blank2r.bmp	60	4	pic4.bmp	150	1	whitenoise.bmp	230	0	0	0	0	0	0	0	0	0	0	0	0	0	0	0	0	0	0	0	0	0	0	0	0	0	0	0	0	0	0	0	0	0	0	0	0	0	0	0
112818	13:10:53	13:23:36	760270	5.0.10.0	994	Rpleas_acq	Same	Rpleas	Bmasked	CS_B	2pleas	distractor2	AMP_distractor	AMP1_masked	8	39	0	0	300	300	0	0	79	46	-32,958984375	0	0	0	0	1	blank2r.bmp	0	1	distractor_B2	0	1	blank2r.bmp	60	56	pic56.bmp	150	1	whitenoise.bmp	230	0	0	0	0	0	0	0	0	0	0	0	0	0	0	0	0	0	0	0	0	0	0	0	0	0	0	0	0	0	0	0	0	0	0	0	0	0	0	0
112818	13:10:53	13:23:37	761370	5.0.10.0	994	Rpleas_acq	Same	Rpleas	Bmasked	CS_B	2pleas	distractor2	AMP_CSpleas	AMP1_masked	8	40	0	0	300	300	0	0	260	46	-32,958984375	0	0	0	0	1	blank2r.bmp	0	1	GKQX	0	1	blank2r.bmp	60	47	pic47.bmp	150	1	whitenoise.bmp	230	0	0	0	0	0	0	0	0	0	0	0	0	0	0	0	0	0	0	0	0	0	0	0	0	0	0	0	0	0	0	0	0	0	0	0	0	0	0	0
112818	13:10:53	13:23:38	762560	5.0.10.0	994	Rpleas_acq	Same	Rpleas	Bmasked	CS_B	2pleas	distractor2	AMP_CSunple	AMP1_masked	8	41	0	0	300	300	0	0	351	46	-32,958984375	1	0	0	0	1	blank2r.bmp	0	1	BMVZ	0	1	blank2r.bmp	60	134	pic134.bmp	150	1	whitenoise.bmp	230	0	0	0	0	0	0	0	0	0	0	0	0	0	0	0	0	0	0	0	0	0	0	0	0	0	0	0	0	0	0	0	0	0	0	0	0	0	0	0
112818	13:10:53	13:23:40	763860	5.0.10.0	994	Rpleas_acq	Same	Rpleas	Bmasked	CS_B	2pleas	distractor2	AMP_distractor	AMP1_masked	8	42	0	0	300	300	0	0	465	50	-32,958984375	0	0	0	0	1	blank2r.bmp	0	1	distractor_B2	0	1	blank2r.bmp	60	59	pic59.bmp	150	1	whitenoise.bmp	230	0	0	0	0	0	0	0	0	0	0	0	0	0	0	0	0	0	0	0	0	0	0	0	0	0	0	0	0	0	0	0	0	0	0	0	0	0	0	0
112818	13:10:53	13:23:41	765350	5.0.10.0	994	Rpleas_acq	Same	Rpleas	Bmasked	CS_B	2pleas	distractor2	AMP_CSunple	AMP1_masked	8	43	0	0	300	300	0	0	643	46	-32,958984375	1	0	0	0	1	blank2r.bmp	0	1	BMVZ	0	1	blank2r.bmp	60	81	pic81.bmp	150	1	whitenoise.bmp	230	0	0	0	0	0	0	0	0	0	0	0	0	0	0	0	0	0	0	0	0	0	0	0	0	0	0	0	0	0	0	0	0	0	0	0	0	0	0	0
112818	13:10:53	13:23:43	767350	5.0.10.0	994	Rpleas_acq	Same	Rpleas	Bmasked	CS_B	2pleas	distractor2	AMP_CSpleas	AMP1_masked	8	44	0	0	300	300	0	0	1166	46	-32,958984375	0	0	0	0	1	blank2r.bmp	0	1	GKQX	0	1	blank2r.bmp	60	39	pic39.bmp	150	1	whitenoise.bmp	230	0	0	0	0	0	0	0	0	0	0	0	0	0	0	0	0	0	0	0	0	0	0	0	0	0	0	0	0	0	0	0	0	0	0	0	0	0	0	0
112818	13:10:53	13:23:44	768700	5.0.10.0	994	Rpleas_acq	Same	Rpleas	Bmasked	CS_B	2pleas	distractor2	AMP_distractor	AMP1_masked	8	45	0	0	300	300	0	0	507	46	-32,958984375	0	0	0	0	1	blank2r.bmp	0	1	distractor_B2	0	1	blank2r.bmp	60	109	pic109.bmp	150	1	whitenoise.bmp	230	0	0	0	0	0	0	0	0	0	0	0	0	0	0	0	0	0	0	0	0	0	0	0	0	0	0	0	0	0	0	0	0	0	0	0	0	0	0	0
112818	13:10:53	13:23:46	770040	5.0.10.0	994	Rpleas_acq	Same	Rpleas	Bmasked	CS_B	2pleas	distractor2	AMP_CSpleas	AMP1_masked	8	46	0	0	300	300	0	0	495	50	-32,958984375	1	0	0	0	1	blank2r.bmp	0	1	GKQX	0	1	blank2r.bmp	60	29	pic29.bmp	150	1	whitenoise.bmp	230	0	0	0	0	0	0	0	0	0	0	0	0	0	0	0	0	0	0	0	0	0	0	0	0	0	0	0	0	0	0	0	0	0	0	0	0	0	0	0
112818	13:10:53	13:23:47	771370	5.0.10.0	994	Rpleas_acq	Same	Rpleas	Bmasked	CS_B	2pleas	distractor2	AMP_CSunple	AMP1_masked	8	47	0	0	300	300	0	0	485	46	-32,958984375	1	0	0	0	1	blank2r.bmp	0	1	BMVZ	0	1	blank2r.bmp	60	63	pic63.bmp	150	1	whitenoise.bmp	230	0	0	0	0	0	0	0	0	0	0	0	0	0	0	0	0	0	0	0	0	0	0	0	0	0	0	0	0	0	0	0	0	0	0	0	0	0	0	0
112818	13:10:53	13:23:48	772620	5.0.10.0	994	Rpleas_acq	Same	Rpleas	Bmasked	CS_B	2pleas	distractor2	AMP_CSpleas	AMP1_masked	8	48	0	0	300	300	0	0	414	46	-32,958984375	0	0	0	0	1	blank2r.bmp	0	1	GKQX	0	1	blank2r.bmp	60	97	pic97.bmp	150	1	whitenoise.bmp	230	0	0	0	0	0	0	0	0	0	0	0	0	0	0	0	0	0	0	0	0	0	0	0	0	0	0	0	0	0	0	0	0	0	0	0	0	0	0	0
112818	13:10:53	13:23:50	774050	5.0.10.0	994	Rpleas_acq	Same	Rpleas	Bmasked	CS_B	2pleas	distractor2	AMP_distractor	AMP1_masked	8	49	0	0	300	300	0	0	591	50	-32,958984375	0	0	0	0	1	blank2r.bmp	0	1	distractor_B2	0	1	blank2r.bmp	60	96	pic96.bmp	150	1	whitenoise.bmp	230	0	0	0	0	0	0	0	0	0	0	0	0	0	0	0	0	0	0	0	0	0	0	0	0	0	0	0	0	0	0	0	0	0	0	0	0	0	0	0
112818	13:10:53	13:23:51	775530	5.0.10.0	994	Rpleas_acq	Same	Rpleas	Bmasked	CS_B	2pleas	distractor2	AMP_CSpleas	AMP1_masked	8	50	0	0	300	300	0	0	637	50	-32,958984375	1	0	0	0	1	blank2r.bmp	0	1	GKQX	0	1	blank2r.bmp	60	52	pic52.bmp	150	1	whitenoise.bmp	230	0	0	0	0	0	0	0	0	0	0	0	0	0	0	0	0	0	0	0	0	0	0	0	0	0	0	0	0	0	0	0	0	0	0	0	0	0	0	0
112818	13:10:53	13:24:11	795339	5.0.10.0	994	Rpleas_acq	Same	Rpleas	Bmasked	CS_B	2pleas	distractor2	AMP_distractor	AMP2	9	1	0	0	300	300	0	0	939	50	-32,958984375	0	0	0	0	1	blank2r.bmp	0	1	distractor_B2	0	1	blank2r.bmp	60	112	pic112.bmp	150	1	whitenoise.bmp	230	0	0	0	0	0	0	0	0	0	0	0	0	0	0	0	0	0	0	0	0	0	0	0	0	0	0	0	0	0	0	0	0	0	0	0	0	0	0	0
112818	13:10:53	13:24:13	796809	5.0.10.0	994	Rpleas_acq	Same	Rpleas	Bmasked	CS_B	2pleas	distractor2	AMP_CSunple	AMP2	9	2	0	0	300	300	0	0	632	50	-32,958984375	0	0	0	0	1	blank2r.bmp	0	1	BMVZ	0	1	blank2r.bmp	60	121	pic121.bmp	150	1	whitenoise.bmp	230	0	0	0	0	0	0	0	0	0	0	0	0	0	0	0	0	0	0	0	0	0	0	0	0	0	0	0	0	0	0	0	0	0	0	0	0	0	0	0
112818	13:10:53	13:24:14	798389	5.0.10.0	994	Rpleas_acq	Same	Rpleas	Bmasked	CS_B	2pleas	distractor2	AMP_CSunple	AMP2	9	3	0	0	300	300	0	0	729	46	-32,958984375	1	0	0	0	1	blank2r.bmp	0	1	BMVZ	0	1	blank2r.bmp	60	3	pic3.bmp	150	1	whitenoise.bmp	230	0	0	0	0	0	0	0	0	0	0	0	0	0	0	0	0	0	0	0	0	0	0	0	0	0	0	0	0	0	0	0	0	0	0	0	0	0	0	0
112818	13:10:53	13:24:16	799969	5.0.10.0	994	Rpleas_acq	Same	Rpleas	Bmasked	CS_B	2pleas	distractor2	AMP_CSunple	AMP2	9	4	0	0	300	300	0	0	739	50	-32,958984375	0	0	0	0	1	blank2r.bmp	0	1	BMVZ	0	1	blank2r.bmp	60	19	pic19.bmp	150	1	whitenoise.bmp	230	0	0	0	0	0	0	0	0	0	0	0	0	0	0	0	0	0	0	0	0	0	0	0	0	0	0	0	0	0	0	0	0	0	0	0	0	0	0	0
112818	13:10:53	13:24:17	801349	5.0.10.0	994	Rpleas_acq	Same	Rpleas	Bmasked	CS_B	2pleas	distractor2	AMP_CSpleas	AMP2	9	5	0	0	300	300	0	0	545	50	-32,958984375	1	0	0	0	1	blank2r.bmp	0	1	GKQX	0	1	blank2r.bmp	60	105	pic105.bmp	150	1	whitenoise.bmp	230	0	0	0	0	0	0	0	0	0	0	0	0	0	0	0	0	0	0	0	0	0	0	0	0	0	0	0	0	0	0	0	0	0	0	0	0	0	0	0
112818	13:10:53	13:24:18	802559	5.0.10.0	994	Rpleas_acq	Same	Rpleas	Bmasked	CS_B	2pleas	distractor2	AMP_distractor	AMP2	9	6	0	0	300	300	0	0	368	46	-32,958984375	0	0	0	0	1	blank2r.bmp	0	1	distractor_B2	0	1	blank2r.bmp	60	77	pic77.bmp	150	1	whitenoise.bmp	230	0	0	0	0	0	0	0	0	0	0	0	0	0	0	0	0	0	0	0	0	0	0	0	0	0	0	0	0	0	0	0	0	0	0	0	0	0	0	0
112818	13:10:53	13:24:20	803909	5.0.10.0	994	Rpleas_acq	Same	Rpleas	Bmasked	CS_B	2pleas	distractor2	AMP_CSpleas	AMP2	9	7	0	0	300	300	0	0	504	46	-32,958984375	0	0	0	0	1	blank2r.bmp	0	1	GKQX	0	1	blank2r.bmp	60	23	pic23.bmp	150	1	whitenoise.bmp	230	0	0	0	0	0	0	0	0	0	0	0	0	0	0	0	0	0	0	0	0	0	0	0	0	0	0	0	0	0	0	0	0	0	0	0	0	0	0	0
112818	13:10:53	13:24:21	805199	5.0.10.0	994	Rpleas_acq	Same	Rpleas	Bmasked	CS_B	2pleas	distractor2	AMP_distractor	AMP2	9	8	0	0	300	300	0	0	446	46	-32,958984375	0	0	0	0	1	blank2r.bmp	0	1	distractor_B2	0	1	blank2r.bmp	60	70	pic70.bmp	150	1	whitenoise.bmp	230	0	0	0	0	0	0	0	0	0	0	0	0	0	0	0	0	0	0	0	0	0	0	0	0	0	0	0	0	0	0	0	0	0	0	0	0	0	0	0
112818	13:10:53	13:24:22	806469	5.0.10.0	994	Rpleas_acq	Same	Rpleas	Bmasked	CS_B	2pleas	distractor2	AMP_CSunple	AMP2	9	9	0	0	300	300	0	0	427	46	-32,958984375	1	0	0	0	1	blank2r.bmp	0	1	BMVZ	0	1	blank2r.bmp	60	149	pic149.bmp	150	1	whitenoise.bmp	230	0	0	0	0	0	0	0	0	0	0	0	0	0	0	0	0	0	0	0	0	0	0	0	0	0	0	0	0	0	0	0	0	0	0	0	0	0	0	0
112818	13:10:53	13:24:23	807669	5.0.10.0	994	Rpleas_acq	Same	Rpleas	Bmasked	CS_B	2pleas	distractor2	AMP_CSpleas	AMP2	9	10	0	0	300	300	0	0	367	50	-32,958984375	1	0	0	0	1	blank2r.bmp	0	1	GKQX	0	1	blank2r.bmp	60	41	pic41.bmp	150	1	whitenoise.bmp	230	0	0	0	0	0	0	0	0	0	0	0	0	0	0	0	0	0	0	0	0	0	0	0	0	0	0	0	0	0	0	0	0	0	0	0	0	0	0	0
112818	13:10:53	13:24:25	808969	5.0.10.0	994	Rpleas_acq	Same	Rpleas	Bmasked	CS_B	2pleas	distractor2	AMP_distractor	AMP2	9	11	0	0	300	300	0	0	452	50	-32,958984375	0	0	0	0	1	blank2r.bmp	0	1	distractor_B2	0	1	blank2r.bmp	60	22	pic22.bmp	150	1	whitenoise.bmp	230	0	0	0	0	0	0	0	0	0	0	0	0	0	0	0	0	0	0	0	0	0	0	0	0	0	0	0	0	0	0	0	0	0	0	0	0	0	0	0
112818	13:10:53	13:24:26	810239	5.0.10.0	994	Rpleas_acq	Same	Rpleas	Bmasked	CS_B	2pleas	distractor2	AMP_distractor	AMP2	9	12	0	0	300	300	0	0	433	50	-32,958984375	0	0	0	0	1	blank2r.bmp	0	1	distractor_B2	0	1	blank2r.bmp	60	30	pic30.bmp	150	1	whitenoise.bmp	230	0	0	0	0	0	0	0	0	0	0	0	0	0	0	0	0	0	0	0	0	0	0	0	0	0	0	0	0	0	0	0	0	0	0	0	0	0	0	0
112818	13:10:53	13:24:27	811559	5.0.10.0	994	Rpleas_acq	Same	Rpleas	Bmasked	CS_B	2pleas	distractor2	AMP_CSunple	AMP2	9	13	0	0	300	300	0	0	469	50	-32,958984375	0	0	0	0	1	blank2r.bmp	0	1	BMVZ	0	1	blank2r.bmp	60	54	pic54.bmp	150	1	whitenoise.bmp	230	0	0	0	0	0	0	0	0	0	0	0	0	0	0	0	0	0	0	0	0	0	0	0	0	0	0	0	0	0	0	0	0	0	0	0	0	0	0	0
112818	13:10:53	13:24:28	812659	5.0.10.0	994	Rpleas_acq	Same	Rpleas	Bmasked	CS_B	2pleas	distractor2	AMP_distractor	AMP2	9	14	0	0	300	300	0	0	267	46	-32,958984375	0	0	0	0	1	blank2r.bmp	0	1	distractor_B2	0	1	blank2r.bmp	60	120	pic120.bmp	150	1	whitenoise.bmp	230	0	0	0	0	0	0	0	0	0	0	0	0	0	0	0	0	0	0	0	0	0	0	0	0	0	0	0	0	0	0	0	0	0	0	0	0	0	0	0
112818	13:10:53	13:24:30	813789	5.0.10.0	994	Rpleas_acq	Same	Rpleas	Bmasked	CS_B	2pleas	distractor2	AMP_CSpleas	AMP2	9	15	0	0	300	300	0	0	284	50	-32,958984375	1	0	0	0	1	blank2r.bmp	0	1	GKQX	0	1	blank2r.bmp	60	127	pic127.bmp	150	1	whitenoise.bmp	230	0	0	0	0	0	0	0	0	0	0	0	0	0	0	0	0	0	0	0	0	0	0	0	0	0	0	0	0	0	0	0	0	0	0	0	0	0	0	0
112818	13:10:53	13:24:31	815179	5.0.10.0	994	Rpleas_acq	Same	Rpleas	Bmasked	CS_B	2pleas	distractor2	AMP_distractor	AMP2	9	16	0	0	300	300	0	0	557	50	-32,958984375	0	0	0	0	1	blank2r.bmp	0	1	distractor_B2	0	1	blank2r.bmp	60	24	pic24.bmp	150	1	whitenoise.bmp	230	0	0	0	0	0	0	0	0	0	0	0	0	0	0	0	0	0	0	0	0	0	0	0	0	0	0	0	0	0	0	0	0	0	0	0	0	0	0	0
112818	13:10:53	13:24:32	816609	5.0.10.0	994	Rpleas_acq	Same	Rpleas	Bmasked	CS_B	2pleas	distractor2	AMP_CSpleas	AMP2	9	17	0	0	300	300	0	0	581	50	-32,958984375	1	0	0	0	1	blank2r.bmp	0	1	GKQX	0	1	blank2r.bmp	60	53	pic53.bmp	150	1	whitenoise.bmp	230	0	0	0	0	0	0	0	0	0	0	0	0	0	0	0	0	0	0	0	0	0	0	0	0	0	0	0	0	0	0	0	0	0	0	0	0	0	0	0
112818	13:10:53	13:24:34	817819	5.0.10.0	994	Rpleas_acq	Same	Rpleas	Bmasked	CS_B	2pleas	distractor2	AMP_CSunple	AMP2	9	18	0	0	300	300	0	0	378	50	-32,958984375	0	0	0	0	1	blank2r.bmp	0	1	BMVZ	0	1	blank2r.bmp	60	1	pic1.bmp	150	1	whitenoise.bmp	230	0	0	0	0	0	0	0	0	0	0	0	0	0	0	0	0	0	0	0	0	0	0	0	0	0	0	0	0	0	0	0	0	0	0	0	0	0	0	0
112818	13:10:53	13:24:35	819019	5.0.10.0	994	Rpleas_acq	Same	Rpleas	Bmasked	CS_B	2pleas	distractor2	AMP_distractor	AMP2	9	19	0	0	300	300	0	0	349	50	-32,958984375	0	0	0	0	1	blank2r.bmp	0	1	distractor_B2	0	1	blank2r.bmp	60	85	pic85.bmp	150	1	whitenoise.bmp	230	0	0	0	0	0	0	0	0	0	0	0	0	0	0	0	0	0	0	0	0	0	0	0	0	0	0	0	0	0	0	0	0	0	0	0	0	0	0	0
112818	13:10:53	13:24:36	820079	5.0.10.0	994	Rpleas_acq	Same	Rpleas	Bmasked	CS_B	2pleas	distractor2	AMP_CSunple	AMP2	9	20	0	0	300	300	0	0	223	50	-32,958984375	0	0	0	0	1	blank2r.bmp	0	1	BMVZ	0	1	blank2r.bmp	60	48	pic48.bmp	150	1	whitenoise.bmp	230	0	0	0	0	0	0	0	0	0	0	0	0	0	0	0	0	0	0	0	0	0	0	0	0	0	0	0	0	0	0	0	0	0	0	0	0	0	0	0
112818	13:10:53	13:24:37	821159	5.0.10.0	994	Rpleas_acq	Same	Rpleas	Bmasked	CS_B	2pleas	distractor2	AMP_CSpleas	AMP2	9	21	0	0	300	300	0	0	236	50	-32,958984375	1	0	0	0	1	blank2r.bmp	0	1	GKQX	0	1	blank2r.bmp	60	6	pic6.bmp	150	1	whitenoise.bmp	230	0	0	0	0	0	0	0	0	0	0	0	0	0	0	0	0	0	0	0	0	0	0	0	0	0	0	0	0	0	0	0	0	0	0	0	0	0	0	0
112818	13:10:53	13:24:38	822369	5.0.10.0	994	Rpleas_acq	Same	Rpleas	Bmasked	CS_B	2pleas	distractor2	AMP_CSpleas	AMP2	9	22	0	0	300	300	0	0	359	50	-32,958984375	1	0	0	0	1	blank2r.bmp	0	1	GKQX	0	1	blank2r.bmp	60	57	pic57.bmp	150	1	whitenoise.bmp	230	0	0	0	0	0	0	0	0	0	0	0	0	0	0	0	0	0	0	0	0	0	0	0	0	0	0	0	0	0	0	0	0	0	0	0	0	0	0	0
112818	13:10:53	13:24:39	823609	5.0.10.0	994	Rpleas_acq	Same	Rpleas	Bmasked	CS_B	2pleas	distractor2	AMP_distractor	AMP2	9	23	0	0	300	300	0	0	406	50	-32,958984375	0	0	0	0	1	blank2r.bmp	0	1	distractor_B2	0	1	blank2r.bmp	60	16	pic16.bmp	150	1	whitenoise.bmp	230	0	0	0	0	0	0	0	0	0	0	0	0	0	0	0	0	0	0	0	0	0	0	0	0	0	0	0	0	0	0	0	0	0	0	0	0	0	0	0
112818	13:10:53	13:24:41	824909	5.0.10.0	994	Rpleas_acq	Same	Rpleas	Bmasked	CS_B	2pleas	distractor2	AMP_CSpleas	AMP2	9	24	0	0	300	300	0	0	451	50	-32,958984375	1	0	0	0	1	blank2r.bmp	0	1	GKQX	0	1	blank2r.bmp	60	128	pic128.bmp	150	1	whitenoise.bmp	230	0	0	0	0	0	0	0	0	0	0	0	0	0	0	0	0	0	0	0	0	0	0	0	0	0	0	0	0	0	0	0	0	0	0	0	0	0	0	0
112818	13:10:53	13:24:42	826079	5.0.10.0	994	Rpleas_acq	Same	Rpleas	Bmasked	CS_B	2pleas	distractor2	AMP_distractor	AMP2	9	25	0	0	300	300	0	0	330	50	-32,958984375	0	0	0	0	1	blank2r.bmp	0	1	distractor_B2	0	1	blank2r.bmp	60	72	pic72.bmp	150	1	whitenoise.bmp	230	0	0	0	0	0	0	0	0	0	0	0	0	0	0	0	0	0	0	0	0	0	0	0	0	0	0	0	0	0	0	0	0	0	0	0	0	0	0	0
112818	13:10:53	13:24:43	827209	5.0.10.0	994	Rpleas_acq	Same	Rpleas	Bmasked	CS_B	2pleas	distractor2	AMP_CSunple	AMP2	9	26	0	0	300	300	0	0	294	50	-32,958984375	0	0	0	0	1	blank2r.bmp	0	1	BMVZ	0	1	blank2r.bmp	60	125	pic125.bmp	150	1	whitenoise.bmp	230	0	0	0	0	0	0	0	0	0	0	0	0	0	0	0	0	0	0	0	0	0	0	0	0	0	0	0	0	0	0	0	0	0	0	0	0	0	0	0
112818	13:10:53	13:24:44	828269	5.0.10.0	994	Rpleas_acq	Same	Rpleas	Bmasked	CS_B	2pleas	distractor2	AMP_distractor	AMP2	9	27	0	0	300	300	0	0	212	50	-32,958984375	0	0	0	0	1	blank2r.bmp	0	1	distractor_B2	0	1	blank2r.bmp	60	89	pic89.bmp	150	1	whitenoise.bmp	230	0	0	0	0	0	0	0	0	0	0	0	0	0	0	0	0	0	0	0	0	0	0	0	0	0	0	0	0	0	0	0	0	0	0	0	0	0	0	0
112818	13:10:53	13:24:45	829169	5.0.10.0	994	Rpleas_acq	Same	Rpleas	Bmasked	CS_B	2pleas	distractor2	AMP_CSpleas	AMP2	9	28	0	0	300	300	0	0	57	50	-32,958984375	1	0	0	0	1	blank2r.bmp	0	1	GKQX	0	1	blank2r.bmp	60	126	pic126.bmp	150	1	whitenoise.bmp	230	0	0	0	0	0	0	0	0	0	0	0	0	0	0	0	0	0	0	0	0	0	0	0	0	0	0	0	0	0	0	0	0	0	0	0	0	0	0	0
112818	13:10:53	13:24:46	830049	5.0.10.0	994	Rpleas_acq	Same	Rpleas	Bmasked	CS_B	2pleas	distractor2	AMP_CSpleas	AMP2	9	29	0	0	300	300	0	0	43	46	-32,958984375	0	0	0	0	1	blank2r.bmp	0	1	GKQX	0	1	blank2r.bmp	60	18	pic18.bmp	150	1	whitenoise.bmp	230	0	0	0	0	0	0	0	0	0	0	0	0	0	0	0	0	0	0	0	0	0	0	0	0	0	0	0	0	0	0	0	0	0	0	0	0	0	0	0
112818	13:10:53	13:24:47	831389	5.0.10.0	994	Rpleas_acq	Same	Rpleas	Bmasked	CS_B	2pleas	distractor2	AMP_CSunple	AMP2	9	30	0	0	300	300	0	0	496	46	-32,958984375	1	0	0	0	1	blank2r.bmp	0	1	BMVZ	0	1	blank2r.bmp	60	2	pic2.bmp	150	1	whitenoise.bmp	230	0	0	0	0	0	0	0	0	0	0	0	0	0	0	0	0	0	0	0	0	0	0	0	0	0	0	0	0	0	0	0	0	0	0	0	0	0	0	0
112818	13:10:53	13:24:48	832659	5.0.10.0	994	Rpleas_acq	Same	Rpleas	Bmasked	CS_B	2pleas	distractor2	AMP_CSpleas	AMP2	9	31	0	0	300	300	0	0	425	50	-32,958984375	1	0	0	0	1	blank2r.bmp	0	1	GKQX	0	1	blank2r.bmp	60	83	pic83.bmp	150	1	whitenoise.bmp	230	0	0	0	0	0	0	0	0	0	0	0	0	0	0	0	0	0	0	0	0	0	0	0	0	0	0	0	0	0	0	0	0	0	0	0	0	0	0	0
112818	13:10:53	13:24:50	833909	5.0.10.0	994	Rpleas_acq	Same	Rpleas	Bmasked	CS_B	2pleas	distractor2	AMP_CSunple	AMP2	9	32	0	0	300	300	0	0	406	46	-32,958984375	1	0	0	0	1	blank2r.bmp	0	1	BMVZ	0	1	blank2r.bmp	60	33	pic33.bmp	150	1	whitenoise.bmp	230	0	0	0	0	0	0	0	0	0	0	0	0	0	0	0	0	0	0	0	0	0	0	0	0	0	0	0	0	0	0	0	0	0	0	0	0	0	0	0
112818	13:10:53	13:24:51	835369	5.0.10.0	994	Rpleas_acq	Same	Rpleas	Bmasked	CS_B	2pleas	distractor2	AMP_CSpleas	AMP2	9	33	0	0	300	300	0	0	616	46	-32,958984375	0	0	0	0	1	blank2r.bmp	0	1	GKQX	0	1	blank2r.bmp	60	102	pic102.bmp	150	1	whitenoise.bmp	230	0	0	0	0	0	0	0	0	0	0	0	0	0	0	0	0	0	0	0	0	0	0	0	0	0	0	0	0	0	0	0	0	0	0	0	0	0	0	0
112818	13:10:53	13:24:53	836778	5.0.10.0	994	Rpleas_acq	Same	Rpleas	Bmasked	CS_B	2pleas	distractor2	AMP_CSunple	AMP2	9	34	0	0	300	300	0	0	565	46	-32,958984375	1	0	0	0	1	blank2r.bmp	0	1	BMVZ	0	1	blank2r.bmp	60	26	pic26.bmp	150	1	whitenoise.bmp	230	0	0	0	0	0	0	0	0	0	0	0	0	0	0	0	0	0	0	0	0	0	0	0	0	0	0	0	0	0	0	0	0	0	0	0	0	0	0	0
112818	13:10:53	13:24:54	837998	5.0.10.0	994	Rpleas_acq	Same	Rpleas	Bmasked	CS_B	2pleas	distractor2	AMP_distractor	AMP2	9	35	0	0	300	300	0	0	372	50	-32,958984375	0	0	0	0	1	blank2r.bmp	0	1	distractor_B2	0	1	blank2r.bmp	60	94	pic94.bmp	150	1	whitenoise.bmp	230	0	0	0	0	0	0	0	0	0	0	0	0	0	0	0	0	0	0	0	0	0	0	0	0	0	0	0	0	0	0	0	0	0	0	0	0	0	0	0
112818	13:10:53	13:24:55	839368	5.0.10.0	994	Rpleas_acq	Same	Rpleas	Bmasked	CS_B	2pleas	distractor2	AMP_CSunple	AMP2	9	36	0	0	300	300	0	0	528	46	-32,958984375	1	0	0	0	1	blank2r.bmp	0	1	BMVZ	0	1	blank2r.bmp	60	92	pic92.bmp	150	1	whitenoise.bmp	230	0	0	0	0	0	0	0	0	0	0	0	0	0	0	0	0	0	0	0	0	0	0	0	0	0	0	0	0	0	0	0	0	0	0	0	0	0	0	0
112818	13:10:53	13:24:56	840638	5.0.10.0	994	Rpleas_acq	Same	Rpleas	Bmasked	CS_B	2pleas	distractor2	AMP_distractor	AMP2	9	37	0	0	300	300	0	0	426	50	-32,958984375	0	0	0	0	1	blank2r.bmp	0	1	distractor_B2	0	1	blank2r.bmp	60	37	pic37.bmp	150	1	whitenoise.bmp	230	0	0	0	0	0	0	0	0	0	0	0	0	0	0	0	0	0	0	0	0	0	0	0	0	0	0	0	0	0	0	0	0	0	0	0	0	0	0	0
112818	13:10:53	13:24:58	841948	5.0.10.0	994	Rpleas_acq	Same	Rpleas	Bmasked	CS_B	2pleas	distractor2	AMP_CSpleas	AMP2	9	38	0	0	300	300	0	0	466	50	-32,958984375	1	0	0	0	1	blank2r.bmp	0	1	GKQX	0	1	blank2r.bmp	60	88	pic88.bmp	150	1	whitenoise.bmp	230	0	0	0	0	0	0	0	0	0	0	0	0	0	0	0	0	0	0	0	0	0	0	0	0	0	0	0	0	0	0	0	0	0	0	0	0	0	0	0
112818	13:10:53	13:24:59	843248	5.0.10.0	994	Rpleas_acq	Same	Rpleas	Bmasked	CS_B	2pleas	distractor2	AMP_CSpleas	AMP2	9	39	0	0	300	300	0	0	447	50	-32,958984375	1	0	0	0	1	blank2r.bmp	0	1	GKQX	0	1	blank2r.bmp	60	50	pic50.bmp	150	1	whitenoise.bmp	230	0	0	0	0	0	0	0	0	0	0	0	0	0	0	0	0	0	0	0	0	0	0	0	0	0	0	0	0	0	0	0	0	0	0	0	0	0	0	0
112818	13:10:53	13:25:00	844498	5.0.10.0	994	Rpleas_acq	Same	Rpleas	Bmasked	CS_B	2pleas	distractor2	AMP_distractor	AMP2	9	40	0	0	300	300	0	0	408	46	-32,958984375	0	0	0	0	1	blank2r.bmp	0	1	distractor_B2	0	1	blank2r.bmp	60	110	pic110.bmp	150	1	whitenoise.bmp	230	0	0	0	0	0	0	0	0	0	0	0	0	0	0	0	0	0	0	0	0	0	0	0	0	0	0	0	0	0	0	0	0	0	0	0	0	0	0	0
112818	13:10:53	13:25:02	845908	5.0.10.0	994	Rpleas_acq	Same	Rpleas	Bmasked	CS_B	2pleas	distractor2	AMP_CSpleas	AMP2	9	41	0	0	300	300	0	0	567	46	-32,958984375	0	0	0	0	1	blank2r.bmp	0	1	GKQX	0	1	blank2r.bmp	60	130	pic130.bmp	150	1	whitenoise.bmp	230	0	0	0	0	0	0	0	0	0	0	0	0	0	0	0	0	0	0	0	0	0	0	0	0	0	0	0	0	0	0	0	0	0	0	0	0	0	0	0
112818	13:10:53	13:25:03	847208	5.0.10.0	994	Rpleas_acq	Same	Rpleas	Bmasked	CS_B	2pleas	distractor2	AMP_CSpleas	AMP2	9	42	0	0	300	300	0	0	464	50	-32,958984375	1	0	0	0	1	blank2r.bmp	0	1	GKQX	0	1	blank2r.bmp	60	100	pic100.bmp	150	1	whitenoise.bmp	230	0	0	0	0	0	0	0	0	0	0	0	0	0	0	0	0	0	0	0	0	0	0	0	0	0	0	0	0	0	0	0	0	0	0	0	0	0	0	0
112818	13:10:53	13:25:05	848758	5.0.10.0	994	Rpleas_acq	Same	Rpleas	Bmasked	CS_B	2pleas	distractor2	AMP_CSunple	AMP2	9	43	0	0	300	300	0	0	701	46	-32,958984375	1	0	0	0	1	blank2r.bmp	0	1	BMVZ	0	1	blank2r.bmp	60	113	pic113.bmp	150	1	whitenoise.bmp	230	0	0	0	0	0	0	0	0	0	0	0	0	0	0	0	0	0	0	0	0	0	0	0	0	0	0	0	0	0	0	0	0	0	0	0	0	0	0	0
112818	13:10:53	13:25:06	850188	5.0.10.0	994	Rpleas_acq	Same	Rpleas	Bmasked	CS_B	2pleas	distractor2	AMP_CSunple	AMP2	9	44	0	0	300	300	0	0	585	46	-32,958984375	1	0	0	0	1	blank2r.bmp	0	1	BMVZ	0	1	blank2r.bmp	60	137	pic137.bmp	150	1	whitenoise.bmp	230	0	0	0	0	0	0	0	0	0	0	0	0	0	0	0	0	0	0	0	0	0	0	0	0	0	0	0	0	0	0	0	0	0	0	0	0	0	0	0
112818	13:10:53	13:25:07	851528	5.0.10.0	994	Rpleas_acq	Same	Rpleas	Bmasked	CS_B	2pleas	distractor2	AMP_CSunple	AMP2	9	45	0	0	300	300	0	0	489	46	-32,958984375	1	0	0	0	1	blank2r.bmp	0	1	BMVZ	0	1	blank2r.bmp	60	49	pic49.bmp	150	1	whitenoise.bmp	230	0	0	0	0	0	0	0	0	0	0	0	0	0	0	0	0	0	0	0	0	0	0	0	0	0	0	0	0	0	0	0	0	0	0	0	0	0	0	0
112818	13:10:53	13:25:09	852738	5.0.10.0	994	Rpleas_acq	Same	Rpleas	Bmasked	CS_B	2pleas	distractor2	AMP_CSunple	AMP2	9	46	0	0	300	300	0	0	375	46	-32,958984375	1	0	0	0	1	blank2r.bmp	0	1	BMVZ	0	1	blank2r.bmp	60	80	pic80.bmp	150	1	whitenoise.bmp	230	0	0	0	0	0	0	0	0	0	0	0	0	0	0	0	0	0	0	0	0	0	0	0	0	0	0	0	0	0	0	0	0	0	0	0	0	0	0	0
112818	13:10:53	13:25:10	854158	5.0.10.0	994	Rpleas_acq	Same	Rpleas	Bmasked	CS_B	2pleas	distractor2	AMP_CSunple	AMP2	9	47	0	0	300	300	0	0	582	46	-32,958984375	1	0	0	0	1	blank2r.bmp	0	1	BMVZ	0	1	blank2r.bmp	60	142	pic142.bmp	150	1	whitenoise.bmp	230	0	0	0	0	0	0	0	0	0	0	0	0	0	0	0	0	0	0	0	0	0	0	0	0	0	0	0	0	0	0	0	0	0	0	0	0	0	0	0
112818	13:10:53	13:25:11	855608	5.0.10.0	994	Rpleas_acq	Same	Rpleas	Bmasked	CS_B	2pleas	distractor2	AMP_CSpleas	AMP2	9	48	0	0	300	300	0	0	611	50	-32,958984375	1	0	0	0	1	blank2r.bmp	0	1	GKQX	0	1	blank2r.bmp	60	87	pic87.bmp	150	1	whitenoise.bmp	230	0	0	0	0	0	0	0	0	0	0	0	0	0	0	0	0	0	0	0	0	0	0	0	0	0	0	0	0	0	0	0	0	0	0	0	0	0	0	0
112818	13:10:53	13:25:13	856938	5.0.10.0	994	Rpleas_acq	Same	Rpleas	Bmasked	CS_B	2pleas	distractor2	AMP_distractor	AMP2	9	49	0	0	300	300	0	0	486	50	-32,958984375	0	0	0	0	1	blank2r.bmp	0	1	distractor_B2	0	1	blank2r.bmp	60	34	pic34.bmp	150	1	whitenoise.bmp	230	0	0	0	0	0	0	0	0	0	0	0	0	0	0	0	0	0	0	0	0	0	0	0	0	0	0	0	0	0	0	0	0	0	0	0	0	0	0	0
112818	13:10:53	13:25:14	858378	5.0.10.0	994	Rpleas_acq	Same	Rpleas	Bmasked	CS_B	2pleas	distractor2	AMP_distractor	AMP2	9	50	0	0	300	300	0	0	608	50	-32,958984375	0	0	0	0	1	blank2r.bmp	0	1	distractor_B2	0	1	blank2r.bmp	60	58	pic58.bmp	150	1	whitenoise.bmp	230	0	0	0	0	0	0	0	0	0	0	0	0	0	0	0	0	0	0	0	0	0	0	0	0	0	0	0	0	0	0	0	0	0	0	0	0	0	0	0
112818	13:10:53	13:26:28	932436	5.0.10.0	994	Rpleas_acq	Same	Rpleas	Bmasked	CS_B	2pleas	distractor2	cond_new_pleas_456_masked_CS1	condtest_masked_1	12	1	400	1	300	300	0	0	455	50	-32,958984375	1	0	0	0	1	blank2r.bmp	0	1	+	0	4	B4r.bmp	370	1	blank2r.bmp	590	1	BMVZ	590	1	blank2r.bmp	650	2	schlau	650	1	!	1009	1	!	1129	0	0	0	0	0	0	0	0	0	0	0	0	0	0	0	0	0	0	0	0	0	0	0	0	0	0	0
112818	13:10:53	13:26:30	934406	5.0.10.0	994	Rpleas_acq	Same	Rpleas	Bmasked	CS_B	2pleas	distractor2	cond_new_pleas_456_masked_CS2	condtest_masked_1	12	2	400	1	300	300	0	0	398	46	-32,958984375	0	0	0	0	1	blank2r.bmp	0	1	+	0	3	B3r.bmp	370	1	blank2r.bmp	590	1	GKQX	590	1	blank2r.bmp	650	3	fair	650	1	!	1009	1	!	1069	0	0	0	0	0	0	0	0	0	0	0	0	0	0	0	0	0	0	0	0	0	0	0	0	0	0	0
112818	13:10:53	13:26:32	936336	5.0.10.0	994	Rpleas_acq	Same	Rpleas	Bmasked	CS_B	2pleas	distractor2	cond_US_unple_123_masked_CS1	condtest_masked_1	12	3	400	1	300	300	0	0	367	50	-32,958984375	0	0	0	0	1	blank2r.bmp	0	1	+	0	7	C3r.bmp	370	1	blank2r.bmp	590	1	BMVZ	590	1	blank2r.bmp	650	1	faul	650	1	!	1009	1	!	1039	0	0	0	0	0	0	0	0	0	0	0	0	0	0	0	0	0	0	0	0	0	0	0	0	0	0	0
112818	13:10:53	13:26:34	938306	5.0.10.0	994	Rpleas_acq	Same	Rpleas	Bmasked	CS_B	2pleas	distractor2	cond_US_pleas_123_masked_CS1	condtest_masked_1	12	4	400	1	300	300	0	0	398	50	-32,958984375	1	0	0	0	1	blank2r.bmp	0	1	+	0	8	C4r.bmp	370	1	blank2r.bmp	590	1	BMVZ	590	1	blank2r.bmp	650	2	spielen	650	1	!	1009	1	!	1069	0	0	0	0	0	0	0	0	0	0	0	0	0	0	0	0	0	0	0	0	0	0	0	0	0	0	0
112818	13:10:53	13:26:36	940286	5.0.10.0	994	Rpleas_acq	Same	Rpleas	Bmasked	CS_B	2pleas	distractor2	cond_US_pleas_123_masked_CS2	condtest_masked_1	12	5	400	1	300	300	0	0	413	50	-32,958984375	1	0	0	0	1	blank2r.bmp	0	1	+	0	7	C3r.bmp	370	1	blank2r.bmp	590	1	GKQX	590	1	blank2r.bmp	650	3	schön	650	1	!	1009	1	!	1089	0	0	0	0	0	0	0	0	0	0	0	0	0	0	0	0	0	0	0	0	0	0	0	0	0	0	0
112818	13:10:53	13:26:38	942306	5.0.10.0	994	Rpleas_acq	Same	Rpleas	Bmasked	CS_B	2pleas	distractor2	cond_new_unple_456_masked_CS1	condtest_masked_1	12	6	400	1	300	300	0	0	451	50	-32,958984375	0	0	0	0	1	blank2r.bmp	0	1	+	0	4	B4r.bmp	370	1	blank2r.bmp	590	1	BMVZ	590	1	blank2r.bmp	650	1	rächen	650	1	!	1009	1	!	1129	0	0	0	0	0	0	0	0	0	0	0	0	0	0	0	0	0	0	0	0	0	0	0	0	0	0	0
