date	time	script.currenttime	script.elapsedtime	build	script.currentexpt	subject	expressions.LRpleas_acq	expressions.SameOppo	expressions.condition_Lpleas	expressions.ABmasked	expressions.conditionCS_A	expressions.condition_1pleas	expressions.condition_distractor_AMP	expressions.AWACON_AMPEVA_first	trialcode	blockcode	blocknum	trialnum	windowcenter	inwindow	pretrialpause	posttrialpause	trialduration	trialtimeout	latency	response	expressions.correctedscore	correct	values.vis_performance	values.vis_rating_sum	values.vis_rating_mean	stimulusnumber1	stimulusitem1	stimulusonset1	stimulusnumber2	stimulusitem2	stimulusonset2	stimulusnumber3	stimulusitem3	stimulusonset3	stimulusnumber4	stimulusitem4	stimulusonset4	stimulusnumber5	stimulusitem5	stimulusonset5	stimulusnumber6	stimulusitem6	stimulusonset6	stimulusnumber7	stimulusitem7	stimulusonset7	stimulusnumber8	stimulusitem8	stimulusonset8	stimulusnumber9	stimulusitem9	stimulusonset9	stimulusnumber10	stimulusitem10	stimulusonset10	stimulusnumber11	stimulusitem11	stimulusonset11	stimulusnumber12	stimulusitem12	stimulusonset12	stimulusnumber13	stimulusitem13	stimulusonset13	stimulusnumber14	stimulusitem14	stimulusonset14	stimulusnumber15	stimulusitem15	stimulusonset15	stimulusnumber16	stimulusitem16	stimulusonset16	stimulusnumber17	stimulusitem17	stimulusonset17	stimulusnumber18	stimulusitem18	stimulusonset18
031419	12:46:02	12:48:36	153349	5.0.10.0	4_exp_AWA_CON_AMP_EVA	163	Rpleas_acq	Oppo	Rpleas	Amasked	CS_A	1pleas	distractor1	CONbeforeEVA	acq_new_unple_masked	acq1_masked	1	1	0	0	300	300	0	0	3155	46	0	1	0	0	0	1	blank2r.bmp	0	1	+	0	6	C2r.bmp	492	1	blank2r.bmp	786	8	C4r.bmp	786	1	blank2r.bmp	866	1	engstirnig	866	0	0	0	0	0	0	0	0	0	0	0	0	0	0	0	0	0	0	0	0	0	0	0	0	0	0	0	0	0	0	0	0	0
031419	12:46:02	12:48:39	156122	5.0.10.0	4_exp_AWA_CON_AMP_EVA	163	Rpleas_acq	Oppo	Rpleas	Amasked	CS_A	1pleas	distractor1	CONbeforeEVA	acq_US_unple_masked	acq1_masked	1	2	0	0	300	300	0	0	1281	46	0	1	0	0	0	1	blank2r.bmp	0	1	+	0	4	B4r.bmp	492	1	blank2r.bmp	786	1	DHJF	786	1	blank2r.bmp	866	1	krank	866	0	0	0	0	0	0	0	0	0	0	0	0	0	0	0	0	0	0	0	0	0	0	0	0	0	0	0	0	0	0	0	0	0
031419	12:46:02	12:48:42	159040	5.0.10.0	4_exp_AWA_CON_AMP_EVA	163	Rpleas_acq	Oppo	Rpleas	Amasked	CS_A	1pleas	distractor1	CONbeforeEVA	acq_US_pleas_masked	acq1_masked	1	3	0	0	300	300	0	0	1441	50	0	1	0	0	0	1	blank2r.bmp	0	1	+	0	5	C1r.bmp	492	1	blank2r.bmp	786	1	CPLW	786	1	blank2r.bmp	866	4	besonnen	866	0	0	0	0	0	0	0	0	0	0	0	0	0	0	0	0	0	0	0	0	0	0	0	0	0	0	0	0	0	0	0	0	0
031419	12:46:02	12:48:44	161639	5.0.10.0	4_exp_AWA_CON_AMP_EVA	163	Rpleas_acq	Oppo	Rpleas	Amasked	CS_A	1pleas	distractor1	CONbeforeEVA	acq_new_unple_masked	acq1_masked	1	4	0	0	300	300	0	0	1114	46	0	1	0	0	0	1	blank2r.bmp	0	1	+	0	3	B3r.bmp	492	1	blank2r.bmp	786	7	C3r.bmp	786	1	blank2r.bmp	866	2	ausrottung	866	0	0	0	0	0	0	0	0	0	0	0	0	0	0	0	0	0	0	0	0	0	0	0	0	0	0	0	0	0	0	0	0	0
031419	12:46:02	12:48:47	164958	5.0.10.0	4_exp_AWA_CON_AMP_EVA	163	Rpleas_acq	Oppo	Rpleas	Amasked	CS_A	1pleas	distractor1	CONbeforeEVA	acq_US_unple_masked	acq1_masked	1	5	0	0	300	300	0	0	1828	46	0	1	0	0	0	1	blank2r.bmp	0	1	+	0	8	C4r.bmp	492	1	blank2r.bmp	786	1	DHJF	786	1	blank2r.bmp	866	2	versagen	866	0	0	0	0	0	0	0	0	0	0	0	0	0	0	0	0	0	0	0	0	0	0	0	0	0	0	0	0	0	0	0	0	0
031419	12:46:02	12:48:50	167357	5.0.10.0	4_exp_AWA_CON_AMP_EVA	163	Rpleas_acq	Oppo	Rpleas	Amasked	CS_A	1pleas	distractor1	CONbeforeEVA	acq_US_pleas_masked	acq1_masked	1	6	0	0	300	300	0	0	926	50	0	1	0	0	0	1	blank2r.bmp	0	1	+	0	2	B2r.bmp	492	1	blank2r.bmp	786	1	CPLW	786	1	blank2r.bmp	866	6	gütig	866	0	0	0	0	0	0	0	0	0	0	0	0	0	0	0	0	0	0	0	0	0	0	0	0	0	0	0	0	0	0	0	0	0
031419	12:46:02	12:48:53	170369	5.0.10.0	4_exp_AWA_CON_AMP_EVA	163	Rpleas_acq	Oppo	Rpleas	Amasked	CS_A	1pleas	distractor1	CONbeforeEVA	acq_new_pleas_masked	acq1_masked	1	7	0	0	300	300	0	0	1308	46	0	0	0	0	0	1	blank2r.bmp	0	1	+	0	7	C3r.bmp	492	1	blank2r.bmp	786	5	C1r.bmp	786	1	blank2r.bmp	866	6	genießen	866	1	FEHLER	2212	0	0	0	0	0	0	0	0	0	0	0	0	0	0	0	0	0	0	0	0	0	0	0	0	0	0	0	0	0	0
031419	12:46:02	12:48:56	173328	5.0.10.0	4_exp_AWA_CON_AMP_EVA	163	Rpleas_acq	Oppo	Rpleas	Amasked	CS_A	1pleas	distractor1	CONbeforeEVA	acq_US_pleas_masked	acq1_masked	1	8	0	0	300	300	0	0	1701	50	0	1	0	0	0	1	blank2r.bmp	0	1	+	0	1	B1r.bmp	492	1	blank2r.bmp	786	1	CPLW	786	1	blank2r.bmp	866	1	kreativ	866	0	0	0	0	0	0	0	0	0	0	0	0	0	0	0	0	0	0	0	0	0	0	0	0	0	0	0	0	0	0	0	0	0
031419	12:46:02	12:48:58	175940	5.0.10.0	4_exp_AWA_CON_AMP_EVA	163	Rpleas_acq	Oppo	Rpleas	Amasked	CS_A	1pleas	distractor1	CONbeforeEVA	acq_US_unple_masked	acq1_masked	1	9	0	0	300	300	0	0	1119	46	0	1	0	0	0	1	blank2r.bmp	0	1	+	0	4	B4r.bmp	492	1	blank2r.bmp	786	1	DHJF	786	1	blank2r.bmp	866	5	krise	866	0	0	0	0	0	0	0	0	0	0	0	0	0	0	0	0	0	0	0	0	0	0	0	0	0	0	0	0	0	0	0	0	0
031419	12:46:02	12:49:01	178552	5.0.10.0	4_exp_AWA_CON_AMP_EVA	163	Rpleas_acq	Oppo	Rpleas	Amasked	CS_A	1pleas	distractor1	CONbeforeEVA	acq_new_unple_masked	acq1_masked	1	10	0	0	300	300	0	0	1136	46	0	1	0	0	0	1	blank2r.bmp	0	1	+	0	6	C2r.bmp	492	1	blank2r.bmp	786	3	B3r.bmp	786	1	blank2r.bmp	866	6	gemein	866	0	0	0	0	0	0	0	0	0	0	0	0	0	0	0	0	0	0	0	0	0	0	0	0	0	0	0	0	0	0	0	0	0
031419	12:46:02	12:49:04	181871	5.0.10.0	4_exp_AWA_CON_AMP_EVA	163	Rpleas_acq	Oppo	Rpleas	Amasked	CS_A	1pleas	distractor1	CONbeforeEVA	acq_new_pleas_masked	acq1_masked	1	11	0	0	300	300	0	0	1632	46	0	0	0	0	0	1	blank2r.bmp	0	1	+	0	3	B3r.bmp	492	1	blank2r.bmp	786	6	C2r.bmp	786	1	blank2r.bmp	866	5	gesittet	866	1	FEHLER	2532	0	0	0	0	0	0	0	0	0	0	0	0	0	0	0	0	0	0	0	0	0	0	0	0	0	0	0	0	0	0
031419	12:46:02	12:49:07	184643	5.0.10.0	4_exp_AWA_CON_AMP_EVA	163	Rpleas_acq	Oppo	Rpleas	Amasked	CS_A	1pleas	distractor1	CONbeforeEVA	acq_new_pleas_masked	acq1_masked	1	12	0	0	300	300	0	0	1290	46	0	0	0	0	0	1	blank2r.bmp	0	1	+	0	2	B2r.bmp	492	1	blank2r.bmp	786	4	B4r.bmp	786	1	blank2r.bmp	866	2	anregung	866	1	FEHLER	2185	0	0	0	0	0	0	0	0	0	0	0	0	0	0	0	0	0	0	0	0	0	0	0	0	0	0	0	0	0	0
031419	12:46:02	12:49:10	187322	5.0.10.0	4_exp_AWA_CON_AMP_EVA	163	Rpleas_acq	Oppo	Rpleas	Amasked	CS_A	1pleas	distractor1	CONbeforeEVA	acq_US_pleas_masked	acq1_masked	1	13	0	0	300	300	0	0	1405	50	0	1	0	0	0	1	blank2r.bmp	0	1	+	0	7	C3r.bmp	492	1	blank2r.bmp	786	1	CPLW	786	1	blank2r.bmp	866	2	vertrauen	866	0	0	0	0	0	0	0	0	0	0	0	0	0	0	0	0	0	0	0	0	0	0	0	0	0	0	0	0	0	0	0	0	0
031419	12:46:02	12:49:14	191147	5.0.10.0	4_exp_AWA_CON_AMP_EVA	163	Rpleas_acq	Oppo	Rpleas	Amasked	CS_A	1pleas	distractor1	CONbeforeEVA	acq_US_pleas_masked	acq1_masked	1	14	0	0	300	300	0	0	2339	50	0	1	0	0	0	1	blank2r.bmp	0	1	+	0	1	B1r.bmp	492	1	blank2r.bmp	786	1	CPLW	786	1	blank2r.bmp	866	3	träumen	866	0	0	0	0	0	0	0	0	0	0	0	0	0	0	0	0	0	0	0	0	0	0	0	0	0	0	0	0	0	0	0	0	0
031419	12:46:02	12:49:16	193879	5.0.10.0	4_exp_AWA_CON_AMP_EVA	163	Rpleas_acq	Oppo	Rpleas	Amasked	CS_A	1pleas	distractor1	CONbeforeEVA	acq_new_pleas_masked	acq1_masked	1	15	0	0	300	300	0	0	1240	50	0	1	0	0	0	1	blank2r.bmp	0	1	+	0	5	C1r.bmp	492	1	blank2r.bmp	786	1	B1r.bmp	786	1	blank2r.bmp	866	4	vergnügt	866	0	0	0	0	0	0	0	0	0	0	0	0	0	0	0	0	0	0	0	0	0	0	0	0	0	0	0	0	0	0	0	0	0
031419	12:46:02	12:49:19	196692	5.0.10.0	4_exp_AWA_CON_AMP_EVA	163	Rpleas_acq	Oppo	Rpleas	Amasked	CS_A	1pleas	distractor1	CONbeforeEVA	acq_new_unple_masked	acq1_masked	1	16	0	0	300	300	0	0	1331	46	0	1	0	0	0	1	blank2r.bmp	0	1	+	0	8	C4r.bmp	492	1	blank2r.bmp	786	2	B2r.bmp	786	1	blank2r.bmp	866	4	verbissen	866	0	0	0	0	0	0	0	0	0	0	0	0	0	0	0	0	0	0	0	0	0	0	0	0	0	0	0	0	0	0	0	0	0
031419	12:46:02	12:49:22	199344	5.0.10.0	4_exp_AWA_CON_AMP_EVA	163	Rpleas_acq	Oppo	Rpleas	Amasked	CS_A	1pleas	distractor1	CONbeforeEVA	acq_new_unple_masked	acq1_masked	1	17	0	0	300	300	0	0	1178	46	0	1	0	0	0	1	blank2r.bmp	0	1	+	0	4	B4r.bmp	492	1	blank2r.bmp	786	7	C3r.bmp	786	1	blank2r.bmp	866	5	geizig	866	0	0	0	0	0	0	0	0	0	0	0	0	0	0	0	0	0	0	0	0	0	0	0	0	0	0	0	0	0	0	0	0	0
031419	12:46:02	12:49:24	201716	5.0.10.0	4_exp_AWA_CON_AMP_EVA	163	Rpleas_acq	Oppo	Rpleas	Amasked	CS_A	1pleas	distractor1	CONbeforeEVA	acq_US_unple_masked	acq1_masked	1	18	0	0	300	300	0	0	897	46	0	1	0	0	0	1	blank2r.bmp	0	1	+	0	8	C4r.bmp	492	1	blank2r.bmp	786	1	DHJF	786	1	blank2r.bmp	866	6	gierig	866	0	0	0	0	0	0	0	0	0	0	0	0	0	0	0	0	0	0	0	0	0	0	0	0	0	0	0	0	0	0	0	0	0
031419	12:46:02	12:49:28	205195	5.0.10.0	4_exp_AWA_CON_AMP_EVA	163	Rpleas_acq	Oppo	Rpleas	Amasked	CS_A	1pleas	distractor1	CONbeforeEVA	acq_US_unple_masked	acq1_masked	1	19	0	0	300	300	0	0	2006	46	0	1	0	0	0	1	blank2r.bmp	0	1	+	0	2	B2r.bmp	492	1	blank2r.bmp	786	1	DHJF	786	1	blank2r.bmp	866	4	bange	866	0	0	0	0	0	0	0	0	0	0	0	0	0	0	0	0	0	0	0	0	0	0	0	0	0	0	0	0	0	0	0	0	0
031419	12:46:02	12:49:30	207460	5.0.10.0	4_exp_AWA_CON_AMP_EVA	163	Rpleas_acq	Oppo	Rpleas	Amasked	CS_A	1pleas	distractor1	CONbeforeEVA	acq_new_unple_masked	acq1_masked	1	20	0	0	300	300	0	0	777	46	0	1	0	0	0	1	blank2r.bmp	0	1	+	0	7	C3r.bmp	492	1	blank2r.bmp	786	3	B3r.bmp	786	1	blank2r.bmp	866	3	sterben	866	0	0	0	0	0	0	0	0	0	0	0	0	0	0	0	0	0	0	0	0	0	0	0	0	0	0	0	0	0	0	0	0	0
031419	12:46:02	12:49:32	209780	5.0.10.0	4_exp_AWA_CON_AMP_EVA	163	Rpleas_acq	Oppo	Rpleas	Amasked	CS_A	1pleas	distractor1	CONbeforeEVA	acq_US_pleas_masked	acq1_masked	1	21	0	0	300	300	0	0	830	50	0	1	0	0	0	1	blank2r.bmp	0	1	+	0	5	C1r.bmp	492	1	blank2r.bmp	786	1	CPLW	786	1	blank2r.bmp	866	5	kuss	866	0	0	0	0	0	0	0	0	0	0	0	0	0	0	0	0	0	0	0	0	0	0	0	0	0	0	0	0	0	0	0	0	0
031419	12:46:02	12:49:34	212005	5.0.10.0	4_exp_AWA_CON_AMP_EVA	163	Rpleas_acq	Oppo	Rpleas	Amasked	CS_A	1pleas	distractor1	CONbeforeEVA	acq_US_unple_masked	acq1_masked	1	22	0	0	300	300	0	0	746	46	0	1	0	0	0	1	blank2r.bmp	0	1	+	0	3	B3r.bmp	492	1	blank2r.bmp	786	1	DHJF	786	1	blank2r.bmp	866	3	töten	866	0	0	0	0	0	0	0	0	0	0	0	0	0	0	0	0	0	0	0	0	0	0	0	0	0	0	0	0	0	0	0	0	0
031419	12:46:02	12:49:37	214777	5.0.10.0	4_exp_AWA_CON_AMP_EVA	163	Rpleas_acq	Oppo	Rpleas	Amasked	CS_A	1pleas	distractor1	CONbeforeEVA	acq_new_pleas_masked	acq1_masked	1	23	0	0	300	300	0	0	1278	50	0	1	0	0	0	1	blank2r.bmp	0	1	+	0	6	C2r.bmp	492	1	blank2r.bmp	786	1	B1r.bmp	786	1	blank2r.bmp	866	3	sonnig	866	0	0	0	0	0	0	0	0	0	0	0	0	0	0	0	0	0	0	0	0	0	0	0	0	0	0	0	0	0	0	0	0	0
031419	12:46:02	12:49:40	217430	5.0.10.0	4_exp_AWA_CON_AMP_EVA	163	Rpleas_acq	Oppo	Rpleas	Amasked	CS_A	1pleas	distractor1	CONbeforeEVA	acq_new_pleas_masked	acq1_masked	1	24	0	0	300	300	0	0	1177	50	0	1	0	0	0	1	blank2r.bmp	0	1	+	0	1	B1r.bmp	492	1	blank2r.bmp	786	6	C2r.bmp	786	1	blank2r.bmp	866	1	engagiert	866	0	0	0	0	0	0	0	0	0	0	0	0	0	0	0	0	0	0	0	0	0	0	0	0	0	0	0	0	0	0	0	0	0
031419	12:46:02	12:49:42	219842	5.0.10.0	4_exp_AWA_CON_AMP_EVA	163	Rpleas_acq	Oppo	Rpleas	Amasked	CS_A	1pleas	distractor1	CONbeforeEVA	acq_new_unple_masked	acq1_masked	1	25	0	0	300	300	0	0	918	46	0	1	0	0	0	1	blank2r.bmp	0	1	+	0	5	C1r.bmp	492	1	blank2r.bmp	786	8	C4r.bmp	786	1	blank2r.bmp	866	6	gemein	866	0	0	0	0	0	0	0	0	0	0	0	0	0	0	0	0	0	0	0	0	0	0	0	0	0	0	0	0	0	0	0	0	0
031419	12:46:02	12:49:45	222228	5.0.10.0	4_exp_AWA_CON_AMP_EVA	163	Rpleas_acq	Oppo	Rpleas	Amasked	CS_A	1pleas	distractor1	CONbeforeEVA	acq_US_pleas_masked	acq1_masked	1	26	0	0	300	300	0	0	909	50	0	1	0	0	0	1	blank2r.bmp	0	1	+	0	1	B1r.bmp	492	1	blank2r.bmp	786	1	CPLW	786	1	blank2r.bmp	866	2	vertrauen	866	0	0	0	0	0	0	0	0	0	0	0	0	0	0	0	0	0	0	0	0	0	0	0	0	0	0	0	0	0	0	0	0	0
031419	12:46:02	12:49:47	224573	5.0.10.0	4_exp_AWA_CON_AMP_EVA	163	Rpleas_acq	Oppo	Rpleas	Amasked	CS_A	1pleas	distractor1	CONbeforeEVA	acq_US_pleas_masked	acq1_masked	1	27	0	0	300	300	0	0	876	50	0	1	0	0	0	1	blank2r.bmp	0	1	+	0	4	B4r.bmp	492	1	blank2r.bmp	786	1	CPLW	786	1	blank2r.bmp	866	3	träumen	866	0	0	0	0	0	0	0	0	0	0	0	0	0	0	0	0	0	0	0	0	0	0	0	0	0	0	0	0	0	0	0	0	0
031419	12:46:02	12:49:50	227226	5.0.10.0	4_exp_AWA_CON_AMP_EVA	163	Rpleas_acq	Oppo	Rpleas	Amasked	CS_A	1pleas	distractor1	CONbeforeEVA	acq_US_unple_masked	acq1_masked	1	28	0	0	300	300	0	0	1164	46	0	1	0	0	0	1	blank2r.bmp	0	1	+	0	6	C2r.bmp	492	1	blank2r.bmp	786	1	DHJF	786	1	blank2r.bmp	866	4	bange	866	0	0	0	0	0	0	0	0	0	0	0	0	0	0	0	0	0	0	0	0	0	0	0	0	0	0	0	0	0	0	0	0	0
031419	12:46:02	12:49:52	229451	5.0.10.0	4_exp_AWA_CON_AMP_EVA	163	Rpleas_acq	Oppo	Rpleas	Amasked	CS_A	1pleas	distractor1	CONbeforeEVA	acq_US_unple_masked	acq1_masked	1	29	0	0	300	300	0	0	743	46	0	1	0	0	0	1	blank2r.bmp	0	1	+	0	8	C4r.bmp	492	1	blank2r.bmp	786	1	DHJF	786	1	blank2r.bmp	866	2	versagen	866	0	0	0	0	0	0	0	0	0	0	0	0	0	0	0	0	0	0	0	0	0	0	0	0	0	0	0	0	0	0	0	0	0
031419	12:46:02	12:49:54	231597	5.0.10.0	4_exp_AWA_CON_AMP_EVA	163	Rpleas_acq	Oppo	Rpleas	Amasked	CS_A	1pleas	distractor1	CONbeforeEVA	acq_US_unple_masked	acq1_masked	1	30	0	0	300	300	0	0	656	46	0	1	0	0	0	1	blank2r.bmp	0	1	+	0	7	C3r.bmp	492	1	blank2r.bmp	786	1	DHJF	786	1	blank2r.bmp	866	3	töten	866	0	0	0	0	0	0	0	0	0	0	0	0	0	0	0	0	0	0	0	0	0	0	0	0	0	0	0	0	0	0	0	0	0
031419	12:46:02	12:49:58	235502	5.0.10.0	4_exp_AWA_CON_AMP_EVA	163	Rpleas_acq	Oppo	Rpleas	Amasked	CS_A	1pleas	distractor1	CONbeforeEVA	acq_US_pleas_masked	acq1_masked	1	31	0	0	300	300	0	0	2413	50	0	1	0	0	0	1	blank2r.bmp	0	1	+	0	2	B2r.bmp	492	1	blank2r.bmp	786	1	CPLW	786	1	blank2r.bmp	866	6	gütig	866	0	0	0	0	0	0	0	0	0	0	0	0	0	0	0	0	0	0	0	0	0	0	0	0	0	0	0	0	0	0	0	0	0
031419	12:46:02	12:50:00	237955	5.0.10.0	4_exp_AWA_CON_AMP_EVA	163	Rpleas_acq	Oppo	Rpleas	Amasked	CS_A	1pleas	distractor1	CONbeforeEVA	acq_new_pleas_masked	acq1_masked	1	32	0	0	300	300	0	0	981	50	0	1	0	0	0	1	blank2r.bmp	0	1	+	0	3	B3r.bmp	492	1	blank2r.bmp	786	4	B4r.bmp	786	1	blank2r.bmp	866	3	sonnig	866	0	0	0	0	0	0	0	0	0	0	0	0	0	0	0	0	0	0	0	0	0	0	0	0	0	0	0	0	0	0	0	0	0
031419	12:46:02	12:50:05	242246	5.0.10.0	4_exp_AWA_CON_AMP_EVA	163	Rpleas_acq	Oppo	Rpleas	Amasked	CS_A	1pleas	distractor1	CONbeforeEVA	acq_new_unple_masked	acq1_masked	1	33	0	0	300	300	0	0	2809	46	0	1	0	0	0	1	blank2r.bmp	0	1	+	0	7	C3r.bmp	492	1	blank2r.bmp	786	5	C1r.bmp	786	1	blank2r.bmp	866	1	engstirnig	866	0	0	0	0	0	0	0	0	0	0	0	0	0	0	0	0	0	0	0	0	0	0	0	0	0	0	0	0	0	0	0	0	0
031419	12:46:02	12:50:08	245392	5.0.10.0	4_exp_AWA_CON_AMP_EVA	163	Rpleas_acq	Oppo	Rpleas	Amasked	CS_A	1pleas	distractor1	CONbeforeEVA	acq_new_pleas_masked	acq1_masked	1	34	0	0	300	300	0	0	1654	50	0	1	0	0	0	1	blank2r.bmp	0	1	+	0	1	B1r.bmp	492	1	blank2r.bmp	786	2	B2r.bmp	786	1	blank2r.bmp	866	4	vergnügt	866	0	0	0	0	0	0	0	0	0	0	0	0	0	0	0	0	0	0	0	0	0	0	0	0	0	0	0	0	0	0	0	0	0
031419	12:46:02	12:50:10	247577	5.0.10.0	4_exp_AWA_CON_AMP_EVA	163	Rpleas_acq	Oppo	Rpleas	Amasked	CS_A	1pleas	distractor1	CONbeforeEVA	acq_new_pleas_masked	acq1_masked	1	35	0	0	300	300	0	0	717	50	0	1	0	0	0	1	blank2r.bmp	0	1	+	0	5	C1r.bmp	492	1	blank2r.bmp	786	1	B1r.bmp	786	1	blank2r.bmp	866	1	engagiert	866	0	0	0	0	0	0	0	0	0	0	0	0	0	0	0	0	0	0	0	0	0	0	0	0	0	0	0	0	0	0	0	0	0
031419	12:46:02	12:50:12	249910	5.0.10.0	4_exp_AWA_CON_AMP_EVA	163	Rpleas_acq	Oppo	Rpleas	Amasked	CS_A	1pleas	distractor1	CONbeforeEVA	acq_new_unple_masked	acq1_masked	1	36	0	0	300	300	0	0	847	46	0	1	0	0	0	1	blank2r.bmp	0	1	+	0	2	B2r.bmp	492	1	blank2r.bmp	786	5	C1r.bmp	786	1	blank2r.bmp	866	5	geizig	866	0	0	0	0	0	0	0	0	0	0	0	0	0	0	0	0	0	0	0	0	0	0	0	0	0	0	0	0	0	0	0	0	0
031419	12:46:02	12:51:18	315856	5.0.10.0	4_exp_AWA_CON_AMP_EVA	163	Rpleas_acq	Oppo	Rpleas	Amasked	CS_A	1pleas	distractor1	CONbeforeEVA	acq_US_unple_masked	acq2_masked	2	1	480	0	300	300	0	0	4738	46	0	1	0	0	0	1	blank2r.bmp	0	1	+	0	6	C2r.bmp	492	1	blank2r.bmp	786	1	DHJF	786	1	blank2r.bmp	866	5	krise	866	1	!	1319	1	!	-1	0	0	0	0	0	0	0	0	0	0	0	0	0	0	0	0	0	0	0	0	0	0	0	0	0	0	0
031419	12:46:02	12:51:21	318242	5.0.10.0	4_exp_AWA_CON_AMP_EVA	163	Rpleas_acq	Oppo	Rpleas	Amasked	CS_A	1pleas	distractor1	CONbeforeEVA	acq_new_unple_masked	acq2_masked	2	2	480	0	300	300	0	0	596	46	0	1	0	0	0	1	blank2r.bmp	0	1	+	0	3	B3r.bmp	492	1	blank2r.bmp	786	2	B2r.bmp	786	1	blank2r.bmp	866	2	ausrottung	866	1	!	1319	1	!	-1	0	0	0	0	0	0	0	0	0	0	0	0	0	0	0	0	0	0	0	0	0	0	0	0	0	0	0
031419	12:46:02	12:51:23	320721	5.0.10.0	4_exp_AWA_CON_AMP_EVA	163	Rpleas_acq	Oppo	Rpleas	Amasked	CS_A	1pleas	distractor1	CONbeforeEVA	acq_new_unple_masked	acq2_masked	2	3	480	0	300	300	0	0	681	46	0	1	0	0	0	1	blank2r.bmp	0	1	+	0	4	B4r.bmp	492	1	blank2r.bmp	786	8	C4r.bmp	786	1	blank2r.bmp	866	4	verbissen	866	1	!	1319	1	!	-1	0	0	0	0	0	0	0	0	0	0	0	0	0	0	0	0	0	0	0	0	0	0	0	0	0	0	0
031419	12:46:02	12:51:25	322973	5.0.10.0	4_exp_AWA_CON_AMP_EVA	163	Rpleas_acq	Oppo	Rpleas	Amasked	CS_A	1pleas	distractor1	CONbeforeEVA	acq_US_pleas_masked	acq2_masked	2	4	480	1	300	300	0	0	446	50	0	1	0	0	0	1	blank2r.bmp	0	1	+	0	8	C4r.bmp	492	1	blank2r.bmp	786	1	CPLW	786	1	blank2r.bmp	866	5	kuss	866	1	!	1319	1	!	1346	0	0	0	0	0	0	0	0	0	0	0	0	0	0	0	0	0	0	0	0	0	0	0	0	0	0	0
031419	12:46:02	12:51:28	325145	5.0.10.0	4_exp_AWA_CON_AMP_EVA	163	Rpleas_acq	Oppo	Rpleas	Amasked	CS_A	1pleas	distractor1	CONbeforeEVA	acq_US_unple_masked	acq2_masked	2	5	480	0	300	300	0	0	409	46	0	1	0	0	0	1	blank2r.bmp	0	1	+	0	8	C4r.bmp	492	1	blank2r.bmp	786	1	DHJF	786	1	blank2r.bmp	866	6	gierig	866	1	!	-1	1	!	-1	0	0	0	0	0	0	0	0	0	0	0	0	0	0	0	0	0	0	0	0	0	0	0	0	0	0	0
031419	12:46:02	12:51:30	327478	5.0.10.0	4_exp_AWA_CON_AMP_EVA	163	Rpleas_acq	Oppo	Rpleas	Amasked	CS_A	1pleas	distractor1	CONbeforeEVA	acq_new_pleas_masked	acq2_masked	2	6	480	1	300	300	0	0	519	50	0	1	0	0	0	1	blank2r.bmp	0	1	+	0	4	B4r.bmp	492	1	blank2r.bmp	786	7	C3r.bmp	786	1	blank2r.bmp	866	6	genießen	866	1	!	1319	1	!	1426	0	0	0	0	0	0	0	0	0	0	0	0	0	0	0	0	0	0	0	0	0	0	0	0	0	0	0
031419	12:46:02	12:51:32	329743	5.0.10.0	4_exp_AWA_CON_AMP_EVA	163	Rpleas_acq	Oppo	Rpleas	Amasked	CS_A	1pleas	distractor1	CONbeforeEVA	acq_US_unple_masked	acq2_masked	2	7	480	1	300	300	0	0	472	46	0	1	0	0	0	1	blank2r.bmp	0	1	+	0	7	C3r.bmp	492	1	blank2r.bmp	786	1	DHJF	786	1	blank2r.bmp	866	1	krank	866	1	!	1319	1	!	1372	0	0	0	0	0	0	0	0	0	0	0	0	0	0	0	0	0	0	0	0	0	0	0	0	0	0	0
031419	12:46:02	12:51:35	332249	5.0.10.0	4_exp_AWA_CON_AMP_EVA	163	Rpleas_acq	Oppo	Rpleas	Amasked	CS_A	1pleas	distractor1	CONbeforeEVA	acq_new_unple_masked	acq2_masked	2	8	480	1	300	300	0	0	500	50	0	0	0	0	0	1	blank2r.bmp	0	1	+	0	3	B3r.bmp	492	1	blank2r.bmp	786	6	C2r.bmp	786	1	blank2r.bmp	866	3	sterben	866	1	FEHLER	1719	1	!	1319	1	!	1399	0	0	0	0	0	0	0	0	0	0	0	0	0	0	0	0	0	0	0	0	0	0	0	0
031419	12:46:02	12:51:37	334848	5.0.10.0	4_exp_AWA_CON_AMP_EVA	163	Rpleas_acq	Oppo	Rpleas	Amasked	CS_A	1pleas	distractor1	CONbeforeEVA	acq_US_pleas_masked	acq2_masked	2	9	480	0	300	300	0	0	820	46	0	0	0	0	0	1	blank2r.bmp	0	1	+	0	5	C1r.bmp	492	1	blank2r.bmp	786	1	CPLW	786	1	blank2r.bmp	866	4	besonnen	866	1	FEHLER	2025	1	!	1319	1	!	-1	0	0	0	0	0	0	0	0	0	0	0	0	0	0	0	0	0	0	0	0	0	0	0	0
031419	12:46:02	12:51:40	337020	5.0.10.0	4_exp_AWA_CON_AMP_EVA	163	Rpleas_acq	Oppo	Rpleas	Amasked	CS_A	1pleas	distractor1	CONbeforeEVA	acq_new_pleas_masked	acq2_masked	2	10	480	0	300	300	0	0	611	50	0	1	0	0	0	1	blank2r.bmp	0	1	+	0	1	B1r.bmp	492	1	blank2r.bmp	786	4	B4r.bmp	786	1	blank2r.bmp	866	5	gesittet	866	1	!	1319	1	!	-1	0	0	0	0	0	0	0	0	0	0	0	0	0	0	0	0	0	0	0	0	0	0	0	0	0	0	0
031419	12:46:02	12:51:42	339100	5.0.10.0	4_exp_AWA_CON_AMP_EVA	163	Rpleas_acq	Oppo	Rpleas	Amasked	CS_A	1pleas	distractor1	CONbeforeEVA	acq_new_pleas_masked	acq2_masked	2	11	480	0	300	300	0	0	304	50	0	1	0	0	0	1	blank2r.bmp	0	1	+	0	6	C2r.bmp	492	1	blank2r.bmp	786	3	B3r.bmp	786	1	blank2r.bmp	866	2	anregung	866	1	!	-1	1	!	-1	0	0	0	0	0	0	0	0	0	0	0	0	0	0	0	0	0	0	0	0	0	0	0	0	0	0	0
031419	12:46:02	12:51:44	341645	5.0.10.0	4_exp_AWA_CON_AMP_EVA	163	Rpleas_acq	Oppo	Rpleas	Amasked	CS_A	1pleas	distractor1	CONbeforeEVA	acq_US_pleas_masked	acq2_masked	2	12	480	0	300	300	0	0	745	50	0	1	0	0	0	1	blank2r.bmp	0	1	+	0	2	B2r.bmp	492	1	blank2r.bmp	786	1	CPLW	786	1	blank2r.bmp	866	1	kreativ	866	1	!	1319	1	!	-1	0	0	0	0	0	0	0	0	0	0	0	0	0	0	0	0	0	0	0	0	0	0	0	0	0	0	0
031419	12:46:02	12:51:46	343924	5.0.10.0	4_exp_AWA_CON_AMP_EVA	163	Rpleas_acq	Oppo	Rpleas	Amasked	CS_A	1pleas	distractor1	CONbeforeEVA	acq_US_pleas_masked	acq2_masked	2	13	480	0	300	300	0	0	269	46	0	0	0	0	0	1	blank2r.bmp	0	1	+	0	5	C1r.bmp	492	1	blank2r.bmp	786	1	CPLW	786	1	blank2r.bmp	866	1	kreativ	866	1	FEHLER	1479	1	!	-1	1	!	-1	0	0	0	0	0	0	0	0	0	0	0	0	0	0	0	0	0	0	0	0	0	0	0	0
031419	12:46:02	12:51:48	345684	5.0.10.0	4_exp_AWA_CON_AMP_EVA	163	Rpleas_acq	Oppo	Rpleas	Amasked	CS_A	1pleas	distractor1	CONbeforeEVA	acq_new_pleas_masked	acq2_masked	2	14	480	0	300	300	0	0	205	50	0	1	0	0	0	1	blank2r.bmp	0	1	+	0	4	B4r.bmp	492	1	blank2r.bmp	786	1	B1r.bmp	786	1	blank2r.bmp	866	4	vergnügt	866	1	!	-1	1	!	-1	0	0	0	0	0	0	0	0	0	0	0	0	0	0	0	0	0	0	0	0	0	0	0	0	0	0	0
031419	12:46:02	12:51:51	348189	5.0.10.0	4_exp_AWA_CON_AMP_EVA	163	Rpleas_acq	Oppo	Rpleas	Amasked	CS_A	1pleas	distractor1	CONbeforeEVA	acq_US_pleas_masked	acq2_masked	2	15	480	0	300	300	0	0	730	50	0	1	0	0	0	1	blank2r.bmp	0	1	+	0	6	C2r.bmp	492	1	blank2r.bmp	786	1	CPLW	786	1	blank2r.bmp	866	2	vertrauen	866	1	!	1319	1	!	-1	0	0	0	0	0	0	0	0	0	0	0	0	0	0	0	0	0	0	0	0	0	0	0	0	0	0	0
031419	12:46:02	12:51:53	350562	5.0.10.0	4_exp_AWA_CON_AMP_EVA	163	Rpleas_acq	Oppo	Rpleas	Amasked	CS_A	1pleas	distractor1	CONbeforeEVA	acq_new_pleas_masked	acq2_masked	2	16	480	0	300	300	0	0	591	50	0	1	0	0	0	1	blank2r.bmp	0	1	+	0	8	C4r.bmp	492	1	blank2r.bmp	786	6	C2r.bmp	786	1	blank2r.bmp	866	2	anregung	866	1	!	1319	1	!	-1	0	0	0	0	0	0	0	0	0	0	0	0	0	0	0	0	0	0	0	0	0	0	0	0	0	0	0
031419	12:46:02	12:51:56	353107	5.0.10.0	4_exp_AWA_CON_AMP_EVA	163	Rpleas_acq	Oppo	Rpleas	Amasked	CS_A	1pleas	distractor1	CONbeforeEVA	acq_new_unple_masked	acq2_masked	2	17	480	1	300	300	0	0	521	50	0	0	0	0	0	1	blank2r.bmp	0	1	+	0	1	B1r.bmp	492	1	blank2r.bmp	786	7	C3r.bmp	786	1	blank2r.bmp	866	6	gemein	866	1	FEHLER	1745	1	!	1319	1	!	1426	0	0	0	0	0	0	0	0	0	0	0	0	0	0	0	0	0	0	0	0	0	0	0	0
031419	12:46:02	12:51:58	355466	5.0.10.0	4_exp_AWA_CON_AMP_EVA	163	Rpleas_acq	Oppo	Rpleas	Amasked	CS_A	1pleas	distractor1	CONbeforeEVA	acq_new_pleas_masked	acq2_masked	2	18	480	0	300	300	0	0	800	50	0	1	0	0	0	1	blank2r.bmp	0	1	+	0	2	B2r.bmp	492	1	blank2r.bmp	786	8	C4r.bmp	786	1	blank2r.bmp	866	3	sonnig	866	1	!	1319	1	!	-1	0	0	0	0	0	0	0	0	0	0	0	0	0	0	0	0	0	0	0	0	0	0	0	0	0	0	0
031419	12:46:02	12:52:04	361037	5.0.10.0	4_exp_AWA_CON_AMP_EVA	163	Rpleas_acq	Oppo	Rpleas	Amasked	CS_A	1pleas	distractor1	CONbeforeEVA	acq_US_unple_masked	acq2_masked	2	19	480	0	300	300	0	0	3567	50	0	0	0	0	0	1	blank2r.bmp	0	1	+	0	7	C3r.bmp	492	1	blank2r.bmp	786	1	DHJF	786	1	blank2r.bmp	866	2	versagen	866	1	FEHLER	4771	1	!	1319	1	!	-1	0	0	0	0	0	0	0	0	0	0	0	0	0	0	0	0	0	0	0	0	0	0	0	0
031419	12:46:02	12:52:07	364476	5.0.10.0	4_exp_AWA_CON_AMP_EVA	163	Rpleas_acq	Oppo	Rpleas	Amasked	CS_A	1pleas	distractor1	CONbeforeEVA	acq_US_unple_masked	acq2_masked	2	20	480	0	300	300	0	0	1661	50	0	0	0	0	0	1	blank2r.bmp	0	1	+	0	3	B3r.bmp	492	1	blank2r.bmp	786	1	DHJF	786	1	blank2r.bmp	866	5	krise	866	1	FEHLER	2865	1	!	1319	1	!	-1	0	0	0	0	0	0	0	0	0	0	0	0	0	0	0	0	0	0	0	0	0	0	0	0
031419	12:46:02	12:52:09	366608	5.0.10.0	4_exp_AWA_CON_AMP_EVA	163	Rpleas_acq	Oppo	Rpleas	Amasked	CS_A	1pleas	distractor1	CONbeforeEVA	acq_US_unple_masked	acq2_masked	2	21	480	0	300	300	0	0	584	46	0	1	0	0	0	1	blank2r.bmp	0	1	+	0	8	C4r.bmp	492	1	blank2r.bmp	786	1	DHJF	786	1	blank2r.bmp	866	1	krank	866	1	!	1319	1	!	-1	0	0	0	0	0	0	0	0	0	0	0	0	0	0	0	0	0	0	0	0	0	0	0	0	0	0	0
031419	12:46:02	12:52:11	368967	5.0.10.0	4_exp_AWA_CON_AMP_EVA	163	Rpleas_acq	Oppo	Rpleas	Amasked	CS_A	1pleas	distractor1	CONbeforeEVA	acq_new_unple_masked	acq2_masked	2	22	480	0	300	300	0	0	583	46	0	1	0	0	0	1	blank2r.bmp	0	1	+	0	3	B3r.bmp	492	1	blank2r.bmp	786	2	B2r.bmp	786	1	blank2r.bmp	866	2	ausrottung	866	1	!	1319	1	!	-1	0	0	0	0	0	0	0	0	0	0	0	0	0	0	0	0	0	0	0	0	0	0	0	0	0	0	0
031419	12:46:02	12:52:14	371033	5.0.10.0	4_exp_AWA_CON_AMP_EVA	163	Rpleas_acq	Oppo	Rpleas	Amasked	CS_A	1pleas	distractor1	CONbeforeEVA	acq_new_unple_masked	acq2_masked	2	23	480	0	300	300	0	0	279	46	0	1	0	0	0	1	blank2r.bmp	0	1	+	0	2	B2r.bmp	492	1	blank2r.bmp	786	3	B3r.bmp	786	1	blank2r.bmp	866	1	engstirnig	866	1	!	-1	1	!	-1	0	0	0	0	0	0	0	0	0	0	0	0	0	0	0	0	0	0	0	0	0	0	0	0	0	0	0
031419	12:46:02	12:52:16	373619	5.0.10.0	4_exp_AWA_CON_AMP_EVA	163	Rpleas_acq	Oppo	Rpleas	Amasked	CS_A	1pleas	distractor1	CONbeforeEVA	acq_US_pleas_masked	acq2_masked	2	24	480	1	300	300	0	0	546	46	0	0	0	0	0	1	blank2r.bmp	0	1	+	0	6	C2r.bmp	492	1	blank2r.bmp	786	1	CPLW	786	1	blank2r.bmp	866	3	träumen	866	1	FEHLER	1772	1	!	1319	1	!	1452	0	0	0	0	0	0	0	0	0	0	0	0	0	0	0	0	0	0	0	0	0	0	0	0
031419	12:46:02	12:52:18	375645	5.0.10.0	4_exp_AWA_CON_AMP_EVA	163	Rpleas_acq	Oppo	Rpleas	Amasked	CS_A	1pleas	distractor1	CONbeforeEVA	acq_US_unple_masked	acq2_masked	2	25	480	0	300	300	0	0	243	50	0	0	0	0	0	1	blank2r.bmp	0	1	+	0	1	B1r.bmp	492	1	blank2r.bmp	786	1	DHJF	786	1	blank2r.bmp	866	3	töten	866	1	FEHLER	1452	1	!	-1	1	!	-1	0	0	0	0	0	0	0	0	0	0	0	0	0	0	0	0	0	0	0	0	0	0	0	0
031419	12:46:02	12:52:20	377950	5.0.10.0	4_exp_AWA_CON_AMP_EVA	163	Rpleas_acq	Oppo	Rpleas	Amasked	CS_A	1pleas	distractor1	CONbeforeEVA	acq_US_pleas_masked	acq2_masked	2	26	480	1	300	300	0	0	509	46	0	0	0	0	0	1	blank2r.bmp	0	1	+	0	7	C3r.bmp	492	1	blank2r.bmp	786	1	CPLW	786	1	blank2r.bmp	866	6	gütig	866	1	FEHLER	1732	1	!	1319	1	!	1412	0	0	0	0	0	0	0	0	0	0	0	0	0	0	0	0	0	0	0	0	0	0	0	0
031419	12:46:02	12:52:23	380069	5.0.10.0	4_exp_AWA_CON_AMP_EVA	163	Rpleas_acq	Oppo	Rpleas	Amasked	CS_A	1pleas	distractor1	CONbeforeEVA	acq_US_pleas_masked	acq2_masked	2	27	480	1	300	300	0	0	530	50	0	1	0	0	0	1	blank2r.bmp	0	1	+	0	4	B4r.bmp	492	1	blank2r.bmp	786	1	CPLW	786	1	blank2r.bmp	866	5	kuss	866	1	!	1319	1	!	1426	0	0	0	0	0	0	0	0	0	0	0	0	0	0	0	0	0	0	0	0	0	0	0	0	0	0	0
031419	12:46:02	12:52:25	382588	5.0.10.0	4_exp_AWA_CON_AMP_EVA	163	Rpleas_acq	Oppo	Rpleas	Amasked	CS_A	1pleas	distractor1	CONbeforeEVA	acq_new_unple_masked	acq2_masked	2	28	480	1	300	300	0	0	513	50	0	0	0	0	0	1	blank2r.bmp	0	1	+	0	5	C1r.bmp	492	1	blank2r.bmp	786	4	B4r.bmp	786	1	blank2r.bmp	866	5	geizig	866	1	FEHLER	1732	1	!	1319	1	!	1412	0	0	0	0	0	0	0	0	0	0	0	0	0	0	0	0	0	0	0	0	0	0	0	0
031419	12:46:02	12:52:27	384601	5.0.10.0	4_exp_AWA_CON_AMP_EVA	163	Rpleas_acq	Oppo	Rpleas	Amasked	CS_A	1pleas	distractor1	CONbeforeEVA	acq_new_unple_masked	acq2_masked	2	29	480	1	300	300	0	0	426	46	0	1	0	0	0	1	blank2r.bmp	0	1	+	0	6	C2r.bmp	492	1	blank2r.bmp	786	5	C1r.bmp	786	1	blank2r.bmp	866	4	verbissen	866	1	!	1319	1	!	1332	0	0	0	0	0	0	0	0	0	0	0	0	0	0	0	0	0	0	0	0	0	0	0	0	0	0	0
031419	12:46:02	12:52:30	387067	5.0.10.0	4_exp_AWA_CON_AMP_EVA	163	Rpleas_acq	Oppo	Rpleas	Amasked	CS_A	1pleas	distractor1	CONbeforeEVA	acq_new_pleas_masked	acq2_masked	2	30	480	1	300	300	0	0	445	46	0	0	0	0	0	1	blank2r.bmp	0	1	+	0	3	B3r.bmp	492	1	blank2r.bmp	786	1	B1r.bmp	786	1	blank2r.bmp	866	6	genießen	866	1	FEHLER	1665	1	!	1319	1	!	1346	0	0	0	0	0	0	0	0	0	0	0	0	0	0	0	0	0	0	0	0	0	0	0	0
031419	12:46:02	12:52:32	389426	5.0.10.0	4_exp_AWA_CON_AMP_EVA	163	Rpleas_acq	Oppo	Rpleas	Amasked	CS_A	1pleas	distractor1	CONbeforeEVA	acq_new_pleas_masked	acq2_masked	2	31	480	0	300	300	0	0	585	46	0	0	0	0	0	1	blank2r.bmp	0	1	+	0	5	C1r.bmp	492	1	blank2r.bmp	786	6	C2r.bmp	786	1	blank2r.bmp	866	5	gesittet	866	1	FEHLER	1785	1	!	1319	1	!	-1	0	0	0	0	0	0	0	0	0	0	0	0	0	0	0	0	0	0	0	0	0	0	0	0
031419	12:46:02	12:52:34	391478	5.0.10.0	4_exp_AWA_CON_AMP_EVA	163	Rpleas_acq	Oppo	Rpleas	Amasked	CS_A	1pleas	distractor1	CONbeforeEVA	acq_US_unple_masked	acq2_masked	2	32	480	0	300	300	0	0	268	50	0	0	0	0	0	1	blank2r.bmp	0	1	+	0	8	C4r.bmp	492	1	blank2r.bmp	786	1	DHJF	786	1	blank2r.bmp	866	6	gierig	866	1	FEHLER	1479	1	!	-1	1	!	-1	0	0	0	0	0	0	0	0	0	0	0	0	0	0	0	0	0	0	0	0	0	0	0	0
031419	12:46:02	12:52:36	393584	5.0.10.0	4_exp_AWA_CON_AMP_EVA	163	Rpleas_acq	Oppo	Rpleas	Amasked	CS_A	1pleas	distractor1	CONbeforeEVA	acq_new_pleas_masked	acq2_masked	2	33	480	0	300	300	0	0	327	46	0	0	0	0	0	1	blank2r.bmp	0	1	+	0	4	B4r.bmp	492	1	blank2r.bmp	786	5	C1r.bmp	786	1	blank2r.bmp	866	1	engagiert	866	1	FEHLER	1532	1	!	-1	1	!	-1	0	0	0	0	0	0	0	0	0	0	0	0	0	0	0	0	0	0	0	0	0	0	0	0
031419	12:46:02	12:52:38	395370	5.0.10.0	4_exp_AWA_CON_AMP_EVA	163	Rpleas_acq	Oppo	Rpleas	Amasked	CS_A	1pleas	distractor1	CONbeforeEVA	acq_US_pleas_masked	acq2_masked	2	34	480	0	300	300	0	0	238	50	0	1	0	0	0	1	blank2r.bmp	0	1	+	0	7	C3r.bmp	492	1	blank2r.bmp	786	1	CPLW	786	1	blank2r.bmp	866	4	besonnen	866	1	!	-1	1	!	-1	0	0	0	0	0	0	0	0	0	0	0	0	0	0	0	0	0	0	0	0	0	0	0	0	0	0	0
031419	12:46:02	12:52:40	397382	5.0.10.0	4_exp_AWA_CON_AMP_EVA	163	Rpleas_acq	Oppo	Rpleas	Amasked	CS_A	1pleas	distractor1	CONbeforeEVA	acq_US_unple_masked	acq2_masked	2	35	480	0	300	300	0	0	233	46	0	1	0	0	0	1	blank2r.bmp	0	1	+	0	2	B2r.bmp	492	1	blank2r.bmp	786	1	DHJF	786	1	blank2r.bmp	866	4	bange	866	1	!	-1	1	!	-1	0	0	0	0	0	0	0	0	0	0	0	0	0	0	0	0	0	0	0	0	0	0	0	0	0	0	0
031419	12:46:02	12:52:42	399835	5.0.10.0	4_exp_AWA_CON_AMP_EVA	163	Rpleas_acq	Oppo	Rpleas	Amasked	CS_A	1pleas	distractor1	CONbeforeEVA	acq_new_unple_masked	acq2_masked	2	36	480	1	300	300	0	0	428	50	0	0	0	0	0	1	blank2r.bmp	0	1	+	0	1	B1r.bmp	492	1	blank2r.bmp	786	7	C3r.bmp	786	1	blank2r.bmp	866	3	sterben	866	1	FEHLER	1652	1	!	1319	1	!	1332	0	0	0	0	0	0	0	0	0	0	0	0	0	0	0	0	0	0	0	0	0	0	0	0
031419	12:46:02	12:53:03	420226	5.0.10.0	4_exp_AWA_CON_AMP_EVA	163	Rpleas_acq	Oppo	Rpleas	Amasked	CS_A	1pleas	distractor1	CONbeforeEVA	acq_US_pleas_masked	acq3_masked	3	1	453	1	300	300	0	0	399	50	0	1	0	0	0	1	blank2r.bmp	0	1	+	0	5	C1r.bmp	492	1	blank2r.bmp	786	1	CPLW	786	1	blank2r.bmp	866	6	gütig	866	1	!	1292	1	!	1306	0	0	0	0	0	0	0	0	0	0	0	0	0	0	0	0	0	0	0	0	0	0	0	0	0	0	0
031419	12:46:02	12:53:05	422545	5.0.10.0	4_exp_AWA_CON_AMP_EVA	163	Rpleas_acq	Oppo	Rpleas	Amasked	CS_A	1pleas	distractor1	CONbeforeEVA	acq_US_unple_masked	acq3_masked	3	2	453	0	300	300	0	0	556	46	0	1	0	0	0	1	blank2r.bmp	0	1	+	0	4	B4r.bmp	492	1	blank2r.bmp	786	1	DHJF	786	1	blank2r.bmp	866	6	gierig	866	1	!	1292	1	!	-1	0	0	0	0	0	0	0	0	0	0	0	0	0	0	0	0	0	0	0	0	0	0	0	0	0	0	0
031419	12:46:02	12:53:07	424691	5.0.10.0	4_exp_AWA_CON_AMP_EVA	163	Rpleas_acq	Oppo	Rpleas	Amasked	CS_A	1pleas	distractor1	CONbeforeEVA	acq_US_pleas_masked	acq3_masked	3	3	453	0	300	300	0	0	362	50	0	1	0	0	0	1	blank2r.bmp	0	1	+	0	3	B3r.bmp	492	1	blank2r.bmp	786	1	CPLW	786	1	blank2r.bmp	866	3	träumen	866	1	!	-1	1	!	-1	0	0	0	0	0	0	0	0	0	0	0	0	0	0	0	0	0	0	0	0	0	0	0	0	0	0	0
031419	12:46:02	12:53:09	426970	5.0.10.0	4_exp_AWA_CON_AMP_EVA	163	Rpleas_acq	Oppo	Rpleas	Amasked	CS_A	1pleas	distractor1	CONbeforeEVA	acq_US_pleas_masked	acq3_masked	3	4	453	1	300	300	0	0	475	50	0	1	0	0	0	1	blank2r.bmp	0	1	+	0	1	B1r.bmp	492	1	blank2r.bmp	786	1	CPLW	786	1	blank2r.bmp	866	5	kuss	866	1	!	1292	1	!	1372	0	0	0	0	0	0	0	0	0	0	0	0	0	0	0	0	0	0	0	0	0	0	0	0	0	0	0
031419	12:46:02	12:53:12	429262	5.0.10.0	4_exp_AWA_CON_AMP_EVA	163	Rpleas_acq	Oppo	Rpleas	Amasked	CS_A	1pleas	distractor1	CONbeforeEVA	acq_US_pleas_masked	acq3_masked	3	5	453	1	300	300	0	0	490	50	0	1	0	0	0	1	blank2r.bmp	0	1	+	0	6	C2r.bmp	492	1	blank2r.bmp	786	1	CPLW	786	1	blank2r.bmp	866	2	vertrauen	866	1	!	1292	1	!	1386	0	0	0	0	0	0	0	0	0	0	0	0	0	0	0	0	0	0	0	0	0	0	0	0	0	0	0
031419	12:46:02	12:53:14	431502	5.0.10.0	4_exp_AWA_CON_AMP_EVA	163	Rpleas_acq	Oppo	Rpleas	Amasked	CS_A	1pleas	distractor1	CONbeforeEVA	acq_US_unple_masked	acq3_masked	3	6	453	1	300	300	0	0	448	46	0	1	0	0	0	1	blank2r.bmp	0	1	+	0	8	C4r.bmp	492	1	blank2r.bmp	786	1	DHJF	786	1	blank2r.bmp	866	4	bange	866	1	!	1292	1	!	1346	0	0	0	0	0	0	0	0	0	0	0	0	0	0	0	0	0	0	0	0	0	0	0	0	0	0	0
031419	12:46:02	12:53:16	433847	5.0.10.0	4_exp_AWA_CON_AMP_EVA	163	Rpleas_acq	Oppo	Rpleas	Amasked	CS_A	1pleas	distractor1	CONbeforeEVA	acq_US_unple_masked	acq3_masked	3	7	453	0	300	300	0	0	580	46	0	1	0	0	0	1	blank2r.bmp	0	1	+	0	2	B2r.bmp	492	1	blank2r.bmp	786	1	DHJF	786	1	blank2r.bmp	866	2	versagen	866	1	!	1292	1	!	-1	0	0	0	0	0	0	0	0	0	0	0	0	0	0	0	0	0	0	0	0	0	0	0	0	0	0	0
031419	12:46:02	12:53:19	436220	5.0.10.0	4_exp_AWA_CON_AMP_EVA	163	Rpleas_acq	Oppo	Rpleas	Amasked	CS_A	1pleas	distractor1	CONbeforeEVA	acq_US_pleas_masked	acq3_masked	3	8	453	0	300	300	0	0	360	46	0	0	0	0	0	1	blank2r.bmp	0	1	+	0	7	C3r.bmp	492	1	blank2r.bmp	786	1	CPLW	786	1	blank2r.bmp	866	1	kreativ	866	1	FEHLER	1572	1	!	-1	1	!	-1	0	0	0	0	0	0	0	0	0	0	0	0	0	0	0	0	0	0	0	0	0	0	0	0
031419	12:46:02	12:53:21	438245	5.0.10.0	4_exp_AWA_CON_AMP_EVA	163	Rpleas_acq	Oppo	Rpleas	Amasked	CS_A	1pleas	distractor1	CONbeforeEVA	acq_US_unple_masked	acq3_masked	3	9	453	1	300	300	0	0	439	46	0	1	0	0	0	1	blank2r.bmp	0	1	+	0	8	C4r.bmp	492	1	blank2r.bmp	786	1	DHJF	786	1	blank2r.bmp	866	5	krise	866	1	!	1292	1	!	1346	0	0	0	0	0	0	0	0	0	0	0	0	0	0	0	0	0	0	0	0	0	0	0	0	0	0	0
031419	12:46:02	12:53:23	440391	5.0.10.0	4_exp_AWA_CON_AMP_EVA	163	Rpleas_acq	Oppo	Rpleas	Amasked	CS_A	1pleas	distractor1	CONbeforeEVA	acq_US_unple_masked	acq3_masked	3	10	453	0	300	300	0	0	374	46	0	1	0	0	0	1	blank2r.bmp	0	1	+	0	7	C3r.bmp	492	1	blank2r.bmp	786	1	DHJF	786	1	blank2r.bmp	866	1	krank	866	1	!	-1	1	!	-1	0	0	0	0	0	0	0	0	0	0	0	0	0	0	0	0	0	0	0	0	0	0	0	0	0	0	0
031419	12:46:02	12:53:25	442830	5.0.10.0	4_exp_AWA_CON_AMP_EVA	163	Rpleas_acq	Oppo	Rpleas	Amasked	CS_A	1pleas	distractor1	CONbeforeEVA	acq_US_pleas_masked	acq3_masked	3	11	453	0	300	300	0	0	652	50	0	1	0	0	0	1	blank2r.bmp	0	1	+	0	4	B4r.bmp	492	1	blank2r.bmp	786	1	CPLW	786	1	blank2r.bmp	866	4	besonnen	866	1	!	1292	1	!	-1	0	0	0	0	0	0	0	0	0	0	0	0	0	0	0	0	0	0	0	0	0	0	0	0	0	0	0
031419	12:46:02	12:53:27	444936	5.0.10.0	4_exp_AWA_CON_AMP_EVA	163	Rpleas_acq	Oppo	Rpleas	Amasked	CS_A	1pleas	distractor1	CONbeforeEVA	acq_US_unple_masked	acq3_masked	3	12	453	0	300	300	0	0	330	46	0	1	0	0	0	1	blank2r.bmp	0	1	+	0	3	B3r.bmp	492	1	blank2r.bmp	786	1	DHJF	786	1	blank2r.bmp	866	3	töten	866	1	!	-1	1	!	-1	0	0	0	0	0	0	0	0	0	0	0	0	0	0	0	0	0	0	0	0	0	0	0	0	0	0	0
031419	12:46:02	12:53:30	447522	5.0.10.0	4_exp_AWA_CON_AMP_EVA	163	Rpleas_acq	Oppo	Rpleas	Amasked	CS_A	1pleas	distractor1	CONbeforeEVA	acq_US_pleas_masked	acq3_masked	3	13	453	0	300	300	0	0	799	50	0	1	0	0	0	1	blank2r.bmp	0	1	+	0	2	B2r.bmp	492	1	blank2r.bmp	786	1	CPLW	786	1	blank2r.bmp	866	5	kuss	866	1	!	1292	1	!	-1	0	0	0	0	0	0	0	0	0	0	0	0	0	0	0	0	0	0	0	0	0	0	0	0	0	0	0
031419	12:46:02	12:53:32	449814	5.0.10.0	4_exp_AWA_CON_AMP_EVA	163	Rpleas_acq	Oppo	Rpleas	Amasked	CS_A	1pleas	distractor1	CONbeforeEVA	acq_US_pleas_masked	acq3_masked	3	14	453	0	300	300	0	0	291	46	0	0	0	0	0	1	blank2r.bmp	0	1	+	0	1	B1r.bmp	492	1	blank2r.bmp	786	1	CPLW	786	1	blank2r.bmp	866	1	kreativ	866	1	FEHLER	1492	1	!	-1	1	!	-1	0	0	0	0	0	0	0	0	0	0	0	0	0	0	0	0	0	0	0	0	0	0	0	0
031419	12:46:02	12:53:34	451853	5.0.10.0	4_exp_AWA_CON_AMP_EVA	163	Rpleas_acq	Oppo	Rpleas	Amasked	CS_A	1pleas	distractor1	CONbeforeEVA	acq_US_unple_masked	acq3_masked	3	15	453	1	300	300	0	0	458	46	0	1	0	0	0	1	blank2r.bmp	0	1	+	0	5	C1r.bmp	492	1	blank2r.bmp	786	1	DHJF	786	1	blank2r.bmp	866	2	versagen	866	1	!	1292	1	!	1359	0	0	0	0	0	0	0	0	0	0	0	0	0	0	0	0	0	0	0	0	0	0	0	0	0	0	0
031419	12:46:02	12:53:37	454226	5.0.10.0	4_exp_AWA_CON_AMP_EVA	163	Rpleas_acq	Oppo	Rpleas	Amasked	CS_A	1pleas	distractor1	CONbeforeEVA	acq_US_pleas_masked	acq3_masked	3	16	453	0	300	300	0	0	589	50	0	1	0	0	0	1	blank2r.bmp	0	1	+	0	6	C2r.bmp	492	1	blank2r.bmp	786	1	CPLW	786	1	blank2r.bmp	866	3	träumen	866	1	!	1292	1	!	-1	0	0	0	0	0	0	0	0	0	0	0	0	0	0	0	0	0	0	0	0	0	0	0	0	0	0	0
031419	12:46:02	12:53:39	456558	5.0.10.0	4_exp_AWA_CON_AMP_EVA	163	Rpleas_acq	Oppo	Rpleas	Amasked	CS_A	1pleas	distractor1	CONbeforeEVA	acq_US_unple_masked	acq3_masked	3	17	453	0	300	300	0	0	545	46	0	1	0	0	0	1	blank2r.bmp	0	1	+	0	2	B2r.bmp	492	1	blank2r.bmp	786	1	DHJF	786	1	blank2r.bmp	866	5	krise	866	1	!	1292	1	!	-1	0	0	0	0	0	0	0	0	0	0	0	0	0	0	0	0	0	0	0	0	0	0	0	0	0	0	0
031419	12:46:02	12:53:42	459064	5.0.10.0	4_exp_AWA_CON_AMP_EVA	163	Rpleas_acq	Oppo	Rpleas	Amasked	CS_A	1pleas	distractor1	CONbeforeEVA	acq_US_pleas_masked	acq3_masked	3	18	453	1	300	300	0	0	484	46	0	0	0	0	0	1	blank2r.bmp	0	1	+	0	3	B3r.bmp	492	1	blank2r.bmp	786	1	CPLW	786	1	blank2r.bmp	866	4	besonnen	866	1	FEHLER	1705	1	!	1292	1	!	1386	0	0	0	0	0	0	0	0	0	0	0	0	0	0	0	0	0	0	0	0	0	0	0	0
031419	12:46:02	12:53:44	461169	5.0.10.0	4_exp_AWA_CON_AMP_EVA	163	Rpleas_acq	Oppo	Rpleas	Amasked	CS_A	1pleas	distractor1	CONbeforeEVA	acq_US_unple_masked	acq3_masked	3	19	453	0	300	300	0	0	554	46	0	1	0	0	0	1	blank2r.bmp	0	1	+	0	7	C3r.bmp	492	1	blank2r.bmp	786	1	DHJF	786	1	blank2r.bmp	866	4	bange	866	1	!	1292	1	!	-1	0	0	0	0	0	0	0	0	0	0	0	0	0	0	0	0	0	0	0	0	0	0	0	0	0	0	0
031419	12:46:02	12:53:46	463608	5.0.10.0	4_exp_AWA_CON_AMP_EVA	163	Rpleas_acq	Oppo	Rpleas	Amasked	CS_A	1pleas	distractor1	CONbeforeEVA	acq_US_pleas_masked	acq3_masked	3	20	453	1	300	300	0	0	404	46	0	0	0	0	0	1	blank2r.bmp	0	1	+	0	8	C4r.bmp	492	1	blank2r.bmp	786	1	CPLW	786	1	blank2r.bmp	866	6	gütig	866	1	FEHLER	1625	1	!	1292	1	!	1306	0	0	0	0	0	0	0	0	0	0	0	0	0	0	0	0	0	0	0	0	0	0	0	0
031419	12:46:02	12:53:48	465821	5.0.10.0	4_exp_AWA_CON_AMP_EVA	163	Rpleas_acq	Oppo	Rpleas	Amasked	CS_A	1pleas	distractor1	CONbeforeEVA	acq_US_unple_masked	acq3_masked	3	21	453	0	300	300	0	0	650	46	0	1	0	0	0	1	blank2r.bmp	0	1	+	0	1	B1r.bmp	492	1	blank2r.bmp	786	1	DHJF	786	1	blank2r.bmp	866	6	gierig	866	1	!	1292	1	!	-1	0	0	0	0	0	0	0	0	0	0	0	0	0	0	0	0	0	0	0	0	0	0	0	0	0	0	0
031419	12:46:02	12:53:51	468033	5.0.10.0	4_exp_AWA_CON_AMP_EVA	163	Rpleas_acq	Oppo	Rpleas	Amasked	CS_A	1pleas	distractor1	CONbeforeEVA	acq_US_pleas_masked	acq3_masked	3	22	453	1	300	300	0	0	399	50	0	1	0	0	0	1	blank2r.bmp	0	1	+	0	5	C1r.bmp	492	1	blank2r.bmp	786	1	CPLW	786	1	blank2r.bmp	866	2	vertrauen	866	1	!	1292	1	!	1306	0	0	0	0	0	0	0	0	0	0	0	0	0	0	0	0	0	0	0	0	0	0	0	0	0	0	0
031419	12:46:02	12:53:53	470699	5.0.10.0	4_exp_AWA_CON_AMP_EVA	163	Rpleas_acq	Oppo	Rpleas	Amasked	CS_A	1pleas	distractor1	CONbeforeEVA	acq_US_unple_masked	acq3_masked	3	23	453	0	300	300	0	0	669	50	0	0	0	0	0	1	blank2r.bmp	0	1	+	0	6	C2r.bmp	492	1	blank2r.bmp	786	1	DHJF	786	1	blank2r.bmp	866	3	töten	866	1	FEHLER	1879	1	!	1292	1	!	-1	0	0	0	0	0	0	0	0	0	0	0	0	0	0	0	0	0	0	0	0	0	0	0	0
031419	12:46:02	12:53:55	472831	5.0.10.0	4_exp_AWA_CON_AMP_EVA	163	Rpleas_acq	Oppo	Rpleas	Amasked	CS_A	1pleas	distractor1	CONbeforeEVA	acq_US_unple_masked	acq3_masked	3	24	453	0	300	300	0	0	580	46	0	1	0	0	0	1	blank2r.bmp	0	1	+	0	4	B4r.bmp	492	1	blank2r.bmp	786	1	DHJF	786	1	blank2r.bmp	866	1	krank	866	1	!	1292	1	!	-1	0	0	0	0	0	0	0	0	0	0	0	0	0	0	0	0	0	0	0	0	0	0	0	0	0	0	0
031419	12:46:02	12:53:58	475044	5.0.10.0	4_exp_AWA_CON_AMP_EVA	163	Rpleas_acq	Oppo	Rpleas	Amasked	CS_A	1pleas	distractor1	CONbeforeEVA	acq_US_unple_masked	acq3_masked	3	25	453	1	300	300	0	0	399	46	0	1	0	0	0	1	blank2r.bmp	0	1	+	0	1	B1r.bmp	492	1	blank2r.bmp	786	1	DHJF	786	1	blank2r.bmp	866	1	krank	866	1	!	1292	1	!	1306	0	0	0	0	0	0	0	0	0	0	0	0	0	0	0	0	0	0	0	0	0	0	0	0	0	0	0
031419	12:46:02	12:54:00	477723	5.0.10.0	4_exp_AWA_CON_AMP_EVA	163	Rpleas_acq	Oppo	Rpleas	Amasked	CS_A	1pleas	distractor1	CONbeforeEVA	acq_US_pleas_masked	acq3_masked	3	26	453	0	300	300	0	0	688	46	0	0	0	0	0	1	blank2r.bmp	0	1	+	0	7	C3r.bmp	492	1	blank2r.bmp	786	1	CPLW	786	1	blank2r.bmp	866	6	gütig	866	1	FEHLER	1892	1	!	1292	1	!	-1	0	0	0	0	0	0	0	0	0	0	0	0	0	0	0	0	0	0	0	0	0	0	0	0
031419	12:46:02	12:54:03	480055	5.0.10.0	4_exp_AWA_CON_AMP_EVA	163	Rpleas_acq	Oppo	Rpleas	Amasked	CS_A	1pleas	distractor1	CONbeforeEVA	acq_US_pleas_masked	acq3_masked	3	27	453	0	300	300	0	0	546	46	0	0	0	0	0	1	blank2r.bmp	0	1	+	0	4	B4r.bmp	492	1	blank2r.bmp	786	1	CPLW	786	1	blank2r.bmp	866	1	kreativ	866	1	FEHLER	1759	1	!	1292	1	!	-1	0	0	0	0	0	0	0	0	0	0	0	0	0	0	0	0	0	0	0	0	0	0	0	0
031419	12:46:02	12:54:05	482587	5.0.10.0	4_exp_AWA_CON_AMP_EVA	163	Rpleas_acq	Oppo	Rpleas	Amasked	CS_A	1pleas	distractor1	CONbeforeEVA	acq_US_unple_masked	acq3_masked	3	28	453	0	300	300	0	0	757	50	0	0	0	0	0	1	blank2r.bmp	0	1	+	0	2	B2r.bmp	492	1	blank2r.bmp	786	1	DHJF	786	1	blank2r.bmp	866	6	gierig	866	1	FEHLER	1959	1	!	1292	1	!	-1	0	0	0	0	0	0	0	0	0	0	0	0	0	0	0	0	0	0	0	0	0	0	0	0
031419	12:46:02	12:54:07	484720	5.0.10.0	4_exp_AWA_CON_AMP_EVA	163	Rpleas_acq	Oppo	Rpleas	Amasked	CS_A	1pleas	distractor1	CONbeforeEVA	acq_US_unple_masked	acq3_masked	3	29	453	0	300	300	0	0	580	46	0	1	0	0	0	1	blank2r.bmp	0	1	+	0	3	B3r.bmp	492	1	blank2r.bmp	786	1	DHJF	786	1	blank2r.bmp	866	3	töten	866	1	!	1292	1	!	-1	0	0	0	0	0	0	0	0	0	0	0	0	0	0	0	0	0	0	0	0	0	0	0	0	0	0	0
031419	12:46:02	12:54:10	487105	5.0.10.0	4_exp_AWA_CON_AMP_EVA	163	Rpleas_acq	Oppo	Rpleas	Amasked	CS_A	1pleas	distractor1	CONbeforeEVA	acq_US_unple_masked	acq3_masked	3	30	453	0	300	300	0	0	602	46	0	1	0	0	0	1	blank2r.bmp	0	1	+	0	8	C4r.bmp	492	1	blank2r.bmp	786	1	DHJF	786	1	blank2r.bmp	866	4	bange	866	1	!	1292	1	!	-1	0	0	0	0	0	0	0	0	0	0	0	0	0	0	0	0	0	0	0	0	0	0	0	0	0	0	0
031419	12:46:02	12:54:12	489438	5.0.10.0	4_exp_AWA_CON_AMP_EVA	163	Rpleas_acq	Oppo	Rpleas	Amasked	CS_A	1pleas	distractor1	CONbeforeEVA	acq_US_pleas_masked	acq3_masked	3	31	453	1	300	300	0	0	520	50	0	1	0	0	0	1	blank2r.bmp	0	1	+	0	5	C1r.bmp	492	1	blank2r.bmp	786	1	CPLW	786	1	blank2r.bmp	866	2	vertrauen	866	1	!	1292	1	!	1426	0	0	0	0	0	0	0	0	0	0	0	0	0	0	0	0	0	0	0	0	0	0	0	0	0	0	0
031419	12:46:02	12:54:17	494329	5.0.10.0	4_exp_AWA_CON_AMP_EVA	163	Rpleas_acq	Oppo	Rpleas	Amasked	CS_A	1pleas	distractor1	CONbeforeEVA	acq_US_pleas_masked	acq3_masked	3	32	453	0	300	300	0	0	3130	50	0	1	0	0	0	1	blank2r.bmp	0	1	+	0	6	C2r.bmp	492	1	blank2r.bmp	786	1	CPLW	786	1	blank2r.bmp	866	3	träumen	866	1	!	1292	1	!	-1	0	0	0	0	0	0	0	0	0	0	0	0	0	0	0	0	0	0	0	0	0	0	0	0	0	0	0
031419	12:46:02	12:54:19	496608	5.0.10.0	4_exp_AWA_CON_AMP_EVA	163	Rpleas_acq	Oppo	Rpleas	Amasked	CS_A	1pleas	distractor1	CONbeforeEVA	acq_US_pleas_masked	acq3_masked	3	33	453	1	300	300	0	0	477	50	0	1	0	0	0	1	blank2r.bmp	0	1	+	0	8	C4r.bmp	492	1	blank2r.bmp	786	1	CPLW	786	1	blank2r.bmp	866	4	besonnen	866	1	!	1292	1	!	1372	0	0	0	0	0	0	0	0	0	0	0	0	0	0	0	0	0	0	0	0	0	0	0	0	0	0	0
031419	12:46:02	12:54:21	498834	5.0.10.0	4_exp_AWA_CON_AMP_EVA	163	Rpleas_acq	Oppo	Rpleas	Amasked	CS_A	1pleas	distractor1	CONbeforeEVA	acq_US_pleas_masked	acq3_masked	3	34	453	1	300	300	0	0	422	50	0	1	0	0	0	1	blank2r.bmp	0	1	+	0	3	B3r.bmp	492	1	blank2r.bmp	786	1	CPLW	786	1	blank2r.bmp	866	5	kuss	866	1	!	1292	1	!	1319	0	0	0	0	0	0	0	0	0	0	0	0	0	0	0	0	0	0	0	0	0	0	0	0	0	0	0
031419	12:46:02	12:54:24	501153	5.0.10.0	4_exp_AWA_CON_AMP_EVA	163	Rpleas_acq	Oppo	Rpleas	Amasked	CS_A	1pleas	distractor1	CONbeforeEVA	acq_US_unple_masked	acq3_masked	3	35	453	0	300	300	0	0	557	46	0	1	0	0	0	1	blank2r.bmp	0	1	+	0	4	B4r.bmp	492	1	blank2r.bmp	786	1	DHJF	786	1	blank2r.bmp	866	5	krise	866	1	!	1292	1	!	-1	0	0	0	0	0	0	0	0	0	0	0	0	0	0	0	0	0	0	0	0	0	0	0	0	0	0	0
031419	12:46:02	12:54:26	503472	5.0.10.0	4_exp_AWA_CON_AMP_EVA	163	Rpleas_acq	Oppo	Rpleas	Amasked	CS_A	1pleas	distractor1	CONbeforeEVA	acq_US_unple_masked	acq3_masked	3	36	453	0	300	300	0	0	541	46	0	1	0	0	0	1	blank2r.bmp	0	1	+	0	2	B2r.bmp	492	1	blank2r.bmp	786	1	DHJF	786	1	blank2r.bmp	866	2	versagen	866	1	!	1292	1	!	-1	0	0	0	0	0	0	0	0	0	0	0	0	0	0	0	0	0	0	0	0	0	0	0	0	0	0	0
031419	12:46:02	12:54:46	523904	5.0.10.0	4_exp_AWA_CON_AMP_EVA	163	Rpleas_acq	Oppo	Rpleas	Amasked	CS_A	1pleas	distractor1	CONbeforeEVA	acq_US_unple_masked	acq45_masked	4	1	400	0	300	300	0	0	313	50	0	0	0	0	0	1	blank2r.bmp	0	1	+	0	5	C1r.bmp	492	1	blank2r.bmp	786	1	DHJF	786	1	blank2r.bmp	866	3	töten	866	1	!	-1	1	!	-1	0	0	0	0	0	0	0	0	0	0	0	0	0	0	0	0	0	0	0	0	0	0	0	0	0	0	0
031419	12:46:02	12:54:49	526169	5.0.10.0	4_exp_AWA_CON_AMP_EVA	163	Rpleas_acq	Oppo	Rpleas	Amasked	CS_A	1pleas	distractor1	CONbeforeEVA	acq_US_pleas_masked	acq45_masked	4	2	400	0	300	300	0	0	479	46	0	0	0	0	0	1	blank2r.bmp	0	1	+	0	7	C3r.bmp	492	1	blank2r.bmp	786	1	CPLW	786	1	blank2r.bmp	866	3	träumen	866	1	!	1239	1	!	-1	0	0	0	0	0	0	0	0	0	0	0	0	0	0	0	0	0	0	0	0	0	0	0	0	0	0	0
031419	12:46:02	12:54:51	528328	5.0.10.0	4_exp_AWA_CON_AMP_EVA	163	Rpleas_acq	Oppo	Rpleas	Amasked	CS_A	1pleas	distractor1	CONbeforeEVA	acq_US_unple_masked	acq45_masked	4	3	400	1	300	300	0	0	353	50	0	0	0	0	0	1	blank2r.bmp	0	1	+	0	1	B1r.bmp	492	1	blank2r.bmp	786	1	DHJF	786	1	blank2r.bmp	866	2	versagen	866	1	!	1239	1	!	1252	0	0	0	0	0	0	0	0	0	0	0	0	0	0	0	0	0	0	0	0	0	0	0	0	0	0	0
031419	12:46:02	12:54:53	530594	5.0.10.0	4_exp_AWA_CON_AMP_EVA	163	Rpleas_acq	Oppo	Rpleas	Amasked	CS_A	1pleas	distractor1	CONbeforeEVA	acq_US_unple_masked	acq45_masked	4	4	400	0	300	300	0	0	498	46	0	1	0	0	0	1	blank2r.bmp	0	1	+	0	6	C2r.bmp	492	1	blank2r.bmp	786	1	DHJF	786	1	blank2r.bmp	866	4	bange	866	1	!	1239	1	!	-1	0	0	0	0	0	0	0	0	0	0	0	0	0	0	0	0	0	0	0	0	0	0	0	0	0	0	0
031419	12:46:02	12:54:55	532913	5.0.10.0	4_exp_AWA_CON_AMP_EVA	163	Rpleas_acq	Oppo	Rpleas	Amasked	CS_A	1pleas	distractor1	CONbeforeEVA	acq_US_pleas_masked	acq45_masked	4	5	400	0	300	300	0	0	538	50	0	1	0	0	0	1	blank2r.bmp	0	1	+	0	6	C2r.bmp	492	1	blank2r.bmp	786	1	CPLW	786	1	blank2r.bmp	866	2	vertrauen	866	1	!	1239	1	!	-1	0	0	0	0	0	0	0	0	0	0	0	0	0	0	0	0	0	0	0	0	0	0	0	0	0	0	0
031419	12:46:02	12:54:58	535032	5.0.10.0	4_exp_AWA_CON_AMP_EVA	163	Rpleas_acq	Oppo	Rpleas	Amasked	CS_A	1pleas	distractor1	CONbeforeEVA	acq_US_pleas_masked	acq45_masked	4	6	400	0	300	300	0	0	329	46	0	0	0	0	0	1	blank2r.bmp	0	1	+	0	2	B2r.bmp	492	1	blank2r.bmp	786	1	CPLW	786	1	blank2r.bmp	866	1	kreativ	866	1	!	-1	1	!	-1	0	0	0	0	0	0	0	0	0	0	0	0	0	0	0	0	0	0	0	0	0	0	0	0	0	0	0
031419	12:46:02	12:55:00	537311	5.0.10.0	4_exp_AWA_CON_AMP_EVA	163	Rpleas_acq	Oppo	Rpleas	Amasked	CS_A	1pleas	distractor1	CONbeforeEVA	acq_US_pleas_masked	acq45_masked	4	7	400	0	300	300	0	0	495	46	0	0	0	0	0	1	blank2r.bmp	0	1	+	0	4	B4r.bmp	492	1	blank2r.bmp	786	1	CPLW	786	1	blank2r.bmp	866	6	gütig	866	1	!	1239	1	!	-1	0	0	0	0	0	0	0	0	0	0	0	0	0	0	0	0	0	0	0	0	0	0	0	0	0	0	0
031419	12:46:02	12:55:02	539484	5.0.10.0	4_exp_AWA_CON_AMP_EVA	163	Rpleas_acq	Oppo	Rpleas	Amasked	CS_A	1pleas	distractor1	CONbeforeEVA	acq_US_pleas_masked	acq45_masked	4	8	400	1	300	300	0	0	346	50	0	1	0	0	0	1	blank2r.bmp	0	1	+	0	1	B1r.bmp	492	1	blank2r.bmp	786	1	CPLW	786	1	blank2r.bmp	866	4	besonnen	866	1	!	1239	1	!	1252	0	0	0	0	0	0	0	0	0	0	0	0	0	0	0	0	0	0	0	0	0	0	0	0	0	0	0
031419	12:46:02	12:55:04	541536	5.0.10.0	4_exp_AWA_CON_AMP_EVA	163	Rpleas_acq	Oppo	Rpleas	Amasked	CS_A	1pleas	distractor1	CONbeforeEVA	acq_US_pleas_masked	acq45_masked	4	9	400	0	300	300	0	0	286	50	0	1	0	0	0	1	blank2r.bmp	0	1	+	0	7	C3r.bmp	492	1	blank2r.bmp	786	1	CPLW	786	1	blank2r.bmp	866	5	kuss	866	1	!	-1	1	!	-1	0	0	0	0	0	0	0	0	0	0	0	0	0	0	0	0	0	0	0	0	0	0	0	0	0	0	0
031419	12:46:02	12:55:06	543815	5.0.10.0	4_exp_AWA_CON_AMP_EVA	163	Rpleas_acq	Oppo	Rpleas	Amasked	CS_A	1pleas	distractor1	CONbeforeEVA	acq_US_pleas_masked	acq45_masked	4	10	400	0	300	300	0	0	492	50	0	1	0	0	0	1	blank2r.bmp	0	1	+	0	8	C4r.bmp	492	1	blank2r.bmp	786	1	CPLW	786	1	blank2r.bmp	866	6	gütig	866	1	!	1239	1	!	-1	0	0	0	0	0	0	0	0	0	0	0	0	0	0	0	0	0	0	0	0	0	0	0	0	0	0	0
031419	12:46:02	12:55:08	545854	5.0.10.0	4_exp_AWA_CON_AMP_EVA	163	Rpleas_acq	Oppo	Rpleas	Amasked	CS_A	1pleas	distractor1	CONbeforeEVA	acq_US_unple_masked	acq45_masked	4	11	400	0	300	300	0	0	249	46	0	1	0	0	0	1	blank2r.bmp	0	1	+	0	3	B3r.bmp	492	1	blank2r.bmp	786	1	DHJF	786	1	blank2r.bmp	866	6	gierig	866	1	!	-1	1	!	-1	0	0	0	0	0	0	0	0	0	0	0	0	0	0	0	0	0	0	0	0	0	0	0	0	0	0	0
031419	12:46:02	12:55:11	548213	5.0.10.0	4_exp_AWA_CON_AMP_EVA	163	Rpleas_acq	Oppo	Rpleas	Amasked	CS_A	1pleas	distractor1	CONbeforeEVA	acq_US_pleas_masked	acq45_masked	4	12	400	0	300	300	0	0	584	46	0	0	0	0	0	1	blank2r.bmp	0	1	+	0	5	C1r.bmp	492	1	blank2r.bmp	786	1	CPLW	786	1	blank2r.bmp	866	3	träumen	866	1	!	1239	1	!	-1	0	0	0	0	0	0	0	0	0	0	0	0	0	0	0	0	0	0	0	0	0	0	0	0	0	0	0
031419	12:46:02	12:55:13	550426	5.0.10.0	4_exp_AWA_CON_AMP_EVA	163	Rpleas_acq	Oppo	Rpleas	Amasked	CS_A	1pleas	distractor1	CONbeforeEVA	acq_US_unple_masked	acq45_masked	4	13	400	1	300	300	0	0	411	46	0	1	0	0	0	1	blank2r.bmp	0	1	+	0	7	C3r.bmp	492	1	blank2r.bmp	786	1	DHJF	786	1	blank2r.bmp	866	1	krank	866	1	!	1239	1	!	1306	0	0	0	0	0	0	0	0	0	0	0	0	0	0	0	0	0	0	0	0	0	0	0	0	0	0	0
031419	12:46:02	12:55:15	552732	5.0.10.0	4_exp_AWA_CON_AMP_EVA	163	Rpleas_acq	Oppo	Rpleas	Amasked	CS_A	1pleas	distractor1	CONbeforeEVA	acq_US_unple_masked	acq45_masked	4	14	400	0	300	300	0	0	533	50	0	0	0	0	0	1	blank2r.bmp	0	1	+	0	6	C2r.bmp	492	1	blank2r.bmp	786	1	DHJF	786	1	blank2r.bmp	866	5	krise	866	1	!	1239	1	!	-1	0	0	0	0	0	0	0	0	0	0	0	0	0	0	0	0	0	0	0	0	0	0	0	0	0	0	0
031419	12:46:02	12:55:17	554744	5.0.10.0	4_exp_AWA_CON_AMP_EVA	163	Rpleas_acq	Oppo	Rpleas	Amasked	CS_A	1pleas	distractor1	CONbeforeEVA	acq_US_unple_masked	acq45_masked	4	15	400	0	300	300	0	0	233	46	0	1	0	0	0	1	blank2r.bmp	0	1	+	0	2	B2r.bmp	492	1	blank2r.bmp	786	1	DHJF	786	1	blank2r.bmp	866	3	töten	866	1	!	-1	1	!	-1	0	0	0	0	0	0	0	0	0	0	0	0	0	0	0	0	0	0	0	0	0	0	0	0	0	0	0
031419	12:46:02	12:55:20	557063	5.0.10.0	4_exp_AWA_CON_AMP_EVA	163	Rpleas_acq	Oppo	Rpleas	Amasked	CS_A	1pleas	distractor1	CONbeforeEVA	acq_US_pleas_masked	acq45_masked	4	16	400	0	300	300	0	0	536	46	0	0	0	0	0	1	blank2r.bmp	0	1	+	0	3	B3r.bmp	492	1	blank2r.bmp	786	1	CPLW	786	1	blank2r.bmp	866	2	vertrauen	866	1	!	1239	1	!	-1	0	0	0	0	0	0	0	0	0	0	0	0	0	0	0	0	0	0	0	0	0	0	0	0	0	0	0
031419	12:46:02	12:55:22	559369	5.0.10.0	4_exp_AWA_CON_AMP_EVA	163	Rpleas_acq	Oppo	Rpleas	Amasked	CS_A	1pleas	distractor1	CONbeforeEVA	acq_US_unple_masked	acq45_masked	4	17	400	0	300	300	0	0	524	46	0	1	0	0	0	1	blank2r.bmp	0	1	+	0	4	B4r.bmp	492	1	blank2r.bmp	786	1	DHJF	786	1	blank2r.bmp	866	4	bange	866	1	!	1239	1	!	-1	0	0	0	0	0	0	0	0	0	0	0	0	0	0	0	0	0	0	0	0	0	0	0	0	0	0	0
031419	12:46:02	12:55:24	561701	5.0.10.0	4_exp_AWA_CON_AMP_EVA	163	Rpleas_acq	Oppo	Rpleas	Amasked	CS_A	1pleas	distractor1	CONbeforeEVA	acq_US_unple_masked	acq45_masked	4	18	400	0	300	300	0	0	537	50	0	0	0	0	0	1	blank2r.bmp	0	1	+	0	8	C4r.bmp	492	1	blank2r.bmp	786	1	DHJF	786	1	blank2r.bmp	866	2	versagen	866	1	!	1239	1	!	-1	0	0	0	0	0	0	0	0	0	0	0	0	0	0	0	0	0	0	0	0	0	0	0	0	0	0	0
031419	12:46:02	12:55:26	563900	5.0.10.0	4_exp_AWA_CON_AMP_EVA	163	Rpleas_acq	Oppo	Rpleas	Amasked	CS_A	1pleas	distractor1	CONbeforeEVA	acq_US_unple_masked	acq45_masked	4	19	400	1	300	300	0	0	390	46	0	1	0	0	0	1	blank2r.bmp	0	1	+	0	5	C1r.bmp	492	1	blank2r.bmp	786	1	DHJF	786	1	blank2r.bmp	866	6	gierig	866	1	!	1239	1	!	1292	0	0	0	0	0	0	0	0	0	0	0	0	0	0	0	0	0	0	0	0	0	0	0	0	0	0	0
031419	12:46:02	12:55:29	566059	5.0.10.0	4_exp_AWA_CON_AMP_EVA	163	Rpleas_acq	Oppo	Rpleas	Amasked	CS_A	1pleas	distractor1	CONbeforeEVA	acq_US_unple_masked	acq45_masked	4	20	400	1	300	300	0	0	367	46	0	1	0	0	0	1	blank2r.bmp	0	1	+	0	1	B1r.bmp	492	1	blank2r.bmp	786	1	DHJF	786	1	blank2r.bmp	866	5	krise	866	1	!	1239	1	!	1266	0	0	0	0	0	0	0	0	0	0	0	0	0	0	0	0	0	0	0	0	0	0	0	0	0	0	0
031419	12:46:02	12:55:31	568325	5.0.10.0	4_exp_AWA_CON_AMP_EVA	163	Rpleas_acq	Oppo	Rpleas	Amasked	CS_A	1pleas	distractor1	CONbeforeEVA	acq_US_unple_masked	acq45_masked	4	21	400	0	300	300	0	0	484	46	0	1	0	0	0	1	blank2r.bmp	0	1	+	0	6	C2r.bmp	492	1	blank2r.bmp	786	1	DHJF	786	1	blank2r.bmp	866	1	krank	866	1	!	1239	1	!	-1	0	0	0	0	0	0	0	0	0	0	0	0	0	0	0	0	0	0	0	0	0	0	0	0	0	0	0
031419	12:46:02	12:55:33	570511	5.0.10.0	4_exp_AWA_CON_AMP_EVA	163	Rpleas_acq	Oppo	Rpleas	Amasked	CS_A	1pleas	distractor1	CONbeforeEVA	acq_US_pleas_masked	acq45_masked	4	22	400	1	300	300	0	0	378	46	0	0	0	0	0	1	blank2r.bmp	0	1	+	0	8	C4r.bmp	492	1	blank2r.bmp	786	1	CPLW	786	1	blank2r.bmp	866	5	kuss	866	1	!	1239	1	!	1279	0	0	0	0	0	0	0	0	0	0	0	0	0	0	0	0	0	0	0	0	0	0	0	0	0	0	0
031419	12:46:02	12:55:35	572790	5.0.10.0	4_exp_AWA_CON_AMP_EVA	163	Rpleas_acq	Oppo	Rpleas	Amasked	CS_A	1pleas	distractor1	CONbeforeEVA	acq_US_pleas_masked	acq45_masked	4	23	400	0	300	300	0	0	512	50	0	1	0	0	0	1	blank2r.bmp	0	1	+	0	4	B4r.bmp	492	1	blank2r.bmp	786	1	CPLW	786	1	blank2r.bmp	866	4	besonnen	866	1	!	1239	1	!	-1	0	0	0	0	0	0	0	0	0	0	0	0	0	0	0	0	0	0	0	0	0	0	0	0	0	0	0
031419	12:46:02	12:55:37	574989	5.0.10.0	4_exp_AWA_CON_AMP_EVA	163	Rpleas_acq	Oppo	Rpleas	Amasked	CS_A	1pleas	distractor1	CONbeforeEVA	acq_US_unple_masked	acq45_masked	4	24	400	1	300	300	0	0	392	50	0	0	0	0	0	1	blank2r.bmp	0	1	+	0	2	B2r.bmp	492	1	blank2r.bmp	786	1	DHJF	786	1	blank2r.bmp	866	6	gierig	866	1	!	1239	1	!	1292	0	0	0	0	0	0	0	0	0	0	0	0	0	0	0	0	0	0	0	0	0	0	0	0	0	0	0
031419	12:46:02	12:55:40	577202	5.0.10.0	4_exp_AWA_CON_AMP_EVA	163	Rpleas_acq	Oppo	Rpleas	Amasked	CS_A	1pleas	distractor1	CONbeforeEVA	acq_US_pleas_masked	acq45_masked	4	25	400	1	300	300	0	0	420	46	0	0	0	0	0	1	blank2r.bmp	0	1	+	0	7	C3r.bmp	492	1	blank2r.bmp	786	1	CPLW	786	1	blank2r.bmp	866	1	kreativ	866	1	!	1239	1	!	1319	0	0	0	0	0	0	0	0	0	0	0	0	0	0	0	0	0	0	0	0	0	0	0	0	0	0	0
031419	12:46:02	12:55:42	579454	5.0.10.0	4_exp_AWA_CON_AMP_EVA	163	Rpleas_acq	Oppo	Rpleas	Amasked	CS_A	1pleas	distractor1	CONbeforeEVA	acq_US_pleas_masked	acq45_masked	4	26	400	1	300	300	0	0	460	50	0	1	0	0	0	1	blank2r.bmp	0	1	+	0	1	B1r.bmp	492	1	blank2r.bmp	786	1	CPLW	786	1	blank2r.bmp	866	6	gütig	866	1	!	1239	1	!	1359	0	0	0	0	0	0	0	0	0	0	0	0	0	0	0	0	0	0	0	0	0	0	0	0	0	0	0
031419	12:46:02	12:55:44	581680	5.0.10.0	4_exp_AWA_CON_AMP_EVA	163	Rpleas_acq	Oppo	Rpleas	Amasked	CS_A	1pleas	distractor1	CONbeforeEVA	acq_US_unple_masked	acq45_masked	4	27	400	1	300	300	0	0	432	46	0	1	0	0	0	1	blank2r.bmp	0	1	+	0	5	C1r.bmp	492	1	blank2r.bmp	786	1	DHJF	786	1	blank2r.bmp	866	5	krise	866	1	!	1239	1	!	1332	0	0	0	0	0	0	0	0	0	0	0	0	0	0	0	0	0	0	0	0	0	0	0	0	0	0	0
031419	12:46:02	12:55:46	583945	5.0.10.0	4_exp_AWA_CON_AMP_EVA	163	Rpleas_acq	Oppo	Rpleas	Amasked	CS_A	1pleas	distractor1	CONbeforeEVA	acq_US_unple_masked	acq45_masked	4	28	400	0	300	300	0	0	498	46	0	1	0	0	0	1	blank2r.bmp	0	1	+	0	3	B3r.bmp	492	1	blank2r.bmp	786	1	DHJF	786	1	blank2r.bmp	866	3	töten	866	1	!	1239	1	!	-1	0	0	0	0	0	0	0	0	0	0	0	0	0	0	0	0	0	0	0	0	0	0	0	0	0	0	0
031419	12:46:02	12:55:49	586118	5.0.10.0	4_exp_AWA_CON_AMP_EVA	163	Rpleas_acq	Oppo	Rpleas	Amasked	CS_A	1pleas	distractor1	CONbeforeEVA	acq_US_pleas_masked	acq45_masked	4	29	400	1	300	300	0	0	361	50	0	1	0	0	0	1	blank2r.bmp	0	1	+	0	1	B1r.bmp	492	1	blank2r.bmp	786	1	CPLW	786	1	blank2r.bmp	866	5	kuss	866	1	!	1239	1	!	1266	0	0	0	0	0	0	0	0	0	0	0	0	0	0	0	0	0	0	0	0	0	0	0	0	0	0	0
031419	12:46:02	12:55:51	588397	5.0.10.0	4_exp_AWA_CON_AMP_EVA	163	Rpleas_acq	Oppo	Rpleas	Amasked	CS_A	1pleas	distractor1	CONbeforeEVA	acq_US_unple_masked	acq45_masked	4	30	400	0	300	300	0	0	511	46	0	1	0	0	0	1	blank2r.bmp	0	1	+	0	8	C4r.bmp	492	1	blank2r.bmp	786	1	DHJF	786	1	blank2r.bmp	866	2	versagen	866	1	!	1239	1	!	-1	0	0	0	0	0	0	0	0	0	0	0	0	0	0	0	0	0	0	0	0	0	0	0	0	0	0	0
031419	12:46:02	12:55:53	590743	5.0.10.0	4_exp_AWA_CON_AMP_EVA	163	Rpleas_acq	Oppo	Rpleas	Amasked	CS_A	1pleas	distractor1	CONbeforeEVA	acq_US_pleas_masked	acq45_masked	4	31	400	0	300	300	0	0	566	50	0	1	0	0	0	1	blank2r.bmp	0	1	+	0	6	C2r.bmp	492	1	blank2r.bmp	786	1	CPLW	786	1	blank2r.bmp	866	2	vertrauen	866	1	!	1239	1	!	-1	0	0	0	0	0	0	0	0	0	0	0	0	0	0	0	0	0	0	0	0	0	0	0	0	0	0	0
031419	12:46:02	12:55:55	592902	5.0.10.0	4_exp_AWA_CON_AMP_EVA	163	Rpleas_acq	Oppo	Rpleas	Amasked	CS_A	1pleas	distractor1	CONbeforeEVA	acq_US_pleas_masked	acq45_masked	4	32	400	1	300	300	0	0	346	46	0	0	0	0	0	1	blank2r.bmp	0	1	+	0	5	C1r.bmp	492	1	blank2r.bmp	786	1	CPLW	786	1	blank2r.bmp	866	4	besonnen	866	1	!	1239	1	!	1252	0	0	0	0	0	0	0	0	0	0	0	0	0	0	0	0	0	0	0	0	0	0	0	0	0	0	0
031419	12:46:02	12:55:58	595181	5.0.10.0	4_exp_AWA_CON_AMP_EVA	163	Rpleas_acq	Oppo	Rpleas	Amasked	CS_A	1pleas	distractor1	CONbeforeEVA	acq_US_unple_masked	acq45_masked	4	33	400	0	300	300	0	0	516	46	0	1	0	0	0	1	blank2r.bmp	0	1	+	0	7	C3r.bmp	492	1	blank2r.bmp	786	1	DHJF	786	1	blank2r.bmp	866	4	bange	866	1	!	1239	1	!	-1	0	0	0	0	0	0	0	0	0	0	0	0	0	0	0	0	0	0	0	0	0	0	0	0	0	0	0
031419	12:46:02	12:56:00	597447	5.0.10.0	4_exp_AWA_CON_AMP_EVA	163	Rpleas_acq	Oppo	Rpleas	Amasked	CS_A	1pleas	distractor1	CONbeforeEVA	acq_US_pleas_masked	acq45_masked	4	34	400	0	300	300	0	0	481	46	0	0	0	0	0	1	blank2r.bmp	0	1	+	0	4	B4r.bmp	492	1	blank2r.bmp	786	1	CPLW	786	1	blank2r.bmp	866	1	kreativ	866	1	!	1239	1	!	-1	0	0	0	0	0	0	0	0	0	0	0	0	0	0	0	0	0	0	0	0	0	0	0	0	0	0	0
031419	12:46:02	12:56:02	599792	5.0.10.0	4_exp_AWA_CON_AMP_EVA	163	Rpleas_acq	Oppo	Rpleas	Amasked	CS_A	1pleas	distractor1	CONbeforeEVA	acq_US_pleas_masked	acq45_masked	4	35	400	0	300	300	0	0	561	50	0	1	0	0	0	1	blank2r.bmp	0	1	+	0	3	B3r.bmp	492	1	blank2r.bmp	786	1	CPLW	786	1	blank2r.bmp	866	3	träumen	866	1	!	1239	1	!	-1	0	0	0	0	0	0	0	0	0	0	0	0	0	0	0	0	0	0	0	0	0	0	0	0	0	0	0
031419	12:46:02	12:56:04	601818	5.0.10.0	4_exp_AWA_CON_AMP_EVA	163	Rpleas_acq	Oppo	Rpleas	Amasked	CS_A	1pleas	distractor1	CONbeforeEVA	acq_US_unple_masked	acq45_masked	4	36	400	0	300	300	0	0	239	50	0	0	0	0	0	1	blank2r.bmp	0	1	+	0	2	B2r.bmp	492	1	blank2r.bmp	786	1	DHJF	786	1	blank2r.bmp	866	1	krank	866	1	!	-1	1	!	-1	0	0	0	0	0	0	0	0	0	0	0	0	0	0	0	0	0	0	0	0	0	0	0	0	0	0	0
031419	12:46:02	12:56:20	617572	5.0.10.0	4_exp_AWA_CON_AMP_EVA	163	Rpleas_acq	Oppo	Rpleas	Amasked	CS_A	1pleas	distractor1	CONbeforeEVA	acq_US_unple_masked	acq45_masked	5	1	400	1	300	300	0	0	464	46	0	1	0	0	0	1	blank2r.bmp	0	1	+	0	1	B1r.bmp	492	1	blank2r.bmp	786	1	DHJF	786	1	blank2r.bmp	866	2	versagen	866	1	!	1239	1	!	1359	0	0	0	0	0	0	0	0	0	0	0	0	0	0	0	0	0	0	0	0	0	0	0	0	0	0	0
031419	12:46:02	12:56:22	619797	5.0.10.0	4_exp_AWA_CON_AMP_EVA	163	Rpleas_acq	Oppo	Rpleas	Amasked	CS_A	1pleas	distractor1	CONbeforeEVA	acq_US_unple_masked	acq45_masked	5	2	400	1	300	300	0	0	419	46	0	1	0	0	0	1	blank2r.bmp	0	1	+	0	7	C3r.bmp	492	1	blank2r.bmp	786	1	DHJF	786	1	blank2r.bmp	866	1	krank	866	1	!	1239	1	!	1319	0	0	0	0	0	0	0	0	0	0	0	0	0	0	0	0	0	0	0	0	0	0	0	0	0	0	0
031419	12:46:02	12:56:24	621943	5.0.10.0	4_exp_AWA_CON_AMP_EVA	163	Rpleas_acq	Oppo	Rpleas	Amasked	CS_A	1pleas	distractor1	CONbeforeEVA	acq_US_pleas_masked	acq45_masked	5	3	400	1	300	300	0	0	346	50	0	1	0	0	0	1	blank2r.bmp	0	1	+	0	4	B4r.bmp	492	1	blank2r.bmp	786	1	CPLW	786	1	blank2r.bmp	866	3	träumen	866	1	!	1239	1	!	1252	0	0	0	0	0	0	0	0	0	0	0	0	0	0	0	0	0	0	0	0	0	0	0	0	0	0	0
031419	12:46:02	12:56:27	624196	5.0.10.0	4_exp_AWA_CON_AMP_EVA	163	Rpleas_acq	Oppo	Rpleas	Amasked	CS_A	1pleas	distractor1	CONbeforeEVA	acq_US_unple_masked	acq45_masked	5	4	400	0	300	300	0	0	479	46	0	1	0	0	0	1	blank2r.bmp	0	1	+	0	8	C4r.bmp	492	1	blank2r.bmp	786	1	DHJF	786	1	blank2r.bmp	866	5	krise	866	1	!	1239	1	!	-1	0	0	0	0	0	0	0	0	0	0	0	0	0	0	0	0	0	0	0	0	0	0	0	0	0	0	0
031419	12:46:02	12:56:29	626395	5.0.10.0	4_exp_AWA_CON_AMP_EVA	163	Rpleas_acq	Oppo	Rpleas	Amasked	CS_A	1pleas	distractor1	CONbeforeEVA	acq_US_pleas_masked	acq45_masked	5	5	400	1	300	300	0	0	396	50	0	1	0	0	0	1	blank2r.bmp	0	1	+	0	5	C1r.bmp	492	1	blank2r.bmp	786	1	CPLW	786	1	blank2r.bmp	866	1	kreativ	866	1	!	1239	1	!	1292	0	0	0	0	0	0	0	0	0	0	0	0	0	0	0	0	0	0	0	0	0	0	0	0	0	0	0
031419	12:46:02	12:56:31	628634	5.0.10.0	4_exp_AWA_CON_AMP_EVA	163	Rpleas_acq	Oppo	Rpleas	Amasked	CS_A	1pleas	distractor1	CONbeforeEVA	acq_US_pleas_masked	acq45_masked	5	6	400	1	300	300	0	0	442	50	0	1	0	0	0	1	blank2r.bmp	0	1	+	0	6	C2r.bmp	492	1	blank2r.bmp	786	1	CPLW	786	1	blank2r.bmp	866	4	besonnen	866	1	!	1239	1	!	1346	0	0	0	0	0	0	0	0	0	0	0	0	0	0	0	0	0	0	0	0	0	0	0	0	0	0	0
031419	12:46:02	12:56:33	630779	5.0.10.0	4_exp_AWA_CON_AMP_EVA	163	Rpleas_acq	Oppo	Rpleas	Amasked	CS_A	1pleas	distractor1	CONbeforeEVA	acq_US_unple_masked	acq45_masked	5	7	400	1	300	300	0	0	348	50	0	0	0	0	0	1	blank2r.bmp	0	1	+	0	3	B3r.bmp	492	1	blank2r.bmp	786	1	DHJF	786	1	blank2r.bmp	866	6	gierig	866	1	!	1239	1	!	1252	0	0	0	0	0	0	0	0	0	0	0	0	0	0	0	0	0	0	0	0	0	0	0	0	0	0	0
031419	12:46:02	12:56:35	632792	5.0.10.0	4_exp_AWA_CON_AMP_EVA	163	Rpleas_acq	Oppo	Rpleas	Amasked	CS_A	1pleas	distractor1	CONbeforeEVA	acq_US_unple_masked	acq45_masked	5	8	400	0	300	300	0	0	248	46	0	1	0	0	0	1	blank2r.bmp	0	1	+	0	2	B2r.bmp	492	1	blank2r.bmp	786	1	DHJF	786	1	blank2r.bmp	866	4	bange	866	1	!	-1	1	!	-1	0	0	0	0	0	0	0	0	0	0	0	0	0	0	0	0	0	0	0	0	0	0	0	0	0	0	0
031419	12:46:02	12:56:38	635018	5.0.10.0	4_exp_AWA_CON_AMP_EVA	163	Rpleas_acq	Oppo	Rpleas	Amasked	CS_A	1pleas	distractor1	CONbeforeEVA	acq_US_unple_masked	acq45_masked	5	9	400	1	300	300	0	0	415	46	0	1	0	0	0	1	blank2r.bmp	0	1	+	0	2	B2r.bmp	492	1	blank2r.bmp	786	1	DHJF	786	1	blank2r.bmp	866	3	töten	866	1	!	1239	1	!	1319	0	0	0	0	0	0	0	0	0	0	0	0	0	0	0	0	0	0	0	0	0	0	0	0	0	0	0
031419	12:46:02	12:56:40	637190	5.0.10.0	4_exp_AWA_CON_AMP_EVA	163	Rpleas_acq	Oppo	Rpleas	Amasked	CS_A	1pleas	distractor1	CONbeforeEVA	acq_US_pleas_masked	acq45_masked	5	10	400	1	300	300	0	0	375	50	0	1	0	0	0	1	blank2r.bmp	0	1	+	0	4	B4r.bmp	492	1	blank2r.bmp	786	1	CPLW	786	1	blank2r.bmp	866	5	kuss	866	1	!	1239	1	!	1279	0	0	0	0	0	0	0	0	0	0	0	0	0	0	0	0	0	0	0	0	0	0	0	0	0	0	0
031419	12:46:02	12:56:42	639469	5.0.10.0	4_exp_AWA_CON_AMP_EVA	163	Rpleas_acq	Oppo	Rpleas	Amasked	CS_A	1pleas	distractor1	CONbeforeEVA	acq_US_unple_masked	acq45_masked	5	11	400	0	300	300	0	0	509	46	0	1	0	0	0	1	blank2r.bmp	0	1	+	0	1	B1r.bmp	492	1	blank2r.bmp	786	1	DHJF	786	1	blank2r.bmp	866	1	krank	866	1	!	1239	1	!	-1	0	0	0	0	0	0	0	0	0	0	0	0	0	0	0	0	0	0	0	0	0	0	0	0	0	0	0
031419	12:46:02	12:56:44	641788	5.0.10.0	4_exp_AWA_CON_AMP_EVA	163	Rpleas_acq	Oppo	Rpleas	Amasked	CS_A	1pleas	distractor1	CONbeforeEVA	acq_US_unple_masked	acq45_masked	5	12	400	0	300	300	0	0	537	50	0	0	0	0	0	1	blank2r.bmp	0	1	+	0	6	C2r.bmp	492	1	blank2r.bmp	786	1	DHJF	786	1	blank2r.bmp	866	3	töten	866	1	!	1239	1	!	-1	0	0	0	0	0	0	0	0	0	0	0	0	0	0	0	0	0	0	0	0	0	0	0	0	0	0	0
031419	12:46:02	12:56:47	644054	5.0.10.0	4_exp_AWA_CON_AMP_EVA	163	Rpleas_acq	Oppo	Rpleas	Amasked	CS_A	1pleas	distractor1	CONbeforeEVA	acq_US_pleas_masked	acq45_masked	5	13	400	1	300	300	0	0	453	50	0	1	0	0	0	1	blank2r.bmp	0	1	+	0	5	C1r.bmp	492	1	blank2r.bmp	786	1	CPLW	786	1	blank2r.bmp	866	6	gütig	866	1	!	1239	1	!	1359	0	0	0	0	0	0	0	0	0	0	0	0	0	0	0	0	0	0	0	0	0	0	0	0	0	0	0
031419	12:46:02	12:56:49	646253	5.0.10.0	4_exp_AWA_CON_AMP_EVA	163	Rpleas_acq	Oppo	Rpleas	Amasked	CS_A	1pleas	distractor1	CONbeforeEVA	acq_US_pleas_masked	acq45_masked	5	14	400	1	300	300	0	0	401	46	0	0	0	0	0	1	blank2r.bmp	0	1	+	0	7	C3r.bmp	492	1	blank2r.bmp	786	1	CPLW	786	1	blank2r.bmp	866	2	vertrauen	866	1	!	1239	1	!	1306	0	0	0	0	0	0	0	0	0	0	0	0	0	0	0	0	0	0	0	0	0	0	0	0	0	0	0
031419	12:46:02	12:56:51	648519	5.0.10.0	4_exp_AWA_CON_AMP_EVA	163	Rpleas_acq	Oppo	Rpleas	Amasked	CS_A	1pleas	distractor1	CONbeforeEVA	acq_US_pleas_masked	acq45_masked	5	15	400	1	300	300	0	0	465	50	0	1	0	0	0	1	blank2r.bmp	0	1	+	0	3	B3r.bmp	492	1	blank2r.bmp	786	1	CPLW	786	1	blank2r.bmp	866	2	vertrauen	866	1	!	1239	1	!	1372	0	0	0	0	0	0	0	0	0	0	0	0	0	0	0	0	0	0	0	0	0	0	0	0	0	0	0
031419	12:46:02	12:56:53	650785	5.0.10.0	4_exp_AWA_CON_AMP_EVA	163	Rpleas_acq	Oppo	Rpleas	Amasked	CS_A	1pleas	distractor1	CONbeforeEVA	acq_US_unple_masked	acq45_masked	5	16	400	0	300	300	0	0	500	46	0	1	0	0	0	1	blank2r.bmp	0	1	+	0	8	C4r.bmp	492	1	blank2r.bmp	786	1	DHJF	786	1	blank2r.bmp	866	2	versagen	866	1	!	1239	1	!	-1	0	0	0	0	0	0	0	0	0	0	0	0	0	0	0	0	0	0	0	0	0	0	0	0	0	0	0
031419	12:46:02	12:56:56	653037	5.0.10.0	4_exp_AWA_CON_AMP_EVA	163	Rpleas_acq	Oppo	Rpleas	Amasked	CS_A	1pleas	distractor1	CONbeforeEVA	acq_US_pleas_masked	acq45_masked	5	17	400	1	300	300	0	0	431	46	0	0	0	0	0	1	blank2r.bmp	0	1	+	0	2	B2r.bmp	492	1	blank2r.bmp	786	1	CPLW	786	1	blank2r.bmp	866	5	kuss	866	1	!	1239	1	!	1332	0	0	0	0	0	0	0	0	0	0	0	0	0	0	0	0	0	0	0	0	0	0	0	0	0	0	0
031419	12:46:02	12:56:58	655103	5.0.10.0	4_exp_AWA_CON_AMP_EVA	163	Rpleas_acq	Oppo	Rpleas	Amasked	CS_A	1pleas	distractor1	CONbeforeEVA	acq_US_pleas_masked	acq45_masked	5	18	400	0	300	300	0	0	304	46	0	0	0	0	0	1	blank2r.bmp	0	1	+	0	1	B1r.bmp	492	1	blank2r.bmp	786	1	CPLW	786	1	blank2r.bmp	866	3	träumen	866	1	!	-1	1	!	-1	0	0	0	0	0	0	0	0	0	0	0	0	0	0	0	0	0	0	0	0	0	0	0	0	0	0	0
031419	12:46:02	12:57:00	657155	5.0.10.0	4_exp_AWA_CON_AMP_EVA	163	Rpleas_acq	Oppo	Rpleas	Amasked	CS_A	1pleas	distractor1	CONbeforeEVA	acq_US_unple_masked	acq45_masked	5	19	400	0	300	300	0	0	277	50	0	0	0	0	0	1	blank2r.bmp	0	1	+	0	7	C3r.bmp	492	1	blank2r.bmp	786	1	DHJF	786	1	blank2r.bmp	866	4	bange	866	1	!	-1	1	!	-1	0	0	0	0	0	0	0	0	0	0	0	0	0	0	0	0	0	0	0	0	0	0	0	0	0	0	0
031419	12:46:02	12:57:02	659328	5.0.10.0	4_exp_AWA_CON_AMP_EVA	163	Rpleas_acq	Oppo	Rpleas	Amasked	CS_A	1pleas	distractor1	CONbeforeEVA	acq_US_unple_masked	acq45_masked	5	20	400	1	300	300	0	0	362	50	0	0	0	0	0	1	blank2r.bmp	0	1	+	0	8	C4r.bmp	492	1	blank2r.bmp	786	1	DHJF	786	1	blank2r.bmp	866	5	krise	866	1	!	1239	1	!	1266	0	0	0	0	0	0	0	0	0	0	0	0	0	0	0	0	0	0	0	0	0	0	0	0	0	0	0
031419	12:46:02	12:57:04	661580	5.0.10.0	4_exp_AWA_CON_AMP_EVA	163	Rpleas_acq	Oppo	Rpleas	Amasked	CS_A	1pleas	distractor1	CONbeforeEVA	acq_US_pleas_masked	acq45_masked	5	21	400	1	300	300	0	0	455	50	0	1	0	0	0	1	blank2r.bmp	0	1	+	0	5	C1r.bmp	492	1	blank2r.bmp	786	1	CPLW	786	1	blank2r.bmp	866	4	besonnen	866	1	!	1239	1	!	1359	0	0	0	0	0	0	0	0	0	0	0	0	0	0	0	0	0	0	0	0	0	0	0	0	0	0	0
031419	12:46:02	12:57:06	663646	5.0.10.0	4_exp_AWA_CON_AMP_EVA	163	Rpleas_acq	Oppo	Rpleas	Amasked	CS_A	1pleas	distractor1	CONbeforeEVA	acq_US_unple_masked	acq45_masked	5	22	400	0	300	300	0	0	295	50	0	0	0	0	0	1	blank2r.bmp	0	1	+	0	3	B3r.bmp	492	1	blank2r.bmp	786	1	DHJF	786	1	blank2r.bmp	866	6	gierig	866	1	!	-1	1	!	-1	0	0	0	0	0	0	0	0	0	0	0	0	0	0	0	0	0	0	0	0	0	0	0	0	0	0	0
031419	12:46:02	12:57:08	665765	5.0.10.0	4_exp_AWA_CON_AMP_EVA	163	Rpleas_acq	Oppo	Rpleas	Amasked	CS_A	1pleas	distractor1	CONbeforeEVA	acq_US_unple_masked	acq45_masked	5	23	400	0	300	300	0	0	333	50	0	0	0	0	0	1	blank2r.bmp	0	1	+	0	4	B4r.bmp	492	1	blank2r.bmp	786	1	DHJF	786	1	blank2r.bmp	866	5	krise	866	1	!	-1	1	!	-1	0	0	0	0	0	0	0	0	0	0	0	0	0	0	0	0	0	0	0	0	0	0	0	0	0	0	0
031419	12:46:02	12:57:10	667938	5.0.10.0	4_exp_AWA_CON_AMP_EVA	163	Rpleas_acq	Oppo	Rpleas	Amasked	CS_A	1pleas	distractor1	CONbeforeEVA	acq_US_pleas_masked	acq45_masked	5	24	400	1	300	300	0	0	367	46	0	0	0	0	0	1	blank2r.bmp	0	1	+	0	6	C2r.bmp	492	1	blank2r.bmp	786	1	CPLW	786	1	blank2r.bmp	866	1	kreativ	866	1	!	1239	1	!	1266	0	0	0	0	0	0	0	0	0	0	0	0	0	0	0	0	0	0	0	0	0	0	0	0	0	0	0
031419	12:46:02	12:57:13	670190	5.0.10.0	4_exp_AWA_CON_AMP_EVA	163	Rpleas_acq	Oppo	Rpleas	Amasked	CS_A	1pleas	distractor1	CONbeforeEVA	acq_US_unple_masked	acq45_masked	5	25	400	0	300	300	0	0	484	46	0	1	0	0	0	1	blank2r.bmp	0	1	+	0	1	B1r.bmp	492	1	blank2r.bmp	786	1	DHJF	786	1	blank2r.bmp	866	1	krank	866	1	!	1239	1	!	-1	0	0	0	0	0	0	0	0	0	0	0	0	0	0	0	0	0	0	0	0	0	0	0	0	0	0	0
031419	12:46:02	12:57:15	672296	5.0.10.0	4_exp_AWA_CON_AMP_EVA	163	Rpleas_acq	Oppo	Rpleas	Amasked	CS_A	1pleas	distractor1	CONbeforeEVA	acq_US_unple_masked	acq45_masked	5	26	400	0	300	300	0	0	309	50	0	0	0	0	0	1	blank2r.bmp	0	1	+	0	3	B3r.bmp	492	1	blank2r.bmp	786	1	DHJF	786	1	blank2r.bmp	866	6	gierig	866	1	!	-1	1	!	-1	0	0	0	0	0	0	0	0	0	0	0	0	0	0	0	0	0	0	0	0	0	0	0	0	0	0	0
031419	12:46:02	12:57:17	674215	5.0.10.0	4_exp_AWA_CON_AMP_EVA	163	Rpleas_acq	Oppo	Rpleas	Amasked	CS_A	1pleas	distractor1	CONbeforeEVA	acq_US_pleas_masked	acq45_masked	5	27	400	0	300	300	0	0	137	46	0	0	0	0	0	1	blank2r.bmp	0	1	+	0	5	C1r.bmp	492	1	blank2r.bmp	786	1	CPLW	786	1	blank2r.bmp	866	6	gütig	866	1	!	-1	1	!	-1	0	0	0	0	0	0	0	0	0	0	0	0	0	0	0	0	0	0	0	0	0	0	0	0	0	0	0
031419	12:46:02	12:57:19	676321	5.0.10.0	4_exp_AWA_CON_AMP_EVA	163	Rpleas_acq	Oppo	Rpleas	Amasked	CS_A	1pleas	distractor1	CONbeforeEVA	acq_US_unple_masked	acq45_masked	5	28	400	0	300	300	0	0	314	50	0	0	0	0	0	1	blank2r.bmp	0	1	+	0	7	C3r.bmp	492	1	blank2r.bmp	786	1	DHJF	786	1	blank2r.bmp	866	2	versagen	866	1	!	-1	1	!	-1	0	0	0	0	0	0	0	0	0	0	0	0	0	0	0	0	0	0	0	0	0	0	0	0	0	0	0
031419	12:46:02	12:57:23	680559	5.0.10.0	4_exp_AWA_CON_AMP_EVA	163	Rpleas_acq	Oppo	Rpleas	Amasked	CS_A	1pleas	distractor1	CONbeforeEVA	acq_US_unple_masked	acq45_masked	5	29	400	0	300	300	0	0	2463	46	0	1	0	0	0	1	blank2r.bmp	0	1	+	0	6	C2r.bmp	492	1	blank2r.bmp	786	1	DHJF	786	1	blank2r.bmp	866	4	bange	866	1	!	1239	1	!	-1	0	0	0	0	0	0	0	0	0	0	0	0	0	0	0	0	0	0	0	0	0	0	0	0	0	0	0
031419	12:46:02	12:57:25	682611	5.0.10.0	4_exp_AWA_CON_AMP_EVA	163	Rpleas_acq	Oppo	Rpleas	Amasked	CS_A	1pleas	distractor1	CONbeforeEVA	acq_US_pleas_masked	acq45_masked	5	30	400	0	300	300	0	0	278	50	0	1	0	0	0	1	blank2r.bmp	0	1	+	0	8	C4r.bmp	492	1	blank2r.bmp	786	1	CPLW	786	1	blank2r.bmp	866	4	besonnen	866	1	!	-1	1	!	-1	0	0	0	0	0	0	0	0	0	0	0	0	0	0	0	0	0	0	0	0	0	0	0	0	0	0	0
031419	12:46:02	12:57:27	684891	5.0.10.0	4_exp_AWA_CON_AMP_EVA	163	Rpleas_acq	Oppo	Rpleas	Amasked	CS_A	1pleas	distractor1	CONbeforeEVA	acq_US_unple_masked	acq45_masked	5	31	400	0	300	300	0	0	492	46	0	1	0	0	0	1	blank2r.bmp	0	1	+	0	4	B4r.bmp	492	1	blank2r.bmp	786	1	DHJF	786	1	blank2r.bmp	866	3	töten	866	1	!	1239	1	!	-1	0	0	0	0	0	0	0	0	0	0	0	0	0	0	0	0	0	0	0	0	0	0	0	0	0	0	0
031419	12:46:02	12:57:30	687170	5.0.10.0	4_exp_AWA_CON_AMP_EVA	163	Rpleas_acq	Oppo	Rpleas	Amasked	CS_A	1pleas	distractor1	CONbeforeEVA	acq_US_pleas_masked	acq45_masked	5	32	400	1	300	300	0	0	466	46	0	0	0	0	0	1	blank2r.bmp	0	1	+	0	2	B2r.bmp	492	1	blank2r.bmp	786	1	CPLW	786	1	blank2r.bmp	866	3	träumen	866	1	!	1239	1	!	1372	0	0	0	0	0	0	0	0	0	0	0	0	0	0	0	0	0	0	0	0	0	0	0	0	0	0	0
031419	12:46:02	12:57:32	689249	5.0.10.0	4_exp_AWA_CON_AMP_EVA	163	Rpleas_acq	Oppo	Rpleas	Amasked	CS_A	1pleas	distractor1	CONbeforeEVA	acq_US_pleas_masked	acq45_masked	5	33	400	0	300	300	0	0	308	50	0	1	0	0	0	1	blank2r.bmp	0	1	+	0	4	B4r.bmp	492	1	blank2r.bmp	786	1	CPLW	786	1	blank2r.bmp	866	6	gütig	866	1	!	-1	1	!	-1	0	0	0	0	0	0	0	0	0	0	0	0	0	0	0	0	0	0	0	0	0	0	0	0	0	0	0
031419	12:46:02	12:57:34	691434	5.0.10.0	4_exp_AWA_CON_AMP_EVA	163	Rpleas_acq	Oppo	Rpleas	Amasked	CS_A	1pleas	distractor1	CONbeforeEVA	acq_US_pleas_masked	acq45_masked	5	34	400	1	300	300	0	0	380	46	0	0	0	0	0	1	blank2r.bmp	0	1	+	0	3	B3r.bmp	492	1	blank2r.bmp	786	1	CPLW	786	1	blank2r.bmp	866	5	kuss	866	1	!	1239	1	!	1279	0	0	0	0	0	0	0	0	0	0	0	0	0	0	0	0	0	0	0	0	0	0	0	0	0	0	0
031419	12:46:02	12:57:36	693447	5.0.10.0	4_exp_AWA_CON_AMP_EVA	163	Rpleas_acq	Oppo	Rpleas	Amasked	CS_A	1pleas	distractor1	CONbeforeEVA	acq_US_pleas_masked	acq45_masked	5	35	400	0	300	300	0	0	243	50	0	1	0	0	0	1	blank2r.bmp	0	1	+	0	1	B1r.bmp	492	1	blank2r.bmp	786	1	CPLW	786	1	blank2r.bmp	866	2	vertrauen	866	1	!	-1	1	!	-1	0	0	0	0	0	0	0	0	0	0	0	0	0	0	0	0	0	0	0	0	0	0	0	0	0	0	0
031419	12:46:02	12:57:38	695646	5.0.10.0	4_exp_AWA_CON_AMP_EVA	163	Rpleas_acq	Oppo	Rpleas	Amasked	CS_A	1pleas	distractor1	CONbeforeEVA	acq_US_pleas_masked	acq45_masked	5	36	400	1	300	300	0	0	394	46	0	0	0	0	0	1	blank2r.bmp	0	1	+	0	5	C1r.bmp	492	1	blank2r.bmp	786	1	CPLW	786	1	blank2r.bmp	866	1	kreativ	866	1	!	1239	1	!	1292	0	0	0	0	0	0	0	0	0	0	0	0	0	0	0	0	0	0	0	0	0	0	0	0	0	0	0
031419	12:46:02	13:00:51	888487	5.0.10.0	4_exp_AWA_CON_AMP_EVA	163	Rpleas_acq	Oppo	Lpleas	Amasked	CS_A	1pleas	distractor1	CONbeforeEVA	cond_US_unple_123_masked_CS1	condtest_masked_1	8	1	400	0	300	300	0	0	5501	50	0	1	0	0	0	1	blank2r.bmp	0	1	+	0	6	C2r.bmp	492	1	blank2r.bmp	786	1	CPLW	786	1	blank2r.bmp	866	2	versagen	866	1	!	1239	1	!	-1	0	0	0	0	0	0	0	0	0	0	0	0	0	0	0	0	0	0	0	0	0	0	0	0	0	0	0
031419	12:46:02	13:00:53	890646	5.0.10.0	4_exp_AWA_CON_AMP_EVA	163	Rpleas_acq	Oppo	Lpleas	Amasked	CS_A	1pleas	distractor1	CONbeforeEVA	cond_US_pleas_123_masked_CS2	condtest_masked_1	8	2	400	1	300	300	0	0	346	50	0	0	0	0	0	1	blank2r.bmp	0	1	+	0	2	B2r.bmp	492	1	blank2r.bmp	786	1	DHJF	786	1	blank2r.bmp	866	1	kreativ	866	1	!	1239	1	!	1252	0	0	0	0	0	0	0	0	0	0	0	0	0	0	0	0	0	0	0	0	0	0	0	0	0	0	0
031419	12:46:02	13:01:00	897576	5.0.10.0	4_exp_AWA_CON_AMP_EVA	163	Rpleas_acq	Oppo	Lpleas	Amasked	CS_A	1pleas	distractor1	CONbeforeEVA	cond_new_pleas_456_masked_CS2	condtest_masked_1	8	3	400	0	300	300	0	0	5144	50	0	0	0	0	0	1	blank2r.bmp	0	1	+	0	8	C4r.bmp	492	1	blank2r.bmp	786	1	DHJF	786	1	blank2r.bmp	866	3	genießen	866	1	!	1239	1	!	-1	0	0	0	0	0	0	0	0	0	0	0	0	0	0	0	0	0	0	0	0	0	0	0	0	0	0	0
031419	12:46:02	13:01:05	902601	5.0.10.0	4_exp_AWA_CON_AMP_EVA	163	Rpleas_acq	Oppo	Lpleas	Amasked	CS_A	1pleas	distractor1	CONbeforeEVA	cond_US_unple_123_masked_CS2	condtest_masked_1	8	4	400	0	300	300	0	0	3227	50	0	1	0	0	0	1	blank2r.bmp	0	1	+	0	7	C3r.bmp	492	1	blank2r.bmp	786	1	DHJF	786	1	blank2r.bmp	866	1	krank	866	1	!	1239	1	!	-1	0	0	0	0	0	0	0	0	0	0	0	0	0	0	0	0	0	0	0	0	0	0	0	0	0	0	0
031419	12:46:02	13:01:07	904787	5.0.10.0	4_exp_AWA_CON_AMP_EVA	163	Rpleas_acq	Oppo	Lpleas	Amasked	CS_A	1pleas	distractor1	CONbeforeEVA	cond_US_pleas_123_masked_CS1	condtest_masked_1	8	5	400	1	300	300	0	0	379	50	0	0	0	0	0	1	blank2r.bmp	0	1	+	0	7	C3r.bmp	492	1	blank2r.bmp	786	1	CPLW	786	1	blank2r.bmp	866	2	vertrauen	866	1	!	1239	1	!	1279	0	0	0	0	0	0	0	0	0	0	0	0	0	0	0	0	0	0	0	0	0	0	0	0	0	0	0
031419	12:46:02	13:01:10	907132	5.0.10.0	4_exp_AWA_CON_AMP_EVA	163	Rpleas_acq	Oppo	Lpleas	Amasked	CS_A	1pleas	distractor1	CONbeforeEVA	cond_new_unple_456_masked_CS1	condtest_masked_1	8	6	400	0	300	300	0	0	578	50	0	1	0	0	0	1	blank2r.bmp	0	1	+	0	4	B4r.bmp	492	1	blank2r.bmp	786	1	CPLW	786	1	blank2r.bmp	866	1	verbissen	866	1	!	1239	1	!	-1	0	0	0	0	0	0	0	0	0	0	0	0	0	0	0	0	0	0	0	0	0	0	0	0	0	0	0
031419	12:46:02	13:01:16	913023	5.0.10.0	4_exp_AWA_CON_AMP_EVA	163	Rpleas_acq	Oppo	Lpleas	Amasked	CS_A	1pleas	distractor1	CONbeforeEVA	cond_new_pleas_456_masked_CS1	condtest_masked_1	8	7	400	0	300	300	0	0	4113	50	0	0	0	0	0	1	blank2r.bmp	0	1	+	0	2	B2r.bmp	492	1	blank2r.bmp	786	1	CPLW	786	1	blank2r.bmp	866	2	gesittet	866	1	!	1239	1	!	-1	0	0	0	0	0	0	0	0	0	0	0	0	0	0	0	0	0	0	0	0	0	0	0	0	0	0	0
031419	12:46:02	13:01:18	915422	5.0.10.0	4_exp_AWA_CON_AMP_EVA	163	Rpleas_acq	Oppo	Lpleas	Amasked	CS_A	1pleas	distractor1	CONbeforeEVA	cond_new_unple_456_masked_CS2	condtest_masked_1	8	8	400	0	300	300	0	0	622	50	0	1	0	0	0	1	blank2r.bmp	0	1	+	0	6	C2r.bmp	492	1	blank2r.bmp	786	1	DHJF	786	1	blank2r.bmp	866	3	gemein	866	1	!	1239	1	!	-1	0	0	0	0	0	0	0	0	0	0	0	0	0	0	0	0	0	0	0	0	0	0	0	0	0	0	0
031419	12:46:02	13:01:32	929710	5.0.10.0	4_exp_AWA_CON_AMP_EVA	163	Rpleas_acq	Oppo	Lpleas	Amasked	CS_A	1pleas	distractor1	CONbeforeEVA	cond_US_pleas_123_masked_CS2	condtest_masked_2	9	1	400	0	300	300	0	0	1386	50	0	0	0	0	0	1	blank2r.bmp	0	1	+	0	5	C1r.bmp	492	1	blank2r.bmp	786	1	DHJF	786	1	blank2r.bmp	866	3	träumen	866	1	!	1239	1	!	-1	0	0	0	0	0	0	0	0	0	0	0	0	0	0	0	0	0	0	0	0	0	0	0	0	0	0	0
031419	12:46:02	13:01:35	932775	5.0.10.0	4_exp_AWA_CON_AMP_EVA	163	Rpleas_acq	Oppo	Lpleas	Amasked	CS_A	1pleas	distractor1	CONbeforeEVA	cond_US_unple_123_masked_CS1	condtest_masked_2	9	2	400	0	300	300	0	0	1289	50	0	1	0	0	0	1	blank2r.bmp	0	1	+	0	8	C4r.bmp	492	1	blank2r.bmp	786	1	CPLW	786	1	blank2r.bmp	866	3	töten	866	1	!	1239	1	!	-1	0	0	0	0	0	0	0	0	0	0	0	0	0	0	0	0	0	0	0	0	0	0	0	0	0	0	0
031419	12:46:02	13:01:38	935054	5.0.10.0	4_exp_AWA_CON_AMP_EVA	163	Rpleas_acq	Oppo	Lpleas	Amasked	CS_A	1pleas	distractor1	CONbeforeEVA	cond_new_unple_456_masked_CS1	condtest_masked_2	9	3	400	0	300	300	0	0	500	50	0	1	0	0	0	1	blank2r.bmp	0	1	+	0	1	B1r.bmp	492	1	blank2r.bmp	786	1	CPLW	786	1	blank2r.bmp	866	2	geizig	866	1	!	1239	1	!	-1	0	0	0	0	0	0	0	0	0	0	0	0	0	0	0	0	0	0	0	0	0	0	0	0	0	0	0
031419	12:46:02	13:01:40	937413	5.0.10.0	4_exp_AWA_CON_AMP_EVA	163	Rpleas_acq	Oppo	Lpleas	Amasked	CS_A	1pleas	distractor1	CONbeforeEVA	cond_US_pleas_123_masked_CS2	condtest_masked_2	9	4	400	0	300	300	0	0	581	50	0	0	0	0	0	1	blank2r.bmp	0	1	+	0	3	B3r.bmp	492	1	blank2r.bmp	786	1	DHJF	786	1	blank2r.bmp	866	2	vertrauen	866	1	!	1239	1	!	-1	0	0	0	0	0	0	0	0	0	0	0	0	0	0	0	0	0	0	0	0	0	0	0	0	0	0	0
031419	12:46:02	13:01:45	942411	5.0.10.0	4_exp_AWA_CON_AMP_EVA	163	Rpleas_acq	Oppo	Lpleas	Amasked	CS_A	1pleas	distractor1	CONbeforeEVA	cond_new_unple_456_masked_CS2	condtest_masked_2	9	5	400	0	300	300	0	0	3210	50	0	1	0	0	0	1	blank2r.bmp	0	1	+	0	6	C2r.bmp	492	1	blank2r.bmp	786	1	DHJF	786	1	blank2r.bmp	866	1	verbissen	866	1	!	1239	1	!	-1	0	0	0	0	0	0	0	0	0	0	0	0	0	0	0	0	0	0	0	0	0	0	0	0	0	0	0
031419	12:46:02	13:01:48	945063	5.0.10.0	4_exp_AWA_CON_AMP_EVA	163	Rpleas_acq	Oppo	Lpleas	Amasked	CS_A	1pleas	distractor1	CONbeforeEVA	cond_US_pleas_123_masked_CS1	condtest_masked_2	9	6	400	0	300	300	0	0	868	50	0	0	0	0	0	1	blank2r.bmp	0	1	+	0	4	B4r.bmp	492	1	blank2r.bmp	786	1	CPLW	786	1	blank2r.bmp	866	3	träumen	866	1	!	1239	1	!	-1	0	0	0	0	0	0	0	0	0	0	0	0	0	0	0	0	0	0	0	0	0	0	0	0	0	0	0
031419	12:46:02	13:01:50	947236	5.0.10.0	4_exp_AWA_CON_AMP_EVA	163	Rpleas_acq	Oppo	Lpleas	Amasked	CS_A	1pleas	distractor1	CONbeforeEVA	cond_new_pleas_456_masked_CS2	condtest_masked_2	9	7	400	1	300	300	0	0	369	50	0	0	0	0	0	1	blank2r.bmp	0	1	+	0	1	B1r.bmp	492	1	blank2r.bmp	786	1	DHJF	786	1	blank2r.bmp	866	1	vergnügt	866	1	!	1239	1	!	1266	0	0	0	0	0	0	0	0	0	0	0	0	0	0	0	0	0	0	0	0	0	0	0	0	0	0	0
031419	12:46:02	13:01:52	949448	5.0.10.0	4_exp_AWA_CON_AMP_EVA	163	Rpleas_acq	Oppo	Lpleas	Amasked	CS_A	1pleas	distractor1	CONbeforeEVA	cond_new_pleas_456_masked_CS2	condtest_masked_2	9	8	400	1	300	300	0	0	424	50	0	0	0	0	0	1	blank2r.bmp	0	1	+	0	8	C4r.bmp	492	1	blank2r.bmp	786	1	DHJF	786	1	blank2r.bmp	866	3	genießen	866	1	!	1239	1	!	1319	0	0	0	0	0	0	0	0	0	0	0	0	0	0	0	0	0	0	0	0	0	0	0	0	0	0	0
031419	12:46:02	13:01:54	951714	5.0.10.0	4_exp_AWA_CON_AMP_EVA	163	Rpleas_acq	Oppo	Lpleas	Amasked	CS_A	1pleas	distractor1	CONbeforeEVA	cond_new_pleas_456_masked_CS1	condtest_masked_2	9	9	400	1	300	300	0	0	466	50	0	0	0	0	0	1	blank2r.bmp	0	1	+	0	3	B3r.bmp	492	1	blank2r.bmp	786	1	CPLW	786	1	blank2r.bmp	866	2	gesittet	866	1	!	1239	1	!	1372	0	0	0	0	0	0	0	0	0	0	0	0	0	0	0	0	0	0	0	0	0	0	0	0	0	0	0
031419	12:46:02	13:01:56	953726	5.0.10.0	4_exp_AWA_CON_AMP_EVA	163	Rpleas_acq	Oppo	Lpleas	Amasked	CS_A	1pleas	distractor1	CONbeforeEVA	cond_new_unple_456_masked_CS1	condtest_masked_2	9	10	400	0	300	300	0	0	244	50	0	1	0	0	0	1	blank2r.bmp	0	1	+	0	2	B2r.bmp	492	1	blank2r.bmp	786	1	CPLW	786	1	blank2r.bmp	866	3	gemein	866	1	!	-1	1	!	-1	0	0	0	0	0	0	0	0	0	0	0	0	0	0	0	0	0	0	0	0	0	0	0	0	0	0	0
031419	12:46:02	13:01:59	956432	5.0.10.0	4_exp_AWA_CON_AMP_EVA	163	Rpleas_acq	Oppo	Lpleas	Amasked	CS_A	1pleas	distractor1	CONbeforeEVA	cond_US_pleas_123_masked_CS2	condtest_masked_2	9	11	400	0	300	300	0	0	927	50	0	0	0	0	0	1	blank2r.bmp	0	1	+	0	5	C1r.bmp	492	1	blank2r.bmp	786	1	DHJF	786	1	blank2r.bmp	866	1	kreativ	866	1	!	1239	1	!	-1	0	0	0	0	0	0	0	0	0	0	0	0	0	0	0	0	0	0	0	0	0	0	0	0	0	0	0
031419	12:46:02	13:02:01	958764	5.0.10.0	4_exp_AWA_CON_AMP_EVA	163	Rpleas_acq	Oppo	Lpleas	Amasked	CS_A	1pleas	distractor1	CONbeforeEVA	cond_US_unple_123_masked_CS2	condtest_masked_2	9	12	400	0	300	300	0	0	547	50	0	1	0	0	0	1	blank2r.bmp	0	1	+	0	7	C3r.bmp	492	1	blank2r.bmp	786	1	DHJF	786	1	blank2r.bmp	866	1	krank	866	1	!	1239	1	!	-1	0	0	0	0	0	0	0	0	0	0	0	0	0	0	0	0	0	0	0	0	0	0	0	0	0	0	0
031419	12:46:02	13:02:04	961457	5.0.10.0	4_exp_AWA_CON_AMP_EVA	163	Rpleas_acq	Oppo	Lpleas	Amasked	CS_A	1pleas	distractor1	CONbeforeEVA	cond_US_unple_123_masked_CS2	condtest_masked_2	9	13	400	0	300	300	0	0	905	50	0	1	0	0	0	1	blank2r.bmp	0	1	+	0	7	C3r.bmp	492	1	blank2r.bmp	786	1	DHJF	786	1	blank2r.bmp	866	3	töten	866	1	!	1239	1	!	-1	0	0	0	0	0	0	0	0	0	0	0	0	0	0	0	0	0	0	0	0	0	0	0	0	0	0	0
031419	12:46:02	13:02:07	964082	5.0.10.0	4_exp_AWA_CON_AMP_EVA	163	Rpleas_acq	Oppo	Lpleas	Amasked	CS_A	1pleas	distractor1	CONbeforeEVA	cond_new_pleas_456_masked_CS1	condtest_masked_2	9	14	400	0	300	300	0	0	831	50	0	0	0	0	0	1	blank2r.bmp	0	1	+	0	1	B1r.bmp	492	1	blank2r.bmp	786	1	CPLW	786	1	blank2r.bmp	866	1	vergnügt	866	1	!	1239	1	!	-1	0	0	0	0	0	0	0	0	0	0	0	0	0	0	0	0	0	0	0	0	0	0	0	0	0	0	0
031419	12:46:02	13:02:09	966041	5.0.10.0	4_exp_AWA_CON_AMP_EVA	163	Rpleas_acq	Oppo	Lpleas	Amasked	CS_A	1pleas	distractor1	CONbeforeEVA	cond_new_pleas_456_masked_CS1	condtest_masked_2	9	15	400	0	300	300	0	0	182	50	0	0	0	0	0	1	blank2r.bmp	0	1	+	0	4	B4r.bmp	492	1	blank2r.bmp	786	1	CPLW	786	1	blank2r.bmp	866	2	gesittet	866	1	!	-1	1	!	-1	0	0	0	0	0	0	0	0	0	0	0	0	0	0	0	0	0	0	0	0	0	0	0	0	0	0	0
031419	12:46:02	13:02:11	968320	5.0.10.0	4_exp_AWA_CON_AMP_EVA	163	Rpleas_acq	Oppo	Lpleas	Amasked	CS_A	1pleas	distractor1	CONbeforeEVA	cond_new_unple_456_masked_CS2	condtest_masked_2	9	16	400	0	300	300	0	0	499	50	0	1	0	0	0	1	blank2r.bmp	0	1	+	0	2	B2r.bmp	492	1	blank2r.bmp	786	1	DHJF	786	1	blank2r.bmp	866	2	geizig	866	1	!	1239	1	!	-1	0	0	0	0	0	0	0	0	0	0	0	0	0	0	0	0	0	0	0	0	0	0	0	0	0	0	0
031419	12:46:02	13:02:13	970599	5.0.10.0	4_exp_AWA_CON_AMP_EVA	163	Rpleas_acq	Oppo	Lpleas	Amasked	CS_A	1pleas	distractor1	CONbeforeEVA	cond_US_unple_123_masked_CS2	condtest_masked_2	9	17	400	0	300	300	0	0	479	50	0	1	0	0	0	1	blank2r.bmp	0	1	+	0	5	C1r.bmp	492	1	blank2r.bmp	786	1	DHJF	786	1	blank2r.bmp	866	2	versagen	866	1	!	1239	1	!	-1	0	0	0	0	0	0	0	0	0	0	0	0	0	0	0	0	0	0	0	0	0	0	0	0	0	0	0
031419	12:46:02	13:02:15	972998	5.0.10.0	4_exp_AWA_CON_AMP_EVA	163	Rpleas_acq	Oppo	Lpleas	Amasked	CS_A	1pleas	distractor1	CONbeforeEVA	cond_US_unple_123_masked_CS1	condtest_masked_2	9	18	400	0	300	300	0	0	620	50	0	1	0	0	0	1	blank2r.bmp	0	1	+	0	6	C2r.bmp	492	1	blank2r.bmp	786	1	CPLW	786	1	blank2r.bmp	866	2	versagen	866	1	!	1239	1	!	-1	0	0	0	0	0	0	0	0	0	0	0	0	0	0	0	0	0	0	0	0	0	0	0	0	0	0	0
031419	12:46:02	13:02:18	975358	5.0.10.0	4_exp_AWA_CON_AMP_EVA	163	Rpleas_acq	Oppo	Lpleas	Amasked	CS_A	1pleas	distractor1	CONbeforeEVA	cond_new_pleas_456_masked_CS2	condtest_masked_2	9	19	400	0	300	300	0	0	584	50	0	0	0	0	0	1	blank2r.bmp	0	1	+	0	3	B3r.bmp	492	1	blank2r.bmp	786	1	DHJF	786	1	blank2r.bmp	866	1	vergnügt	866	1	!	1239	1	!	-1	0	0	0	0	0	0	0	0	0	0	0	0	0	0	0	0	0	0	0	0	0	0	0	0	0	0	0
031419	12:46:02	13:02:20	977730	5.0.10.0	4_exp_AWA_CON_AMP_EVA	163	Rpleas_acq	Oppo	Lpleas	Amasked	CS_A	1pleas	distractor1	CONbeforeEVA	cond_new_pleas_456_masked_CS2	condtest_masked_2	9	20	400	0	300	300	0	0	590	50	0	0	0	0	0	1	blank2r.bmp	0	1	+	0	8	C4r.bmp	492	1	blank2r.bmp	786	1	DHJF	786	1	blank2r.bmp	866	3	genießen	866	1	!	1239	1	!	-1	0	0	0	0	0	0	0	0	0	0	0	0	0	0	0	0	0	0	0	0	0	0	0	0	0	0	0
031419	12:46:02	13:02:22	979769	5.0.10.0	4_exp_AWA_CON_AMP_EVA	163	Rpleas_acq	Oppo	Lpleas	Amasked	CS_A	1pleas	distractor1	CONbeforeEVA	cond_new_unple_456_masked_CS2	condtest_masked_2	9	21	400	0	300	300	0	0	255	50	0	1	0	0	0	1	blank2r.bmp	0	1	+	0	6	C2r.bmp	492	1	blank2r.bmp	786	1	DHJF	786	1	blank2r.bmp	866	1	verbissen	866	1	!	-1	1	!	-1	0	0	0	0	0	0	0	0	0	0	0	0	0	0	0	0	0	0	0	0	0	0	0	0	0	0	0
031419	12:46:02	13:02:24	981808	5.0.10.0	4_exp_AWA_CON_AMP_EVA	163	Rpleas_acq	Oppo	Lpleas	Amasked	CS_A	1pleas	distractor1	CONbeforeEVA	cond_new_unple_456_masked_CS1	condtest_masked_2	9	22	400	0	300	300	0	0	261	50	0	1	0	0	0	1	blank2r.bmp	0	1	+	0	4	B4r.bmp	492	1	blank2r.bmp	786	1	CPLW	786	1	blank2r.bmp	866	2	geizig	866	1	!	-1	1	!	-1	0	0	0	0	0	0	0	0	0	0	0	0	0	0	0	0	0	0	0	0	0	0	0	0	0	0	0
031419	12:46:02	13:02:26	983927	5.0.10.0	4_exp_AWA_CON_AMP_EVA	163	Rpleas_acq	Oppo	Lpleas	Amasked	CS_A	1pleas	distractor1	CONbeforeEVA	cond_US_unple_123_masked_CS2	condtest_masked_2	9	23	400	0	300	300	0	0	332	50	0	1	0	0	0	1	blank2r.bmp	0	1	+	0	2	B2r.bmp	492	1	blank2r.bmp	786	1	DHJF	786	1	blank2r.bmp	866	3	töten	866	1	!	-1	1	!	-1	0	0	0	0	0	0	0	0	0	0	0	0	0	0	0	0	0	0	0	0	0	0	0	0	0	0	0
031419	12:46:02	13:02:29	986393	5.0.10.0	4_exp_AWA_CON_AMP_EVA	163	Rpleas_acq	Oppo	Lpleas	Amasked	CS_A	1pleas	distractor1	CONbeforeEVA	cond_US_pleas_123_masked_CS1	condtest_masked_2	9	24	400	0	300	300	0	0	687	50	0	0	0	0	0	1	blank2r.bmp	0	1	+	0	7	C3r.bmp	492	1	blank2r.bmp	786	1	CPLW	786	1	blank2r.bmp	866	1	kreativ	866	1	!	1239	1	!	-1	0	0	0	0	0	0	0	0	0	0	0	0	0	0	0	0	0	0	0	0	0	0	0	0	0	0	0
031419	12:46:02	13:02:31	988805	5.0.10.0	4_exp_AWA_CON_AMP_EVA	163	Rpleas_acq	Oppo	Lpleas	Amasked	CS_A	1pleas	distractor1	CONbeforeEVA	cond_new_unple_456_masked_CS1	condtest_masked_2	9	25	400	0	300	300	0	0	632	50	0	1	0	0	0	1	blank2r.bmp	0	1	+	0	5	C1r.bmp	492	1	blank2r.bmp	786	1	CPLW	786	1	blank2r.bmp	866	3	gemein	866	1	!	1239	1	!	-1	0	0	0	0	0	0	0	0	0	0	0	0	0	0	0	0	0	0	0	0	0	0	0	0	0	0	0
031419	12:46:02	13:02:34	991138	5.0.10.0	4_exp_AWA_CON_AMP_EVA	163	Rpleas_acq	Oppo	Lpleas	Amasked	CS_A	1pleas	distractor1	CONbeforeEVA	cond_US_pleas_123_masked_CS1	condtest_masked_2	9	26	400	0	300	300	0	0	558	50	0	0	0	0	0	1	blank2r.bmp	0	1	+	0	1	B1r.bmp	492	1	blank2r.bmp	786	1	CPLW	786	1	blank2r.bmp	866	3	träumen	866	1	!	1239	1	!	-1	0	0	0	0	0	0	0	0	0	0	0	0	0	0	0	0	0	0	0	0	0	0	0	0	0	0	0
031419	12:46:02	13:02:36	993137	5.0.10.0	4_exp_AWA_CON_AMP_EVA	163	Rpleas_acq	Oppo	Lpleas	Amasked	CS_A	1pleas	distractor1	CONbeforeEVA	cond_US_unple_123_masked_CS1	condtest_masked_2	9	27	400	0	300	300	0	0	218	50	0	1	0	0	0	1	blank2r.bmp	0	1	+	0	3	B3r.bmp	492	1	blank2r.bmp	786	1	CPLW	786	1	blank2r.bmp	866	1	krank	866	1	!	-1	1	!	-1	0	0	0	0	0	0	0	0	0	0	0	0	0	0	0	0	0	0	0	0	0	0	0	0	0	0	0
031419	12:46:02	13:02:40	997682	5.0.10.0	4_exp_AWA_CON_AMP_EVA	163	Rpleas_acq	Oppo	Lpleas	Amasked	CS_A	1pleas	distractor1	CONbeforeEVA	cond_US_pleas_123_masked_CS2	condtest_masked_2	9	28	400	0	300	300	0	0	2766	50	0	0	0	0	0	1	blank2r.bmp	0	1	+	0	8	C4r.bmp	492	1	blank2r.bmp	786	1	DHJF	786	1	blank2r.bmp	866	2	vertrauen	866	1	!	1239	1	!	-1	0	0	0	0	0	0	0	0	0	0	0	0	0	0	0	0	0	0	0	0	0	0	0	0	0	0	0
031419	12:46:02	13:02:42	1000001	5.0.10.0	4_exp_AWA_CON_AMP_EVA	163	Rpleas_acq	Oppo	Lpleas	Amasked	CS_A	1pleas	distractor1	CONbeforeEVA	cond_new_unple_456_masked_CS2	condtest_masked_2	9	29	400	0	300	300	0	0	534	50	0	1	0	0	0	1	blank2r.bmp	0	1	+	0	3	B3r.bmp	492	1	blank2r.bmp	786	1	DHJF	786	1	blank2r.bmp	866	1	verbissen	866	1	!	1239	1	!	-1	0	0	0	0	0	0	0	0	0	0	0	0	0	0	0	0	0	0	0	0	0	0	0	0	0	0	0
031419	12:46:02	13:02:45	1002200	5.0.10.0	4_exp_AWA_CON_AMP_EVA	163	Rpleas_acq	Oppo	Lpleas	Amasked	CS_A	1pleas	distractor1	CONbeforeEVA	cond_US_unple_123_masked_CS1	condtest_masked_2	9	30	400	1	300	300	0	0	391	50	0	1	0	0	0	1	blank2r.bmp	0	1	+	0	4	B4r.bmp	492	1	blank2r.bmp	786	1	CPLW	786	1	blank2r.bmp	866	3	töten	866	1	!	1239	1	!	1292	0	0	0	0	0	0	0	0	0	0	0	0	0	0	0	0	0	0	0	0	0	0	0	0	0	0	0
031419	12:46:02	13:02:51	1008850	5.0.10.0	4_exp_AWA_CON_AMP_EVA	163	Rpleas_acq	Oppo	Lpleas	Amasked	CS_A	1pleas	distractor1	CONbeforeEVA	cond_US_pleas_123_masked_CS1	condtest_masked_2	9	31	400	0	300	300	0	0	4888	50	0	0	0	0	0	1	blank2r.bmp	0	1	+	0	7	C3r.bmp	492	1	blank2r.bmp	786	1	CPLW	786	1	blank2r.bmp	866	3	träumen	866	1	!	1239	1	!	-1	0	0	0	0	0	0	0	0	0	0	0	0	0	0	0	0	0	0	0	0	0	0	0	0	0	0	0
031419	12:46:02	13:02:54	1011143	5.0.10.0	4_exp_AWA_CON_AMP_EVA	163	Rpleas_acq	Oppo	Lpleas	Amasked	CS_A	1pleas	distractor1	CONbeforeEVA	cond_new_pleas_456_masked_CS1	condtest_masked_2	9	32	400	0	300	300	0	0	513	50	0	0	0	0	0	1	blank2r.bmp	0	1	+	0	5	C1r.bmp	492	1	blank2r.bmp	786	1	CPLW	786	1	blank2r.bmp	866	1	vergnügt	866	1	!	1239	1	!	-1	0	0	0	0	0	0	0	0	0	0	0	0	0	0	0	0	0	0	0	0	0	0	0	0	0	0	0
031419	12:46:02	13:02:56	1013488	5.0.10.0	4_exp_AWA_CON_AMP_EVA	163	Rpleas_acq	Oppo	Lpleas	Amasked	CS_A	1pleas	distractor1	CONbeforeEVA	cond_new_unple_456_masked_CS1	condtest_masked_2	9	33	400	0	300	300	0	0	558	50	0	1	0	0	0	1	blank2r.bmp	0	1	+	0	2	B2r.bmp	492	1	blank2r.bmp	786	1	CPLW	786	1	blank2r.bmp	866	3	gemein	866	1	!	1239	1	!	-1	0	0	0	0	0	0	0	0	0	0	0	0	0	0	0	0	0	0	0	0	0	0	0	0	0	0	0
031419	12:46:02	13:03:00	1017753	5.0.10.0	4_exp_AWA_CON_AMP_EVA	163	Rpleas_acq	Oppo	Lpleas	Amasked	CS_A	1pleas	distractor1	CONbeforeEVA	cond_US_unple_123_masked_CS1	condtest_masked_2	9	34	400	0	300	300	0	0	2480	50	0	1	0	0	0	1	blank2r.bmp	0	1	+	0	1	B1r.bmp	492	1	blank2r.bmp	786	1	CPLW	786	1	blank2r.bmp	866	2	versagen	866	1	!	1239	1	!	-1	0	0	0	0	0	0	0	0	0	0	0	0	0	0	0	0	0	0	0	0	0	0	0	0	0	0	0
031419	12:46:02	13:03:03	1020046	5.0.10.0	4_exp_AWA_CON_AMP_EVA	163	Rpleas_acq	Oppo	Lpleas	Amasked	CS_A	1pleas	distractor1	CONbeforeEVA	cond_US_pleas_123_masked_CS2	condtest_masked_2	9	35	400	0	300	300	0	0	513	50	0	0	0	0	0	1	blank2r.bmp	0	1	+	0	6	C2r.bmp	492	1	blank2r.bmp	786	1	DHJF	786	1	blank2r.bmp	866	1	kreativ	866	1	!	1239	1	!	-1	0	0	0	0	0	0	0	0	0	0	0	0	0	0	0	0	0	0	0	0	0	0	0	0	0	0	0
031419	12:46:02	13:03:06	1023085	5.0.10.0	4_exp_AWA_CON_AMP_EVA	163	Rpleas_acq	Oppo	Lpleas	Amasked	CS_A	1pleas	distractor1	CONbeforeEVA	cond_new_pleas_456_masked_CS2	condtest_masked_2	9	36	400	0	300	300	0	0	1260	50	0	0	0	0	0	1	blank2r.bmp	0	1	+	0	8	C4r.bmp	492	1	blank2r.bmp	786	1	DHJF	786	1	blank2r.bmp	866	2	gesittet	866	1	!	1239	1	!	-1	0	0	0	0	0	0	0	0	0	0	0	0	0	0	0	0	0	0	0	0	0	0	0	0	0	0	0
031419	12:46:02	13:03:08	1025284	5.0.10.0	4_exp_AWA_CON_AMP_EVA	163	Rpleas_acq	Oppo	Lpleas	Amasked	CS_A	1pleas	distractor1	CONbeforeEVA	cond_new_pleas_456_masked_CS1	condtest_masked_2	9	37	400	1	300	300	0	0	394	50	0	0	0	0	0	1	blank2r.bmp	0	1	+	0	5	C1r.bmp	492	1	blank2r.bmp	786	1	CPLW	786	1	blank2r.bmp	866	3	genießen	866	1	!	1239	1	!	1292	0	0	0	0	0	0	0	0	0	0	0	0	0	0	0	0	0	0	0	0	0	0	0	0	0	0	0
031419	12:46:02	13:03:12	1029495	5.0.10.0	4_exp_AWA_CON_AMP_EVA	163	Rpleas_acq	Oppo	Lpleas	Amasked	CS_A	1pleas	distractor1	CONbeforeEVA	cond_US_unple_123_masked_CS2	condtest_masked_2	9	38	400	0	300	300	0	0	2440	50	0	1	0	0	0	1	blank2r.bmp	0	1	+	0	6	C2r.bmp	492	1	blank2r.bmp	786	1	DHJF	786	1	blank2r.bmp	866	1	krank	866	1	!	1239	1	!	-1	0	0	0	0	0	0	0	0	0	0	0	0	0	0	0	0	0	0	0	0	0	0	0	0	0	0	0
031419	12:46:02	13:03:14	1031934	5.0.10.0	4_exp_AWA_CON_AMP_EVA	163	Rpleas_acq	Oppo	Lpleas	Amasked	CS_A	1pleas	distractor1	CONbeforeEVA	cond_new_unple_456_masked_CS2	condtest_masked_2	9	39	400	0	300	300	0	0	653	50	0	1	0	0	0	1	blank2r.bmp	0	1	+	0	1	B1r.bmp	492	1	blank2r.bmp	786	1	DHJF	786	1	blank2r.bmp	866	2	geizig	866	1	!	1239	1	!	-1	0	0	0	0	0	0	0	0	0	0	0	0	0	0	0	0	0	0	0	0	0	0	0	0	0	0	0
031419	12:46:02	13:03:16	1033893	5.0.10.0	4_exp_AWA_CON_AMP_EVA	163	Rpleas_acq	Oppo	Lpleas	Amasked	CS_A	1pleas	distractor1	CONbeforeEVA	cond_US_pleas_123_masked_CS1	condtest_masked_2	9	40	400	0	300	300	0	0	184	50	0	0	0	0	0	1	blank2r.bmp	0	1	+	0	4	B4r.bmp	492	1	blank2r.bmp	786	1	CPLW	786	1	blank2r.bmp	866	2	vertrauen	866	1	!	-1	1	!	-1	0	0	0	0	0	0	0	0	0	0	0	0	0	0	0	0	0	0	0	0	0	0	0	0	0	0	0
031419	12:46:02	13:03:43	1060043	5.0.10.0	4_exp_AWA_CON_AMP_EVA	163	Rpleas_acq	Oppo	Lpleas	Amasked	CS_A	1pleas	distractor1	CONbeforeEVA	cond_new_unple_123_masked_CS2	condtest_masked_3	10	1	400	0	300	300	0	0	616	50	0	1	0	0	0	1	blank2r.bmp	0	1	+	0	7	C3r.bmp	492	1	blank2r.bmp	786	1	DHJF	786	1	blank2r.bmp	866	2	ausrottung	866	1	!	1239	1	!	-1	0	0	0	0	0	0	0	0	0	0	0	0	0	0	0	0	0	0	0	0	0	0	0	0	0	0	0
031419	12:46:02	13:03:45	1062282	5.0.10.0	4_exp_AWA_CON_AMP_EVA	163	Rpleas_acq	Oppo	Lpleas	Amasked	CS_A	1pleas	distractor1	CONbeforeEVA	cond_new_unple_123_masked_CS2	condtest_masked_3	10	2	400	1	300	300	0	0	438	50	0	1	0	0	0	1	blank2r.bmp	0	1	+	0	8	C4r.bmp	492	1	blank2r.bmp	786	1	DHJF	786	1	blank2r.bmp	866	1	engstirnig	866	1	!	1239	1	!	1332	0	0	0	0	0	0	0	0	0	0	0	0	0	0	0	0	0	0	0	0	0	0	0	0	0	0	0
031419	12:46:02	13:03:47	1064561	5.0.10.0	4_exp_AWA_CON_AMP_EVA	163	Rpleas_acq	Oppo	Lpleas	Amasked	CS_A	1pleas	distractor1	CONbeforeEVA	cond_new_pleas_123_masked_CS2	condtest_masked_3	10	3	400	0	300	300	0	0	514	50	0	0	0	0	0	1	blank2r.bmp	0	1	+	0	2	B2r.bmp	492	1	blank2r.bmp	786	1	DHJF	786	1	blank2r.bmp	866	2	anregung	866	1	!	1239	1	!	-1	0	0	0	0	0	0	0	0	0	0	0	0	0	0	0	0	0	0	0	0	0	0	0	0	0	0	0
031419	12:46:02	13:03:49	1066813	5.0.10.0	4_exp_AWA_CON_AMP_EVA	163	Rpleas_acq	Oppo	Lpleas	Amasked	CS_A	1pleas	distractor1	CONbeforeEVA	cond_new_pleas_123_masked_CS2	condtest_masked_3	10	4	400	1	300	300	0	0	444	50	0	0	0	0	0	1	blank2r.bmp	0	1	+	0	3	B3r.bmp	492	1	blank2r.bmp	786	1	DHJF	786	1	blank2r.bmp	866	3	sonnig	866	1	!	1239	1	!	1346	0	0	0	0	0	0	0	0	0	0	0	0	0	0	0	0	0	0	0	0	0	0	0	0	0	0	0
031419	12:46:02	13:03:53	1070905	5.0.10.0	4_exp_AWA_CON_AMP_EVA	163	Rpleas_acq	Oppo	Lpleas	Amasked	CS_A	1pleas	distractor1	CONbeforeEVA	cond_US_pleas_456_masked_CS1	condtest_masked_3	10	5	400	0	300	300	0	0	2321	50	0	0	0	0	0	1	blank2r.bmp	0	1	+	0	2	B2r.bmp	492	1	blank2r.bmp	786	1	CPLW	786	1	blank2r.bmp	866	2	kuss	866	1	!	1239	1	!	-1	0	0	0	0	0	0	0	0	0	0	0	0	0	0	0	0	0	0	0	0	0	0	0	0	0	0	0
031419	12:46:02	13:03:56	1073077	5.0.10.0	4_exp_AWA_CON_AMP_EVA	163	Rpleas_acq	Oppo	Lpleas	Amasked	CS_A	1pleas	distractor1	CONbeforeEVA	cond_new_unple_123_masked_CS1	condtest_masked_3	10	6	400	1	300	300	0	0	348	46	0	0	0	0	0	1	blank2r.bmp	0	1	+	0	6	C2r.bmp	492	1	blank2r.bmp	786	1	CPLW	786	1	blank2r.bmp	866	3	sterben	866	1	!	1239	1	!	1252	0	0	0	0	0	0	0	0	0	0	0	0	0	0	0	0	0	0	0	0	0	0	0	0	0	0	0
031419	12:46:02	13:03:58	1075236	5.0.10.0	4_exp_AWA_CON_AMP_EVA	163	Rpleas_acq	Oppo	Lpleas	Amasked	CS_A	1pleas	distractor1	CONbeforeEVA	cond_new_pleas_123_masked_CS2	condtest_masked_3	10	7	400	1	300	300	0	0	359	50	0	0	0	0	0	1	blank2r.bmp	0	1	+	0	4	B4r.bmp	492	1	blank2r.bmp	786	1	DHJF	786	1	blank2r.bmp	866	1	engagiert	866	1	!	1239	1	!	1266	0	0	0	0	0	0	0	0	0	0	0	0	0	0	0	0	0	0	0	0	0	0	0	0	0	0	0
031419	12:46:02	13:04:00	1077489	5.0.10.0	4_exp_AWA_CON_AMP_EVA	163	Rpleas_acq	Oppo	Lpleas	Amasked	CS_A	1pleas	distractor1	CONbeforeEVA	cond_US_unple_456_masked_CS2	condtest_masked_3	10	8	400	0	300	300	0	0	487	46	0	0	0	0	0	1	blank2r.bmp	0	1	+	0	8	C4r.bmp	492	1	blank2r.bmp	786	1	DHJF	786	1	blank2r.bmp	866	3	gierig	866	1	!	1239	1	!	-1	0	0	0	0	0	0	0	0	0	0	0	0	0	0	0	0	0	0	0	0	0	0	0	0	0	0	0
031419	12:46:02	13:04:02	1079808	5.0.10.0	4_exp_AWA_CON_AMP_EVA	163	Rpleas_acq	Oppo	Lpleas	Amasked	CS_A	1pleas	distractor1	CONbeforeEVA	cond_US_pleas_456_masked_CS2	condtest_masked_3	10	9	400	0	300	300	0	0	529	50	0	0	0	0	0	1	blank2r.bmp	0	1	+	0	3	B3r.bmp	492	1	blank2r.bmp	786	1	DHJF	786	1	blank2r.bmp	866	1	besonnen	866	1	!	1239	1	!	-1	0	0	0	0	0	0	0	0	0	0	0	0	0	0	0	0	0	0	0	0	0	0	0	0	0	0	0
031419	12:46:02	13:04:04	1081980	5.0.10.0	4_exp_AWA_CON_AMP_EVA	163	Rpleas_acq	Oppo	Lpleas	Amasked	CS_A	1pleas	distractor1	CONbeforeEVA	cond_new_pleas_123_masked_CS2	condtest_masked_3	10	10	400	1	300	300	0	0	370	46	0	1	0	0	0	1	blank2r.bmp	0	1	+	0	1	B1r.bmp	492	1	blank2r.bmp	786	1	DHJF	786	1	blank2r.bmp	866	2	anregung	866	1	!	1239	1	!	1266	0	0	0	0	0	0	0	0	0	0	0	0	0	0	0	0	0	0	0	0	0	0	0	0	0	0	0
031419	12:46:02	13:04:07	1084166	5.0.10.0	4_exp_AWA_CON_AMP_EVA	163	Rpleas_acq	Oppo	Lpleas	Amasked	CS_A	1pleas	distractor1	CONbeforeEVA	cond_US_pleas_456_masked_CS2	condtest_masked_3	10	11	400	1	300	300	0	0	377	46	0	1	0	0	0	1	blank2r.bmp	0	1	+	0	7	C3r.bmp	492	1	blank2r.bmp	786	1	DHJF	786	1	blank2r.bmp	866	3	gütig	866	1	!	1239	1	!	1279	0	0	0	0	0	0	0	0	0	0	0	0	0	0	0	0	0	0	0	0	0	0	0	0	0	0	0
031419	12:46:02	13:04:09	1086432	5.0.10.0	4_exp_AWA_CON_AMP_EVA	163	Rpleas_acq	Oppo	Lpleas	Amasked	CS_A	1pleas	distractor1	CONbeforeEVA	cond_US_pleas_456_masked_CS2	condtest_masked_3	10	12	400	0	300	300	0	0	497	50	0	0	0	0	0	1	blank2r.bmp	0	1	+	0	5	C1r.bmp	492	1	blank2r.bmp	786	1	DHJF	786	1	blank2r.bmp	866	3	gütig	866	1	!	1239	1	!	-1	0	0	0	0	0	0	0	0	0	0	0	0	0	0	0	0	0	0	0	0	0	0	0	0	0	0	0
031419	12:46:02	13:04:11	1088697	5.0.10.0	4_exp_AWA_CON_AMP_EVA	163	Rpleas_acq	Oppo	Lpleas	Amasked	CS_A	1pleas	distractor1	CONbeforeEVA	cond_US_unple_456_masked_CS2	condtest_masked_3	10	13	400	1	300	300	0	0	465	46	0	0	0	0	0	1	blank2r.bmp	0	1	+	0	3	B3r.bmp	492	1	blank2r.bmp	786	1	DHJF	786	1	blank2r.bmp	866	2	krise	866	1	!	1239	1	!	1359	0	0	0	0	0	0	0	0	0	0	0	0	0	0	0	0	0	0	0	0	0	0	0	0	0	0	0
031419	12:46:02	13:04:14	1091030	5.0.10.0	4_exp_AWA_CON_AMP_EVA	163	Rpleas_acq	Oppo	Lpleas	Amasked	CS_A	1pleas	distractor1	CONbeforeEVA	cond_new_unple_123_masked_CS2	condtest_masked_3	10	14	400	0	300	300	0	0	561	50	0	1	0	0	0	1	blank2r.bmp	0	1	+	0	2	B2r.bmp	492	1	blank2r.bmp	786	1	DHJF	786	1	blank2r.bmp	866	1	engstirnig	866	1	!	1239	1	!	-1	0	0	0	0	0	0	0	0	0	0	0	0	0	0	0	0	0	0	0	0	0	0	0	0	0	0	0
031419	12:46:02	13:04:16	1093229	5.0.10.0	4_exp_AWA_CON_AMP_EVA	163	Rpleas_acq	Oppo	Lpleas	Amasked	CS_A	1pleas	distractor1	CONbeforeEVA	cond_new_pleas_123_masked_CS1	condtest_masked_3	10	15	400	1	300	300	0	0	383	46	0	1	0	0	0	1	blank2r.bmp	0	1	+	0	4	B4r.bmp	492	1	blank2r.bmp	786	1	CPLW	786	1	blank2r.bmp	866	3	sonnig	866	1	!	1239	1	!	1279	0	0	0	0	0	0	0	0	0	0	0	0	0	0	0	0	0	0	0	0	0	0	0	0	0	0	0
031419	12:46:02	13:04:18	1095441	5.0.10.0	4_exp_AWA_CON_AMP_EVA	163	Rpleas_acq	Oppo	Lpleas	Amasked	CS_A	1pleas	distractor1	CONbeforeEVA	cond_US_unple_456_masked_CS2	condtest_masked_3	10	16	400	1	300	300	0	0	417	46	0	0	0	0	0	1	blank2r.bmp	0	1	+	0	5	C1r.bmp	492	1	blank2r.bmp	786	1	DHJF	786	1	blank2r.bmp	866	1	bange	866	1	!	1239	1	!	1319	0	0	0	0	0	0	0	0	0	0	0	0	0	0	0	0	0	0	0	0	0	0	0	0	0	0	0
031419	12:46:02	13:04:20	1097694	5.0.10.0	4_exp_AWA_CON_AMP_EVA	163	Rpleas_acq	Oppo	Lpleas	Amasked	CS_A	1pleas	distractor1	CONbeforeEVA	cond_US_unple_456_masked_CS2	condtest_masked_3	10	17	400	1	300	300	0	0	441	50	0	1	0	0	0	1	blank2r.bmp	0	1	+	0	1	B1r.bmp	492	1	blank2r.bmp	786	1	DHJF	786	1	blank2r.bmp	866	3	gierig	866	1	!	1239	1	!	1346	0	0	0	0	0	0	0	0	0	0	0	0	0	0	0	0	0	0	0	0	0	0	0	0	0	0	0
031419	12:46:02	13:04:22	1099959	5.0.10.0	4_exp_AWA_CON_AMP_EVA	163	Rpleas_acq	Oppo	Lpleas	Amasked	CS_A	1pleas	distractor1	CONbeforeEVA	cond_new_unple_123_masked_CS1	condtest_masked_3	10	18	400	0	300	300	0	0	498	50	0	1	0	0	0	1	blank2r.bmp	0	1	+	0	6	C2r.bmp	492	1	blank2r.bmp	786	1	CPLW	786	1	blank2r.bmp	866	3	sterben	866	1	!	1239	1	!	-1	0	0	0	0	0	0	0	0	0	0	0	0	0	0	0	0	0	0	0	0	0	0	0	0	0	0	0
031419	12:46:02	13:04:25	1102225	5.0.10.0	4_exp_AWA_CON_AMP_EVA	163	Rpleas_acq	Oppo	Lpleas	Amasked	CS_A	1pleas	distractor1	CONbeforeEVA	cond_new_pleas_123_masked_CS2	condtest_masked_3	10	19	400	0	300	300	0	0	479	50	0	0	0	0	0	1	blank2r.bmp	0	1	+	0	8	C4r.bmp	492	1	blank2r.bmp	786	1	DHJF	786	1	blank2r.bmp	866	1	engagiert	866	1	!	1239	1	!	-1	0	0	0	0	0	0	0	0	0	0	0	0	0	0	0	0	0	0	0	0	0	0	0	0	0	0	0
031419	12:46:02	13:04:27	1104278	5.0.10.0	4_exp_AWA_CON_AMP_EVA	163	Rpleas_acq	Oppo	Lpleas	Amasked	CS_A	1pleas	distractor1	CONbeforeEVA	cond_US_unple_456_masked_CS1	condtest_masked_3	10	20	400	0	300	300	0	0	274	46	0	0	0	0	0	1	blank2r.bmp	0	1	+	0	7	C3r.bmp	492	1	blank2r.bmp	786	1	CPLW	786	1	blank2r.bmp	866	2	krise	866	1	!	-1	1	!	-1	0	0	0	0	0	0	0	0	0	0	0	0	0	0	0	0	0	0	0	0	0	0	0	0	0	0	0
031419	12:46:02	13:04:29	1106250	5.0.10.0	4_exp_AWA_CON_AMP_EVA	163	Rpleas_acq	Oppo	Lpleas	Amasked	CS_A	1pleas	distractor1	CONbeforeEVA	cond_US_pleas_456_masked_CS1	condtest_masked_3	10	21	400	0	300	300	0	0	191	50	0	0	0	0	0	1	blank2r.bmp	0	1	+	0	3	B3r.bmp	492	1	blank2r.bmp	786	1	CPLW	786	1	blank2r.bmp	866	1	besonnen	866	1	!	-1	1	!	-1	0	0	0	0	0	0	0	0	0	0	0	0	0	0	0	0	0	0	0	0	0	0	0	0	0	0	0
031419	12:46:02	13:04:31	1108343	5.0.10.0	4_exp_AWA_CON_AMP_EVA	163	Rpleas_acq	Oppo	Lpleas	Amasked	CS_A	1pleas	distractor1	CONbeforeEVA	cond_new_unple_123_masked_CS2	condtest_masked_3	10	22	400	0	300	300	0	0	309	46	0	0	0	0	0	1	blank2r.bmp	0	1	+	0	1	B1r.bmp	492	1	blank2r.bmp	786	1	DHJF	786	1	blank2r.bmp	866	2	ausrottung	866	1	!	-1	1	!	-1	0	0	0	0	0	0	0	0	0	0	0	0	0	0	0	0	0	0	0	0	0	0	0	0	0	0	0
031419	12:46:02	13:04:33	1110528	5.0.10.0	4_exp_AWA_CON_AMP_EVA	163	Rpleas_acq	Oppo	Lpleas	Amasked	CS_A	1pleas	distractor1	CONbeforeEVA	cond_US_unple_456_masked_CS1	condtest_masked_3	10	23	400	1	300	300	0	0	372	50	0	1	0	0	0	1	blank2r.bmp	0	1	+	0	5	C1r.bmp	492	1	blank2r.bmp	786	1	CPLW	786	1	blank2r.bmp	866	1	bange	866	1	!	1239	1	!	1279	0	0	0	0	0	0	0	0	0	0	0	0	0	0	0	0	0	0	0	0	0	0	0	0	0	0	0
031419	12:46:02	13:04:35	1112768	5.0.10.0	4_exp_AWA_CON_AMP_EVA	163	Rpleas_acq	Oppo	Lpleas	Amasked	CS_A	1pleas	distractor1	CONbeforeEVA	cond_new_unple_123_masked_CS1	condtest_masked_3	10	24	400	1	300	300	0	0	444	46	0	0	0	0	0	1	blank2r.bmp	0	1	+	0	4	B4r.bmp	492	1	blank2r.bmp	786	1	CPLW	786	1	blank2r.bmp	866	2	ausrottung	866	1	!	1239	1	!	1346	0	0	0	0	0	0	0	0	0	0	0	0	0	0	0	0	0	0	0	0	0	0	0	0	0	0	0
031419	12:46:02	13:04:37	1114967	5.0.10.0	4_exp_AWA_CON_AMP_EVA	163	Rpleas_acq	Oppo	Lpleas	Amasked	CS_A	1pleas	distractor1	CONbeforeEVA	cond_US_unple_456_masked_CS2	condtest_masked_3	10	25	400	1	300	300	0	0	399	50	0	1	0	0	0	1	blank2r.bmp	0	1	+	0	7	C3r.bmp	492	1	blank2r.bmp	786	1	DHJF	786	1	blank2r.bmp	866	1	bange	866	1	!	1239	1	!	1306	0	0	0	0	0	0	0	0	0	0	0	0	0	0	0	0	0	0	0	0	0	0	0	0	0	0	0
031419	12:46:02	13:04:40	1117179	5.0.10.0	4_exp_AWA_CON_AMP_EVA	163	Rpleas_acq	Oppo	Lpleas	Amasked	CS_A	1pleas	distractor1	CONbeforeEVA	cond_US_unple_456_masked_CS1	condtest_masked_3	10	26	400	1	300	300	0	0	417	46	0	0	0	0	0	1	blank2r.bmp	0	1	+	0	8	C4r.bmp	492	1	blank2r.bmp	786	1	CPLW	786	1	blank2r.bmp	866	2	krise	866	1	!	1239	1	!	1319	0	0	0	0	0	0	0	0	0	0	0	0	0	0	0	0	0	0	0	0	0	0	0	0	0	0	0
031419	12:46:02	13:04:42	1119338	5.0.10.0	4_exp_AWA_CON_AMP_EVA	163	Rpleas_acq	Oppo	Lpleas	Amasked	CS_A	1pleas	distractor1	CONbeforeEVA	cond_new_unple_123_masked_CS2	condtest_masked_3	10	27	400	1	300	300	0	0	366	50	0	1	0	0	0	1	blank2r.bmp	0	1	+	0	6	C2r.bmp	492	1	blank2r.bmp	786	1	DHJF	786	1	blank2r.bmp	866	3	sterben	866	1	!	1239	1	!	1266	0	0	0	0	0	0	0	0	0	0	0	0	0	0	0	0	0	0	0	0	0	0	0	0	0	0	0
031419	12:46:02	13:04:44	1121617	5.0.10.0	4_exp_AWA_CON_AMP_EVA	163	Rpleas_acq	Oppo	Lpleas	Amasked	CS_A	1pleas	distractor1	CONbeforeEVA	cond_new_pleas_123_masked_CS2	condtest_masked_3	10	28	400	0	300	300	0	0	517	50	0	0	0	0	0	1	blank2r.bmp	0	1	+	0	2	B2r.bmp	492	1	blank2r.bmp	786	1	DHJF	786	1	blank2r.bmp	866	2	anregung	866	1	!	1239	1	!	-1	0	0	0	0	0	0	0	0	0	0	0	0	0	0	0	0	0	0	0	0	0	0	0	0	0	0	0
031419	12:46:02	13:04:46	1123776	5.0.10.0	4_exp_AWA_CON_AMP_EVA	163	Rpleas_acq	Oppo	Lpleas	Amasked	CS_A	1pleas	distractor1	CONbeforeEVA	cond_US_pleas_456_masked_CS2	condtest_masked_3	10	29	400	1	300	300	0	0	356	50	0	0	0	0	0	1	blank2r.bmp	0	1	+	0	5	C1r.bmp	492	1	blank2r.bmp	786	1	DHJF	786	1	blank2r.bmp	866	2	kuss	866	1	!	1239	1	!	1252	0	0	0	0	0	0	0	0	0	0	0	0	0	0	0	0	0	0	0	0	0	0	0	0	0	0	0
031419	12:46:02	13:04:49	1126029	5.0.10.0	4_exp_AWA_CON_AMP_EVA	163	Rpleas_acq	Oppo	Lpleas	Amasked	CS_A	1pleas	distractor1	CONbeforeEVA	cond_new_pleas_123_masked_CS1	condtest_masked_3	10	30	400	0	300	300	0	0	479	46	0	1	0	0	0	1	blank2r.bmp	0	1	+	0	2	B2r.bmp	492	1	blank2r.bmp	786	1	CPLW	786	1	blank2r.bmp	866	1	engagiert	866	1	!	1239	1	!	-1	0	0	0	0	0	0	0	0	0	0	0	0	0	0	0	0	0	0	0	0	0	0	0	0	0	0	0
031419	12:46:02	13:04:50	1128001	5.0.10.0	4_exp_AWA_CON_AMP_EVA	163	Rpleas_acq	Oppo	Lpleas	Amasked	CS_A	1pleas	distractor1	CONbeforeEVA	cond_US_pleas_456_masked_CS1	condtest_masked_3	10	31	400	0	300	300	0	0	194	50	0	0	0	0	0	1	blank2r.bmp	0	1	+	0	3	B3r.bmp	492	1	blank2r.bmp	786	1	CPLW	786	1	blank2r.bmp	866	2	kuss	866	1	!	-1	1	!	-1	0	0	0	0	0	0	0	0	0	0	0	0	0	0	0	0	0	0	0	0	0	0	0	0	0	0	0
