date	time	script.currenttime	script.elapsedtime	build	script.currentexpt	subject	expressions.LRpleas_acq	expressions.SameOppo	expressions.condition_Lpleas	expressions.ABmasked	expressions.conditionCS_A	expressions.condition_1pleas	expressions.condition_distractor_AMP	expressions.AWACON_AMPEVA_first	trialcode	blockcode	blocknum	trialnum	windowcenter	inwindow	pretrialpause	posttrialpause	trialduration	trialtimeout	latency	response	expressions.correctedscore	correct	values.vis_performance	values.vis_rating_sum	values.vis_rating_mean	stimulusnumber1	stimulusitem1	stimulusonset1	stimulusnumber2	stimulusitem2	stimulusonset2	stimulusnumber3	stimulusitem3	stimulusonset3	stimulusnumber4	stimulusitem4	stimulusonset4	stimulusnumber5	stimulusitem5	stimulusonset5	stimulusnumber6	stimulusitem6	stimulusonset6	stimulusnumber7	stimulusitem7	stimulusonset7	stimulusnumber8	stimulusitem8	stimulusonset8	stimulusnumber9	stimulusitem9	stimulusonset9	stimulusnumber10	stimulusitem10	stimulusonset10	stimulusnumber11	stimulusitem11	stimulusonset11	stimulusnumber12	stimulusitem12	stimulusonset12	stimulusnumber13	stimulusitem13	stimulusonset13	stimulusnumber14	stimulusitem14	stimulusonset14	stimulusnumber15	stimulusitem15	stimulusonset15	stimulusnumber16	stimulusitem16	stimulusonset16	stimulusnumber17	stimulusitem17	stimulusonset17	stimulusnumber18	stimulusitem18	stimulusonset18
013119	11:32:52	11:33:43	49872	5.0.10.0	4_exp_AMP_EVA_AWA_CON	104	Rpleas_acq	Oppo	Rpleas	Bmasked	CS_B	1pleas	distractor2	EVAbeforeCON	acq_new_pleas_masked	acq1_masked	1	1	0	0	300	300	0	0	2151	50	0	1	0	0	0	1	blank2r.bmp	0	1	+	0	2	B2r.bmp	492	1	blank2r.bmp	786	8	C4r.bmp	786	1	blank2r.bmp	866	6	retten	866	0	0	0	0	0	0	0	0	0	0	0	0	0	0	0	0	0	0	0	0	0	0	0	0	0	0	0	0	0	0	0	0	0
013119	11:32:52	11:33:45	51911	5.0.10.0	4_exp_AMP_EVA_AWA_CON	104	Rpleas_acq	Oppo	Rpleas	Bmasked	CS_B	1pleas	distractor2	EVAbeforeCON	acq_new_unple_masked	acq1_masked	1	2	0	0	300	300	0	0	566	46	0	1	0	0	0	1	blank2r.bmp	0	1	+	0	3	B3r.bmp	492	1	blank2r.bmp	786	4	B4r.bmp	786	1	blank2r.bmp	866	5	leiden	866	0	0	0	0	0	0	0	0	0	0	0	0	0	0	0	0	0	0	0	0	0	0	0	0	0	0	0	0	0	0	0	0	0
013119	11:32:52	11:33:47	53857	5.0.10.0	4_exp_AMP_EVA_AWA_CON	104	Rpleas_acq	Oppo	Rpleas	Bmasked	CS_B	1pleas	distractor2	EVAbeforeCON	acq_US_unple_masked	acq1_masked	1	3	0	0	300	300	0	0	477	46	0	1	0	0	0	1	blank2r.bmp	0	1	+	0	8	C4r.bmp	492	1	blank2r.bmp	786	1	GKQX	786	1	blank2r.bmp	866	6	schlecht	866	0	0	0	0	0	0	0	0	0	0	0	0	0	0	0	0	0	0	0	0	0	0	0	0	0	0	0	0	0	0	0	0	0
013119	11:32:52	11:33:49	55896	5.0.10.0	4_exp_AMP_EVA_AWA_CON	104	Rpleas_acq	Oppo	Rpleas	Bmasked	CS_B	1pleas	distractor2	EVAbeforeCON	acq_new_pleas_masked	acq1_masked	1	4	0	0	300	300	0	0	553	50	0	1	0	0	0	1	blank2r.bmp	0	1	+	0	1	B1r.bmp	492	1	blank2r.bmp	786	6	C2r.bmp	786	1	blank2r.bmp	866	1	schlau	866	0	0	0	0	0	0	0	0	0	0	0	0	0	0	0	0	0	0	0	0	0	0	0	0	0	0	0	0	0	0	0	0	0
013119	11:32:52	11:33:51	58015	5.0.10.0	4_exp_AMP_EVA_AWA_CON	104	Rpleas_acq	Oppo	Rpleas	Bmasked	CS_B	1pleas	distractor2	EVAbeforeCON	acq_new_unple_masked	acq1_masked	1	5	0	0	300	300	0	0	636	46	0	1	0	0	0	1	blank2r.bmp	0	1	+	0	6	C2r.bmp	492	1	blank2r.bmp	786	5	C1r.bmp	786	1	blank2r.bmp	866	2	strafen	866	0	0	0	0	0	0	0	0	0	0	0	0	0	0	0	0	0	0	0	0	0	0	0	0	0	0	0	0	0	0	0	0	0
013119	11:32:52	11:33:53	60027	5.0.10.0	4_exp_AMP_EVA_AWA_CON	104	Rpleas_acq	Oppo	Rpleas	Bmasked	CS_B	1pleas	distractor2	EVAbeforeCON	acq_US_unple_masked	acq1_masked	1	6	0	0	300	300	0	0	529	46	0	1	0	0	0	1	blank2r.bmp	0	1	+	0	7	C3r.bmp	492	1	blank2r.bmp	786	1	GKQX	786	1	blank2r.bmp	866	3	lasch	866	0	0	0	0	0	0	0	0	0	0	0	0	0	0	0	0	0	0	0	0	0	0	0	0	0	0	0	0	0	0	0	0	0
013119	11:32:52	11:33:55	62000	5.0.10.0	4_exp_AMP_EVA_AWA_CON	104	Rpleas_acq	Oppo	Rpleas	Bmasked	CS_B	1pleas	distractor2	EVAbeforeCON	acq_US_unple_masked	acq1_masked	1	7	0	0	300	300	0	0	486	46	0	1	0	0	0	1	blank2r.bmp	0	1	+	0	5	C1r.bmp	492	1	blank2r.bmp	786	1	GKQX	786	1	blank2r.bmp	866	2	faul	866	0	0	0	0	0	0	0	0	0	0	0	0	0	0	0	0	0	0	0	0	0	0	0	0	0	0	0	0	0	0	0	0	0
013119	11:32:52	11:33:57	64079	5.0.10.0	4_exp_AMP_EVA_AWA_CON	104	Rpleas_acq	Oppo	Rpleas	Bmasked	CS_B	1pleas	distractor2	EVAbeforeCON	acq_US_pleas_masked	acq1_masked	1	8	0	0	300	300	0	0	589	50	0	1	0	0	0	1	blank2r.bmp	0	1	+	0	4	B4r.bmp	492	1	blank2r.bmp	786	1	BMVZ	786	1	blank2r.bmp	866	5	tolerant	866	0	0	0	0	0	0	0	0	0	0	0	0	0	0	0	0	0	0	0	0	0	0	0	0	0	0	0	0	0	0	0	0	0
013119	11:32:52	11:33:59	66038	5.0.10.0	4_exp_AMP_EVA_AWA_CON	104	Rpleas_acq	Oppo	Rpleas	Bmasked	CS_B	1pleas	distractor2	EVAbeforeCON	acq_new_unple_masked	acq1_masked	1	9	0	0	300	300	0	0	490	46	0	1	0	0	0	1	blank2r.bmp	0	1	+	0	4	B4r.bmp	492	1	blank2r.bmp	786	7	C3r.bmp	786	1	blank2r.bmp	866	1	schroff	866	0	0	0	0	0	0	0	0	0	0	0	0	0	0	0	0	0	0	0	0	0	0	0	0	0	0	0	0	0	0	0	0	0
013119	11:32:52	11:34:01	68104	5.0.10.0	4_exp_AMP_EVA_AWA_CON	104	Rpleas_acq	Oppo	Rpleas	Bmasked	CS_B	1pleas	distractor2	EVAbeforeCON	acq_US_pleas_masked	acq1_masked	1	10	0	0	300	300	0	0	366	46	0	0	0	0	0	1	blank2r.bmp	0	1	+	0	1	B1r.bmp	492	1	blank2r.bmp	786	1	BMVZ	786	1	blank2r.bmp	866	6	schön	866	1	FEHLER	1266	0	0	0	0	0	0	0	0	0	0	0	0	0	0	0	0	0	0	0	0	0	0	0	0	0	0	0	0	0	0
013119	11:32:52	11:34:03	69837	5.0.10.0	4_exp_AMP_EVA_AWA_CON	104	Rpleas_acq	Oppo	Rpleas	Bmasked	CS_B	1pleas	distractor2	EVAbeforeCON	acq_US_pleas_masked	acq1_masked	1	11	0	0	300	300	0	0	457	50	0	1	0	0	0	1	blank2r.bmp	0	1	+	0	5	C1r.bmp	492	1	blank2r.bmp	786	1	BMVZ	786	1	blank2r.bmp	866	1	ehrlich	866	0	0	0	0	0	0	0	0	0	0	0	0	0	0	0	0	0	0	0	0	0	0	0	0	0	0	0	0	0	0	0	0	0
013119	11:32:52	11:34:05	71902	5.0.10.0	4_exp_AMP_EVA_AWA_CON	104	Rpleas_acq	Oppo	Rpleas	Bmasked	CS_B	1pleas	distractor2	EVAbeforeCON	acq_new_pleas_masked	acq1_masked	1	12	0	0	300	300	0	0	587	50	0	1	0	0	0	1	blank2r.bmp	0	1	+	0	2	B2r.bmp	492	1	blank2r.bmp	786	3	B3r.bmp	786	1	blank2r.bmp	866	4	helfen	866	0	0	0	0	0	0	0	0	0	0	0	0	0	0	0	0	0	0	0	0	0	0	0	0	0	0	0	0	0	0	0	0	0
013119	11:32:52	11:34:07	74008	5.0.10.0	4_exp_AMP_EVA_AWA_CON	104	Rpleas_acq	Oppo	Rpleas	Bmasked	CS_B	1pleas	distractor2	EVAbeforeCON	acq_US_pleas_masked	acq1_masked	1	13	0	0	300	300	0	0	401	46	0	0	0	0	0	1	blank2r.bmp	0	1	+	0	7	C3r.bmp	492	1	blank2r.bmp	786	1	BMVZ	786	1	blank2r.bmp	866	2	fair	866	1	FEHLER	1306	0	0	0	0	0	0	0	0	0	0	0	0	0	0	0	0	0	0	0	0	0	0	0	0	0	0	0	0	0	0
013119	11:32:52	11:34:08	75754	5.0.10.0	4_exp_AMP_EVA_AWA_CON	104	Rpleas_acq	Oppo	Rpleas	Bmasked	CS_B	1pleas	distractor2	EVAbeforeCON	acq_US_pleas_masked	acq1_masked	1	14	0	0	300	300	0	0	486	50	0	1	0	0	0	1	blank2r.bmp	0	1	+	0	3	B3r.bmp	492	1	blank2r.bmp	786	1	BMVZ	786	1	blank2r.bmp	866	3	loyal	866	0	0	0	0	0	0	0	0	0	0	0	0	0	0	0	0	0	0	0	0	0	0	0	0	0	0	0	0	0	0	0	0	0
013119	11:32:52	11:34:10	77700	5.0.10.0	4_exp_AMP_EVA_AWA_CON	104	Rpleas_acq	Oppo	Rpleas	Bmasked	CS_B	1pleas	distractor2	EVAbeforeCON	acq_new_unple_masked	acq1_masked	1	15	0	0	300	300	0	0	461	46	0	1	0	0	0	1	blank2r.bmp	0	1	+	0	8	C4r.bmp	492	1	blank2r.bmp	786	1	B1r.bmp	786	1	blank2r.bmp	866	4	hindern	866	0	0	0	0	0	0	0	0	0	0	0	0	0	0	0	0	0	0	0	0	0	0	0	0	0	0	0	0	0	0	0	0	0
013119	11:32:52	11:34:12	79619	5.0.10.0	4_exp_AMP_EVA_AWA_CON	104	Rpleas_acq	Oppo	Rpleas	Bmasked	CS_B	1pleas	distractor2	EVAbeforeCON	acq_new_unple_masked	acq1_masked	1	16	0	0	300	300	0	0	435	46	0	1	0	0	0	1	blank2r.bmp	0	1	+	0	6	C2r.bmp	492	1	blank2r.bmp	786	2	B2r.bmp	786	1	blank2r.bmp	866	3	tot	866	0	0	0	0	0	0	0	0	0	0	0	0	0	0	0	0	0	0	0	0	0	0	0	0	0	0	0	0	0	0	0	0	0
013119	11:32:52	11:34:14	81738	5.0.10.0	4_exp_AMP_EVA_AWA_CON	104	Rpleas_acq	Oppo	Rpleas	Bmasked	CS_B	1pleas	distractor2	EVAbeforeCON	acq_US_unple_masked	acq1_masked	1	17	0	0	300	300	0	0	421	50	0	0	0	0	0	1	blank2r.bmp	0	1	+	0	3	B3r.bmp	492	1	blank2r.bmp	786	1	GKQX	786	1	blank2r.bmp	866	1	eitel	866	1	FEHLER	1319	0	0	0	0	0	0	0	0	0	0	0	0	0	0	0	0	0	0	0	0	0	0	0	0	0	0	0	0	0	0
013119	11:32:52	11:34:16	83418	5.0.10.0	4_exp_AMP_EVA_AWA_CON	104	Rpleas_acq	Oppo	Rpleas	Bmasked	CS_B	1pleas	distractor2	EVAbeforeCON	acq_new_pleas_masked	acq1_masked	1	18	0	0	300	300	0	0	403	50	0	1	0	0	0	1	blank2r.bmp	0	1	+	0	1	B1r.bmp	492	1	blank2r.bmp	786	3	B3r.bmp	786	1	blank2r.bmp	866	5	lachen	866	0	0	0	0	0	0	0	0	0	0	0	0	0	0	0	0	0	0	0	0	0	0	0	0	0	0	0	0	0	0	0	0	0
013119	11:32:52	11:34:18	85377	5.0.10.0	4_exp_AMP_EVA_AWA_CON	104	Rpleas_acq	Oppo	Rpleas	Bmasked	CS_B	1pleas	distractor2	EVAbeforeCON	acq_US_unple_masked	acq1_masked	1	19	0	0	300	300	0	0	468	46	0	1	0	0	0	1	blank2r.bmp	0	1	+	0	4	B4r.bmp	492	1	blank2r.bmp	786	1	GKQX	786	1	blank2r.bmp	866	5	tyrannisch	866	0	0	0	0	0	0	0	0	0	0	0	0	0	0	0	0	0	0	0	0	0	0	0	0	0	0	0	0	0	0	0	0	0
013119	11:32:52	11:34:20	87323	5.0.10.0	4_exp_AMP_EVA_AWA_CON	104	Rpleas_acq	Oppo	Rpleas	Bmasked	CS_B	1pleas	distractor2	EVAbeforeCON	acq_new_pleas_masked	acq1_masked	1	20	0	0	300	300	0	0	476	50	0	1	0	0	0	1	blank2r.bmp	0	1	+	0	6	C2r.bmp	492	1	blank2r.bmp	786	5	C1r.bmp	786	1	blank2r.bmp	866	3	treu	866	0	0	0	0	0	0	0	0	0	0	0	0	0	0	0	0	0	0	0	0	0	0	0	0	0	0	0	0	0	0	0	0	0
013119	11:32:52	11:34:22	89282	5.0.10.0	4_exp_AMP_EVA_AWA_CON	104	Rpleas_acq	Oppo	Rpleas	Bmasked	CS_B	1pleas	distractor2	EVAbeforeCON	acq_new_unple_masked	acq1_masked	1	21	0	0	300	300	0	0	479	46	0	1	0	0	0	1	blank2r.bmp	0	1	+	0	8	C4r.bmp	492	1	blank2r.bmp	786	6	C2r.bmp	786	1	blank2r.bmp	866	6	rächen	866	0	0	0	0	0	0	0	0	0	0	0	0	0	0	0	0	0	0	0	0	0	0	0	0	0	0	0	0	0	0	0	0	0
013119	11:32:52	11:34:24	91467	5.0.10.0	4_exp_AMP_EVA_AWA_CON	104	Rpleas_acq	Oppo	Rpleas	Bmasked	CS_B	1pleas	distractor2	EVAbeforeCON	acq_US_unple_masked	acq1_masked	1	22	0	0	300	300	0	0	494	50	0	0	0	0	0	1	blank2r.bmp	0	1	+	0	2	B2r.bmp	492	1	blank2r.bmp	786	1	GKQX	786	1	blank2r.bmp	866	4	fanatisch	866	1	FEHLER	1399	0	0	0	0	0	0	0	0	0	0	0	0	0	0	0	0	0	0	0	0	0	0	0	0	0	0	0	0	0	0
013119	11:32:52	11:34:26	93360	5.0.10.0	4_exp_AMP_EVA_AWA_CON	104	Rpleas_acq	Oppo	Rpleas	Bmasked	CS_B	1pleas	distractor2	EVAbeforeCON	acq_US_pleas_masked	acq1_masked	1	23	0	0	300	300	0	0	627	50	0	1	0	0	0	1	blank2r.bmp	0	1	+	0	7	C3r.bmp	492	1	blank2r.bmp	786	1	BMVZ	786	1	blank2r.bmp	866	4	freundlich	866	0	0	0	0	0	0	0	0	0	0	0	0	0	0	0	0	0	0	0	0	0	0	0	0	0	0	0	0	0	0	0	0	0
013119	11:32:52	11:34:29	96026	5.0.10.0	4_exp_AMP_EVA_AWA_CON	104	Rpleas_acq	Oppo	Rpleas	Bmasked	CS_B	1pleas	distractor2	EVAbeforeCON	acq_new_pleas_masked	acq1_masked	1	24	0	0	300	300	0	0	1188	50	0	1	0	0	0	1	blank2r.bmp	0	1	+	0	5	C1r.bmp	492	1	blank2r.bmp	786	2	B2r.bmp	786	1	blank2r.bmp	866	2	spielen	866	0	0	0	0	0	0	0	0	0	0	0	0	0	0	0	0	0	0	0	0	0	0	0	0	0	0	0	0	0	0	0	0	0
013119	11:32:52	11:34:31	98145	5.0.10.0	4_exp_AMP_EVA_AWA_CON	104	Rpleas_acq	Oppo	Rpleas	Bmasked	CS_B	1pleas	distractor2	EVAbeforeCON	acq_US_unple_masked	acq1_masked	1	25	0	0	300	300	0	0	647	46	0	1	0	0	0	1	blank2r.bmp	0	1	+	0	2	B2r.bmp	492	1	blank2r.bmp	786	1	GKQX	786	1	blank2r.bmp	866	4	fanatisch	866	0	0	0	0	0	0	0	0	0	0	0	0	0	0	0	0	0	0	0	0	0	0	0	0	0	0	0	0	0	0	0	0	0
013119	11:32:52	11:34:33	100064	5.0.10.0	4_exp_AMP_EVA_AWA_CON	104	Rpleas_acq	Oppo	Rpleas	Bmasked	CS_B	1pleas	distractor2	EVAbeforeCON	acq_US_pleas_masked	acq1_masked	1	26	0	0	300	300	0	0	426	50	0	1	0	0	0	1	blank2r.bmp	0	1	+	0	5	C1r.bmp	492	1	blank2r.bmp	786	1	BMVZ	786	1	blank2r.bmp	866	1	ehrlich	866	0	0	0	0	0	0	0	0	0	0	0	0	0	0	0	0	0	0	0	0	0	0	0	0	0	0	0	0	0	0	0	0	0
013119	11:32:52	11:34:35	102103	5.0.10.0	4_exp_AMP_EVA_AWA_CON	104	Rpleas_acq	Oppo	Rpleas	Bmasked	CS_B	1pleas	distractor2	EVAbeforeCON	acq_new_pleas_masked	acq1_masked	1	27	0	0	300	300	0	0	554	50	0	1	0	0	0	1	blank2r.bmp	0	1	+	0	8	C4r.bmp	492	1	blank2r.bmp	786	7	C3r.bmp	786	1	blank2r.bmp	866	6	retten	866	0	0	0	0	0	0	0	0	0	0	0	0	0	0	0	0	0	0	0	0	0	0	0	0	0	0	0	0	0	0	0	0	0
013119	11:32:52	11:34:37	104062	5.0.10.0	4_exp_AMP_EVA_AWA_CON	104	Rpleas_acq	Oppo	Rpleas	Bmasked	CS_B	1pleas	distractor2	EVAbeforeCON	acq_new_unple_masked	acq1_masked	1	28	0	0	300	300	0	0	477	46	0	1	0	0	0	1	blank2r.bmp	0	1	+	0	6	C2r.bmp	492	1	blank2r.bmp	786	1	B1r.bmp	786	1	blank2r.bmp	866	2	strafen	866	0	0	0	0	0	0	0	0	0	0	0	0	0	0	0	0	0	0	0	0	0	0	0	0	0	0	0	0	0	0	0	0	0
013119	11:32:52	11:34:39	106021	5.0.10.0	4_exp_AMP_EVA_AWA_CON	104	Rpleas_acq	Oppo	Rpleas	Bmasked	CS_B	1pleas	distractor2	EVAbeforeCON	acq_US_unple_masked	acq1_masked	1	29	0	0	300	300	0	0	471	46	0	1	0	0	0	1	blank2r.bmp	0	1	+	0	7	C3r.bmp	492	1	blank2r.bmp	786	1	GKQX	786	1	blank2r.bmp	866	6	schlecht	866	0	0	0	0	0	0	0	0	0	0	0	0	0	0	0	0	0	0	0	0	0	0	0	0	0	0	0	0	0	0	0	0	0
013119	11:32:52	11:34:41	107981	5.0.10.0	4_exp_AMP_EVA_AWA_CON	104	Rpleas_acq	Oppo	Rpleas	Bmasked	CS_B	1pleas	distractor2	EVAbeforeCON	acq_new_pleas_masked	acq1_masked	1	30	0	0	300	300	0	0	477	50	0	1	0	0	0	1	blank2r.bmp	0	1	+	0	3	B3r.bmp	492	1	blank2r.bmp	786	8	C4r.bmp	786	1	blank2r.bmp	866	4	helfen	866	0	0	0	0	0	0	0	0	0	0	0	0	0	0	0	0	0	0	0	0	0	0	0	0	0	0	0	0	0	0	0	0	0
013119	11:32:52	11:34:43	109926	5.0.10.0	4_exp_AMP_EVA_AWA_CON	104	Rpleas_acq	Oppo	Rpleas	Bmasked	CS_B	1pleas	distractor2	EVAbeforeCON	acq_US_pleas_masked	acq1_masked	1	31	0	0	300	300	0	0	453	50	0	1	0	0	0	1	blank2r.bmp	0	1	+	0	4	B4r.bmp	492	1	blank2r.bmp	786	1	BMVZ	786	1	blank2r.bmp	866	4	freundlich	866	0	0	0	0	0	0	0	0	0	0	0	0	0	0	0	0	0	0	0	0	0	0	0	0	0	0	0	0	0	0	0	0	0
013119	11:32:52	11:34:45	112179	5.0.10.0	4_exp_AMP_EVA_AWA_CON	104	Rpleas_acq	Oppo	Rpleas	Bmasked	CS_B	1pleas	distractor2	EVAbeforeCON	acq_new_pleas_masked	acq1_masked	1	32	0	0	300	300	0	0	781	50	0	1	0	0	0	1	blank2r.bmp	0	1	+	0	1	B1r.bmp	492	1	blank2r.bmp	786	4	B4r.bmp	786	1	blank2r.bmp	866	2	spielen	866	0	0	0	0	0	0	0	0	0	0	0	0	0	0	0	0	0	0	0	0	0	0	0	0	0	0	0	0	0	0	0	0	0
013119	11:32:52	11:34:47	114125	5.0.10.0	4_exp_AMP_EVA_AWA_CON	104	Rpleas_acq	Oppo	Rpleas	Bmasked	CS_B	1pleas	distractor2	EVAbeforeCON	acq_new_unple_masked	acq1_masked	1	33	0	0	300	300	0	0	455	46	0	1	0	0	0	1	blank2r.bmp	0	1	+	0	8	C4r.bmp	492	1	blank2r.bmp	786	6	C2r.bmp	786	1	blank2r.bmp	866	1	schroff	866	0	0	0	0	0	0	0	0	0	0	0	0	0	0	0	0	0	0	0	0	0	0	0	0	0	0	0	0	0	0	0	0	0
013119	11:32:52	11:34:49	116124	5.0.10.0	4_exp_AMP_EVA_AWA_CON	104	Rpleas_acq	Oppo	Rpleas	Bmasked	CS_B	1pleas	distractor2	EVAbeforeCON	acq_US_pleas_masked	acq1_masked	1	34	0	0	300	300	0	0	530	50	0	1	0	0	0	1	blank2r.bmp	0	1	+	0	6	C2r.bmp	492	1	blank2r.bmp	786	1	BMVZ	786	1	blank2r.bmp	866	3	loyal	866	0	0	0	0	0	0	0	0	0	0	0	0	0	0	0	0	0	0	0	0	0	0	0	0	0	0	0	0	0	0	0	0	0
013119	11:32:52	11:34:51	118070	5.0.10.0	4_exp_AMP_EVA_AWA_CON	104	Rpleas_acq	Oppo	Rpleas	Bmasked	CS_B	1pleas	distractor2	EVAbeforeCON	acq_US_unple_masked	acq1_masked	1	35	0	0	300	300	0	0	456	46	0	1	0	0	0	1	blank2r.bmp	0	1	+	0	5	C1r.bmp	492	1	blank2r.bmp	786	1	GKQX	786	1	blank2r.bmp	866	3	lasch	866	0	0	0	0	0	0	0	0	0	0	0	0	0	0	0	0	0	0	0	0	0	0	0	0	0	0	0	0	0	0	0	0	0
013119	11:32:52	11:34:53	120055	5.0.10.0	4_exp_AMP_EVA_AWA_CON	104	Rpleas_acq	Oppo	Rpleas	Bmasked	CS_B	1pleas	distractor2	EVAbeforeCON	acq_new_unple_masked	acq1_masked	1	36	0	0	300	300	0	0	518	46	0	1	0	0	0	1	blank2r.bmp	0	1	+	0	4	B4r.bmp	492	1	blank2r.bmp	786	7	C3r.bmp	786	1	blank2r.bmp	866	6	rächen	866	0	0	0	0	0	0	0	0	0	0	0	0	0	0	0	0	0	0	0	0	0	0	0	0	0	0	0	0	0	0	0	0	0
013119	11:32:52	11:35:14	141660	5.0.10.0	4_exp_AMP_EVA_AWA_CON	104	Rpleas_acq	Oppo	Rpleas	Bmasked	CS_B	1pleas	distractor2	EVAbeforeCON	acq_new_unple_masked	acq2_masked	2	1	480	1	300	300	0	0	446	46	0	1	0	0	0	1	blank2r.bmp	0	1	+	0	3	B3r.bmp	492	1	blank2r.bmp	786	5	C1r.bmp	786	1	blank2r.bmp	866	3	tot	866	1	!	1319	1	!	1346	0	0	0	0	0	0	0	0	0	0	0	0	0	0	0	0	0	0	0	0	0	0	0	0	0	0	0
013119	11:32:52	11:35:17	144005	5.0.10.0	4_exp_AMP_EVA_AWA_CON	104	Rpleas_acq	Oppo	Rpleas	Bmasked	CS_B	1pleas	distractor2	EVAbeforeCON	acq_US_unple_masked	acq2_masked	2	2	480	0	300	300	0	0	360	50	0	0	0	0	0	1	blank2r.bmp	0	1	+	0	2	B2r.bmp	492	1	blank2r.bmp	786	1	GKQX	786	1	blank2r.bmp	866	1	eitel	866	1	FEHLER	1572	1	!	-1	1	!	-1	0	0	0	0	0	0	0	0	0	0	0	0	0	0	0	0	0	0	0	0	0	0	0	0
013119	11:32:52	11:35:19	146324	5.0.10.0	4_exp_AMP_EVA_AWA_CON	104	Rpleas_acq	Oppo	Rpleas	Bmasked	CS_B	1pleas	distractor2	EVAbeforeCON	acq_US_pleas_masked	acq2_masked	2	3	480	1	300	300	0	0	494	46	0	0	0	0	0	1	blank2r.bmp	0	1	+	0	1	B1r.bmp	492	1	blank2r.bmp	786	1	BMVZ	786	1	blank2r.bmp	866	5	tolerant	866	1	FEHLER	1719	1	!	1319	1	!	1399	0	0	0	0	0	0	0	0	0	0	0	0	0	0	0	0	0	0	0	0	0	0	0	0
013119	11:32:52	11:35:21	148404	5.0.10.0	4_exp_AMP_EVA_AWA_CON	104	Rpleas_acq	Oppo	Rpleas	Bmasked	CS_B	1pleas	distractor2	EVAbeforeCON	acq_US_unple_masked	acq2_masked	2	4	480	1	300	300	0	0	499	46	0	1	0	0	0	1	blank2r.bmp	0	1	+	0	7	C3r.bmp	492	1	blank2r.bmp	786	1	GKQX	786	1	blank2r.bmp	866	2	faul	866	1	!	1319	1	!	1399	0	0	0	0	0	0	0	0	0	0	0	0	0	0	0	0	0	0	0	0	0	0	0	0	0	0	0
013119	11:32:52	11:35:23	150656	5.0.10.0	4_exp_AMP_EVA_AWA_CON	104	Rpleas_acq	Oppo	Rpleas	Bmasked	CS_B	1pleas	distractor2	EVAbeforeCON	acq_US_pleas_masked	acq2_masked	2	5	480	1	300	300	0	0	453	50	0	1	0	0	0	1	blank2r.bmp	0	1	+	0	7	C3r.bmp	492	1	blank2r.bmp	786	1	BMVZ	786	1	blank2r.bmp	866	2	fair	866	1	!	1319	1	!	1359	0	0	0	0	0	0	0	0	0	0	0	0	0	0	0	0	0	0	0	0	0	0	0	0	0	0	0
013119	11:32:52	11:35:26	152895	5.0.10.0	4_exp_AMP_EVA_AWA_CON	104	Rpleas_acq	Oppo	Rpleas	Bmasked	CS_B	1pleas	distractor2	EVAbeforeCON	acq_new_pleas_masked	acq2_masked	2	6	480	1	300	300	0	0	450	50	0	1	0	0	0	1	blank2r.bmp	0	1	+	0	4	B4r.bmp	492	1	blank2r.bmp	786	2	B2r.bmp	786	1	blank2r.bmp	866	1	schlau	866	1	!	1319	1	!	1346	0	0	0	0	0	0	0	0	0	0	0	0	0	0	0	0	0	0	0	0	0	0	0	0	0	0	0
013119	11:32:52	11:35:28	155054	5.0.10.0	4_exp_AMP_EVA_AWA_CON	104	Rpleas_acq	Oppo	Rpleas	Bmasked	CS_B	1pleas	distractor2	EVAbeforeCON	acq_new_unple_masked	acq2_masked	2	7	480	0	300	300	0	0	391	46	0	1	0	0	0	1	blank2r.bmp	0	1	+	0	5	C1r.bmp	492	1	blank2r.bmp	786	8	C4r.bmp	786	1	blank2r.bmp	866	5	leiden	866	1	!	-1	1	!	-1	0	0	0	0	0	0	0	0	0	0	0	0	0	0	0	0	0	0	0	0	0	0	0	0	0	0	0
013119	11:32:52	11:35:30	157306	5.0.10.0	4_exp_AMP_EVA_AWA_CON	104	Rpleas_acq	Oppo	Rpleas	Bmasked	CS_B	1pleas	distractor2	EVAbeforeCON	acq_US_pleas_masked	acq2_masked	2	8	480	1	300	300	0	0	433	50	0	1	0	0	0	1	blank2r.bmp	0	1	+	0	2	B2r.bmp	492	1	blank2r.bmp	786	1	BMVZ	786	1	blank2r.bmp	866	6	schön	866	1	!	1319	1	!	1332	0	0	0	0	0	0	0	0	0	0	0	0	0	0	0	0	0	0	0	0	0	0	0	0	0	0	0
013119	11:32:52	11:35:32	159452	5.0.10.0	4_exp_AMP_EVA_AWA_CON	104	Rpleas_acq	Oppo	Rpleas	Bmasked	CS_B	1pleas	distractor2	EVAbeforeCON	acq_US_unple_masked	acq2_masked	2	9	480	0	300	300	0	0	376	46	0	1	0	0	0	1	blank2r.bmp	0	1	+	0	8	C4r.bmp	492	1	blank2r.bmp	786	1	GKQX	786	1	blank2r.bmp	866	5	tyrannisch	866	1	!	-1	1	!	-1	0	0	0	0	0	0	0	0	0	0	0	0	0	0	0	0	0	0	0	0	0	0	0	0	0	0	0
013119	11:32:52	11:35:34	161758	5.0.10.0	4_exp_AMP_EVA_AWA_CON	104	Rpleas_acq	Oppo	Rpleas	Bmasked	CS_B	1pleas	distractor2	EVAbeforeCON	acq_new_unple_masked	acq2_masked	2	10	480	1	300	300	0	0	505	46	0	1	0	0	0	1	blank2r.bmp	0	1	+	0	1	B1r.bmp	492	1	blank2r.bmp	786	4	B4r.bmp	786	1	blank2r.bmp	866	4	hindern	866	1	!	1319	1	!	1399	0	0	0	0	0	0	0	0	0	0	0	0	0	0	0	0	0	0	0	0	0	0	0	0	0	0	0
013119	11:32:52	11:35:37	164064	5.0.10.0	4_exp_AMP_EVA_AWA_CON	104	Rpleas_acq	Oppo	Rpleas	Bmasked	CS_B	1pleas	distractor2	EVAbeforeCON	acq_new_pleas_masked	acq2_masked	2	11	480	1	300	300	0	0	516	50	0	1	0	0	0	1	blank2r.bmp	0	1	+	0	3	B3r.bmp	492	1	blank2r.bmp	786	1	B1r.bmp	786	1	blank2r.bmp	866	3	treu	866	1	!	1319	1	!	1412	0	0	0	0	0	0	0	0	0	0	0	0	0	0	0	0	0	0	0	0	0	0	0	0	0	0	0
013119	11:32:52	11:35:39	166423	5.0.10.0	4_exp_AMP_EVA_AWA_CON	104	Rpleas_acq	Oppo	Rpleas	Bmasked	CS_B	1pleas	distractor2	EVAbeforeCON	acq_new_pleas_masked	acq2_masked	2	12	480	0	300	300	0	0	597	50	0	1	0	0	0	1	blank2r.bmp	0	1	+	0	6	C2r.bmp	492	1	blank2r.bmp	786	3	B3r.bmp	786	1	blank2r.bmp	866	5	lachen	866	1	!	1319	1	!	-1	0	0	0	0	0	0	0	0	0	0	0	0	0	0	0	0	0	0	0	0	0	0	0	0	0	0	0
013119	11:32:52	11:35:41	168542	5.0.10.0	4_exp_AMP_EVA_AWA_CON	104	Rpleas_acq	Oppo	Rpleas	Bmasked	CS_B	1pleas	distractor2	EVAbeforeCON	acq_US_unple_masked	acq2_masked	2	13	480	0	300	300	0	0	339	46	0	1	0	0	0	1	blank2r.bmp	0	1	+	0	1	B1r.bmp	492	1	blank2r.bmp	786	1	GKQX	786	1	blank2r.bmp	866	3	lasch	866	1	!	-1	1	!	-1	0	0	0	0	0	0	0	0	0	0	0	0	0	0	0	0	0	0	0	0	0	0	0	0	0	0	0
013119	11:32:52	11:35:44	170887	5.0.10.0	4_exp_AMP_EVA_AWA_CON	104	Rpleas_acq	Oppo	Rpleas	Bmasked	CS_B	1pleas	distractor2	EVAbeforeCON	acq_US_pleas_masked	acq2_masked	2	14	480	0	300	300	0	0	559	50	0	1	0	0	0	1	blank2r.bmp	0	1	+	0	6	C2r.bmp	492	1	blank2r.bmp	786	1	BMVZ	786	1	blank2r.bmp	866	3	loyal	866	1	!	1319	1	!	-1	0	0	0	0	0	0	0	0	0	0	0	0	0	0	0	0	0	0	0	0	0	0	0	0	0	0	0
013119	11:32:52	11:35:46	173193	5.0.10.0	4_exp_AMP_EVA_AWA_CON	104	Rpleas_acq	Oppo	Rpleas	Bmasked	CS_B	1pleas	distractor2	EVAbeforeCON	acq_US_pleas_masked	acq2_masked	2	15	480	1	300	300	0	0	505	50	0	1	0	0	0	1	blank2r.bmp	0	1	+	0	7	C3r.bmp	492	1	blank2r.bmp	786	1	BMVZ	786	1	blank2r.bmp	866	2	fair	866	1	!	1319	1	!	1399	0	0	0	0	0	0	0	0	0	0	0	0	0	0	0	0	0	0	0	0	0	0	0	0	0	0	0
013119	11:32:52	11:35:48	175366	5.0.10.0	4_exp_AMP_EVA_AWA_CON	104	Rpleas_acq	Oppo	Rpleas	Bmasked	CS_B	1pleas	distractor2	EVAbeforeCON	acq_new_unple_masked	acq2_masked	2	16	480	0	300	300	0	0	404	46	0	1	0	0	0	1	blank2r.bmp	0	1	+	0	2	B2r.bmp	492	1	blank2r.bmp	786	6	C2r.bmp	786	1	blank2r.bmp	866	6	rächen	866	1	!	-1	1	!	-1	0	0	0	0	0	0	0	0	0	0	0	0	0	0	0	0	0	0	0	0	0	0	0	0	0	0	0
013119	11:32:52	11:35:50	177618	5.0.10.0	4_exp_AMP_EVA_AWA_CON	104	Rpleas_acq	Oppo	Rpleas	Bmasked	CS_B	1pleas	distractor2	EVAbeforeCON	acq_new_pleas_masked	acq2_masked	2	17	480	1	300	300	0	0	431	50	0	1	0	0	0	1	blank2r.bmp	0	1	+	0	3	B3r.bmp	492	1	blank2r.bmp	786	2	B2r.bmp	786	1	blank2r.bmp	866	1	schlau	866	1	!	1319	1	!	1332	0	0	0	0	0	0	0	0	0	0	0	0	0	0	0	0	0	0	0	0	0	0	0	0	0	0	0
013119	11:32:52	11:35:53	179884	5.0.10.0	4_exp_AMP_EVA_AWA_CON	104	Rpleas_acq	Oppo	Rpleas	Bmasked	CS_B	1pleas	distractor2	EVAbeforeCON	acq_new_pleas_masked	acq2_masked	2	18	480	1	300	300	0	0	467	50	0	1	0	0	0	1	blank2r.bmp	0	1	+	0	5	C1r.bmp	492	1	blank2r.bmp	786	8	C4r.bmp	786	1	blank2r.bmp	866	2	spielen	866	1	!	1319	1	!	1372	0	0	0	0	0	0	0	0	0	0	0	0	0	0	0	0	0	0	0	0	0	0	0	0	0	0	0
013119	11:32:52	11:35:55	182216	5.0.10.0	4_exp_AMP_EVA_AWA_CON	104	Rpleas_acq	Oppo	Rpleas	Bmasked	CS_B	1pleas	distractor2	EVAbeforeCON	acq_new_pleas_masked	acq2_masked	2	19	480	0	300	300	0	0	567	50	0	1	0	0	0	1	blank2r.bmp	0	1	+	0	8	C4r.bmp	492	1	blank2r.bmp	786	1	B1r.bmp	786	1	blank2r.bmp	866	4	helfen	866	1	!	1319	1	!	-1	0	0	0	0	0	0	0	0	0	0	0	0	0	0	0	0	0	0	0	0	0	0	0	0	0	0	0
013119	11:32:52	11:35:57	184508	5.0.10.0	4_exp_AMP_EVA_AWA_CON	104	Rpleas_acq	Oppo	Rpleas	Bmasked	CS_B	1pleas	distractor2	EVAbeforeCON	acq_new_unple_masked	acq2_masked	2	20	480	1	300	300	0	0	471	46	0	1	0	0	0	1	blank2r.bmp	0	1	+	0	4	B4r.bmp	492	1	blank2r.bmp	786	3	B3r.bmp	786	1	blank2r.bmp	866	5	leiden	866	1	!	1319	1	!	1372	0	0	0	0	0	0	0	0	0	0	0	0	0	0	0	0	0	0	0	0	0	0	0	0	0	0	0
013119	11:32:52	11:35:59	186681	5.0.10.0	4_exp_AMP_EVA_AWA_CON	104	Rpleas_acq	Oppo	Rpleas	Bmasked	CS_B	1pleas	distractor2	EVAbeforeCON	acq_US_unple_masked	acq2_masked	2	21	480	0	300	300	0	0	404	46	0	1	0	0	0	1	blank2r.bmp	0	1	+	0	5	C1r.bmp	492	1	blank2r.bmp	786	1	GKQX	786	1	blank2r.bmp	866	5	tyrannisch	866	1	!	-1	1	!	-1	0	0	0	0	0	0	0	0	0	0	0	0	0	0	0	0	0	0	0	0	0	0	0	0	0	0	0
013119	11:32:52	11:36:02	188947	5.0.10.0	4_exp_AMP_EVA_AWA_CON	104	Rpleas_acq	Oppo	Rpleas	Bmasked	CS_B	1pleas	distractor2	EVAbeforeCON	acq_new_unple_masked	acq2_masked	2	22	480	1	300	300	0	0	460	46	0	1	0	0	0	1	blank2r.bmp	0	1	+	0	6	C2r.bmp	492	1	blank2r.bmp	786	7	C3r.bmp	786	1	blank2r.bmp	866	1	schroff	866	1	!	1319	1	!	1359	0	0	0	0	0	0	0	0	0	0	0	0	0	0	0	0	0	0	0	0	0	0	0	0	0	0	0
013119	11:32:52	11:36:04	191492	5.0.10.0	4_exp_AMP_EVA_AWA_CON	104	Rpleas_acq	Oppo	Rpleas	Bmasked	CS_B	1pleas	distractor2	EVAbeforeCON	acq_US_unple_masked	acq2_masked	2	23	480	1	300	300	0	0	542	50	0	0	0	0	0	1	blank2r.bmp	0	1	+	0	8	C4r.bmp	492	1	blank2r.bmp	786	1	GKQX	786	1	blank2r.bmp	866	4	fanatisch	866	1	FEHLER	1759	1	!	1319	1	!	1439	0	0	0	0	0	0	0	0	0	0	0	0	0	0	0	0	0	0	0	0	0	0	0	0
013119	11:32:52	11:36:06	193571	5.0.10.0	4_exp_AMP_EVA_AWA_CON	104	Rpleas_acq	Oppo	Rpleas	Bmasked	CS_B	1pleas	distractor2	EVAbeforeCON	acq_US_pleas_masked	acq2_masked	2	24	480	1	300	300	0	0	493	50	0	1	0	0	0	1	blank2r.bmp	0	1	+	0	2	B2r.bmp	492	1	blank2r.bmp	786	1	BMVZ	786	1	blank2r.bmp	866	1	ehrlich	866	1	!	1319	1	!	1399	0	0	0	0	0	0	0	0	0	0	0	0	0	0	0	0	0	0	0	0	0	0	0	0	0	0	0
013119	11:32:52	11:36:09	195890	5.0.10.0	4_exp_AMP_EVA_AWA_CON	104	Rpleas_acq	Oppo	Rpleas	Bmasked	CS_B	1pleas	distractor2	EVAbeforeCON	acq_US_pleas_masked	acq2_masked	2	25	480	1	300	300	0	0	526	50	0	1	0	0	0	1	blank2r.bmp	0	1	+	0	4	B4r.bmp	492	1	blank2r.bmp	786	1	BMVZ	786	1	blank2r.bmp	866	4	freundlich	866	1	!	1319	1	!	1426	0	0	0	0	0	0	0	0	0	0	0	0	0	0	0	0	0	0	0	0	0	0	0	0	0	0	0
013119	11:32:52	11:36:11	198209	5.0.10.0	4_exp_AMP_EVA_AWA_CON	104	Rpleas_acq	Oppo	Rpleas	Bmasked	CS_B	1pleas	distractor2	EVAbeforeCON	acq_US_pleas_masked	acq2_masked	2	26	480	1	300	300	0	0	528	50	0	1	0	0	0	1	blank2r.bmp	0	1	+	0	1	B1r.bmp	492	1	blank2r.bmp	786	1	BMVZ	786	1	blank2r.bmp	866	5	tolerant	866	1	!	1319	1	!	1426	0	0	0	0	0	0	0	0	0	0	0	0	0	0	0	0	0	0	0	0	0	0	0	0	0	0	0
013119	11:32:52	11:36:14	200822	5.0.10.0	4_exp_AMP_EVA_AWA_CON	104	Rpleas_acq	Oppo	Rpleas	Bmasked	CS_B	1pleas	distractor2	EVAbeforeCON	acq_US_unple_masked	acq2_masked	2	27	480	0	300	300	0	0	616	50	0	0	0	0	0	1	blank2r.bmp	0	1	+	0	7	C3r.bmp	492	1	blank2r.bmp	786	1	GKQX	786	1	blank2r.bmp	866	1	eitel	866	1	FEHLER	1825	1	!	1319	1	!	-1	0	0	0	0	0	0	0	0	0	0	0	0	0	0	0	0	0	0	0	0	0	0	0	0
013119	11:32:52	11:36:16	202834	5.0.10.0	4_exp_AMP_EVA_AWA_CON	104	Rpleas_acq	Oppo	Rpleas	Bmasked	CS_B	1pleas	distractor2	EVAbeforeCON	acq_new_pleas_masked	acq2_masked	2	28	480	1	300	300	0	0	438	50	0	1	0	0	0	1	blank2r.bmp	0	1	+	0	3	B3r.bmp	492	1	blank2r.bmp	786	5	C1r.bmp	786	1	blank2r.bmp	866	5	lachen	866	1	!	1319	1	!	1332	0	0	0	0	0	0	0	0	0	0	0	0	0	0	0	0	0	0	0	0	0	0	0	0	0	0	0
013119	11:32:52	11:36:18	205140	5.0.10.0	4_exp_AMP_EVA_AWA_CON	104	Rpleas_acq	Oppo	Rpleas	Bmasked	CS_B	1pleas	distractor2	EVAbeforeCON	acq_new_pleas_masked	acq2_masked	2	29	480	1	300	300	0	0	495	50	0	1	0	0	0	1	blank2r.bmp	0	1	+	0	7	C3r.bmp	492	1	blank2r.bmp	786	4	B4r.bmp	786	1	blank2r.bmp	866	3	treu	866	1	!	1319	1	!	1399	0	0	0	0	0	0	0	0	0	0	0	0	0	0	0	0	0	0	0	0	0	0	0	0	0	0	0
013119	11:32:52	11:36:20	207485	5.0.10.0	4_exp_AMP_EVA_AWA_CON	104	Rpleas_acq	Oppo	Rpleas	Bmasked	CS_B	1pleas	distractor2	EVAbeforeCON	acq_new_unple_masked	acq2_masked	2	30	480	0	300	300	0	0	579	46	0	1	0	0	0	1	blank2r.bmp	0	1	+	0	2	B2r.bmp	492	1	blank2r.bmp	786	1	B1r.bmp	786	1	blank2r.bmp	866	4	hindern	866	1	!	1319	1	!	-1	0	0	0	0	0	0	0	0	0	0	0	0	0	0	0	0	0	0	0	0	0	0	0	0	0	0	0
013119	11:32:52	11:36:22	209724	5.0.10.0	4_exp_AMP_EVA_AWA_CON	104	Rpleas_acq	Oppo	Rpleas	Bmasked	CS_B	1pleas	distractor2	EVAbeforeCON	acq_new_pleas_masked	acq2_masked	2	31	480	1	300	300	0	0	434	50	0	1	0	0	0	1	blank2r.bmp	0	1	+	0	4	B4r.bmp	492	1	blank2r.bmp	786	5	C1r.bmp	786	1	blank2r.bmp	866	6	retten	866	1	!	1319	1	!	1332	0	0	0	0	0	0	0	0	0	0	0	0	0	0	0	0	0	0	0	0	0	0	0	0	0	0	0
013119	11:32:52	11:36:25	211857	5.0.10.0	4_exp_AMP_EVA_AWA_CON	104	Rpleas_acq	Oppo	Rpleas	Bmasked	CS_B	1pleas	distractor2	EVAbeforeCON	acq_US_pleas_masked	acq2_masked	2	32	480	0	300	300	0	0	368	50	0	1	0	0	0	1	blank2r.bmp	0	1	+	0	8	C4r.bmp	492	1	blank2r.bmp	786	1	BMVZ	786	1	blank2r.bmp	866	6	schön	866	1	!	-1	1	!	-1	0	0	0	0	0	0	0	0	0	0	0	0	0	0	0	0	0	0	0	0	0	0	0	0	0	0	0
013119	11:32:52	11:36:27	214043	5.0.10.0	4_exp_AMP_EVA_AWA_CON	104	Rpleas_acq	Oppo	Rpleas	Bmasked	CS_B	1pleas	distractor2	EVAbeforeCON	acq_US_unple_masked	acq2_masked	2	33	480	0	300	300	0	0	408	46	0	1	0	0	0	1	blank2r.bmp	0	1	+	0	5	C1r.bmp	492	1	blank2r.bmp	786	1	GKQX	786	1	blank2r.bmp	866	2	faul	866	1	!	-1	1	!	-1	0	0	0	0	0	0	0	0	0	0	0	0	0	0	0	0	0	0	0	0	0	0	0	0	0	0	0
013119	11:32:52	11:36:29	216388	5.0.10.0	4_exp_AMP_EVA_AWA_CON	104	Rpleas_acq	Oppo	Rpleas	Bmasked	CS_B	1pleas	distractor2	EVAbeforeCON	acq_US_unple_masked	acq2_masked	2	34	480	1	300	300	0	0	541	46	0	1	0	0	0	1	blank2r.bmp	0	1	+	0	3	B3r.bmp	492	1	blank2r.bmp	786	1	GKQX	786	1	blank2r.bmp	866	6	schlecht	866	1	!	1319	1	!	1439	0	0	0	0	0	0	0	0	0	0	0	0	0	0	0	0	0	0	0	0	0	0	0	0	0	0	0
013119	11:32:52	11:36:31	218654	5.0.10.0	4_exp_AMP_EVA_AWA_CON	104	Rpleas_acq	Oppo	Rpleas	Bmasked	CS_B	1pleas	distractor2	EVAbeforeCON	acq_new_unple_masked	acq2_masked	2	35	480	1	300	300	0	0	472	46	0	1	0	0	0	1	blank2r.bmp	0	1	+	0	6	C2r.bmp	492	1	blank2r.bmp	786	2	B2r.bmp	786	1	blank2r.bmp	866	3	tot	866	1	!	1319	1	!	1372	0	0	0	0	0	0	0	0	0	0	0	0	0	0	0	0	0	0	0	0	0	0	0	0	0	0	0
013119	11:32:52	11:36:34	220933	5.0.10.0	4_exp_AMP_EVA_AWA_CON	104	Rpleas_acq	Oppo	Rpleas	Bmasked	CS_B	1pleas	distractor2	EVAbeforeCON	acq_new_unple_masked	acq2_masked	2	36	480	1	300	300	0	0	467	46	0	1	0	0	0	1	blank2r.bmp	0	1	+	0	1	B1r.bmp	492	1	blank2r.bmp	786	4	B4r.bmp	786	1	blank2r.bmp	866	2	strafen	866	1	!	1319	1	!	1372	0	0	0	0	0	0	0	0	0	0	0	0	0	0	0	0	0	0	0	0	0	0	0	0	0	0	0
013119	11:32:52	11:36:45	231915	5.0.10.0	4_exp_AMP_EVA_AWA_CON	104	Rpleas_acq	Oppo	Rpleas	Bmasked	CS_B	1pleas	distractor2	EVAbeforeCON	acq_US_unple_masked	acq3_masked	3	1	453	0	300	300	0	0	360	46	0	1	0	0	0	1	blank2r.bmp	0	1	+	0	8	C4r.bmp	492	1	blank2r.bmp	786	1	GKQX	786	1	blank2r.bmp	866	3	lasch	866	1	!	-1	1	!	-1	0	0	0	0	0	0	0	0	0	0	0	0	0	0	0	0	0	0	0	0	0	0	0	0	0	0	0
013119	11:32:52	11:36:47	234168	5.0.10.0	4_exp_AMP_EVA_AWA_CON	104	Rpleas_acq	Oppo	Rpleas	Bmasked	CS_B	1pleas	distractor2	EVAbeforeCON	acq_US_pleas_masked	acq3_masked	3	2	453	1	300	300	0	0	436	50	0	1	0	0	0	1	blank2r.bmp	0	1	+	0	2	B2r.bmp	492	1	blank2r.bmp	786	1	BMVZ	786	1	blank2r.bmp	866	4	freundlich	866	1	!	1292	1	!	1332	0	0	0	0	0	0	0	0	0	0	0	0	0	0	0	0	0	0	0	0	0	0	0	0	0	0	0
013119	11:32:52	11:36:49	236473	5.0.10.0	4_exp_AMP_EVA_AWA_CON	104	Rpleas_acq	Oppo	Rpleas	Bmasked	CS_B	1pleas	distractor2	EVAbeforeCON	acq_US_pleas_masked	acq3_masked	3	3	453	0	300	300	0	0	544	50	0	1	0	0	0	1	blank2r.bmp	0	1	+	0	1	B1r.bmp	492	1	blank2r.bmp	786	1	BMVZ	786	1	blank2r.bmp	866	3	loyal	866	1	!	1292	1	!	-1	0	0	0	0	0	0	0	0	0	0	0	0	0	0	0	0	0	0	0	0	0	0	0	0	0	0	0
013119	11:32:52	11:36:52	238966	5.0.10.0	4_exp_AMP_EVA_AWA_CON	104	Rpleas_acq	Oppo	Rpleas	Bmasked	CS_B	1pleas	distractor2	EVAbeforeCON	acq_US_unple_masked	acq3_masked	3	4	453	1	300	300	0	0	468	50	0	0	0	0	0	1	blank2r.bmp	0	1	+	0	5	C1r.bmp	492	1	blank2r.bmp	786	1	GKQX	786	1	blank2r.bmp	866	1	eitel	866	1	FEHLER	1692	1	!	1292	1	!	1372	0	0	0	0	0	0	0	0	0	0	0	0	0	0	0	0	0	0	0	0	0	0	0	0
013119	11:32:52	11:36:54	241018	5.0.10.0	4_exp_AMP_EVA_AWA_CON	104	Rpleas_acq	Oppo	Rpleas	Bmasked	CS_B	1pleas	distractor2	EVAbeforeCON	acq_US_pleas_masked	acq3_masked	3	5	453	1	300	300	0	0	476	50	0	1	0	0	0	1	blank2r.bmp	0	1	+	0	4	B4r.bmp	492	1	blank2r.bmp	786	1	BMVZ	786	1	blank2r.bmp	866	6	schön	866	1	!	1292	1	!	1372	0	0	0	0	0	0	0	0	0	0	0	0	0	0	0	0	0	0	0	0	0	0	0	0	0	0	0
013119	11:32:52	11:36:56	243310	5.0.10.0	4_exp_AMP_EVA_AWA_CON	104	Rpleas_acq	Oppo	Rpleas	Bmasked	CS_B	1pleas	distractor2	EVAbeforeCON	acq_US_pleas_masked	acq3_masked	3	6	453	0	300	300	0	0	303	46	0	0	0	0	0	1	blank2r.bmp	0	1	+	0	7	C3r.bmp	492	1	blank2r.bmp	786	1	BMVZ	786	1	blank2r.bmp	866	2	fair	866	1	FEHLER	1506	1	!	-1	1	!	-1	0	0	0	0	0	0	0	0	0	0	0	0	0	0	0	0	0	0	0	0	0	0	0	0
013119	11:32:52	11:36:58	245376	5.0.10.0	4_exp_AMP_EVA_AWA_CON	104	Rpleas_acq	Oppo	Rpleas	Bmasked	CS_B	1pleas	distractor2	EVAbeforeCON	acq_US_pleas_masked	acq3_masked	3	7	453	1	300	300	0	0	489	50	0	1	0	0	0	1	blank2r.bmp	0	1	+	0	6	C2r.bmp	492	1	blank2r.bmp	786	1	BMVZ	786	1	blank2r.bmp	866	5	tolerant	866	1	!	1292	1	!	1386	0	0	0	0	0	0	0	0	0	0	0	0	0	0	0	0	0	0	0	0	0	0	0	0	0	0	0
013119	11:32:52	11:37:00	247535	5.0.10.0	4_exp_AMP_EVA_AWA_CON	104	Rpleas_acq	Oppo	Rpleas	Bmasked	CS_B	1pleas	distractor2	EVAbeforeCON	acq_US_pleas_masked	acq3_masked	3	8	453	0	300	300	0	0	379	50	0	1	0	0	0	1	blank2r.bmp	0	1	+	0	3	B3r.bmp	492	1	blank2r.bmp	786	1	BMVZ	786	1	blank2r.bmp	866	1	ehrlich	866	1	!	-1	1	!	-1	0	0	0	0	0	0	0	0	0	0	0	0	0	0	0	0	0	0	0	0	0	0	0	0	0	0	0
013119	11:32:52	11:37:03	249788	5.0.10.0	4_exp_AMP_EVA_AWA_CON	104	Rpleas_acq	Oppo	Rpleas	Bmasked	CS_B	1pleas	distractor2	EVAbeforeCON	acq_US_unple_masked	acq3_masked	3	9	453	1	300	300	0	0	439	46	0	1	0	0	0	1	blank2r.bmp	0	1	+	0	3	B3r.bmp	492	1	blank2r.bmp	786	1	GKQX	786	1	blank2r.bmp	866	2	faul	866	1	!	1292	1	!	1346	0	0	0	0	0	0	0	0	0	0	0	0	0	0	0	0	0	0	0	0	0	0	0	0	0	0	0
013119	11:32:52	11:37:05	252307	5.0.10.0	4_exp_AMP_EVA_AWA_CON	104	Rpleas_acq	Oppo	Rpleas	Bmasked	CS_B	1pleas	distractor2	EVAbeforeCON	acq_US_unple_masked	acq3_masked	3	10	453	1	300	300	0	0	511	50	0	0	0	0	0	1	blank2r.bmp	0	1	+	0	8	C4r.bmp	492	1	blank2r.bmp	786	1	GKQX	786	1	blank2r.bmp	866	4	fanatisch	866	1	FEHLER	1732	1	!	1292	1	!	1412	0	0	0	0	0	0	0	0	0	0	0	0	0	0	0	0	0	0	0	0	0	0	0	0
013119	11:32:52	11:37:07	254319	5.0.10.0	4_exp_AMP_EVA_AWA_CON	104	Rpleas_acq	Oppo	Rpleas	Bmasked	CS_B	1pleas	distractor2	EVAbeforeCON	acq_US_unple_masked	acq3_masked	3	11	453	1	300	300	0	0	434	46	0	1	0	0	0	1	blank2r.bmp	0	1	+	0	1	B1r.bmp	492	1	blank2r.bmp	786	1	GKQX	786	1	blank2r.bmp	866	6	schlecht	866	1	!	1292	1	!	1332	0	0	0	0	0	0	0	0	0	0	0	0	0	0	0	0	0	0	0	0	0	0	0	0	0	0	0
013119	11:32:52	11:37:09	256625	5.0.10.0	4_exp_AMP_EVA_AWA_CON	104	Rpleas_acq	Oppo	Rpleas	Bmasked	CS_B	1pleas	distractor2	EVAbeforeCON	acq_US_unple_masked	acq3_masked	3	12	453	0	300	300	0	0	539	46	0	1	0	0	0	1	blank2r.bmp	0	1	+	0	6	C2r.bmp	492	1	blank2r.bmp	786	1	GKQX	786	1	blank2r.bmp	866	5	tyrannisch	866	1	!	1292	1	!	-1	0	0	0	0	0	0	0	0	0	0	0	0	0	0	0	0	0	0	0	0	0	0	0	0	0	0	0
013119	11:32:52	11:37:12	258877	5.0.10.0	4_exp_AMP_EVA_AWA_CON	104	Rpleas_acq	Oppo	Rpleas	Bmasked	CS_B	1pleas	distractor2	EVAbeforeCON	acq_US_pleas_masked	acq3_masked	3	13	453	1	300	300	0	0	436	50	0	1	0	0	0	1	blank2r.bmp	0	1	+	0	5	C1r.bmp	492	1	blank2r.bmp	786	1	BMVZ	786	1	blank2r.bmp	866	3	loyal	866	1	!	1292	1	!	1332	0	0	0	0	0	0	0	0	0	0	0	0	0	0	0	0	0	0	0	0	0	0	0	0	0	0	0
013119	11:32:52	11:37:14	261183	5.0.10.0	4_exp_AMP_EVA_AWA_CON	104	Rpleas_acq	Oppo	Rpleas	Bmasked	CS_B	1pleas	distractor2	EVAbeforeCON	acq_US_unple_masked	acq3_masked	3	14	453	1	300	300	0	0	513	46	0	1	0	0	0	1	blank2r.bmp	0	1	+	0	2	B2r.bmp	492	1	blank2r.bmp	786	1	GKQX	786	1	blank2r.bmp	866	2	faul	866	1	!	1292	1	!	1412	0	0	0	0	0	0	0	0	0	0	0	0	0	0	0	0	0	0	0	0	0	0	0	0	0	0	0
013119	11:32:52	11:37:16	263409	5.0.10.0	4_exp_AMP_EVA_AWA_CON	104	Rpleas_acq	Oppo	Rpleas	Bmasked	CS_B	1pleas	distractor2	EVAbeforeCON	acq_US_unple_masked	acq3_masked	3	15	453	1	300	300	0	0	431	46	0	1	0	0	0	1	blank2r.bmp	0	1	+	0	7	C3r.bmp	492	1	blank2r.bmp	786	1	GKQX	786	1	blank2r.bmp	866	5	tyrannisch	866	1	!	1292	1	!	1332	0	0	0	0	0	0	0	0	0	0	0	0	0	0	0	0	0	0	0	0	0	0	0	0	0	0	0
013119	11:32:52	11:37:18	265528	5.0.10.0	4_exp_AMP_EVA_AWA_CON	104	Rpleas_acq	Oppo	Rpleas	Bmasked	CS_B	1pleas	distractor2	EVAbeforeCON	acq_US_pleas_masked	acq3_masked	3	16	453	0	300	300	0	0	351	50	0	1	0	0	0	1	blank2r.bmp	0	1	+	0	4	B4r.bmp	492	1	blank2r.bmp	786	1	BMVZ	786	1	blank2r.bmp	866	6	schön	866	1	!	-1	1	!	-1	0	0	0	0	0	0	0	0	0	0	0	0	0	0	0	0	0	0	0	0	0	0	0	0	0	0	0
013119	11:32:52	11:37:21	267820	5.0.10.0	4_exp_AMP_EVA_AWA_CON	104	Rpleas_acq	Oppo	Rpleas	Bmasked	CS_B	1pleas	distractor2	EVAbeforeCON	acq_US_pleas_masked	acq3_masked	3	17	453	1	300	300	0	0	484	50	0	1	0	0	0	1	blank2r.bmp	0	1	+	0	6	C2r.bmp	492	1	blank2r.bmp	786	1	BMVZ	786	1	blank2r.bmp	866	1	ehrlich	866	1	!	1292	1	!	1386	0	0	0	0	0	0	0	0	0	0	0	0	0	0	0	0	0	0	0	0	0	0	0	0	0	0	0
013119	11:32:52	11:37:23	270019	5.0.10.0	4_exp_AMP_EVA_AWA_CON	104	Rpleas_acq	Oppo	Rpleas	Bmasked	CS_B	1pleas	distractor2	EVAbeforeCON	acq_US_unple_masked	acq3_masked	3	18	453	1	300	300	0	0	404	46	0	1	0	0	0	1	blank2r.bmp	0	1	+	0	3	B3r.bmp	492	1	blank2r.bmp	786	1	GKQX	786	1	blank2r.bmp	866	6	schlecht	866	1	!	1292	1	!	1306	0	0	0	0	0	0	0	0	0	0	0	0	0	0	0	0	0	0	0	0	0	0	0	0	0	0	0
013119	11:32:52	11:37:25	272351	5.0.10.0	4_exp_AMP_EVA_AWA_CON	104	Rpleas_acq	Oppo	Rpleas	Bmasked	CS_B	1pleas	distractor2	EVAbeforeCON	acq_US_pleas_masked	acq3_masked	3	19	453	0	300	300	0	0	565	50	0	1	0	0	0	1	blank2r.bmp	0	1	+	0	8	C4r.bmp	492	1	blank2r.bmp	786	1	BMVZ	786	1	blank2r.bmp	866	4	freundlich	866	1	!	1292	1	!	-1	0	0	0	0	0	0	0	0	0	0	0	0	0	0	0	0	0	0	0	0	0	0	0	0	0	0	0
013119	11:32:52	11:37:27	274777	5.0.10.0	4_exp_AMP_EVA_AWA_CON	104	Rpleas_acq	Oppo	Rpleas	Bmasked	CS_B	1pleas	distractor2	EVAbeforeCON	acq_US_pleas_masked	acq3_masked	3	20	453	0	300	300	0	0	633	50	0	1	0	0	0	1	blank2r.bmp	0	1	+	0	7	C3r.bmp	492	1	blank2r.bmp	786	1	BMVZ	786	1	blank2r.bmp	866	5	tolerant	866	1	!	1292	1	!	-1	0	0	0	0	0	0	0	0	0	0	0	0	0	0	0	0	0	0	0	0	0	0	0	0	0	0	0
013119	11:32:52	11:37:30	277096	5.0.10.0	4_exp_AMP_EVA_AWA_CON	104	Rpleas_acq	Oppo	Rpleas	Bmasked	CS_B	1pleas	distractor2	EVAbeforeCON	acq_US_pleas_masked	acq3_masked	3	21	453	1	300	300	0	0	506	50	0	1	0	0	0	1	blank2r.bmp	0	1	+	0	5	C1r.bmp	492	1	blank2r.bmp	786	1	BMVZ	786	1	blank2r.bmp	866	2	fair	866	1	!	1292	1	!	1412	0	0	0	0	0	0	0	0	0	0	0	0	0	0	0	0	0	0	0	0	0	0	0	0	0	0	0
013119	11:32:52	11:37:32	279322	5.0.10.0	4_exp_AMP_EVA_AWA_CON	104	Rpleas_acq	Oppo	Rpleas	Bmasked	CS_B	1pleas	distractor2	EVAbeforeCON	acq_US_unple_masked	acq3_masked	3	22	453	1	300	300	0	0	427	46	0	1	0	0	0	1	blank2r.bmp	0	1	+	0	1	B1r.bmp	492	1	blank2r.bmp	786	1	GKQX	786	1	blank2r.bmp	866	4	fanatisch	866	1	!	1292	1	!	1332	0	0	0	0	0	0	0	0	0	0	0	0	0	0	0	0	0	0	0	0	0	0	0	0	0	0	0
013119	11:32:52	11:37:34	281681	5.0.10.0	4_exp_AMP_EVA_AWA_CON	104	Rpleas_acq	Oppo	Rpleas	Bmasked	CS_B	1pleas	distractor2	EVAbeforeCON	acq_US_unple_masked	acq3_masked	3	23	453	0	300	300	0	0	581	46	0	1	0	0	0	1	blank2r.bmp	0	1	+	0	2	B2r.bmp	492	1	blank2r.bmp	786	1	GKQX	786	1	blank2r.bmp	866	3	lasch	866	1	!	1292	1	!	-1	0	0	0	0	0	0	0	0	0	0	0	0	0	0	0	0	0	0	0	0	0	0	0	0	0	0	0
013119	11:32:52	11:37:37	284040	5.0.10.0	4_exp_AMP_EVA_AWA_CON	104	Rpleas_acq	Oppo	Rpleas	Bmasked	CS_B	1pleas	distractor2	EVAbeforeCON	acq_US_unple_masked	acq3_masked	3	24	453	0	300	300	0	0	339	50	0	0	0	0	0	1	blank2r.bmp	0	1	+	0	4	B4r.bmp	492	1	blank2r.bmp	786	1	GKQX	786	1	blank2r.bmp	866	1	eitel	866	1	FEHLER	1546	1	!	-1	1	!	-1	0	0	0	0	0	0	0	0	0	0	0	0	0	0	0	0	0	0	0	0	0	0	0	0
013119	11:32:52	11:37:39	286239	5.0.10.0	4_exp_AMP_EVA_AWA_CON	104	Rpleas_acq	Oppo	Rpleas	Bmasked	CS_B	1pleas	distractor2	EVAbeforeCON	acq_US_unple_masked	acq3_masked	3	25	453	1	300	300	0	0	400	50	0	0	0	0	0	1	blank2r.bmp	0	1	+	0	6	C2r.bmp	492	1	blank2r.bmp	786	1	GKQX	786	1	blank2r.bmp	866	2	faul	866	1	FEHLER	1625	1	!	1292	1	!	1306	0	0	0	0	0	0	0	0	0	0	0	0	0	0	0	0	0	0	0	0	0	0	0	0
013119	11:32:52	11:37:41	288291	5.0.10.0	4_exp_AMP_EVA_AWA_CON	104	Rpleas_acq	Oppo	Rpleas	Bmasked	CS_B	1pleas	distractor2	EVAbeforeCON	acq_US_unple_masked	acq3_masked	3	26	453	1	300	300	0	0	470	46	0	1	0	0	0	1	blank2r.bmp	0	1	+	0	8	C4r.bmp	492	1	blank2r.bmp	786	1	GKQX	786	1	blank2r.bmp	866	3	lasch	866	1	!	1292	1	!	1372	0	0	0	0	0	0	0	0	0	0	0	0	0	0	0	0	0	0	0	0	0	0	0	0	0	0	0
013119	11:32:52	11:37:43	290557	5.0.10.0	4_exp_AMP_EVA_AWA_CON	104	Rpleas_acq	Oppo	Rpleas	Bmasked	CS_B	1pleas	distractor2	EVAbeforeCON	acq_US_pleas_masked	acq3_masked	3	27	453	1	300	300	0	0	465	50	0	1	0	0	0	1	blank2r.bmp	0	1	+	0	7	C3r.bmp	492	1	blank2r.bmp	786	1	BMVZ	786	1	blank2r.bmp	866	6	schön	866	1	!	1292	1	!	1359	0	0	0	0	0	0	0	0	0	0	0	0	0	0	0	0	0	0	0	0	0	0	0	0	0	0	0
013119	11:32:52	11:37:46	292823	5.0.10.0	4_exp_AMP_EVA_AWA_CON	104	Rpleas_acq	Oppo	Rpleas	Bmasked	CS_B	1pleas	distractor2	EVAbeforeCON	acq_US_pleas_masked	acq3_masked	3	28	453	1	300	300	0	0	478	50	0	1	0	0	0	1	blank2r.bmp	0	1	+	0	4	B4r.bmp	492	1	blank2r.bmp	786	1	BMVZ	786	1	blank2r.bmp	866	4	freundlich	866	1	!	1292	1	!	1372	0	0	0	0	0	0	0	0	0	0	0	0	0	0	0	0	0	0	0	0	0	0	0	0	0	0	0
013119	11:32:52	11:37:48	295275	5.0.10.0	4_exp_AMP_EVA_AWA_CON	104	Rpleas_acq	Oppo	Rpleas	Bmasked	CS_B	1pleas	distractor2	EVAbeforeCON	acq_US_pleas_masked	acq3_masked	3	29	453	0	300	300	0	0	684	50	0	1	0	0	0	1	blank2r.bmp	0	1	+	0	5	C1r.bmp	492	1	blank2r.bmp	786	1	BMVZ	786	1	blank2r.bmp	866	2	fair	866	1	!	1292	1	!	-1	0	0	0	0	0	0	0	0	0	0	0	0	0	0	0	0	0	0	0	0	0	0	0	0	0	0	0
013119	11:32:52	11:37:50	297488	5.0.10.0	4_exp_AMP_EVA_AWA_CON	104	Rpleas_acq	Oppo	Rpleas	Bmasked	CS_B	1pleas	distractor2	EVAbeforeCON	acq_US_unple_masked	acq3_masked	3	30	453	1	300	300	0	0	399	46	0	1	0	0	0	1	blank2r.bmp	0	1	+	0	2	B2r.bmp	492	1	blank2r.bmp	786	1	GKQX	786	1	blank2r.bmp	866	6	schlecht	866	1	!	1292	1	!	1306	0	0	0	0	0	0	0	0	0	0	0	0	0	0	0	0	0	0	0	0	0	0	0	0	0	0	0
013119	11:32:52	11:37:52	299753	5.0.10.0	4_exp_AMP_EVA_AWA_CON	104	Rpleas_acq	Oppo	Rpleas	Bmasked	CS_B	1pleas	distractor2	EVAbeforeCON	acq_US_unple_masked	acq3_masked	3	31	453	1	300	300	0	0	466	46	0	1	0	0	0	1	blank2r.bmp	0	1	+	0	3	B3r.bmp	492	1	blank2r.bmp	786	1	GKQX	786	1	blank2r.bmp	866	4	fanatisch	866	1	!	1292	1	!	1372	0	0	0	0	0	0	0	0	0	0	0	0	0	0	0	0	0	0	0	0	0	0	0	0	0	0	0
013119	11:32:52	11:37:55	302232	5.0.10.0	4_exp_AMP_EVA_AWA_CON	104	Rpleas_acq	Oppo	Rpleas	Bmasked	CS_B	1pleas	distractor2	EVAbeforeCON	acq_US_pleas_masked	acq3_masked	3	32	453	1	300	300	0	0	474	46	0	0	0	0	0	1	blank2r.bmp	0	1	+	0	1	B1r.bmp	492	1	blank2r.bmp	786	1	BMVZ	786	1	blank2r.bmp	866	3	loyal	866	1	FEHLER	1692	1	!	1292	1	!	1372	0	0	0	0	0	0	0	0	0	0	0	0	0	0	0	0	0	0	0	0	0	0	0	0
013119	11:32:52	11:37:57	304338	5.0.10.0	4_exp_AMP_EVA_AWA_CON	104	Rpleas_acq	Oppo	Rpleas	Bmasked	CS_B	1pleas	distractor2	EVAbeforeCON	acq_US_pleas_masked	acq3_masked	3	33	453	1	300	300	0	0	509	50	0	1	0	0	0	1	blank2r.bmp	0	1	+	0	2	B2r.bmp	492	1	blank2r.bmp	786	1	BMVZ	786	1	blank2r.bmp	866	1	ehrlich	866	1	!	1292	1	!	1412	0	0	0	0	0	0	0	0	0	0	0	0	0	0	0	0	0	0	0	0	0	0	0	0	0	0	0
013119	11:32:52	11:37:59	306684	5.0.10.0	4_exp_AMP_EVA_AWA_CON	104	Rpleas_acq	Oppo	Rpleas	Bmasked	CS_B	1pleas	distractor2	EVAbeforeCON	acq_US_unple_masked	acq3_masked	3	34	453	0	300	300	0	0	574	46	0	1	0	0	0	1	blank2r.bmp	0	1	+	0	6	C2r.bmp	492	1	blank2r.bmp	786	1	GKQX	786	1	blank2r.bmp	866	1	eitel	866	1	!	1292	1	!	-1	0	0	0	0	0	0	0	0	0	0	0	0	0	0	0	0	0	0	0	0	0	0	0	0	0	0	0
013119	11:32:52	11:38:02	308816	5.0.10.0	4_exp_AMP_EVA_AWA_CON	104	Rpleas_acq	Oppo	Rpleas	Bmasked	CS_B	1pleas	distractor2	EVAbeforeCON	acq_US_pleas_masked	acq3_masked	3	35	453	0	300	300	0	0	349	50	0	1	0	0	0	1	blank2r.bmp	0	1	+	0	8	C4r.bmp	492	1	blank2r.bmp	786	1	BMVZ	786	1	blank2r.bmp	866	5	tolerant	866	1	!	-1	1	!	-1	0	0	0	0	0	0	0	0	0	0	0	0	0	0	0	0	0	0	0	0	0	0	0	0	0	0	0
013119	11:32:52	11:38:04	311135	5.0.10.0	4_exp_AMP_EVA_AWA_CON	104	Rpleas_acq	Oppo	Rpleas	Bmasked	CS_B	1pleas	distractor2	EVAbeforeCON	acq_US_unple_masked	acq3_masked	3	36	453	1	300	300	0	0	509	46	0	1	0	0	0	1	blank2r.bmp	0	1	+	0	4	B4r.bmp	492	1	blank2r.bmp	786	1	GKQX	786	1	blank2r.bmp	866	5	tyrannisch	866	1	!	1292	1	!	1412	0	0	0	0	0	0	0	0	0	0	0	0	0	0	0	0	0	0	0	0	0	0	0	0	0	0	0
013119	11:32:52	11:38:14	321358	5.0.10.0	4_exp_AMP_EVA_AWA_CON	104	Rpleas_acq	Oppo	Rpleas	Bmasked	CS_B	1pleas	distractor2	EVAbeforeCON	acq_US_unple_masked	acq45_masked	4	1	400	0	300	300	0	0	503	46	0	1	0	0	0	1	blank2r.bmp	0	1	+	0	5	C1r.bmp	492	1	blank2r.bmp	786	1	GKQX	786	1	blank2r.bmp	866	4	fanatisch	866	1	!	1239	1	!	-1	0	0	0	0	0	0	0	0	0	0	0	0	0	0	0	0	0	0	0	0	0	0	0	0	0	0	0
013119	11:32:52	11:38:16	323423	5.0.10.0	4_exp_AMP_EVA_AWA_CON	104	Rpleas_acq	Oppo	Rpleas	Bmasked	CS_B	1pleas	distractor2	EVAbeforeCON	acq_US_pleas_masked	acq45_masked	4	2	400	0	300	300	0	0	290	50	0	1	0	0	0	1	blank2r.bmp	0	1	+	0	3	B3r.bmp	492	1	blank2r.bmp	786	1	BMVZ	786	1	blank2r.bmp	866	2	fair	866	1	!	-1	1	!	-1	0	0	0	0	0	0	0	0	0	0	0	0	0	0	0	0	0	0	0	0	0	0	0	0	0	0	0
013119	11:32:52	11:38:18	325689	5.0.10.0	4_exp_AMP_EVA_AWA_CON	104	Rpleas_acq	Oppo	Rpleas	Bmasked	CS_B	1pleas	distractor2	EVAbeforeCON	acq_US_pleas_masked	acq45_masked	4	3	400	1	300	300	0	0	464	50	0	1	0	0	0	1	blank2r.bmp	0	1	+	0	1	B1r.bmp	492	1	blank2r.bmp	786	1	BMVZ	786	1	blank2r.bmp	866	3	loyal	866	1	!	1239	1	!	1359	0	0	0	0	0	0	0	0	0	0	0	0	0	0	0	0	0	0	0	0	0	0	0	0	0	0	0
013119	11:32:52	11:38:21	327941	5.0.10.0	4_exp_AMP_EVA_AWA_CON	104	Rpleas_acq	Oppo	Rpleas	Bmasked	CS_B	1pleas	distractor2	EVAbeforeCON	acq_US_unple_masked	acq45_masked	4	4	400	0	300	300	0	0	479	46	0	1	0	0	0	1	blank2r.bmp	0	1	+	0	7	C3r.bmp	492	1	blank2r.bmp	786	1	GKQX	786	1	blank2r.bmp	866	6	schlecht	866	1	!	1239	1	!	-1	0	0	0	0	0	0	0	0	0	0	0	0	0	0	0	0	0	0	0	0	0	0	0	0	0	0	0
013119	11:32:52	11:38:23	330167	5.0.10.0	4_exp_AMP_EVA_AWA_CON	104	Rpleas_acq	Oppo	Rpleas	Bmasked	CS_B	1pleas	distractor2	EVAbeforeCON	acq_US_pleas_masked	acq45_masked	4	5	400	1	300	300	0	0	418	50	0	1	0	0	0	1	blank2r.bmp	0	1	+	0	3	B3r.bmp	492	1	blank2r.bmp	786	1	BMVZ	786	1	blank2r.bmp	866	4	freundlich	866	1	!	1239	1	!	1319	0	0	0	0	0	0	0	0	0	0	0	0	0	0	0	0	0	0	0	0	0	0	0	0	0	0	0
013119	11:32:52	11:38:25	332420	5.0.10.0	4_exp_AMP_EVA_AWA_CON	104	Rpleas_acq	Oppo	Rpleas	Bmasked	CS_B	1pleas	distractor2	EVAbeforeCON	acq_US_pleas_masked	acq45_masked	4	6	400	0	300	300	0	0	490	46	0	0	0	0	0	1	blank2r.bmp	0	1	+	0	8	C4r.bmp	492	1	blank2r.bmp	786	1	BMVZ	786	1	blank2r.bmp	866	5	tolerant	866	1	!	1239	1	!	-1	0	0	0	0	0	0	0	0	0	0	0	0	0	0	0	0	0	0	0	0	0	0	0	0	0	0	0
013119	11:32:52	11:38:27	334712	5.0.10.0	4_exp_AMP_EVA_AWA_CON	104	Rpleas_acq	Oppo	Rpleas	Bmasked	CS_B	1pleas	distractor2	EVAbeforeCON	acq_US_pleas_masked	acq45_masked	4	7	400	0	300	300	0	0	508	50	0	1	0	0	0	1	blank2r.bmp	0	1	+	0	4	B4r.bmp	492	1	blank2r.bmp	786	1	BMVZ	786	1	blank2r.bmp	866	6	schön	866	1	!	1239	1	!	-1	0	0	0	0	0	0	0	0	0	0	0	0	0	0	0	0	0	0	0	0	0	0	0	0	0	0	0
013119	11:32:52	11:38:30	336924	5.0.10.0	4_exp_AMP_EVA_AWA_CON	104	Rpleas_acq	Oppo	Rpleas	Bmasked	CS_B	1pleas	distractor2	EVAbeforeCON	acq_US_unple_masked	acq45_masked	4	8	400	1	300	300	0	0	411	46	0	1	0	0	0	1	blank2r.bmp	0	1	+	0	2	B2r.bmp	492	1	blank2r.bmp	786	1	GKQX	786	1	blank2r.bmp	866	2	faul	866	1	!	1239	1	!	1306	0	0	0	0	0	0	0	0	0	0	0	0	0	0	0	0	0	0	0	0	0	0	0	0	0	0	0
013119	11:32:52	11:38:32	339137	5.0.10.0	4_exp_AMP_EVA_AWA_CON	104	Rpleas_acq	Oppo	Rpleas	Bmasked	CS_B	1pleas	distractor2	EVAbeforeCON	acq_US_unple_masked	acq45_masked	4	9	400	1	300	300	0	0	421	46	0	1	0	0	0	1	blank2r.bmp	0	1	+	0	1	B1r.bmp	492	1	blank2r.bmp	786	1	GKQX	786	1	blank2r.bmp	866	5	tyrannisch	866	1	!	1239	1	!	1319	0	0	0	0	0	0	0	0	0	0	0	0	0	0	0	0	0	0	0	0	0	0	0	0	0	0	0
013119	11:32:52	11:38:34	341456	5.0.10.0	4_exp_AMP_EVA_AWA_CON	104	Rpleas_acq	Oppo	Rpleas	Bmasked	CS_B	1pleas	distractor2	EVAbeforeCON	acq_US_unple_masked	acq45_masked	4	10	400	0	300	300	0	0	557	46	0	1	0	0	0	1	blank2r.bmp	0	1	+	0	5	C1r.bmp	492	1	blank2r.bmp	786	1	GKQX	786	1	blank2r.bmp	866	1	eitel	866	1	!	1239	1	!	-1	0	0	0	0	0	0	0	0	0	0	0	0	0	0	0	0	0	0	0	0	0	0	0	0	0	0	0
013119	11:32:52	11:38:36	343642	5.0.10.0	4_exp_AMP_EVA_AWA_CON	104	Rpleas_acq	Oppo	Rpleas	Bmasked	CS_B	1pleas	distractor2	EVAbeforeCON	acq_US_unple_masked	acq45_masked	4	11	400	1	300	300	0	0	378	46	0	1	0	0	0	1	blank2r.bmp	0	1	+	0	6	C2r.bmp	492	1	blank2r.bmp	786	1	GKQX	786	1	blank2r.bmp	866	3	lasch	866	1	!	1239	1	!	1279	0	0	0	0	0	0	0	0	0	0	0	0	0	0	0	0	0	0	0	0	0	0	0	0	0	0	0
013119	11:32:52	11:38:39	345934	5.0.10.0	4_exp_AMP_EVA_AWA_CON	104	Rpleas_acq	Oppo	Rpleas	Bmasked	CS_B	1pleas	distractor2	EVAbeforeCON	acq_US_pleas_masked	acq45_masked	4	12	400	0	300	300	0	0	506	50	0	1	0	0	0	1	blank2r.bmp	0	1	+	0	7	C3r.bmp	492	1	blank2r.bmp	786	1	BMVZ	786	1	blank2r.bmp	866	1	ehrlich	866	1	!	1239	1	!	-1	0	0	0	0	0	0	0	0	0	0	0	0	0	0	0	0	0	0	0	0	0	0	0	0	0	0	0
013119	11:32:52	11:38:41	348146	5.0.10.0	4_exp_AMP_EVA_AWA_CON	104	Rpleas_acq	Oppo	Rpleas	Bmasked	CS_B	1pleas	distractor2	EVAbeforeCON	acq_US_pleas_masked	acq45_masked	4	13	400	1	300	300	0	0	410	50	0	1	0	0	0	1	blank2r.bmp	0	1	+	0	3	B3r.bmp	492	1	blank2r.bmp	786	1	BMVZ	786	1	blank2r.bmp	866	1	ehrlich	866	1	!	1239	1	!	1306	0	0	0	0	0	0	0	0	0	0	0	0	0	0	0	0	0	0	0	0	0	0	0	0	0	0	0
013119	11:32:52	11:38:43	350292	5.0.10.0	4_exp_AMP_EVA_AWA_CON	104	Rpleas_acq	Oppo	Rpleas	Bmasked	CS_B	1pleas	distractor2	EVAbeforeCON	acq_US_pleas_masked	acq45_masked	4	14	400	1	300	300	0	0	346	50	0	1	0	0	0	1	blank2r.bmp	0	1	+	0	1	B1r.bmp	492	1	blank2r.bmp	786	1	BMVZ	786	1	blank2r.bmp	866	5	tolerant	866	1	!	1239	1	!	1252	0	0	0	0	0	0	0	0	0	0	0	0	0	0	0	0	0	0	0	0	0	0	0	0	0	0	0
013119	11:32:52	11:38:45	352518	5.0.10.0	4_exp_AMP_EVA_AWA_CON	104	Rpleas_acq	Oppo	Rpleas	Bmasked	CS_B	1pleas	distractor2	EVAbeforeCON	acq_US_unple_masked	acq45_masked	4	15	400	1	300	300	0	0	429	50	0	0	0	0	0	1	blank2r.bmp	0	1	+	0	2	B2r.bmp	492	1	blank2r.bmp	786	1	GKQX	786	1	blank2r.bmp	866	4	fanatisch	866	1	!	1239	1	!	1332	0	0	0	0	0	0	0	0	0	0	0	0	0	0	0	0	0	0	0	0	0	0	0	0	0	0	0
013119	11:32:52	11:38:47	354770	5.0.10.0	4_exp_AMP_EVA_AWA_CON	104	Rpleas_acq	Oppo	Rpleas	Bmasked	CS_B	1pleas	distractor2	EVAbeforeCON	acq_US_pleas_masked	acq45_masked	4	16	400	1	300	300	0	0	439	50	0	1	0	0	0	1	blank2r.bmp	0	1	+	0	6	C2r.bmp	492	1	blank2r.bmp	786	1	BMVZ	786	1	blank2r.bmp	866	4	freundlich	866	1	!	1239	1	!	1346	0	0	0	0	0	0	0	0	0	0	0	0	0	0	0	0	0	0	0	0	0	0	0	0	0	0	0
013119	11:32:52	11:38:50	357049	5.0.10.0	4_exp_AMP_EVA_AWA_CON	104	Rpleas_acq	Oppo	Rpleas	Bmasked	CS_B	1pleas	distractor2	EVAbeforeCON	acq_US_unple_masked	acq45_masked	4	17	400	0	300	300	0	0	506	46	0	1	0	0	0	1	blank2r.bmp	0	1	+	0	8	C4r.bmp	492	1	blank2r.bmp	786	1	GKQX	786	1	blank2r.bmp	866	1	eitel	866	1	!	1239	1	!	-1	0	0	0	0	0	0	0	0	0	0	0	0	0	0	0	0	0	0	0	0	0	0	0	0	0	0	0
013119	11:32:52	11:38:52	359248	5.0.10.0	4_exp_AMP_EVA_AWA_CON	104	Rpleas_acq	Oppo	Rpleas	Bmasked	CS_B	1pleas	distractor2	EVAbeforeCON	acq_US_unple_masked	acq45_masked	4	18	400	1	300	300	0	0	386	50	0	0	0	0	0	1	blank2r.bmp	0	1	+	0	7	C3r.bmp	492	1	blank2r.bmp	786	1	GKQX	786	1	blank2r.bmp	866	3	lasch	866	1	!	1239	1	!	1292	0	0	0	0	0	0	0	0	0	0	0	0	0	0	0	0	0	0	0	0	0	0	0	0	0	0	0
013119	11:32:52	11:38:54	361394	5.0.10.0	4_exp_AMP_EVA_AWA_CON	104	Rpleas_acq	Oppo	Rpleas	Bmasked	CS_B	1pleas	distractor2	EVAbeforeCON	acq_US_pleas_masked	acq45_masked	4	19	400	1	300	300	0	0	346	50	0	1	0	0	0	1	blank2r.bmp	0	1	+	0	4	B4r.bmp	492	1	blank2r.bmp	786	1	BMVZ	786	1	blank2r.bmp	866	6	schön	866	1	!	1239	1	!	1252	0	0	0	0	0	0	0	0	0	0	0	0	0	0	0	0	0	0	0	0	0	0	0	0	0	0	0
013119	11:32:52	11:38:56	363567	5.0.10.0	4_exp_AMP_EVA_AWA_CON	104	Rpleas_acq	Oppo	Rpleas	Bmasked	CS_B	1pleas	distractor2	EVAbeforeCON	acq_US_unple_masked	acq45_masked	4	20	400	1	300	300	0	0	369	46	0	1	0	0	0	1	blank2r.bmp	0	1	+	0	5	C1r.bmp	492	1	blank2r.bmp	786	1	GKQX	786	1	blank2r.bmp	866	6	schlecht	866	1	!	1239	1	!	1266	0	0	0	0	0	0	0	0	0	0	0	0	0	0	0	0	0	0	0	0	0	0	0	0	0	0	0
013119	11:32:52	11:38:59	365819	5.0.10.0	4_exp_AMP_EVA_AWA_CON	104	Rpleas_acq	Oppo	Rpleas	Bmasked	CS_B	1pleas	distractor2	EVAbeforeCON	acq_US_pleas_masked	acq45_masked	4	21	400	0	300	300	0	0	492	50	0	1	0	0	0	1	blank2r.bmp	0	1	+	0	6	C2r.bmp	492	1	blank2r.bmp	786	1	BMVZ	786	1	blank2r.bmp	866	3	loyal	866	1	!	1239	1	!	-1	0	0	0	0	0	0	0	0	0	0	0	0	0	0	0	0	0	0	0	0	0	0	0	0	0	0	0
013119	11:32:52	11:39:01	368045	5.0.10.0	4_exp_AMP_EVA_AWA_CON	104	Rpleas_acq	Oppo	Rpleas	Bmasked	CS_B	1pleas	distractor2	EVAbeforeCON	acq_US_pleas_masked	acq45_masked	4	22	400	1	300	300	0	0	412	50	0	1	0	0	0	1	blank2r.bmp	0	1	+	0	8	C4r.bmp	492	1	blank2r.bmp	786	1	BMVZ	786	1	blank2r.bmp	866	2	fair	866	1	!	1239	1	!	1319	0	0	0	0	0	0	0	0	0	0	0	0	0	0	0	0	0	0	0	0	0	0	0	0	0	0	0
013119	11:32:52	11:39:03	370297	5.0.10.0	4_exp_AMP_EVA_AWA_CON	104	Rpleas_acq	Oppo	Rpleas	Bmasked	CS_B	1pleas	distractor2	EVAbeforeCON	acq_US_unple_masked	acq45_masked	4	23	400	0	300	300	0	0	479	46	0	1	0	0	0	1	blank2r.bmp	0	1	+	0	7	C3r.bmp	492	1	blank2r.bmp	786	1	GKQX	786	1	blank2r.bmp	866	5	tyrannisch	866	1	!	1239	1	!	-1	0	0	0	0	0	0	0	0	0	0	0	0	0	0	0	0	0	0	0	0	0	0	0	0	0	0	0
013119	11:32:52	11:39:05	372403	5.0.10.0	4_exp_AMP_EVA_AWA_CON	104	Rpleas_acq	Oppo	Rpleas	Bmasked	CS_B	1pleas	distractor2	EVAbeforeCON	acq_US_pleas_masked	acq45_masked	4	24	400	0	300	300	0	0	324	50	0	1	0	0	0	1	blank2r.bmp	0	1	+	0	3	B3r.bmp	492	1	blank2r.bmp	786	1	BMVZ	786	1	blank2r.bmp	866	1	ehrlich	866	1	!	-1	1	!	-1	0	0	0	0	0	0	0	0	0	0	0	0	0	0	0	0	0	0	0	0	0	0	0	0	0	0	0
013119	11:32:52	11:39:07	374615	5.0.10.0	4_exp_AMP_EVA_AWA_CON	104	Rpleas_acq	Oppo	Rpleas	Bmasked	CS_B	1pleas	distractor2	EVAbeforeCON	acq_US_pleas_masked	acq45_masked	4	25	400	1	300	300	0	0	402	50	0	1	0	0	0	1	blank2r.bmp	0	1	+	0	1	B1r.bmp	492	1	blank2r.bmp	786	1	BMVZ	786	1	blank2r.bmp	866	2	fair	866	1	!	1239	1	!	1306	0	0	0	0	0	0	0	0	0	0	0	0	0	0	0	0	0	0	0	0	0	0	0	0	0	0	0
013119	11:32:52	11:39:10	376908	5.0.10.0	4_exp_AMP_EVA_AWA_CON	104	Rpleas_acq	Oppo	Rpleas	Bmasked	CS_B	1pleas	distractor2	EVAbeforeCON	acq_US_pleas_masked	acq45_masked	4	26	400	0	300	300	0	0	526	50	0	1	0	0	0	1	blank2r.bmp	0	1	+	0	5	C1r.bmp	492	1	blank2r.bmp	786	1	BMVZ	786	1	blank2r.bmp	866	5	tolerant	866	1	!	1239	1	!	-1	0	0	0	0	0	0	0	0	0	0	0	0	0	0	0	0	0	0	0	0	0	0	0	0	0	0	0
013119	11:32:52	11:39:12	379093	5.0.10.0	4_exp_AMP_EVA_AWA_CON	104	Rpleas_acq	Oppo	Rpleas	Bmasked	CS_B	1pleas	distractor2	EVAbeforeCON	acq_US_pleas_masked	acq45_masked	4	27	400	1	300	300	0	0	385	50	0	1	0	0	0	1	blank2r.bmp	0	1	+	0	2	B2r.bmp	492	1	blank2r.bmp	786	1	BMVZ	786	1	blank2r.bmp	866	4	freundlich	866	1	!	1239	1	!	1279	0	0	0	0	0	0	0	0	0	0	0	0	0	0	0	0	0	0	0	0	0	0	0	0	0	0	0
013119	11:32:52	11:39:14	381319	5.0.10.0	4_exp_AMP_EVA_AWA_CON	104	Rpleas_acq	Oppo	Rpleas	Bmasked	CS_B	1pleas	distractor2	EVAbeforeCON	acq_US_unple_masked	acq45_masked	4	28	400	1	300	300	0	0	432	46	0	1	0	0	0	1	blank2r.bmp	0	1	+	0	4	B4r.bmp	492	1	blank2r.bmp	786	1	GKQX	786	1	blank2r.bmp	866	2	faul	866	1	!	1239	1	!	1332	0	0	0	0	0	0	0	0	0	0	0	0	0	0	0	0	0	0	0	0	0	0	0	0	0	0	0
013119	11:32:52	11:39:16	383531	5.0.10.0	4_exp_AMP_EVA_AWA_CON	104	Rpleas_acq	Oppo	Rpleas	Bmasked	CS_B	1pleas	distractor2	EVAbeforeCON	acq_US_unple_masked	acq45_masked	4	29	400	1	300	300	0	0	425	50	0	0	0	0	0	1	blank2r.bmp	0	1	+	0	5	C1r.bmp	492	1	blank2r.bmp	786	1	GKQX	786	1	blank2r.bmp	866	1	eitel	866	1	!	1239	1	!	1319	0	0	0	0	0	0	0	0	0	0	0	0	0	0	0	0	0	0	0	0	0	0	0	0	0	0	0
013119	11:32:52	11:39:19	385784	5.0.10.0	4_exp_AMP_EVA_AWA_CON	104	Rpleas_acq	Oppo	Rpleas	Bmasked	CS_B	1pleas	distractor2	EVAbeforeCON	acq_US_pleas_masked	acq45_masked	4	30	400	1	300	300	0	0	455	50	0	1	0	0	0	1	blank2r.bmp	0	1	+	0	4	B4r.bmp	492	1	blank2r.bmp	786	1	BMVZ	786	1	blank2r.bmp	866	3	loyal	866	1	!	1239	1	!	1359	0	0	0	0	0	0	0	0	0	0	0	0	0	0	0	0	0	0	0	0	0	0	0	0	0	0	0
013119	11:32:52	11:39:21	387983	5.0.10.0	4_exp_AMP_EVA_AWA_CON	104	Rpleas_acq	Oppo	Rpleas	Bmasked	CS_B	1pleas	distractor2	EVAbeforeCON	acq_US_pleas_masked	acq45_masked	4	31	400	1	300	300	0	0	406	50	0	1	0	0	0	1	blank2r.bmp	0	1	+	0	3	B3r.bmp	492	1	blank2r.bmp	786	1	BMVZ	786	1	blank2r.bmp	866	6	schön	866	1	!	1239	1	!	1306	0	0	0	0	0	0	0	0	0	0	0	0	0	0	0	0	0	0	0	0	0	0	0	0	0	0	0
013119	11:32:52	11:39:23	390049	5.0.10.0	4_exp_AMP_EVA_AWA_CON	104	Rpleas_acq	Oppo	Rpleas	Bmasked	CS_B	1pleas	distractor2	EVAbeforeCON	acq_US_unple_masked	acq45_masked	4	32	400	0	300	300	0	0	302	46	0	1	0	0	0	1	blank2r.bmp	0	1	+	0	7	C3r.bmp	492	1	blank2r.bmp	786	1	GKQX	786	1	blank2r.bmp	866	5	tyrannisch	866	1	!	-1	1	!	-1	0	0	0	0	0	0	0	0	0	0	0	0	0	0	0	0	0	0	0	0	0	0	0	0	0	0	0
013119	11:32:52	11:39:25	392328	5.0.10.0	4_exp_AMP_EVA_AWA_CON	104	Rpleas_acq	Oppo	Rpleas	Bmasked	CS_B	1pleas	distractor2	EVAbeforeCON	acq_US_unple_masked	acq45_masked	4	33	400	0	300	300	0	0	492	46	0	1	0	0	0	1	blank2r.bmp	0	1	+	0	1	B1r.bmp	492	1	blank2r.bmp	786	1	GKQX	786	1	blank2r.bmp	866	4	fanatisch	866	1	!	1239	1	!	-1	0	0	0	0	0	0	0	0	0	0	0	0	0	0	0	0	0	0	0	0	0	0	0	0	0	0	0
013119	11:32:52	11:39:27	394567	5.0.10.0	4_exp_AMP_EVA_AWA_CON	104	Rpleas_acq	Oppo	Rpleas	Bmasked	CS_B	1pleas	distractor2	EVAbeforeCON	acq_US_unple_masked	acq45_masked	4	34	400	1	300	300	0	0	438	46	0	1	0	0	0	1	blank2r.bmp	0	1	+	0	6	C2r.bmp	492	1	blank2r.bmp	786	1	GKQX	786	1	blank2r.bmp	866	3	lasch	866	1	!	1239	1	!	1332	0	0	0	0	0	0	0	0	0	0	0	0	0	0	0	0	0	0	0	0	0	0	0	0	0	0	0
013119	11:32:52	11:39:29	396633	5.0.10.0	4_exp_AMP_EVA_AWA_CON	104	Rpleas_acq	Oppo	Rpleas	Bmasked	CS_B	1pleas	distractor2	EVAbeforeCON	acq_US_unple_masked	acq45_masked	4	35	400	0	300	300	0	0	292	50	0	0	0	0	0	1	blank2r.bmp	0	1	+	0	8	C4r.bmp	492	1	blank2r.bmp	786	1	GKQX	786	1	blank2r.bmp	866	2	faul	866	1	!	-1	1	!	-1	0	0	0	0	0	0	0	0	0	0	0	0	0	0	0	0	0	0	0	0	0	0	0	0	0	0	0
013119	11:32:52	11:39:32	398858	5.0.10.0	4_exp_AMP_EVA_AWA_CON	104	Rpleas_acq	Oppo	Rpleas	Bmasked	CS_B	1pleas	distractor2	EVAbeforeCON	acq_US_unple_masked	acq45_masked	4	36	400	1	300	300	0	0	419	46	0	1	0	0	0	1	blank2r.bmp	0	1	+	0	2	B2r.bmp	492	1	blank2r.bmp	786	1	GKQX	786	1	blank2r.bmp	866	6	schlecht	866	1	!	1239	1	!	1319	0	0	0	0	0	0	0	0	0	0	0	0	0	0	0	0	0	0	0	0	0	0	0	0	0	0	0
013119	11:32:52	11:39:40	407548	5.0.10.0	4_exp_AMP_EVA_AWA_CON	104	Rpleas_acq	Oppo	Rpleas	Bmasked	CS_B	1pleas	distractor2	EVAbeforeCON	acq_US_pleas_masked	acq45_masked	5	1	400	0	300	300	0	0	479	50	0	1	0	0	0	1	blank2r.bmp	0	1	+	0	1	B1r.bmp	492	1	blank2r.bmp	786	1	BMVZ	786	1	blank2r.bmp	866	5	tolerant	866	1	!	1239	1	!	-1	0	0	0	0	0	0	0	0	0	0	0	0	0	0	0	0	0	0	0	0	0	0	0	0	0	0	0
013119	11:32:52	11:39:43	409800	5.0.10.0	4_exp_AMP_EVA_AWA_CON	104	Rpleas_acq	Oppo	Rpleas	Bmasked	CS_B	1pleas	distractor2	EVAbeforeCON	acq_US_unple_masked	acq45_masked	5	2	400	1	300	300	0	0	452	50	0	0	0	0	0	1	blank2r.bmp	0	1	+	0	7	C3r.bmp	492	1	blank2r.bmp	786	1	GKQX	786	1	blank2r.bmp	866	1	eitel	866	1	!	1239	1	!	1346	0	0	0	0	0	0	0	0	0	0	0	0	0	0	0	0	0	0	0	0	0	0	0	0	0	0	0
013119	11:32:52	11:39:45	412079	5.0.10.0	4_exp_AMP_EVA_AWA_CON	104	Rpleas_acq	Oppo	Rpleas	Bmasked	CS_B	1pleas	distractor2	EVAbeforeCON	acq_US_unple_masked	acq45_masked	5	3	400	1	300	300	0	0	465	46	0	1	0	0	0	1	blank2r.bmp	0	1	+	0	6	C2r.bmp	492	1	blank2r.bmp	786	1	GKQX	786	1	blank2r.bmp	866	4	fanatisch	866	1	!	1239	1	!	1372	0	0	0	0	0	0	0	0	0	0	0	0	0	0	0	0	0	0	0	0	0	0	0	0	0	0	0
013119	11:32:52	11:39:47	414252	5.0.10.0	4_exp_AMP_EVA_AWA_CON	104	Rpleas_acq	Oppo	Rpleas	Bmasked	CS_B	1pleas	distractor2	EVAbeforeCON	acq_US_pleas_masked	acq45_masked	5	4	400	1	300	300	0	0	374	50	0	1	0	0	0	1	blank2r.bmp	0	1	+	0	3	B3r.bmp	492	1	blank2r.bmp	786	1	BMVZ	786	1	blank2r.bmp	866	1	ehrlich	866	1	!	1239	1	!	1279	0	0	0	0	0	0	0	0	0	0	0	0	0	0	0	0	0	0	0	0	0	0	0	0	0	0	0
013119	11:32:52	11:39:49	416518	5.0.10.0	4_exp_AMP_EVA_AWA_CON	104	Rpleas_acq	Oppo	Rpleas	Bmasked	CS_B	1pleas	distractor2	EVAbeforeCON	acq_US_unple_masked	acq45_masked	5	5	400	0	300	300	0	0	503	46	0	1	0	0	0	1	blank2r.bmp	0	1	+	0	2	B2r.bmp	492	1	blank2r.bmp	786	1	GKQX	786	1	blank2r.bmp	866	5	tyrannisch	866	1	!	1239	1	!	-1	0	0	0	0	0	0	0	0	0	0	0	0	0	0	0	0	0	0	0	0	0	0	0	0	0	0	0
013119	11:32:52	11:39:51	418690	5.0.10.0	4_exp_AMP_EVA_AWA_CON	104	Rpleas_acq	Oppo	Rpleas	Bmasked	CS_B	1pleas	distractor2	EVAbeforeCON	acq_US_pleas_masked	acq45_masked	5	6	400	1	300	300	0	0	369	50	0	1	0	0	0	1	blank2r.bmp	0	1	+	0	5	C1r.bmp	492	1	blank2r.bmp	786	1	BMVZ	786	1	blank2r.bmp	866	6	schön	866	1	!	1239	1	!	1266	0	0	0	0	0	0	0	0	0	0	0	0	0	0	0	0	0	0	0	0	0	0	0	0	0	0	0
013119	11:32:52	11:39:54	420916	5.0.10.0	4_exp_AMP_EVA_AWA_CON	104	Rpleas_acq	Oppo	Rpleas	Bmasked	CS_B	1pleas	distractor2	EVAbeforeCON	acq_US_pleas_masked	acq45_masked	5	7	400	1	300	300	0	0	424	50	0	1	0	0	0	1	blank2r.bmp	0	1	+	0	8	C4r.bmp	492	1	blank2r.bmp	786	1	BMVZ	786	1	blank2r.bmp	866	2	fair	866	1	!	1239	1	!	1319	0	0	0	0	0	0	0	0	0	0	0	0	0	0	0	0	0	0	0	0	0	0	0	0	0	0	0
013119	11:32:52	11:39:56	423088	5.0.10.0	4_exp_AMP_EVA_AWA_CON	104	Rpleas_acq	Oppo	Rpleas	Bmasked	CS_B	1pleas	distractor2	EVAbeforeCON	acq_US_pleas_masked	acq45_masked	5	8	400	1	300	300	0	0	383	50	0	1	0	0	0	1	blank2r.bmp	0	1	+	0	4	B4r.bmp	492	1	blank2r.bmp	786	1	BMVZ	786	1	blank2r.bmp	866	3	loyal	866	1	!	1239	1	!	1279	0	0	0	0	0	0	0	0	0	0	0	0	0	0	0	0	0	0	0	0	0	0	0	0	0	0	0
013119	11:32:52	11:39:58	425167	5.0.10.0	4_exp_AMP_EVA_AWA_CON	104	Rpleas_acq	Oppo	Rpleas	Bmasked	CS_B	1pleas	distractor2	EVAbeforeCON	acq_US_unple_masked	acq45_masked	5	9	400	0	300	300	0	0	314	46	0	1	0	0	0	1	blank2r.bmp	0	1	+	0	1	B1r.bmp	492	1	blank2r.bmp	786	1	GKQX	786	1	blank2r.bmp	866	3	lasch	866	1	!	-1	1	!	-1	0	0	0	0	0	0	0	0	0	0	0	0	0	0	0	0	0	0	0	0	0	0	0	0	0	0	0
013119	11:32:52	11:40:00	427406	5.0.10.0	4_exp_AMP_EVA_AWA_CON	104	Rpleas_acq	Oppo	Rpleas	Bmasked	CS_B	1pleas	distractor2	EVAbeforeCON	acq_US_unple_masked	acq45_masked	5	10	400	1	300	300	0	0	423	46	0	1	0	0	0	1	blank2r.bmp	0	1	+	0	3	B3r.bmp	492	1	blank2r.bmp	786	1	GKQX	786	1	blank2r.bmp	866	6	schlecht	866	1	!	1239	1	!	1319	0	0	0	0	0	0	0	0	0	0	0	0	0	0	0	0	0	0	0	0	0	0	0	0	0	0	0
013119	11:32:52	11:40:02	429659	5.0.10.0	4_exp_AMP_EVA_AWA_CON	104	Rpleas_acq	Oppo	Rpleas	Bmasked	CS_B	1pleas	distractor2	EVAbeforeCON	acq_US_pleas_masked	acq45_masked	5	11	400	0	300	300	0	0	479	50	0	1	0	0	0	1	blank2r.bmp	0	1	+	0	4	B4r.bmp	492	1	blank2r.bmp	786	1	BMVZ	786	1	blank2r.bmp	866	4	freundlich	866	1	!	1239	1	!	-1	0	0	0	0	0	0	0	0	0	0	0	0	0	0	0	0	0	0	0	0	0	0	0	0	0	0	0
013119	11:32:52	11:40:05	431938	5.0.10.0	4_exp_AMP_EVA_AWA_CON	104	Rpleas_acq	Oppo	Rpleas	Bmasked	CS_B	1pleas	distractor2	EVAbeforeCON	acq_US_pleas_masked	acq45_masked	5	12	400	0	300	300	0	0	494	50	0	1	0	0	0	1	blank2r.bmp	0	1	+	0	5	C1r.bmp	492	1	blank2r.bmp	786	1	BMVZ	786	1	blank2r.bmp	866	3	loyal	866	1	!	1239	1	!	-1	0	0	0	0	0	0	0	0	0	0	0	0	0	0	0	0	0	0	0	0	0	0	0	0	0	0	0
013119	11:32:52	11:40:07	434070	5.0.10.0	4_exp_AMP_EVA_AWA_CON	104	Rpleas_acq	Oppo	Rpleas	Bmasked	CS_B	1pleas	distractor2	EVAbeforeCON	acq_US_pleas_masked	acq45_masked	5	13	400	0	300	300	0	0	333	46	0	0	0	0	0	1	blank2r.bmp	0	1	+	0	6	C2r.bmp	492	1	blank2r.bmp	786	1	BMVZ	786	1	blank2r.bmp	866	5	tolerant	866	1	!	-1	1	!	-1	0	0	0	0	0	0	0	0	0	0	0	0	0	0	0	0	0	0	0	0	0	0	0	0	0	0	0
013119	11:32:52	11:40:09	436296	5.0.10.0	4_exp_AMP_EVA_AWA_CON	104	Rpleas_acq	Oppo	Rpleas	Bmasked	CS_B	1pleas	distractor2	EVAbeforeCON	acq_US_unple_masked	acq45_masked	5	14	400	1	300	300	0	0	415	46	0	1	0	0	0	1	blank2r.bmp	0	1	+	0	8	C4r.bmp	492	1	blank2r.bmp	786	1	GKQX	786	1	blank2r.bmp	866	2	faul	866	1	!	1239	1	!	1319	0	0	0	0	0	0	0	0	0	0	0	0	0	0	0	0	0	0	0	0	0	0	0	0	0	0	0
013119	11:32:52	11:40:11	438375	5.0.10.0	4_exp_AMP_EVA_AWA_CON	104	Rpleas_acq	Oppo	Rpleas	Bmasked	CS_B	1pleas	distractor2	EVAbeforeCON	acq_US_pleas_masked	acq45_masked	5	15	400	0	300	300	0	0	313	50	0	1	0	0	0	1	blank2r.bmp	0	1	+	0	2	B2r.bmp	492	1	blank2r.bmp	786	1	BMVZ	786	1	blank2r.bmp	866	2	fair	866	1	!	-1	1	!	-1	0	0	0	0	0	0	0	0	0	0	0	0	0	0	0	0	0	0	0	0	0	0	0	0	0	0	0
013119	11:32:52	11:40:13	440641	5.0.10.0	4_exp_AMP_EVA_AWA_CON	104	Rpleas_acq	Oppo	Rpleas	Bmasked	CS_B	1pleas	distractor2	EVAbeforeCON	acq_US_unple_masked	acq45_masked	5	16	400	0	300	300	0	0	479	50	0	0	0	0	0	1	blank2r.bmp	0	1	+	0	7	C3r.bmp	492	1	blank2r.bmp	786	1	GKQX	786	1	blank2r.bmp	866	1	eitel	866	1	!	1239	1	!	-1	0	0	0	0	0	0	0	0	0	0	0	0	0	0	0	0	0	0	0	0	0	0	0	0	0	0	0
013119	11:32:52	11:40:16	442907	5.0.10.0	4_exp_AMP_EVA_AWA_CON	104	Rpleas_acq	Oppo	Rpleas	Bmasked	CS_B	1pleas	distractor2	EVAbeforeCON	acq_US_unple_masked	acq45_masked	5	17	400	0	300	300	0	0	479	46	0	1	0	0	0	1	blank2r.bmp	0	1	+	0	1	B1r.bmp	492	1	blank2r.bmp	786	1	GKQX	786	1	blank2r.bmp	866	4	fanatisch	866	1	!	1239	1	!	-1	0	0	0	0	0	0	0	0	0	0	0	0	0	0	0	0	0	0	0	0	0	0	0	0	0	0	0
013119	11:32:52	11:40:18	445079	5.0.10.0	4_exp_AMP_EVA_AWA_CON	104	Rpleas_acq	Oppo	Rpleas	Bmasked	CS_B	1pleas	distractor2	EVAbeforeCON	acq_US_unple_masked	acq45_masked	5	18	400	1	300	300	0	0	362	46	0	1	0	0	0	1	blank2r.bmp	0	1	+	0	3	B3r.bmp	492	1	blank2r.bmp	786	1	GKQX	786	1	blank2r.bmp	866	6	schlecht	866	1	!	1239	1	!	1266	0	0	0	0	0	0	0	0	0	0	0	0	0	0	0	0	0	0	0	0	0	0	0	0	0	0	0
013119	11:32:52	11:40:20	447238	5.0.10.0	4_exp_AMP_EVA_AWA_CON	104	Rpleas_acq	Oppo	Rpleas	Bmasked	CS_B	1pleas	distractor2	EVAbeforeCON	acq_US_unple_masked	acq45_masked	5	19	400	1	300	300	0	0	362	46	0	1	0	0	0	1	blank2r.bmp	0	1	+	0	4	B4r.bmp	492	1	blank2r.bmp	786	1	GKQX	786	1	blank2r.bmp	866	2	faul	866	1	!	1239	1	!	1266	0	0	0	0	0	0	0	0	0	0	0	0	0	0	0	0	0	0	0	0	0	0	0	0	0	0	0
013119	11:32:52	11:40:22	449464	5.0.10.0	4_exp_AMP_EVA_AWA_CON	104	Rpleas_acq	Oppo	Rpleas	Bmasked	CS_B	1pleas	distractor2	EVAbeforeCON	acq_US_pleas_masked	acq45_masked	5	20	400	1	300	300	0	0	418	50	0	1	0	0	0	1	blank2r.bmp	0	1	+	0	7	C3r.bmp	492	1	blank2r.bmp	786	1	BMVZ	786	1	blank2r.bmp	866	6	schön	866	1	!	1239	1	!	1319	0	0	0	0	0	0	0	0	0	0	0	0	0	0	0	0	0	0	0	0	0	0	0	0	0	0	0
013119	11:32:52	11:40:24	451610	5.0.10.0	4_exp_AMP_EVA_AWA_CON	104	Rpleas_acq	Oppo	Rpleas	Bmasked	CS_B	1pleas	distractor2	EVAbeforeCON	acq_US_unple_masked	acq45_masked	5	21	400	1	300	300	0	0	353	50	0	0	0	0	0	1	blank2r.bmp	0	1	+	0	6	C2r.bmp	492	1	blank2r.bmp	786	1	GKQX	786	1	blank2r.bmp	866	3	lasch	866	1	!	1239	1	!	1252	0	0	0	0	0	0	0	0	0	0	0	0	0	0	0	0	0	0	0	0	0	0	0	0	0	0	0
013119	11:32:52	11:40:27	453822	5.0.10.0	4_exp_AMP_EVA_AWA_CON	104	Rpleas_acq	Oppo	Rpleas	Bmasked	CS_B	1pleas	distractor2	EVAbeforeCON	acq_US_pleas_masked	acq45_masked	5	22	400	1	300	300	0	0	415	50	0	1	0	0	0	1	blank2r.bmp	0	1	+	0	5	C1r.bmp	492	1	blank2r.bmp	786	1	BMVZ	786	1	blank2r.bmp	866	1	ehrlich	866	1	!	1239	1	!	1319	0	0	0	0	0	0	0	0	0	0	0	0	0	0	0	0	0	0	0	0	0	0	0	0	0	0	0
013119	11:32:52	11:40:29	455981	5.0.10.0	4_exp_AMP_EVA_AWA_CON	104	Rpleas_acq	Oppo	Rpleas	Bmasked	CS_B	1pleas	distractor2	EVAbeforeCON	acq_US_unple_masked	acq45_masked	5	23	400	1	300	300	0	0	353	46	0	1	0	0	0	1	blank2r.bmp	0	1	+	0	2	B2r.bmp	492	1	blank2r.bmp	786	1	GKQX	786	1	blank2r.bmp	866	5	tyrannisch	866	1	!	1239	1	!	1252	0	0	0	0	0	0	0	0	0	0	0	0	0	0	0	0	0	0	0	0	0	0	0	0	0	0	0
013119	11:32:52	11:40:31	458180	5.0.10.0	4_exp_AMP_EVA_AWA_CON	104	Rpleas_acq	Oppo	Rpleas	Bmasked	CS_B	1pleas	distractor2	EVAbeforeCON	acq_US_pleas_masked	acq45_masked	5	24	400	1	300	300	0	0	411	46	0	0	0	0	0	1	blank2r.bmp	0	1	+	0	8	C4r.bmp	492	1	blank2r.bmp	786	1	BMVZ	786	1	blank2r.bmp	866	4	freundlich	866	1	!	1239	1	!	1306	0	0	0	0	0	0	0	0	0	0	0	0	0	0	0	0	0	0	0	0	0	0	0	0	0	0	0
013119	11:32:52	11:40:33	460392	5.0.10.0	4_exp_AMP_EVA_AWA_CON	104	Rpleas_acq	Oppo	Rpleas	Bmasked	CS_B	1pleas	distractor2	EVAbeforeCON	acq_US_unple_masked	acq45_masked	5	25	400	1	300	300	0	0	422	50	0	0	0	0	0	1	blank2r.bmp	0	1	+	0	1	B1r.bmp	492	1	blank2r.bmp	786	1	GKQX	786	1	blank2r.bmp	866	4	fanatisch	866	1	!	1239	1	!	1319	0	0	0	0	0	0	0	0	0	0	0	0	0	0	0	0	0	0	0	0	0	0	0	0	0	0	0
013119	11:32:52	11:40:35	462618	5.0.10.0	4_exp_AMP_EVA_AWA_CON	104	Rpleas_acq	Oppo	Rpleas	Bmasked	CS_B	1pleas	distractor2	EVAbeforeCON	acq_US_unple_masked	acq45_masked	5	26	400	1	300	300	0	0	427	50	0	0	0	0	0	1	blank2r.bmp	0	1	+	0	2	B2r.bmp	492	1	blank2r.bmp	786	1	GKQX	786	1	blank2r.bmp	866	1	eitel	866	1	!	1239	1	!	1332	0	0	0	0	0	0	0	0	0	0	0	0	0	0	0	0	0	0	0	0	0	0	0	0	0	0	0
013119	11:32:52	11:40:37	464764	5.0.10.0	4_exp_AMP_EVA_AWA_CON	104	Rpleas_acq	Oppo	Rpleas	Bmasked	CS_B	1pleas	distractor2	EVAbeforeCON	acq_US_unple_masked	acq45_masked	5	27	400	1	300	300	0	0	355	46	0	1	0	0	0	1	blank2r.bmp	0	1	+	0	3	B3r.bmp	492	1	blank2r.bmp	786	1	GKQX	786	1	blank2r.bmp	866	2	faul	866	1	!	1239	1	!	1252	0	0	0	0	0	0	0	0	0	0	0	0	0	0	0	0	0	0	0	0	0	0	0	0	0	0	0
013119	11:32:52	11:40:40	467003	5.0.10.0	4_exp_AMP_EVA_AWA_CON	104	Rpleas_acq	Oppo	Rpleas	Bmasked	CS_B	1pleas	distractor2	EVAbeforeCON	acq_US_pleas_masked	acq45_masked	5	28	400	1	300	300	0	0	444	50	0	1	0	0	0	1	blank2r.bmp	0	1	+	0	4	B4r.bmp	492	1	blank2r.bmp	786	1	BMVZ	786	1	blank2r.bmp	866	3	loyal	866	1	!	1239	1	!	1346	0	0	0	0	0	0	0	0	0	0	0	0	0	0	0	0	0	0	0	0	0	0	0	0	0	0	0
013119	11:32:52	11:40:42	469242	5.0.10.0	4_exp_AMP_EVA_AWA_CON	104	Rpleas_acq	Oppo	Rpleas	Bmasked	CS_B	1pleas	distractor2	EVAbeforeCON	acq_US_unple_masked	acq45_masked	5	29	400	1	300	300	0	0	426	46	0	1	0	0	0	1	blank2r.bmp	0	1	+	0	8	C4r.bmp	492	1	blank2r.bmp	786	1	GKQX	786	1	blank2r.bmp	866	3	lasch	866	1	!	1239	1	!	1332	0	0	0	0	0	0	0	0	0	0	0	0	0	0	0	0	0	0	0	0	0	0	0	0	0	0	0
013119	11:32:52	11:40:44	471494	5.0.10.0	4_exp_AMP_EVA_AWA_CON	104	Rpleas_acq	Oppo	Rpleas	Bmasked	CS_B	1pleas	distractor2	EVAbeforeCON	acq_US_pleas_masked	acq45_masked	5	30	400	0	300	300	0	0	479	50	0	1	0	0	0	1	blank2r.bmp	0	1	+	0	7	C3r.bmp	492	1	blank2r.bmp	786	1	BMVZ	786	1	blank2r.bmp	866	5	tolerant	866	1	!	1239	1	!	-1	0	0	0	0	0	0	0	0	0	0	0	0	0	0	0	0	0	0	0	0	0	0	0	0	0	0	0
013119	11:32:52	11:40:46	473694	5.0.10.0	4_exp_AMP_EVA_AWA_CON	104	Rpleas_acq	Oppo	Rpleas	Bmasked	CS_B	1pleas	distractor2	EVAbeforeCON	acq_US_pleas_masked	acq45_masked	5	31	400	1	300	300	0	0	388	50	0	1	0	0	0	1	blank2r.bmp	0	1	+	0	6	C2r.bmp	492	1	blank2r.bmp	786	1	BMVZ	786	1	blank2r.bmp	866	1	ehrlich	866	1	!	1239	1	!	1292	0	0	0	0	0	0	0	0	0	0	0	0	0	0	0	0	0	0	0	0	0	0	0	0	0	0	0
013119	11:32:52	11:40:48	475773	5.0.10.0	4_exp_AMP_EVA_AWA_CON	104	Rpleas_acq	Oppo	Rpleas	Bmasked	CS_B	1pleas	distractor2	EVAbeforeCON	acq_US_unple_masked	acq45_masked	5	32	400	0	300	300	0	0	309	46	0	1	0	0	0	1	blank2r.bmp	0	1	+	0	5	C1r.bmp	492	1	blank2r.bmp	786	1	GKQX	786	1	blank2r.bmp	866	6	schlecht	866	1	!	-1	1	!	-1	0	0	0	0	0	0	0	0	0	0	0	0	0	0	0	0	0	0	0	0	0	0	0	0	0	0	0
013119	11:32:52	11:40:51	477958	5.0.10.0	4_exp_AMP_EVA_AWA_CON	104	Rpleas_acq	Oppo	Rpleas	Bmasked	CS_B	1pleas	distractor2	EVAbeforeCON	acq_US_pleas_masked	acq45_masked	5	33	400	1	300	300	0	0	389	50	0	1	0	0	0	1	blank2r.bmp	0	1	+	0	5	C1r.bmp	492	1	blank2r.bmp	786	1	BMVZ	786	1	blank2r.bmp	866	6	schön	866	1	!	1239	1	!	1292	0	0	0	0	0	0	0	0	0	0	0	0	0	0	0	0	0	0	0	0	0	0	0	0	0	0	0
013119	11:32:52	11:40:53	480158	5.0.10.0	4_exp_AMP_EVA_AWA_CON	104	Rpleas_acq	Oppo	Rpleas	Bmasked	CS_B	1pleas	distractor2	EVAbeforeCON	acq_US_pleas_masked	acq45_masked	5	34	400	1	300	300	0	0	403	50	0	1	0	0	0	1	blank2r.bmp	0	1	+	0	3	B3r.bmp	492	1	blank2r.bmp	786	1	BMVZ	786	1	blank2r.bmp	866	4	freundlich	866	1	!	1239	1	!	1306	0	0	0	0	0	0	0	0	0	0	0	0	0	0	0	0	0	0	0	0	0	0	0	0	0	0	0
013119	11:32:52	11:40:55	482437	5.0.10.0	4_exp_AMP_EVA_AWA_CON	104	Rpleas_acq	Oppo	Rpleas	Bmasked	CS_B	1pleas	distractor2	EVAbeforeCON	acq_US_pleas_masked	acq45_masked	5	35	400	0	300	300	0	0	516	50	0	1	0	0	0	1	blank2r.bmp	0	1	+	0	2	B2r.bmp	492	1	blank2r.bmp	786	1	BMVZ	786	1	blank2r.bmp	866	2	fair	866	1	!	1239	1	!	-1	0	0	0	0	0	0	0	0	0	0	0	0	0	0	0	0	0	0	0	0	0	0	0	0	0	0	0
013119	11:32:52	11:40:57	484689	5.0.10.0	4_exp_AMP_EVA_AWA_CON	104	Rpleas_acq	Oppo	Rpleas	Bmasked	CS_B	1pleas	distractor2	EVAbeforeCON	acq_US_unple_masked	acq45_masked	5	36	400	1	300	300	0	0	450	46	0	1	0	0	0	1	blank2r.bmp	0	1	+	0	6	C2r.bmp	492	1	blank2r.bmp	786	1	GKQX	786	1	blank2r.bmp	866	5	tyrannisch	866	1	!	1239	1	!	1346	0	0	0	0	0	0	0	0	0	0	0	0	0	0	0	0	0	0	0	0	0	0	0	0	0	0	0
013119	11:32:52	11:41:24	511131	5.0.10.0	4_exp_AMP_EVA_AWA_CON	104	Rpleas_acq	Oppo	Lpleas	Bmasked	CS_B	1pleas	distractor2	EVAbeforeCON	AMP_distractor	AMP1_masked	6	1	0	0	300	300	0	0	698	46	0	0	0	0	0	1	blank2r.bmp	0	1	JCRD	0	1	blank2r.bmp	79	52	pic52.bmp	199	1	whitenoise_No3.bmp	306	0	0	0	0	0	0	0	0	0	0	0	0	0	0	0	0	0	0	0	0	0	0	0	0	0	0	0	0	0	0	0	0	0	0	0	0	0	0	0
013119	11:32:52	11:41:25	512464	5.0.10.0	4_exp_AMP_EVA_AWA_CON	104	Rpleas_acq	Oppo	Lpleas	Bmasked	CS_B	1pleas	distractor2	EVAbeforeCON	AMP_distractor	AMP1_masked	6	2	0	0	300	300	0	0	404	50	0	0	0	0	0	1	blank2r.bmp	0	1	JCRD	0	1	blank2r.bmp	79	64	pic64.bmp	199	1	whitenoise_No3.bmp	306	0	0	0	0	0	0	0	0	0	0	0	0	0	0	0	0	0	0	0	0	0	0	0	0	0	0	0	0	0	0	0	0	0	0	0	0	0	0	0
013119	11:32:52	11:41:27	513943	5.0.10.0	4_exp_AMP_EVA_AWA_CON	104	Rpleas_acq	Oppo	Lpleas	Bmasked	CS_B	1pleas	distractor2	EVAbeforeCON	AMP_CSpleas	AMP1_masked	6	3	0	0	300	300	0	0	565	46	0	1	0	0	0	1	blank2r.bmp	0	1	BMVZ	0	1	blank2r.bmp	79	28	pic28.bmp	199	1	whitenoise_No3.bmp	306	0	0	0	0	0	0	0	0	0	0	0	0	0	0	0	0	0	0	0	0	0	0	0	0	0	0	0	0	0	0	0	0	0	0	0	0	0	0	0
013119	11:32:52	11:41:28	515569	5.0.10.0	4_exp_AMP_EVA_AWA_CON	104	Rpleas_acq	Oppo	Lpleas	Bmasked	CS_B	1pleas	distractor2	EVAbeforeCON	AMP_distractor	AMP1_masked	6	4	0	0	300	300	0	0	704	50	0	0	0	0	0	1	blank2r.bmp	0	1	JCRD	0	1	blank2r.bmp	79	49	pic49.bmp	199	1	whitenoise_No3.bmp	306	0	0	0	0	0	0	0	0	0	0	0	0	0	0	0	0	0	0	0	0	0	0	0	0	0	0	0	0	0	0	0	0	0	0	0	0	0	0	0
013119	11:32:52	11:41:30	516809	5.0.10.0	4_exp_AMP_EVA_AWA_CON	104	Rpleas_acq	Oppo	Lpleas	Bmasked	CS_B	1pleas	distractor2	EVAbeforeCON	AMP_distractor	AMP1_masked	6	5	0	0	300	300	0	0	303	50	0	0	0	0	0	1	blank2r.bmp	0	1	JCRD	0	1	blank2r.bmp	79	37	pic37.bmp	199	1	whitenoise_No3.bmp	306	0	0	0	0	0	0	0	0	0	0	0	0	0	0	0	0	0	0	0	0	0	0	0	0	0	0	0	0	0	0	0	0	0	0	0	0	0	0	0
013119	11:32:52	11:41:31	518222	5.0.10.0	4_exp_AMP_EVA_AWA_CON	104	Rpleas_acq	Oppo	Lpleas	Bmasked	CS_B	1pleas	distractor2	EVAbeforeCON	AMP_distractor	AMP1_masked	6	6	0	0	300	300	0	0	489	50	0	0	0	0	0	1	blank2r.bmp	0	1	JCRD	0	1	blank2r.bmp	79	149	pic149.bmp	199	1	whitenoise_No3.bmp	306	0	0	0	0	0	0	0	0	0	0	0	0	0	0	0	0	0	0	0	0	0	0	0	0	0	0	0	0	0	0	0	0	0	0	0	0	0	0	0
013119	11:32:52	11:41:32	519541	5.0.10.0	4_exp_AMP_EVA_AWA_CON	104	Rpleas_acq	Oppo	Lpleas	Bmasked	CS_B	1pleas	distractor2	EVAbeforeCON	AMP_CSpleas	AMP1_masked	6	7	0	0	300	300	0	0	404	46	0	1	0	0	0	1	blank2r.bmp	0	1	BMVZ	0	1	blank2r.bmp	79	41	pic41.bmp	199	1	whitenoise_No3.bmp	306	0	0	0	0	0	0	0	0	0	0	0	0	0	0	0	0	0	0	0	0	0	0	0	0	0	0	0	0	0	0	0	0	0	0	0	0	0	0	0
013119	11:32:52	11:41:34	520874	5.0.10.0	4_exp_AMP_EVA_AWA_CON	104	Rpleas_acq	Oppo	Lpleas	Bmasked	CS_B	1pleas	distractor2	EVAbeforeCON	AMP_CSpleas	AMP1_masked	6	8	0	0	300	300	0	0	400	50	0	0	0	0	0	1	blank2r.bmp	0	1	BMVZ	0	1	blank2r.bmp	79	112	pic112.bmp	199	1	whitenoise_No3.bmp	306	0	0	0	0	0	0	0	0	0	0	0	0	0	0	0	0	0	0	0	0	0	0	0	0	0	0	0	0	0	0	0	0	0	0	0	0	0	0	0
013119	11:32:52	11:41:35	522246	5.0.10.0	4_exp_AMP_EVA_AWA_CON	104	Rpleas_acq	Oppo	Lpleas	Bmasked	CS_B	1pleas	distractor2	EVAbeforeCON	AMP_CSunple	AMP1_masked	6	9	0	0	300	300	0	0	453	46	0	0	0	0	0	1	blank2r.bmp	0	1	GKQX	0	1	blank2r.bmp	79	61	pic61.bmp	199	1	whitenoise_No3.bmp	306	0	0	0	0	0	0	0	0	0	0	0	0	0	0	0	0	0	0	0	0	0	0	0	0	0	0	0	0	0	0	0	0	0	0	0	0	0	0	0
013119	11:32:52	11:41:36	523486	5.0.10.0	4_exp_AMP_EVA_AWA_CON	104	Rpleas_acq	Oppo	Lpleas	Bmasked	CS_B	1pleas	distractor2	EVAbeforeCON	AMP_distractor	AMP1_masked	6	10	0	0	300	300	0	0	322	50	0	0	0	0	0	1	blank2r.bmp	0	1	JCRD	0	1	blank2r.bmp	79	87	pic87.bmp	199	1	whitenoise_No3.bmp	306	0	0	0	0	0	0	0	0	0	0	0	0	0	0	0	0	0	0	0	0	0	0	0	0	0	0	0	0	0	0	0	0	0	0	0	0	0	0	0
013119	11:32:52	11:41:38	524859	5.0.10.0	4_exp_AMP_EVA_AWA_CON	104	Rpleas_acq	Oppo	Lpleas	Bmasked	CS_B	1pleas	distractor2	EVAbeforeCON	AMP_CSunple	AMP1_masked	6	11	0	0	300	300	0	0	460	50	0	1	0	0	0	1	blank2r.bmp	0	1	GKQX	0	1	blank2r.bmp	79	70	pic70.bmp	199	1	whitenoise_No3.bmp	306	0	0	0	0	0	0	0	0	0	0	0	0	0	0	0	0	0	0	0	0	0	0	0	0	0	0	0	0	0	0	0	0	0	0	0	0	0	0	0
013119	11:32:52	11:41:39	526018	5.0.10.0	4_exp_AMP_EVA_AWA_CON	104	Rpleas_acq	Oppo	Lpleas	Bmasked	CS_B	1pleas	distractor2	EVAbeforeCON	AMP_distractor	AMP1_masked	6	12	0	0	300	300	0	0	238	46	0	0	0	0	0	1	blank2r.bmp	0	1	JCRD	0	1	blank2r.bmp	79	31	pic31.bmp	199	1	whitenoise_No3.bmp	306	0	0	0	0	0	0	0	0	0	0	0	0	0	0	0	0	0	0	0	0	0	0	0	0	0	0	0	0	0	0	0	0	0	0	0	0	0	0	0
013119	11:32:52	11:41:40	527218	5.0.10.0	4_exp_AMP_EVA_AWA_CON	104	Rpleas_acq	Oppo	Lpleas	Bmasked	CS_B	1pleas	distractor2	EVAbeforeCON	AMP_CSunple	AMP1_masked	6	13	0	0	300	300	0	0	275	50	0	1	0	0	0	1	blank2r.bmp	0	1	GKQX	0	1	blank2r.bmp	79	138	pic138.bmp	199	1	whitenoise_No3.bmp	306	0	0	0	0	0	0	0	0	0	0	0	0	0	0	0	0	0	0	0	0	0	0	0	0	0	0	0	0	0	0	0	0	0	0	0	0	0	0	0
013119	11:32:52	11:41:41	528497	5.0.10.0	4_exp_AMP_EVA_AWA_CON	104	Rpleas_acq	Oppo	Lpleas	Bmasked	CS_B	1pleas	distractor2	EVAbeforeCON	AMP_distractor	AMP1_masked	6	14	0	0	300	300	0	0	346	50	0	0	0	0	0	1	blank2r.bmp	0	1	JCRD	0	1	blank2r.bmp	79	100	pic100.bmp	199	1	whitenoise_No3.bmp	306	0	0	0	0	0	0	0	0	0	0	0	0	0	0	0	0	0	0	0	0	0	0	0	0	0	0	0	0	0	0	0	0	0	0	0	0	0	0	0
013119	11:32:52	11:41:43	529897	5.0.10.0	4_exp_AMP_EVA_AWA_CON	104	Rpleas_acq	Oppo	Lpleas	Bmasked	CS_B	1pleas	distractor2	EVAbeforeCON	AMP_CSpleas	AMP1_masked	6	15	0	0	300	300	0	0	490	50	0	0	0	0	0	1	blank2r.bmp	0	1	BMVZ	0	1	blank2r.bmp	79	151	pic151.bmp	199	1	whitenoise_No3.bmp	306	0	0	0	0	0	0	0	0	0	0	0	0	0	0	0	0	0	0	0	0	0	0	0	0	0	0	0	0	0	0	0	0	0	0	0	0	0	0	0
013119	11:32:52	11:41:44	530976	5.0.10.0	4_exp_AMP_EVA_AWA_CON	104	Rpleas_acq	Oppo	Lpleas	Bmasked	CS_B	1pleas	distractor2	EVAbeforeCON	AMP_CSpleas	AMP1_masked	6	16	0	0	300	300	0	0	154	46	0	1	0	0	0	1	blank2r.bmp	0	1	BMVZ	0	1	blank2r.bmp	79	45	pic45.bmp	199	1	whitenoise_No3.bmp	306	0	0	0	0	0	0	0	0	0	0	0	0	0	0	0	0	0	0	0	0	0	0	0	0	0	0	0	0	0	0	0	0	0	0	0	0	0	0	0
013119	11:32:52	11:41:45	532096	5.0.10.0	4_exp_AMP_EVA_AWA_CON	104	Rpleas_acq	Oppo	Lpleas	Bmasked	CS_B	1pleas	distractor2	EVAbeforeCON	AMP_CSunple	AMP1_masked	6	17	0	0	300	300	0	0	186	46	0	0	0	0	0	1	blank2r.bmp	0	1	GKQX	0	1	blank2r.bmp	79	121	pic121.bmp	199	1	whitenoise_No3.bmp	306	0	0	0	0	0	0	0	0	0	0	0	0	0	0	0	0	0	0	0	0	0	0	0	0	0	0	0	0	0	0	0	0	0	0	0	0	0	0	0
013119	11:32:52	11:41:46	533335	5.0.10.0	4_exp_AMP_EVA_AWA_CON	104	Rpleas_acq	Oppo	Lpleas	Bmasked	CS_B	1pleas	distractor2	EVAbeforeCON	AMP_CSunple	AMP1_masked	6	18	0	0	300	300	0	0	329	50	0	1	0	0	0	1	blank2r.bmp	0	1	GKQX	0	1	blank2r.bmp	79	125	pic125.bmp	199	1	whitenoise_No3.bmp	306	0	0	0	0	0	0	0	0	0	0	0	0	0	0	0	0	0	0	0	0	0	0	0	0	0	0	0	0	0	0	0	0	0	0	0	0	0	0	0
013119	11:32:52	11:41:47	534668	5.0.10.0	4_exp_AMP_EVA_AWA_CON	104	Rpleas_acq	Oppo	Lpleas	Bmasked	CS_B	1pleas	distractor2	EVAbeforeCON	AMP_CSunple	AMP1_masked	6	19	0	0	300	300	0	0	399	50	0	1	0	0	0	1	blank2r.bmp	0	1	GKQX	0	1	blank2r.bmp	79	22	pic22.bmp	199	1	whitenoise_No3.bmp	306	0	0	0	0	0	0	0	0	0	0	0	0	0	0	0	0	0	0	0	0	0	0	0	0	0	0	0	0	0	0	0	0	0	0	0	0	0	0	0
013119	11:32:52	11:41:49	535801	5.0.10.0	4_exp_AMP_EVA_AWA_CON	104	Rpleas_acq	Oppo	Lpleas	Bmasked	CS_B	1pleas	distractor2	EVAbeforeCON	AMP_CSpleas	AMP1_masked	6	20	0	0	300	300	0	0	217	46	0	1	0	0	0	1	blank2r.bmp	0	1	BMVZ	0	1	blank2r.bmp	79	67	pic67.bmp	199	1	whitenoise_No3.bmp	306	0	0	0	0	0	0	0	0	0	0	0	0	0	0	0	0	0	0	0	0	0	0	0	0	0	0	0	0	0	0	0	0	0	0	0	0	0	0	0
013119	11:32:52	11:41:50	537214	5.0.10.0	4_exp_AMP_EVA_AWA_CON	104	Rpleas_acq	Oppo	Lpleas	Bmasked	CS_B	1pleas	distractor2	EVAbeforeCON	AMP_CSpleas	AMP1_masked	6	21	0	0	300	300	0	0	483	46	0	1	0	0	0	1	blank2r.bmp	0	1	BMVZ	0	1	blank2r.bmp	79	102	pic102.bmp	199	1	whitenoise_No3.bmp	306	0	0	0	0	0	0	0	0	0	0	0	0	0	0	0	0	0	0	0	0	0	0	0	0	0	0	0	0	0	0	0	0	0	0	0	0	0	0	0
013119	11:32:52	11:41:51	538440	5.0.10.0	4_exp_AMP_EVA_AWA_CON	104	Rpleas_acq	Oppo	Lpleas	Bmasked	CS_B	1pleas	distractor2	EVAbeforeCON	AMP_CSunple	AMP1_masked	6	22	0	0	300	300	0	0	306	50	0	1	0	0	0	1	blank2r.bmp	0	1	GKQX	0	1	blank2r.bmp	79	153	pic153.bmp	199	1	whitenoise_No3.bmp	306	0	0	0	0	0	0	0	0	0	0	0	0	0	0	0	0	0	0	0	0	0	0	0	0	0	0	0	0	0	0	0	0	0	0	0	0	0	0	0
013119	11:32:52	11:41:53	539839	5.0.10.0	4_exp_AMP_EVA_AWA_CON	104	Rpleas_acq	Oppo	Lpleas	Bmasked	CS_B	1pleas	distractor2	EVAbeforeCON	AMP_CSpleas	AMP1_masked	6	23	0	0	300	300	0	0	482	46	0	1	0	0	0	1	blank2r.bmp	0	1	BMVZ	0	1	blank2r.bmp	79	114	pic114.bmp	199	1	whitenoise_No3.bmp	306	0	0	0	0	0	0	0	0	0	0	0	0	0	0	0	0	0	0	0	0	0	0	0	0	0	0	0	0	0	0	0	0	0	0	0	0	0	0	0
013119	11:32:52	11:41:54	541092	5.0.10.0	4_exp_AMP_EVA_AWA_CON	104	Rpleas_acq	Oppo	Lpleas	Bmasked	CS_B	1pleas	distractor2	EVAbeforeCON	AMP_distractor	AMP1_masked	6	24	0	0	300	300	0	0	321	50	0	0	0	0	0	1	blank2r.bmp	0	1	JCRD	0	1	blank2r.bmp	79	50	pic50.bmp	199	1	whitenoise_No3.bmp	306	0	0	0	0	0	0	0	0	0	0	0	0	0	0	0	0	0	0	0	0	0	0	0	0	0	0	0	0	0	0	0	0	0	0	0	0	0	0	0
013119	11:32:52	11:41:55	542678	5.0.10.0	4_exp_AMP_EVA_AWA_CON	104	Rpleas_acq	Oppo	Lpleas	Bmasked	CS_B	1pleas	distractor2	EVAbeforeCON	AMP_CSunple	AMP1_masked	6	25	0	0	300	300	0	0	666	50	0	1	0	0	0	1	blank2r.bmp	0	1	GKQX	0	1	blank2r.bmp	79	146	pic146.bmp	199	1	whitenoise_No3.bmp	306	0	0	0	0	0	0	0	0	0	0	0	0	0	0	0	0	0	0	0	0	0	0	0	0	0	0	0	0	0	0	0	0	0	0	0	0	0	0	0
013119	11:32:52	11:41:57	544064	5.0.10.0	4_exp_AMP_EVA_AWA_CON	104	Rpleas_acq	Oppo	Lpleas	Bmasked	CS_B	1pleas	distractor2	EVAbeforeCON	AMP_CSunple	AMP1_masked	6	26	0	0	300	300	0	0	460	46	0	0	0	0	0	1	blank2r.bmp	0	1	GKQX	0	1	blank2r.bmp	79	63	pic63.bmp	199	1	whitenoise_No3.bmp	306	0	0	0	0	0	0	0	0	0	0	0	0	0	0	0	0	0	0	0	0	0	0	0	0	0	0	0	0	0	0	0	0	0	0	0	0	0	0	0
013119	11:32:52	11:41:58	545330	5.0.10.0	4_exp_AMP_EVA_AWA_CON	104	Rpleas_acq	Oppo	Lpleas	Bmasked	CS_B	1pleas	distractor2	EVAbeforeCON	AMP_CSunple	AMP1_masked	6	27	0	0	300	300	0	0	340	50	0	1	0	0	0	1	blank2r.bmp	0	1	GKQX	0	1	blank2r.bmp	79	74	pic74.bmp	199	1	whitenoise_No3.bmp	306	0	0	0	0	0	0	0	0	0	0	0	0	0	0	0	0	0	0	0	0	0	0	0	0	0	0	0	0	0	0	0	0	0	0	0	0	0	0	0
013119	11:32:52	11:42:00	546810	5.0.10.0	4_exp_AMP_EVA_AWA_CON	104	Rpleas_acq	Oppo	Lpleas	Bmasked	CS_B	1pleas	distractor2	EVAbeforeCON	AMP_CSunple	AMP1_masked	6	28	0	0	300	300	0	0	555	46	0	0	0	0	0	1	blank2r.bmp	0	1	GKQX	0	1	blank2r.bmp	79	16	pic16.bmp	199	1	whitenoise_No3.bmp	306	0	0	0	0	0	0	0	0	0	0	0	0	0	0	0	0	0	0	0	0	0	0	0	0	0	0	0	0	0	0	0	0	0	0	0	0	0	0	0
013119	11:32:52	11:42:01	548129	5.0.10.0	4_exp_AMP_EVA_AWA_CON	104	Rpleas_acq	Oppo	Lpleas	Bmasked	CS_B	1pleas	distractor2	EVAbeforeCON	AMP_CSpleas	AMP1_masked	6	29	0	0	300	300	0	0	397	50	0	0	0	0	0	1	blank2r.bmp	0	1	BMVZ	0	1	blank2r.bmp	79	105	pic105.bmp	199	1	whitenoise_No3.bmp	306	0	0	0	0	0	0	0	0	0	0	0	0	0	0	0	0	0	0	0	0	0	0	0	0	0	0	0	0	0	0	0	0	0	0	0	0	0	0	0
013119	11:32:52	11:42:02	549248	5.0.10.0	4_exp_AMP_EVA_AWA_CON	104	Rpleas_acq	Oppo	Lpleas	Bmasked	CS_B	1pleas	distractor2	EVAbeforeCON	AMP_CSunple	AMP1_masked	6	30	0	0	300	300	0	0	198	50	0	1	0	0	0	1	blank2r.bmp	0	1	GKQX	0	1	blank2r.bmp	79	108	pic108.bmp	199	1	whitenoise_No3.bmp	306	0	0	0	0	0	0	0	0	0	0	0	0	0	0	0	0	0	0	0	0	0	0	0	0	0	0	0	0	0	0	0	0	0	0	0	0	0	0	0
013119	11:32:52	11:42:03	550461	5.0.10.0	4_exp_AMP_EVA_AWA_CON	104	Rpleas_acq	Oppo	Lpleas	Bmasked	CS_B	1pleas	distractor2	EVAbeforeCON	AMP_CSunple	AMP1_masked	6	31	0	0	300	300	0	0	303	50	0	1	0	0	0	1	blank2r.bmp	0	1	GKQX	0	1	blank2r.bmp	79	33	pic33.bmp	199	1	whitenoise_No3.bmp	306	0	0	0	0	0	0	0	0	0	0	0	0	0	0	0	0	0	0	0	0	0	0	0	0	0	0	0	0	0	0	0	0	0	0	0	0	0	0	0
013119	11:32:52	11:42:04	551754	5.0.10.0	4_exp_AMP_EVA_AWA_CON	104	Rpleas_acq	Oppo	Lpleas	Bmasked	CS_B	1pleas	distractor2	EVAbeforeCON	AMP_distractor	AMP1_masked	6	32	0	0	300	300	0	0	369	50	0	0	0	0	0	1	blank2r.bmp	0	1	JCRD	0	1	blank2r.bmp	79	115	pic115.bmp	199	1	whitenoise_No3.bmp	306	0	0	0	0	0	0	0	0	0	0	0	0	0	0	0	0	0	0	0	0	0	0	0	0	0	0	0	0	0	0	0	0	0	0	0	0	0	0	0
013119	11:32:52	11:42:06	553060	5.0.10.0	4_exp_AMP_EVA_AWA_CON	104	Rpleas_acq	Oppo	Lpleas	Bmasked	CS_B	1pleas	distractor2	EVAbeforeCON	AMP_CSpleas	AMP1_masked	6	33	0	0	300	300	0	0	373	50	0	0	0	0	0	1	blank2r.bmp	0	1	BMVZ	0	1	blank2r.bmp	79	103	pic103.bmp	199	1	whitenoise_No3.bmp	306	0	0	0	0	0	0	0	0	0	0	0	0	0	0	0	0	0	0	0	0	0	0	0	0	0	0	0	0	0	0	0	0	0	0	0	0	0	0	0
013119	11:32:52	11:42:07	554273	5.0.10.0	4_exp_AMP_EVA_AWA_CON	104	Rpleas_acq	Oppo	Lpleas	Bmasked	CS_B	1pleas	distractor2	EVAbeforeCON	AMP_CSpleas	AMP1_masked	6	34	0	0	300	300	0	0	295	46	0	1	0	0	0	1	blank2r.bmp	0	1	BMVZ	0	1	blank2r.bmp	79	2	pic2.bmp	199	1	whitenoise_No3.bmp	306	0	0	0	0	0	0	0	0	0	0	0	0	0	0	0	0	0	0	0	0	0	0	0	0	0	0	0	0	0	0	0	0	0	0	0	0	0	0	0
013119	11:32:52	11:42:09	555832	5.0.10.0	4_exp_AMP_EVA_AWA_CON	104	Rpleas_acq	Oppo	Lpleas	Bmasked	CS_B	1pleas	distractor2	EVAbeforeCON	AMP_CSpleas	AMP1_masked	6	35	0	0	300	300	0	0	651	50	0	0	0	0	0	1	blank2r.bmp	0	1	BMVZ	0	1	blank2r.bmp	79	117	pic117.bmp	199	1	whitenoise_No3.bmp	306	0	0	0	0	0	0	0	0	0	0	0	0	0	0	0	0	0	0	0	0	0	0	0	0	0	0	0	0	0	0	0	0	0	0	0	0	0	0	0
013119	11:32:52	11:42:10	557405	5.0.10.0	4_exp_AMP_EVA_AWA_CON	104	Rpleas_acq	Oppo	Lpleas	Bmasked	CS_B	1pleas	distractor2	EVAbeforeCON	AMP_CSunple	AMP1_masked	6	36	0	0	300	300	0	0	634	46	0	0	0	0	0	1	blank2r.bmp	0	1	GKQX	0	1	blank2r.bmp	79	13	pic13.bmp	199	1	whitenoise_No3.bmp	306	0	0	0	0	0	0	0	0	0	0	0	0	0	0	0	0	0	0	0	0	0	0	0	0	0	0	0	0	0	0	0	0	0	0	0	0	0	0	0
013119	11:32:52	11:42:11	558671	5.0.10.0	4_exp_AMP_EVA_AWA_CON	104	Rpleas_acq	Oppo	Lpleas	Bmasked	CS_B	1pleas	distractor2	EVAbeforeCON	AMP_distractor	AMP1_masked	6	37	0	0	300	300	0	0	339	46	0	0	0	0	0	1	blank2r.bmp	0	1	JCRD	0	1	blank2r.bmp	79	26	pic26.bmp	199	1	whitenoise_No3.bmp	306	0	0	0	0	0	0	0	0	0	0	0	0	0	0	0	0	0	0	0	0	0	0	0	0	0	0	0	0	0	0	0	0	0	0	0	0	0	0	0
013119	11:32:52	11:42:13	559857	5.0.10.0	4_exp_AMP_EVA_AWA_CON	104	Rpleas_acq	Oppo	Lpleas	Bmasked	CS_B	1pleas	distractor2	EVAbeforeCON	AMP_CSpleas	AMP1_masked	6	38	0	0	300	300	0	0	270	50	0	0	0	0	0	1	blank2r.bmp	0	1	BMVZ	0	1	blank2r.bmp	79	147	pic147.bmp	199	1	whitenoise_No3.bmp	306	0	0	0	0	0	0	0	0	0	0	0	0	0	0	0	0	0	0	0	0	0	0	0	0	0	0	0	0	0	0	0	0	0	0	0	0	0	0	0
013119	11:32:52	11:42:14	561044	5.0.10.0	4_exp_AMP_EVA_AWA_CON	104	Rpleas_acq	Oppo	Lpleas	Bmasked	CS_B	1pleas	distractor2	EVAbeforeCON	AMP_CSpleas	AMP1_masked	6	39	0	0	300	300	0	0	276	46	0	1	0	0	0	1	blank2r.bmp	0	1	BMVZ	0	1	blank2r.bmp	79	58	pic58.bmp	199	1	whitenoise_No3.bmp	306	0	0	0	0	0	0	0	0	0	0	0	0	0	0	0	0	0	0	0	0	0	0	0	0	0	0	0	0	0	0	0	0	0	0	0	0	0	0	0
013119	11:32:52	11:42:15	562550	5.0.10.0	4_exp_AMP_EVA_AWA_CON	104	Rpleas_acq	Oppo	Lpleas	Bmasked	CS_B	1pleas	distractor2	EVAbeforeCON	AMP_CSunple	AMP1_masked	6	40	0	0	300	300	0	0	593	46	0	0	0	0	0	1	blank2r.bmp	0	1	GKQX	0	1	blank2r.bmp	79	107	pic107.bmp	199	1	whitenoise_No3.bmp	306	0	0	0	0	0	0	0	0	0	0	0	0	0	0	0	0	0	0	0	0	0	0	0	0	0	0	0	0	0	0	0	0	0	0	0	0	0	0	0
013119	11:32:52	11:42:16	563669	5.0.10.0	4_exp_AMP_EVA_AWA_CON	104	Rpleas_acq	Oppo	Lpleas	Bmasked	CS_B	1pleas	distractor2	EVAbeforeCON	AMP_distractor	AMP1_masked	6	41	0	0	300	300	0	0	188	50	0	0	0	0	0	1	blank2r.bmp	0	1	JCRD	0	1	blank2r.bmp	79	92	pic92.bmp	199	1	whitenoise_No3.bmp	306	0	0	0	0	0	0	0	0	0	0	0	0	0	0	0	0	0	0	0	0	0	0	0	0	0	0	0	0	0	0	0	0	0	0	0	0	0	0	0
013119	11:32:52	11:42:18	565055	5.0.10.0	4_exp_AMP_EVA_AWA_CON	104	Rpleas_acq	Oppo	Lpleas	Bmasked	CS_B	1pleas	distractor2	EVAbeforeCON	AMP_distractor	AMP1_masked	6	42	0	0	300	300	0	0	471	46	0	0	0	0	0	1	blank2r.bmp	0	1	JCRD	0	1	blank2r.bmp	79	8	pic8.bmp	199	1	whitenoise_No3.bmp	306	0	0	0	0	0	0	0	0	0	0	0	0	0	0	0	0	0	0	0	0	0	0	0	0	0	0	0	0	0	0	0	0	0	0	0	0	0	0	0
013119	11:32:52	11:42:19	566361	5.0.10.0	4_exp_AMP_EVA_AWA_CON	104	Rpleas_acq	Oppo	Lpleas	Bmasked	CS_B	1pleas	distractor2	EVAbeforeCON	AMP_distractor	AMP1_masked	6	43	0	0	300	300	0	0	388	50	0	0	0	0	0	1	blank2r.bmp	0	1	JCRD	0	1	blank2r.bmp	79	134	pic134.bmp	199	1	whitenoise_No3.bmp	306	0	0	0	0	0	0	0	0	0	0	0	0	0	0	0	0	0	0	0	0	0	0	0	0	0	0	0	0	0	0	0	0	0	0	0	0	0	0	0
013119	11:32:52	11:42:20	567721	5.0.10.0	4_exp_AMP_EVA_AWA_CON	104	Rpleas_acq	Oppo	Lpleas	Bmasked	CS_B	1pleas	distractor2	EVAbeforeCON	AMP_distractor	AMP1_masked	6	44	0	0	300	300	0	0	450	46	0	0	0	0	0	1	blank2r.bmp	0	1	JCRD	0	1	blank2r.bmp	79	40	pic40.bmp	199	1	whitenoise_No3.bmp	306	0	0	0	0	0	0	0	0	0	0	0	0	0	0	0	0	0	0	0	0	0	0	0	0	0	0	0	0	0	0	0	0	0	0	0	0	0	0	0
013119	11:32:52	11:42:22	569053	5.0.10.0	4_exp_AMP_EVA_AWA_CON	104	Rpleas_acq	Oppo	Lpleas	Bmasked	CS_B	1pleas	distractor2	EVAbeforeCON	AMP_CSpleas	AMP1_masked	6	45	0	0	300	300	0	0	401	50	0	0	0	0	0	1	blank2r.bmp	0	1	BMVZ	0	1	blank2r.bmp	79	27	pic27.bmp	199	1	whitenoise_No3.bmp	306	0	0	0	0	0	0	0	0	0	0	0	0	0	0	0	0	0	0	0	0	0	0	0	0	0	0	0	0	0	0	0	0	0	0	0	0	0	0	0
013119	11:32:52	11:42:23	570266	5.0.10.0	4_exp_AMP_EVA_AWA_CON	104	Rpleas_acq	Oppo	Lpleas	Bmasked	CS_B	1pleas	distractor2	EVAbeforeCON	AMP_CSunple	AMP1_masked	6	46	0	0	300	300	0	0	300	50	0	1	0	0	0	1	blank2r.bmp	0	1	GKQX	0	1	blank2r.bmp	79	96	pic96.bmp	199	1	whitenoise_No3.bmp	306	0	0	0	0	0	0	0	0	0	0	0	0	0	0	0	0	0	0	0	0	0	0	0	0	0	0	0	0	0	0	0	0	0	0	0	0	0	0	0
013119	11:32:52	11:42:24	571666	5.0.10.0	4_exp_AMP_EVA_AWA_CON	104	Rpleas_acq	Oppo	Lpleas	Bmasked	CS_B	1pleas	distractor2	EVAbeforeCON	AMP_CSpleas	AMP1_masked	6	47	0	0	300	300	0	0	485	46	0	1	0	0	0	1	blank2r.bmp	0	1	BMVZ	0	1	blank2r.bmp	79	89	pic89.bmp	199	1	whitenoise_No3.bmp	306	0	0	0	0	0	0	0	0	0	0	0	0	0	0	0	0	0	0	0	0	0	0	0	0	0	0	0	0	0	0	0	0	0	0	0	0	0	0	0
013119	11:32:52	11:42:26	572879	5.0.10.0	4_exp_AMP_EVA_AWA_CON	104	Rpleas_acq	Oppo	Lpleas	Bmasked	CS_B	1pleas	distractor2	EVAbeforeCON	AMP_CSunple	AMP1_masked	6	48	0	0	300	300	0	0	300	46	0	0	0	0	0	1	blank2r.bmp	0	1	GKQX	0	1	blank2r.bmp	79	62	pic62.bmp	199	1	whitenoise_No3.bmp	306	0	0	0	0	0	0	0	0	0	0	0	0	0	0	0	0	0	0	0	0	0	0	0	0	0	0	0	0	0	0	0	0	0	0	0	0	0	0	0
013119	11:32:52	11:42:27	573958	5.0.10.0	4_exp_AMP_EVA_AWA_CON	104	Rpleas_acq	Oppo	Lpleas	Bmasked	CS_B	1pleas	distractor2	EVAbeforeCON	AMP_CSpleas	AMP1_masked	6	49	0	0	300	300	0	0	153	50	0	0	0	0	0	1	blank2r.bmp	0	1	BMVZ	0	1	blank2r.bmp	79	113	pic113.bmp	199	1	whitenoise_No3.bmp	306	0	0	0	0	0	0	0	0	0	0	0	0	0	0	0	0	0	0	0	0	0	0	0	0	0	0	0	0	0	0	0	0	0	0	0	0	0	0	0
013119	11:32:52	11:42:28	575264	5.0.10.0	4_exp_AMP_EVA_AWA_CON	104	Rpleas_acq	Oppo	Lpleas	Bmasked	CS_B	1pleas	distractor2	EVAbeforeCON	AMP_distractor	AMP1_masked	6	50	0	0	300	300	0	0	381	50	0	0	0	0	0	1	blank2r.bmp	0	1	JCRD	0	1	blank2r.bmp	79	97	pic97.bmp	199	1	whitenoise_No3.bmp	306	0	0	0	0	0	0	0	0	0	0	0	0	0	0	0	0	0	0	0	0	0	0	0	0	0	0	0	0	0	0	0	0	0	0	0	0	0	0	0
013119	11:32:52	11:42:29	576757	5.0.10.0	4_exp_AMP_EVA_AWA_CON	104	Rpleas_acq	Oppo	Lpleas	Bmasked	CS_B	1pleas	distractor2	EVAbeforeCON	AMP_distractor	AMP1_masked	6	51	0	0	300	300	0	0	566	46	0	0	0	0	0	1	blank2r.bmp	0	1	JCRD	0	1	blank2r.bmp	79	73	pic73.bmp	199	1	whitenoise_No3.bmp	306	0	0	0	0	0	0	0	0	0	0	0	0	0	0	0	0	0	0	0	0	0	0	0	0	0	0	0	0	0	0	0	0	0	0	0	0	0	0	0
013119	11:32:52	11:42:36	582954	5.0.10.0	4_exp_AMP_EVA_AWA_CON	104	Rpleas_acq	Oppo	Lpleas	Bmasked	CS_B	1pleas	distractor2	EVAbeforeCON	AMP_distractor	AMP23	7	1	0	0	300	300	0	0	704	50	0	0	0	0	0	1	blank2r.bmp	0	1	JCRD	0	1	blank2r.bmp	79	143	pic143.bmp	199	1	whitenoise_No3.bmp	306	0	0	0	0	0	0	0	0	0	0	0	0	0	0	0	0	0	0	0	0	0	0	0	0	0	0	0	0	0	0	0	0	0	0	0	0	0	0	0
013119	11:32:52	11:42:37	584167	5.0.10.0	4_exp_AMP_EVA_AWA_CON	104	Rpleas_acq	Oppo	Lpleas	Bmasked	CS_B	1pleas	distractor2	EVAbeforeCON	AMP_CSpleas	AMP23	7	2	0	0	300	300	0	0	291	50	0	0	0	0	0	1	blank2r.bmp	0	1	BMVZ	0	1	blank2r.bmp	79	99	pic99.bmp	199	1	whitenoise_No3.bmp	306	0	0	0	0	0	0	0	0	0	0	0	0	0	0	0	0	0	0	0	0	0	0	0	0	0	0	0	0	0	0	0	0	0	0	0	0	0	0	0
013119	11:32:52	11:42:38	585567	5.0.10.0	4_exp_AMP_EVA_AWA_CON	104	Rpleas_acq	Oppo	Lpleas	Bmasked	CS_B	1pleas	distractor2	EVAbeforeCON	AMP_distractor	AMP23	7	3	0	0	300	300	0	0	471	46	0	0	0	0	0	1	blank2r.bmp	0	1	JCRD	0	1	blank2r.bmp	79	35	pic35.bmp	199	1	whitenoise_No3.bmp	306	0	0	0	0	0	0	0	0	0	0	0	0	0	0	0	0	0	0	0	0	0	0	0	0	0	0	0	0	0	0	0	0	0	0	0	0	0	0	0
013119	11:32:52	11:42:40	586846	5.0.10.0	4_exp_AMP_EVA_AWA_CON	104	Rpleas_acq	Oppo	Lpleas	Bmasked	CS_B	1pleas	distractor2	EVAbeforeCON	AMP_CSpleas	AMP23	7	4	0	0	300	300	0	0	364	46	0	1	0	0	0	1	blank2r.bmp	0	1	BMVZ	0	1	blank2r.bmp	79	32	pic32.bmp	199	1	whitenoise_No3.bmp	306	0	0	0	0	0	0	0	0	0	0	0	0	0	0	0	0	0	0	0	0	0	0	0	0	0	0	0	0	0	0	0	0	0	0	0	0	0	0	0
013119	11:32:52	11:42:41	588072	5.0.10.0	4_exp_AMP_EVA_AWA_CON	104	Rpleas_acq	Oppo	Lpleas	Bmasked	CS_B	1pleas	distractor2	EVAbeforeCON	AMP_CSunple	AMP23	7	5	0	0	300	300	0	0	313	50	0	1	0	0	0	1	blank2r.bmp	0	1	GKQX	0	1	blank2r.bmp	79	137	pic137.bmp	199	1	whitenoise_No3.bmp	306	0	0	0	0	0	0	0	0	0	0	0	0	0	0	0	0	0	0	0	0	0	0	0	0	0	0	0	0	0	0	0	0	0	0	0	0	0	0	0
013119	11:32:52	11:42:42	589458	5.0.10.0	4_exp_AMP_EVA_AWA_CON	104	Rpleas_acq	Oppo	Lpleas	Bmasked	CS_B	1pleas	distractor2	EVAbeforeCON	AMP_CSpleas	AMP23	7	6	0	0	300	300	0	0	458	46	0	1	0	0	0	1	blank2r.bmp	0	1	BMVZ	0	1	blank2r.bmp	79	65	pic65.bmp	199	1	whitenoise_No3.bmp	306	0	0	0	0	0	0	0	0	0	0	0	0	0	0	0	0	0	0	0	0	0	0	0	0	0	0	0	0	0	0	0	0	0	0	0	0	0	0	0
013119	11:32:52	11:42:43	590604	5.0.10.0	4_exp_AMP_EVA_AWA_CON	104	Rpleas_acq	Oppo	Lpleas	Bmasked	CS_B	1pleas	distractor2	EVAbeforeCON	AMP_distractor	AMP23	7	7	0	0	300	300	0	0	223	50	0	0	0	0	0	1	blank2r.bmp	0	1	JCRD	0	1	blank2r.bmp	79	118	pic118.bmp	199	1	whitenoise_No3.bmp	306	0	0	0	0	0	0	0	0	0	0	0	0	0	0	0	0	0	0	0	0	0	0	0	0	0	0	0	0	0	0	0	0	0	0	0	0	0	0	0
013119	11:32:52	11:42:45	591871	5.0.10.0	4_exp_AMP_EVA_AWA_CON	104	Rpleas_acq	Oppo	Lpleas	Bmasked	CS_B	1pleas	distractor2	EVAbeforeCON	AMP_CSpleas	AMP23	7	8	0	0	300	300	0	0	346	50	0	0	0	0	0	1	blank2r.bmp	0	1	BMVZ	0	1	blank2r.bmp	79	142	pic142.bmp	199	1	whitenoise_No3.bmp	306	0	0	0	0	0	0	0	0	0	0	0	0	0	0	0	0	0	0	0	0	0	0	0	0	0	0	0	0	0	0	0	0	0	0	0	0	0	0	0
013119	11:32:52	11:42:46	593257	5.0.10.0	4_exp_AMP_EVA_AWA_CON	104	Rpleas_acq	Oppo	Lpleas	Bmasked	CS_B	1pleas	distractor2	EVAbeforeCON	AMP_CSunple	AMP23	7	9	0	0	300	300	0	0	468	50	0	1	0	0	0	1	blank2r.bmp	0	1	GKQX	0	1	blank2r.bmp	79	129	pic129.bmp	199	1	whitenoise_No3.bmp	306	0	0	0	0	0	0	0	0	0	0	0	0	0	0	0	0	0	0	0	0	0	0	0	0	0	0	0	0	0	0	0	0	0	0	0	0	0	0	0
013119	11:32:52	11:42:47	594403	5.0.10.0	4_exp_AMP_EVA_AWA_CON	104	Rpleas_acq	Oppo	Lpleas	Bmasked	CS_B	1pleas	distractor2	EVAbeforeCON	AMP_CSpleas	AMP23	7	10	0	0	300	300	0	0	233	46	0	1	0	0	0	1	blank2r.bmp	0	1	BMVZ	0	1	blank2r.bmp	79	82	pic82.bmp	199	1	whitenoise_No3.bmp	306	0	0	0	0	0	0	0	0	0	0	0	0	0	0	0	0	0	0	0	0	0	0	0	0	0	0	0	0	0	0	0	0	0	0	0	0	0	0	0
013119	11:32:52	11:42:48	595562	5.0.10.0	4_exp_AMP_EVA_AWA_CON	104	Rpleas_acq	Oppo	Lpleas	Bmasked	CS_B	1pleas	distractor2	EVAbeforeCON	AMP_CSpleas	AMP23	7	11	0	0	300	300	0	0	229	46	0	1	0	0	0	1	blank2r.bmp	0	1	BMVZ	0	1	blank2r.bmp	79	57	pic57.bmp	199	1	whitenoise_No3.bmp	306	0	0	0	0	0	0	0	0	0	0	0	0	0	0	0	0	0	0	0	0	0	0	0	0	0	0	0	0	0	0	0	0	0	0	0	0	0	0	0
013119	11:32:52	11:42:49	596695	5.0.10.0	4_exp_AMP_EVA_AWA_CON	104	Rpleas_acq	Oppo	Lpleas	Bmasked	CS_B	1pleas	distractor2	EVAbeforeCON	AMP_CSunple	AMP23	7	12	0	0	300	300	0	0	205	46	0	0	0	0	0	1	blank2r.bmp	0	1	GKQX	0	1	blank2r.bmp	79	80	pic80.bmp	199	1	whitenoise_No3.bmp	306	0	0	0	0	0	0	0	0	0	0	0	0	0	0	0	0	0	0	0	0	0	0	0	0	0	0	0	0	0	0	0	0	0	0	0	0	0	0	0
013119	11:32:52	11:42:51	597868	5.0.10.0	4_exp_AMP_EVA_AWA_CON	104	Rpleas_acq	Oppo	Lpleas	Bmasked	CS_B	1pleas	distractor2	EVAbeforeCON	AMP_distractor	AMP23	7	13	0	0	300	300	0	0	244	46	0	0	0	0	0	1	blank2r.bmp	0	1	JCRD	0	1	blank2r.bmp	79	109	pic109.bmp	199	1	whitenoise_No3.bmp	306	0	0	0	0	0	0	0	0	0	0	0	0	0	0	0	0	0	0	0	0	0	0	0	0	0	0	0	0	0	0	0	0	0	0	0	0	0	0	0
013119	11:32:52	11:42:52	599001	5.0.10.0	4_exp_AMP_EVA_AWA_CON	104	Rpleas_acq	Oppo	Lpleas	Bmasked	CS_B	1pleas	distractor2	EVAbeforeCON	AMP_distractor	AMP23	7	14	0	0	300	300	0	0	210	50	0	0	0	0	0	1	blank2r.bmp	0	1	JCRD	0	1	blank2r.bmp	79	144	pic144.bmp	199	1	whitenoise_No3.bmp	306	0	0	0	0	0	0	0	0	0	0	0	0	0	0	0	0	0	0	0	0	0	0	0	0	0	0	0	0	0	0	0	0	0	0	0	0	0	0	0
013119	11:32:52	11:42:53	600160	5.0.10.0	4_exp_AMP_EVA_AWA_CON	104	Rpleas_acq	Oppo	Lpleas	Bmasked	CS_B	1pleas	distractor2	EVAbeforeCON	AMP_CSunple	AMP23	7	15	0	0	300	300	0	0	235	46	0	0	0	0	0	1	blank2r.bmp	0	1	GKQX	0	1	blank2r.bmp	79	84	pic84.bmp	199	1	whitenoise_No3.bmp	306	0	0	0	0	0	0	0	0	0	0	0	0	0	0	0	0	0	0	0	0	0	0	0	0	0	0	0	0	0	0	0	0	0	0	0	0	0	0	0
013119	11:32:52	11:42:54	601333	5.0.10.0	4_exp_AMP_EVA_AWA_CON	104	Rpleas_acq	Oppo	Lpleas	Bmasked	CS_B	1pleas	distractor2	EVAbeforeCON	AMP_CSunple	AMP23	7	16	0	0	300	300	0	0	242	46	0	0	0	0	0	1	blank2r.bmp	0	1	GKQX	0	1	blank2r.bmp	79	85	pic85.bmp	199	1	whitenoise_No3.bmp	306	0	0	0	0	0	0	0	0	0	0	0	0	0	0	0	0	0	0	0	0	0	0	0	0	0	0	0	0	0	0	0	0	0	0	0	0	0	0	0
013119	11:32:52	11:42:55	602533	5.0.10.0	4_exp_AMP_EVA_AWA_CON	104	Rpleas_acq	Oppo	Lpleas	Bmasked	CS_B	1pleas	distractor2	EVAbeforeCON	AMP_CSpleas	AMP23	7	17	0	0	300	300	0	0	278	50	0	0	0	0	0	1	blank2r.bmp	0	1	BMVZ	0	1	blank2r.bmp	79	131	pic131.bmp	199	1	whitenoise_No3.bmp	306	0	0	0	0	0	0	0	0	0	0	0	0	0	0	0	0	0	0	0	0	0	0	0	0	0	0	0	0	0	0	0	0	0	0	0	0	0	0	0
013119	11:32:52	11:42:57	603799	5.0.10.0	4_exp_AMP_EVA_AWA_CON	104	Rpleas_acq	Oppo	Lpleas	Bmasked	CS_B	1pleas	distractor2	EVAbeforeCON	AMP_distractor	AMP23	7	18	0	0	300	300	0	0	341	50	0	0	0	0	0	1	blank2r.bmp	0	1	JCRD	0	1	blank2r.bmp	79	95	pic95.bmp	199	1	whitenoise_No3.bmp	306	0	0	0	0	0	0	0	0	0	0	0	0	0	0	0	0	0	0	0	0	0	0	0	0	0	0	0	0	0	0	0	0	0	0	0	0	0	0	0
013119	11:32:52	11:42:58	604972	5.0.10.0	4_exp_AMP_EVA_AWA_CON	104	Rpleas_acq	Oppo	Lpleas	Bmasked	CS_B	1pleas	distractor2	EVAbeforeCON	AMP_distractor	AMP23	7	19	0	0	300	300	0	0	247	50	0	0	0	0	0	1	blank2r.bmp	0	1	JCRD	0	1	blank2r.bmp	79	79	pic79.bmp	199	1	whitenoise_No3.bmp	306	0	0	0	0	0	0	0	0	0	0	0	0	0	0	0	0	0	0	0	0	0	0	0	0	0	0	0	0	0	0	0	0	0	0	0	0	0	0	0
013119	11:32:52	11:42:59	606145	5.0.10.0	4_exp_AMP_EVA_AWA_CON	104	Rpleas_acq	Oppo	Lpleas	Bmasked	CS_B	1pleas	distractor2	EVAbeforeCON	AMP_CSpleas	AMP23	7	20	0	0	300	300	0	0	258	46	0	1	0	0	0	1	blank2r.bmp	0	1	BMVZ	0	1	blank2r.bmp	79	72	pic72.bmp	199	1	whitenoise_No3.bmp	306	0	0	0	0	0	0	0	0	0	0	0	0	0	0	0	0	0	0	0	0	0	0	0	0	0	0	0	0	0	0	0	0	0	0	0	0	0	0	0
013119	11:32:52	11:43:00	607237	5.0.10.0	4_exp_AMP_EVA_AWA_CON	104	Rpleas_acq	Oppo	Lpleas	Bmasked	CS_B	1pleas	distractor2	EVAbeforeCON	AMP_CSunple	AMP23	7	21	0	0	300	300	0	0	177	50	0	1	0	0	0	1	blank2r.bmp	0	1	GKQX	0	1	blank2r.bmp	79	128	pic128.bmp	199	1	whitenoise_No3.bmp	306	0	0	0	0	0	0	0	0	0	0	0	0	0	0	0	0	0	0	0	0	0	0	0	0	0	0	0	0	0	0	0	0	0	0	0	0	0	0	0
013119	11:32:52	11:43:01	608397	5.0.10.0	4_exp_AMP_EVA_AWA_CON	104	Rpleas_acq	Oppo	Lpleas	Bmasked	CS_B	1pleas	distractor2	EVAbeforeCON	AMP_CSpleas	AMP23	7	22	0	0	300	300	0	0	244	46	0	1	0	0	0	1	blank2r.bmp	0	1	BMVZ	0	1	blank2r.bmp	79	10	pic10.bmp	199	1	whitenoise_No3.bmp	306	0	0	0	0	0	0	0	0	0	0	0	0	0	0	0	0	0	0	0	0	0	0	0	0	0	0	0	0	0	0	0	0	0	0	0	0	0	0	0
013119	11:32:52	11:43:02	609490	5.0.10.0	4_exp_AMP_EVA_AWA_CON	104	Rpleas_acq	Oppo	Lpleas	Bmasked	CS_B	1pleas	distractor2	EVAbeforeCON	AMP_CSunple	AMP23	7	23	0	0	300	300	0	0	170	46	0	0	0	0	0	1	blank2r.bmp	0	1	GKQX	0	1	blank2r.bmp	79	69	pic69.bmp	199	1	whitenoise_No3.bmp	306	0	0	0	0	0	0	0	0	0	0	0	0	0	0	0	0	0	0	0	0	0	0	0	0	0	0	0	0	0	0	0	0	0	0	0	0	0	0	0
013119	11:32:52	11:43:03	610636	5.0.10.0	4_exp_AMP_EVA_AWA_CON	104	Rpleas_acq	Oppo	Lpleas	Bmasked	CS_B	1pleas	distractor2	EVAbeforeCON	AMP_distractor	AMP23	7	24	0	0	300	300	0	0	215	46	0	0	0	0	0	1	blank2r.bmp	0	1	JCRD	0	1	blank2r.bmp	79	60	pic60.bmp	199	1	whitenoise_No3.bmp	306	0	0	0	0	0	0	0	0	0	0	0	0	0	0	0	0	0	0	0	0	0	0	0	0	0	0	0	0	0	0	0	0	0	0	0	0	0	0	0
013119	11:32:52	11:43:05	611902	5.0.10.0	4_exp_AMP_EVA_AWA_CON	104	Rpleas_acq	Oppo	Lpleas	Bmasked	CS_B	1pleas	distractor2	EVAbeforeCON	AMP_distractor	AMP23	7	25	0	0	300	300	0	0	354	46	0	0	0	0	0	1	blank2r.bmp	0	1	JCRD	0	1	blank2r.bmp	79	152	pic152.bmp	199	1	whitenoise_No3.bmp	306	0	0	0	0	0	0	0	0	0	0	0	0	0	0	0	0	0	0	0	0	0	0	0	0	0	0	0	0	0	0	0	0	0	0	0	0	0	0	0
013119	11:32:52	11:43:06	613128	5.0.10.0	4_exp_AMP_EVA_AWA_CON	104	Rpleas_acq	Oppo	Lpleas	Bmasked	CS_B	1pleas	distractor2	EVAbeforeCON	AMP_distractor	AMP23	7	26	0	0	300	300	0	0	304	46	0	0	0	0	0	1	blank2r.bmp	0	1	JCRD	0	1	blank2r.bmp	79	29	pic29.bmp	199	1	whitenoise_No3.bmp	306	0	0	0	0	0	0	0	0	0	0	0	0	0	0	0	0	0	0	0	0	0	0	0	0	0	0	0	0	0	0	0	0	0	0	0	0	0	0	0
013119	11:32:52	11:43:07	614301	5.0.10.0	4_exp_AMP_EVA_AWA_CON	104	Rpleas_acq	Oppo	Lpleas	Bmasked	CS_B	1pleas	distractor2	EVAbeforeCON	AMP_distractor	AMP23	7	27	0	0	300	300	0	0	245	46	0	0	0	0	0	1	blank2r.bmp	0	1	JCRD	0	1	blank2r.bmp	79	14	pic14.bmp	199	1	whitenoise_No3.bmp	306	0	0	0	0	0	0	0	0	0	0	0	0	0	0	0	0	0	0	0	0	0	0	0	0	0	0	0	0	0	0	0	0	0	0	0	0	0	0	0
013119	11:32:52	11:43:08	615567	5.0.10.0	4_exp_AMP_EVA_AWA_CON	104	Rpleas_acq	Oppo	Lpleas	Bmasked	CS_B	1pleas	distractor2	EVAbeforeCON	AMP_CSunple	AMP23	7	28	0	0	300	300	0	0	347	50	0	1	0	0	0	1	blank2r.bmp	0	1	GKQX	0	1	blank2r.bmp	79	38	pic38.bmp	199	1	whitenoise_No3.bmp	306	0	0	0	0	0	0	0	0	0	0	0	0	0	0	0	0	0	0	0	0	0	0	0	0	0	0	0	0	0	0	0	0	0	0	0	0	0	0	0
013119	11:32:52	11:43:10	616927	5.0.10.0	4_exp_AMP_EVA_AWA_CON	104	Rpleas_acq	Oppo	Lpleas	Bmasked	CS_B	1pleas	distractor2	EVAbeforeCON	AMP_CSunple	AMP23	7	29	0	0	300	300	0	0	446	46	0	0	0	0	0	1	blank2r.bmp	0	1	GKQX	0	1	blank2r.bmp	79	81	pic81.bmp	199	1	whitenoise_No3.bmp	306	0	0	0	0	0	0	0	0	0	0	0	0	0	0	0	0	0	0	0	0	0	0	0	0	0	0	0	0	0	0	0	0	0	0	0	0	0	0	0
013119	11:32:52	11:43:11	618353	5.0.10.0	4_exp_AMP_EVA_AWA_CON	104	Rpleas_acq	Oppo	Lpleas	Bmasked	CS_B	1pleas	distractor2	EVAbeforeCON	AMP_CSpleas	AMP23	7	30	0	0	300	300	0	0	494	46	0	1	0	0	0	1	blank2r.bmp	0	1	BMVZ	0	1	blank2r.bmp	79	24	pic24.bmp	199	1	whitenoise_No3.bmp	306	0	0	0	0	0	0	0	0	0	0	0	0	0	0	0	0	0	0	0	0	0	0	0	0	0	0	0	0	0	0	0	0	0	0	0	0	0	0	0
013119	11:32:52	11:43:12	619472	5.0.10.0	4_exp_AMP_EVA_AWA_CON	104	Rpleas_acq	Oppo	Lpleas	Bmasked	CS_B	1pleas	distractor2	EVAbeforeCON	AMP_distractor	AMP23	7	31	0	0	300	300	0	0	195	50	0	0	0	0	0	1	blank2r.bmp	0	1	JCRD	0	1	blank2r.bmp	79	150	pic150.bmp	199	1	whitenoise_No3.bmp	306	0	0	0	0	0	0	0	0	0	0	0	0	0	0	0	0	0	0	0	0	0	0	0	0	0	0	0	0	0	0	0	0	0	0	0	0	0	0	0
013119	11:32:52	11:43:13	620725	5.0.10.0	4_exp_AMP_EVA_AWA_CON	104	Rpleas_acq	Oppo	Lpleas	Bmasked	CS_B	1pleas	distractor2	EVAbeforeCON	AMP_distractor	AMP23	7	32	0	0	300	300	0	0	325	50	0	0	0	0	0	1	blank2r.bmp	0	1	JCRD	0	1	blank2r.bmp	79	77	pic77.bmp	199	1	whitenoise_No3.bmp	306	0	0	0	0	0	0	0	0	0	0	0	0	0	0	0	0	0	0	0	0	0	0	0	0	0	0	0	0	0	0	0	0	0	0	0	0	0	0	0
013119	11:32:52	11:43:15	621978	5.0.10.0	4_exp_AMP_EVA_AWA_CON	104	Rpleas_acq	Oppo	Lpleas	Bmasked	CS_B	1pleas	distractor2	EVAbeforeCON	AMP_CSunple	AMP23	7	33	0	0	300	300	0	0	322	50	0	1	0	0	0	1	blank2r.bmp	0	1	GKQX	0	1	blank2r.bmp	79	98	pic98.bmp	199	1	whitenoise_No3.bmp	306	0	0	0	0	0	0	0	0	0	0	0	0	0	0	0	0	0	0	0	0	0	0	0	0	0	0	0	0	0	0	0	0	0	0	0	0	0	0	0
013119	11:32:52	11:43:16	623164	5.0.10.0	4_exp_AMP_EVA_AWA_CON	104	Rpleas_acq	Oppo	Lpleas	Bmasked	CS_B	1pleas	distractor2	EVAbeforeCON	AMP_CSpleas	AMP23	7	34	0	0	300	300	0	0	272	46	0	1	0	0	0	1	blank2r.bmp	0	1	BMVZ	0	1	blank2r.bmp	79	51	pic51.bmp	199	1	whitenoise_No3.bmp	306	0	0	0	0	0	0	0	0	0	0	0	0	0	0	0	0	0	0	0	0	0	0	0	0	0	0	0	0	0	0	0	0	0	0	0	0	0	0	0
013119	11:32:52	11:43:17	624337	5.0.10.0	4_exp_AMP_EVA_AWA_CON	104	Rpleas_acq	Oppo	Lpleas	Bmasked	CS_B	1pleas	distractor2	EVAbeforeCON	AMP_distractor	AMP23	7	35	0	0	300	300	0	0	262	46	0	0	0	0	0	1	blank2r.bmp	0	1	JCRD	0	1	blank2r.bmp	79	71	pic71.bmp	199	1	whitenoise_No3.bmp	306	0	0	0	0	0	0	0	0	0	0	0	0	0	0	0	0	0	0	0	0	0	0	0	0	0	0	0	0	0	0	0	0	0	0	0	0	0	0	0
