date	time	script.currenttime	script.elapsedtime	build	script.currentexpt	subject	expressions.LRpleas_acq	expressions.SameOppo	expressions.condition_Lpleas	expressions.ABmasked	expressions.conditionCS_A	expressions.condition_1pleas	expressions.condition_distractor_AMP	expressions.AWACON_AMPEVA_first	trialcode	blockcode	blocknum	trialnum	windowcenter	inwindow	pretrialpause	posttrialpause	trialduration	trialtimeout	latency	response	expressions.correctedscore	correct	values.vis_performance	values.vis_rating_sum	values.vis_rating_mean	stimulusnumber1	stimulusitem1	stimulusonset1	stimulusnumber2	stimulusitem2	stimulusonset2	stimulusnumber3	stimulusitem3	stimulusonset3	stimulusnumber4	stimulusitem4	stimulusonset4	stimulusnumber5	stimulusitem5	stimulusonset5	stimulusnumber6	stimulusitem6	stimulusonset6	stimulusnumber7	stimulusitem7	stimulusonset7	stimulusnumber8	stimulusitem8	stimulusonset8	stimulusnumber9	stimulusitem9	stimulusonset9	stimulusnumber10	stimulusitem10	stimulusonset10	stimulusnumber11	stimulusitem11	stimulusonset11	stimulusnumber12	stimulusitem12	stimulusonset12	stimulusnumber13	stimulusitem13	stimulusonset13	stimulusnumber14	stimulusitem14	stimulusonset14	stimulusnumber15	stimulusitem15	stimulusonset15	stimulusnumber16	stimulusitem16	stimulusonset16	stimulusnumber17	stimulusitem17	stimulusonset17	stimulusnumber18	stimulusitem18	stimulusonset18
030619	11:38:19	11:40:24	124681	5.0.10.0	4_exp_AMP_EVA_AWA_CON	144	Rpleas_acq	Oppo	Rpleas	Amasked	CS_A	1pleas	distractor2	EVAbeforeCON	acq_new_pleas_masked	acq1_masked	1	1	0	0	300	300	0	0	2444	46	0	0	0	0	0	1	blank2r.bmp	0	1	+	0	8	C4r.bmp	492	1	blank2r.bmp	786	7	C3r.bmp	786	1	blank2r.bmp	866	3	gesittet	866	1	FEHLER	3345	0	0	0	0	0	0	0	0	0	0	0	0	0	0	0	0	0	0	0	0	0	0	0	0	0	0	0	0	0	0
030619	11:38:19	11:40:27	126894	5.0.10.0	4_exp_AMP_EVA_AWA_CON	144	Rpleas_acq	Oppo	Rpleas	Amasked	CS_A	1pleas	distractor2	EVAbeforeCON	acq_new_unple_masked	acq1_masked	1	2	0	0	300	300	0	0	935	46	0	1	0	0	0	1	blank2r.bmp	0	1	+	0	5	C1r.bmp	492	1	blank2r.bmp	786	6	C2r.bmp	786	1	blank2r.bmp	866	5	töten	866	0	0	0	0	0	0	0	0	0	0	0	0	0	0	0	0	0	0	0	0	0	0	0	0	0	0	0	0	0	0	0	0	0
030619	11:38:19	11:40:29	129306	5.0.10.0	4_exp_AMP_EVA_AWA_CON	144	Rpleas_acq	Oppo	Rpleas	Amasked	CS_A	1pleas	distractor2	EVAbeforeCON	acq_new_unple_masked	acq1_masked	1	3	0	0	300	300	0	0	940	46	0	1	0	0	0	1	blank2r.bmp	0	1	+	0	1	B1r.bmp	492	1	blank2r.bmp	786	5	C1r.bmp	786	1	blank2r.bmp	866	6	sterben	866	0	0	0	0	0	0	0	0	0	0	0	0	0	0	0	0	0	0	0	0	0	0	0	0	0	0	0	0	0	0	0	0	0
030619	11:38:19	11:40:32	131891	5.0.10.0	4_exp_AMP_EVA_AWA_CON	144	Rpleas_acq	Oppo	Rpleas	Amasked	CS_A	1pleas	distractor2	EVAbeforeCON	acq_new_pleas_masked	acq1_masked	1	4	0	0	300	300	0	0	1099	50	0	1	0	0	0	1	blank2r.bmp	0	1	+	0	2	B2r.bmp	492	1	blank2r.bmp	786	3	B3r.bmp	786	1	blank2r.bmp	866	4	vergnügt	866	0	0	0	0	0	0	0	0	0	0	0	0	0	0	0	0	0	0	0	0	0	0	0	0	0	0	0	0	0	0	0	0	0
030619	11:38:19	11:40:34	134357	5.0.10.0	4_exp_AMP_EVA_AWA_CON	144	Rpleas_acq	Oppo	Rpleas	Amasked	CS_A	1pleas	distractor2	EVAbeforeCON	acq_US_unple_masked	acq1_masked	1	5	0	0	300	300	0	0	974	46	0	1	0	0	0	1	blank2r.bmp	0	1	+	0	6	C2r.bmp	492	1	blank2r.bmp	786	1	DHJF	786	1	blank2r.bmp	866	3	engstirnig	866	0	0	0	0	0	0	0	0	0	0	0	0	0	0	0	0	0	0	0	0	0	0	0	0	0	0	0	0	0	0	0	0	0
030619	11:38:19	11:40:36	136556	5.0.10.0	4_exp_AMP_EVA_AWA_CON	144	Rpleas_acq	Oppo	Rpleas	Amasked	CS_A	1pleas	distractor2	EVAbeforeCON	acq_US_unple_masked	acq1_masked	1	6	0	0	300	300	0	0	718	46	0	1	0	0	0	1	blank2r.bmp	0	1	+	0	7	C3r.bmp	492	1	blank2r.bmp	786	1	DHJF	786	1	blank2r.bmp	866	4	ausrottung	866	0	0	0	0	0	0	0	0	0	0	0	0	0	0	0	0	0	0	0	0	0	0	0	0	0	0	0	0	0	0	0	0	0
030619	11:38:19	11:40:38	138822	5.0.10.0	4_exp_AMP_EVA_AWA_CON	144	Rpleas_acq	Oppo	Rpleas	Amasked	CS_A	1pleas	distractor2	EVAbeforeCON	acq_US_pleas_masked	acq1_masked	1	7	0	0	300	300	0	0	790	50	0	1	0	0	0	1	blank2r.bmp	0	1	+	0	4	B4r.bmp	492	1	blank2r.bmp	786	1	CPLW	786	1	blank2r.bmp	866	6	genießen	866	0	0	0	0	0	0	0	0	0	0	0	0	0	0	0	0	0	0	0	0	0	0	0	0	0	0	0	0	0	0	0	0	0
030619	11:38:19	11:40:40	140715	5.0.10.0	4_exp_AMP_EVA_AWA_CON	144	Rpleas_acq	Oppo	Rpleas	Amasked	CS_A	1pleas	distractor2	EVAbeforeCON	acq_US_unple_masked	acq1_masked	1	8	0	0	300	300	0	0	404	46	0	1	0	0	0	1	blank2r.bmp	0	1	+	0	3	B3r.bmp	492	1	blank2r.bmp	786	1	DHJF	786	1	blank2r.bmp	866	6	gemein	866	0	0	0	0	0	0	0	0	0	0	0	0	0	0	0	0	0	0	0	0	0	0	0	0	0	0	0	0	0	0	0	0	0
030619	11:38:19	11:40:42	142834	5.0.10.0	4_exp_AMP_EVA_AWA_CON	144	Rpleas_acq	Oppo	Rpleas	Amasked	CS_A	1pleas	distractor2	EVAbeforeCON	acq_new_pleas_masked	acq1_masked	1	9	0	0	300	300	0	0	647	50	0	1	0	0	0	1	blank2r.bmp	0	1	+	0	2	B2r.bmp	492	1	blank2r.bmp	786	4	B4r.bmp	786	1	blank2r.bmp	866	2	kuss	866	0	0	0	0	0	0	0	0	0	0	0	0	0	0	0	0	0	0	0	0	0	0	0	0	0	0	0	0	0	0	0	0	0
030619	11:38:19	11:40:45	144926	5.0.10.0	4_exp_AMP_EVA_AWA_CON	144	Rpleas_acq	Oppo	Rpleas	Amasked	CS_A	1pleas	distractor2	EVAbeforeCON	acq_US_pleas_masked	acq1_masked	1	10	0	0	300	300	0	0	606	50	0	1	0	0	0	1	blank2r.bmp	0	1	+	0	6	C2r.bmp	492	1	blank2r.bmp	786	1	CPLW	786	1	blank2r.bmp	866	3	engagiert	866	0	0	0	0	0	0	0	0	0	0	0	0	0	0	0	0	0	0	0	0	0	0	0	0	0	0	0	0	0	0	0	0	0
030619	11:38:19	11:40:47	146939	5.0.10.0	4_exp_AMP_EVA_AWA_CON	144	Rpleas_acq	Oppo	Rpleas	Amasked	CS_A	1pleas	distractor2	EVAbeforeCON	acq_new_unple_masked	acq1_masked	1	11	0	0	300	300	0	0	526	46	0	1	0	0	0	1	blank2r.bmp	0	1	+	0	3	B3r.bmp	492	1	blank2r.bmp	786	2	B2r.bmp	786	1	blank2r.bmp	866	3	geizig	866	0	0	0	0	0	0	0	0	0	0	0	0	0	0	0	0	0	0	0	0	0	0	0	0	0	0	0	0	0	0	0	0	0
030619	11:38:19	11:40:49	149018	5.0.10.0	4_exp_AMP_EVA_AWA_CON	144	Rpleas_acq	Oppo	Rpleas	Amasked	CS_A	1pleas	distractor2	EVAbeforeCON	acq_US_pleas_masked	acq1_masked	1	12	0	0	300	300	0	0	590	50	0	1	0	0	0	1	blank2r.bmp	0	1	+	0	7	C3r.bmp	492	1	blank2r.bmp	786	1	CPLW	786	1	blank2r.bmp	866	5	besonnen	866	0	0	0	0	0	0	0	0	0	0	0	0	0	0	0	0	0	0	0	0	0	0	0	0	0	0	0	0	0	0	0	0	0
030619	11:38:19	11:40:51	151177	5.0.10.0	4_exp_AMP_EVA_AWA_CON	144	Rpleas_acq	Oppo	Rpleas	Amasked	CS_A	1pleas	distractor2	EVAbeforeCON	acq_US_pleas_masked	acq1_masked	1	13	0	0	300	300	0	0	687	50	0	1	0	0	0	1	blank2r.bmp	0	1	+	0	5	C1r.bmp	492	1	blank2r.bmp	786	1	CPLW	786	1	blank2r.bmp	866	4	anregung	866	0	0	0	0	0	0	0	0	0	0	0	0	0	0	0	0	0	0	0	0	0	0	0	0	0	0	0	0	0	0	0	0	0
030619	11:38:19	11:40:53	153376	5.0.10.0	4_exp_AMP_EVA_AWA_CON	144	Rpleas_acq	Oppo	Rpleas	Amasked	CS_A	1pleas	distractor2	EVAbeforeCON	acq_new_unple_masked	acq1_masked	1	14	0	0	300	300	0	0	496	50	0	0	0	0	0	1	blank2r.bmp	0	1	+	0	4	B4r.bmp	492	1	blank2r.bmp	786	8	C4r.bmp	786	1	blank2r.bmp	866	1	versagen	866	1	FEHLER	1399	0	0	0	0	0	0	0	0	0	0	0	0	0	0	0	0	0	0	0	0	0	0	0	0	0	0	0	0	0	0
030619	11:38:19	11:40:55	155202	5.0.10.0	4_exp_AMP_EVA_AWA_CON	144	Rpleas_acq	Oppo	Rpleas	Amasked	CS_A	1pleas	distractor2	EVAbeforeCON	acq_new_pleas_masked	acq1_masked	1	15	0	0	300	300	0	0	557	50	0	1	0	0	0	1	blank2r.bmp	0	1	+	0	1	B1r.bmp	492	1	blank2r.bmp	786	1	B1r.bmp	786	1	blank2r.bmp	866	1	vertrauen	866	0	0	0	0	0	0	0	0	0	0	0	0	0	0	0	0	0	0	0	0	0	0	0	0	0	0	0	0	0	0	0	0	0
030619	11:38:19	11:40:57	157241	5.0.10.0	4_exp_AMP_EVA_AWA_CON	144	Rpleas_acq	Oppo	Rpleas	Amasked	CS_A	1pleas	distractor2	EVAbeforeCON	acq_new_unple_masked	acq1_masked	1	16	0	0	300	300	0	0	552	46	0	1	0	0	0	1	blank2r.bmp	0	1	+	0	8	C4r.bmp	492	1	blank2r.bmp	786	2	B2r.bmp	786	1	blank2r.bmp	866	4	verbissen	866	0	0	0	0	0	0	0	0	0	0	0	0	0	0	0	0	0	0	0	0	0	0	0	0	0	0	0	0	0	0	0	0	0
030619	11:38:19	11:40:59	159187	5.0.10.0	4_exp_AMP_EVA_AWA_CON	144	Rpleas_acq	Oppo	Rpleas	Amasked	CS_A	1pleas	distractor2	EVAbeforeCON	acq_US_unple_masked	acq1_masked	1	17	0	0	300	300	0	0	463	46	0	1	0	0	0	1	blank2r.bmp	0	1	+	0	1	B1r.bmp	492	1	blank2r.bmp	786	1	DHJF	786	1	blank2r.bmp	866	1	gierig	866	0	0	0	0	0	0	0	0	0	0	0	0	0	0	0	0	0	0	0	0	0	0	0	0	0	0	0	0	0	0	0	0	0
030619	11:38:19	11:41:01	161266	5.0.10.0	4_exp_AMP_EVA_AWA_CON	144	Rpleas_acq	Oppo	Rpleas	Amasked	CS_A	1pleas	distractor2	EVAbeforeCON	acq_US_unple_masked	acq1_masked	1	18	0	0	300	300	0	0	595	46	0	1	0	0	0	1	blank2r.bmp	0	1	+	0	4	B4r.bmp	492	1	blank2r.bmp	786	1	DHJF	786	1	blank2r.bmp	866	2	krank	866	0	0	0	0	0	0	0	0	0	0	0	0	0	0	0	0	0	0	0	0	0	0	0	0	0	0	0	0	0	0	0	0	0
030619	11:38:19	11:41:03	163225	5.0.10.0	4_exp_AMP_EVA_AWA_CON	144	Rpleas_acq	Oppo	Rpleas	Amasked	CS_A	1pleas	distractor2	EVAbeforeCON	acq_new_unple_masked	acq1_masked	1	19	0	0	300	300	0	0	474	46	0	1	0	0	0	1	blank2r.bmp	0	1	+	0	8	C4r.bmp	492	1	blank2r.bmp	786	4	B4r.bmp	786	1	blank2r.bmp	866	2	krise	866	0	0	0	0	0	0	0	0	0	0	0	0	0	0	0	0	0	0	0	0	0	0	0	0	0	0	0	0	0	0	0	0	0
030619	11:38:19	11:41:05	165171	5.0.10.0	4_exp_AMP_EVA_AWA_CON	144	Rpleas_acq	Oppo	Rpleas	Amasked	CS_A	1pleas	distractor2	EVAbeforeCON	acq_new_pleas_masked	acq1_masked	1	20	0	0	300	300	0	0	477	50	0	1	0	0	0	1	blank2r.bmp	0	1	+	0	3	B3r.bmp	492	1	blank2r.bmp	786	8	C4r.bmp	786	1	blank2r.bmp	866	6	sonnig	866	0	0	0	0	0	0	0	0	0	0	0	0	0	0	0	0	0	0	0	0	0	0	0	0	0	0	0	0	0	0	0	0	0
030619	11:38:19	11:41:07	167224	5.0.10.0	4_exp_AMP_EVA_AWA_CON	144	Rpleas_acq	Oppo	Rpleas	Amasked	CS_A	1pleas	distractor2	EVAbeforeCON	acq_new_pleas_masked	acq1_masked	1	21	0	0	300	300	0	0	564	50	0	1	0	0	0	1	blank2r.bmp	0	1	+	0	7	C3r.bmp	492	1	blank2r.bmp	786	1	B1r.bmp	786	1	blank2r.bmp	866	5	träumen	866	0	0	0	0	0	0	0	0	0	0	0	0	0	0	0	0	0	0	0	0	0	0	0	0	0	0	0	0	0	0	0	0	0
030619	11:38:19	11:41:09	169129	5.0.10.0	4_exp_AMP_EVA_AWA_CON	144	Rpleas_acq	Oppo	Rpleas	Amasked	CS_A	1pleas	distractor2	EVAbeforeCON	acq_US_pleas_masked	acq1_masked	1	22	0	0	300	300	0	0	427	50	0	1	0	0	0	1	blank2r.bmp	0	1	+	0	2	B2r.bmp	492	1	blank2r.bmp	786	1	CPLW	786	1	blank2r.bmp	866	2	kreativ	866	0	0	0	0	0	0	0	0	0	0	0	0	0	0	0	0	0	0	0	0	0	0	0	0	0	0	0	0	0	0	0	0	0
030619	11:38:19	11:41:11	171422	5.0.10.0	4_exp_AMP_EVA_AWA_CON	144	Rpleas_acq	Oppo	Rpleas	Amasked	CS_A	1pleas	distractor2	EVAbeforeCON	acq_US_unple_masked	acq1_masked	1	23	0	0	300	300	0	0	601	50	0	0	0	0	0	1	blank2r.bmp	0	1	+	0	6	C2r.bmp	492	1	blank2r.bmp	786	1	DHJF	786	1	blank2r.bmp	866	5	bange	866	1	FEHLER	1506	0	0	0	0	0	0	0	0	0	0	0	0	0	0	0	0	0	0	0	0	0	0	0	0	0	0	0	0	0	0
030619	11:38:19	11:41:14	173914	5.0.10.0	4_exp_AMP_EVA_AWA_CON	144	Rpleas_acq	Oppo	Rpleas	Amasked	CS_A	1pleas	distractor2	EVAbeforeCON	acq_US_pleas_masked	acq1_masked	1	24	0	0	300	300	0	0	1217	50	0	1	0	0	0	1	blank2r.bmp	0	1	+	0	5	C1r.bmp	492	1	blank2r.bmp	786	1	CPLW	786	1	blank2r.bmp	866	1	gütig	866	0	0	0	0	0	0	0	0	0	0	0	0	0	0	0	0	0	0	0	0	0	0	0	0	0	0	0	0	0	0	0	0	0
030619	11:38:19	11:41:16	176047	5.0.10.0	4_exp_AMP_EVA_AWA_CON	144	Rpleas_acq	Oppo	Rpleas	Amasked	CS_A	1pleas	distractor2	EVAbeforeCON	acq_US_unple_masked	acq1_masked	1	25	0	0	300	300	0	0	660	46	0	1	0	0	0	1	blank2r.bmp	0	1	+	0	1	B1r.bmp	492	1	blank2r.bmp	786	1	DHJF	786	1	blank2r.bmp	866	5	bange	866	0	0	0	0	0	0	0	0	0	0	0	0	0	0	0	0	0	0	0	0	0	0	0	0	0	0	0	0	0	0	0	0	0
030619	11:38:19	11:41:18	178032	5.0.10.0	4_exp_AMP_EVA_AWA_CON	144	Rpleas_acq	Oppo	Rpleas	Amasked	CS_A	1pleas	distractor2	EVAbeforeCON	acq_US_unple_masked	acq1_masked	1	26	0	0	300	300	0	0	502	46	0	1	0	0	0	1	blank2r.bmp	0	1	+	0	7	C3r.bmp	492	1	blank2r.bmp	786	1	DHJF	786	1	blank2r.bmp	866	4	ausrottung	866	0	0	0	0	0	0	0	0	0	0	0	0	0	0	0	0	0	0	0	0	0	0	0	0	0	0	0	0	0	0	0	0	0
030619	11:38:19	11:41:20	180352	5.0.10.0	4_exp_AMP_EVA_AWA_CON	144	Rpleas_acq	Oppo	Rpleas	Amasked	CS_A	1pleas	distractor2	EVAbeforeCON	acq_US_pleas_masked	acq1_masked	1	27	0	0	300	300	0	0	828	50	0	1	0	0	0	1	blank2r.bmp	0	1	+	0	8	C4r.bmp	492	1	blank2r.bmp	786	1	CPLW	786	1	blank2r.bmp	866	4	anregung	866	0	0	0	0	0	0	0	0	0	0	0	0	0	0	0	0	0	0	0	0	0	0	0	0	0	0	0	0	0	0	0	0	0
030619	11:38:19	11:41:22	182391	5.0.10.0	4_exp_AMP_EVA_AWA_CON	144	Rpleas_acq	Oppo	Rpleas	Amasked	CS_A	1pleas	distractor2	EVAbeforeCON	acq_new_unple_masked	acq1_masked	1	28	0	0	300	300	0	0	554	46	0	1	0	0	0	1	blank2r.bmp	0	1	+	0	3	B3r.bmp	492	1	blank2r.bmp	786	6	C2r.bmp	786	1	blank2r.bmp	866	6	sterben	866	0	0	0	0	0	0	0	0	0	0	0	0	0	0	0	0	0	0	0	0	0	0	0	0	0	0	0	0	0	0	0	0	0
030619	11:38:19	11:41:24	184776	5.0.10.0	4_exp_AMP_EVA_AWA_CON	144	Rpleas_acq	Oppo	Rpleas	Amasked	CS_A	1pleas	distractor2	EVAbeforeCON	acq_new_pleas_masked	acq1_masked	1	29	0	0	300	300	0	0	897	50	0	1	0	0	0	1	blank2r.bmp	0	1	+	0	5	C1r.bmp	492	1	blank2r.bmp	786	7	C3r.bmp	786	1	blank2r.bmp	866	3	gesittet	866	0	0	0	0	0	0	0	0	0	0	0	0	0	0	0	0	0	0	0	0	0	0	0	0	0	0	0	0	0	0	0	0	0
030619	11:38:19	11:41:27	187135	5.0.10.0	4_exp_AMP_EVA_AWA_CON	144	Rpleas_acq	Oppo	Rpleas	Amasked	CS_A	1pleas	distractor2	EVAbeforeCON	acq_new_unple_masked	acq1_masked	1	30	0	0	300	300	0	0	876	46	0	1	0	0	0	1	blank2r.bmp	0	1	+	0	2	B2r.bmp	492	1	blank2r.bmp	786	3	B3r.bmp	786	1	blank2r.bmp	866	5	töten	866	0	0	0	0	0	0	0	0	0	0	0	0	0	0	0	0	0	0	0	0	0	0	0	0	0	0	0	0	0	0	0	0	0
030619	11:38:19	11:41:30	189908	5.0.10.0	4_exp_AMP_EVA_AWA_CON	144	Rpleas_acq	Oppo	Rpleas	Amasked	CS_A	1pleas	distractor2	EVAbeforeCON	acq_new_pleas_masked	acq1_masked	1	31	0	0	300	300	0	0	1285	50	0	1	0	0	0	1	blank2r.bmp	0	1	+	0	6	C2r.bmp	492	1	blank2r.bmp	786	5	C1r.bmp	786	1	blank2r.bmp	866	4	vergnügt	866	0	0	0	0	0	0	0	0	0	0	0	0	0	0	0	0	0	0	0	0	0	0	0	0	0	0	0	0	0	0	0	0	0
030619	11:38:19	11:41:32	192013	5.0.10.0	4_exp_AMP_EVA_AWA_CON	144	Rpleas_acq	Oppo	Rpleas	Amasked	CS_A	1pleas	distractor2	EVAbeforeCON	acq_US_unple_masked	acq1_masked	1	32	0	0	300	300	0	0	621	46	0	1	0	0	0	1	blank2r.bmp	0	1	+	0	4	B4r.bmp	492	1	blank2r.bmp	786	1	DHJF	786	1	blank2r.bmp	866	3	engstirnig	866	0	0	0	0	0	0	0	0	0	0	0	0	0	0	0	0	0	0	0	0	0	0	0	0	0	0	0	0	0	0	0	0	0
030619	11:38:19	11:41:34	193933	5.0.10.0	4_exp_AMP_EVA_AWA_CON	144	Rpleas_acq	Oppo	Rpleas	Amasked	CS_A	1pleas	distractor2	EVAbeforeCON	acq_new_pleas_masked	acq1_masked	1	33	0	0	300	300	0	0	436	50	0	1	0	0	0	1	blank2r.bmp	0	1	+	0	1	B1r.bmp	492	1	blank2r.bmp	786	5	C1r.bmp	786	1	blank2r.bmp	866	2	kuss	866	0	0	0	0	0	0	0	0	0	0	0	0	0	0	0	0	0	0	0	0	0	0	0	0	0	0	0	0	0	0	0	0	0
030619	11:38:19	11:41:36	196278	5.0.10.0	4_exp_AMP_EVA_AWA_CON	144	Rpleas_acq	Oppo	Rpleas	Amasked	CS_A	1pleas	distractor2	EVAbeforeCON	acq_US_pleas_masked	acq1_masked	1	34	0	0	300	300	0	0	851	50	0	1	0	0	0	1	blank2r.bmp	0	1	+	0	2	B2r.bmp	492	1	blank2r.bmp	786	1	CPLW	786	1	blank2r.bmp	866	1	gütig	866	0	0	0	0	0	0	0	0	0	0	0	0	0	0	0	0	0	0	0	0	0	0	0	0	0	0	0	0	0	0	0	0	0
030619	11:38:19	11:41:38	198677	5.0.10.0	4_exp_AMP_EVA_AWA_CON	144	Rpleas_acq	Oppo	Rpleas	Amasked	CS_A	1pleas	distractor2	EVAbeforeCON	acq_US_pleas_masked	acq1_masked	1	35	0	0	300	300	0	0	922	50	0	1	0	0	0	1	blank2r.bmp	0	1	+	0	4	B4r.bmp	492	1	blank2r.bmp	786	1	CPLW	786	1	blank2r.bmp	866	6	genießen	866	0	0	0	0	0	0	0	0	0	0	0	0	0	0	0	0	0	0	0	0	0	0	0	0	0	0	0	0	0	0	0	0	0
030619	11:38:19	11:41:41	201676	5.0.10.0	4_exp_AMP_EVA_AWA_CON	144	Rpleas_acq	Oppo	Rpleas	Amasked	CS_A	1pleas	distractor2	EVAbeforeCON	acq_new_unple_masked	acq1_masked	1	36	0	0	300	300	0	0	1528	46	0	1	0	0	0	1	blank2r.bmp	0	1	+	0	6	C2r.bmp	492	1	blank2r.bmp	786	4	B4r.bmp	786	1	blank2r.bmp	866	4	verbissen	866	0	0	0	0	0	0	0	0	0	0	0	0	0	0	0	0	0	0	0	0	0	0	0	0	0	0	0	0	0	0	0	0	0
030619	11:38:19	11:42:36	256174	5.0.10.0	4_exp_AMP_EVA_AWA_CON	144	Rpleas_acq	Oppo	Rpleas	Amasked	CS_A	1pleas	distractor2	EVAbeforeCON	acq_new_unple_masked	acq2_masked	2	1	480	0	300	300	0	0	2355	46	0	1	0	0	0	1	blank2r.bmp	0	1	+	0	8	C4r.bmp	492	1	blank2r.bmp	786	2	B2r.bmp	786	1	blank2r.bmp	866	1	versagen	866	1	!	1319	1	!	-1	0	0	0	0	0	0	0	0	0	0	0	0	0	0	0	0	0	0	0	0	0	0	0	0	0	0	0
030619	11:38:19	11:42:55	275072	5.0.10.0	4_exp_AMP_EVA_AWA_CON	144	Rpleas_acq	Oppo	Rpleas	Amasked	CS_A	1pleas	distractor2	EVAbeforeCON	acq_US_pleas_masked	acq2_masked	2	2	480	0	300	300	0	0	17120	50	0	1	0	0	0	1	blank2r.bmp	0	1	+	0	7	C3r.bmp	492	1	blank2r.bmp	786	1	CPLW	786	1	blank2r.bmp	866	3	engagiert	866	1	!	1319	1	!	-1	0	0	0	0	0	0	0	0	0	0	0	0	0	0	0	0	0	0	0	0	0	0	0	0	0	0	0
030619	11:38:19	11:42:57	277698	5.0.10.0	4_exp_AMP_EVA_AWA_CON	144	Rpleas_acq	Oppo	Rpleas	Amasked	CS_A	1pleas	distractor2	EVAbeforeCON	acq_new_pleas_masked	acq2_masked	2	3	480	0	300	300	0	0	843	50	0	1	0	0	0	1	blank2r.bmp	0	1	+	0	3	B3r.bmp	492	1	blank2r.bmp	786	6	C2r.bmp	786	1	blank2r.bmp	866	6	sonnig	866	1	!	1319	1	!	-1	0	0	0	0	0	0	0	0	0	0	0	0	0	0	0	0	0	0	0	0	0	0	0	0	0	0	0
030619	11:38:19	11:43:00	279897	5.0.10.0	4_exp_AMP_EVA_AWA_CON	144	Rpleas_acq	Oppo	Rpleas	Amasked	CS_A	1pleas	distractor2	EVAbeforeCON	acq_US_unple_masked	acq2_masked	2	4	480	0	300	300	0	0	399	46	0	1	0	0	0	1	blank2r.bmp	0	1	+	0	5	C1r.bmp	492	1	blank2r.bmp	786	1	DHJF	786	1	blank2r.bmp	866	2	krank	866	1	!	-1	1	!	-1	0	0	0	0	0	0	0	0	0	0	0	0	0	0	0	0	0	0	0	0	0	0	0	0	0	0	0
030619	11:38:19	11:43:02	282549	5.0.10.0	4_exp_AMP_EVA_AWA_CON	144	Rpleas_acq	Oppo	Rpleas	Amasked	CS_A	1pleas	distractor2	EVAbeforeCON	acq_new_pleas_masked	acq2_masked	2	5	480	0	300	300	0	0	859	50	0	1	0	0	0	1	blank2r.bmp	0	1	+	0	8	C4r.bmp	492	1	blank2r.bmp	786	3	B3r.bmp	786	1	blank2r.bmp	866	5	träumen	866	1	!	1319	1	!	-1	0	0	0	0	0	0	0	0	0	0	0	0	0	0	0	0	0	0	0	0	0	0	0	0	0	0	0
030619	11:38:19	11:43:05	285068	5.0.10.0	4_exp_AMP_EVA_AWA_CON	144	Rpleas_acq	Oppo	Rpleas	Amasked	CS_A	1pleas	distractor2	EVAbeforeCON	acq_US_pleas_masked	acq2_masked	2	6	480	0	300	300	0	0	723	50	0	1	0	0	0	1	blank2r.bmp	0	1	+	0	5	C1r.bmp	492	1	blank2r.bmp	786	1	CPLW	786	1	blank2r.bmp	866	5	besonnen	866	1	!	1319	1	!	-1	0	0	0	0	0	0	0	0	0	0	0	0	0	0	0	0	0	0	0	0	0	0	0	0	0	0	0
030619	11:38:19	11:43:07	287307	5.0.10.0	4_exp_AMP_EVA_AWA_CON	144	Rpleas_acq	Oppo	Rpleas	Amasked	CS_A	1pleas	distractor2	EVAbeforeCON	acq_US_unple_masked	acq2_masked	2	7	480	1	300	300	0	0	426	46	0	1	0	0	0	1	blank2r.bmp	0	1	+	0	7	C3r.bmp	492	1	blank2r.bmp	786	1	DHJF	786	1	blank2r.bmp	866	1	gierig	866	1	!	1319	1	!	1332	0	0	0	0	0	0	0	0	0	0	0	0	0	0	0	0	0	0	0	0	0	0	0	0	0	0	0
030619	11:38:19	11:43:09	289587	5.0.10.0	4_exp_AMP_EVA_AWA_CON	144	Rpleas_acq	Oppo	Rpleas	Amasked	CS_A	1pleas	distractor2	EVAbeforeCON	acq_new_unple_masked	acq2_masked	2	8	480	1	300	300	0	0	485	46	0	1	0	0	0	1	blank2r.bmp	0	1	+	0	1	B1r.bmp	492	1	blank2r.bmp	786	7	C3r.bmp	786	1	blank2r.bmp	866	3	geizig	866	1	!	1319	1	!	1386	0	0	0	0	0	0	0	0	0	0	0	0	0	0	0	0	0	0	0	0	0	0	0	0	0	0	0
030619	11:38:19	11:43:12	292026	5.0.10.0	4_exp_AMP_EVA_AWA_CON	144	Rpleas_acq	Oppo	Rpleas	Amasked	CS_A	1pleas	distractor2	EVAbeforeCON	acq_new_pleas_masked	acq2_masked	2	9	480	0	300	300	0	0	674	50	0	1	0	0	0	1	blank2r.bmp	0	1	+	0	6	C2r.bmp	492	1	blank2r.bmp	786	8	C4r.bmp	786	1	blank2r.bmp	866	1	vertrauen	866	1	!	1319	1	!	-1	0	0	0	0	0	0	0	0	0	0	0	0	0	0	0	0	0	0	0	0	0	0	0	0	0	0	0
030619	11:38:19	11:43:14	294465	5.0.10.0	4_exp_AMP_EVA_AWA_CON	144	Rpleas_acq	Oppo	Rpleas	Amasked	CS_A	1pleas	distractor2	EVAbeforeCON	acq_US_pleas_masked	acq2_masked	2	10	480	0	300	300	0	0	660	50	0	1	0	0	0	1	blank2r.bmp	0	1	+	0	3	B3r.bmp	492	1	blank2r.bmp	786	1	CPLW	786	1	blank2r.bmp	866	2	kreativ	866	1	!	1319	1	!	-1	0	0	0	0	0	0	0	0	0	0	0	0	0	0	0	0	0	0	0	0	0	0	0	0	0	0	0
030619	11:38:19	11:43:16	296810	5.0.10.0	4_exp_AMP_EVA_AWA_CON	144	Rpleas_acq	Oppo	Rpleas	Amasked	CS_A	1pleas	distractor2	EVAbeforeCON	acq_US_unple_masked	acq2_masked	2	11	480	0	300	300	0	0	559	46	0	1	0	0	0	1	blank2r.bmp	0	1	+	0	4	B4r.bmp	492	1	blank2r.bmp	786	1	DHJF	786	1	blank2r.bmp	866	6	gemein	866	1	!	1319	1	!	-1	0	0	0	0	0	0	0	0	0	0	0	0	0	0	0	0	0	0	0	0	0	0	0	0	0	0	0
030619	11:38:19	11:43:19	299156	5.0.10.0	4_exp_AMP_EVA_AWA_CON	144	Rpleas_acq	Oppo	Rpleas	Amasked	CS_A	1pleas	distractor2	EVAbeforeCON	acq_new_unple_masked	acq2_masked	2	12	480	0	300	300	0	0	568	46	0	1	0	0	0	1	blank2r.bmp	0	1	+	0	2	B2r.bmp	492	1	blank2r.bmp	786	1	B1r.bmp	786	1	blank2r.bmp	866	2	krise	866	1	!	1319	1	!	-1	0	0	0	0	0	0	0	0	0	0	0	0	0	0	0	0	0	0	0	0	0	0	0	0	0	0	0
030619	11:38:19	11:43:21	301208	5.0.10.0	4_exp_AMP_EVA_AWA_CON	144	Rpleas_acq	Oppo	Rpleas	Amasked	CS_A	1pleas	distractor2	EVAbeforeCON	acq_US_pleas_masked	acq2_masked	2	13	480	0	300	300	0	0	278	50	0	1	0	0	0	1	blank2r.bmp	0	1	+	0	5	C1r.bmp	492	1	blank2r.bmp	786	1	CPLW	786	1	blank2r.bmp	866	1	gütig	866	1	!	-1	1	!	-1	0	0	0	0	0	0	0	0	0	0	0	0	0	0	0	0	0	0	0	0	0	0	0	0	0	0	0
030619	11:38:19	11:43:23	303754	5.0.10.0	4_exp_AMP_EVA_AWA_CON	144	Rpleas_acq	Oppo	Rpleas	Amasked	CS_A	1pleas	distractor2	EVAbeforeCON	acq_US_unple_masked	acq2_masked	2	14	480	0	300	300	0	0	764	46	0	1	0	0	0	1	blank2r.bmp	0	1	+	0	3	B3r.bmp	492	1	blank2r.bmp	786	1	DHJF	786	1	blank2r.bmp	866	4	ausrottung	866	1	!	1319	1	!	-1	0	0	0	0	0	0	0	0	0	0	0	0	0	0	0	0	0	0	0	0	0	0	0	0	0	0	0
030619	11:38:19	11:43:26	306126	5.0.10.0	4_exp_AMP_EVA_AWA_CON	144	Rpleas_acq	Oppo	Rpleas	Amasked	CS_A	1pleas	distractor2	EVAbeforeCON	acq_new_pleas_masked	acq2_masked	2	15	480	0	300	300	0	0	591	50	0	1	0	0	0	1	blank2r.bmp	0	1	+	0	6	C2r.bmp	492	1	blank2r.bmp	786	1	B1r.bmp	786	1	blank2r.bmp	866	1	vertrauen	866	1	!	1319	1	!	-1	0	0	0	0	0	0	0	0	0	0	0	0	0	0	0	0	0	0	0	0	0	0	0	0	0	0	0
030619	11:38:19	11:43:28	308472	5.0.10.0	4_exp_AMP_EVA_AWA_CON	144	Rpleas_acq	Oppo	Rpleas	Amasked	CS_A	1pleas	distractor2	EVAbeforeCON	acq_new_pleas_masked	acq2_masked	2	16	480	1	300	300	0	0	543	50	0	1	0	0	0	1	blank2r.bmp	0	1	+	0	4	B4r.bmp	492	1	blank2r.bmp	786	8	C4r.bmp	786	1	blank2r.bmp	866	4	vergnügt	866	1	!	1319	1	!	1439	0	0	0	0	0	0	0	0	0	0	0	0	0	0	0	0	0	0	0	0	0	0	0	0	0	0	0
030619	11:38:19	11:43:30	310818	5.0.10.0	4_exp_AMP_EVA_AWA_CON	144	Rpleas_acq	Oppo	Rpleas	Amasked	CS_A	1pleas	distractor2	EVAbeforeCON	acq_US_pleas_masked	acq2_masked	2	17	480	0	300	300	0	0	575	50	0	1	0	0	0	1	blank2r.bmp	0	1	+	0	2	B2r.bmp	492	1	blank2r.bmp	786	1	CPLW	786	1	blank2r.bmp	866	6	genießen	866	1	!	1319	1	!	-1	0	0	0	0	0	0	0	0	0	0	0	0	0	0	0	0	0	0	0	0	0	0	0	0	0	0	0
030619	11:38:19	11:43:33	313190	5.0.10.0	4_exp_AMP_EVA_AWA_CON	144	Rpleas_acq	Oppo	Rpleas	Amasked	CS_A	1pleas	distractor2	EVAbeforeCON	acq_new_unple_masked	acq2_masked	2	18	480	0	300	300	0	0	588	46	0	1	0	0	0	1	blank2r.bmp	0	1	+	0	1	B1r.bmp	492	1	blank2r.bmp	786	4	B4r.bmp	786	1	blank2r.bmp	866	5	töten	866	1	!	1319	1	!	-1	0	0	0	0	0	0	0	0	0	0	0	0	0	0	0	0	0	0	0	0	0	0	0	0	0	0	0
030619	11:38:19	11:43:35	315483	5.0.10.0	4_exp_AMP_EVA_AWA_CON	144	Rpleas_acq	Oppo	Rpleas	Amasked	CS_A	1pleas	distractor2	EVAbeforeCON	acq_new_pleas_masked	acq2_masked	2	19	480	1	300	300	0	0	485	50	0	1	0	0	0	1	blank2r.bmp	0	1	+	0	7	C3r.bmp	492	1	blank2r.bmp	786	5	C1r.bmp	786	1	blank2r.bmp	866	2	kuss	866	1	!	1319	1	!	1386	0	0	0	0	0	0	0	0	0	0	0	0	0	0	0	0	0	0	0	0	0	0	0	0	0	0	0
030619	11:38:19	11:43:37	317588	5.0.10.0	4_exp_AMP_EVA_AWA_CON	144	Rpleas_acq	Oppo	Rpleas	Amasked	CS_A	1pleas	distractor2	EVAbeforeCON	acq_US_unple_masked	acq2_masked	2	20	480	0	300	300	0	0	333	46	0	1	0	0	0	1	blank2r.bmp	0	1	+	0	8	C4r.bmp	492	1	blank2r.bmp	786	1	DHJF	786	1	blank2r.bmp	866	6	gemein	866	1	!	-1	1	!	-1	0	0	0	0	0	0	0	0	0	0	0	0	0	0	0	0	0	0	0	0	0	0	0	0	0	0	0
030619	11:38:19	11:43:40	320027	5.0.10.0	4_exp_AMP_EVA_AWA_CON	144	Rpleas_acq	Oppo	Rpleas	Amasked	CS_A	1pleas	distractor2	EVAbeforeCON	acq_new_unple_masked	acq2_masked	2	21	480	0	300	300	0	0	653	46	0	1	0	0	0	1	blank2r.bmp	0	1	+	0	1	B1r.bmp	492	1	blank2r.bmp	786	3	B3r.bmp	786	1	blank2r.bmp	866	2	krise	866	1	!	1319	1	!	-1	0	0	0	0	0	0	0	0	0	0	0	0	0	0	0	0	0	0	0	0	0	0	0	0	0	0	0
030619	11:38:19	11:43:42	322360	5.0.10.0	4_exp_AMP_EVA_AWA_CON	144	Rpleas_acq	Oppo	Rpleas	Amasked	CS_A	1pleas	distractor2	EVAbeforeCON	acq_new_unple_masked	acq2_masked	2	22	480	1	300	300	0	0	521	46	0	1	0	0	0	1	blank2r.bmp	0	1	+	0	4	B4r.bmp	492	1	blank2r.bmp	786	7	C3r.bmp	786	1	blank2r.bmp	866	4	verbissen	866	1	!	1319	1	!	1426	0	0	0	0	0	0	0	0	0	0	0	0	0	0	0	0	0	0	0	0	0	0	0	0	0	0	0
030619	11:38:19	11:43:44	324519	5.0.10.0	4_exp_AMP_EVA_AWA_CON	144	Rpleas_acq	Oppo	Rpleas	Amasked	CS_A	1pleas	distractor2	EVAbeforeCON	acq_US_pleas_masked	acq2_masked	2	23	480	0	300	300	0	0	393	50	0	1	0	0	0	1	blank2r.bmp	0	1	+	0	7	C3r.bmp	492	1	blank2r.bmp	786	1	CPLW	786	1	blank2r.bmp	866	3	engagiert	866	1	!	-1	1	!	-1	0	0	0	0	0	0	0	0	0	0	0	0	0	0	0	0	0	0	0	0	0	0	0	0	0	0	0
030619	11:38:19	11:43:47	326864	5.0.10.0	4_exp_AMP_EVA_AWA_CON	144	Rpleas_acq	Oppo	Rpleas	Amasked	CS_A	1pleas	distractor2	EVAbeforeCON	acq_US_unple_masked	acq2_masked	2	24	480	0	300	300	0	0	559	46	0	1	0	0	0	1	blank2r.bmp	0	1	+	0	6	C2r.bmp	492	1	blank2r.bmp	786	1	DHJF	786	1	blank2r.bmp	866	3	engstirnig	866	1	!	1319	1	!	-1	0	0	0	0	0	0	0	0	0	0	0	0	0	0	0	0	0	0	0	0	0	0	0	0	0	0	0
030619	11:38:19	11:43:49	329224	5.0.10.0	4_exp_AMP_EVA_AWA_CON	144	Rpleas_acq	Oppo	Rpleas	Amasked	CS_A	1pleas	distractor2	EVAbeforeCON	acq_US_pleas_masked	acq2_masked	2	25	480	0	300	300	0	0	580	50	0	1	0	0	0	1	blank2r.bmp	0	1	+	0	3	B3r.bmp	492	1	blank2r.bmp	786	1	CPLW	786	1	blank2r.bmp	866	5	besonnen	866	1	!	1319	1	!	-1	0	0	0	0	0	0	0	0	0	0	0	0	0	0	0	0	0	0	0	0	0	0	0	0	0	0	0
030619	11:38:19	11:43:51	331583	5.0.10.0	4_exp_AMP_EVA_AWA_CON	144	Rpleas_acq	Oppo	Rpleas	Amasked	CS_A	1pleas	distractor2	EVAbeforeCON	acq_new_pleas_masked	acq2_masked	2	26	480	0	300	300	0	0	559	50	0	1	0	0	0	1	blank2r.bmp	0	1	+	0	8	C4r.bmp	492	1	blank2r.bmp	786	2	B2r.bmp	786	1	blank2r.bmp	866	6	sonnig	866	1	!	1319	1	!	-1	0	0	0	0	0	0	0	0	0	0	0	0	0	0	0	0	0	0	0	0	0	0	0	0	0	0	0
030619	11:38:19	11:43:54	333955	5.0.10.0	4_exp_AMP_EVA_AWA_CON	144	Rpleas_acq	Oppo	Rpleas	Amasked	CS_A	1pleas	distractor2	EVAbeforeCON	acq_new_pleas_masked	acq2_masked	2	27	480	0	300	300	0	0	369	46	0	0	0	0	0	1	blank2r.bmp	0	1	+	0	5	C1r.bmp	492	1	blank2r.bmp	786	6	C2r.bmp	786	1	blank2r.bmp	866	5	träumen	866	1	FEHLER	1572	1	!	-1	1	!	-1	0	0	0	0	0	0	0	0	0	0	0	0	0	0	0	0	0	0	0	0	0	0	0	0
030619	11:38:19	11:43:56	336221	5.0.10.0	4_exp_AMP_EVA_AWA_CON	144	Rpleas_acq	Oppo	Rpleas	Amasked	CS_A	1pleas	distractor2	EVAbeforeCON	acq_new_unple_masked	acq2_masked	2	28	480	0	300	300	0	0	713	46	0	1	0	0	0	1	blank2r.bmp	0	1	+	0	2	B2r.bmp	492	1	blank2r.bmp	786	3	B3r.bmp	786	1	blank2r.bmp	866	6	sterben	866	1	!	1319	1	!	-1	0	0	0	0	0	0	0	0	0	0	0	0	0	0	0	0	0	0	0	0	0	0	0	0	0	0	0
030619	11:38:19	11:43:58	338566	5.0.10.0	4_exp_AMP_EVA_AWA_CON	144	Rpleas_acq	Oppo	Rpleas	Amasked	CS_A	1pleas	distractor2	EVAbeforeCON	acq_US_unple_masked	acq2_masked	2	29	480	0	300	300	0	0	563	46	0	1	0	0	0	1	blank2r.bmp	0	1	+	0	5	C1r.bmp	492	1	blank2r.bmp	786	1	DHJF	786	1	blank2r.bmp	866	5	bange	866	1	!	1319	1	!	-1	0	0	0	0	0	0	0	0	0	0	0	0	0	0	0	0	0	0	0	0	0	0	0	0	0	0	0
030619	11:38:19	11:44:00	340659	5.0.10.0	4_exp_AMP_EVA_AWA_CON	144	Rpleas_acq	Oppo	Rpleas	Amasked	CS_A	1pleas	distractor2	EVAbeforeCON	acq_new_unple_masked	acq2_masked	2	30	480	0	300	300	0	0	307	46	0	1	0	0	0	1	blank2r.bmp	0	1	+	0	4	B4r.bmp	492	1	blank2r.bmp	786	8	C4r.bmp	786	1	blank2r.bmp	866	1	versagen	866	1	!	-1	1	!	-1	0	0	0	0	0	0	0	0	0	0	0	0	0	0	0	0	0	0	0	0	0	0	0	0	0	0	0
030619	11:38:19	11:44:03	343111	5.0.10.0	4_exp_AMP_EVA_AWA_CON	144	Rpleas_acq	Oppo	Rpleas	Amasked	CS_A	1pleas	distractor2	EVAbeforeCON	acq_new_unple_masked	acq2_masked	2	31	480	0	300	300	0	0	658	46	0	1	0	0	0	1	blank2r.bmp	0	1	+	0	2	B2r.bmp	492	1	blank2r.bmp	786	5	C1r.bmp	786	1	blank2r.bmp	866	3	geizig	866	1	!	1319	1	!	-1	0	0	0	0	0	0	0	0	0	0	0	0	0	0	0	0	0	0	0	0	0	0	0	0	0	0	0
030619	11:38:19	11:44:05	345150	5.0.10.0	4_exp_AMP_EVA_AWA_CON	144	Rpleas_acq	Oppo	Rpleas	Amasked	CS_A	1pleas	distractor2	EVAbeforeCON	acq_US_unple_masked	acq2_masked	2	32	480	0	300	300	0	0	252	46	0	1	0	0	0	1	blank2r.bmp	0	1	+	0	8	C4r.bmp	492	1	blank2r.bmp	786	1	DHJF	786	1	blank2r.bmp	866	1	gierig	866	1	!	-1	1	!	-1	0	0	0	0	0	0	0	0	0	0	0	0	0	0	0	0	0	0	0	0	0	0	0	0	0	0	0
030619	11:38:19	11:44:07	347856	5.0.10.0	4_exp_AMP_EVA_AWA_CON	144	Rpleas_acq	Oppo	Rpleas	Amasked	CS_A	1pleas	distractor2	EVAbeforeCON	acq_new_pleas_masked	acq2_masked	2	33	480	0	300	300	0	0	694	46	0	0	0	0	0	1	blank2r.bmp	0	1	+	0	7	C3r.bmp	492	1	blank2r.bmp	786	6	C2r.bmp	786	1	blank2r.bmp	866	3	gesittet	866	1	FEHLER	1905	1	!	1319	1	!	-1	0	0	0	0	0	0	0	0	0	0	0	0	0	0	0	0	0	0	0	0	0	0	0	0
030619	11:38:19	11:44:10	350015	5.0.10.0	4_exp_AMP_EVA_AWA_CON	144	Rpleas_acq	Oppo	Rpleas	Amasked	CS_A	1pleas	distractor2	EVAbeforeCON	acq_US_unple_masked	acq2_masked	2	34	480	0	300	300	0	0	608	46	0	1	0	0	0	1	blank2r.bmp	0	1	+	0	6	C2r.bmp	492	1	blank2r.bmp	786	1	DHJF	786	1	blank2r.bmp	866	2	krank	866	1	!	1319	1	!	-1	0	0	0	0	0	0	0	0	0	0	0	0	0	0	0	0	0	0	0	0	0	0	0	0	0	0	0
030619	11:38:19	11:44:12	352387	5.0.10.0	4_exp_AMP_EVA_AWA_CON	144	Rpleas_acq	Oppo	Rpleas	Amasked	CS_A	1pleas	distractor2	EVAbeforeCON	acq_US_pleas_masked	acq2_masked	2	35	480	0	300	300	0	0	595	50	0	1	0	0	0	1	blank2r.bmp	0	1	+	0	3	B3r.bmp	492	1	blank2r.bmp	786	1	CPLW	786	1	blank2r.bmp	866	4	anregung	866	1	!	1319	1	!	-1	0	0	0	0	0	0	0	0	0	0	0	0	0	0	0	0	0	0	0	0	0	0	0	0	0	0	0
030619	11:38:19	11:44:14	354506	5.0.10.0	4_exp_AMP_EVA_AWA_CON	144	Rpleas_acq	Oppo	Rpleas	Amasked	CS_A	1pleas	distractor2	EVAbeforeCON	acq_US_pleas_masked	acq2_masked	2	36	480	0	300	300	0	0	334	50	0	1	0	0	0	1	blank2r.bmp	0	1	+	0	1	B1r.bmp	492	1	blank2r.bmp	786	1	CPLW	786	1	blank2r.bmp	866	2	kreativ	866	1	!	-1	1	!	-1	0	0	0	0	0	0	0	0	0	0	0	0	0	0	0	0	0	0	0	0	0	0	0	0	0	0	0
030619	11:38:19	11:44:27	367808	5.0.10.0	4_exp_AMP_EVA_AWA_CON	144	Rpleas_acq	Oppo	Rpleas	Amasked	CS_A	1pleas	distractor2	EVAbeforeCON	acq_US_unple_masked	acq3_masked	3	1	453	0	300	300	0	0	571	46	0	1	0	0	0	1	blank2r.bmp	0	1	+	0	8	C4r.bmp	492	1	blank2r.bmp	786	1	DHJF	786	1	blank2r.bmp	866	2	krank	866	1	!	1292	1	!	-1	0	0	0	0	0	0	0	0	0	0	0	0	0	0	0	0	0	0	0	0	0	0	0	0	0	0	0
030619	11:38:19	11:44:29	369833	5.0.10.0	4_exp_AMP_EVA_AWA_CON	144	Rpleas_acq	Oppo	Rpleas	Amasked	CS_A	1pleas	distractor2	EVAbeforeCON	acq_US_pleas_masked	acq3_masked	3	2	453	0	300	300	0	0	244	50	0	1	0	0	0	1	blank2r.bmp	0	1	+	0	5	C1r.bmp	492	1	blank2r.bmp	786	1	CPLW	786	1	blank2r.bmp	866	1	gütig	866	1	!	-1	1	!	-1	0	0	0	0	0	0	0	0	0	0	0	0	0	0	0	0	0	0	0	0	0	0	0	0	0	0	0
030619	11:38:19	11:44:32	372246	5.0.10.0	4_exp_AMP_EVA_AWA_CON	144	Rpleas_acq	Oppo	Rpleas	Amasked	CS_A	1pleas	distractor2	EVAbeforeCON	acq_US_pleas_masked	acq3_masked	3	3	453	0	300	300	0	0	638	50	0	1	0	0	0	1	blank2r.bmp	0	1	+	0	6	C2r.bmp	492	1	blank2r.bmp	786	1	CPLW	786	1	blank2r.bmp	866	6	genießen	866	1	!	1292	1	!	-1	0	0	0	0	0	0	0	0	0	0	0	0	0	0	0	0	0	0	0	0	0	0	0	0	0	0	0
030619	11:38:19	11:44:34	374618	5.0.10.0	4_exp_AMP_EVA_AWA_CON	144	Rpleas_acq	Oppo	Rpleas	Amasked	CS_A	1pleas	distractor2	EVAbeforeCON	acq_US_unple_masked	acq3_masked	3	4	453	0	300	300	0	0	587	46	0	1	0	0	0	1	blank2r.bmp	0	1	+	0	1	B1r.bmp	492	1	blank2r.bmp	786	1	DHJF	786	1	blank2r.bmp	866	3	engstirnig	866	1	!	1292	1	!	-1	0	0	0	0	0	0	0	0	0	0	0	0	0	0	0	0	0	0	0	0	0	0	0	0	0	0	0
030619	11:38:19	11:44:36	376777	5.0.10.0	4_exp_AMP_EVA_AWA_CON	144	Rpleas_acq	Oppo	Rpleas	Amasked	CS_A	1pleas	distractor2	EVAbeforeCON	acq_US_pleas_masked	acq3_masked	3	5	453	0	300	300	0	0	383	50	0	1	0	0	0	1	blank2r.bmp	0	1	+	0	7	C3r.bmp	492	1	blank2r.bmp	786	1	CPLW	786	1	blank2r.bmp	866	2	kreativ	866	1	!	-1	1	!	-1	0	0	0	0	0	0	0	0	0	0	0	0	0	0	0	0	0	0	0	0	0	0	0	0	0	0	0
030619	11:38:19	11:44:39	379256	5.0.10.0	4_exp_AMP_EVA_AWA_CON	144	Rpleas_acq	Oppo	Rpleas	Amasked	CS_A	1pleas	distractor2	EVAbeforeCON	acq_US_unple_masked	acq3_masked	3	6	453	0	300	300	0	0	694	46	0	1	0	0	0	1	blank2r.bmp	0	1	+	0	4	B4r.bmp	492	1	blank2r.bmp	786	1	DHJF	786	1	blank2r.bmp	866	5	bange	866	1	!	1292	1	!	-1	0	0	0	0	0	0	0	0	0	0	0	0	0	0	0	0	0	0	0	0	0	0	0	0	0	0	0
030619	11:38:19	11:44:42	381855	5.0.10.0	4_exp_AMP_EVA_AWA_CON	144	Rpleas_acq	Oppo	Rpleas	Amasked	CS_A	1pleas	distractor2	EVAbeforeCON	acq_US_unple_masked	acq3_masked	3	7	453	0	300	300	0	0	585	50	0	0	0	0	0	1	blank2r.bmp	0	1	+	0	2	B2r.bmp	492	1	blank2r.bmp	786	1	DHJF	786	1	blank2r.bmp	866	4	ausrottung	866	1	FEHLER	1799	1	!	1292	1	!	-1	0	0	0	0	0	0	0	0	0	0	0	0	0	0	0	0	0	0	0	0	0	0	0	0
030619	11:38:19	11:44:46	385973	5.0.10.0	4_exp_AMP_EVA_AWA_CON	144	Rpleas_acq	Oppo	Rpleas	Amasked	CS_A	1pleas	distractor2	EVAbeforeCON	acq_US_unple_masked	acq3_masked	3	8	453	0	300	300	0	0	2564	46	0	1	0	0	0	1	blank2r.bmp	0	1	+	0	3	B3r.bmp	492	1	blank2r.bmp	786	1	DHJF	786	1	blank2r.bmp	866	6	gemein	866	1	!	1292	1	!	-1	0	0	0	0	0	0	0	0	0	0	0	0	0	0	0	0	0	0	0	0	0	0	0	0	0	0	0
030619	11:38:19	11:44:48	388332	5.0.10.0	4_exp_AMP_EVA_AWA_CON	144	Rpleas_acq	Oppo	Rpleas	Amasked	CS_A	1pleas	distractor2	EVAbeforeCON	acq_US_pleas_masked	acq3_masked	3	9	453	0	300	300	0	0	578	50	0	1	0	0	0	1	blank2r.bmp	0	1	+	0	6	C2r.bmp	492	1	blank2r.bmp	786	1	CPLW	786	1	blank2r.bmp	866	4	anregung	866	1	!	1292	1	!	-1	0	0	0	0	0	0	0	0	0	0	0	0	0	0	0	0	0	0	0	0	0	0	0	0	0	0	0
030619	11:38:19	11:44:50	390638	5.0.10.0	4_exp_AMP_EVA_AWA_CON	144	Rpleas_acq	Oppo	Rpleas	Amasked	CS_A	1pleas	distractor2	EVAbeforeCON	acq_US_pleas_masked	acq3_masked	3	10	453	0	300	300	0	0	284	46	0	0	0	0	0	1	blank2r.bmp	0	1	+	0	3	B3r.bmp	492	1	blank2r.bmp	786	1	CPLW	786	1	blank2r.bmp	866	3	engagiert	866	1	FEHLER	1492	1	!	-1	1	!	-1	0	0	0	0	0	0	0	0	0	0	0	0	0	0	0	0	0	0	0	0	0	0	0	0
030619	11:38:19	11:44:52	392851	5.0.10.0	4_exp_AMP_EVA_AWA_CON	144	Rpleas_acq	Oppo	Rpleas	Amasked	CS_A	1pleas	distractor2	EVAbeforeCON	acq_US_unple_masked	acq3_masked	3	11	453	0	300	300	0	0	661	46	0	1	0	0	0	1	blank2r.bmp	0	1	+	0	1	B1r.bmp	492	1	blank2r.bmp	786	1	DHJF	786	1	blank2r.bmp	866	1	gierig	866	1	!	1292	1	!	-1	0	0	0	0	0	0	0	0	0	0	0	0	0	0	0	0	0	0	0	0	0	0	0	0	0	0	0
030619	11:38:19	11:44:55	395236	5.0.10.0	4_exp_AMP_EVA_AWA_CON	144	Rpleas_acq	Oppo	Rpleas	Amasked	CS_A	1pleas	distractor2	EVAbeforeCON	acq_US_pleas_masked	acq3_masked	3	12	453	0	300	300	0	0	602	50	0	1	0	0	0	1	blank2r.bmp	0	1	+	0	2	B2r.bmp	492	1	blank2r.bmp	786	1	CPLW	786	1	blank2r.bmp	866	5	besonnen	866	1	!	1292	1	!	-1	0	0	0	0	0	0	0	0	0	0	0	0	0	0	0	0	0	0	0	0	0	0	0	0	0	0	0
030619	11:38:19	11:44:57	397515	5.0.10.0	4_exp_AMP_EVA_AWA_CON	144	Rpleas_acq	Oppo	Rpleas	Amasked	CS_A	1pleas	distractor2	EVAbeforeCON	acq_US_unple_masked	acq3_masked	3	13	453	1	300	300	0	0	469	46	0	1	0	0	0	1	blank2r.bmp	0	1	+	0	7	C3r.bmp	492	1	blank2r.bmp	786	1	DHJF	786	1	blank2r.bmp	866	6	gemein	866	1	!	1292	1	!	1372	0	0	0	0	0	0	0	0	0	0	0	0	0	0	0	0	0	0	0	0	0	0	0	0	0	0	0
030619	11:38:19	11:44:59	399808	5.0.10.0	4_exp_AMP_EVA_AWA_CON	144	Rpleas_acq	Oppo	Rpleas	Amasked	CS_A	1pleas	distractor2	EVAbeforeCON	acq_US_pleas_masked	acq3_masked	3	14	453	1	300	300	0	0	501	50	0	1	0	0	0	1	blank2r.bmp	0	1	+	0	5	C1r.bmp	492	1	blank2r.bmp	786	1	CPLW	786	1	blank2r.bmp	866	5	besonnen	866	1	!	1292	1	!	1399	0	0	0	0	0	0	0	0	0	0	0	0	0	0	0	0	0	0	0	0	0	0	0	0	0	0	0
030619	11:38:19	11:45:02	402140	5.0.10.0	4_exp_AMP_EVA_AWA_CON	144	Rpleas_acq	Oppo	Rpleas	Amasked	CS_A	1pleas	distractor2	EVAbeforeCON	acq_US_unple_masked	acq3_masked	3	15	453	0	300	300	0	0	562	46	0	1	0	0	0	1	blank2r.bmp	0	1	+	0	4	B4r.bmp	492	1	blank2r.bmp	786	1	DHJF	786	1	blank2r.bmp	866	1	gierig	866	1	!	1292	1	!	-1	0	0	0	0	0	0	0	0	0	0	0	0	0	0	0	0	0	0	0	0	0	0	0	0	0	0	0
030619	11:38:19	11:45:04	404433	5.0.10.0	4_exp_AMP_EVA_AWA_CON	144	Rpleas_acq	Oppo	Rpleas	Amasked	CS_A	1pleas	distractor2	EVAbeforeCON	acq_US_unple_masked	acq3_masked	3	16	453	0	300	300	0	0	290	50	0	0	0	0	0	1	blank2r.bmp	0	1	+	0	8	C4r.bmp	492	1	blank2r.bmp	786	1	DHJF	786	1	blank2r.bmp	866	2	krank	866	1	FEHLER	1492	1	!	-1	1	!	-1	0	0	0	0	0	0	0	0	0	0	0	0	0	0	0	0	0	0	0	0	0	0	0	0
030619	11:38:19	11:45:07	407085	5.0.10.0	4_exp_AMP_EVA_AWA_CON	144	Rpleas_acq	Oppo	Rpleas	Amasked	CS_A	1pleas	distractor2	EVAbeforeCON	acq_US_unple_masked	acq3_masked	3	17	453	0	300	300	0	0	1098	46	0	1	0	0	0	1	blank2r.bmp	0	1	+	0	5	C1r.bmp	492	1	blank2r.bmp	786	1	DHJF	786	1	blank2r.bmp	866	5	bange	866	1	!	1292	1	!	-1	0	0	0	0	0	0	0	0	0	0	0	0	0	0	0	0	0	0	0	0	0	0	0	0	0	0	0
030619	11:38:19	11:45:09	409444	5.0.10.0	4_exp_AMP_EVA_AWA_CON	144	Rpleas_acq	Oppo	Rpleas	Amasked	CS_A	1pleas	distractor2	EVAbeforeCON	acq_US_unple_masked	acq3_masked	3	18	453	0	300	300	0	0	579	46	0	1	0	0	0	1	blank2r.bmp	0	1	+	0	8	C4r.bmp	492	1	blank2r.bmp	786	1	DHJF	786	1	blank2r.bmp	866	3	engstirnig	866	1	!	1292	1	!	-1	0	0	0	0	0	0	0	0	0	0	0	0	0	0	0	0	0	0	0	0	0	0	0	0	0	0	0
030619	11:38:19	11:45:11	411763	5.0.10.0	4_exp_AMP_EVA_AWA_CON	144	Rpleas_acq	Oppo	Rpleas	Amasked	CS_A	1pleas	distractor2	EVAbeforeCON	acq_US_pleas_masked	acq3_masked	3	19	453	1	300	300	0	0	511	50	0	1	0	0	0	1	blank2r.bmp	0	1	+	0	6	C2r.bmp	492	1	blank2r.bmp	786	1	CPLW	786	1	blank2r.bmp	866	4	anregung	866	1	!	1292	1	!	1412	0	0	0	0	0	0	0	0	0	0	0	0	0	0	0	0	0	0	0	0	0	0	0	0	0	0	0
030619	11:38:19	11:45:14	414055	5.0.10.0	4_exp_AMP_EVA_AWA_CON	144	Rpleas_acq	Oppo	Rpleas	Amasked	CS_A	1pleas	distractor2	EVAbeforeCON	acq_US_unple_masked	acq3_masked	3	20	453	1	300	300	0	0	498	46	0	1	0	0	0	1	blank2r.bmp	0	1	+	0	2	B2r.bmp	492	1	blank2r.bmp	786	1	DHJF	786	1	blank2r.bmp	866	4	ausrottung	866	1	!	1292	1	!	1399	0	0	0	0	0	0	0	0	0	0	0	0	0	0	0	0	0	0	0	0	0	0	0	0	0	0	0
030619	11:38:19	11:45:16	416401	5.0.10.0	4_exp_AMP_EVA_AWA_CON	144	Rpleas_acq	Oppo	Rpleas	Amasked	CS_A	1pleas	distractor2	EVAbeforeCON	acq_US_pleas_masked	acq3_masked	3	21	453	0	300	300	0	0	567	50	0	1	0	0	0	1	blank2r.bmp	0	1	+	0	7	C3r.bmp	492	1	blank2r.bmp	786	1	CPLW	786	1	blank2r.bmp	866	3	engagiert	866	1	!	1292	1	!	-1	0	0	0	0	0	0	0	0	0	0	0	0	0	0	0	0	0	0	0	0	0	0	0	0	0	0	0
030619	11:38:19	11:45:18	418707	5.0.10.0	4_exp_AMP_EVA_AWA_CON	144	Rpleas_acq	Oppo	Rpleas	Amasked	CS_A	1pleas	distractor2	EVAbeforeCON	acq_US_pleas_masked	acq3_masked	3	22	453	0	300	300	0	0	304	46	0	0	0	0	0	1	blank2r.bmp	0	1	+	0	4	B4r.bmp	492	1	blank2r.bmp	786	1	CPLW	786	1	blank2r.bmp	866	6	genießen	866	1	FEHLER	1506	1	!	-1	1	!	-1	0	0	0	0	0	0	0	0	0	0	0	0	0	0	0	0	0	0	0	0	0	0	0	0
030619	11:38:19	11:45:21	420972	5.0.10.0	4_exp_AMP_EVA_AWA_CON	144	Rpleas_acq	Oppo	Rpleas	Amasked	CS_A	1pleas	distractor2	EVAbeforeCON	acq_US_pleas_masked	acq3_masked	3	23	453	1	300	300	0	0	468	46	0	0	0	0	0	1	blank2r.bmp	0	1	+	0	1	B1r.bmp	492	1	blank2r.bmp	786	1	CPLW	786	1	blank2r.bmp	866	1	gütig	866	1	FEHLER	1692	1	!	1292	1	!	1372	0	0	0	0	0	0	0	0	0	0	0	0	0	0	0	0	0	0	0	0	0	0	0	0
030619	11:38:19	11:45:23	423385	5.0.10.0	4_exp_AMP_EVA_AWA_CON	144	Rpleas_acq	Oppo	Rpleas	Amasked	CS_A	1pleas	distractor2	EVAbeforeCON	acq_US_pleas_masked	acq3_masked	3	24	453	0	300	300	0	0	862	50	0	1	0	0	0	1	blank2r.bmp	0	1	+	0	3	B3r.bmp	492	1	blank2r.bmp	786	1	CPLW	786	1	blank2r.bmp	866	2	kreativ	866	1	!	1292	1	!	-1	0	0	0	0	0	0	0	0	0	0	0	0	0	0	0	0	0	0	0	0	0	0	0	0	0	0	0
030619	11:38:19	11:45:25	425637	5.0.10.0	4_exp_AMP_EVA_AWA_CON	144	Rpleas_acq	Oppo	Rpleas	Amasked	CS_A	1pleas	distractor2	EVAbeforeCON	acq_US_unple_masked	acq3_masked	3	25	453	1	300	300	0	0	425	46	0	1	0	0	0	1	blank2r.bmp	0	1	+	0	7	C3r.bmp	492	1	blank2r.bmp	786	1	DHJF	786	1	blank2r.bmp	866	6	gemein	866	1	!	1292	1	!	1332	0	0	0	0	0	0	0	0	0	0	0	0	0	0	0	0	0	0	0	0	0	0	0	0	0	0	0
030619	11:38:19	11:45:27	427690	5.0.10.0	4_exp_AMP_EVA_AWA_CON	144	Rpleas_acq	Oppo	Rpleas	Amasked	CS_A	1pleas	distractor2	EVAbeforeCON	acq_US_pleas_masked	acq3_masked	3	26	453	0	300	300	0	0	290	50	0	1	0	0	0	1	blank2r.bmp	0	1	+	0	1	B1r.bmp	492	1	blank2r.bmp	786	1	CPLW	786	1	blank2r.bmp	866	2	kreativ	866	1	!	-1	1	!	-1	0	0	0	0	0	0	0	0	0	0	0	0	0	0	0	0	0	0	0	0	0	0	0	0	0	0	0
030619	11:38:19	11:45:30	429942	5.0.10.0	4_exp_AMP_EVA_AWA_CON	144	Rpleas_acq	Oppo	Rpleas	Amasked	CS_A	1pleas	distractor2	EVAbeforeCON	acq_US_pleas_masked	acq3_masked	3	27	453	1	300	300	0	0	450	50	0	1	0	0	0	1	blank2r.bmp	0	1	+	0	2	B2r.bmp	492	1	blank2r.bmp	786	1	CPLW	786	1	blank2r.bmp	866	6	genießen	866	1	!	1292	1	!	1346	0	0	0	0	0	0	0	0	0	0	0	0	0	0	0	0	0	0	0	0	0	0	0	0	0	0	0
030619	11:38:19	11:45:32	432261	5.0.10.0	4_exp_AMP_EVA_AWA_CON	144	Rpleas_acq	Oppo	Rpleas	Amasked	CS_A	1pleas	distractor2	EVAbeforeCON	acq_US_pleas_masked	acq3_masked	3	28	453	0	300	300	0	0	319	46	0	0	0	0	0	1	blank2r.bmp	0	1	+	0	6	C2r.bmp	492	1	blank2r.bmp	786	1	CPLW	786	1	blank2r.bmp	866	4	anregung	866	1	FEHLER	1532	1	!	-1	1	!	-1	0	0	0	0	0	0	0	0	0	0	0	0	0	0	0	0	0	0	0	0	0	0	0	0
030619	11:38:19	11:45:34	434420	5.0.10.0	4_exp_AMP_EVA_AWA_CON	144	Rpleas_acq	Oppo	Rpleas	Amasked	CS_A	1pleas	distractor2	EVAbeforeCON	acq_US_unple_masked	acq3_masked	3	29	453	0	300	300	0	0	605	46	0	1	0	0	0	1	blank2r.bmp	0	1	+	0	8	C4r.bmp	492	1	blank2r.bmp	786	1	DHJF	786	1	blank2r.bmp	866	4	ausrottung	866	1	!	1292	1	!	-1	0	0	0	0	0	0	0	0	0	0	0	0	0	0	0	0	0	0	0	0	0	0	0	0	0	0	0
030619	11:38:19	11:45:36	436673	5.0.10.0	4_exp_AMP_EVA_AWA_CON	144	Rpleas_acq	Oppo	Rpleas	Amasked	CS_A	1pleas	distractor2	EVAbeforeCON	acq_US_unple_masked	acq3_masked	3	30	453	1	300	300	0	0	441	46	0	1	0	0	0	1	blank2r.bmp	0	1	+	0	4	B4r.bmp	492	1	blank2r.bmp	786	1	DHJF	786	1	blank2r.bmp	866	1	gierig	866	1	!	1292	1	!	1346	0	0	0	0	0	0	0	0	0	0	0	0	0	0	0	0	0	0	0	0	0	0	0	0	0	0	0
030619	11:38:19	11:45:39	439032	5.0.10.0	4_exp_AMP_EVA_AWA_CON	144	Rpleas_acq	Oppo	Rpleas	Amasked	CS_A	1pleas	distractor2	EVAbeforeCON	acq_US_pleas_masked	acq3_masked	3	31	453	0	300	300	0	0	587	50	0	1	0	0	0	1	blank2r.bmp	0	1	+	0	3	B3r.bmp	492	1	blank2r.bmp	786	1	CPLW	786	1	blank2r.bmp	866	1	gütig	866	1	!	1292	1	!	-1	0	0	0	0	0	0	0	0	0	0	0	0	0	0	0	0	0	0	0	0	0	0	0	0	0	0	0
030619	11:38:19	11:45:41	441404	5.0.10.0	4_exp_AMP_EVA_AWA_CON	144	Rpleas_acq	Oppo	Rpleas	Amasked	CS_A	1pleas	distractor2	EVAbeforeCON	acq_US_unple_masked	acq3_masked	3	32	453	0	300	300	0	0	580	46	0	1	0	0	0	1	blank2r.bmp	0	1	+	0	5	C1r.bmp	492	1	blank2r.bmp	786	1	DHJF	786	1	blank2r.bmp	866	2	krank	866	1	!	1292	1	!	-1	0	0	0	0	0	0	0	0	0	0	0	0	0	0	0	0	0	0	0	0	0	0	0	0	0	0	0
030619	11:38:19	11:45:43	443843	5.0.10.0	4_exp_AMP_EVA_AWA_CON	144	Rpleas_acq	Oppo	Rpleas	Amasked	CS_A	1pleas	distractor2	EVAbeforeCON	acq_US_unple_masked	acq3_masked	3	33	453	0	300	300	0	0	639	46	0	1	0	0	0	1	blank2r.bmp	0	1	+	0	1	B1r.bmp	492	1	blank2r.bmp	786	1	DHJF	786	1	blank2r.bmp	866	3	engstirnig	866	1	!	1292	1	!	-1	0	0	0	0	0	0	0	0	0	0	0	0	0	0	0	0	0	0	0	0	0	0	0	0	0	0	0
030619	11:38:19	11:45:46	446095	5.0.10.0	4_exp_AMP_EVA_AWA_CON	144	Rpleas_acq	Oppo	Rpleas	Amasked	CS_A	1pleas	distractor2	EVAbeforeCON	acq_US_pleas_masked	acq3_masked	3	34	453	1	300	300	0	0	451	50	0	1	0	0	0	1	blank2r.bmp	0	1	+	0	3	B3r.bmp	492	1	blank2r.bmp	786	1	CPLW	786	1	blank2r.bmp	866	3	engagiert	866	1	!	1292	1	!	1346	0	0	0	0	0	0	0	0	0	0	0	0	0	0	0	0	0	0	0	0	0	0	0	0	0	0	0
030619	11:38:19	11:45:48	448454	5.0.10.0	4_exp_AMP_EVA_AWA_CON	144	Rpleas_acq	Oppo	Rpleas	Amasked	CS_A	1pleas	distractor2	EVAbeforeCON	acq_US_pleas_masked	acq3_masked	3	35	453	0	300	300	0	0	585	50	0	1	0	0	0	1	blank2r.bmp	0	1	+	0	8	C4r.bmp	492	1	blank2r.bmp	786	1	CPLW	786	1	blank2r.bmp	866	5	besonnen	866	1	!	1292	1	!	-1	0	0	0	0	0	0	0	0	0	0	0	0	0	0	0	0	0	0	0	0	0	0	0	0	0	0	0
030619	11:38:19	11:45:50	450840	5.0.10.0	4_exp_AMP_EVA_AWA_CON	144	Rpleas_acq	Oppo	Rpleas	Amasked	CS_A	1pleas	distractor2	EVAbeforeCON	acq_US_unple_masked	acq3_masked	3	36	453	0	300	300	0	0	589	46	0	1	0	0	0	1	blank2r.bmp	0	1	+	0	7	C3r.bmp	492	1	blank2r.bmp	786	1	DHJF	786	1	blank2r.bmp	866	5	bange	866	1	!	1292	1	!	-1	0	0	0	0	0	0	0	0	0	0	0	0	0	0	0	0	0	0	0	0	0	0	0	0	0	0	0
030619	11:38:19	11:46:04	464554	5.0.10.0	4_exp_AMP_EVA_AWA_CON	144	Rpleas_acq	Oppo	Rpleas	Amasked	CS_A	1pleas	distractor2	EVAbeforeCON	acq_US_pleas_masked	acq45_masked	4	1	400	0	300	300	0	0	524	50	0	1	0	0	0	1	blank2r.bmp	0	1	+	0	2	B2r.bmp	492	1	blank2r.bmp	786	1	CPLW	786	1	blank2r.bmp	866	5	besonnen	866	1	!	1239	1	!	-1	0	0	0	0	0	0	0	0	0	0	0	0	0	0	0	0	0	0	0	0	0	0	0	0	0	0	0
030619	11:38:19	11:46:06	466794	5.0.10.0	4_exp_AMP_EVA_AWA_CON	144	Rpleas_acq	Oppo	Rpleas	Amasked	CS_A	1pleas	distractor2	EVAbeforeCON	acq_US_pleas_masked	acq45_masked	4	2	400	1	300	300	0	0	421	50	0	1	0	0	0	1	blank2r.bmp	0	1	+	0	4	B4r.bmp	492	1	blank2r.bmp	786	1	CPLW	786	1	blank2r.bmp	866	6	genießen	866	1	!	1239	1	!	1319	0	0	0	0	0	0	0	0	0	0	0	0	0	0	0	0	0	0	0	0	0	0	0	0	0	0	0
030619	11:38:19	11:46:09	469006	5.0.10.0	4_exp_AMP_EVA_AWA_CON	144	Rpleas_acq	Oppo	Rpleas	Amasked	CS_A	1pleas	distractor2	EVAbeforeCON	acq_US_unple_masked	acq45_masked	4	3	400	1	300	300	0	0	421	46	0	1	0	0	0	1	blank2r.bmp	0	1	+	0	5	C1r.bmp	492	1	blank2r.bmp	786	1	DHJF	786	1	blank2r.bmp	866	4	ausrottung	866	1	!	1239	1	!	1319	0	0	0	0	0	0	0	0	0	0	0	0	0	0	0	0	0	0	0	0	0	0	0	0	0	0	0
030619	11:38:19	11:46:11	471258	5.0.10.0	4_exp_AMP_EVA_AWA_CON	144	Rpleas_acq	Oppo	Rpleas	Amasked	CS_A	1pleas	distractor2	EVAbeforeCON	acq_US_unple_masked	acq45_masked	4	4	400	0	300	300	0	0	485	46	0	1	0	0	0	1	blank2r.bmp	0	1	+	0	6	C2r.bmp	492	1	blank2r.bmp	786	1	DHJF	786	1	blank2r.bmp	866	5	bange	866	1	!	1239	1	!	-1	0	0	0	0	0	0	0	0	0	0	0	0	0	0	0	0	0	0	0	0	0	0	0	0	0	0	0
030619	11:38:19	11:46:13	473524	5.0.10.0	4_exp_AMP_EVA_AWA_CON	144	Rpleas_acq	Oppo	Rpleas	Amasked	CS_A	1pleas	distractor2	EVAbeforeCON	acq_US_unple_masked	acq45_masked	4	5	400	0	300	300	0	0	479	46	0	1	0	0	0	1	blank2r.bmp	0	1	+	0	7	C3r.bmp	492	1	blank2r.bmp	786	1	DHJF	786	1	blank2r.bmp	866	3	engstirnig	866	1	!	1239	1	!	-1	0	0	0	0	0	0	0	0	0	0	0	0	0	0	0	0	0	0	0	0	0	0	0	0	0	0	0
030619	11:38:19	11:46:15	475710	5.0.10.0	4_exp_AMP_EVA_AWA_CON	144	Rpleas_acq	Oppo	Rpleas	Amasked	CS_A	1pleas	distractor2	EVAbeforeCON	acq_US_pleas_masked	acq45_masked	4	6	400	1	300	300	0	0	368	50	0	1	0	0	0	1	blank2r.bmp	0	1	+	0	8	C4r.bmp	492	1	blank2r.bmp	786	1	CPLW	786	1	blank2r.bmp	866	2	kreativ	866	1	!	1239	1	!	1266	0	0	0	0	0	0	0	0	0	0	0	0	0	0	0	0	0	0	0	0	0	0	0	0	0	0	0
030619	11:38:19	11:46:18	478029	5.0.10.0	4_exp_AMP_EVA_AWA_CON	144	Rpleas_acq	Oppo	Rpleas	Amasked	CS_A	1pleas	distractor2	EVAbeforeCON	acq_US_unple_masked	acq45_masked	4	7	400	0	300	300	0	0	556	50	0	0	0	0	0	1	blank2r.bmp	0	1	+	0	3	B3r.bmp	492	1	blank2r.bmp	786	1	DHJF	786	1	blank2r.bmp	866	2	krank	866	1	!	1239	1	!	-1	0	0	0	0	0	0	0	0	0	0	0	0	0	0	0	0	0	0	0	0	0	0	0	0	0	0	0
030619	11:38:19	11:46:21	480988	5.0.10.0	4_exp_AMP_EVA_AWA_CON	144	Rpleas_acq	Oppo	Rpleas	Amasked	CS_A	1pleas	distractor2	EVAbeforeCON	acq_US_pleas_masked	acq45_masked	4	8	400	0	300	300	0	0	1172	50	0	1	0	0	0	1	blank2r.bmp	0	1	+	0	4	B4r.bmp	492	1	blank2r.bmp	786	1	CPLW	786	1	blank2r.bmp	866	3	engagiert	866	1	!	1239	1	!	-1	0	0	0	0	0	0	0	0	0	0	0	0	0	0	0	0	0	0	0	0	0	0	0	0	0	0	0
030619	11:38:19	11:46:23	483267	5.0.10.0	4_exp_AMP_EVA_AWA_CON	144	Rpleas_acq	Oppo	Rpleas	Amasked	CS_A	1pleas	distractor2	EVAbeforeCON	acq_US_pleas_masked	acq45_masked	4	9	400	0	300	300	0	0	498	46	0	0	0	0	0	1	blank2r.bmp	0	1	+	0	1	B1r.bmp	492	1	blank2r.bmp	786	1	CPLW	786	1	blank2r.bmp	866	4	anregung	866	1	!	1239	1	!	-1	0	0	0	0	0	0	0	0	0	0	0	0	0	0	0	0	0	0	0	0	0	0	0	0	0	0	0
030619	11:38:19	11:46:25	485599	5.0.10.0	4_exp_AMP_EVA_AWA_CON	144	Rpleas_acq	Oppo	Rpleas	Amasked	CS_A	1pleas	distractor2	EVAbeforeCON	acq_US_pleas_masked	acq45_masked	4	10	400	0	300	300	0	0	548	50	0	1	0	0	0	1	blank2r.bmp	0	1	+	0	2	B2r.bmp	492	1	blank2r.bmp	786	1	CPLW	786	1	blank2r.bmp	866	1	gütig	866	1	!	1239	1	!	-1	0	0	0	0	0	0	0	0	0	0	0	0	0	0	0	0	0	0	0	0	0	0	0	0	0	0	0
030619	11:38:19	11:46:28	487918	5.0.10.0	4_exp_AMP_EVA_AWA_CON	144	Rpleas_acq	Oppo	Rpleas	Amasked	CS_A	1pleas	distractor2	EVAbeforeCON	acq_US_pleas_masked	acq45_masked	4	11	400	0	300	300	0	0	543	50	0	1	0	0	0	1	blank2r.bmp	0	1	+	0	6	C2r.bmp	492	1	blank2r.bmp	786	1	CPLW	786	1	blank2r.bmp	866	3	engagiert	866	1	!	1239	1	!	-1	0	0	0	0	0	0	0	0	0	0	0	0	0	0	0	0	0	0	0	0	0	0	0	0	0	0	0
030619	11:38:19	11:46:30	490077	5.0.10.0	4_exp_AMP_EVA_AWA_CON	144	Rpleas_acq	Oppo	Rpleas	Amasked	CS_A	1pleas	distractor2	EVAbeforeCON	acq_US_unple_masked	acq45_masked	4	12	400	1	300	300	0	0	346	46	0	1	0	0	0	1	blank2r.bmp	0	1	+	0	5	C1r.bmp	492	1	blank2r.bmp	786	1	DHJF	786	1	blank2r.bmp	866	6	gemein	866	1	!	1239	1	!	1252	0	0	0	0	0	0	0	0	0	0	0	0	0	0	0	0	0	0	0	0	0	0	0	0	0	0	0
030619	11:38:19	11:46:32	492796	5.0.10.0	4_exp_AMP_EVA_AWA_CON	144	Rpleas_acq	Oppo	Rpleas	Amasked	CS_A	1pleas	distractor2	EVAbeforeCON	acq_US_pleas_masked	acq45_masked	4	13	400	0	300	300	0	0	947	50	0	1	0	0	0	1	blank2r.bmp	0	1	+	0	3	B3r.bmp	492	1	blank2r.bmp	786	1	CPLW	786	1	blank2r.bmp	866	6	genießen	866	1	!	1239	1	!	-1	0	0	0	0	0	0	0	0	0	0	0	0	0	0	0	0	0	0	0	0	0	0	0	0	0	0	0
030619	11:38:19	11:46:35	494875	5.0.10.0	4_exp_AMP_EVA_AWA_CON	144	Rpleas_acq	Oppo	Rpleas	Amasked	CS_A	1pleas	distractor2	EVAbeforeCON	acq_US_unple_masked	acq45_masked	4	14	400	0	300	300	0	0	301	50	0	0	0	0	0	1	blank2r.bmp	0	1	+	0	4	B4r.bmp	492	1	blank2r.bmp	786	1	DHJF	786	1	blank2r.bmp	866	1	gierig	866	1	!	-1	1	!	-1	0	0	0	0	0	0	0	0	0	0	0	0	0	0	0	0	0	0	0	0	0	0	0	0	0	0	0
030619	11:38:19	11:46:37	497248	5.0.10.0	4_exp_AMP_EVA_AWA_CON	144	Rpleas_acq	Oppo	Rpleas	Amasked	CS_A	1pleas	distractor2	EVAbeforeCON	acq_US_unple_masked	acq45_masked	4	15	400	0	300	300	0	0	587	46	0	1	0	0	0	1	blank2r.bmp	0	1	+	0	2	B2r.bmp	492	1	blank2r.bmp	786	1	DHJF	786	1	blank2r.bmp	866	6	gemein	866	1	!	1239	1	!	-1	0	0	0	0	0	0	0	0	0	0	0	0	0	0	0	0	0	0	0	0	0	0	0	0	0	0	0
030619	11:38:19	11:46:39	499647	5.0.10.0	4_exp_AMP_EVA_AWA_CON	144	Rpleas_acq	Oppo	Rpleas	Amasked	CS_A	1pleas	distractor2	EVAbeforeCON	acq_US_unple_masked	acq45_masked	4	16	400	0	300	300	0	0	622	46	0	1	0	0	0	1	blank2r.bmp	0	1	+	0	5	C1r.bmp	492	1	blank2r.bmp	786	1	DHJF	786	1	blank2r.bmp	866	3	engstirnig	866	1	!	1239	1	!	-1	0	0	0	0	0	0	0	0	0	0	0	0	0	0	0	0	0	0	0	0	0	0	0	0	0	0	0
030619	11:38:19	11:46:42	501912	5.0.10.0	4_exp_AMP_EVA_AWA_CON	144	Rpleas_acq	Oppo	Rpleas	Amasked	CS_A	1pleas	distractor2	EVAbeforeCON	acq_US_pleas_masked	acq45_masked	4	17	400	0	300	300	0	0	479	50	0	1	0	0	0	1	blank2r.bmp	0	1	+	0	1	B1r.bmp	492	1	blank2r.bmp	786	1	CPLW	786	1	blank2r.bmp	866	1	gütig	866	1	!	1239	1	!	-1	0	0	0	0	0	0	0	0	0	0	0	0	0	0	0	0	0	0	0	0	0	0	0	0	0	0	0
030619	11:38:19	11:46:44	504245	5.0.10.0	4_exp_AMP_EVA_AWA_CON	144	Rpleas_acq	Oppo	Rpleas	Amasked	CS_A	1pleas	distractor2	EVAbeforeCON	acq_US_unple_masked	acq45_masked	4	18	400	0	300	300	0	0	546	46	0	1	0	0	0	1	blank2r.bmp	0	1	+	0	8	C4r.bmp	492	1	blank2r.bmp	786	1	DHJF	786	1	blank2r.bmp	866	2	krank	866	1	!	1239	1	!	-1	0	0	0	0	0	0	0	0	0	0	0	0	0	0	0	0	0	0	0	0	0	0	0	0	0	0	0
030619	11:38:19	11:46:46	506364	5.0.10.0	4_exp_AMP_EVA_AWA_CON	144	Rpleas_acq	Oppo	Rpleas	Amasked	CS_A	1pleas	distractor2	EVAbeforeCON	acq_US_pleas_masked	acq45_masked	4	19	400	0	300	300	0	0	333	50	0	1	0	0	0	1	blank2r.bmp	0	1	+	0	7	C3r.bmp	492	1	blank2r.bmp	786	1	CPLW	786	1	blank2r.bmp	866	4	anregung	866	1	!	-1	1	!	-1	0	0	0	0	0	0	0	0	0	0	0	0	0	0	0	0	0	0	0	0	0	0	0	0	0	0	0
030619	11:38:19	11:46:48	508443	5.0.10.0	4_exp_AMP_EVA_AWA_CON	144	Rpleas_acq	Oppo	Rpleas	Amasked	CS_A	1pleas	distractor2	EVAbeforeCON	acq_US_unple_masked	acq45_masked	4	20	400	0	300	300	0	0	300	46	0	1	0	0	0	1	blank2r.bmp	0	1	+	0	6	C2r.bmp	492	1	blank2r.bmp	786	1	DHJF	786	1	blank2r.bmp	866	5	bange	866	1	!	-1	1	!	-1	0	0	0	0	0	0	0	0	0	0	0	0	0	0	0	0	0	0	0	0	0	0	0	0	0	0	0
030619	11:38:19	11:46:50	510562	5.0.10.0	4_exp_AMP_EVA_AWA_CON	144	Rpleas_acq	Oppo	Rpleas	Amasked	CS_A	1pleas	distractor2	EVAbeforeCON	acq_US_unple_masked	acq45_masked	4	21	400	0	300	300	0	0	332	50	0	0	0	0	0	1	blank2r.bmp	0	1	+	0	4	B4r.bmp	492	1	blank2r.bmp	786	1	DHJF	786	1	blank2r.bmp	866	1	gierig	866	1	!	-1	1	!	-1	0	0	0	0	0	0	0	0	0	0	0	0	0	0	0	0	0	0	0	0	0	0	0	0	0	0	0
030619	11:38:19	11:46:52	512855	5.0.10.0	4_exp_AMP_EVA_AWA_CON	144	Rpleas_acq	Oppo	Rpleas	Amasked	CS_A	1pleas	distractor2	EVAbeforeCON	acq_US_unple_masked	acq45_masked	4	22	400	0	300	300	0	0	506	46	0	1	0	0	0	1	blank2r.bmp	0	1	+	0	8	C4r.bmp	492	1	blank2r.bmp	786	1	DHJF	786	1	blank2r.bmp	866	4	ausrottung	866	1	!	1239	1	!	-1	0	0	0	0	0	0	0	0	0	0	0	0	0	0	0	0	0	0	0	0	0	0	0	0	0	0	0
030619	11:38:19	11:46:55	515120	5.0.10.0	4_exp_AMP_EVA_AWA_CON	144	Rpleas_acq	Oppo	Rpleas	Amasked	CS_A	1pleas	distractor2	EVAbeforeCON	acq_US_pleas_masked	acq45_masked	4	23	400	0	300	300	0	0	479	50	0	1	0	0	0	1	blank2r.bmp	0	1	+	0	2	B2r.bmp	492	1	blank2r.bmp	786	1	CPLW	786	1	blank2r.bmp	866	5	besonnen	866	1	!	1239	1	!	-1	0	0	0	0	0	0	0	0	0	0	0	0	0	0	0	0	0	0	0	0	0	0	0	0	0	0	0
030619	11:38:19	11:46:57	517386	5.0.10.0	4_exp_AMP_EVA_AWA_CON	144	Rpleas_acq	Oppo	Rpleas	Amasked	CS_A	1pleas	distractor2	EVAbeforeCON	acq_US_pleas_masked	acq45_masked	4	24	400	0	300	300	0	0	479	50	0	1	0	0	0	1	blank2r.bmp	0	1	+	0	6	C2r.bmp	492	1	blank2r.bmp	786	1	CPLW	786	1	blank2r.bmp	866	2	kreativ	866	1	!	1239	1	!	-1	0	0	0	0	0	0	0	0	0	0	0	0	0	0	0	0	0	0	0	0	0	0	0	0	0	0	0
030619	11:38:19	11:46:59	519652	5.0.10.0	4_exp_AMP_EVA_AWA_CON	144	Rpleas_acq	Oppo	Rpleas	Amasked	CS_A	1pleas	distractor2	EVAbeforeCON	acq_US_unple_masked	acq45_masked	4	25	400	0	300	300	0	0	480	46	0	1	0	0	0	1	blank2r.bmp	0	1	+	0	5	C1r.bmp	492	1	blank2r.bmp	786	1	DHJF	786	1	blank2r.bmp	866	5	bange	866	1	!	1239	1	!	-1	0	0	0	0	0	0	0	0	0	0	0	0	0	0	0	0	0	0	0	0	0	0	0	0	0	0	0
030619	11:38:19	11:47:02	522024	5.0.10.0	4_exp_AMP_EVA_AWA_CON	144	Rpleas_acq	Oppo	Rpleas	Amasked	CS_A	1pleas	distractor2	EVAbeforeCON	acq_US_unple_masked	acq45_masked	4	26	400	0	300	300	0	0	573	46	0	1	0	0	0	1	blank2r.bmp	0	1	+	0	7	C3r.bmp	492	1	blank2r.bmp	786	1	DHJF	786	1	blank2r.bmp	866	2	krank	866	1	!	1239	1	!	-1	0	0	0	0	0	0	0	0	0	0	0	0	0	0	0	0	0	0	0	0	0	0	0	0	0	0	0
030619	11:38:19	11:47:04	524303	5.0.10.0	4_exp_AMP_EVA_AWA_CON	144	Rpleas_acq	Oppo	Rpleas	Amasked	CS_A	1pleas	distractor2	EVAbeforeCON	acq_US_unple_masked	acq45_masked	4	27	400	0	300	300	0	0	479	46	0	1	0	0	0	1	blank2r.bmp	0	1	+	0	3	B3r.bmp	492	1	blank2r.bmp	786	1	DHJF	786	1	blank2r.bmp	866	4	ausrottung	866	1	!	1239	1	!	-1	0	0	0	0	0	0	0	0	0	0	0	0	0	0	0	0	0	0	0	0	0	0	0	0	0	0	0
030619	11:38:19	11:47:06	526462	5.0.10.0	4_exp_AMP_EVA_AWA_CON	144	Rpleas_acq	Oppo	Rpleas	Amasked	CS_A	1pleas	distractor2	EVAbeforeCON	acq_US_unple_masked	acq45_masked	4	28	400	1	300	300	0	0	346	46	0	1	0	0	0	1	blank2r.bmp	0	1	+	0	1	B1r.bmp	492	1	blank2r.bmp	786	1	DHJF	786	1	blank2r.bmp	866	1	gierig	866	1	!	1239	1	!	1252	0	0	0	0	0	0	0	0	0	0	0	0	0	0	0	0	0	0	0	0	0	0	0	0	0	0	0
030619	11:38:19	11:47:08	528715	5.0.10.0	4_exp_AMP_EVA_AWA_CON	144	Rpleas_acq	Oppo	Rpleas	Amasked	CS_A	1pleas	distractor2	EVAbeforeCON	acq_US_pleas_masked	acq45_masked	4	29	400	1	300	300	0	0	453	50	0	1	0	0	0	1	blank2r.bmp	0	1	+	0	5	C1r.bmp	492	1	blank2r.bmp	786	1	CPLW	786	1	blank2r.bmp	866	3	engagiert	866	1	!	1239	1	!	1359	0	0	0	0	0	0	0	0	0	0	0	0	0	0	0	0	0	0	0	0	0	0	0	0	0	0	0
030619	11:38:19	11:47:11	530954	5.0.10.0	4_exp_AMP_EVA_AWA_CON	144	Rpleas_acq	Oppo	Rpleas	Amasked	CS_A	1pleas	distractor2	EVAbeforeCON	acq_US_pleas_masked	acq45_masked	4	30	400	1	300	300	0	0	430	50	0	1	0	0	0	1	blank2r.bmp	0	1	+	0	2	B2r.bmp	492	1	blank2r.bmp	786	1	CPLW	786	1	blank2r.bmp	866	6	genießen	866	1	!	1239	1	!	1332	0	0	0	0	0	0	0	0	0	0	0	0	0	0	0	0	0	0	0	0	0	0	0	0	0	0	0
030619	11:38:19	11:47:13	533140	5.0.10.0	4_exp_AMP_EVA_AWA_CON	144	Rpleas_acq	Oppo	Rpleas	Amasked	CS_A	1pleas	distractor2	EVAbeforeCON	acq_US_unple_masked	acq45_masked	4	31	400	1	300	300	0	0	395	46	0	1	0	0	0	1	blank2r.bmp	0	1	+	0	1	B1r.bmp	492	1	blank2r.bmp	786	1	DHJF	786	1	blank2r.bmp	866	6	gemein	866	1	!	1239	1	!	1292	0	0	0	0	0	0	0	0	0	0	0	0	0	0	0	0	0	0	0	0	0	0	0	0	0	0	0
030619	11:38:19	11:47:15	535379	5.0.10.0	4_exp_AMP_EVA_AWA_CON	144	Rpleas_acq	Oppo	Rpleas	Amasked	CS_A	1pleas	distractor2	EVAbeforeCON	acq_US_unple_masked	acq45_masked	4	32	400	1	300	300	0	0	445	50	0	0	0	0	0	1	blank2r.bmp	0	1	+	0	3	B3r.bmp	492	1	blank2r.bmp	786	1	DHJF	786	1	blank2r.bmp	866	3	engstirnig	866	1	!	1239	1	!	1346	0	0	0	0	0	0	0	0	0	0	0	0	0	0	0	0	0	0	0	0	0	0	0	0	0	0	0
030619	11:38:19	11:47:18	537871	5.0.10.0	4_exp_AMP_EVA_AWA_CON	144	Rpleas_acq	Oppo	Rpleas	Amasked	CS_A	1pleas	distractor2	EVAbeforeCON	acq_US_pleas_masked	acq45_masked	4	33	400	0	300	300	0	0	720	50	0	1	0	0	0	1	blank2r.bmp	0	1	+	0	6	C2r.bmp	492	1	blank2r.bmp	786	1	CPLW	786	1	blank2r.bmp	866	4	anregung	866	1	!	1239	1	!	-1	0	0	0	0	0	0	0	0	0	0	0	0	0	0	0	0	0	0	0	0	0	0	0	0	0	0	0
030619	11:38:19	11:47:20	540377	5.0.10.0	4_exp_AMP_EVA_AWA_CON	144	Rpleas_acq	Oppo	Rpleas	Amasked	CS_A	1pleas	distractor2	EVAbeforeCON	acq_US_pleas_masked	acq45_masked	4	34	400	0	300	300	0	0	723	50	0	1	0	0	0	1	blank2r.bmp	0	1	+	0	4	B4r.bmp	492	1	blank2r.bmp	786	1	CPLW	786	1	blank2r.bmp	866	1	gütig	866	1	!	1239	1	!	-1	0	0	0	0	0	0	0	0	0	0	0	0	0	0	0	0	0	0	0	0	0	0	0	0	0	0	0
030619	11:38:19	11:47:22	542789	5.0.10.0	4_exp_AMP_EVA_AWA_CON	144	Rpleas_acq	Oppo	Rpleas	Amasked	CS_A	1pleas	distractor2	EVAbeforeCON	acq_US_pleas_masked	acq45_masked	4	35	400	0	300	300	0	0	633	50	0	1	0	0	0	1	blank2r.bmp	0	1	+	0	7	C3r.bmp	492	1	blank2r.bmp	786	1	CPLW	786	1	blank2r.bmp	866	5	besonnen	866	1	!	1239	1	!	-1	0	0	0	0	0	0	0	0	0	0	0	0	0	0	0	0	0	0	0	0	0	0	0	0	0	0	0
030619	11:38:19	11:47:25	545055	5.0.10.0	4_exp_AMP_EVA_AWA_CON	144	Rpleas_acq	Oppo	Rpleas	Amasked	CS_A	1pleas	distractor2	EVAbeforeCON	acq_US_pleas_masked	acq45_masked	4	36	400	0	300	300	0	0	485	50	0	1	0	0	0	1	blank2r.bmp	0	1	+	0	8	C4r.bmp	492	1	blank2r.bmp	786	1	CPLW	786	1	blank2r.bmp	866	2	kreativ	866	1	!	1239	1	!	-1	0	0	0	0	0	0	0	0	0	0	0	0	0	0	0	0	0	0	0	0	0	0	0	0	0	0	0
030619	11:38:19	11:47:44	564633	5.0.10.0	4_exp_AMP_EVA_AWA_CON	144	Rpleas_acq	Oppo	Rpleas	Amasked	CS_A	1pleas	distractor2	EVAbeforeCON	acq_US_unple_masked	acq45_masked	5	1	400	0	300	300	0	0	482	46	0	1	0	0	0	1	blank2r.bmp	0	1	+	0	7	C3r.bmp	492	1	blank2r.bmp	786	1	DHJF	786	1	blank2r.bmp	866	1	gierig	866	1	!	1239	1	!	-1	0	0	0	0	0	0	0	0	0	0	0	0	0	0	0	0	0	0	0	0	0	0	0	0	0	0	0
030619	11:38:19	11:47:47	566859	5.0.10.0	4_exp_AMP_EVA_AWA_CON	144	Rpleas_acq	Oppo	Rpleas	Amasked	CS_A	1pleas	distractor2	EVAbeforeCON	acq_US_unple_masked	acq45_masked	5	2	400	1	300	300	0	0	418	46	0	1	0	0	0	1	blank2r.bmp	0	1	+	0	1	B1r.bmp	492	1	blank2r.bmp	786	1	DHJF	786	1	blank2r.bmp	866	4	ausrottung	866	1	!	1239	1	!	1319	0	0	0	0	0	0	0	0	0	0	0	0	0	0	0	0	0	0	0	0	0	0	0	0	0	0	0
030619	11:38:19	11:47:49	569138	5.0.10.0	4_exp_AMP_EVA_AWA_CON	144	Rpleas_acq	Oppo	Rpleas	Amasked	CS_A	1pleas	distractor2	EVAbeforeCON	acq_US_unple_masked	acq45_masked	5	3	400	0	300	300	0	0	516	46	0	1	0	0	0	1	blank2r.bmp	0	1	+	0	3	B3r.bmp	492	1	blank2r.bmp	786	1	DHJF	786	1	blank2r.bmp	866	3	engstirnig	866	1	!	1239	1	!	-1	0	0	0	0	0	0	0	0	0	0	0	0	0	0	0	0	0	0	0	0	0	0	0	0	0	0	0
030619	11:38:19	11:47:51	571444	5.0.10.0	4_exp_AMP_EVA_AWA_CON	144	Rpleas_acq	Oppo	Rpleas	Amasked	CS_A	1pleas	distractor2	EVAbeforeCON	acq_US_unple_masked	acq45_masked	5	4	400	0	300	300	0	0	524	46	0	1	0	0	0	1	blank2r.bmp	0	1	+	0	5	C1r.bmp	492	1	blank2r.bmp	786	1	DHJF	786	1	blank2r.bmp	866	2	krank	866	1	!	1239	1	!	-1	0	0	0	0	0	0	0	0	0	0	0	0	0	0	0	0	0	0	0	0	0	0	0	0	0	0	0
030619	11:38:19	11:47:53	573616	5.0.10.0	4_exp_AMP_EVA_AWA_CON	144	Rpleas_acq	Oppo	Rpleas	Amasked	CS_A	1pleas	distractor2	EVAbeforeCON	acq_US_pleas_masked	acq45_masked	5	5	400	1	300	300	0	0	351	50	0	1	0	0	0	1	blank2r.bmp	0	1	+	0	2	B2r.bmp	492	1	blank2r.bmp	786	1	CPLW	786	1	blank2r.bmp	866	2	kreativ	866	1	!	1239	1	!	1252	0	0	0	0	0	0	0	0	0	0	0	0	0	0	0	0	0	0	0	0	0	0	0	0	0	0	0
030619	11:38:19	11:47:56	575855	5.0.10.0	4_exp_AMP_EVA_AWA_CON	144	Rpleas_acq	Oppo	Rpleas	Amasked	CS_A	1pleas	distractor2	EVAbeforeCON	acq_US_unple_masked	acq45_masked	5	6	400	1	300	300	0	0	450	46	0	1	0	0	0	1	blank2r.bmp	0	1	+	0	4	B4r.bmp	492	1	blank2r.bmp	786	1	DHJF	786	1	blank2r.bmp	866	5	bange	866	1	!	1239	1	!	1346	0	0	0	0	0	0	0	0	0	0	0	0	0	0	0	0	0	0	0	0	0	0	0	0	0	0	0
030619	11:38:19	11:47:58	578121	5.0.10.0	4_exp_AMP_EVA_AWA_CON	144	Rpleas_acq	Oppo	Rpleas	Amasked	CS_A	1pleas	distractor2	EVAbeforeCON	acq_US_pleas_masked	acq45_masked	5	7	400	0	300	300	0	0	485	50	0	1	0	0	0	1	blank2r.bmp	0	1	+	0	8	C4r.bmp	492	1	blank2r.bmp	786	1	CPLW	786	1	blank2r.bmp	866	3	engagiert	866	1	!	1239	1	!	-1	0	0	0	0	0	0	0	0	0	0	0	0	0	0	0	0	0	0	0	0	0	0	0	0	0	0	0
030619	11:38:19	11:48:00	580573	5.0.10.0	4_exp_AMP_EVA_AWA_CON	144	Rpleas_acq	Oppo	Rpleas	Amasked	CS_A	1pleas	distractor2	EVAbeforeCON	acq_US_pleas_masked	acq45_masked	5	8	400	0	300	300	0	0	657	50	0	1	0	0	0	1	blank2r.bmp	0	1	+	0	6	C2r.bmp	492	1	blank2r.bmp	786	1	CPLW	786	1	blank2r.bmp	866	4	anregung	866	1	!	1239	1	!	-1	0	0	0	0	0	0	0	0	0	0	0	0	0	0	0	0	0	0	0	0	0	0	0	0	0	0	0
030619	11:38:19	11:48:03	582866	5.0.10.0	4_exp_AMP_EVA_AWA_CON	144	Rpleas_acq	Oppo	Rpleas	Amasked	CS_A	1pleas	distractor2	EVAbeforeCON	acq_US_unple_masked	acq45_masked	5	9	400	0	300	300	0	0	516	46	0	1	0	0	0	1	blank2r.bmp	0	1	+	0	8	C4r.bmp	492	1	blank2r.bmp	786	1	DHJF	786	1	blank2r.bmp	866	6	gemein	866	1	!	1239	1	!	-1	0	0	0	0	0	0	0	0	0	0	0	0	0	0	0	0	0	0	0	0	0	0	0	0	0	0	0
030619	11:38:19	11:48:05	585251	5.0.10.0	4_exp_AMP_EVA_AWA_CON	144	Rpleas_acq	Oppo	Rpleas	Amasked	CS_A	1pleas	distractor2	EVAbeforeCON	acq_US_unple_masked	acq45_masked	5	10	400	0	300	300	0	0	606	46	0	1	0	0	0	1	blank2r.bmp	0	1	+	0	3	B3r.bmp	492	1	blank2r.bmp	786	1	DHJF	786	1	blank2r.bmp	866	1	gierig	866	1	!	1239	1	!	-1	0	0	0	0	0	0	0	0	0	0	0	0	0	0	0	0	0	0	0	0	0	0	0	0	0	0	0
030619	11:38:19	11:48:07	587610	5.0.10.0	4_exp_AMP_EVA_AWA_CON	144	Rpleas_acq	Oppo	Rpleas	Amasked	CS_A	1pleas	distractor2	EVAbeforeCON	acq_US_pleas_masked	acq45_masked	5	11	400	0	300	300	0	0	579	50	0	1	0	0	0	1	blank2r.bmp	0	1	+	0	5	C1r.bmp	492	1	blank2r.bmp	786	1	CPLW	786	1	blank2r.bmp	866	1	gütig	866	1	!	1239	1	!	-1	0	0	0	0	0	0	0	0	0	0	0	0	0	0	0	0	0	0	0	0	0	0	0	0	0	0	0
030619	11:38:19	11:48:10	589889	5.0.10.0	4_exp_AMP_EVA_AWA_CON	144	Rpleas_acq	Oppo	Rpleas	Amasked	CS_A	1pleas	distractor2	EVAbeforeCON	acq_US_pleas_masked	acq45_masked	5	12	400	0	300	300	0	0	498	50	0	1	0	0	0	1	blank2r.bmp	0	1	+	0	2	B2r.bmp	492	1	blank2r.bmp	786	1	CPLW	786	1	blank2r.bmp	866	5	besonnen	866	1	!	1239	1	!	-1	0	0	0	0	0	0	0	0	0	0	0	0	0	0	0	0	0	0	0	0	0	0	0	0	0	0	0
030619	11:38:19	11:48:12	592102	5.0.10.0	4_exp_AMP_EVA_AWA_CON	144	Rpleas_acq	Oppo	Rpleas	Amasked	CS_A	1pleas	distractor2	EVAbeforeCON	acq_US_pleas_masked	acq45_masked	5	13	400	1	300	300	0	0	410	50	0	1	0	0	0	1	blank2r.bmp	0	1	+	0	4	B4r.bmp	492	1	blank2r.bmp	786	1	CPLW	786	1	blank2r.bmp	866	6	genießen	866	1	!	1239	1	!	1306	0	0	0	0	0	0	0	0	0	0	0	0	0	0	0	0	0	0	0	0	0	0	0	0	0	0	0
030619	11:38:19	11:48:14	594488	5.0.10.0	4_exp_AMP_EVA_AWA_CON	144	Rpleas_acq	Oppo	Rpleas	Amasked	CS_A	1pleas	distractor2	EVAbeforeCON	acq_US_pleas_masked	acq45_masked	5	14	400	0	300	300	0	0	616	50	0	1	0	0	0	1	blank2r.bmp	0	1	+	0	1	B1r.bmp	492	1	blank2r.bmp	786	1	CPLW	786	1	blank2r.bmp	866	1	gütig	866	1	!	1239	1	!	-1	0	0	0	0	0	0	0	0	0	0	0	0	0	0	0	0	0	0	0	0	0	0	0	0	0	0	0
030619	11:38:19	11:48:16	596687	5.0.10.0	4_exp_AMP_EVA_AWA_CON	144	Rpleas_acq	Oppo	Rpleas	Amasked	CS_A	1pleas	distractor2	EVAbeforeCON	acq_US_unple_masked	acq45_masked	5	15	400	1	300	300	0	0	391	46	0	1	0	0	0	1	blank2r.bmp	0	1	+	0	7	C3r.bmp	492	1	blank2r.bmp	786	1	DHJF	786	1	blank2r.bmp	866	5	bange	866	1	!	1239	1	!	1292	0	0	0	0	0	0	0	0	0	0	0	0	0	0	0	0	0	0	0	0	0	0	0	0	0	0	0
030619	11:38:19	11:48:19	598939	5.0.10.0	4_exp_AMP_EVA_AWA_CON	144	Rpleas_acq	Oppo	Rpleas	Amasked	CS_A	1pleas	distractor2	EVAbeforeCON	acq_US_pleas_masked	acq45_masked	5	16	400	1	300	300	0	0	460	50	0	1	0	0	0	1	blank2r.bmp	0	1	+	0	6	C2r.bmp	492	1	blank2r.bmp	786	1	CPLW	786	1	blank2r.bmp	866	5	besonnen	866	1	!	1239	1	!	1359	0	0	0	0	0	0	0	0	0	0	0	0	0	0	0	0	0	0	0	0	0	0	0	0	0	0	0
030619	11:38:19	11:48:21	601231	5.0.10.0	4_exp_AMP_EVA_AWA_CON	144	Rpleas_acq	Oppo	Rpleas	Amasked	CS_A	1pleas	distractor2	EVAbeforeCON	acq_US_pleas_masked	acq45_masked	5	17	400	0	300	300	0	0	521	50	0	1	0	0	0	1	blank2r.bmp	0	1	+	0	8	C4r.bmp	492	1	blank2r.bmp	786	1	CPLW	786	1	blank2r.bmp	866	6	genießen	866	1	!	1239	1	!	-1	0	0	0	0	0	0	0	0	0	0	0	0	0	0	0	0	0	0	0	0	0	0	0	0	0	0	0
030619	11:38:19	11:48:23	603524	5.0.10.0	4_exp_AMP_EVA_AWA_CON	144	Rpleas_acq	Oppo	Rpleas	Amasked	CS_A	1pleas	distractor2	EVAbeforeCON	acq_US_unple_masked	acq45_masked	5	18	400	0	300	300	0	0	511	46	0	1	0	0	0	1	blank2r.bmp	0	1	+	0	7	C3r.bmp	492	1	blank2r.bmp	786	1	DHJF	786	1	blank2r.bmp	866	2	krank	866	1	!	1239	1	!	-1	0	0	0	0	0	0	0	0	0	0	0	0	0	0	0	0	0	0	0	0	0	0	0	0	0	0	0
030619	11:38:19	11:48:25	605843	5.0.10.0	4_exp_AMP_EVA_AWA_CON	144	Rpleas_acq	Oppo	Rpleas	Amasked	CS_A	1pleas	distractor2	EVAbeforeCON	acq_US_pleas_masked	acq45_masked	5	19	400	0	300	300	0	0	534	50	0	1	0	0	0	1	blank2r.bmp	0	1	+	0	6	C2r.bmp	492	1	blank2r.bmp	786	1	CPLW	786	1	blank2r.bmp	866	3	engagiert	866	1	!	1239	1	!	-1	0	0	0	0	0	0	0	0	0	0	0	0	0	0	0	0	0	0	0	0	0	0	0	0	0	0	0
030619	11:38:19	11:48:28	608135	5.0.10.0	4_exp_AMP_EVA_AWA_CON	144	Rpleas_acq	Oppo	Rpleas	Amasked	CS_A	1pleas	distractor2	EVAbeforeCON	acq_US_pleas_masked	acq45_masked	5	20	400	0	300	300	0	0	502	50	0	1	0	0	0	1	blank2r.bmp	0	1	+	0	2	B2r.bmp	492	1	blank2r.bmp	786	1	CPLW	786	1	blank2r.bmp	866	4	anregung	866	1	!	1239	1	!	-1	0	0	0	0	0	0	0	0	0	0	0	0	0	0	0	0	0	0	0	0	0	0	0	0	0	0	0
030619	11:38:19	11:48:30	610401	5.0.10.0	4_exp_AMP_EVA_AWA_CON	144	Rpleas_acq	Oppo	Rpleas	Amasked	CS_A	1pleas	distractor2	EVAbeforeCON	acq_US_unple_masked	acq45_masked	5	21	400	1	300	300	0	0	441	46	0	1	0	0	0	1	blank2r.bmp	0	1	+	0	1	B1r.bmp	492	1	blank2r.bmp	786	1	DHJF	786	1	blank2r.bmp	866	6	gemein	866	1	!	1239	1	!	1346	0	0	0	0	0	0	0	0	0	0	0	0	0	0	0	0	0	0	0	0	0	0	0	0	0	0	0
030619	11:38:19	11:48:32	612667	5.0.10.0	4_exp_AMP_EVA_AWA_CON	144	Rpleas_acq	Oppo	Rpleas	Amasked	CS_A	1pleas	distractor2	EVAbeforeCON	acq_US_pleas_masked	acq45_masked	5	22	400	0	300	300	0	0	502	50	0	1	0	0	0	1	blank2r.bmp	0	1	+	0	5	C1r.bmp	492	1	blank2r.bmp	786	1	CPLW	786	1	blank2r.bmp	866	2	kreativ	866	1	!	1239	1	!	-1	0	0	0	0	0	0	0	0	0	0	0	0	0	0	0	0	0	0	0	0	0	0	0	0	0	0	0
030619	11:38:19	11:48:35	614893	5.0.10.0	4_exp_AMP_EVA_AWA_CON	144	Rpleas_acq	Oppo	Rpleas	Amasked	CS_A	1pleas	distractor2	EVAbeforeCON	acq_US_pleas_masked	acq45_masked	5	23	400	1	300	300	0	0	422	46	0	0	0	0	0	1	blank2r.bmp	0	1	+	0	3	B3r.bmp	492	1	blank2r.bmp	786	1	CPLW	786	1	blank2r.bmp	866	1	gütig	866	1	!	1239	1	!	1319	0	0	0	0	0	0	0	0	0	0	0	0	0	0	0	0	0	0	0	0	0	0	0	0	0	0	0
030619	11:38:19	11:48:37	617278	5.0.10.0	4_exp_AMP_EVA_AWA_CON	144	Rpleas_acq	Oppo	Rpleas	Amasked	CS_A	1pleas	distractor2	EVAbeforeCON	acq_US_unple_masked	acq45_masked	5	24	400	0	300	300	0	0	617	46	0	1	0	0	0	1	blank2r.bmp	0	1	+	0	4	B4r.bmp	492	1	blank2r.bmp	786	1	DHJF	786	1	blank2r.bmp	866	4	ausrottung	866	1	!	1239	1	!	-1	0	0	0	0	0	0	0	0	0	0	0	0	0	0	0	0	0	0	0	0	0	0	0	0	0	0	0
030619	11:38:19	11:48:39	619504	5.0.10.0	4_exp_AMP_EVA_AWA_CON	144	Rpleas_acq	Oppo	Rpleas	Amasked	CS_A	1pleas	distractor2	EVAbeforeCON	acq_US_pleas_masked	acq45_masked	5	25	400	1	300	300	0	0	419	50	0	1	0	0	0	1	blank2r.bmp	0	1	+	0	2	B2r.bmp	492	1	blank2r.bmp	786	1	CPLW	786	1	blank2r.bmp	866	4	anregung	866	1	!	1239	1	!	1319	0	0	0	0	0	0	0	0	0	0	0	0	0	0	0	0	0	0	0	0	0	0	0	0	0	0	0
030619	11:38:19	11:48:41	621743	5.0.10.0	4_exp_AMP_EVA_AWA_CON	144	Rpleas_acq	Oppo	Rpleas	Amasked	CS_A	1pleas	distractor2	EVAbeforeCON	acq_US_unple_masked	acq45_masked	5	26	400	1	300	300	0	0	437	46	0	1	0	0	0	1	blank2r.bmp	0	1	+	0	1	B1r.bmp	492	1	blank2r.bmp	786	1	DHJF	786	1	blank2r.bmp	866	3	engstirnig	866	1	!	1239	1	!	1332	0	0	0	0	0	0	0	0	0	0	0	0	0	0	0	0	0	0	0	0	0	0	0	0	0	0	0
030619	11:38:19	11:48:44	623995	5.0.10.0	4_exp_AMP_EVA_AWA_CON	144	Rpleas_acq	Oppo	Rpleas	Amasked	CS_A	1pleas	distractor2	EVAbeforeCON	acq_US_unple_masked	acq45_masked	5	27	400	1	300	300	0	0	454	46	0	1	0	0	0	1	blank2r.bmp	0	1	+	0	3	B3r.bmp	492	1	blank2r.bmp	786	1	DHJF	786	1	blank2r.bmp	866	6	gemein	866	1	!	1239	1	!	1359	0	0	0	0	0	0	0	0	0	0	0	0	0	0	0	0	0	0	0	0	0	0	0	0	0	0	0
030619	11:38:19	11:48:46	626261	5.0.10.0	4_exp_AMP_EVA_AWA_CON	144	Rpleas_acq	Oppo	Rpleas	Amasked	CS_A	1pleas	distractor2	EVAbeforeCON	acq_US_pleas_masked	acq45_masked	5	28	400	0	300	300	0	0	499	50	0	1	0	0	0	1	blank2r.bmp	0	1	+	0	8	C4r.bmp	492	1	blank2r.bmp	786	1	CPLW	786	1	blank2r.bmp	866	5	besonnen	866	1	!	1239	1	!	-1	0	0	0	0	0	0	0	0	0	0	0	0	0	0	0	0	0	0	0	0	0	0	0	0	0	0	0
030619	11:38:19	11:48:48	628540	5.0.10.0	4_exp_AMP_EVA_AWA_CON	144	Rpleas_acq	Oppo	Rpleas	Amasked	CS_A	1pleas	distractor2	EVAbeforeCON	acq_US_pleas_masked	acq45_masked	5	29	400	1	300	300	0	0	461	50	0	1	0	0	0	1	blank2r.bmp	0	1	+	0	5	C1r.bmp	492	1	blank2r.bmp	786	1	CPLW	786	1	blank2r.bmp	866	3	engagiert	866	1	!	1239	1	!	1359	0	0	0	0	0	0	0	0	0	0	0	0	0	0	0	0	0	0	0	0	0	0	0	0	0	0	0
030619	11:38:19	11:48:50	630806	5.0.10.0	4_exp_AMP_EVA_AWA_CON	144	Rpleas_acq	Oppo	Rpleas	Amasked	CS_A	1pleas	distractor2	EVAbeforeCON	acq_US_unple_masked	acq45_masked	5	30	400	0	300	300	0	0	499	46	0	1	0	0	0	1	blank2r.bmp	0	1	+	0	4	B4r.bmp	492	1	blank2r.bmp	786	1	DHJF	786	1	blank2r.bmp	866	3	engstirnig	866	1	!	1239	1	!	-1	0	0	0	0	0	0	0	0	0	0	0	0	0	0	0	0	0	0	0	0	0	0	0	0	0	0	0
030619	11:38:19	11:48:53	632992	5.0.10.0	4_exp_AMP_EVA_AWA_CON	144	Rpleas_acq	Oppo	Rpleas	Amasked	CS_A	1pleas	distractor2	EVAbeforeCON	acq_US_unple_masked	acq45_masked	5	31	400	1	300	300	0	0	379	46	0	1	0	0	0	1	blank2r.bmp	0	1	+	0	7	C3r.bmp	492	1	blank2r.bmp	786	1	DHJF	786	1	blank2r.bmp	866	5	bange	866	1	!	1239	1	!	1279	0	0	0	0	0	0	0	0	0	0	0	0	0	0	0	0	0	0	0	0	0	0	0	0	0	0	0
030619	11:38:19	11:48:55	635151	5.0.10.0	4_exp_AMP_EVA_AWA_CON	144	Rpleas_acq	Oppo	Rpleas	Amasked	CS_A	1pleas	distractor2	EVAbeforeCON	acq_US_unple_masked	acq45_masked	5	32	400	1	300	300	0	0	370	46	0	1	0	0	0	1	blank2r.bmp	0	1	+	0	6	C2r.bmp	492	1	blank2r.bmp	786	1	DHJF	786	1	blank2r.bmp	866	2	krank	866	1	!	1239	1	!	1266	0	0	0	0	0	0	0	0	0	0	0	0	0	0	0	0	0	0	0	0	0	0	0	0	0	0	0
030619	11:38:19	11:48:57	637403	5.0.10.0	4_exp_AMP_EVA_AWA_CON	144	Rpleas_acq	Oppo	Rpleas	Amasked	CS_A	1pleas	distractor2	EVAbeforeCON	acq_US_unple_masked	acq45_masked	5	33	400	1	300	300	0	0	450	46	0	1	0	0	0	1	blank2r.bmp	0	1	+	0	8	C4r.bmp	492	1	blank2r.bmp	786	1	DHJF	786	1	blank2r.bmp	866	4	ausrottung	866	1	!	1239	1	!	1346	0	0	0	0	0	0	0	0	0	0	0	0	0	0	0	0	0	0	0	0	0	0	0	0	0	0	0
030619	11:38:19	11:48:59	639562	5.0.10.0	4_exp_AMP_EVA_AWA_CON	144	Rpleas_acq	Oppo	Rpleas	Amasked	CS_A	1pleas	distractor2	EVAbeforeCON	acq_US_pleas_masked	acq45_masked	5	34	400	1	300	300	0	0	366	50	0	1	0	0	0	1	blank2r.bmp	0	1	+	0	7	C3r.bmp	492	1	blank2r.bmp	786	1	CPLW	786	1	blank2r.bmp	866	2	kreativ	866	1	!	1239	1	!	1266	0	0	0	0	0	0	0	0	0	0	0	0	0	0	0	0	0	0	0	0	0	0	0	0	0	0	0
030619	11:38:19	11:49:01	641855	5.0.10.0	4_exp_AMP_EVA_AWA_CON	144	Rpleas_acq	Oppo	Rpleas	Amasked	CS_A	1pleas	distractor2	EVAbeforeCON	acq_US_pleas_masked	acq45_masked	5	35	400	0	300	300	0	0	527	50	0	1	0	0	0	1	blank2r.bmp	0	1	+	0	6	C2r.bmp	492	1	blank2r.bmp	786	1	CPLW	786	1	blank2r.bmp	866	6	genießen	866	1	!	1239	1	!	-1	0	0	0	0	0	0	0	0	0	0	0	0	0	0	0	0	0	0	0	0	0	0	0	0	0	0	0
030619	11:38:19	11:49:04	644120	5.0.10.0	4_exp_AMP_EVA_AWA_CON	144	Rpleas_acq	Oppo	Rpleas	Amasked	CS_A	1pleas	distractor2	EVAbeforeCON	acq_US_unple_masked	acq45_masked	5	36	400	0	300	300	0	0	479	46	0	1	0	0	0	1	blank2r.bmp	0	1	+	0	3	B3r.bmp	492	1	blank2r.bmp	786	1	DHJF	786	1	blank2r.bmp	866	1	gierig	866	1	!	1239	1	!	-1	0	0	0	0	0	0	0	0	0	0	0	0	0	0	0	0	0	0	0	0	0	0	0	0	0	0	0
030619	11:38:19	11:49:51	690875	5.0.10.0	4_exp_AMP_EVA_AWA_CON	144	Rpleas_acq	Oppo	Lpleas	Amasked	CS_A	1pleas	distractor2	EVAbeforeCON	AMP_CSunple	AMP1_masked	6	1	0	0	300	300	0	0	8025	50	0	1	0	0	0	1	blank2r.bmp	0	1	DHJF	0	1	blank2r.bmp	79	75	pic75.bmp	199	1	whitenoise_No3.bmp	306	0	0	0	0	0	0	0	0	0	0	0	0	0	0	0	0	0	0	0	0	0	0	0	0	0	0	0	0	0	0	0	0	0	0	0	0	0	0	0
030619	11:38:19	11:49:55	695406	5.0.10.0	4_exp_AMP_EVA_AWA_CON	144	Rpleas_acq	Oppo	Lpleas	Amasked	CS_A	1pleas	distractor2	EVAbeforeCON	AMP_distractor	AMP1_masked	6	2	0	0	300	300	0	0	3610	46	0	0	0	0	0	1	blank2r.bmp	0	1	QYSB	0	1	blank2r.bmp	79	76	pic76.bmp	199	1	whitenoise_No3.bmp	306	0	0	0	0	0	0	0	0	0	0	0	0	0	0	0	0	0	0	0	0	0	0	0	0	0	0	0	0	0	0	0	0	0	0	0	0	0	0	0
030619	11:38:19	11:49:58	697885	5.0.10.0	4_exp_AMP_EVA_AWA_CON	144	Rpleas_acq	Oppo	Lpleas	Amasked	CS_A	1pleas	distractor2	EVAbeforeCON	AMP_CSunple	AMP1_masked	6	3	0	0	300	300	0	0	1550	46	0	0	0	0	0	1	blank2r.bmp	0	1	DHJF	0	1	blank2r.bmp	79	12	pic12.bmp	199	1	whitenoise_No3.bmp	306	0	0	0	0	0	0	0	0	0	0	0	0	0	0	0	0	0	0	0	0	0	0	0	0	0	0	0	0	0	0	0	0	0	0	0	0	0	0	0
030619	11:38:19	11:50:01	701097	5.0.10.0	4_exp_AMP_EVA_AWA_CON	144	Rpleas_acq	Oppo	Lpleas	Amasked	CS_A	1pleas	distractor2	EVAbeforeCON	AMP_CSpleas	AMP1_masked	6	4	0	0	300	300	0	0	2302	50	0	0	0	0	0	1	blank2r.bmp	0	1	CPLW	0	1	blank2r.bmp	79	91	pic91.bmp	199	1	whitenoise_No3.bmp	306	0	0	0	0	0	0	0	0	0	0	0	0	0	0	0	0	0	0	0	0	0	0	0	0	0	0	0	0	0	0	0	0	0	0	0	0	0	0	0
030619	11:38:19	11:50:03	703083	5.0.10.0	4_exp_AMP_EVA_AWA_CON	144	Rpleas_acq	Oppo	Lpleas	Amasked	CS_A	1pleas	distractor2	EVAbeforeCON	AMP_distractor	AMP1_masked	6	5	0	0	300	300	0	0	1052	46	0	0	0	0	0	1	blank2r.bmp	0	1	QYSB	0	1	blank2r.bmp	79	110	pic110.bmp	199	1	whitenoise_No3.bmp	306	0	0	0	0	0	0	0	0	0	0	0	0	0	0	0	0	0	0	0	0	0	0	0	0	0	0	0	0	0	0	0	0	0	0	0	0	0	0	0
030619	11:38:19	11:50:04	704682	5.0.10.0	4_exp_AMP_EVA_AWA_CON	144	Rpleas_acq	Oppo	Lpleas	Amasked	CS_A	1pleas	distractor2	EVAbeforeCON	AMP_CSunple	AMP1_masked	6	6	0	0	300	300	0	0	685	46	0	0	0	0	0	1	blank2r.bmp	0	1	DHJF	0	1	blank2r.bmp	79	96	pic96.bmp	199	1	whitenoise_No3.bmp	306	0	0	0	0	0	0	0	0	0	0	0	0	0	0	0	0	0	0	0	0	0	0	0	0	0	0	0	0	0	0	0	0	0	0	0	0	0	0	0
030619	11:38:19	11:50:06	706282	5.0.10.0	4_exp_AMP_EVA_AWA_CON	144	Rpleas_acq	Oppo	Lpleas	Amasked	CS_A	1pleas	distractor2	EVAbeforeCON	AMP_CSpleas	AMP1_masked	6	7	0	0	300	300	0	0	688	46	0	1	0	0	0	1	blank2r.bmp	0	1	CPLW	0	1	blank2r.bmp	79	116	pic116.bmp	199	1	whitenoise_No3.bmp	306	0	0	0	0	0	0	0	0	0	0	0	0	0	0	0	0	0	0	0	0	0	0	0	0	0	0	0	0	0	0	0	0	0	0	0	0	0	0	0
030619	11:38:19	11:50:08	708081	5.0.10.0	4_exp_AMP_EVA_AWA_CON	144	Rpleas_acq	Oppo	Lpleas	Amasked	CS_A	1pleas	distractor2	EVAbeforeCON	AMP_CSunple	AMP1_masked	6	8	0	0	300	300	0	0	877	50	0	1	0	0	0	1	blank2r.bmp	0	1	DHJF	0	1	blank2r.bmp	79	95	pic95.bmp	199	1	whitenoise_No3.bmp	306	0	0	0	0	0	0	0	0	0	0	0	0	0	0	0	0	0	0	0	0	0	0	0	0	0	0	0	0	0	0	0	0	0	0	0	0	0	0	0
030619	11:38:19	11:50:10	710160	5.0.10.0	4_exp_AMP_EVA_AWA_CON	144	Rpleas_acq	Oppo	Lpleas	Amasked	CS_A	1pleas	distractor2	EVAbeforeCON	AMP_distractor	AMP1_masked	6	9	0	0	300	300	0	0	1145	46	0	0	0	0	0	1	blank2r.bmp	0	1	QYSB	0	1	blank2r.bmp	79	31	pic31.bmp	199	1	whitenoise_No3.bmp	306	0	0	0	0	0	0	0	0	0	0	0	0	0	0	0	0	0	0	0	0	0	0	0	0	0	0	0	0	0	0	0	0	0	0	0	0	0	0	0
030619	11:38:19	11:50:11	711679	5.0.10.0	4_exp_AMP_EVA_AWA_CON	144	Rpleas_acq	Oppo	Lpleas	Amasked	CS_A	1pleas	distractor2	EVAbeforeCON	AMP_CSunple	AMP1_masked	6	10	0	0	300	300	0	0	603	46	0	0	0	0	0	1	blank2r.bmp	0	1	DHJF	0	1	blank2r.bmp	79	19	pic19.bmp	199	1	whitenoise_No3.bmp	306	0	0	0	0	0	0	0	0	0	0	0	0	0	0	0	0	0	0	0	0	0	0	0	0	0	0	0	0	0	0	0	0	0	0	0	0	0	0	0
030619	11:38:19	11:50:14	713865	5.0.10.0	4_exp_AMP_EVA_AWA_CON	144	Rpleas_acq	Oppo	Lpleas	Amasked	CS_A	1pleas	distractor2	EVAbeforeCON	AMP_distractor	AMP1_masked	6	11	0	0	300	300	0	0	1255	50	0	0	0	0	0	1	blank2r.bmp	0	1	QYSB	0	1	blank2r.bmp	79	38	pic38.bmp	199	1	whitenoise_No3.bmp	306	0	0	0	0	0	0	0	0	0	0	0	0	0	0	0	0	0	0	0	0	0	0	0	0	0	0	0	0	0	0	0	0	0	0	0	0	0	0	0
030619	11:38:19	11:50:15	715491	5.0.10.0	4_exp_AMP_EVA_AWA_CON	144	Rpleas_acq	Oppo	Lpleas	Amasked	CS_A	1pleas	distractor2	EVAbeforeCON	AMP_CSunple	AMP1_masked	6	12	0	0	300	300	0	0	694	46	0	0	0	0	0	1	blank2r.bmp	0	1	DHJF	0	1	blank2r.bmp	79	20	pic20.bmp	199	1	whitenoise_No3.bmp	306	0	0	0	0	0	0	0	0	0	0	0	0	0	0	0	0	0	0	0	0	0	0	0	0	0	0	0	0	0	0	0	0	0	0	0	0	0	0	0
030619	11:38:19	11:50:18	718103	5.0.10.0	4_exp_AMP_EVA_AWA_CON	144	Rpleas_acq	Oppo	Lpleas	Amasked	CS_A	1pleas	distractor2	EVAbeforeCON	AMP_distractor	AMP1_masked	6	13	0	0	300	300	0	0	1686	50	0	0	0	0	0	1	blank2r.bmp	0	1	QYSB	0	1	blank2r.bmp	79	106	pic106.bmp	199	1	whitenoise_No3.bmp	306	0	0	0	0	0	0	0	0	0	0	0	0	0	0	0	0	0	0	0	0	0	0	0	0	0	0	0	0	0	0	0	0	0	0	0	0	0	0	0
030619	11:38:19	11:50:19	719743	5.0.10.0	4_exp_AMP_EVA_AWA_CON	144	Rpleas_acq	Oppo	Lpleas	Amasked	CS_A	1pleas	distractor2	EVAbeforeCON	AMP_CSunple	AMP1_masked	6	14	0	0	300	300	0	0	715	46	0	0	0	0	0	1	blank2r.bmp	0	1	DHJF	0	1	blank2r.bmp	79	94	pic94.bmp	199	1	whitenoise_No3.bmp	306	0	0	0	0	0	0	0	0	0	0	0	0	0	0	0	0	0	0	0	0	0	0	0	0	0	0	0	0	0	0	0	0	0	0	0	0	0	0	0
030619	11:38:19	11:50:21	721302	5.0.10.0	4_exp_AMP_EVA_AWA_CON	144	Rpleas_acq	Oppo	Lpleas	Amasked	CS_A	1pleas	distractor2	EVAbeforeCON	AMP_distractor	AMP1_masked	6	15	0	0	300	300	0	0	632	46	0	0	0	0	0	1	blank2r.bmp	0	1	QYSB	0	1	blank2r.bmp	79	99	pic99.bmp	199	1	whitenoise_No3.bmp	306	0	0	0	0	0	0	0	0	0	0	0	0	0	0	0	0	0	0	0	0	0	0	0	0	0	0	0	0	0	0	0	0	0	0	0	0	0	0	0
030619	11:38:19	11:50:23	723435	5.0.10.0	4_exp_AMP_EVA_AWA_CON	144	Rpleas_acq	Oppo	Lpleas	Amasked	CS_A	1pleas	distractor2	EVAbeforeCON	AMP_CSunple	AMP1_masked	6	16	0	0	300	300	0	0	1210	50	0	1	0	0	0	1	blank2r.bmp	0	1	DHJF	0	1	blank2r.bmp	79	150	pic150.bmp	199	1	whitenoise_No3.bmp	306	0	0	0	0	0	0	0	0	0	0	0	0	0	0	0	0	0	0	0	0	0	0	0	0	0	0	0	0	0	0	0	0	0	0	0	0	0	0	0
030619	11:38:19	11:50:25	724901	5.0.10.0	4_exp_AMP_EVA_AWA_CON	144	Rpleas_acq	Oppo	Lpleas	Amasked	CS_A	1pleas	distractor2	EVAbeforeCON	AMP_distractor	AMP1_masked	6	17	0	0	300	300	0	0	531	46	0	0	0	0	0	1	blank2r.bmp	0	1	QYSB	0	1	blank2r.bmp	79	63	pic63.bmp	199	1	whitenoise_No3.bmp	306	0	0	0	0	0	0	0	0	0	0	0	0	0	0	0	0	0	0	0	0	0	0	0	0	0	0	0	0	0	0	0	0	0	0	0	0	0	0	0
030619	11:38:19	11:50:27	727046	5.0.10.0	4_exp_AMP_EVA_AWA_CON	144	Rpleas_acq	Oppo	Lpleas	Amasked	CS_A	1pleas	distractor2	EVAbeforeCON	AMP_CSpleas	AMP1_masked	6	18	0	0	300	300	0	0	1200	50	0	0	0	0	0	1	blank2r.bmp	0	1	CPLW	0	1	blank2r.bmp	79	103	pic103.bmp	199	1	whitenoise_No3.bmp	306	0	0	0	0	0	0	0	0	0	0	0	0	0	0	0	0	0	0	0	0	0	0	0	0	0	0	0	0	0	0	0	0	0	0	0	0	0	0	0
030619	11:38:19	11:50:28	728539	5.0.10.0	4_exp_AMP_EVA_AWA_CON	144	Rpleas_acq	Oppo	Lpleas	Amasked	CS_A	1pleas	distractor2	EVAbeforeCON	AMP_CSunple	AMP1_masked	6	19	0	0	300	300	0	0	577	46	0	0	0	0	0	1	blank2r.bmp	0	1	DHJF	0	1	blank2r.bmp	79	18	pic18.bmp	199	1	whitenoise_No3.bmp	306	0	0	0	0	0	0	0	0	0	0	0	0	0	0	0	0	0	0	0	0	0	0	0	0	0	0	0	0	0	0	0	0	0	0	0	0	0	0	0
030619	11:38:19	11:50:30	730032	5.0.10.0	4_exp_AMP_EVA_AWA_CON	144	Rpleas_acq	Oppo	Lpleas	Amasked	CS_A	1pleas	distractor2	EVAbeforeCON	AMP_CSunple	AMP1_masked	6	20	0	0	300	300	0	0	573	50	0	1	0	0	0	1	blank2r.bmp	0	1	DHJF	0	1	blank2r.bmp	79	124	pic124.bmp	199	1	whitenoise_No3.bmp	306	0	0	0	0	0	0	0	0	0	0	0	0	0	0	0	0	0	0	0	0	0	0	0	0	0	0	0	0	0	0	0	0	0	0	0	0	0	0	0
030619	11:38:19	11:50:31	731751	5.0.10.0	4_exp_AMP_EVA_AWA_CON	144	Rpleas_acq	Oppo	Lpleas	Amasked	CS_A	1pleas	distractor2	EVAbeforeCON	AMP_distractor	AMP1_masked	6	21	0	0	300	300	0	0	804	50	0	0	0	0	0	1	blank2r.bmp	0	1	QYSB	0	1	blank2r.bmp	79	73	pic73.bmp	199	1	whitenoise_No3.bmp	306	0	0	0	0	0	0	0	0	0	0	0	0	0	0	0	0	0	0	0	0	0	0	0	0	0	0	0	0	0	0	0	0	0	0	0	0	0	0	0
030619	11:38:19	11:50:35	735016	5.0.10.0	4_exp_AMP_EVA_AWA_CON	144	Rpleas_acq	Oppo	Lpleas	Amasked	CS_A	1pleas	distractor2	EVAbeforeCON	AMP_CSpleas	AMP1_masked	6	22	0	0	300	300	0	0	2354	46	0	1	0	0	0	1	blank2r.bmp	0	1	CPLW	0	1	blank2r.bmp	79	62	pic62.bmp	199	1	whitenoise_No3.bmp	306	0	0	0	0	0	0	0	0	0	0	0	0	0	0	0	0	0	0	0	0	0	0	0	0	0	0	0	0	0	0	0	0	0	0	0	0	0	0	0
030619	11:38:19	11:50:36	736416	5.0.10.0	4_exp_AMP_EVA_AWA_CON	144	Rpleas_acq	Oppo	Lpleas	Amasked	CS_A	1pleas	distractor2	EVAbeforeCON	AMP_CSunple	AMP1_masked	6	23	0	0	300	300	0	0	471	46	0	0	0	0	0	1	blank2r.bmp	0	1	DHJF	0	1	blank2r.bmp	79	120	pic120.bmp	199	1	whitenoise_No3.bmp	306	0	0	0	0	0	0	0	0	0	0	0	0	0	0	0	0	0	0	0	0	0	0	0	0	0	0	0	0	0	0	0	0	0	0	0	0	0	0	0
030619	11:38:19	11:50:38	738015	5.0.10.0	4_exp_AMP_EVA_AWA_CON	144	Rpleas_acq	Oppo	Lpleas	Amasked	CS_A	1pleas	distractor2	EVAbeforeCON	AMP_distractor	AMP1_masked	6	24	0	0	300	300	0	0	680	46	0	0	0	0	0	1	blank2r.bmp	0	1	QYSB	0	1	blank2r.bmp	79	53	pic53.bmp	199	1	whitenoise_No3.bmp	306	0	0	0	0	0	0	0	0	0	0	0	0	0	0	0	0	0	0	0	0	0	0	0	0	0	0	0	0	0	0	0	0	0	0	0	0	0	0	0
030619	11:38:19	11:50:39	739628	5.0.10.0	4_exp_AMP_EVA_AWA_CON	144	Rpleas_acq	Oppo	Lpleas	Amasked	CS_A	1pleas	distractor2	EVAbeforeCON	AMP_CSunple	AMP1_masked	6	25	0	0	300	300	0	0	697	46	0	0	0	0	0	1	blank2r.bmp	0	1	DHJF	0	1	blank2r.bmp	79	50	pic50.bmp	199	1	whitenoise_No3.bmp	306	0	0	0	0	0	0	0	0	0	0	0	0	0	0	0	0	0	0	0	0	0	0	0	0	0	0	0	0	0	0	0	0	0	0	0	0	0	0	0
030619	11:38:19	11:50:41	741520	5.0.10.0	4_exp_AMP_EVA_AWA_CON	144	Rpleas_acq	Oppo	Lpleas	Amasked	CS_A	1pleas	distractor2	EVAbeforeCON	AMP_CSpleas	AMP1_masked	6	26	0	0	300	300	0	0	981	50	0	0	0	0	0	1	blank2r.bmp	0	1	CPLW	0	1	blank2r.bmp	79	56	pic56.bmp	199	1	whitenoise_No3.bmp	306	0	0	0	0	0	0	0	0	0	0	0	0	0	0	0	0	0	0	0	0	0	0	0	0	0	0	0	0	0	0	0	0	0	0	0	0	0	0	0
030619	11:38:19	11:50:43	742960	5.0.10.0	4_exp_AMP_EVA_AWA_CON	144	Rpleas_acq	Oppo	Lpleas	Amasked	CS_A	1pleas	distractor2	EVAbeforeCON	AMP_CSpleas	AMP1_masked	6	27	0	0	300	300	0	0	517	46	0	1	0	0	0	1	blank2r.bmp	0	1	CPLW	0	1	blank2r.bmp	79	128	pic128.bmp	199	1	whitenoise_No3.bmp	306	0	0	0	0	0	0	0	0	0	0	0	0	0	0	0	0	0	0	0	0	0	0	0	0	0	0	0	0	0	0	0	0	0	0	0	0	0	0	0
030619	11:38:19	11:50:44	744453	5.0.10.0	4_exp_AMP_EVA_AWA_CON	144	Rpleas_acq	Oppo	Lpleas	Amasked	CS_A	1pleas	distractor2	EVAbeforeCON	AMP_CSpleas	AMP1_masked	6	28	0	0	300	300	0	0	564	46	0	1	0	0	0	1	blank2r.bmp	0	1	CPLW	0	1	blank2r.bmp	79	98	pic98.bmp	199	1	whitenoise_No3.bmp	306	0	0	0	0	0	0	0	0	0	0	0	0	0	0	0	0	0	0	0	0	0	0	0	0	0	0	0	0	0	0	0	0	0	0	0	0	0	0	0
030619	11:38:19	11:50:46	746372	5.0.10.0	4_exp_AMP_EVA_AWA_CON	144	Rpleas_acq	Oppo	Lpleas	Amasked	CS_A	1pleas	distractor2	EVAbeforeCON	AMP_distractor	AMP1_masked	6	29	0	0	300	300	0	0	998	46	0	0	0	0	0	1	blank2r.bmp	0	1	QYSB	0	1	blank2r.bmp	79	32	pic32.bmp	199	1	whitenoise_No3.bmp	306	0	0	0	0	0	0	0	0	0	0	0	0	0	0	0	0	0	0	0	0	0	0	0	0	0	0	0	0	0	0	0	0	0	0	0	0	0	0	0
030619	11:38:19	11:50:48	747878	5.0.10.0	4_exp_AMP_EVA_AWA_CON	144	Rpleas_acq	Oppo	Lpleas	Amasked	CS_A	1pleas	distractor2	EVAbeforeCON	AMP_CSunple	AMP1_masked	6	30	0	0	300	300	0	0	592	50	0	1	0	0	0	1	blank2r.bmp	0	1	DHJF	0	1	blank2r.bmp	79	77	pic77.bmp	199	1	whitenoise_No3.bmp	306	0	0	0	0	0	0	0	0	0	0	0	0	0	0	0	0	0	0	0	0	0	0	0	0	0	0	0	0	0	0	0	0	0	0	0	0	0	0	0
030619	11:38:19	11:50:49	749704	5.0.10.0	4_exp_AMP_EVA_AWA_CON	144	Rpleas_acq	Oppo	Lpleas	Amasked	CS_A	1pleas	distractor2	EVAbeforeCON	AMP_CSpleas	AMP1_masked	6	31	0	0	300	300	0	0	907	46	0	1	0	0	0	1	blank2r.bmp	0	1	CPLW	0	1	blank2r.bmp	79	82	pic82.bmp	199	1	whitenoise_No3.bmp	306	0	0	0	0	0	0	0	0	0	0	0	0	0	0	0	0	0	0	0	0	0	0	0	0	0	0	0	0	0	0	0	0	0	0	0	0	0	0	0
030619	11:38:19	11:50:51	751610	5.0.10.0	4_exp_AMP_EVA_AWA_CON	144	Rpleas_acq	Oppo	Lpleas	Amasked	CS_A	1pleas	distractor2	EVAbeforeCON	AMP_distractor	AMP1_masked	6	32	0	0	300	300	0	0	989	50	0	0	0	0	0	1	blank2r.bmp	0	1	QYSB	0	1	blank2r.bmp	79	105	pic105.bmp	199	1	whitenoise_No3.bmp	306	0	0	0	0	0	0	0	0	0	0	0	0	0	0	0	0	0	0	0	0	0	0	0	0	0	0	0	0	0	0	0	0	0	0	0	0	0	0	0
030619	11:38:19	11:50:53	753435	5.0.10.0	4_exp_AMP_EVA_AWA_CON	144	Rpleas_acq	Oppo	Lpleas	Amasked	CS_A	1pleas	distractor2	EVAbeforeCON	AMP_CSunple	AMP1_masked	6	33	0	0	300	300	0	0	915	46	0	0	0	0	0	1	blank2r.bmp	0	1	DHJF	0	1	blank2r.bmp	79	79	pic79.bmp	199	1	whitenoise_No3.bmp	306	0	0	0	0	0	0	0	0	0	0	0	0	0	0	0	0	0	0	0	0	0	0	0	0	0	0	0	0	0	0	0	0	0	0	0	0	0	0	0
030619	11:38:19	11:50:55	755848	5.0.10.0	4_exp_AMP_EVA_AWA_CON	144	Rpleas_acq	Oppo	Lpleas	Amasked	CS_A	1pleas	distractor2	EVAbeforeCON	AMP_distractor	AMP1_masked	6	34	0	0	300	300	0	0	1482	46	0	0	0	0	0	1	blank2r.bmp	0	1	QYSB	0	1	blank2r.bmp	79	4	pic4.bmp	199	1	whitenoise_No3.bmp	306	0	0	0	0	0	0	0	0	0	0	0	0	0	0	0	0	0	0	0	0	0	0	0	0	0	0	0	0	0	0	0	0	0	0	0	0	0	0	0
030619	11:38:19	11:50:57	757634	5.0.10.0	4_exp_AMP_EVA_AWA_CON	144	Rpleas_acq	Oppo	Lpleas	Amasked	CS_A	1pleas	distractor2	EVAbeforeCON	AMP_CSpleas	AMP1_masked	6	35	0	0	300	300	0	0	861	50	0	0	0	0	0	1	blank2r.bmp	0	1	CPLW	0	1	blank2r.bmp	79	88	pic88.bmp	199	1	whitenoise_No3.bmp	306	0	0	0	0	0	0	0	0	0	0	0	0	0	0	0	0	0	0	0	0	0	0	0	0	0	0	0	0	0	0	0	0	0	0	0	0	0	0	0
030619	11:38:19	11:51:00	760006	5.0.10.0	4_exp_AMP_EVA_AWA_CON	144	Rpleas_acq	Oppo	Lpleas	Amasked	CS_A	1pleas	distractor2	EVAbeforeCON	AMP_distractor	AMP1_masked	6	36	0	0	300	300	0	0	1439	50	0	0	0	0	0	1	blank2r.bmp	0	1	QYSB	0	1	blank2r.bmp	79	138	pic138.bmp	199	1	whitenoise_No3.bmp	306	0	0	0	0	0	0	0	0	0	0	0	0	0	0	0	0	0	0	0	0	0	0	0	0	0	0	0	0	0	0	0	0	0	0	0	0	0	0	0
030619	11:38:19	11:51:01	761832	5.0.10.0	4_exp_AMP_EVA_AWA_CON	144	Rpleas_acq	Oppo	Lpleas	Amasked	CS_A	1pleas	distractor2	EVAbeforeCON	AMP_CSpleas	AMP1_masked	6	37	0	0	300	300	0	0	915	46	0	1	0	0	0	1	blank2r.bmp	0	1	CPLW	0	1	blank2r.bmp	79	118	pic118.bmp	199	1	whitenoise_No3.bmp	306	0	0	0	0	0	0	0	0	0	0	0	0	0	0	0	0	0	0	0	0	0	0	0	0	0	0	0	0	0	0	0	0	0	0	0	0	0	0	0
030619	11:38:19	11:51:03	763298	5.0.10.0	4_exp_AMP_EVA_AWA_CON	144	Rpleas_acq	Oppo	Lpleas	Amasked	CS_A	1pleas	distractor2	EVAbeforeCON	AMP_CSunple	AMP1_masked	6	38	0	0	300	300	0	0	536	46	0	0	0	0	0	1	blank2r.bmp	0	1	DHJF	0	1	blank2r.bmp	79	51	pic51.bmp	199	1	whitenoise_No3.bmp	306	0	0	0	0	0	0	0	0	0	0	0	0	0	0	0	0	0	0	0	0	0	0	0	0	0	0	0	0	0	0	0	0	0	0	0	0	0	0	0
030619	11:38:19	11:51:04	764777	5.0.10.0	4_exp_AMP_EVA_AWA_CON	144	Rpleas_acq	Oppo	Lpleas	Amasked	CS_A	1pleas	distractor2	EVAbeforeCON	AMP_CSpleas	AMP1_masked	6	39	0	0	300	300	0	0	560	46	0	1	0	0	0	1	blank2r.bmp	0	1	CPLW	0	1	blank2r.bmp	79	60	pic60.bmp	199	1	whitenoise_No3.bmp	306	0	0	0	0	0	0	0	0	0	0	0	0	0	0	0	0	0	0	0	0	0	0	0	0	0	0	0	0	0	0	0	0	0	0	0	0	0	0	0
030619	11:38:19	11:51:06	766430	5.0.10.0	4_exp_AMP_EVA_AWA_CON	144	Rpleas_acq	Oppo	Lpleas	Amasked	CS_A	1pleas	distractor2	EVAbeforeCON	AMP_distractor	AMP1_masked	6	40	0	0	300	300	0	0	738	46	0	0	0	0	0	1	blank2r.bmp	0	1	QYSB	0	1	blank2r.bmp	79	47	pic47.bmp	199	1	whitenoise_No3.bmp	306	0	0	0	0	0	0	0	0	0	0	0	0	0	0	0	0	0	0	0	0	0	0	0	0	0	0	0	0	0	0	0	0	0	0	0	0	0	0	0
030619	11:38:19	11:51:08	768496	5.0.10.0	4_exp_AMP_EVA_AWA_CON	144	Rpleas_acq	Oppo	Lpleas	Amasked	CS_A	1pleas	distractor2	EVAbeforeCON	AMP_CSpleas	AMP1_masked	6	41	0	0	300	300	0	0	1155	46	0	1	0	0	0	1	blank2r.bmp	0	1	CPLW	0	1	blank2r.bmp	79	59	pic59.bmp	199	1	whitenoise_No3.bmp	306	0	0	0	0	0	0	0	0	0	0	0	0	0	0	0	0	0	0	0	0	0	0	0	0	0	0	0	0	0	0	0	0	0	0	0	0	0	0	0
030619	11:38:19	11:51:10	769962	5.0.10.0	4_exp_AMP_EVA_AWA_CON	144	Rpleas_acq	Oppo	Lpleas	Amasked	CS_A	1pleas	distractor2	EVAbeforeCON	AMP_CSpleas	AMP1_masked	6	42	0	0	300	300	0	0	534	50	0	0	0	0	0	1	blank2r.bmp	0	1	CPLW	0	1	blank2r.bmp	79	104	pic104.bmp	199	1	whitenoise_No3.bmp	306	0	0	0	0	0	0	0	0	0	0	0	0	0	0	0	0	0	0	0	0	0	0	0	0	0	0	0	0	0	0	0	0	0	0	0	0	0	0	0
030619	11:38:19	11:51:11	771415	5.0.10.0	4_exp_AMP_EVA_AWA_CON	144	Rpleas_acq	Oppo	Lpleas	Amasked	CS_A	1pleas	distractor2	EVAbeforeCON	AMP_CSpleas	AMP1_masked	6	43	0	0	300	300	0	0	544	46	0	1	0	0	0	1	blank2r.bmp	0	1	CPLW	0	1	blank2r.bmp	79	15	pic15.bmp	199	1	whitenoise_No3.bmp	306	0	0	0	0	0	0	0	0	0	0	0	0	0	0	0	0	0	0	0	0	0	0	0	0	0	0	0	0	0	0	0	0	0	0	0	0	0	0	0
030619	11:38:19	11:51:13	773441	5.0.10.0	4_exp_AMP_EVA_AWA_CON	144	Rpleas_acq	Oppo	Lpleas	Amasked	CS_A	1pleas	distractor2	EVAbeforeCON	AMP_distractor	AMP1_masked	6	44	0	0	300	300	0	0	1103	46	0	0	0	0	0	1	blank2r.bmp	0	1	QYSB	0	1	blank2r.bmp	79	114	pic114.bmp	199	1	whitenoise_No3.bmp	306	0	0	0	0	0	0	0	0	0	0	0	0	0	0	0	0	0	0	0	0	0	0	0	0	0	0	0	0	0	0	0	0	0	0	0	0	0	0	0
030619	11:38:19	11:51:15	775160	5.0.10.0	4_exp_AMP_EVA_AWA_CON	144	Rpleas_acq	Oppo	Lpleas	Amasked	CS_A	1pleas	distractor2	EVAbeforeCON	AMP_CSpleas	AMP1_masked	6	45	0	0	300	300	0	0	795	50	0	0	0	0	0	1	blank2r.bmp	0	1	CPLW	0	1	blank2r.bmp	79	78	pic78.bmp	199	1	whitenoise_No3.bmp	306	0	0	0	0	0	0	0	0	0	0	0	0	0	0	0	0	0	0	0	0	0	0	0	0	0	0	0	0	0	0	0	0	0	0	0	0	0	0	0
030619	11:38:19	11:51:16	776613	5.0.10.0	4_exp_AMP_EVA_AWA_CON	144	Rpleas_acq	Oppo	Lpleas	Amasked	CS_A	1pleas	distractor2	EVAbeforeCON	AMP_CSpleas	AMP1_masked	6	46	0	0	300	300	0	0	518	46	0	1	0	0	0	1	blank2r.bmp	0	1	CPLW	0	1	blank2r.bmp	79	43	pic43.bmp	199	1	whitenoise_No3.bmp	306	0	0	0	0	0	0	0	0	0	0	0	0	0	0	0	0	0	0	0	0	0	0	0	0	0	0	0	0	0	0	0	0	0	0	0	0	0	0	0
030619	11:38:19	11:51:18	778185	5.0.10.0	4_exp_AMP_EVA_AWA_CON	144	Rpleas_acq	Oppo	Lpleas	Amasked	CS_A	1pleas	distractor2	EVAbeforeCON	AMP_distractor	AMP1_masked	6	47	0	0	300	300	0	0	658	50	0	0	0	0	0	1	blank2r.bmp	0	1	QYSB	0	1	blank2r.bmp	79	45	pic45.bmp	199	1	whitenoise_No3.bmp	306	0	0	0	0	0	0	0	0	0	0	0	0	0	0	0	0	0	0	0	0	0	0	0	0	0	0	0	0	0	0	0	0	0	0	0	0	0	0	0
030619	11:38:19	11:51:20	780504	5.0.10.0	4_exp_AMP_EVA_AWA_CON	144	Rpleas_acq	Oppo	Lpleas	Amasked	CS_A	1pleas	distractor2	EVAbeforeCON	AMP_distractor	AMP1_masked	6	48	0	0	300	300	0	0	1396	46	0	0	0	0	0	1	blank2r.bmp	0	1	QYSB	0	1	blank2r.bmp	79	113	pic113.bmp	199	1	whitenoise_No3.bmp	306	0	0	0	0	0	0	0	0	0	0	0	0	0	0	0	0	0	0	0	0	0	0	0	0	0	0	0	0	0	0	0	0	0	0	0	0	0	0	0
030619	11:38:19	11:51:22	782170	5.0.10.0	4_exp_AMP_EVA_AWA_CON	144	Rpleas_acq	Oppo	Lpleas	Amasked	CS_A	1pleas	distractor2	EVAbeforeCON	AMP_CSunple	AMP1_masked	6	49	0	0	300	300	0	0	735	46	0	0	0	0	0	1	blank2r.bmp	0	1	DHJF	0	1	blank2r.bmp	79	8	pic8.bmp	199	1	whitenoise_No3.bmp	306	0	0	0	0	0	0	0	0	0	0	0	0	0	0	0	0	0	0	0	0	0	0	0	0	0	0	0	0	0	0	0	0	0	0	0	0	0	0	0
030619	11:38:19	11:51:23	783703	5.0.10.0	4_exp_AMP_EVA_AWA_CON	144	Rpleas_acq	Oppo	Lpleas	Amasked	CS_A	1pleas	distractor2	EVAbeforeCON	AMP_CSunple	AMP1_masked	6	50	0	0	300	300	0	0	618	50	0	1	0	0	0	1	blank2r.bmp	0	1	DHJF	0	1	blank2r.bmp	79	24	pic24.bmp	199	1	whitenoise_No3.bmp	306	0	0	0	0	0	0	0	0	0	0	0	0	0	0	0	0	0	0	0	0	0	0	0	0	0	0	0	0	0	0	0	0	0	0	0	0	0	0	0
030619	11:38:19	11:51:25	785142	5.0.10.0	4_exp_AMP_EVA_AWA_CON	144	Rpleas_acq	Oppo	Lpleas	Amasked	CS_A	1pleas	distractor2	EVAbeforeCON	AMP_CSpleas	AMP1_masked	6	51	0	0	300	300	0	0	505	50	0	0	0	0	0	1	blank2r.bmp	0	1	CPLW	0	1	blank2r.bmp	79	139	pic139.bmp	199	1	whitenoise_No3.bmp	306	0	0	0	0	0	0	0	0	0	0	0	0	0	0	0	0	0	0	0	0	0	0	0	0	0	0	0	0	0	0	0	0	0	0	0	0	0	0	0
030619	11:38:19	11:51:32	792619	5.0.10.0	4_exp_AMP_EVA_AWA_CON	144	Rpleas_acq	Oppo	Lpleas	Amasked	CS_A	1pleas	distractor2	EVAbeforeCON	AMP_CSunple	AMP23	7	1	0	0	300	300	0	0	751	46	0	0	0	0	0	1	blank2r.bmp	0	1	DHJF	0	1	blank2r.bmp	79	151	pic151.bmp	199	1	whitenoise_No3.bmp	306	0	0	0	0	0	0	0	0	0	0	0	0	0	0	0	0	0	0	0	0	0	0	0	0	0	0	0	0	0	0	0	0	0	0	0	0	0	0	0
030619	11:38:19	11:51:34	794032	5.0.10.0	4_exp_AMP_EVA_AWA_CON	144	Rpleas_acq	Oppo	Lpleas	Amasked	CS_A	1pleas	distractor2	EVAbeforeCON	AMP_CSpleas	AMP23	7	2	0	0	300	300	0	0	504	46	0	1	0	0	0	1	blank2r.bmp	0	1	CPLW	0	1	blank2r.bmp	79	112	pic112.bmp	199	1	whitenoise_No3.bmp	306	0	0	0	0	0	0	0	0	0	0	0	0	0	0	0	0	0	0	0	0	0	0	0	0	0	0	0	0	0	0	0	0	0	0	0	0	0	0	0
030619	11:38:19	11:51:35	795685	5.0.10.0	4_exp_AMP_EVA_AWA_CON	144	Rpleas_acq	Oppo	Lpleas	Amasked	CS_A	1pleas	distractor2	EVAbeforeCON	AMP_CSunple	AMP23	7	3	0	0	300	300	0	0	726	50	0	1	0	0	0	1	blank2r.bmp	0	1	DHJF	0	1	blank2r.bmp	79	90	pic90.bmp	199	1	whitenoise_No3.bmp	306	0	0	0	0	0	0	0	0	0	0	0	0	0	0	0	0	0	0	0	0	0	0	0	0	0	0	0	0	0	0	0	0	0	0	0	0	0	0	0
030619	11:38:19	11:51:37	797191	5.0.10.0	4_exp_AMP_EVA_AWA_CON	144	Rpleas_acq	Oppo	Lpleas	Amasked	CS_A	1pleas	distractor2	EVAbeforeCON	AMP_CSpleas	AMP23	7	4	0	0	300	300	0	0	573	46	0	1	0	0	0	1	blank2r.bmp	0	1	CPLW	0	1	blank2r.bmp	79	127	pic127.bmp	199	1	whitenoise_No3.bmp	306	0	0	0	0	0	0	0	0	0	0	0	0	0	0	0	0	0	0	0	0	0	0	0	0	0	0	0	0	0	0	0	0	0	0	0	0	0	0	0
030619	11:38:19	11:51:39	798870	5.0.10.0	4_exp_AMP_EVA_AWA_CON	144	Rpleas_acq	Oppo	Lpleas	Amasked	CS_A	1pleas	distractor2	EVAbeforeCON	AMP_distractor	AMP23	7	5	0	0	300	300	0	0	761	46	0	0	0	0	0	1	blank2r.bmp	0	1	QYSB	0	1	blank2r.bmp	79	58	pic58.bmp	199	1	whitenoise_No3.bmp	306	0	0	0	0	0	0	0	0	0	0	0	0	0	0	0	0	0	0	0	0	0	0	0	0	0	0	0	0	0	0	0	0	0	0	0	0	0	0	0
030619	11:38:19	11:51:40	800336	5.0.10.0	4_exp_AMP_EVA_AWA_CON	144	Rpleas_acq	Oppo	Lpleas	Amasked	CS_A	1pleas	distractor2	EVAbeforeCON	AMP_CSpleas	AMP23	7	6	0	0	300	300	0	0	538	46	0	1	0	0	0	1	blank2r.bmp	0	1	CPLW	0	1	blank2r.bmp	79	148	pic148.bmp	199	1	whitenoise_No3.bmp	306	0	0	0	0	0	0	0	0	0	0	0	0	0	0	0	0	0	0	0	0	0	0	0	0	0	0	0	0	0	0	0	0	0	0	0	0	0	0	0
030619	11:38:19	11:51:42	801882	5.0.10.0	4_exp_AMP_EVA_AWA_CON	144	Rpleas_acq	Oppo	Lpleas	Amasked	CS_A	1pleas	distractor2	EVAbeforeCON	AMP_CSunple	AMP23	7	7	0	0	300	300	0	0	620	50	0	1	0	0	0	1	blank2r.bmp	0	1	DHJF	0	1	blank2r.bmp	79	117	pic117.bmp	199	1	whitenoise_No3.bmp	306	0	0	0	0	0	0	0	0	0	0	0	0	0	0	0	0	0	0	0	0	0	0	0	0	0	0	0	0	0	0	0	0	0	0	0	0	0	0	0
030619	11:38:19	11:51:43	803322	5.0.10.0	4_exp_AMP_EVA_AWA_CON	144	Rpleas_acq	Oppo	Lpleas	Amasked	CS_A	1pleas	distractor2	EVAbeforeCON	AMP_distractor	AMP23	7	8	0	0	300	300	0	0	517	46	0	0	0	0	0	1	blank2r.bmp	0	1	QYSB	0	1	blank2r.bmp	79	65	pic65.bmp	199	1	whitenoise_No3.bmp	306	0	0	0	0	0	0	0	0	0	0	0	0	0	0	0	0	0	0	0	0	0	0	0	0	0	0	0	0	0	0	0	0	0	0	0	0	0	0	0
030619	11:38:19	11:51:44	804841	5.0.10.0	4_exp_AMP_EVA_AWA_CON	144	Rpleas_acq	Oppo	Lpleas	Amasked	CS_A	1pleas	distractor2	EVAbeforeCON	AMP_CSunple	AMP23	7	9	0	0	300	300	0	0	572	46	0	0	0	0	0	1	blank2r.bmp	0	1	DHJF	0	1	blank2r.bmp	79	87	pic87.bmp	199	1	whitenoise_No3.bmp	306	0	0	0	0	0	0	0	0	0	0	0	0	0	0	0	0	0	0	0	0	0	0	0	0	0	0	0	0	0	0	0	0	0	0	0	0	0	0	0
030619	11:38:19	11:51:46	806454	5.0.10.0	4_exp_AMP_EVA_AWA_CON	144	Rpleas_acq	Oppo	Lpleas	Amasked	CS_A	1pleas	distractor2	EVAbeforeCON	AMP_CSunple	AMP23	7	10	0	0	300	300	0	0	695	50	0	1	0	0	0	1	blank2r.bmp	0	1	DHJF	0	1	blank2r.bmp	79	54	pic54.bmp	199	1	whitenoise_No3.bmp	306	0	0	0	0	0	0	0	0	0	0	0	0	0	0	0	0	0	0	0	0	0	0	0	0	0	0	0	0	0	0	0	0	0	0	0	0	0	0	0
030619	11:38:19	11:51:48	807893	5.0.10.0	4_exp_AMP_EVA_AWA_CON	144	Rpleas_acq	Oppo	Lpleas	Amasked	CS_A	1pleas	distractor2	EVAbeforeCON	AMP_distractor	AMP23	7	11	0	0	300	300	0	0	506	46	0	0	0	0	0	1	blank2r.bmp	0	1	QYSB	0	1	blank2r.bmp	79	102	pic102.bmp	199	1	whitenoise_No3.bmp	306	0	0	0	0	0	0	0	0	0	0	0	0	0	0	0	0	0	0	0	0	0	0	0	0	0	0	0	0	0	0	0	0	0	0	0	0	0	0	0
030619	11:38:19	11:51:49	809372	5.0.10.0	4_exp_AMP_EVA_AWA_CON	144	Rpleas_acq	Oppo	Lpleas	Amasked	CS_A	1pleas	distractor2	EVAbeforeCON	AMP_CSunple	AMP23	7	12	0	0	300	300	0	0	560	46	0	0	0	0	0	1	blank2r.bmp	0	1	DHJF	0	1	blank2r.bmp	79	70	pic70.bmp	199	1	whitenoise_No3.bmp	306	0	0	0	0	0	0	0	0	0	0	0	0	0	0	0	0	0	0	0	0	0	0	0	0	0	0	0	0	0	0	0	0	0	0	0	0	0	0	0
030619	11:38:19	11:51:51	811318	5.0.10.0	4_exp_AMP_EVA_AWA_CON	144	Rpleas_acq	Oppo	Lpleas	Amasked	CS_A	1pleas	distractor2	EVAbeforeCON	AMP_distractor	AMP23	7	13	0	0	300	300	0	0	1028	46	0	0	0	0	0	1	blank2r.bmp	0	1	QYSB	0	1	blank2r.bmp	79	142	pic142.bmp	199	1	whitenoise_No3.bmp	306	0	0	0	0	0	0	0	0	0	0	0	0	0	0	0	0	0	0	0	0	0	0	0	0	0	0	0	0	0	0	0	0	0	0	0	0	0	0	0
030619	11:38:19	11:51:52	812811	5.0.10.0	4_exp_AMP_EVA_AWA_CON	144	Rpleas_acq	Oppo	Lpleas	Amasked	CS_A	1pleas	distractor2	EVAbeforeCON	AMP_distractor	AMP23	7	14	0	0	300	300	0	0	568	46	0	0	0	0	0	1	blank2r.bmp	0	1	QYSB	0	1	blank2r.bmp	79	21	pic21.bmp	199	1	whitenoise_No3.bmp	306	0	0	0	0	0	0	0	0	0	0	0	0	0	0	0	0	0	0	0	0	0	0	0	0	0	0	0	0	0	0	0	0	0	0	0	0	0	0	0
030619	11:38:19	11:51:54	814224	5.0.10.0	4_exp_AMP_EVA_AWA_CON	144	Rpleas_acq	Oppo	Lpleas	Amasked	CS_A	1pleas	distractor2	EVAbeforeCON	AMP_CSunple	AMP23	7	15	0	0	300	300	0	0	488	46	0	0	0	0	0	1	blank2r.bmp	0	1	DHJF	0	1	blank2r.bmp	79	69	pic69.bmp	199	1	whitenoise_No3.bmp	306	0	0	0	0	0	0	0	0	0	0	0	0	0	0	0	0	0	0	0	0	0	0	0	0	0	0	0	0	0	0	0	0	0	0	0	0	0	0	0
030619	11:38:19	11:51:57	817263	5.0.10.0	4_exp_AMP_EVA_AWA_CON	144	Rpleas_acq	Oppo	Lpleas	Amasked	CS_A	1pleas	distractor2	EVAbeforeCON	AMP_CSpleas	AMP23	7	16	0	0	300	300	0	0	2115	46	0	1	0	0	0	1	blank2r.bmp	0	1	CPLW	0	1	blank2r.bmp	79	101	pic101.bmp	199	1	whitenoise_No3.bmp	306	0	0	0	0	0	0	0	0	0	0	0	0	0	0	0	0	0	0	0	0	0	0	0	0	0	0	0	0	0	0	0	0	0	0	0	0	0	0	0
030619	11:38:19	11:51:59	819142	5.0.10.0	4_exp_AMP_EVA_AWA_CON	144	Rpleas_acq	Oppo	Lpleas	Amasked	CS_A	1pleas	distractor2	EVAbeforeCON	AMP_CSpleas	AMP23	7	17	0	0	300	300	0	0	950	46	0	1	0	0	0	1	blank2r.bmp	0	1	CPLW	0	1	blank2r.bmp	79	46	pic46.bmp	199	1	whitenoise_No3.bmp	306	0	0	0	0	0	0	0	0	0	0	0	0	0	0	0	0	0	0	0	0	0	0	0	0	0	0	0	0	0	0	0	0	0	0	0	0	0	0	0
030619	11:38:19	11:52:00	820741	5.0.10.0	4_exp_AMP_EVA_AWA_CON	144	Rpleas_acq	Oppo	Lpleas	Amasked	CS_A	1pleas	distractor2	EVAbeforeCON	AMP_CSunple	AMP23	7	18	0	0	300	300	0	0	684	50	0	1	0	0	0	1	blank2r.bmp	0	1	DHJF	0	1	blank2r.bmp	79	64	pic64.bmp	199	1	whitenoise_No3.bmp	306	0	0	0	0	0	0	0	0	0	0	0	0	0	0	0	0	0	0	0	0	0	0	0	0	0	0	0	0	0	0	0	0	0	0	0	0	0	0	0
030619	11:38:19	11:52:02	822127	5.0.10.0	4_exp_AMP_EVA_AWA_CON	144	Rpleas_acq	Oppo	Lpleas	Amasked	CS_A	1pleas	distractor2	EVAbeforeCON	AMP_CSpleas	AMP23	7	19	0	0	300	300	0	0	464	50	0	0	0	0	0	1	blank2r.bmp	0	1	CPLW	0	1	blank2r.bmp	79	152	pic152.bmp	199	1	whitenoise_No3.bmp	306	0	0	0	0	0	0	0	0	0	0	0	0	0	0	0	0	0	0	0	0	0	0	0	0	0	0	0	0	0	0	0	0	0	0	0	0	0	0	0
030619	11:38:19	11:52:03	823553	5.0.10.0	4_exp_AMP_EVA_AWA_CON	144	Rpleas_acq	Oppo	Lpleas	Amasked	CS_A	1pleas	distractor2	EVAbeforeCON	AMP_distractor	AMP23	7	20	0	0	300	300	0	0	504	46	0	0	0	0	0	1	blank2r.bmp	0	1	QYSB	0	1	blank2r.bmp	79	66	pic66.bmp	199	1	whitenoise_No3.bmp	306	0	0	0	0	0	0	0	0	0	0	0	0	0	0	0	0	0	0	0	0	0	0	0	0	0	0	0	0	0	0	0	0	0	0	0	0	0	0	0
030619	11:38:19	11:52:05	825019	5.0.10.0	4_exp_AMP_EVA_AWA_CON	144	Rpleas_acq	Oppo	Lpleas	Amasked	CS_A	1pleas	distractor2	EVAbeforeCON	AMP_distractor	AMP23	7	21	0	0	300	300	0	0	521	46	0	0	0	0	0	1	blank2r.bmp	0	1	QYSB	0	1	blank2r.bmp	79	86	pic86.bmp	199	1	whitenoise_No3.bmp	306	0	0	0	0	0	0	0	0	0	0	0	0	0	0	0	0	0	0	0	0	0	0	0	0	0	0	0	0	0	0	0	0	0	0	0	0	0	0	0
030619	11:38:19	11:52:07	826872	5.0.10.0	4_exp_AMP_EVA_AWA_CON	144	Rpleas_acq	Oppo	Lpleas	Amasked	CS_A	1pleas	distractor2	EVAbeforeCON	AMP_distractor	AMP23	7	22	0	0	300	300	0	0	942	46	0	0	0	0	0	1	blank2r.bmp	0	1	QYSB	0	1	blank2r.bmp	79	109	pic109.bmp	199	1	whitenoise_No3.bmp	306	0	0	0	0	0	0	0	0	0	0	0	0	0	0	0	0	0	0	0	0	0	0	0	0	0	0	0	0	0	0	0	0	0	0	0	0	0	0	0
030619	11:38:19	11:52:08	828378	5.0.10.0	4_exp_AMP_EVA_AWA_CON	144	Rpleas_acq	Oppo	Lpleas	Amasked	CS_A	1pleas	distractor2	EVAbeforeCON	AMP_CSunple	AMP23	7	23	0	0	300	300	0	0	584	46	0	0	0	0	0	1	blank2r.bmp	0	1	DHJF	0	1	blank2r.bmp	79	5	pic5.bmp	199	1	whitenoise_No3.bmp	306	0	0	0	0	0	0	0	0	0	0	0	0	0	0	0	0	0	0	0	0	0	0	0	0	0	0	0	0	0	0	0	0	0	0	0	0	0	0	0
030619	11:38:19	11:52:09	829804	5.0.10.0	4_exp_AMP_EVA_AWA_CON	144	Rpleas_acq	Oppo	Lpleas	Amasked	CS_A	1pleas	distractor2	EVAbeforeCON	AMP_CSpleas	AMP23	7	24	0	0	300	300	0	0	496	50	0	0	0	0	0	1	blank2r.bmp	0	1	CPLW	0	1	blank2r.bmp	79	81	pic81.bmp	199	1	whitenoise_No3.bmp	306	0	0	0	0	0	0	0	0	0	0	0	0	0	0	0	0	0	0	0	0	0	0	0	0	0	0	0	0	0	0	0	0	0	0	0	0	0	0	0
030619	11:38:19	11:52:11	831243	5.0.10.0	4_exp_AMP_EVA_AWA_CON	144	Rpleas_acq	Oppo	Lpleas	Amasked	CS_A	1pleas	distractor2	EVAbeforeCON	AMP_CSunple	AMP23	7	25	0	0	300	300	0	0	507	46	0	0	0	0	0	1	blank2r.bmp	0	1	DHJF	0	1	blank2r.bmp	79	10	pic10.bmp	199	1	whitenoise_No3.bmp	306	0	0	0	0	0	0	0	0	0	0	0	0	0	0	0	0	0	0	0	0	0	0	0	0	0	0	0	0	0	0	0	0	0	0	0	0	0	0	0
030619	11:38:19	11:52:13	833363	5.0.10.0	4_exp_AMP_EVA_AWA_CON	144	Rpleas_acq	Oppo	Lpleas	Amasked	CS_A	1pleas	distractor2	EVAbeforeCON	AMP_CSpleas	AMP23	7	26	0	0	300	300	0	0	1209	46	0	1	0	0	0	1	blank2r.bmp	0	1	CPLW	0	1	blank2r.bmp	79	74	pic74.bmp	199	1	whitenoise_No3.bmp	306	0	0	0	0	0	0	0	0	0	0	0	0	0	0	0	0	0	0	0	0	0	0	0	0	0	0	0	0	0	0	0	0	0	0	0	0	0	0	0
030619	11:38:19	11:52:14	834789	5.0.10.0	4_exp_AMP_EVA_AWA_CON	144	Rpleas_acq	Oppo	Lpleas	Amasked	CS_A	1pleas	distractor2	EVAbeforeCON	AMP_CSpleas	AMP23	7	27	0	0	300	300	0	0	492	46	0	1	0	0	0	1	blank2r.bmp	0	1	CPLW	0	1	blank2r.bmp	79	25	pic25.bmp	199	1	whitenoise_No3.bmp	306	0	0	0	0	0	0	0	0	0	0	0	0	0	0	0	0	0	0	0	0	0	0	0	0	0	0	0	0	0	0	0	0	0	0	0	0	0	0	0
030619	11:38:19	11:52:16	836201	5.0.10.0	4_exp_AMP_EVA_AWA_CON	144	Rpleas_acq	Oppo	Lpleas	Amasked	CS_A	1pleas	distractor2	EVAbeforeCON	AMP_CSpleas	AMP23	7	28	0	0	300	300	0	0	492	50	0	0	0	0	0	1	blank2r.bmp	0	1	CPLW	0	1	blank2r.bmp	79	42	pic42.bmp	199	1	whitenoise_No3.bmp	306	0	0	0	0	0	0	0	0	0	0	0	0	0	0	0	0	0	0	0	0	0	0	0	0	0	0	0	0	0	0	0	0	0	0	0	0	0	0	0
030619	11:38:19	11:52:17	837508	5.0.10.0	4_exp_AMP_EVA_AWA_CON	144	Rpleas_acq	Oppo	Lpleas	Amasked	CS_A	1pleas	distractor2	EVAbeforeCON	AMP_CSunple	AMP23	7	29	0	0	300	300	0	0	389	46	0	0	0	0	0	1	blank2r.bmp	0	1	DHJF	0	1	blank2r.bmp	79	133	pic133.bmp	199	1	whitenoise_No3.bmp	306	0	0	0	0	0	0	0	0	0	0	0	0	0	0	0	0	0	0	0	0	0	0	0	0	0	0	0	0	0	0	0	0	0	0	0	0	0	0	0
030619	11:38:19	11:52:19	838854	5.0.10.0	4_exp_AMP_EVA_AWA_CON	144	Rpleas_acq	Oppo	Lpleas	Amasked	CS_A	1pleas	distractor2	EVAbeforeCON	AMP_CSpleas	AMP23	7	30	0	0	300	300	0	0	437	46	0	1	0	0	0	1	blank2r.bmp	0	1	CPLW	0	1	blank2r.bmp	79	97	pic97.bmp	199	1	whitenoise_No3.bmp	306	0	0	0	0	0	0	0	0	0	0	0	0	0	0	0	0	0	0	0	0	0	0	0	0	0	0	0	0	0	0	0	0	0	0	0	0	0	0	0
030619	11:38:19	11:52:20	840400	5.0.10.0	4_exp_AMP_EVA_AWA_CON	144	Rpleas_acq	Oppo	Lpleas	Amasked	CS_A	1pleas	distractor2	EVAbeforeCON	AMP_distractor	AMP23	7	31	0	0	300	300	0	0	612	50	0	0	0	0	0	1	blank2r.bmp	0	1	QYSB	0	1	blank2r.bmp	79	137	pic137.bmp	199	1	whitenoise_No3.bmp	306	0	0	0	0	0	0	0	0	0	0	0	0	0	0	0	0	0	0	0	0	0	0	0	0	0	0	0	0	0	0	0	0	0	0	0	0	0	0	0
030619	11:38:19	11:52:22	841972	5.0.10.0	4_exp_AMP_EVA_AWA_CON	144	Rpleas_acq	Oppo	Lpleas	Amasked	CS_A	1pleas	distractor2	EVAbeforeCON	AMP_CSunple	AMP23	7	32	0	0	300	300	0	0	642	46	0	0	0	0	0	1	blank2r.bmp	0	1	DHJF	0	1	blank2r.bmp	79	11	pic11.bmp	199	1	whitenoise_No3.bmp	306	0	0	0	0	0	0	0	0	0	0	0	0	0	0	0	0	0	0	0	0	0	0	0	0	0	0	0	0	0	0	0	0	0	0	0	0	0	0	0
030619	11:38:19	11:52:23	843425	5.0.10.0	4_exp_AMP_EVA_AWA_CON	144	Rpleas_acq	Oppo	Lpleas	Amasked	CS_A	1pleas	distractor2	EVAbeforeCON	AMP_distractor	AMP23	7	33	0	0	300	300	0	0	520	50	0	0	0	0	0	1	blank2r.bmp	0	1	QYSB	0	1	blank2r.bmp	79	17	pic17.bmp	199	1	whitenoise_No3.bmp	306	0	0	0	0	0	0	0	0	0	0	0	0	0	0	0	0	0	0	0	0	0	0	0	0	0	0	0	0	0	0	0	0	0	0	0	0	0	0	0
030619	11:38:19	11:52:25	845118	5.0.10.0	4_exp_AMP_EVA_AWA_CON	144	Rpleas_acq	Oppo	Lpleas	Amasked	CS_A	1pleas	distractor2	EVAbeforeCON	AMP_distractor	AMP23	7	34	0	0	300	300	0	0	758	50	0	0	0	0	0	1	blank2r.bmp	0	1	QYSB	0	1	blank2r.bmp	79	61	pic61.bmp	199	1	whitenoise_No3.bmp	306	0	0	0	0	0	0	0	0	0	0	0	0	0	0	0	0	0	0	0	0	0	0	0	0	0	0	0	0	0	0	0	0	0	0	0	0	0	0	0
030619	11:38:19	11:52:26	846584	5.0.10.0	4_exp_AMP_EVA_AWA_CON	144	Rpleas_acq	Oppo	Lpleas	Amasked	CS_A	1pleas	distractor2	EVAbeforeCON	AMP_CSunple	AMP23	7	35	0	0	300	300	0	0	549	50	0	1	0	0	0	1	blank2r.bmp	0	1	DHJF	0	1	blank2r.bmp	79	16	pic16.bmp	199	1	whitenoise_No3.bmp	306	0	0	0	0	0	0	0	0	0	0	0	0	0	0	0	0	0	0	0	0	0	0	0	0	0	0	0	0	0	0	0	0	0	0	0	0	0	0	0
