date	time	script.currenttime	script.elapsedtime	build	script.currentexpt	subject	expressions.LRpleas_acq	expressions.SameOppo	expressions.condition_Lpleas	expressions.ABmasked	expressions.conditionCS_A	expressions.condition_1pleas	expressions.condition_distractor_AMP	expressions.AWACON_AMPEVA_first	trialcode	blockcode	blocknum	trialnum	windowcenter	inwindow	pretrialpause	posttrialpause	trialduration	trialtimeout	latency	response	expressions.correctedscore	correct	values.vis_performance	values.vis_rating_sum	values.vis_rating_mean	stimulusnumber1	stimulusitem1	stimulusonset1	stimulusnumber2	stimulusitem2	stimulusonset2	stimulusnumber3	stimulusitem3	stimulusonset3	stimulusnumber4	stimulusitem4	stimulusonset4	stimulusnumber5	stimulusitem5	stimulusonset5	stimulusnumber6	stimulusitem6	stimulusonset6	stimulusnumber7	stimulusitem7	stimulusonset7	stimulusnumber8	stimulusitem8	stimulusonset8	stimulusnumber9	stimulusitem9	stimulusonset9	stimulusnumber10	stimulusitem10	stimulusonset10	stimulusnumber11	stimulusitem11	stimulusonset11	stimulusnumber12	stimulusitem12	stimulusonset12	stimulusnumber13	stimulusitem13	stimulusonset13	stimulusnumber14	stimulusitem14	stimulusonset14	stimulusnumber15	stimulusitem15	stimulusonset15	stimulusnumber16	stimulusitem16	stimulusonset16	stimulusnumber17	stimulusitem17	stimulusonset17	stimulusnumber18	stimulusitem18	stimulusonset18
030719	12:46:46	12:48:28	101264	5.0.10.0	4_exp_AMP_EVA_AWA_CON	152	Rpleas_acq	Oppo	Rpleas	Bmasked	CS_B	2pleas	distractor1	EVAbeforeCON	acq_US_pleas_masked	acq1_masked	1	1	0	0	300	300	0	0	2978	50	0	1	0	0	0	1	blank2r.bmp	0	1	+	0	7	C3r.bmp	492	1	blank2r.bmp	786	1	GKQX	786	1	blank2r.bmp	866	1	spielen	866	0	0	0	0	0	0	0	0	0	0	0	0	0	0	0	0	0	0	0	0	0	0	0	0	0	0	0	0	0	0	0	0	0
030719	12:46:46	12:48:31	103876	5.0.10.0	4_exp_AMP_EVA_AWA_CON	152	Rpleas_acq	Oppo	Rpleas	Bmasked	CS_B	2pleas	distractor1	EVAbeforeCON	acq_US_unple_masked	acq1_masked	1	2	0	0	300	300	0	0	1122	46	0	1	0	0	0	1	blank2r.bmp	0	1	+	0	1	B1r.bmp	492	1	blank2r.bmp	786	1	BMVZ	786	1	blank2r.bmp	866	2	rächen	866	0	0	0	0	0	0	0	0	0	0	0	0	0	0	0	0	0	0	0	0	0	0	0	0	0	0	0	0	0	0	0	0	0
030719	12:46:46	12:48:33	106182	5.0.10.0	4_exp_AMP_EVA_AWA_CON	152	Rpleas_acq	Oppo	Rpleas	Bmasked	CS_B	2pleas	distractor1	EVAbeforeCON	acq_US_pleas_masked	acq1_masked	1	3	0	0	300	300	0	0	836	50	0	1	0	0	0	1	blank2r.bmp	0	1	+	0	4	B4r.bmp	492	1	blank2r.bmp	786	1	GKQX	786	1	blank2r.bmp	866	3	schlau	866	0	0	0	0	0	0	0	0	0	0	0	0	0	0	0	0	0	0	0	0	0	0	0	0	0	0	0	0	0	0	0	0	0
030719	12:46:46	12:48:38	110967	5.0.10.0	4_exp_AMP_EVA_AWA_CON	152	Rpleas_acq	Oppo	Rpleas	Bmasked	CS_B	2pleas	distractor1	EVAbeforeCON	acq_US_unple_masked	acq1_masked	1	4	0	0	300	300	0	0	3303	46	0	1	0	0	0	1	blank2r.bmp	0	1	+	0	6	C2r.bmp	492	1	blank2r.bmp	786	1	BMVZ	786	1	blank2r.bmp	866	4	eitel	866	0	0	0	0	0	0	0	0	0	0	0	0	0	0	0	0	0	0	0	0	0	0	0	0	0	0	0	0	0	0	0	0	0
030719	12:46:46	12:48:41	113513	5.0.10.0	4_exp_AMP_EVA_AWA_CON	152	Rpleas_acq	Oppo	Rpleas	Bmasked	CS_B	2pleas	distractor1	EVAbeforeCON	acq_new_pleas_masked	acq1_masked	1	5	0	0	300	300	0	0	1067	50	0	1	0	0	0	1	blank2r.bmp	0	1	+	0	8	C4r.bmp	492	1	blank2r.bmp	786	3	B3r.bmp	786	1	blank2r.bmp	866	5	lachen	866	0	0	0	0	0	0	0	0	0	0	0	0	0	0	0	0	0	0	0	0	0	0	0	0	0	0	0	0	0	0	0	0	0
030719	12:46:46	12:48:44	116511	5.0.10.0	4_exp_AMP_EVA_AWA_CON	152	Rpleas_acq	Oppo	Rpleas	Bmasked	CS_B	2pleas	distractor1	EVAbeforeCON	acq_new_unple_masked	acq1_masked	1	6	0	0	300	300	0	0	1506	46	0	1	0	0	0	1	blank2r.bmp	0	1	+	0	5	C1r.bmp	492	1	blank2r.bmp	786	7	C3r.bmp	786	1	blank2r.bmp	866	2	lasch	866	0	0	0	0	0	0	0	0	0	0	0	0	0	0	0	0	0	0	0	0	0	0	0	0	0	0	0	0	0	0	0	0	0
030719	12:46:46	12:48:46	118710	5.0.10.0	4_exp_AMP_EVA_AWA_CON	152	Rpleas_acq	Oppo	Rpleas	Bmasked	CS_B	2pleas	distractor1	EVAbeforeCON	acq_new_pleas_masked	acq1_masked	1	7	0	0	300	300	0	0	729	50	0	1	0	0	0	1	blank2r.bmp	0	1	+	0	3	B3r.bmp	492	1	blank2r.bmp	786	5	C1r.bmp	786	1	blank2r.bmp	866	3	treu	866	0	0	0	0	0	0	0	0	0	0	0	0	0	0	0	0	0	0	0	0	0	0	0	0	0	0	0	0	0	0	0	0	0
030719	12:46:46	12:48:49	121496	5.0.10.0	4_exp_AMP_EVA_AWA_CON	152	Rpleas_acq	Oppo	Rpleas	Bmasked	CS_B	2pleas	distractor1	EVAbeforeCON	acq_new_pleas_masked	acq1_masked	1	8	0	0	300	300	0	0	1306	50	0	1	0	0	0	1	blank2r.bmp	0	1	+	0	2	B2r.bmp	492	1	blank2r.bmp	786	6	C2r.bmp	786	1	blank2r.bmp	866	6	freundlich	866	0	0	0	0	0	0	0	0	0	0	0	0	0	0	0	0	0	0	0	0	0	0	0	0	0	0	0	0	0	0	0	0	0
030719	12:46:46	12:48:51	123748	5.0.10.0	4_exp_AMP_EVA_AWA_CON	152	Rpleas_acq	Oppo	Rpleas	Bmasked	CS_B	2pleas	distractor1	EVAbeforeCON	acq_US_unple_masked	acq1_masked	1	9	0	0	300	300	0	0	778	46	0	1	0	0	0	1	blank2r.bmp	0	1	+	0	7	C3r.bmp	492	1	blank2r.bmp	786	1	BMVZ	786	1	blank2r.bmp	866	3	schroff	866	0	0	0	0	0	0	0	0	0	0	0	0	0	0	0	0	0	0	0	0	0	0	0	0	0	0	0	0	0	0	0	0	0
030719	12:46:46	12:48:53	125921	5.0.10.0	4_exp_AMP_EVA_AWA_CON	152	Rpleas_acq	Oppo	Rpleas	Bmasked	CS_B	2pleas	distractor1	EVAbeforeCON	acq_US_pleas_masked	acq1_masked	1	10	0	0	300	300	0	0	702	50	0	1	0	0	0	1	blank2r.bmp	0	1	+	0	1	B1r.bmp	492	1	blank2r.bmp	786	1	GKQX	786	1	blank2r.bmp	866	4	ehrlich	866	0	0	0	0	0	0	0	0	0	0	0	0	0	0	0	0	0	0	0	0	0	0	0	0	0	0	0	0	0	0	0	0	0
030719	12:46:46	12:48:55	128240	5.0.10.0	4_exp_AMP_EVA_AWA_CON	152	Rpleas_acq	Oppo	Rpleas	Bmasked	CS_B	2pleas	distractor1	EVAbeforeCON	acq_new_unple_masked	acq1_masked	1	11	0	0	300	300	0	0	826	46	0	1	0	0	0	1	blank2r.bmp	0	1	+	0	2	B2r.bmp	492	1	blank2r.bmp	786	8	C4r.bmp	786	1	blank2r.bmp	866	4	schlecht	866	0	0	0	0	0	0	0	0	0	0	0	0	0	0	0	0	0	0	0	0	0	0	0	0	0	0	0	0	0	0	0	0	0
030719	12:46:46	12:48:58	130559	5.0.10.0	4_exp_AMP_EVA_AWA_CON	152	Rpleas_acq	Oppo	Rpleas	Bmasked	CS_B	2pleas	distractor1	EVAbeforeCON	acq_new_unple_masked	acq1_masked	1	12	0	0	300	300	0	0	825	46	0	1	0	0	0	1	blank2r.bmp	0	1	+	0	5	C1r.bmp	492	1	blank2r.bmp	786	2	B2r.bmp	786	1	blank2r.bmp	866	1	tyrannisch	866	0	0	0	0	0	0	0	0	0	0	0	0	0	0	0	0	0	0	0	0	0	0	0	0	0	0	0	0	0	0	0	0	0
030719	12:46:46	12:49:00	132798	5.0.10.0	4_exp_AMP_EVA_AWA_CON	152	Rpleas_acq	Oppo	Rpleas	Bmasked	CS_B	2pleas	distractor1	EVAbeforeCON	acq_US_pleas_masked	acq1_masked	1	13	0	0	300	300	0	0	770	50	0	1	0	0	0	1	blank2r.bmp	0	1	+	0	8	C4r.bmp	492	1	blank2r.bmp	786	1	GKQX	786	1	blank2r.bmp	866	5	fair	866	0	0	0	0	0	0	0	0	0	0	0	0	0	0	0	0	0	0	0	0	0	0	0	0	0	0	0	0	0	0	0	0	0
030719	12:46:46	12:49:03	135690	5.0.10.0	4_exp_AMP_EVA_AWA_CON	152	Rpleas_acq	Oppo	Rpleas	Bmasked	CS_B	2pleas	distractor1	EVAbeforeCON	acq_US_pleas_masked	acq1_masked	1	14	0	0	300	300	0	0	1410	50	0	1	0	0	0	1	blank2r.bmp	0	1	+	0	4	B4r.bmp	492	1	blank2r.bmp	786	1	GKQX	786	1	blank2r.bmp	866	2	retten	866	0	0	0	0	0	0	0	0	0	0	0	0	0	0	0	0	0	0	0	0	0	0	0	0	0	0	0	0	0	0	0	0	0
030719	12:46:46	12:49:05	137756	5.0.10.0	4_exp_AMP_EVA_AWA_CON	152	Rpleas_acq	Oppo	Rpleas	Bmasked	CS_B	2pleas	distractor1	EVAbeforeCON	acq_US_pleas_masked	acq1_masked	1	15	0	0	300	300	0	0	575	50	0	1	0	0	0	1	blank2r.bmp	0	1	+	0	3	B3r.bmp	492	1	blank2r.bmp	786	1	GKQX	786	1	blank2r.bmp	866	6	helfen	866	0	0	0	0	0	0	0	0	0	0	0	0	0	0	0	0	0	0	0	0	0	0	0	0	0	0	0	0	0	0	0	0	0
030719	12:46:46	12:49:07	139888	5.0.10.0	4_exp_AMP_EVA_AWA_CON	152	Rpleas_acq	Oppo	Rpleas	Bmasked	CS_B	2pleas	distractor1	EVAbeforeCON	acq_new_pleas_masked	acq1_masked	1	16	0	0	300	300	0	0	650	50	0	1	0	0	0	1	blank2r.bmp	0	1	+	0	6	C2r.bmp	492	1	blank2r.bmp	786	1	B1r.bmp	786	1	blank2r.bmp	866	4	schön	866	0	0	0	0	0	0	0	0	0	0	0	0	0	0	0	0	0	0	0	0	0	0	0	0	0	0	0	0	0	0	0	0	0
030719	12:46:46	12:49:09	142287	5.0.10.0	4_exp_AMP_EVA_AWA_CON	152	Rpleas_acq	Oppo	Rpleas	Bmasked	CS_B	2pleas	distractor1	EVAbeforeCON	acq_new_unple_masked	acq1_masked	1	17	0	0	300	300	0	0	699	50	0	0	0	0	0	1	blank2r.bmp	0	1	+	0	8	C4r.bmp	492	1	blank2r.bmp	786	4	B4r.bmp	786	1	blank2r.bmp	866	6	fanatisch	866	1	FEHLER	1599	0	0	0	0	0	0	0	0	0	0	0	0	0	0	0	0	0	0	0	0	0	0	0	0	0	0	0	0	0	0
030719	12:46:46	12:49:14	146579	5.0.10.0	4_exp_AMP_EVA_AWA_CON	152	Rpleas_acq	Oppo	Rpleas	Bmasked	CS_B	2pleas	distractor1	EVAbeforeCON	acq_new_unple_masked	acq1_masked	1	18	0	0	300	300	0	0	3020	46	0	1	0	0	0	1	blank2r.bmp	0	1	+	0	7	C3r.bmp	492	1	blank2r.bmp	786	8	C4r.bmp	786	1	blank2r.bmp	866	3	tot	866	0	0	0	0	0	0	0	0	0	0	0	0	0	0	0	0	0	0	0	0	0	0	0	0	0	0	0	0	0	0	0	0	0
030719	12:46:46	12:49:16	149178	5.0.10.0	4_exp_AMP_EVA_AWA_CON	152	Rpleas_acq	Oppo	Rpleas	Bmasked	CS_B	2pleas	distractor1	EVAbeforeCON	acq_US_unple_masked	acq1_masked	1	19	0	0	300	300	0	0	1106	46	0	1	0	0	0	1	blank2r.bmp	0	1	+	0	5	C1r.bmp	492	1	blank2r.bmp	786	1	BMVZ	786	1	blank2r.bmp	866	6	hindern	866	0	0	0	0	0	0	0	0	0	0	0	0	0	0	0	0	0	0	0	0	0	0	0	0	0	0	0	0	0	0	0	0	0
030719	12:46:46	12:49:18	151284	5.0.10.0	4_exp_AMP_EVA_AWA_CON	152	Rpleas_acq	Oppo	Rpleas	Bmasked	CS_B	2pleas	distractor1	EVAbeforeCON	acq_new_pleas_masked	acq1_masked	1	20	0	0	300	300	0	0	625	50	0	1	0	0	0	1	blank2r.bmp	0	1	+	0	3	B3r.bmp	492	1	blank2r.bmp	786	6	C2r.bmp	786	1	blank2r.bmp	866	2	loyal	866	0	0	0	0	0	0	0	0	0	0	0	0	0	0	0	0	0	0	0	0	0	0	0	0	0	0	0	0	0	0	0	0	0
030719	12:46:46	12:49:21	153576	5.0.10.0	4_exp_AMP_EVA_AWA_CON	152	Rpleas_acq	Oppo	Rpleas	Bmasked	CS_B	2pleas	distractor1	EVAbeforeCON	acq_new_unple_masked	acq1_masked	1	21	0	0	300	300	0	0	815	46	0	1	0	0	0	1	blank2r.bmp	0	1	+	0	1	B1r.bmp	492	1	blank2r.bmp	786	4	B4r.bmp	786	1	blank2r.bmp	866	5	leiden	866	0	0	0	0	0	0	0	0	0	0	0	0	0	0	0	0	0	0	0	0	0	0	0	0	0	0	0	0	0	0	0	0	0
030719	12:46:46	12:49:24	156561	5.0.10.0	4_exp_AMP_EVA_AWA_CON	152	Rpleas_acq	Oppo	Rpleas	Bmasked	CS_B	2pleas	distractor1	EVAbeforeCON	acq_US_unple_masked	acq1_masked	1	22	0	0	300	300	0	0	1506	46	0	1	0	0	0	1	blank2r.bmp	0	1	+	0	2	B2r.bmp	492	1	blank2r.bmp	786	1	BMVZ	786	1	blank2r.bmp	866	5	faul	866	0	0	0	0	0	0	0	0	0	0	0	0	0	0	0	0	0	0	0	0	0	0	0	0	0	0	0	0	0	0	0	0	0
030719	12:46:46	12:49:26	159240	5.0.10.0	4_exp_AMP_EVA_AWA_CON	152	Rpleas_acq	Oppo	Rpleas	Bmasked	CS_B	2pleas	distractor1	EVAbeforeCON	acq_new_pleas_masked	acq1_masked	1	23	0	0	300	300	0	0	1199	50	0	1	0	0	0	1	blank2r.bmp	0	1	+	0	4	B4r.bmp	492	1	blank2r.bmp	786	2	B2r.bmp	786	1	blank2r.bmp	866	1	tolerant	866	0	0	0	0	0	0	0	0	0	0	0	0	0	0	0	0	0	0	0	0	0	0	0	0	0	0	0	0	0	0	0	0	0
030719	12:46:46	12:49:30	163025	5.0.10.0	4_exp_AMP_EVA_AWA_CON	152	Rpleas_acq	Oppo	Rpleas	Bmasked	CS_B	2pleas	distractor1	EVAbeforeCON	acq_US_unple_masked	acq1_masked	1	24	0	0	300	300	0	0	2309	46	0	1	0	0	0	1	blank2r.bmp	0	1	+	0	6	C2r.bmp	492	1	blank2r.bmp	786	1	BMVZ	786	1	blank2r.bmp	866	1	strafen	866	0	0	0	0	0	0	0	0	0	0	0	0	0	0	0	0	0	0	0	0	0	0	0	0	0	0	0	0	0	0	0	0	0
030719	12:46:46	12:49:33	165718	5.0.10.0	4_exp_AMP_EVA_AWA_CON	152	Rpleas_acq	Oppo	Rpleas	Bmasked	CS_B	2pleas	distractor1	EVAbeforeCON	acq_new_pleas_masked	acq1_masked	1	25	0	0	300	300	0	0	1201	50	0	1	0	0	0	1	blank2r.bmp	0	1	+	0	1	B1r.bmp	492	1	blank2r.bmp	786	7	C3r.bmp	786	1	blank2r.bmp	866	3	treu	866	0	0	0	0	0	0	0	0	0	0	0	0	0	0	0	0	0	0	0	0	0	0	0	0	0	0	0	0	0	0	0	0	0
030719	12:46:46	12:49:35	168130	5.0.10.0	4_exp_AMP_EVA_AWA_CON	152	Rpleas_acq	Oppo	Rpleas	Bmasked	CS_B	2pleas	distractor1	EVAbeforeCON	acq_US_pleas_masked	acq1_masked	1	26	0	0	300	300	0	0	939	50	0	1	0	0	0	1	blank2r.bmp	0	1	+	0	2	B2r.bmp	492	1	blank2r.bmp	786	1	GKQX	786	1	blank2r.bmp	866	5	fair	866	0	0	0	0	0	0	0	0	0	0	0	0	0	0	0	0	0	0	0	0	0	0	0	0	0	0	0	0	0	0	0	0	0
030719	12:46:46	12:49:37	170289	5.0.10.0	4_exp_AMP_EVA_AWA_CON	152	Rpleas_acq	Oppo	Rpleas	Bmasked	CS_B	2pleas	distractor1	EVAbeforeCON	acq_US_pleas_masked	acq1_masked	1	27	0	0	300	300	0	0	687	50	0	1	0	0	0	1	blank2r.bmp	0	1	+	0	6	C2r.bmp	492	1	blank2r.bmp	786	1	GKQX	786	1	blank2r.bmp	866	1	spielen	866	0	0	0	0	0	0	0	0	0	0	0	0	0	0	0	0	0	0	0	0	0	0	0	0	0	0	0	0	0	0	0	0	0
030719	12:46:46	12:49:40	172622	5.0.10.0	4_exp_AMP_EVA_AWA_CON	152	Rpleas_acq	Oppo	Rpleas	Bmasked	CS_B	2pleas	distractor1	EVAbeforeCON	acq_US_unple_masked	acq1_masked	1	28	0	0	300	300	0	0	840	46	0	1	0	0	0	1	blank2r.bmp	0	1	+	0	5	C1r.bmp	492	1	blank2r.bmp	786	1	BMVZ	786	1	blank2r.bmp	866	2	rächen	866	0	0	0	0	0	0	0	0	0	0	0	0	0	0	0	0	0	0	0	0	0	0	0	0	0	0	0	0	0	0	0	0	0
030719	12:46:46	12:49:42	175034	5.0.10.0	4_exp_AMP_EVA_AWA_CON	152	Rpleas_acq	Oppo	Rpleas	Bmasked	CS_B	2pleas	distractor1	EVAbeforeCON	acq_US_unple_masked	acq1_masked	1	29	0	0	300	300	0	0	924	46	0	1	0	0	0	1	blank2r.bmp	0	1	+	0	8	C4r.bmp	492	1	blank2r.bmp	786	1	BMVZ	786	1	blank2r.bmp	866	1	strafen	866	0	0	0	0	0	0	0	0	0	0	0	0	0	0	0	0	0	0	0	0	0	0	0	0	0	0	0	0	0	0	0	0	0
030719	12:46:46	12:49:44	177220	5.0.10.0	4_exp_AMP_EVA_AWA_CON	152	Rpleas_acq	Oppo	Rpleas	Bmasked	CS_B	2pleas	distractor1	EVAbeforeCON	acq_US_pleas_masked	acq1_masked	1	30	0	0	300	300	0	0	704	50	0	1	0	0	0	1	blank2r.bmp	0	1	+	0	3	B3r.bmp	492	1	blank2r.bmp	786	1	GKQX	786	1	blank2r.bmp	866	3	schlau	866	0	0	0	0	0	0	0	0	0	0	0	0	0	0	0	0	0	0	0	0	0	0	0	0	0	0	0	0	0	0	0	0	0
030719	12:46:46	12:49:47	180165	5.0.10.0	4_exp_AMP_EVA_AWA_CON	152	Rpleas_acq	Oppo	Rpleas	Bmasked	CS_B	2pleas	distractor1	EVAbeforeCON	acq_new_unple_masked	acq1_masked	1	31	0	0	300	300	0	0	1464	46	0	1	0	0	0	1	blank2r.bmp	0	1	+	0	7	C3r.bmp	492	1	blank2r.bmp	786	3	B3r.bmp	786	1	blank2r.bmp	866	2	lasch	866	0	0	0	0	0	0	0	0	0	0	0	0	0	0	0	0	0	0	0	0	0	0	0	0	0	0	0	0	0	0	0	0	0
030719	12:46:46	12:49:50	183204	5.0.10.0	4_exp_AMP_EVA_AWA_CON	152	Rpleas_acq	Oppo	Rpleas	Bmasked	CS_B	2pleas	distractor1	EVAbeforeCON	acq_US_unple_masked	acq1_masked	1	32	0	0	300	300	0	0	1545	46	0	1	0	0	0	1	blank2r.bmp	0	1	+	0	4	B4r.bmp	492	1	blank2r.bmp	786	1	BMVZ	786	1	blank2r.bmp	866	6	hindern	866	0	0	0	0	0	0	0	0	0	0	0	0	0	0	0	0	0	0	0	0	0	0	0	0	0	0	0	0	0	0	0	0	0
030719	12:46:46	12:49:53	185709	5.0.10.0	4_exp_AMP_EVA_AWA_CON	152	Rpleas_acq	Oppo	Rpleas	Bmasked	CS_B	2pleas	distractor1	EVAbeforeCON	acq_new_pleas_masked	acq1_masked	1	33	0	0	300	300	0	0	1030	50	0	1	0	0	0	1	blank2r.bmp	0	1	+	0	4	B4r.bmp	492	1	blank2r.bmp	786	5	C1r.bmp	786	1	blank2r.bmp	866	6	freundlich	866	0	0	0	0	0	0	0	0	0	0	0	0	0	0	0	0	0	0	0	0	0	0	0	0	0	0	0	0	0	0	0	0	0
030719	12:46:46	12:49:57	189561	5.0.10.0	4_exp_AMP_EVA_AWA_CON	152	Rpleas_acq	Oppo	Rpleas	Bmasked	CS_B	2pleas	distractor1	EVAbeforeCON	acq_new_pleas_masked	acq1_masked	1	34	0	0	300	300	0	0	2370	50	0	1	0	0	0	1	blank2r.bmp	0	1	+	0	1	B1r.bmp	492	1	blank2r.bmp	786	1	B1r.bmp	786	1	blank2r.bmp	866	1	tolerant	866	0	0	0	0	0	0	0	0	0	0	0	0	0	0	0	0	0	0	0	0	0	0	0	0	0	0	0	0	0	0	0	0	0
030719	12:46:46	12:49:59	191760	5.0.10.0	4_exp_AMP_EVA_AWA_CON	152	Rpleas_acq	Oppo	Rpleas	Bmasked	CS_B	2pleas	distractor1	EVAbeforeCON	acq_new_unple_masked	acq1_masked	1	35	0	0	300	300	0	0	705	46	0	1	0	0	0	1	blank2r.bmp	0	1	+	0	5	C1r.bmp	492	1	blank2r.bmp	786	1	B1r.bmp	786	1	blank2r.bmp	866	3	tot	866	0	0	0	0	0	0	0	0	0	0	0	0	0	0	0	0	0	0	0	0	0	0	0	0	0	0	0	0	0	0	0	0	0
030719	12:46:46	12:50:01	194266	5.0.10.0	4_exp_AMP_EVA_AWA_CON	152	Rpleas_acq	Oppo	Rpleas	Bmasked	CS_B	2pleas	distractor1	EVAbeforeCON	acq_new_unple_masked	acq1_masked	1	36	0	0	300	300	0	0	1035	46	0	1	0	0	0	1	blank2r.bmp	0	1	+	0	2	B2r.bmp	492	1	blank2r.bmp	786	8	C4r.bmp	786	1	blank2r.bmp	866	6	fanatisch	866	0	0	0	0	0	0	0	0	0	0	0	0	0	0	0	0	0	0	0	0	0	0	0	0	0	0	0	0	0	0	0	0	0
030719	12:46:46	12:50:46	238474	5.0.10.0	4_exp_AMP_EVA_AWA_CON	152	Rpleas_acq	Oppo	Rpleas	Bmasked	CS_B	2pleas	distractor1	EVAbeforeCON	acq_new_pleas_masked	acq2_masked	2	1	480	0	300	300	0	0	1104	50	0	1	0	0	0	1	blank2r.bmp	0	1	+	0	7	C3r.bmp	492	1	blank2r.bmp	786	6	C2r.bmp	786	1	blank2r.bmp	866	4	schön	866	1	!	1319	1	!	-1	0	0	0	0	0	0	0	0	0	0	0	0	0	0	0	0	0	0	0	0	0	0	0	0	0	0	0
030719	12:46:46	12:50:48	240980	5.0.10.0	4_exp_AMP_EVA_AWA_CON	152	Rpleas_acq	Oppo	Rpleas	Bmasked	CS_B	2pleas	distractor1	EVAbeforeCON	acq_new_unple_masked	acq2_masked	2	2	480	0	300	300	0	0	723	46	0	1	0	0	0	1	blank2r.bmp	0	1	+	0	3	B3r.bmp	492	1	blank2r.bmp	786	4	B4r.bmp	786	1	blank2r.bmp	866	5	leiden	866	1	!	1319	1	!	-1	0	0	0	0	0	0	0	0	0	0	0	0	0	0	0	0	0	0	0	0	0	0	0	0	0	0	0
030719	12:46:46	12:50:50	243352	5.0.10.0	4_exp_AMP_EVA_AWA_CON	152	Rpleas_acq	Oppo	Rpleas	Bmasked	CS_B	2pleas	distractor1	EVAbeforeCON	acq_US_unple_masked	acq2_masked	2	3	480	0	300	300	0	0	573	46	0	1	0	0	0	1	blank2r.bmp	0	1	+	0	6	C2r.bmp	492	1	blank2r.bmp	786	1	BMVZ	786	1	blank2r.bmp	866	5	faul	866	1	!	1319	1	!	-1	0	0	0	0	0	0	0	0	0	0	0	0	0	0	0	0	0	0	0	0	0	0	0	0	0	0	0
030719	12:46:46	12:50:53	245725	5.0.10.0	4_exp_AMP_EVA_AWA_CON	152	Rpleas_acq	Oppo	Rpleas	Bmasked	CS_B	2pleas	distractor1	EVAbeforeCON	acq_new_unple_masked	acq2_masked	2	4	480	1	300	300	0	0	546	46	0	1	0	0	0	1	blank2r.bmp	0	1	+	0	8	C4r.bmp	492	1	blank2r.bmp	786	2	B2r.bmp	786	1	blank2r.bmp	866	4	schlecht	866	1	!	1319	1	!	1452	0	0	0	0	0	0	0	0	0	0	0	0	0	0	0	0	0	0	0	0	0	0	0	0	0	0	0
030719	12:46:46	12:50:55	247964	5.0.10.0	4_exp_AMP_EVA_AWA_CON	152	Rpleas_acq	Oppo	Rpleas	Bmasked	CS_B	2pleas	distractor1	EVAbeforeCON	acq_new_pleas_masked	acq2_masked	2	5	480	1	300	300	0	0	443	50	0	1	0	0	0	1	blank2r.bmp	0	1	+	0	1	B1r.bmp	492	1	blank2r.bmp	786	3	B3r.bmp	786	1	blank2r.bmp	866	2	loyal	866	1	!	1319	1	!	1346	0	0	0	0	0	0	0	0	0	0	0	0	0	0	0	0	0	0	0	0	0	0	0	0	0	0	0
030719	12:46:46	12:50:57	250216	5.0.10.0	4_exp_AMP_EVA_AWA_CON	152	Rpleas_acq	Oppo	Rpleas	Bmasked	CS_B	2pleas	distractor1	EVAbeforeCON	acq_US_pleas_masked	acq2_masked	2	6	480	1	300	300	0	0	460	50	0	1	0	0	0	1	blank2r.bmp	0	1	+	0	8	C4r.bmp	492	1	blank2r.bmp	786	1	GKQX	786	1	blank2r.bmp	866	2	retten	866	1	!	1319	1	!	1359	0	0	0	0	0	0	0	0	0	0	0	0	0	0	0	0	0	0	0	0	0	0	0	0	0	0	0
030719	12:46:46	12:50:59	252469	5.0.10.0	4_exp_AMP_EVA_AWA_CON	152	Rpleas_acq	Oppo	Rpleas	Bmasked	CS_B	2pleas	distractor1	EVAbeforeCON	acq_new_unple_masked	acq2_masked	2	7	480	1	300	300	0	0	452	46	0	1	0	0	0	1	blank2r.bmp	0	1	+	0	4	B4r.bmp	492	1	blank2r.bmp	786	5	C1r.bmp	786	1	blank2r.bmp	866	1	tyrannisch	866	1	!	1319	1	!	1359	0	0	0	0	0	0	0	0	0	0	0	0	0	0	0	0	0	0	0	0	0	0	0	0	0	0	0
030719	12:46:46	12:51:02	254561	5.0.10.0	4_exp_AMP_EVA_AWA_CON	152	Rpleas_acq	Oppo	Rpleas	Bmasked	CS_B	2pleas	distractor1	EVAbeforeCON	acq_US_pleas_masked	acq2_masked	2	8	480	0	300	300	0	0	324	50	0	1	0	0	0	1	blank2r.bmp	0	1	+	0	2	B2r.bmp	492	1	blank2r.bmp	786	1	GKQX	786	1	blank2r.bmp	866	4	ehrlich	866	1	!	-1	1	!	-1	0	0	0	0	0	0	0	0	0	0	0	0	0	0	0	0	0	0	0	0	0	0	0	0	0	0	0
030719	12:46:46	12:51:04	257333	5.0.10.0	4_exp_AMP_EVA_AWA_CON	152	Rpleas_acq	Oppo	Rpleas	Bmasked	CS_B	2pleas	distractor1	EVAbeforeCON	acq_US_unple_masked	acq2_masked	2	9	480	0	300	300	0	0	986	46	0	1	0	0	0	1	blank2r.bmp	0	1	+	0	3	B3r.bmp	492	1	blank2r.bmp	786	1	BMVZ	786	1	blank2r.bmp	866	3	schroff	866	1	!	1319	1	!	-1	0	0	0	0	0	0	0	0	0	0	0	0	0	0	0	0	0	0	0	0	0	0	0	0	0	0	0
030719	12:46:46	12:51:07	259652	5.0.10.0	4_exp_AMP_EVA_AWA_CON	152	Rpleas_acq	Oppo	Rpleas	Bmasked	CS_B	2pleas	distractor1	EVAbeforeCON	acq_US_unple_masked	acq2_masked	2	10	480	0	300	300	0	0	311	50	0	0	0	0	0	1	blank2r.bmp	0	1	+	0	6	C2r.bmp	492	1	blank2r.bmp	786	1	BMVZ	786	1	blank2r.bmp	866	4	eitel	866	1	FEHLER	1519	1	!	-1	1	!	-1	0	0	0	0	0	0	0	0	0	0	0	0	0	0	0	0	0	0	0	0	0	0	0	0
030719	12:46:46	12:51:12	264730	5.0.10.0	4_exp_AMP_EVA_AWA_CON	152	Rpleas_acq	Oppo	Rpleas	Bmasked	CS_B	2pleas	distractor1	EVAbeforeCON	acq_new_pleas_masked	acq2_masked	2	11	480	0	300	300	0	0	3522	50	0	1	0	0	0	1	blank2r.bmp	0	1	+	0	5	C1r.bmp	492	1	blank2r.bmp	786	7	C3r.bmp	786	1	blank2r.bmp	866	5	lachen	866	1	!	1319	1	!	-1	0	0	0	0	0	0	0	0	0	0	0	0	0	0	0	0	0	0	0	0	0	0	0	0	0	0	0
030719	12:46:46	12:51:15	267503	5.0.10.0	4_exp_AMP_EVA_AWA_CON	152	Rpleas_acq	Oppo	Rpleas	Bmasked	CS_B	2pleas	distractor1	EVAbeforeCON	acq_US_pleas_masked	acq2_masked	2	12	480	0	300	300	0	0	993	50	0	1	0	0	0	1	blank2r.bmp	0	1	+	0	7	C3r.bmp	492	1	blank2r.bmp	786	1	GKQX	786	1	blank2r.bmp	866	6	helfen	866	1	!	1319	1	!	-1	0	0	0	0	0	0	0	0	0	0	0	0	0	0	0	0	0	0	0	0	0	0	0	0	0	0	0
030719	12:46:46	12:51:17	270035	5.0.10.0	4_exp_AMP_EVA_AWA_CON	152	Rpleas_acq	Oppo	Rpleas	Bmasked	CS_B	2pleas	distractor1	EVAbeforeCON	acq_new_pleas_masked	acq2_masked	2	13	480	0	300	300	0	0	745	50	0	1	0	0	0	1	blank2r.bmp	0	1	+	0	6	C2r.bmp	492	1	blank2r.bmp	786	2	B2r.bmp	786	1	blank2r.bmp	866	2	loyal	866	1	!	1319	1	!	-1	0	0	0	0	0	0	0	0	0	0	0	0	0	0	0	0	0	0	0	0	0	0	0	0	0	0	0
030719	12:46:46	12:51:19	272194	5.0.10.0	4_exp_AMP_EVA_AWA_CON	152	Rpleas_acq	Oppo	Rpleas	Bmasked	CS_B	2pleas	distractor1	EVAbeforeCON	acq_new_pleas_masked	acq2_masked	2	14	480	0	300	300	0	0	378	50	0	1	0	0	0	1	blank2r.bmp	0	1	+	0	8	C4r.bmp	492	1	blank2r.bmp	786	3	B3r.bmp	786	1	blank2r.bmp	866	3	treu	866	1	!	-1	1	!	-1	0	0	0	0	0	0	0	0	0	0	0	0	0	0	0	0	0	0	0	0	0	0	0	0	0	0	0
030719	12:46:46	12:51:22	275126	5.0.10.0	4_exp_AMP_EVA_AWA_CON	152	Rpleas_acq	Oppo	Rpleas	Bmasked	CS_B	2pleas	distractor1	EVAbeforeCON	acq_new_unple_masked	acq2_masked	2	15	480	0	300	300	0	0	927	50	0	0	0	0	0	1	blank2r.bmp	0	1	+	0	5	C1r.bmp	492	1	blank2r.bmp	786	4	B4r.bmp	786	1	blank2r.bmp	866	2	lasch	866	1	FEHLER	2132	1	!	1319	1	!	-1	0	0	0	0	0	0	0	0	0	0	0	0	0	0	0	0	0	0	0	0	0	0	0	0
030719	12:46:46	12:51:24	277392	5.0.10.0	4_exp_AMP_EVA_AWA_CON	152	Rpleas_acq	Oppo	Rpleas	Bmasked	CS_B	2pleas	distractor1	EVAbeforeCON	acq_US_pleas_masked	acq2_masked	2	16	480	0	300	300	0	0	706	50	0	1	0	0	0	1	blank2r.bmp	0	1	+	0	3	B3r.bmp	492	1	blank2r.bmp	786	1	GKQX	786	1	blank2r.bmp	866	2	retten	866	1	!	1319	1	!	-1	0	0	0	0	0	0	0	0	0	0	0	0	0	0	0	0	0	0	0	0	0	0	0	0	0	0	0
030719	12:46:46	12:51:27	280057	5.0.10.0	4_exp_AMP_EVA_AWA_CON	152	Rpleas_acq	Oppo	Rpleas	Bmasked	CS_B	2pleas	distractor1	EVAbeforeCON	acq_US_unple_masked	acq2_masked	2	17	480	0	300	300	0	0	643	50	0	0	0	0	0	1	blank2r.bmp	0	1	+	0	1	B1r.bmp	492	1	blank2r.bmp	786	1	BMVZ	786	1	blank2r.bmp	866	1	strafen	866	1	FEHLER	1852	1	!	1319	1	!	-1	0	0	0	0	0	0	0	0	0	0	0	0	0	0	0	0	0	0	0	0	0	0	0	0
030719	12:46:46	12:51:29	282363	5.0.10.0	4_exp_AMP_EVA_AWA_CON	152	Rpleas_acq	Oppo	Rpleas	Bmasked	CS_B	2pleas	distractor1	EVAbeforeCON	acq_US_pleas_masked	acq2_masked	2	18	480	0	300	300	0	0	751	50	0	1	0	0	0	1	blank2r.bmp	0	1	+	0	7	C3r.bmp	492	1	blank2r.bmp	786	1	GKQX	786	1	blank2r.bmp	866	1	spielen	866	1	!	1319	1	!	-1	0	0	0	0	0	0	0	0	0	0	0	0	0	0	0	0	0	0	0	0	0	0	0	0	0	0	0
030719	12:46:46	12:51:32	284642	5.0.10.0	4_exp_AMP_EVA_AWA_CON	152	Rpleas_acq	Oppo	Rpleas	Bmasked	CS_B	2pleas	distractor1	EVAbeforeCON	acq_new_unple_masked	acq2_masked	2	19	480	1	300	300	0	0	477	46	0	1	0	0	0	1	blank2r.bmp	0	1	+	0	4	B4r.bmp	492	1	blank2r.bmp	786	6	C2r.bmp	786	1	blank2r.bmp	866	1	tyrannisch	866	1	!	1319	1	!	1372	0	0	0	0	0	0	0	0	0	0	0	0	0	0	0	0	0	0	0	0	0	0	0	0	0	0	0
030719	12:46:46	12:51:34	286895	5.0.10.0	4_exp_AMP_EVA_AWA_CON	152	Rpleas_acq	Oppo	Rpleas	Bmasked	CS_B	2pleas	distractor1	EVAbeforeCON	acq_new_pleas_masked	acq2_masked	2	20	480	1	300	300	0	0	449	50	0	1	0	0	0	1	blank2r.bmp	0	1	+	0	2	B2r.bmp	492	1	blank2r.bmp	786	5	C1r.bmp	786	1	blank2r.bmp	866	4	schön	866	1	!	1319	1	!	1346	0	0	0	0	0	0	0	0	0	0	0	0	0	0	0	0	0	0	0	0	0	0	0	0	0	0	0
030719	12:46:46	12:51:36	289440	5.0.10.0	4_exp_AMP_EVA_AWA_CON	152	Rpleas_acq	Oppo	Rpleas	Bmasked	CS_B	2pleas	distractor1	EVAbeforeCON	acq_US_unple_masked	acq2_masked	2	21	480	0	300	300	0	0	781	46	0	1	0	0	0	1	blank2r.bmp	0	1	+	0	3	B3r.bmp	492	1	blank2r.bmp	786	1	BMVZ	786	1	blank2r.bmp	866	4	eitel	866	1	!	1319	1	!	-1	0	0	0	0	0	0	0	0	0	0	0	0	0	0	0	0	0	0	0	0	0	0	0	0	0	0	0
030719	12:46:46	12:51:39	291626	5.0.10.0	4_exp_AMP_EVA_AWA_CON	152	Rpleas_acq	Oppo	Rpleas	Bmasked	CS_B	2pleas	distractor1	EVAbeforeCON	acq_US_pleas_masked	acq2_masked	2	22	480	0	300	300	0	0	408	50	0	1	0	0	0	1	blank2r.bmp	0	1	+	0	7	C3r.bmp	492	1	blank2r.bmp	786	1	GKQX	786	1	blank2r.bmp	866	4	ehrlich	866	1	!	-1	1	!	-1	0	0	0	0	0	0	0	0	0	0	0	0	0	0	0	0	0	0	0	0	0	0	0	0	0	0	0
030719	12:46:46	12:51:44	297437	5.0.10.0	4_exp_AMP_EVA_AWA_CON	152	Rpleas_acq	Oppo	Rpleas	Bmasked	CS_B	2pleas	distractor1	EVAbeforeCON	acq_US_unple_masked	acq2_masked	2	23	480	0	300	300	0	0	3805	50	0	0	0	0	0	1	blank2r.bmp	0	1	+	0	5	C1r.bmp	492	1	blank2r.bmp	786	1	BMVZ	786	1	blank2r.bmp	866	6	hindern	866	1	FEHLER	5011	1	!	1319	1	!	-1	0	0	0	0	0	0	0	0	0	0	0	0	0	0	0	0	0	0	0	0	0	0	0	0
030719	12:46:46	12:51:47	299756	5.0.10.0	4_exp_AMP_EVA_AWA_CON	152	Rpleas_acq	Oppo	Rpleas	Bmasked	CS_B	2pleas	distractor1	EVAbeforeCON	acq_new_unple_masked	acq2_masked	2	24	480	1	300	300	0	0	523	50	0	0	0	0	0	1	blank2r.bmp	0	1	+	0	1	B1r.bmp	492	1	blank2r.bmp	786	8	C4r.bmp	786	1	blank2r.bmp	866	5	leiden	866	1	FEHLER	1745	1	!	1319	1	!	1426	0	0	0	0	0	0	0	0	0	0	0	0	0	0	0	0	0	0	0	0	0	0	0	0
030719	12:46:46	12:51:49	302008	5.0.10.0	4_exp_AMP_EVA_AWA_CON	152	Rpleas_acq	Oppo	Rpleas	Bmasked	CS_B	2pleas	distractor1	EVAbeforeCON	acq_new_pleas_masked	acq2_masked	2	25	480	1	300	300	0	0	463	46	0	0	0	0	0	1	blank2r.bmp	0	1	+	0	8	C4r.bmp	492	1	blank2r.bmp	786	1	B1r.bmp	786	1	blank2r.bmp	866	6	freundlich	866	1	FEHLER	1679	1	!	1319	1	!	1359	0	0	0	0	0	0	0	0	0	0	0	0	0	0	0	0	0	0	0	0	0	0	0	0
030719	12:46:46	12:51:51	304047	5.0.10.0	4_exp_AMP_EVA_AWA_CON	152	Rpleas_acq	Oppo	Rpleas	Bmasked	CS_B	2pleas	distractor1	EVAbeforeCON	acq_US_unple_masked	acq2_masked	2	26	480	1	300	300	0	0	458	46	0	1	0	0	0	1	blank2r.bmp	0	1	+	0	4	B4r.bmp	492	1	blank2r.bmp	786	1	BMVZ	786	1	blank2r.bmp	866	3	schroff	866	1	!	1319	1	!	1359	0	0	0	0	0	0	0	0	0	0	0	0	0	0	0	0	0	0	0	0	0	0	0	0	0	0	0
030719	12:46:46	12:51:54	306553	5.0.10.0	4_exp_AMP_EVA_AWA_CON	152	Rpleas_acq	Oppo	Rpleas	Bmasked	CS_B	2pleas	distractor1	EVAbeforeCON	acq_new_pleas_masked	acq2_masked	2	27	480	0	300	300	0	0	733	50	0	1	0	0	0	1	blank2r.bmp	0	1	+	0	6	C2r.bmp	492	1	blank2r.bmp	786	7	C3r.bmp	786	1	blank2r.bmp	866	5	lachen	866	1	!	1319	1	!	-1	0	0	0	0	0	0	0	0	0	0	0	0	0	0	0	0	0	0	0	0	0	0	0	0	0	0	0
030719	12:46:46	12:51:56	309045	5.0.10.0	4_exp_AMP_EVA_AWA_CON	152	Rpleas_acq	Oppo	Rpleas	Bmasked	CS_B	2pleas	distractor1	EVAbeforeCON	acq_US_pleas_masked	acq2_masked	2	28	480	1	300	300	0	0	468	46	0	0	0	0	0	1	blank2r.bmp	0	1	+	0	2	B2r.bmp	492	1	blank2r.bmp	786	1	GKQX	786	1	blank2r.bmp	866	5	fair	866	1	FEHLER	1692	1	!	1319	1	!	1372	0	0	0	0	0	0	0	0	0	0	0	0	0	0	0	0	0	0	0	0	0	0	0	0
030719	12:46:46	12:51:58	311311	5.0.10.0	4_exp_AMP_EVA_AWA_CON	152	Rpleas_acq	Oppo	Rpleas	Bmasked	CS_B	2pleas	distractor1	EVAbeforeCON	acq_US_unple_masked	acq2_masked	2	29	480	0	300	300	0	0	705	46	0	1	0	0	0	1	blank2r.bmp	0	1	+	0	4	B4r.bmp	492	1	blank2r.bmp	786	1	BMVZ	786	1	blank2r.bmp	866	2	rächen	866	1	!	1319	1	!	-1	0	0	0	0	0	0	0	0	0	0	0	0	0	0	0	0	0	0	0	0	0	0	0	0	0	0	0
030719	12:46:46	12:52:01	313710	5.0.10.0	4_exp_AMP_EVA_AWA_CON	152	Rpleas_acq	Oppo	Rpleas	Bmasked	CS_B	2pleas	distractor1	EVAbeforeCON	acq_new_unple_masked	acq2_masked	2	30	480	0	300	300	0	0	396	50	0	0	0	0	0	1	blank2r.bmp	0	1	+	0	3	B3r.bmp	492	1	blank2r.bmp	786	8	C4r.bmp	786	1	blank2r.bmp	866	3	tot	866	1	FEHLER	1599	1	!	-1	1	!	-1	0	0	0	0	0	0	0	0	0	0	0	0	0	0	0	0	0	0	0	0	0	0	0	0
030719	12:46:46	12:52:06	318748	5.0.10.0	4_exp_AMP_EVA_AWA_CON	152	Rpleas_acq	Oppo	Rpleas	Bmasked	CS_B	2pleas	distractor1	EVAbeforeCON	acq_new_unple_masked	acq2_masked	2	31	480	0	300	300	0	0	3486	46	0	1	0	0	0	1	blank2r.bmp	0	1	+	0	7	C3r.bmp	492	1	blank2r.bmp	786	5	C1r.bmp	786	1	blank2r.bmp	866	6	fanatisch	866	1	!	1319	1	!	-1	0	0	0	0	0	0	0	0	0	0	0	0	0	0	0	0	0	0	0	0	0	0	0	0	0	0	0
030719	12:46:46	12:52:08	321227	5.0.10.0	4_exp_AMP_EVA_AWA_CON	152	Rpleas_acq	Oppo	Rpleas	Bmasked	CS_B	2pleas	distractor1	EVAbeforeCON	acq_US_pleas_masked	acq2_masked	2	32	480	1	300	300	0	0	460	46	0	0	0	0	0	1	blank2r.bmp	0	1	+	0	6	C2r.bmp	492	1	blank2r.bmp	786	1	GKQX	786	1	blank2r.bmp	866	6	helfen	866	1	FEHLER	1679	1	!	1319	1	!	1359	0	0	0	0	0	0	0	0	0	0	0	0	0	0	0	0	0	0	0	0	0	0	0	0
030719	12:46:46	12:52:13	325705	5.0.10.0	4_exp_AMP_EVA_AWA_CON	152	Rpleas_acq	Oppo	Rpleas	Bmasked	CS_B	2pleas	distractor1	EVAbeforeCON	acq_new_pleas_masked	acq2_masked	2	33	480	0	300	300	0	0	2698	46	0	0	0	0	0	1	blank2r.bmp	0	1	+	0	2	B2r.bmp	492	1	blank2r.bmp	786	3	B3r.bmp	786	1	blank2r.bmp	866	1	tolerant	866	1	FEHLER	3905	1	!	1319	1	!	-1	0	0	0	0	0	0	0	0	0	0	0	0	0	0	0	0	0	0	0	0	0	0	0	0
030719	12:46:46	12:52:15	327891	5.0.10.0	4_exp_AMP_EVA_AWA_CON	152	Rpleas_acq	Oppo	Rpleas	Bmasked	CS_B	2pleas	distractor1	EVAbeforeCON	acq_new_unple_masked	acq2_masked	2	34	480	0	300	300	0	0	404	50	0	0	0	0	0	1	blank2r.bmp	0	1	+	0	5	C1r.bmp	492	1	blank2r.bmp	786	1	B1r.bmp	786	1	blank2r.bmp	866	4	schlecht	866	1	FEHLER	1612	1	!	-1	1	!	-1	0	0	0	0	0	0	0	0	0	0	0	0	0	0	0	0	0	0	0	0	0	0	0	0
030719	12:46:46	12:52:17	330117	5.0.10.0	4_exp_AMP_EVA_AWA_CON	152	Rpleas_acq	Oppo	Rpleas	Bmasked	CS_B	2pleas	distractor1	EVAbeforeCON	acq_US_pleas_masked	acq2_masked	2	35	480	0	300	300	0	0	669	50	0	1	0	0	0	1	blank2r.bmp	0	1	+	0	1	B1r.bmp	492	1	blank2r.bmp	786	1	GKQX	786	1	blank2r.bmp	866	3	schlau	866	1	!	1319	1	!	-1	0	0	0	0	0	0	0	0	0	0	0	0	0	0	0	0	0	0	0	0	0	0	0	0	0	0	0
030719	12:46:46	12:52:19	332369	5.0.10.0	4_exp_AMP_EVA_AWA_CON	152	Rpleas_acq	Oppo	Rpleas	Bmasked	CS_B	2pleas	distractor1	EVAbeforeCON	acq_US_unple_masked	acq2_masked	2	36	480	1	300	300	0	0	446	46	0	1	0	0	0	1	blank2r.bmp	0	1	+	0	8	C4r.bmp	492	1	blank2r.bmp	786	1	BMVZ	786	1	blank2r.bmp	866	5	faul	866	1	!	1319	1	!	1346	0	0	0	0	0	0	0	0	0	0	0	0	0	0	0	0	0	0	0	0	0	0	0	0	0	0	0
030719	12:46:46	12:52:42	354973	5.0.10.0	4_exp_AMP_EVA_AWA_CON	152	Rpleas_acq	Oppo	Rpleas	Bmasked	CS_B	2pleas	distractor1	EVAbeforeCON	acq_US_pleas_masked	acq3_masked	3	1	453	1	300	300	0	0	424	50	0	1	0	0	0	1	blank2r.bmp	0	1	+	0	3	B3r.bmp	492	1	blank2r.bmp	786	1	GKQX	786	1	blank2r.bmp	866	1	spielen	866	1	!	1292	1	!	1319	0	0	0	0	0	0	0	0	0	0	0	0	0	0	0	0	0	0	0	0	0	0	0	0	0	0	0
030719	12:46:46	12:52:44	357292	5.0.10.0	4_exp_AMP_EVA_AWA_CON	152	Rpleas_acq	Oppo	Rpleas	Bmasked	CS_B	2pleas	distractor1	EVAbeforeCON	acq_US_pleas_masked	acq3_masked	3	2	453	0	300	300	0	0	329	46	0	0	0	0	0	1	blank2r.bmp	0	1	+	0	2	B2r.bmp	492	1	blank2r.bmp	786	1	GKQX	786	1	blank2r.bmp	866	4	ehrlich	866	1	FEHLER	1532	1	!	-1	1	!	-1	0	0	0	0	0	0	0	0	0	0	0	0	0	0	0	0	0	0	0	0	0	0	0	0
030719	12:46:46	12:52:47	359545	5.0.10.0	4_exp_AMP_EVA_AWA_CON	152	Rpleas_acq	Oppo	Rpleas	Bmasked	CS_B	2pleas	distractor1	EVAbeforeCON	acq_US_pleas_masked	acq3_masked	3	3	453	0	300	300	0	0	694	50	0	1	0	0	0	1	blank2r.bmp	0	1	+	0	7	C3r.bmp	492	1	blank2r.bmp	786	1	GKQX	786	1	blank2r.bmp	866	6	helfen	866	1	!	1292	1	!	-1	0	0	0	0	0	0	0	0	0	0	0	0	0	0	0	0	0	0	0	0	0	0	0	0	0	0	0
030719	12:46:46	12:52:49	361850	5.0.10.0	4_exp_AMP_EVA_AWA_CON	152	Rpleas_acq	Oppo	Rpleas	Bmasked	CS_B	2pleas	distractor1	EVAbeforeCON	acq_US_unple_masked	acq3_masked	3	4	453	0	300	300	0	0	307	50	0	0	0	0	0	1	blank2r.bmp	0	1	+	0	6	C2r.bmp	492	1	blank2r.bmp	786	1	BMVZ	786	1	blank2r.bmp	866	6	hindern	866	1	FEHLER	1519	1	!	-1	1	!	-1	0	0	0	0	0	0	0	0	0	0	0	0	0	0	0	0	0	0	0	0	0	0	0	0
030719	12:46:46	12:52:51	364183	5.0.10.0	4_exp_AMP_EVA_AWA_CON	152	Rpleas_acq	Oppo	Rpleas	Bmasked	CS_B	2pleas	distractor1	EVAbeforeCON	acq_US_unple_masked	acq3_masked	3	5	453	0	300	300	0	0	532	50	0	0	0	0	0	1	blank2r.bmp	0	1	+	0	5	C1r.bmp	492	1	blank2r.bmp	786	1	BMVZ	786	1	blank2r.bmp	866	2	rächen	866	1	FEHLER	1745	1	!	1292	1	!	-1	0	0	0	0	0	0	0	0	0	0	0	0	0	0	0	0	0	0	0	0	0	0	0	0
030719	12:46:46	12:52:53	366262	5.0.10.0	4_exp_AMP_EVA_AWA_CON	152	Rpleas_acq	Oppo	Rpleas	Bmasked	CS_B	2pleas	distractor1	EVAbeforeCON	acq_US_unple_masked	acq3_masked	3	6	453	0	300	300	0	0	284	50	0	0	0	0	0	1	blank2r.bmp	0	1	+	0	8	C4r.bmp	492	1	blank2r.bmp	786	1	BMVZ	786	1	blank2r.bmp	866	1	strafen	866	1	FEHLER	1492	1	!	-1	1	!	-1	0	0	0	0	0	0	0	0	0	0	0	0	0	0	0	0	0	0	0	0	0	0	0	0
030719	12:46:46	12:52:55	368354	5.0.10.0	4_exp_AMP_EVA_AWA_CON	152	Rpleas_acq	Oppo	Rpleas	Bmasked	CS_B	2pleas	distractor1	EVAbeforeCON	acq_US_unple_masked	acq3_masked	3	7	453	0	300	300	0	0	308	50	0	0	0	0	0	1	blank2r.bmp	0	1	+	0	1	B1r.bmp	492	1	blank2r.bmp	786	1	BMVZ	786	1	blank2r.bmp	866	3	schroff	866	1	FEHLER	1519	1	!	-1	1	!	-1	0	0	0	0	0	0	0	0	0	0	0	0	0	0	0	0	0	0	0	0	0	0	0	0
030719	12:46:46	12:52:58	370553	5.0.10.0	4_exp_AMP_EVA_AWA_CON	152	Rpleas_acq	Oppo	Rpleas	Bmasked	CS_B	2pleas	distractor1	EVAbeforeCON	acq_US_pleas_masked	acq3_masked	3	8	453	0	300	300	0	0	641	50	0	1	0	0	0	1	blank2r.bmp	0	1	+	0	4	B4r.bmp	492	1	blank2r.bmp	786	1	GKQX	786	1	blank2r.bmp	866	3	schlau	866	1	!	1292	1	!	-1	0	0	0	0	0	0	0	0	0	0	0	0	0	0	0	0	0	0	0	0	0	0	0	0	0	0	0
030719	12:46:46	12:53:00	373032	5.0.10.0	4_exp_AMP_EVA_AWA_CON	152	Rpleas_acq	Oppo	Rpleas	Bmasked	CS_B	2pleas	distractor1	EVAbeforeCON	acq_US_pleas_masked	acq3_masked	3	9	453	1	300	300	0	0	447	46	0	0	0	0	0	1	blank2r.bmp	0	1	+	0	4	B4r.bmp	492	1	blank2r.bmp	786	1	GKQX	786	1	blank2r.bmp	866	5	fair	866	1	FEHLER	1665	1	!	1292	1	!	1346	0	0	0	0	0	0	0	0	0	0	0	0	0	0	0	0	0	0	0	0	0	0	0	0
030719	12:46:46	12:53:02	375058	5.0.10.0	4_exp_AMP_EVA_AWA_CON	152	Rpleas_acq	Oppo	Rpleas	Bmasked	CS_B	2pleas	distractor1	EVAbeforeCON	acq_US_unple_masked	acq3_masked	3	10	453	1	300	300	0	0	442	46	0	1	0	0	0	1	blank2r.bmp	0	1	+	0	5	C1r.bmp	492	1	blank2r.bmp	786	1	BMVZ	786	1	blank2r.bmp	866	4	eitel	866	1	!	1292	1	!	1346	0	0	0	0	0	0	0	0	0	0	0	0	0	0	0	0	0	0	0	0	0	0	0	0	0	0	0
030719	12:46:46	12:53:04	377404	5.0.10.0	4_exp_AMP_EVA_AWA_CON	152	Rpleas_acq	Oppo	Rpleas	Bmasked	CS_B	2pleas	distractor1	EVAbeforeCON	acq_US_unple_masked	acq3_masked	3	11	453	0	300	300	0	0	357	50	0	0	0	0	0	1	blank2r.bmp	0	1	+	0	3	B3r.bmp	492	1	blank2r.bmp	786	1	BMVZ	786	1	blank2r.bmp	866	5	faul	866	1	FEHLER	1559	1	!	-1	1	!	-1	0	0	0	0	0	0	0	0	0	0	0	0	0	0	0	0	0	0	0	0	0	0	0	0
030719	12:46:46	12:53:07	379483	5.0.10.0	4_exp_AMP_EVA_AWA_CON	152	Rpleas_acq	Oppo	Rpleas	Bmasked	CS_B	2pleas	distractor1	EVAbeforeCON	acq_US_pleas_masked	acq3_masked	3	12	453	1	300	300	0	0	501	50	0	1	0	0	0	1	blank2r.bmp	0	1	+	0	8	C4r.bmp	492	1	blank2r.bmp	786	1	GKQX	786	1	blank2r.bmp	866	2	retten	866	1	!	1292	1	!	1399	0	0	0	0	0	0	0	0	0	0	0	0	0	0	0	0	0	0	0	0	0	0	0	0	0	0	0
030719	12:46:46	12:53:09	381562	5.0.10.0	4_exp_AMP_EVA_AWA_CON	152	Rpleas_acq	Oppo	Rpleas	Bmasked	CS_B	2pleas	distractor1	EVAbeforeCON	acq_US_unple_masked	acq3_masked	3	13	453	0	300	300	0	0	314	46	0	1	0	0	0	1	blank2r.bmp	0	1	+	0	6	C2r.bmp	492	1	blank2r.bmp	786	1	BMVZ	786	1	blank2r.bmp	866	6	hindern	866	1	!	-1	1	!	-1	0	0	0	0	0	0	0	0	0	0	0	0	0	0	0	0	0	0	0	0	0	0	0	0	0	0	0
030719	12:46:46	12:53:11	383841	5.0.10.0	4_exp_AMP_EVA_AWA_CON	152	Rpleas_acq	Oppo	Rpleas	Bmasked	CS_B	2pleas	distractor1	EVAbeforeCON	acq_US_unple_masked	acq3_masked	3	14	453	1	300	300	0	0	465	46	0	1	0	0	0	1	blank2r.bmp	0	1	+	0	7	C3r.bmp	492	1	blank2r.bmp	786	1	BMVZ	786	1	blank2r.bmp	866	3	schroff	866	1	!	1292	1	!	1372	0	0	0	0	0	0	0	0	0	0	0	0	0	0	0	0	0	0	0	0	0	0	0	0	0	0	0
030719	12:46:46	12:53:13	386240	5.0.10.0	4_exp_AMP_EVA_AWA_CON	152	Rpleas_acq	Oppo	Rpleas	Bmasked	CS_B	2pleas	distractor1	EVAbeforeCON	acq_US_unple_masked	acq3_masked	3	15	453	0	300	300	0	0	624	46	0	1	0	0	0	1	blank2r.bmp	0	1	+	0	1	B1r.bmp	492	1	blank2r.bmp	786	1	BMVZ	786	1	blank2r.bmp	866	5	faul	866	1	!	1292	1	!	-1	0	0	0	0	0	0	0	0	0	0	0	0	0	0	0	0	0	0	0	0	0	0	0	0	0	0	0
030719	12:46:46	12:53:16	388546	5.0.10.0	4_exp_AMP_EVA_AWA_CON	152	Rpleas_acq	Oppo	Rpleas	Bmasked	CS_B	2pleas	distractor1	EVAbeforeCON	acq_US_pleas_masked	acq3_masked	3	16	453	0	300	300	0	0	303	46	0	0	0	0	0	1	blank2r.bmp	0	1	+	0	2	B2r.bmp	492	1	blank2r.bmp	786	1	GKQX	786	1	blank2r.bmp	866	2	retten	866	1	FEHLER	1506	1	!	-1	1	!	-1	0	0	0	0	0	0	0	0	0	0	0	0	0	0	0	0	0	0	0	0	0	0	0	0
030719	12:46:46	12:53:18	390639	5.0.10.0	4_exp_AMP_EVA_AWA_CON	152	Rpleas_acq	Oppo	Rpleas	Bmasked	CS_B	2pleas	distractor1	EVAbeforeCON	acq_US_unple_masked	acq3_masked	3	17	453	0	300	300	0	0	541	46	0	1	0	0	0	1	blank2r.bmp	0	1	+	0	5	C1r.bmp	492	1	blank2r.bmp	786	1	BMVZ	786	1	blank2r.bmp	866	2	rächen	866	1	!	1292	1	!	-1	0	0	0	0	0	0	0	0	0	0	0	0	0	0	0	0	0	0	0	0	0	0	0	0	0	0	0
030719	12:46:46	12:53:20	392958	5.0.10.0	4_exp_AMP_EVA_AWA_CON	152	Rpleas_acq	Oppo	Rpleas	Bmasked	CS_B	2pleas	distractor1	EVAbeforeCON	acq_US_unple_masked	acq3_masked	3	18	453	0	300	300	0	0	306	50	0	0	0	0	0	1	blank2r.bmp	0	1	+	0	8	C4r.bmp	492	1	blank2r.bmp	786	1	BMVZ	786	1	blank2r.bmp	866	1	strafen	866	1	FEHLER	1519	1	!	-1	1	!	-1	0	0	0	0	0	0	0	0	0	0	0	0	0	0	0	0	0	0	0	0	0	0	0	0
030719	12:46:46	12:53:22	395143	5.0.10.0	4_exp_AMP_EVA_AWA_CON	152	Rpleas_acq	Oppo	Rpleas	Bmasked	CS_B	2pleas	distractor1	EVAbeforeCON	acq_US_pleas_masked	acq3_masked	3	19	453	0	300	300	0	0	626	50	0	1	0	0	0	1	blank2r.bmp	0	1	+	0	2	B2r.bmp	492	1	blank2r.bmp	786	1	GKQX	786	1	blank2r.bmp	866	3	schlau	866	1	!	1292	1	!	-1	0	0	0	0	0	0	0	0	0	0	0	0	0	0	0	0	0	0	0	0	0	0	0	0	0	0	0
030719	12:46:46	12:53:25	397649	5.0.10.0	4_exp_AMP_EVA_AWA_CON	152	Rpleas_acq	Oppo	Rpleas	Bmasked	CS_B	2pleas	distractor1	EVAbeforeCON	acq_US_unple_masked	acq3_masked	3	20	453	1	300	300	0	0	487	50	0	0	0	0	0	1	blank2r.bmp	0	1	+	0	1	B1r.bmp	492	1	blank2r.bmp	786	1	BMVZ	786	1	blank2r.bmp	866	4	eitel	866	1	FEHLER	1705	1	!	1292	1	!	1386	0	0	0	0	0	0	0	0	0	0	0	0	0	0	0	0	0	0	0	0	0	0	0	0
030719	12:46:46	12:53:27	399728	5.0.10.0	4_exp_AMP_EVA_AWA_CON	152	Rpleas_acq	Oppo	Rpleas	Bmasked	CS_B	2pleas	distractor1	EVAbeforeCON	acq_US_pleas_masked	acq3_masked	3	21	453	1	300	300	0	0	494	50	0	1	0	0	0	1	blank2r.bmp	0	1	+	0	6	C2r.bmp	492	1	blank2r.bmp	786	1	GKQX	786	1	blank2r.bmp	866	6	helfen	866	1	!	1292	1	!	1399	0	0	0	0	0	0	0	0	0	0	0	0	0	0	0	0	0	0	0	0	0	0	0	0	0	0	0
030719	12:46:46	12:53:29	402034	5.0.10.0	4_exp_AMP_EVA_AWA_CON	152	Rpleas_acq	Oppo	Rpleas	Bmasked	CS_B	2pleas	distractor1	EVAbeforeCON	acq_US_pleas_masked	acq3_masked	3	22	453	0	300	300	0	0	543	50	0	1	0	0	0	1	blank2r.bmp	0	1	+	0	4	B4r.bmp	492	1	blank2r.bmp	786	1	GKQX	786	1	blank2r.bmp	866	4	ehrlich	866	1	!	1292	1	!	-1	0	0	0	0	0	0	0	0	0	0	0	0	0	0	0	0	0	0	0	0	0	0	0	0	0	0	0
030719	12:46:46	12:53:31	404420	5.0.10.0	4_exp_AMP_EVA_AWA_CON	152	Rpleas_acq	Oppo	Rpleas	Bmasked	CS_B	2pleas	distractor1	EVAbeforeCON	acq_US_pleas_masked	acq3_masked	3	23	453	0	300	300	0	0	365	46	0	0	0	0	0	1	blank2r.bmp	0	1	+	0	3	B3r.bmp	492	1	blank2r.bmp	786	1	GKQX	786	1	blank2r.bmp	866	1	spielen	866	1	FEHLER	1572	1	!	-1	1	!	-1	0	0	0	0	0	0	0	0	0	0	0	0	0	0	0	0	0	0	0	0	0	0	0	0
030719	12:46:46	12:53:34	406525	5.0.10.0	4_exp_AMP_EVA_AWA_CON	152	Rpleas_acq	Oppo	Rpleas	Bmasked	CS_B	2pleas	distractor1	EVAbeforeCON	acq_US_pleas_masked	acq3_masked	3	24	453	0	300	300	0	0	550	50	0	1	0	0	0	1	blank2r.bmp	0	1	+	0	7	C3r.bmp	492	1	blank2r.bmp	786	1	GKQX	786	1	blank2r.bmp	866	5	fair	866	1	!	1292	1	!	-1	0	0	0	0	0	0	0	0	0	0	0	0	0	0	0	0	0	0	0	0	0	0	0	0	0	0	0
030719	12:46:46	12:53:36	408551	5.0.10.0	4_exp_AMP_EVA_AWA_CON	152	Rpleas_acq	Oppo	Rpleas	Bmasked	CS_B	2pleas	distractor1	EVAbeforeCON	acq_US_pleas_masked	acq3_masked	3	25	453	0	300	300	0	0	239	50	0	1	0	0	0	1	blank2r.bmp	0	1	+	0	6	C2r.bmp	492	1	blank2r.bmp	786	1	GKQX	786	1	blank2r.bmp	866	6	helfen	866	1	!	-1	1	!	-1	0	0	0	0	0	0	0	0	0	0	0	0	0	0	0	0	0	0	0	0	0	0	0	0	0	0	0
030719	12:46:46	12:53:38	410630	5.0.10.0	4_exp_AMP_EVA_AWA_CON	152	Rpleas_acq	Oppo	Rpleas	Bmasked	CS_B	2pleas	distractor1	EVAbeforeCON	acq_US_pleas_masked	acq3_masked	3	26	453	0	300	300	0	0	296	50	0	1	0	0	0	1	blank2r.bmp	0	1	+	0	8	C4r.bmp	492	1	blank2r.bmp	786	1	GKQX	786	1	blank2r.bmp	866	5	fair	866	1	!	-1	1	!	-1	0	0	0	0	0	0	0	0	0	0	0	0	0	0	0	0	0	0	0	0	0	0	0	0	0	0	0
030719	12:46:46	12:53:44	416681	5.0.10.0	4_exp_AMP_EVA_AWA_CON	152	Rpleas_acq	Oppo	Rpleas	Bmasked	CS_B	2pleas	distractor1	EVAbeforeCON	acq_US_unple_masked	acq3_masked	3	27	453	0	300	300	0	0	4024	50	0	0	0	0	0	1	blank2r.bmp	0	1	+	0	7	C3r.bmp	492	1	blank2r.bmp	786	1	BMVZ	786	1	blank2r.bmp	866	2	rächen	866	1	FEHLER	5237	1	!	1292	1	!	-1	0	0	0	0	0	0	0	0	0	0	0	0	0	0	0	0	0	0	0	0	0	0	0	0
030719	12:46:46	12:53:46	418774	5.0.10.0	4_exp_AMP_EVA_AWA_CON	152	Rpleas_acq	Oppo	Rpleas	Bmasked	CS_B	2pleas	distractor1	EVAbeforeCON	acq_US_unple_masked	acq3_masked	3	28	453	0	300	300	0	0	309	50	0	0	0	0	0	1	blank2r.bmp	0	1	+	0	5	C1r.bmp	492	1	blank2r.bmp	786	1	BMVZ	786	1	blank2r.bmp	866	1	strafen	866	1	FEHLER	1519	1	!	-1	1	!	-1	0	0	0	0	0	0	0	0	0	0	0	0	0	0	0	0	0	0	0	0	0	0	0	0
030719	12:46:46	12:53:48	420933	5.0.10.0	4_exp_AMP_EVA_AWA_CON	152	Rpleas_acq	Oppo	Rpleas	Bmasked	CS_B	2pleas	distractor1	EVAbeforeCON	acq_US_pleas_masked	acq3_masked	3	29	453	0	300	300	0	0	601	50	0	1	0	0	0	1	blank2r.bmp	0	1	+	0	3	B3r.bmp	492	1	blank2r.bmp	786	1	GKQX	786	1	blank2r.bmp	866	1	spielen	866	1	!	1292	1	!	-1	0	0	0	0	0	0	0	0	0	0	0	0	0	0	0	0	0	0	0	0	0	0	0	0	0	0	0
030719	12:46:46	12:53:50	423145	5.0.10.0	4_exp_AMP_EVA_AWA_CON	152	Rpleas_acq	Oppo	Rpleas	Bmasked	CS_B	2pleas	distractor1	EVAbeforeCON	acq_US_unple_masked	acq3_masked	3	30	453	1	300	300	0	0	399	46	0	1	0	0	0	1	blank2r.bmp	0	1	+	0	2	B2r.bmp	492	1	blank2r.bmp	786	1	BMVZ	786	1	blank2r.bmp	866	4	eitel	866	1	!	1292	1	!	1306	0	0	0	0	0	0	0	0	0	0	0	0	0	0	0	0	0	0	0	0	0	0	0	0	0	0	0
030719	12:46:46	12:53:52	425384	5.0.10.0	4_exp_AMP_EVA_AWA_CON	152	Rpleas_acq	Oppo	Rpleas	Bmasked	CS_B	2pleas	distractor1	EVAbeforeCON	acq_US_pleas_masked	acq3_masked	3	31	453	1	300	300	0	0	447	50	0	1	0	0	0	1	blank2r.bmp	0	1	+	0	4	B4r.bmp	492	1	blank2r.bmp	786	1	GKQX	786	1	blank2r.bmp	866	2	retten	866	1	!	1292	1	!	1346	0	0	0	0	0	0	0	0	0	0	0	0	0	0	0	0	0	0	0	0	0	0	0	0	0	0	0
030719	12:46:46	12:53:55	427703	5.0.10.0	4_exp_AMP_EVA_AWA_CON	152	Rpleas_acq	Oppo	Rpleas	Bmasked	CS_B	2pleas	distractor1	EVAbeforeCON	acq_US_pleas_masked	acq3_masked	3	32	453	0	300	300	0	0	545	50	0	1	0	0	0	1	blank2r.bmp	0	1	+	0	1	B1r.bmp	492	1	blank2r.bmp	786	1	GKQX	786	1	blank2r.bmp	866	4	ehrlich	866	1	!	1292	1	!	-1	0	0	0	0	0	0	0	0	0	0	0	0	0	0	0	0	0	0	0	0	0	0	0	0	0	0	0
030719	12:46:46	12:53:57	429956	5.0.10.0	4_exp_AMP_EVA_AWA_CON	152	Rpleas_acq	Oppo	Rpleas	Bmasked	CS_B	2pleas	distractor1	EVAbeforeCON	acq_US_unple_masked	acq3_masked	3	33	453	1	300	300	0	0	439	46	0	1	0	0	0	1	blank2r.bmp	0	1	+	0	6	C2r.bmp	492	1	blank2r.bmp	786	1	BMVZ	786	1	blank2r.bmp	866	3	schroff	866	1	!	1292	1	!	1346	0	0	0	0	0	0	0	0	0	0	0	0	0	0	0	0	0	0	0	0	0	0	0	0	0	0	0
030719	12:46:46	12:53:59	432261	5.0.10.0	4_exp_AMP_EVA_AWA_CON	152	Rpleas_acq	Oppo	Rpleas	Bmasked	CS_B	2pleas	distractor1	EVAbeforeCON	acq_US_unple_masked	acq3_masked	3	34	453	0	300	300	0	0	299	50	0	0	0	0	0	1	blank2r.bmp	0	1	+	0	1	B1r.bmp	492	1	blank2r.bmp	786	1	BMVZ	786	1	blank2r.bmp	866	5	faul	866	1	FEHLER	1506	1	!	-1	1	!	-1	0	0	0	0	0	0	0	0	0	0	0	0	0	0	0	0	0	0	0	0	0	0	0	0
030719	12:46:46	12:54:01	434381	5.0.10.0	4_exp_AMP_EVA_AWA_CON	152	Rpleas_acq	Oppo	Rpleas	Bmasked	CS_B	2pleas	distractor1	EVAbeforeCON	acq_US_pleas_masked	acq3_masked	3	35	453	0	300	300	0	0	344	46	0	0	0	0	0	1	blank2r.bmp	0	1	+	0	3	B3r.bmp	492	1	blank2r.bmp	786	1	GKQX	786	1	blank2r.bmp	866	3	schlau	866	1	FEHLER	1546	1	!	-1	1	!	-1	0	0	0	0	0	0	0	0	0	0	0	0	0	0	0	0	0	0	0	0	0	0	0	0
030719	12:46:46	12:54:04	436580	5.0.10.0	4_exp_AMP_EVA_AWA_CON	152	Rpleas_acq	Oppo	Rpleas	Bmasked	CS_B	2pleas	distractor1	EVAbeforeCON	acq_US_unple_masked	acq3_masked	3	36	453	0	300	300	0	0	634	46	0	1	0	0	0	1	blank2r.bmp	0	1	+	0	8	C4r.bmp	492	1	blank2r.bmp	786	1	BMVZ	786	1	blank2r.bmp	866	6	hindern	866	1	!	1292	1	!	-1	0	0	0	0	0	0	0	0	0	0	0	0	0	0	0	0	0	0	0	0	0	0	0	0	0	0	0
030719	12:46:46	12:54:19	451480	5.0.10.0	4_exp_AMP_EVA_AWA_CON	152	Rpleas_acq	Oppo	Rpleas	Bmasked	CS_B	2pleas	distractor1	EVAbeforeCON	acq_US_unple_masked	acq45_masked	4	1	400	0	300	300	0	0	488	50	0	0	0	0	0	1	blank2r.bmp	0	1	+	0	7	C3r.bmp	492	1	blank2r.bmp	786	1	BMVZ	786	1	blank2r.bmp	866	4	eitel	866	1	!	1239	1	!	-1	0	0	0	0	0	0	0	0	0	0	0	0	0	0	0	0	0	0	0	0	0	0	0	0	0	0	0
030719	12:46:46	12:54:21	453759	5.0.10.0	4_exp_AMP_EVA_AWA_CON	152	Rpleas_acq	Oppo	Rpleas	Bmasked	CS_B	2pleas	distractor1	EVAbeforeCON	acq_US_pleas_masked	acq45_masked	4	2	400	0	300	300	0	0	499	50	0	1	0	0	0	1	blank2r.bmp	0	1	+	0	4	B4r.bmp	492	1	blank2r.bmp	786	1	GKQX	786	1	blank2r.bmp	866	1	spielen	866	1	!	1239	1	!	-1	0	0	0	0	0	0	0	0	0	0	0	0	0	0	0	0	0	0	0	0	0	0	0	0	0	0	0
030719	12:46:46	12:54:23	455918	5.0.10.0	4_exp_AMP_EVA_AWA_CON	152	Rpleas_acq	Oppo	Rpleas	Bmasked	CS_B	2pleas	distractor1	EVAbeforeCON	acq_US_pleas_masked	acq45_masked	4	3	400	1	300	300	0	0	348	46	0	0	0	0	0	1	blank2r.bmp	0	1	+	0	2	B2r.bmp	492	1	blank2r.bmp	786	1	GKQX	786	1	blank2r.bmp	866	2	retten	866	1	!	1239	1	!	1252	0	0	0	0	0	0	0	0	0	0	0	0	0	0	0	0	0	0	0	0	0	0	0	0	0	0	0
030719	12:46:46	12:54:25	458077	5.0.10.0	4_exp_AMP_EVA_AWA_CON	152	Rpleas_acq	Oppo	Rpleas	Bmasked	CS_B	2pleas	distractor1	EVAbeforeCON	acq_US_unple_masked	acq45_masked	4	4	400	1	300	300	0	0	365	50	0	0	0	0	0	1	blank2r.bmp	0	1	+	0	5	C1r.bmp	492	1	blank2r.bmp	786	1	BMVZ	786	1	blank2r.bmp	866	6	hindern	866	1	!	1239	1	!	1266	0	0	0	0	0	0	0	0	0	0	0	0	0	0	0	0	0	0	0	0	0	0	0	0	0	0	0
030719	12:46:46	12:54:27	460250	5.0.10.0	4_exp_AMP_EVA_AWA_CON	152	Rpleas_acq	Oppo	Rpleas	Bmasked	CS_B	2pleas	distractor1	EVAbeforeCON	acq_US_unple_masked	acq45_masked	4	5	400	1	300	300	0	0	384	50	0	0	0	0	0	1	blank2r.bmp	0	1	+	0	7	C3r.bmp	492	1	blank2r.bmp	786	1	BMVZ	786	1	blank2r.bmp	866	2	rächen	866	1	!	1239	1	!	1279	0	0	0	0	0	0	0	0	0	0	0	0	0	0	0	0	0	0	0	0	0	0	0	0	0	0	0
030719	12:46:46	12:54:29	462356	5.0.10.0	4_exp_AMP_EVA_AWA_CON	152	Rpleas_acq	Oppo	Rpleas	Bmasked	CS_B	2pleas	distractor1	EVAbeforeCON	acq_US_pleas_masked	acq45_masked	4	6	400	0	300	300	0	0	331	46	0	0	0	0	0	1	blank2r.bmp	0	1	+	0	1	B1r.bmp	492	1	blank2r.bmp	786	1	GKQX	786	1	blank2r.bmp	866	3	schlau	866	1	!	-1	1	!	-1	0	0	0	0	0	0	0	0	0	0	0	0	0	0	0	0	0	0	0	0	0	0	0	0	0	0	0
030719	12:46:46	12:54:32	464621	5.0.10.0	4_exp_AMP_EVA_AWA_CON	152	Rpleas_acq	Oppo	Rpleas	Bmasked	CS_B	2pleas	distractor1	EVAbeforeCON	acq_US_pleas_masked	acq45_masked	4	7	400	0	300	300	0	0	480	50	0	1	0	0	0	1	blank2r.bmp	0	1	+	0	3	B3r.bmp	492	1	blank2r.bmp	786	1	GKQX	786	1	blank2r.bmp	866	6	helfen	866	1	!	1239	1	!	-1	0	0	0	0	0	0	0	0	0	0	0	0	0	0	0	0	0	0	0	0	0	0	0	0	0	0	0
030719	12:46:46	12:54:34	466687	5.0.10.0	4_exp_AMP_EVA_AWA_CON	152	Rpleas_acq	Oppo	Rpleas	Bmasked	CS_B	2pleas	distractor1	EVAbeforeCON	acq_US_pleas_masked	acq45_masked	4	8	400	0	300	300	0	0	270	50	0	1	0	0	0	1	blank2r.bmp	0	1	+	0	2	B2r.bmp	492	1	blank2r.bmp	786	1	GKQX	786	1	blank2r.bmp	866	4	ehrlich	866	1	!	-1	1	!	-1	0	0	0	0	0	0	0	0	0	0	0	0	0	0	0	0	0	0	0	0	0	0	0	0	0	0	0
030719	12:46:46	12:54:36	468966	5.0.10.0	4_exp_AMP_EVA_AWA_CON	152	Rpleas_acq	Oppo	Rpleas	Bmasked	CS_B	2pleas	distractor1	EVAbeforeCON	acq_US_pleas_masked	acq45_masked	4	9	400	0	300	300	0	0	500	50	0	1	0	0	0	1	blank2r.bmp	0	1	+	0	8	C4r.bmp	492	1	blank2r.bmp	786	1	GKQX	786	1	blank2r.bmp	866	5	fair	866	1	!	1239	1	!	-1	0	0	0	0	0	0	0	0	0	0	0	0	0	0	0	0	0	0	0	0	0	0	0	0	0	0	0
030719	12:46:46	12:54:38	471152	5.0.10.0	4_exp_AMP_EVA_AWA_CON	152	Rpleas_acq	Oppo	Rpleas	Bmasked	CS_B	2pleas	distractor1	EVAbeforeCON	acq_US_unple_masked	acq45_masked	4	10	400	1	300	300	0	0	383	50	0	0	0	0	0	1	blank2r.bmp	0	1	+	0	5	C1r.bmp	492	1	blank2r.bmp	786	1	BMVZ	786	1	blank2r.bmp	866	1	strafen	866	1	!	1239	1	!	1279	0	0	0	0	0	0	0	0	0	0	0	0	0	0	0	0	0	0	0	0	0	0	0	0	0	0	0
030719	12:46:46	12:54:40	473471	5.0.10.0	4_exp_AMP_EVA_AWA_CON	152	Rpleas_acq	Oppo	Rpleas	Bmasked	CS_B	2pleas	distractor1	EVAbeforeCON	acq_US_unple_masked	acq45_masked	4	11	400	0	300	300	0	0	548	46	0	1	0	0	0	1	blank2r.bmp	0	1	+	0	6	C2r.bmp	492	1	blank2r.bmp	786	1	BMVZ	786	1	blank2r.bmp	866	3	schroff	866	1	!	1239	1	!	-1	0	0	0	0	0	0	0	0	0	0	0	0	0	0	0	0	0	0	0	0	0	0	0	0	0	0	0
030719	12:46:46	12:54:43	475670	5.0.10.0	4_exp_AMP_EVA_AWA_CON	152	Rpleas_acq	Oppo	Rpleas	Bmasked	CS_B	2pleas	distractor1	EVAbeforeCON	acq_US_unple_masked	acq45_masked	4	12	400	1	300	300	0	0	387	46	0	1	0	0	0	1	blank2r.bmp	0	1	+	0	4	B4r.bmp	492	1	blank2r.bmp	786	1	BMVZ	786	1	blank2r.bmp	866	5	faul	866	1	!	1239	1	!	1292	0	0	0	0	0	0	0	0	0	0	0	0	0	0	0	0	0	0	0	0	0	0	0	0	0	0	0
030719	12:46:46	12:54:45	477856	5.0.10.0	4_exp_AMP_EVA_AWA_CON	152	Rpleas_acq	Oppo	Rpleas	Bmasked	CS_B	2pleas	distractor1	EVAbeforeCON	acq_US_unple_masked	acq45_masked	4	13	400	1	300	300	0	0	394	50	0	0	0	0	0	1	blank2r.bmp	0	1	+	0	8	C4r.bmp	492	1	blank2r.bmp	786	1	BMVZ	786	1	blank2r.bmp	866	4	eitel	866	1	!	1239	1	!	1292	0	0	0	0	0	0	0	0	0	0	0	0	0	0	0	0	0	0	0	0	0	0	0	0	0	0	0
030719	12:46:46	12:54:47	480095	5.0.10.0	4_exp_AMP_EVA_AWA_CON	152	Rpleas_acq	Oppo	Rpleas	Bmasked	CS_B	2pleas	distractor1	EVAbeforeCON	acq_US_pleas_masked	acq45_masked	4	14	400	1	300	300	0	0	441	46	0	0	0	0	0	1	blank2r.bmp	0	1	+	0	2	B2r.bmp	492	1	blank2r.bmp	786	1	GKQX	786	1	blank2r.bmp	866	5	fair	866	1	!	1239	1	!	1346	0	0	0	0	0	0	0	0	0	0	0	0	0	0	0	0	0	0	0	0	0	0	0	0	0	0	0
030719	12:46:46	12:54:49	482361	5.0.10.0	4_exp_AMP_EVA_AWA_CON	152	Rpleas_acq	Oppo	Rpleas	Bmasked	CS_B	2pleas	distractor1	EVAbeforeCON	acq_US_pleas_masked	acq45_masked	4	15	400	1	300	300	0	0	454	50	0	1	0	0	0	1	blank2r.bmp	0	1	+	0	1	B1r.bmp	492	1	blank2r.bmp	786	1	GKQX	786	1	blank2r.bmp	866	3	schlau	866	1	!	1239	1	!	1359	0	0	0	0	0	0	0	0	0	0	0	0	0	0	0	0	0	0	0	0	0	0	0	0	0	0	0
030719	12:46:46	12:54:51	484440	5.0.10.0	4_exp_AMP_EVA_AWA_CON	152	Rpleas_acq	Oppo	Rpleas	Bmasked	CS_B	2pleas	distractor1	EVAbeforeCON	acq_US_unple_masked	acq45_masked	4	16	400	0	300	300	0	0	316	50	0	0	0	0	0	1	blank2r.bmp	0	1	+	0	4	B4r.bmp	492	1	blank2r.bmp	786	1	BMVZ	786	1	blank2r.bmp	866	3	schroff	866	1	!	-1	1	!	-1	0	0	0	0	0	0	0	0	0	0	0	0	0	0	0	0	0	0	0	0	0	0	0	0	0	0	0
030719	12:46:46	12:54:54	486692	5.0.10.0	4_exp_AMP_EVA_AWA_CON	152	Rpleas_acq	Oppo	Rpleas	Bmasked	CS_B	2pleas	distractor1	EVAbeforeCON	acq_US_unple_masked	acq45_masked	4	17	400	1	300	300	0	0	439	46	0	1	0	0	0	1	blank2r.bmp	0	1	+	0	7	C3r.bmp	492	1	blank2r.bmp	786	1	BMVZ	786	1	blank2r.bmp	866	6	hindern	866	1	!	1239	1	!	1346	0	0	0	0	0	0	0	0	0	0	0	0	0	0	0	0	0	0	0	0	0	0	0	0	0	0	0
030719	12:46:46	12:54:56	488878	5.0.10.0	4_exp_AMP_EVA_AWA_CON	152	Rpleas_acq	Oppo	Rpleas	Bmasked	CS_B	2pleas	distractor1	EVAbeforeCON	acq_US_pleas_masked	acq45_masked	4	18	400	1	300	300	0	0	376	46	0	0	0	0	0	1	blank2r.bmp	0	1	+	0	6	C2r.bmp	492	1	blank2r.bmp	786	1	GKQX	786	1	blank2r.bmp	866	1	spielen	866	1	!	1239	1	!	1279	0	0	0	0	0	0	0	0	0	0	0	0	0	0	0	0	0	0	0	0	0	0	0	0	0	0	0
030719	12:46:46	12:54:58	491051	5.0.10.0	4_exp_AMP_EVA_AWA_CON	152	Rpleas_acq	Oppo	Rpleas	Bmasked	CS_B	2pleas	distractor1	EVAbeforeCON	acq_US_pleas_masked	acq45_masked	4	19	400	1	300	300	0	0	362	50	0	1	0	0	0	1	blank2r.bmp	0	1	+	0	3	B3r.bmp	492	1	blank2r.bmp	786	1	GKQX	786	1	blank2r.bmp	866	6	helfen	866	1	!	1239	1	!	1266	0	0	0	0	0	0	0	0	0	0	0	0	0	0	0	0	0	0	0	0	0	0	0	0	0	0	0
030719	12:46:46	12:55:00	493130	5.0.10.0	4_exp_AMP_EVA_AWA_CON	152	Rpleas_acq	Oppo	Rpleas	Bmasked	CS_B	2pleas	distractor1	EVAbeforeCON	acq_US_unple_masked	acq45_masked	4	20	400	0	300	300	0	0	307	50	0	0	0	0	0	1	blank2r.bmp	0	1	+	0	5	C1r.bmp	492	1	blank2r.bmp	786	1	BMVZ	786	1	blank2r.bmp	866	1	strafen	866	1	!	-1	1	!	-1	0	0	0	0	0	0	0	0	0	0	0	0	0	0	0	0	0	0	0	0	0	0	0	0	0	0	0
030719	12:46:46	12:55:02	495395	5.0.10.0	4_exp_AMP_EVA_AWA_CON	152	Rpleas_acq	Oppo	Rpleas	Bmasked	CS_B	2pleas	distractor1	EVAbeforeCON	acq_US_unple_masked	acq45_masked	4	21	400	0	300	300	0	0	484	50	0	0	0	0	0	1	blank2r.bmp	0	1	+	0	5	C1r.bmp	492	1	blank2r.bmp	786	1	BMVZ	786	1	blank2r.bmp	866	5	faul	866	1	!	1239	1	!	-1	0	0	0	0	0	0	0	0	0	0	0	0	0	0	0	0	0	0	0	0	0	0	0	0	0	0	0
030719	12:46:46	12:55:05	497648	5.0.10.0	4_exp_AMP_EVA_AWA_CON	152	Rpleas_acq	Oppo	Rpleas	Bmasked	CS_B	2pleas	distractor1	EVAbeforeCON	acq_US_unple_masked	acq45_masked	4	22	400	1	300	300	0	0	441	50	0	0	0	0	0	1	blank2r.bmp	0	1	+	0	4	B4r.bmp	492	1	blank2r.bmp	786	1	BMVZ	786	1	blank2r.bmp	866	2	rächen	866	1	!	1239	1	!	1346	0	0	0	0	0	0	0	0	0	0	0	0	0	0	0	0	0	0	0	0	0	0	0	0	0	0	0
030719	12:46:46	12:55:07	499900	5.0.10.0	4_exp_AMP_EVA_AWA_CON	152	Rpleas_acq	Oppo	Rpleas	Bmasked	CS_B	2pleas	distractor1	EVAbeforeCON	acq_US_unple_masked	acq45_masked	4	23	400	0	300	300	0	0	482	46	0	1	0	0	0	1	blank2r.bmp	0	1	+	0	3	B3r.bmp	492	1	blank2r.bmp	786	1	BMVZ	786	1	blank2r.bmp	866	3	schroff	866	1	!	1239	1	!	-1	0	0	0	0	0	0	0	0	0	0	0	0	0	0	0	0	0	0	0	0	0	0	0	0	0	0	0
030719	12:46:46	12:55:09	502099	5.0.10.0	4_exp_AMP_EVA_AWA_CON	152	Rpleas_acq	Oppo	Rpleas	Bmasked	CS_B	2pleas	distractor1	EVAbeforeCON	acq_US_unple_masked	acq45_masked	4	24	400	1	300	300	0	0	395	46	0	1	0	0	0	1	blank2r.bmp	0	1	+	0	6	C2r.bmp	492	1	blank2r.bmp	786	1	BMVZ	786	1	blank2r.bmp	866	5	faul	866	1	!	1239	1	!	1292	0	0	0	0	0	0	0	0	0	0	0	0	0	0	0	0	0	0	0	0	0	0	0	0	0	0	0
030719	12:46:46	12:55:11	504298	5.0.10.0	4_exp_AMP_EVA_AWA_CON	152	Rpleas_acq	Oppo	Rpleas	Bmasked	CS_B	2pleas	distractor1	EVAbeforeCON	acq_US_pleas_masked	acq45_masked	4	25	400	1	300	300	0	0	411	46	0	0	0	0	0	1	blank2r.bmp	0	1	+	0	8	C4r.bmp	492	1	blank2r.bmp	786	1	GKQX	786	1	blank2r.bmp	866	2	retten	866	1	!	1239	1	!	1306	0	0	0	0	0	0	0	0	0	0	0	0	0	0	0	0	0	0	0	0	0	0	0	0	0	0	0
030719	12:46:46	12:55:14	506471	5.0.10.0	4_exp_AMP_EVA_AWA_CON	152	Rpleas_acq	Oppo	Rpleas	Bmasked	CS_B	2pleas	distractor1	EVAbeforeCON	acq_US_unple_masked	acq45_masked	4	26	400	1	300	300	0	0	379	50	0	0	0	0	0	1	blank2r.bmp	0	1	+	0	7	C3r.bmp	492	1	blank2r.bmp	786	1	BMVZ	786	1	blank2r.bmp	866	1	strafen	866	1	!	1239	1	!	1279	0	0	0	0	0	0	0	0	0	0	0	0	0	0	0	0	0	0	0	0	0	0	0	0	0	0	0
030719	12:46:46	12:55:16	508723	5.0.10.0	4_exp_AMP_EVA_AWA_CON	152	Rpleas_acq	Oppo	Rpleas	Bmasked	CS_B	2pleas	distractor1	EVAbeforeCON	acq_US_pleas_masked	acq45_masked	4	27	400	1	300	300	0	0	453	50	0	1	0	0	0	1	blank2r.bmp	0	1	+	0	1	B1r.bmp	492	1	blank2r.bmp	786	1	GKQX	786	1	blank2r.bmp	866	4	ehrlich	866	1	!	1239	1	!	1359	0	0	0	0	0	0	0	0	0	0	0	0	0	0	0	0	0	0	0	0	0	0	0	0	0	0	0
030719	12:46:46	12:55:18	510762	5.0.10.0	4_exp_AMP_EVA_AWA_CON	152	Rpleas_acq	Oppo	Rpleas	Bmasked	CS_B	2pleas	distractor1	EVAbeforeCON	acq_US_unple_masked	acq45_masked	4	28	400	0	300	300	0	0	277	46	0	1	0	0	0	1	blank2r.bmp	0	1	+	0	2	B2r.bmp	492	1	blank2r.bmp	786	1	BMVZ	786	1	blank2r.bmp	866	4	eitel	866	1	!	-1	1	!	-1	0	0	0	0	0	0	0	0	0	0	0	0	0	0	0	0	0	0	0	0	0	0	0	0	0	0	0
030719	12:46:46	12:55:20	513002	5.0.10.0	4_exp_AMP_EVA_AWA_CON	152	Rpleas_acq	Oppo	Rpleas	Bmasked	CS_B	2pleas	distractor1	EVAbeforeCON	acq_US_pleas_masked	acq45_masked	4	29	400	1	300	300	0	0	433	50	0	1	0	0	0	1	blank2r.bmp	0	1	+	0	2	B2r.bmp	492	1	blank2r.bmp	786	1	GKQX	786	1	blank2r.bmp	866	2	retten	866	1	!	1239	1	!	1332	0	0	0	0	0	0	0	0	0	0	0	0	0	0	0	0	0	0	0	0	0	0	0	0	0	0	0
030719	12:46:46	12:55:22	515214	5.0.10.0	4_exp_AMP_EVA_AWA_CON	152	Rpleas_acq	Oppo	Rpleas	Bmasked	CS_B	2pleas	distractor1	EVAbeforeCON	acq_US_pleas_masked	acq45_masked	4	30	400	1	300	300	0	0	413	46	0	0	0	0	0	1	blank2r.bmp	0	1	+	0	7	C3r.bmp	492	1	blank2r.bmp	786	1	GKQX	786	1	blank2r.bmp	866	4	ehrlich	866	1	!	1239	1	!	1319	0	0	0	0	0	0	0	0	0	0	0	0	0	0	0	0	0	0	0	0	0	0	0	0	0	0	0
030719	12:46:46	12:55:24	517413	5.0.10.0	4_exp_AMP_EVA_AWA_CON	152	Rpleas_acq	Oppo	Rpleas	Bmasked	CS_B	2pleas	distractor1	EVAbeforeCON	acq_US_pleas_masked	acq45_masked	4	31	400	1	300	300	0	0	404	50	0	1	0	0	0	1	blank2r.bmp	0	1	+	0	8	C4r.bmp	492	1	blank2r.bmp	786	1	GKQX	786	1	blank2r.bmp	866	3	schlau	866	1	!	1239	1	!	1306	0	0	0	0	0	0	0	0	0	0	0	0	0	0	0	0	0	0	0	0	0	0	0	0	0	0	0
030719	12:46:46	12:55:27	519639	5.0.10.0	4_exp_AMP_EVA_AWA_CON	152	Rpleas_acq	Oppo	Rpleas	Bmasked	CS_B	2pleas	distractor1	EVAbeforeCON	acq_US_unple_masked	acq45_masked	4	32	400	1	300	300	0	0	427	50	0	0	0	0	0	1	blank2r.bmp	0	1	+	0	6	C2r.bmp	492	1	blank2r.bmp	786	1	BMVZ	786	1	blank2r.bmp	866	6	hindern	866	1	!	1239	1	!	1332	0	0	0	0	0	0	0	0	0	0	0	0	0	0	0	0	0	0	0	0	0	0	0	0	0	0	0
030719	12:46:46	12:55:29	521851	5.0.10.0	4_exp_AMP_EVA_AWA_CON	152	Rpleas_acq	Oppo	Rpleas	Bmasked	CS_B	2pleas	distractor1	EVAbeforeCON	acq_US_unple_masked	acq45_masked	4	33	400	1	300	300	0	0	407	46	0	1	0	0	0	1	blank2r.bmp	0	1	+	0	1	B1r.bmp	492	1	blank2r.bmp	786	1	BMVZ	786	1	blank2r.bmp	866	2	rächen	866	1	!	1239	1	!	1306	0	0	0	0	0	0	0	0	0	0	0	0	0	0	0	0	0	0	0	0	0	0	0	0	0	0	0
030719	12:46:46	12:55:31	524037	5.0.10.0	4_exp_AMP_EVA_AWA_CON	152	Rpleas_acq	Oppo	Rpleas	Bmasked	CS_B	2pleas	distractor1	EVAbeforeCON	acq_US_pleas_masked	acq45_masked	4	34	400	1	300	300	0	0	388	50	0	1	0	0	0	1	blank2r.bmp	0	1	+	0	5	C1r.bmp	492	1	blank2r.bmp	786	1	GKQX	786	1	blank2r.bmp	866	6	helfen	866	1	!	1239	1	!	1292	0	0	0	0	0	0	0	0	0	0	0	0	0	0	0	0	0	0	0	0	0	0	0	0	0	0	0
030719	12:46:46	12:55:33	526223	5.0.10.0	4_exp_AMP_EVA_AWA_CON	152	Rpleas_acq	Oppo	Rpleas	Bmasked	CS_B	2pleas	distractor1	EVAbeforeCON	acq_US_pleas_masked	acq45_masked	4	35	400	1	300	300	0	0	393	50	0	1	0	0	0	1	blank2r.bmp	0	1	+	0	4	B4r.bmp	492	1	blank2r.bmp	786	1	GKQX	786	1	blank2r.bmp	866	5	fair	866	1	!	1239	1	!	1292	0	0	0	0	0	0	0	0	0	0	0	0	0	0	0	0	0	0	0	0	0	0	0	0	0	0	0
030719	12:46:46	12:55:35	528462	5.0.10.0	4_exp_AMP_EVA_AWA_CON	152	Rpleas_acq	Oppo	Rpleas	Bmasked	CS_B	2pleas	distractor1	EVAbeforeCON	acq_US_pleas_masked	acq45_masked	4	36	400	1	300	300	0	0	426	50	0	1	0	0	0	1	blank2r.bmp	0	1	+	0	3	B3r.bmp	492	1	blank2r.bmp	786	1	GKQX	786	1	blank2r.bmp	866	1	spielen	866	1	!	1239	1	!	1332	0	0	0	0	0	0	0	0	0	0	0	0	0	0	0	0	0	0	0	0	0	0	0	0	0	0	0
030719	12:46:46	12:55:48	541283	5.0.10.0	4_exp_AMP_EVA_AWA_CON	152	Rpleas_acq	Oppo	Rpleas	Bmasked	CS_B	2pleas	distractor1	EVAbeforeCON	acq_US_pleas_masked	acq45_masked	5	1	400	1	300	300	0	0	399	50	0	1	0	0	0	1	blank2r.bmp	0	1	+	0	3	B3r.bmp	492	1	blank2r.bmp	786	1	GKQX	786	1	blank2r.bmp	866	5	fair	866	1	!	1239	1	!	1306	0	0	0	0	0	0	0	0	0	0	0	0	0	0	0	0	0	0	0	0	0	0	0	0	0	0	0
030719	12:46:46	12:55:51	543576	5.0.10.0	4_exp_AMP_EVA_AWA_CON	152	Rpleas_acq	Oppo	Rpleas	Bmasked	CS_B	2pleas	distractor1	EVAbeforeCON	acq_US_unple_masked	acq45_masked	5	2	400	0	300	300	0	0	521	50	0	0	0	0	0	1	blank2r.bmp	0	1	+	0	5	C1r.bmp	492	1	blank2r.bmp	786	1	BMVZ	786	1	blank2r.bmp	866	6	hindern	866	1	!	1239	1	!	-1	0	0	0	0	0	0	0	0	0	0	0	0	0	0	0	0	0	0	0	0	0	0	0	0	0	0	0
030719	12:46:46	12:55:53	545681	5.0.10.0	4_exp_AMP_EVA_AWA_CON	152	Rpleas_acq	Oppo	Rpleas	Bmasked	CS_B	2pleas	distractor1	EVAbeforeCON	acq_US_pleas_masked	acq45_masked	5	3	400	0	300	300	0	0	327	50	0	1	0	0	0	1	blank2r.bmp	0	1	+	0	2	B2r.bmp	492	1	blank2r.bmp	786	1	GKQX	786	1	blank2r.bmp	866	3	schlau	866	1	!	-1	1	!	-1	0	0	0	0	0	0	0	0	0	0	0	0	0	0	0	0	0	0	0	0	0	0	0	0	0	0	0
030719	12:46:46	12:55:58	550879	5.0.10.0	4_exp_AMP_EVA_AWA_CON	152	Rpleas_acq	Oppo	Rpleas	Bmasked	CS_B	2pleas	distractor1	EVAbeforeCON	acq_US_unple_masked	acq45_masked	5	4	400	0	300	300	0	0	3410	46	0	1	0	0	0	1	blank2r.bmp	0	1	+	0	4	B4r.bmp	492	1	blank2r.bmp	786	1	BMVZ	786	1	blank2r.bmp	866	1	strafen	866	1	!	1239	1	!	-1	0	0	0	0	0	0	0	0	0	0	0	0	0	0	0	0	0	0	0	0	0	0	0	0	0	0	0
030719	12:46:46	12:56:00	553065	5.0.10.0	4_exp_AMP_EVA_AWA_CON	152	Rpleas_acq	Oppo	Rpleas	Bmasked	CS_B	2pleas	distractor1	EVAbeforeCON	acq_US_pleas_masked	acq45_masked	5	5	400	1	300	300	0	0	384	50	0	1	0	0	0	1	blank2r.bmp	0	1	+	0	6	C2r.bmp	492	1	blank2r.bmp	786	1	GKQX	786	1	blank2r.bmp	866	6	helfen	866	1	!	1239	1	!	1279	0	0	0	0	0	0	0	0	0	0	0	0	0	0	0	0	0	0	0	0	0	0	0	0	0	0	0
030719	12:46:46	12:56:02	555278	5.0.10.0	4_exp_AMP_EVA_AWA_CON	152	Rpleas_acq	Oppo	Rpleas	Bmasked	CS_B	2pleas	distractor1	EVAbeforeCON	acq_US_unple_masked	acq45_masked	5	6	400	1	300	300	0	0	422	50	0	0	0	0	0	1	blank2r.bmp	0	1	+	0	8	C4r.bmp	492	1	blank2r.bmp	786	1	BMVZ	786	1	blank2r.bmp	866	5	faul	866	1	!	1239	1	!	1319	0	0	0	0	0	0	0	0	0	0	0	0	0	0	0	0	0	0	0	0	0	0	0	0	0	0	0
030719	12:46:46	12:56:05	557490	5.0.10.0	4_exp_AMP_EVA_AWA_CON	152	Rpleas_acq	Oppo	Rpleas	Bmasked	CS_B	2pleas	distractor1	EVAbeforeCON	acq_US_pleas_masked	acq45_masked	5	7	400	1	300	300	0	0	421	50	0	1	0	0	0	1	blank2r.bmp	0	1	+	0	7	C3r.bmp	492	1	blank2r.bmp	786	1	GKQX	786	1	blank2r.bmp	866	1	spielen	866	1	!	1239	1	!	1319	0	0	0	0	0	0	0	0	0	0	0	0	0	0	0	0	0	0	0	0	0	0	0	0	0	0	0
030719	12:46:46	12:56:07	559556	5.0.10.0	4_exp_AMP_EVA_AWA_CON	152	Rpleas_acq	Oppo	Rpleas	Bmasked	CS_B	2pleas	distractor1	EVAbeforeCON	acq_US_unple_masked	acq45_masked	5	8	400	0	300	300	0	0	296	46	0	1	0	0	0	1	blank2r.bmp	0	1	+	0	1	B1r.bmp	492	1	blank2r.bmp	786	1	BMVZ	786	1	blank2r.bmp	866	4	eitel	866	1	!	-1	1	!	-1	0	0	0	0	0	0	0	0	0	0	0	0	0	0	0	0	0	0	0	0	0	0	0	0	0	0	0
030719	12:46:46	12:56:09	561822	5.0.10.0	4_exp_AMP_EVA_AWA_CON	152	Rpleas_acq	Oppo	Rpleas	Bmasked	CS_B	2pleas	distractor1	EVAbeforeCON	acq_US_unple_masked	acq45_masked	5	9	400	0	300	300	0	0	479	46	0	1	0	0	0	1	blank2r.bmp	0	1	+	0	8	C4r.bmp	492	1	blank2r.bmp	786	1	BMVZ	786	1	blank2r.bmp	866	3	schroff	866	1	!	1239	1	!	-1	0	0	0	0	0	0	0	0	0	0	0	0	0	0	0	0	0	0	0	0	0	0	0	0	0	0	0
030719	12:46:46	12:56:11	564061	5.0.10.0	4_exp_AMP_EVA_AWA_CON	152	Rpleas_acq	Oppo	Rpleas	Bmasked	CS_B	2pleas	distractor1	EVAbeforeCON	acq_US_pleas_masked	acq45_masked	5	10	400	1	300	300	0	0	435	50	0	1	0	0	0	1	blank2r.bmp	0	1	+	0	5	C1r.bmp	492	1	blank2r.bmp	786	1	GKQX	786	1	blank2r.bmp	866	2	retten	866	1	!	1239	1	!	1332	0	0	0	0	0	0	0	0	0	0	0	0	0	0	0	0	0	0	0	0	0	0	0	0	0	0	0
030719	12:46:46	12:56:13	566246	5.0.10.0	4_exp_AMP_EVA_AWA_CON	152	Rpleas_acq	Oppo	Rpleas	Bmasked	CS_B	2pleas	distractor1	EVAbeforeCON	acq_US_unple_masked	acq45_masked	5	11	400	1	300	300	0	0	385	46	0	1	0	0	0	1	blank2r.bmp	0	1	+	0	4	B4r.bmp	492	1	blank2r.bmp	786	1	BMVZ	786	1	blank2r.bmp	866	2	rächen	866	1	!	1239	1	!	1292	0	0	0	0	0	0	0	0	0	0	0	0	0	0	0	0	0	0	0	0	0	0	0	0	0	0	0
030719	12:46:46	12:56:15	568392	5.0.10.0	4_exp_AMP_EVA_AWA_CON	152	Rpleas_acq	Oppo	Rpleas	Bmasked	CS_B	2pleas	distractor1	EVAbeforeCON	acq_US_pleas_masked	acq45_masked	5	12	400	1	300	300	0	0	355	50	0	1	0	0	0	1	blank2r.bmp	0	1	+	0	1	B1r.bmp	492	1	blank2r.bmp	786	1	GKQX	786	1	blank2r.bmp	866	4	ehrlich	866	1	!	1239	1	!	1252	0	0	0	0	0	0	0	0	0	0	0	0	0	0	0	0	0	0	0	0	0	0	0	0	0	0	0
030719	12:46:46	12:56:18	570591	5.0.10.0	4_exp_AMP_EVA_AWA_CON	152	Rpleas_acq	Oppo	Rpleas	Bmasked	CS_B	2pleas	distractor1	EVAbeforeCON	acq_US_unple_masked	acq45_masked	5	13	400	1	300	300	0	0	407	46	0	1	0	0	0	1	blank2r.bmp	0	1	+	0	6	C2r.bmp	492	1	blank2r.bmp	786	1	BMVZ	786	1	blank2r.bmp	866	6	hindern	866	1	!	1239	1	!	1306	0	0	0	0	0	0	0	0	0	0	0	0	0	0	0	0	0	0	0	0	0	0	0	0	0	0	0
030719	12:46:46	12:56:20	572684	5.0.10.0	4_exp_AMP_EVA_AWA_CON	152	Rpleas_acq	Oppo	Rpleas	Bmasked	CS_B	2pleas	distractor1	EVAbeforeCON	acq_US_unple_masked	acq45_masked	5	14	400	0	300	300	0	0	325	50	0	0	0	0	0	1	blank2r.bmp	0	1	+	0	7	C3r.bmp	492	1	blank2r.bmp	786	1	BMVZ	786	1	blank2r.bmp	866	4	eitel	866	1	!	-1	1	!	-1	0	0	0	0	0	0	0	0	0	0	0	0	0	0	0	0	0	0	0	0	0	0	0	0	0	0	0
030719	12:46:46	12:56:22	574923	5.0.10.0	4_exp_AMP_EVA_AWA_CON	152	Rpleas_acq	Oppo	Rpleas	Bmasked	CS_B	2pleas	distractor1	EVAbeforeCON	acq_US_pleas_masked	acq45_masked	5	15	400	1	300	300	0	0	431	46	0	0	0	0	0	1	blank2r.bmp	0	1	+	0	2	B2r.bmp	492	1	blank2r.bmp	786	1	GKQX	786	1	blank2r.bmp	866	3	schlau	866	1	!	1239	1	!	1332	0	0	0	0	0	0	0	0	0	0	0	0	0	0	0	0	0	0	0	0	0	0	0	0	0	0	0
030719	12:46:46	12:56:24	577162	5.0.10.0	4_exp_AMP_EVA_AWA_CON	152	Rpleas_acq	Oppo	Rpleas	Bmasked	CS_B	2pleas	distractor1	EVAbeforeCON	acq_US_pleas_masked	acq45_masked	5	16	400	1	300	300	0	0	447	50	0	1	0	0	0	1	blank2r.bmp	0	1	+	0	3	B3r.bmp	492	1	blank2r.bmp	786	1	GKQX	786	1	blank2r.bmp	866	4	ehrlich	866	1	!	1239	1	!	1346	0	0	0	0	0	0	0	0	0	0	0	0	0	0	0	0	0	0	0	0	0	0	0	0	0	0	0
030719	12:46:46	12:56:26	579428	5.0.10.0	4_exp_AMP_EVA_AWA_CON	152	Rpleas_acq	Oppo	Rpleas	Bmasked	CS_B	2pleas	distractor1	EVAbeforeCON	acq_US_unple_masked	acq45_masked	5	17	400	0	300	300	0	0	502	46	0	1	0	0	0	1	blank2r.bmp	0	1	+	0	2	B2r.bmp	492	1	blank2r.bmp	786	1	BMVZ	786	1	blank2r.bmp	866	2	rächen	866	1	!	1239	1	!	-1	0	0	0	0	0	0	0	0	0	0	0	0	0	0	0	0	0	0	0	0	0	0	0	0	0	0	0
030719	12:46:46	12:56:28	581427	5.0.10.0	4_exp_AMP_EVA_AWA_CON	152	Rpleas_acq	Oppo	Rpleas	Bmasked	CS_B	2pleas	distractor1	EVAbeforeCON	acq_US_pleas_masked	acq45_masked	5	18	400	0	300	300	0	0	224	50	0	1	0	0	0	1	blank2r.bmp	0	1	+	0	3	B3r.bmp	492	1	blank2r.bmp	786	1	GKQX	786	1	blank2r.bmp	866	5	fair	866	1	!	-1	1	!	-1	0	0	0	0	0	0	0	0	0	0	0	0	0	0	0	0	0	0	0	0	0	0	0	0	0	0	0
030719	12:46:46	12:56:31	583679	5.0.10.0	4_exp_AMP_EVA_AWA_CON	152	Rpleas_acq	Oppo	Rpleas	Bmasked	CS_B	2pleas	distractor1	EVAbeforeCON	acq_US_pleas_masked	acq45_masked	5	19	400	1	300	300	0	0	444	50	0	1	0	0	0	1	blank2r.bmp	0	1	+	0	8	C4r.bmp	492	1	blank2r.bmp	786	1	GKQX	786	1	blank2r.bmp	866	1	spielen	866	1	!	1239	1	!	1346	0	0	0	0	0	0	0	0	0	0	0	0	0	0	0	0	0	0	0	0	0	0	0	0	0	0	0
030719	12:46:46	12:56:33	585932	5.0.10.0	4_exp_AMP_EVA_AWA_CON	152	Rpleas_acq	Oppo	Rpleas	Bmasked	CS_B	2pleas	distractor1	EVAbeforeCON	acq_US_unple_masked	acq45_masked	5	20	400	0	300	300	0	0	479	46	0	1	0	0	0	1	blank2r.bmp	0	1	+	0	5	C1r.bmp	492	1	blank2r.bmp	786	1	BMVZ	786	1	blank2r.bmp	866	5	faul	866	1	!	1239	1	!	-1	0	0	0	0	0	0	0	0	0	0	0	0	0	0	0	0	0	0	0	0	0	0	0	0	0	0	0
030719	12:46:46	12:56:35	588144	5.0.10.0	4_exp_AMP_EVA_AWA_CON	152	Rpleas_acq	Oppo	Rpleas	Bmasked	CS_B	2pleas	distractor1	EVAbeforeCON	acq_US_pleas_masked	acq45_masked	5	21	400	1	300	300	0	0	400	46	0	0	0	0	0	1	blank2r.bmp	0	1	+	0	6	C2r.bmp	492	1	blank2r.bmp	786	1	GKQX	786	1	blank2r.bmp	866	2	retten	866	1	!	1239	1	!	1306	0	0	0	0	0	0	0	0	0	0	0	0	0	0	0	0	0	0	0	0	0	0	0	0	0	0	0
030719	12:46:46	12:56:37	590316	5.0.10.0	4_exp_AMP_EVA_AWA_CON	152	Rpleas_acq	Oppo	Rpleas	Bmasked	CS_B	2pleas	distractor1	EVAbeforeCON	acq_US_pleas_masked	acq45_masked	5	22	400	1	300	300	0	0	378	50	0	1	0	0	0	1	blank2r.bmp	0	1	+	0	1	B1r.bmp	492	1	blank2r.bmp	786	1	GKQX	786	1	blank2r.bmp	866	6	helfen	866	1	!	1239	1	!	1279	0	0	0	0	0	0	0	0	0	0	0	0	0	0	0	0	0	0	0	0	0	0	0	0	0	0	0
030719	12:46:46	12:56:40	592582	5.0.10.0	4_exp_AMP_EVA_AWA_CON	152	Rpleas_acq	Oppo	Rpleas	Bmasked	CS_B	2pleas	distractor1	EVAbeforeCON	acq_US_unple_masked	acq45_masked	5	23	400	1	300	300	0	0	466	50	0	0	0	0	0	1	blank2r.bmp	0	1	+	0	4	B4r.bmp	492	1	blank2r.bmp	786	1	BMVZ	786	1	blank2r.bmp	866	1	strafen	866	1	!	1239	1	!	1372	0	0	0	0	0	0	0	0	0	0	0	0	0	0	0	0	0	0	0	0	0	0	0	0	0	0	0
030719	12:46:46	12:56:42	594741	5.0.10.0	4_exp_AMP_EVA_AWA_CON	152	Rpleas_acq	Oppo	Rpleas	Bmasked	CS_B	2pleas	distractor1	EVAbeforeCON	acq_US_pleas_masked	acq45_masked	5	24	400	1	300	300	0	0	371	50	0	1	0	0	0	1	blank2r.bmp	0	1	+	0	7	C3r.bmp	492	1	blank2r.bmp	786	1	GKQX	786	1	blank2r.bmp	866	2	retten	866	1	!	1239	1	!	1266	0	0	0	0	0	0	0	0	0	0	0	0	0	0	0	0	0	0	0	0	0	0	0	0	0	0	0
030719	12:46:46	12:56:44	596980	5.0.10.0	4_exp_AMP_EVA_AWA_CON	152	Rpleas_acq	Oppo	Rpleas	Bmasked	CS_B	2pleas	distractor1	EVAbeforeCON	acq_US_unple_masked	acq45_masked	5	25	400	1	300	300	0	0	448	46	0	1	0	0	0	1	blank2r.bmp	0	1	+	0	4	B4r.bmp	492	1	blank2r.bmp	786	1	BMVZ	786	1	blank2r.bmp	866	3	schroff	866	1	!	1239	1	!	1346	0	0	0	0	0	0	0	0	0	0	0	0	0	0	0	0	0	0	0	0	0	0	0	0	0	0	0
030719	12:46:46	12:56:46	599233	5.0.10.0	4_exp_AMP_EVA_AWA_CON	152	Rpleas_acq	Oppo	Rpleas	Bmasked	CS_B	2pleas	distractor1	EVAbeforeCON	acq_US_pleas_masked	acq45_masked	5	26	400	1	300	300	0	0	452	50	0	1	0	0	0	1	blank2r.bmp	0	1	+	0	5	C1r.bmp	492	1	blank2r.bmp	786	1	GKQX	786	1	blank2r.bmp	866	3	schlau	866	1	!	1239	1	!	1359	0	0	0	0	0	0	0	0	0	0	0	0	0	0	0	0	0	0	0	0	0	0	0	0	0	0	0
030719	12:46:46	12:56:48	601419	5.0.10.0	4_exp_AMP_EVA_AWA_CON	152	Rpleas_acq	Oppo	Rpleas	Bmasked	CS_B	2pleas	distractor1	EVAbeforeCON	acq_US_pleas_masked	acq45_masked	5	27	400	1	300	300	0	0	391	50	0	1	0	0	0	1	blank2r.bmp	0	1	+	0	7	C3r.bmp	492	1	blank2r.bmp	786	1	GKQX	786	1	blank2r.bmp	866	6	helfen	866	1	!	1239	1	!	1292	0	0	0	0	0	0	0	0	0	0	0	0	0	0	0	0	0	0	0	0	0	0	0	0	0	0	0
030719	12:46:46	12:56:51	603671	5.0.10.0	4_exp_AMP_EVA_AWA_CON	152	Rpleas_acq	Oppo	Rpleas	Bmasked	CS_B	2pleas	distractor1	EVAbeforeCON	acq_US_unple_masked	acq45_masked	5	28	400	0	300	300	0	0	479	50	0	0	0	0	0	1	blank2r.bmp	0	1	+	0	6	C2r.bmp	492	1	blank2r.bmp	786	1	BMVZ	786	1	blank2r.bmp	866	1	strafen	866	1	!	1239	1	!	-1	0	0	0	0	0	0	0	0	0	0	0	0	0	0	0	0	0	0	0	0	0	0	0	0	0	0	0
030719	12:46:46	12:56:53	605910	5.0.10.0	4_exp_AMP_EVA_AWA_CON	152	Rpleas_acq	Oppo	Rpleas	Bmasked	CS_B	2pleas	distractor1	EVAbeforeCON	acq_US_unple_masked	acq45_masked	5	29	400	1	300	300	0	0	425	46	0	1	0	0	0	1	blank2r.bmp	0	1	+	0	8	C4r.bmp	492	1	blank2r.bmp	786	1	BMVZ	786	1	blank2r.bmp	866	6	hindern	866	1	!	1239	1	!	1332	0	0	0	0	0	0	0	0	0	0	0	0	0	0	0	0	0	0	0	0	0	0	0	0	0	0	0
030719	12:46:46	12:56:55	608162	5.0.10.0	4_exp_AMP_EVA_AWA_CON	152	Rpleas_acq	Oppo	Rpleas	Bmasked	CS_B	2pleas	distractor1	EVAbeforeCON	acq_US_pleas_masked	acq45_masked	5	30	400	1	300	300	0	0	461	50	0	1	0	0	0	1	blank2r.bmp	0	1	+	0	3	B3r.bmp	492	1	blank2r.bmp	786	1	GKQX	786	1	blank2r.bmp	866	4	ehrlich	866	1	!	1239	1	!	1359	0	0	0	0	0	0	0	0	0	0	0	0	0	0	0	0	0	0	0	0	0	0	0	0	0	0	0
030719	12:46:46	12:56:57	610308	5.0.10.0	4_exp_AMP_EVA_AWA_CON	152	Rpleas_acq	Oppo	Rpleas	Bmasked	CS_B	2pleas	distractor1	EVAbeforeCON	acq_US_pleas_masked	acq45_masked	5	31	400	1	300	300	0	0	353	50	0	1	0	0	0	1	blank2r.bmp	0	1	+	0	1	B1r.bmp	492	1	blank2r.bmp	786	1	GKQX	786	1	blank2r.bmp	866	5	fair	866	1	!	1239	1	!	1252	0	0	0	0	0	0	0	0	0	0	0	0	0	0	0	0	0	0	0	0	0	0	0	0	0	0	0
030719	12:46:46	12:57:00	612561	5.0.10.0	4_exp_AMP_EVA_AWA_CON	152	Rpleas_acq	Oppo	Rpleas	Bmasked	CS_B	2pleas	distractor1	EVAbeforeCON	acq_US_pleas_masked	acq45_masked	5	32	400	1	300	300	0	0	465	50	0	1	0	0	0	1	blank2r.bmp	0	1	+	0	2	B2r.bmp	492	1	blank2r.bmp	786	1	GKQX	786	1	blank2r.bmp	866	1	spielen	866	1	!	1239	1	!	1359	0	0	0	0	0	0	0	0	0	0	0	0	0	0	0	0	0	0	0	0	0	0	0	0	0	0	0
030719	12:46:46	12:57:02	614760	5.0.10.0	4_exp_AMP_EVA_AWA_CON	152	Rpleas_acq	Oppo	Rpleas	Bmasked	CS_B	2pleas	distractor1	EVAbeforeCON	acq_US_unple_masked	acq45_masked	5	33	400	1	300	300	0	0	406	50	0	0	0	0	0	1	blank2r.bmp	0	1	+	0	8	C4r.bmp	492	1	blank2r.bmp	786	1	BMVZ	786	1	blank2r.bmp	866	5	faul	866	1	!	1239	1	!	1306	0	0	0	0	0	0	0	0	0	0	0	0	0	0	0	0	0	0	0	0	0	0	0	0	0	0	0
030719	12:46:46	12:57:04	617025	5.0.10.0	4_exp_AMP_EVA_AWA_CON	152	Rpleas_acq	Oppo	Rpleas	Bmasked	CS_B	2pleas	distractor1	EVAbeforeCON	acq_US_unple_masked	acq45_masked	5	34	400	0	300	300	0	0	498	50	0	0	0	0	0	1	blank2r.bmp	0	1	+	0	4	B4r.bmp	492	1	blank2r.bmp	786	1	BMVZ	786	1	blank2r.bmp	866	4	eitel	866	1	!	1239	1	!	-1	0	0	0	0	0	0	0	0	0	0	0	0	0	0	0	0	0	0	0	0	0	0	0	0	0	0	0
030719	12:46:46	12:57:06	619105	5.0.10.0	4_exp_AMP_EVA_AWA_CON	152	Rpleas_acq	Oppo	Rpleas	Bmasked	CS_B	2pleas	distractor1	EVAbeforeCON	acq_US_unple_masked	acq45_masked	5	35	400	0	300	300	0	0	299	50	0	0	0	0	0	1	blank2r.bmp	0	1	+	0	2	B2r.bmp	492	1	blank2r.bmp	786	1	BMVZ	786	1	blank2r.bmp	866	2	rächen	866	1	!	-1	1	!	-1	0	0	0	0	0	0	0	0	0	0	0	0	0	0	0	0	0	0	0	0	0	0	0	0	0	0	0
030719	12:46:46	12:57:08	621357	5.0.10.0	4_exp_AMP_EVA_AWA_CON	152	Rpleas_acq	Oppo	Rpleas	Bmasked	CS_B	2pleas	distractor1	EVAbeforeCON	acq_US_unple_masked	acq45_masked	5	36	400	1	300	300	0	0	448	46	0	1	0	0	0	1	blank2r.bmp	0	1	+	0	3	B3r.bmp	492	1	blank2r.bmp	786	1	BMVZ	786	1	blank2r.bmp	866	3	schroff	866	1	!	1239	1	!	1346	0	0	0	0	0	0	0	0	0	0	0	0	0	0	0	0	0	0	0	0	0	0	0	0	0	0	0
030719	12:46:46	12:58:10	682545	5.0.10.0	4_exp_AMP_EVA_AWA_CON	152	Rpleas_acq	Oppo	Lpleas	Bmasked	CS_B	2pleas	distractor1	EVAbeforeCON	AMP_distractor	AMP1_masked	6	1	0	0	300	300	0	0	4718	46	0	0	0	0	0	1	blank2r.bmp	0	1	WFPH	0	1	blank2r.bmp	79	153	pic153.bmp	199	1	whitenoise_No3.bmp	306	0	0	0	0	0	0	0	0	0	0	0	0	0	0	0	0	0	0	0	0	0	0	0	0	0	0	0	0	0	0	0	0	0	0	0	0	0	0	0
030719	12:46:46	12:58:17	689742	5.0.10.0	4_exp_AMP_EVA_AWA_CON	152	Rpleas_acq	Oppo	Lpleas	Bmasked	CS_B	2pleas	distractor1	EVAbeforeCON	AMP_CSpleas	AMP1_masked	6	2	0	0	300	300	0	0	6284	50	0	0	0	0	0	1	blank2r.bmp	0	1	GKQX	0	1	blank2r.bmp	79	115	pic115.bmp	199	1	whitenoise_No3.bmp	306	0	0	0	0	0	0	0	0	0	0	0	0	0	0	0	0	0	0	0	0	0	0	0	0	0	0	0	0	0	0	0	0	0	0	0	0	0	0	0
030719	12:46:46	12:58:19	692261	5.0.10.0	4_exp_AMP_EVA_AWA_CON	152	Rpleas_acq	Oppo	Lpleas	Bmasked	CS_B	2pleas	distractor1	EVAbeforeCON	AMP_CSunple	AMP1_masked	6	3	0	0	300	300	0	0	1588	50	0	1	0	0	0	1	blank2r.bmp	0	1	BMVZ	0	1	blank2r.bmp	79	53	pic53.bmp	199	1	whitenoise_No3.bmp	306	0	0	0	0	0	0	0	0	0	0	0	0	0	0	0	0	0	0	0	0	0	0	0	0	0	0	0	0	0	0	0	0	0	0	0	0	0	0	0
030719	12:46:46	12:58:25	698152	5.0.10.0	4_exp_AMP_EVA_AWA_CON	152	Rpleas_acq	Oppo	Lpleas	Bmasked	CS_B	2pleas	distractor1	EVAbeforeCON	AMP_CSpleas	AMP1_masked	6	4	0	0	300	300	0	0	4980	50	0	0	0	0	0	1	blank2r.bmp	0	1	GKQX	0	1	blank2r.bmp	79	98	pic98.bmp	199	1	whitenoise_No3.bmp	306	0	0	0	0	0	0	0	0	0	0	0	0	0	0	0	0	0	0	0	0	0	0	0	0	0	0	0	0	0	0	0	0	0	0	0	0	0	0	0
030719	12:46:46	12:58:27	699911	5.0.10.0	4_exp_AMP_EVA_AWA_CON	152	Rpleas_acq	Oppo	Lpleas	Bmasked	CS_B	2pleas	distractor1	EVAbeforeCON	AMP_CSunple	AMP1_masked	6	5	0	0	300	300	0	0	844	46	0	0	0	0	0	1	blank2r.bmp	0	1	BMVZ	0	1	blank2r.bmp	79	150	pic150.bmp	199	1	whitenoise_No3.bmp	306	0	0	0	0	0	0	0	0	0	0	0	0	0	0	0	0	0	0	0	0	0	0	0	0	0	0	0	0	0	0	0	0	0	0	0	0	0	0	0
030719	12:46:46	12:58:29	701697	5.0.10.0	4_exp_AMP_EVA_AWA_CON	152	Rpleas_acq	Oppo	Lpleas	Bmasked	CS_B	2pleas	distractor1	EVAbeforeCON	AMP_distractor	AMP1_masked	6	6	0	0	300	300	0	0	854	46	0	0	0	0	0	1	blank2r.bmp	0	1	WFPH	0	1	blank2r.bmp	79	92	pic92.bmp	199	1	whitenoise_No3.bmp	306	0	0	0	0	0	0	0	0	0	0	0	0	0	0	0	0	0	0	0	0	0	0	0	0	0	0	0	0	0	0	0	0	0	0	0	0	0	0	0
030719	12:46:46	12:58:30	703177	5.0.10.0	4_exp_AMP_EVA_AWA_CON	152	Rpleas_acq	Oppo	Lpleas	Bmasked	CS_B	2pleas	distractor1	EVAbeforeCON	AMP_CSpleas	AMP1_masked	6	7	0	0	300	300	0	0	559	46	0	1	0	0	0	1	blank2r.bmp	0	1	GKQX	0	1	blank2r.bmp	79	104	pic104.bmp	199	1	whitenoise_No3.bmp	306	0	0	0	0	0	0	0	0	0	0	0	0	0	0	0	0	0	0	0	0	0	0	0	0	0	0	0	0	0	0	0	0	0	0	0	0	0	0	0
030719	12:46:46	12:58:32	705123	5.0.10.0	4_exp_AMP_EVA_AWA_CON	152	Rpleas_acq	Oppo	Lpleas	Bmasked	CS_B	2pleas	distractor1	EVAbeforeCON	AMP_CSpleas	AMP1_masked	6	8	0	0	300	300	0	0	1036	50	0	0	0	0	0	1	blank2r.bmp	0	1	GKQX	0	1	blank2r.bmp	79	77	pic77.bmp	199	1	whitenoise_No3.bmp	306	0	0	0	0	0	0	0	0	0	0	0	0	0	0	0	0	0	0	0	0	0	0	0	0	0	0	0	0	0	0	0	0	0	0	0	0	0	0	0
030719	12:46:46	12:58:34	706642	5.0.10.0	4_exp_AMP_EVA_AWA_CON	152	Rpleas_acq	Oppo	Lpleas	Bmasked	CS_B	2pleas	distractor1	EVAbeforeCON	AMP_CSunple	AMP1_masked	6	9	0	0	300	300	0	0	592	46	0	0	0	0	0	1	blank2r.bmp	0	1	BMVZ	0	1	blank2r.bmp	79	54	pic54.bmp	199	1	whitenoise_No3.bmp	306	0	0	0	0	0	0	0	0	0	0	0	0	0	0	0	0	0	0	0	0	0	0	0	0	0	0	0	0	0	0	0	0	0	0	0	0	0	0	0
030719	12:46:46	12:58:35	708068	5.0.10.0	4_exp_AMP_EVA_AWA_CON	152	Rpleas_acq	Oppo	Lpleas	Bmasked	CS_B	2pleas	distractor1	EVAbeforeCON	AMP_distractor	AMP1_masked	6	10	0	0	300	300	0	0	509	46	0	0	0	0	0	1	blank2r.bmp	0	1	WFPH	0	1	blank2r.bmp	79	38	pic38.bmp	199	1	whitenoise_No3.bmp	306	0	0	0	0	0	0	0	0	0	0	0	0	0	0	0	0	0	0	0	0	0	0	0	0	0	0	0	0	0	0	0	0	0	0	0	0	0	0	0
030719	12:46:46	12:58:37	709534	5.0.10.0	4_exp_AMP_EVA_AWA_CON	152	Rpleas_acq	Oppo	Lpleas	Bmasked	CS_B	2pleas	distractor1	EVAbeforeCON	AMP_distractor	AMP1_masked	6	11	0	0	300	300	0	0	533	50	0	0	0	0	0	1	blank2r.bmp	0	1	WFPH	0	1	blank2r.bmp	79	80	pic80.bmp	199	1	whitenoise_No3.bmp	306	0	0	0	0	0	0	0	0	0	0	0	0	0	0	0	0	0	0	0	0	0	0	0	0	0	0	0	0	0	0	0	0	0	0	0	0	0	0	0
030719	12:46:46	12:58:38	711440	5.0.10.0	4_exp_AMP_EVA_AWA_CON	152	Rpleas_acq	Oppo	Lpleas	Bmasked	CS_B	2pleas	distractor1	EVAbeforeCON	AMP_CSunple	AMP1_masked	6	12	0	0	300	300	0	0	986	46	0	0	0	0	0	1	blank2r.bmp	0	1	BMVZ	0	1	blank2r.bmp	79	20	pic20.bmp	199	1	whitenoise_No3.bmp	306	0	0	0	0	0	0	0	0	0	0	0	0	0	0	0	0	0	0	0	0	0	0	0	0	0	0	0	0	0	0	0	0	0	0	0	0	0	0	0
030719	12:46:46	12:58:40	713146	5.0.10.0	4_exp_AMP_EVA_AWA_CON	152	Rpleas_acq	Oppo	Lpleas	Bmasked	CS_B	2pleas	distractor1	EVAbeforeCON	AMP_CSpleas	AMP1_masked	6	13	0	0	300	300	0	0	780	46	0	1	0	0	0	1	blank2r.bmp	0	1	GKQX	0	1	blank2r.bmp	79	85	pic85.bmp	199	1	whitenoise_No3.bmp	306	0	0	0	0	0	0	0	0	0	0	0	0	0	0	0	0	0	0	0	0	0	0	0	0	0	0	0	0	0	0	0	0	0	0	0	0	0	0	0
030719	12:46:46	12:58:42	715345	5.0.10.0	4_exp_AMP_EVA_AWA_CON	152	Rpleas_acq	Oppo	Lpleas	Bmasked	CS_B	2pleas	distractor1	EVAbeforeCON	AMP_distractor	AMP1_masked	6	14	0	0	300	300	0	0	1287	50	0	0	0	0	0	1	blank2r.bmp	0	1	WFPH	0	1	blank2r.bmp	79	126	pic126.bmp	199	1	whitenoise_No3.bmp	306	0	0	0	0	0	0	0	0	0	0	0	0	0	0	0	0	0	0	0	0	0	0	0	0	0	0	0	0	0	0	0	0	0	0	0	0	0	0	0
030719	12:46:46	12:58:44	716864	5.0.10.0	4_exp_AMP_EVA_AWA_CON	152	Rpleas_acq	Oppo	Lpleas	Bmasked	CS_B	2pleas	distractor1	EVAbeforeCON	AMP_distractor	AMP1_masked	6	15	0	0	300	300	0	0	603	46	0	0	0	0	0	1	blank2r.bmp	0	1	WFPH	0	1	blank2r.bmp	79	81	pic81.bmp	199	1	whitenoise_No3.bmp	306	0	0	0	0	0	0	0	0	0	0	0	0	0	0	0	0	0	0	0	0	0	0	0	0	0	0	0	0	0	0	0	0	0	0	0	0	0	0	0
030719	12:46:46	12:58:45	718264	5.0.10.0	4_exp_AMP_EVA_AWA_CON	152	Rpleas_acq	Oppo	Lpleas	Bmasked	CS_B	2pleas	distractor1	EVAbeforeCON	AMP_CSunple	AMP1_masked	6	16	0	0	300	300	0	0	471	46	0	0	0	0	0	1	blank2r.bmp	0	1	BMVZ	0	1	blank2r.bmp	79	130	pic130.bmp	199	1	whitenoise_No3.bmp	306	0	0	0	0	0	0	0	0	0	0	0	0	0	0	0	0	0	0	0	0	0	0	0	0	0	0	0	0	0	0	0	0	0	0	0	0	0	0	0
030719	12:46:46	12:58:47	719690	5.0.10.0	4_exp_AMP_EVA_AWA_CON	152	Rpleas_acq	Oppo	Lpleas	Bmasked	CS_B	2pleas	distractor1	EVAbeforeCON	AMP_CSpleas	AMP1_masked	6	17	0	0	300	300	0	0	505	46	0	1	0	0	0	1	blank2r.bmp	0	1	GKQX	0	1	blank2r.bmp	79	51	pic51.bmp	199	1	whitenoise_No3.bmp	306	0	0	0	0	0	0	0	0	0	0	0	0	0	0	0	0	0	0	0	0	0	0	0	0	0	0	0	0	0	0	0	0	0	0	0	0	0	0	0
030719	12:46:46	12:58:48	721263	5.0.10.0	4_exp_AMP_EVA_AWA_CON	152	Rpleas_acq	Oppo	Lpleas	Bmasked	CS_B	2pleas	distractor1	EVAbeforeCON	AMP_CSpleas	AMP1_masked	6	18	0	0	300	300	0	0	652	50	0	0	0	0	0	1	blank2r.bmp	0	1	GKQX	0	1	blank2r.bmp	79	74	pic74.bmp	199	1	whitenoise_No3.bmp	306	0	0	0	0	0	0	0	0	0	0	0	0	0	0	0	0	0	0	0	0	0	0	0	0	0	0	0	0	0	0	0	0	0	0	0	0	0	0	0
030719	12:46:46	12:58:50	722742	5.0.10.0	4_exp_AMP_EVA_AWA_CON	152	Rpleas_acq	Oppo	Lpleas	Bmasked	CS_B	2pleas	distractor1	EVAbeforeCON	AMP_CSunple	AMP1_masked	6	19	0	0	300	300	0	0	565	46	0	0	0	0	0	1	blank2r.bmp	0	1	BMVZ	0	1	blank2r.bmp	79	33	pic33.bmp	199	1	whitenoise_No3.bmp	306	0	0	0	0	0	0	0	0	0	0	0	0	0	0	0	0	0	0	0	0	0	0	0	0	0	0	0	0	0	0	0	0	0	0	0	0	0	0	0
030719	12:46:46	12:58:51	724115	5.0.10.0	4_exp_AMP_EVA_AWA_CON	152	Rpleas_acq	Oppo	Lpleas	Bmasked	CS_B	2pleas	distractor1	EVAbeforeCON	AMP_distractor	AMP1_masked	6	20	0	0	300	300	0	0	454	46	0	0	0	0	0	1	blank2r.bmp	0	1	WFPH	0	1	blank2r.bmp	79	16	pic16.bmp	199	1	whitenoise_No3.bmp	306	0	0	0	0	0	0	0	0	0	0	0	0	0	0	0	0	0	0	0	0	0	0	0	0	0	0	0	0	0	0	0	0	0	0	0	0	0	0	0
030719	12:46:46	12:58:53	725621	5.0.10.0	4_exp_AMP_EVA_AWA_CON	152	Rpleas_acq	Oppo	Lpleas	Bmasked	CS_B	2pleas	distractor1	EVAbeforeCON	AMP_CSpleas	AMP1_masked	6	21	0	0	300	300	0	0	591	46	0	1	0	0	0	1	blank2r.bmp	0	1	GKQX	0	1	blank2r.bmp	79	109	pic109.bmp	199	1	whitenoise_No3.bmp	306	0	0	0	0	0	0	0	0	0	0	0	0	0	0	0	0	0	0	0	0	0	0	0	0	0	0	0	0	0	0	0	0	0	0	0	0	0	0	0
030719	12:46:46	12:58:54	726954	5.0.10.0	4_exp_AMP_EVA_AWA_CON	152	Rpleas_acq	Oppo	Lpleas	Bmasked	CS_B	2pleas	distractor1	EVAbeforeCON	AMP_CSpleas	AMP1_masked	6	22	0	0	300	300	0	0	410	46	0	1	0	0	0	1	blank2r.bmp	0	1	GKQX	0	1	blank2r.bmp	79	111	pic111.bmp	199	1	whitenoise_No3.bmp	306	0	0	0	0	0	0	0	0	0	0	0	0	0	0	0	0	0	0	0	0	0	0	0	0	0	0	0	0	0	0	0	0	0	0	0	0	0	0	0
030719	12:46:46	12:58:55	728353	5.0.10.0	4_exp_AMP_EVA_AWA_CON	152	Rpleas_acq	Oppo	Lpleas	Bmasked	CS_B	2pleas	distractor1	EVAbeforeCON	AMP_distractor	AMP1_masked	6	23	0	0	300	300	0	0	471	46	0	0	0	0	0	1	blank2r.bmp	0	1	WFPH	0	1	blank2r.bmp	79	106	pic106.bmp	199	1	whitenoise_No3.bmp	306	0	0	0	0	0	0	0	0	0	0	0	0	0	0	0	0	0	0	0	0	0	0	0	0	0	0	0	0	0	0	0	0	0	0	0	0	0	0	0
030719	12:46:46	12:58:57	729659	5.0.10.0	4_exp_AMP_EVA_AWA_CON	152	Rpleas_acq	Oppo	Lpleas	Bmasked	CS_B	2pleas	distractor1	EVAbeforeCON	AMP_distractor	AMP1_masked	6	24	0	0	300	300	0	0	389	50	0	0	0	0	0	1	blank2r.bmp	0	1	WFPH	0	1	blank2r.bmp	79	96	pic96.bmp	199	1	whitenoise_No3.bmp	306	0	0	0	0	0	0	0	0	0	0	0	0	0	0	0	0	0	0	0	0	0	0	0	0	0	0	0	0	0	0	0	0	0	0	0	0	0	0	0
030719	12:46:46	12:58:58	731059	5.0.10.0	4_exp_AMP_EVA_AWA_CON	152	Rpleas_acq	Oppo	Lpleas	Bmasked	CS_B	2pleas	distractor1	EVAbeforeCON	AMP_distractor	AMP1_masked	6	25	0	0	300	300	0	0	477	46	0	0	0	0	0	1	blank2r.bmp	0	1	WFPH	0	1	blank2r.bmp	79	101	pic101.bmp	199	1	whitenoise_No3.bmp	306	0	0	0	0	0	0	0	0	0	0	0	0	0	0	0	0	0	0	0	0	0	0	0	0	0	0	0	0	0	0	0	0	0	0	0	0	0	0	0
030719	12:46:46	12:58:59	732431	5.0.10.0	4_exp_AMP_EVA_AWA_CON	152	Rpleas_acq	Oppo	Lpleas	Bmasked	CS_B	2pleas	distractor1	EVAbeforeCON	AMP_CSunple	AMP1_masked	6	26	0	0	300	300	0	0	451	46	0	0	0	0	0	1	blank2r.bmp	0	1	BMVZ	0	1	blank2r.bmp	79	151	pic151.bmp	199	1	whitenoise_No3.bmp	306	0	0	0	0	0	0	0	0	0	0	0	0	0	0	0	0	0	0	0	0	0	0	0	0	0	0	0	0	0	0	0	0	0	0	0	0	0	0	0
030719	12:46:46	12:59:01	733844	5.0.10.0	4_exp_AMP_EVA_AWA_CON	152	Rpleas_acq	Oppo	Lpleas	Bmasked	CS_B	2pleas	distractor1	EVAbeforeCON	AMP_CSunple	AMP1_masked	6	27	0	0	300	300	0	0	480	46	0	0	0	0	0	1	blank2r.bmp	0	1	BMVZ	0	1	blank2r.bmp	79	56	pic56.bmp	199	1	whitenoise_No3.bmp	306	0	0	0	0	0	0	0	0	0	0	0	0	0	0	0	0	0	0	0	0	0	0	0	0	0	0	0	0	0	0	0	0	0	0	0	0	0	0	0
030719	12:46:46	12:59:03	735577	5.0.10.0	4_exp_AMP_EVA_AWA_CON	152	Rpleas_acq	Oppo	Lpleas	Bmasked	CS_B	2pleas	distractor1	EVAbeforeCON	AMP_CSpleas	AMP1_masked	6	28	0	0	300	300	0	0	816	46	0	1	0	0	0	1	blank2r.bmp	0	1	GKQX	0	1	blank2r.bmp	79	17	pic17.bmp	199	1	whitenoise_No3.bmp	306	0	0	0	0	0	0	0	0	0	0	0	0	0	0	0	0	0	0	0	0	0	0	0	0	0	0	0	0	0	0	0	0	0	0	0	0	0	0	0
030719	12:46:46	12:59:04	736883	5.0.10.0	4_exp_AMP_EVA_AWA_CON	152	Rpleas_acq	Oppo	Lpleas	Bmasked	CS_B	2pleas	distractor1	EVAbeforeCON	AMP_CSunple	AMP1_masked	6	29	0	0	300	300	0	0	393	46	0	0	0	0	0	1	blank2r.bmp	0	1	BMVZ	0	1	blank2r.bmp	79	12	pic12.bmp	199	1	whitenoise_No3.bmp	306	0	0	0	0	0	0	0	0	0	0	0	0	0	0	0	0	0	0	0	0	0	0	0	0	0	0	0	0	0	0	0	0	0	0	0	0	0	0	0
030719	12:46:46	12:59:05	738242	5.0.10.0	4_exp_AMP_EVA_AWA_CON	152	Rpleas_acq	Oppo	Lpleas	Bmasked	CS_B	2pleas	distractor1	EVAbeforeCON	AMP_CSpleas	AMP1_masked	6	30	0	0	300	300	0	0	425	46	0	1	0	0	0	1	blank2r.bmp	0	1	GKQX	0	1	blank2r.bmp	79	121	pic121.bmp	199	1	whitenoise_No3.bmp	306	0	0	0	0	0	0	0	0	0	0	0	0	0	0	0	0	0	0	0	0	0	0	0	0	0	0	0	0	0	0	0	0	0	0	0	0	0	0	0
030719	12:46:46	12:59:07	739682	5.0.10.0	4_exp_AMP_EVA_AWA_CON	152	Rpleas_acq	Oppo	Lpleas	Bmasked	CS_B	2pleas	distractor1	EVAbeforeCON	AMP_distractor	AMP1_masked	6	31	0	0	300	300	0	0	505	50	0	0	0	0	0	1	blank2r.bmp	0	1	WFPH	0	1	blank2r.bmp	79	124	pic124.bmp	199	1	whitenoise_No3.bmp	306	0	0	0	0	0	0	0	0	0	0	0	0	0	0	0	0	0	0	0	0	0	0	0	0	0	0	0	0	0	0	0	0	0	0	0	0	0	0	0
030719	12:46:46	12:59:08	741201	5.0.10.0	4_exp_AMP_EVA_AWA_CON	152	Rpleas_acq	Oppo	Lpleas	Bmasked	CS_B	2pleas	distractor1	EVAbeforeCON	AMP_CSpleas	AMP1_masked	6	32	0	0	300	300	0	0	610	50	0	0	0	0	0	1	blank2r.bmp	0	1	GKQX	0	1	blank2r.bmp	79	149	pic149.bmp	199	1	whitenoise_No3.bmp	306	0	0	0	0	0	0	0	0	0	0	0	0	0	0	0	0	0	0	0	0	0	0	0	0	0	0	0	0	0	0	0	0	0	0	0	0	0	0	0
030719	12:46:46	12:59:10	742947	5.0.10.0	4_exp_AMP_EVA_AWA_CON	152	Rpleas_acq	Oppo	Lpleas	Bmasked	CS_B	2pleas	distractor1	EVAbeforeCON	AMP_distractor	AMP1_masked	6	33	0	0	300	300	0	0	820	46	0	0	0	0	0	1	blank2r.bmp	0	1	WFPH	0	1	blank2r.bmp	79	112	pic112.bmp	199	1	whitenoise_No3.bmp	306	0	0	0	0	0	0	0	0	0	0	0	0	0	0	0	0	0	0	0	0	0	0	0	0	0	0	0	0	0	0	0	0	0	0	0	0	0	0	0
030719	12:46:46	12:59:11	744267	5.0.10.0	4_exp_AMP_EVA_AWA_CON	152	Rpleas_acq	Oppo	Lpleas	Bmasked	CS_B	2pleas	distractor1	EVAbeforeCON	AMP_distractor	AMP1_masked	6	34	0	0	300	300	0	0	398	46	0	0	0	0	0	1	blank2r.bmp	0	1	WFPH	0	1	blank2r.bmp	79	28	pic28.bmp	199	1	whitenoise_No3.bmp	306	0	0	0	0	0	0	0	0	0	0	0	0	0	0	0	0	0	0	0	0	0	0	0	0	0	0	0	0	0	0	0	0	0	0	0	0	0	0	0
030719	12:46:46	12:59:13	745653	5.0.10.0	4_exp_AMP_EVA_AWA_CON	152	Rpleas_acq	Oppo	Lpleas	Bmasked	CS_B	2pleas	distractor1	EVAbeforeCON	AMP_CSpleas	AMP1_masked	6	35	0	0	300	300	0	0	464	46	0	1	0	0	0	1	blank2r.bmp	0	1	GKQX	0	1	blank2r.bmp	79	110	pic110.bmp	199	1	whitenoise_No3.bmp	306	0	0	0	0	0	0	0	0	0	0	0	0	0	0	0	0	0	0	0	0	0	0	0	0	0	0	0	0	0	0	0	0	0	0	0	0	0	0	0
030719	12:46:46	12:59:14	746932	5.0.10.0	4_exp_AMP_EVA_AWA_CON	152	Rpleas_acq	Oppo	Lpleas	Bmasked	CS_B	2pleas	distractor1	EVAbeforeCON	AMP_CSpleas	AMP1_masked	6	36	0	0	300	300	0	0	367	46	0	1	0	0	0	1	blank2r.bmp	0	1	GKQX	0	1	blank2r.bmp	79	78	pic78.bmp	199	1	whitenoise_No3.bmp	306	0	0	0	0	0	0	0	0	0	0	0	0	0	0	0	0	0	0	0	0	0	0	0	0	0	0	0	0	0	0	0	0	0	0	0	0	0	0	0
030719	12:46:46	12:59:15	748305	5.0.10.0	4_exp_AMP_EVA_AWA_CON	152	Rpleas_acq	Oppo	Lpleas	Bmasked	CS_B	2pleas	distractor1	EVAbeforeCON	AMP_CSunple	AMP1_masked	6	37	0	0	300	300	0	0	452	46	0	0	0	0	0	1	blank2r.bmp	0	1	BMVZ	0	1	blank2r.bmp	79	2	pic2.bmp	199	1	whitenoise_No3.bmp	306	0	0	0	0	0	0	0	0	0	0	0	0	0	0	0	0	0	0	0	0	0	0	0	0	0	0	0	0	0	0	0	0	0	0	0	0	0	0	0
030719	12:46:46	12:59:17	749544	5.0.10.0	4_exp_AMP_EVA_AWA_CON	152	Rpleas_acq	Oppo	Lpleas	Bmasked	CS_B	2pleas	distractor1	EVAbeforeCON	AMP_distractor	AMP1_masked	6	38	0	0	300	300	0	0	329	46	0	0	0	0	0	1	blank2r.bmp	0	1	WFPH	0	1	blank2r.bmp	79	15	pic15.bmp	199	1	whitenoise_No3.bmp	306	0	0	0	0	0	0	0	0	0	0	0	0	0	0	0	0	0	0	0	0	0	0	0	0	0	0	0	0	0	0	0	0	0	0	0	0	0	0	0
030719	12:46:46	12:59:18	750850	5.0.10.0	4_exp_AMP_EVA_AWA_CON	152	Rpleas_acq	Oppo	Lpleas	Bmasked	CS_B	2pleas	distractor1	EVAbeforeCON	AMP_distractor	AMP1_masked	6	39	0	0	300	300	0	0	379	46	0	0	0	0	0	1	blank2r.bmp	0	1	WFPH	0	1	blank2r.bmp	79	144	pic144.bmp	199	1	whitenoise_No3.bmp	306	0	0	0	0	0	0	0	0	0	0	0	0	0	0	0	0	0	0	0	0	0	0	0	0	0	0	0	0	0	0	0	0	0	0	0	0	0	0	0
030719	12:46:46	12:59:19	752170	5.0.10.0	4_exp_AMP_EVA_AWA_CON	152	Rpleas_acq	Oppo	Lpleas	Bmasked	CS_B	2pleas	distractor1	EVAbeforeCON	AMP_CSpleas	AMP1_masked	6	40	0	0	300	300	0	0	408	46	0	1	0	0	0	1	blank2r.bmp	0	1	GKQX	0	1	blank2r.bmp	79	75	pic75.bmp	199	1	whitenoise_No3.bmp	306	0	0	0	0	0	0	0	0	0	0	0	0	0	0	0	0	0	0	0	0	0	0	0	0	0	0	0	0	0	0	0	0	0	0	0	0	0	0	0
030719	12:46:46	12:59:21	754142	5.0.10.0	4_exp_AMP_EVA_AWA_CON	152	Rpleas_acq	Oppo	Lpleas	Bmasked	CS_B	2pleas	distractor1	EVAbeforeCON	AMP_distractor	AMP1_masked	6	41	0	0	300	300	0	0	1044	46	0	0	0	0	0	1	blank2r.bmp	0	1	WFPH	0	1	blank2r.bmp	79	82	pic82.bmp	199	1	whitenoise_No3.bmp	306	0	0	0	0	0	0	0	0	0	0	0	0	0	0	0	0	0	0	0	0	0	0	0	0	0	0	0	0	0	0	0	0	0	0	0	0	0	0	0
030719	12:46:46	12:59:23	755555	5.0.10.0	4_exp_AMP_EVA_AWA_CON	152	Rpleas_acq	Oppo	Lpleas	Bmasked	CS_B	2pleas	distractor1	EVAbeforeCON	AMP_CSunple	AMP1_masked	6	42	0	0	300	300	0	0	495	46	0	0	0	0	0	1	blank2r.bmp	0	1	BMVZ	0	1	blank2r.bmp	79	100	pic100.bmp	199	1	whitenoise_No3.bmp	306	0	0	0	0	0	0	0	0	0	0	0	0	0	0	0	0	0	0	0	0	0	0	0	0	0	0	0	0	0	0	0	0	0	0	0	0	0	0	0
030719	12:46:46	12:59:24	756835	5.0.10.0	4_exp_AMP_EVA_AWA_CON	152	Rpleas_acq	Oppo	Lpleas	Bmasked	CS_B	2pleas	distractor1	EVAbeforeCON	AMP_CSunple	AMP1_masked	6	43	0	0	300	300	0	0	347	46	0	0	0	0	0	1	blank2r.bmp	0	1	BMVZ	0	1	blank2r.bmp	79	39	pic39.bmp	199	1	whitenoise_No3.bmp	306	0	0	0	0	0	0	0	0	0	0	0	0	0	0	0	0	0	0	0	0	0	0	0	0	0	0	0	0	0	0	0	0	0	0	0	0	0	0	0
030719	12:46:46	12:59:25	758181	5.0.10.0	4_exp_AMP_EVA_AWA_CON	152	Rpleas_acq	Oppo	Lpleas	Bmasked	CS_B	2pleas	distractor1	EVAbeforeCON	AMP_CSpleas	AMP1_masked	6	44	0	0	300	300	0	0	421	46	0	1	0	0	0	1	blank2r.bmp	0	1	GKQX	0	1	blank2r.bmp	79	91	pic91.bmp	199	1	whitenoise_No3.bmp	306	0	0	0	0	0	0	0	0	0	0	0	0	0	0	0	0	0	0	0	0	0	0	0	0	0	0	0	0	0	0	0	0	0	0	0	0	0	0	0
030719	12:46:46	12:59:26	759460	5.0.10.0	4_exp_AMP_EVA_AWA_CON	152	Rpleas_acq	Oppo	Lpleas	Bmasked	CS_B	2pleas	distractor1	EVAbeforeCON	AMP_CSunple	AMP1_masked	6	45	0	0	300	300	0	0	363	46	0	0	0	0	0	1	blank2r.bmp	0	1	BMVZ	0	1	blank2r.bmp	79	145	pic145.bmp	199	1	whitenoise_No3.bmp	306	0	0	0	0	0	0	0	0	0	0	0	0	0	0	0	0	0	0	0	0	0	0	0	0	0	0	0	0	0	0	0	0	0	0	0	0	0	0	0
030719	12:46:46	12:59:28	760793	5.0.10.0	4_exp_AMP_EVA_AWA_CON	152	Rpleas_acq	Oppo	Lpleas	Bmasked	CS_B	2pleas	distractor1	EVAbeforeCON	AMP_CSunple	AMP1_masked	6	46	0	0	300	300	0	0	415	50	0	1	0	0	0	1	blank2r.bmp	0	1	BMVZ	0	1	blank2r.bmp	79	147	pic147.bmp	199	1	whitenoise_No3.bmp	306	0	0	0	0	0	0	0	0	0	0	0	0	0	0	0	0	0	0	0	0	0	0	0	0	0	0	0	0	0	0	0	0	0	0	0	0	0	0	0
030719	12:46:46	12:59:29	762326	5.0.10.0	4_exp_AMP_EVA_AWA_CON	152	Rpleas_acq	Oppo	Lpleas	Bmasked	CS_B	2pleas	distractor1	EVAbeforeCON	AMP_distractor	AMP1_masked	6	47	0	0	300	300	0	0	621	46	0	0	0	0	0	1	blank2r.bmp	0	1	WFPH	0	1	blank2r.bmp	79	55	pic55.bmp	199	1	whitenoise_No3.bmp	306	0	0	0	0	0	0	0	0	0	0	0	0	0	0	0	0	0	0	0	0	0	0	0	0	0	0	0	0	0	0	0	0	0	0	0	0	0	0	0
030719	12:46:46	12:59:31	763832	5.0.10.0	4_exp_AMP_EVA_AWA_CON	152	Rpleas_acq	Oppo	Lpleas	Bmasked	CS_B	2pleas	distractor1	EVAbeforeCON	AMP_CSunple	AMP1_masked	6	48	0	0	300	300	0	0	579	46	0	0	0	0	0	1	blank2r.bmp	0	1	BMVZ	0	1	blank2r.bmp	79	95	pic95.bmp	199	1	whitenoise_No3.bmp	306	0	0	0	0	0	0	0	0	0	0	0	0	0	0	0	0	0	0	0	0	0	0	0	0	0	0	0	0	0	0	0	0	0	0	0	0	0	0	0
030719	12:46:46	12:59:32	765298	5.0.10.0	4_exp_AMP_EVA_AWA_CON	152	Rpleas_acq	Oppo	Lpleas	Bmasked	CS_B	2pleas	distractor1	EVAbeforeCON	AMP_CSpleas	AMP1_masked	6	49	0	0	300	300	0	0	545	50	0	0	0	0	0	1	blank2r.bmp	0	1	GKQX	0	1	blank2r.bmp	79	48	pic48.bmp	199	1	whitenoise_No3.bmp	306	0	0	0	0	0	0	0	0	0	0	0	0	0	0	0	0	0	0	0	0	0	0	0	0	0	0	0	0	0	0	0	0	0	0	0	0	0	0	0
030719	12:46:46	12:59:34	766631	5.0.10.0	4_exp_AMP_EVA_AWA_CON	152	Rpleas_acq	Oppo	Lpleas	Bmasked	CS_B	2pleas	distractor1	EVAbeforeCON	AMP_CSunple	AMP1_masked	6	50	0	0	300	300	0	0	417	46	0	0	0	0	0	1	blank2r.bmp	0	1	BMVZ	0	1	blank2r.bmp	79	132	pic132.bmp	199	1	whitenoise_No3.bmp	306	0	0	0	0	0	0	0	0	0	0	0	0	0	0	0	0	0	0	0	0	0	0	0	0	0	0	0	0	0	0	0	0	0	0	0	0	0	0	0
030719	12:46:46	12:59:35	768310	5.0.10.0	4_exp_AMP_EVA_AWA_CON	152	Rpleas_acq	Oppo	Lpleas	Bmasked	CS_B	2pleas	distractor1	EVAbeforeCON	AMP_CSunple	AMP1_masked	6	51	0	0	300	300	0	0	751	50	0	1	0	0	0	1	blank2r.bmp	0	1	BMVZ	0	1	blank2r.bmp	79	118	pic118.bmp	199	1	whitenoise_No3.bmp	306	0	0	0	0	0	0	0	0	0	0	0	0	0	0	0	0	0	0	0	0	0	0	0	0	0	0	0	0	0	0	0	0	0	0	0	0	0	0	0
030719	12:46:46	12:59:42	775320	5.0.10.0	4_exp_AMP_EVA_AWA_CON	152	Rpleas_acq	Oppo	Lpleas	Bmasked	CS_B	2pleas	distractor1	EVAbeforeCON	AMP_CSunple	AMP23	7	1	0	0	300	300	0	0	962	46	0	0	0	0	0	1	blank2r.bmp	0	1	BMVZ	0	1	blank2r.bmp	79	27	pic27.bmp	199	1	whitenoise_No3.bmp	306	0	0	0	0	0	0	0	0	0	0	0	0	0	0	0	0	0	0	0	0	0	0	0	0	0	0	0	0	0	0	0	0	0	0	0	0	0	0	0
030719	12:46:46	12:59:44	776627	5.0.10.0	4_exp_AMP_EVA_AWA_CON	152	Rpleas_acq	Oppo	Lpleas	Bmasked	CS_B	2pleas	distractor1	EVAbeforeCON	AMP_CSunple	AMP23	7	2	0	0	300	300	0	0	381	46	0	0	0	0	0	1	blank2r.bmp	0	1	BMVZ	0	1	blank2r.bmp	79	9	pic9.bmp	199	1	whitenoise_No3.bmp	306	0	0	0	0	0	0	0	0	0	0	0	0	0	0	0	0	0	0	0	0	0	0	0	0	0	0	0	0	0	0	0	0	0	0	0	0	0	0	0
030719	12:46:46	12:59:45	778159	5.0.10.0	4_exp_AMP_EVA_AWA_CON	152	Rpleas_acq	Oppo	Lpleas	Bmasked	CS_B	2pleas	distractor1	EVAbeforeCON	AMP_CSpleas	AMP23	7	3	0	0	300	300	0	0	602	46	0	1	0	0	0	1	blank2r.bmp	0	1	GKQX	0	1	blank2r.bmp	79	117	pic117.bmp	199	1	whitenoise_No3.bmp	306	0	0	0	0	0	0	0	0	0	0	0	0	0	0	0	0	0	0	0	0	0	0	0	0	0	0	0	0	0	0	0	0	0	0	0	0	0	0	0
030719	12:46:46	12:59:46	779332	5.0.10.0	4_exp_AMP_EVA_AWA_CON	152	Rpleas_acq	Oppo	Lpleas	Bmasked	CS_B	2pleas	distractor1	EVAbeforeCON	AMP_distractor	AMP23	7	4	0	0	300	300	0	0	243	46	0	0	0	0	0	1	blank2r.bmp	0	1	WFPH	0	1	blank2r.bmp	79	129	pic129.bmp	199	1	whitenoise_No3.bmp	306	0	0	0	0	0	0	0	0	0	0	0	0	0	0	0	0	0	0	0	0	0	0	0	0	0	0	0	0	0	0	0	0	0	0	0	0	0	0	0
030719	12:46:46	12:59:48	780518	5.0.10.0	4_exp_AMP_EVA_AWA_CON	152	Rpleas_acq	Oppo	Lpleas	Bmasked	CS_B	2pleas	distractor1	EVAbeforeCON	AMP_CSunple	AMP23	7	5	0	0	300	300	0	0	258	46	0	0	0	0	0	1	blank2r.bmp	0	1	BMVZ	0	1	blank2r.bmp	79	103	pic103.bmp	199	1	whitenoise_No3.bmp	306	0	0	0	0	0	0	0	0	0	0	0	0	0	0	0	0	0	0	0	0	0	0	0	0	0	0	0	0	0	0	0	0	0	0	0	0	0	0	0
030719	12:46:46	12:59:49	781545	5.0.10.0	4_exp_AMP_EVA_AWA_CON	152	Rpleas_acq	Oppo	Lpleas	Bmasked	CS_B	2pleas	distractor1	EVAbeforeCON	AMP_distractor	AMP23	7	6	0	0	300	300	0	0	110	46	0	0	0	0	0	1	blank2r.bmp	0	1	WFPH	0	1	blank2r.bmp	79	37	pic37.bmp	199	1	whitenoise_No3.bmp	306	0	0	0	0	0	0	0	0	0	0	0	0	0	0	0	0	0	0	0	0	0	0	0	0	0	0	0	0	0	0	0	0	0	0	0	0	0	0	0
030719	12:46:46	12:59:50	782824	5.0.10.0	4_exp_AMP_EVA_AWA_CON	152	Rpleas_acq	Oppo	Lpleas	Bmasked	CS_B	2pleas	distractor1	EVAbeforeCON	AMP_CSpleas	AMP23	7	7	0	0	300	300	0	0	351	50	0	0	0	0	0	1	blank2r.bmp	0	1	GKQX	0	1	blank2r.bmp	79	29	pic29.bmp	199	1	whitenoise_No3.bmp	306	0	0	0	0	0	0	0	0	0	0	0	0	0	0	0	0	0	0	0	0	0	0	0	0	0	0	0	0	0	0	0	0	0	0	0	0	0	0	0
030719	12:46:46	12:59:51	784090	5.0.10.0	4_exp_AMP_EVA_AWA_CON	152	Rpleas_acq	Oppo	Lpleas	Bmasked	CS_B	2pleas	distractor1	EVAbeforeCON	AMP_distractor	AMP23	7	8	0	0	300	300	0	0	339	50	0	0	0	0	0	1	blank2r.bmp	0	1	WFPH	0	1	blank2r.bmp	79	25	pic25.bmp	199	1	whitenoise_No3.bmp	306	0	0	0	0	0	0	0	0	0	0	0	0	0	0	0	0	0	0	0	0	0	0	0	0	0	0	0	0	0	0	0	0	0	0	0	0	0	0	0
030719	12:46:46	12:59:52	785463	5.0.10.0	4_exp_AMP_EVA_AWA_CON	152	Rpleas_acq	Oppo	Lpleas	Bmasked	CS_B	2pleas	distractor1	EVAbeforeCON	AMP_CSpleas	AMP23	7	9	0	0	300	300	0	0	450	46	0	1	0	0	0	1	blank2r.bmp	0	1	GKQX	0	1	blank2r.bmp	79	140	pic140.bmp	199	1	whitenoise_No3.bmp	306	0	0	0	0	0	0	0	0	0	0	0	0	0	0	0	0	0	0	0	0	0	0	0	0	0	0	0	0	0	0	0	0	0	0	0	0	0	0	0
030719	12:46:46	12:59:54	787049	5.0.10.0	4_exp_AMP_EVA_AWA_CON	152	Rpleas_acq	Oppo	Lpleas	Bmasked	CS_B	2pleas	distractor1	EVAbeforeCON	AMP_CSunple	AMP23	7	10	0	0	300	300	0	0	656	50	0	1	0	0	0	1	blank2r.bmp	0	1	BMVZ	0	1	blank2r.bmp	79	22	pic22.bmp	199	1	whitenoise_No3.bmp	306	0	0	0	0	0	0	0	0	0	0	0	0	0	0	0	0	0	0	0	0	0	0	0	0	0	0	0	0	0	0	0	0	0	0	0	0	0	0	0
030719	12:46:46	12:59:55	788342	5.0.10.0	4_exp_AMP_EVA_AWA_CON	152	Rpleas_acq	Oppo	Lpleas	Bmasked	CS_B	2pleas	distractor1	EVAbeforeCON	AMP_CSunple	AMP23	7	11	0	0	300	300	0	0	359	46	0	0	0	0	0	1	blank2r.bmp	0	1	BMVZ	0	1	blank2r.bmp	79	63	pic63.bmp	199	1	whitenoise_No3.bmp	306	0	0	0	0	0	0	0	0	0	0	0	0	0	0	0	0	0	0	0	0	0	0	0	0	0	0	0	0	0	0	0	0	0	0	0	0	0	0	0
030719	12:46:46	12:59:57	790034	5.0.10.0	4_exp_AMP_EVA_AWA_CON	152	Rpleas_acq	Oppo	Lpleas	Bmasked	CS_B	2pleas	distractor1	EVAbeforeCON	AMP_CSpleas	AMP23	7	12	0	0	300	300	0	0	777	46	0	1	0	0	0	1	blank2r.bmp	0	1	GKQX	0	1	blank2r.bmp	79	58	pic58.bmp	199	1	whitenoise_No3.bmp	306	0	0	0	0	0	0	0	0	0	0	0	0	0	0	0	0	0	0	0	0	0	0	0	0	0	0	0	0	0	0	0	0	0	0	0	0	0	0	0
030719	12:46:46	12:59:58	791394	5.0.10.0	4_exp_AMP_EVA_AWA_CON	152	Rpleas_acq	Oppo	Lpleas	Bmasked	CS_B	2pleas	distractor1	EVAbeforeCON	AMP_CSpleas	AMP23	7	13	0	0	300	300	0	0	449	50	0	0	0	0	0	1	blank2r.bmp	0	1	GKQX	0	1	blank2r.bmp	79	84	pic84.bmp	199	1	whitenoise_No3.bmp	306	0	0	0	0	0	0	0	0	0	0	0	0	0	0	0	0	0	0	0	0	0	0	0	0	0	0	0	0	0	0	0	0	0	0	0	0	0	0	0
030719	12:46:46	13:00:00	792887	5.0.10.0	4_exp_AMP_EVA_AWA_CON	152	Rpleas_acq	Oppo	Lpleas	Bmasked	CS_B	2pleas	distractor1	EVAbeforeCON	AMP_CSunple	AMP23	7	14	0	0	300	300	0	0	571	46	0	0	0	0	0	1	blank2r.bmp	0	1	BMVZ	0	1	blank2r.bmp	79	119	pic119.bmp	199	1	whitenoise_No3.bmp	306	0	0	0	0	0	0	0	0	0	0	0	0	0	0	0	0	0	0	0	0	0	0	0	0	0	0	0	0	0	0	0	0	0	0	0	0	0	0	0
030719	12:46:46	13:00:01	794233	5.0.10.0	4_exp_AMP_EVA_AWA_CON	152	Rpleas_acq	Oppo	Lpleas	Bmasked	CS_B	2pleas	distractor1	EVAbeforeCON	AMP_CSunple	AMP23	7	15	0	0	300	300	0	0	420	46	0	0	0	0	0	1	blank2r.bmp	0	1	BMVZ	0	1	blank2r.bmp	79	123	pic123.bmp	199	1	whitenoise_No3.bmp	306	0	0	0	0	0	0	0	0	0	0	0	0	0	0	0	0	0	0	0	0	0	0	0	0	0	0	0	0	0	0	0	0	0	0	0	0	0	0	0
030719	12:46:46	13:00:04	796872	5.0.10.0	4_exp_AMP_EVA_AWA_CON	152	Rpleas_acq	Oppo	Lpleas	Bmasked	CS_B	2pleas	distractor1	EVAbeforeCON	AMP_CSpleas	AMP23	7	16	0	0	300	300	0	0	1719	50	0	0	0	0	0	1	blank2r.bmp	0	1	GKQX	0	1	blank2r.bmp	79	73	pic73.bmp	199	1	whitenoise_No3.bmp	306	0	0	0	0	0	0	0	0	0	0	0	0	0	0	0	0	0	0	0	0	0	0	0	0	0	0	0	0	0	0	0	0	0	0	0	0	0	0	0
030719	12:46:46	13:00:06	799351	5.0.10.0	4_exp_AMP_EVA_AWA_CON	152	Rpleas_acq	Oppo	Lpleas	Bmasked	CS_B	2pleas	distractor1	EVAbeforeCON	AMP_CSunple	AMP23	7	17	0	0	300	300	0	0	1561	46	0	0	0	0	0	1	blank2r.bmp	0	1	BMVZ	0	1	blank2r.bmp	79	72	pic72.bmp	199	1	whitenoise_No3.bmp	306	0	0	0	0	0	0	0	0	0	0	0	0	0	0	0	0	0	0	0	0	0	0	0	0	0	0	0	0	0	0	0	0	0	0	0	0	0	0	0
030719	12:46:46	13:00:08	800897	5.0.10.0	4_exp_AMP_EVA_AWA_CON	152	Rpleas_acq	Oppo	Lpleas	Bmasked	CS_B	2pleas	distractor1	EVAbeforeCON	AMP_CSpleas	AMP23	7	18	0	0	300	300	0	0	634	46	0	1	0	0	0	1	blank2r.bmp	0	1	GKQX	0	1	blank2r.bmp	79	19	pic19.bmp	199	1	whitenoise_No3.bmp	306	0	0	0	0	0	0	0	0	0	0	0	0	0	0	0	0	0	0	0	0	0	0	0	0	0	0	0	0	0	0	0	0	0	0	0	0	0	0	0
030719	12:46:46	13:00:09	802256	5.0.10.0	4_exp_AMP_EVA_AWA_CON	152	Rpleas_acq	Oppo	Lpleas	Bmasked	CS_B	2pleas	distractor1	EVAbeforeCON	AMP_CSpleas	AMP23	7	19	0	0	300	300	0	0	434	46	0	1	0	0	0	1	blank2r.bmp	0	1	GKQX	0	1	blank2r.bmp	79	88	pic88.bmp	199	1	whitenoise_No3.bmp	306	0	0	0	0	0	0	0	0	0	0	0	0	0	0	0	0	0	0	0	0	0	0	0	0	0	0	0	0	0	0	0	0	0	0	0	0	0	0	0
030719	12:46:46	13:00:11	803589	5.0.10.0	4_exp_AMP_EVA_AWA_CON	152	Rpleas_acq	Oppo	Lpleas	Bmasked	CS_B	2pleas	distractor1	EVAbeforeCON	AMP_CSunple	AMP23	7	20	0	0	300	300	0	0	399	50	0	1	0	0	0	1	blank2r.bmp	0	1	BMVZ	0	1	blank2r.bmp	79	44	pic44.bmp	199	1	whitenoise_No3.bmp	306	0	0	0	0	0	0	0	0	0	0	0	0	0	0	0	0	0	0	0	0	0	0	0	0	0	0	0	0	0	0	0	0	0	0	0	0	0	0	0
030719	12:46:46	13:00:12	805002	5.0.10.0	4_exp_AMP_EVA_AWA_CON	152	Rpleas_acq	Oppo	Lpleas	Bmasked	CS_B	2pleas	distractor1	EVAbeforeCON	AMP_CSunple	AMP23	7	21	0	0	300	300	0	0	480	46	0	0	0	0	0	1	blank2r.bmp	0	1	BMVZ	0	1	blank2r.bmp	79	152	pic152.bmp	199	1	whitenoise_No3.bmp	306	0	0	0	0	0	0	0	0	0	0	0	0	0	0	0	0	0	0	0	0	0	0	0	0	0	0	0	0	0	0	0	0	0	0	0	0	0	0	0
030719	12:46:46	13:00:13	806361	5.0.10.0	4_exp_AMP_EVA_AWA_CON	152	Rpleas_acq	Oppo	Lpleas	Bmasked	CS_B	2pleas	distractor1	EVAbeforeCON	AMP_CSunple	AMP23	7	22	0	0	300	300	0	0	448	46	0	0	0	0	0	1	blank2r.bmp	0	1	BMVZ	0	1	blank2r.bmp	79	135	pic135.bmp	199	1	whitenoise_No3.bmp	306	0	0	0	0	0	0	0	0	0	0	0	0	0	0	0	0	0	0	0	0	0	0	0	0	0	0	0	0	0	0	0	0	0	0	0	0	0	0	0
030719	12:46:46	13:00:15	807600	5.0.10.0	4_exp_AMP_EVA_AWA_CON	152	Rpleas_acq	Oppo	Lpleas	Bmasked	CS_B	2pleas	distractor1	EVAbeforeCON	AMP_CSunple	AMP23	7	23	0	0	300	300	0	0	316	46	0	0	0	0	0	1	blank2r.bmp	0	1	BMVZ	0	1	blank2r.bmp	79	69	pic69.bmp	199	1	whitenoise_No3.bmp	306	0	0	0	0	0	0	0	0	0	0	0	0	0	0	0	0	0	0	0	0	0	0	0	0	0	0	0	0	0	0	0	0	0	0	0	0	0	0	0
030719	12:46:46	13:00:16	808907	5.0.10.0	4_exp_AMP_EVA_AWA_CON	152	Rpleas_acq	Oppo	Lpleas	Bmasked	CS_B	2pleas	distractor1	EVAbeforeCON	AMP_distractor	AMP23	7	24	0	0	300	300	0	0	396	46	0	0	0	0	0	1	blank2r.bmp	0	1	WFPH	0	1	blank2r.bmp	79	46	pic46.bmp	199	1	whitenoise_No3.bmp	306	0	0	0	0	0	0	0	0	0	0	0	0	0	0	0	0	0	0	0	0	0	0	0	0	0	0	0	0	0	0	0	0	0	0	0	0	0	0	0
030719	12:46:46	13:00:17	809986	5.0.10.0	4_exp_AMP_EVA_AWA_CON	152	Rpleas_acq	Oppo	Lpleas	Bmasked	CS_B	2pleas	distractor1	EVAbeforeCON	AMP_distractor	AMP23	7	25	0	0	300	300	0	0	150	46	0	0	0	0	0	1	blank2r.bmp	0	1	WFPH	0	1	blank2r.bmp	79	3	pic3.bmp	199	1	whitenoise_No3.bmp	306	0	0	0	0	0	0	0	0	0	0	0	0	0	0	0	0	0	0	0	0	0	0	0	0	0	0	0	0	0	0	0	0	0	0	0	0	0	0	0
030719	12:46:46	13:00:18	810919	5.0.10.0	4_exp_AMP_EVA_AWA_CON	152	Rpleas_acq	Oppo	Lpleas	Bmasked	CS_B	2pleas	distractor1	EVAbeforeCON	AMP_CSpleas	AMP23	7	26	0	0	300	300	0	0	7	50	0	0	0	0	0	1	blank2r.bmp	0	1	GKQX	0	1	blank2r.bmp	79	120	pic120.bmp	199	1	whitenoise_No3.bmp	306	0	0	0	0	0	0	0	0	0	0	0	0	0	0	0	0	0	0	0	0	0	0	0	0	0	0	0	0	0	0	0	0	0	0	0	0	0	0	0
030719	12:46:46	13:00:19	811972	5.0.10.0	4_exp_AMP_EVA_AWA_CON	152	Rpleas_acq	Oppo	Lpleas	Bmasked	CS_B	2pleas	distractor1	EVAbeforeCON	AMP_distractor	AMP23	7	27	0	0	300	300	0	0	121	46	0	0	0	0	0	1	blank2r.bmp	0	1	WFPH	0	1	blank2r.bmp	79	89	pic89.bmp	199	1	whitenoise_No3.bmp	306	0	0	0	0	0	0	0	0	0	0	0	0	0	0	0	0	0	0	0	0	0	0	0	0	0	0	0	0	0	0	0	0	0	0	0	0	0	0	0
030719	12:46:46	13:00:20	813278	5.0.10.0	4_exp_AMP_EVA_AWA_CON	152	Rpleas_acq	Oppo	Lpleas	Bmasked	CS_B	2pleas	distractor1	EVAbeforeCON	AMP_CSpleas	AMP23	7	28	0	0	300	300	0	0	390	50	0	0	0	0	0	1	blank2r.bmp	0	1	GKQX	0	1	blank2r.bmp	79	5	pic5.bmp	199	1	whitenoise_No3.bmp	306	0	0	0	0	0	0	0	0	0	0	0	0	0	0	0	0	0	0	0	0	0	0	0	0	0	0	0	0	0	0	0	0	0	0	0	0	0	0	0
030719	12:46:46	13:00:22	814611	5.0.10.0	4_exp_AMP_EVA_AWA_CON	152	Rpleas_acq	Oppo	Lpleas	Bmasked	CS_B	2pleas	distractor1	EVAbeforeCON	AMP_distractor	AMP23	7	29	0	0	300	300	0	0	418	50	0	0	0	0	0	1	blank2r.bmp	0	1	WFPH	0	1	blank2r.bmp	79	4	pic4.bmp	199	1	whitenoise_No3.bmp	306	0	0	0	0	0	0	0	0	0	0	0	0	0	0	0	0	0	0	0	0	0	0	0	0	0	0	0	0	0	0	0	0	0	0	0	0	0	0	0
030719	12:46:46	13:00:23	815850	5.0.10.0	4_exp_AMP_EVA_AWA_CON	152	Rpleas_acq	Oppo	Lpleas	Bmasked	CS_B	2pleas	distractor1	EVAbeforeCON	AMP_CSpleas	AMP23	7	30	0	0	300	300	0	0	323	46	0	1	0	0	0	1	blank2r.bmp	0	1	GKQX	0	1	blank2r.bmp	79	35	pic35.bmp	199	1	whitenoise_No3.bmp	306	0	0	0	0	0	0	0	0	0	0	0	0	0	0	0	0	0	0	0	0	0	0	0	0	0	0	0	0	0	0	0	0	0	0	0	0	0	0	0
030719	12:46:46	13:00:24	817210	5.0.10.0	4_exp_AMP_EVA_AWA_CON	152	Rpleas_acq	Oppo	Lpleas	Bmasked	CS_B	2pleas	distractor1	EVAbeforeCON	AMP_distractor	AMP23	7	31	0	0	300	300	0	0	438	50	0	0	0	0	0	1	blank2r.bmp	0	1	WFPH	0	1	blank2r.bmp	79	142	pic142.bmp	199	1	whitenoise_No3.bmp	306	0	0	0	0	0	0	0	0	0	0	0	0	0	0	0	0	0	0	0	0	0	0	0	0	0	0	0	0	0	0	0	0	0	0	0	0	0	0	0
030719	12:46:46	13:00:26	818503	5.0.10.0	4_exp_AMP_EVA_AWA_CON	152	Rpleas_acq	Oppo	Lpleas	Bmasked	CS_B	2pleas	distractor1	EVAbeforeCON	AMP_CSunple	AMP23	7	32	0	0	300	300	0	0	374	46	0	0	0	0	0	1	blank2r.bmp	0	1	BMVZ	0	1	blank2r.bmp	79	41	pic41.bmp	199	1	whitenoise_No3.bmp	306	0	0	0	0	0	0	0	0	0	0	0	0	0	0	0	0	0	0	0	0	0	0	0	0	0	0	0	0	0	0	0	0	0	0	0	0	0	0	0
030719	12:46:46	13:00:27	819689	5.0.10.0	4_exp_AMP_EVA_AWA_CON	152	Rpleas_acq	Oppo	Lpleas	Bmasked	CS_B	2pleas	distractor1	EVAbeforeCON	AMP_distractor	AMP23	7	33	0	0	300	300	0	0	262	46	0	0	0	0	0	1	blank2r.bmp	0	1	WFPH	0	1	blank2r.bmp	79	11	pic11.bmp	199	1	whitenoise_No3.bmp	306	0	0	0	0	0	0	0	0	0	0	0	0	0	0	0	0	0	0	0	0	0	0	0	0	0	0	0	0	0	0	0	0	0	0	0	0	0	0	0
030719	12:46:46	13:00:28	820875	5.0.10.0	4_exp_AMP_EVA_AWA_CON	152	Rpleas_acq	Oppo	Lpleas	Bmasked	CS_B	2pleas	distractor1	EVAbeforeCON	AMP_CSpleas	AMP23	7	34	0	0	300	300	0	0	254	46	0	1	0	0	0	1	blank2r.bmp	0	1	GKQX	0	1	blank2r.bmp	79	10	pic10.bmp	199	1	whitenoise_No3.bmp	306	0	0	0	0	0	0	0	0	0	0	0	0	0	0	0	0	0	0	0	0	0	0	0	0	0	0	0	0	0	0	0	0	0	0	0	0	0	0	0
030719	12:46:46	13:00:29	822061	5.0.10.0	4_exp_AMP_EVA_AWA_CON	152	Rpleas_acq	Oppo	Lpleas	Bmasked	CS_B	2pleas	distractor1	EVAbeforeCON	AMP_CSunple	AMP23	7	35	0	0	300	300	0	0	274	46	0	0	0	0	0	1	blank2r.bmp	0	1	BMVZ	0	1	blank2r.bmp	79	146	pic146.bmp	199	1	whitenoise_No3.bmp	306	0	0	0	0	0	0	0	0	0	0	0	0	0	0	0	0	0	0	0	0	0	0	0	0	0	0	0	0	0	0	0	0	0	0	0	0	0	0	0
