date	time	script.currenttime	script.elapsedtime	build	script.currentexpt	subject	expressions.LRpleas_acq	expressions.SameOppo	expressions.condition_Lpleas	expressions.ABmasked	expressions.conditionCS_A	expressions.condition_1pleas	expressions.condition_distractor_AMP	expressions.AWACON_AMPEVA_first	trialcode	blockcode	blocknum	trialnum	windowcenter	inwindow	pretrialpause	posttrialpause	trialduration	trialtimeout	latency	response	expressions.correctedscore	correct	values.vis_performance	values.vis_rating_sum	values.vis_rating_mean	stimulusnumber1	stimulusitem1	stimulusonset1	stimulusnumber2	stimulusitem2	stimulusonset2	stimulusnumber3	stimulusitem3	stimulusonset3	stimulusnumber4	stimulusitem4	stimulusonset4	stimulusnumber5	stimulusitem5	stimulusonset5	stimulusnumber6	stimulusitem6	stimulusonset6	stimulusnumber7	stimulusitem7	stimulusonset7	stimulusnumber8	stimulusitem8	stimulusonset8	stimulusnumber9	stimulusitem9	stimulusonset9	stimulusnumber10	stimulusitem10	stimulusonset10	stimulusnumber11	stimulusitem11	stimulusonset11	stimulusnumber12	stimulusitem12	stimulusonset12	stimulusnumber13	stimulusitem13	stimulusonset13	stimulusnumber14	stimulusitem14	stimulusonset14	stimulusnumber15	stimulusitem15	stimulusonset15	stimulusnumber16	stimulusitem16	stimulusonset16	stimulusnumber17	stimulusitem17	stimulusonset17	stimulusnumber18	stimulusitem18	stimulusonset18
021219	14:00:34	14:02:02	87416	5.0.10.0	4_exp_EVA_AMP_AWA_CON	117	Rpleas_acq	Oppo	Rpleas	Amasked	CS_A	1pleas	distractor2	EVAbeforeCON	acq_new_unple_masked	acq1_masked	1	1	0	0	300	300	0	0	959	46	0	1	0	0	0	1	blank2r.bmp	0	1	+	0	1	B1r.bmp	492	1	blank2r.bmp	786	8	C4r.bmp	786	1	blank2r.bmp	866	5	gierig	866	0	0	0	0	0	0	0	0	0	0	0	0	0	0	0	0	0	0	0	0	0	0	0	0	0	0	0	0	0	0	0	0	0
021219	14:00:34	14:02:04	89628	5.0.10.0	4_exp_EVA_AMP_AWA_CON	117	Rpleas_acq	Oppo	Rpleas	Amasked	CS_A	2pleas	distractor2	EVAbeforeCON	acq_US_unple_masked	acq1_masked	1	2	0	0	300	300	0	0	730	46	0	1	0	0	0	1	blank2r.bmp	0	1	+	0	5	C1r.bmp	492	1	blank2r.bmp	786	1	CPLW	786	1	blank2r.bmp	866	5	krise	866	0	0	0	0	0	0	0	0	0	0	0	0	0	0	0	0	0	0	0	0	0	0	0	0	0	0	0	0	0	0	0	0	0
021219	14:00:34	14:02:06	91801	5.0.10.0	4_exp_EVA_AMP_AWA_CON	117	Rpleas_acq	Oppo	Rpleas	Amasked	CS_A	2pleas	distractor2	EVAbeforeCON	acq_new_unple_masked	acq1_masked	1	3	0	0	300	300	0	0	685	46	0	1	0	0	0	1	blank2r.bmp	0	1	+	0	4	B4r.bmp	492	1	blank2r.bmp	786	6	C2r.bmp	786	1	blank2r.bmp	866	1	sterben	866	0	0	0	0	0	0	0	0	0	0	0	0	0	0	0	0	0	0	0	0	0	0	0	0	0	0	0	0	0	0	0	0	0
021219	14:00:34	14:02:09	94133	5.0.10.0	4_exp_EVA_AMP_AWA_CON	117	Rpleas_acq	Oppo	Rpleas	Amasked	CS_A	2pleas	distractor2	EVAbeforeCON	acq_US_pleas_masked	acq1_masked	1	4	0	0	300	300	0	0	864	50	0	1	0	0	0	1	blank2r.bmp	0	1	+	0	2	B2r.bmp	492	1	blank2r.bmp	786	1	DHJF	786	1	blank2r.bmp	866	4	anregung	866	0	0	0	0	0	0	0	0	0	0	0	0	0	0	0	0	0	0	0	0	0	0	0	0	0	0	0	0	0	0	0	0	0
021219	14:00:34	14:02:11	96319	5.0.10.0	4_exp_EVA_AMP_AWA_CON	117	Rpleas_acq	Oppo	Rpleas	Amasked	CS_A	2pleas	distractor2	EVAbeforeCON	acq_US_unple_masked	acq1_masked	1	5	0	0	300	300	0	0	692	46	0	1	0	0	0	1	blank2r.bmp	0	1	+	0	6	C2r.bmp	492	1	blank2r.bmp	786	1	CPLW	786	1	blank2r.bmp	866	1	geizig	866	0	0	0	0	0	0	0	0	0	0	0	0	0	0	0	0	0	0	0	0	0	0	0	0	0	0	0	0	0	0	0	0	0
021219	14:00:34	14:02:13	98518	5.0.10.0	4_exp_EVA_AMP_AWA_CON	117	Rpleas_acq	Oppo	Rpleas	Amasked	CS_A	2pleas	distractor2	EVAbeforeCON	acq_new_pleas_masked	acq1_masked	1	6	0	0	300	300	0	0	724	50	0	1	0	0	0	1	blank2r.bmp	0	1	+	0	8	C4r.bmp	492	1	blank2r.bmp	786	7	C3r.bmp	786	1	blank2r.bmp	866	5	gütig	866	0	0	0	0	0	0	0	0	0	0	0	0	0	0	0	0	0	0	0	0	0	0	0	0	0	0	0	0	0	0	0	0	0
021219	14:00:34	14:02:16	101237	5.0.10.0	4_exp_EVA_AMP_AWA_CON	117	Rpleas_acq	Oppo	Rpleas	Amasked	CS_A	2pleas	distractor2	EVAbeforeCON	acq_new_unple_masked	acq1_masked	1	7	0	0	300	300	0	0	1224	46	0	1	0	0	0	1	blank2r.bmp	0	1	+	0	7	C3r.bmp	492	1	blank2r.bmp	786	2	B2r.bmp	786	1	blank2r.bmp	866	3	bange	866	0	0	0	0	0	0	0	0	0	0	0	0	0	0	0	0	0	0	0	0	0	0	0	0	0	0	0	0	0	0	0	0	0
021219	14:00:34	14:02:18	103436	5.0.10.0	4_exp_EVA_AMP_AWA_CON	117	Rpleas_acq	Oppo	Rpleas	Amasked	CS_A	2pleas	distractor2	EVAbeforeCON	acq_US_pleas_masked	acq1_masked	1	8	0	0	300	300	0	0	713	50	0	1	0	0	0	1	blank2r.bmp	0	1	+	0	3	B3r.bmp	492	1	blank2r.bmp	786	1	DHJF	786	1	blank2r.bmp	866	1	gesittet	866	0	0	0	0	0	0	0	0	0	0	0	0	0	0	0	0	0	0	0	0	0	0	0	0	0	0	0	0	0	0	0	0	0
021219	14:00:34	14:02:20	105635	5.0.10.0	4_exp_EVA_AMP_AWA_CON	117	Rpleas_acq	Oppo	Rpleas	Amasked	CS_A	2pleas	distractor2	EVAbeforeCON	acq_new_pleas_masked	acq1_masked	1	9	0	0	300	300	0	0	716	50	0	1	0	0	0	1	blank2r.bmp	0	1	+	0	1	B1r.bmp	492	1	blank2r.bmp	786	5	C1r.bmp	786	1	blank2r.bmp	866	4	engagiert	866	0	0	0	0	0	0	0	0	0	0	0	0	0	0	0	0	0	0	0	0	0	0	0	0	0	0	0	0	0	0	0	0	0
021219	14:00:34	14:02:22	107927	5.0.10.0	4_exp_EVA_AMP_AWA_CON	117	Rpleas_acq	Oppo	Rpleas	Amasked	CS_A	2pleas	distractor2	EVAbeforeCON	acq_US_pleas_masked	acq1_masked	1	10	0	0	300	300	0	0	801	50	0	1	0	0	0	1	blank2r.bmp	0	1	+	0	2	B2r.bmp	492	1	blank2r.bmp	786	1	DHJF	786	1	blank2r.bmp	866	2	vergnügt	866	0	0	0	0	0	0	0	0	0	0	0	0	0	0	0	0	0	0	0	0	0	0	0	0	0	0	0	0	0	0	0	0	0
021219	14:00:34	14:02:25	110153	5.0.10.0	4_exp_EVA_AMP_AWA_CON	117	Rpleas_acq	Oppo	Rpleas	Amasked	CS_A	2pleas	distractor2	EVAbeforeCON	acq_US_unple_masked	acq1_masked	1	11	0	0	300	300	0	0	738	46	0	1	0	0	0	1	blank2r.bmp	0	1	+	0	8	C4r.bmp	492	1	blank2r.bmp	786	1	CPLW	786	1	blank2r.bmp	866	6	versagen	866	0	0	0	0	0	0	0	0	0	0	0	0	0	0	0	0	0	0	0	0	0	0	0	0	0	0	0	0	0	0	0	0	0
021219	14:00:34	14:02:27	112259	5.0.10.0	4_exp_EVA_AMP_AWA_CON	117	Rpleas_acq	Oppo	Rpleas	Amasked	CS_A	2pleas	distractor2	EVAbeforeCON	acq_new_pleas_masked	acq1_masked	1	12	0	0	300	300	0	0	637	50	0	1	0	0	0	1	blank2r.bmp	0	1	+	0	7	C3r.bmp	492	1	blank2r.bmp	786	4	B4r.bmp	786	1	blank2r.bmp	866	2	träumen	866	0	0	0	0	0	0	0	0	0	0	0	0	0	0	0	0	0	0	0	0	0	0	0	0	0	0	0	0	0	0	0	0	0
021219	14:00:34	14:02:29	114338	5.0.10.0	4_exp_EVA_AMP_AWA_CON	117	Rpleas_acq	Oppo	Rpleas	Amasked	CS_A	2pleas	distractor2	EVAbeforeCON	acq_new_pleas_masked	acq1_masked	1	13	0	0	300	300	0	0	594	50	0	1	0	0	0	1	blank2r.bmp	0	1	+	0	6	C2r.bmp	492	1	blank2r.bmp	786	1	B1r.bmp	786	1	blank2r.bmp	866	1	sonnig	866	0	0	0	0	0	0	0	0	0	0	0	0	0	0	0	0	0	0	0	0	0	0	0	0	0	0	0	0	0	0	0	0	0
021219	14:00:34	14:02:31	116644	5.0.10.0	4_exp_EVA_AMP_AWA_CON	117	Rpleas_acq	Oppo	Rpleas	Amasked	CS_A	2pleas	distractor2	EVAbeforeCON	acq_US_pleas_masked	acq1_masked	1	14	0	0	300	300	0	0	812	50	0	1	0	0	0	1	blank2r.bmp	0	1	+	0	4	B4r.bmp	492	1	blank2r.bmp	786	1	DHJF	786	1	blank2r.bmp	866	6	vertrauen	866	0	0	0	0	0	0	0	0	0	0	0	0	0	0	0	0	0	0	0	0	0	0	0	0	0	0	0	0	0	0	0	0	0
021219	14:00:34	14:02:33	119096	5.0.10.0	4_exp_EVA_AMP_AWA_CON	117	Rpleas_acq	Oppo	Rpleas	Amasked	CS_A	2pleas	distractor2	EVAbeforeCON	acq_new_unple_masked	acq1_masked	1	15	0	0	300	300	0	0	972	46	0	1	0	0	0	1	blank2r.bmp	0	1	+	0	3	B3r.bmp	492	1	blank2r.bmp	786	3	B3r.bmp	786	1	blank2r.bmp	866	4	engstirnig	866	0	0	0	0	0	0	0	0	0	0	0	0	0	0	0	0	0	0	0	0	0	0	0	0	0	0	0	0	0	0	0	0	0
021219	14:00:34	14:02:36	121282	5.0.10.0	4_exp_EVA_AMP_AWA_CON	117	Rpleas_acq	Oppo	Rpleas	Amasked	CS_A	2pleas	distractor2	EVAbeforeCON	acq_new_pleas_masked	acq1_masked	1	16	0	0	300	300	0	0	718	50	0	1	0	0	0	1	blank2r.bmp	0	1	+	0	5	C1r.bmp	492	1	blank2r.bmp	786	2	B2r.bmp	786	1	blank2r.bmp	866	6	kreativ	866	0	0	0	0	0	0	0	0	0	0	0	0	0	0	0	0	0	0	0	0	0	0	0	0	0	0	0	0	0	0	0	0	0
021219	14:00:34	14:02:38	123321	5.0.10.0	4_exp_EVA_AMP_AWA_CON	117	Rpleas_acq	Oppo	Rpleas	Amasked	CS_A	2pleas	distractor2	EVAbeforeCON	acq_US_unple_masked	acq1_masked	1	17	0	0	300	300	0	0	547	46	0	1	0	0	0	1	blank2r.bmp	0	1	+	0	3	B3r.bmp	492	1	blank2r.bmp	786	1	CPLW	786	1	blank2r.bmp	866	2	verbissen	866	0	0	0	0	0	0	0	0	0	0	0	0	0	0	0	0	0	0	0	0	0	0	0	0	0	0	0	0	0	0	0	0	0
021219	14:00:34	14:02:40	125467	5.0.10.0	4_exp_EVA_AMP_AWA_CON	117	Rpleas_acq	Oppo	Rpleas	Amasked	CS_A	2pleas	distractor2	EVAbeforeCON	acq_US_unple_masked	acq1_masked	1	18	0	0	300	300	0	0	672	46	0	1	0	0	0	1	blank2r.bmp	0	1	+	0	1	B1r.bmp	492	1	blank2r.bmp	786	1	CPLW	786	1	blank2r.bmp	866	3	gemein	866	0	0	0	0	0	0	0	0	0	0	0	0	0	0	0	0	0	0	0	0	0	0	0	0	0	0	0	0	0	0	0	0	0
021219	14:00:34	14:02:42	127826	5.0.10.0	4_exp_EVA_AMP_AWA_CON	117	Rpleas_acq	Oppo	Rpleas	Amasked	CS_A	2pleas	distractor2	EVAbeforeCON	acq_new_pleas_masked	acq1_masked	1	19	0	0	300	300	0	0	891	50	0	1	0	0	0	1	blank2r.bmp	0	1	+	0	6	C2r.bmp	492	1	blank2r.bmp	786	3	B3r.bmp	786	1	blank2r.bmp	866	3	besonnen	866	0	0	0	0	0	0	0	0	0	0	0	0	0	0	0	0	0	0	0	0	0	0	0	0	0	0	0	0	0	0	0	0	0
021219	14:00:34	14:02:44	129931	5.0.10.0	4_exp_EVA_AMP_AWA_CON	117	Rpleas_acq	Oppo	Rpleas	Amasked	CS_A	2pleas	distractor2	EVAbeforeCON	acq_US_pleas_masked	acq1_masked	1	20	0	0	300	300	0	0	621	50	0	1	0	0	0	1	blank2r.bmp	0	1	+	0	7	C3r.bmp	492	1	blank2r.bmp	786	1	DHJF	786	1	blank2r.bmp	866	5	kuss	866	0	0	0	0	0	0	0	0	0	0	0	0	0	0	0	0	0	0	0	0	0	0	0	0	0	0	0	0	0	0	0	0	0
021219	14:00:34	14:02:46	132050	5.0.10.0	4_exp_EVA_AMP_AWA_CON	117	Rpleas_acq	Oppo	Rpleas	Amasked	CS_A	2pleas	distractor2	EVAbeforeCON	acq_US_pleas_masked	acq1_masked	1	21	0	0	300	300	0	0	632	50	0	1	0	0	0	1	blank2r.bmp	0	1	+	0	2	B2r.bmp	492	1	blank2r.bmp	786	1	DHJF	786	1	blank2r.bmp	866	3	genießen	866	0	0	0	0	0	0	0	0	0	0	0	0	0	0	0	0	0	0	0	0	0	0	0	0	0	0	0	0	0	0	0	0	0
021219	14:00:34	14:02:49	134249	5.0.10.0	4_exp_EVA_AMP_AWA_CON	117	Rpleas_acq	Oppo	Rpleas	Amasked	CS_A	2pleas	distractor2	EVAbeforeCON	acq_new_unple_masked	acq1_masked	1	22	0	0	300	300	0	0	724	46	0	1	0	0	0	1	blank2r.bmp	0	1	+	0	8	C4r.bmp	492	1	blank2r.bmp	786	5	C1r.bmp	786	1	blank2r.bmp	866	2	töten	866	0	0	0	0	0	0	0	0	0	0	0	0	0	0	0	0	0	0	0	0	0	0	0	0	0	0	0	0	0	0	0	0	0
021219	14:00:34	14:02:51	136582	5.0.10.0	4_exp_EVA_AMP_AWA_CON	117	Rpleas_acq	Oppo	Rpleas	Amasked	CS_A	2pleas	distractor2	EVAbeforeCON	acq_US_unple_masked	acq1_masked	1	23	0	0	300	300	0	0	863	46	0	1	0	0	0	1	blank2r.bmp	0	1	+	0	4	B4r.bmp	492	1	blank2r.bmp	786	1	CPLW	786	1	blank2r.bmp	866	4	ausrottung	866	0	0	0	0	0	0	0	0	0	0	0	0	0	0	0	0	0	0	0	0	0	0	0	0	0	0	0	0	0	0	0	0	0
021219	14:00:34	14:02:53	138674	5.0.10.0	4_exp_EVA_AMP_AWA_CON	117	Rpleas_acq	Oppo	Rpleas	Amasked	CS_A	2pleas	distractor2	EVAbeforeCON	acq_new_unple_masked	acq1_masked	1	24	0	0	300	300	0	0	607	46	0	1	0	0	0	1	blank2r.bmp	0	1	+	0	5	C1r.bmp	492	1	blank2r.bmp	786	4	B4r.bmp	786	1	blank2r.bmp	866	6	krank	866	0	0	0	0	0	0	0	0	0	0	0	0	0	0	0	0	0	0	0	0	0	0	0	0	0	0	0	0	0	0	0	0	0
021219	14:00:34	14:02:55	140980	5.0.10.0	4_exp_EVA_AMP_AWA_CON	117	Rpleas_acq	Oppo	Rpleas	Amasked	CS_A	2pleas	distractor2	EVAbeforeCON	acq_new_unple_masked	acq1_masked	1	25	0	0	300	300	0	0	814	46	0	1	0	0	0	1	blank2r.bmp	0	1	+	0	2	B2r.bmp	492	1	blank2r.bmp	786	1	B1r.bmp	786	1	blank2r.bmp	866	4	engstirnig	866	0	0	0	0	0	0	0	0	0	0	0	0	0	0	0	0	0	0	0	0	0	0	0	0	0	0	0	0	0	0	0	0	0
021219	14:00:34	14:02:57	143086	5.0.10.0	4_exp_EVA_AMP_AWA_CON	117	Rpleas_acq	Oppo	Rpleas	Amasked	CS_A	2pleas	distractor2	EVAbeforeCON	acq_US_unple_masked	acq1_masked	1	26	0	0	300	300	0	0	630	46	0	1	0	0	0	1	blank2r.bmp	0	1	+	0	8	C4r.bmp	492	1	blank2r.bmp	786	1	CPLW	786	1	blank2r.bmp	866	1	geizig	866	0	0	0	0	0	0	0	0	0	0	0	0	0	0	0	0	0	0	0	0	0	0	0	0	0	0	0	0	0	0	0	0	0
021219	14:00:34	14:03:00	145138	5.0.10.0	4_exp_EVA_AMP_AWA_CON	117	Rpleas_acq	Oppo	Rpleas	Amasked	CS_A	2pleas	distractor2	EVAbeforeCON	acq_new_unple_masked	acq1_masked	1	27	0	0	300	300	0	0	576	46	0	1	0	0	0	1	blank2r.bmp	0	1	+	0	6	C2r.bmp	492	1	blank2r.bmp	786	8	C4r.bmp	786	1	blank2r.bmp	866	6	krank	866	0	0	0	0	0	0	0	0	0	0	0	0	0	0	0	0	0	0	0	0	0	0	0	0	0	0	0	0	0	0	0	0	0
021219	14:00:34	14:03:02	147297	5.0.10.0	4_exp_EVA_AMP_AWA_CON	117	Rpleas_acq	Oppo	Rpleas	Amasked	CS_A	2pleas	distractor2	EVAbeforeCON	acq_new_unple_masked	acq1_masked	1	28	0	0	300	300	0	0	684	46	0	1	0	0	0	1	blank2r.bmp	0	1	+	0	3	B3r.bmp	492	1	blank2r.bmp	786	7	C3r.bmp	786	1	blank2r.bmp	866	1	sterben	866	0	0	0	0	0	0	0	0	0	0	0	0	0	0	0	0	0	0	0	0	0	0	0	0	0	0	0	0	0	0	0	0	0
021219	14:00:34	14:03:04	149496	5.0.10.0	4_exp_EVA_AMP_AWA_CON	117	Rpleas_acq	Oppo	Rpleas	Amasked	CS_A	2pleas	distractor2	EVAbeforeCON	acq_new_pleas_masked	acq1_masked	1	29	0	0	300	300	0	0	713	50	0	1	0	0	0	1	blank2r.bmp	0	1	+	0	7	C3r.bmp	492	1	blank2r.bmp	786	6	C2r.bmp	786	1	blank2r.bmp	866	2	träumen	866	0	0	0	0	0	0	0	0	0	0	0	0	0	0	0	0	0	0	0	0	0	0	0	0	0	0	0	0	0	0	0	0	0
021219	14:00:34	14:03:06	151602	5.0.10.0	4_exp_EVA_AMP_AWA_CON	117	Rpleas_acq	Oppo	Rpleas	Amasked	CS_A	2pleas	distractor2	EVAbeforeCON	acq_US_unple_masked	acq1_masked	1	30	0	0	300	300	0	0	617	46	0	1	0	0	0	1	blank2r.bmp	0	1	+	0	5	C1r.bmp	492	1	blank2r.bmp	786	1	CPLW	786	1	blank2r.bmp	866	6	versagen	866	0	0	0	0	0	0	0	0	0	0	0	0	0	0	0	0	0	0	0	0	0	0	0	0	0	0	0	0	0	0	0	0	0
021219	14:00:34	14:03:08	153695	5.0.10.0	4_exp_EVA_AMP_AWA_CON	117	Rpleas_acq	Oppo	Rpleas	Amasked	CS_A	2pleas	distractor2	EVAbeforeCON	acq_US_unple_masked	acq1_masked	1	31	0	0	300	300	0	0	602	46	0	1	0	0	0	1	blank2r.bmp	0	1	+	0	1	B1r.bmp	492	1	blank2r.bmp	786	1	CPLW	786	1	blank2r.bmp	866	3	gemein	866	0	0	0	0	0	0	0	0	0	0	0	0	0	0	0	0	0	0	0	0	0	0	0	0	0	0	0	0	0	0	0	0	0
021219	14:00:34	14:03:10	155894	5.0.10.0	4_exp_EVA_AMP_AWA_CON	117	Rpleas_acq	Oppo	Rpleas	Amasked	CS_A	2pleas	distractor2	EVAbeforeCON	acq_new_pleas_masked	acq1_masked	1	32	0	0	300	300	0	0	709	50	0	1	0	0	0	1	blank2r.bmp	0	1	+	0	4	B4r.bmp	492	1	blank2r.bmp	786	6	C2r.bmp	786	1	blank2r.bmp	866	1	sonnig	866	0	0	0	0	0	0	0	0	0	0	0	0	0	0	0	0	0	0	0	0	0	0	0	0	0	0	0	0	0	0	0	0	0
021219	14:00:34	14:03:13	158199	5.0.10.0	4_exp_EVA_AMP_AWA_CON	117	Rpleas_acq	Oppo	Rpleas	Amasked	CS_A	2pleas	distractor2	EVAbeforeCON	acq_new_pleas_masked	acq1_masked	1	33	0	0	300	300	0	0	824	50	0	1	0	0	0	1	blank2r.bmp	0	1	+	0	6	C2r.bmp	492	1	blank2r.bmp	786	3	B3r.bmp	786	1	blank2r.bmp	866	3	besonnen	866	0	0	0	0	0	0	0	0	0	0	0	0	0	0	0	0	0	0	0	0	0	0	0	0	0	0	0	0	0	0	0	0	0
021219	14:00:34	14:03:15	160838	5.0.10.0	4_exp_EVA_AMP_AWA_CON	117	Rpleas_acq	Oppo	Rpleas	Amasked	CS_A	2pleas	distractor2	EVAbeforeCON	acq_US_pleas_masked	acq1_masked	1	34	0	0	300	300	0	0	1151	50	0	1	0	0	0	1	blank2r.bmp	0	1	+	0	8	C4r.bmp	492	1	blank2r.bmp	786	1	DHJF	786	1	blank2r.bmp	866	3	genießen	866	0	0	0	0	0	0	0	0	0	0	0	0	0	0	0	0	0	0	0	0	0	0	0	0	0	0	0	0	0	0	0	0	0
021219	14:00:34	14:03:17	163037	5.0.10.0	4_exp_EVA_AMP_AWA_CON	117	Rpleas_acq	Oppo	Rpleas	Amasked	CS_A	2pleas	distractor2	EVAbeforeCON	acq_US_pleas_masked	acq1_masked	1	35	0	0	300	300	0	0	714	50	0	1	0	0	0	1	blank2r.bmp	0	1	+	0	3	B3r.bmp	492	1	blank2r.bmp	786	1	DHJF	786	1	blank2r.bmp	866	1	gesittet	866	0	0	0	0	0	0	0	0	0	0	0	0	0	0	0	0	0	0	0	0	0	0	0	0	0	0	0	0	0	0	0	0	0
021219	14:00:34	14:03:20	165130	5.0.10.0	4_exp_EVA_AMP_AWA_CON	117	Rpleas_acq	Oppo	Rpleas	Amasked	CS_A	2pleas	distractor2	EVAbeforeCON	acq_US_pleas_masked	acq1_masked	1	36	0	0	300	300	0	0	605	50	0	1	0	0	0	1	blank2r.bmp	0	1	+	0	1	B1r.bmp	492	1	blank2r.bmp	786	1	DHJF	786	1	blank2r.bmp	866	5	kuss	866	0	0	0	0	0	0	0	0	0	0	0	0	0	0	0	0	0	0	0	0	0	0	0	0	0	0	0	0	0	0	0	0	0
021219	14:00:34	14:03:48	193784	5.0.10.0	4_exp_EVA_AMP_AWA_CON	117	Rpleas_acq	Oppo	Rpleas	Amasked	CS_A	2pleas	distractor2	EVAbeforeCON	acq_new_pleas_masked	acq2_masked	2	1	480	0	300	300	0	0	1083	50	0	1	0	0	0	1	blank2r.bmp	0	1	+	0	2	B2r.bmp	492	1	blank2r.bmp	786	1	B1r.bmp	786	1	blank2r.bmp	866	5	gütig	866	1	!	1319	1	!	-1	0	0	0	0	0	0	0	0	0	0	0	0	0	0	0	0	0	0	0	0	0	0	0	0	0	0	0
021219	14:00:34	14:03:51	196117	5.0.10.0	4_exp_EVA_AMP_AWA_CON	117	Rpleas_acq	Oppo	Rpleas	Amasked	CS_A	2pleas	distractor2	EVAbeforeCON	acq_US_unple_masked	acq2_masked	2	2	480	1	300	300	0	0	526	46	0	1	0	0	0	1	blank2r.bmp	0	1	+	0	7	C3r.bmp	492	1	blank2r.bmp	786	1	CPLW	786	1	blank2r.bmp	866	4	ausrottung	866	1	!	1319	1	!	1426	0	0	0	0	0	0	0	0	0	0	0	0	0	0	0	0	0	0	0	0	0	0	0	0	0	0	0
021219	14:00:34	14:03:53	198556	5.0.10.0	4_exp_EVA_AMP_AWA_CON	117	Rpleas_acq	Oppo	Rpleas	Amasked	CS_A	2pleas	distractor2	EVAbeforeCON	acq_new_unple_masked	acq2_masked	2	3	480	0	300	300	0	0	674	46	0	1	0	0	0	1	blank2r.bmp	0	1	+	0	5	C1r.bmp	492	1	blank2r.bmp	786	4	B4r.bmp	786	1	blank2r.bmp	866	3	bange	866	1	!	1319	1	!	-1	0	0	0	0	0	0	0	0	0	0	0	0	0	0	0	0	0	0	0	0	0	0	0	0	0	0	0
021219	14:00:34	14:03:55	200675	5.0.10.0	4_exp_EVA_AMP_AWA_CON	117	Rpleas_acq	Oppo	Rpleas	Amasked	CS_A	2pleas	distractor2	EVAbeforeCON	acq_US_pleas_masked	acq2_masked	2	4	480	0	300	300	0	0	341	50	0	1	0	0	0	1	blank2r.bmp	0	1	+	0	4	B4r.bmp	492	1	blank2r.bmp	786	1	DHJF	786	1	blank2r.bmp	866	6	vertrauen	866	1	!	-1	1	!	-1	0	0	0	0	0	0	0	0	0	0	0	0	0	0	0	0	0	0	0	0	0	0	0	0	0	0	0
021219	14:00:34	14:03:57	202821	5.0.10.0	4_exp_EVA_AMP_AWA_CON	117	Rpleas_acq	Oppo	Rpleas	Amasked	CS_A	2pleas	distractor2	EVAbeforeCON	acq_new_unple_masked	acq2_masked	2	5	480	0	300	300	0	0	364	46	0	1	0	0	0	1	blank2r.bmp	0	1	+	0	3	B3r.bmp	492	1	blank2r.bmp	786	7	C3r.bmp	786	1	blank2r.bmp	866	5	gierig	866	1	!	-1	1	!	-1	0	0	0	0	0	0	0	0	0	0	0	0	0	0	0	0	0	0	0	0	0	0	0	0	0	0	0
021219	14:00:34	14:04:00	205580	5.0.10.0	4_exp_EVA_AMP_AWA_CON	117	Rpleas_acq	Oppo	Rpleas	Amasked	CS_A	2pleas	distractor2	EVAbeforeCON	acq_US_pleas_masked	acq2_masked	2	6	480	0	300	300	0	0	748	46	0	0	0	0	0	1	blank2r.bmp	0	1	+	0	6	C2r.bmp	492	1	blank2r.bmp	786	1	DHJF	786	1	blank2r.bmp	866	2	vergnügt	866	1	FEHLER	1959	1	!	1319	1	!	-1	0	0	0	0	0	0	0	0	0	0	0	0	0	0	0	0	0	0	0	0	0	0	0	0
021219	14:00:34	14:04:02	207632	5.0.10.0	4_exp_EVA_AMP_AWA_CON	117	Rpleas_acq	Oppo	Rpleas	Amasked	CS_A	2pleas	distractor2	EVAbeforeCON	acq_US_unple_masked	acq2_masked	2	7	480	1	300	300	0	0	453	46	0	1	0	0	0	1	blank2r.bmp	0	1	+	0	8	C4r.bmp	492	1	blank2r.bmp	786	1	CPLW	786	1	blank2r.bmp	866	5	krise	866	1	!	1319	1	!	1359	0	0	0	0	0	0	0	0	0	0	0	0	0	0	0	0	0	0	0	0	0	0	0	0	0	0	0
021219	14:00:34	14:04:04	209858	5.0.10.0	4_exp_EVA_AMP_AWA_CON	117	Rpleas_acq	Oppo	Rpleas	Amasked	CS_A	2pleas	distractor2	EVAbeforeCON	acq_new_pleas_masked	acq2_masked	2	8	480	1	300	300	0	0	430	50	0	1	0	0	0	1	blank2r.bmp	0	1	+	0	4	B4r.bmp	492	1	blank2r.bmp	786	8	C4r.bmp	786	1	blank2r.bmp	866	6	kreativ	866	1	!	1319	1	!	1332	0	0	0	0	0	0	0	0	0	0	0	0	0	0	0	0	0	0	0	0	0	0	0	0	0	0	0
021219	14:00:34	14:04:07	212163	5.0.10.0	4_exp_EVA_AMP_AWA_CON	117	Rpleas_acq	Oppo	Rpleas	Amasked	CS_A	2pleas	distractor2	EVAbeforeCON	acq_US_unple_masked	acq2_masked	2	9	480	1	300	300	0	0	499	46	0	1	0	0	0	1	blank2r.bmp	0	1	+	0	1	B1r.bmp	492	1	blank2r.bmp	786	1	CPLW	786	1	blank2r.bmp	866	2	verbissen	866	1	!	1319	1	!	1399	0	0	0	0	0	0	0	0	0	0	0	0	0	0	0	0	0	0	0	0	0	0	0	0	0	0	0
021219	14:00:34	14:04:09	214269	5.0.10.0	4_exp_EVA_AMP_AWA_CON	117	Rpleas_acq	Oppo	Rpleas	Amasked	CS_A	2pleas	distractor2	EVAbeforeCON	acq_US_pleas_masked	acq2_masked	2	10	480	0	300	300	0	0	336	50	0	1	0	0	0	1	blank2r.bmp	0	1	+	0	7	C3r.bmp	492	1	blank2r.bmp	786	1	DHJF	786	1	blank2r.bmp	866	4	anregung	866	1	!	-1	1	!	-1	0	0	0	0	0	0	0	0	0	0	0	0	0	0	0	0	0	0	0	0	0	0	0	0	0	0	0
021219	14:00:34	14:04:11	216735	5.0.10.0	4_exp_EVA_AMP_AWA_CON	117	Rpleas_acq	Oppo	Rpleas	Amasked	CS_A	2pleas	distractor2	EVAbeforeCON	acq_new_unple_masked	acq2_masked	2	11	480	0	300	300	0	0	686	46	0	1	0	0	0	1	blank2r.bmp	0	1	+	0	5	C1r.bmp	492	1	blank2r.bmp	786	2	B2r.bmp	786	1	blank2r.bmp	866	2	töten	866	1	!	1319	1	!	-1	0	0	0	0	0	0	0	0	0	0	0	0	0	0	0	0	0	0	0	0	0	0	0	0	0	0	0
021219	14:00:34	14:04:13	219067	5.0.10.0	4_exp_EVA_AMP_AWA_CON	117	Rpleas_acq	Oppo	Rpleas	Amasked	CS_A	2pleas	distractor2	EVAbeforeCON	acq_new_pleas_masked	acq2_masked	2	12	480	1	300	300	0	0	519	50	0	1	0	0	0	1	blank2r.bmp	0	1	+	0	2	B2r.bmp	492	1	blank2r.bmp	786	5	C1r.bmp	786	1	blank2r.bmp	866	4	engagiert	866	1	!	1319	1	!	1426	0	0	0	0	0	0	0	0	0	0	0	0	0	0	0	0	0	0	0	0	0	0	0	0	0	0	0
021219	14:00:34	14:04:16	221426	5.0.10.0	4_exp_EVA_AMP_AWA_CON	117	Rpleas_acq	Oppo	Rpleas	Amasked	CS_A	2pleas	distractor2	EVAbeforeCON	acq_new_pleas_masked	acq2_masked	2	13	480	0	300	300	0	0	365	46	0	0	0	0	0	1	blank2r.bmp	0	1	+	0	6	C2r.bmp	492	1	blank2r.bmp	786	8	C4r.bmp	786	1	blank2r.bmp	866	5	gütig	866	1	FEHLER	1572	1	!	-1	1	!	-1	0	0	0	0	0	0	0	0	0	0	0	0	0	0	0	0	0	0	0	0	0	0	0	0
021219	14:00:34	14:04:18	223652	5.0.10.0	4_exp_EVA_AMP_AWA_CON	117	Rpleas_acq	Oppo	Rpleas	Amasked	CS_A	2pleas	distractor2	EVAbeforeCON	acq_US_unple_masked	acq2_masked	2	14	480	0	300	300	0	0	673	46	0	1	0	0	0	1	blank2r.bmp	0	1	+	0	3	B3r.bmp	492	1	blank2r.bmp	786	1	CPLW	786	1	blank2r.bmp	866	5	krise	866	1	!	1319	1	!	-1	0	0	0	0	0	0	0	0	0	0	0	0	0	0	0	0	0	0	0	0	0	0	0	0	0	0	0
021219	14:00:34	14:04:20	225998	5.0.10.0	4_exp_EVA_AMP_AWA_CON	117	Rpleas_acq	Oppo	Rpleas	Amasked	CS_A	2pleas	distractor2	EVAbeforeCON	acq_new_unple_masked	acq2_masked	2	15	480	0	300	300	0	0	328	50	0	0	0	0	0	1	blank2r.bmp	0	1	+	0	4	B4r.bmp	492	1	blank2r.bmp	786	3	B3r.bmp	786	1	blank2r.bmp	866	6	krank	866	1	FEHLER	1532	1	!	-1	1	!	-1	0	0	0	0	0	0	0	0	0	0	0	0	0	0	0	0	0	0	0	0	0	0	0	0
021219	14:00:34	14:04:23	228183	5.0.10.0	4_exp_EVA_AMP_AWA_CON	117	Rpleas_acq	Oppo	Rpleas	Amasked	CS_A	2pleas	distractor2	EVAbeforeCON	acq_new_unple_masked	acq2_masked	2	16	480	0	300	300	0	0	625	46	0	1	0	0	0	1	blank2r.bmp	0	1	+	0	2	B2r.bmp	492	1	blank2r.bmp	786	5	C1r.bmp	786	1	blank2r.bmp	866	3	bange	866	1	!	1319	1	!	-1	0	0	0	0	0	0	0	0	0	0	0	0	0	0	0	0	0	0	0	0	0	0	0	0	0	0	0
021219	14:00:34	14:04:25	230609	5.0.10.0	4_exp_EVA_AMP_AWA_CON	117	Rpleas_acq	Oppo	Rpleas	Amasked	CS_A	2pleas	distractor2	EVAbeforeCON	acq_US_unple_masked	acq2_masked	2	17	480	0	300	300	0	0	640	46	0	1	0	0	0	1	blank2r.bmp	0	1	+	0	8	C4r.bmp	492	1	blank2r.bmp	786	1	CPLW	786	1	blank2r.bmp	866	2	verbissen	866	1	!	1319	1	!	-1	0	0	0	0	0	0	0	0	0	0	0	0	0	0	0	0	0	0	0	0	0	0	0	0	0	0	0
021219	14:00:34	14:04:28	233221	5.0.10.0	4_exp_EVA_AMP_AWA_CON	117	Rpleas_acq	Oppo	Rpleas	Amasked	CS_A	2pleas	distractor2	EVAbeforeCON	acq_new_pleas_masked	acq2_masked	2	18	480	0	300	300	0	0	817	50	0	1	0	0	0	1	blank2r.bmp	0	1	+	0	7	C3r.bmp	492	1	blank2r.bmp	786	2	B2r.bmp	786	1	blank2r.bmp	866	1	sonnig	866	1	!	1319	1	!	-1	0	0	0	0	0	0	0	0	0	0	0	0	0	0	0	0	0	0	0	0	0	0	0	0	0	0	0
021219	14:00:34	14:04:30	235554	5.0.10.0	4_exp_EVA_AMP_AWA_CON	117	Rpleas_acq	Oppo	Rpleas	Amasked	CS_A	2pleas	distractor2	EVAbeforeCON	acq_US_pleas_masked	acq2_masked	2	19	480	0	300	300	0	0	319	46	0	0	0	0	0	1	blank2r.bmp	0	1	+	0	5	C1r.bmp	492	1	blank2r.bmp	786	1	DHJF	786	1	blank2r.bmp	866	5	kuss	866	1	FEHLER	1532	1	!	-1	1	!	-1	0	0	0	0	0	0	0	0	0	0	0	0	0	0	0	0	0	0	0	0	0	0	0	0
021219	14:00:34	14:04:32	237713	5.0.10.0	4_exp_EVA_AMP_AWA_CON	117	Rpleas_acq	Oppo	Rpleas	Amasked	CS_A	2pleas	distractor2	EVAbeforeCON	acq_US_pleas_masked	acq2_masked	2	20	480	0	300	300	0	0	605	50	0	1	0	0	0	1	blank2r.bmp	0	1	+	0	1	B1r.bmp	492	1	blank2r.bmp	786	1	DHJF	786	1	blank2r.bmp	866	4	anregung	866	1	!	1319	1	!	-1	0	0	0	0	0	0	0	0	0	0	0	0	0	0	0	0	0	0	0	0	0	0	0	0	0	0	0
021219	14:00:34	14:04:35	240285	5.0.10.0	4_exp_EVA_AMP_AWA_CON	117	Rpleas_acq	Oppo	Rpleas	Amasked	CS_A	2pleas	distractor2	EVAbeforeCON	acq_US_pleas_masked	acq2_masked	2	21	480	0	300	300	0	0	559	46	0	0	0	0	0	1	blank2r.bmp	0	1	+	0	5	C1r.bmp	492	1	blank2r.bmp	786	1	DHJF	786	1	blank2r.bmp	866	2	vergnügt	866	1	FEHLER	1772	1	!	1319	1	!	-1	0	0	0	0	0	0	0	0	0	0	0	0	0	0	0	0	0	0	0	0	0	0	0	0
021219	14:00:34	14:04:37	242457	5.0.10.0	4_exp_EVA_AMP_AWA_CON	117	Rpleas_acq	Oppo	Rpleas	Amasked	CS_A	2pleas	distractor2	EVAbeforeCON	acq_new_pleas_masked	acq2_masked	2	22	480	0	300	300	0	0	621	50	0	1	0	0	0	1	blank2r.bmp	0	1	+	0	3	B3r.bmp	492	1	blank2r.bmp	786	4	B4r.bmp	786	1	blank2r.bmp	866	6	kreativ	866	1	!	1319	1	!	-1	0	0	0	0	0	0	0	0	0	0	0	0	0	0	0	0	0	0	0	0	0	0	0	0	0	0	0
021219	14:00:34	14:04:39	244803	5.0.10.0	4_exp_EVA_AMP_AWA_CON	117	Rpleas_acq	Oppo	Rpleas	Amasked	CS_A	2pleas	distractor2	EVAbeforeCON	acq_US_unple_masked	acq2_masked	2	23	480	0	300	300	0	0	559	46	0	1	0	0	0	1	blank2r.bmp	0	1	+	0	6	C2r.bmp	492	1	blank2r.bmp	786	1	CPLW	786	1	blank2r.bmp	866	1	geizig	866	1	!	1319	1	!	-1	0	0	0	0	0	0	0	0	0	0	0	0	0	0	0	0	0	0	0	0	0	0	0	0	0	0	0
021219	14:00:34	14:04:42	247535	5.0.10.0	4_exp_EVA_AMP_AWA_CON	117	Rpleas_acq	Oppo	Rpleas	Amasked	CS_A	2pleas	distractor2	EVAbeforeCON	acq_new_unple_masked	acq2_masked	2	24	480	0	300	300	0	0	722	50	0	0	0	0	0	1	blank2r.bmp	0	1	+	0	1	B1r.bmp	492	1	blank2r.bmp	786	6	C2r.bmp	786	1	blank2r.bmp	866	5	gierig	866	1	FEHLER	1932	1	!	1319	1	!	-1	0	0	0	0	0	0	0	0	0	0	0	0	0	0	0	0	0	0	0	0	0	0	0	0
021219	14:00:34	14:04:44	249801	5.0.10.0	4_exp_EVA_AMP_AWA_CON	117	Rpleas_acq	Oppo	Rpleas	Amasked	CS_A	2pleas	distractor2	EVAbeforeCON	acq_US_pleas_masked	acq2_masked	2	25	480	0	300	300	0	0	707	50	0	1	0	0	0	1	blank2r.bmp	0	1	+	0	4	B4r.bmp	492	1	blank2r.bmp	786	1	DHJF	786	1	blank2r.bmp	866	1	gesittet	866	1	!	1319	1	!	-1	0	0	0	0	0	0	0	0	0	0	0	0	0	0	0	0	0	0	0	0	0	0	0	0	0	0	0
021219	14:00:34	14:04:47	252240	5.0.10.0	4_exp_EVA_AMP_AWA_CON	117	Rpleas_acq	Oppo	Rpleas	Amasked	CS_A	2pleas	distractor2	EVAbeforeCON	acq_US_unple_masked	acq2_masked	2	26	480	0	300	300	0	0	659	46	0	1	0	0	0	1	blank2r.bmp	0	1	+	0	7	C3r.bmp	492	1	blank2r.bmp	786	1	CPLW	786	1	blank2r.bmp	866	4	ausrottung	866	1	!	1319	1	!	-1	0	0	0	0	0	0	0	0	0	0	0	0	0	0	0	0	0	0	0	0	0	0	0	0	0	0	0
021219	14:00:34	14:04:49	254586	5.0.10.0	4_exp_EVA_AMP_AWA_CON	117	Rpleas_acq	Oppo	Rpleas	Amasked	CS_A	2pleas	distractor2	EVAbeforeCON	acq_new_pleas_masked	acq2_masked	2	27	480	1	300	300	0	0	545	50	0	1	0	0	0	1	blank2r.bmp	0	1	+	0	8	C4r.bmp	492	1	blank2r.bmp	786	7	C3r.bmp	786	1	blank2r.bmp	866	2	träumen	866	1	!	1319	1	!	1439	0	0	0	0	0	0	0	0	0	0	0	0	0	0	0	0	0	0	0	0	0	0	0	0	0	0	0
021219	14:00:34	14:04:51	256958	5.0.10.0	4_exp_EVA_AMP_AWA_CON	117	Rpleas_acq	Oppo	Rpleas	Amasked	CS_A	2pleas	distractor2	EVAbeforeCON	acq_new_unple_masked	acq2_masked	2	28	480	0	300	300	0	0	600	46	0	1	0	0	0	1	blank2r.bmp	0	1	+	0	2	B2r.bmp	492	1	blank2r.bmp	786	1	B1r.bmp	786	1	blank2r.bmp	866	4	engstirnig	866	1	!	1319	1	!	-1	0	0	0	0	0	0	0	0	0	0	0	0	0	0	0	0	0	0	0	0	0	0	0	0	0	0	0
021219	14:00:34	14:04:54	259357	5.0.10.0	4_exp_EVA_AMP_AWA_CON	117	Rpleas_acq	Oppo	Rpleas	Amasked	CS_A	2pleas	distractor2	EVAbeforeCON	acq_new_unple_masked	acq2_masked	2	29	480	0	300	300	0	0	611	46	0	1	0	0	0	1	blank2r.bmp	0	1	+	0	1	B1r.bmp	492	1	blank2r.bmp	786	3	B3r.bmp	786	1	blank2r.bmp	866	2	töten	866	1	!	1319	1	!	-1	0	0	0	0	0	0	0	0	0	0	0	0	0	0	0	0	0	0	0	0	0	0	0	0	0	0	0
021219	14:00:34	14:04:56	261743	5.0.10.0	4_exp_EVA_AMP_AWA_CON	117	Rpleas_acq	Oppo	Rpleas	Amasked	CS_A	2pleas	distractor2	EVAbeforeCON	acq_US_pleas_masked	acq2_masked	2	30	480	0	300	300	0	0	610	50	0	1	0	0	0	1	blank2r.bmp	0	1	+	0	4	B4r.bmp	492	1	blank2r.bmp	786	1	DHJF	786	1	blank2r.bmp	866	3	genießen	866	1	!	1319	1	!	-1	0	0	0	0	0	0	0	0	0	0	0	0	0	0	0	0	0	0	0	0	0	0	0	0	0	0	0
021219	14:00:34	14:04:59	264142	5.0.10.0	4_exp_EVA_AMP_AWA_CON	117	Rpleas_acq	Oppo	Rpleas	Amasked	CS_A	2pleas	distractor2	EVAbeforeCON	acq_US_pleas_masked	acq2_masked	2	31	480	0	300	300	0	0	618	50	0	1	0	0	0	1	blank2r.bmp	0	1	+	0	2	B2r.bmp	492	1	blank2r.bmp	786	1	DHJF	786	1	blank2r.bmp	866	6	vertrauen	866	1	!	1319	1	!	-1	0	0	0	0	0	0	0	0	0	0	0	0	0	0	0	0	0	0	0	0	0	0	0	0	0	0	0
021219	14:00:34	14:05:01	266487	5.0.10.0	4_exp_EVA_AMP_AWA_CON	117	Rpleas_acq	Oppo	Rpleas	Amasked	CS_A	2pleas	distractor2	EVAbeforeCON	acq_new_unple_masked	acq2_masked	2	32	480	0	300	300	0	0	559	46	0	1	0	0	0	1	blank2r.bmp	0	1	+	0	3	B3r.bmp	492	1	blank2r.bmp	786	5	C1r.bmp	786	1	blank2r.bmp	866	1	sterben	866	1	!	1319	1	!	-1	0	0	0	0	0	0	0	0	0	0	0	0	0	0	0	0	0	0	0	0	0	0	0	0	0	0	0
021219	14:00:34	14:05:03	268833	5.0.10.0	4_exp_EVA_AMP_AWA_CON	117	Rpleas_acq	Oppo	Rpleas	Amasked	CS_A	2pleas	distractor2	EVAbeforeCON	acq_new_pleas_masked	acq2_masked	2	33	480	0	300	300	0	0	562	50	0	1	0	0	0	1	blank2r.bmp	0	1	+	0	8	C4r.bmp	492	1	blank2r.bmp	786	2	B2r.bmp	786	1	blank2r.bmp	866	4	engagiert	866	1	!	1319	1	!	-1	0	0	0	0	0	0	0	0	0	0	0	0	0	0	0	0	0	0	0	0	0	0	0	0	0	0	0
021219	14:00:34	14:05:06	271165	5.0.10.0	4_exp_EVA_AMP_AWA_CON	117	Rpleas_acq	Oppo	Rpleas	Amasked	CS_A	2pleas	distractor2	EVAbeforeCON	acq_new_pleas_masked	acq2_masked	2	34	480	1	300	300	0	0	528	50	0	1	0	0	0	1	blank2r.bmp	0	1	+	0	6	C2r.bmp	492	1	blank2r.bmp	786	1	B1r.bmp	786	1	blank2r.bmp	866	3	besonnen	866	1	!	1319	1	!	1426	0	0	0	0	0	0	0	0	0	0	0	0	0	0	0	0	0	0	0	0	0	0	0	0	0	0	0
021219	14:00:34	14:05:08	273564	5.0.10.0	4_exp_EVA_AMP_AWA_CON	117	Rpleas_acq	Oppo	Rpleas	Amasked	CS_A	2pleas	distractor2	EVAbeforeCON	acq_US_unple_masked	acq2_masked	2	35	480	0	300	300	0	0	620	46	0	1	0	0	0	1	blank2r.bmp	0	1	+	0	7	C3r.bmp	492	1	blank2r.bmp	786	1	CPLW	786	1	blank2r.bmp	866	3	gemein	866	1	!	1319	1	!	-1	0	0	0	0	0	0	0	0	0	0	0	0	0	0	0	0	0	0	0	0	0	0	0	0	0	0	0
021219	14:00:34	14:05:10	276057	5.0.10.0	4_exp_EVA_AMP_AWA_CON	117	Rpleas_acq	Oppo	Rpleas	Amasked	CS_A	2pleas	distractor2	EVAbeforeCON	acq_US_unple_masked	acq2_masked	2	36	480	0	300	300	0	0	714	46	0	1	0	0	0	1	blank2r.bmp	0	1	+	0	5	C1r.bmp	492	1	blank2r.bmp	786	1	CPLW	786	1	blank2r.bmp	866	6	versagen	866	1	!	1319	1	!	-1	0	0	0	0	0	0	0	0	0	0	0	0	0	0	0	0	0	0	0	0	0	0	0	0	0	0	0
021219	14:00:34	14:05:36	301952	5.0.10.0	4_exp_EVA_AMP_AWA_CON	117	Rpleas_acq	Oppo	Rpleas	Amasked	CS_A	2pleas	distractor2	EVAbeforeCON	acq_US_pleas_masked	acq3_masked	3	1	453	0	300	300	0	0	3991	50	0	1	0	0	0	1	blank2r.bmp	0	1	+	0	6	C2r.bmp	492	1	blank2r.bmp	786	1	DHJF	786	1	blank2r.bmp	866	2	vergnügt	866	1	!	1292	1	!	-1	0	0	0	0	0	0	0	0	0	0	0	0	0	0	0	0	0	0	0	0	0	0	0	0	0	0	0
021219	14:00:34	14:05:39	304485	5.0.10.0	4_exp_EVA_AMP_AWA_CON	117	Rpleas_acq	Oppo	Rpleas	Amasked	CS_A	2pleas	distractor2	EVAbeforeCON	acq_US_unple_masked	acq3_masked	3	2	453	1	300	300	0	0	505	50	0	0	0	0	0	1	blank2r.bmp	0	1	+	0	7	C3r.bmp	492	1	blank2r.bmp	786	1	CPLW	786	1	blank2r.bmp	866	3	gemein	866	1	FEHLER	1732	1	!	1292	1	!	1412	0	0	0	0	0	0	0	0	0	0	0	0	0	0	0	0	0	0	0	0	0	0	0	0
021219	14:00:34	14:05:41	306844	5.0.10.0	4_exp_EVA_AMP_AWA_CON	117	Rpleas_acq	Oppo	Rpleas	Amasked	CS_A	2pleas	distractor2	EVAbeforeCON	acq_US_pleas_masked	acq3_masked	3	3	453	0	300	300	0	0	580	46	0	0	0	0	0	1	blank2r.bmp	0	1	+	0	4	B4r.bmp	492	1	blank2r.bmp	786	1	DHJF	786	1	blank2r.bmp	866	4	anregung	866	1	FEHLER	1785	1	!	1292	1	!	-1	0	0	0	0	0	0	0	0	0	0	0	0	0	0	0	0	0	0	0	0	0	0	0	0
021219	14:00:34	14:05:44	309123	5.0.10.0	4_exp_EVA_AMP_AWA_CON	117	Rpleas_acq	Oppo	Rpleas	Amasked	CS_A	2pleas	distractor2	EVAbeforeCON	acq_US_unple_masked	acq3_masked	3	4	453	0	300	300	0	0	730	46	0	1	0	0	0	1	blank2r.bmp	0	1	+	0	1	B1r.bmp	492	1	blank2r.bmp	786	1	CPLW	786	1	blank2r.bmp	866	1	geizig	866	1	!	1292	1	!	-1	0	0	0	0	0	0	0	0	0	0	0	0	0	0	0	0	0	0	0	0	0	0	0	0	0	0	0
021219	14:00:34	14:05:46	311455	5.0.10.0	4_exp_EVA_AMP_AWA_CON	117	Rpleas_acq	Oppo	Rpleas	Amasked	CS_A	2pleas	distractor2	EVAbeforeCON	acq_US_pleas_masked	acq3_masked	3	5	453	1	300	300	0	0	514	50	0	1	0	0	0	1	blank2r.bmp	0	1	+	0	5	C1r.bmp	492	1	blank2r.bmp	786	1	DHJF	786	1	blank2r.bmp	866	3	genießen	866	1	!	1292	1	!	1412	0	0	0	0	0	0	0	0	0	0	0	0	0	0	0	0	0	0	0	0	0	0	0	0	0	0	0
021219	14:00:34	14:05:48	313801	5.0.10.0	4_exp_EVA_AMP_AWA_CON	117	Rpleas_acq	Oppo	Rpleas	Amasked	CS_A	2pleas	distractor2	EVAbeforeCON	acq_US_unple_masked	acq3_masked	3	6	453	0	300	300	0	0	583	46	0	1	0	0	0	1	blank2r.bmp	0	1	+	0	8	C4r.bmp	492	1	blank2r.bmp	786	1	CPLW	786	1	blank2r.bmp	866	2	verbissen	866	1	!	1292	1	!	-1	0	0	0	0	0	0	0	0	0	0	0	0	0	0	0	0	0	0	0	0	0	0	0	0	0	0	0
021219	14:00:34	14:05:51	316120	5.0.10.0	4_exp_EVA_AMP_AWA_CON	117	Rpleas_acq	Oppo	Rpleas	Amasked	CS_A	2pleas	distractor2	EVAbeforeCON	acq_US_pleas_masked	acq3_masked	3	7	453	0	300	300	0	0	532	50	0	1	0	0	0	1	blank2r.bmp	0	1	+	0	3	B3r.bmp	492	1	blank2r.bmp	786	1	DHJF	786	1	blank2r.bmp	866	1	gesittet	866	1	!	1292	1	!	-1	0	0	0	0	0	0	0	0	0	0	0	0	0	0	0	0	0	0	0	0	0	0	0	0	0	0	0
021219	14:00:34	14:05:53	318239	5.0.10.0	4_exp_EVA_AMP_AWA_CON	117	Rpleas_acq	Oppo	Rpleas	Amasked	CS_A	2pleas	distractor2	EVAbeforeCON	acq_US_unple_masked	acq3_masked	3	8	453	0	300	300	0	0	333	46	0	1	0	0	0	1	blank2r.bmp	0	1	+	0	2	B2r.bmp	492	1	blank2r.bmp	786	1	CPLW	786	1	blank2r.bmp	866	5	krise	866	1	!	-1	1	!	-1	0	0	0	0	0	0	0	0	0	0	0	0	0	0	0	0	0	0	0	0	0	0	0	0	0	0	0
021219	14:00:34	14:05:55	320598	5.0.10.0	4_exp_EVA_AMP_AWA_CON	117	Rpleas_acq	Oppo	Rpleas	Amasked	CS_A	2pleas	distractor2	EVAbeforeCON	acq_US_unple_masked	acq3_masked	3	9	453	0	300	300	0	0	574	46	0	1	0	0	0	1	blank2r.bmp	0	1	+	0	7	C3r.bmp	492	1	blank2r.bmp	786	1	CPLW	786	1	blank2r.bmp	866	4	ausrottung	866	1	!	1292	1	!	-1	0	0	0	0	0	0	0	0	0	0	0	0	0	0	0	0	0	0	0	0	0	0	0	0	0	0	0
021219	14:00:34	14:05:57	322984	5.0.10.0	4_exp_EVA_AMP_AWA_CON	117	Rpleas_acq	Oppo	Rpleas	Amasked	CS_A	2pleas	distractor2	EVAbeforeCON	acq_US_unple_masked	acq3_masked	3	10	453	0	300	300	0	0	374	50	0	0	0	0	0	1	blank2r.bmp	0	1	+	0	4	B4r.bmp	492	1	blank2r.bmp	786	1	CPLW	786	1	blank2r.bmp	866	6	versagen	866	1	FEHLER	1586	1	!	-1	1	!	-1	0	0	0	0	0	0	0	0	0	0	0	0	0	0	0	0	0	0	0	0	0	0	0	0
021219	14:00:34	14:06:00	325116	5.0.10.0	4_exp_EVA_AMP_AWA_CON	117	Rpleas_acq	Oppo	Rpleas	Amasked	CS_A	2pleas	distractor2	EVAbeforeCON	acq_US_pleas_masked	acq3_masked	3	11	453	0	300	300	0	0	568	50	0	1	0	0	0	1	blank2r.bmp	0	1	+	0	6	C2r.bmp	492	1	blank2r.bmp	786	1	DHJF	786	1	blank2r.bmp	866	5	kuss	866	1	!	1292	1	!	-1	0	0	0	0	0	0	0	0	0	0	0	0	0	0	0	0	0	0	0	0	0	0	0	0	0	0	0
021219	14:00:34	14:06:02	327568	5.0.10.0	4_exp_EVA_AMP_AWA_CON	117	Rpleas_acq	Oppo	Rpleas	Amasked	CS_A	2pleas	distractor2	EVAbeforeCON	acq_US_pleas_masked	acq3_masked	3	12	453	0	300	300	0	0	677	50	0	1	0	0	0	1	blank2r.bmp	0	1	+	0	8	C4r.bmp	492	1	blank2r.bmp	786	1	DHJF	786	1	blank2r.bmp	866	6	vertrauen	866	1	!	1292	1	!	-1	0	0	0	0	0	0	0	0	0	0	0	0	0	0	0	0	0	0	0	0	0	0	0	0	0	0	0
021219	14:00:34	14:06:04	329994	5.0.10.0	4_exp_EVA_AMP_AWA_CON	117	Rpleas_acq	Oppo	Rpleas	Amasked	CS_A	2pleas	distractor2	EVAbeforeCON	acq_US_pleas_masked	acq3_masked	3	13	453	1	300	300	0	0	399	46	0	0	0	0	0	1	blank2r.bmp	0	1	+	0	1	B1r.bmp	492	1	blank2r.bmp	786	1	DHJF	786	1	blank2r.bmp	866	5	kuss	866	1	FEHLER	1625	1	!	1292	1	!	1306	0	0	0	0	0	0	0	0	0	0	0	0	0	0	0	0	0	0	0	0	0	0	0	0
021219	14:00:34	14:06:08	333392	5.0.10.0	4_exp_EVA_AMP_AWA_CON	117	Rpleas_acq	Oppo	Rpleas	Amasked	CS_A	2pleas	distractor2	EVAbeforeCON	acq_US_unple_masked	acq3_masked	3	14	453	0	300	300	0	0	1846	46	0	1	0	0	0	1	blank2r.bmp	0	1	+	0	5	C1r.bmp	492	1	blank2r.bmp	786	1	CPLW	786	1	blank2r.bmp	866	1	geizig	866	1	!	1292	1	!	-1	0	0	0	0	0	0	0	0	0	0	0	0	0	0	0	0	0	0	0	0	0	0	0	0	0	0	0
021219	14:00:34	14:06:10	335765	5.0.10.0	4_exp_EVA_AMP_AWA_CON	117	Rpleas_acq	Oppo	Rpleas	Amasked	CS_A	2pleas	distractor2	EVAbeforeCON	acq_US_unple_masked	acq3_masked	3	15	453	0	300	300	0	0	596	46	0	1	0	0	0	1	blank2r.bmp	0	1	+	0	2	B2r.bmp	492	1	blank2r.bmp	786	1	CPLW	786	1	blank2r.bmp	866	4	ausrottung	866	1	!	1292	1	!	-1	0	0	0	0	0	0	0	0	0	0	0	0	0	0	0	0	0	0	0	0	0	0	0	0	0	0	0
021219	14:00:34	14:06:12	338044	5.0.10.0	4_exp_EVA_AMP_AWA_CON	117	Rpleas_acq	Oppo	Rpleas	Amasked	CS_A	2pleas	distractor2	EVAbeforeCON	acq_US_pleas_masked	acq3_masked	3	16	453	1	300	300	0	0	475	50	0	1	0	0	0	1	blank2r.bmp	0	1	+	0	3	B3r.bmp	492	1	blank2r.bmp	786	1	DHJF	786	1	blank2r.bmp	866	4	anregung	866	1	!	1292	1	!	1372	0	0	0	0	0	0	0	0	0	0	0	0	0	0	0	0	0	0	0	0	0	0	0	0	0	0	0
021219	14:00:34	14:06:15	340549	5.0.10.0	4_exp_EVA_AMP_AWA_CON	117	Rpleas_acq	Oppo	Rpleas	Amasked	CS_A	2pleas	distractor2	EVAbeforeCON	acq_US_unple_masked	acq3_masked	3	17	453	1	300	300	0	0	502	50	0	0	0	0	0	1	blank2r.bmp	0	1	+	0	6	C2r.bmp	492	1	blank2r.bmp	786	1	CPLW	786	1	blank2r.bmp	866	6	versagen	866	1	FEHLER	1719	1	!	1292	1	!	1399	0	0	0	0	0	0	0	0	0	0	0	0	0	0	0	0	0	0	0	0	0	0	0	0
021219	14:00:34	14:06:17	342615	5.0.10.0	4_exp_EVA_AMP_AWA_CON	117	Rpleas_acq	Oppo	Rpleas	Amasked	CS_A	2pleas	distractor2	EVAbeforeCON	acq_US_unple_masked	acq3_masked	3	18	453	1	300	300	0	0	469	46	0	1	0	0	0	1	blank2r.bmp	0	1	+	0	5	C1r.bmp	492	1	blank2r.bmp	786	1	CPLW	786	1	blank2r.bmp	866	2	verbissen	866	1	!	1292	1	!	1372	0	0	0	0	0	0	0	0	0	0	0	0	0	0	0	0	0	0	0	0	0	0	0	0	0	0	0
021219	14:00:34	14:06:19	344921	5.0.10.0	4_exp_EVA_AMP_AWA_CON	117	Rpleas_acq	Oppo	Rpleas	Amasked	CS_A	2pleas	distractor2	EVAbeforeCON	acq_US_pleas_masked	acq3_masked	3	19	453	0	300	300	0	0	532	50	0	1	0	0	0	1	blank2r.bmp	0	1	+	0	2	B2r.bmp	492	1	blank2r.bmp	786	1	DHJF	786	1	blank2r.bmp	866	3	genießen	866	1	!	1292	1	!	-1	0	0	0	0	0	0	0	0	0	0	0	0	0	0	0	0	0	0	0	0	0	0	0	0	0	0	0
021219	14:00:34	14:06:22	347240	5.0.10.0	4_exp_EVA_AMP_AWA_CON	117	Rpleas_acq	Oppo	Rpleas	Amasked	CS_A	2pleas	distractor2	EVAbeforeCON	acq_US_pleas_masked	acq3_masked	3	20	453	0	300	300	0	0	532	50	0	1	0	0	0	1	blank2r.bmp	0	1	+	0	1	B1r.bmp	492	1	blank2r.bmp	786	1	DHJF	786	1	blank2r.bmp	866	6	vertrauen	866	1	!	1292	1	!	-1	0	0	0	0	0	0	0	0	0	0	0	0	0	0	0	0	0	0	0	0	0	0	0	0	0	0	0
021219	14:00:34	14:06:24	349679	5.0.10.0	4_exp_EVA_AMP_AWA_CON	117	Rpleas_acq	Oppo	Rpleas	Amasked	CS_A	2pleas	distractor2	EVAbeforeCON	acq_US_unple_masked	acq3_masked	3	21	453	1	300	300	0	0	420	50	0	0	0	0	0	1	blank2r.bmp	0	1	+	0	4	B4r.bmp	492	1	blank2r.bmp	786	1	CPLW	786	1	blank2r.bmp	866	3	gemein	866	1	FEHLER	1639	1	!	1292	1	!	1319	0	0	0	0	0	0	0	0	0	0	0	0	0	0	0	0	0	0	0	0	0	0	0	0
021219	14:00:34	14:06:26	351798	5.0.10.0	4_exp_EVA_AMP_AWA_CON	117	Rpleas_acq	Oppo	Rpleas	Amasked	CS_A	2pleas	distractor2	EVAbeforeCON	acq_US_pleas_masked	acq3_masked	3	22	453	0	300	300	0	0	570	50	0	1	0	0	0	1	blank2r.bmp	0	1	+	0	8	C4r.bmp	492	1	blank2r.bmp	786	1	DHJF	786	1	blank2r.bmp	866	1	gesittet	866	1	!	1292	1	!	-1	0	0	0	0	0	0	0	0	0	0	0	0	0	0	0	0	0	0	0	0	0	0	0	0	0	0	0
021219	14:00:34	14:06:29	354130	5.0.10.0	4_exp_EVA_AMP_AWA_CON	117	Rpleas_acq	Oppo	Rpleas	Amasked	CS_A	2pleas	distractor2	EVAbeforeCON	acq_US_pleas_masked	acq3_masked	3	23	453	0	300	300	0	0	555	50	0	1	0	0	0	1	blank2r.bmp	0	1	+	0	7	C3r.bmp	492	1	blank2r.bmp	786	1	DHJF	786	1	blank2r.bmp	866	2	vergnügt	866	1	!	1292	1	!	-1	0	0	0	0	0	0	0	0	0	0	0	0	0	0	0	0	0	0	0	0	0	0	0	0	0	0	0
021219	14:00:34	14:06:31	356596	5.0.10.0	4_exp_EVA_AMP_AWA_CON	117	Rpleas_acq	Oppo	Rpleas	Amasked	CS_A	2pleas	distractor2	EVAbeforeCON	acq_US_unple_masked	acq3_masked	3	24	453	0	300	300	0	0	680	46	0	1	0	0	0	1	blank2r.bmp	0	1	+	0	3	B3r.bmp	492	1	blank2r.bmp	786	1	CPLW	786	1	blank2r.bmp	866	5	krise	866	1	!	1292	1	!	-1	0	0	0	0	0	0	0	0	0	0	0	0	0	0	0	0	0	0	0	0	0	0	0	0	0	0	0
021219	14:00:34	14:06:33	358848	5.0.10.0	4_exp_EVA_AMP_AWA_CON	117	Rpleas_acq	Oppo	Rpleas	Amasked	CS_A	2pleas	distractor2	EVAbeforeCON	acq_US_unple_masked	acq3_masked	3	25	453	1	300	300	0	0	440	46	0	1	0	0	0	1	blank2r.bmp	0	1	+	0	2	B2r.bmp	492	1	blank2r.bmp	786	1	CPLW	786	1	blank2r.bmp	866	2	verbissen	866	1	!	1292	1	!	1346	0	0	0	0	0	0	0	0	0	0	0	0	0	0	0	0	0	0	0	0	0	0	0	0	0	0	0
021219	14:00:34	14:06:36	361221	5.0.10.0	4_exp_EVA_AMP_AWA_CON	117	Rpleas_acq	Oppo	Rpleas	Amasked	CS_A	2pleas	distractor2	EVAbeforeCON	acq_US_pleas_masked	acq3_masked	3	26	453	0	300	300	0	0	609	50	0	1	0	0	0	1	blank2r.bmp	0	1	+	0	5	C1r.bmp	492	1	blank2r.bmp	786	1	DHJF	786	1	blank2r.bmp	866	4	anregung	866	1	!	1292	1	!	-1	0	0	0	0	0	0	0	0	0	0	0	0	0	0	0	0	0	0	0	0	0	0	0	0	0	0	0
021219	14:00:34	14:06:38	363513	5.0.10.0	4_exp_EVA_AMP_AWA_CON	117	Rpleas_acq	Oppo	Rpleas	Amasked	CS_A	2pleas	distractor2	EVAbeforeCON	acq_US_unple_masked	acq3_masked	3	27	453	1	300	300	0	0	489	46	0	1	0	0	0	1	blank2r.bmp	0	1	+	0	3	B3r.bmp	492	1	blank2r.bmp	786	1	CPLW	786	1	blank2r.bmp	866	4	ausrottung	866	1	!	1292	1	!	1386	0	0	0	0	0	0	0	0	0	0	0	0	0	0	0	0	0	0	0	0	0	0	0	0	0	0	0
021219	14:00:34	14:06:40	365792	5.0.10.0	4_exp_EVA_AMP_AWA_CON	117	Rpleas_acq	Oppo	Rpleas	Amasked	CS_A	2pleas	distractor2	EVAbeforeCON	acq_US_pleas_masked	acq3_masked	3	28	453	1	300	300	0	0	481	50	0	1	0	0	0	1	blank2r.bmp	0	1	+	0	4	B4r.bmp	492	1	blank2r.bmp	786	1	DHJF	786	1	blank2r.bmp	866	6	vertrauen	866	1	!	1292	1	!	1386	0	0	0	0	0	0	0	0	0	0	0	0	0	0	0	0	0	0	0	0	0	0	0	0	0	0	0
021219	14:00:34	14:06:42	368045	5.0.10.0	4_exp_EVA_AMP_AWA_CON	117	Rpleas_acq	Oppo	Rpleas	Amasked	CS_A	2pleas	distractor2	EVAbeforeCON	acq_US_pleas_masked	acq3_masked	3	29	453	1	300	300	0	0	463	50	0	1	0	0	0	1	blank2r.bmp	0	1	+	0	8	C4r.bmp	492	1	blank2r.bmp	786	1	DHJF	786	1	blank2r.bmp	866	5	kuss	866	1	!	1292	1	!	1359	0	0	0	0	0	0	0	0	0	0	0	0	0	0	0	0	0	0	0	0	0	0	0	0	0	0	0
021219	14:00:34	14:06:45	370337	5.0.10.0	4_exp_EVA_AMP_AWA_CON	117	Rpleas_acq	Oppo	Rpleas	Amasked	CS_A	2pleas	distractor2	EVAbeforeCON	acq_US_unple_masked	acq3_masked	3	30	453	1	300	300	0	0	501	46	0	1	0	0	0	1	blank2r.bmp	0	1	+	0	1	B1r.bmp	492	1	blank2r.bmp	786	1	CPLW	786	1	blank2r.bmp	866	3	gemein	866	1	!	1292	1	!	1399	0	0	0	0	0	0	0	0	0	0	0	0	0	0	0	0	0	0	0	0	0	0	0	0	0	0	0
021219	14:00:34	14:06:47	372656	5.0.10.0	4_exp_EVA_AMP_AWA_CON	117	Rpleas_acq	Oppo	Rpleas	Amasked	CS_A	2pleas	distractor2	EVAbeforeCON	acq_US_unple_masked	acq3_masked	3	31	453	0	300	300	0	0	556	46	0	1	0	0	0	1	blank2r.bmp	0	1	+	0	7	C3r.bmp	492	1	blank2r.bmp	786	1	CPLW	786	1	blank2r.bmp	866	1	geizig	866	1	!	1292	1	!	-1	0	0	0	0	0	0	0	0	0	0	0	0	0	0	0	0	0	0	0	0	0	0	0	0	0	0	0
021219	14:00:34	14:06:49	375002	5.0.10.0	4_exp_EVA_AMP_AWA_CON	117	Rpleas_acq	Oppo	Rpleas	Amasked	CS_A	2pleas	distractor2	EVAbeforeCON	acq_US_pleas_masked	acq3_masked	3	32	453	0	300	300	0	0	335	46	0	0	0	0	0	1	blank2r.bmp	0	1	+	0	6	C2r.bmp	492	1	blank2r.bmp	786	1	DHJF	786	1	blank2r.bmp	866	3	genießen	866	1	FEHLER	1546	1	!	-1	1	!	-1	0	0	0	0	0	0	0	0	0	0	0	0	0	0	0	0	0	0	0	0	0	0	0	0
021219	14:00:34	14:06:52	377147	5.0.10.0	4_exp_EVA_AMP_AWA_CON	117	Rpleas_acq	Oppo	Rpleas	Amasked	CS_A	2pleas	distractor2	EVAbeforeCON	acq_US_pleas_masked	acq3_masked	3	33	453	0	300	300	0	0	381	46	0	0	0	0	0	1	blank2r.bmp	0	1	+	0	3	B3r.bmp	492	1	blank2r.bmp	786	1	DHJF	786	1	blank2r.bmp	866	1	gesittet	866	1	FEHLER	1586	1	!	-1	1	!	-1	0	0	0	0	0	0	0	0	0	0	0	0	0	0	0	0	0	0	0	0	0	0	0	0
021219	14:00:34	14:06:54	379173	5.0.10.0	4_exp_EVA_AMP_AWA_CON	117	Rpleas_acq	Oppo	Rpleas	Amasked	CS_A	2pleas	distractor2	EVAbeforeCON	acq_US_pleas_masked	acq3_masked	3	34	453	1	300	300	0	0	433	50	0	1	0	0	0	1	blank2r.bmp	0	1	+	0	5	C1r.bmp	492	1	blank2r.bmp	786	1	DHJF	786	1	blank2r.bmp	866	2	vergnügt	866	1	!	1292	1	!	1332	0	0	0	0	0	0	0	0	0	0	0	0	0	0	0	0	0	0	0	0	0	0	0	0	0	0	0
021219	14:00:34	14:06:56	381519	5.0.10.0	4_exp_EVA_AMP_AWA_CON	117	Rpleas_acq	Oppo	Rpleas	Amasked	CS_A	2pleas	distractor2	EVAbeforeCON	acq_US_unple_masked	acq3_masked	3	35	453	0	300	300	0	0	585	46	0	1	0	0	0	1	blank2r.bmp	0	1	+	0	6	C2r.bmp	492	1	blank2r.bmp	786	1	CPLW	786	1	blank2r.bmp	866	6	versagen	866	1	!	1292	1	!	-1	0	0	0	0	0	0	0	0	0	0	0	0	0	0	0	0	0	0	0	0	0	0	0	0	0	0	0
021219	14:00:34	14:06:58	383838	5.0.10.0	4_exp_EVA_AMP_AWA_CON	117	Rpleas_acq	Oppo	Rpleas	Amasked	CS_A	2pleas	distractor2	EVAbeforeCON	acq_US_unple_masked	acq3_masked	3	36	453	0	300	300	0	0	537	46	0	1	0	0	0	1	blank2r.bmp	0	1	+	0	7	C3r.bmp	492	1	blank2r.bmp	786	1	CPLW	786	1	blank2r.bmp	866	5	krise	866	1	!	1292	1	!	-1	0	0	0	0	0	0	0	0	0	0	0	0	0	0	0	0	0	0	0	0	0	0	0	0	0	0	0
021219	14:00:34	14:07:12	397645	5.0.10.0	4_exp_EVA_AMP_AWA_CON	117	Rpleas_acq	Oppo	Rpleas	Amasked	CS_A	2pleas	distractor2	EVAbeforeCON	acq_US_unple_masked	acq45_masked	4	1	400	0	300	300	0	0	846	46	0	1	0	0	0	1	blank2r.bmp	0	1	+	0	8	C4r.bmp	492	1	blank2r.bmp	786	1	CPLW	786	1	blank2r.bmp	866	1	geizig	866	1	!	1239	1	!	-1	0	0	0	0	0	0	0	0	0	0	0	0	0	0	0	0	0	0	0	0	0	0	0	0	0	0	0
021219	14:00:34	14:07:14	399871	5.0.10.0	4_exp_EVA_AMP_AWA_CON	117	Rpleas_acq	Oppo	Rpleas	Amasked	CS_A	2pleas	distractor2	EVAbeforeCON	acq_US_pleas_masked	acq45_masked	4	2	400	1	300	300	0	0	421	50	0	1	0	0	0	1	blank2r.bmp	0	1	+	0	4	B4r.bmp	492	1	blank2r.bmp	786	1	DHJF	786	1	blank2r.bmp	866	6	vertrauen	866	1	!	1239	1	!	1319	0	0	0	0	0	0	0	0	0	0	0	0	0	0	0	0	0	0	0	0	0	0	0	0	0	0	0
021219	14:00:34	14:07:16	402070	5.0.10.0	4_exp_EVA_AMP_AWA_CON	117	Rpleas_acq	Oppo	Rpleas	Amasked	CS_A	2pleas	distractor2	EVAbeforeCON	acq_US_unple_masked	acq45_masked	4	3	400	1	300	300	0	0	405	46	0	1	0	0	0	1	blank2r.bmp	0	1	+	0	1	B1r.bmp	492	1	blank2r.bmp	786	1	CPLW	786	1	blank2r.bmp	866	2	verbissen	866	1	!	1239	1	!	1306	0	0	0	0	0	0	0	0	0	0	0	0	0	0	0	0	0	0	0	0	0	0	0	0	0	0	0
021219	14:00:34	14:07:19	404256	5.0.10.0	4_exp_EVA_AMP_AWA_CON	117	Rpleas_acq	Oppo	Rpleas	Amasked	CS_A	2pleas	distractor2	EVAbeforeCON	acq_US_unple_masked	acq45_masked	4	4	400	1	300	300	0	0	392	50	0	0	0	0	0	1	blank2r.bmp	0	1	+	0	2	B2r.bmp	492	1	blank2r.bmp	786	1	CPLW	786	1	blank2r.bmp	866	3	gemein	866	1	!	1239	1	!	1292	0	0	0	0	0	0	0	0	0	0	0	0	0	0	0	0	0	0	0	0	0	0	0	0	0	0	0
021219	14:00:34	14:07:21	406455	5.0.10.0	4_exp_EVA_AMP_AWA_CON	117	Rpleas_acq	Oppo	Rpleas	Amasked	CS_A	2pleas	distractor2	EVAbeforeCON	acq_US_unple_masked	acq45_masked	4	5	400	1	300	300	0	0	406	46	0	1	0	0	0	1	blank2r.bmp	0	1	+	0	6	C2r.bmp	492	1	blank2r.bmp	786	1	CPLW	786	1	blank2r.bmp	866	5	krise	866	1	!	1239	1	!	1306	0	0	0	0	0	0	0	0	0	0	0	0	0	0	0	0	0	0	0	0	0	0	0	0	0	0	0
021219	14:00:34	14:07:23	408654	5.0.10.0	4_exp_EVA_AMP_AWA_CON	117	Rpleas_acq	Oppo	Rpleas	Amasked	CS_A	2pleas	distractor2	EVAbeforeCON	acq_US_unple_masked	acq45_masked	4	6	400	1	300	300	0	0	402	46	0	1	0	0	0	1	blank2r.bmp	0	1	+	0	3	B3r.bmp	492	1	blank2r.bmp	786	1	CPLW	786	1	blank2r.bmp	866	4	ausrottung	866	1	!	1239	1	!	1306	0	0	0	0	0	0	0	0	0	0	0	0	0	0	0	0	0	0	0	0	0	0	0	0	0	0	0
021219	14:00:34	14:07:25	410893	5.0.10.0	4_exp_EVA_AMP_AWA_CON	117	Rpleas_acq	Oppo	Rpleas	Amasked	CS_A	2pleas	distractor2	EVAbeforeCON	acq_US_unple_masked	acq45_masked	4	7	400	1	300	300	0	0	445	50	0	0	0	0	0	1	blank2r.bmp	0	1	+	0	8	C4r.bmp	492	1	blank2r.bmp	786	1	CPLW	786	1	blank2r.bmp	866	6	versagen	866	1	!	1239	1	!	1346	0	0	0	0	0	0	0	0	0	0	0	0	0	0	0	0	0	0	0	0	0	0	0	0	0	0	0
021219	14:00:34	14:07:28	413159	5.0.10.0	4_exp_EVA_AMP_AWA_CON	117	Rpleas_acq	Oppo	Rpleas	Amasked	CS_A	2pleas	distractor2	EVAbeforeCON	acq_US_pleas_masked	acq45_masked	4	8	400	1	300	300	0	0	457	46	0	0	0	0	0	1	blank2r.bmp	0	1	+	0	4	B4r.bmp	492	1	blank2r.bmp	786	1	DHJF	786	1	blank2r.bmp	866	2	vergnügt	866	1	!	1239	1	!	1359	0	0	0	0	0	0	0	0	0	0	0	0	0	0	0	0	0	0	0	0	0	0	0	0	0	0	0
021219	14:00:34	14:07:30	415571	5.0.10.0	4_exp_EVA_AMP_AWA_CON	117	Rpleas_acq	Oppo	Rpleas	Amasked	CS_A	2pleas	distractor2	EVAbeforeCON	acq_US_pleas_masked	acq45_masked	4	9	400	0	300	300	0	0	643	50	0	1	0	0	0	1	blank2r.bmp	0	1	+	0	5	C1r.bmp	492	1	blank2r.bmp	786	1	DHJF	786	1	blank2r.bmp	866	1	gesittet	866	1	!	1239	1	!	-1	0	0	0	0	0	0	0	0	0	0	0	0	0	0	0	0	0	0	0	0	0	0	0	0	0	0	0
021219	14:00:34	14:07:32	417997	5.0.10.0	4_exp_EVA_AMP_AWA_CON	117	Rpleas_acq	Oppo	Rpleas	Amasked	CS_A	2pleas	distractor2	EVAbeforeCON	acq_US_unple_masked	acq45_masked	4	10	400	0	300	300	0	0	639	46	0	1	0	0	0	1	blank2r.bmp	0	1	+	0	2	B2r.bmp	492	1	blank2r.bmp	786	1	CPLW	786	1	blank2r.bmp	866	6	versagen	866	1	!	1239	1	!	-1	0	0	0	0	0	0	0	0	0	0	0	0	0	0	0	0	0	0	0	0	0	0	0	0	0	0	0
021219	14:00:34	14:07:35	420209	5.0.10.0	4_exp_EVA_AMP_AWA_CON	117	Rpleas_acq	Oppo	Rpleas	Amasked	CS_A	2pleas	distractor2	EVAbeforeCON	acq_US_pleas_masked	acq45_masked	4	11	400	1	300	300	0	0	399	50	0	1	0	0	0	1	blank2r.bmp	0	1	+	0	1	B1r.bmp	492	1	blank2r.bmp	786	1	DHJF	786	1	blank2r.bmp	866	3	genießen	866	1	!	1239	1	!	1306	0	0	0	0	0	0	0	0	0	0	0	0	0	0	0	0	0	0	0	0	0	0	0	0	0	0	0
021219	14:00:34	14:07:37	422475	5.0.10.0	4_exp_EVA_AMP_AWA_CON	117	Rpleas_acq	Oppo	Rpleas	Amasked	CS_A	2pleas	distractor2	EVAbeforeCON	acq_US_pleas_masked	acq45_masked	4	12	400	0	300	300	0	0	502	50	0	1	0	0	0	1	blank2r.bmp	0	1	+	0	7	C3r.bmp	492	1	blank2r.bmp	786	1	DHJF	786	1	blank2r.bmp	866	5	kuss	866	1	!	1239	1	!	-1	0	0	0	0	0	0	0	0	0	0	0	0	0	0	0	0	0	0	0	0	0	0	0	0	0	0	0
021219	14:00:34	14:07:39	424727	5.0.10.0	4_exp_EVA_AMP_AWA_CON	117	Rpleas_acq	Oppo	Rpleas	Amasked	CS_A	2pleas	distractor2	EVAbeforeCON	acq_US_pleas_masked	acq45_masked	4	13	400	1	300	300	0	0	443	50	0	1	0	0	0	1	blank2r.bmp	0	1	+	0	7	C3r.bmp	492	1	blank2r.bmp	786	1	DHJF	786	1	blank2r.bmp	866	4	anregung	866	1	!	1239	1	!	1346	0	0	0	0	0	0	0	0	0	0	0	0	0	0	0	0	0	0	0	0	0	0	0	0	0	0	0
021219	14:00:34	14:07:41	426953	5.0.10.0	4_exp_EVA_AMP_AWA_CON	117	Rpleas_acq	Oppo	Rpleas	Amasked	CS_A	2pleas	distractor2	EVAbeforeCON	acq_US_pleas_masked	acq45_masked	4	14	400	1	300	300	0	0	426	50	0	1	0	0	0	1	blank2r.bmp	0	1	+	0	3	B3r.bmp	492	1	blank2r.bmp	786	1	DHJF	786	1	blank2r.bmp	866	4	anregung	866	1	!	1239	1	!	1332	0	0	0	0	0	0	0	0	0	0	0	0	0	0	0	0	0	0	0	0	0	0	0	0	0	0	0
021219	14:00:34	14:07:43	429099	5.0.10.0	4_exp_EVA_AMP_AWA_CON	117	Rpleas_acq	Oppo	Rpleas	Amasked	CS_A	2pleas	distractor2	EVAbeforeCON	acq_US_unple_masked	acq45_masked	4	15	400	1	300	300	0	0	346	46	0	1	0	0	0	1	blank2r.bmp	0	1	+	0	4	B4r.bmp	492	1	blank2r.bmp	786	1	CPLW	786	1	blank2r.bmp	866	1	geizig	866	1	!	1239	1	!	1252	0	0	0	0	0	0	0	0	0	0	0	0	0	0	0	0	0	0	0	0	0	0	0	0	0	0	0
021219	14:00:34	14:07:46	431365	5.0.10.0	4_exp_EVA_AMP_AWA_CON	117	Rpleas_acq	Oppo	Rpleas	Amasked	CS_A	2pleas	distractor2	EVAbeforeCON	acq_US_unple_masked	acq45_masked	4	16	400	0	300	300	0	0	489	50	0	0	0	0	0	1	blank2r.bmp	0	1	+	0	6	C2r.bmp	492	1	blank2r.bmp	786	1	CPLW	786	1	blank2r.bmp	866	2	verbissen	866	1	!	1239	1	!	-1	0	0	0	0	0	0	0	0	0	0	0	0	0	0	0	0	0	0	0	0	0	0	0	0	0	0	0
021219	14:00:34	14:07:48	433604	5.0.10.0	4_exp_EVA_AMP_AWA_CON	117	Rpleas_acq	Oppo	Rpleas	Amasked	CS_A	2pleas	distractor2	EVAbeforeCON	acq_US_pleas_masked	acq45_masked	4	17	400	1	300	300	0	0	414	50	0	1	0	0	0	1	blank2r.bmp	0	1	+	0	5	C1r.bmp	492	1	blank2r.bmp	786	1	DHJF	786	1	blank2r.bmp	866	2	vergnügt	866	1	!	1239	1	!	1319	0	0	0	0	0	0	0	0	0	0	0	0	0	0	0	0	0	0	0	0	0	0	0	0	0	0	0
021219	14:00:34	14:07:50	435869	5.0.10.0	4_exp_EVA_AMP_AWA_CON	117	Rpleas_acq	Oppo	Rpleas	Amasked	CS_A	2pleas	distractor2	EVAbeforeCON	acq_US_pleas_masked	acq45_masked	4	18	400	0	300	300	0	0	502	50	0	1	0	0	0	1	blank2r.bmp	0	1	+	0	2	B2r.bmp	492	1	blank2r.bmp	786	1	DHJF	786	1	blank2r.bmp	866	6	vertrauen	866	1	!	1239	1	!	-1	0	0	0	0	0	0	0	0	0	0	0	0	0	0	0	0	0	0	0	0	0	0	0	0	0	0	0
021219	14:00:34	14:07:52	438028	5.0.10.0	4_exp_EVA_AMP_AWA_CON	117	Rpleas_acq	Oppo	Rpleas	Amasked	CS_A	2pleas	distractor2	EVAbeforeCON	acq_US_unple_masked	acq45_masked	4	19	400	1	300	300	0	0	347	46	0	1	0	0	0	1	blank2r.bmp	0	1	+	0	1	B1r.bmp	492	1	blank2r.bmp	786	1	CPLW	786	1	blank2r.bmp	866	4	ausrottung	866	1	!	1239	1	!	1252	0	0	0	0	0	0	0	0	0	0	0	0	0	0	0	0	0	0	0	0	0	0	0	0	0	0	0
021219	14:00:34	14:07:55	440228	5.0.10.0	4_exp_EVA_AMP_AWA_CON	117	Rpleas_acq	Oppo	Rpleas	Amasked	CS_A	2pleas	distractor2	EVAbeforeCON	acq_US_pleas_masked	acq45_masked	4	20	400	1	300	300	0	0	408	50	0	1	0	0	0	1	blank2r.bmp	0	1	+	0	8	C4r.bmp	492	1	blank2r.bmp	786	1	DHJF	786	1	blank2r.bmp	866	3	genießen	866	1	!	1239	1	!	1306	0	0	0	0	0	0	0	0	0	0	0	0	0	0	0	0	0	0	0	0	0	0	0	0	0	0	0
021219	14:00:34	14:07:57	442520	5.0.10.0	4_exp_EVA_AMP_AWA_CON	117	Rpleas_acq	Oppo	Rpleas	Amasked	CS_A	2pleas	distractor2	EVAbeforeCON	acq_US_unple_masked	acq45_masked	4	21	400	0	300	300	0	0	522	46	0	1	0	0	0	1	blank2r.bmp	0	1	+	0	8	C4r.bmp	492	1	blank2r.bmp	786	1	CPLW	786	1	blank2r.bmp	866	5	krise	866	1	!	1239	1	!	-1	0	0	0	0	0	0	0	0	0	0	0	0	0	0	0	0	0	0	0	0	0	0	0	0	0	0	0
021219	14:00:34	14:07:59	444786	5.0.10.0	4_exp_EVA_AMP_AWA_CON	117	Rpleas_acq	Oppo	Rpleas	Amasked	CS_A	2pleas	distractor2	EVAbeforeCON	acq_US_pleas_masked	acq45_masked	4	22	400	1	300	300	0	0	455	46	0	0	0	0	0	1	blank2r.bmp	0	1	+	0	3	B3r.bmp	492	1	blank2r.bmp	786	1	DHJF	786	1	blank2r.bmp	866	5	kuss	866	1	!	1239	1	!	1359	0	0	0	0	0	0	0	0	0	0	0	0	0	0	0	0	0	0	0	0	0	0	0	0	0	0	0
021219	14:00:34	14:08:01	447065	5.0.10.0	4_exp_EVA_AMP_AWA_CON	117	Rpleas_acq	Oppo	Rpleas	Amasked	CS_A	2pleas	distractor2	EVAbeforeCON	acq_US_unple_masked	acq45_masked	4	23	400	0	300	300	0	0	510	50	0	0	0	0	0	1	blank2r.bmp	0	1	+	0	4	B4r.bmp	492	1	blank2r.bmp	786	1	CPLW	786	1	blank2r.bmp	866	3	gemein	866	1	!	1239	1	!	-1	0	0	0	0	0	0	0	0	0	0	0	0	0	0	0	0	0	0	0	0	0	0	0	0	0	0	0
021219	14:00:34	14:08:04	449224	5.0.10.0	4_exp_EVA_AMP_AWA_CON	117	Rpleas_acq	Oppo	Rpleas	Amasked	CS_A	2pleas	distractor2	EVAbeforeCON	acq_US_unple_masked	acq45_masked	4	24	400	1	300	300	0	0	350	46	0	1	0	0	0	1	blank2r.bmp	0	1	+	0	1	B1r.bmp	492	1	blank2r.bmp	786	1	CPLW	786	1	blank2r.bmp	866	3	gemein	866	1	!	1239	1	!	1252	0	0	0	0	0	0	0	0	0	0	0	0	0	0	0	0	0	0	0	0	0	0	0	0	0	0	0
021219	14:00:34	14:08:06	451583	5.0.10.0	4_exp_EVA_AMP_AWA_CON	117	Rpleas_acq	Oppo	Rpleas	Amasked	CS_A	2pleas	distractor2	EVAbeforeCON	acq_US_unple_masked	acq45_masked	4	25	400	0	300	300	0	0	582	46	0	1	0	0	0	1	blank2r.bmp	0	1	+	0	7	C3r.bmp	492	1	blank2r.bmp	786	1	CPLW	786	1	blank2r.bmp	866	5	krise	866	1	!	1239	1	!	-1	0	0	0	0	0	0	0	0	0	0	0	0	0	0	0	0	0	0	0	0	0	0	0	0	0	0	0
021219	14:00:34	14:08:08	453835	5.0.10.0	4_exp_EVA_AMP_AWA_CON	117	Rpleas_acq	Oppo	Rpleas	Amasked	CS_A	2pleas	distractor2	EVAbeforeCON	acq_US_pleas_masked	acq45_masked	4	26	400	1	300	300	0	0	450	50	0	1	0	0	0	1	blank2r.bmp	0	1	+	0	2	B2r.bmp	492	1	blank2r.bmp	786	1	DHJF	786	1	blank2r.bmp	866	1	gesittet	866	1	!	1239	1	!	1346	0	0	0	0	0	0	0	0	0	0	0	0	0	0	0	0	0	0	0	0	0	0	0	0	0	0	0
021219	14:00:34	14:08:10	455994	5.0.10.0	4_exp_EVA_AMP_AWA_CON	117	Rpleas_acq	Oppo	Rpleas	Amasked	CS_A	2pleas	distractor2	EVAbeforeCON	acq_US_pleas_masked	acq45_masked	4	27	400	1	300	300	0	0	361	50	0	1	0	0	0	1	blank2r.bmp	0	1	+	0	5	C1r.bmp	492	1	blank2r.bmp	786	1	DHJF	786	1	blank2r.bmp	866	1	gesittet	866	1	!	1239	1	!	1266	0	0	0	0	0	0	0	0	0	0	0	0	0	0	0	0	0	0	0	0	0	0	0	0	0	0	0
021219	14:00:34	14:08:12	458087	5.0.10.0	4_exp_EVA_AMP_AWA_CON	117	Rpleas_acq	Oppo	Rpleas	Amasked	CS_A	2pleas	distractor2	EVAbeforeCON	acq_US_pleas_masked	acq45_masked	4	28	400	0	300	300	0	0	311	50	0	1	0	0	0	1	blank2r.bmp	0	1	+	0	6	C2r.bmp	492	1	blank2r.bmp	786	1	DHJF	786	1	blank2r.bmp	866	6	vertrauen	866	1	!	-1	1	!	-1	0	0	0	0	0	0	0	0	0	0	0	0	0	0	0	0	0	0	0	0	0	0	0	0	0	0	0
021219	14:00:34	14:08:15	460259	5.0.10.0	4_exp_EVA_AMP_AWA_CON	117	Rpleas_acq	Oppo	Rpleas	Amasked	CS_A	2pleas	distractor2	EVAbeforeCON	acq_US_pleas_masked	acq45_masked	4	29	400	1	300	300	0	0	347	50	0	1	0	0	0	1	blank2r.bmp	0	1	+	0	2	B2r.bmp	492	1	blank2r.bmp	786	1	DHJF	786	1	blank2r.bmp	866	2	vergnügt	866	1	!	1239	1	!	1252	0	0	0	0	0	0	0	0	0	0	0	0	0	0	0	0	0	0	0	0	0	0	0	0	0	0	0
021219	14:00:34	14:08:17	462432	5.0.10.0	4_exp_EVA_AMP_AWA_CON	117	Rpleas_acq	Oppo	Rpleas	Amasked	CS_A	2pleas	distractor2	EVAbeforeCON	acq_US_pleas_masked	acq45_masked	4	30	400	1	300	300	0	0	382	50	0	1	0	0	0	1	blank2r.bmp	0	1	+	0	1	B1r.bmp	492	1	blank2r.bmp	786	1	DHJF	786	1	blank2r.bmp	866	5	kuss	866	1	!	1239	1	!	1279	0	0	0	0	0	0	0	0	0	0	0	0	0	0	0	0	0	0	0	0	0	0	0	0	0	0	0
021219	14:00:34	14:08:19	464711	5.0.10.0	4_exp_EVA_AMP_AWA_CON	117	Rpleas_acq	Oppo	Rpleas	Amasked	CS_A	2pleas	distractor2	EVAbeforeCON	acq_US_unple_masked	acq45_masked	4	31	400	0	300	300	0	0	505	46	0	1	0	0	0	1	blank2r.bmp	0	1	+	0	4	B4r.bmp	492	1	blank2r.bmp	786	1	CPLW	786	1	blank2r.bmp	866	6	versagen	866	1	!	1239	1	!	-1	0	0	0	0	0	0	0	0	0	0	0	0	0	0	0	0	0	0	0	0	0	0	0	0	0	0	0
021219	14:00:34	14:08:21	467030	5.0.10.0	4_exp_EVA_AMP_AWA_CON	117	Rpleas_acq	Oppo	Rpleas	Amasked	CS_A	2pleas	distractor2	EVAbeforeCON	acq_US_unple_masked	acq45_masked	4	32	400	0	300	300	0	0	540	46	0	1	0	0	0	1	blank2r.bmp	0	1	+	0	7	C3r.bmp	492	1	blank2r.bmp	786	1	CPLW	786	1	blank2r.bmp	866	2	verbissen	866	1	!	1239	1	!	-1	0	0	0	0	0	0	0	0	0	0	0	0	0	0	0	0	0	0	0	0	0	0	0	0	0	0	0
021219	14:00:34	14:08:24	469189	5.0.10.0	4_exp_EVA_AMP_AWA_CON	117	Rpleas_acq	Oppo	Rpleas	Amasked	CS_A	2pleas	distractor2	EVAbeforeCON	acq_US_pleas_masked	acq45_masked	4	33	400	1	300	300	0	0	346	46	0	0	0	0	0	1	blank2r.bmp	0	1	+	0	5	C1r.bmp	492	1	blank2r.bmp	786	1	DHJF	786	1	blank2r.bmp	866	3	genießen	866	1	!	1239	1	!	1252	0	0	0	0	0	0	0	0	0	0	0	0	0	0	0	0	0	0	0	0	0	0	0	0	0	0	0
021219	14:00:34	14:08:26	471441	5.0.10.0	4_exp_EVA_AMP_AWA_CON	117	Rpleas_acq	Oppo	Rpleas	Amasked	CS_A	2pleas	distractor2	EVAbeforeCON	acq_US_pleas_masked	acq45_masked	4	34	400	1	300	300	0	0	458	50	0	1	0	0	0	1	blank2r.bmp	0	1	+	0	3	B3r.bmp	492	1	blank2r.bmp	786	1	DHJF	786	1	blank2r.bmp	866	4	anregung	866	1	!	1239	1	!	1359	0	0	0	0	0	0	0	0	0	0	0	0	0	0	0	0	0	0	0	0	0	0	0	0	0	0	0
021219	14:00:34	14:08:28	473627	5.0.10.0	4_exp_EVA_AMP_AWA_CON	117	Rpleas_acq	Oppo	Rpleas	Amasked	CS_A	2pleas	distractor2	EVAbeforeCON	acq_US_unple_masked	acq45_masked	4	35	400	1	300	300	0	0	396	46	0	1	0	0	0	1	blank2r.bmp	0	1	+	0	8	C4r.bmp	492	1	blank2r.bmp	786	1	CPLW	786	1	blank2r.bmp	866	4	ausrottung	866	1	!	1239	1	!	1292	0	0	0	0	0	0	0	0	0	0	0	0	0	0	0	0	0	0	0	0	0	0	0	0	0	0	0
021219	14:00:34	14:08:30	475866	5.0.10.0	4_exp_EVA_AMP_AWA_CON	117	Rpleas_acq	Oppo	Rpleas	Amasked	CS_A	2pleas	distractor2	EVAbeforeCON	acq_US_unple_masked	acq45_masked	4	36	400	1	300	300	0	0	445	46	0	1	0	0	0	1	blank2r.bmp	0	1	+	0	6	C2r.bmp	492	1	blank2r.bmp	786	1	CPLW	786	1	blank2r.bmp	866	1	geizig	866	1	!	1239	1	!	1346	0	0	0	0	0	0	0	0	0	0	0	0	0	0	0	0	0	0	0	0	0	0	0	0	0	0	0
021219	14:00:34	14:08:49	494365	5.0.10.0	4_exp_EVA_AMP_AWA_CON	117	Rpleas_acq	Oppo	Rpleas	Amasked	CS_A	2pleas	distractor2	EVAbeforeCON	acq_US_pleas_masked	acq45_masked	5	1	400	0	300	300	0	0	479	50	0	1	0	0	0	1	blank2r.bmp	0	1	+	0	5	C1r.bmp	492	1	blank2r.bmp	786	1	DHJF	786	1	blank2r.bmp	866	5	kuss	866	1	!	1239	1	!	-1	0	0	0	0	0	0	0	0	0	0	0	0	0	0	0	0	0	0	0	0	0	0	0	0	0	0	0
021219	14:00:34	14:08:51	496537	5.0.10.0	4_exp_EVA_AMP_AWA_CON	117	Rpleas_acq	Oppo	Rpleas	Amasked	CS_A	2pleas	distractor2	EVAbeforeCON	acq_US_pleas_masked	acq45_masked	5	2	400	1	300	300	0	0	362	46	0	0	0	0	0	1	blank2r.bmp	0	1	+	0	8	C4r.bmp	492	1	blank2r.bmp	786	1	DHJF	786	1	blank2r.bmp	866	4	anregung	866	1	!	1239	1	!	1266	0	0	0	0	0	0	0	0	0	0	0	0	0	0	0	0	0	0	0	0	0	0	0	0	0	0	0
021219	14:00:34	14:08:53	498776	5.0.10.0	4_exp_EVA_AMP_AWA_CON	117	Rpleas_acq	Oppo	Rpleas	Amasked	CS_A	2pleas	distractor2	EVAbeforeCON	acq_US_pleas_masked	acq45_masked	5	3	400	1	300	300	0	0	427	50	0	1	0	0	0	1	blank2r.bmp	0	1	+	0	1	B1r.bmp	492	1	blank2r.bmp	786	1	DHJF	786	1	blank2r.bmp	866	6	vertrauen	866	1	!	1239	1	!	1332	0	0	0	0	0	0	0	0	0	0	0	0	0	0	0	0	0	0	0	0	0	0	0	0	0	0	0
021219	14:00:34	14:08:55	501029	5.0.10.0	4_exp_EVA_AMP_AWA_CON	117	Rpleas_acq	Oppo	Rpleas	Amasked	CS_A	2pleas	distractor2	EVAbeforeCON	acq_US_unple_masked	acq45_masked	5	4	400	1	300	300	0	0	457	46	0	1	0	0	0	1	blank2r.bmp	0	1	+	0	6	C2r.bmp	492	1	blank2r.bmp	786	1	CPLW	786	1	blank2r.bmp	866	3	gemein	866	1	!	1239	1	!	1359	0	0	0	0	0	0	0	0	0	0	0	0	0	0	0	0	0	0	0	0	0	0	0	0	0	0	0
021219	14:00:34	14:09:01	506746	5.0.10.0	4_exp_EVA_AMP_AWA_CON	117	Rpleas_acq	Oppo	Rpleas	Amasked	CS_A	2pleas	distractor2	EVAbeforeCON	acq_US_pleas_masked	acq45_masked	5	5	400	0	300	300	0	0	3950	50	0	1	0	0	0	1	blank2r.bmp	0	1	+	0	3	B3r.bmp	492	1	blank2r.bmp	786	1	DHJF	786	1	blank2r.bmp	866	3	genießen	866	1	!	1239	1	!	-1	0	0	0	0	0	0	0	0	0	0	0	0	0	0	0	0	0	0	0	0	0	0	0	0	0	0	0
021219	14:00:34	14:09:03	509105	5.0.10.0	4_exp_EVA_AMP_AWA_CON	117	Rpleas_acq	Oppo	Rpleas	Amasked	CS_A	2pleas	distractor2	EVAbeforeCON	acq_US_unple_masked	acq45_masked	5	6	400	0	300	300	0	0	574	46	0	1	0	0	0	1	blank2r.bmp	0	1	+	0	4	B4r.bmp	492	1	blank2r.bmp	786	1	CPLW	786	1	blank2r.bmp	866	2	verbissen	866	1	!	1239	1	!	-1	0	0	0	0	0	0	0	0	0	0	0	0	0	0	0	0	0	0	0	0	0	0	0	0	0	0	0
021219	14:00:34	14:09:06	511424	5.0.10.0	4_exp_EVA_AMP_AWA_CON	117	Rpleas_acq	Oppo	Rpleas	Amasked	CS_A	2pleas	distractor2	EVAbeforeCON	acq_US_pleas_masked	acq45_masked	5	7	400	0	300	300	0	0	544	50	0	1	0	0	0	1	blank2r.bmp	0	1	+	0	7	C3r.bmp	492	1	blank2r.bmp	786	1	DHJF	786	1	blank2r.bmp	866	2	vergnügt	866	1	!	1239	1	!	-1	0	0	0	0	0	0	0	0	0	0	0	0	0	0	0	0	0	0	0	0	0	0	0	0	0	0	0
021219	14:00:34	14:09:08	513663	5.0.10.0	4_exp_EVA_AMP_AWA_CON	117	Rpleas_acq	Oppo	Rpleas	Amasked	CS_A	2pleas	distractor2	EVAbeforeCON	acq_US_pleas_masked	acq45_masked	5	8	400	1	300	300	0	0	430	50	0	1	0	0	0	1	blank2r.bmp	0	1	+	0	2	B2r.bmp	492	1	blank2r.bmp	786	1	DHJF	786	1	blank2r.bmp	866	1	gesittet	866	1	!	1239	1	!	1332	0	0	0	0	0	0	0	0	0	0	0	0	0	0	0	0	0	0	0	0	0	0	0	0	0	0	0
021219	14:00:34	14:09:10	515862	5.0.10.0	4_exp_EVA_AMP_AWA_CON	117	Rpleas_acq	Oppo	Rpleas	Amasked	CS_A	2pleas	distractor2	EVAbeforeCON	acq_US_pleas_masked	acq45_masked	5	9	400	1	300	300	0	0	406	50	0	1	0	0	0	1	blank2r.bmp	0	1	+	0	4	B4r.bmp	492	1	blank2r.bmp	786	1	DHJF	786	1	blank2r.bmp	866	4	anregung	866	1	!	1239	1	!	1306	0	0	0	0	0	0	0	0	0	0	0	0	0	0	0	0	0	0	0	0	0	0	0	0	0	0	0
021219	14:00:34	14:09:12	518035	5.0.10.0	4_exp_EVA_AMP_AWA_CON	117	Rpleas_acq	Oppo	Rpleas	Amasked	CS_A	2pleas	distractor2	EVAbeforeCON	acq_US_unple_masked	acq45_masked	5	10	400	1	300	300	0	0	382	50	0	0	0	0	0	1	blank2r.bmp	0	1	+	0	7	C3r.bmp	492	1	blank2r.bmp	786	1	CPLW	786	1	blank2r.bmp	866	6	versagen	866	1	!	1239	1	!	1279	0	0	0	0	0	0	0	0	0	0	0	0	0	0	0	0	0	0	0	0	0	0	0	0	0	0	0
021219	14:00:34	14:09:15	520287	5.0.10.0	4_exp_EVA_AMP_AWA_CON	117	Rpleas_acq	Oppo	Rpleas	Amasked	CS_A	2pleas	distractor2	EVAbeforeCON	acq_US_unple_masked	acq45_masked	5	11	400	1	300	300	0	0	449	46	0	1	0	0	0	1	blank2r.bmp	0	1	+	0	2	B2r.bmp	492	1	blank2r.bmp	786	1	CPLW	786	1	blank2r.bmp	866	5	krise	866	1	!	1239	1	!	1346	0	0	0	0	0	0	0	0	0	0	0	0	0	0	0	0	0	0	0	0	0	0	0	0	0	0	0
021219	14:00:34	14:09:17	522553	5.0.10.0	4_exp_EVA_AMP_AWA_CON	117	Rpleas_acq	Oppo	Rpleas	Amasked	CS_A	2pleas	distractor2	EVAbeforeCON	acq_US_unple_masked	acq45_masked	5	12	400	0	300	300	0	0	503	46	0	1	0	0	0	1	blank2r.bmp	0	1	+	0	6	C2r.bmp	492	1	blank2r.bmp	786	1	CPLW	786	1	blank2r.bmp	866	1	geizig	866	1	!	1239	1	!	-1	0	0	0	0	0	0	0	0	0	0	0	0	0	0	0	0	0	0	0	0	0	0	0	0	0	0	0
021219	14:00:34	14:09:19	524645	5.0.10.0	4_exp_EVA_AMP_AWA_CON	117	Rpleas_acq	Oppo	Rpleas	Amasked	CS_A	2pleas	distractor2	EVAbeforeCON	acq_US_unple_masked	acq45_masked	5	13	400	0	300	300	0	0	306	50	0	0	0	0	0	1	blank2r.bmp	0	1	+	0	8	C4r.bmp	492	1	blank2r.bmp	786	1	CPLW	786	1	blank2r.bmp	866	4	ausrottung	866	1	!	-1	1	!	-1	0	0	0	0	0	0	0	0	0	0	0	0	0	0	0	0	0	0	0	0	0	0	0	0	0	0	0
021219	14:00:34	14:09:21	527044	5.0.10.0	4_exp_EVA_AMP_AWA_CON	117	Rpleas_acq	Oppo	Rpleas	Amasked	CS_A	2pleas	distractor2	EVAbeforeCON	acq_US_pleas_masked	acq45_masked	5	14	400	0	300	300	0	0	615	50	0	1	0	0	0	1	blank2r.bmp	0	1	+	0	1	B1r.bmp	492	1	blank2r.bmp	786	1	DHJF	786	1	blank2r.bmp	866	3	genießen	866	1	!	1239	1	!	-1	0	0	0	0	0	0	0	0	0	0	0	0	0	0	0	0	0	0	0	0	0	0	0	0	0	0	0
021219	14:00:34	14:09:24	529230	5.0.10.0	4_exp_EVA_AMP_AWA_CON	117	Rpleas_acq	Oppo	Rpleas	Amasked	CS_A	2pleas	distractor2	EVAbeforeCON	acq_US_unple_masked	acq45_masked	5	15	400	1	300	300	0	0	380	50	0	0	0	0	0	1	blank2r.bmp	0	1	+	0	3	B3r.bmp	492	1	blank2r.bmp	786	1	CPLW	786	1	blank2r.bmp	866	6	versagen	866	1	!	1239	1	!	1279	0	0	0	0	0	0	0	0	0	0	0	0	0	0	0	0	0	0	0	0	0	0	0	0	0	0	0
021219	14:00:34	14:09:26	531429	5.0.10.0	4_exp_EVA_AMP_AWA_CON	117	Rpleas_acq	Oppo	Rpleas	Amasked	CS_A	2pleas	distractor2	EVAbeforeCON	acq_US_unple_masked	acq45_masked	5	16	400	1	300	300	0	0	406	46	0	1	0	0	0	1	blank2r.bmp	0	1	+	0	5	C1r.bmp	492	1	blank2r.bmp	786	1	CPLW	786	1	blank2r.bmp	866	2	verbissen	866	1	!	1239	1	!	1306	0	0	0	0	0	0	0	0	0	0	0	0	0	0	0	0	0	0	0	0	0	0	0	0	0	0	0
021219	14:00:34	14:09:28	533522	5.0.10.0	4_exp_EVA_AMP_AWA_CON	117	Rpleas_acq	Oppo	Rpleas	Amasked	CS_A	2pleas	distractor2	EVAbeforeCON	acq_US_unple_masked	acq45_masked	5	17	400	0	300	300	0	0	326	46	0	1	0	0	0	1	blank2r.bmp	0	1	+	0	7	C3r.bmp	492	1	blank2r.bmp	786	1	CPLW	786	1	blank2r.bmp	866	1	geizig	866	1	!	-1	1	!	-1	0	0	0	0	0	0	0	0	0	0	0	0	0	0	0	0	0	0	0	0	0	0	0	0	0	0	0
021219	14:00:34	14:09:30	535894	5.0.10.0	4_exp_EVA_AMP_AWA_CON	117	Rpleas_acq	Oppo	Rpleas	Amasked	CS_A	2pleas	distractor2	EVAbeforeCON	acq_US_pleas_masked	acq45_masked	5	18	400	0	300	300	0	0	597	50	0	1	0	0	0	1	blank2r.bmp	0	1	+	0	6	C2r.bmp	492	1	blank2r.bmp	786	1	DHJF	786	1	blank2r.bmp	866	1	gesittet	866	1	!	1239	1	!	-1	0	0	0	0	0	0	0	0	0	0	0	0	0	0	0	0	0	0	0	0	0	0	0	0	0	0	0
021219	14:00:34	14:09:33	538146	5.0.10.0	4_exp_EVA_AMP_AWA_CON	117	Rpleas_acq	Oppo	Rpleas	Amasked	CS_A	2pleas	distractor2	EVAbeforeCON	acq_US_pleas_masked	acq45_masked	5	19	400	1	300	300	0	0	448	50	0	1	0	0	0	1	blank2r.bmp	0	1	+	0	1	B1r.bmp	492	1	blank2r.bmp	786	1	DHJF	786	1	blank2r.bmp	866	2	vergnügt	866	1	!	1239	1	!	1346	0	0	0	0	0	0	0	0	0	0	0	0	0	0	0	0	0	0	0	0	0	0	0	0	0	0	0
021219	14:00:34	14:09:35	540399	5.0.10.0	4_exp_EVA_AMP_AWA_CON	117	Rpleas_acq	Oppo	Rpleas	Amasked	CS_A	2pleas	distractor2	EVAbeforeCON	acq_US_pleas_masked	acq45_masked	5	20	400	1	300	300	0	0	456	50	0	1	0	0	0	1	blank2r.bmp	0	1	+	0	2	B2r.bmp	492	1	blank2r.bmp	786	1	DHJF	786	1	blank2r.bmp	866	6	vertrauen	866	1	!	1239	1	!	1359	0	0	0	0	0	0	0	0	0	0	0	0	0	0	0	0	0	0	0	0	0	0	0	0	0	0	0
021219	14:00:34	14:09:37	542598	5.0.10.0	4_exp_EVA_AMP_AWA_CON	117	Rpleas_acq	Oppo	Rpleas	Amasked	CS_A	2pleas	distractor2	EVAbeforeCON	acq_US_pleas_masked	acq45_masked	5	21	400	1	300	300	0	0	407	50	0	1	0	0	0	1	blank2r.bmp	0	1	+	0	4	B4r.bmp	492	1	blank2r.bmp	786	1	DHJF	786	1	blank2r.bmp	866	5	kuss	866	1	!	1239	1	!	1306	0	0	0	0	0	0	0	0	0	0	0	0	0	0	0	0	0	0	0	0	0	0	0	0	0	0	0
021219	14:00:34	14:09:39	544944	5.0.10.0	4_exp_EVA_AMP_AWA_CON	117	Rpleas_acq	Oppo	Rpleas	Amasked	CS_A	2pleas	distractor2	EVAbeforeCON	acq_US_unple_masked	acq45_masked	5	22	400	0	300	300	0	0	579	46	0	1	0	0	0	1	blank2r.bmp	0	1	+	0	8	C4r.bmp	492	1	blank2r.bmp	786	1	CPLW	786	1	blank2r.bmp	866	5	krise	866	1	!	1239	1	!	-1	0	0	0	0	0	0	0	0	0	0	0	0	0	0	0	0	0	0	0	0	0	0	0	0	0	0	0
021219	14:00:34	14:09:42	547223	5.0.10.0	4_exp_EVA_AMP_AWA_CON	117	Rpleas_acq	Oppo	Rpleas	Amasked	CS_A	2pleas	distractor2	EVAbeforeCON	acq_US_unple_masked	acq45_masked	5	23	400	0	300	300	0	0	503	46	0	1	0	0	0	1	blank2r.bmp	0	1	+	0	5	C1r.bmp	492	1	blank2r.bmp	786	1	CPLW	786	1	blank2r.bmp	866	3	gemein	866	1	!	1239	1	!	-1	0	0	0	0	0	0	0	0	0	0	0	0	0	0	0	0	0	0	0	0	0	0	0	0	0	0	0
021219	14:00:34	14:09:44	549435	5.0.10.0	4_exp_EVA_AMP_AWA_CON	117	Rpleas_acq	Oppo	Rpleas	Amasked	CS_A	2pleas	distractor2	EVAbeforeCON	acq_US_pleas_masked	acq45_masked	5	24	400	1	300	300	0	0	402	46	0	0	0	0	0	1	blank2r.bmp	0	1	+	0	3	B3r.bmp	492	1	blank2r.bmp	786	1	DHJF	786	1	blank2r.bmp	866	1	gesittet	866	1	!	1239	1	!	1306	0	0	0	0	0	0	0	0	0	0	0	0	0	0	0	0	0	0	0	0	0	0	0	0	0	0	0
021219	14:00:34	14:09:46	551687	5.0.10.0	4_exp_EVA_AMP_AWA_CON	117	Rpleas_acq	Oppo	Rpleas	Amasked	CS_A	2pleas	distractor2	EVAbeforeCON	acq_US_unple_masked	acq45_masked	5	25	400	0	300	300	0	0	479	46	0	1	0	0	0	1	blank2r.bmp	0	1	+	0	5	C1r.bmp	492	1	blank2r.bmp	786	1	CPLW	786	1	blank2r.bmp	866	4	ausrottung	866	1	!	1239	1	!	-1	0	0	0	0	0	0	0	0	0	0	0	0	0	0	0	0	0	0	0	0	0	0	0	0	0	0	0
021219	14:00:34	14:09:48	553940	5.0.10.0	4_exp_EVA_AMP_AWA_CON	117	Rpleas_acq	Oppo	Rpleas	Amasked	CS_A	2pleas	distractor2	EVAbeforeCON	acq_US_unple_masked	acq45_masked	5	26	400	1	300	300	0	0	448	46	0	1	0	0	0	1	blank2r.bmp	0	1	+	0	3	B3r.bmp	492	1	blank2r.bmp	786	1	CPLW	786	1	blank2r.bmp	866	2	verbissen	866	1	!	1239	1	!	1346	0	0	0	0	0	0	0	0	0	0	0	0	0	0	0	0	0	0	0	0	0	0	0	0	0	0	0
021219	14:00:34	14:09:51	556245	5.0.10.0	4_exp_EVA_AMP_AWA_CON	117	Rpleas_acq	Oppo	Rpleas	Amasked	CS_A	2pleas	distractor2	EVAbeforeCON	acq_US_unple_masked	acq45_masked	5	27	400	0	300	300	0	0	537	50	0	0	0	0	0	1	blank2r.bmp	0	1	+	0	6	C2r.bmp	492	1	blank2r.bmp	786	1	CPLW	786	1	blank2r.bmp	866	6	versagen	866	1	!	1239	1	!	-1	0	0	0	0	0	0	0	0	0	0	0	0	0	0	0	0	0	0	0	0	0	0	0	0	0	0	0
021219	14:00:34	14:09:53	558524	5.0.10.0	4_exp_EVA_AMP_AWA_CON	117	Rpleas_acq	Oppo	Rpleas	Amasked	CS_A	2pleas	distractor2	EVAbeforeCON	acq_US_unple_masked	acq45_masked	5	28	400	0	300	300	0	0	504	46	0	1	0	0	0	1	blank2r.bmp	0	1	+	0	8	C4r.bmp	492	1	blank2r.bmp	786	1	CPLW	786	1	blank2r.bmp	866	4	ausrottung	866	1	!	1239	1	!	-1	0	0	0	0	0	0	0	0	0	0	0	0	0	0	0	0	0	0	0	0	0	0	0	0	0	0	0
021219	14:00:34	14:09:55	560764	5.0.10.0	4_exp_EVA_AMP_AWA_CON	117	Rpleas_acq	Oppo	Rpleas	Amasked	CS_A	2pleas	distractor2	EVAbeforeCON	acq_US_pleas_masked	acq45_masked	5	29	400	1	300	300	0	0	431	50	0	1	0	0	0	1	blank2r.bmp	0	1	+	0	7	C3r.bmp	492	1	blank2r.bmp	786	1	DHJF	786	1	blank2r.bmp	866	5	kuss	866	1	!	1239	1	!	1332	0	0	0	0	0	0	0	0	0	0	0	0	0	0	0	0	0	0	0	0	0	0	0	0	0	0	0
021219	14:00:34	14:09:57	563029	5.0.10.0	4_exp_EVA_AMP_AWA_CON	117	Rpleas_acq	Oppo	Rpleas	Amasked	CS_A	2pleas	distractor2	EVAbeforeCON	acq_US_pleas_masked	acq45_masked	5	30	400	0	300	300	0	0	479	46	0	0	0	0	0	1	blank2r.bmp	0	1	+	0	2	B2r.bmp	492	1	blank2r.bmp	786	1	DHJF	786	1	blank2r.bmp	866	4	anregung	866	1	!	1239	1	!	-1	0	0	0	0	0	0	0	0	0	0	0	0	0	0	0	0	0	0	0	0	0	0	0	0	0	0	0
021219	14:00:34	14:10:00	565295	5.0.10.0	4_exp_EVA_AMP_AWA_CON	117	Rpleas_acq	Oppo	Rpleas	Amasked	CS_A	2pleas	distractor2	EVAbeforeCON	acq_US_pleas_masked	acq45_masked	5	31	400	1	300	300	0	0	465	50	0	1	0	0	0	1	blank2r.bmp	0	1	+	0	4	B4r.bmp	492	1	blank2r.bmp	786	1	DHJF	786	1	blank2r.bmp	866	2	vergnügt	866	1	!	1239	1	!	1359	0	0	0	0	0	0	0	0	0	0	0	0	0	0	0	0	0	0	0	0	0	0	0	0	0	0	0
021219	14:00:34	14:10:02	567454	5.0.10.0	4_exp_EVA_AMP_AWA_CON	117	Rpleas_acq	Oppo	Rpleas	Amasked	CS_A	2pleas	distractor2	EVAbeforeCON	acq_US_pleas_masked	acq45_masked	5	32	400	1	300	300	0	0	368	50	0	1	0	0	0	1	blank2r.bmp	0	1	+	0	1	B1r.bmp	492	1	blank2r.bmp	786	1	DHJF	786	1	blank2r.bmp	866	3	genießen	866	1	!	1239	1	!	1266	0	0	0	0	0	0	0	0	0	0	0	0	0	0	0	0	0	0	0	0	0	0	0	0	0	0	0
021219	14:00:34	14:10:04	569720	5.0.10.0	4_exp_EVA_AMP_AWA_CON	117	Rpleas_acq	Oppo	Rpleas	Amasked	CS_A	2pleas	distractor2	EVAbeforeCON	acq_US_unple_masked	acq45_masked	5	33	400	0	300	300	0	0	479	46	0	1	0	0	0	1	blank2r.bmp	0	1	+	0	6	C2r.bmp	492	1	blank2r.bmp	786	1	CPLW	786	1	blank2r.bmp	866	3	gemein	866	1	!	1239	1	!	-1	0	0	0	0	0	0	0	0	0	0	0	0	0	0	0	0	0	0	0	0	0	0	0	0	0	0	0
021219	14:00:34	14:10:06	571892	5.0.10.0	4_exp_EVA_AMP_AWA_CON	117	Rpleas_acq	Oppo	Rpleas	Amasked	CS_A	2pleas	distractor2	EVAbeforeCON	acq_US_unple_masked	acq45_masked	5	34	400	1	300	300	0	0	355	50	0	0	0	0	0	1	blank2r.bmp	0	1	+	0	5	C1r.bmp	492	1	blank2r.bmp	786	1	CPLW	786	1	blank2r.bmp	866	1	geizig	866	1	!	1239	1	!	1252	0	0	0	0	0	0	0	0	0	0	0	0	0	0	0	0	0	0	0	0	0	0	0	0	0	0	0
021219	14:00:34	14:10:09	574145	5.0.10.0	4_exp_EVA_AMP_AWA_CON	117	Rpleas_acq	Oppo	Rpleas	Amasked	CS_A	2pleas	distractor2	EVAbeforeCON	acq_US_unple_masked	acq45_masked	5	35	400	0	300	300	0	0	479	46	0	1	0	0	0	1	blank2r.bmp	0	1	+	0	7	C3r.bmp	492	1	blank2r.bmp	786	1	CPLW	786	1	blank2r.bmp	866	5	krise	866	1	!	1239	1	!	-1	0	0	0	0	0	0	0	0	0	0	0	0	0	0	0	0	0	0	0	0	0	0	0	0	0	0	0
021219	14:00:34	14:10:11	576424	5.0.10.0	4_exp_EVA_AMP_AWA_CON	117	Rpleas_acq	Oppo	Rpleas	Amasked	CS_A	2pleas	distractor2	EVAbeforeCON	acq_US_pleas_masked	acq45_masked	5	36	400	0	300	300	0	0	497	46	0	0	0	0	0	1	blank2r.bmp	0	1	+	0	3	B3r.bmp	492	1	blank2r.bmp	786	1	DHJF	786	1	blank2r.bmp	866	6	vertrauen	866	1	!	1239	1	!	-1	0	0	0	0	0	0	0	0	0	0	0	0	0	0	0	0	0	0	0	0	0	0	0	0	0	0	0
021219	14:00:34	14:10:31	596269	5.0.10.0	4_exp_EVA_AMP_AWA_CON	117	Rpleas_acq	Oppo	Lpleas	Amasked	CS_A	2pleas	distractor2	EVAbeforeCON	EvalRating_firsttwo	EvalRating_firsttwo	6	1	0	0	300	300	0	0	3331	line	-83,251953125	0	0	0	0	1	eraser	1	1	Wie angenehm oder unangenehm finden Sie die  Buchstabenkette ZGXT?	1	1	leftborder	1	1	rightborder	1	1	line	1	1	Unangenehm	1	1	Angenehm	1	0	0	0	0	0	0	0	0	0	0	0	0	0	0	0	0	0	0	0	0	0	0	0	0	0	0	0	0	0	0	0	0	0
021219	14:00:34	14:10:36	601400	5.0.10.0	4_exp_EVA_AMP_AWA_CON	117	Rpleas_acq	Oppo	Lpleas	Amasked	CS_A	2pleas	distractor2	EVAbeforeCON	EvalRating_lastfour	EvalRating_lastfour	7	1	0	0	300	300	0	0	2667	line	-9,033203125	0	0	0	0	1	eraser	0	3	Wie angenehm oder unangenehm finden Sie die  Buchstabenkette QYSB?	0	1	leftborder	0	1	rightborder	0	1	line	0	1	Unangenehm	0	1	Angenehm	0	0	0	0	0	0	0	0	0	0	0	0	0	0	0	0	0	0	0	0	0	0	0	0	0	0	0	0	0	0	0	0	0	0
021219	14:00:34	14:10:38	603785	5.0.10.0	4_exp_EVA_AMP_AWA_CON	117	Rpleas_acq	Oppo	Lpleas	Amasked	CS_A	2pleas	distractor2	EVAbeforeCON	blank_screen	EvalRating_lastfour	7	3	0	0	300	300	0	0	0	0	-9,033203125	0	0	0	0	1	eraser	0	0	0	0	0	0	0	0	0	0	0	0	0	0	0	0	0	0	0	0	0	0	0	0	0	0	0	0	0	0	0	0	0	0	0	0	0	0	0	0	0	0	0	0	0	0	0	0	0	0	0	0
021219	14:00:34	14:10:41	606584	5.0.10.0	4_exp_EVA_AMP_AWA_CON	117	Rpleas_acq	Oppo	Lpleas	Amasked	CS_A	2pleas	distractor2	EVAbeforeCON	EvalRating_lastfour	EvalRating_lastfour	7	4	0	0	300	300	0	0	2213	line	19,04296875	0	0	0	0	1	eraser	0	1	Wie angenehm oder unangenehm finden Sie die  Buchstabenkette CPLW?	0	1	leftborder	0	1	rightborder	0	1	line	0	1	Unangenehm	0	1	Angenehm	0	0	0	0	0	0	0	0	0	0	0	0	0	0	0	0	0	0	0	0	0	0	0	0	0	0	0	0	0	0	0	0	0	0
021219	14:00:34	14:10:43	608957	5.0.10.0	4_exp_EVA_AMP_AWA_CON	117	Rpleas_acq	Oppo	Lpleas	Amasked	CS_A	2pleas	distractor2	EVAbeforeCON	blank_screen	EvalRating_lastfour	7	6	0	0	300	300	0	0	0	0	19,04296875	0	0	0	0	1	eraser	0	0	0	0	0	0	0	0	0	0	0	0	0	0	0	0	0	0	0	0	0	0	0	0	0	0	0	0	0	0	0	0	0	0	0	0	0	0	0	0	0	0	0	0	0	0	0	0	0	0	0	0
021219	14:00:34	14:10:46	611889	5.0.10.0	4_exp_EVA_AMP_AWA_CON	117	Rpleas_acq	Oppo	Lpleas	Amasked	CS_A	2pleas	distractor2	EVAbeforeCON	EvalRating_lastfour	EvalRating_lastfour	7	7	0	0	300	300	0	0	2354	line	54,19921875	0	0	0	0	1	eraser	0	2	Wie angenehm oder unangenehm finden Sie die  Buchstabenkette DHJF?	0	1	leftborder	0	1	rightborder	0	1	line	0	1	Unangenehm	0	1	Angenehm	0	0	0	0	0	0	0	0	0	0	0	0	0	0	0	0	0	0	0	0	0	0	0	0	0	0	0	0	0	0	0	0	0	0
021219	14:00:34	14:11:17	642263	5.0.10.0	4_exp_EVA_AMP_AWA_CON	117	Rpleas_acq	Oppo	Lpleas	Amasked	CS_A	2pleas	distractor2	EVAbeforeCON	AMP_distractor	AMP1_masked	8	1	0	0	300	300	0	0	2482	46	54,19921875	0	0	0	0	1	blank2r.bmp	0	1	QYSB	0	1	blank2r.bmp	79	2	pic2.bmp	199	1	whitenoise_No3.bmp	306	0	0	0	0	0	0	0	0	0	0	0	0	0	0	0	0	0	0	0	0	0	0	0	0	0	0	0	0	0	0	0	0	0	0	0	0	0	0	0
021219	14:00:34	14:11:21	646647	5.0.10.0	4_exp_EVA_AMP_AWA_CON	117	Rpleas_acq	Oppo	Lpleas	Amasked	CS_A	2pleas	distractor2	EVAbeforeCON	AMP_CSunple	AMP1_masked	8	2	0	0	300	300	0	0	3466	46	54,19921875	0	0	0	0	1	blank2r.bmp	0	1	CPLW	0	1	blank2r.bmp	79	143	pic143.bmp	199	1	whitenoise_No3.bmp	306	0	0	0	0	0	0	0	0	0	0	0	0	0	0	0	0	0	0	0	0	0	0	0	0	0	0	0	0	0	0	0	0	0	0	0	0	0	0	0
021219	14:00:34	14:11:23	648500	5.0.10.0	4_exp_EVA_AMP_AWA_CON	117	Rpleas_acq	Oppo	Lpleas	Amasked	CS_A	2pleas	distractor2	EVAbeforeCON	AMP_CSunple	AMP1_masked	8	3	0	0	300	300	0	0	934	46	54,19921875	0	0	0	0	1	blank2r.bmp	0	1	CPLW	0	1	blank2r.bmp	79	27	pic27.bmp	199	1	whitenoise_No3.bmp	306	0	0	0	0	0	0	0	0	0	0	0	0	0	0	0	0	0	0	0	0	0	0	0	0	0	0	0	0	0	0	0	0	0	0	0	0	0	0	0
021219	14:00:34	14:11:25	650313	5.0.10.0	4_exp_EVA_AMP_AWA_CON	117	Rpleas_acq	Oppo	Lpleas	Amasked	CS_A	2pleas	distractor2	EVAbeforeCON	AMP_CSunple	AMP1_masked	8	4	0	0	300	300	0	0	896	50	54,19921875	1	0	0	0	1	blank2r.bmp	0	1	CPLW	0	1	blank2r.bmp	79	52	pic52.bmp	199	1	whitenoise_No3.bmp	306	0	0	0	0	0	0	0	0	0	0	0	0	0	0	0	0	0	0	0	0	0	0	0	0	0	0	0	0	0	0	0	0	0	0	0	0	0	0	0
021219	14:00:34	14:11:26	652018	5.0.10.0	4_exp_EVA_AMP_AWA_CON	117	Rpleas_acq	Oppo	Lpleas	Amasked	CS_A	2pleas	distractor2	EVAbeforeCON	AMP_CSunple	AMP1_masked	8	5	0	0	300	300	0	0	791	46	54,19921875	0	0	0	0	1	blank2r.bmp	0	1	CPLW	0	1	blank2r.bmp	79	129	pic129.bmp	199	1	whitenoise_No3.bmp	306	0	0	0	0	0	0	0	0	0	0	0	0	0	0	0	0	0	0	0	0	0	0	0	0	0	0	0	0	0	0	0	0	0	0	0	0	0	0	0
021219	14:00:34	14:11:29	654164	5.0.10.0	4_exp_EVA_AMP_AWA_CON	117	Rpleas_acq	Oppo	Lpleas	Amasked	CS_A	2pleas	distractor2	EVAbeforeCON	AMP_distractor	AMP1_masked	8	6	0	0	300	300	0	0	1215	50	54,19921875	0	0	0	0	1	blank2r.bmp	0	1	QYSB	0	1	blank2r.bmp	79	15	pic15.bmp	199	1	whitenoise_No3.bmp	306	0	0	0	0	0	0	0	0	0	0	0	0	0	0	0	0	0	0	0	0	0	0	0	0	0	0	0	0	0	0	0	0	0	0	0	0	0	0	0
021219	14:00:34	14:11:30	655630	5.0.10.0	4_exp_EVA_AMP_AWA_CON	117	Rpleas_acq	Oppo	Lpleas	Amasked	CS_A	2pleas	distractor2	EVAbeforeCON	AMP_CSpleas	AMP1_masked	8	7	0	0	300	300	0	0	547	46	54,19921875	1	0	0	0	1	blank2r.bmp	0	1	DHJF	0	1	blank2r.bmp	79	140	pic140.bmp	199	1	whitenoise_No3.bmp	306	0	0	0	0	0	0	0	0	0	0	0	0	0	0	0	0	0	0	0	0	0	0	0	0	0	0	0	0	0	0	0	0	0	0	0	0	0	0	0
021219	14:00:34	14:11:32	657243	5.0.10.0	4_exp_EVA_AMP_AWA_CON	117	Rpleas_acq	Oppo	Lpleas	Amasked	CS_A	2pleas	distractor2	EVAbeforeCON	AMP_distractor	AMP1_masked	8	8	0	0	300	300	0	0	695	46	54,19921875	0	0	0	0	1	blank2r.bmp	0	1	QYSB	0	1	blank2r.bmp	79	44	pic44.bmp	199	1	whitenoise_No3.bmp	306	0	0	0	0	0	0	0	0	0	0	0	0	0	0	0	0	0	0	0	0	0	0	0	0	0	0	0	0	0	0	0	0	0	0	0	0	0	0	0
021219	14:00:34	14:11:33	658922	5.0.10.0	4_exp_EVA_AMP_AWA_CON	117	Rpleas_acq	Oppo	Lpleas	Amasked	CS_A	2pleas	distractor2	EVAbeforeCON	AMP_CSunple	AMP1_masked	8	9	0	0	300	300	0	0	771	46	54,19921875	0	0	0	0	1	blank2r.bmp	0	1	CPLW	0	1	blank2r.bmp	79	142	pic142.bmp	199	1	whitenoise_No3.bmp	306	0	0	0	0	0	0	0	0	0	0	0	0	0	0	0	0	0	0	0	0	0	0	0	0	0	0	0	0	0	0	0	0	0	0	0	0	0	0	0
021219	14:00:34	14:11:35	660735	5.0.10.0	4_exp_EVA_AMP_AWA_CON	117	Rpleas_acq	Oppo	Lpleas	Amasked	CS_A	2pleas	distractor2	EVAbeforeCON	AMP_distractor	AMP1_masked	8	10	0	0	300	300	0	0	889	46	54,19921875	0	0	0	0	1	blank2r.bmp	0	1	QYSB	0	1	blank2r.bmp	79	124	pic124.bmp	199	1	whitenoise_No3.bmp	306	0	0	0	0	0	0	0	0	0	0	0	0	0	0	0	0	0	0	0	0	0	0	0	0	0	0	0	0	0	0	0	0	0	0	0	0	0	0	0
021219	14:00:34	14:11:38	663187	5.0.10.0	4_exp_EVA_AMP_AWA_CON	117	Rpleas_acq	Oppo	Lpleas	Amasked	CS_A	2pleas	distractor2	EVAbeforeCON	AMP_CSpleas	AMP1_masked	8	11	0	0	300	300	0	0	1523	46	54,19921875	1	0	0	0	1	blank2r.bmp	0	1	DHJF	0	1	blank2r.bmp	79	128	pic128.bmp	199	1	whitenoise_No3.bmp	306	0	0	0	0	0	0	0	0	0	0	0	0	0	0	0	0	0	0	0	0	0	0	0	0	0	0	0	0	0	0	0	0	0	0	0	0	0	0	0
021219	14:00:34	14:11:39	664906	5.0.10.0	4_exp_EVA_AMP_AWA_CON	117	Rpleas_acq	Oppo	Lpleas	Amasked	CS_A	2pleas	distractor2	EVAbeforeCON	AMP_CSunple	AMP1_masked	8	12	0	0	300	300	0	0	791	50	54,19921875	1	0	0	0	1	blank2r.bmp	0	1	CPLW	0	1	blank2r.bmp	79	120	pic120.bmp	199	1	whitenoise_No3.bmp	306	0	0	0	0	0	0	0	0	0	0	0	0	0	0	0	0	0	0	0	0	0	0	0	0	0	0	0	0	0	0	0	0	0	0	0	0	0	0	0
021219	14:00:34	14:11:41	666559	5.0.10.0	4_exp_EVA_AMP_AWA_CON	117	Rpleas_acq	Oppo	Lpleas	Amasked	CS_A	2pleas	distractor2	EVAbeforeCON	AMP_distractor	AMP1_masked	8	13	0	0	300	300	0	0	727	46	54,19921875	0	0	0	0	1	blank2r.bmp	0	1	QYSB	0	1	blank2r.bmp	79	145	pic145.bmp	199	1	whitenoise_No3.bmp	306	0	0	0	0	0	0	0	0	0	0	0	0	0	0	0	0	0	0	0	0	0	0	0	0	0	0	0	0	0	0	0	0	0	0	0	0	0	0	0
021219	14:00:34	14:11:43	668358	5.0.10.0	4_exp_EVA_AMP_AWA_CON	117	Rpleas_acq	Oppo	Lpleas	Amasked	CS_A	2pleas	distractor2	EVAbeforeCON	AMP_CSpleas	AMP1_masked	8	14	0	0	300	300	0	0	876	50	54,19921875	0	0	0	0	1	blank2r.bmp	0	1	DHJF	0	1	blank2r.bmp	79	69	pic69.bmp	199	1	whitenoise_No3.bmp	306	0	0	0	0	0	0	0	0	0	0	0	0	0	0	0	0	0	0	0	0	0	0	0	0	0	0	0	0	0	0	0	0	0	0	0	0	0	0	0
021219	14:00:34	14:11:45	670197	5.0.10.0	4_exp_EVA_AMP_AWA_CON	117	Rpleas_acq	Oppo	Lpleas	Amasked	CS_A	2pleas	distractor2	EVAbeforeCON	AMP_CSunple	AMP1_masked	8	15	0	0	300	300	0	0	923	46	54,19921875	0	0	0	0	1	blank2r.bmp	0	1	CPLW	0	1	blank2r.bmp	79	112	pic112.bmp	199	1	whitenoise_No3.bmp	306	0	0	0	0	0	0	0	0	0	0	0	0	0	0	0	0	0	0	0	0	0	0	0	0	0	0	0	0	0	0	0	0	0	0	0	0	0	0	0
021219	14:00:34	14:11:47	672517	5.0.10.0	4_exp_EVA_AMP_AWA_CON	117	Rpleas_acq	Oppo	Lpleas	Amasked	CS_A	2pleas	distractor2	EVAbeforeCON	AMP_CSunple	AMP1_masked	8	16	0	0	300	300	0	0	1410	50	54,19921875	1	0	0	0	1	blank2r.bmp	0	1	CPLW	0	1	blank2r.bmp	79	43	pic43.bmp	199	1	whitenoise_No3.bmp	306	0	0	0	0	0	0	0	0	0	0	0	0	0	0	0	0	0	0	0	0	0	0	0	0	0	0	0	0	0	0	0	0	0	0	0	0	0	0	0
021219	14:00:34	14:11:49	674209	5.0.10.0	4_exp_EVA_AMP_AWA_CON	117	Rpleas_acq	Oppo	Lpleas	Amasked	CS_A	2pleas	distractor2	EVAbeforeCON	AMP_CSpleas	AMP1_masked	8	17	0	0	300	300	0	0	760	46	54,19921875	1	0	0	0	1	blank2r.bmp	0	1	DHJF	0	1	blank2r.bmp	79	57	pic57.bmp	199	1	whitenoise_No3.bmp	306	0	0	0	0	0	0	0	0	0	0	0	0	0	0	0	0	0	0	0	0	0	0	0	0	0	0	0	0	0	0	0	0	0	0	0	0	0	0	0
021219	14:00:34	14:11:50	675702	5.0.10.0	4_exp_EVA_AMP_AWA_CON	117	Rpleas_acq	Oppo	Lpleas	Amasked	CS_A	2pleas	distractor2	EVAbeforeCON	AMP_distractor	AMP1_masked	8	18	0	0	300	300	0	0	575	46	54,19921875	0	0	0	0	1	blank2r.bmp	0	1	QYSB	0	1	blank2r.bmp	79	29	pic29.bmp	199	1	whitenoise_No3.bmp	306	0	0	0	0	0	0	0	0	0	0	0	0	0	0	0	0	0	0	0	0	0	0	0	0	0	0	0	0	0	0	0	0	0	0	0	0	0	0	0
021219	14:00:34	14:11:52	677221	5.0.10.0	4_exp_EVA_AMP_AWA_CON	117	Rpleas_acq	Oppo	Lpleas	Amasked	CS_A	2pleas	distractor2	EVAbeforeCON	AMP_CSunple	AMP1_masked	8	19	0	0	300	300	0	0	595	46	54,19921875	0	0	0	0	1	blank2r.bmp	0	1	CPLW	0	1	blank2r.bmp	79	116	pic116.bmp	199	1	whitenoise_No3.bmp	306	0	0	0	0	0	0	0	0	0	0	0	0	0	0	0	0	0	0	0	0	0	0	0	0	0	0	0	0	0	0	0	0	0	0	0	0	0	0	0
021219	14:00:34	14:11:53	678834	5.0.10.0	4_exp_EVA_AMP_AWA_CON	117	Rpleas_acq	Oppo	Lpleas	Amasked	CS_A	2pleas	distractor2	EVAbeforeCON	AMP_CSpleas	AMP1_masked	8	20	0	0	300	300	0	0	680	46	54,19921875	1	0	0	0	1	blank2r.bmp	0	1	DHJF	0	1	blank2r.bmp	79	38	pic38.bmp	199	1	whitenoise_No3.bmp	306	0	0	0	0	0	0	0	0	0	0	0	0	0	0	0	0	0	0	0	0	0	0	0	0	0	0	0	0	0	0	0	0	0	0	0	0	0	0	0
021219	14:00:34	14:11:56	681366	5.0.10.0	4_exp_EVA_AMP_AWA_CON	117	Rpleas_acq	Oppo	Lpleas	Amasked	CS_A	2pleas	distractor2	EVAbeforeCON	AMP_distractor	AMP1_masked	8	21	0	0	300	300	0	0	1620	46	54,19921875	0	0	0	0	1	blank2r.bmp	0	1	QYSB	0	1	blank2r.bmp	79	40	pic40.bmp	199	1	whitenoise_No3.bmp	306	0	0	0	0	0	0	0	0	0	0	0	0	0	0	0	0	0	0	0	0	0	0	0	0	0	0	0	0	0	0	0	0	0	0	0	0	0	0	0
021219	14:00:34	14:11:58	683592	5.0.10.0	4_exp_EVA_AMP_AWA_CON	117	Rpleas_acq	Oppo	Lpleas	Amasked	CS_A	2pleas	distractor2	EVAbeforeCON	AMP_distractor	AMP1_masked	8	22	0	0	300	300	0	0	1301	46	54,19921875	0	0	0	0	1	blank2r.bmp	0	1	QYSB	0	1	blank2r.bmp	79	85	pic85.bmp	199	1	whitenoise_No3.bmp	306	0	0	0	0	0	0	0	0	0	0	0	0	0	0	0	0	0	0	0	0	0	0	0	0	0	0	0	0	0	0	0	0	0	0	0	0	0	0	0
021219	14:00:34	14:12:00	685125	5.0.10.0	4_exp_EVA_AMP_AWA_CON	117	Rpleas_acq	Oppo	Lpleas	Amasked	CS_A	2pleas	distractor2	EVAbeforeCON	AMP_CSunple	AMP1_masked	8	23	0	0	300	300	0	0	607	46	54,19921875	0	0	0	0	1	blank2r.bmp	0	1	CPLW	0	1	blank2r.bmp	79	64	pic64.bmp	199	1	whitenoise_No3.bmp	306	0	0	0	0	0	0	0	0	0	0	0	0	0	0	0	0	0	0	0	0	0	0	0	0	0	0	0	0	0	0	0	0	0	0	0	0	0	0	0
021219	14:00:34	14:12:02	687643	5.0.10.0	4_exp_EVA_AMP_AWA_CON	117	Rpleas_acq	Oppo	Lpleas	Amasked	CS_A	2pleas	distractor2	EVAbeforeCON	AMP_CSpleas	AMP1_masked	8	24	0	0	300	300	0	0	1589	50	54,19921875	0	0	0	0	1	blank2r.bmp	0	1	DHJF	0	1	blank2r.bmp	79	108	pic108.bmp	199	1	whitenoise_No3.bmp	306	0	0	0	0	0	0	0	0	0	0	0	0	0	0	0	0	0	0	0	0	0	0	0	0	0	0	0	0	0	0	0	0	0	0	0	0	0	0	0
021219	14:00:34	14:12:04	689469	5.0.10.0	4_exp_EVA_AMP_AWA_CON	117	Rpleas_acq	Oppo	Lpleas	Amasked	CS_A	2pleas	distractor2	EVAbeforeCON	AMP_CSunple	AMP1_masked	8	25	0	0	300	300	0	0	913	50	54,19921875	1	0	0	0	1	blank2r.bmp	0	1	CPLW	0	1	blank2r.bmp	79	14	pic14.bmp	199	1	whitenoise_No3.bmp	306	0	0	0	0	0	0	0	0	0	0	0	0	0	0	0	0	0	0	0	0	0	0	0	0	0	0	0	0	0	0	0	0	0	0	0	0	0	0	0
021219	14:00:34	14:12:05	691069	5.0.10.0	4_exp_EVA_AMP_AWA_CON	117	Rpleas_acq	Oppo	Lpleas	Amasked	CS_A	2pleas	distractor2	EVAbeforeCON	AMP_distractor	AMP1_masked	8	26	0	0	300	300	0	0	670	46	54,19921875	0	0	0	0	1	blank2r.bmp	0	1	QYSB	0	1	blank2r.bmp	79	46	pic46.bmp	199	1	whitenoise_No3.bmp	306	0	0	0	0	0	0	0	0	0	0	0	0	0	0	0	0	0	0	0	0	0	0	0	0	0	0	0	0	0	0	0	0	0	0	0	0	0	0	0
021219	14:00:34	14:12:07	692575	5.0.10.0	4_exp_EVA_AMP_AWA_CON	117	Rpleas_acq	Oppo	Lpleas	Amasked	CS_A	2pleas	distractor2	EVAbeforeCON	AMP_CSpleas	AMP1_masked	8	27	0	0	300	300	0	0	577	46	54,19921875	1	0	0	0	1	blank2r.bmp	0	1	DHJF	0	1	blank2r.bmp	79	51	pic51.bmp	199	1	whitenoise_No3.bmp	306	0	0	0	0	0	0	0	0	0	0	0	0	0	0	0	0	0	0	0	0	0	0	0	0	0	0	0	0	0	0	0	0	0	0	0	0	0	0	0
021219	14:00:34	14:12:08	694001	5.0.10.0	4_exp_EVA_AMP_AWA_CON	117	Rpleas_acq	Oppo	Lpleas	Amasked	CS_A	2pleas	distractor2	EVAbeforeCON	AMP_CSpleas	AMP1_masked	8	28	0	0	300	300	0	0	517	46	54,19921875	1	0	0	0	1	blank2r.bmp	0	1	DHJF	0	1	blank2r.bmp	79	133	pic133.bmp	199	1	whitenoise_No3.bmp	306	0	0	0	0	0	0	0	0	0	0	0	0	0	0	0	0	0	0	0	0	0	0	0	0	0	0	0	0	0	0	0	0	0	0	0	0	0	0	0
021219	14:00:34	14:12:10	695454	5.0.10.0	4_exp_EVA_AMP_AWA_CON	117	Rpleas_acq	Oppo	Lpleas	Amasked	CS_A	2pleas	distractor2	EVAbeforeCON	AMP_CSunple	AMP1_masked	8	29	0	0	300	300	0	0	519	46	54,19921875	0	0	0	0	1	blank2r.bmp	0	1	CPLW	0	1	blank2r.bmp	79	101	pic101.bmp	199	1	whitenoise_No3.bmp	306	0	0	0	0	0	0	0	0	0	0	0	0	0	0	0	0	0	0	0	0	0	0	0	0	0	0	0	0	0	0	0	0	0	0	0	0	0	0	0
021219	14:00:34	14:12:12	697186	5.0.10.0	4_exp_EVA_AMP_AWA_CON	117	Rpleas_acq	Oppo	Lpleas	Amasked	CS_A	2pleas	distractor2	EVAbeforeCON	AMP_CSpleas	AMP1_masked	8	30	0	0	300	300	0	0	813	50	54,19921875	0	0	0	0	1	blank2r.bmp	0	1	DHJF	0	1	blank2r.bmp	79	39	pic39.bmp	199	1	whitenoise_No3.bmp	306	0	0	0	0	0	0	0	0	0	0	0	0	0	0	0	0	0	0	0	0	0	0	0	0	0	0	0	0	0	0	0	0	0	0	0	0	0	0	0
021219	14:00:34	14:12:13	698759	5.0.10.0	4_exp_EVA_AMP_AWA_CON	117	Rpleas_acq	Oppo	Lpleas	Amasked	CS_A	2pleas	distractor2	EVAbeforeCON	AMP_CSpleas	AMP1_masked	8	31	0	0	300	300	0	0	654	46	54,19921875	1	0	0	0	1	blank2r.bmp	0	1	DHJF	0	1	blank2r.bmp	79	100	pic100.bmp	199	1	whitenoise_No3.bmp	306	0	0	0	0	0	0	0	0	0	0	0	0	0	0	0	0	0	0	0	0	0	0	0	0	0	0	0	0	0	0	0	0	0	0	0	0	0	0	0
021219	14:00:34	14:12:15	700185	5.0.10.0	4_exp_EVA_AMP_AWA_CON	117	Rpleas_acq	Oppo	Lpleas	Amasked	CS_A	2pleas	distractor2	EVAbeforeCON	AMP_CSunple	AMP1_masked	8	32	0	0	300	300	0	0	496	46	54,19921875	0	0	0	0	1	blank2r.bmp	0	1	CPLW	0	1	blank2r.bmp	79	147	pic147.bmp	199	1	whitenoise_No3.bmp	306	0	0	0	0	0	0	0	0	0	0	0	0	0	0	0	0	0	0	0	0	0	0	0	0	0	0	0	0	0	0	0	0	0	0	0	0	0	0	0
021219	14:00:34	14:12:16	701664	5.0.10.0	4_exp_EVA_AMP_AWA_CON	117	Rpleas_acq	Oppo	Lpleas	Amasked	CS_A	2pleas	distractor2	EVAbeforeCON	AMP_distractor	AMP1_masked	8	33	0	0	300	300	0	0	564	46	54,19921875	0	0	0	0	1	blank2r.bmp	0	1	QYSB	0	1	blank2r.bmp	79	54	pic54.bmp	199	1	whitenoise_No3.bmp	306	0	0	0	0	0	0	0	0	0	0	0	0	0	0	0	0	0	0	0	0	0	0	0	0	0	0	0	0	0	0	0	0	0	0	0	0	0	0	0
021219	14:00:34	14:12:18	703517	5.0.10.0	4_exp_EVA_AMP_AWA_CON	117	Rpleas_acq	Oppo	Lpleas	Amasked	CS_A	2pleas	distractor2	EVAbeforeCON	AMP_CSpleas	AMP1_masked	8	34	0	0	300	300	0	0	934	46	54,19921875	1	0	0	0	1	blank2r.bmp	0	1	DHJF	0	1	blank2r.bmp	79	32	pic32.bmp	199	1	whitenoise_No3.bmp	306	0	0	0	0	0	0	0	0	0	0	0	0	0	0	0	0	0	0	0	0	0	0	0	0	0	0	0	0	0	0	0	0	0	0	0	0	0	0	0
021219	14:00:34	14:12:19	704903	5.0.10.0	4_exp_EVA_AMP_AWA_CON	117	Rpleas_acq	Oppo	Lpleas	Amasked	CS_A	2pleas	distractor2	EVAbeforeCON	AMP_distractor	AMP1_masked	8	35	0	0	300	300	0	0	464	46	54,19921875	0	0	0	0	1	blank2r.bmp	0	1	QYSB	0	1	blank2r.bmp	79	60	pic60.bmp	199	1	whitenoise_No3.bmp	306	0	0	0	0	0	0	0	0	0	0	0	0	0	0	0	0	0	0	0	0	0	0	0	0	0	0	0	0	0	0	0	0	0	0	0	0	0	0	0
021219	14:00:34	14:12:21	706436	5.0.10.0	4_exp_EVA_AMP_AWA_CON	117	Rpleas_acq	Oppo	Lpleas	Amasked	CS_A	2pleas	distractor2	EVAbeforeCON	AMP_distractor	AMP1_masked	8	36	0	0	300	300	0	0	608	46	54,19921875	0	0	0	0	1	blank2r.bmp	0	1	QYSB	0	1	blank2r.bmp	79	130	pic130.bmp	199	1	whitenoise_No3.bmp	306	0	0	0	0	0	0	0	0	0	0	0	0	0	0	0	0	0	0	0	0	0	0	0	0	0	0	0	0	0	0	0	0	0	0	0	0	0	0	0
021219	14:00:34	14:12:22	708022	5.0.10.0	4_exp_EVA_AMP_AWA_CON	117	Rpleas_acq	Oppo	Lpleas	Amasked	CS_A	2pleas	distractor2	EVAbeforeCON	AMP_distractor	AMP1_masked	8	37	0	0	300	300	0	0	658	50	54,19921875	0	0	0	0	1	blank2r.bmp	0	1	QYSB	0	1	blank2r.bmp	79	8	pic8.bmp	199	1	whitenoise_No3.bmp	306	0	0	0	0	0	0	0	0	0	0	0	0	0	0	0	0	0	0	0	0	0	0	0	0	0	0	0	0	0	0	0	0	0	0	0	0	0	0	0
021219	14:00:34	14:12:24	709368	5.0.10.0	4_exp_EVA_AMP_AWA_CON	117	Rpleas_acq	Oppo	Lpleas	Amasked	CS_A	2pleas	distractor2	EVAbeforeCON	AMP_distractor	AMP1_masked	8	38	0	0	300	300	0	0	414	50	54,19921875	0	0	0	0	1	blank2r.bmp	0	1	QYSB	0	1	blank2r.bmp	79	71	pic71.bmp	199	1	whitenoise_No3.bmp	306	0	0	0	0	0	0	0	0	0	0	0	0	0	0	0	0	0	0	0	0	0	0	0	0	0	0	0	0	0	0	0	0	0	0	0	0	0	0	0
021219	14:00:34	14:12:25	710780	5.0.10.0	4_exp_EVA_AMP_AWA_CON	117	Rpleas_acq	Oppo	Lpleas	Amasked	CS_A	2pleas	distractor2	EVAbeforeCON	AMP_CSunple	AMP1_masked	8	39	0	0	300	300	0	0	488	50	54,19921875	1	0	0	0	1	blank2r.bmp	0	1	CPLW	0	1	blank2r.bmp	79	17	pic17.bmp	199	1	whitenoise_No3.bmp	306	0	0	0	0	0	0	0	0	0	0	0	0	0	0	0	0	0	0	0	0	0	0	0	0	0	0	0	0	0	0	0	0	0	0	0	0	0	0	0
021219	14:00:34	14:12:27	712380	5.0.10.0	4_exp_EVA_AMP_AWA_CON	117	Rpleas_acq	Oppo	Lpleas	Amasked	CS_A	2pleas	distractor2	EVAbeforeCON	AMP_CSpleas	AMP1_masked	8	40	0	0	300	300	0	0	670	46	54,19921875	1	0	0	0	1	blank2r.bmp	0	1	DHJF	0	1	blank2r.bmp	79	89	pic89.bmp	199	1	whitenoise_No3.bmp	306	0	0	0	0	0	0	0	0	0	0	0	0	0	0	0	0	0	0	0	0	0	0	0	0	0	0	0	0	0	0	0	0	0	0	0	0	0	0	0
021219	14:00:34	14:12:28	713633	5.0.10.0	4_exp_EVA_AMP_AWA_CON	117	Rpleas_acq	Oppo	Lpleas	Amasked	CS_A	2pleas	distractor2	EVAbeforeCON	AMP_CSpleas	AMP1_masked	8	41	0	0	300	300	0	0	339	46	54,19921875	1	0	0	0	1	blank2r.bmp	0	1	DHJF	0	1	blank2r.bmp	79	111	pic111.bmp	199	1	whitenoise_No3.bmp	306	0	0	0	0	0	0	0	0	0	0	0	0	0	0	0	0	0	0	0	0	0	0	0	0	0	0	0	0	0	0	0	0	0	0	0	0	0	0	0
021219	14:00:34	14:12:30	715205	5.0.10.0	4_exp_EVA_AMP_AWA_CON	117	Rpleas_acq	Oppo	Lpleas	Amasked	CS_A	2pleas	distractor2	EVAbeforeCON	AMP_CSpleas	AMP1_masked	8	42	0	0	300	300	0	0	656	50	54,19921875	0	0	0	0	1	blank2r.bmp	0	1	DHJF	0	1	blank2r.bmp	79	45	pic45.bmp	199	1	whitenoise_No3.bmp	306	0	0	0	0	0	0	0	0	0	0	0	0	0	0	0	0	0	0	0	0	0	0	0	0	0	0	0	0	0	0	0	0	0	0	0	0	0	0	0
021219	14:00:34	14:12:31	716831	5.0.10.0	4_exp_EVA_AMP_AWA_CON	117	Rpleas_acq	Oppo	Lpleas	Amasked	CS_A	2pleas	distractor2	EVAbeforeCON	AMP_CSpleas	AMP1_masked	8	43	0	0	300	300	0	0	709	46	54,19921875	1	0	0	0	1	blank2r.bmp	0	1	DHJF	0	1	blank2r.bmp	79	4	pic4.bmp	199	1	whitenoise_No3.bmp	306	0	0	0	0	0	0	0	0	0	0	0	0	0	0	0	0	0	0	0	0	0	0	0	0	0	0	0	0	0	0	0	0	0	0	0	0	0	0	0
021219	14:00:34	14:12:33	718151	5.0.10.0	4_exp_EVA_AMP_AWA_CON	117	Rpleas_acq	Oppo	Lpleas	Amasked	CS_A	2pleas	distractor2	EVAbeforeCON	AMP_CSunple	AMP1_masked	8	44	0	0	300	300	0	0	398	46	54,19921875	0	0	0	0	1	blank2r.bmp	0	1	CPLW	0	1	blank2r.bmp	79	53	pic53.bmp	199	1	whitenoise_No3.bmp	306	0	0	0	0	0	0	0	0	0	0	0	0	0	0	0	0	0	0	0	0	0	0	0	0	0	0	0	0	0	0	0	0	0	0	0	0	0	0	0
021219	14:00:34	14:12:34	719483	5.0.10.0	4_exp_EVA_AMP_AWA_CON	117	Rpleas_acq	Oppo	Lpleas	Amasked	CS_A	2pleas	distractor2	EVAbeforeCON	AMP_distractor	AMP1_masked	8	45	0	0	300	300	0	0	401	50	54,19921875	0	0	0	0	1	blank2r.bmp	0	1	QYSB	0	1	blank2r.bmp	79	105	pic105.bmp	199	1	whitenoise_No3.bmp	306	0	0	0	0	0	0	0	0	0	0	0	0	0	0	0	0	0	0	0	0	0	0	0	0	0	0	0	0	0	0	0	0	0	0	0	0	0	0	0
021219	14:00:34	14:12:35	720923	5.0.10.0	4_exp_EVA_AMP_AWA_CON	117	Rpleas_acq	Oppo	Lpleas	Amasked	CS_A	2pleas	distractor2	EVAbeforeCON	AMP_CSpleas	AMP1_masked	8	46	0	0	300	300	0	0	528	50	54,19921875	0	0	0	0	1	blank2r.bmp	0	1	DHJF	0	1	blank2r.bmp	79	24	pic24.bmp	199	1	whitenoise_No3.bmp	306	0	0	0	0	0	0	0	0	0	0	0	0	0	0	0	0	0	0	0	0	0	0	0	0	0	0	0	0	0	0	0	0	0	0	0	0	0	0	0
021219	14:00:34	14:12:37	722322	5.0.10.0	4_exp_EVA_AMP_AWA_CON	117	Rpleas_acq	Oppo	Lpleas	Amasked	CS_A	2pleas	distractor2	EVAbeforeCON	AMP_CSunple	AMP1_masked	8	47	0	0	300	300	0	0	467	46	54,19921875	0	0	0	0	1	blank2r.bmp	0	1	CPLW	0	1	blank2r.bmp	79	33	pic33.bmp	199	1	whitenoise_No3.bmp	306	0	0	0	0	0	0	0	0	0	0	0	0	0	0	0	0	0	0	0	0	0	0	0	0	0	0	0	0	0	0	0	0	0	0	0	0	0	0	0
021219	14:00:34	14:12:38	723922	5.0.10.0	4_exp_EVA_AMP_AWA_CON	117	Rpleas_acq	Oppo	Lpleas	Amasked	CS_A	2pleas	distractor2	EVAbeforeCON	AMP_CSunple	AMP1_masked	8	48	0	0	300	300	0	0	680	46	54,19921875	0	0	0	0	1	blank2r.bmp	0	1	CPLW	0	1	blank2r.bmp	79	73	pic73.bmp	199	1	whitenoise_No3.bmp	306	0	0	0	0	0	0	0	0	0	0	0	0	0	0	0	0	0	0	0	0	0	0	0	0	0	0	0	0	0	0	0	0	0	0	0	0	0	0	0
021219	14:00:34	14:12:40	725441	5.0.10.0	4_exp_EVA_AMP_AWA_CON	117	Rpleas_acq	Oppo	Lpleas	Amasked	CS_A	2pleas	distractor2	EVAbeforeCON	AMP_CSpleas	AMP1_masked	8	49	0	0	300	300	0	0	592	50	54,19921875	0	0	0	0	1	blank2r.bmp	0	1	DHJF	0	1	blank2r.bmp	79	78	pic78.bmp	199	1	whitenoise_No3.bmp	306	0	0	0	0	0	0	0	0	0	0	0	0	0	0	0	0	0	0	0	0	0	0	0	0	0	0	0	0	0	0	0	0	0	0	0	0	0	0	0
021219	14:00:34	14:12:41	726867	5.0.10.0	4_exp_EVA_AMP_AWA_CON	117	Rpleas_acq	Oppo	Lpleas	Amasked	CS_A	2pleas	distractor2	EVAbeforeCON	AMP_distractor	AMP1_masked	8	50	0	0	300	300	0	0	517	50	54,19921875	0	0	0	0	1	blank2r.bmp	0	1	QYSB	0	1	blank2r.bmp	79	106	pic106.bmp	199	1	whitenoise_No3.bmp	306	0	0	0	0	0	0	0	0	0	0	0	0	0	0	0	0	0	0	0	0	0	0	0	0	0	0	0	0	0	0	0	0	0	0	0	0	0	0	0
021219	14:00:34	14:12:43	728346	5.0.10.0	4_exp_EVA_AMP_AWA_CON	117	Rpleas_acq	Oppo	Lpleas	Amasked	CS_A	2pleas	distractor2	EVAbeforeCON	AMP_distractor	AMP1_masked	8	51	0	0	300	300	0	0	552	46	54,19921875	0	0	0	0	1	blank2r.bmp	0	1	QYSB	0	1	blank2r.bmp	79	16	pic16.bmp	199	1	whitenoise_No3.bmp	306	0	0	0	0	0	0	0	0	0	0	0	0	0	0	0	0	0	0	0	0	0	0	0	0	0	0	0	0	0	0	0	0	0	0	0	0	0	0	0
021219	14:00:34	14:12:54	739208	5.0.10.0	4_exp_EVA_AMP_AWA_CON	117	Rpleas_acq	Oppo	Lpleas	Amasked	CS_A	2pleas	distractor2	EVAbeforeCON	AMP_CSunple	AMP23	9	1	0	0	300	300	0	0	953	46	54,19921875	0	0	0	0	1	blank2r.bmp	0	1	CPLW	0	1	blank2r.bmp	79	122	pic122.bmp	199	1	whitenoise_No3.bmp	306	0	0	0	0	0	0	0	0	0	0	0	0	0	0	0	0	0	0	0	0	0	0	0	0	0	0	0	0	0	0	0	0	0	0	0	0	0	0	0
021219	14:00:34	14:12:55	740715	5.0.10.0	4_exp_EVA_AMP_AWA_CON	117	Rpleas_acq	Oppo	Lpleas	Amasked	CS_A	2pleas	distractor2	EVAbeforeCON	AMP_CSpleas	AMP23	9	2	0	0	300	300	0	0	580	46	54,19921875	1	0	0	0	1	blank2r.bmp	0	1	DHJF	0	1	blank2r.bmp	79	86	pic86.bmp	199	1	whitenoise_No3.bmp	306	0	0	0	0	0	0	0	0	0	0	0	0	0	0	0	0	0	0	0	0	0	0	0	0	0	0	0	0	0	0	0	0	0	0	0	0	0	0	0
021219	14:00:34	14:12:57	742181	5.0.10.0	4_exp_EVA_AMP_AWA_CON	117	Rpleas_acq	Oppo	Lpleas	Amasked	CS_A	2pleas	distractor2	EVAbeforeCON	AMP_CSpleas	AMP23	9	3	0	0	300	300	0	0	541	46	54,19921875	1	0	0	0	1	blank2r.bmp	0	1	DHJF	0	1	blank2r.bmp	79	74	pic74.bmp	199	1	whitenoise_No3.bmp	306	0	0	0	0	0	0	0	0	0	0	0	0	0	0	0	0	0	0	0	0	0	0	0	0	0	0	0	0	0	0	0	0	0	0	0	0	0	0	0
021219	14:00:34	14:12:58	743580	5.0.10.0	4_exp_EVA_AMP_AWA_CON	117	Rpleas_acq	Oppo	Lpleas	Amasked	CS_A	2pleas	distractor2	EVAbeforeCON	AMP_CSunple	AMP23	9	4	0	0	300	300	0	0	478	46	54,19921875	0	0	0	0	1	blank2r.bmp	0	1	CPLW	0	1	blank2r.bmp	79	149	pic149.bmp	199	1	whitenoise_No3.bmp	306	0	0	0	0	0	0	0	0	0	0	0	0	0	0	0	0	0	0	0	0	0	0	0	0	0	0	0	0	0	0	0	0	0	0	0	0	0	0	0
021219	14:00:34	14:12:59	744979	5.0.10.0	4_exp_EVA_AMP_AWA_CON	117	Rpleas_acq	Oppo	Lpleas	Amasked	CS_A	2pleas	distractor2	EVAbeforeCON	AMP_CSpleas	AMP23	9	5	0	0	300	300	0	0	463	50	54,19921875	0	0	0	0	1	blank2r.bmp	0	1	DHJF	0	1	blank2r.bmp	79	26	pic26.bmp	199	1	whitenoise_No3.bmp	306	0	0	0	0	0	0	0	0	0	0	0	0	0	0	0	0	0	0	0	0	0	0	0	0	0	0	0	0	0	0	0	0	0	0	0	0	0	0	0
021219	14:00:34	14:13:01	746499	5.0.10.0	4_exp_EVA_AMP_AWA_CON	117	Rpleas_acq	Oppo	Lpleas	Amasked	CS_A	2pleas	distractor2	EVAbeforeCON	AMP_CSunple	AMP23	9	6	0	0	300	300	0	0	590	50	54,19921875	1	0	0	0	1	blank2r.bmp	0	1	CPLW	0	1	blank2r.bmp	79	41	pic41.bmp	199	1	whitenoise_No3.bmp	306	0	0	0	0	0	0	0	0	0	0	0	0	0	0	0	0	0	0	0	0	0	0	0	0	0	0	0	0	0	0	0	0	0	0	0	0	0	0	0
021219	14:00:34	14:13:02	748045	5.0.10.0	4_exp_EVA_AMP_AWA_CON	117	Rpleas_acq	Oppo	Lpleas	Amasked	CS_A	2pleas	distractor2	EVAbeforeCON	AMP_CSunple	AMP23	9	7	0	0	300	300	0	0	632	46	54,19921875	0	0	0	0	1	blank2r.bmp	0	1	CPLW	0	1	blank2r.bmp	79	153	pic153.bmp	199	1	whitenoise_No3.bmp	306	0	0	0	0	0	0	0	0	0	0	0	0	0	0	0	0	0	0	0	0	0	0	0	0	0	0	0	0	0	0	0	0	0	0	0	0	0	0	0
021219	14:00:34	14:13:04	749311	5.0.10.0	4_exp_EVA_AMP_AWA_CON	117	Rpleas_acq	Oppo	Lpleas	Amasked	CS_A	2pleas	distractor2	EVAbeforeCON	AMP_CSunple	AMP23	9	8	0	0	300	300	0	0	357	46	54,19921875	0	0	0	0	1	blank2r.bmp	0	1	CPLW	0	1	blank2r.bmp	79	132	pic132.bmp	199	1	whitenoise_No3.bmp	306	0	0	0	0	0	0	0	0	0	0	0	0	0	0	0	0	0	0	0	0	0	0	0	0	0	0	0	0	0	0	0	0	0	0	0	0	0	0	0
021219	14:00:34	14:13:05	750737	5.0.10.0	4_exp_EVA_AMP_AWA_CON	117	Rpleas_acq	Oppo	Lpleas	Amasked	CS_A	2pleas	distractor2	EVAbeforeCON	AMP_CSpleas	AMP23	9	9	0	0	300	300	0	0	503	50	54,19921875	0	0	0	0	1	blank2r.bmp	0	1	DHJF	0	1	blank2r.bmp	79	65	pic65.bmp	199	1	whitenoise_No3.bmp	306	0	0	0	0	0	0	0	0	0	0	0	0	0	0	0	0	0	0	0	0	0	0	0	0	0	0	0	0	0	0	0	0	0	0	0	0	0	0	0
021219	14:00:34	14:13:06	751976	5.0.10.0	4_exp_EVA_AMP_AWA_CON	117	Rpleas_acq	Oppo	Lpleas	Amasked	CS_A	2pleas	distractor2	EVAbeforeCON	AMP_CSpleas	AMP23	9	10	0	0	300	300	0	0	310	46	54,19921875	1	0	0	0	1	blank2r.bmp	0	1	DHJF	0	1	blank2r.bmp	79	61	pic61.bmp	199	1	whitenoise_No3.bmp	306	0	0	0	0	0	0	0	0	0	0	0	0	0	0	0	0	0	0	0	0	0	0	0	0	0	0	0	0	0	0	0	0	0	0	0	0	0	0	0
021219	14:00:34	14:13:08	753296	5.0.10.0	4_exp_EVA_AMP_AWA_CON	117	Rpleas_acq	Oppo	Lpleas	Amasked	CS_A	2pleas	distractor2	EVAbeforeCON	AMP_CSpleas	AMP23	9	11	0	0	300	300	0	0	406	46	54,19921875	1	0	0	0	1	blank2r.bmp	0	1	DHJF	0	1	blank2r.bmp	79	76	pic76.bmp	199	1	whitenoise_No3.bmp	306	0	0	0	0	0	0	0	0	0	0	0	0	0	0	0	0	0	0	0	0	0	0	0	0	0	0	0	0	0	0	0	0	0	0	0	0	0	0	0
021219	14:00:34	14:13:09	754802	5.0.10.0	4_exp_EVA_AMP_AWA_CON	117	Rpleas_acq	Oppo	Lpleas	Amasked	CS_A	2pleas	distractor2	EVAbeforeCON	AMP_CSpleas	AMP23	9	12	0	0	300	300	0	0	573	50	54,19921875	0	0	0	0	1	blank2r.bmp	0	1	DHJF	0	1	blank2r.bmp	79	150	pic150.bmp	199	1	whitenoise_No3.bmp	306	0	0	0	0	0	0	0	0	0	0	0	0	0	0	0	0	0	0	0	0	0	0	0	0	0	0	0	0	0	0	0	0	0	0	0	0	0	0	0
021219	14:00:34	14:13:11	756201	5.0.10.0	4_exp_EVA_AMP_AWA_CON	117	Rpleas_acq	Oppo	Lpleas	Amasked	CS_A	2pleas	distractor2	EVAbeforeCON	AMP_CSunple	AMP23	9	13	0	0	300	300	0	0	479	50	54,19921875	1	0	0	0	1	blank2r.bmp	0	1	CPLW	0	1	blank2r.bmp	79	136	pic136.bmp	199	1	whitenoise_No3.bmp	306	0	0	0	0	0	0	0	0	0	0	0	0	0	0	0	0	0	0	0	0	0	0	0	0	0	0	0	0	0	0	0	0	0	0	0	0	0	0	0
021219	14:00:34	14:13:12	757534	5.0.10.0	4_exp_EVA_AMP_AWA_CON	117	Rpleas_acq	Oppo	Lpleas	Amasked	CS_A	2pleas	distractor2	EVAbeforeCON	AMP_CSunple	AMP23	9	14	0	0	300	300	0	0	413	46	54,19921875	0	0	0	0	1	blank2r.bmp	0	1	CPLW	0	1	blank2r.bmp	79	107	pic107.bmp	199	1	whitenoise_No3.bmp	306	0	0	0	0	0	0	0	0	0	0	0	0	0	0	0	0	0	0	0	0	0	0	0	0	0	0	0	0	0	0	0	0	0	0	0	0	0	0	0
021219	14:00:34	14:13:13	759053	5.0.10.0	4_exp_EVA_AMP_AWA_CON	117	Rpleas_acq	Oppo	Lpleas	Amasked	CS_A	2pleas	distractor2	EVAbeforeCON	AMP_distractor	AMP23	9	15	0	0	300	300	0	0	601	50	54,19921875	0	0	0	0	1	blank2r.bmp	0	1	QYSB	0	1	blank2r.bmp	79	66	pic66.bmp	199	1	whitenoise_No3.bmp	306	0	0	0	0	0	0	0	0	0	0	0	0	0	0	0	0	0	0	0	0	0	0	0	0	0	0	0	0	0	0	0	0	0	0	0	0	0	0	0
021219	14:00:34	14:13:15	760466	5.0.10.0	4_exp_EVA_AMP_AWA_CON	117	Rpleas_acq	Oppo	Lpleas	Amasked	CS_A	2pleas	distractor2	EVAbeforeCON	AMP_distractor	AMP23	9	16	0	0	300	300	0	0	489	46	54,19921875	0	0	0	0	1	blank2r.bmp	0	1	QYSB	0	1	blank2r.bmp	79	125	pic125.bmp	199	1	whitenoise_No3.bmp	306	0	0	0	0	0	0	0	0	0	0	0	0	0	0	0	0	0	0	0	0	0	0	0	0	0	0	0	0	0	0	0	0	0	0	0	0	0	0	0
021219	14:00:34	14:13:16	761852	5.0.10.0	4_exp_EVA_AMP_AWA_CON	117	Rpleas_acq	Oppo	Lpleas	Amasked	CS_A	2pleas	distractor2	EVAbeforeCON	AMP_distractor	AMP23	9	17	0	0	300	300	0	0	452	46	54,19921875	0	0	0	0	1	blank2r.bmp	0	1	QYSB	0	1	blank2r.bmp	79	77	pic77.bmp	199	1	whitenoise_No3.bmp	306	0	0	0	0	0	0	0	0	0	0	0	0	0	0	0	0	0	0	0	0	0	0	0	0	0	0	0	0	0	0	0	0	0	0	0	0	0	0	0
021219	14:00:34	14:13:18	763158	5.0.10.0	4_exp_EVA_AMP_AWA_CON	117	Rpleas_acq	Oppo	Lpleas	Amasked	CS_A	2pleas	distractor2	EVAbeforeCON	AMP_distractor	AMP23	9	18	0	0	300	300	0	0	398	50	54,19921875	0	0	0	0	1	blank2r.bmp	0	1	QYSB	0	1	blank2r.bmp	79	19	pic19.bmp	199	1	whitenoise_No3.bmp	306	0	0	0	0	0	0	0	0	0	0	0	0	0	0	0	0	0	0	0	0	0	0	0	0	0	0	0	0	0	0	0	0	0	0	0	0	0	0	0
021219	14:00:34	14:13:19	764504	5.0.10.0	4_exp_EVA_AMP_AWA_CON	117	Rpleas_acq	Oppo	Lpleas	Amasked	CS_A	2pleas	distractor2	EVAbeforeCON	AMP_CSunple	AMP23	9	19	0	0	300	300	0	0	400	46	54,19921875	0	0	0	0	1	blank2r.bmp	0	1	CPLW	0	1	blank2r.bmp	79	123	pic123.bmp	199	1	whitenoise_No3.bmp	306	0	0	0	0	0	0	0	0	0	0	0	0	0	0	0	0	0	0	0	0	0	0	0	0	0	0	0	0	0	0	0	0	0	0	0	0	0	0	0
021219	14:00:34	14:13:21	766104	5.0.10.0	4_exp_EVA_AMP_AWA_CON	117	Rpleas_acq	Oppo	Lpleas	Amasked	CS_A	2pleas	distractor2	EVAbeforeCON	AMP_CSpleas	AMP23	9	20	0	0	300	300	0	0	685	46	54,19921875	1	0	0	0	1	blank2r.bmp	0	1	DHJF	0	1	blank2r.bmp	79	68	pic68.bmp	199	1	whitenoise_No3.bmp	306	0	0	0	0	0	0	0	0	0	0	0	0	0	0	0	0	0	0	0	0	0	0	0	0	0	0	0	0	0	0	0	0	0	0	0	0	0	0	0
021219	14:00:34	14:13:22	767530	5.0.10.0	4_exp_EVA_AMP_AWA_CON	117	Rpleas_acq	Oppo	Lpleas	Amasked	CS_A	2pleas	distractor2	EVAbeforeCON	AMP_distractor	AMP23	9	21	0	0	300	300	0	0	502	50	54,19921875	0	0	0	0	1	blank2r.bmp	0	1	QYSB	0	1	blank2r.bmp	79	1	pic1.bmp	199	1	whitenoise_No3.bmp	306	0	0	0	0	0	0	0	0	0	0	0	0	0	0	0	0	0	0	0	0	0	0	0	0	0	0	0	0	0	0	0	0	0	0	0	0	0	0	0
021219	14:00:34	14:13:23	768916	5.0.10.0	4_exp_EVA_AMP_AWA_CON	117	Rpleas_acq	Oppo	Lpleas	Amasked	CS_A	2pleas	distractor2	EVAbeforeCON	AMP_CSunple	AMP23	9	22	0	0	300	300	0	0	464	46	54,19921875	0	0	0	0	1	blank2r.bmp	0	1	CPLW	0	1	blank2r.bmp	79	42	pic42.bmp	199	1	whitenoise_No3.bmp	306	0	0	0	0	0	0	0	0	0	0	0	0	0	0	0	0	0	0	0	0	0	0	0	0	0	0	0	0	0	0	0	0	0	0	0	0	0	0	0
021219	14:00:34	14:13:25	770262	5.0.10.0	4_exp_EVA_AMP_AWA_CON	117	Rpleas_acq	Oppo	Lpleas	Amasked	CS_A	2pleas	distractor2	EVAbeforeCON	AMP_distractor	AMP23	9	23	0	0	300	300	0	0	412	46	54,19921875	0	0	0	0	1	blank2r.bmp	0	1	QYSB	0	1	blank2r.bmp	79	13	pic13.bmp	199	1	whitenoise_No3.bmp	306	0	0	0	0	0	0	0	0	0	0	0	0	0	0	0	0	0	0	0	0	0	0	0	0	0	0	0	0	0	0	0	0	0	0	0	0	0	0	0
021219	14:00:34	14:13:26	771701	5.0.10.0	4_exp_EVA_AMP_AWA_CON	117	Rpleas_acq	Oppo	Lpleas	Amasked	CS_A	2pleas	distractor2	EVAbeforeCON	AMP_CSpleas	AMP23	9	24	0	0	300	300	0	0	522	50	54,19921875	0	0	0	0	1	blank2r.bmp	0	1	DHJF	0	1	blank2r.bmp	79	141	pic141.bmp	199	1	whitenoise_No3.bmp	306	0	0	0	0	0	0	0	0	0	0	0	0	0	0	0	0	0	0	0	0	0	0	0	0	0	0	0	0	0	0	0	0	0	0	0	0	0	0	0
021219	14:00:34	14:13:29	774260	5.0.10.0	4_exp_EVA_AMP_AWA_CON	117	Rpleas_acq	Oppo	Lpleas	Amasked	CS_A	2pleas	distractor2	EVAbeforeCON	AMP_distractor	AMP23	9	25	0	0	300	300	0	0	1634	46	54,19921875	0	0	0	0	1	blank2r.bmp	0	1	QYSB	0	1	blank2r.bmp	79	3	pic3.bmp	199	1	whitenoise_No3.bmp	306	0	0	0	0	0	0	0	0	0	0	0	0	0	0	0	0	0	0	0	0	0	0	0	0	0	0	0	0	0	0	0	0	0	0	0	0	0	0	0
021219	14:00:34	14:13:30	775726	5.0.10.0	4_exp_EVA_AMP_AWA_CON	117	Rpleas_acq	Oppo	Lpleas	Amasked	CS_A	2pleas	distractor2	EVAbeforeCON	AMP_distractor	AMP23	9	26	0	0	300	300	0	0	540	50	54,19921875	0	0	0	0	1	blank2r.bmp	0	1	QYSB	0	1	blank2r.bmp	79	87	pic87.bmp	199	1	whitenoise_No3.bmp	306	0	0	0	0	0	0	0	0	0	0	0	0	0	0	0	0	0	0	0	0	0	0	0	0	0	0	0	0	0	0	0	0	0	0	0	0	0	0	0
