date	time	script.currenttime	script.elapsedtime	build	script.currentexpt	subject	expressions.LRpleas_acq	expressions.SameOppo	expressions.condition_Lpleas	expressions.ABmasked	expressions.conditionCS_A	expressions.condition_1pleas	expressions.condition_distractor_AMP	expressions.AWACON_AMPEVA_first	trialcode	blockcode	blocknum	trialnum	windowcenter	inwindow	pretrialpause	posttrialpause	trialduration	trialtimeout	latency	response	expressions.correctedscore	correct	values.vis_performance	values.vis_rating_sum	values.vis_rating_mean	stimulusnumber1	stimulusitem1	stimulusonset1	stimulusnumber2	stimulusitem2	stimulusonset2	stimulusnumber3	stimulusitem3	stimulusonset3	stimulusnumber4	stimulusitem4	stimulusonset4	stimulusnumber5	stimulusitem5	stimulusonset5	stimulusnumber6	stimulusitem6	stimulusonset6	stimulusnumber7	stimulusitem7	stimulusonset7	stimulusnumber8	stimulusitem8	stimulusonset8	stimulusnumber9	stimulusitem9	stimulusonset9	stimulusnumber10	stimulusitem10	stimulusonset10	stimulusnumber11	stimulusitem11	stimulusonset11	stimulusnumber12	stimulusitem12	stimulusonset12	stimulusnumber13	stimulusitem13	stimulusonset13	stimulusnumber14	stimulusitem14	stimulusonset14	stimulusnumber15	stimulusitem15	stimulusonset15	stimulusnumber16	stimulusitem16	stimulusonset16	stimulusnumber17	stimulusitem17	stimulusonset17	stimulusnumber18	stimulusitem18	stimulusonset18
022119	09:00:45	09:02:21	92481	5.0.10.0	4_exp_AWA_CON_AMP_EVA	131	Rpleas_acq	Oppo	Rpleas	Amasked	CS_A	1pleas	distractor2	CONbeforeEVA	acq_US_unple_masked	acq1_masked	1	1	0	0	300	300	0	0	1386	46	0	1	0	0	0	1	blank2r.bmp	0	1	+	0	8	C4r.bmp	492	1	blank2r.bmp	786	1	DHJF	786	1	blank2r.bmp	866	2	gierig	866	0	0	0	0	0	0	0	0	0	0	0	0	0	0	0	0	0	0	0	0	0	0	0	0	0	0	0	0	0	0	0	0	0
022119	09:00:45	09:02:23	94667	5.0.10.0	4_exp_AWA_CON_AMP_EVA	131	Rpleas_acq	Oppo	Rpleas	Amasked	CS_A	1pleas	distractor2	CONbeforeEVA	acq_new_unple_masked	acq1_masked	1	2	0	0	300	300	0	0	703	46	0	1	0	0	0	1	blank2r.bmp	0	1	+	0	4	B4r.bmp	492	1	blank2r.bmp	786	7	C3r.bmp	786	1	blank2r.bmp	866	5	sterben	866	0	0	0	0	0	0	0	0	0	0	0	0	0	0	0	0	0	0	0	0	0	0	0	0	0	0	0	0	0	0	0	0	0
022119	09:00:45	09:02:25	96906	5.0.10.0	4_exp_AWA_CON_AMP_EVA	131	Rpleas_acq	Oppo	Rpleas	Amasked	CS_A	1pleas	distractor2	CONbeforeEVA	acq_new_pleas_masked	acq1_masked	1	3	0	0	300	300	0	0	746	50	0	1	0	0	0	1	blank2r.bmp	0	1	+	0	3	B3r.bmp	492	1	blank2r.bmp	786	6	C2r.bmp	786	1	blank2r.bmp	866	4	anregung	866	0	0	0	0	0	0	0	0	0	0	0	0	0	0	0	0	0	0	0	0	0	0	0	0	0	0	0	0	0	0	0	0	0
022119	09:00:45	09:02:27	99065	5.0.10.0	4_exp_AWA_CON_AMP_EVA	131	Rpleas_acq	Oppo	Rpleas	Amasked	CS_A	1pleas	distractor2	CONbeforeEVA	acq_new_unple_masked	acq1_masked	1	4	0	0	300	300	0	0	651	46	0	1	0	0	0	1	blank2r.bmp	0	1	+	0	2	B2r.bmp	492	1	blank2r.bmp	786	1	B1r.bmp	786	1	blank2r.bmp	866	1	versagen	866	0	0	0	0	0	0	0	0	0	0	0	0	0	0	0	0	0	0	0	0	0	0	0	0	0	0	0	0	0	0	0	0	0
022119	09:00:45	09:02:29	101304	5.0.10.0	4_exp_AWA_CON_AMP_EVA	131	Rpleas_acq	Oppo	Rpleas	Amasked	CS_A	1pleas	distractor2	CONbeforeEVA	acq_new_unple_masked	acq1_masked	1	5	0	0	300	300	0	0	771	46	0	1	0	0	0	1	blank2r.bmp	0	1	+	0	1	B1r.bmp	492	1	blank2r.bmp	786	4	B4r.bmp	786	1	blank2r.bmp	866	6	verbissen	866	0	0	0	0	0	0	0	0	0	0	0	0	0	0	0	0	0	0	0	0	0	0	0	0	0	0	0	0	0	0	0	0	0
022119	09:00:45	09:02:32	103596	5.0.10.0	4_exp_AWA_CON_AMP_EVA	131	Rpleas_acq	Oppo	Rpleas	Amasked	CS_A	1pleas	distractor2	CONbeforeEVA	acq_US_unple_masked	acq1_masked	1	6	0	0	300	300	0	0	809	46	0	1	0	0	0	1	blank2r.bmp	0	1	+	0	7	C3r.bmp	492	1	blank2r.bmp	786	1	DHJF	786	1	blank2r.bmp	866	4	engstirnig	866	0	0	0	0	0	0	0	0	0	0	0	0	0	0	0	0	0	0	0	0	0	0	0	0	0	0	0	0	0	0	0	0	0
022119	09:00:45	09:02:34	106275	5.0.10.0	4_exp_AWA_CON_AMP_EVA	131	Rpleas_acq	Oppo	Rpleas	Amasked	CS_A	1pleas	distractor2	CONbeforeEVA	acq_US_unple_masked	acq1_masked	1	7	0	0	300	300	0	0	1193	46	0	1	0	0	0	1	blank2r.bmp	0	1	+	0	5	C1r.bmp	492	1	blank2r.bmp	786	1	DHJF	786	1	blank2r.bmp	866	5	bange	866	0	0	0	0	0	0	0	0	0	0	0	0	0	0	0	0	0	0	0	0	0	0	0	0	0	0	0	0	0	0	0	0	0
022119	09:00:45	09:02:37	108501	5.0.10.0	4_exp_AWA_CON_AMP_EVA	131	Rpleas_acq	Oppo	Rpleas	Amasked	CS_A	1pleas	distractor2	CONbeforeEVA	acq_new_pleas_masked	acq1_masked	1	8	0	0	300	300	0	0	734	50	0	1	0	0	0	1	blank2r.bmp	0	1	+	0	6	C2r.bmp	492	1	blank2r.bmp	786	5	C1r.bmp	786	1	blank2r.bmp	866	5	sonnig	866	0	0	0	0	0	0	0	0	0	0	0	0	0	0	0	0	0	0	0	0	0	0	0	0	0	0	0	0	0	0	0	0	0
022119	09:00:45	09:02:39	110593	5.0.10.0	4_exp_AWA_CON_AMP_EVA	131	Rpleas_acq	Oppo	Rpleas	Amasked	CS_A	1pleas	distractor2	CONbeforeEVA	acq_new_pleas_masked	acq1_masked	1	9	0	0	300	300	0	0	610	50	0	1	0	0	0	1	blank2r.bmp	0	1	+	0	1	B1r.bmp	492	1	blank2r.bmp	786	8	C4r.bmp	786	1	blank2r.bmp	866	1	vertrauen	866	0	0	0	0	0	0	0	0	0	0	0	0	0	0	0	0	0	0	0	0	0	0	0	0	0	0	0	0	0	0	0	0	0
022119	09:00:45	09:02:41	112579	5.0.10.0	4_exp_AWA_CON_AMP_EVA	131	Rpleas_acq	Oppo	Rpleas	Amasked	CS_A	1pleas	distractor2	CONbeforeEVA	acq_US_pleas_masked	acq1_masked	1	10	0	0	300	300	0	0	498	50	0	1	0	0	0	1	blank2r.bmp	0	1	+	0	5	C1r.bmp	492	1	blank2r.bmp	786	1	CPLW	786	1	blank2r.bmp	866	3	träumen	866	0	0	0	0	0	0	0	0	0	0	0	0	0	0	0	0	0	0	0	0	0	0	0	0	0	0	0	0	0	0	0	0	0
022119	09:00:45	09:02:43	114712	5.0.10.0	4_exp_AWA_CON_AMP_EVA	131	Rpleas_acq	Oppo	Rpleas	Amasked	CS_A	1pleas	distractor2	CONbeforeEVA	acq_US_pleas_masked	acq1_masked	1	11	0	0	300	300	0	0	653	50	0	1	0	0	0	1	blank2r.bmp	0	1	+	0	8	C4r.bmp	492	1	blank2r.bmp	786	1	CPLW	786	1	blank2r.bmp	866	1	gesittet	866	0	0	0	0	0	0	0	0	0	0	0	0	0	0	0	0	0	0	0	0	0	0	0	0	0	0	0	0	0	0	0	0	0
022119	09:00:45	09:02:45	117097	5.0.10.0	4_exp_AWA_CON_AMP_EVA	131	Rpleas_acq	Oppo	Rpleas	Amasked	CS_A	1pleas	distractor2	CONbeforeEVA	acq_US_pleas_masked	acq1_masked	1	12	0	0	300	300	0	0	893	50	0	1	0	0	0	1	blank2r.bmp	0	1	+	0	7	C3r.bmp	492	1	blank2r.bmp	786	1	CPLW	786	1	blank2r.bmp	866	2	gütig	866	0	0	0	0	0	0	0	0	0	0	0	0	0	0	0	0	0	0	0	0	0	0	0	0	0	0	0	0	0	0	0	0	0
022119	09:00:45	09:02:47	119097	5.0.10.0	4_exp_AWA_CON_AMP_EVA	131	Rpleas_acq	Oppo	Rpleas	Amasked	CS_A	1pleas	distractor2	CONbeforeEVA	acq_US_unple_masked	acq1_masked	1	13	0	0	300	300	0	0	516	46	0	1	0	0	0	1	blank2r.bmp	0	1	+	0	2	B2r.bmp	492	1	blank2r.bmp	786	1	DHJF	786	1	blank2r.bmp	866	1	geizig	866	0	0	0	0	0	0	0	0	0	0	0	0	0	0	0	0	0	0	0	0	0	0	0	0	0	0	0	0	0	0	0	0	0
022119	09:00:45	09:02:49	121162	5.0.10.0	4_exp_AWA_CON_AMP_EVA	131	Rpleas_acq	Oppo	Rpleas	Amasked	CS_A	1pleas	distractor2	CONbeforeEVA	acq_US_pleas_masked	acq1_masked	1	14	0	0	300	300	0	0	572	50	0	1	0	0	0	1	blank2r.bmp	0	1	+	0	4	B4r.bmp	492	1	blank2r.bmp	786	1	CPLW	786	1	blank2r.bmp	866	6	genießen	866	0	0	0	0	0	0	0	0	0	0	0	0	0	0	0	0	0	0	0	0	0	0	0	0	0	0	0	0	0	0	0	0	0
022119	09:00:45	09:02:52	123788	5.0.10.0	4_exp_AWA_CON_AMP_EVA	131	Rpleas_acq	Oppo	Rpleas	Amasked	CS_A	1pleas	distractor2	CONbeforeEVA	acq_new_pleas_masked	acq1_masked	1	15	0	0	300	300	0	0	1148	50	0	1	0	0	0	1	blank2r.bmp	0	1	+	0	6	C2r.bmp	492	1	blank2r.bmp	786	2	B2r.bmp	786	1	blank2r.bmp	866	6	vergnügt	866	0	0	0	0	0	0	0	0	0	0	0	0	0	0	0	0	0	0	0	0	0	0	0	0	0	0	0	0	0	0	0	0	0
022119	09:00:45	09:02:54	126000	5.0.10.0	4_exp_AWA_CON_AMP_EVA	131	Rpleas_acq	Oppo	Rpleas	Amasked	CS_A	1pleas	distractor2	CONbeforeEVA	acq_new_unple_masked	acq1_masked	1	16	0	0	300	300	0	0	722	46	0	1	0	0	0	1	blank2r.bmp	0	1	+	0	3	B3r.bmp	492	1	blank2r.bmp	786	3	B3r.bmp	786	1	blank2r.bmp	866	2	krise	866	0	0	0	0	0	0	0	0	0	0	0	0	0	0	0	0	0	0	0	0	0	0	0	0	0	0	0	0	0	0	0	0	0
022119	09:00:45	09:02:57	128533	5.0.10.0	4_exp_AWA_CON_AMP_EVA	131	Rpleas_acq	Oppo	Rpleas	Amasked	CS_A	1pleas	distractor2	CONbeforeEVA	acq_new_unple_masked	acq1_masked	1	17	0	0	300	300	0	0	1051	46	0	1	0	0	0	1	blank2r.bmp	0	1	+	0	4	B4r.bmp	492	1	blank2r.bmp	786	2	B2r.bmp	786	1	blank2r.bmp	866	4	ausrottung	866	0	0	0	0	0	0	0	0	0	0	0	0	0	0	0	0	0	0	0	0	0	0	0	0	0	0	0	0	0	0	0	0	0
022119	09:00:45	09:02:59	130612	5.0.10.0	4_exp_AWA_CON_AMP_EVA	131	Rpleas_acq	Oppo	Rpleas	Amasked	CS_A	1pleas	distractor2	CONbeforeEVA	acq_US_unple_masked	acq1_masked	1	18	0	0	300	300	0	0	599	46	0	1	0	0	0	1	blank2r.bmp	0	1	+	0	8	C4r.bmp	492	1	blank2r.bmp	786	1	DHJF	786	1	blank2r.bmp	866	3	töten	866	0	0	0	0	0	0	0	0	0	0	0	0	0	0	0	0	0	0	0	0	0	0	0	0	0	0	0	0	0	0	0	0	0
022119	09:00:45	09:03:01	133024	5.0.10.0	4_exp_AWA_CON_AMP_EVA	131	Rpleas_acq	Oppo	Rpleas	Amasked	CS_A	1pleas	distractor2	CONbeforeEVA	acq_new_unple_masked	acq1_masked	1	19	0	0	300	300	0	0	933	46	0	1	0	0	0	1	blank2r.bmp	0	1	+	0	7	C3r.bmp	492	1	blank2r.bmp	786	5	C1r.bmp	786	1	blank2r.bmp	866	3	krank	866	0	0	0	0	0	0	0	0	0	0	0	0	0	0	0	0	0	0	0	0	0	0	0	0	0	0	0	0	0	0	0	0	0
022119	09:00:45	09:03:03	135143	5.0.10.0	4_exp_AWA_CON_AMP_EVA	131	Rpleas_acq	Oppo	Rpleas	Amasked	CS_A	1pleas	distractor2	CONbeforeEVA	acq_new_pleas_masked	acq1_masked	1	20	0	0	300	300	0	0	641	50	0	1	0	0	0	1	blank2r.bmp	0	1	+	0	1	B1r.bmp	492	1	blank2r.bmp	786	6	C2r.bmp	786	1	blank2r.bmp	866	3	kreativ	866	0	0	0	0	0	0	0	0	0	0	0	0	0	0	0	0	0	0	0	0	0	0	0	0	0	0	0	0	0	0	0	0	0
022119	09:00:45	09:03:05	137382	5.0.10.0	4_exp_AWA_CON_AMP_EVA	131	Rpleas_acq	Oppo	Rpleas	Amasked	CS_A	1pleas	distractor2	CONbeforeEVA	acq_US_unple_masked	acq1_masked	1	21	0	0	300	300	0	0	767	46	0	1	0	0	0	1	blank2r.bmp	0	1	+	0	5	C1r.bmp	492	1	blank2r.bmp	786	1	DHJF	786	1	blank2r.bmp	866	6	gemein	866	0	0	0	0	0	0	0	0	0	0	0	0	0	0	0	0	0	0	0	0	0	0	0	0	0	0	0	0	0	0	0	0	0
022119	09:00:45	09:03:08	139848	5.0.10.0	4_exp_AWA_CON_AMP_EVA	131	Rpleas_acq	Oppo	Rpleas	Amasked	CS_A	1pleas	distractor2	CONbeforeEVA	acq_new_pleas_masked	acq1_masked	1	22	0	0	300	300	0	0	993	50	0	1	0	0	0	1	blank2r.bmp	0	1	+	0	6	C2r.bmp	492	1	blank2r.bmp	786	7	C3r.bmp	786	1	blank2r.bmp	866	2	kuss	866	0	0	0	0	0	0	0	0	0	0	0	0	0	0	0	0	0	0	0	0	0	0	0	0	0	0	0	0	0	0	0	0	0
022119	09:00:45	09:03:10	142127	5.0.10.0	4_exp_AWA_CON_AMP_EVA	131	Rpleas_acq	Oppo	Rpleas	Amasked	CS_A	1pleas	distractor2	CONbeforeEVA	acq_US_pleas_masked	acq1_masked	1	23	0	0	300	300	0	0	799	50	0	1	0	0	0	1	blank2r.bmp	0	1	+	0	3	B3r.bmp	492	1	blank2r.bmp	786	1	CPLW	786	1	blank2r.bmp	866	5	besonnen	866	0	0	0	0	0	0	0	0	0	0	0	0	0	0	0	0	0	0	0	0	0	0	0	0	0	0	0	0	0	0	0	0	0
022119	09:00:45	09:03:12	144246	5.0.10.0	4_exp_AWA_CON_AMP_EVA	131	Rpleas_acq	Oppo	Rpleas	Amasked	CS_A	1pleas	distractor2	CONbeforeEVA	acq_US_pleas_masked	acq1_masked	1	24	0	0	300	300	0	0	639	50	0	1	0	0	0	1	blank2r.bmp	0	1	+	0	2	B2r.bmp	492	1	blank2r.bmp	786	1	CPLW	786	1	blank2r.bmp	866	4	engagiert	866	0	0	0	0	0	0	0	0	0	0	0	0	0	0	0	0	0	0	0	0	0	0	0	0	0	0	0	0	0	0	0	0	0
022119	09:00:45	09:03:15	146485	5.0.10.0	4_exp_AWA_CON_AMP_EVA	131	Rpleas_acq	Oppo	Rpleas	Amasked	CS_A	1pleas	distractor2	CONbeforeEVA	acq_US_unple_masked	acq1_masked	1	25	0	0	300	300	0	0	763	46	0	1	0	0	0	1	blank2r.bmp	0	1	+	0	6	C2r.bmp	492	1	blank2r.bmp	786	1	DHJF	786	1	blank2r.bmp	866	3	töten	866	0	0	0	0	0	0	0	0	0	0	0	0	0	0	0	0	0	0	0	0	0	0	0	0	0	0	0	0	0	0	0	0	0
022119	09:00:45	09:03:17	148738	5.0.10.0	4_exp_AWA_CON_AMP_EVA	131	Rpleas_acq	Oppo	Rpleas	Amasked	CS_A	1pleas	distractor2	CONbeforeEVA	acq_US_unple_masked	acq1_masked	1	26	0	0	300	300	0	0	766	46	0	1	0	0	0	1	blank2r.bmp	0	1	+	0	1	B1r.bmp	492	1	blank2r.bmp	786	1	DHJF	786	1	blank2r.bmp	866	6	gemein	866	0	0	0	0	0	0	0	0	0	0	0	0	0	0	0	0	0	0	0	0	0	0	0	0	0	0	0	0	0	0	0	0	0
022119	09:00:45	09:03:20	151976	5.0.10.0	4_exp_AWA_CON_AMP_EVA	131	Rpleas_acq	Oppo	Rpleas	Amasked	CS_A	1pleas	distractor2	CONbeforeEVA	acq_US_pleas_masked	acq1_masked	1	27	0	0	300	300	0	0	1533	46	0	0	0	0	0	1	blank2r.bmp	0	1	+	0	7	C3r.bmp	492	1	blank2r.bmp	786	1	CPLW	786	1	blank2r.bmp	866	1	gesittet	866	1	FEHLER	2438	0	0	0	0	0	0	0	0	0	0	0	0	0	0	0	0	0	0	0	0	0	0	0	0	0	0	0	0	0	0
022119	09:00:45	09:03:23	154988	5.0.10.0	4_exp_AWA_CON_AMP_EVA	131	Rpleas_acq	Oppo	Rpleas	Amasked	CS_A	1pleas	distractor2	CONbeforeEVA	acq_new_pleas_masked	acq1_masked	1	28	0	0	300	300	0	0	1735	50	0	1	0	0	0	1	blank2r.bmp	0	1	+	0	8	C4r.bmp	492	1	blank2r.bmp	786	1	B1r.bmp	786	1	blank2r.bmp	866	2	kuss	866	0	0	0	0	0	0	0	0	0	0	0	0	0	0	0	0	0	0	0	0	0	0	0	0	0	0	0	0	0	0	0	0	0
022119	09:00:45	09:03:25	157134	5.0.10.0	4_exp_AWA_CON_AMP_EVA	131	Rpleas_acq	Oppo	Rpleas	Amasked	CS_A	1pleas	distractor2	CONbeforeEVA	acq_new_unple_masked	acq1_masked	1	29	0	0	300	300	0	0	654	46	0	1	0	0	0	1	blank2r.bmp	0	1	+	0	2	B2r.bmp	492	1	blank2r.bmp	786	8	C4r.bmp	786	1	blank2r.bmp	866	4	ausrottung	866	0	0	0	0	0	0	0	0	0	0	0	0	0	0	0	0	0	0	0	0	0	0	0	0	0	0	0	0	0	0	0	0	0
022119	09:00:45	09:03:28	159493	5.0.10.0	4_exp_AWA_CON_AMP_EVA	131	Rpleas_acq	Oppo	Rpleas	Amasked	CS_A	1pleas	distractor2	CONbeforeEVA	acq_US_pleas_masked	acq1_masked	1	30	0	0	300	300	0	0	885	50	0	1	0	0	0	1	blank2r.bmp	0	1	+	0	4	B4r.bmp	492	1	blank2r.bmp	786	1	CPLW	786	1	blank2r.bmp	866	6	genießen	866	0	0	0	0	0	0	0	0	0	0	0	0	0	0	0	0	0	0	0	0	0	0	0	0	0	0	0	0	0	0	0	0	0
022119	09:00:45	09:03:30	161772	5.0.10.0	4_exp_AWA_CON_AMP_EVA	131	Rpleas_acq	Oppo	Rpleas	Amasked	CS_A	1pleas	distractor2	CONbeforeEVA	acq_US_pleas_masked	acq1_masked	1	31	0	0	300	300	0	0	793	50	0	1	0	0	0	1	blank2r.bmp	0	1	+	0	5	C1r.bmp	492	1	blank2r.bmp	786	1	CPLW	786	1	blank2r.bmp	866	4	engagiert	866	0	0	0	0	0	0	0	0	0	0	0	0	0	0	0	0	0	0	0	0	0	0	0	0	0	0	0	0	0	0	0	0	0
022119	09:00:45	09:03:32	164131	5.0.10.0	4_exp_AWA_CON_AMP_EVA	131	Rpleas_acq	Oppo	Rpleas	Amasked	CS_A	1pleas	distractor2	CONbeforeEVA	acq_new_unple_masked	acq1_masked	1	32	0	0	300	300	0	0	869	46	0	1	0	0	0	1	blank2r.bmp	0	1	+	0	3	B3r.bmp	492	1	blank2r.bmp	786	4	B4r.bmp	786	1	blank2r.bmp	866	5	sterben	866	0	0	0	0	0	0	0	0	0	0	0	0	0	0	0	0	0	0	0	0	0	0	0	0	0	0	0	0	0	0	0	0	0
022119	09:00:45	09:03:34	166170	5.0.10.0	4_exp_AWA_CON_AMP_EVA	131	Rpleas_acq	Oppo	Rpleas	Amasked	CS_A	1pleas	distractor2	CONbeforeEVA	acq_new_pleas_masked	acq1_masked	1	33	0	0	300	300	0	0	557	50	0	1	0	0	0	1	blank2r.bmp	0	1	+	0	1	B1r.bmp	492	1	blank2r.bmp	786	3	B3r.bmp	786	1	blank2r.bmp	866	3	kreativ	866	0	0	0	0	0	0	0	0	0	0	0	0	0	0	0	0	0	0	0	0	0	0	0	0	0	0	0	0	0	0	0	0	0
022119	09:00:45	09:03:37	168876	5.0.10.0	4_exp_AWA_CON_AMP_EVA	131	Rpleas_acq	Oppo	Rpleas	Amasked	CS_A	1pleas	distractor2	CONbeforeEVA	acq_new_pleas_masked	acq1_masked	1	34	0	0	300	300	0	0	1212	50	0	1	0	0	0	1	blank2r.bmp	0	1	+	0	6	C2r.bmp	492	1	blank2r.bmp	786	2	B2r.bmp	786	1	blank2r.bmp	866	4	anregung	866	0	0	0	0	0	0	0	0	0	0	0	0	0	0	0	0	0	0	0	0	0	0	0	0	0	0	0	0	0	0	0	0	0
022119	09:00:45	09:03:39	171088	5.0.10.0	4_exp_AWA_CON_AMP_EVA	131	Rpleas_acq	Oppo	Rpleas	Amasked	CS_A	1pleas	distractor2	CONbeforeEVA	acq_US_unple_masked	acq1_masked	1	35	0	0	300	300	0	0	726	46	0	1	0	0	0	1	blank2r.bmp	0	1	+	0	3	B3r.bmp	492	1	blank2r.bmp	786	1	DHJF	786	1	blank2r.bmp	866	2	gierig	866	0	0	0	0	0	0	0	0	0	0	0	0	0	0	0	0	0	0	0	0	0	0	0	0	0	0	0	0	0	0	0	0	0
022119	09:00:45	09:03:41	173181	5.0.10.0	4_exp_AWA_CON_AMP_EVA	131	Rpleas_acq	Oppo	Rpleas	Amasked	CS_A	1pleas	distractor2	CONbeforeEVA	acq_new_unple_masked	acq1_masked	1	36	0	0	300	300	0	0	610	46	0	1	0	0	0	1	blank2r.bmp	0	1	+	0	7	C3r.bmp	492	1	blank2r.bmp	786	1	B1r.bmp	786	1	blank2r.bmp	866	3	krank	866	0	0	0	0	0	0	0	0	0	0	0	0	0	0	0	0	0	0	0	0	0	0	0	0	0	0	0	0	0	0	0	0	0
022119	09:00:45	09:04:22	214031	5.0.10.0	4_exp_AWA_CON_AMP_EVA	131	Rpleas_acq	Oppo	Rpleas	Amasked	CS_A	1pleas	distractor2	CONbeforeEVA	acq_new_unple_masked	acq2_masked	2	1	480	0	300	300	0	0	4934	46	0	1	0	0	0	1	blank2r.bmp	0	1	+	0	4	B4r.bmp	492	1	blank2r.bmp	786	8	C4r.bmp	786	1	blank2r.bmp	866	1	versagen	866	1	!	1319	1	!	-1	0	0	0	0	0	0	0	0	0	0	0	0	0	0	0	0	0	0	0	0	0	0	0	0	0	0	0
022119	09:00:45	09:04:25	216763	5.0.10.0	4_exp_AWA_CON_AMP_EVA	131	Rpleas_acq	Oppo	Rpleas	Amasked	CS_A	1pleas	distractor2	CONbeforeEVA	acq_new_pleas_masked	acq2_masked	2	2	480	0	300	300	0	0	950	50	0	1	0	0	0	1	blank2r.bmp	0	1	+	0	5	C1r.bmp	492	1	blank2r.bmp	786	3	B3r.bmp	786	1	blank2r.bmp	866	5	sonnig	866	1	!	1319	1	!	-1	0	0	0	0	0	0	0	0	0	0	0	0	0	0	0	0	0	0	0	0	0	0	0	0	0	0	0
022119	09:00:45	09:04:27	218909	5.0.10.0	4_exp_AWA_CON_AMP_EVA	131	Rpleas_acq	Oppo	Rpleas	Amasked	CS_A	1pleas	distractor2	CONbeforeEVA	acq_new_unple_masked	acq2_masked	2	3	480	0	300	300	0	0	370	46	0	1	0	0	0	1	blank2r.bmp	0	1	+	0	2	B2r.bmp	492	1	blank2r.bmp	786	6	C2r.bmp	786	1	blank2r.bmp	866	2	krise	866	1	!	-1	1	!	-1	0	0	0	0	0	0	0	0	0	0	0	0	0	0	0	0	0	0	0	0	0	0	0	0	0	0	0
022119	09:00:45	09:04:29	221294	5.0.10.0	4_exp_AWA_CON_AMP_EVA	131	Rpleas_acq	Oppo	Rpleas	Amasked	CS_A	1pleas	distractor2	CONbeforeEVA	acq_US_unple_masked	acq2_masked	2	4	480	0	300	300	0	0	590	46	0	1	0	0	0	1	blank2r.bmp	0	1	+	0	8	C4r.bmp	492	1	blank2r.bmp	786	1	DHJF	786	1	blank2r.bmp	866	5	bange	866	1	!	1319	1	!	-1	0	0	0	0	0	0	0	0	0	0	0	0	0	0	0	0	0	0	0	0	0	0	0	0	0	0	0
022119	09:00:45	09:04:32	223480	5.0.10.0	4_exp_AWA_CON_AMP_EVA	131	Rpleas_acq	Oppo	Rpleas	Amasked	CS_A	1pleas	distractor2	CONbeforeEVA	acq_US_unple_masked	acq2_masked	2	5	480	0	300	300	0	0	395	46	0	1	0	0	0	1	blank2r.bmp	0	1	+	0	6	C2r.bmp	492	1	blank2r.bmp	786	1	DHJF	786	1	blank2r.bmp	866	1	geizig	866	1	!	-1	1	!	-1	0	0	0	0	0	0	0	0	0	0	0	0	0	0	0	0	0	0	0	0	0	0	0	0	0	0	0
022119	09:00:45	09:04:34	225959	5.0.10.0	4_exp_AWA_CON_AMP_EVA	131	Rpleas_acq	Oppo	Rpleas	Amasked	CS_A	1pleas	distractor2	CONbeforeEVA	acq_new_pleas_masked	acq2_masked	2	6	480	0	300	300	0	0	693	50	0	1	0	0	0	1	blank2r.bmp	0	1	+	0	4	B4r.bmp	492	1	blank2r.bmp	786	5	C1r.bmp	786	1	blank2r.bmp	866	6	vergnügt	866	1	!	1319	1	!	-1	0	0	0	0	0	0	0	0	0	0	0	0	0	0	0	0	0	0	0	0	0	0	0	0	0	0	0
022119	09:00:45	09:04:36	228425	5.0.10.0	4_exp_AWA_CON_AMP_EVA	131	Rpleas_acq	Oppo	Rpleas	Amasked	CS_A	1pleas	distractor2	CONbeforeEVA	acq_new_unple_masked	acq2_masked	2	7	480	0	300	300	0	0	678	46	0	1	0	0	0	1	blank2r.bmp	0	1	+	0	1	B1r.bmp	492	1	blank2r.bmp	786	4	B4r.bmp	786	1	blank2r.bmp	866	6	verbissen	866	1	!	1319	1	!	-1	0	0	0	0	0	0	0	0	0	0	0	0	0	0	0	0	0	0	0	0	0	0	0	0	0	0	0
022119	09:00:45	09:04:39	230997	5.0.10.0	4_exp_AWA_CON_AMP_EVA	131	Rpleas_acq	Oppo	Rpleas	Amasked	CS_A	1pleas	distractor2	CONbeforeEVA	acq_new_pleas_masked	acq2_masked	2	8	480	0	300	300	0	0	783	50	0	1	0	0	0	1	blank2r.bmp	0	1	+	0	2	B2r.bmp	492	1	blank2r.bmp	786	7	C3r.bmp	786	1	blank2r.bmp	866	1	vertrauen	866	1	!	1319	1	!	-1	0	0	0	0	0	0	0	0	0	0	0	0	0	0	0	0	0	0	0	0	0	0	0	0	0	0	0
022119	09:00:45	09:04:41	233423	5.0.10.0	4_exp_AWA_CON_AMP_EVA	131	Rpleas_acq	Oppo	Rpleas	Amasked	CS_A	1pleas	distractor2	CONbeforeEVA	acq_US_pleas_masked	acq2_masked	2	9	480	0	300	300	0	0	638	50	0	1	0	0	0	1	blank2r.bmp	0	1	+	0	7	C3r.bmp	492	1	blank2r.bmp	786	1	CPLW	786	1	blank2r.bmp	866	3	träumen	866	1	!	1319	1	!	-1	0	0	0	0	0	0	0	0	0	0	0	0	0	0	0	0	0	0	0	0	0	0	0	0	0	0	0
022119	09:00:45	09:04:44	235862	5.0.10.0	4_exp_AWA_CON_AMP_EVA	131	Rpleas_acq	Oppo	Rpleas	Amasked	CS_A	1pleas	distractor2	CONbeforeEVA	acq_US_pleas_masked	acq2_masked	2	10	480	0	300	300	0	0	663	50	0	1	0	0	0	1	blank2r.bmp	0	1	+	0	5	C1r.bmp	492	1	blank2r.bmp	786	1	CPLW	786	1	blank2r.bmp	866	2	gütig	866	1	!	1319	1	!	-1	0	0	0	0	0	0	0	0	0	0	0	0	0	0	0	0	0	0	0	0	0	0	0	0	0	0	0
022119	09:00:45	09:04:46	238261	5.0.10.0	4_exp_AWA_CON_AMP_EVA	131	Rpleas_acq	Oppo	Rpleas	Amasked	CS_A	1pleas	distractor2	CONbeforeEVA	acq_US_pleas_masked	acq2_masked	2	11	480	0	300	300	0	0	612	50	0	1	0	0	0	1	blank2r.bmp	0	1	+	0	8	C4r.bmp	492	1	blank2r.bmp	786	1	CPLW	786	1	blank2r.bmp	866	5	besonnen	866	1	!	1319	1	!	-1	0	0	0	0	0	0	0	0	0	0	0	0	0	0	0	0	0	0	0	0	0	0	0	0	0	0	0
022119	09:00:45	09:04:49	240606	5.0.10.0	4_exp_AWA_CON_AMP_EVA	131	Rpleas_acq	Oppo	Rpleas	Amasked	CS_A	1pleas	distractor2	CONbeforeEVA	acq_US_unple_masked	acq2_masked	2	12	480	0	300	300	0	0	559	46	0	1	0	0	0	1	blank2r.bmp	0	1	+	0	3	B3r.bmp	492	1	blank2r.bmp	786	1	DHJF	786	1	blank2r.bmp	866	4	engstirnig	866	1	!	1319	1	!	-1	0	0	0	0	0	0	0	0	0	0	0	0	0	0	0	0	0	0	0	0	0	0	0	0	0	0	0
022119	09:00:45	09:04:51	243005	5.0.10.0	4_exp_AWA_CON_AMP_EVA	131	Rpleas_acq	Oppo	Rpleas	Amasked	CS_A	1pleas	distractor2	CONbeforeEVA	acq_new_unple_masked	acq2_masked	2	13	480	0	300	300	0	0	611	46	0	1	0	0	0	1	blank2r.bmp	0	1	+	0	2	B2r.bmp	492	1	blank2r.bmp	786	6	C2r.bmp	786	1	blank2r.bmp	866	1	versagen	866	1	!	1319	1	!	-1	0	0	0	0	0	0	0	0	0	0	0	0	0	0	0	0	0	0	0	0	0	0	0	0	0	0	0
022119	09:00:45	09:04:53	245178	5.0.10.0	4_exp_AWA_CON_AMP_EVA	131	Rpleas_acq	Oppo	Rpleas	Amasked	CS_A	1pleas	distractor2	CONbeforeEVA	acq_new_pleas_masked	acq2_masked	2	14	480	0	300	300	0	0	397	50	0	1	0	0	0	1	blank2r.bmp	0	1	+	0	7	C3r.bmp	492	1	blank2r.bmp	786	8	C4r.bmp	786	1	blank2r.bmp	866	5	sonnig	866	1	!	-1	1	!	-1	0	0	0	0	0	0	0	0	0	0	0	0	0	0	0	0	0	0	0	0	0	0	0	0	0	0	0
022119	09:00:45	09:04:56	247723	5.0.10.0	4_exp_AWA_CON_AMP_EVA	131	Rpleas_acq	Oppo	Rpleas	Amasked	CS_A	1pleas	distractor2	CONbeforeEVA	acq_new_pleas_masked	acq2_masked	2	15	480	0	300	300	0	0	755	50	0	1	0	0	0	1	blank2r.bmp	0	1	+	0	5	C1r.bmp	492	1	blank2r.bmp	786	7	C3r.bmp	786	1	blank2r.bmp	866	6	vergnügt	866	1	!	1319	1	!	-1	0	0	0	0	0	0	0	0	0	0	0	0	0	0	0	0	0	0	0	0	0	0	0	0	0	0	0
022119	09:00:45	09:04:58	250109	5.0.10.0	4_exp_AWA_CON_AMP_EVA	131	Rpleas_acq	Oppo	Rpleas	Amasked	CS_A	1pleas	distractor2	CONbeforeEVA	acq_new_unple_masked	acq2_masked	2	16	480	0	300	300	0	0	610	46	0	1	0	0	0	1	blank2r.bmp	0	1	+	0	4	B4r.bmp	492	1	blank2r.bmp	786	5	C1r.bmp	786	1	blank2r.bmp	866	5	sterben	866	1	!	1319	1	!	-1	0	0	0	0	0	0	0	0	0	0	0	0	0	0	0	0	0	0	0	0	0	0	0	0	0	0	0
022119	09:00:45	09:05:01	252481	5.0.10.0	4_exp_AWA_CON_AMP_EVA	131	Rpleas_acq	Oppo	Rpleas	Amasked	CS_A	1pleas	distractor2	CONbeforeEVA	acq_US_unple_masked	acq2_masked	2	17	480	0	300	300	0	0	590	46	0	1	0	0	0	1	blank2r.bmp	0	1	+	0	3	B3r.bmp	492	1	blank2r.bmp	786	1	DHJF	786	1	blank2r.bmp	866	1	geizig	866	1	!	1319	1	!	-1	0	0	0	0	0	0	0	0	0	0	0	0	0	0	0	0	0	0	0	0	0	0	0	0	0	0	0
022119	09:00:45	09:05:03	254974	5.0.10.0	4_exp_AWA_CON_AMP_EVA	131	Rpleas_acq	Oppo	Rpleas	Amasked	CS_A	1pleas	distractor2	CONbeforeEVA	acq_US_unple_masked	acq2_masked	2	18	480	0	300	300	0	0	714	46	0	1	0	0	0	1	blank2r.bmp	0	1	+	0	8	C4r.bmp	492	1	blank2r.bmp	786	1	DHJF	786	1	blank2r.bmp	866	4	engstirnig	866	1	!	1319	1	!	-1	0	0	0	0	0	0	0	0	0	0	0	0	0	0	0	0	0	0	0	0	0	0	0	0	0	0	0
022119	09:00:45	09:05:05	257399	5.0.10.0	4_exp_AWA_CON_AMP_EVA	131	Rpleas_acq	Oppo	Rpleas	Amasked	CS_A	1pleas	distractor2	CONbeforeEVA	acq_new_pleas_masked	acq2_masked	2	19	480	0	300	300	0	0	625	50	0	1	0	0	0	1	blank2r.bmp	0	1	+	0	1	B1r.bmp	492	1	blank2r.bmp	786	3	B3r.bmp	786	1	blank2r.bmp	866	4	anregung	866	1	!	1319	1	!	-1	0	0	0	0	0	0	0	0	0	0	0	0	0	0	0	0	0	0	0	0	0	0	0	0	0	0	0
022119	09:00:45	09:05:08	259892	5.0.10.0	4_exp_AWA_CON_AMP_EVA	131	Rpleas_acq	Oppo	Rpleas	Amasked	CS_A	1pleas	distractor2	CONbeforeEVA	acq_US_pleas_masked	acq2_masked	2	20	480	0	300	300	0	0	707	50	0	1	0	0	0	1	blank2r.bmp	0	1	+	0	6	C2r.bmp	492	1	blank2r.bmp	786	1	CPLW	786	1	blank2r.bmp	866	1	gesittet	866	1	!	1319	1	!	-1	0	0	0	0	0	0	0	0	0	0	0	0	0	0	0	0	0	0	0	0	0	0	0	0	0	0	0
022119	09:00:45	09:05:10	262291	5.0.10.0	4_exp_AWA_CON_AMP_EVA	131	Rpleas_acq	Oppo	Rpleas	Amasked	CS_A	1pleas	distractor2	CONbeforeEVA	acq_US_unple_masked	acq2_masked	2	21	480	0	300	300	0	0	615	46	0	1	0	0	0	1	blank2r.bmp	0	1	+	0	4	B4r.bmp	492	1	blank2r.bmp	786	1	DHJF	786	1	blank2r.bmp	866	2	gierig	866	1	!	1319	1	!	-1	0	0	0	0	0	0	0	0	0	0	0	0	0	0	0	0	0	0	0	0	0	0	0	0	0	0	0
022119	09:00:45	09:05:13	264703	5.0.10.0	4_exp_AWA_CON_AMP_EVA	131	Rpleas_acq	Oppo	Rpleas	Amasked	CS_A	1pleas	distractor2	CONbeforeEVA	acq_new_unple_masked	acq2_masked	2	22	480	0	300	300	0	0	613	46	0	1	0	0	0	1	blank2r.bmp	0	1	+	0	7	C3r.bmp	492	1	blank2r.bmp	786	4	B4r.bmp	786	1	blank2r.bmp	866	2	krise	866	1	!	1319	1	!	-1	0	0	0	0	0	0	0	0	0	0	0	0	0	0	0	0	0	0	0	0	0	0	0	0	0	0	0
022119	09:00:45	09:05:15	267089	5.0.10.0	4_exp_AWA_CON_AMP_EVA	131	Rpleas_acq	Oppo	Rpleas	Amasked	CS_A	1pleas	distractor2	CONbeforeEVA	acq_US_pleas_masked	acq2_masked	2	23	480	0	300	300	0	0	605	50	0	1	0	0	0	1	blank2r.bmp	0	1	+	0	8	C4r.bmp	492	1	blank2r.bmp	786	1	CPLW	786	1	blank2r.bmp	866	5	besonnen	866	1	!	1319	1	!	-1	0	0	0	0	0	0	0	0	0	0	0	0	0	0	0	0	0	0	0	0	0	0	0	0	0	0	0
022119	09:00:45	09:05:17	269354	5.0.10.0	4_exp_AWA_CON_AMP_EVA	131	Rpleas_acq	Oppo	Rpleas	Amasked	CS_A	1pleas	distractor2	CONbeforeEVA	acq_US_pleas_masked	acq2_masked	2	24	480	1	300	300	0	0	462	50	0	1	0	0	0	1	blank2r.bmp	0	1	+	0	1	B1r.bmp	492	1	blank2r.bmp	786	1	CPLW	786	1	blank2r.bmp	866	2	gütig	866	1	!	1319	1	!	1359	0	0	0	0	0	0	0	0	0	0	0	0	0	0	0	0	0	0	0	0	0	0	0	0	0	0	0
022119	09:00:45	09:05:20	271727	5.0.10.0	4_exp_AWA_CON_AMP_EVA	131	Rpleas_acq	Oppo	Rpleas	Amasked	CS_A	1pleas	distractor2	CONbeforeEVA	acq_new_unple_masked	acq2_masked	2	25	480	0	300	300	0	0	587	46	0	1	0	0	0	1	blank2r.bmp	0	1	+	0	5	C1r.bmp	492	1	blank2r.bmp	786	2	B2r.bmp	786	1	blank2r.bmp	866	6	verbissen	866	1	!	1319	1	!	-1	0	0	0	0	0	0	0	0	0	0	0	0	0	0	0	0	0	0	0	0	0	0	0	0	0	0	0
022119	09:00:45	09:05:22	274086	5.0.10.0	4_exp_AWA_CON_AMP_EVA	131	Rpleas_acq	Oppo	Rpleas	Amasked	CS_A	1pleas	distractor2	CONbeforeEVA	acq_US_unple_masked	acq2_masked	2	26	480	0	300	300	0	0	573	46	0	1	0	0	0	1	blank2r.bmp	0	1	+	0	3	B3r.bmp	492	1	blank2r.bmp	786	1	DHJF	786	1	blank2r.bmp	866	5	bange	866	1	!	1319	1	!	-1	0	0	0	0	0	0	0	0	0	0	0	0	0	0	0	0	0	0	0	0	0	0	0	0	0	0	0
022119	09:00:45	09:05:24	276258	5.0.10.0	4_exp_AWA_CON_AMP_EVA	131	Rpleas_acq	Oppo	Rpleas	Amasked	CS_A	1pleas	distractor2	CONbeforeEVA	acq_US_pleas_masked	acq2_masked	2	27	480	0	300	300	0	0	372	50	0	1	0	0	0	1	blank2r.bmp	0	1	+	0	2	B2r.bmp	492	1	blank2r.bmp	786	1	CPLW	786	1	blank2r.bmp	866	3	träumen	866	1	!	-1	1	!	-1	0	0	0	0	0	0	0	0	0	0	0	0	0	0	0	0	0	0	0	0	0	0	0	0	0	0	0
022119	09:00:45	09:05:27	278721	5.0.10.0	4_exp_AWA_CON_AMP_EVA	131	Rpleas_acq	Oppo	Rpleas	Amasked	CS_A	1pleas	distractor2	CONbeforeEVA	acq_US_pleas_masked	acq2_masked	2	28	480	0	300	300	0	0	664	50	0	1	0	0	0	1	blank2r.bmp	0	1	+	0	6	C2r.bmp	492	1	blank2r.bmp	786	1	CPLW	786	1	blank2r.bmp	866	6	genießen	866	1	!	1319	1	!	-1	0	0	0	0	0	0	0	0	0	0	0	0	0	0	0	0	0	0	0	0	0	0	0	0	0	0	0
022119	09:00:45	09:05:29	281123	5.0.10.0	4_exp_AWA_CON_AMP_EVA	131	Rpleas_acq	Oppo	Rpleas	Amasked	CS_A	1pleas	distractor2	CONbeforeEVA	acq_new_unple_masked	acq2_masked	2	29	480	0	300	300	0	0	622	46	0	1	0	0	0	1	blank2r.bmp	0	1	+	0	4	B4r.bmp	492	1	blank2r.bmp	786	1	B1r.bmp	786	1	blank2r.bmp	866	4	ausrottung	866	1	!	1319	1	!	-1	0	0	0	0	0	0	0	0	0	0	0	0	0	0	0	0	0	0	0	0	0	0	0	0	0	0	0
022119	09:00:45	09:05:31	283322	5.0.10.0	4_exp_AWA_CON_AMP_EVA	131	Rpleas_acq	Oppo	Rpleas	Amasked	CS_A	1pleas	distractor2	CONbeforeEVA	acq_new_pleas_masked	acq2_masked	2	30	480	0	300	300	0	0	413	50	0	1	0	0	0	1	blank2r.bmp	0	1	+	0	6	C2r.bmp	492	1	blank2r.bmp	786	7	C3r.bmp	786	1	blank2r.bmp	866	1	vertrauen	866	1	!	-1	1	!	-1	0	0	0	0	0	0	0	0	0	0	0	0	0	0	0	0	0	0	0	0	0	0	0	0	0	0	0
022119	09:00:45	09:05:34	285694	5.0.10.0	4_exp_AWA_CON_AMP_EVA	131	Rpleas_acq	Oppo	Rpleas	Amasked	CS_A	1pleas	distractor2	CONbeforeEVA	acq_US_unple_masked	acq2_masked	2	31	480	0	300	300	0	0	598	46	0	1	0	0	0	1	blank2r.bmp	0	1	+	0	1	B1r.bmp	492	1	blank2r.bmp	786	1	DHJF	786	1	blank2r.bmp	866	3	töten	866	1	!	1319	1	!	-1	0	0	0	0	0	0	0	0	0	0	0	0	0	0	0	0	0	0	0	0	0	0	0	0	0	0	0
022119	09:00:45	09:05:36	288067	5.0.10.0	4_exp_AWA_CON_AMP_EVA	131	Rpleas_acq	Oppo	Rpleas	Amasked	CS_A	1pleas	distractor2	CONbeforeEVA	acq_new_pleas_masked	acq2_masked	2	32	480	0	300	300	0	0	589	50	0	1	0	0	0	1	blank2r.bmp	0	1	+	0	5	C1r.bmp	492	1	blank2r.bmp	786	6	C2r.bmp	786	1	blank2r.bmp	866	3	kreativ	866	1	!	1319	1	!	-1	0	0	0	0	0	0	0	0	0	0	0	0	0	0	0	0	0	0	0	0	0	0	0	0	0	0	0
022119	09:00:45	09:05:38	290439	5.0.10.0	4_exp_AWA_CON_AMP_EVA	131	Rpleas_acq	Oppo	Rpleas	Amasked	CS_A	1pleas	distractor2	CONbeforeEVA	acq_US_pleas_masked	acq2_masked	2	33	480	0	300	300	0	0	568	50	0	1	0	0	0	1	blank2r.bmp	0	1	+	0	8	C4r.bmp	492	1	blank2r.bmp	786	1	CPLW	786	1	blank2r.bmp	866	4	engagiert	866	1	!	1319	1	!	-1	0	0	0	0	0	0	0	0	0	0	0	0	0	0	0	0	0	0	0	0	0	0	0	0	0	0	0
022119	09:00:45	09:05:41	292785	5.0.10.0	4_exp_AWA_CON_AMP_EVA	131	Rpleas_acq	Oppo	Rpleas	Amasked	CS_A	1pleas	distractor2	CONbeforeEVA	acq_US_unple_masked	acq2_masked	2	34	480	0	300	300	0	0	568	46	0	1	0	0	0	1	blank2r.bmp	0	1	+	0	7	C3r.bmp	492	1	blank2r.bmp	786	1	DHJF	786	1	blank2r.bmp	866	6	gemein	866	1	!	1319	1	!	-1	0	0	0	0	0	0	0	0	0	0	0	0	0	0	0	0	0	0	0	0	0	0	0	0	0	0	0
022119	09:00:45	09:05:43	295104	5.0.10.0	4_exp_AWA_CON_AMP_EVA	131	Rpleas_acq	Oppo	Rpleas	Amasked	CS_A	1pleas	distractor2	CONbeforeEVA	acq_new_unple_masked	acq2_masked	2	35	480	1	300	300	0	0	506	46	0	1	0	0	0	1	blank2r.bmp	0	1	+	0	3	B3r.bmp	492	1	blank2r.bmp	786	2	B2r.bmp	786	1	blank2r.bmp	866	3	krank	866	1	!	1319	1	!	1412	0	0	0	0	0	0	0	0	0	0	0	0	0	0	0	0	0	0	0	0	0	0	0	0	0	0	0
022119	09:00:45	09:05:45	297356	5.0.10.0	4_exp_AWA_CON_AMP_EVA	131	Rpleas_acq	Oppo	Rpleas	Amasked	CS_A	1pleas	distractor2	CONbeforeEVA	acq_new_pleas_masked	acq2_masked	2	36	480	1	300	300	0	0	455	50	0	1	0	0	0	1	blank2r.bmp	0	1	+	0	2	B2r.bmp	492	1	blank2r.bmp	786	4	B4r.bmp	786	1	blank2r.bmp	866	2	kuss	866	1	!	1319	1	!	1359	0	0	0	0	0	0	0	0	0	0	0	0	0	0	0	0	0	0	0	0	0	0	0	0	0	0	0
022119	09:00:45	09:06:00	312457	5.0.10.0	4_exp_AWA_CON_AMP_EVA	131	Rpleas_acq	Oppo	Rpleas	Amasked	CS_A	1pleas	distractor2	CONbeforeEVA	acq_US_unple_masked	acq3_masked	3	1	453	0	300	300	0	0	560	46	0	1	0	0	0	1	blank2r.bmp	0	1	+	0	2	B2r.bmp	492	1	blank2r.bmp	786	1	DHJF	786	1	blank2r.bmp	866	1	geizig	866	1	!	1292	1	!	-1	0	0	0	0	0	0	0	0	0	0	0	0	0	0	0	0	0	0	0	0	0	0	0	0	0	0	0
022119	09:00:45	09:06:06	317934	5.0.10.0	4_exp_AWA_CON_AMP_EVA	131	Rpleas_acq	Oppo	Rpleas	Amasked	CS_A	1pleas	distractor2	CONbeforeEVA	acq_US_pleas_masked	acq3_masked	3	2	453	0	300	300	0	0	3469	46	0	0	0	0	0	1	blank2r.bmp	0	1	+	0	7	C3r.bmp	492	1	blank2r.bmp	786	1	CPLW	786	1	blank2r.bmp	866	6	genießen	866	1	FEHLER	4678	1	!	1292	1	!	-1	0	0	0	0	0	0	0	0	0	0	0	0	0	0	0	0	0	0	0	0	0	0	0	0
022119	09:00:45	09:06:08	320027	5.0.10.0	4_exp_AWA_CON_AMP_EVA	131	Rpleas_acq	Oppo	Rpleas	Amasked	CS_A	1pleas	distractor2	CONbeforeEVA	acq_US_pleas_masked	acq3_masked	3	3	453	0	300	300	0	0	542	50	0	1	0	0	0	1	blank2r.bmp	0	1	+	0	1	B1r.bmp	492	1	blank2r.bmp	786	1	CPLW	786	1	blank2r.bmp	866	5	besonnen	866	1	!	1292	1	!	-1	0	0	0	0	0	0	0	0	0	0	0	0	0	0	0	0	0	0	0	0	0	0	0	0	0	0	0
022119	09:00:45	09:06:11	322652	5.0.10.0	4_exp_AWA_CON_AMP_EVA	131	Rpleas_acq	Oppo	Rpleas	Amasked	CS_A	1pleas	distractor2	CONbeforeEVA	acq_US_pleas_masked	acq3_masked	3	4	453	0	300	300	0	0	604	46	0	0	0	0	0	1	blank2r.bmp	0	1	+	0	8	C4r.bmp	492	1	blank2r.bmp	786	1	CPLW	786	1	blank2r.bmp	866	2	gütig	866	1	FEHLER	1812	1	!	1292	1	!	-1	0	0	0	0	0	0	0	0	0	0	0	0	0	0	0	0	0	0	0	0	0	0	0	0
022119	09:00:45	09:06:13	324505	5.0.10.0	4_exp_AWA_CON_AMP_EVA	131	Rpleas_acq	Oppo	Rpleas	Amasked	CS_A	1pleas	distractor2	CONbeforeEVA	acq_US_pleas_masked	acq3_masked	3	5	453	0	300	300	0	0	297	50	0	1	0	0	0	1	blank2r.bmp	0	1	+	0	3	B3r.bmp	492	1	blank2r.bmp	786	1	CPLW	786	1	blank2r.bmp	866	1	gesittet	866	1	!	-1	1	!	-1	0	0	0	0	0	0	0	0	0	0	0	0	0	0	0	0	0	0	0	0	0	0	0	0	0	0	0
022119	09:00:45	09:06:15	327197	5.0.10.0	4_exp_AWA_CON_AMP_EVA	131	Rpleas_acq	Oppo	Rpleas	Amasked	CS_A	1pleas	distractor2	CONbeforeEVA	acq_US_unple_masked	acq3_masked	3	6	453	0	300	300	0	0	690	50	0	0	0	0	0	1	blank2r.bmp	0	1	+	0	5	C1r.bmp	492	1	blank2r.bmp	786	1	DHJF	786	1	blank2r.bmp	866	6	gemein	866	1	FEHLER	1892	1	!	1292	1	!	-1	0	0	0	0	0	0	0	0	0	0	0	0	0	0	0	0	0	0	0	0	0	0	0	0
022119	09:00:45	09:06:17	329463	5.0.10.0	4_exp_AWA_CON_AMP_EVA	131	Rpleas_acq	Oppo	Rpleas	Amasked	CS_A	1pleas	distractor2	CONbeforeEVA	acq_US_unple_masked	acq3_masked	3	7	453	0	300	300	0	0	693	46	0	1	0	0	0	1	blank2r.bmp	0	1	+	0	6	C2r.bmp	492	1	blank2r.bmp	786	1	DHJF	786	1	blank2r.bmp	866	2	gierig	866	1	!	1292	1	!	-1	0	0	0	0	0	0	0	0	0	0	0	0	0	0	0	0	0	0	0	0	0	0	0	0	0	0	0
022119	09:00:45	09:06:20	331849	5.0.10.0	4_exp_AWA_CON_AMP_EVA	131	Rpleas_acq	Oppo	Rpleas	Amasked	CS_A	1pleas	distractor2	CONbeforeEVA	acq_US_pleas_masked	acq3_masked	3	8	453	0	300	300	0	0	589	50	0	1	0	0	0	1	blank2r.bmp	0	1	+	0	4	B4r.bmp	492	1	blank2r.bmp	786	1	CPLW	786	1	blank2r.bmp	866	3	träumen	866	1	!	1292	1	!	-1	0	0	0	0	0	0	0	0	0	0	0	0	0	0	0	0	0	0	0	0	0	0	0	0	0	0	0
022119	09:00:45	09:06:22	334287	5.0.10.0	4_exp_AWA_CON_AMP_EVA	131	Rpleas_acq	Oppo	Rpleas	Amasked	CS_A	1pleas	distractor2	CONbeforeEVA	acq_US_unple_masked	acq3_masked	3	9	453	0	300	300	0	0	652	46	0	1	0	0	0	1	blank2r.bmp	0	1	+	0	4	B4r.bmp	492	1	blank2r.bmp	786	1	DHJF	786	1	blank2r.bmp	866	4	engstirnig	866	1	!	1292	1	!	-1	0	0	0	0	0	0	0	0	0	0	0	0	0	0	0	0	0	0	0	0	0	0	0	0	0	0	0
022119	09:00:45	09:06:25	336607	5.0.10.0	4_exp_AWA_CON_AMP_EVA	131	Rpleas_acq	Oppo	Rpleas	Amasked	CS_A	1pleas	distractor2	CONbeforeEVA	acq_US_unple_masked	acq3_masked	3	10	453	0	300	300	0	0	532	46	0	1	0	0	0	1	blank2r.bmp	0	1	+	0	7	C3r.bmp	492	1	blank2r.bmp	786	1	DHJF	786	1	blank2r.bmp	866	5	bange	866	1	!	1293	1	!	-1	0	0	0	0	0	0	0	0	0	0	0	0	0	0	0	0	0	0	0	0	0	0	0	0	0	0	0
022119	09:00:45	09:06:27	339192	5.0.10.0	4_exp_AWA_CON_AMP_EVA	131	Rpleas_acq	Oppo	Rpleas	Amasked	CS_A	1pleas	distractor2	CONbeforeEVA	acq_US_unple_masked	acq3_masked	3	11	453	0	300	300	0	0	583	50	0	0	0	0	0	1	blank2r.bmp	0	1	+	0	6	C2r.bmp	492	1	blank2r.bmp	786	1	DHJF	786	1	blank2r.bmp	866	3	töten	866	1	FEHLER	1785	1	!	1292	1	!	-1	0	0	0	0	0	0	0	0	0	0	0	0	0	0	0	0	0	0	0	0	0	0	0	0
022119	09:00:45	09:06:30	341738	5.0.10.0	4_exp_AWA_CON_AMP_EVA	131	Rpleas_acq	Oppo	Rpleas	Amasked	CS_A	1pleas	distractor2	CONbeforeEVA	acq_US_pleas_masked	acq3_masked	3	12	453	0	300	300	0	0	979	50	0	1	0	0	0	1	blank2r.bmp	0	1	+	0	8	C4r.bmp	492	1	blank2r.bmp	786	1	CPLW	786	1	blank2r.bmp	866	4	engagiert	866	1	!	1292	1	!	-1	0	0	0	0	0	0	0	0	0	0	0	0	0	0	0	0	0	0	0	0	0	0	0	0	0	0	0
022119	09:00:45	09:06:33	344497	5.0.10.0	4_exp_AWA_CON_AMP_EVA	131	Rpleas_acq	Oppo	Rpleas	Amasked	CS_A	1pleas	distractor2	CONbeforeEVA	acq_US_unple_masked	acq3_masked	3	13	453	0	300	300	0	0	984	46	0	1	0	0	0	1	blank2r.bmp	0	1	+	0	1	B1r.bmp	492	1	blank2r.bmp	786	1	DHJF	786	1	blank2r.bmp	866	2	gierig	866	1	!	1292	1	!	-1	0	0	0	0	0	0	0	0	0	0	0	0	0	0	0	0	0	0	0	0	0	0	0	0	0	0	0
022119	09:00:45	09:06:35	346896	5.0.10.0	4_exp_AWA_CON_AMP_EVA	131	Rpleas_acq	Oppo	Rpleas	Amasked	CS_A	1pleas	distractor2	CONbeforeEVA	acq_US_pleas_masked	acq3_masked	3	14	453	0	300	300	0	0	622	50	0	1	0	0	0	1	blank2r.bmp	0	1	+	0	3	B3r.bmp	492	1	blank2r.bmp	786	1	CPLW	786	1	blank2r.bmp	866	3	träumen	866	1	!	1292	1	!	-1	0	0	0	0	0	0	0	0	0	0	0	0	0	0	0	0	0	0	0	0	0	0	0	0	0	0	0
022119	09:00:45	09:06:37	349348	5.0.10.0	4_exp_AWA_CON_AMP_EVA	131	Rpleas_acq	Oppo	Rpleas	Amasked	CS_A	1pleas	distractor2	CONbeforeEVA	acq_US_pleas_masked	acq3_masked	3	15	453	0	300	300	0	0	629	50	0	1	0	0	0	1	blank2r.bmp	0	1	+	0	2	B2r.bmp	492	1	blank2r.bmp	786	1	CPLW	786	1	blank2r.bmp	866	4	engagiert	866	1	!	1292	1	!	-1	0	0	0	0	0	0	0	0	0	0	0	0	0	0	0	0	0	0	0	0	0	0	0	0	0	0	0
022119	09:00:45	09:06:40	351640	5.0.10.0	4_exp_AWA_CON_AMP_EVA	131	Rpleas_acq	Oppo	Rpleas	Amasked	CS_A	1pleas	distractor2	CONbeforeEVA	acq_US_unple_masked	acq3_masked	3	16	453	0	300	300	0	0	533	46	0	1	0	0	0	1	blank2r.bmp	0	1	+	0	5	C1r.bmp	492	1	blank2r.bmp	786	1	DHJF	786	1	blank2r.bmp	866	5	bange	866	1	!	1292	1	!	-1	0	0	0	0	0	0	0	0	0	0	0	0	0	0	0	0	0	0	0	0	0	0	0	0	0	0	0
022119	09:00:45	09:06:42	354013	5.0.10.0	4_exp_AWA_CON_AMP_EVA	131	Rpleas_acq	Oppo	Rpleas	Amasked	CS_A	1pleas	distractor2	CONbeforeEVA	acq_US_unple_masked	acq3_masked	3	17	453	0	300	300	0	0	591	46	0	1	0	0	0	1	blank2r.bmp	0	1	+	0	3	B3r.bmp	492	1	blank2r.bmp	817	1	DHJF	817	1	blank2r.bmp	870	1	geizig	870	1	!	1292	1	!	-1	0	0	0	0	0	0	0	0	0	0	0	0	0	0	0	0	0	0	0	0	0	0	0	0	0	0	0
022119	09:00:45	09:06:44	356332	5.0.10.0	4_exp_AWA_CON_AMP_EVA	131	Rpleas_acq	Oppo	Rpleas	Amasked	CS_A	1pleas	distractor2	CONbeforeEVA	acq_US_unple_masked	acq3_masked	3	18	453	0	300	300	0	0	540	46	0	1	0	0	0	1	blank2r.bmp	0	1	+	0	8	C4r.bmp	492	1	blank2r.bmp	786	1	DHJF	786	1	blank2r.bmp	866	3	töten	866	1	!	1292	1	!	-1	0	0	0	0	0	0	0	0	0	0	0	0	0	0	0	0	0	0	0	0	0	0	0	0	0	0	0
022119	09:00:45	09:06:47	358744	5.0.10.0	4_exp_AWA_CON_AMP_EVA	131	Rpleas_acq	Oppo	Rpleas	Amasked	CS_A	1pleas	distractor2	CONbeforeEVA	acq_US_pleas_masked	acq3_masked	3	19	453	0	300	300	0	0	625	50	0	1	0	0	0	1	blank2r.bmp	0	1	+	0	4	B4r.bmp	492	1	blank2r.bmp	786	1	CPLW	786	1	blank2r.bmp	866	6	genießen	866	1	!	1292	1	!	-1	0	0	0	0	0	0	0	0	0	0	0	0	0	0	0	0	0	0	0	0	0	0	0	0	0	0	0
022119	09:00:45	09:06:49	361103	5.0.10.0	4_exp_AWA_CON_AMP_EVA	131	Rpleas_acq	Oppo	Rpleas	Amasked	CS_A	1pleas	distractor2	CONbeforeEVA	acq_US_pleas_masked	acq3_masked	3	20	453	0	300	300	0	0	568	50	0	1	0	0	0	1	blank2r.bmp	0	1	+	0	2	B2r.bmp	492	1	blank2r.bmp	786	1	CPLW	786	1	blank2r.bmp	866	5	besonnen	866	1	!	1292	1	!	-1	0	0	0	0	0	0	0	0	0	0	0	0	0	0	0	0	0	0	0	0	0	0	0	0	0	0	0
022119	09:00:45	09:06:52	363876	5.0.10.0	4_exp_AWA_CON_AMP_EVA	131	Rpleas_acq	Oppo	Rpleas	Amasked	CS_A	1pleas	distractor2	CONbeforeEVA	acq_US_pleas_masked	acq3_masked	3	21	453	0	300	300	0	0	772	46	0	0	0	0	0	1	blank2r.bmp	0	1	+	0	7	C3r.bmp	492	1	blank2r.bmp	786	1	CPLW	786	1	blank2r.bmp	866	1	gesittet	866	1	FEHLER	1985	1	!	1292	1	!	-1	0	0	0	0	0	0	0	0	0	0	0	0	0	0	0	0	0	0	0	0	0	0	0	0
022119	09:00:45	09:06:55	367007	5.0.10.0	4_exp_AWA_CON_AMP_EVA	131	Rpleas_acq	Oppo	Rpleas	Amasked	CS_A	1pleas	distractor2	CONbeforeEVA	acq_US_unple_masked	acq3_masked	3	22	453	0	300	300	0	0	1561	46	0	1	0	0	0	1	blank2r.bmp	0	1	+	0	5	C1r.bmp	492	1	blank2r.bmp	786	1	DHJF	786	1	blank2r.bmp	866	4	engstirnig	866	1	!	1293	1	!	-1	0	0	0	0	0	0	0	0	0	0	0	0	0	0	0	0	0	0	0	0	0	0	0	0	0	0	0
022119	09:00:45	09:06:58	369886	5.0.10.0	4_exp_AWA_CON_AMP_EVA	131	Rpleas_acq	Oppo	Rpleas	Amasked	CS_A	1pleas	distractor2	CONbeforeEVA	acq_US_pleas_masked	acq3_masked	3	23	453	0	300	300	0	0	1099	50	0	1	0	0	0	1	blank2r.bmp	0	1	+	0	1	B1r.bmp	492	1	blank2r.bmp	786	1	CPLW	786	1	blank2r.bmp	866	2	gütig	866	1	!	1292	1	!	-1	0	0	0	0	0	0	0	0	0	0	0	0	0	0	0	0	0	0	0	0	0	0	0	0	0	0	0
022119	09:00:45	09:07:00	372258	5.0.10.0	4_exp_AWA_CON_AMP_EVA	131	Rpleas_acq	Oppo	Rpleas	Amasked	CS_A	1pleas	distractor2	CONbeforeEVA	acq_US_unple_masked	acq3_masked	3	24	453	0	300	300	0	0	569	46	0	1	0	0	0	1	blank2r.bmp	0	1	+	0	6	C2r.bmp	492	1	blank2r.bmp	786	1	DHJF	786	1	blank2r.bmp	866	6	gemein	866	1	!	1292	1	!	-1	0	0	0	0	0	0	0	0	0	0	0	0	0	0	0	0	0	0	0	0	0	0	0	0	0	0	0
022119	09:00:45	09:07:03	374524	5.0.10.0	4_exp_AWA_CON_AMP_EVA	131	Rpleas_acq	Oppo	Rpleas	Amasked	CS_A	1pleas	distractor2	CONbeforeEVA	acq_US_unple_masked	acq3_masked	3	25	453	1	300	300	0	0	464	46	0	1	0	0	0	1	blank2r.bmp	0	1	+	0	7	C3r.bmp	492	1	blank2r.bmp	786	1	DHJF	786	1	blank2r.bmp	866	2	gierig	866	1	!	1292	1	!	1359	0	0	0	0	0	0	0	0	0	0	0	0	0	0	0	0	0	0	0	0	0	0	0	0	0	0	0
022119	09:00:45	09:07:05	376803	5.0.10.0	4_exp_AWA_CON_AMP_EVA	131	Rpleas_acq	Oppo	Rpleas	Amasked	CS_A	1pleas	distractor2	CONbeforeEVA	acq_US_unple_masked	acq3_masked	3	26	453	0	300	300	0	0	272	50	0	0	0	0	0	1	blank2r.bmp	0	1	+	0	3	B3r.bmp	492	1	blank2r.bmp	786	1	DHJF	786	1	blank2r.bmp	866	4	engstirnig	866	1	FEHLER	1479	1	!	-1	1	!	-1	0	0	0	0	0	0	0	0	0	0	0	0	0	0	0	0	0	0	0	0	0	0	0	0
022119	09:00:45	09:07:07	378936	5.0.10.0	4_exp_AWA_CON_AMP_EVA	131	Rpleas_acq	Oppo	Rpleas	Amasked	CS_A	1pleas	distractor2	CONbeforeEVA	acq_US_pleas_masked	acq3_masked	3	27	453	0	300	300	0	0	569	50	0	1	0	0	0	1	blank2r.bmp	0	1	+	0	8	C4r.bmp	492	1	blank2r.bmp	786	1	CPLW	786	1	blank2r.bmp	866	3	träumen	866	1	!	1292	1	!	-1	0	0	0	0	0	0	0	0	0	0	0	0	0	0	0	0	0	0	0	0	0	0	0	0	0	0	0
022119	09:00:45	09:07:09	381081	5.0.10.0	4_exp_AWA_CON_AMP_EVA	131	Rpleas_acq	Oppo	Rpleas	Amasked	CS_A	1pleas	distractor2	CONbeforeEVA	acq_US_unple_masked	acq3_masked	3	28	453	0	300	300	0	0	351	46	0	1	0	0	0	1	blank2r.bmp	0	1	+	0	6	C2r.bmp	492	1	blank2r.bmp	786	1	DHJF	786	1	blank2r.bmp	900	3	töten	900	1	!	-1	1	!	-1	0	0	0	0	0	0	0	0	0	0	0	0	0	0	0	0	0	0	0	0	0	0	0	0	0	0	0
022119	09:00:45	09:07:11	383427	5.0.10.0	4_exp_AWA_CON_AMP_EVA	131	Rpleas_acq	Oppo	Rpleas	Amasked	CS_A	1pleas	distractor2	CONbeforeEVA	acq_US_pleas_masked	acq3_masked	3	29	453	0	300	300	0	0	569	50	0	1	0	0	0	1	blank2r.bmp	0	1	+	0	2	B2r.bmp	492	1	blank2r.bmp	786	1	CPLW	786	1	blank2r.bmp	866	6	genießen	866	1	!	1292	1	!	-1	0	0	0	0	0	0	0	0	0	0	0	0	0	0	0	0	0	0	0	0	0	0	0	0	0	0	0
022119	09:00:45	09:07:14	385573	5.0.10.0	4_exp_AWA_CON_AMP_EVA	131	Rpleas_acq	Oppo	Rpleas	Amasked	CS_A	1pleas	distractor2	CONbeforeEVA	acq_US_pleas_masked	acq3_masked	3	30	453	0	300	300	0	0	360	50	0	1	0	0	0	1	blank2r.bmp	0	1	+	0	4	B4r.bmp	492	1	blank2r.bmp	786	1	CPLW	786	1	blank2r.bmp	866	2	gütig	866	1	!	-1	1	!	-1	0	0	0	0	0	0	0	0	0	0	0	0	0	0	0	0	0	0	0	0	0	0	0	0	0	0	0
022119	09:00:45	09:07:16	387839	5.0.10.0	4_exp_AWA_CON_AMP_EVA	131	Rpleas_acq	Oppo	Rpleas	Amasked	CS_A	1pleas	distractor2	CONbeforeEVA	acq_US_pleas_masked	acq3_masked	3	31	453	1	300	300	0	0	463	50	0	1	0	0	0	1	blank2r.bmp	0	1	+	0	1	B1r.bmp	492	1	blank2r.bmp	786	1	CPLW	786	1	blank2r.bmp	866	4	engagiert	866	1	!	1292	1	!	1359	0	0	0	0	0	0	0	0	0	0	0	0	0	0	0	0	0	0	0	0	0	0	0	0	0	0	0
022119	09:00:45	09:07:18	390104	5.0.10.0	4_exp_AWA_CON_AMP_EVA	131	Rpleas_acq	Oppo	Rpleas	Amasked	CS_A	1pleas	distractor2	CONbeforeEVA	acq_US_pleas_masked	acq3_masked	3	32	453	1	300	300	0	0	478	50	0	1	0	0	0	1	blank2r.bmp	0	1	+	0	5	C1r.bmp	492	1	blank2r.bmp	786	1	CPLW	786	1	blank2r.bmp	866	1	gesittet	866	1	!	1292	1	!	1373	0	0	0	0	0	0	0	0	0	0	0	0	0	0	0	0	0	0	0	0	0	0	0	0	0	0	0
022119	09:00:45	09:07:21	392517	5.0.10.0	4_exp_AWA_CON_AMP_EVA	131	Rpleas_acq	Oppo	Rpleas	Amasked	CS_A	1pleas	distractor2	CONbeforeEVA	acq_US_unple_masked	acq3_masked	3	33	453	0	300	300	0	0	651	46	0	1	0	0	0	1	blank2r.bmp	0	1	+	0	6	C2r.bmp	492	1	blank2r.bmp	786	1	DHJF	786	1	blank2r.bmp	866	6	gemein	866	1	!	1292	1	!	-1	0	0	0	0	0	0	0	0	0	0	0	0	0	0	0	0	0	0	0	0	0	0	0	0	0	0	0
022119	09:00:45	09:07:23	394862	5.0.10.0	4_exp_AWA_CON_AMP_EVA	131	Rpleas_acq	Oppo	Rpleas	Amasked	CS_A	1pleas	distractor2	CONbeforeEVA	acq_US_unple_masked	acq3_masked	3	34	453	0	300	300	0	0	558	46	0	1	0	0	0	1	blank2r.bmp	0	1	+	0	7	C3r.bmp	492	1	blank2r.bmp	786	1	DHJF	786	1	blank2r.bmp	866	1	geizig	866	1	!	1292	1	!	-1	0	0	0	0	0	0	0	0	0	0	0	0	0	0	0	0	0	0	0	0	0	0	0	0	0	0	0
022119	09:00:45	09:07:25	397208	5.0.10.0	4_exp_AWA_CON_AMP_EVA	131	Rpleas_acq	Oppo	Rpleas	Amasked	CS_A	1pleas	distractor2	CONbeforeEVA	acq_US_pleas_masked	acq3_masked	3	35	453	0	300	300	0	0	568	50	0	1	0	0	0	1	blank2r.bmp	0	1	+	0	1	B1r.bmp	492	1	blank2r.bmp	786	1	CPLW	786	1	blank2r.bmp	866	5	besonnen	866	1	!	1292	1	!	-1	0	0	0	0	0	0	0	0	0	0	0	0	0	0	0	0	0	0	0	0	0	0	0	0	0	0	0
022119	09:00:45	09:07:28	399527	5.0.10.0	4_exp_AWA_CON_AMP_EVA	131	Rpleas_acq	Oppo	Rpleas	Amasked	CS_A	1pleas	distractor2	CONbeforeEVA	acq_US_unple_masked	acq3_masked	3	36	453	0	300	300	0	0	540	46	0	1	0	0	0	1	blank2r.bmp	0	1	+	0	8	C4r.bmp	492	1	blank2r.bmp	786	1	DHJF	786	1	blank2r.bmp	866	5	bange	866	1	!	1292	1	!	-1	0	0	0	0	0	0	0	0	0	0	0	0	0	0	0	0	0	0	0	0	0	0	0	0	0	0	0
022119	09:00:45	09:07:40	412389	5.0.10.0	4_exp_AWA_CON_AMP_EVA	131	Rpleas_acq	Oppo	Rpleas	Amasked	CS_A	1pleas	distractor2	CONbeforeEVA	acq_US_unple_masked	acq45_masked	4	1	400	0	300	300	0	0	502	46	0	1	0	0	0	1	blank2r.bmp	0	1	+	0	4	B4r.bmp	492	1	blank2r.bmp	786	1	DHJF	786	1	blank2r.bmp	866	4	engstirnig	866	1	!	1239	1	!	-1	0	0	0	0	0	0	0	0	0	0	0	0	0	0	0	0	0	0	0	0	0	0	0	0	0	0	0
022119	09:00:45	09:07:43	414668	5.0.10.0	4_exp_AWA_CON_AMP_EVA	131	Rpleas_acq	Oppo	Rpleas	Amasked	CS_A	1pleas	distractor2	CONbeforeEVA	acq_US_unple_masked	acq45_masked	4	2	400	0	300	300	0	0	498	46	0	1	0	0	0	1	blank2r.bmp	0	1	+	0	5	C1r.bmp	492	1	blank2r.bmp	786	1	DHJF	786	1	blank2r.bmp	866	5	bange	866	1	!	1239	1	!	-1	0	0	0	0	0	0	0	0	0	0	0	0	0	0	0	0	0	0	0	0	0	0	0	0	0	0	0
022119	09:00:45	09:07:45	416893	5.0.10.0	4_exp_AWA_CON_AMP_EVA	131	Rpleas_acq	Oppo	Rpleas	Amasked	CS_A	1pleas	distractor2	CONbeforeEVA	acq_US_unple_masked	acq45_masked	4	3	400	1	300	300	0	0	418	46	0	1	0	0	0	1	blank2r.bmp	0	1	+	0	3	B3r.bmp	492	1	blank2r.bmp	786	1	DHJF	786	1	blank2r.bmp	866	3	töten	866	1	!	1239	1	!	1319	0	0	0	0	0	0	0	0	0	0	0	0	0	0	0	0	0	0	0	0	0	0	0	0	0	0	0
022119	09:00:45	09:07:47	419079	5.0.10.0	4_exp_AWA_CON_AMP_EVA	131	Rpleas_acq	Oppo	Rpleas	Amasked	CS_A	1pleas	distractor2	CONbeforeEVA	acq_US_unple_masked	acq45_masked	4	4	400	1	300	300	0	0	391	46	0	1	0	0	0	1	blank2r.bmp	0	1	+	0	2	B2r.bmp	492	1	blank2r.bmp	786	1	DHJF	786	1	blank2r.bmp	866	1	geizig	866	1	!	1239	1	!	1292	0	0	0	0	0	0	0	0	0	0	0	0	0	0	0	0	0	0	0	0	0	0	0	0	0	0	0
022119	09:00:45	09:07:49	421358	5.0.10.0	4_exp_AWA_CON_AMP_EVA	131	Rpleas_acq	Oppo	Rpleas	Amasked	CS_A	1pleas	distractor2	CONbeforeEVA	acq_US_pleas_masked	acq45_masked	4	5	400	0	300	300	0	0	509	50	0	1	0	0	0	1	blank2r.bmp	0	1	+	0	5	C1r.bmp	492	1	blank2r.bmp	786	1	CPLW	786	1	blank2r.bmp	866	2	gütig	866	1	!	1239	1	!	-1	0	0	0	0	0	0	0	0	0	0	0	0	0	0	0	0	0	0	0	0	0	0	0	0	0	0	0
022119	09:00:45	09:07:52	423584	5.0.10.0	4_exp_AWA_CON_AMP_EVA	131	Rpleas_acq	Oppo	Rpleas	Amasked	CS_A	1pleas	distractor2	CONbeforeEVA	acq_US_unple_masked	acq45_masked	4	6	400	1	300	300	0	0	424	46	0	1	0	0	0	1	blank2r.bmp	0	1	+	0	7	C3r.bmp	492	1	blank2r.bmp	786	1	DHJF	786	1	blank2r.bmp	866	6	gemein	866	1	!	1239	1	!	1319	0	0	0	0	0	0	0	0	0	0	0	0	0	0	0	0	0	0	0	0	0	0	0	0	0	0	0
022119	09:00:45	09:07:54	425903	5.0.10.0	4_exp_AWA_CON_AMP_EVA	131	Rpleas_acq	Oppo	Rpleas	Amasked	CS_A	1pleas	distractor2	CONbeforeEVA	acq_US_pleas_masked	acq45_masked	4	7	400	0	300	300	0	0	551	50	0	1	0	0	0	1	blank2r.bmp	0	1	+	0	2	B2r.bmp	492	1	blank2r.bmp	786	1	CPLW	786	1	blank2r.bmp	866	4	engagiert	866	1	!	1239	1	!	-1	0	0	0	0	0	0	0	0	0	0	0	0	0	0	0	0	0	0	0	0	0	0	0	0	0	0	0
022119	09:00:45	09:07:56	428182	5.0.10.0	4_exp_AWA_CON_AMP_EVA	131	Rpleas_acq	Oppo	Rpleas	Amasked	CS_A	1pleas	distractor2	CONbeforeEVA	acq_US_pleas_masked	acq45_masked	4	8	400	0	300	300	0	0	487	50	0	1	0	0	0	1	blank2r.bmp	0	1	+	0	8	C4r.bmp	492	1	blank2r.bmp	786	1	CPLW	786	1	blank2r.bmp	866	6	genießen	866	1	!	1239	1	!	-1	0	0	0	0	0	0	0	0	0	0	0	0	0	0	0	0	0	0	0	0	0	0	0	0	0	0	0
022119	09:00:45	09:07:58	430394	5.0.10.0	4_exp_AWA_CON_AMP_EVA	131	Rpleas_acq	Oppo	Rpleas	Amasked	CS_A	1pleas	distractor2	CONbeforeEVA	acq_US_pleas_masked	acq45_masked	4	9	400	1	300	300	0	0	411	50	0	1	0	0	0	1	blank2r.bmp	0	1	+	0	3	B3r.bmp	492	1	blank2r.bmp	786	1	CPLW	786	1	blank2r.bmp	866	3	träumen	866	1	!	1239	1	!	1306	0	0	0	0	0	0	0	0	0	0	0	0	0	0	0	0	0	0	0	0	0	0	0	0	0	0	0
022119	09:00:45	09:08:01	432594	5.0.10.0	4_exp_AWA_CON_AMP_EVA	131	Rpleas_acq	Oppo	Rpleas	Amasked	CS_A	1pleas	distractor2	CONbeforeEVA	acq_US_pleas_masked	acq45_masked	4	10	400	1	300	300	0	0	396	46	0	0	0	0	0	1	blank2r.bmp	0	1	+	0	1	B1r.bmp	492	1	blank2r.bmp	786	1	CPLW	786	1	blank2r.bmp	866	1	gesittet	866	1	!	1239	1	!	1292	0	0	0	0	0	0	0	0	0	0	0	0	0	0	0	0	0	0	0	0	0	0	0	0	0	0	0
022119	09:00:45	09:08:03	434859	5.0.10.0	4_exp_AWA_CON_AMP_EVA	131	Rpleas_acq	Oppo	Rpleas	Amasked	CS_A	1pleas	distractor2	CONbeforeEVA	acq_US_pleas_masked	acq45_masked	4	11	400	1	300	300	0	0	464	50	0	1	0	0	0	1	blank2r.bmp	0	1	+	0	6	C2r.bmp	492	1	blank2r.bmp	786	1	CPLW	786	1	blank2r.bmp	866	5	besonnen	866	1	!	1239	1	!	1359	0	0	0	0	0	0	0	0	0	0	0	0	0	0	0	0	0	0	0	0	0	0	0	0	0	0	0
022119	09:00:45	09:08:05	437085	5.0.10.0	4_exp_AWA_CON_AMP_EVA	131	Rpleas_acq	Oppo	Rpleas	Amasked	CS_A	1pleas	distractor2	CONbeforeEVA	acq_US_pleas_masked	acq45_masked	4	12	400	1	300	300	0	0	435	50	0	1	0	0	0	1	blank2r.bmp	0	1	+	0	4	B4r.bmp	492	1	blank2r.bmp	786	1	CPLW	786	1	blank2r.bmp	866	6	genießen	866	1	!	1239	1	!	1332	0	0	0	0	0	0	0	0	0	0	0	0	0	0	0	0	0	0	0	0	0	0	0	0	0	0	0
022119	09:00:45	09:08:07	439324	5.0.10.0	4_exp_AWA_CON_AMP_EVA	131	Rpleas_acq	Oppo	Rpleas	Amasked	CS_A	1pleas	distractor2	CONbeforeEVA	acq_US_pleas_masked	acq45_masked	4	13	400	1	300	300	0	0	426	50	0	1	0	0	0	1	blank2r.bmp	0	1	+	0	1	B1r.bmp	492	1	blank2r.bmp	786	1	CPLW	786	1	blank2r.bmp	866	3	träumen	866	1	!	1239	1	!	1332	0	0	0	0	0	0	0	0	0	0	0	0	0	0	0	0	0	0	0	0	0	0	0	0	0	0	0
022119	09:00:45	09:08:10	441523	5.0.10.0	4_exp_AWA_CON_AMP_EVA	131	Rpleas_acq	Oppo	Rpleas	Amasked	CS_A	1pleas	distractor2	CONbeforeEVA	acq_US_unple_masked	acq45_masked	4	14	400	1	300	300	0	0	405	46	0	1	0	0	0	1	blank2r.bmp	0	1	+	0	3	B3r.bmp	492	1	blank2r.bmp	786	1	DHJF	786	1	blank2r.bmp	866	2	gierig	866	1	!	1239	1	!	1306	0	0	0	0	0	0	0	0	0	0	0	0	0	0	0	0	0	0	0	0	0	0	0	0	0	0	0
022119	09:00:45	09:08:12	443722	5.0.10.0	4_exp_AWA_CON_AMP_EVA	131	Rpleas_acq	Oppo	Rpleas	Amasked	CS_A	1pleas	distractor2	CONbeforeEVA	acq_US_unple_masked	acq45_masked	4	15	400	1	300	300	0	0	402	46	0	1	0	0	0	1	blank2r.bmp	0	1	+	0	5	C1r.bmp	492	1	blank2r.bmp	786	1	DHJF	786	1	blank2r.bmp	866	1	geizig	866	1	!	1239	1	!	1306	0	0	0	0	0	0	0	0	0	0	0	0	0	0	0	0	0	0	0	0	0	0	0	0	0	0	0
022119	09:00:45	09:08:15	446988	5.0.10.0	4_exp_AWA_CON_AMP_EVA	131	Rpleas_acq	Oppo	Rpleas	Amasked	CS_A	1pleas	distractor2	CONbeforeEVA	acq_US_unple_masked	acq45_masked	4	16	400	0	300	300	0	0	1502	46	0	1	0	0	0	1	blank2r.bmp	0	1	+	0	4	B4r.bmp	492	1	blank2r.bmp	786	1	DHJF	786	1	blank2r.bmp	866	4	engstirnig	866	1	!	1239	1	!	-1	0	0	0	0	0	0	0	0	0	0	0	0	0	0	0	0	0	0	0	0	0	0	0	0	0	0	0
022119	09:00:45	09:08:17	449387	5.0.10.0	4_exp_AWA_CON_AMP_EVA	131	Rpleas_acq	Oppo	Rpleas	Amasked	CS_A	1pleas	distractor2	CONbeforeEVA	acq_US_pleas_masked	acq45_masked	4	17	400	0	300	300	0	0	618	50	0	1	0	0	0	1	blank2r.bmp	0	1	+	0	2	B2r.bmp	492	1	blank2r.bmp	786	1	CPLW	786	1	blank2r.bmp	866	2	gütig	866	1	!	1239	1	!	-1	0	0	0	0	0	0	0	0	0	0	0	0	0	0	0	0	0	0	0	0	0	0	0	0	0	0	0
022119	09:00:45	09:08:20	451639	5.0.10.0	4_exp_AWA_CON_AMP_EVA	131	Rpleas_acq	Oppo	Rpleas	Amasked	CS_A	1pleas	distractor2	CONbeforeEVA	acq_US_unple_masked	acq45_masked	4	18	400	1	300	300	0	0	443	46	0	1	0	0	0	1	blank2r.bmp	0	1	+	0	6	C2r.bmp	492	1	blank2r.bmp	786	1	DHJF	786	1	blank2r.bmp	866	6	gemein	866	1	!	1239	1	!	1346	0	0	0	0	0	0	0	0	0	0	0	0	0	0	0	0	0	0	0	0	0	0	0	0	0	0	0
022119	09:00:45	09:08:22	453958	5.0.10.0	4_exp_AWA_CON_AMP_EVA	131	Rpleas_acq	Oppo	Rpleas	Amasked	CS_A	1pleas	distractor2	CONbeforeEVA	acq_US_pleas_masked	acq45_masked	4	19	400	0	300	300	0	0	543	50	0	1	0	0	0	1	blank2r.bmp	0	1	+	0	7	C3r.bmp	492	1	blank2r.bmp	786	1	CPLW	786	1	blank2r.bmp	866	4	engagiert	866	1	!	1239	1	!	-1	0	0	0	0	0	0	0	0	0	0	0	0	0	0	0	0	0	0	0	0	0	0	0	0	0	0	0
022119	09:00:45	09:08:24	456210	5.0.10.0	4_exp_AWA_CON_AMP_EVA	131	Rpleas_acq	Oppo	Rpleas	Amasked	CS_A	1pleas	distractor2	CONbeforeEVA	acq_US_unple_masked	acq45_masked	4	20	400	1	300	300	0	0	449	46	0	1	0	0	0	1	blank2r.bmp	0	1	+	0	8	C4r.bmp	492	1	blank2r.bmp	786	1	DHJF	786	1	blank2r.bmp	866	3	töten	866	1	!	1239	1	!	1346	0	0	0	0	0	0	0	0	0	0	0	0	0	0	0	0	0	0	0	0	0	0	0	0	0	0	0
022119	09:00:45	09:08:27	458849	5.0.10.0	4_exp_AWA_CON_AMP_EVA	131	Rpleas_acq	Oppo	Rpleas	Amasked	CS_A	1pleas	distractor2	CONbeforeEVA	acq_US_unple_masked	acq45_masked	4	21	400	0	300	300	0	0	863	46	0	1	0	0	0	1	blank2r.bmp	0	1	+	0	3	B3r.bmp	492	1	blank2r.bmp	786	1	DHJF	786	1	blank2r.bmp	866	2	gierig	866	1	!	1239	1	!	-1	0	0	0	0	0	0	0	0	0	0	0	0	0	0	0	0	0	0	0	0	0	0	0	0	0	0	0
022119	09:00:45	09:08:29	461155	5.0.10.0	4_exp_AWA_CON_AMP_EVA	131	Rpleas_acq	Oppo	Rpleas	Amasked	CS_A	1pleas	distractor2	CONbeforeEVA	acq_US_pleas_masked	acq45_masked	4	22	400	0	300	300	0	0	513	50	0	1	0	0	0	1	blank2r.bmp	0	1	+	0	1	B1r.bmp	492	1	blank2r.bmp	786	1	CPLW	786	1	blank2r.bmp	866	1	gesittet	866	1	!	1239	1	!	-1	0	0	0	0	0	0	0	0	0	0	0	0	0	0	0	0	0	0	0	0	0	0	0	0	0	0	0
022119	09:00:45	09:08:31	463421	5.0.10.0	4_exp_AWA_CON_AMP_EVA	131	Rpleas_acq	Oppo	Rpleas	Amasked	CS_A	1pleas	distractor2	CONbeforeEVA	acq_US_unple_masked	acq45_masked	4	23	400	1	300	300	0	0	462	46	0	1	0	0	0	1	blank2r.bmp	0	1	+	0	5	C1r.bmp	492	1	blank2r.bmp	786	1	DHJF	786	1	blank2r.bmp	866	5	bange	866	1	!	1239	1	!	1359	0	0	0	0	0	0	0	0	0	0	0	0	0	0	0	0	0	0	0	0	0	0	0	0	0	0	0
022119	09:00:45	09:08:34	465633	5.0.10.0	4_exp_AWA_CON_AMP_EVA	131	Rpleas_acq	Oppo	Rpleas	Amasked	CS_A	1pleas	distractor2	CONbeforeEVA	acq_US_pleas_masked	acq45_masked	4	24	400	1	300	300	0	0	413	50	0	1	0	0	0	1	blank2r.bmp	0	1	+	0	6	C2r.bmp	492	1	blank2r.bmp	786	1	CPLW	786	1	blank2r.bmp	866	5	besonnen	866	1	!	1239	1	!	1319	0	0	0	0	0	0	0	0	0	0	0	0	0	0	0	0	0	0	0	0	0	0	0	0	0	0	0
022119	09:00:45	09:08:36	467899	5.0.10.0	4_exp_AWA_CON_AMP_EVA	131	Rpleas_acq	Oppo	Rpleas	Amasked	CS_A	1pleas	distractor2	CONbeforeEVA	acq_US_pleas_masked	acq45_masked	4	25	400	0	300	300	0	0	481	50	0	1	0	0	0	1	blank2r.bmp	0	1	+	0	8	C4r.bmp	492	1	blank2r.bmp	786	1	CPLW	786	1	blank2r.bmp	866	3	träumen	866	1	!	1239	1	!	-1	0	0	0	0	0	0	0	0	0	0	0	0	0	0	0	0	0	0	0	0	0	0	0	0	0	0	0
022119	09:00:45	09:08:38	470151	5.0.10.0	4_exp_AWA_CON_AMP_EVA	131	Rpleas_acq	Oppo	Rpleas	Amasked	CS_A	1pleas	distractor2	CONbeforeEVA	acq_US_pleas_masked	acq45_masked	4	26	400	1	300	300	0	0	443	50	0	1	0	0	0	1	blank2r.bmp	0	1	+	0	4	B4r.bmp	492	1	blank2r.bmp	786	1	CPLW	786	1	blank2r.bmp	866	1	gesittet	866	1	!	1239	1	!	1346	0	0	0	0	0	0	0	0	0	0	0	0	0	0	0	0	0	0	0	0	0	0	0	0	0	0	0
022119	09:00:45	09:08:40	472377	5.0.10.0	4_exp_AWA_CON_AMP_EVA	131	Rpleas_acq	Oppo	Rpleas	Amasked	CS_A	1pleas	distractor2	CONbeforeEVA	acq_US_unple_masked	acq45_masked	4	27	400	1	300	300	0	0	433	46	0	1	0	0	0	1	blank2r.bmp	0	1	+	0	7	C3r.bmp	492	1	blank2r.bmp	786	1	DHJF	786	1	blank2r.bmp	866	3	töten	866	1	!	1239	1	!	1332	0	0	0	0	0	0	0	0	0	0	0	0	0	0	0	0	0	0	0	0	0	0	0	0	0	0	0
022119	09:00:45	09:08:43	474630	5.0.10.0	4_exp_AWA_CON_AMP_EVA	131	Rpleas_acq	Oppo	Rpleas	Amasked	CS_A	1pleas	distractor2	CONbeforeEVA	acq_US_unple_masked	acq45_masked	4	28	400	0	300	300	0	0	480	50	0	0	0	0	0	1	blank2r.bmp	0	1	+	0	2	B2r.bmp	492	1	blank2r.bmp	786	1	DHJF	786	1	blank2r.bmp	866	2	gierig	866	1	!	1239	1	!	-1	0	0	0	0	0	0	0	0	0	0	0	0	0	0	0	0	0	0	0	0	0	0	0	0	0	0	0
022119	09:00:45	09:08:45	476882	5.0.10.0	4_exp_AWA_CON_AMP_EVA	131	Rpleas_acq	Oppo	Rpleas	Amasked	CS_A	1pleas	distractor2	CONbeforeEVA	acq_US_pleas_masked	acq45_masked	4	29	400	1	300	300	0	0	439	50	0	1	0	0	0	1	blank2r.bmp	0	1	+	0	3	B3r.bmp	492	1	blank2r.bmp	786	1	CPLW	786	1	blank2r.bmp	866	6	genießen	866	1	!	1239	1	!	1346	0	0	0	0	0	0	0	0	0	0	0	0	0	0	0	0	0	0	0	0	0	0	0	0	0	0	0
022119	09:00:45	09:08:47	479268	5.0.10.0	4_exp_AWA_CON_AMP_EVA	131	Rpleas_acq	Oppo	Rpleas	Amasked	CS_A	1pleas	distractor2	CONbeforeEVA	acq_US_pleas_masked	acq45_masked	4	30	400	0	300	300	0	0	622	50	0	1	0	0	0	1	blank2r.bmp	0	1	+	0	7	C3r.bmp	492	1	blank2r.bmp	786	1	CPLW	786	1	blank2r.bmp	866	2	gütig	866	1	!	1239	1	!	-1	0	0	0	0	0	0	0	0	0	0	0	0	0	0	0	0	0	0	0	0	0	0	0	0	0	0	0
022119	09:00:45	09:08:50	481520	5.0.10.0	4_exp_AWA_CON_AMP_EVA	131	Rpleas_acq	Oppo	Rpleas	Amasked	CS_A	1pleas	distractor2	CONbeforeEVA	acq_US_pleas_masked	acq45_masked	4	31	400	1	300	300	0	0	440	50	0	1	0	0	0	1	blank2r.bmp	0	1	+	0	1	B1r.bmp	492	1	blank2r.bmp	786	1	CPLW	786	1	blank2r.bmp	866	4	engagiert	866	1	!	1239	1	!	1346	0	0	0	0	0	0	0	0	0	0	0	0	0	0	0	0	0	0	0	0	0	0	0	0	0	0	0
022119	09:00:45	09:08:52	483892	5.0.10.0	4_exp_AWA_CON_AMP_EVA	131	Rpleas_acq	Oppo	Rpleas	Amasked	CS_A	1pleas	distractor2	CONbeforeEVA	acq_US_unple_masked	acq45_masked	4	32	400	0	300	300	0	0	601	46	0	1	0	0	0	1	blank2r.bmp	0	1	+	0	4	B4r.bmp	492	1	blank2r.bmp	786	1	DHJF	786	1	blank2r.bmp	866	6	gemein	866	1	!	1239	1	!	-1	0	0	0	0	0	0	0	0	0	0	0	0	0	0	0	0	0	0	0	0	0	0	0	0	0	0	0
022119	09:00:45	09:08:54	486078	5.0.10.0	4_exp_AWA_CON_AMP_EVA	131	Rpleas_acq	Oppo	Rpleas	Amasked	CS_A	1pleas	distractor2	CONbeforeEVA	acq_US_unple_masked	acq45_masked	4	33	400	1	300	300	0	0	372	46	0	1	0	0	0	1	blank2r.bmp	0	1	+	0	8	C4r.bmp	492	1	blank2r.bmp	786	1	DHJF	786	1	blank2r.bmp	866	5	bange	866	1	!	1239	1	!	1279	0	0	0	0	0	0	0	0	0	0	0	0	0	0	0	0	0	0	0	0	0	0	0	0	0	0	0
022119	09:00:45	09:08:56	488264	5.0.10.0	4_exp_AWA_CON_AMP_EVA	131	Rpleas_acq	Oppo	Rpleas	Amasked	CS_A	1pleas	distractor2	CONbeforeEVA	acq_US_pleas_masked	acq45_masked	4	34	400	1	300	300	0	0	390	50	0	1	0	0	0	1	blank2r.bmp	0	1	+	0	2	B2r.bmp	492	1	blank2r.bmp	786	1	CPLW	786	1	blank2r.bmp	866	5	besonnen	866	1	!	1239	1	!	1292	0	0	0	0	0	0	0	0	0	0	0	0	0	0	0	0	0	0	0	0	0	0	0	0	0	0	0
022119	09:00:45	09:08:59	490490	5.0.10.0	4_exp_AWA_CON_AMP_EVA	131	Rpleas_acq	Oppo	Rpleas	Amasked	CS_A	1pleas	distractor2	CONbeforeEVA	acq_US_unple_masked	acq45_masked	4	35	400	1	300	300	0	0	436	50	0	0	0	0	0	1	blank2r.bmp	0	1	+	0	5	C1r.bmp	492	1	blank2r.bmp	786	1	DHJF	786	1	blank2r.bmp	866	4	engstirnig	866	1	!	1239	1	!	1332	0	0	0	0	0	0	0	0	0	0	0	0	0	0	0	0	0	0	0	0	0	0	0	0	0	0	0
022119	09:00:45	09:09:01	492742	5.0.10.0	4_exp_AWA_CON_AMP_EVA	131	Rpleas_acq	Oppo	Rpleas	Amasked	CS_A	1pleas	distractor2	CONbeforeEVA	acq_US_unple_masked	acq45_masked	4	36	400	1	300	300	0	0	461	50	0	0	0	0	0	1	blank2r.bmp	0	1	+	0	6	C2r.bmp	492	1	blank2r.bmp	786	1	DHJF	786	1	blank2r.bmp	866	1	geizig	866	1	!	1239	1	!	1359	0	0	0	0	0	0	0	0	0	0	0	0	0	0	0	0	0	0	0	0	0	0	0	0	0	0	0
022119	09:00:45	09:09:10	502111	5.0.10.0	4_exp_AWA_CON_AMP_EVA	131	Rpleas_acq	Oppo	Rpleas	Amasked	CS_A	1pleas	distractor2	CONbeforeEVA	acq_US_pleas_masked	acq45_masked	5	1	400	0	300	300	0	0	889	50	0	1	0	0	0	1	blank2r.bmp	0	1	+	0	3	B3r.bmp	492	1	blank2r.bmp	786	1	CPLW	786	1	blank2r.bmp	866	1	gesittet	866	1	!	1239	1	!	-1	0	0	0	0	0	0	0	0	0	0	0	0	0	0	0	0	0	0	0	0	0	0	0	0	0	0	0
022119	09:00:45	09:09:12	504377	5.0.10.0	4_exp_AWA_CON_AMP_EVA	131	Rpleas_acq	Oppo	Rpleas	Amasked	CS_A	1pleas	distractor2	CONbeforeEVA	acq_US_unple_masked	acq45_masked	5	2	400	0	300	300	0	0	479	46	0	1	0	0	0	1	blank2r.bmp	0	1	+	0	6	C2r.bmp	492	1	blank2r.bmp	786	1	DHJF	786	1	blank2r.bmp	866	4	engstirnig	866	1	!	1239	1	!	-1	0	0	0	0	0	0	0	0	0	0	0	0	0	0	0	0	0	0	0	0	0	0	0	0	0	0	0
022119	09:00:45	09:09:15	506550	5.0.10.0	4_exp_AWA_CON_AMP_EVA	131	Rpleas_acq	Oppo	Rpleas	Amasked	CS_A	1pleas	distractor2	CONbeforeEVA	acq_US_pleas_masked	acq45_masked	5	3	400	1	300	300	0	0	365	50	0	1	0	0	0	1	blank2r.bmp	0	1	+	0	7	C3r.bmp	492	1	blank2r.bmp	786	1	CPLW	786	1	blank2r.bmp	866	5	besonnen	866	1	!	1239	1	!	1266	0	0	0	0	0	0	0	0	0	0	0	0	0	0	0	0	0	0	0	0	0	0	0	0	0	0	0
022119	09:00:45	09:09:17	508869	5.0.10.0	4_exp_AWA_CON_AMP_EVA	131	Rpleas_acq	Oppo	Rpleas	Amasked	CS_A	1pleas	distractor2	CONbeforeEVA	acq_US_pleas_masked	acq45_masked	5	4	400	0	300	300	0	0	549	50	0	1	0	0	0	1	blank2r.bmp	0	1	+	0	4	B4r.bmp	492	1	blank2r.bmp	786	1	CPLW	786	1	blank2r.bmp	866	2	gütig	866	1	!	1239	1	!	-1	0	0	0	0	0	0	0	0	0	0	0	0	0	0	0	0	0	0	0	0	0	0	0	0	0	0	0
022119	09:00:45	09:09:19	511134	5.0.10.0	4_exp_AWA_CON_AMP_EVA	131	Rpleas_acq	Oppo	Rpleas	Amasked	CS_A	1pleas	distractor2	CONbeforeEVA	acq_US_unple_masked	acq45_masked	5	5	400	1	300	300	0	0	456	46	0	1	0	0	0	1	blank2r.bmp	0	1	+	0	8	C4r.bmp	492	1	blank2r.bmp	786	1	DHJF	786	1	blank2r.bmp	866	6	gemein	866	1	!	1239	1	!	1359	0	0	0	0	0	0	0	0	0	0	0	0	0	0	0	0	0	0	0	0	0	0	0	0	0	0	0
022119	09:00:45	09:09:21	513294	5.0.10.0	4_exp_AWA_CON_AMP_EVA	131	Rpleas_acq	Oppo	Rpleas	Amasked	CS_A	1pleas	distractor2	CONbeforeEVA	acq_US_unple_masked	acq45_masked	5	6	400	1	300	300	0	0	362	46	0	1	0	0	0	1	blank2r.bmp	0	1	+	0	2	B2r.bmp	492	1	blank2r.bmp	786	1	DHJF	786	1	blank2r.bmp	866	3	töten	866	1	!	1239	1	!	1266	0	0	0	0	0	0	0	0	0	0	0	0	0	0	0	0	0	0	0	0	0	0	0	0	0	0	0
022119	09:00:45	09:09:24	515599	5.0.10.0	4_exp_AWA_CON_AMP_EVA	131	Rpleas_acq	Oppo	Rpleas	Amasked	CS_A	1pleas	distractor2	CONbeforeEVA	acq_US_unple_masked	acq45_masked	5	7	400	0	300	300	0	0	539	50	0	0	0	0	0	1	blank2r.bmp	0	1	+	0	1	B1r.bmp	492	1	blank2r.bmp	786	1	DHJF	786	1	blank2r.bmp	866	1	geizig	866	1	!	1239	1	!	-1	0	0	0	0	0	0	0	0	0	0	0	0	0	0	0	0	0	0	0	0	0	0	0	0	0	0	0
022119	09:00:45	09:09:26	518451	5.0.10.0	4_exp_AWA_CON_AMP_EVA	131	Rpleas_acq	Oppo	Rpleas	Amasked	CS_A	1pleas	distractor2	CONbeforeEVA	acq_US_unple_masked	acq45_masked	5	8	400	0	300	300	0	0	1071	46	0	1	0	0	0	1	blank2r.bmp	0	1	+	0	5	C1r.bmp	492	1	blank2r.bmp	786	1	DHJF	786	1	blank2r.bmp	866	2	gierig	866	1	!	1239	1	!	-1	0	0	0	0	0	0	0	0	0	0	0	0	0	0	0	0	0	0	0	0	0	0	0	0	0	0	0
022119	09:00:45	09:09:29	520784	5.0.10.0	4_exp_AWA_CON_AMP_EVA	131	Rpleas_acq	Oppo	Rpleas	Amasked	CS_A	1pleas	distractor2	CONbeforeEVA	acq_US_unple_masked	acq45_masked	5	9	400	0	300	300	0	0	547	46	0	1	0	0	0	1	blank2r.bmp	0	1	+	0	5	C1r.bmp	492	1	blank2r.bmp	786	1	DHJF	786	1	blank2r.bmp	866	5	bange	866	1	!	1239	1	!	-1	0	0	0	0	0	0	0	0	0	0	0	0	0	0	0	0	0	0	0	0	0	0	0	0	0	0	0
022119	09:00:45	09:09:31	523050	5.0.10.0	4_exp_AWA_CON_AMP_EVA	131	Rpleas_acq	Oppo	Rpleas	Amasked	CS_A	1pleas	distractor2	CONbeforeEVA	acq_US_pleas_masked	acq45_masked	5	10	400	0	300	300	0	0	480	50	0	1	0	0	0	1	blank2r.bmp	0	1	+	0	2	B2r.bmp	492	1	blank2r.bmp	786	1	CPLW	786	1	blank2r.bmp	866	4	engagiert	866	1	!	1239	1	!	-1	0	0	0	0	0	0	0	0	0	0	0	0	0	0	0	0	0	0	0	0	0	0	0	0	0	0	0
022119	09:00:45	09:09:33	525235	5.0.10.0	4_exp_AWA_CON_AMP_EVA	131	Rpleas_acq	Oppo	Rpleas	Amasked	CS_A	1pleas	distractor2	CONbeforeEVA	acq_US_pleas_masked	acq45_masked	5	11	400	1	300	300	0	0	373	50	0	1	0	0	0	1	blank2r.bmp	0	1	+	0	3	B3r.bmp	492	1	blank2r.bmp	786	1	CPLW	786	1	blank2r.bmp	866	3	träumen	866	1	!	1239	1	!	1279	0	0	0	0	0	0	0	0	0	0	0	0	0	0	0	0	0	0	0	0	0	0	0	0	0	0	0
022119	09:00:45	09:09:36	527488	5.0.10.0	4_exp_AWA_CON_AMP_EVA	131	Rpleas_acq	Oppo	Rpleas	Amasked	CS_A	1pleas	distractor2	CONbeforeEVA	acq_US_unple_masked	acq45_masked	5	12	400	1	300	300	0	0	452	46	0	1	0	0	0	1	blank2r.bmp	0	1	+	0	4	B4r.bmp	492	1	blank2r.bmp	786	1	DHJF	786	1	blank2r.bmp	866	3	töten	866	1	!	1239	1	!	1359	0	0	0	0	0	0	0	0	0	0	0	0	0	0	0	0	0	0	0	0	0	0	0	0	0	0	0
022119	09:00:45	09:09:38	529913	5.0.10.0	4_exp_AWA_CON_AMP_EVA	131	Rpleas_acq	Oppo	Rpleas	Amasked	CS_A	1pleas	distractor2	CONbeforeEVA	acq_US_unple_masked	acq45_masked	5	13	400	0	300	300	0	0	646	46	0	1	0	0	0	1	blank2r.bmp	0	1	+	0	7	C3r.bmp	492	1	blank2r.bmp	786	1	DHJF	786	1	blank2r.bmp	866	6	gemein	866	1	!	1239	1	!	-1	0	0	0	0	0	0	0	0	0	0	0	0	0	0	0	0	0	0	0	0	0	0	0	0	0	0	0
022119	09:00:45	09:09:40	532139	5.0.10.0	4_exp_AWA_CON_AMP_EVA	131	Rpleas_acq	Oppo	Rpleas	Amasked	CS_A	1pleas	distractor2	CONbeforeEVA	acq_US_pleas_masked	acq45_masked	5	14	400	1	300	300	0	0	422	50	0	1	0	0	0	1	blank2r.bmp	0	1	+	0	6	C2r.bmp	492	1	blank2r.bmp	786	1	CPLW	786	1	blank2r.bmp	866	6	genießen	866	1	!	1239	1	!	1319	0	0	0	0	0	0	0	0	0	0	0	0	0	0	0	0	0	0	0	0	0	0	0	0	0	0	0
022119	09:00:45	09:09:42	534405	5.0.10.0	4_exp_AWA_CON_AMP_EVA	131	Rpleas_acq	Oppo	Rpleas	Amasked	CS_A	1pleas	distractor2	CONbeforeEVA	acq_US_pleas_masked	acq45_masked	5	15	400	0	300	300	0	0	493	50	0	1	0	0	0	1	blank2r.bmp	0	1	+	0	8	C4r.bmp	492	1	blank2r.bmp	786	1	CPLW	786	1	blank2r.bmp	866	3	träumen	866	1	!	1239	1	!	-1	0	0	0	0	0	0	0	0	0	0	0	0	0	0	0	0	0	0	0	0	0	0	0	0	0	0	0
022119	09:00:45	09:09:45	536804	5.0.10.0	4_exp_AWA_CON_AMP_EVA	131	Rpleas_acq	Oppo	Rpleas	Amasked	CS_A	1pleas	distractor2	CONbeforeEVA	acq_US_pleas_masked	acq45_masked	5	16	400	0	300	300	0	0	624	50	0	1	0	0	0	1	blank2r.bmp	0	1	+	0	1	B1r.bmp	492	1	blank2r.bmp	786	1	CPLW	786	1	blank2r.bmp	866	4	engagiert	866	1	!	1239	1	!	-1	0	0	0	0	0	0	0	0	0	0	0	0	0	0	0	0	0	0	0	0	0	0	0	0	0	0	0
022119	09:00:45	09:09:47	539123	5.0.10.0	4_exp_AWA_CON_AMP_EVA	131	Rpleas_acq	Oppo	Rpleas	Amasked	CS_A	1pleas	distractor2	CONbeforeEVA	acq_US_unple_masked	acq45_masked	5	17	400	0	300	300	0	0	534	46	0	1	0	0	0	1	blank2r.bmp	0	1	+	0	3	B3r.bmp	492	1	blank2r.bmp	786	1	DHJF	786	1	blank2r.bmp	866	1	geizig	866	1	!	1239	1	!	-1	0	0	0	0	0	0	0	0	0	0	0	0	0	0	0	0	0	0	0	0	0	0	0	0	0	0	0
022119	09:00:45	09:09:49	541389	5.0.10.0	4_exp_AWA_CON_AMP_EVA	131	Rpleas_acq	Oppo	Rpleas	Amasked	CS_A	1pleas	distractor2	CONbeforeEVA	acq_US_pleas_masked	acq45_masked	5	18	400	0	300	300	0	0	479	50	0	1	0	0	0	1	blank2r.bmp	0	1	+	0	4	B4r.bmp	492	1	blank2r.bmp	786	1	CPLW	786	1	blank2r.bmp	866	1	gesittet	866	1	!	1239	1	!	-1	0	0	0	0	0	0	0	0	0	0	0	0	0	0	0	0	0	0	0	0	0	0	0	0	0	0	0
022119	09:00:45	09:09:52	543668	5.0.10.0	4_exp_AWA_CON_AMP_EVA	131	Rpleas_acq	Oppo	Rpleas	Amasked	CS_A	1pleas	distractor2	CONbeforeEVA	acq_US_pleas_masked	acq45_masked	5	19	400	0	300	300	0	0	479	50	0	1	0	0	0	1	blank2r.bmp	0	1	+	0	5	C1r.bmp	492	1	blank2r.bmp	786	1	CPLW	786	1	blank2r.bmp	866	2	gütig	866	1	!	1239	1	!	-1	0	0	0	0	0	0	0	0	0	0	0	0	0	0	0	0	0	0	0	0	0	0	0	0	0	0	0
022119	09:00:45	09:09:54	545987	5.0.10.0	4_exp_AWA_CON_AMP_EVA	131	Rpleas_acq	Oppo	Rpleas	Amasked	CS_A	1pleas	distractor2	CONbeforeEVA	acq_US_unple_masked	acq45_masked	5	20	400	0	300	300	0	0	544	46	0	1	0	0	0	1	blank2r.bmp	0	1	+	0	6	C2r.bmp	492	1	blank2r.bmp	786	1	DHJF	786	1	blank2r.bmp	866	4	engstirnig	866	1	!	1239	1	!	-1	0	0	0	0	0	0	0	0	0	0	0	0	0	0	0	0	0	0	0	0	0	0	0	0	0	0	0
022119	09:00:45	09:09:56	548252	5.0.10.0	4_exp_AWA_CON_AMP_EVA	131	Rpleas_acq	Oppo	Rpleas	Amasked	CS_A	1pleas	distractor2	CONbeforeEVA	acq_US_unple_masked	acq45_masked	5	21	400	0	300	300	0	0	479	46	0	1	0	0	0	1	blank2r.bmp	0	1	+	0	2	B2r.bmp	492	1	blank2r.bmp	786	1	DHJF	786	1	blank2r.bmp	866	5	bange	866	1	!	1239	1	!	-1	0	0	0	0	0	0	0	0	0	0	0	0	0	0	0	0	0	0	0	0	0	0	0	0	0	0	0
022119	09:00:45	09:09:58	550372	5.0.10.0	4_exp_AWA_CON_AMP_EVA	131	Rpleas_acq	Oppo	Rpleas	Amasked	CS_A	1pleas	distractor2	CONbeforeEVA	acq_US_unple_masked	acq45_masked	5	22	400	0	300	300	0	0	325	46	0	1	0	0	0	1	blank2r.bmp	0	1	+	0	7	C3r.bmp	492	1	blank2r.bmp	786	1	DHJF	786	1	blank2r.bmp	866	2	gierig	866	1	!	-1	1	!	-1	0	0	0	0	0	0	0	0	0	0	0	0	0	0	0	0	0	0	0	0	0	0	0	0	0	0	0
022119	09:00:45	09:10:01	552531	5.0.10.0	4_exp_AWA_CON_AMP_EVA	131	Rpleas_acq	Oppo	Rpleas	Amasked	CS_A	1pleas	distractor2	CONbeforeEVA	acq_US_unple_masked	acq45_masked	5	23	400	1	300	300	0	0	346	46	0	1	0	0	0	1	blank2r.bmp	0	1	+	0	1	B1r.bmp	492	1	blank2r.bmp	786	1	DHJF	786	1	blank2r.bmp	866	2	gierig	866	1	!	1239	1	!	1252	0	0	0	0	0	0	0	0	0	0	0	0	0	0	0	0	0	0	0	0	0	0	0	0	0	0	0
022119	09:00:45	09:10:03	554703	5.0.10.0	4_exp_AWA_CON_AMP_EVA	131	Rpleas_acq	Oppo	Rpleas	Amasked	CS_A	1pleas	distractor2	CONbeforeEVA	acq_US_pleas_masked	acq45_masked	5	24	400	1	300	300	0	0	380	50	0	1	0	0	0	1	blank2r.bmp	0	1	+	0	8	C4r.bmp	492	1	blank2r.bmp	786	1	CPLW	786	1	blank2r.bmp	866	5	besonnen	866	1	!	1239	1	!	1279	0	0	0	0	0	0	0	0	0	0	0	0	0	0	0	0	0	0	0	0	0	0	0	0	0	0	0
022119	09:00:45	09:10:05	556849	5.0.10.0	4_exp_AWA_CON_AMP_EVA	131	Rpleas_acq	Oppo	Rpleas	Amasked	CS_A	1pleas	distractor2	CONbeforeEVA	acq_US_pleas_masked	acq45_masked	5	25	400	1	300	300	0	0	346	50	0	1	0	0	0	1	blank2r.bmp	0	1	+	0	7	C3r.bmp	492	1	blank2r.bmp	786	1	CPLW	786	1	blank2r.bmp	866	6	genießen	866	1	!	1239	1	!	1252	0	0	0	0	0	0	0	0	0	0	0	0	0	0	0	0	0	0	0	0	0	0	0	0	0	0	0
022119	09:00:45	09:10:07	559035	5.0.10.0	4_exp_AWA_CON_AMP_EVA	131	Rpleas_acq	Oppo	Rpleas	Amasked	CS_A	1pleas	distractor2	CONbeforeEVA	acq_US_unple_masked	acq45_masked	5	26	400	1	300	300	0	0	390	46	0	1	0	0	0	1	blank2r.bmp	0	1	+	0	2	B2r.bmp	492	1	blank2r.bmp	786	1	DHJF	786	1	blank2r.bmp	866	3	töten	866	1	!	1239	1	!	1292	0	0	0	0	0	0	0	0	0	0	0	0	0	0	0	0	0	0	0	0	0	0	0	0	0	0	0
022119	09:00:45	09:10:09	561207	5.0.10.0	4_exp_AWA_CON_AMP_EVA	131	Rpleas_acq	Oppo	Rpleas	Amasked	CS_A	1pleas	distractor2	CONbeforeEVA	acq_US_unple_masked	acq45_masked	5	27	400	1	300	300	0	0	377	50	0	0	0	0	0	1	blank2r.bmp	0	1	+	0	4	B4r.bmp	492	1	blank2r.bmp	786	1	DHJF	786	1	blank2r.bmp	866	4	engstirnig	866	1	!	1239	1	!	1279	0	0	0	0	0	0	0	0	0	0	0	0	0	0	0	0	0	0	0	0	0	0	0	0	0	0	0
022119	09:00:45	09:10:11	563353	5.0.10.0	4_exp_AWA_CON_AMP_EVA	131	Rpleas_acq	Oppo	Rpleas	Amasked	CS_A	1pleas	distractor2	CONbeforeEVA	acq_US_unple_masked	acq45_masked	5	28	400	1	300	300	0	0	346	50	0	0	0	0	0	1	blank2r.bmp	0	1	+	0	8	C4r.bmp	492	1	blank2r.bmp	786	1	DHJF	786	1	blank2r.bmp	866	6	gemein	866	1	!	1239	1	!	1252	0	0	0	0	0	0	0	0	0	0	0	0	0	0	0	0	0	0	0	0	0	0	0	0	0	0	0
022119	09:00:45	09:10:14	565512	5.0.10.0	4_exp_AWA_CON_AMP_EVA	131	Rpleas_acq	Oppo	Rpleas	Amasked	CS_A	1pleas	distractor2	CONbeforeEVA	acq_US_pleas_masked	acq45_masked	5	29	400	1	300	300	0	0	362	46	0	0	0	0	0	1	blank2r.bmp	0	1	+	0	1	B1r.bmp	492	1	blank2r.bmp	786	1	CPLW	786	1	blank2r.bmp	866	1	gesittet	866	1	!	1239	1	!	1266	0	0	0	0	0	0	0	0	0	0	0	0	0	0	0	0	0	0	0	0	0	0	0	0	0	0	0
022119	09:00:45	09:10:16	567764	5.0.10.0	4_exp_AWA_CON_AMP_EVA	131	Rpleas_acq	Oppo	Rpleas	Amasked	CS_A	1pleas	distractor2	CONbeforeEVA	acq_US_pleas_masked	acq45_masked	5	30	400	0	300	300	0	0	479	50	0	1	0	0	0	1	blank2r.bmp	0	1	+	0	3	B3r.bmp	492	1	blank2r.bmp	786	1	CPLW	786	1	blank2r.bmp	866	5	besonnen	866	1	!	1239	1	!	-1	0	0	0	0	0	0	0	0	0	0	0	0	0	0	0	0	0	0	0	0	0	0	0	0	0	0	0
022119	09:00:45	09:10:18	569990	5.0.10.0	4_exp_AWA_CON_AMP_EVA	131	Rpleas_acq	Oppo	Rpleas	Amasked	CS_A	1pleas	distractor2	CONbeforeEVA	acq_US_unple_masked	acq45_masked	5	31	400	1	300	300	0	0	422	46	0	1	0	0	0	1	blank2r.bmp	0	1	+	0	5	C1r.bmp	492	1	blank2r.bmp	786	1	DHJF	786	1	blank2r.bmp	866	1	geizig	866	1	!	1239	1	!	1319	0	0	0	0	0	0	0	0	0	0	0	0	0	0	0	0	0	0	0	0	0	0	0	0	0	0	0
022119	09:00:45	09:10:20	572243	5.0.10.0	4_exp_AWA_CON_AMP_EVA	131	Rpleas_acq	Oppo	Rpleas	Amasked	CS_A	1pleas	distractor2	CONbeforeEVA	acq_US_unple_masked	acq45_masked	5	32	400	1	300	300	0	0	460	46	0	1	0	0	0	1	blank2r.bmp	0	1	+	0	6	C2r.bmp	492	1	blank2r.bmp	786	1	DHJF	786	1	blank2r.bmp	866	5	bange	866	1	!	1239	1	!	1359	0	0	0	0	0	0	0	0	0	0	0	0	0	0	0	0	0	0	0	0	0	0	0	0	0	0	0
022119	09:00:45	09:10:23	574508	5.0.10.0	4_exp_AWA_CON_AMP_EVA	131	Rpleas_acq	Oppo	Rpleas	Amasked	CS_A	1pleas	distractor2	CONbeforeEVA	acq_US_pleas_masked	acq45_masked	5	33	400	1	300	300	0	0	460	50	0	1	0	0	0	1	blank2r.bmp	0	1	+	0	5	C1r.bmp	492	1	blank2r.bmp	786	1	CPLW	786	1	blank2r.bmp	866	3	träumen	866	1	!	1239	1	!	1359	0	0	0	0	0	0	0	0	0	0	0	0	0	0	0	0	0	0	0	0	0	0	0	0	0	0	0
022119	09:00:45	09:10:25	576787	5.0.10.0	4_exp_AWA_CON_AMP_EVA	131	Rpleas_acq	Oppo	Rpleas	Amasked	CS_A	1pleas	distractor2	CONbeforeEVA	acq_US_pleas_masked	acq45_masked	5	34	400	0	300	300	0	0	515	50	0	1	0	0	0	1	blank2r.bmp	0	1	+	0	6	C2r.bmp	492	1	blank2r.bmp	786	1	CPLW	786	1	blank2r.bmp	866	4	engagiert	866	1	!	1239	1	!	-1	0	0	0	0	0	0	0	0	0	0	0	0	0	0	0	0	0	0	0	0	0	0	0	0	0	0	0
022119	09:00:45	09:10:27	578893	5.0.10.0	4_exp_AWA_CON_AMP_EVA	131	Rpleas_acq	Oppo	Rpleas	Amasked	CS_A	1pleas	distractor2	CONbeforeEVA	acq_US_pleas_masked	acq45_masked	5	35	400	0	300	300	0	0	327	50	0	1	0	0	0	1	blank2r.bmp	0	1	+	0	7	C3r.bmp	492	1	blank2r.bmp	786	1	CPLW	786	1	blank2r.bmp	866	6	genießen	866	1	!	-1	1	!	-1	0	0	0	0	0	0	0	0	0	0	0	0	0	0	0	0	0	0	0	0	0	0	0	0	0	0	0
022119	09:00:45	09:10:29	581146	5.0.10.0	4_exp_AWA_CON_AMP_EVA	131	Rpleas_acq	Oppo	Rpleas	Amasked	CS_A	1pleas	distractor2	CONbeforeEVA	acq_US_pleas_masked	acq45_masked	5	36	400	1	300	300	0	0	450	46	0	0	0	0	0	1	blank2r.bmp	0	1	+	0	4	B4r.bmp	492	1	blank2r.bmp	786	1	CPLW	786	1	blank2r.bmp	866	2	gütig	866	1	!	1239	1	!	1346	0	0	0	0	0	0	0	0	0	0	0	0	0	0	0	0	0	0	0	0	0	0	0	0	0	0	0
022119	09:00:45	09:11:43	655115	5.0.10.0	4_exp_AWA_CON_AMP_EVA	131	Rpleas_acq	Oppo	Lpleas	Amasked	CS_A	1pleas	distractor2	CONbeforeEVA	cond_US_pleas_123_masked_CS2	condtest_masked_1	8	1	400	0	300	300	0	0	1699	46	0	1	0	0	0	1	blank2r.bmp	0	1	+	0	3	B3r.bmp	492	1	blank2r.bmp	786	1	DHJF	786	1	blank2r.bmp	866	2	gütig	866	1	!	1239	1	!	-1	0	0	0	0	0	0	0	0	0	0	0	0	0	0	0	0	0	0	0	0	0	0	0	0	0	0	0
022119	09:00:45	09:11:45	657341	5.0.10.0	4_exp_AWA_CON_AMP_EVA	131	Rpleas_acq	Oppo	Lpleas	Amasked	CS_A	1pleas	distractor2	CONbeforeEVA	cond_US_pleas_123_masked_CS1	condtest_masked_1	8	2	400	1	300	300	0	0	424	46	0	1	0	0	0	1	blank2r.bmp	0	1	+	0	8	C4r.bmp	492	1	blank2r.bmp	786	1	CPLW	786	1	blank2r.bmp	866	1	gesittet	866	1	!	1239	1	!	1319	0	0	0	0	0	0	0	0	0	0	0	0	0	0	0	0	0	0	0	0	0	0	0	0	0	0	0
022119	09:00:45	09:11:48	659620	5.0.10.0	4_exp_AWA_CON_AMP_EVA	131	Rpleas_acq	Oppo	Lpleas	Amasked	CS_A	1pleas	distractor2	CONbeforeEVA	cond_new_pleas_456_masked_CS2	condtest_masked_1	8	3	400	0	300	300	0	0	505	46	0	1	0	0	0	1	blank2r.bmp	0	1	+	0	1	B1r.bmp	492	1	blank2r.bmp	786	1	DHJF	786	1	blank2r.bmp	866	1	anregung	866	1	!	1239	1	!	-1	0	0	0	0	0	0	0	0	0	0	0	0	0	0	0	0	0	0	0	0	0	0	0	0	0	0	0
022119	09:00:45	09:11:50	661739	5.0.10.0	4_exp_AWA_CON_AMP_EVA	131	Rpleas_acq	Oppo	Lpleas	Amasked	CS_A	1pleas	distractor2	CONbeforeEVA	cond_new_unple_456_masked_CS1	condtest_masked_1	8	4	400	0	300	300	0	0	321	50	0	1	0	0	0	1	blank2r.bmp	0	1	+	0	2	B2r.bmp	492	1	blank2r.bmp	786	1	CPLW	786	1	blank2r.bmp	866	3	verbissen	866	1	!	-1	1	!	-1	0	0	0	0	0	0	0	0	0	0	0	0	0	0	0	0	0	0	0	0	0	0	0	0	0	0	0
022119	09:00:45	09:11:52	664018	5.0.10.0	4_exp_AWA_CON_AMP_EVA	131	Rpleas_acq	Oppo	Lpleas	Amasked	CS_A	1pleas	distractor2	CONbeforeEVA	cond_new_pleas_456_masked_CS1	condtest_masked_1	8	5	400	0	300	300	0	0	498	46	0	1	0	0	0	1	blank2r.bmp	0	1	+	0	5	C1r.bmp	492	1	blank2r.bmp	786	1	CPLW	786	1	blank2r.bmp	866	2	sonnig	866	1	!	1239	1	!	-1	0	0	0	0	0	0	0	0	0	0	0	0	0	0	0	0	0	0	0	0	0	0	0	0	0	0	0
022119	09:00:45	09:11:54	666404	5.0.10.0	4_exp_AWA_CON_AMP_EVA	131	Rpleas_acq	Oppo	Lpleas	Amasked	CS_A	1pleas	distractor2	CONbeforeEVA	cond_US_unple_123_masked_CS2	condtest_masked_1	8	6	400	0	300	300	0	0	592	50	0	1	0	0	0	1	blank2r.bmp	0	1	+	0	3	B3r.bmp	492	1	blank2r.bmp	786	1	DHJF	786	1	blank2r.bmp	866	1	geizig	866	1	!	1239	1	!	-1	0	0	0	0	0	0	0	0	0	0	0	0	0	0	0	0	0	0	0	0	0	0	0	0	0	0	0
022119	09:00:45	09:11:57	668723	5.0.10.0	4_exp_AWA_CON_AMP_EVA	131	Rpleas_acq	Oppo	Lpleas	Amasked	CS_A	1pleas	distractor2	CONbeforeEVA	cond_new_unple_456_masked_CS2	condtest_masked_1	8	7	400	0	300	300	0	0	534	50	0	1	0	0	0	1	blank2r.bmp	0	1	+	0	1	B1r.bmp	492	1	blank2r.bmp	786	1	DHJF	786	1	blank2r.bmp	866	2	sterben	866	1	!	1239	1	!	-1	0	0	0	0	0	0	0	0	0	0	0	0	0	0	0	0	0	0	0	0	0	0	0	0	0	0	0
022119	09:00:45	09:11:59	670988	5.0.10.0	4_exp_AWA_CON_AMP_EVA	131	Rpleas_acq	Oppo	Lpleas	Amasked	CS_A	1pleas	distractor2	CONbeforeEVA	cond_US_unple_123_masked_CS1	condtest_masked_1	8	8	400	0	300	300	0	0	479	50	0	1	0	0	0	1	blank2r.bmp	0	1	+	0	2	B2r.bmp	492	1	blank2r.bmp	786	1	CPLW	786	1	blank2r.bmp	866	2	gierig	866	1	!	1239	1	!	-1	0	0	0	0	0	0	0	0	0	0	0	0	0	0	0	0	0	0	0	0	0	0	0	0	0	0	0
022119	09:00:45	09:12:09	681411	5.0.10.0	4_exp_AWA_CON_AMP_EVA	131	Rpleas_acq	Oppo	Lpleas	Amasked	CS_A	1pleas	distractor2	CONbeforeEVA	cond_new_unple_456_masked_CS2	condtest_masked_2	9	1	400	0	300	300	0	0	536	50	0	1	0	0	0	1	blank2r.bmp	0	1	+	0	7	C3r.bmp	492	1	blank2r.bmp	786	1	DHJF	786	1	blank2r.bmp	866	1	ausrottung	866	1	!	1239	1	!	-1	0	0	0	0	0	0	0	0	0	0	0	0	0	0	0	0	0	0	0	0	0	0	0	0	0	0	0
022119	09:00:45	09:12:12	683650	5.0.10.0	4_exp_AWA_CON_AMP_EVA	131	Rpleas_acq	Oppo	Lpleas	Amasked	CS_A	1pleas	distractor2	CONbeforeEVA	cond_US_unple_123_masked_CS1	condtest_masked_2	9	2	400	1	300	300	0	0	426	50	0	1	0	0	0	1	blank2r.bmp	0	1	+	0	8	C4r.bmp	492	1	blank2r.bmp	786	1	CPLW	786	1	blank2r.bmp	866	3	töten	866	1	!	1239	1	!	1332	0	0	0	0	0	0	0	0	0	0	0	0	0	0	0	0	0	0	0	0	0	0	0	0	0	0	0
022119	09:00:45	09:12:14	685796	5.0.10.0	4_exp_AWA_CON_AMP_EVA	131	Rpleas_acq	Oppo	Lpleas	Amasked	CS_A	1pleas	distractor2	CONbeforeEVA	cond_new_unple_456_masked_CS1	condtest_masked_2	9	3	400	1	300	300	0	0	351	50	0	1	0	0	0	1	blank2r.bmp	0	1	+	0	4	B4r.bmp	492	1	blank2r.bmp	786	1	CPLW	786	1	blank2r.bmp	866	1	ausrottung	866	1	!	1239	1	!	1252	0	0	0	0	0	0	0	0	0	0	0	0	0	0	0	0	0	0	0	0	0	0	0	0	0	0	0
022119	09:00:45	09:12:16	688048	5.0.10.0	4_exp_AWA_CON_AMP_EVA	131	Rpleas_acq	Oppo	Lpleas	Amasked	CS_A	1pleas	distractor2	CONbeforeEVA	cond_new_pleas_456_masked_CS1	condtest_masked_2	9	4	400	0	300	300	0	0	479	46	0	1	0	0	0	1	blank2r.bmp	0	1	+	0	6	C2r.bmp	492	1	blank2r.bmp	786	1	CPLW	786	1	blank2r.bmp	866	3	vergnügt	866	1	!	1239	1	!	-1	0	0	0	0	0	0	0	0	0	0	0	0	0	0	0	0	0	0	0	0	0	0	0	0	0	0	0
022119	09:00:45	09:12:18	690394	5.0.10.0	4_exp_AWA_CON_AMP_EVA	131	Rpleas_acq	Oppo	Lpleas	Amasked	CS_A	1pleas	distractor2	CONbeforeEVA	cond_new_unple_456_masked_CS2	condtest_masked_2	9	5	400	0	300	300	0	0	562	50	0	1	0	0	0	1	blank2r.bmp	0	1	+	0	3	B3r.bmp	492	1	blank2r.bmp	786	1	DHJF	786	1	blank2r.bmp	866	3	verbissen	866	1	!	1239	1	!	-1	0	0	0	0	0	0	0	0	0	0	0	0	0	0	0	0	0	0	0	0	0	0	0	0	0	0	0
022119	09:00:45	09:12:21	692700	5.0.10.0	4_exp_AWA_CON_AMP_EVA	131	Rpleas_acq	Oppo	Lpleas	Amasked	CS_A	1pleas	distractor2	CONbeforeEVA	cond_US_unple_123_masked_CS2	condtest_masked_2	9	6	400	0	300	300	0	0	526	50	0	1	0	0	0	1	blank2r.bmp	0	1	+	0	8	C4r.bmp	492	1	blank2r.bmp	786	1	DHJF	786	1	blank2r.bmp	866	1	geizig	866	1	!	1239	1	!	-1	0	0	0	0	0	0	0	0	0	0	0	0	0	0	0	0	0	0	0	0	0	0	0	0	0	0	0
022119	09:00:45	09:12:23	694965	5.0.10.0	4_exp_AWA_CON_AMP_EVA	131	Rpleas_acq	Oppo	Lpleas	Amasked	CS_A	1pleas	distractor2	CONbeforeEVA	cond_new_pleas_456_masked_CS1	condtest_masked_2	9	7	400	0	300	300	0	0	482	46	0	1	0	0	0	1	blank2r.bmp	0	1	+	0	2	B2r.bmp	492	1	blank2r.bmp	786	1	CPLW	786	1	blank2r.bmp	866	1	anregung	866	1	!	1239	1	!	-1	0	0	0	0	0	0	0	0	0	0	0	0	0	0	0	0	0	0	0	0	0	0	0	0	0	0	0
022119	09:00:45	09:12:25	697138	5.0.10.0	4_exp_AWA_CON_AMP_EVA	131	Rpleas_acq	Oppo	Lpleas	Amasked	CS_A	1pleas	distractor2	CONbeforeEVA	cond_new_pleas_456_masked_CS1	condtest_masked_2	9	8	400	1	300	300	0	0	363	46	0	1	0	0	0	1	blank2r.bmp	0	1	+	0	1	B1r.bmp	492	1	blank2r.bmp	786	1	CPLW	786	1	blank2r.bmp	866	3	vergnügt	866	1	!	1239	1	!	1266	0	0	0	0	0	0	0	0	0	0	0	0	0	0	0	0	0	0	0	0	0	0	0	0	0	0	0
022119	09:00:45	09:12:27	699283	5.0.10.0	4_exp_AWA_CON_AMP_EVA	131	Rpleas_acq	Oppo	Lpleas	Amasked	CS_A	1pleas	distractor2	CONbeforeEVA	cond_US_pleas_123_masked_CS1	condtest_masked_2	9	9	400	1	300	300	0	0	355	46	0	1	0	0	0	1	blank2r.bmp	0	1	+	0	4	B4r.bmp	492	1	blank2r.bmp	786	1	CPLW	786	1	blank2r.bmp	866	3	träumen	866	1	!	1239	1	!	1252	0	0	0	0	0	0	0	0	0	0	0	0	0	0	0	0	0	0	0	0	0	0	0	0	0	0	0
022119	09:00:45	09:12:30	701536	5.0.10.0	4_exp_AWA_CON_AMP_EVA	131	Rpleas_acq	Oppo	Lpleas	Amasked	CS_A	1pleas	distractor2	CONbeforeEVA	cond_new_unple_456_masked_CS2	condtest_masked_2	9	10	400	1	300	300	0	0	459	50	0	1	0	0	0	1	blank2r.bmp	0	1	+	0	7	C3r.bmp	492	1	blank2r.bmp	786	1	DHJF	786	1	blank2r.bmp	866	2	sterben	866	1	!	1239	1	!	1359	0	0	0	0	0	0	0	0	0	0	0	0	0	0	0	0	0	0	0	0	0	0	0	0	0	0	0
022119	09:00:45	09:12:32	703775	5.0.10.0	4_exp_AWA_CON_AMP_EVA	131	Rpleas_acq	Oppo	Lpleas	Amasked	CS_A	1pleas	distractor2	CONbeforeEVA	cond_US_pleas_123_masked_CS1	condtest_masked_2	9	11	400	1	300	300	0	0	449	46	0	1	0	0	0	1	blank2r.bmp	0	1	+	0	6	C2r.bmp	492	1	blank2r.bmp	786	1	CPLW	786	1	blank2r.bmp	866	3	träumen	866	1	!	1239	1	!	1346	0	0	0	0	0	0	0	0	0	0	0	0	0	0	0	0	0	0	0	0	0	0	0	0	0	0	0
022119	09:00:45	09:12:34	706027	5.0.10.0	4_exp_AWA_CON_AMP_EVA	131	Rpleas_acq	Oppo	Lpleas	Amasked	CS_A	1pleas	distractor2	CONbeforeEVA	cond_new_pleas_456_masked_CS2	condtest_masked_2	9	12	400	1	300	300	0	0	452	46	0	1	0	0	0	1	blank2r.bmp	0	1	+	0	5	C1r.bmp	492	1	blank2r.bmp	786	1	DHJF	786	1	blank2r.bmp	866	2	sonnig	866	1	!	1239	1	!	1359	0	0	0	0	0	0	0	0	0	0	0	0	0	0	0	0	0	0	0	0	0	0	0	0	0	0	0
022119	09:00:45	09:12:36	708293	5.0.10.0	4_exp_AWA_CON_AMP_EVA	131	Rpleas_acq	Oppo	Lpleas	Amasked	CS_A	1pleas	distractor2	CONbeforeEVA	cond_US_unple_123_masked_CS2	condtest_masked_2	9	13	400	1	300	300	0	0	462	50	0	1	0	0	0	1	blank2r.bmp	0	1	+	0	4	B4r.bmp	492	1	blank2r.bmp	786	1	DHJF	786	1	blank2r.bmp	866	2	gierig	866	1	!	1239	1	!	1359	0	0	0	0	0	0	0	0	0	0	0	0	0	0	0	0	0	0	0	0	0	0	0	0	0	0	0
022119	09:00:45	09:12:39	710506	5.0.10.0	4_exp_AWA_CON_AMP_EVA	131	Rpleas_acq	Oppo	Lpleas	Amasked	CS_A	1pleas	distractor2	CONbeforeEVA	cond_US_pleas_123_masked_CS1	condtest_masked_2	9	14	400	1	300	300	0	0	419	46	0	1	0	0	0	1	blank2r.bmp	0	1	+	0	6	C2r.bmp	492	1	blank2r.bmp	786	1	CPLW	786	1	blank2r.bmp	866	1	gesittet	866	1	!	1239	1	!	1319	0	0	0	0	0	0	0	0	0	0	0	0	0	0	0	0	0	0	0	0	0	0	0	0	0	0	0
022119	09:00:45	09:12:41	712745	5.0.10.0	4_exp_AWA_CON_AMP_EVA	131	Rpleas_acq	Oppo	Lpleas	Amasked	CS_A	1pleas	distractor2	CONbeforeEVA	cond_US_pleas_123_masked_CS1	condtest_masked_2	9	15	400	1	300	300	0	0	426	46	0	1	0	0	0	1	blank2r.bmp	0	1	+	0	8	C4r.bmp	492	1	blank2r.bmp	786	1	CPLW	786	1	blank2r.bmp	866	2	gütig	866	1	!	1239	1	!	1332	0	0	0	0	0	0	0	0	0	0	0	0	0	0	0	0	0	0	0	0	0	0	0	0	0	0	0
022119	09:00:45	09:12:43	714970	5.0.10.0	4_exp_AWA_CON_AMP_EVA	131	Rpleas_acq	Oppo	Lpleas	Amasked	CS_A	1pleas	distractor2	CONbeforeEVA	cond_US_unple_123_masked_CS2	condtest_masked_2	9	16	400	1	300	300	0	0	430	46	0	0	0	0	0	1	blank2r.bmp	0	1	+	0	3	B3r.bmp	492	1	blank2r.bmp	786	1	DHJF	786	1	blank2r.bmp	866	3	töten	866	1	!	1239	1	!	1332	0	0	0	0	0	0	0	0	0	0	0	0	0	0	0	0	0	0	0	0	0	0	0	0	0	0	0
022119	09:00:45	09:12:45	717223	5.0.10.0	4_exp_AWA_CON_AMP_EVA	131	Rpleas_acq	Oppo	Lpleas	Amasked	CS_A	1pleas	distractor2	CONbeforeEVA	cond_new_unple_456_masked_CS2	condtest_masked_2	9	17	400	0	300	300	0	0	482	46	0	0	0	0	0	1	blank2r.bmp	0	1	+	0	1	B1r.bmp	492	1	blank2r.bmp	786	1	DHJF	786	1	blank2r.bmp	866	1	ausrottung	866	1	!	1239	1	!	-1	0	0	0	0	0	0	0	0	0	0	0	0	0	0	0	0	0	0	0	0	0	0	0	0	0	0	0
022119	09:00:45	09:12:48	719795	5.0.10.0	4_exp_AWA_CON_AMP_EVA	131	Rpleas_acq	Oppo	Lpleas	Amasked	CS_A	1pleas	distractor2	CONbeforeEVA	cond_new_unple_456_masked_CS1	condtest_masked_2	9	18	400	0	300	300	0	0	795	50	0	1	0	0	0	1	blank2r.bmp	0	1	+	0	2	B2r.bmp	492	1	blank2r.bmp	786	1	CPLW	786	1	blank2r.bmp	866	2	sterben	866	1	!	1239	1	!	-1	0	0	0	0	0	0	0	0	0	0	0	0	0	0	0	0	0	0	0	0	0	0	0	0	0	0	0
022119	09:00:45	09:12:50	722407	5.0.10.0	4_exp_AWA_CON_AMP_EVA	131	Rpleas_acq	Oppo	Lpleas	Amasked	CS_A	1pleas	distractor2	CONbeforeEVA	cond_new_pleas_456_masked_CS2	condtest_masked_2	9	19	400	0	300	300	0	0	836	46	0	1	0	0	0	1	blank2r.bmp	0	1	+	0	5	C1r.bmp	492	1	blank2r.bmp	786	1	DHJF	786	1	blank2r.bmp	866	1	anregung	866	1	!	1239	1	!	-1	0	0	0	0	0	0	0	0	0	0	0	0	0	0	0	0	0	0	0	0	0	0	0	0	0	0	0
022119	09:00:45	09:12:53	724820	5.0.10.0	4_exp_AWA_CON_AMP_EVA	131	Rpleas_acq	Oppo	Lpleas	Amasked	CS_A	1pleas	distractor2	CONbeforeEVA	cond_new_pleas_456_masked_CS2	condtest_masked_2	9	20	400	0	300	300	0	0	633	46	0	1	0	0	0	1	blank2r.bmp	0	1	+	0	7	C3r.bmp	492	1	blank2r.bmp	786	1	DHJF	786	1	blank2r.bmp	866	2	sonnig	866	1	!	1239	1	!	-1	0	0	0	0	0	0	0	0	0	0	0	0	0	0	0	0	0	0	0	0	0	0	0	0	0	0	0
022119	09:00:45	09:12:55	727099	5.0.10.0	4_exp_AWA_CON_AMP_EVA	131	Rpleas_acq	Oppo	Lpleas	Amasked	CS_A	1pleas	distractor2	CONbeforeEVA	cond_US_pleas_123_masked_CS1	condtest_masked_2	9	21	400	1	300	300	0	0	466	46	0	1	0	0	0	1	blank2r.bmp	0	1	+	0	7	C3r.bmp	492	1	blank2r.bmp	786	1	CPLW	786	1	blank2r.bmp	866	2	gütig	866	1	!	1239	1	!	1372	0	0	0	0	0	0	0	0	0	0	0	0	0	0	0	0	0	0	0	0	0	0	0	0	0	0	0
022119	09:00:45	09:12:57	729191	5.0.10.0	4_exp_AWA_CON_AMP_EVA	131	Rpleas_acq	Oppo	Lpleas	Amasked	CS_A	1pleas	distractor2	CONbeforeEVA	cond_US_pleas_123_masked_CS2	condtest_masked_2	9	22	400	0	300	300	0	0	326	46	0	1	0	0	0	1	blank2r.bmp	0	1	+	0	4	B4r.bmp	492	1	blank2r.bmp	786	1	DHJF	786	1	blank2r.bmp	866	3	träumen	866	1	!	-1	1	!	-1	0	0	0	0	0	0	0	0	0	0	0	0	0	0	0	0	0	0	0	0	0	0	0	0	0	0	0
022119	09:00:45	09:13:00	731470	5.0.10.0	4_exp_AWA_CON_AMP_EVA	131	Rpleas_acq	Oppo	Lpleas	Amasked	CS_A	1pleas	distractor2	CONbeforeEVA	cond_new_unple_456_masked_CS1	condtest_masked_2	9	23	400	0	300	300	0	0	504	50	0	1	0	0	0	1	blank2r.bmp	0	1	+	0	5	C1r.bmp	492	1	blank2r.bmp	786	1	CPLW	786	1	blank2r.bmp	866	3	verbissen	866	1	!	1239	1	!	-1	0	0	0	0	0	0	0	0	0	0	0	0	0	0	0	0	0	0	0	0	0	0	0	0	0	0	0
022119	09:00:45	09:13:02	733736	5.0.10.0	4_exp_AWA_CON_AMP_EVA	131	Rpleas_acq	Oppo	Lpleas	Amasked	CS_A	1pleas	distractor2	CONbeforeEVA	cond_new_unple_456_masked_CS2	condtest_masked_2	9	24	400	1	300	300	0	0	459	50	0	1	0	0	0	1	blank2r.bmp	0	1	+	0	2	B2r.bmp	492	1	blank2r.bmp	786	1	DHJF	786	1	blank2r.bmp	866	3	verbissen	866	1	!	1239	1	!	1359	0	0	0	0	0	0	0	0	0	0	0	0	0	0	0	0	0	0	0	0	0	0	0	0	0	0	0
022119	09:00:45	09:13:04	735988	5.0.10.0	4_exp_AWA_CON_AMP_EVA	131	Rpleas_acq	Oppo	Lpleas	Amasked	CS_A	1pleas	distractor2	CONbeforeEVA	cond_new_pleas_456_masked_CS1	condtest_masked_2	9	25	400	0	300	300	0	0	491	46	0	1	0	0	0	1	blank2r.bmp	0	1	+	0	6	C2r.bmp	492	1	blank2r.bmp	786	1	CPLW	786	1	blank2r.bmp	866	3	vergnügt	866	1	!	1239	1	!	-1	0	0	0	0	0	0	0	0	0	0	0	0	0	0	0	0	0	0	0	0	0	0	0	0	0	0	0
022119	09:00:45	09:13:06	738307	5.0.10.0	4_exp_AWA_CON_AMP_EVA	131	Rpleas_acq	Oppo	Lpleas	Amasked	CS_A	1pleas	distractor2	CONbeforeEVA	cond_US_unple_123_masked_CS2	condtest_masked_2	9	26	400	0	300	300	0	0	537	50	0	1	0	0	0	1	blank2r.bmp	0	1	+	0	3	B3r.bmp	492	1	blank2r.bmp	786	1	DHJF	786	1	blank2r.bmp	866	2	gierig	866	1	!	1239	1	!	-1	0	0	0	0	0	0	0	0	0	0	0	0	0	0	0	0	0	0	0	0	0	0	0	0	0	0	0
022119	09:00:45	09:13:09	740573	5.0.10.0	4_exp_AWA_CON_AMP_EVA	131	Rpleas_acq	Oppo	Lpleas	Amasked	CS_A	1pleas	distractor2	CONbeforeEVA	cond_new_unple_456_masked_CS1	condtest_masked_2	9	27	400	0	300	300	0	0	490	50	0	1	0	0	0	1	blank2r.bmp	0	1	+	0	1	B1r.bmp	492	1	blank2r.bmp	786	1	CPLW	786	1	blank2r.bmp	866	1	ausrottung	866	1	!	1239	1	!	-1	0	0	0	0	0	0	0	0	0	0	0	0	0	0	0	0	0	0	0	0	0	0	0	0	0	0	0
022119	09:00:45	09:13:11	742892	5.0.10.0	4_exp_AWA_CON_AMP_EVA	131	Rpleas_acq	Oppo	Lpleas	Amasked	CS_A	1pleas	distractor2	CONbeforeEVA	cond_US_pleas_123_masked_CS2	condtest_masked_2	9	28	400	0	300	300	0	0	535	46	0	1	0	0	0	1	blank2r.bmp	0	1	+	0	8	C4r.bmp	492	1	blank2r.bmp	786	1	DHJF	786	1	blank2r.bmp	866	1	gesittet	866	1	!	1239	1	!	-1	0	0	0	0	0	0	0	0	0	0	0	0	0	0	0	0	0	0	0	0	0	0	0	0	0	0	0
022119	09:00:45	09:13:13	745145	5.0.10.0	4_exp_AWA_CON_AMP_EVA	131	Rpleas_acq	Oppo	Lpleas	Amasked	CS_A	1pleas	distractor2	CONbeforeEVA	cond_US_unple_123_masked_CS1	condtest_masked_2	9	29	400	1	300	300	0	0	428	50	0	1	0	0	0	1	blank2r.bmp	0	1	+	0	3	B3r.bmp	492	1	blank2r.bmp	786	1	CPLW	786	1	blank2r.bmp	866	3	töten	866	1	!	1239	1	!	1332	0	0	0	0	0	0	0	0	0	0	0	0	0	0	0	0	0	0	0	0	0	0	0	0	0	0	0
022119	09:00:45	09:13:15	747290	5.0.10.0	4_exp_AWA_CON_AMP_EVA	131	Rpleas_acq	Oppo	Lpleas	Amasked	CS_A	1pleas	distractor2	CONbeforeEVA	cond_US_pleas_123_masked_CS2	condtest_masked_2	9	30	400	1	300	300	0	0	358	46	0	1	0	0	0	1	blank2r.bmp	0	1	+	0	2	B2r.bmp	492	1	blank2r.bmp	786	1	DHJF	786	1	blank2r.bmp	866	1	gesittet	866	1	!	1239	1	!	1252	0	0	0	0	0	0	0	0	0	0	0	0	0	0	0	0	0	0	0	0	0	0	0	0	0	0	0
022119	09:00:45	09:13:18	749543	5.0.10.0	4_exp_AWA_CON_AMP_EVA	131	Rpleas_acq	Oppo	Lpleas	Amasked	CS_A	1pleas	distractor2	CONbeforeEVA	cond_new_unple_456_masked_CS1	condtest_masked_2	9	31	400	0	300	300	0	0	479	50	0	1	0	0	0	1	blank2r.bmp	0	1	+	0	5	C1r.bmp	492	1	blank2r.bmp	786	1	CPLW	786	1	blank2r.bmp	866	2	sterben	866	1	!	1239	1	!	-1	0	0	0	0	0	0	0	0	0	0	0	0	0	0	0	0	0	0	0	0	0	0	0	0	0	0	0
022119	09:00:45	09:13:20	751808	5.0.10.0	4_exp_AWA_CON_AMP_EVA	131	Rpleas_acq	Oppo	Lpleas	Amasked	CS_A	1pleas	distractor2	CONbeforeEVA	cond_US_pleas_123_masked_CS2	condtest_masked_2	9	32	400	0	300	300	0	0	483	46	0	1	0	0	0	1	blank2r.bmp	0	1	+	0	1	B1r.bmp	492	1	blank2r.bmp	786	1	DHJF	786	1	blank2r.bmp	866	2	gütig	866	1	!	1239	1	!	-1	0	0	0	0	0	0	0	0	0	0	0	0	0	0	0	0	0	0	0	0	0	0	0	0	0	0	0
022119	09:00:45	09:13:22	754048	5.0.10.0	4_exp_AWA_CON_AMP_EVA	131	Rpleas_acq	Oppo	Lpleas	Amasked	CS_A	1pleas	distractor2	CONbeforeEVA	cond_new_pleas_456_masked_CS1	condtest_masked_2	9	33	400	1	300	300	0	0	433	50	0	0	0	0	0	1	blank2r.bmp	0	1	+	0	6	C2r.bmp	492	1	blank2r.bmp	786	1	CPLW	786	1	blank2r.bmp	866	3	vergnügt	866	1	!	1239	1	!	1332	0	0	0	0	0	0	0	0	0	0	0	0	0	0	0	0	0	0	0	0	0	0	0	0	0	0	0
022119	09:00:45	09:13:24	756207	5.0.10.0	4_exp_AWA_CON_AMP_EVA	131	Rpleas_acq	Oppo	Lpleas	Amasked	CS_A	1pleas	distractor2	CONbeforeEVA	cond_new_pleas_456_masked_CS2	condtest_masked_2	9	34	400	1	300	300	0	0	371	46	0	1	0	0	0	1	blank2r.bmp	0	1	+	0	7	C3r.bmp	492	1	blank2r.bmp	786	1	DHJF	786	1	blank2r.bmp	866	2	sonnig	866	1	!	1239	1	!	1266	0	0	0	0	0	0	0	0	0	0	0	0	0	0	0	0	0	0	0	0	0	0	0	0	0	0	0
022119	09:00:45	09:13:27	758566	5.0.10.0	4_exp_AWA_CON_AMP_EVA	131	Rpleas_acq	Oppo	Lpleas	Amasked	CS_A	1pleas	distractor2	CONbeforeEVA	cond_US_unple_123_masked_CS1	condtest_masked_2	9	35	400	0	300	300	0	0	594	50	0	1	0	0	0	1	blank2r.bmp	0	1	+	0	8	C4r.bmp	492	1	blank2r.bmp	786	1	CPLW	786	1	blank2r.bmp	866	1	geizig	866	1	!	1239	1	!	-1	0	0	0	0	0	0	0	0	0	0	0	0	0	0	0	0	0	0	0	0	0	0	0	0	0	0	0
022119	09:00:45	09:13:29	760818	5.0.10.0	4_exp_AWA_CON_AMP_EVA	131	Rpleas_acq	Oppo	Lpleas	Amasked	CS_A	1pleas	distractor2	CONbeforeEVA	cond_US_pleas_123_masked_CS2	condtest_masked_2	9	36	400	1	300	300	0	0	442	46	0	1	0	0	0	1	blank2r.bmp	0	1	+	0	4	B4r.bmp	492	1	blank2r.bmp	786	1	DHJF	786	1	blank2r.bmp	866	3	träumen	866	1	!	1239	1	!	1346	0	0	0	0	0	0	0	0	0	0	0	0	0	0	0	0	0	0	0	0	0	0	0	0	0	0	0
022119	09:00:45	09:13:31	763164	5.0.10.0	4_exp_AWA_CON_AMP_EVA	131	Rpleas_acq	Oppo	Lpleas	Amasked	CS_A	1pleas	distractor2	CONbeforeEVA	cond_US_unple_123_masked_CS2	condtest_masked_2	9	37	400	0	300	300	0	0	583	46	0	0	0	0	0	1	blank2r.bmp	0	1	+	0	1	B1r.bmp	492	1	blank2r.bmp	786	1	DHJF	786	1	blank2r.bmp	866	1	geizig	866	1	!	1239	1	!	-1	0	0	0	0	0	0	0	0	0	0	0	0	0	0	0	0	0	0	0	0	0	0	0	0	0	0	0
022119	09:00:45	09:13:33	765443	5.0.10.0	4_exp_AWA_CON_AMP_EVA	131	Rpleas_acq	Oppo	Lpleas	Amasked	CS_A	1pleas	distractor2	CONbeforeEVA	cond_new_pleas_456_masked_CS2	condtest_masked_2	9	38	400	0	300	300	0	0	501	50	0	0	0	0	0	1	blank2r.bmp	0	1	+	0	4	B4r.bmp	492	1	blank2r.bmp	786	1	DHJF	786	1	blank2r.bmp	866	1	anregung	866	1	!	1239	1	!	-1	0	0	0	0	0	0	0	0	0	0	0	0	0	0	0	0	0	0	0	0	0	0	0	0	0	0	0
022119	09:00:45	09:13:36	767842	5.0.10.0	4_exp_AWA_CON_AMP_EVA	131	Rpleas_acq	Oppo	Lpleas	Amasked	CS_A	1pleas	distractor2	CONbeforeEVA	cond_US_unple_123_masked_CS1	condtest_masked_2	9	39	400	0	300	300	0	0	612	50	0	1	0	0	0	1	blank2r.bmp	0	1	+	0	6	C2r.bmp	492	1	blank2r.bmp	786	1	CPLW	786	1	blank2r.bmp	866	3	töten	866	1	!	1239	1	!	-1	0	0	0	0	0	0	0	0	0	0	0	0	0	0	0	0	0	0	0	0	0	0	0	0	0	0	0
022119	09:00:45	09:13:38	770054	5.0.10.0	4_exp_AWA_CON_AMP_EVA	131	Rpleas_acq	Oppo	Lpleas	Amasked	CS_A	1pleas	distractor2	CONbeforeEVA	cond_US_unple_123_masked_CS1	condtest_masked_2	9	40	400	1	300	300	0	0	405	46	0	0	0	0	0	1	blank2r.bmp	0	1	+	0	2	B2r.bmp	492	1	blank2r.bmp	786	1	CPLW	786	1	blank2r.bmp	866	2	gierig	866	1	!	1239	1	!	1306	0	0	0	0	0	0	0	0	0	0	0	0	0	0	0	0	0	0	0	0	0	0	0	0	0	0	0
022119	09:00:45	09:13:54	785488	5.0.10.0	4_exp_AWA_CON_AMP_EVA	131	Rpleas_acq	Oppo	Lpleas	Amasked	CS_A	1pleas	distractor2	CONbeforeEVA	cond_US_pleas_456_masked_CS2	condtest_masked_3	10	1	400	1	300	300	0	0	387	46	0	1	0	0	0	1	blank2r.bmp	0	1	+	0	5	C1r.bmp	492	1	blank2r.bmp	786	1	DHJF	786	1	blank2r.bmp	866	3	genießen	866	1	!	1239	1	!	1292	0	0	0	0	0	0	0	0	0	0	0	0	0	0	0	0	0	0	0	0	0	0	0	0	0	0	0
022119	09:00:45	09:13:56	787674	5.0.10.0	4_exp_AWA_CON_AMP_EVA	131	Rpleas_acq	Oppo	Lpleas	Amasked	CS_A	1pleas	distractor2	CONbeforeEVA	cond_new_pleas_123_masked_CS1	condtest_masked_3	10	2	400	1	300	300	0	0	388	46	0	1	0	0	0	1	blank2r.bmp	0	1	+	0	8	C4r.bmp	492	1	blank2r.bmp	786	1	CPLW	786	1	blank2r.bmp	866	2	kuss	866	1	!	1239	1	!	1292	0	0	0	0	0	0	0	0	0	0	0	0	0	0	0	0	0	0	0	0	0	0	0	0	0	0	0
022119	09:00:45	09:13:58	789966	5.0.10.0	4_exp_AWA_CON_AMP_EVA	131	Rpleas_acq	Oppo	Lpleas	Amasked	CS_A	1pleas	distractor2	CONbeforeEVA	cond_US_unple_456_masked_CS2	condtest_masked_3	10	3	400	0	300	300	0	0	521	50	0	1	0	0	0	1	blank2r.bmp	0	1	+	0	7	C3r.bmp	492	1	blank2r.bmp	786	1	DHJF	786	1	blank2r.bmp	866	1	engstirnig	866	1	!	1239	1	!	-1	0	0	0	0	0	0	0	0	0	0	0	0	0	0	0	0	0	0	0	0	0	0	0	0	0	0	0
022119	09:00:45	09:14:00	792378	5.0.10.0	4_exp_AWA_CON_AMP_EVA	131	Rpleas_acq	Oppo	Lpleas	Amasked	CS_A	1pleas	distractor2	CONbeforeEVA	cond_US_unple_456_masked_CS2	condtest_masked_3	10	4	400	0	300	300	0	0	635	50	0	1	0	0	0	1	blank2r.bmp	0	1	+	0	3	B3r.bmp	492	1	blank2r.bmp	786	1	DHJF	786	1	blank2r.bmp	866	2	bange	866	1	!	1239	1	!	-1	0	0	0	0	0	0	0	0	0	0	0	0	0	0	0	0	0	0	0	0	0	0	0	0	0	0	0
022119	09:00:45	09:14:03	794657	5.0.10.0	4_exp_AWA_CON_AMP_EVA	131	Rpleas_acq	Oppo	Lpleas	Amasked	CS_A	1pleas	distractor2	CONbeforeEVA	cond_US_pleas_456_masked_CS1	condtest_masked_3	10	5	400	0	300	300	0	0	501	46	0	1	0	0	0	1	blank2r.bmp	0	1	+	0	7	C3r.bmp	492	1	blank2r.bmp	786	1	CPLW	786	1	blank2r.bmp	866	2	besonnen	866	1	!	1239	1	!	-1	0	0	0	0	0	0	0	0	0	0	0	0	0	0	0	0	0	0	0	0	0	0	0	0	0	0	0
022119	09:00:45	09:14:05	796897	5.0.10.0	4_exp_AWA_CON_AMP_EVA	131	Rpleas_acq	Oppo	Lpleas	Amasked	CS_A	1pleas	distractor2	CONbeforeEVA	cond_US_unple_456_masked_CS2	condtest_masked_3	10	6	400	1	300	300	0	0	426	50	0	1	0	0	0	1	blank2r.bmp	0	1	+	0	6	C2r.bmp	492	1	blank2r.bmp	786	1	DHJF	786	1	blank2r.bmp	866	3	gemein	866	1	!	1239	1	!	1332	0	0	0	0	0	0	0	0	0	0	0	0	0	0	0	0	0	0	0	0	0	0	0	0	0	0	0
022119	09:00:45	09:14:07	799176	5.0.10.0	4_exp_AWA_CON_AMP_EVA	131	Rpleas_acq	Oppo	Lpleas	Amasked	CS_A	1pleas	distractor2	CONbeforeEVA	cond_new_unple_123_masked_CS2	condtest_masked_3	10	7	400	0	300	300	0	0	495	50	0	1	0	0	0	1	blank2r.bmp	0	1	+	0	5	C1r.bmp	492	1	blank2r.bmp	786	1	DHJF	786	1	blank2r.bmp	866	1	versagen	866	1	!	1239	1	!	-1	0	0	0	0	0	0	0	0	0	0	0	0	0	0	0	0	0	0	0	0	0	0	0	0	0	0	0
022119	09:00:45	09:14:10	801481	5.0.10.0	4_exp_AWA_CON_AMP_EVA	131	Rpleas_acq	Oppo	Lpleas	Amasked	CS_A	1pleas	distractor2	CONbeforeEVA	cond_new_unple_123_masked_CS1	condtest_masked_3	10	8	400	0	300	300	0	0	511	50	0	1	0	0	0	1	blank2r.bmp	0	1	+	0	1	B1r.bmp	492	1	blank2r.bmp	786	1	CPLW	786	1	blank2r.bmp	866	2	krise	866	1	!	1239	1	!	-1	0	0	0	0	0	0	0	0	0	0	0	0	0	0	0	0	0	0	0	0	0	0	0	0	0	0	0
022119	09:00:45	09:14:12	803747	5.0.10.0	4_exp_AWA_CON_AMP_EVA	131	Rpleas_acq	Oppo	Lpleas	Amasked	CS_A	1pleas	distractor2	CONbeforeEVA	cond_US_unple_456_masked_CS1	condtest_masked_3	10	9	400	0	300	300	0	0	487	50	0	1	0	0	0	1	blank2r.bmp	0	1	+	0	3	B3r.bmp	492	1	blank2r.bmp	786	1	CPLW	786	1	blank2r.bmp	866	2	bange	866	1	!	1239	1	!	-1	0	0	0	0	0	0	0	0	0	0	0	0	0	0	0	0	0	0	0	0	0	0	0	0	0	0	0
022119	09:00:45	09:14:14	805959	5.0.10.0	4_exp_AWA_CON_AMP_EVA	131	Rpleas_acq	Oppo	Lpleas	Amasked	CS_A	1pleas	distractor2	CONbeforeEVA	cond_US_pleas_456_masked_CS2	condtest_masked_3	10	10	400	1	300	300	0	0	398	46	0	1	0	0	0	1	blank2r.bmp	0	1	+	0	2	B2r.bmp	492	1	blank2r.bmp	786	1	DHJF	786	1	blank2r.bmp	866	1	engagiert	866	1	!	1239	1	!	1292	0	0	0	0	0	0	0	0	0	0	0	0	0	0	0	0	0	0	0	0	0	0	0	0	0	0	0
022119	09:00:45	09:14:16	808225	5.0.10.0	4_exp_AWA_CON_AMP_EVA	131	Rpleas_acq	Oppo	Lpleas	Amasked	CS_A	1pleas	distractor2	CONbeforeEVA	cond_US_unple_456_masked_CS2	condtest_masked_3	10	11	400	0	300	300	0	0	486	50	0	1	0	0	0	1	blank2r.bmp	0	1	+	0	8	C4r.bmp	492	1	blank2r.bmp	786	1	DHJF	786	1	blank2r.bmp	866	3	gemein	866	1	!	1239	1	!	-1	0	0	0	0	0	0	0	0	0	0	0	0	0	0	0	0	0	0	0	0	0	0	0	0	0	0	0
022119	09:00:45	09:14:19	810478	5.0.10.0	4_exp_AWA_CON_AMP_EVA	131	Rpleas_acq	Oppo	Lpleas	Amasked	CS_A	1pleas	distractor2	CONbeforeEVA	cond_US_pleas_456_masked_CS1	condtest_masked_3	10	12	400	1	300	300	0	0	425	46	0	1	0	0	0	1	blank2r.bmp	0	1	+	0	4	B4r.bmp	492	1	blank2r.bmp	786	1	CPLW	786	1	blank2r.bmp	866	3	genießen	866	1	!	1239	1	!	1332	0	0	0	0	0	0	0	0	0	0	0	0	0	0	0	0	0	0	0	0	0	0	0	0	0	0	0
022119	09:00:45	09:14:21	812637	5.0.10.0	4_exp_AWA_CON_AMP_EVA	131	Rpleas_acq	Oppo	Lpleas	Amasked	CS_A	1pleas	distractor2	CONbeforeEVA	cond_new_pleas_123_masked_CS1	condtest_masked_3	10	13	400	1	300	300	0	0	370	50	0	0	0	0	0	1	blank2r.bmp	0	1	+	0	6	C2r.bmp	492	1	blank2r.bmp	786	1	CPLW	786	1	blank2r.bmp	866	3	kreativ	866	1	!	1239	1	!	1266	0	0	0	0	0	0	0	0	0	0	0	0	0	0	0	0	0	0	0	0	0	0	0	0	0	0	0
022119	09:00:45	09:14:23	815036	5.0.10.0	4_exp_AWA_CON_AMP_EVA	131	Rpleas_acq	Oppo	Lpleas	Amasked	CS_A	1pleas	distractor2	CONbeforeEVA	cond_new_unple_123_masked_CS1	condtest_masked_3	10	14	400	0	300	300	0	0	620	50	0	1	0	0	0	1	blank2r.bmp	0	1	+	0	3	B3r.bmp	492	1	blank2r.bmp	786	1	CPLW	786	1	blank2r.bmp	866	3	krank	866	1	!	1239	1	!	-1	0	0	0	0	0	0	0	0	0	0	0	0	0	0	0	0	0	0	0	0	0	0	0	0	0	0	0
022119	09:00:45	09:14:25	817302	5.0.10.0	4_exp_AWA_CON_AMP_EVA	131	Rpleas_acq	Oppo	Lpleas	Amasked	CS_A	1pleas	distractor2	CONbeforeEVA	cond_new_unple_123_masked_CS1	condtest_masked_3	10	15	400	1	300	300	0	0	456	50	0	1	0	0	0	1	blank2r.bmp	0	1	+	0	4	B4r.bmp	492	1	blank2r.bmp	786	1	CPLW	786	1	blank2r.bmp	866	1	versagen	866	1	!	1239	1	!	1359	0	0	0	0	0	0	0	0	0	0	0	0	0	0	0	0	0	0	0	0	0	0	0	0	0	0	0
022119	09:00:45	09:14:28	819554	5.0.10.0	4_exp_AWA_CON_AMP_EVA	131	Rpleas_acq	Oppo	Lpleas	Amasked	CS_A	1pleas	distractor2	CONbeforeEVA	cond_US_pleas_456_masked_CS1	condtest_masked_3	10	16	400	1	300	300	0	0	449	46	0	1	0	0	0	1	blank2r.bmp	0	1	+	0	2	B2r.bmp	492	1	blank2r.bmp	786	1	CPLW	786	1	blank2r.bmp	866	1	engagiert	866	1	!	1239	1	!	1346	0	0	0	0	0	0	0	0	0	0	0	0	0	0	0	0	0	0	0	0	0	0	0	0	0	0	0
022119	09:00:45	09:14:30	821820	5.0.10.0	4_exp_AWA_CON_AMP_EVA	131	Rpleas_acq	Oppo	Lpleas	Amasked	CS_A	1pleas	distractor2	CONbeforeEVA	cond_new_pleas_123_masked_CS2	condtest_masked_3	10	17	400	0	300	300	0	0	502	46	0	1	0	0	0	1	blank2r.bmp	0	1	+	0	8	C4r.bmp	492	1	blank2r.bmp	786	1	DHJF	786	1	blank2r.bmp	866	1	vertrauen	866	1	!	1239	1	!	-1	0	0	0	0	0	0	0	0	0	0	0	0	0	0	0	0	0	0	0	0	0	0	0	0	0	0	0
022119	09:00:45	09:14:32	823992	5.0.10.0	4_exp_AWA_CON_AMP_EVA	131	Rpleas_acq	Oppo	Lpleas	Amasked	CS_A	1pleas	distractor2	CONbeforeEVA	cond_new_pleas_123_masked_CS2	condtest_masked_3	10	18	400	1	300	300	0	0	364	46	0	1	0	0	0	1	blank2r.bmp	0	1	+	0	7	C3r.bmp	492	1	blank2r.bmp	786	1	DHJF	786	1	blank2r.bmp	866	2	kuss	866	1	!	1239	1	!	1266	0	0	0	0	0	0	0	0	0	0	0	0	0	0	0	0	0	0	0	0	0	0	0	0	0	0	0
022119	09:00:45	09:14:47	839079	5.0.10.0	4_exp_AWA_CON_AMP_EVA	131	Rpleas_acq	Oppo	Lpleas	Amasked	CS_A	1pleas	distractor2	CONbeforeEVA	cond_new_pleas_123_masked_CS2	condtest_masked_3	10	19	400	0	300	300	0	0	13301	46	0	1	0	0	0	1	blank2r.bmp	0	1	+	0	1	B1r.bmp	492	1	blank2r.bmp	786	1	DHJF	786	1	blank2r.bmp	866	1	vertrauen	866	1	!	1239	1	!	-1	0	0	0	0	0	0	0	0	0	0	0	0	0	0	0	0	0	0	0	0	0	0	0	0	0	0	0
022119	09:00:45	09:14:50	842318	5.0.10.0	4_exp_AWA_CON_AMP_EVA	131	Rpleas_acq	Oppo	Lpleas	Amasked	CS_A	1pleas	distractor2	CONbeforeEVA	cond_new_pleas_123_masked_CS2	condtest_masked_3	10	20	400	0	300	300	0	0	1461	46	0	1	0	0	0	1	blank2r.bmp	0	1	+	0	5	C1r.bmp	492	1	blank2r.bmp	786	1	DHJF	786	1	blank2r.bmp	866	3	kreativ	866	1	!	1239	1	!	-1	0	0	0	0	0	0	0	0	0	0	0	0	0	0	0	0	0	0	0	0	0	0	0	0	0	0	0
022119	09:00:45	09:14:53	844517	5.0.10.0	4_exp_AWA_CON_AMP_EVA	131	Rpleas_acq	Oppo	Lpleas	Amasked	CS_A	1pleas	distractor2	CONbeforeEVA	cond_US_pleas_456_masked_CS2	condtest_masked_3	10	21	400	1	300	300	0	0	395	46	0	1	0	0	0	1	blank2r.bmp	0	1	+	0	7	C3r.bmp	492	1	blank2r.bmp	786	1	DHJF	786	1	blank2r.bmp	866	2	besonnen	866	1	!	1239	1	!	1292	0	0	0	0	0	0	0	0	0	0	0	0	0	0	0	0	0	0	0	0	0	0	0	0	0	0	0
022119	09:00:45	09:14:55	846823	5.0.10.0	4_exp_AWA_CON_AMP_EVA	131	Rpleas_acq	Oppo	Lpleas	Amasked	CS_A	1pleas	distractor2	CONbeforeEVA	cond_US_unple_456_masked_CS1	condtest_masked_3	10	22	400	0	300	300	0	0	539	50	0	1	0	0	0	1	blank2r.bmp	0	1	+	0	3	B3r.bmp	492	1	blank2r.bmp	786	1	CPLW	786	1	blank2r.bmp	866	1	engstirnig	866	1	!	1239	1	!	-1	0	0	0	0	0	0	0	0	0	0	0	0	0	0	0	0	0	0	0	0	0	0	0	0	0	0	0
022119	09:00:45	09:14:57	849035	5.0.10.0	4_exp_AWA_CON_AMP_EVA	131	Rpleas_acq	Oppo	Lpleas	Amasked	CS_A	1pleas	distractor2	CONbeforeEVA	cond_US_pleas_456_masked_CS1	condtest_masked_3	10	23	400	1	300	300	0	0	400	46	0	1	0	0	0	1	blank2r.bmp	0	1	+	0	5	C1r.bmp	492	1	blank2r.bmp	786	1	CPLW	786	1	blank2r.bmp	866	2	besonnen	866	1	!	1239	1	!	1306	0	0	0	0	0	0	0	0	0	0	0	0	0	0	0	0	0	0	0	0	0	0	0	0	0	0	0
022119	09:00:45	09:14:59	851181	5.0.10.0	4_exp_AWA_CON_AMP_EVA	131	Rpleas_acq	Oppo	Lpleas	Amasked	CS_A	1pleas	distractor2	CONbeforeEVA	cond_US_pleas_456_masked_CS2	condtest_masked_3	10	24	400	1	300	300	0	0	349	46	0	1	0	0	0	1	blank2r.bmp	0	1	+	0	6	C2r.bmp	492	1	blank2r.bmp	786	1	DHJF	786	1	blank2r.bmp	866	3	genießen	866	1	!	1239	1	!	1252	0	0	0	0	0	0	0	0	0	0	0	0	0	0	0	0	0	0	0	0	0	0	0	0	0	0	0
022119	09:00:45	09:15:01	853367	5.0.10.0	4_exp_AWA_CON_AMP_EVA	131	Rpleas_acq	Oppo	Lpleas	Amasked	CS_A	1pleas	distractor2	CONbeforeEVA	cond_US_unple_456_masked_CS2	condtest_masked_3	10	25	400	1	300	300	0	0	386	46	0	0	0	0	0	1	blank2r.bmp	0	1	+	0	8	C4r.bmp	492	1	blank2r.bmp	786	1	DHJF	786	1	blank2r.bmp	866	1	engstirnig	866	1	!	1239	1	!	1292	0	0	0	0	0	0	0	0	0	0	0	0	0	0	0	0	0	0	0	0	0	0	0	0	0	0	0
022119	09:00:45	09:15:04	855619	5.0.10.0	4_exp_AWA_CON_AMP_EVA	131	Rpleas_acq	Oppo	Lpleas	Amasked	CS_A	1pleas	distractor2	CONbeforeEVA	cond_new_pleas_123_masked_CS2	condtest_masked_3	10	26	400	0	300	300	0	0	491	46	0	1	0	0	0	1	blank2r.bmp	0	1	+	0	4	B4r.bmp	492	1	blank2r.bmp	786	1	DHJF	786	1	blank2r.bmp	866	2	kuss	866	1	!	1239	1	!	-1	0	0	0	0	0	0	0	0	0	0	0	0	0	0	0	0	0	0	0	0	0	0	0	0	0	0	0
022119	09:00:45	09:15:06	857885	5.0.10.0	4_exp_AWA_CON_AMP_EVA	131	Rpleas_acq	Oppo	Lpleas	Amasked	CS_A	1pleas	distractor2	CONbeforeEVA	cond_new_unple_123_masked_CS2	condtest_masked_3	10	27	400	0	300	300	0	0	479	50	0	1	0	0	0	1	blank2r.bmp	0	1	+	0	1	B1r.bmp	492	1	blank2r.bmp	786	1	DHJF	786	1	blank2r.bmp	866	2	krise	866	1	!	1239	1	!	-1	0	0	0	0	0	0	0	0	0	0	0	0	0	0	0	0	0	0	0	0	0	0	0	0	0	0	0
022119	09:00:45	09:15:08	860150	5.0.10.0	4_exp_AWA_CON_AMP_EVA	131	Rpleas_acq	Oppo	Lpleas	Amasked	CS_A	1pleas	distractor2	CONbeforeEVA	cond_new_pleas_123_masked_CS2	condtest_masked_3	10	28	400	0	300	300	0	0	480	46	0	1	0	0	0	1	blank2r.bmp	0	1	+	0	2	B2r.bmp	492	1	blank2r.bmp	786	1	DHJF	786	1	blank2r.bmp	866	1	vertrauen	866	1	!	1239	1	!	-1	0	0	0	0	0	0	0	0	0	0	0	0	0	0	0	0	0	0	0	0	0	0	0	0	0	0	0
022119	09:00:45	09:15:10	862376	5.0.10.0	4_exp_AWA_CON_AMP_EVA	131	Rpleas_acq	Oppo	Lpleas	Amasked	CS_A	1pleas	distractor2	CONbeforeEVA	cond_US_pleas_456_masked_CS2	condtest_masked_3	10	29	400	1	300	300	0	0	418	46	0	1	0	0	0	1	blank2r.bmp	0	1	+	0	1	B1r.bmp	492	1	blank2r.bmp	786	1	DHJF	786	1	blank2r.bmp	866	1	engagiert	866	1	!	1239	1	!	1319	0	0	0	0	0	0	0	0	0	0	0	0	0	0	0	0	0	0	0	0	0	0	0	0	0	0	0
022119	09:00:45	09:15:13	864615	5.0.10.0	4_exp_AWA_CON_AMP_EVA	131	Rpleas_acq	Oppo	Lpleas	Amasked	CS_A	1pleas	distractor2	CONbeforeEVA	cond_new_unple_123_masked_CS1	condtest_masked_3	10	30	400	1	300	300	0	0	440	50	0	1	0	0	0	1	blank2r.bmp	0	1	+	0	5	C1r.bmp	492	1	blank2r.bmp	786	1	CPLW	786	1	blank2r.bmp	866	3	krank	866	1	!	1239	1	!	1346	0	0	0	0	0	0	0	0	0	0	0	0	0	0	0	0	0	0	0	0	0	0	0	0	0	0	0
022119	09:00:45	09:15:15	866788	5.0.10.0	4_exp_AWA_CON_AMP_EVA	131	Rpleas_acq	Oppo	Lpleas	Amasked	CS_A	1pleas	distractor2	CONbeforeEVA	cond_new_pleas_123_masked_CS1	condtest_masked_3	10	31	400	1	300	300	0	0	364	50	0	0	0	0	0	1	blank2r.bmp	0	1	+	0	8	C4r.bmp	492	1	blank2r.bmp	786	1	CPLW	786	1	blank2r.bmp	866	3	kreativ	866	1	!	1239	1	!	1266	0	0	0	0	0	0	0	0	0	0	0	0	0	0	0	0	0	0	0	0	0	0	0	0	0	0	0
