date	time	script.currenttime	script.elapsedtime	build	script.currentexpt	subject	expressions.LRpleas_acq	expressions.SameOppo	expressions.condition_Lpleas	expressions.ABmasked	expressions.conditionCS_A	expressions.condition_1pleas	expressions.condition_distractor_AMP	expressions.AWACON_AMPEVA_first	trialcode	blockcode	blocknum	trialnum	windowcenter	inwindow	pretrialpause	posttrialpause	trialduration	trialtimeout	latency	response	expressions.correctedscore	correct	values.vis_performance	values.vis_rating_sum	values.vis_rating_mean	stimulusnumber1	stimulusitem1	stimulusonset1	stimulusnumber2	stimulusitem2	stimulusonset2	stimulusnumber3	stimulusitem3	stimulusonset3	stimulusnumber4	stimulusitem4	stimulusonset4	stimulusnumber5	stimulusitem5	stimulusonset5	stimulusnumber6	stimulusitem6	stimulusonset6	stimulusnumber7	stimulusitem7	stimulusonset7	stimulusnumber8	stimulusitem8	stimulusonset8	stimulusnumber9	stimulusitem9	stimulusonset9	stimulusnumber10	stimulusitem10	stimulusonset10	stimulusnumber11	stimulusitem11	stimulusonset11	stimulusnumber12	stimulusitem12	stimulusonset12	stimulusnumber13	stimulusitem13	stimulusonset13	stimulusnumber14	stimulusitem14	stimulusonset14	stimulusnumber15	stimulusitem15	stimulusonset15	stimulusnumber16	stimulusitem16	stimulusonset16	stimulusnumber17	stimulusitem17	stimulusonset17	stimulusnumber18	stimulusitem18	stimulusonset18
011019	11:32:34	11:35:14	159386	5.0.10.0	4_exp_AMP_EVA_AWA_CON	56	Rpleas_acq	Oppo	Rpleas	Amasked	CS_A	1pleas	distractor2	EVAbeforeCON	acq_new_pleas_masked	acq1_masked	1	1	0	0	300	300	0	0	3630	50	0	1	0	0	0	1	blank2r.bmp	0	1	+	0	2	B2r.bmp	492	1	blank2r.bmp	786	6	C2r.bmp	786	1	blank2r.bmp	866	5	engagiert	866	0	0	0	0	0	0	0	0	0	0	0	0	0	0	0	0	0	0	0	0	0	0	0	0	0	0	0	0	0	0	0	0	0
011019	11:32:34	11:35:16	161545	5.0.10.0	4_exp_AMP_EVA_AWA_CON	56	Rpleas_acq	Oppo	Rpleas	Amasked	CS_A	1pleas	distractor2	EVAbeforeCON	acq_US_pleas_masked	acq1_masked	1	2	0	0	300	300	0	0	666	50	0	1	0	0	0	1	blank2r.bmp	0	1	+	0	7	C3r.bmp	492	1	blank2r.bmp	786	1	CPLW	786	1	blank2r.bmp	866	5	besonnen	866	0	0	0	0	0	0	0	0	0	0	0	0	0	0	0	0	0	0	0	0	0	0	0	0	0	0	0	0	0	0	0	0	0
011019	11:32:34	11:35:18	163611	5.0.10.0	4_exp_AMP_EVA_AWA_CON	56	Rpleas_acq	Oppo	Rpleas	Amasked	CS_A	1pleas	distractor2	EVAbeforeCON	acq_new_unple_masked	acq1_masked	1	3	0	0	300	300	0	0	574	46	0	1	0	0	0	1	blank2r.bmp	0	1	+	0	4	B4r.bmp	492	1	blank2r.bmp	786	8	C4r.bmp	786	1	blank2r.bmp	866	1	sterben	866	0	0	0	0	0	0	0	0	0	0	0	0	0	0	0	0	0	0	0	0	0	0	0	0	0	0	0	0	0	0	0	0	0
011019	11:32:34	11:35:20	165543	5.0.10.0	4_exp_AMP_EVA_AWA_CON	56	Rpleas_acq	Oppo	Rpleas	Amasked	CS_A	1pleas	distractor2	EVAbeforeCON	acq_US_unple_masked	acq1_masked	1	4	0	0	300	300	0	0	455	46	0	1	0	0	0	1	blank2r.bmp	0	1	+	0	6	C2r.bmp	492	1	blank2r.bmp	786	1	DHJF	786	1	blank2r.bmp	866	6	töten	866	0	0	0	0	0	0	0	0	0	0	0	0	0	0	0	0	0	0	0	0	0	0	0	0	0	0	0	0	0	0	0	0	0
011019	11:32:34	11:35:22	167675	5.0.10.0	4_exp_AMP_EVA_AWA_CON	56	Rpleas_acq	Oppo	Rpleas	Amasked	CS_A	1pleas	distractor2	EVAbeforeCON	acq_US_unple_masked	acq1_masked	1	5	0	0	300	300	0	0	655	46	0	1	0	0	0	1	blank2r.bmp	0	1	+	0	1	B1r.bmp	492	1	blank2r.bmp	786	1	DHJF	786	1	blank2r.bmp	866	5	bange	866	0	0	0	0	0	0	0	0	0	0	0	0	0	0	0	0	0	0	0	0	0	0	0	0	0	0	0	0	0	0	0	0	0
011019	11:32:34	11:35:25	169795	5.0.10.0	4_exp_AMP_EVA_AWA_CON	56	Rpleas_acq	Oppo	Rpleas	Amasked	CS_A	1pleas	distractor2	EVAbeforeCON	acq_US_unple_masked	acq1_masked	1	6	0	0	300	300	0	0	624	46	0	1	0	0	0	1	blank2r.bmp	0	1	+	0	8	C4r.bmp	492	1	blank2r.bmp	786	1	DHJF	786	1	blank2r.bmp	866	3	ausrottung	866	0	0	0	0	0	0	0	0	0	0	0	0	0	0	0	0	0	0	0	0	0	0	0	0	0	0	0	0	0	0	0	0	0
011019	11:32:34	11:35:27	171994	5.0.10.0	4_exp_AMP_EVA_AWA_CON	56	Rpleas_acq	Oppo	Rpleas	Amasked	CS_A	1pleas	distractor2	EVAbeforeCON	acq_US_pleas_masked	acq1_masked	1	7	0	0	300	300	0	0	719	50	0	1	0	0	0	1	blank2r.bmp	0	1	+	0	3	B3r.bmp	492	1	blank2r.bmp	786	1	CPLW	786	1	blank2r.bmp	866	2	vergnügt	866	0	0	0	0	0	0	0	0	0	0	0	0	0	0	0	0	0	0	0	0	0	0	0	0	0	0	0	0	0	0	0	0	0
011019	11:32:34	11:35:29	174073	5.0.10.0	4_exp_AMP_EVA_AWA_CON	56	Rpleas_acq	Oppo	Rpleas	Amasked	CS_A	1pleas	distractor2	EVAbeforeCON	acq_US_pleas_masked	acq1_masked	1	8	0	0	300	300	0	0	600	50	0	1	0	0	0	1	blank2r.bmp	0	1	+	0	5	C1r.bmp	492	1	blank2r.bmp	786	1	CPLW	786	1	blank2r.bmp	866	3	anregung	866	0	0	0	0	0	0	0	0	0	0	0	0	0	0	0	0	0	0	0	0	0	0	0	0	0	0	0	0	0	0	0	0	0
011019	11:32:34	11:35:31	176099	5.0.10.0	4_exp_AMP_EVA_AWA_CON	56	Rpleas_acq	Oppo	Rpleas	Amasked	CS_A	1pleas	distractor2	EVAbeforeCON	acq_new_unple_masked	acq1_masked	1	9	0	0	300	300	0	0	558	46	0	1	0	0	0	1	blank2r.bmp	0	1	+	0	5	C1r.bmp	492	1	blank2r.bmp	786	1	B1r.bmp	786	1	blank2r.bmp	866	4	krise	866	0	0	0	0	0	0	0	0	0	0	0	0	0	0	0	0	0	0	0	0	0	0	0	0	0	0	0	0	0	0	0	0	0
011019	11:32:34	11:35:33	178351	5.0.10.0	4_exp_AMP_EVA_AWA_CON	56	Rpleas_acq	Oppo	Rpleas	Amasked	CS_A	1pleas	distractor2	EVAbeforeCON	acq_new_unple_masked	acq1_masked	1	10	0	0	300	300	0	0	769	46	0	1	0	0	0	1	blank2r.bmp	0	1	+	0	6	C2r.bmp	492	1	blank2r.bmp	786	3	B3r.bmp	786	1	blank2r.bmp	866	3	gemein	866	0	0	0	0	0	0	0	0	0	0	0	0	0	0	0	0	0	0	0	0	0	0	0	0	0	0	0	0	0	0	0	0	0
011019	11:32:34	11:35:35	180550	5.0.10.0	4_exp_AMP_EVA_AWA_CON	56	Rpleas_acq	Oppo	Rpleas	Amasked	CS_A	1pleas	distractor2	EVAbeforeCON	acq_new_pleas_masked	acq1_masked	1	11	0	0	300	300	0	0	711	50	0	1	0	0	0	1	blank2r.bmp	0	1	+	0	4	B4r.bmp	492	1	blank2r.bmp	786	2	B2r.bmp	786	1	blank2r.bmp	866	3	genießen	866	0	0	0	0	0	0	0	0	0	0	0	0	0	0	0	0	0	0	0	0	0	0	0	0	0	0	0	0	0	0	0	0	0
011019	11:32:34	11:35:37	182536	5.0.10.0	4_exp_AMP_EVA_AWA_CON	56	Rpleas_acq	Oppo	Rpleas	Amasked	CS_A	1pleas	distractor2	EVAbeforeCON	acq_new_pleas_masked	acq1_masked	1	12	0	0	300	300	0	0	507	50	0	1	0	0	0	1	blank2r.bmp	0	1	+	0	7	C3r.bmp	492	1	blank2r.bmp	786	4	B4r.bmp	786	1	blank2r.bmp	866	1	sonnig	866	0	0	0	0	0	0	0	0	0	0	0	0	0	0	0	0	0	0	0	0	0	0	0	0	0	0	0	0	0	0	0	0	0
011019	11:32:34	11:35:40	184815	5.0.10.0	4_exp_AMP_EVA_AWA_CON	56	Rpleas_acq	Oppo	Rpleas	Amasked	CS_A	1pleas	distractor2	EVAbeforeCON	acq_new_pleas_masked	acq1_masked	1	13	0	0	300	300	0	0	593	46	0	0	0	0	0	1	blank2r.bmp	0	1	+	0	2	B2r.bmp	492	1	blank2r.bmp	786	5	C1r.bmp	786	1	blank2r.bmp	866	2	gesittet	866	1	FEHLER	1492	0	0	0	0	0	0	0	0	0	0	0	0	0	0	0	0	0	0	0	0	0	0	0	0	0	0	0	0	0	0
011019	11:32:34	11:35:41	186641	5.0.10.0	4_exp_AMP_EVA_AWA_CON	56	Rpleas_acq	Oppo	Rpleas	Amasked	CS_A	1pleas	distractor2	EVAbeforeCON	acq_US_unple_masked	acq1_masked	1	14	0	0	300	300	0	0	556	46	0	1	0	0	0	1	blank2r.bmp	0	1	+	0	1	B1r.bmp	492	1	blank2r.bmp	786	1	DHJF	786	1	blank2r.bmp	866	1	krank	866	0	0	0	0	0	0	0	0	0	0	0	0	0	0	0	0	0	0	0	0	0	0	0	0	0	0	0	0	0	0	0	0	0
011019	11:32:34	11:35:44	188733	5.0.10.0	4_exp_AMP_EVA_AWA_CON	56	Rpleas_acq	Oppo	Rpleas	Amasked	CS_A	1pleas	distractor2	EVAbeforeCON	acq_US_pleas_masked	acq1_masked	1	15	0	0	300	300	0	0	604	50	0	1	0	0	0	1	blank2r.bmp	0	1	+	0	8	C4r.bmp	492	1	blank2r.bmp	786	1	CPLW	786	1	blank2r.bmp	866	6	träumen	866	0	0	0	0	0	0	0	0	0	0	0	0	0	0	0	0	0	0	0	0	0	0	0	0	0	0	0	0	0	0	0	0	0
011019	11:32:34	11:35:46	190852	5.0.10.0	4_exp_AMP_EVA_AWA_CON	56	Rpleas_acq	Oppo	Rpleas	Amasked	CS_A	1pleas	distractor2	EVAbeforeCON	acq_US_pleas_masked	acq1_masked	1	16	0	0	300	300	0	0	630	50	0	1	0	0	0	1	blank2r.bmp	0	1	+	0	3	B3r.bmp	492	1	blank2r.bmp	786	1	CPLW	786	1	blank2r.bmp	866	1	kreativ	866	0	0	0	0	0	0	0	0	0	0	0	0	0	0	0	0	0	0	0	0	0	0	0	0	0	0	0	0	0	0	0	0	0
011019	11:32:34	11:35:48	192825	5.0.10.0	4_exp_AMP_EVA_AWA_CON	56	Rpleas_acq	Oppo	Rpleas	Amasked	CS_A	1pleas	distractor2	EVAbeforeCON	acq_new_pleas_masked	acq1_masked	1	17	0	0	300	300	0	0	480	50	0	1	0	0	0	1	blank2r.bmp	0	1	+	0	5	C1r.bmp	492	1	blank2r.bmp	786	7	C3r.bmp	786	1	blank2r.bmp	866	4	kuss	866	0	0	0	0	0	0	0	0	0	0	0	0	0	0	0	0	0	0	0	0	0	0	0	0	0	0	0	0	0	0	0	0	0
011019	11:32:34	11:35:50	194784	5.0.10.0	4_exp_AMP_EVA_AWA_CON	56	Rpleas_acq	Oppo	Rpleas	Amasked	CS_A	1pleas	distractor2	EVAbeforeCON	acq_US_unple_masked	acq1_masked	1	18	0	0	300	300	0	0	490	46	0	1	0	0	0	1	blank2r.bmp	0	1	+	0	1	B1r.bmp	492	1	blank2r.bmp	786	1	DHJF	786	1	blank2r.bmp	866	2	verbissen	866	0	0	0	0	0	0	0	0	0	0	0	0	0	0	0	0	0	0	0	0	0	0	0	0	0	0	0	0	0	0	0	0	0
011019	11:32:34	11:35:52	196863	5.0.10.0	4_exp_AMP_EVA_AWA_CON	56	Rpleas_acq	Oppo	Rpleas	Amasked	CS_A	1pleas	distractor2	EVAbeforeCON	acq_new_pleas_masked	acq1_masked	1	19	0	0	300	300	0	0	588	50	0	1	0	0	0	1	blank2r.bmp	0	1	+	0	8	C4r.bmp	492	1	blank2r.bmp	786	1	B1r.bmp	786	1	blank2r.bmp	866	6	vertrauen	866	0	0	0	0	0	0	0	0	0	0	0	0	0	0	0	0	0	0	0	0	0	0	0	0	0	0	0	0	0	0	0	0	0
011019	11:32:34	11:35:54	198862	5.0.10.0	4_exp_AMP_EVA_AWA_CON	56	Rpleas_acq	Oppo	Rpleas	Amasked	CS_A	1pleas	distractor2	EVAbeforeCON	acq_US_pleas_masked	acq1_masked	1	20	0	0	300	300	0	0	517	50	0	1	0	0	0	1	blank2r.bmp	0	1	+	0	2	B2r.bmp	492	1	blank2r.bmp	786	1	CPLW	786	1	blank2r.bmp	866	4	gütig	866	0	0	0	0	0	0	0	0	0	0	0	0	0	0	0	0	0	0	0	0	0	0	0	0	0	0	0	0	0	0	0	0	0
011019	11:32:34	11:35:56	200835	5.0.10.0	4_exp_AMP_EVA_AWA_CON	56	Rpleas_acq	Oppo	Rpleas	Amasked	CS_A	1pleas	distractor2	EVAbeforeCON	acq_new_unple_masked	acq1_masked	1	21	0	0	300	300	0	0	477	46	0	1	0	0	0	1	blank2r.bmp	0	1	+	0	7	C3r.bmp	492	1	blank2r.bmp	786	4	B4r.bmp	786	1	blank2r.bmp	866	6	versagen	866	0	0	0	0	0	0	0	0	0	0	0	0	0	0	0	0	0	0	0	0	0	0	0	0	0	0	0	0	0	0	0	0	0
011019	11:32:34	11:35:58	202887	5.0.10.0	4_exp_AMP_EVA_AWA_CON	56	Rpleas_acq	Oppo	Rpleas	Amasked	CS_A	1pleas	distractor2	EVAbeforeCON	acq_new_unple_masked	acq1_masked	1	22	0	0	300	300	0	0	562	46	0	1	0	0	0	1	blank2r.bmp	0	1	+	0	6	C2r.bmp	492	1	blank2r.bmp	786	7	C3r.bmp	786	1	blank2r.bmp	866	5	engstirnig	866	0	0	0	0	0	0	0	0	0	0	0	0	0	0	0	0	0	0	0	0	0	0	0	0	0	0	0	0	0	0	0	0	0
011019	11:32:34	11:36:00	204926	5.0.10.0	4_exp_AMP_EVA_AWA_CON	56	Rpleas_acq	Oppo	Rpleas	Amasked	CS_A	1pleas	distractor2	EVAbeforeCON	acq_US_unple_masked	acq1_masked	1	23	0	0	300	300	0	0	565	46	0	1	0	0	0	1	blank2r.bmp	0	1	+	0	4	B4r.bmp	492	1	blank2r.bmp	786	1	DHJF	786	1	blank2r.bmp	866	4	gierig	866	0	0	0	0	0	0	0	0	0	0	0	0	0	0	0	0	0	0	0	0	0	0	0	0	0	0	0	0	0	0	0	0	0
011019	11:32:34	11:36:02	206979	5.0.10.0	4_exp_AMP_EVA_AWA_CON	56	Rpleas_acq	Oppo	Rpleas	Amasked	CS_A	1pleas	distractor2	EVAbeforeCON	acq_new_unple_masked	acq1_masked	1	24	0	0	300	300	0	0	566	46	0	1	0	0	0	1	blank2r.bmp	0	1	+	0	3	B3r.bmp	492	1	blank2r.bmp	786	5	C1r.bmp	786	1	blank2r.bmp	866	2	geizig	866	0	0	0	0	0	0	0	0	0	0	0	0	0	0	0	0	0	0	0	0	0	0	0	0	0	0	0	0	0	0	0	0	0
011019	11:32:34	11:36:04	208991	5.0.10.0	4_exp_AMP_EVA_AWA_CON	56	Rpleas_acq	Oppo	Rpleas	Amasked	CS_A	1pleas	distractor2	EVAbeforeCON	acq_US_unple_masked	acq1_masked	1	25	0	0	300	300	0	0	531	46	0	1	0	0	0	1	blank2r.bmp	0	1	+	0	6	C2r.bmp	492	1	blank2r.bmp	786	1	DHJF	786	1	blank2r.bmp	866	1	krank	866	0	0	0	0	0	0	0	0	0	0	0	0	0	0	0	0	0	0	0	0	0	0	0	0	0	0	0	0	0	0	0	0	0
011019	11:32:34	11:36:06	210964	5.0.10.0	4_exp_AMP_EVA_AWA_CON	56	Rpleas_acq	Oppo	Rpleas	Amasked	CS_A	1pleas	distractor2	EVAbeforeCON	acq_US_unple_masked	acq1_masked	1	26	0	0	300	300	0	0	489	46	0	1	0	0	0	1	blank2r.bmp	0	1	+	0	2	B2r.bmp	492	1	blank2r.bmp	786	1	DHJF	786	1	blank2r.bmp	866	6	töten	866	0	0	0	0	0	0	0	0	0	0	0	0	0	0	0	0	0	0	0	0	0	0	0	0	0	0	0	0	0	0	0	0	0
011019	11:32:34	11:36:08	212936	5.0.10.0	4_exp_AMP_EVA_AWA_CON	56	Rpleas_acq	Oppo	Rpleas	Amasked	CS_A	1pleas	distractor2	EVAbeforeCON	acq_US_pleas_masked	acq1_masked	1	27	0	0	300	300	0	0	490	50	0	1	0	0	0	1	blank2r.bmp	0	1	+	0	4	B4r.bmp	492	1	blank2r.bmp	786	1	CPLW	786	1	blank2r.bmp	866	3	anregung	866	0	0	0	0	0	0	0	0	0	0	0	0	0	0	0	0	0	0	0	0	0	0	0	0	0	0	0	0	0	0	0	0	0
011019	11:32:34	11:36:10	214869	5.0.10.0	4_exp_AMP_EVA_AWA_CON	56	Rpleas_acq	Oppo	Rpleas	Amasked	CS_A	1pleas	distractor2	EVAbeforeCON	acq_US_pleas_masked	acq1_masked	1	28	0	0	300	300	0	0	445	50	0	1	0	0	0	1	blank2r.bmp	0	1	+	0	1	B1r.bmp	492	1	blank2r.bmp	786	1	CPLW	786	1	blank2r.bmp	866	4	gütig	866	0	0	0	0	0	0	0	0	0	0	0	0	0	0	0	0	0	0	0	0	0	0	0	0	0	0	0	0	0	0	0	0	0
011019	11:32:34	11:36:12	216868	5.0.10.0	4_exp_AMP_EVA_AWA_CON	56	Rpleas_acq	Oppo	Rpleas	Amasked	CS_A	1pleas	distractor2	EVAbeforeCON	acq_new_unple_masked	acq1_masked	1	29	0	0	300	300	0	0	530	46	0	1	0	0	0	1	blank2r.bmp	0	1	+	0	8	C4r.bmp	492	1	blank2r.bmp	786	6	C2r.bmp	786	1	blank2r.bmp	866	3	gemein	866	0	0	0	0	0	0	0	0	0	0	0	0	0	0	0	0	0	0	0	0	0	0	0	0	0	0	0	0	0	0	0	0	0
011019	11:32:34	11:36:14	218907	5.0.10.0	4_exp_AMP_EVA_AWA_CON	56	Rpleas_acq	Oppo	Rpleas	Amasked	CS_A	1pleas	distractor2	EVAbeforeCON	acq_new_pleas_masked	acq1_masked	1	30	0	0	300	300	0	0	545	50	0	1	0	0	0	1	blank2r.bmp	0	1	+	0	7	C3r.bmp	492	1	blank2r.bmp	786	8	C4r.bmp	786	1	blank2r.bmp	866	1	sonnig	866	0	0	0	0	0	0	0	0	0	0	0	0	0	0	0	0	0	0	0	0	0	0	0	0	0	0	0	0	0	0	0	0	0
011019	11:32:34	11:36:16	220800	5.0.10.0	4_exp_AMP_EVA_AWA_CON	56	Rpleas_acq	Oppo	Rpleas	Amasked	CS_A	1pleas	distractor2	EVAbeforeCON	acq_US_unple_masked	acq1_masked	1	31	0	0	300	300	0	0	422	46	0	1	0	0	0	1	blank2r.bmp	0	1	+	0	3	B3r.bmp	492	1	blank2r.bmp	786	1	DHJF	786	1	blank2r.bmp	866	5	bange	866	0	0	0	0	0	0	0	0	0	0	0	0	0	0	0	0	0	0	0	0	0	0	0	0	0	0	0	0	0	0	0	0	0
011019	11:32:34	11:36:18	223092	5.0.10.0	4_exp_AMP_EVA_AWA_CON	56	Rpleas_acq	Oppo	Rpleas	Amasked	CS_A	1pleas	distractor2	EVAbeforeCON	acq_new_unple_masked	acq1_masked	1	32	0	0	300	300	0	0	587	50	0	0	0	0	0	1	blank2r.bmp	0	1	+	0	5	C1r.bmp	492	1	blank2r.bmp	786	3	B3r.bmp	786	1	blank2r.bmp	866	5	engstirnig	866	1	FEHLER	1492	0	0	0	0	0	0	0	0	0	0	0	0	0	0	0	0	0	0	0	0	0	0	0	0	0	0	0	0	0	0
011019	11:32:34	11:36:20	225051	5.0.10.0	4_exp_AMP_EVA_AWA_CON	56	Rpleas_acq	Oppo	Rpleas	Amasked	CS_A	1pleas	distractor2	EVAbeforeCON	acq_new_pleas_masked	acq1_masked	1	33	0	0	300	300	0	0	490	46	0	0	0	0	0	1	blank2r.bmp	0	1	+	0	3	B3r.bmp	492	1	blank2r.bmp	786	2	B2r.bmp	786	1	blank2r.bmp	866	2	gesittet	866	1	FEHLER	1386	0	0	0	0	0	0	0	0	0	0	0	0	0	0	0	0	0	0	0	0	0	0	0	0	0	0	0	0	0	0
011019	11:32:34	11:36:22	226864	5.0.10.0	4_exp_AMP_EVA_AWA_CON	56	Rpleas_acq	Oppo	Rpleas	Amasked	CS_A	1pleas	distractor2	EVAbeforeCON	acq_new_unple_masked	acq1_masked	1	34	0	0	300	300	0	0	535	46	0	1	0	0	0	1	blank2r.bmp	0	1	+	0	6	C2r.bmp	492	1	blank2r.bmp	786	1	B1r.bmp	786	1	blank2r.bmp	866	1	sterben	866	0	0	0	0	0	0	0	0	0	0	0	0	0	0	0	0	0	0	0	0	0	0	0	0	0	0	0	0	0	0	0	0	0
011019	11:32:34	11:36:24	228943	5.0.10.0	4_exp_AMP_EVA_AWA_CON	56	Rpleas_acq	Oppo	Rpleas	Amasked	CS_A	1pleas	distractor2	EVAbeforeCON	acq_US_pleas_masked	acq1_masked	1	35	0	0	300	300	0	0	598	50	0	1	0	0	0	1	blank2r.bmp	0	1	+	0	7	C3r.bmp	492	1	blank2r.bmp	786	1	CPLW	786	1	blank2r.bmp	866	2	vergnügt	866	0	0	0	0	0	0	0	0	0	0	0	0	0	0	0	0	0	0	0	0	0	0	0	0	0	0	0	0	0	0	0	0	0
011019	11:32:34	11:36:26	230929	5.0.10.0	4_exp_AMP_EVA_AWA_CON	56	Rpleas_acq	Oppo	Rpleas	Amasked	CS_A	1pleas	distractor2	EVAbeforeCON	acq_new_pleas_masked	acq1_masked	1	36	0	0	300	300	0	0	514	50	0	1	0	0	0	1	blank2r.bmp	0	1	+	0	4	B4r.bmp	492	1	blank2r.bmp	786	5	C1r.bmp	786	1	blank2r.bmp	866	4	kuss	866	0	0	0	0	0	0	0	0	0	0	0	0	0	0	0	0	0	0	0	0	0	0	0	0	0	0	0	0	0	0	0	0	0
011019	11:32:34	11:36:59	264422	5.0.10.0	4_exp_AMP_EVA_AWA_CON	56	Rpleas_acq	Oppo	Rpleas	Amasked	CS_A	1pleas	distractor2	EVAbeforeCON	acq_US_pleas_masked	acq2_masked	2	1	480	0	300	300	0	0	993	50	0	1	0	0	0	1	blank2r.bmp	0	1	+	0	5	C1r.bmp	492	1	blank2r.bmp	786	1	CPLW	786	1	blank2r.bmp	866	1	kreativ	866	1	!	1319	1	!	-1	0	0	0	0	0	0	0	0	0	0	0	0	0	0	0	0	0	0	0	0	0	0	0	0	0	0	0
011019	11:32:34	11:37:02	266914	5.0.10.0	4_exp_AMP_EVA_AWA_CON	56	Rpleas_acq	Oppo	Rpleas	Amasked	CS_A	1pleas	distractor2	EVAbeforeCON	acq_US_unple_masked	acq2_masked	2	2	480	0	300	300	0	0	711	46	0	1	0	0	0	1	blank2r.bmp	0	1	+	0	2	B2r.bmp	492	1	blank2r.bmp	786	1	DHJF	786	1	blank2r.bmp	866	3	ausrottung	866	1	!	1319	1	!	-1	0	0	0	0	0	0	0	0	0	0	0	0	0	0	0	0	0	0	0	0	0	0	0	0	0	0	0
011019	11:32:34	11:37:04	269259	5.0.10.0	4_exp_AMP_EVA_AWA_CON	56	Rpleas_acq	Oppo	Rpleas	Amasked	CS_A	1pleas	distractor2	EVAbeforeCON	acq_new_unple_masked	acq2_masked	2	3	480	1	300	300	0	0	534	46	0	1	0	0	0	1	blank2r.bmp	0	1	+	0	8	C4r.bmp	492	1	blank2r.bmp	786	6	C2r.bmp	786	1	blank2r.bmp	866	2	geizig	866	1	!	1319	1	!	1439	0	0	0	0	0	0	0	0	0	0	0	0	0	0	0	0	0	0	0	0	0	0	0	0	0	0	0
011019	11:32:34	11:37:06	271618	5.0.10.0	4_exp_AMP_EVA_AWA_CON	56	Rpleas_acq	Oppo	Rpleas	Amasked	CS_A	1pleas	distractor2	EVAbeforeCON	acq_new_unple_masked	acq2_masked	2	4	480	0	300	300	0	0	589	46	0	1	0	0	0	1	blank2r.bmp	0	1	+	0	1	B1r.bmp	492	1	blank2r.bmp	786	4	B4r.bmp	786	1	blank2r.bmp	866	6	versagen	866	1	!	1319	1	!	-1	0	0	0	0	0	0	0	0	0	0	0	0	0	0	0	0	0	0	0	0	0	0	0	0	0	0	0
011019	11:32:34	11:37:09	273938	5.0.10.0	4_exp_AMP_EVA_AWA_CON	56	Rpleas_acq	Oppo	Rpleas	Amasked	CS_A	1pleas	distractor2	EVAbeforeCON	acq_US_unple_masked	acq2_masked	2	5	480	1	300	300	0	0	504	46	0	1	0	0	0	1	blank2r.bmp	0	1	+	0	8	C4r.bmp	492	1	blank2r.bmp	786	1	DHJF	786	1	blank2r.bmp	866	2	verbissen	866	1	!	1319	1	!	1399	0	0	0	0	0	0	0	0	0	0	0	0	0	0	0	0	0	0	0	0	0	0	0	0	0	0	0
011019	11:32:34	11:37:11	276163	5.0.10.0	4_exp_AMP_EVA_AWA_CON	56	Rpleas_acq	Oppo	Rpleas	Amasked	CS_A	1pleas	distractor2	EVAbeforeCON	acq_new_unple_masked	acq2_masked	2	6	480	1	300	300	0	0	426	46	0	1	0	0	0	1	blank2r.bmp	0	1	+	0	4	B4r.bmp	492	1	blank2r.bmp	786	3	B3r.bmp	786	1	blank2r.bmp	866	4	krise	866	1	!	1319	1	!	1332	0	0	0	0	0	0	0	0	0	0	0	0	0	0	0	0	0	0	0	0	0	0	0	0	0	0	0
011019	11:32:34	11:37:13	278536	5.0.10.0	4_exp_AMP_EVA_AWA_CON	56	Rpleas_acq	Oppo	Rpleas	Amasked	CS_A	1pleas	distractor2	EVAbeforeCON	acq_new_pleas_masked	acq2_masked	2	7	480	0	300	300	0	0	377	46	0	0	0	0	0	1	blank2r.bmp	0	1	+	0	1	B1r.bmp	492	1	blank2r.bmp	786	2	B2r.bmp	786	1	blank2r.bmp	866	6	vertrauen	866	1	FEHLER	1585	1	!	-1	1	!	-1	0	0	0	0	0	0	0	0	0	0	0	0	0	0	0	0	0	0	0	0	0	0	0	0
011019	11:32:34	11:37:16	280881	5.0.10.0	4_exp_AMP_EVA_AWA_CON	56	Rpleas_acq	Oppo	Rpleas	Amasked	CS_A	1pleas	distractor2	EVAbeforeCON	acq_new_pleas_masked	acq2_masked	2	8	480	0	300	300	0	0	559	46	0	0	0	0	0	1	blank2r.bmp	0	1	+	0	3	B3r.bmp	492	1	blank2r.bmp	786	7	C3r.bmp	786	1	blank2r.bmp	866	3	genießen	866	1	FEHLER	1772	1	!	1319	1	!	-1	0	0	0	0	0	0	0	0	0	0	0	0	0	0	0	0	0	0	0	0	0	0	0	0
011019	11:32:34	11:37:18	283134	5.0.10.0	4_exp_AMP_EVA_AWA_CON	56	Rpleas_acq	Oppo	Rpleas	Amasked	CS_A	1pleas	distractor2	EVAbeforeCON	acq_US_pleas_masked	acq2_masked	2	9	480	1	300	300	0	0	452	46	0	0	0	0	0	1	blank2r.bmp	0	1	+	0	7	C3r.bmp	492	1	blank2r.bmp	786	1	CPLW	786	1	blank2r.bmp	866	6	träumen	866	1	FEHLER	1679	1	!	1319	1	!	1359	0	0	0	0	0	0	0	0	0	0	0	0	0	0	0	0	0	0	0	0	0	0	0	0
011019	11:32:34	11:37:20	285253	5.0.10.0	4_exp_AMP_EVA_AWA_CON	56	Rpleas_acq	Oppo	Rpleas	Amasked	CS_A	1pleas	distractor2	EVAbeforeCON	acq_new_pleas_masked	acq2_masked	2	10	480	0	300	300	0	0	560	50	0	1	0	0	0	1	blank2r.bmp	0	1	+	0	5	C1r.bmp	492	1	blank2r.bmp	786	8	C4r.bmp	786	1	blank2r.bmp	866	5	engagiert	866	1	!	1319	1	!	-1	0	0	0	0	0	0	0	0	0	0	0	0	0	0	0	0	0	0	0	0	0	0	0	0	0	0	0
011019	11:32:34	11:37:22	287585	5.0.10.0	4_exp_AMP_EVA_AWA_CON	56	Rpleas_acq	Oppo	Rpleas	Amasked	CS_A	1pleas	distractor2	EVAbeforeCON	acq_US_unple_masked	acq2_masked	2	11	480	0	300	300	0	0	337	50	0	0	0	0	0	1	blank2r.bmp	0	1	+	0	6	C2r.bmp	492	1	blank2r.bmp	786	1	DHJF	786	1	blank2r.bmp	866	4	gierig	866	1	FEHLER	1546	1	!	-1	1	!	-1	0	0	0	0	0	0	0	0	0	0	0	0	0	0	0	0	0	0	0	0	0	0	0	0
011019	11:32:34	11:37:24	289611	5.0.10.0	4_exp_AMP_EVA_AWA_CON	56	Rpleas_acq	Oppo	Rpleas	Amasked	CS_A	1pleas	distractor2	EVAbeforeCON	acq_US_pleas_masked	acq2_masked	2	12	480	1	300	300	0	0	436	50	0	1	0	0	0	1	blank2r.bmp	0	1	+	0	2	B2r.bmp	492	1	blank2r.bmp	786	1	CPLW	786	1	blank2r.bmp	866	5	besonnen	866	1	!	1319	1	!	1332	0	0	0	0	0	0	0	0	0	0	0	0	0	0	0	0	0	0	0	0	0	0	0	0	0	0	0
011019	11:32:34	11:37:27	291837	5.0.10.0	4_exp_AMP_EVA_AWA_CON	56	Rpleas_acq	Oppo	Rpleas	Amasked	CS_A	1pleas	distractor2	EVAbeforeCON	acq_new_pleas_masked	acq2_masked	2	13	480	1	300	300	0	0	426	50	0	1	0	0	0	1	blank2r.bmp	0	1	+	0	7	C3r.bmp	492	1	blank2r.bmp	786	5	C1r.bmp	786	1	blank2r.bmp	866	4	kuss	866	1	!	1319	1	!	1332	0	0	0	0	0	0	0	0	0	0	0	0	0	0	0	0	0	0	0	0	0	0	0	0	0	0	0
011019	11:32:34	11:37:29	293956	5.0.10.0	4_exp_AMP_EVA_AWA_CON	56	Rpleas_acq	Oppo	Rpleas	Amasked	CS_A	1pleas	distractor2	EVAbeforeCON	acq_US_unple_masked	acq2_masked	2	14	480	0	300	300	0	0	346	46	0	1	0	0	0	1	blank2r.bmp	0	1	+	0	4	B4r.bmp	492	1	blank2r.bmp	786	1	DHJF	786	1	blank2r.bmp	866	6	töten	866	1	!	-1	1	!	-1	0	0	0	0	0	0	0	0	0	0	0	0	0	0	0	0	0	0	0	0	0	0	0	0	0	0	0
011019	11:32:34	11:37:31	296341	5.0.10.0	4_exp_AMP_EVA_AWA_CON	56	Rpleas_acq	Oppo	Rpleas	Amasked	CS_A	1pleas	distractor2	EVAbeforeCON	acq_US_unple_masked	acq2_masked	2	15	480	0	300	300	0	0	612	46	0	1	0	0	0	1	blank2r.bmp	0	1	+	0	2	B2r.bmp	492	1	blank2r.bmp	786	1	DHJF	786	1	blank2r.bmp	866	4	gierig	866	1	!	1319	1	!	-1	0	0	0	0	0	0	0	0	0	0	0	0	0	0	0	0	0	0	0	0	0	0	0	0	0	0	0
011019	11:32:34	11:37:34	298740	5.0.10.0	4_exp_AMP_EVA_AWA_CON	56	Rpleas_acq	Oppo	Rpleas	Amasked	CS_A	1pleas	distractor2	EVAbeforeCON	acq_US_pleas_masked	acq2_masked	2	16	480	0	300	300	0	0	392	46	0	0	0	0	0	1	blank2r.bmp	0	1	+	0	1	B1r.bmp	492	1	blank2r.bmp	786	1	CPLW	786	1	blank2r.bmp	866	5	besonnen	866	1	FEHLER	1599	1	!	-1	1	!	-1	0	0	0	0	0	0	0	0	0	0	0	0	0	0	0	0	0	0	0	0	0	0	0	0
011019	11:32:34	11:37:36	300900	5.0.10.0	4_exp_AMP_EVA_AWA_CON	56	Rpleas_acq	Oppo	Rpleas	Amasked	CS_A	1pleas	distractor2	EVAbeforeCON	acq_new_pleas_masked	acq2_masked	2	17	480	0	300	300	0	0	596	50	0	1	0	0	0	1	blank2r.bmp	0	1	+	0	8	C4r.bmp	492	1	blank2r.bmp	786	2	B2r.bmp	786	1	blank2r.bmp	866	3	genießen	866	1	!	1319	1	!	-1	0	0	0	0	0	0	0	0	0	0	0	0	0	0	0	0	0	0	0	0	0	0	0	0	0	0	0
011019	11:32:34	11:37:38	303032	5.0.10.0	4_exp_AMP_EVA_AWA_CON	56	Rpleas_acq	Oppo	Rpleas	Amasked	CS_A	1pleas	distractor2	EVAbeforeCON	acq_US_pleas_masked	acq2_masked	2	18	480	0	300	300	0	0	338	50	0	1	0	0	0	1	blank2r.bmp	0	1	+	0	6	C2r.bmp	492	1	blank2r.bmp	786	1	CPLW	786	1	blank2r.bmp	866	1	kreativ	866	1	!	-1	1	!	-1	0	0	0	0	0	0	0	0	0	0	0	0	0	0	0	0	0	0	0	0	0	0	0	0	0	0	0
011019	11:32:34	11:37:40	305204	5.0.10.0	4_exp_AMP_EVA_AWA_CON	56	Rpleas_acq	Oppo	Rpleas	Amasked	CS_A	1pleas	distractor2	EVAbeforeCON	acq_US_pleas_masked	acq2_masked	2	19	480	0	300	300	0	0	395	50	0	1	0	0	0	1	blank2r.bmp	0	1	+	0	5	C1r.bmp	492	1	blank2r.bmp	786	1	CPLW	786	1	blank2r.bmp	866	4	gütig	866	1	!	-1	1	!	-1	0	0	0	0	0	0	0	0	0	0	0	0	0	0	0	0	0	0	0	0	0	0	0	0	0	0	0
011019	11:32:34	11:37:42	307510	5.0.10.0	4_exp_AMP_EVA_AWA_CON	56	Rpleas_acq	Oppo	Rpleas	Amasked	CS_A	1pleas	distractor2	EVAbeforeCON	acq_new_unple_masked	acq2_masked	2	20	480	1	300	300	0	0	499	46	0	1	0	0	0	1	blank2r.bmp	0	1	+	0	3	B3r.bmp	492	1	blank2r.bmp	786	8	C4r.bmp	786	1	blank2r.bmp	866	1	sterben	866	1	!	1319	1	!	1399	0	0	0	0	0	0	0	0	0	0	0	0	0	0	0	0	0	0	0	0	0	0	0	0	0	0	0
011019	11:32:34	11:37:45	309762	5.0.10.0	4_exp_AMP_EVA_AWA_CON	56	Rpleas_acq	Oppo	Rpleas	Amasked	CS_A	1pleas	distractor2	EVAbeforeCON	acq_US_unple_masked	acq2_masked	2	21	480	1	300	300	0	0	452	46	0	1	0	0	0	1	blank2r.bmp	0	1	+	0	8	C4r.bmp	492	1	blank2r.bmp	786	1	DHJF	786	1	blank2r.bmp	866	5	bange	866	1	!	1319	1	!	1359	0	0	0	0	0	0	0	0	0	0	0	0	0	0	0	0	0	0	0	0	0	0	0	0	0	0	0
011019	11:32:34	11:37:47	312241	5.0.10.0	4_exp_AMP_EVA_AWA_CON	56	Rpleas_acq	Oppo	Rpleas	Amasked	CS_A	1pleas	distractor2	EVAbeforeCON	acq_new_unple_masked	acq2_masked	2	22	480	1	300	300	0	0	479	50	0	0	0	0	0	1	blank2r.bmp	0	1	+	0	5	C1r.bmp	492	1	blank2r.bmp	786	6	C2r.bmp	786	1	blank2r.bmp	866	6	versagen	866	1	FEHLER	1705	1	!	1319	1	!	1386	0	0	0	0	0	0	0	0	0	0	0	0	0	0	0	0	0	0	0	0	0	0	0	0
011019	11:32:34	11:37:49	314600	5.0.10.0	4_exp_AMP_EVA_AWA_CON	56	Rpleas_acq	Oppo	Rpleas	Amasked	CS_A	1pleas	distractor2	EVAbeforeCON	acq_new_pleas_masked	acq2_masked	2	23	480	0	300	300	0	0	797	50	0	1	0	0	0	1	blank2r.bmp	0	1	+	0	2	B2r.bmp	492	1	blank2r.bmp	786	7	C3r.bmp	786	1	blank2r.bmp	866	2	gesittet	866	1	!	1319	1	!	-1	0	0	0	0	0	0	0	0	0	0	0	0	0	0	0	0	0	0	0	0	0	0	0	0	0	0	0
011019	11:32:34	11:37:52	317079	5.0.10.0	4_exp_AMP_EVA_AWA_CON	56	Rpleas_acq	Oppo	Rpleas	Amasked	CS_A	1pleas	distractor2	EVAbeforeCON	acq_new_unple_masked	acq2_masked	2	24	480	1	300	300	0	0	471	50	0	0	0	0	0	1	blank2r.bmp	0	1	+	0	6	C2r.bmp	492	1	blank2r.bmp	786	4	B4r.bmp	786	1	blank2r.bmp	866	5	engstirnig	866	1	FEHLER	1692	1	!	1319	1	!	1372	0	0	0	0	0	0	0	0	0	0	0	0	0	0	0	0	0	0	0	0	0	0	0	0
011019	11:32:34	11:37:54	319132	5.0.10.0	4_exp_AMP_EVA_AWA_CON	56	Rpleas_acq	Oppo	Rpleas	Amasked	CS_A	1pleas	distractor2	EVAbeforeCON	acq_US_unple_masked	acq2_masked	2	25	480	1	300	300	0	0	465	46	0	1	0	0	0	1	blank2r.bmp	0	1	+	0	4	B4r.bmp	492	1	blank2r.bmp	786	1	DHJF	786	1	blank2r.bmp	866	1	krank	866	1	!	1319	1	!	1359	0	0	0	0	0	0	0	0	0	0	0	0	0	0	0	0	0	0	0	0	0	0	0	0	0	0	0
011019	11:32:34	11:37:56	321464	5.0.10.0	4_exp_AMP_EVA_AWA_CON	56	Rpleas_acq	Oppo	Rpleas	Amasked	CS_A	1pleas	distractor2	EVAbeforeCON	acq_US_pleas_masked	acq2_masked	2	26	480	0	300	300	0	0	567	50	0	1	0	0	0	1	blank2r.bmp	0	1	+	0	7	C3r.bmp	492	1	blank2r.bmp	786	1	CPLW	786	1	blank2r.bmp	866	3	anregung	866	1	!	1319	1	!	-1	0	0	0	0	0	0	0	0	0	0	0	0	0	0	0	0	0	0	0	0	0	0	0	0	0	0	0
011019	11:32:34	11:37:59	323810	5.0.10.0	4_exp_AMP_EVA_AWA_CON	56	Rpleas_acq	Oppo	Rpleas	Amasked	CS_A	1pleas	distractor2	EVAbeforeCON	acq_US_unple_masked	acq2_masked	2	27	480	0	300	300	0	0	559	46	0	1	0	0	0	1	blank2r.bmp	0	1	+	0	1	B1r.bmp	492	1	blank2r.bmp	786	1	DHJF	786	1	blank2r.bmp	866	3	ausrottung	866	1	!	1319	1	!	-1	0	0	0	0	0	0	0	0	0	0	0	0	0	0	0	0	0	0	0	0	0	0	0	0	0	0	0
011019	11:32:34	11:38:01	326276	5.0.10.0	4_exp_AMP_EVA_AWA_CON	56	Rpleas_acq	Oppo	Rpleas	Amasked	CS_A	1pleas	distractor2	EVAbeforeCON	acq_new_unple_masked	acq2_masked	2	28	480	1	300	300	0	0	450	50	0	0	0	0	0	1	blank2r.bmp	0	1	+	0	3	B3r.bmp	492	1	blank2r.bmp	786	1	B1r.bmp	786	1	blank2r.bmp	866	3	gemein	866	1	FEHLER	1665	1	!	1319	1	!	1346	0	0	0	0	0	0	0	0	0	0	0	0	0	0	0	0	0	0	0	0	0	0	0	0
011019	11:32:34	11:38:03	328355	5.0.10.0	4_exp_AMP_EVA_AWA_CON	56	Rpleas_acq	Oppo	Rpleas	Amasked	CS_A	1pleas	distractor2	EVAbeforeCON	acq_new_unple_masked	acq2_masked	2	29	480	1	300	300	0	0	497	46	0	1	0	0	0	1	blank2r.bmp	0	1	+	0	1	B1r.bmp	492	1	blank2r.bmp	786	3	B3r.bmp	786	1	blank2r.bmp	866	2	geizig	866	1	!	1319	1	!	1399	0	0	0	0	0	0	0	0	0	0	0	0	0	0	0	0	0	0	0	0	0	0	0	0	0	0	0
011019	11:32:34	11:38:05	330620	5.0.10.0	4_exp_AMP_EVA_AWA_CON	56	Rpleas_acq	Oppo	Rpleas	Amasked	CS_A	1pleas	distractor2	EVAbeforeCON	acq_US_pleas_masked	acq2_masked	2	30	480	1	300	300	0	0	457	50	0	1	0	0	0	1	blank2r.bmp	0	1	+	0	8	C4r.bmp	492	1	blank2r.bmp	786	1	CPLW	786	1	blank2r.bmp	866	2	vergnügt	866	1	!	1319	1	!	1359	0	0	0	0	0	0	0	0	0	0	0	0	0	0	0	0	0	0	0	0	0	0	0	0	0	0	0
011019	11:32:34	11:38:08	332859	5.0.10.0	4_exp_AMP_EVA_AWA_CON	56	Rpleas_acq	Oppo	Rpleas	Amasked	CS_A	1pleas	distractor2	EVAbeforeCON	acq_US_unple_masked	acq2_masked	2	31	480	1	300	300	0	0	450	46	0	1	0	0	0	1	blank2r.bmp	0	1	+	0	7	C3r.bmp	492	1	blank2r.bmp	786	1	DHJF	786	1	blank2r.bmp	866	2	verbissen	866	1	!	1319	1	!	1346	0	0	0	0	0	0	0	0	0	0	0	0	0	0	0	0	0	0	0	0	0	0	0	0	0	0	0
011019	11:32:34	11:38:10	335098	5.0.10.0	4_exp_AMP_EVA_AWA_CON	56	Rpleas_acq	Oppo	Rpleas	Amasked	CS_A	1pleas	distractor2	EVAbeforeCON	acq_US_pleas_masked	acq2_masked	2	32	480	1	300	300	0	0	447	50	0	1	0	0	0	1	blank2r.bmp	0	1	+	0	6	C2r.bmp	492	1	blank2r.bmp	786	1	CPLW	786	1	blank2r.bmp	866	6	träumen	866	1	!	1319	1	!	1346	0	0	0	0	0	0	0	0	0	0	0	0	0	0	0	0	0	0	0	0	0	0	0	0	0	0	0
011019	11:32:34	11:38:12	337364	5.0.10.0	4_exp_AMP_EVA_AWA_CON	56	Rpleas_acq	Oppo	Rpleas	Amasked	CS_A	1pleas	distractor2	EVAbeforeCON	acq_new_pleas_masked	acq2_masked	2	33	480	1	300	300	0	0	476	50	0	1	0	0	0	1	blank2r.bmp	0	1	+	0	3	B3r.bmp	492	1	blank2r.bmp	786	8	C4r.bmp	786	1	blank2r.bmp	866	1	sonnig	866	1	!	1319	1	!	1372	0	0	0	0	0	0	0	0	0	0	0	0	0	0	0	0	0	0	0	0	0	0	0	0	0	0	0
011019	11:32:34	11:38:15	339750	5.0.10.0	4_exp_AMP_EVA_AWA_CON	56	Rpleas_acq	Oppo	Rpleas	Amasked	CS_A	1pleas	distractor2	EVAbeforeCON	acq_new_pleas_masked	acq2_masked	2	34	480	0	300	300	0	0	385	46	0	0	0	0	0	1	blank2r.bmp	0	1	+	0	4	B4r.bmp	492	1	blank2r.bmp	786	7	C3r.bmp	786	1	blank2r.bmp	866	5	engagiert	866	1	FEHLER	1599	1	!	-1	1	!	-1	0	0	0	0	0	0	0	0	0	0	0	0	0	0	0	0	0	0	0	0	0	0	0	0
011019	11:32:34	11:38:17	341842	5.0.10.0	4_exp_AMP_EVA_AWA_CON	56	Rpleas_acq	Oppo	Rpleas	Amasked	CS_A	1pleas	distractor2	EVAbeforeCON	acq_new_unple_masked	acq2_masked	2	35	480	1	300	300	0	0	509	46	0	1	0	0	0	1	blank2r.bmp	0	1	+	0	5	C1r.bmp	492	1	blank2r.bmp	786	3	B3r.bmp	786	1	blank2r.bmp	866	4	krise	866	1	!	1319	1	!	1412	0	0	0	0	0	0	0	0	0	0	0	0	0	0	0	0	0	0	0	0	0	0	0	0	0	0	0
011019	11:32:34	11:38:19	344095	5.0.10.0	4_exp_AMP_EVA_AWA_CON	56	Rpleas_acq	Oppo	Rpleas	Amasked	CS_A	1pleas	distractor2	EVAbeforeCON	acq_new_pleas_masked	acq2_masked	2	36	480	1	300	300	0	0	458	50	0	1	0	0	0	1	blank2r.bmp	0	1	+	0	2	B2r.bmp	492	1	blank2r.bmp	786	1	B1r.bmp	786	1	blank2r.bmp	866	6	vertrauen	866	1	!	1319	1	!	1359	0	0	0	0	0	0	0	0	0	0	0	0	0	0	0	0	0	0	0	0	0	0	0	0	0	0	0
011019	11:32:34	11:38:38	363047	5.0.10.0	4_exp_AMP_EVA_AWA_CON	56	Rpleas_acq	Oppo	Rpleas	Amasked	CS_A	1pleas	distractor2	EVAbeforeCON	acq_US_unple_masked	acq3_masked	3	1	453	1	300	300	0	0	439	46	0	1	0	0	0	1	blank2r.bmp	0	1	+	0	2	B2r.bmp	492	1	blank2r.bmp	786	1	DHJF	786	1	blank2r.bmp	866	5	bange	866	1	!	1292	1	!	1346	0	0	0	0	0	0	0	0	0	0	0	0	0	0	0	0	0	0	0	0	0	0	0	0	0	0	0
011019	11:32:34	11:38:40	365246	5.0.10.0	4_exp_AMP_EVA_AWA_CON	56	Rpleas_acq	Oppo	Rpleas	Amasked	CS_A	1pleas	distractor2	EVAbeforeCON	acq_US_pleas_masked	acq3_masked	3	2	453	1	300	300	0	0	399	50	0	1	0	0	0	1	blank2r.bmp	0	1	+	0	7	C3r.bmp	492	1	blank2r.bmp	786	1	CPLW	786	1	blank2r.bmp	866	3	anregung	866	1	!	1292	1	!	1306	0	0	0	0	0	0	0	0	0	0	0	0	0	0	0	0	0	0	0	0	0	0	0	0	0	0	0
011019	11:32:34	11:38:42	367658	5.0.10.0	4_exp_AMP_EVA_AWA_CON	56	Rpleas_acq	Oppo	Rpleas	Amasked	CS_A	1pleas	distractor2	EVAbeforeCON	acq_US_pleas_masked	acq3_masked	3	3	453	1	300	300	0	0	399	46	0	0	0	0	0	1	blank2r.bmp	0	1	+	0	4	B4r.bmp	492	1	blank2r.bmp	786	1	CPLW	786	1	blank2r.bmp	866	5	besonnen	866	1	FEHLER	1625	1	!	1292	1	!	1306	0	0	0	0	0	0	0	0	0	0	0	0	0	0	0	0	0	0	0	0	0	0	0	0
011019	11:32:34	11:38:44	369684	5.0.10.0	4_exp_AMP_EVA_AWA_CON	56	Rpleas_acq	Oppo	Rpleas	Amasked	CS_A	1pleas	distractor2	EVAbeforeCON	acq_US_pleas_masked	acq3_masked	3	4	453	1	300	300	0	0	439	50	0	1	0	0	0	1	blank2r.bmp	0	1	+	0	8	C4r.bmp	492	1	blank2r.bmp	786	1	CPLW	786	1	blank2r.bmp	866	2	vergnügt	866	1	!	1292	1	!	1346	0	0	0	0	0	0	0	0	0	0	0	0	0	0	0	0	0	0	0	0	0	0	0	0	0	0	0
011019	11:32:34	11:38:47	371790	5.0.10.0	4_exp_AMP_EVA_AWA_CON	56	Rpleas_acq	Oppo	Rpleas	Amasked	CS_A	1pleas	distractor2	EVAbeforeCON	acq_US_unple_masked	acq3_masked	3	5	453	0	300	300	0	0	338	46	0	1	0	0	0	1	blank2r.bmp	0	1	+	0	6	C2r.bmp	492	1	blank2r.bmp	786	1	DHJF	786	1	blank2r.bmp	866	2	verbissen	866	1	!	-1	1	!	-1	0	0	0	0	0	0	0	0	0	0	0	0	0	0	0	0	0	0	0	0	0	0	0	0	0	0	0
011019	11:32:34	11:38:49	374055	5.0.10.0	4_exp_AMP_EVA_AWA_CON	56	Rpleas_acq	Oppo	Rpleas	Amasked	CS_A	1pleas	distractor2	EVAbeforeCON	acq_US_unple_masked	acq3_masked	3	6	453	1	300	300	0	0	462	46	0	1	0	0	0	1	blank2r.bmp	0	1	+	0	5	C1r.bmp	492	1	blank2r.bmp	786	1	DHJF	786	1	blank2r.bmp	866	6	töten	866	1	!	1292	1	!	1359	0	0	0	0	0	0	0	0	0	0	0	0	0	0	0	0	0	0	0	0	0	0	0	0	0	0	0
011019	11:32:34	11:38:51	376281	5.0.10.0	4_exp_AMP_EVA_AWA_CON	56	Rpleas_acq	Oppo	Rpleas	Amasked	CS_A	1pleas	distractor2	EVAbeforeCON	acq_US_pleas_masked	acq3_masked	3	7	453	1	300	300	0	0	437	50	0	1	0	0	0	1	blank2r.bmp	0	1	+	0	3	B3r.bmp	492	1	blank2r.bmp	786	1	CPLW	786	1	blank2r.bmp	866	6	träumen	866	1	!	1292	1	!	1332	0	0	0	0	0	0	0	0	0	0	0	0	0	0	0	0	0	0	0	0	0	0	0	0	0	0	0
011019	11:32:34	11:38:53	378427	5.0.10.0	4_exp_AMP_EVA_AWA_CON	56	Rpleas_acq	Oppo	Rpleas	Amasked	CS_A	1pleas	distractor2	EVAbeforeCON	acq_US_pleas_masked	acq3_masked	3	8	453	0	300	300	0	0	379	50	0	1	0	0	0	1	blank2r.bmp	0	1	+	0	1	B1r.bmp	492	1	blank2r.bmp	786	1	CPLW	786	1	blank2r.bmp	866	4	gütig	866	1	!	-1	1	!	-1	0	0	0	0	0	0	0	0	0	0	0	0	0	0	0	0	0	0	0	0	0	0	0	0	0	0	0
011019	11:32:34	11:38:55	380639	5.0.10.0	4_exp_AMP_EVA_AWA_CON	56	Rpleas_acq	Oppo	Rpleas	Amasked	CS_A	1pleas	distractor2	EVAbeforeCON	acq_US_unple_masked	acq3_masked	3	9	453	1	300	300	0	0	399	46	0	1	0	0	0	1	blank2r.bmp	0	1	+	0	2	B2r.bmp	492	1	blank2r.bmp	786	1	DHJF	786	1	blank2r.bmp	866	3	ausrottung	866	1	!	1292	1	!	1306	0	0	0	0	0	0	0	0	0	0	0	0	0	0	0	0	0	0	0	0	0	0	0	0	0	0	0
011019	11:32:34	11:38:58	382892	5.0.10.0	4_exp_AMP_EVA_AWA_CON	56	Rpleas_acq	Oppo	Rpleas	Amasked	CS_A	1pleas	distractor2	EVAbeforeCON	acq_US_unple_masked	acq3_masked	3	10	453	1	300	300	0	0	460	46	0	1	0	0	0	1	blank2r.bmp	0	1	+	0	8	C4r.bmp	492	1	blank2r.bmp	786	1	DHJF	786	1	blank2r.bmp	866	4	gierig	866	1	!	1292	1	!	1359	0	0	0	0	0	0	0	0	0	0	0	0	0	0	0	0	0	0	0	0	0	0	0	0	0	0	0
011019	11:32:34	11:39:00	385211	5.0.10.0	4_exp_AMP_EVA_AWA_CON	56	Rpleas_acq	Oppo	Rpleas	Amasked	CS_A	1pleas	distractor2	EVAbeforeCON	acq_US_pleas_masked	acq3_masked	3	11	453	0	300	300	0	0	532	50	0	1	0	0	0	1	blank2r.bmp	0	1	+	0	6	C2r.bmp	492	1	blank2r.bmp	786	1	CPLW	786	1	blank2r.bmp	866	1	kreativ	866	1	!	1292	1	!	-1	0	0	0	0	0	0	0	0	0	0	0	0	0	0	0	0	0	0	0	0	0	0	0	0	0	0	0
011019	11:32:34	11:39:02	387490	5.0.10.0	4_exp_AMP_EVA_AWA_CON	56	Rpleas_acq	Oppo	Rpleas	Amasked	CS_A	1pleas	distractor2	EVAbeforeCON	acq_US_unple_masked	acq3_masked	3	12	453	1	300	300	0	0	475	46	0	1	0	0	0	1	blank2r.bmp	0	1	+	0	4	B4r.bmp	492	1	blank2r.bmp	786	1	DHJF	786	1	blank2r.bmp	866	1	krank	866	1	!	1292	1	!	1372	0	0	0	0	0	0	0	0	0	0	0	0	0	0	0	0	0	0	0	0	0	0	0	0	0	0	0
011019	11:32:34	11:39:05	389742	5.0.10.0	4_exp_AMP_EVA_AWA_CON	56	Rpleas_acq	Oppo	Rpleas	Amasked	CS_A	1pleas	distractor2	EVAbeforeCON	acq_US_pleas_masked	acq3_masked	3	13	453	1	300	300	0	0	453	50	0	1	0	0	0	1	blank2r.bmp	0	1	+	0	5	C1r.bmp	492	1	blank2r.bmp	786	1	CPLW	786	1	blank2r.bmp	866	6	träumen	866	1	!	1292	1	!	1359	0	0	0	0	0	0	0	0	0	0	0	0	0	0	0	0	0	0	0	0	0	0	0	0	0	0	0
011019	11:32:34	11:39:07	392008	5.0.10.0	4_exp_AMP_EVA_AWA_CON	56	Rpleas_acq	Oppo	Rpleas	Amasked	CS_A	1pleas	distractor2	EVAbeforeCON	acq_US_pleas_masked	acq3_masked	3	14	453	1	300	300	0	0	476	50	0	1	0	0	0	1	blank2r.bmp	0	1	+	0	1	B1r.bmp	492	1	blank2r.bmp	786	1	CPLW	786	1	blank2r.bmp	866	5	besonnen	866	1	!	1292	1	!	1372	0	0	0	0	0	0	0	0	0	0	0	0	0	0	0	0	0	0	0	0	0	0	0	0	0	0	0
011019	11:32:34	11:39:09	394274	5.0.10.0	4_exp_AMP_EVA_AWA_CON	56	Rpleas_acq	Oppo	Rpleas	Amasked	CS_A	1pleas	distractor2	EVAbeforeCON	acq_US_unple_masked	acq3_masked	3	15	453	1	300	300	0	0	467	46	0	1	0	0	0	1	blank2r.bmp	0	1	+	0	3	B3r.bmp	492	1	blank2r.bmp	786	1	DHJF	786	1	blank2r.bmp	866	6	töten	866	1	!	1292	1	!	1372	0	0	0	0	0	0	0	0	0	0	0	0	0	0	0	0	0	0	0	0	0	0	0	0	0	0	0
011019	11:32:34	11:39:11	396579	5.0.10.0	4_exp_AMP_EVA_AWA_CON	56	Rpleas_acq	Oppo	Rpleas	Amasked	CS_A	1pleas	distractor2	EVAbeforeCON	acq_US_pleas_masked	acq3_masked	3	16	453	0	300	300	0	0	532	50	0	1	0	0	0	1	blank2r.bmp	0	1	+	0	7	C3r.bmp	492	1	blank2r.bmp	786	1	CPLW	786	1	blank2r.bmp	866	3	anregung	866	1	!	1292	1	!	-1	0	0	0	0	0	0	0	0	0	0	0	0	0	0	0	0	0	0	0	0	0	0	0	0	0	0	0
011019	11:32:34	11:39:14	398832	5.0.10.0	4_exp_AMP_EVA_AWA_CON	56	Rpleas_acq	Oppo	Rpleas	Amasked	CS_A	1pleas	distractor2	EVAbeforeCON	acq_US_unple_masked	acq3_masked	3	17	453	1	300	300	0	0	439	46	0	1	0	0	0	1	blank2r.bmp	0	1	+	0	6	C2r.bmp	492	1	blank2r.bmp	786	1	DHJF	786	1	blank2r.bmp	866	4	gierig	866	1	!	1292	1	!	1346	0	0	0	0	0	0	0	0	0	0	0	0	0	0	0	0	0	0	0	0	0	0	0	0	0	0	0
011019	11:32:34	11:39:16	401391	5.0.10.0	4_exp_AMP_EVA_AWA_CON	56	Rpleas_acq	Oppo	Rpleas	Amasked	CS_A	1pleas	distractor2	EVAbeforeCON	acq_US_unple_masked	acq3_masked	3	18	453	0	300	300	0	0	561	50	0	0	0	0	0	1	blank2r.bmp	0	1	+	0	4	B4r.bmp	492	1	blank2r.bmp	786	1	DHJF	786	1	blank2r.bmp	866	3	ausrottung	866	1	FEHLER	1772	1	!	1292	1	!	-1	0	0	0	0	0	0	0	0	0	0	0	0	0	0	0	0	0	0	0	0	0	0	0	0
011019	11:32:34	11:39:18	403416	5.0.10.0	4_exp_AMP_EVA_AWA_CON	56	Rpleas_acq	Oppo	Rpleas	Amasked	CS_A	1pleas	distractor2	EVAbeforeCON	acq_US_pleas_masked	acq3_masked	3	19	453	1	300	300	0	0	447	50	0	1	0	0	0	1	blank2r.bmp	0	1	+	0	8	C4r.bmp	492	1	blank2r.bmp	786	1	CPLW	786	1	blank2r.bmp	866	1	kreativ	866	1	!	1292	1	!	1346	0	0	0	0	0	0	0	0	0	0	0	0	0	0	0	0	0	0	0	0	0	0	0	0	0	0	0
011019	11:32:34	11:39:20	405682	5.0.10.0	4_exp_AMP_EVA_AWA_CON	56	Rpleas_acq	Oppo	Rpleas	Amasked	CS_A	1pleas	distractor2	EVAbeforeCON	acq_US_unple_masked	acq3_masked	3	20	453	1	300	300	0	0	474	46	0	1	0	0	0	1	blank2r.bmp	0	1	+	0	5	C1r.bmp	492	1	blank2r.bmp	786	1	DHJF	786	1	blank2r.bmp	866	2	verbissen	866	1	!	1292	1	!	1372	0	0	0	0	0	0	0	0	0	0	0	0	0	0	0	0	0	0	0	0	0	0	0	0	0	0	0
011019	11:32:34	11:39:23	408001	5.0.10.0	4_exp_AMP_EVA_AWA_CON	56	Rpleas_acq	Oppo	Rpleas	Amasked	CS_A	1pleas	distractor2	EVAbeforeCON	acq_US_unple_masked	acq3_masked	3	21	453	0	300	300	0	0	539	46	0	1	0	0	0	1	blank2r.bmp	0	1	+	0	2	B2r.bmp	492	1	blank2r.bmp	786	1	DHJF	786	1	blank2r.bmp	866	5	bange	866	1	!	1292	1	!	-1	0	0	0	0	0	0	0	0	0	0	0	0	0	0	0	0	0	0	0	0	0	0	0	0	0	0	0
011019	11:32:34	11:39:25	410120	5.0.10.0	4_exp_AMP_EVA_AWA_CON	56	Rpleas_acq	Oppo	Rpleas	Amasked	CS_A	1pleas	distractor2	EVAbeforeCON	acq_US_unple_masked	acq3_masked	3	22	453	0	300	300	0	0	337	46	0	1	0	0	0	1	blank2r.bmp	0	1	+	0	1	B1r.bmp	492	1	blank2r.bmp	786	1	DHJF	786	1	blank2r.bmp	866	1	krank	866	1	!	-1	1	!	-1	0	0	0	0	0	0	0	0	0	0	0	0	0	0	0	0	0	0	0	0	0	0	0	0	0	0	0
011019	11:32:34	11:39:27	412466	5.0.10.0	4_exp_AMP_EVA_AWA_CON	56	Rpleas_acq	Oppo	Rpleas	Amasked	CS_A	1pleas	distractor2	EVAbeforeCON	acq_US_pleas_masked	acq3_masked	3	23	453	0	300	300	0	0	566	50	0	1	0	0	0	1	blank2r.bmp	0	1	+	0	3	B3r.bmp	492	1	blank2r.bmp	786	1	CPLW	786	1	blank2r.bmp	866	4	gütig	866	1	!	1292	1	!	-1	0	0	0	0	0	0	0	0	0	0	0	0	0	0	0	0	0	0	0	0	0	0	0	0	0	0	0
011019	11:32:34	11:39:30	414705	5.0.10.0	4_exp_AMP_EVA_AWA_CON	56	Rpleas_acq	Oppo	Rpleas	Amasked	CS_A	1pleas	distractor2	EVAbeforeCON	acq_US_pleas_masked	acq3_masked	3	24	453	1	300	300	0	0	432	50	0	1	0	0	0	1	blank2r.bmp	0	1	+	0	7	C3r.bmp	492	1	blank2r.bmp	786	1	CPLW	786	1	blank2r.bmp	866	2	vergnügt	866	1	!	1292	1	!	1332	0	0	0	0	0	0	0	0	0	0	0	0	0	0	0	0	0	0	0	0	0	0	0	0	0	0	0
011019	11:32:34	11:39:32	417064	5.0.10.0	4_exp_AMP_EVA_AWA_CON	56	Rpleas_acq	Oppo	Rpleas	Amasked	CS_A	1pleas	distractor2	EVAbeforeCON	acq_US_unple_masked	acq3_masked	3	25	453	0	300	300	0	0	597	46	0	1	0	0	0	1	blank2r.bmp	0	1	+	0	1	B1r.bmp	492	1	blank2r.bmp	786	1	DHJF	786	1	blank2r.bmp	866	2	verbissen	866	1	!	1292	1	!	-1	0	0	0	0	0	0	0	0	0	0	0	0	0	0	0	0	0	0	0	0	0	0	0	0	0	0	0
011019	11:32:34	11:39:34	419316	5.0.10.0	4_exp_AMP_EVA_AWA_CON	56	Rpleas_acq	Oppo	Rpleas	Amasked	CS_A	1pleas	distractor2	EVAbeforeCON	acq_US_pleas_masked	acq3_masked	3	26	453	1	300	300	0	0	449	50	0	1	0	0	0	1	blank2r.bmp	0	1	+	0	8	C4r.bmp	492	1	blank2r.bmp	786	1	CPLW	786	1	blank2r.bmp	866	1	kreativ	866	1	!	1292	1	!	1346	0	0	0	0	0	0	0	0	0	0	0	0	0	0	0	0	0	0	0	0	0	0	0	0	0	0	0
011019	11:32:34	11:39:36	421569	5.0.10.0	4_exp_AMP_EVA_AWA_CON	56	Rpleas_acq	Oppo	Rpleas	Amasked	CS_A	1pleas	distractor2	EVAbeforeCON	acq_US_unple_masked	acq3_masked	3	27	453	1	300	300	0	0	441	46	0	1	0	0	0	1	blank2r.bmp	0	1	+	0	3	B3r.bmp	492	1	blank2r.bmp	786	1	DHJF	786	1	blank2r.bmp	866	3	ausrottung	866	1	!	1292	1	!	1346	0	0	0	0	0	0	0	0	0	0	0	0	0	0	0	0	0	0	0	0	0	0	0	0	0	0	0
011019	11:32:34	11:39:39	423781	5.0.10.0	4_exp_AMP_EVA_AWA_CON	56	Rpleas_acq	Oppo	Rpleas	Amasked	CS_A	1pleas	distractor2	EVAbeforeCON	acq_US_pleas_masked	acq3_masked	3	28	453	1	300	300	0	0	412	50	0	1	0	0	0	1	blank2r.bmp	0	1	+	0	4	B4r.bmp	492	1	blank2r.bmp	786	1	CPLW	786	1	blank2r.bmp	866	4	gütig	866	1	!	1292	1	!	1319	0	0	0	0	0	0	0	0	0	0	0	0	0	0	0	0	0	0	0	0	0	0	0	0	0	0	0
011019	11:32:34	11:39:41	425994	5.0.10.0	4_exp_AMP_EVA_AWA_CON	56	Rpleas_acq	Oppo	Rpleas	Amasked	CS_A	1pleas	distractor2	EVAbeforeCON	acq_US_pleas_masked	acq3_masked	3	29	453	1	300	300	0	0	420	50	0	1	0	0	0	1	blank2r.bmp	0	1	+	0	2	B2r.bmp	492	1	blank2r.bmp	786	1	CPLW	786	1	blank2r.bmp	866	2	vergnügt	866	1	!	1292	1	!	1319	0	0	0	0	0	0	0	0	0	0	0	0	0	0	0	0	0	0	0	0	0	0	0	0	0	0	0
011019	11:32:34	11:39:43	428233	5.0.10.0	4_exp_AMP_EVA_AWA_CON	56	Rpleas_acq	Oppo	Rpleas	Amasked	CS_A	1pleas	distractor2	EVAbeforeCON	acq_US_unple_masked	acq3_masked	3	30	453	1	300	300	0	0	433	46	0	1	0	0	0	1	blank2r.bmp	0	1	+	0	5	C1r.bmp	492	1	blank2r.bmp	786	1	DHJF	786	1	blank2r.bmp	866	6	töten	866	1	!	1292	1	!	1332	0	0	0	0	0	0	0	0	0	0	0	0	0	0	0	0	0	0	0	0	0	0	0	0	0	0	0
011019	11:32:34	11:39:45	430498	5.0.10.0	4_exp_AMP_EVA_AWA_CON	56	Rpleas_acq	Oppo	Rpleas	Amasked	CS_A	1pleas	distractor2	EVAbeforeCON	acq_US_pleas_masked	acq3_masked	3	31	453	1	300	300	0	0	465	50	0	1	0	0	0	1	blank2r.bmp	0	1	+	0	6	C2r.bmp	492	1	blank2r.bmp	786	1	CPLW	786	1	blank2r.bmp	866	5	besonnen	866	1	!	1292	1	!	1372	0	0	0	0	0	0	0	0	0	0	0	0	0	0	0	0	0	0	0	0	0	0	0	0	0	0	0
011019	11:32:34	11:39:48	432924	5.0.10.0	4_exp_AMP_EVA_AWA_CON	56	Rpleas_acq	Oppo	Rpleas	Amasked	CS_A	1pleas	distractor2	EVAbeforeCON	acq_US_unple_masked	acq3_masked	3	32	453	1	300	300	0	0	423	50	0	0	0	0	0	1	blank2r.bmp	0	1	+	0	7	C3r.bmp	492	1	blank2r.bmp	786	1	DHJF	786	1	blank2r.bmp	866	4	gierig	866	1	FEHLER	1639	1	!	1292	1	!	1319	0	0	0	0	0	0	0	0	0	0	0	0	0	0	0	0	0	0	0	0	0	0	0	0
011019	11:32:34	11:39:50	434843	5.0.10.0	4_exp_AMP_EVA_AWA_CON	56	Rpleas_acq	Oppo	Rpleas	Amasked	CS_A	1pleas	distractor2	EVAbeforeCON	acq_US_unple_masked	acq3_masked	3	33	453	0	300	300	0	0	363	46	0	1	0	0	0	1	blank2r.bmp	0	1	+	0	7	C3r.bmp	492	1	blank2r.bmp	786	1	DHJF	786	1	blank2r.bmp	866	5	bange	866	1	!	-1	1	!	-1	0	0	0	0	0	0	0	0	0	0	0	0	0	0	0	0	0	0	0	0	0	0	0	0	0	0	0
011019	11:32:34	11:39:52	437122	5.0.10.0	4_exp_AMP_EVA_AWA_CON	56	Rpleas_acq	Oppo	Rpleas	Amasked	CS_A	1pleas	distractor2	EVAbeforeCON	acq_US_pleas_masked	acq3_masked	3	34	453	1	300	300	0	0	470	50	0	1	0	0	0	1	blank2r.bmp	0	1	+	0	1	B1r.bmp	492	1	blank2r.bmp	786	1	CPLW	786	1	blank2r.bmp	866	3	anregung	866	1	!	1292	1	!	1372	0	0	0	0	0	0	0	0	0	0	0	0	0	0	0	0	0	0	0	0	0	0	0	0	0	0	0
011019	11:32:34	11:39:54	439428	5.0.10.0	4_exp_AMP_EVA_AWA_CON	56	Rpleas_acq	Oppo	Rpleas	Amasked	CS_A	1pleas	distractor2	EVAbeforeCON	acq_US_pleas_masked	acq3_masked	3	35	453	1	300	300	0	0	508	50	0	1	0	0	0	1	blank2r.bmp	0	1	+	0	6	C2r.bmp	492	1	blank2r.bmp	786	1	CPLW	786	1	blank2r.bmp	866	6	träumen	866	1	!	1292	1	!	1412	0	0	0	0	0	0	0	0	0	0	0	0	0	0	0	0	0	0	0	0	0	0	0	0	0	0	0
011019	11:32:34	11:39:56	441494	5.0.10.0	4_exp_AMP_EVA_AWA_CON	56	Rpleas_acq	Oppo	Rpleas	Amasked	CS_A	1pleas	distractor2	EVAbeforeCON	acq_US_unple_masked	acq3_masked	3	36	453	0	300	300	0	0	304	46	0	1	0	0	0	1	blank2r.bmp	0	1	+	0	3	B3r.bmp	492	1	blank2r.bmp	786	1	DHJF	786	1	blank2r.bmp	866	1	krank	866	1	!	-1	1	!	-1	0	0	0	0	0	0	0	0	0	0	0	0	0	0	0	0	0	0	0	0	0	0	0	0	0	0	0
011019	11:32:34	11:40:17	461779	5.0.10.0	4_exp_AMP_EVA_AWA_CON	56	Rpleas_acq	Oppo	Rpleas	Amasked	CS_A	1pleas	distractor2	EVAbeforeCON	acq_US_pleas_masked	acq45_masked	4	1	400	0	300	300	0	0	508	50	0	1	0	0	0	1	blank2r.bmp	0	1	+	0	8	C4r.bmp	492	1	blank2r.bmp	786	1	CPLW	786	1	blank2r.bmp	866	2	vergnügt	866	1	!	1239	1	!	-1	0	0	0	0	0	0	0	0	0	0	0	0	0	0	0	0	0	0	0	0	0	0	0	0	0	0	0
011019	11:32:34	11:40:19	464044	5.0.10.0	4_exp_AMP_EVA_AWA_CON	56	Rpleas_acq	Oppo	Rpleas	Amasked	CS_A	1pleas	distractor2	EVAbeforeCON	acq_US_unple_masked	acq45_masked	4	2	400	1	300	300	0	0	459	46	0	1	0	0	0	1	blank2r.bmp	0	1	+	0	4	B4r.bmp	492	1	blank2r.bmp	786	1	DHJF	786	1	blank2r.bmp	866	5	bange	866	1	!	1239	1	!	1359	0	0	0	0	0	0	0	0	0	0	0	0	0	0	0	0	0	0	0	0	0	0	0	0	0	0	0
011019	11:32:34	11:40:21	466337	5.0.10.0	4_exp_AMP_EVA_AWA_CON	56	Rpleas_acq	Oppo	Rpleas	Amasked	CS_A	1pleas	distractor2	EVAbeforeCON	acq_US_pleas_masked	acq45_masked	4	3	400	0	300	300	0	0	532	50	0	1	0	0	0	1	blank2r.bmp	0	1	+	0	5	C1r.bmp	492	1	blank2r.bmp	786	1	CPLW	786	1	blank2r.bmp	866	6	träumen	866	1	!	1239	1	!	-1	0	0	0	0	0	0	0	0	0	0	0	0	0	0	0	0	0	0	0	0	0	0	0	0	0	0	0
011019	11:32:34	11:40:23	468589	5.0.10.0	4_exp_AMP_EVA_AWA_CON	56	Rpleas_acq	Oppo	Rpleas	Amasked	CS_A	1pleas	distractor2	EVAbeforeCON	acq_US_unple_masked	acq45_masked	4	4	400	1	300	300	0	0	430	46	0	1	0	0	0	1	blank2r.bmp	0	1	+	0	2	B2r.bmp	492	1	blank2r.bmp	786	1	DHJF	786	1	blank2r.bmp	866	3	ausrottung	866	1	!	1239	1	!	1332	0	0	0	0	0	0	0	0	0	0	0	0	0	0	0	0	0	0	0	0	0	0	0	0	0	0	0
011019	11:32:34	11:40:26	470775	5.0.10.0	4_exp_AMP_EVA_AWA_CON	56	Rpleas_acq	Oppo	Rpleas	Amasked	CS_A	1pleas	distractor2	EVAbeforeCON	acq_US_unple_masked	acq45_masked	4	5	400	1	300	300	0	0	394	46	0	1	0	0	0	1	blank2r.bmp	0	1	+	0	8	C4r.bmp	492	1	blank2r.bmp	786	1	DHJF	786	1	blank2r.bmp	866	1	krank	866	1	!	1239	1	!	1292	0	0	0	0	0	0	0	0	0	0	0	0	0	0	0	0	0	0	0	0	0	0	0	0	0	0	0
011019	11:32:34	11:40:28	472841	5.0.10.0	4_exp_AMP_EVA_AWA_CON	56	Rpleas_acq	Oppo	Rpleas	Amasked	CS_A	1pleas	distractor2	EVAbeforeCON	acq_US_pleas_masked	acq45_masked	4	6	400	0	300	300	0	0	294	50	0	1	0	0	0	1	blank2r.bmp	0	1	+	0	4	B4r.bmp	492	1	blank2r.bmp	786	1	CPLW	786	1	blank2r.bmp	866	5	besonnen	866	1	!	-1	1	!	-1	0	0	0	0	0	0	0	0	0	0	0	0	0	0	0	0	0	0	0	0	0	0	0	0	0	0	0
011019	11:32:34	11:40:30	474933	5.0.10.0	4_exp_AMP_EVA_AWA_CON	56	Rpleas_acq	Oppo	Rpleas	Amasked	CS_A	1pleas	distractor2	EVAbeforeCON	acq_US_unple_masked	acq45_masked	4	7	400	0	300	300	0	0	313	46	0	1	0	0	0	1	blank2r.bmp	0	1	+	0	7	C3r.bmp	492	1	blank2r.bmp	786	1	DHJF	786	1	blank2r.bmp	866	4	gierig	866	1	!	-1	1	!	-1	0	0	0	0	0	0	0	0	0	0	0	0	0	0	0	0	0	0	0	0	0	0	0	0	0	0	0
011019	11:32:34	11:40:32	477212	5.0.10.0	4_exp_AMP_EVA_AWA_CON	56	Rpleas_acq	Oppo	Rpleas	Amasked	CS_A	1pleas	distractor2	EVAbeforeCON	acq_US_pleas_masked	acq45_masked	4	8	400	0	300	300	0	0	488	50	0	1	0	0	0	1	blank2r.bmp	0	1	+	0	5	C1r.bmp	492	1	blank2r.bmp	786	1	CPLW	786	1	blank2r.bmp	866	3	anregung	866	1	!	1239	1	!	-1	0	0	0	0	0	0	0	0	0	0	0	0	0	0	0	0	0	0	0	0	0	0	0	0	0	0	0
011019	11:32:34	11:40:34	479385	5.0.10.0	4_exp_AMP_EVA_AWA_CON	56	Rpleas_acq	Oppo	Rpleas	Amasked	CS_A	1pleas	distractor2	EVAbeforeCON	acq_US_unple_masked	acq45_masked	4	9	400	1	300	300	0	0	362	46	0	1	0	0	0	1	blank2r.bmp	0	1	+	0	3	B3r.bmp	492	1	blank2r.bmp	786	1	DHJF	786	1	blank2r.bmp	866	2	verbissen	866	1	!	1239	1	!	1266	0	0	0	0	0	0	0	0	0	0	0	0	0	0	0	0	0	0	0	0	0	0	0	0	0	0	0
011019	11:32:34	11:40:36	481584	5.0.10.0	4_exp_AMP_EVA_AWA_CON	56	Rpleas_acq	Oppo	Rpleas	Amasked	CS_A	1pleas	distractor2	EVAbeforeCON	acq_US_pleas_masked	acq45_masked	4	10	400	1	300	300	0	0	410	50	0	1	0	0	0	1	blank2r.bmp	0	1	+	0	1	B1r.bmp	492	1	blank2r.bmp	786	1	CPLW	786	1	blank2r.bmp	866	4	gütig	866	1	!	1239	1	!	1306	0	0	0	0	0	0	0	0	0	0	0	0	0	0	0	0	0	0	0	0	0	0	0	0	0	0	0
011019	11:32:34	11:40:39	483756	5.0.10.0	4_exp_AMP_EVA_AWA_CON	56	Rpleas_acq	Oppo	Rpleas	Amasked	CS_A	1pleas	distractor2	EVAbeforeCON	acq_US_unple_masked	acq45_masked	4	11	400	1	300	300	0	0	384	46	0	1	0	0	0	1	blank2r.bmp	0	1	+	0	6	C2r.bmp	492	1	blank2r.bmp	786	1	DHJF	786	1	blank2r.bmp	866	6	töten	866	1	!	1239	1	!	1279	0	0	0	0	0	0	0	0	0	0	0	0	0	0	0	0	0	0	0	0	0	0	0	0	0	0	0
011019	11:32:34	11:40:41	486008	5.0.10.0	4_exp_AMP_EVA_AWA_CON	56	Rpleas_acq	Oppo	Rpleas	Amasked	CS_A	1pleas	distractor2	EVAbeforeCON	acq_US_pleas_masked	acq45_masked	4	12	400	1	300	300	0	0	465	50	0	1	0	0	0	1	blank2r.bmp	0	1	+	0	2	B2r.bmp	492	1	blank2r.bmp	786	1	CPLW	786	1	blank2r.bmp	866	1	kreativ	866	1	!	1239	1	!	1359	0	0	0	0	0	0	0	0	0	0	0	0	0	0	0	0	0	0	0	0	0	0	0	0	0	0	0
011019	11:32:34	11:40:43	488234	5.0.10.0	4_exp_AMP_EVA_AWA_CON	56	Rpleas_acq	Oppo	Rpleas	Amasked	CS_A	1pleas	distractor2	EVAbeforeCON	acq_US_unple_masked	acq45_masked	4	13	400	1	300	300	0	0	428	46	0	1	0	0	0	1	blank2r.bmp	0	1	+	0	8	C4r.bmp	492	1	blank2r.bmp	786	1	DHJF	786	1	blank2r.bmp	866	2	verbissen	866	1	!	1239	1	!	1332	0	0	0	0	0	0	0	0	0	0	0	0	0	0	0	0	0	0	0	0	0	0	0	0	0	0	0
011019	11:32:34	11:40:45	490487	5.0.10.0	4_exp_AMP_EVA_AWA_CON	56	Rpleas_acq	Oppo	Rpleas	Amasked	CS_A	1pleas	distractor2	EVAbeforeCON	acq_US_pleas_masked	acq45_masked	4	14	400	0	300	300	0	0	487	50	0	1	0	0	0	1	blank2r.bmp	0	1	+	0	5	C1r.bmp	492	1	blank2r.bmp	786	1	CPLW	786	1	blank2r.bmp	866	3	anregung	866	1	!	1239	1	!	-1	0	0	0	0	0	0	0	0	0	0	0	0	0	0	0	0	0	0	0	0	0	0	0	0	0	0	0
011019	11:32:34	11:40:48	492699	5.0.10.0	4_exp_AMP_EVA_AWA_CON	56	Rpleas_acq	Oppo	Rpleas	Amasked	CS_A	1pleas	distractor2	EVAbeforeCON	acq_US_unple_masked	acq45_masked	4	15	400	1	300	300	0	0	387	46	0	1	0	0	0	1	blank2r.bmp	0	1	+	0	2	B2r.bmp	492	1	blank2r.bmp	786	1	DHJF	786	1	blank2r.bmp	866	6	töten	866	1	!	1239	1	!	1292	0	0	0	0	0	0	0	0	0	0	0	0	0	0	0	0	0	0	0	0	0	0	0	0	0	0	0
011019	11:32:34	11:40:50	494951	5.0.10.0	4_exp_AMP_EVA_AWA_CON	56	Rpleas_acq	Oppo	Rpleas	Amasked	CS_A	1pleas	distractor2	EVAbeforeCON	acq_US_pleas_masked	acq45_masked	4	16	400	1	300	300	0	0	448	50	0	1	0	0	0	1	blank2r.bmp	0	1	+	0	3	B3r.bmp	492	1	blank2r.bmp	786	1	CPLW	786	1	blank2r.bmp	866	1	kreativ	866	1	!	1239	1	!	1346	0	0	0	0	0	0	0	0	0	0	0	0	0	0	0	0	0	0	0	0	0	0	0	0	0	0	0
011019	11:32:34	11:40:52	497257	5.0.10.0	4_exp_AMP_EVA_AWA_CON	56	Rpleas_acq	Oppo	Rpleas	Amasked	CS_A	1pleas	distractor2	EVAbeforeCON	acq_US_unple_masked	acq45_masked	4	17	400	0	300	300	0	0	538	46	0	1	0	0	0	1	blank2r.bmp	0	1	+	0	6	C2r.bmp	492	1	blank2r.bmp	786	1	DHJF	786	1	blank2r.bmp	866	4	gierig	866	1	!	1239	1	!	-1	0	0	0	0	0	0	0	0	0	0	0	0	0	0	0	0	0	0	0	0	0	0	0	0	0	0	0
011019	11:32:34	11:40:54	499429	5.0.10.0	4_exp_AMP_EVA_AWA_CON	56	Rpleas_acq	Oppo	Rpleas	Amasked	CS_A	1pleas	distractor2	EVAbeforeCON	acq_US_pleas_masked	acq45_masked	4	18	400	1	300	300	0	0	346	50	0	1	0	0	0	1	blank2r.bmp	0	1	+	0	1	B1r.bmp	492	1	blank2r.bmp	786	1	CPLW	786	1	blank2r.bmp	866	6	träumen	866	1	!	1239	1	!	1252	0	0	0	0	0	0	0	0	0	0	0	0	0	0	0	0	0	0	0	0	0	0	0	0	0	0	0
011019	11:32:34	11:40:56	501682	5.0.10.0	4_exp_AMP_EVA_AWA_CON	56	Rpleas_acq	Oppo	Rpleas	Amasked	CS_A	1pleas	distractor2	EVAbeforeCON	acq_US_pleas_masked	acq45_masked	4	19	400	1	300	300	0	0	459	50	0	1	0	0	0	1	blank2r.bmp	0	1	+	0	4	B4r.bmp	492	1	blank2r.bmp	786	1	CPLW	786	1	blank2r.bmp	866	5	besonnen	866	1	!	1239	1	!	1359	0	0	0	0	0	0	0	0	0	0	0	0	0	0	0	0	0	0	0	0	0	0	0	0	0	0	0
011019	11:32:34	11:40:59	503881	5.0.10.0	4_exp_AMP_EVA_AWA_CON	56	Rpleas_acq	Oppo	Rpleas	Amasked	CS_A	1pleas	distractor2	EVAbeforeCON	acq_US_unple_masked	acq45_masked	4	20	400	1	300	300	0	0	407	46	0	1	0	0	0	1	blank2r.bmp	0	1	+	0	7	C3r.bmp	492	1	blank2r.bmp	786	1	DHJF	786	1	blank2r.bmp	866	5	bange	866	1	!	1239	1	!	1306	0	0	0	0	0	0	0	0	0	0	0	0	0	0	0	0	0	0	0	0	0	0	0	0	0	0	0
011019	11:32:34	11:41:01	506160	5.0.10.0	4_exp_AMP_EVA_AWA_CON	56	Rpleas_acq	Oppo	Rpleas	Amasked	CS_A	1pleas	distractor2	EVAbeforeCON	acq_US_unple_masked	acq45_masked	4	21	400	0	300	300	0	0	511	46	0	1	0	0	0	1	blank2r.bmp	0	1	+	0	2	B2r.bmp	492	1	blank2r.bmp	786	1	DHJF	786	1	blank2r.bmp	866	1	krank	866	1	!	1239	1	!	-1	0	0	0	0	0	0	0	0	0	0	0	0	0	0	0	0	0	0	0	0	0	0	0	0	0	0	0
011019	11:32:34	11:41:03	508319	5.0.10.0	4_exp_AMP_EVA_AWA_CON	56	Rpleas_acq	Oppo	Rpleas	Amasked	CS_A	1pleas	distractor2	EVAbeforeCON	acq_US_pleas_masked	acq45_masked	4	22	400	1	300	300	0	0	346	50	0	1	0	0	0	1	blank2r.bmp	0	1	+	0	6	C2r.bmp	492	1	blank2r.bmp	786	1	CPLW	786	1	blank2r.bmp	866	2	vergnügt	866	1	!	1239	1	!	1252	0	0	0	0	0	0	0	0	0	0	0	0	0	0	0	0	0	0	0	0	0	0	0	0	0	0	0
011019	11:32:34	11:41:05	510531	5.0.10.0	4_exp_AMP_EVA_AWA_CON	56	Rpleas_acq	Oppo	Rpleas	Amasked	CS_A	1pleas	distractor2	EVAbeforeCON	acq_US_unple_masked	acq45_masked	4	23	400	1	300	300	0	0	414	46	0	1	0	0	0	1	blank2r.bmp	0	1	+	0	5	C1r.bmp	492	1	blank2r.bmp	786	1	DHJF	786	1	blank2r.bmp	866	3	ausrottung	866	1	!	1239	1	!	1319	0	0	0	0	0	0	0	0	0	0	0	0	0	0	0	0	0	0	0	0	0	0	0	0	0	0	0
011019	11:32:34	11:41:07	512611	5.0.10.0	4_exp_AMP_EVA_AWA_CON	56	Rpleas_acq	Oppo	Rpleas	Amasked	CS_A	1pleas	distractor2	EVAbeforeCON	acq_US_pleas_masked	acq45_masked	4	24	400	0	300	300	0	0	308	50	0	1	0	0	0	1	blank2r.bmp	0	1	+	0	7	C3r.bmp	492	1	blank2r.bmp	786	1	CPLW	786	1	blank2r.bmp	866	4	gütig	866	1	!	-1	1	!	-1	0	0	0	0	0	0	0	0	0	0	0	0	0	0	0	0	0	0	0	0	0	0	0	0	0	0	0
011019	11:32:34	11:41:10	514783	5.0.10.0	4_exp_AMP_EVA_AWA_CON	56	Rpleas_acq	Oppo	Rpleas	Amasked	CS_A	1pleas	distractor2	EVAbeforeCON	acq_US_unple_masked	acq45_masked	4	25	400	1	300	300	0	0	362	46	0	1	0	0	0	1	blank2r.bmp	0	1	+	0	3	B3r.bmp	492	1	blank2r.bmp	786	1	DHJF	786	1	blank2r.bmp	866	5	bange	866	1	!	1239	1	!	1266	0	0	0	0	0	0	0	0	0	0	0	0	0	0	0	0	0	0	0	0	0	0	0	0	0	0	0
011019	11:32:34	11:41:12	516982	5.0.10.0	4_exp_AMP_EVA_AWA_CON	56	Rpleas_acq	Oppo	Rpleas	Amasked	CS_A	1pleas	distractor2	EVAbeforeCON	acq_US_pleas_masked	acq45_masked	4	26	400	1	300	300	0	0	408	50	0	1	0	0	0	1	blank2r.bmp	0	1	+	0	8	C4r.bmp	492	1	blank2r.bmp	786	1	CPLW	786	1	blank2r.bmp	866	5	besonnen	866	1	!	1239	1	!	1306	0	0	0	0	0	0	0	0	0	0	0	0	0	0	0	0	0	0	0	0	0	0	0	0	0	0	0
011019	11:32:34	11:41:14	519128	5.0.10.0	4_exp_AMP_EVA_AWA_CON	56	Rpleas_acq	Oppo	Rpleas	Amasked	CS_A	1pleas	distractor2	EVAbeforeCON	acq_US_pleas_masked	acq45_masked	4	27	400	1	300	300	0	0	346	46	0	0	0	0	0	1	blank2r.bmp	0	1	+	0	4	B4r.bmp	492	1	blank2r.bmp	786	1	CPLW	786	1	blank2r.bmp	866	4	gütig	866	1	!	1239	1	!	1252	0	0	0	0	0	0	0	0	0	0	0	0	0	0	0	0	0	0	0	0	0	0	0	0	0	0	0
011019	11:32:34	11:41:16	521274	5.0.10.0	4_exp_AMP_EVA_AWA_CON	56	Rpleas_acq	Oppo	Rpleas	Amasked	CS_A	1pleas	distractor2	EVAbeforeCON	acq_US_pleas_masked	acq45_masked	4	28	400	1	300	300	0	0	356	50	0	1	0	0	0	1	blank2r.bmp	0	1	+	0	1	B1r.bmp	492	1	blank2r.bmp	786	1	CPLW	786	1	blank2r.bmp	866	3	anregung	866	1	!	1239	1	!	1252	0	0	0	0	0	0	0	0	0	0	0	0	0	0	0	0	0	0	0	0	0	0	0	0	0	0	0
011019	11:32:34	11:41:18	523526	5.0.10.0	4_exp_AMP_EVA_AWA_CON	56	Rpleas_acq	Oppo	Rpleas	Amasked	CS_A	1pleas	distractor2	EVAbeforeCON	acq_US_unple_masked	acq45_masked	4	29	400	1	300	300	0	0	454	46	0	1	0	0	0	1	blank2r.bmp	0	1	+	0	5	C1r.bmp	492	1	blank2r.bmp	786	1	DHJF	786	1	blank2r.bmp	866	2	verbissen	866	1	!	1239	1	!	1359	0	0	0	0	0	0	0	0	0	0	0	0	0	0	0	0	0	0	0	0	0	0	0	0	0	0	0
011019	11:32:34	11:41:21	525778	5.0.10.0	4_exp_AMP_EVA_AWA_CON	56	Rpleas_acq	Oppo	Rpleas	Amasked	CS_A	1pleas	distractor2	EVAbeforeCON	acq_US_unple_masked	acq45_masked	4	30	400	1	300	300	0	0	462	46	0	1	0	0	0	1	blank2r.bmp	0	1	+	0	2	B2r.bmp	492	1	blank2r.bmp	786	1	DHJF	786	1	blank2r.bmp	866	6	töten	866	1	!	1239	1	!	1359	0	0	0	0	0	0	0	0	0	0	0	0	0	0	0	0	0	0	0	0	0	0	0	0	0	0	0
011019	11:32:34	11:41:23	527871	5.0.10.0	4_exp_AMP_EVA_AWA_CON	56	Rpleas_acq	Oppo	Rpleas	Amasked	CS_A	1pleas	distractor2	EVAbeforeCON	acq_US_pleas_masked	acq45_masked	4	31	400	0	300	300	0	0	320	50	0	1	0	0	0	1	blank2r.bmp	0	1	+	0	7	C3r.bmp	492	1	blank2r.bmp	786	1	CPLW	786	1	blank2r.bmp	866	1	kreativ	866	1	!	-1	1	!	-1	0	0	0	0	0	0	0	0	0	0	0	0	0	0	0	0	0	0	0	0	0	0	0	0	0	0	0
011019	11:32:34	11:41:25	530137	5.0.10.0	4_exp_AMP_EVA_AWA_CON	56	Rpleas_acq	Oppo	Rpleas	Amasked	CS_A	1pleas	distractor2	EVAbeforeCON	acq_US_unple_masked	acq45_masked	4	32	400	1	300	300	0	0	464	46	0	1	0	0	0	1	blank2r.bmp	0	1	+	0	1	B1r.bmp	492	1	blank2r.bmp	786	1	DHJF	786	1	blank2r.bmp	866	4	gierig	866	1	!	1239	1	!	1359	0	0	0	0	0	0	0	0	0	0	0	0	0	0	0	0	0	0	0	0	0	0	0	0	0	0	0
011019	11:32:34	11:41:27	532349	5.0.10.0	4_exp_AMP_EVA_AWA_CON	56	Rpleas_acq	Oppo	Rpleas	Amasked	CS_A	1pleas	distractor2	EVAbeforeCON	acq_US_pleas_masked	acq45_masked	4	33	400	1	300	300	0	0	412	50	0	1	0	0	0	1	blank2r.bmp	0	1	+	0	8	C4r.bmp	492	1	blank2r.bmp	786	1	CPLW	786	1	blank2r.bmp	866	2	vergnügt	866	1	!	1239	1	!	1319	0	0	0	0	0	0	0	0	0	0	0	0	0	0	0	0	0	0	0	0	0	0	0	0	0	0	0
011019	11:32:34	11:41:29	534575	5.0.10.0	4_exp_AMP_EVA_AWA_CON	56	Rpleas_acq	Oppo	Rpleas	Amasked	CS_A	1pleas	distractor2	EVAbeforeCON	acq_US_unple_masked	acq45_masked	4	34	400	1	300	300	0	0	428	46	0	1	0	0	0	1	blank2r.bmp	0	1	+	0	6	C2r.bmp	492	1	blank2r.bmp	786	1	DHJF	786	1	blank2r.bmp	866	1	krank	866	1	!	1239	1	!	1332	0	0	0	0	0	0	0	0	0	0	0	0	0	0	0	0	0	0	0	0	0	0	0	0	0	0	0
011019	11:32:34	11:41:32	536880	5.0.10.0	4_exp_AMP_EVA_AWA_CON	56	Rpleas_acq	Oppo	Rpleas	Amasked	CS_A	1pleas	distractor2	EVAbeforeCON	acq_US_unple_masked	acq45_masked	4	35	400	0	300	300	0	0	539	46	0	1	0	0	0	1	blank2r.bmp	0	1	+	0	4	B4r.bmp	492	1	blank2r.bmp	786	1	DHJF	786	1	blank2r.bmp	866	3	ausrottung	866	1	!	1239	1	!	-1	0	0	0	0	0	0	0	0	0	0	0	0	0	0	0	0	0	0	0	0	0	0	0	0	0	0	0
011019	11:32:34	11:41:34	538973	5.0.10.0	4_exp_AMP_EVA_AWA_CON	56	Rpleas_acq	Oppo	Rpleas	Amasked	CS_A	1pleas	distractor2	EVAbeforeCON	acq_US_pleas_masked	acq45_masked	4	36	400	0	300	300	0	0	300	50	0	1	0	0	0	1	blank2r.bmp	0	1	+	0	3	B3r.bmp	492	1	blank2r.bmp	786	1	CPLW	786	1	blank2r.bmp	866	6	träumen	866	1	!	-1	1	!	-1	0	0	0	0	0	0	0	0	0	0	0	0	0	0	0	0	0	0	0	0	0	0	0	0	0	0	0
011019	11:32:34	11:41:48	553567	5.0.10.0	4_exp_AMP_EVA_AWA_CON	56	Rpleas_acq	Oppo	Rpleas	Amasked	CS_A	1pleas	distractor2	EVAbeforeCON	acq_US_pleas_masked	acq45_masked	5	1	400	1	300	300	0	0	402	50	0	1	0	0	0	1	blank2r.bmp	0	1	+	0	7	C3r.bmp	492	1	blank2r.bmp	786	1	CPLW	786	1	blank2r.bmp	866	1	kreativ	866	1	!	1239	1	!	1306	0	0	0	0	0	0	0	0	0	0	0	0	0	0	0	0	0	0	0	0	0	0	0	0	0	0	0
011019	11:32:34	11:41:51	555713	5.0.10.0	4_exp_AMP_EVA_AWA_CON	56	Rpleas_acq	Oppo	Rpleas	Amasked	CS_A	1pleas	distractor2	EVAbeforeCON	acq_US_pleas_masked	acq45_masked	5	2	400	1	300	300	0	0	346	50	0	1	0	0	0	1	blank2r.bmp	0	1	+	0	2	B2r.bmp	492	1	blank2r.bmp	786	1	CPLW	786	1	blank2r.bmp	866	6	träumen	866	1	!	1239	1	!	1252	0	0	0	0	0	0	0	0	0	0	0	0	0	0	0	0	0	0	0	0	0	0	0	0	0	0	0
011019	11:32:34	11:41:53	557872	5.0.10.0	4_exp_AMP_EVA_AWA_CON	56	Rpleas_acq	Oppo	Rpleas	Amasked	CS_A	1pleas	distractor2	EVAbeforeCON	acq_US_unple_masked	acq45_masked	5	3	400	1	300	300	0	0	368	46	0	1	0	0	0	1	blank2r.bmp	0	1	+	0	1	B1r.bmp	492	1	blank2r.bmp	786	1	DHJF	786	1	blank2r.bmp	866	3	ausrottung	866	1	!	1239	1	!	1266	0	0	0	0	0	0	0	0	0	0	0	0	0	0	0	0	0	0	0	0	0	0	0	0	0	0	0
011019	11:32:34	11:41:55	559924	5.0.10.0	4_exp_AMP_EVA_AWA_CON	56	Rpleas_acq	Oppo	Rpleas	Amasked	CS_A	1pleas	distractor2	EVAbeforeCON	acq_US_unple_masked	acq45_masked	5	4	400	0	300	300	0	0	281	46	0	1	0	0	0	1	blank2r.bmp	0	1	+	0	4	B4r.bmp	492	1	blank2r.bmp	786	1	DHJF	786	1	blank2r.bmp	866	1	krank	866	1	!	-1	1	!	-1	0	0	0	0	0	0	0	0	0	0	0	0	0	0	0	0	0	0	0	0	0	0	0	0	0	0	0
011019	11:32:34	11:41:57	562003	5.0.10.0	4_exp_AMP_EVA_AWA_CON	56	Rpleas_acq	Oppo	Rpleas	Amasked	CS_A	1pleas	distractor2	EVAbeforeCON	acq_US_unple_masked	acq45_masked	5	5	400	0	300	300	0	0	303	50	0	0	0	0	0	1	blank2r.bmp	0	1	+	0	8	C4r.bmp	492	1	blank2r.bmp	786	1	DHJF	786	1	blank2r.bmp	866	2	verbissen	866	1	!	-1	1	!	-1	0	0	0	0	0	0	0	0	0	0	0	0	0	0	0	0	0	0	0	0	0	0	0	0	0	0	0
011019	11:32:34	11:41:59	564216	5.0.10.0	4_exp_AMP_EVA_AWA_CON	56	Rpleas_acq	Oppo	Rpleas	Amasked	CS_A	1pleas	distractor2	EVAbeforeCON	acq_US_unple_masked	acq45_masked	5	6	400	1	300	300	0	0	407	46	0	1	0	0	0	1	blank2r.bmp	0	1	+	0	3	B3r.bmp	492	1	blank2r.bmp	786	1	DHJF	786	1	blank2r.bmp	866	4	gierig	866	1	!	1239	1	!	1306	0	0	0	0	0	0	0	0	0	0	0	0	0	0	0	0	0	0	0	0	0	0	0	0	0	0	0
011019	11:32:34	11:42:01	566308	5.0.10.0	4_exp_AMP_EVA_AWA_CON	56	Rpleas_acq	Oppo	Rpleas	Amasked	CS_A	1pleas	distractor2	EVAbeforeCON	acq_US_unple_masked	acq45_masked	5	7	400	0	300	300	0	0	325	50	0	0	0	0	0	1	blank2r.bmp	0	1	+	0	6	C2r.bmp	492	1	blank2r.bmp	786	1	DHJF	786	1	blank2r.bmp	866	5	bange	866	1	!	-1	1	!	-1	0	0	0	0	0	0	0	0	0	0	0	0	0	0	0	0	0	0	0	0	0	0	0	0	0	0	0
011019	11:32:34	11:42:03	568560	5.0.10.0	4_exp_AMP_EVA_AWA_CON	56	Rpleas_acq	Oppo	Rpleas	Amasked	CS_A	1pleas	distractor2	EVAbeforeCON	acq_US_unple_masked	acq45_masked	5	8	400	1	300	300	0	0	438	46	0	1	0	0	0	1	blank2r.bmp	0	1	+	0	5	C1r.bmp	492	1	blank2r.bmp	786	1	DHJF	786	1	blank2r.bmp	866	6	töten	866	1	!	1239	1	!	1346	0	0	0	0	0	0	0	0	0	0	0	0	0	0	0	0	0	0	0	0	0	0	0	0	0	0	0
011019	11:32:34	11:42:05	570653	5.0.10.0	4_exp_AMP_EVA_AWA_CON	56	Rpleas_acq	Oppo	Rpleas	Amasked	CS_A	1pleas	distractor2	EVAbeforeCON	acq_US_unple_masked	acq45_masked	5	9	400	0	300	300	0	0	318	46	0	1	0	0	0	1	blank2r.bmp	0	1	+	0	2	B2r.bmp	492	1	blank2r.bmp	786	1	DHJF	786	1	blank2r.bmp	866	6	töten	866	1	!	-1	1	!	-1	0	0	0	0	0	0	0	0	0	0	0	0	0	0	0	0	0	0	0	0	0	0	0	0	0	0	0
011019	11:32:34	11:42:08	572932	5.0.10.0	4_exp_AMP_EVA_AWA_CON	56	Rpleas_acq	Oppo	Rpleas	Amasked	CS_A	1pleas	distractor2	EVAbeforeCON	acq_US_unple_masked	acq45_masked	5	10	400	0	300	300	0	0	479	46	0	1	0	0	0	1	blank2r.bmp	0	1	+	0	5	C1r.bmp	492	1	blank2r.bmp	786	1	DHJF	786	1	blank2r.bmp	866	3	ausrottung	866	1	!	1239	1	!	-1	0	0	0	0	0	0	0	0	0	0	0	0	0	0	0	0	0	0	0	0	0	0	0	0	0	0	0
011019	11:32:34	11:42:10	575144	5.0.10.0	4_exp_AMP_EVA_AWA_CON	56	Rpleas_acq	Oppo	Rpleas	Amasked	CS_A	1pleas	distractor2	EVAbeforeCON	acq_US_pleas_masked	acq45_masked	5	11	400	1	300	300	0	0	392	46	0	0	0	0	0	1	blank2r.bmp	0	1	+	0	3	B3r.bmp	492	1	blank2r.bmp	786	1	CPLW	786	1	blank2r.bmp	866	4	gütig	866	1	!	1239	1	!	1292	0	0	0	0	0	0	0	0	0	0	0	0	0	0	0	0	0	0	0	0	0	0	0	0	0	0	0
011019	11:32:34	11:42:12	577317	5.0.10.0	4_exp_AMP_EVA_AWA_CON	56	Rpleas_acq	Oppo	Rpleas	Amasked	CS_A	1pleas	distractor2	EVAbeforeCON	acq_US_pleas_masked	acq45_masked	5	12	400	1	300	300	0	0	371	50	0	1	0	0	0	1	blank2r.bmp	0	1	+	0	8	C4r.bmp	492	1	blank2r.bmp	786	1	CPLW	786	1	blank2r.bmp	866	5	besonnen	866	1	!	1239	1	!	1266	0	0	0	0	0	0	0	0	0	0	0	0	0	0	0	0	0	0	0	0	0	0	0	0	0	0	0
011019	11:32:34	11:42:14	579503	5.0.10.0	4_exp_AMP_EVA_AWA_CON	56	Rpleas_acq	Oppo	Rpleas	Amasked	CS_A	1pleas	distractor2	EVAbeforeCON	acq_US_pleas_masked	acq45_masked	5	13	400	1	300	300	0	0	391	50	0	1	0	0	0	1	blank2r.bmp	0	1	+	0	7	C3r.bmp	492	1	blank2r.bmp	786	1	CPLW	786	1	blank2r.bmp	866	2	vergnügt	866	1	!	1239	1	!	1292	0	0	0	0	0	0	0	0	0	0	0	0	0	0	0	0	0	0	0	0	0	0	0	0	0	0	0
011019	11:32:34	11:42:17	581755	5.0.10.0	4_exp_AMP_EVA_AWA_CON	56	Rpleas_acq	Oppo	Rpleas	Amasked	CS_A	1pleas	distractor2	EVAbeforeCON	acq_US_pleas_masked	acq45_masked	5	14	400	0	300	300	0	0	491	46	0	0	0	0	0	1	blank2r.bmp	0	1	+	0	4	B4r.bmp	492	1	blank2r.bmp	786	1	CPLW	786	1	blank2r.bmp	866	3	anregung	866	1	!	1239	1	!	-1	0	0	0	0	0	0	0	0	0	0	0	0	0	0	0	0	0	0	0	0	0	0	0	0	0	0	0
011019	11:32:34	11:42:19	584021	5.0.10.0	4_exp_AMP_EVA_AWA_CON	56	Rpleas_acq	Oppo	Rpleas	Amasked	CS_A	1pleas	distractor2	EVAbeforeCON	acq_US_pleas_masked	acq45_masked	5	15	400	0	300	300	0	0	479	50	0	1	0	0	0	1	blank2r.bmp	0	1	+	0	6	C2r.bmp	492	1	blank2r.bmp	786	1	CPLW	786	1	blank2r.bmp	866	6	träumen	866	1	!	1239	1	!	-1	0	0	0	0	0	0	0	0	0	0	0	0	0	0	0	0	0	0	0	0	0	0	0	0	0	0	0
011019	11:32:34	11:42:21	586220	5.0.10.0	4_exp_AMP_EVA_AWA_CON	56	Rpleas_acq	Oppo	Rpleas	Amasked	CS_A	1pleas	distractor2	EVAbeforeCON	acq_US_pleas_masked	acq45_masked	5	16	400	1	300	300	0	0	388	50	0	1	0	0	0	1	blank2r.bmp	0	1	+	0	1	B1r.bmp	492	1	blank2r.bmp	786	1	CPLW	786	1	blank2r.bmp	866	3	anregung	866	1	!	1239	1	!	1292	0	0	0	0	0	0	0	0	0	0	0	0	0	0	0	0	0	0	0	0	0	0	0	0	0	0	0
011019	11:32:34	11:42:23	588392	5.0.10.0	4_exp_AMP_EVA_AWA_CON	56	Rpleas_acq	Oppo	Rpleas	Amasked	CS_A	1pleas	distractor2	EVAbeforeCON	acq_US_unple_masked	acq45_masked	5	17	400	1	300	300	0	0	371	46	0	1	0	0	0	1	blank2r.bmp	0	1	+	0	4	B4r.bmp	492	1	blank2r.bmp	786	1	DHJF	786	1	blank2r.bmp	866	1	krank	866	1	!	1239	1	!	1266	0	0	0	0	0	0	0	0	0	0	0	0	0	0	0	0	0	0	0	0	0	0	0	0	0	0	0
011019	11:32:34	11:42:25	590671	5.0.10.0	4_exp_AMP_EVA_AWA_CON	56	Rpleas_acq	Oppo	Rpleas	Amasked	CS_A	1pleas	distractor2	EVAbeforeCON	acq_US_pleas_masked	acq45_masked	5	18	400	0	300	300	0	0	505	50	0	1	0	0	0	1	blank2r.bmp	0	1	+	0	3	B3r.bmp	492	1	blank2r.bmp	786	1	CPLW	786	1	blank2r.bmp	866	1	kreativ	866	1	!	1239	1	!	-1	0	0	0	0	0	0	0	0	0	0	0	0	0	0	0	0	0	0	0	0	0	0	0	0	0	0	0
011019	11:32:34	11:42:28	592710	5.0.10.0	4_exp_AMP_EVA_AWA_CON	56	Rpleas_acq	Oppo	Rpleas	Amasked	CS_A	1pleas	distractor2	EVAbeforeCON	acq_US_pleas_masked	acq45_masked	5	19	400	0	300	300	0	0	260	50	0	1	0	0	0	1	blank2r.bmp	0	1	+	0	8	C4r.bmp	492	1	blank2r.bmp	786	1	CPLW	786	1	blank2r.bmp	866	2	vergnügt	866	1	!	-1	1	!	-1	0	0	0	0	0	0	0	0	0	0	0	0	0	0	0	0	0	0	0	0	0	0	0	0	0	0	0
011019	11:32:34	11:42:30	594816	5.0.10.0	4_exp_AMP_EVA_AWA_CON	56	Rpleas_acq	Oppo	Rpleas	Amasked	CS_A	1pleas	distractor2	EVAbeforeCON	acq_US_unple_masked	acq45_masked	5	20	400	0	300	300	0	0	326	46	0	1	0	0	0	1	blank2r.bmp	0	1	+	0	7	C3r.bmp	492	1	blank2r.bmp	786	1	DHJF	786	1	blank2r.bmp	866	5	bange	866	1	!	-1	1	!	-1	0	0	0	0	0	0	0	0	0	0	0	0	0	0	0	0	0	0	0	0	0	0	0	0	0	0	0
011019	11:32:34	11:42:32	597162	5.0.10.0	4_exp_AMP_EVA_AWA_CON	56	Rpleas_acq	Oppo	Rpleas	Amasked	CS_A	1pleas	distractor2	EVAbeforeCON	acq_US_unple_masked	acq45_masked	5	21	400	0	300	300	0	0	560	46	0	1	0	0	0	1	blank2r.bmp	0	1	+	0	5	C1r.bmp	492	1	blank2r.bmp	786	1	DHJF	786	1	blank2r.bmp	866	4	gierig	866	1	!	1239	1	!	-1	0	0	0	0	0	0	0	0	0	0	0	0	0	0	0	0	0	0	0	0	0	0	0	0	0	0	0
011019	11:32:34	11:42:34	599361	5.0.10.0	4_exp_AMP_EVA_AWA_CON	56	Rpleas_acq	Oppo	Rpleas	Amasked	CS_A	1pleas	distractor2	EVAbeforeCON	acq_US_pleas_masked	acq45_masked	5	22	400	1	300	300	0	0	386	50	0	1	0	0	0	1	blank2r.bmp	0	1	+	0	2	B2r.bmp	492	1	blank2r.bmp	786	1	CPLW	786	1	blank2r.bmp	866	4	gütig	866	1	!	1239	1	!	1292	0	0	0	0	0	0	0	0	0	0	0	0	0	0	0	0	0	0	0	0	0	0	0	0	0	0	0
011019	11:32:34	11:42:36	601600	5.0.10.0	4_exp_AMP_EVA_AWA_CON	56	Rpleas_acq	Oppo	Rpleas	Amasked	CS_A	1pleas	distractor2	EVAbeforeCON	acq_US_pleas_masked	acq45_masked	5	23	400	1	300	300	0	0	449	50	0	1	0	0	0	1	blank2r.bmp	0	1	+	0	1	B1r.bmp	492	1	blank2r.bmp	786	1	CPLW	786	1	blank2r.bmp	866	5	besonnen	866	1	!	1239	1	!	1346	0	0	0	0	0	0	0	0	0	0	0	0	0	0	0	0	0	0	0	0	0	0	0	0	0	0	0
011019	11:32:34	11:42:39	603839	5.0.10.0	4_exp_AMP_EVA_AWA_CON	56	Rpleas_acq	Oppo	Rpleas	Amasked	CS_A	1pleas	distractor2	EVAbeforeCON	acq_US_unple_masked	acq45_masked	5	24	400	1	300	300	0	0	448	46	0	1	0	0	0	1	blank2r.bmp	0	1	+	0	6	C2r.bmp	492	1	blank2r.bmp	786	1	DHJF	786	1	blank2r.bmp	866	2	verbissen	866	1	!	1239	1	!	1346	0	0	0	0	0	0	0	0	0	0	0	0	0	0	0	0	0	0	0	0	0	0	0	0	0	0	0
011019	11:32:34	11:42:41	606118	5.0.10.0	4_exp_AMP_EVA_AWA_CON	56	Rpleas_acq	Oppo	Rpleas	Amasked	CS_A	1pleas	distractor2	EVAbeforeCON	acq_US_pleas_masked	acq45_masked	5	25	400	0	300	300	0	0	513	50	0	1	0	0	0	1	blank2r.bmp	0	1	+	0	8	C4r.bmp	492	1	blank2r.bmp	786	1	CPLW	786	1	blank2r.bmp	866	4	gütig	866	1	!	1239	1	!	-1	0	0	0	0	0	0	0	0	0	0	0	0	0	0	0	0	0	0	0	0	0	0	0	0	0	0	0
011019	11:32:34	11:42:43	608370	5.0.10.0	4_exp_AMP_EVA_AWA_CON	56	Rpleas_acq	Oppo	Rpleas	Amasked	CS_A	1pleas	distractor2	EVAbeforeCON	acq_US_unple_masked	acq45_masked	5	26	400	1	300	300	0	0	439	46	0	1	0	0	0	1	blank2r.bmp	0	1	+	0	2	B2r.bmp	492	1	blank2r.bmp	786	1	DHJF	786	1	blank2r.bmp	866	5	bange	866	1	!	1239	1	!	1346	0	0	0	0	0	0	0	0	0	0	0	0	0	0	0	0	0	0	0	0	0	0	0	0	0	0	0
011019	11:32:34	11:42:45	610636	5.0.10.0	4_exp_AMP_EVA_AWA_CON	56	Rpleas_acq	Oppo	Rpleas	Amasked	CS_A	1pleas	distractor2	EVAbeforeCON	acq_US_unple_masked	acq45_masked	5	27	400	1	300	300	0	0	459	46	0	1	0	0	0	1	blank2r.bmp	0	1	+	0	6	C2r.bmp	492	1	blank2r.bmp	786	1	DHJF	786	1	blank2r.bmp	866	1	krank	866	1	!	1239	1	!	1359	0	0	0	0	0	0	0	0	0	0	0	0	0	0	0	0	0	0	0	0	0	0	0	0	0	0	0
011019	11:32:34	11:42:48	612888	5.0.10.0	4_exp_AMP_EVA_AWA_CON	56	Rpleas_acq	Oppo	Rpleas	Amasked	CS_A	1pleas	distractor2	EVAbeforeCON	acq_US_pleas_masked	acq45_masked	5	28	400	1	300	300	0	0	460	50	0	1	0	0	0	1	blank2r.bmp	0	1	+	0	1	B1r.bmp	492	1	blank2r.bmp	786	1	CPLW	786	1	blank2r.bmp	866	2	vergnügt	866	1	!	1239	1	!	1359	0	0	0	0	0	0	0	0	0	0	0	0	0	0	0	0	0	0	0	0	0	0	0	0	0	0	0
011019	11:32:34	11:42:50	615088	5.0.10.0	4_exp_AMP_EVA_AWA_CON	56	Rpleas_acq	Oppo	Rpleas	Amasked	CS_A	1pleas	distractor2	EVAbeforeCON	acq_US_pleas_masked	acq45_masked	5	29	400	1	300	300	0	0	407	50	0	1	0	0	0	1	blank2r.bmp	0	1	+	0	4	B4r.bmp	492	1	blank2r.bmp	786	1	CPLW	786	1	blank2r.bmp	866	3	anregung	866	1	!	1239	1	!	1306	0	0	0	0	0	0	0	0	0	0	0	0	0	0	0	0	0	0	0	0	0	0	0	0	0	0	0
011019	11:32:34	11:42:52	617327	5.0.10.0	4_exp_AMP_EVA_AWA_CON	56	Rpleas_acq	Oppo	Rpleas	Amasked	CS_A	1pleas	distractor2	EVAbeforeCON	acq_US_unple_masked	acq45_masked	5	30	400	1	300	300	0	0	450	46	0	1	0	0	0	1	blank2r.bmp	0	1	+	0	7	C3r.bmp	492	1	blank2r.bmp	786	1	DHJF	786	1	blank2r.bmp	866	4	gierig	866	1	!	1239	1	!	1346	0	0	0	0	0	0	0	0	0	0	0	0	0	0	0	0	0	0	0	0	0	0	0	0	0	0	0
011019	11:32:34	11:42:54	619659	5.0.10.0	4_exp_AMP_EVA_AWA_CON	56	Rpleas_acq	Oppo	Rpleas	Amasked	CS_A	1pleas	distractor2	EVAbeforeCON	acq_US_pleas_masked	acq45_masked	5	31	400	0	300	300	0	0	554	50	0	1	0	0	0	1	blank2r.bmp	0	1	+	0	5	C1r.bmp	492	1	blank2r.bmp	786	1	CPLW	786	1	blank2r.bmp	866	5	besonnen	866	1	!	1239	1	!	-1	0	0	0	0	0	0	0	0	0	0	0	0	0	0	0	0	0	0	0	0	0	0	0	0	0	0	0
011019	11:32:34	11:42:57	621725	5.0.10.0	4_exp_AMP_EVA_AWA_CON	56	Rpleas_acq	Oppo	Rpleas	Amasked	CS_A	1pleas	distractor2	EVAbeforeCON	acq_US_unple_masked	acq45_masked	5	32	400	0	300	300	0	0	285	50	0	0	0	0	0	1	blank2r.bmp	0	1	+	0	3	B3r.bmp	492	1	blank2r.bmp	786	1	DHJF	786	1	blank2r.bmp	866	3	ausrottung	866	1	!	-1	1	!	-1	0	0	0	0	0	0	0	0	0	0	0	0	0	0	0	0	0	0	0	0	0	0	0	0	0	0	0
011019	11:32:34	11:42:59	623990	5.0.10.0	4_exp_AMP_EVA_AWA_CON	56	Rpleas_acq	Oppo	Rpleas	Amasked	CS_A	1pleas	distractor2	EVAbeforeCON	acq_US_unple_masked	acq45_masked	5	33	400	0	300	300	0	0	479	50	0	0	0	0	0	1	blank2r.bmp	0	1	+	0	1	B1r.bmp	492	1	blank2r.bmp	786	1	DHJF	786	1	blank2r.bmp	866	6	töten	866	1	!	1239	1	!	-1	0	0	0	0	0	0	0	0	0	0	0	0	0	0	0	0	0	0	0	0	0	0	0	0	0	0	0
011019	11:32:34	11:43:01	626270	5.0.10.0	4_exp_AMP_EVA_AWA_CON	56	Rpleas_acq	Oppo	Rpleas	Amasked	CS_A	1pleas	distractor2	EVAbeforeCON	acq_US_unple_masked	acq45_masked	5	34	400	1	300	300	0	0	462	46	0	1	0	0	0	1	blank2r.bmp	0	1	+	0	4	B4r.bmp	492	1	blank2r.bmp	786	1	DHJF	786	1	blank2r.bmp	866	2	verbissen	866	1	!	1239	1	!	1359	0	0	0	0	0	0	0	0	0	0	0	0	0	0	0	0	0	0	0	0	0	0	0	0	0	0	0
011019	11:32:34	11:43:03	628629	5.0.10.0	4_exp_AMP_EVA_AWA_CON	56	Rpleas_acq	Oppo	Rpleas	Amasked	CS_A	1pleas	distractor2	EVAbeforeCON	acq_US_pleas_masked	acq45_masked	5	35	400	0	300	300	0	0	597	50	0	1	0	0	0	1	blank2r.bmp	0	1	+	0	2	B2r.bmp	492	1	blank2r.bmp	786	1	CPLW	786	1	blank2r.bmp	866	1	kreativ	866	1	!	1239	1	!	-1	0	0	0	0	0	0	0	0	0	0	0	0	0	0	0	0	0	0	0	0	0	0	0	0	0	0	0
011019	11:32:34	11:43:06	630708	5.0.10.0	4_exp_AMP_EVA_AWA_CON	56	Rpleas_acq	Oppo	Rpleas	Amasked	CS_A	1pleas	distractor2	EVAbeforeCON	acq_US_pleas_masked	acq45_masked	5	36	400	0	300	300	0	0	301	46	0	0	0	0	0	1	blank2r.bmp	0	1	+	0	6	C2r.bmp	492	1	blank2r.bmp	786	1	CPLW	786	1	blank2r.bmp	866	6	träumen	866	1	!	-1	1	!	-1	0	0	0	0	0	0	0	0	0	0	0	0	0	0	0	0	0	0	0	0	0	0	0	0	0	0	0
011019	11:32:34	11:43:55	679820	5.0.10.0	4_exp_AMP_EVA_AWA_CON	56	Rpleas_acq	Oppo	Lpleas	Amasked	CS_A	1pleas	distractor2	EVAbeforeCON	AMP_CSpleas	AMP1_masked	6	1	0	0	300	300	0	0	4225	50	0	0	0	0	0	1	blank2r.bmp	0	1	CPLW	0	1	blank2r.bmp	79	29	pic29.bmp	199	1	whitenoise_No3.bmp	306	0	0	0	0	0	0	0	0	0	0	0	0	0	0	0	0	0	0	0	0	0	0	0	0	0	0	0	0	0	0	0	0	0	0	0	0	0	0	0
011019	11:32:34	11:43:58	682886	5.0.10.0	4_exp_AMP_EVA_AWA_CON	56	Rpleas_acq	Oppo	Lpleas	Amasked	CS_A	1pleas	distractor2	EVAbeforeCON	AMP_distractor	AMP1_masked	6	2	0	0	300	300	0	0	2142	46	0	0	0	0	0	1	blank2r.bmp	0	1	QYSB	0	1	blank2r.bmp	79	63	pic63.bmp	199	1	whitenoise_No3.bmp	306	0	0	0	0	0	0	0	0	0	0	0	0	0	0	0	0	0	0	0	0	0	0	0	0	0	0	0	0	0	0	0	0	0	0	0	0	0	0	0
011019	11:32:34	11:44:00	685485	5.0.10.0	4_exp_AMP_EVA_AWA_CON	56	Rpleas_acq	Oppo	Lpleas	Amasked	CS_A	1pleas	distractor2	EVAbeforeCON	AMP_CSpleas	AMP1_masked	6	3	0	0	300	300	0	0	1676	50	0	0	0	0	0	1	blank2r.bmp	0	1	CPLW	0	1	blank2r.bmp	79	150	pic150.bmp	199	1	whitenoise_No3.bmp	306	0	0	0	0	0	0	0	0	0	0	0	0	0	0	0	0	0	0	0	0	0	0	0	0	0	0	0	0	0	0	0	0	0	0	0	0	0	0	0
011019	11:32:34	11:44:02	687524	5.0.10.0	4_exp_AMP_EVA_AWA_CON	56	Rpleas_acq	Oppo	Lpleas	Amasked	CS_A	1pleas	distractor2	EVAbeforeCON	AMP_distractor	AMP1_masked	6	4	0	0	300	300	0	0	1127	50	0	0	0	0	0	1	blank2r.bmp	0	1	QYSB	0	1	blank2r.bmp	79	19	pic19.bmp	199	1	whitenoise_No3.bmp	306	0	0	0	0	0	0	0	0	0	0	0	0	0	0	0	0	0	0	0	0	0	0	0	0	0	0	0	0	0	0	0	0	0	0	0	0	0	0	0
011019	11:32:34	11:44:04	689256	5.0.10.0	4_exp_AMP_EVA_AWA_CON	56	Rpleas_acq	Oppo	Lpleas	Amasked	CS_A	1pleas	distractor2	EVAbeforeCON	AMP_distractor	AMP1_masked	6	5	0	0	300	300	0	0	807	46	0	0	0	0	0	1	blank2r.bmp	0	1	QYSB	0	1	blank2r.bmp	79	46	pic46.bmp	199	1	whitenoise_No3.bmp	306	0	0	0	0	0	0	0	0	0	0	0	0	0	0	0	0	0	0	0	0	0	0	0	0	0	0	0	0	0	0	0	0	0	0	0	0	0	0	0
011019	11:32:34	11:44:06	691149	5.0.10.0	4_exp_AMP_EVA_AWA_CON	56	Rpleas_acq	Oppo	Lpleas	Amasked	CS_A	1pleas	distractor2	EVAbeforeCON	AMP_distractor	AMP1_masked	6	6	0	0	300	300	0	0	964	50	0	0	0	0	0	1	blank2r.bmp	0	1	QYSB	0	1	blank2r.bmp	79	55	pic55.bmp	199	1	whitenoise_No3.bmp	306	0	0	0	0	0	0	0	0	0	0	0	0	0	0	0	0	0	0	0	0	0	0	0	0	0	0	0	0	0	0	0	0	0	0	0	0	0	0	0
011019	11:32:34	11:44:08	693161	5.0.10.0	4_exp_AMP_EVA_AWA_CON	56	Rpleas_acq	Oppo	Lpleas	Amasked	CS_A	1pleas	distractor2	EVAbeforeCON	AMP_CSpleas	AMP1_masked	6	7	0	0	300	300	0	0	1094	50	0	0	0	0	0	1	blank2r.bmp	0	1	CPLW	0	1	blank2r.bmp	79	81	pic81.bmp	199	1	whitenoise_No3.bmp	306	0	0	0	0	0	0	0	0	0	0	0	0	0	0	0	0	0	0	0	0	0	0	0	0	0	0	0	0	0	0	0	0	0	0	0	0	0	0	0
011019	11:32:34	11:44:10	695081	5.0.10.0	4_exp_AMP_EVA_AWA_CON	56	Rpleas_acq	Oppo	Lpleas	Amasked	CS_A	1pleas	distractor2	EVAbeforeCON	AMP_CSunple	AMP1_masked	6	8	0	0	300	300	0	0	998	46	0	0	0	0	0	1	blank2r.bmp	0	1	DHJF	0	1	blank2r.bmp	79	103	pic103.bmp	199	1	whitenoise_No3.bmp	306	0	0	0	0	0	0	0	0	0	0	0	0	0	0	0	0	0	0	0	0	0	0	0	0	0	0	0	0	0	0	0	0	0	0	0	0	0	0	0
011019	11:32:34	11:44:11	696653	5.0.10.0	4_exp_AMP_EVA_AWA_CON	56	Rpleas_acq	Oppo	Lpleas	Amasked	CS_A	1pleas	distractor2	EVAbeforeCON	AMP_CSunple	AMP1_masked	6	9	0	0	300	300	0	0	663	50	0	1	0	0	0	1	blank2r.bmp	0	1	DHJF	0	1	blank2r.bmp	79	56	pic56.bmp	199	1	whitenoise_No3.bmp	306	0	0	0	0	0	0	0	0	0	0	0	0	0	0	0	0	0	0	0	0	0	0	0	0	0	0	0	0	0	0	0	0	0	0	0	0	0	0	0
011019	11:32:34	11:44:14	698866	5.0.10.0	4_exp_AMP_EVA_AWA_CON	56	Rpleas_acq	Oppo	Lpleas	Amasked	CS_A	1pleas	distractor2	EVAbeforeCON	AMP_CSunple	AMP1_masked	6	10	0	0	300	300	0	0	1293	46	0	0	0	0	0	1	blank2r.bmp	0	1	DHJF	0	1	blank2r.bmp	79	10	pic10.bmp	199	1	whitenoise_No3.bmp	306	0	0	0	0	0	0	0	0	0	0	0	0	0	0	0	0	0	0	0	0	0	0	0	0	0	0	0	0	0	0	0	0	0	0	0	0	0	0	0
011019	11:32:34	11:44:16	700945	5.0.10.0	4_exp_AMP_EVA_AWA_CON	56	Rpleas_acq	Oppo	Lpleas	Amasked	CS_A	1pleas	distractor2	EVAbeforeCON	AMP_CSpleas	AMP1_masked	6	11	0	0	300	300	0	0	1154	50	0	0	0	0	0	1	blank2r.bmp	0	1	CPLW	0	1	blank2r.bmp	79	13	pic13.bmp	199	1	whitenoise_No3.bmp	306	0	0	0	0	0	0	0	0	0	0	0	0	0	0	0	0	0	0	0	0	0	0	0	0	0	0	0	0	0	0	0	0	0	0	0	0	0	0	0
011019	11:32:34	11:44:18	703064	5.0.10.0	4_exp_AMP_EVA_AWA_CON	56	Rpleas_acq	Oppo	Lpleas	Amasked	CS_A	1pleas	distractor2	EVAbeforeCON	AMP_distractor	AMP1_masked	6	12	0	0	300	300	0	0	1208	46	0	0	0	0	0	1	blank2r.bmp	0	1	QYSB	0	1	blank2r.bmp	79	12	pic12.bmp	199	1	whitenoise_No3.bmp	306	0	0	0	0	0	0	0	0	0	0	0	0	0	0	0	0	0	0	0	0	0	0	0	0	0	0	0	0	0	0	0	0	0	0	0	0	0	0	0
011019	11:32:34	11:44:20	704743	5.0.10.0	4_exp_AMP_EVA_AWA_CON	56	Rpleas_acq	Oppo	Lpleas	Amasked	CS_A	1pleas	distractor2	EVAbeforeCON	AMP_CSpleas	AMP1_masked	6	13	0	0	300	300	0	0	753	50	0	0	0	0	0	1	blank2r.bmp	0	1	CPLW	0	1	blank2r.bmp	79	59	pic59.bmp	199	1	whitenoise_No3.bmp	306	0	0	0	0	0	0	0	0	0	0	0	0	0	0	0	0	0	0	0	0	0	0	0	0	0	0	0	0	0	0	0	0	0	0	0	0	0	0	0
011019	11:32:34	11:44:21	706463	5.0.10.0	4_exp_AMP_EVA_AWA_CON	56	Rpleas_acq	Oppo	Lpleas	Amasked	CS_A	1pleas	distractor2	EVAbeforeCON	AMP_distractor	AMP1_masked	6	14	0	0	300	300	0	0	797	46	0	0	0	0	0	1	blank2r.bmp	0	1	QYSB	0	1	blank2r.bmp	79	32	pic32.bmp	199	1	whitenoise_No3.bmp	306	0	0	0	0	0	0	0	0	0	0	0	0	0	0	0	0	0	0	0	0	0	0	0	0	0	0	0	0	0	0	0	0	0	0	0	0	0	0	0
011019	11:32:34	11:44:23	708049	5.0.10.0	4_exp_AMP_EVA_AWA_CON	56	Rpleas_acq	Oppo	Lpleas	Amasked	CS_A	1pleas	distractor2	EVAbeforeCON	AMP_CSpleas	AMP1_masked	6	15	0	0	300	300	0	0	664	50	0	0	0	0	0	1	blank2r.bmp	0	1	CPLW	0	1	blank2r.bmp	79	15	pic15.bmp	199	1	whitenoise_No3.bmp	306	0	0	0	0	0	0	0	0	0	0	0	0	0	0	0	0	0	0	0	0	0	0	0	0	0	0	0	0	0	0	0	0	0	0	0	0	0	0	0
011019	11:32:34	11:44:24	709688	5.0.10.0	4_exp_AMP_EVA_AWA_CON	56	Rpleas_acq	Oppo	Lpleas	Amasked	CS_A	1pleas	distractor2	EVAbeforeCON	AMP_CSpleas	AMP1_masked	6	16	0	0	300	300	0	0	707	46	0	1	0	0	0	1	blank2r.bmp	0	1	CPLW	0	1	blank2r.bmp	79	97	pic97.bmp	199	1	whitenoise_No3.bmp	306	0	0	0	0	0	0	0	0	0	0	0	0	0	0	0	0	0	0	0	0	0	0	0	0	0	0	0	0	0	0	0	0	0	0	0	0	0	0	0
011019	11:32:34	11:44:26	711340	5.0.10.0	4_exp_AMP_EVA_AWA_CON	56	Rpleas_acq	Oppo	Lpleas	Amasked	CS_A	1pleas	distractor2	EVAbeforeCON	AMP_CSpleas	AMP1_masked	6	17	0	0	300	300	0	0	734	50	0	0	0	0	0	1	blank2r.bmp	0	1	CPLW	0	1	blank2r.bmp	79	54	pic54.bmp	199	1	whitenoise_No3.bmp	306	0	0	0	0	0	0	0	0	0	0	0	0	0	0	0	0	0	0	0	0	0	0	0	0	0	0	0	0	0	0	0	0	0	0	0	0	0	0	0
011019	11:32:34	11:44:28	713166	5.0.10.0	4_exp_AMP_EVA_AWA_CON	56	Rpleas_acq	Oppo	Lpleas	Amasked	CS_A	1pleas	distractor2	EVAbeforeCON	AMP_CSunple	AMP1_masked	6	18	0	0	300	300	0	0	915	46	0	0	0	0	0	1	blank2r.bmp	0	1	DHJF	0	1	blank2r.bmp	79	27	pic27.bmp	199	1	whitenoise_No3.bmp	306	0	0	0	0	0	0	0	0	0	0	0	0	0	0	0	0	0	0	0	0	0	0	0	0	0	0	0	0	0	0	0	0	0	0	0	0	0	0	0
011019	11:32:34	11:44:30	714872	5.0.10.0	4_exp_AMP_EVA_AWA_CON	56	Rpleas_acq	Oppo	Lpleas	Amasked	CS_A	1pleas	distractor2	EVAbeforeCON	AMP_CSpleas	AMP1_masked	6	19	0	0	300	300	0	0	782	50	0	0	0	0	0	1	blank2r.bmp	0	1	CPLW	0	1	blank2r.bmp	79	20	pic20.bmp	199	1	whitenoise_No3.bmp	306	0	0	0	0	0	0	0	0	0	0	0	0	0	0	0	0	0	0	0	0	0	0	0	0	0	0	0	0	0	0	0	0	0	0	0	0	0	0	0
011019	11:32:34	11:44:31	716672	5.0.10.0	4_exp_AMP_EVA_AWA_CON	56	Rpleas_acq	Oppo	Lpleas	Amasked	CS_A	1pleas	distractor2	EVAbeforeCON	AMP_distractor	AMP1_masked	6	20	0	0	300	300	0	0	875	46	0	0	0	0	0	1	blank2r.bmp	0	1	QYSB	0	1	blank2r.bmp	79	144	pic144.bmp	199	1	whitenoise_No3.bmp	306	0	0	0	0	0	0	0	0	0	0	0	0	0	0	0	0	0	0	0	0	0	0	0	0	0	0	0	0	0	0	0	0	0	0	0	0	0	0	0
011019	11:32:34	11:44:33	718284	5.0.10.0	4_exp_AMP_EVA_AWA_CON	56	Rpleas_acq	Oppo	Lpleas	Amasked	CS_A	1pleas	distractor2	EVAbeforeCON	AMP_CSunple	AMP1_masked	6	21	0	0	300	300	0	0	678	50	0	1	0	0	0	1	blank2r.bmp	0	1	DHJF	0	1	blank2r.bmp	79	72	pic72.bmp	199	1	whitenoise_No3.bmp	306	0	0	0	0	0	0	0	0	0	0	0	0	0	0	0	0	0	0	0	0	0	0	0	0	0	0	0	0	0	0	0	0	0	0	0	0	0	0	0
011019	11:32:34	11:44:35	720363	5.0.10.0	4_exp_AMP_EVA_AWA_CON	56	Rpleas_acq	Oppo	Lpleas	Amasked	CS_A	1pleas	distractor2	EVAbeforeCON	AMP_CSunple	AMP1_masked	6	22	0	0	300	300	0	0	1170	50	0	1	0	0	0	1	blank2r.bmp	0	1	DHJF	0	1	blank2r.bmp	79	115	pic115.bmp	199	1	whitenoise_No3.bmp	306	0	0	0	0	0	0	0	0	0	0	0	0	0	0	0	0	0	0	0	0	0	0	0	0	0	0	0	0	0	0	0	0	0	0	0	0	0	0	0
011019	11:32:34	11:44:37	722083	5.0.10.0	4_exp_AMP_EVA_AWA_CON	56	Rpleas_acq	Oppo	Lpleas	Amasked	CS_A	1pleas	distractor2	EVAbeforeCON	AMP_distractor	AMP1_masked	6	23	0	0	300	300	0	0	791	50	0	0	0	0	0	1	blank2r.bmp	0	1	QYSB	0	1	blank2r.bmp	79	130	pic130.bmp	199	1	whitenoise_No3.bmp	306	0	0	0	0	0	0	0	0	0	0	0	0	0	0	0	0	0	0	0	0	0	0	0	0	0	0	0	0	0	0	0	0	0	0	0	0	0	0	0
011019	11:32:34	11:44:39	724002	5.0.10.0	4_exp_AMP_EVA_AWA_CON	56	Rpleas_acq	Oppo	Lpleas	Amasked	CS_A	1pleas	distractor2	EVAbeforeCON	AMP_CSpleas	AMP1_masked	6	24	0	0	300	300	0	0	998	50	0	0	0	0	0	1	blank2r.bmp	0	1	CPLW	0	1	blank2r.bmp	79	74	pic74.bmp	199	1	whitenoise_No3.bmp	306	0	0	0	0	0	0	0	0	0	0	0	0	0	0	0	0	0	0	0	0	0	0	0	0	0	0	0	0	0	0	0	0	0	0	0	0	0	0	0
011019	11:32:34	11:44:40	725628	5.0.10.0	4_exp_AMP_EVA_AWA_CON	56	Rpleas_acq	Oppo	Lpleas	Amasked	CS_A	1pleas	distractor2	EVAbeforeCON	AMP_CSunple	AMP1_masked	6	25	0	0	300	300	0	0	715	50	0	1	0	0	0	1	blank2r.bmp	0	1	DHJF	0	1	blank2r.bmp	79	152	pic152.bmp	199	1	whitenoise_No3.bmp	306	0	0	0	0	0	0	0	0	0	0	0	0	0	0	0	0	0	0	0	0	0	0	0	0	0	0	0	0	0	0	0	0	0	0	0	0	0	0	0
011019	11:32:34	11:44:43	727694	5.0.10.0	4_exp_AMP_EVA_AWA_CON	56	Rpleas_acq	Oppo	Lpleas	Amasked	CS_A	1pleas	distractor2	EVAbeforeCON	AMP_CSunple	AMP1_masked	6	26	0	0	300	300	0	0	1139	50	0	1	0	0	0	1	blank2r.bmp	0	1	DHJF	0	1	blank2r.bmp	79	125	pic125.bmp	199	1	whitenoise_No3.bmp	306	0	0	0	0	0	0	0	0	0	0	0	0	0	0	0	0	0	0	0	0	0	0	0	0	0	0	0	0	0	0	0	0	0	0	0	0	0	0	0
011019	11:32:34	11:44:44	729306	5.0.10.0	4_exp_AMP_EVA_AWA_CON	56	Rpleas_acq	Oppo	Lpleas	Amasked	CS_A	1pleas	distractor2	EVAbeforeCON	AMP_distractor	AMP1_masked	6	27	0	0	300	300	0	0	684	46	0	0	0	0	0	1	blank2r.bmp	0	1	QYSB	0	1	blank2r.bmp	79	69	pic69.bmp	199	1	whitenoise_No3.bmp	306	0	0	0	0	0	0	0	0	0	0	0	0	0	0	0	0	0	0	0	0	0	0	0	0	0	0	0	0	0	0	0	0	0	0	0	0	0	0	0
011019	11:32:34	11:44:46	731026	5.0.10.0	4_exp_AMP_EVA_AWA_CON	56	Rpleas_acq	Oppo	Lpleas	Amasked	CS_A	1pleas	distractor2	EVAbeforeCON	AMP_CSpleas	AMP1_masked	6	28	0	0	300	300	0	0	803	46	0	1	0	0	0	1	blank2r.bmp	0	1	CPLW	0	1	blank2r.bmp	79	82	pic82.bmp	199	1	whitenoise_No3.bmp	306	0	0	0	0	0	0	0	0	0	0	0	0	0	0	0	0	0	0	0	0	0	0	0	0	0	0	0	0	0	0	0	0	0	0	0	0	0	0	0
011019	11:32:34	11:44:48	732958	5.0.10.0	4_exp_AMP_EVA_AWA_CON	56	Rpleas_acq	Oppo	Lpleas	Amasked	CS_A	1pleas	distractor2	EVAbeforeCON	AMP_CSunple	AMP1_masked	6	29	0	0	300	300	0	0	1018	50	0	1	0	0	0	1	blank2r.bmp	0	1	DHJF	0	1	blank2r.bmp	79	3	pic3.bmp	199	1	whitenoise_No3.bmp	306	0	0	0	0	0	0	0	0	0	0	0	0	0	0	0	0	0	0	0	0	0	0	0	0	0	0	0	0	0	0	0	0	0	0	0	0	0	0	0
011019	11:32:34	11:44:54	739342	5.0.10.0	4_exp_AMP_EVA_AWA_CON	56	Rpleas_acq	Oppo	Lpleas	Amasked	CS_A	1pleas	distractor2	EVAbeforeCON	AMP_CSunple	AMP1_masked	6	30	0	0	300	300	0	0	5466	50	0	1	0	0	0	1	blank2r.bmp	0	1	DHJF	0	1	blank2r.bmp	79	84	pic84.bmp	199	1	whitenoise_No3.bmp	306	0	0	0	0	0	0	0	0	0	0	0	0	0	0	0	0	0	0	0	0	0	0	0	0	0	0	0	0	0	0	0	0	0	0	0	0	0	0	0
011019	11:32:34	11:44:56	741155	5.0.10.0	4_exp_AMP_EVA_AWA_CON	56	Rpleas_acq	Oppo	Lpleas	Amasked	CS_A	1pleas	distractor2	EVAbeforeCON	AMP_CSpleas	AMP1_masked	6	31	0	0	300	300	0	0	903	46	0	1	0	0	0	1	blank2r.bmp	0	1	CPLW	0	1	blank2r.bmp	79	146	pic146.bmp	199	1	whitenoise_No3.bmp	306	0	0	0	0	0	0	0	0	0	0	0	0	0	0	0	0	0	0	0	0	0	0	0	0	0	0	0	0	0	0	0	0	0	0	0	0	0	0	0
011019	11:32:34	11:44:58	742980	5.0.10.0	4_exp_AMP_EVA_AWA_CON	56	Rpleas_acq	Oppo	Lpleas	Amasked	CS_A	1pleas	distractor2	EVAbeforeCON	AMP_distractor	AMP1_masked	6	32	0	0	300	300	0	0	903	46	0	0	0	0	0	1	blank2r.bmp	0	1	QYSB	0	1	blank2r.bmp	79	116	pic116.bmp	199	1	whitenoise_No3.bmp	306	0	0	0	0	0	0	0	0	0	0	0	0	0	0	0	0	0	0	0	0	0	0	0	0	0	0	0	0	0	0	0	0	0	0	0	0	0	0	0
011019	11:32:34	11:45:00	744806	5.0.10.0	4_exp_AMP_EVA_AWA_CON	56	Rpleas_acq	Oppo	Lpleas	Amasked	CS_A	1pleas	distractor2	EVAbeforeCON	AMP_CSunple	AMP1_masked	6	33	0	0	300	300	0	0	899	46	0	0	0	0	0	1	blank2r.bmp	0	1	DHJF	0	1	blank2r.bmp	79	112	pic112.bmp	199	1	whitenoise_No3.bmp	306	0	0	0	0	0	0	0	0	0	0	0	0	0	0	0	0	0	0	0	0	0	0	0	0	0	0	0	0	0	0	0	0	0	0	0	0	0	0	0
011019	11:32:34	11:45:01	746499	5.0.10.0	4_exp_AMP_EVA_AWA_CON	56	Rpleas_acq	Oppo	Lpleas	Amasked	CS_A	1pleas	distractor2	EVAbeforeCON	AMP_CSunple	AMP1_masked	6	34	0	0	300	300	0	0	761	46	0	0	0	0	0	1	blank2r.bmp	0	1	DHJF	0	1	blank2r.bmp	79	95	pic95.bmp	199	1	whitenoise_No3.bmp	306	0	0	0	0	0	0	0	0	0	0	0	0	0	0	0	0	0	0	0	0	0	0	0	0	0	0	0	0	0	0	0	0	0	0	0	0	0	0	0
011019	11:32:34	11:45:03	748112	5.0.10.0	4_exp_AMP_EVA_AWA_CON	56	Rpleas_acq	Oppo	Lpleas	Amasked	CS_A	1pleas	distractor2	EVAbeforeCON	AMP_distractor	AMP1_masked	6	35	0	0	300	300	0	0	693	46	0	0	0	0	0	1	blank2r.bmp	0	1	QYSB	0	1	blank2r.bmp	79	91	pic91.bmp	199	1	whitenoise_No3.bmp	306	0	0	0	0	0	0	0	0	0	0	0	0	0	0	0	0	0	0	0	0	0	0	0	0	0	0	0	0	0	0	0	0	0	0	0	0	0	0	0
011019	11:32:34	11:45:05	749858	5.0.10.0	4_exp_AMP_EVA_AWA_CON	56	Rpleas_acq	Oppo	Lpleas	Amasked	CS_A	1pleas	distractor2	EVAbeforeCON	AMP_distractor	AMP1_masked	6	36	0	0	300	300	0	0	829	46	0	0	0	0	0	1	blank2r.bmp	0	1	QYSB	0	1	blank2r.bmp	79	21	pic21.bmp	199	1	whitenoise_No3.bmp	306	0	0	0	0	0	0	0	0	0	0	0	0	0	0	0	0	0	0	0	0	0	0	0	0	0	0	0	0	0	0	0	0	0	0	0	0	0	0	0
011019	11:32:34	11:45:07	751697	5.0.10.0	4_exp_AMP_EVA_AWA_CON	56	Rpleas_acq	Oppo	Lpleas	Amasked	CS_A	1pleas	distractor2	EVAbeforeCON	AMP_CSunple	AMP1_masked	6	37	0	0	300	300	0	0	922	46	0	0	0	0	0	1	blank2r.bmp	0	1	DHJF	0	1	blank2r.bmp	79	123	pic123.bmp	199	1	whitenoise_No3.bmp	306	0	0	0	0	0	0	0	0	0	0	0	0	0	0	0	0	0	0	0	0	0	0	0	0	0	0	0	0	0	0	0	0	0	0	0	0	0	0	0
011019	11:32:34	11:45:08	753283	5.0.10.0	4_exp_AMP_EVA_AWA_CON	56	Rpleas_acq	Oppo	Lpleas	Amasked	CS_A	1pleas	distractor2	EVAbeforeCON	AMP_CSunple	AMP1_masked	6	38	0	0	300	300	0	0	676	46	0	0	0	0	0	1	blank2r.bmp	0	1	DHJF	0	1	blank2r.bmp	79	90	pic90.bmp	199	1	whitenoise_No3.bmp	306	0	0	0	0	0	0	0	0	0	0	0	0	0	0	0	0	0	0	0	0	0	0	0	0	0	0	0	0	0	0	0	0	0	0	0	0	0	0	0
011019	11:32:34	11:45:10	754869	5.0.10.0	4_exp_AMP_EVA_AWA_CON	56	Rpleas_acq	Oppo	Lpleas	Amasked	CS_A	1pleas	distractor2	EVAbeforeCON	AMP_distractor	AMP1_masked	6	39	0	0	300	300	0	0	648	50	0	0	0	0	0	1	blank2r.bmp	0	1	QYSB	0	1	blank2r.bmp	79	101	pic101.bmp	199	1	whitenoise_No3.bmp	306	0	0	0	0	0	0	0	0	0	0	0	0	0	0	0	0	0	0	0	0	0	0	0	0	0	0	0	0	0	0	0	0	0	0	0	0	0	0	0
011019	11:32:34	11:45:11	756535	5.0.10.0	4_exp_AMP_EVA_AWA_CON	56	Rpleas_acq	Oppo	Lpleas	Amasked	CS_A	1pleas	distractor2	EVAbeforeCON	AMP_CSunple	AMP1_masked	6	40	0	0	300	300	0	0	736	50	0	1	0	0	0	1	blank2r.bmp	0	1	DHJF	0	1	blank2r.bmp	79	86	pic86.bmp	199	1	whitenoise_No3.bmp	306	0	0	0	0	0	0	0	0	0	0	0	0	0	0	0	0	0	0	0	0	0	0	0	0	0	0	0	0	0	0	0	0	0	0	0	0	0	0	0
011019	11:32:34	11:45:13	758454	5.0.10.0	4_exp_AMP_EVA_AWA_CON	56	Rpleas_acq	Oppo	Lpleas	Amasked	CS_A	1pleas	distractor2	EVAbeforeCON	AMP_CSpleas	AMP1_masked	6	41	0	0	300	300	0	0	995	50	0	0	0	0	0	1	blank2r.bmp	0	1	CPLW	0	1	blank2r.bmp	79	99	pic99.bmp	199	1	whitenoise_No3.bmp	306	0	0	0	0	0	0	0	0	0	0	0	0	0	0	0	0	0	0	0	0	0	0	0	0	0	0	0	0	0	0	0	0	0	0	0	0	0	0	0
011019	11:32:34	11:45:15	760000	5.0.10.0	4_exp_AMP_EVA_AWA_CON	56	Rpleas_acq	Oppo	Lpleas	Amasked	CS_A	1pleas	distractor2	EVAbeforeCON	AMP_CSunple	AMP1_masked	6	42	0	0	300	300	0	0	619	50	0	1	0	0	0	1	blank2r.bmp	0	1	DHJF	0	1	blank2r.bmp	79	106	pic106.bmp	199	1	whitenoise_No3.bmp	306	0	0	0	0	0	0	0	0	0	0	0	0	0	0	0	0	0	0	0	0	0	0	0	0	0	0	0	0	0	0	0	0	0	0	0	0	0	0	0
011019	11:32:34	11:45:16	761506	5.0.10.0	4_exp_AMP_EVA_AWA_CON	56	Rpleas_acq	Oppo	Lpleas	Amasked	CS_A	1pleas	distractor2	EVAbeforeCON	AMP_CSpleas	AMP1_masked	6	43	0	0	300	300	0	0	576	46	0	1	0	0	0	1	blank2r.bmp	0	1	CPLW	0	1	blank2r.bmp	79	94	pic94.bmp	199	1	whitenoise_No3.bmp	306	0	0	0	0	0	0	0	0	0	0	0	0	0	0	0	0	0	0	0	0	0	0	0	0	0	0	0	0	0	0	0	0	0	0	0	0	0	0	0
011019	11:32:34	11:45:18	763532	5.0.10.0	4_exp_AMP_EVA_AWA_CON	56	Rpleas_acq	Oppo	Lpleas	Amasked	CS_A	1pleas	distractor2	EVAbeforeCON	AMP_distractor	AMP1_masked	6	44	0	0	300	300	0	0	1116	50	0	0	0	0	0	1	blank2r.bmp	0	1	QYSB	0	1	blank2r.bmp	79	34	pic34.bmp	199	1	whitenoise_No3.bmp	306	0	0	0	0	0	0	0	0	0	0	0	0	0	0	0	0	0	0	0	0	0	0	0	0	0	0	0	0	0	0	0	0	0	0	0	0	0	0	0
011019	11:32:34	11:45:20	765651	5.0.10.0	4_exp_AMP_EVA_AWA_CON	56	Rpleas_acq	Oppo	Lpleas	Amasked	CS_A	1pleas	distractor2	EVAbeforeCON	AMP_CSpleas	AMP1_masked	6	45	0	0	300	300	0	0	1187	50	0	0	0	0	0	1	blank2r.bmp	0	1	CPLW	0	1	blank2r.bmp	79	138	pic138.bmp	199	1	whitenoise_No3.bmp	306	0	0	0	0	0	0	0	0	0	0	0	0	0	0	0	0	0	0	0	0	0	0	0	0	0	0	0	0	0	0	0	0	0	0	0	0	0	0	0
011019	11:32:34	11:45:22	767304	5.0.10.0	4_exp_AMP_EVA_AWA_CON	56	Rpleas_acq	Oppo	Lpleas	Amasked	CS_A	1pleas	distractor2	EVAbeforeCON	AMP_distractor	AMP1_masked	6	46	0	0	300	300	0	0	724	46	0	0	0	0	0	1	blank2r.bmp	0	1	QYSB	0	1	blank2r.bmp	79	147	pic147.bmp	199	1	whitenoise_No3.bmp	306	0	0	0	0	0	0	0	0	0	0	0	0	0	0	0	0	0	0	0	0	0	0	0	0	0	0	0	0	0	0	0	0	0	0	0	0	0	0	0
011019	11:32:34	11:45:24	768996	5.0.10.0	4_exp_AMP_EVA_AWA_CON	56	Rpleas_acq	Oppo	Lpleas	Amasked	CS_A	1pleas	distractor2	EVAbeforeCON	AMP_distractor	AMP1_masked	6	47	0	0	300	300	0	0	767	46	0	0	0	0	0	1	blank2r.bmp	0	1	QYSB	0	1	blank2r.bmp	79	45	pic45.bmp	199	1	whitenoise_No3.bmp	306	0	0	0	0	0	0	0	0	0	0	0	0	0	0	0	0	0	0	0	0	0	0	0	0	0	0	0	0	0	0	0	0	0	0	0	0	0	0	0
011019	11:32:34	11:45:26	770849	5.0.10.0	4_exp_AMP_EVA_AWA_CON	56	Rpleas_acq	Oppo	Lpleas	Amasked	CS_A	1pleas	distractor2	EVAbeforeCON	AMP_CSpleas	AMP1_masked	6	48	0	0	300	300	0	0	922	50	0	0	0	0	0	1	blank2r.bmp	0	1	CPLW	0	1	blank2r.bmp	79	71	pic71.bmp	199	1	whitenoise_No3.bmp	306	0	0	0	0	0	0	0	0	0	0	0	0	0	0	0	0	0	0	0	0	0	0	0	0	0	0	0	0	0	0	0	0	0	0	0	0	0	0	0
011019	11:32:34	11:45:27	772688	5.0.10.0	4_exp_AMP_EVA_AWA_CON	56	Rpleas_acq	Oppo	Lpleas	Amasked	CS_A	1pleas	distractor2	EVAbeforeCON	AMP_CSpleas	AMP1_masked	6	49	0	0	300	300	0	0	921	50	0	0	0	0	0	1	blank2r.bmp	0	1	CPLW	0	1	blank2r.bmp	79	4	pic4.bmp	199	1	whitenoise_No3.bmp	306	0	0	0	0	0	0	0	0	0	0	0	0	0	0	0	0	0	0	0	0	0	0	0	0	0	0	0	0	0	0	0	0	0	0	0	0	0	0	0
011019	11:32:34	11:45:29	774514	5.0.10.0	4_exp_AMP_EVA_AWA_CON	56	Rpleas_acq	Oppo	Lpleas	Amasked	CS_A	1pleas	distractor2	EVAbeforeCON	AMP_CSunple	AMP1_masked	6	50	0	0	300	300	0	0	915	50	0	1	0	0	0	1	blank2r.bmp	0	1	DHJF	0	1	blank2r.bmp	79	51	pic51.bmp	199	1	whitenoise_No3.bmp	306	0	0	0	0	0	0	0	0	0	0	0	0	0	0	0	0	0	0	0	0	0	0	0	0	0	0	0	0	0	0	0	0	0	0	0	0	0	0	0
011019	11:32:34	11:45:31	776167	5.0.10.0	4_exp_AMP_EVA_AWA_CON	56	Rpleas_acq	Oppo	Lpleas	Amasked	CS_A	1pleas	distractor2	EVAbeforeCON	AMP_distractor	AMP1_masked	6	51	0	0	300	300	0	0	745	46	0	0	0	0	0	1	blank2r.bmp	0	1	QYSB	0	1	blank2r.bmp	79	75	pic75.bmp	199	1	whitenoise_No3.bmp	306	0	0	0	0	0	0	0	0	0	0	0	0	0	0	0	0	0	0	0	0	0	0	0	0	0	0	0	0	0	0	0	0	0	0	0	0	0	0	0
011019	11:32:34	11:45:42	786975	5.0.10.0	4_exp_AMP_EVA_AWA_CON	56	Rpleas_acq	Oppo	Lpleas	Amasked	CS_A	1pleas	distractor2	EVAbeforeCON	AMP_distractor	AMP23	7	1	0	0	300	300	0	0	1217	46	0	0	0	0	0	1	blank2r.bmp	0	1	QYSB	0	1	blank2r.bmp	79	145	pic145.bmp	199	1	whitenoise_No3.bmp	306	0	0	0	0	0	0	0	0	0	0	0	0	0	0	0	0	0	0	0	0	0	0	0	0	0	0	0	0	0	0	0	0	0	0	0	0	0	0	0
011019	11:32:34	11:45:43	788641	5.0.10.0	4_exp_AMP_EVA_AWA_CON	56	Rpleas_acq	Oppo	Lpleas	Amasked	CS_A	1pleas	distractor2	EVAbeforeCON	AMP_CSunple	AMP23	7	2	0	0	300	300	0	0	732	46	0	0	0	0	0	1	blank2r.bmp	0	1	DHJF	0	1	blank2r.bmp	79	38	pic38.bmp	199	1	whitenoise_No3.bmp	306	0	0	0	0	0	0	0	0	0	0	0	0	0	0	0	0	0	0	0	0	0	0	0	0	0	0	0	0	0	0	0	0	0	0	0	0	0	0	0
011019	11:32:34	11:45:45	790187	5.0.10.0	4_exp_AMP_EVA_AWA_CON	56	Rpleas_acq	Oppo	Lpleas	Amasked	CS_A	1pleas	distractor2	EVAbeforeCON	AMP_CSunple	AMP23	7	3	0	0	300	300	0	0	636	46	0	0	0	0	0	1	blank2r.bmp	0	1	DHJF	0	1	blank2r.bmp	79	25	pic25.bmp	199	1	whitenoise_No3.bmp	306	0	0	0	0	0	0	0	0	0	0	0	0	0	0	0	0	0	0	0	0	0	0	0	0	0	0	0	0	0	0	0	0	0	0	0	0	0	0	0
011019	11:32:34	11:45:47	792560	5.0.10.0	4_exp_AMP_EVA_AWA_CON	56	Rpleas_acq	Oppo	Lpleas	Amasked	CS_A	1pleas	distractor2	EVAbeforeCON	AMP_CSpleas	AMP23	7	4	0	0	300	300	0	0	1446	46	0	1	0	0	0	1	blank2r.bmp	0	1	CPLW	0	1	blank2r.bmp	79	68	pic68.bmp	199	1	whitenoise_No3.bmp	306	0	0	0	0	0	0	0	0	0	0	0	0	0	0	0	0	0	0	0	0	0	0	0	0	0	0	0	0	0	0	0	0	0	0	0	0	0	0	0
011019	11:32:34	11:45:49	794319	5.0.10.0	4_exp_AMP_EVA_AWA_CON	56	Rpleas_acq	Oppo	Lpleas	Amasked	CS_A	1pleas	distractor2	EVAbeforeCON	AMP_CSunple	AMP23	7	5	0	0	300	300	0	0	827	50	0	1	0	0	0	1	blank2r.bmp	0	1	DHJF	0	1	blank2r.bmp	79	65	pic65.bmp	199	1	whitenoise_No3.bmp	306	0	0	0	0	0	0	0	0	0	0	0	0	0	0	0	0	0	0	0	0	0	0	0	0	0	0	0	0	0	0	0	0	0	0	0	0	0	0	0
011019	11:32:34	11:45:51	795918	5.0.10.0	4_exp_AMP_EVA_AWA_CON	56	Rpleas_acq	Oppo	Lpleas	Amasked	CS_A	1pleas	distractor2	EVAbeforeCON	AMP_CSpleas	AMP23	7	6	0	0	300	300	0	0	679	46	0	1	0	0	0	1	blank2r.bmp	0	1	CPLW	0	1	blank2r.bmp	79	113	pic113.bmp	199	1	whitenoise_No3.bmp	306	0	0	0	0	0	0	0	0	0	0	0	0	0	0	0	0	0	0	0	0	0	0	0	0	0	0	0	0	0	0	0	0	0	0	0	0	0	0	0
011019	11:32:34	11:45:52	797451	5.0.10.0	4_exp_AMP_EVA_AWA_CON	56	Rpleas_acq	Oppo	Lpleas	Amasked	CS_A	1pleas	distractor2	EVAbeforeCON	AMP_distractor	AMP23	7	7	0	0	300	300	0	0	615	46	0	0	0	0	0	1	blank2r.bmp	0	1	QYSB	0	1	blank2r.bmp	79	7	pic7.bmp	199	1	whitenoise_No3.bmp	306	0	0	0	0	0	0	0	0	0	0	0	0	0	0	0	0	0	0	0	0	0	0	0	0	0	0	0	0	0	0	0	0	0	0	0	0	0	0	0
011019	11:32:34	11:45:54	798970	5.0.10.0	4_exp_AMP_EVA_AWA_CON	56	Rpleas_acq	Oppo	Lpleas	Amasked	CS_A	1pleas	distractor2	EVAbeforeCON	AMP_CSunple	AMP23	7	8	0	0	300	300	0	0	601	46	0	0	0	0	0	1	blank2r.bmp	0	1	DHJF	0	1	blank2r.bmp	79	48	pic48.bmp	199	1	whitenoise_No3.bmp	306	0	0	0	0	0	0	0	0	0	0	0	0	0	0	0	0	0	0	0	0	0	0	0	0	0	0	0	0	0	0	0	0	0	0	0	0	0	0	0
011019	11:32:34	11:45:55	800450	5.0.10.0	4_exp_AMP_EVA_AWA_CON	56	Rpleas_acq	Oppo	Lpleas	Amasked	CS_A	1pleas	distractor2	EVAbeforeCON	AMP_CSpleas	AMP23	7	9	0	0	300	300	0	0	555	46	0	1	0	0	0	1	blank2r.bmp	0	1	CPLW	0	1	blank2r.bmp	79	128	pic128.bmp	199	1	whitenoise_No3.bmp	306	0	0	0	0	0	0	0	0	0	0	0	0	0	0	0	0	0	0	0	0	0	0	0	0	0	0	0	0	0	0	0	0	0	0	0	0	0	0	0
011019	11:32:34	11:45:57	802209	5.0.10.0	4_exp_AMP_EVA_AWA_CON	56	Rpleas_acq	Oppo	Lpleas	Amasked	CS_A	1pleas	distractor2	EVAbeforeCON	AMP_CSunple	AMP23	7	10	0	0	300	300	0	0	832	46	0	0	0	0	0	1	blank2r.bmp	0	1	DHJF	0	1	blank2r.bmp	79	121	pic121.bmp	199	1	whitenoise_No3.bmp	306	0	0	0	0	0	0	0	0	0	0	0	0	0	0	0	0	0	0	0	0	0	0	0	0	0	0	0	0	0	0	0	0	0	0	0	0	0	0	0
011019	11:32:34	11:45:59	803848	5.0.10.0	4_exp_AMP_EVA_AWA_CON	56	Rpleas_acq	Oppo	Lpleas	Amasked	CS_A	1pleas	distractor2	EVAbeforeCON	AMP_distractor	AMP23	7	11	0	0	300	300	0	0	717	46	0	0	0	0	0	1	blank2r.bmp	0	1	QYSB	0	1	blank2r.bmp	79	80	pic80.bmp	199	1	whitenoise_No3.bmp	306	0	0	0	0	0	0	0	0	0	0	0	0	0	0	0	0	0	0	0	0	0	0	0	0	0	0	0	0	0	0	0	0	0	0	0	0	0	0	0
011019	11:32:34	11:46:00	805368	5.0.10.0	4_exp_AMP_EVA_AWA_CON	56	Rpleas_acq	Oppo	Lpleas	Amasked	CS_A	1pleas	distractor2	EVAbeforeCON	AMP_distractor	AMP23	7	12	0	0	300	300	0	0	585	46	0	0	0	0	0	1	blank2r.bmp	0	1	QYSB	0	1	blank2r.bmp	79	107	pic107.bmp	199	1	whitenoise_No3.bmp	306	0	0	0	0	0	0	0	0	0	0	0	0	0	0	0	0	0	0	0	0	0	0	0	0	0	0	0	0	0	0	0	0	0	0	0	0	0	0	0
011019	11:32:34	11:46:02	806847	5.0.10.0	4_exp_AMP_EVA_AWA_CON	56	Rpleas_acq	Oppo	Lpleas	Amasked	CS_A	1pleas	distractor2	EVAbeforeCON	AMP_distractor	AMP23	7	13	0	0	300	300	0	0	552	46	0	0	0	0	0	1	blank2r.bmp	0	1	QYSB	0	1	blank2r.bmp	79	96	pic96.bmp	199	1	whitenoise_No3.bmp	306	0	0	0	0	0	0	0	0	0	0	0	0	0	0	0	0	0	0	0	0	0	0	0	0	0	0	0	0	0	0	0	0	0	0	0	0	0	0	0
011019	11:32:34	11:46:03	808526	5.0.10.0	4_exp_AMP_EVA_AWA_CON	56	Rpleas_acq	Oppo	Lpleas	Amasked	CS_A	1pleas	distractor2	EVAbeforeCON	AMP_CSpleas	AMP23	7	14	0	0	300	300	0	0	757	46	0	1	0	0	0	1	blank2r.bmp	0	1	CPLW	0	1	blank2r.bmp	79	108	pic108.bmp	199	1	whitenoise_No3.bmp	306	0	0	0	0	0	0	0	0	0	0	0	0	0	0	0	0	0	0	0	0	0	0	0	0	0	0	0	0	0	0	0	0	0	0	0	0	0	0	0
011019	11:32:34	11:46:05	809952	5.0.10.0	4_exp_AMP_EVA_AWA_CON	56	Rpleas_acq	Oppo	Lpleas	Amasked	CS_A	1pleas	distractor2	EVAbeforeCON	AMP_CSpleas	AMP23	7	15	0	0	300	300	0	0	498	46	0	1	0	0	0	1	blank2r.bmp	0	1	CPLW	0	1	blank2r.bmp	79	140	pic140.bmp	199	1	whitenoise_No3.bmp	306	0	0	0	0	0	0	0	0	0	0	0	0	0	0	0	0	0	0	0	0	0	0	0	0	0	0	0	0	0	0	0	0	0	0	0	0	0	0	0
011019	11:32:34	11:46:06	811458	5.0.10.0	4_exp_AMP_EVA_AWA_CON	56	Rpleas_acq	Oppo	Lpleas	Amasked	CS_A	1pleas	distractor2	EVAbeforeCON	AMP_distractor	AMP23	7	16	0	0	300	300	0	0	583	50	0	0	0	0	0	1	blank2r.bmp	0	1	QYSB	0	1	blank2r.bmp	79	133	pic133.bmp	199	1	whitenoise_No3.bmp	306	0	0	0	0	0	0	0	0	0	0	0	0	0	0	0	0	0	0	0	0	0	0	0	0	0	0	0	0	0	0	0	0	0	0	0	0	0	0	0
011019	11:32:34	11:46:08	813178	5.0.10.0	4_exp_AMP_EVA_AWA_CON	56	Rpleas_acq	Oppo	Lpleas	Amasked	CS_A	1pleas	distractor2	EVAbeforeCON	AMP_CSunple	AMP23	7	17	0	0	300	300	0	0	797	46	0	0	0	0	0	1	blank2r.bmp	0	1	DHJF	0	1	blank2r.bmp	79	148	pic148.bmp	199	1	whitenoise_No3.bmp	306	0	0	0	0	0	0	0	0	0	0	0	0	0	0	0	0	0	0	0	0	0	0	0	0	0	0	0	0	0	0	0	0	0	0	0	0	0	0	0
011019	11:32:34	11:46:10	814884	5.0.10.0	4_exp_AMP_EVA_AWA_CON	56	Rpleas_acq	Oppo	Lpleas	Amasked	CS_A	1pleas	distractor2	EVAbeforeCON	AMP_distractor	AMP23	7	18	0	0	300	300	0	0	784	50	0	0	0	0	0	1	blank2r.bmp	0	1	QYSB	0	1	blank2r.bmp	79	134	pic134.bmp	199	1	whitenoise_No3.bmp	306	0	0	0	0	0	0	0	0	0	0	0	0	0	0	0	0	0	0	0	0	0	0	0	0	0	0	0	0	0	0	0	0	0	0	0	0	0	0	0
011019	11:32:34	11:46:12	816829	5.0.10.0	4_exp_AMP_EVA_AWA_CON	56	Rpleas_acq	Oppo	Lpleas	Amasked	CS_A	1pleas	distractor2	EVAbeforeCON	AMP_CSunple	AMP23	7	19	0	0	300	300	0	0	1019	50	0	1	0	0	0	1	blank2r.bmp	0	1	DHJF	0	1	blank2r.bmp	79	153	pic153.bmp	199	1	whitenoise_No3.bmp	306	0	0	0	0	0	0	0	0	0	0	0	0	0	0	0	0	0	0	0	0	0	0	0	0	0	0	0	0	0	0	0	0	0	0	0	0	0	0	0
011019	11:32:34	11:46:13	818509	5.0.10.0	4_exp_AMP_EVA_AWA_CON	56	Rpleas_acq	Oppo	Lpleas	Amasked	CS_A	1pleas	distractor2	EVAbeforeCON	AMP_CSpleas	AMP23	7	20	0	0	300	300	0	0	755	46	0	1	0	0	0	1	blank2r.bmp	0	1	CPLW	0	1	blank2r.bmp	79	76	pic76.bmp	199	1	whitenoise_No3.bmp	306	0	0	0	0	0	0	0	0	0	0	0	0	0	0	0	0	0	0	0	0	0	0	0	0	0	0	0	0	0	0	0	0	0	0	0	0	0	0	0
011019	11:32:34	11:46:15	820348	5.0.10.0	4_exp_AMP_EVA_AWA_CON	56	Rpleas_acq	Oppo	Lpleas	Amasked	CS_A	1pleas	distractor2	EVAbeforeCON	AMP_distractor	AMP23	7	21	0	0	300	300	0	0	908	46	0	0	0	0	0	1	blank2r.bmp	0	1	QYSB	0	1	blank2r.bmp	79	5	pic5.bmp	199	1	whitenoise_No3.bmp	306	0	0	0	0	0	0	0	0	0	0	0	0	0	0	0	0	0	0	0	0	0	0	0	0	0	0	0	0	0	0	0	0	0	0	0	0	0	0	0
011019	11:32:34	11:46:17	822307	5.0.10.0	4_exp_AMP_EVA_AWA_CON	56	Rpleas_acq	Oppo	Lpleas	Amasked	CS_A	1pleas	distractor2	EVAbeforeCON	AMP_distractor	AMP23	7	22	0	0	300	300	0	0	1043	46	0	0	0	0	0	1	blank2r.bmp	0	1	QYSB	0	1	blank2r.bmp	79	33	pic33.bmp	199	1	whitenoise_No3.bmp	306	0	0	0	0	0	0	0	0	0	0	0	0	0	0	0	0	0	0	0	0	0	0	0	0	0	0	0	0	0	0	0	0	0	0	0	0	0	0	0
011019	11:32:34	11:46:19	823973	5.0.10.0	4_exp_AMP_EVA_AWA_CON	56	Rpleas_acq	Oppo	Lpleas	Amasked	CS_A	1pleas	distractor2	EVAbeforeCON	AMP_CSpleas	AMP23	7	23	0	0	300	300	0	0	732	50	0	0	0	0	0	1	blank2r.bmp	0	1	CPLW	0	1	blank2r.bmp	79	47	pic47.bmp	199	1	whitenoise_No3.bmp	306	0	0	0	0	0	0	0	0	0	0	0	0	0	0	0	0	0	0	0	0	0	0	0	0	0	0	0	0	0	0	0	0	0	0	0	0	0	0	0
011019	11:32:34	11:46:20	825599	5.0.10.0	4_exp_AMP_EVA_AWA_CON	56	Rpleas_acq	Oppo	Lpleas	Amasked	CS_A	1pleas	distractor2	EVAbeforeCON	AMP_distractor	AMP23	7	24	0	0	300	300	0	0	706	50	0	0	0	0	0	1	blank2r.bmp	0	1	QYSB	0	1	blank2r.bmp	79	43	pic43.bmp	199	1	whitenoise_No3.bmp	306	0	0	0	0	0	0	0	0	0	0	0	0	0	0	0	0	0	0	0	0	0	0	0	0	0	0	0	0	0	0	0	0	0	0	0	0	0	0	0
011019	11:32:34	11:46:22	827238	5.0.10.0	4_exp_AMP_EVA_AWA_CON	56	Rpleas_acq	Oppo	Lpleas	Amasked	CS_A	1pleas	distractor2	EVAbeforeCON	AMP_distractor	AMP23	7	25	0	0	300	300	0	0	715	50	0	0	0	0	0	1	blank2r.bmp	0	1	QYSB	0	1	blank2r.bmp	79	110	pic110.bmp	199	1	whitenoise_No3.bmp	306	0	0	0	0	0	0	0	0	0	0	0	0	0	0	0	0	0	0	0	0	0	0	0	0	0	0	0	0	0	0	0	0	0	0	0	0	0	0	0
011019	11:32:34	11:46:24	828744	5.0.10.0	4_exp_AMP_EVA_AWA_CON	56	Rpleas_acq	Oppo	Lpleas	Amasked	CS_A	1pleas	distractor2	EVAbeforeCON	AMP_CSpleas	AMP23	7	26	0	0	300	300	0	0	582	50	0	0	0	0	0	1	blank2r.bmp	0	1	CPLW	0	1	blank2r.bmp	79	44	pic44.bmp	199	1	whitenoise_No3.bmp	306	0	0	0	0	0	0	0	0	0	0	0	0	0	0	0	0	0	0	0	0	0	0	0	0	0	0	0	0	0	0	0	0	0	0	0	0	0	0	0
011019	11:32:34	11:46:25	830530	5.0.10.0	4_exp_AMP_EVA_AWA_CON	56	Rpleas_acq	Oppo	Lpleas	Amasked	CS_A	1pleas	distractor2	EVAbeforeCON	AMP_distractor	AMP23	7	27	0	0	300	300	0	0	855	50	0	0	0	0	0	1	blank2r.bmp	0	1	QYSB	0	1	blank2r.bmp	79	143	pic143.bmp	199	1	whitenoise_No3.bmp	306	0	0	0	0	0	0	0	0	0	0	0	0	0	0	0	0	0	0	0	0	0	0	0	0	0	0	0	0	0	0	0	0	0	0	0	0	0	0	0
011019	11:32:34	11:46:27	832276	5.0.10.0	4_exp_AMP_EVA_AWA_CON	56	Rpleas_acq	Oppo	Lpleas	Amasked	CS_A	1pleas	distractor2	EVAbeforeCON	AMP_CSpleas	AMP23	7	28	0	0	300	300	0	0	814	50	0	0	0	0	0	1	blank2r.bmp	0	1	CPLW	0	1	blank2r.bmp	79	142	pic142.bmp	199	1	whitenoise_No3.bmp	306	0	0	0	0	0	0	0	0	0	0	0	0	0	0	0	0	0	0	0	0	0	0	0	0	0	0	0	0	0	0	0	0	0	0	0	0	0	0	0
011019	11:32:34	11:46:29	833836	5.0.10.0	4_exp_AMP_EVA_AWA_CON	56	Rpleas_acq	Oppo	Lpleas	Amasked	CS_A	1pleas	distractor2	EVAbeforeCON	AMP_CSunple	AMP23	7	29	0	0	300	300	0	0	636	46	0	0	0	0	0	1	blank2r.bmp	0	1	DHJF	0	1	blank2r.bmp	79	52	pic52.bmp	199	1	whitenoise_No3.bmp	306	0	0	0	0	0	0	0	0	0	0	0	0	0	0	0	0	0	0	0	0	0	0	0	0	0	0	0	0	0	0	0	0	0	0	0	0	0	0	0
011019	11:32:34	11:46:30	835382	5.0.10.0	4_exp_AMP_EVA_AWA_CON	56	Rpleas_acq	Oppo	Lpleas	Amasked	CS_A	1pleas	distractor2	EVAbeforeCON	AMP_CSpleas	AMP23	7	30	0	0	300	300	0	0	613	46	0	1	0	0	0	1	blank2r.bmp	0	1	CPLW	0	1	blank2r.bmp	79	136	pic136.bmp	199	1	whitenoise_No3.bmp	306	0	0	0	0	0	0	0	0	0	0	0	0	0	0	0	0	0	0	0	0	0	0	0	0	0	0	0	0	0	0	0	0	0	0	0	0	0	0	0
011019	11:32:34	11:46:32	836861	5.0.10.0	4_exp_AMP_EVA_AWA_CON	56	Rpleas_acq	Oppo	Lpleas	Amasked	CS_A	1pleas	distractor2	EVAbeforeCON	AMP_CSunple	AMP23	7	31	0	0	300	300	0	0	549	46	0	0	0	0	0	1	blank2r.bmp	0	1	DHJF	0	1	blank2r.bmp	79	62	pic62.bmp	199	1	whitenoise_No3.bmp	306	0	0	0	0	0	0	0	0	0	0	0	0	0	0	0	0	0	0	0	0	0	0	0	0	0	0	0	0	0	0	0	0	0	0	0	0	0	0	0
011019	11:32:34	11:46:33	838394	5.0.10.0	4_exp_AMP_EVA_AWA_CON	56	Rpleas_acq	Oppo	Lpleas	Amasked	CS_A	1pleas	distractor2	EVAbeforeCON	AMP_distractor	AMP23	7	32	0	0	300	300	0	0	599	46	0	0	0	0	0	1	blank2r.bmp	0	1	QYSB	0	1	blank2r.bmp	79	30	pic30.bmp	199	1	whitenoise_No3.bmp	306	0	0	0	0	0	0	0	0	0	0	0	0	0	0	0	0	0	0	0	0	0	0	0	0	0	0	0	0	0	0	0	0	0	0	0	0	0	0	0
011019	11:32:34	11:46:35	839900	5.0.10.0	4_exp_AMP_EVA_AWA_CON	56	Rpleas_acq	Oppo	Lpleas	Amasked	CS_A	1pleas	distractor2	EVAbeforeCON	AMP_CSunple	AMP23	7	33	0	0	300	300	0	0	588	46	0	0	0	0	0	1	blank2r.bmp	0	1	DHJF	0	1	blank2r.bmp	79	26	pic26.bmp	199	1	whitenoise_No3.bmp	306	0	0	0	0	0	0	0	0	0	0	0	0	0	0	0	0	0	0	0	0	0	0	0	0	0	0	0	0	0	0	0	0	0	0	0	0	0	0	0
011019	11:32:34	11:46:37	842072	5.0.10.0	4_exp_AMP_EVA_AWA_CON	56	Rpleas_acq	Oppo	Lpleas	Amasked	CS_A	1pleas	distractor2	EVAbeforeCON	AMP_CSunple	AMP23	7	34	0	0	300	300	0	0	1261	50	0	1	0	0	0	1	blank2r.bmp	0	1	DHJF	0	1	blank2r.bmp	79	41	pic41.bmp	199	1	whitenoise_No3.bmp	306	0	0	0	0	0	0	0	0	0	0	0	0	0	0	0	0	0	0	0	0	0	0	0	0	0	0	0	0	0	0	0	0	0	0	0	0	0	0	0
011019	11:32:34	11:46:38	843685	5.0.10.0	4_exp_AMP_EVA_AWA_CON	56	Rpleas_acq	Oppo	Lpleas	Amasked	CS_A	1pleas	distractor2	EVAbeforeCON	AMP_CSunple	AMP23	7	35	0	0	300	300	0	0	689	50	0	1	0	0	0	1	blank2r.bmp	0	1	DHJF	0	1	blank2r.bmp	79	39	pic39.bmp	199	1	whitenoise_No3.bmp	306	0	0	0	0	0	0	0	0	0	0	0	0	0	0	0	0	0	0	0	0	0	0	0	0	0	0	0	0	0	0	0	0	0	0	0	0	0	0	0
