date	time	script.currenttime	script.elapsedtime	build	script.currentexpt	subject	expressions.LRpleas_acq	expressions.SameOppo	expressions.condition_Lpleas	expressions.ABmasked	expressions.conditionCS_A	expressions.condition_1pleas	expressions.condition_distractor_AMP	expressions.AWACON_AMPEVA_first	trialcode	blockcode	blocknum	trialnum	windowcenter	inwindow	pretrialpause	posttrialpause	trialduration	trialtimeout	latency	response	expressions.correctedscore	correct	values.vis_performance	values.vis_rating_sum	values.vis_rating_mean	stimulusnumber1	stimulusitem1	stimulusonset1	stimulusnumber2	stimulusitem2	stimulusonset2	stimulusnumber3	stimulusitem3	stimulusonset3	stimulusnumber4	stimulusitem4	stimulusonset4	stimulusnumber5	stimulusitem5	stimulusonset5	stimulusnumber6	stimulusitem6	stimulusonset6	stimulusnumber7	stimulusitem7	stimulusonset7	stimulusnumber8	stimulusitem8	stimulusonset8	stimulusnumber9	stimulusitem9	stimulusonset9	stimulusnumber10	stimulusitem10	stimulusonset10	stimulusnumber11	stimulusitem11	stimulusonset11	stimulusnumber12	stimulusitem12	stimulusonset12	stimulusnumber13	stimulusitem13	stimulusonset13	stimulusnumber14	stimulusitem14	stimulusonset14	stimulusnumber15	stimulusitem15	stimulusonset15	stimulusnumber16	stimulusitem16	stimulusonset16	stimulusnumber17	stimulusitem17	stimulusonset17	stimulusnumber18	stimulusitem18	stimulusonset18
121218	15:17:52	15:20:03	130452	5.0.10.0	4_exp_EVA_AMP_AWA_CON	10	Rpleas_acq	Same	Rpleas	Amasked	CS_A	1pleas	distractor1	EVAbeforeCON	acq_new_unple_masked	acq1_masked	1	1	0	0	300	300	0	0	3611	46	0	1	0	0	0	1	blank2r.bmp	0	1	+	0	7	C3r.bmp	492	1	blank2r.bmp	786	3	B3r.bmp	786	1	blank2r.bmp	866	2	gierig	866	0	0	0	0	0	0	0	0	0	0	0	0	0	0	0	0	0	0	0	0	0	0	0	0	0	0	0	0	0	0	0	0	0
121218	15:17:52	15:20:07	133638	5.0.10.0	4_exp_EVA_AMP_AWA_CON	10	Rpleas_acq	Same	Rpleas	Amasked	CS_A	2pleas	distractor1	EVAbeforeCON	acq_US_pleas_masked	acq1_masked	1	2	0	0	300	300	0	0	1499	46	0	0	0	0	0	1	blank2r.bmp	0	1	+	0	1	B1r.bmp	492	1	blank2r.bmp	786	1	DHJF	786	1	blank2r.bmp	866	1	anregung	866	1	FEHLER	2399	0	0	0	0	0	0	0	0	0	0	0	0	0	0	0	0	0	0	0	0	0	0	0	0	0	0	0	0	0	0
121218	15:17:52	15:20:09	136077	5.0.10.0	4_exp_EVA_AMP_AWA_CON	10	Rpleas_acq	Same	Rpleas	Amasked	CS_A	2pleas	distractor1	EVAbeforeCON	acq_new_pleas_masked	acq1_masked	1	3	0	0	300	300	0	0	1177	50	0	1	0	0	0	1	blank2r.bmp	0	1	+	0	8	C4r.bmp	492	1	blank2r.bmp	786	4	B4r.bmp	786	1	blank2r.bmp	866	4	kuss	866	0	0	0	0	0	0	0	0	0	0	0	0	0	0	0	0	0	0	0	0	0	0	0	0	0	0	0	0	0	0	0	0	0
121218	15:17:52	15:20:11	138582	5.0.10.0	4_exp_EVA_AMP_AWA_CON	10	Rpleas_acq	Same	Rpleas	Amasked	CS_A	2pleas	distractor1	EVAbeforeCON	acq_US_pleas_masked	acq1_masked	1	4	0	0	300	300	0	0	1031	50	0	1	0	0	0	1	blank2r.bmp	0	1	+	0	2	B2r.bmp	492	1	blank2r.bmp	786	1	DHJF	786	1	blank2r.bmp	866	2	vertrauen	866	0	0	0	0	0	0	0	0	0	0	0	0	0	0	0	0	0	0	0	0	0	0	0	0	0	0	0	0	0	0	0	0	0
121218	15:17:52	15:20:14	141128	5.0.10.0	4_exp_EVA_AMP_AWA_CON	10	Rpleas_acq	Same	Rpleas	Amasked	CS_A	2pleas	distractor1	EVAbeforeCON	acq_US_unple_masked	acq1_masked	1	5	0	0	300	300	0	0	1060	46	0	1	0	0	0	1	blank2r.bmp	0	1	+	0	3	B3r.bmp	492	1	blank2r.bmp	786	1	CPLW	786	1	blank2r.bmp	866	1	ausrottung	866	0	0	0	0	0	0	0	0	0	0	0	0	0	0	0	0	0	0	0	0	0	0	0	0	0	0	0	0	0	0	0	0	0
121218	15:17:52	15:20:16	143593	5.0.10.0	4_exp_EVA_AMP_AWA_CON	10	Rpleas_acq	Same	Rpleas	Amasked	CS_A	2pleas	distractor1	EVAbeforeCON	acq_US_unple_masked	acq1_masked	1	6	0	0	300	300	0	0	985	46	0	1	0	0	0	1	blank2r.bmp	0	1	+	0	5	C1r.bmp	492	1	blank2r.bmp	786	1	CPLW	786	1	blank2r.bmp	866	3	sterben	866	0	0	0	0	0	0	0	0	0	0	0	0	0	0	0	0	0	0	0	0	0	0	0	0	0	0	0	0	0	0	0	0	0
121218	15:17:52	15:20:21	147658	5.0.10.0	4_exp_EVA_AMP_AWA_CON	10	Rpleas_acq	Same	Rpleas	Amasked	CS_A	2pleas	distractor1	EVAbeforeCON	acq_new_unple_masked	acq1_masked	1	7	0	0	300	300	0	0	2586	46	0	1	0	0	0	1	blank2r.bmp	0	1	+	0	4	B4r.bmp	492	1	blank2r.bmp	786	7	C3r.bmp	786	1	blank2r.bmp	866	5	geizig	866	0	0	0	0	0	0	0	0	0	0	0	0	0	0	0	0	0	0	0	0	0	0	0	0	0	0	0	0	0	0	0	0	0
121218	15:17:52	15:20:23	149951	5.0.10.0	4_exp_EVA_AMP_AWA_CON	10	Rpleas_acq	Same	Rpleas	Amasked	CS_A	2pleas	distractor1	EVAbeforeCON	acq_new_pleas_masked	acq1_masked	1	8	0	0	300	300	0	0	811	50	0	1	0	0	0	1	blank2r.bmp	0	1	+	0	6	C2r.bmp	492	1	blank2r.bmp	786	2	B2r.bmp	786	1	blank2r.bmp	866	6	genießen	866	0	0	0	0	0	0	0	0	0	0	0	0	0	0	0	0	0	0	0	0	0	0	0	0	0	0	0	0	0	0	0	0	0
121218	15:17:52	15:20:26	152696	5.0.10.0	4_exp_EVA_AMP_AWA_CON	10	Rpleas_acq	Same	Rpleas	Amasked	CS_A	2pleas	distractor1	EVAbeforeCON	acq_US_pleas_masked	acq1_masked	1	9	0	0	300	300	0	0	1275	50	0	1	0	0	0	1	blank2r.bmp	0	1	+	0	5	C1r.bmp	492	1	blank2r.bmp	786	1	DHJF	786	1	blank2r.bmp	866	4	besonnen	866	0	0	0	0	0	0	0	0	0	0	0	0	0	0	0	0	0	0	0	0	0	0	0	0	0	0	0	0	0	0	0	0	0
121218	15:17:52	15:20:28	155042	5.0.10.0	4_exp_EVA_AMP_AWA_CON	10	Rpleas_acq	Same	Rpleas	Amasked	CS_A	2pleas	distractor1	EVAbeforeCON	acq_US_unple_masked	acq1_masked	1	10	0	0	300	300	0	0	853	46	0	1	0	0	0	1	blank2r.bmp	0	1	+	0	6	C2r.bmp	492	1	blank2r.bmp	786	1	CPLW	786	1	blank2r.bmp	866	4	bange	866	0	0	0	0	0	0	0	0	0	0	0	0	0	0	0	0	0	0	0	0	0	0	0	0	0	0	0	0	0	0	0	0	0
121218	15:17:52	15:20:32	159160	5.0.10.0	4_exp_EVA_AMP_AWA_CON	10	Rpleas_acq	Same	Rpleas	Amasked	CS_A	2pleas	distractor1	EVAbeforeCON	acq_new_unple_masked	acq1_masked	1	11	0	0	300	300	0	0	2639	46	0	1	0	0	0	1	blank2r.bmp	0	1	+	0	7	C3r.bmp	492	1	blank2r.bmp	786	1	B1r.bmp	786	1	blank2r.bmp	866	3	verbissen	866	0	0	0	0	0	0	0	0	0	0	0	0	0	0	0	0	0	0	0	0	0	0	0	0	0	0	0	0	0	0	0	0	0
121218	15:17:52	15:20:35	161719	5.0.10.0	4_exp_EVA_AMP_AWA_CON	10	Rpleas_acq	Same	Rpleas	Amasked	CS_A	2pleas	distractor1	EVAbeforeCON	acq_new_pleas_masked	acq1_masked	1	12	0	0	300	300	0	0	1082	50	0	1	0	0	0	1	blank2r.bmp	0	1	+	0	1	B1r.bmp	492	1	blank2r.bmp	786	5	C1r.bmp	786	1	blank2r.bmp	866	3	vergnügt	866	0	0	0	0	0	0	0	0	0	0	0	0	0	0	0	0	0	0	0	0	0	0	0	0	0	0	0	0	0	0	0	0	0
121218	15:17:52	15:20:39	165958	5.0.10.0	4_exp_EVA_AMP_AWA_CON	10	Rpleas_acq	Same	Rpleas	Amasked	CS_A	2pleas	distractor1	EVAbeforeCON	acq_new_unple_masked	acq1_masked	1	13	0	0	300	300	0	0	2546	50	0	0	0	0	0	1	blank2r.bmp	0	1	+	0	2	B2r.bmp	492	1	blank2r.bmp	786	8	C4r.bmp	786	1	blank2r.bmp	866	6	gemein	866	1	FEHLER	3451	0	0	0	0	0	0	0	0	0	0	0	0	0	0	0	0	0	0	0	0	0	0	0	0	0	0	0	0	0	0
121218	15:17:52	15:20:42	169210	5.0.10.0	4_exp_EVA_AMP_AWA_CON	10	Rpleas_acq	Same	Rpleas	Amasked	CS_A	2pleas	distractor1	EVAbeforeCON	acq_new_unple_masked	acq1_masked	1	14	0	0	300	300	0	0	1771	50	0	0	0	0	0	1	blank2r.bmp	0	1	+	0	4	B4r.bmp	492	1	blank2r.bmp	786	6	C2r.bmp	786	1	blank2r.bmp	866	1	engstirnig	866	1	FEHLER	2678	0	0	0	0	0	0	0	0	0	0	0	0	0	0	0	0	0	0	0	0	0	0	0	0	0	0	0	0	0	0
121218	15:17:52	15:20:44	171289	5.0.10.0	4_exp_EVA_AMP_AWA_CON	10	Rpleas_acq	Same	Rpleas	Amasked	CS_A	2pleas	distractor1	EVAbeforeCON	acq_US_pleas_masked	acq1_masked	1	15	0	0	300	300	0	0	819	50	0	1	0	0	0	1	blank2r.bmp	0	1	+	0	3	B3r.bmp	492	1	blank2r.bmp	786	1	DHJF	786	1	blank2r.bmp	866	5	kreativ	866	0	0	0	0	0	0	0	0	0	0	0	0	0	0	0	0	0	0	0	0	0	0	0	0	0	0	0	0	0	0	0	0	0
121218	15:17:52	15:20:47	173661	5.0.10.0	4_exp_EVA_AMP_AWA_CON	10	Rpleas_acq	Same	Rpleas	Amasked	CS_A	2pleas	distractor1	EVAbeforeCON	acq_US_unple_masked	acq1_masked	1	16	0	0	300	300	0	0	890	46	0	1	0	0	0	1	blank2r.bmp	0	1	+	0	8	C4r.bmp	492	1	blank2r.bmp	786	1	CPLW	786	1	blank2r.bmp	866	2	versagen	866	0	0	0	0	0	0	0	0	0	0	0	0	0	0	0	0	0	0	0	0	0	0	0	0	0	0	0	0	0	0	0	0	0
121218	15:17:52	15:20:49	175980	5.0.10.0	4_exp_EVA_AMP_AWA_CON	10	Rpleas_acq	Same	Rpleas	Amasked	CS_A	2pleas	distractor1	EVAbeforeCON	acq_US_unple_masked	acq1_masked	1	17	0	0	300	300	0	0	826	46	0	1	0	0	0	1	blank2r.bmp	0	1	+	0	8	C4r.bmp	492	1	blank2r.bmp	786	1	CPLW	786	1	blank2r.bmp	866	5	krank	866	0	0	0	0	0	0	0	0	0	0	0	0	0	0	0	0	0	0	0	0	0	0	0	0	0	0	0	0	0	0	0	0	0
121218	15:17:52	15:20:52	178859	5.0.10.0	4_exp_EVA_AMP_AWA_CON	10	Rpleas_acq	Same	Rpleas	Amasked	CS_A	2pleas	distractor1	EVAbeforeCON	acq_new_pleas_masked	acq1_masked	1	18	0	0	300	300	0	0	1196	46	0	0	0	0	0	1	blank2r.bmp	0	1	+	0	3	B3r.bmp	492	1	blank2r.bmp	786	8	C4r.bmp	786	1	blank2r.bmp	866	5	gesittet	866	1	FEHLER	2092	0	0	0	0	0	0	0	0	0	0	0	0	0	0	0	0	0	0	0	0	0	0	0	0	0	0	0	0	0	0
121218	15:17:52	15:20:54	180805	5.0.10.0	4_exp_EVA_AMP_AWA_CON	10	Rpleas_acq	Same	Rpleas	Amasked	CS_A	2pleas	distractor1	EVAbeforeCON	acq_US_pleas_masked	acq1_masked	1	19	0	0	300	300	0	0	687	50	0	1	0	0	0	1	blank2r.bmp	0	1	+	0	5	C1r.bmp	492	1	blank2r.bmp	786	1	DHJF	786	1	blank2r.bmp	866	3	sonnig	866	0	0	0	0	0	0	0	0	0	0	0	0	0	0	0	0	0	0	0	0	0	0	0	0	0	0	0	0	0	0	0	0	0
121218	15:17:52	15:20:58	185243	5.0.10.0	4_exp_EVA_AMP_AWA_CON	10	Rpleas_acq	Same	Rpleas	Amasked	CS_A	2pleas	distractor1	EVAbeforeCON	acq_new_pleas_masked	acq1_masked	1	20	0	0	300	300	0	0	2952	50	0	1	0	0	0	1	blank2r.bmp	0	1	+	0	4	B4r.bmp	492	1	blank2r.bmp	786	5	C1r.bmp	786	1	blank2r.bmp	866	2	gütig	866	0	0	0	0	0	0	0	0	0	0	0	0	0	0	0	0	0	0	0	0	0	0	0	0	0	0	0	0	0	0	0	0	0
121218	15:17:52	15:21:00	187495	5.0.10.0	4_exp_EVA_AMP_AWA_CON	10	Rpleas_acq	Same	Rpleas	Amasked	CS_A	2pleas	distractor1	EVAbeforeCON	acq_US_pleas_masked	acq1_masked	1	21	0	0	300	300	0	0	769	50	0	1	0	0	0	1	blank2r.bmp	0	1	+	0	6	C2r.bmp	492	1	blank2r.bmp	786	1	DHJF	786	1	blank2r.bmp	866	6	träumen	866	0	0	0	0	0	0	0	0	0	0	0	0	0	0	0	0	0	0	0	0	0	0	0	0	0	0	0	0	0	0	0	0	0
121218	15:17:52	15:21:03	190014	5.0.10.0	4_exp_EVA_AMP_AWA_CON	10	Rpleas_acq	Same	Rpleas	Amasked	CS_A	2pleas	distractor1	EVAbeforeCON	acq_new_unple_masked	acq1_masked	1	22	0	0	300	300	0	0	816	50	0	0	0	0	0	1	blank2r.bmp	0	1	+	0	2	B2r.bmp	492	1	blank2r.bmp	786	3	B3r.bmp	786	1	blank2r.bmp	866	4	krise	866	1	FEHLER	1719	0	0	0	0	0	0	0	0	0	0	0	0	0	0	0	0	0	0	0	0	0	0	0	0	0	0	0	0	0	0
121218	15:17:52	15:21:05	192267	5.0.10.0	4_exp_EVA_AMP_AWA_CON	10	Rpleas_acq	Same	Rpleas	Amasked	CS_A	2pleas	distractor1	EVAbeforeCON	acq_new_pleas_masked	acq1_masked	1	23	0	0	300	300	0	0	995	50	0	1	0	0	0	1	blank2r.bmp	0	1	+	0	7	C3r.bmp	492	1	blank2r.bmp	786	1	B1r.bmp	786	1	blank2r.bmp	866	1	engagiert	866	0	0	0	0	0	0	0	0	0	0	0	0	0	0	0	0	0	0	0	0	0	0	0	0	0	0	0	0	0	0	0	0	0
121218	15:17:52	15:21:07	194546	5.0.10.0	4_exp_EVA_AMP_AWA_CON	10	Rpleas_acq	Same	Rpleas	Amasked	CS_A	2pleas	distractor1	EVAbeforeCON	acq_US_unple_masked	acq1_masked	1	24	0	0	300	300	0	0	794	46	0	1	0	0	0	1	blank2r.bmp	0	1	+	0	1	B1r.bmp	492	1	blank2r.bmp	786	1	CPLW	786	1	blank2r.bmp	866	6	töten	866	0	0	0	0	0	0	0	0	0	0	0	0	0	0	0	0	0	0	0	0	0	0	0	0	0	0	0	0	0	0	0	0	0
121218	15:17:52	15:21:11	198571	5.0.10.0	4_exp_EVA_AMP_AWA_CON	10	Rpleas_acq	Same	Rpleas	Amasked	CS_A	2pleas	distractor1	EVAbeforeCON	acq_US_pleas_masked	acq1_masked	1	25	0	0	300	300	0	0	2537	50	0	1	0	0	0	1	blank2r.bmp	0	1	+	0	8	C4r.bmp	492	1	blank2r.bmp	786	1	DHJF	786	1	blank2r.bmp	866	2	vertrauen	866	0	0	0	0	0	0	0	0	0	0	0	0	0	0	0	0	0	0	0	0	0	0	0	0	0	0	0	0	0	0	0	0	0
121218	15:17:52	15:21:14	201396	5.0.10.0	4_exp_EVA_AMP_AWA_CON	10	Rpleas_acq	Same	Rpleas	Amasked	CS_A	2pleas	distractor1	EVAbeforeCON	acq_new_pleas_masked	acq1_masked	1	26	0	0	300	300	0	0	1142	46	0	0	0	0	0	1	blank2r.bmp	0	1	+	0	5	C1r.bmp	492	1	blank2r.bmp	786	4	B4r.bmp	786	1	blank2r.bmp	866	3	vergnügt	866	1	FEHLER	2039	0	0	0	0	0	0	0	0	0	0	0	0	0	0	0	0	0	0	0	0	0	0	0	0	0	0	0	0	0	0
121218	15:17:52	15:21:17	203769	5.0.10.0	4_exp_EVA_AMP_AWA_CON	10	Rpleas_acq	Same	Rpleas	Amasked	CS_A	2pleas	distractor1	EVAbeforeCON	acq_new_unple_masked	acq1_masked	1	27	0	0	300	300	0	0	1093	46	0	1	0	0	0	1	blank2r.bmp	0	1	+	0	4	B4r.bmp	492	1	blank2r.bmp	786	7	C3r.bmp	786	1	blank2r.bmp	866	5	geizig	866	0	0	0	0	0	0	0	0	0	0	0	0	0	0	0	0	0	0	0	0	0	0	0	0	0	0	0	0	0	0	0	0	0
121218	15:17:52	15:21:19	206021	5.0.10.0	4_exp_EVA_AMP_AWA_CON	10	Rpleas_acq	Same	Rpleas	Amasked	CS_A	2pleas	distractor1	EVAbeforeCON	acq_US_pleas_masked	acq1_masked	1	28	0	0	300	300	0	0	774	50	0	1	0	0	0	1	blank2r.bmp	0	1	+	0	7	C3r.bmp	492	1	blank2r.bmp	786	1	DHJF	786	1	blank2r.bmp	866	5	kreativ	866	0	0	0	0	0	0	0	0	0	0	0	0	0	0	0	0	0	0	0	0	0	0	0	0	0	0	0	0	0	0	0	0	0
121218	15:17:52	15:21:21	208207	5.0.10.0	4_exp_EVA_AMP_AWA_CON	10	Rpleas_acq	Same	Rpleas	Amasked	CS_A	2pleas	distractor1	EVAbeforeCON	acq_US_unple_masked	acq1_masked	1	29	0	0	300	300	0	0	695	46	0	1	0	0	0	1	blank2r.bmp	0	1	+	0	6	C2r.bmp	492	1	blank2r.bmp	786	1	CPLW	786	1	blank2r.bmp	866	2	versagen	866	0	0	0	0	0	0	0	0	0	0	0	0	0	0	0	0	0	0	0	0	0	0	0	0	0	0	0	0	0	0	0	0	0
121218	15:17:52	15:21:23	210286	5.0.10.0	4_exp_EVA_AMP_AWA_CON	10	Rpleas_acq	Same	Rpleas	Amasked	CS_A	2pleas	distractor1	EVAbeforeCON	acq_US_pleas_masked	acq1_masked	1	30	0	0	300	300	0	0	606	50	0	1	0	0	0	1	blank2r.bmp	0	1	+	0	3	B3r.bmp	492	1	blank2r.bmp	786	1	DHJF	786	1	blank2r.bmp	866	6	träumen	866	0	0	0	0	0	0	0	0	0	0	0	0	0	0	0	0	0	0	0	0	0	0	0	0	0	0	0	0	0	0	0	0	0
121218	15:17:52	15:21:26	213298	5.0.10.0	4_exp_EVA_AMP_AWA_CON	10	Rpleas_acq	Same	Rpleas	Amasked	CS_A	2pleas	distractor1	EVAbeforeCON	acq_new_pleas_masked	acq1_masked	1	31	0	0	300	300	0	0	1326	46	0	0	0	0	0	1	blank2r.bmp	0	1	+	0	1	B1r.bmp	492	1	blank2r.bmp	786	6	C2r.bmp	786	1	blank2r.bmp	866	5	gesittet	866	1	FEHLER	2225	0	0	0	0	0	0	0	0	0	0	0	0	0	0	0	0	0	0	0	0	0	0	0	0	0	0	0	0	0	0
121218	15:17:52	15:21:28	215417	5.0.10.0	4_exp_EVA_AMP_AWA_CON	10	Rpleas_acq	Same	Rpleas	Amasked	CS_A	2pleas	distractor1	EVAbeforeCON	acq_new_unple_masked	acq1_masked	1	32	0	0	300	300	0	0	847	46	0	1	0	0	0	1	blank2r.bmp	0	1	+	0	2	B2r.bmp	492	1	blank2r.bmp	786	2	B2r.bmp	786	1	blank2r.bmp	866	3	verbissen	866	0	0	0	0	0	0	0	0	0	0	0	0	0	0	0	0	0	0	0	0	0	0	0	0	0	0	0	0	0	0	0	0	0
121218	15:17:52	15:21:30	217563	5.0.10.0	4_exp_EVA_AMP_AWA_CON	10	Rpleas_acq	Same	Rpleas	Amasked	CS_A	2pleas	distractor1	EVAbeforeCON	acq_US_unple_masked	acq1_masked	1	33	0	0	300	300	0	0	666	46	0	1	0	0	0	1	blank2r.bmp	0	1	+	0	2	B2r.bmp	492	1	blank2r.bmp	786	1	CPLW	786	1	blank2r.bmp	866	6	töten	866	0	0	0	0	0	0	0	0	0	0	0	0	0	0	0	0	0	0	0	0	0	0	0	0	0	0	0	0	0	0	0	0	0
121218	15:17:52	15:21:33	220229	5.0.10.0	4_exp_EVA_AMP_AWA_CON	10	Rpleas_acq	Same	Rpleas	Amasked	CS_A	2pleas	distractor1	EVAbeforeCON	acq_US_unple_masked	acq1_masked	1	34	0	0	300	300	0	0	967	50	0	0	0	0	0	1	blank2r.bmp	0	1	+	0	6	C2r.bmp	492	1	blank2r.bmp	786	1	CPLW	786	1	blank2r.bmp	866	4	bange	866	1	FEHLER	1865	0	0	0	0	0	0	0	0	0	0	0	0	0	0	0	0	0	0	0	0	0	0	0	0	0	0	0	0	0	0
121218	15:17:52	15:21:35	222134	5.0.10.0	4_exp_EVA_AMP_AWA_CON	10	Rpleas_acq	Same	Rpleas	Amasked	CS_A	2pleas	distractor1	EVAbeforeCON	acq_new_pleas_masked	acq1_masked	1	35	0	0	300	300	0	0	635	50	0	1	0	0	0	1	blank2r.bmp	0	1	+	0	1	B1r.bmp	492	1	blank2r.bmp	786	2	B2r.bmp	786	1	blank2r.bmp	866	4	kuss	866	0	0	0	0	0	0	0	0	0	0	0	0	0	0	0	0	0	0	0	0	0	0	0	0	0	0	0	0	0	0	0	0	0
121218	15:17:52	15:21:38	225506	5.0.10.0	4_exp_EVA_AMP_AWA_CON	10	Rpleas_acq	Same	Rpleas	Amasked	CS_A	2pleas	distractor1	EVAbeforeCON	acq_new_unple_masked	acq1_masked	1	36	0	0	300	300	0	0	1878	46	0	1	0	0	0	1	blank2r.bmp	0	1	+	0	3	B3r.bmp	492	1	blank2r.bmp	786	7	C3r.bmp	786	1	blank2r.bmp	866	2	gierig	866	0	0	0	0	0	0	0	0	0	0	0	0	0	0	0	0	0	0	0	0	0	0	0	0	0	0	0	0	0	0	0	0	0
121218	15:17:52	15:22:41	288014	5.0.10.0	4_exp_EVA_AMP_AWA_CON	10	Rpleas_acq	Same	Rpleas	Amasked	CS_A	2pleas	distractor1	EVAbeforeCON	acq_new_unple_masked	acq2_masked	2	1	480	0	300	300	0	0	1502	50	0	0	0	0	0	1	blank2r.bmp	0	1	+	0	8	C4r.bmp	492	1	blank2r.bmp	786	3	B3r.bmp	786	1	blank2r.bmp	866	1	engstirnig	866	1	FEHLER	2705	1	!	1319	1	!	-1	0	0	0	0	0	0	0	0	0	0	0	0	0	0	0	0	0	0	0	0	0	0	0	0
121218	15:17:52	15:22:43	290533	5.0.10.0	4_exp_EVA_AMP_AWA_CON	10	Rpleas_acq	Same	Rpleas	Amasked	CS_A	2pleas	distractor1	EVAbeforeCON	acq_new_unple_masked	acq2_masked	2	2	480	0	300	300	0	0	744	50	0	0	0	0	0	1	blank2r.bmp	0	1	+	0	4	B4r.bmp	492	1	blank2r.bmp	786	8	C4r.bmp	786	1	blank2r.bmp	866	6	gemein	866	1	FEHLER	1945	1	!	1319	1	!	-1	0	0	0	0	0	0	0	0	0	0	0	0	0	0	0	0	0	0	0	0	0	0	0	0
121218	15:17:52	15:22:49	296091	5.0.10.0	4_exp_EVA_AMP_AWA_CON	10	Rpleas_acq	Same	Rpleas	Amasked	CS_A	2pleas	distractor1	EVAbeforeCON	acq_new_unple_masked	acq2_masked	2	3	480	0	300	300	0	0	4007	46	0	1	0	0	0	1	blank2r.bmp	0	1	+	0	5	C1r.bmp	492	1	blank2r.bmp	786	1	B1r.bmp	786	1	blank2r.bmp	866	4	krise	866	1	!	1319	1	!	-1	0	0	0	0	0	0	0	0	0	0	0	0	0	0	0	0	0	0	0	0	0	0	0	0	0	0	0
121218	15:17:52	15:22:52	299089	5.0.10.0	4_exp_EVA_AMP_AWA_CON	10	Rpleas_acq	Same	Rpleas	Amasked	CS_A	2pleas	distractor1	EVAbeforeCON	acq_US_unple_masked	acq2_masked	2	4	480	0	300	300	0	0	1215	46	0	1	0	0	0	1	blank2r.bmp	0	1	+	0	7	C3r.bmp	492	1	blank2r.bmp	786	1	CPLW	786	1	blank2r.bmp	866	5	krank	866	1	!	1319	1	!	-1	0	0	0	0	0	0	0	0	0	0	0	0	0	0	0	0	0	0	0	0	0	0	0	0	0	0	0
121218	15:17:52	15:22:55	301688	5.0.10.0	4_exp_EVA_AMP_AWA_CON	10	Rpleas_acq	Same	Rpleas	Amasked	CS_A	2pleas	distractor1	EVAbeforeCON	acq_new_pleas_masked	acq2_masked	2	5	480	0	300	300	0	0	822	50	0	1	0	0	0	1	blank2r.bmp	0	1	+	0	7	C3r.bmp	492	1	blank2r.bmp	786	4	B4r.bmp	786	1	blank2r.bmp	866	6	genießen	866	1	!	1319	1	!	-1	0	0	0	0	0	0	0	0	0	0	0	0	0	0	0	0	0	0	0	0	0	0	0	0	0	0	0
121218	15:17:52	15:22:57	304314	5.0.10.0	4_exp_EVA_AMP_AWA_CON	10	Rpleas_acq	Same	Rpleas	Amasked	CS_A	2pleas	distractor1	EVAbeforeCON	acq_new_pleas_masked	acq2_masked	2	6	480	0	300	300	0	0	846	50	0	1	0	0	0	1	blank2r.bmp	0	1	+	0	1	B1r.bmp	492	1	blank2r.bmp	786	6	C2r.bmp	786	1	blank2r.bmp	866	1	engagiert	866	1	!	1319	1	!	-1	0	0	0	0	0	0	0	0	0	0	0	0	0	0	0	0	0	0	0	0	0	0	0	0	0	0	0
121218	15:17:52	15:23:01	307593	5.0.10.0	4_exp_EVA_AMP_AWA_CON	10	Rpleas_acq	Same	Rpleas	Amasked	CS_A	2pleas	distractor1	EVAbeforeCON	acq_US_pleas_masked	acq2_masked	2	7	480	0	300	300	0	0	1494	50	0	1	0	0	0	1	blank2r.bmp	0	1	+	0	2	B2r.bmp	492	1	blank2r.bmp	786	1	DHJF	786	1	blank2r.bmp	866	1	anregung	866	1	!	1319	1	!	-1	0	0	0	0	0	0	0	0	0	0	0	0	0	0	0	0	0	0	0	0	0	0	0	0	0	0	0
121218	15:17:52	15:23:03	310045	5.0.10.0	4_exp_EVA_AMP_AWA_CON	10	Rpleas_acq	Same	Rpleas	Amasked	CS_A	2pleas	distractor1	EVAbeforeCON	acq_US_pleas_masked	acq2_masked	2	8	480	0	300	300	0	0	674	50	0	1	0	0	0	1	blank2r.bmp	0	1	+	0	5	C1r.bmp	492	1	blank2r.bmp	786	1	DHJF	786	1	blank2r.bmp	866	3	sonnig	866	1	!	1319	1	!	-1	0	0	0	0	0	0	0	0	0	0	0	0	0	0	0	0	0	0	0	0	0	0	0	0	0	0	0
121218	15:17:52	15:23:06	312604	5.0.10.0	4_exp_EVA_AMP_AWA_CON	10	Rpleas_acq	Same	Rpleas	Amasked	CS_A	2pleas	distractor1	EVAbeforeCON	acq_US_unple_masked	acq2_masked	2	9	480	0	300	300	0	0	782	46	0	1	0	0	0	1	blank2r.bmp	0	1	+	0	4	B4r.bmp	492	1	blank2r.bmp	786	1	CPLW	786	1	blank2r.bmp	866	1	ausrottung	866	1	!	1319	1	!	-1	0	0	0	0	0	0	0	0	0	0	0	0	0	0	0	0	0	0	0	0	0	0	0	0	0	0	0
121218	15:17:52	15:23:09	315869	5.0.10.0	4_exp_EVA_AMP_AWA_CON	10	Rpleas_acq	Same	Rpleas	Amasked	CS_A	2pleas	distractor1	EVAbeforeCON	acq_US_pleas_masked	acq2_masked	2	10	480	0	300	300	0	0	1481	50	0	1	0	0	0	1	blank2r.bmp	0	1	+	0	6	C2r.bmp	492	1	blank2r.bmp	786	1	DHJF	786	1	blank2r.bmp	866	4	besonnen	866	1	!	1319	1	!	-1	0	0	0	0	0	0	0	0	0	0	0	0	0	0	0	0	0	0	0	0	0	0	0	0	0	0	0
121218	15:17:52	15:23:11	318561	5.0.10.0	4_exp_EVA_AMP_AWA_CON	10	Rpleas_acq	Same	Rpleas	Amasked	CS_A	2pleas	distractor1	EVAbeforeCON	acq_new_pleas_masked	acq2_masked	2	11	480	0	300	300	0	0	910	50	0	1	0	0	0	1	blank2r.bmp	0	1	+	0	8	C4r.bmp	492	1	blank2r.bmp	786	5	C1r.bmp	786	1	blank2r.bmp	866	2	gütig	866	1	!	1319	1	!	-1	0	0	0	0	0	0	0	0	0	0	0	0	0	0	0	0	0	0	0	0	0	0	0	0	0	0	0
121218	15:17:52	15:23:14	320947	5.0.10.0	4_exp_EVA_AMP_AWA_CON	10	Rpleas_acq	Same	Rpleas	Amasked	CS_A	2pleas	distractor1	EVAbeforeCON	acq_US_unple_masked	acq2_masked	2	12	480	0	300	300	0	0	595	46	0	1	0	0	0	1	blank2r.bmp	0	1	+	0	3	B3r.bmp	492	1	blank2r.bmp	786	1	CPLW	786	1	blank2r.bmp	866	3	sterben	866	1	!	1319	1	!	-1	0	0	0	0	0	0	0	0	0	0	0	0	0	0	0	0	0	0	0	0	0	0	0	0	0	0	0
121218	15:17:52	15:23:16	323453	5.0.10.0	4_exp_EVA_AMP_AWA_CON	10	Rpleas_acq	Same	Rpleas	Amasked	CS_A	2pleas	distractor1	EVAbeforeCON	acq_US_pleas_masked	acq2_masked	2	13	480	0	300	300	0	0	713	50	0	1	0	0	0	1	blank2r.bmp	0	1	+	0	1	B1r.bmp	492	1	blank2r.bmp	786	1	DHJF	786	1	blank2r.bmp	866	6	träumen	866	1	!	1319	1	!	-1	0	0	0	0	0	0	0	0	0	0	0	0	0	0	0	0	0	0	0	0	0	0	0	0	0	0	0
121218	15:17:52	15:23:19	326025	5.0.10.0	4_exp_EVA_AMP_AWA_CON	10	Rpleas_acq	Same	Rpleas	Amasked	CS_A	2pleas	distractor1	EVAbeforeCON	acq_US_pleas_masked	acq2_masked	2	14	480	0	300	300	0	0	791	50	0	1	0	0	0	1	blank2r.bmp	0	1	+	0	7	C3r.bmp	492	1	blank2r.bmp	786	1	DHJF	786	1	blank2r.bmp	866	1	anregung	866	1	!	1319	1	!	-1	0	0	0	0	0	0	0	0	0	0	0	0	0	0	0	0	0	0	0	0	0	0	0	0	0	0	0
121218	15:17:52	15:23:21	328371	5.0.10.0	4_exp_EVA_AMP_AWA_CON	10	Rpleas_acq	Same	Rpleas	Amasked	CS_A	2pleas	distractor1	EVAbeforeCON	acq_US_unple_masked	acq2_masked	2	15	480	1	300	300	0	0	532	46	0	1	0	0	0	1	blank2r.bmp	0	1	+	0	8	C4r.bmp	492	1	blank2r.bmp	786	1	CPLW	786	1	blank2r.bmp	866	1	ausrottung	866	1	!	1319	1	!	1439	0	0	0	0	0	0	0	0	0	0	0	0	0	0	0	0	0	0	0	0	0	0	0	0	0	0	0
121218	15:17:52	15:23:24	331516	5.0.10.0	4_exp_EVA_AMP_AWA_CON	10	Rpleas_acq	Same	Rpleas	Amasked	CS_A	2pleas	distractor1	EVAbeforeCON	acq_new_pleas_masked	acq2_masked	2	16	480	0	300	300	0	0	1132	46	0	0	0	0	0	1	blank2r.bmp	0	1	+	0	2	B2r.bmp	492	1	blank2r.bmp	786	6	C2r.bmp	786	1	blank2r.bmp	866	1	engagiert	866	1	FEHLER	2345	1	!	1319	1	!	-1	0	0	0	0	0	0	0	0	0	0	0	0	0	0	0	0	0	0	0	0	0	0	0	0
121218	15:17:52	15:23:28	334661	5.0.10.0	4_exp_EVA_AMP_AWA_CON	10	Rpleas_acq	Same	Rpleas	Amasked	CS_A	2pleas	distractor1	EVAbeforeCON	acq_new_unple_masked	acq2_masked	2	17	480	0	300	300	0	0	1365	50	0	0	0	0	0	1	blank2r.bmp	0	1	+	0	3	B3r.bmp	492	1	blank2r.bmp	786	8	C4r.bmp	786	1	blank2r.bmp	866	3	verbissen	866	1	FEHLER	2572	1	!	1319	1	!	-1	0	0	0	0	0	0	0	0	0	0	0	0	0	0	0	0	0	0	0	0	0	0	0	0
121218	15:17:52	15:23:30	337300	5.0.10.0	4_exp_EVA_AMP_AWA_CON	10	Rpleas_acq	Same	Rpleas	Amasked	CS_A	2pleas	distractor1	EVAbeforeCON	acq_US_unple_masked	acq2_masked	2	18	480	0	300	300	0	0	1076	46	0	1	0	0	0	1	blank2r.bmp	0	1	+	0	4	B4r.bmp	492	1	blank2r.bmp	786	1	CPLW	786	1	blank2r.bmp	866	6	töten	866	1	!	1319	1	!	-1	0	0	0	0	0	0	0	0	0	0	0	0	0	0	0	0	0	0	0	0	0	0	0	0	0	0	0
121218	15:17:52	15:23:33	340299	5.0.10.0	4_exp_EVA_AMP_AWA_CON	10	Rpleas_acq	Same	Rpleas	Amasked	CS_A	2pleas	distractor1	EVAbeforeCON	acq_new_unple_masked	acq2_masked	2	19	480	0	300	300	0	0	989	50	0	0	0	0	0	1	blank2r.bmp	0	1	+	0	6	C2r.bmp	492	1	blank2r.bmp	786	2	B2r.bmp	786	1	blank2r.bmp	866	5	geizig	866	1	FEHLER	2199	1	!	1319	1	!	-1	0	0	0	0	0	0	0	0	0	0	0	0	0	0	0	0	0	0	0	0	0	0	0	0
121218	15:17:52	15:23:36	342671	5.0.10.0	4_exp_EVA_AMP_AWA_CON	10	Rpleas_acq	Same	Rpleas	Amasked	CS_A	2pleas	distractor1	EVAbeforeCON	acq_US_unple_masked	acq2_masked	2	20	480	0	300	300	0	0	809	46	0	1	0	0	0	1	blank2r.bmp	0	1	+	0	5	C1r.bmp	492	1	blank2r.bmp	786	1	CPLW	786	1	blank2r.bmp	866	3	sterben	866	1	!	1319	1	!	-1	0	0	0	0	0	0	0	0	0	0	0	0	0	0	0	0	0	0	0	0	0	0	0	0	0	0	0
121218	15:17:52	15:23:38	345270	5.0.10.0	4_exp_EVA_AMP_AWA_CON	10	Rpleas_acq	Same	Rpleas	Amasked	CS_A	2pleas	distractor1	EVAbeforeCON	acq_US_pleas_masked	acq2_masked	2	21	480	0	300	300	0	0	822	50	0	1	0	0	0	1	blank2r.bmp	0	1	+	0	1	B1r.bmp	492	1	blank2r.bmp	786	1	DHJF	786	1	blank2r.bmp	866	5	kreativ	866	1	!	1319	1	!	-1	0	0	0	0	0	0	0	0	0	0	0	0	0	0	0	0	0	0	0	0	0	0	0	0	0	0	0
121218	15:17:52	15:23:41	348083	5.0.10.0	4_exp_EVA_AMP_AWA_CON	10	Rpleas_acq	Same	Rpleas	Amasked	CS_A	2pleas	distractor1	EVAbeforeCON	acq_new_unple_masked	acq2_masked	2	22	480	0	300	300	0	0	1031	46	0	1	0	0	0	1	blank2r.bmp	0	1	+	0	8	C4r.bmp	492	1	blank2r.bmp	786	5	C1r.bmp	786	1	blank2r.bmp	866	2	gierig	866	1	!	1319	1	!	-1	0	0	0	0	0	0	0	0	0	0	0	0	0	0	0	0	0	0	0	0	0	0	0	0	0	0	0
121218	15:17:52	15:23:44	351055	5.0.10.0	4_exp_EVA_AMP_AWA_CON	10	Rpleas_acq	Same	Rpleas	Amasked	CS_A	2pleas	distractor1	EVAbeforeCON	acq_new_pleas_masked	acq2_masked	2	23	480	0	300	300	0	0	1189	50	0	1	0	0	0	1	blank2r.bmp	0	1	+	0	4	B4r.bmp	492	1	blank2r.bmp	786	1	B1r.bmp	786	1	blank2r.bmp	866	2	gütig	866	1	!	1319	1	!	-1	0	0	0	0	0	0	0	0	0	0	0	0	0	0	0	0	0	0	0	0	0	0	0	0	0	0	0
121218	15:17:52	15:23:47	354253	5.0.10.0	4_exp_EVA_AMP_AWA_CON	10	Rpleas_acq	Same	Rpleas	Amasked	CS_A	2pleas	distractor1	EVAbeforeCON	acq_new_pleas_masked	acq2_masked	2	24	480	0	300	300	0	0	1405	50	0	1	0	0	0	1	blank2r.bmp	0	1	+	0	6	C2r.bmp	492	1	blank2r.bmp	786	4	B4r.bmp	786	1	blank2r.bmp	866	3	vergnügt	866	1	!	1319	1	!	-1	0	0	0	0	0	0	0	0	0	0	0	0	0	0	0	0	0	0	0	0	0	0	0	0	0	0	0
121218	15:17:52	15:23:50	357145	5.0.10.0	4_exp_EVA_AMP_AWA_CON	10	Rpleas_acq	Same	Rpleas	Amasked	CS_A	2pleas	distractor1	EVAbeforeCON	acq_new_unple_masked	acq2_masked	2	25	480	0	300	300	0	0	865	50	0	0	0	0	0	1	blank2r.bmp	0	1	+	0	7	C3r.bmp	492	1	blank2r.bmp	786	3	B3r.bmp	786	1	blank2r.bmp	866	6	gemein	866	1	FEHLER	2079	1	!	1319	1	!	-1	0	0	0	0	0	0	0	0	0	0	0	0	0	0	0	0	0	0	0	0	0	0	0	0
121218	15:17:52	15:23:52	359425	5.0.10.0	4_exp_EVA_AMP_AWA_CON	10	Rpleas_acq	Same	Rpleas	Amasked	CS_A	2pleas	distractor1	EVAbeforeCON	acq_new_pleas_masked	acq2_masked	2	26	480	0	300	300	0	0	725	50	0	1	0	0	0	1	blank2r.bmp	0	1	+	0	5	C1r.bmp	492	1	blank2r.bmp	786	7	C3r.bmp	786	1	blank2r.bmp	866	4	kuss	866	1	!	1319	1	!	-1	0	0	0	0	0	0	0	0	0	0	0	0	0	0	0	0	0	0	0	0	0	0	0	0	0	0	0
121218	15:17:52	15:23:55	361944	5.0.10.0	4_exp_EVA_AMP_AWA_CON	10	Rpleas_acq	Same	Rpleas	Amasked	CS_A	2pleas	distractor1	EVAbeforeCON	acq_US_pleas_masked	acq2_masked	2	27	480	0	300	300	0	0	733	50	0	1	0	0	0	1	blank2r.bmp	0	1	+	0	3	B3r.bmp	492	1	blank2r.bmp	786	1	DHJF	786	1	blank2r.bmp	866	4	besonnen	866	1	!	1319	1	!	-1	0	0	0	0	0	0	0	0	0	0	0	0	0	0	0	0	0	0	0	0	0	0	0	0	0	0	0
121218	15:17:52	15:23:58	364822	5.0.10.0	4_exp_EVA_AMP_AWA_CON	10	Rpleas_acq	Same	Rpleas	Amasked	CS_A	2pleas	distractor1	EVAbeforeCON	acq_US_pleas_masked	acq2_masked	2	28	480	0	300	300	0	0	1080	50	0	1	0	0	0	1	blank2r.bmp	0	1	+	0	2	B2r.bmp	492	1	blank2r.bmp	786	1	DHJF	786	1	blank2r.bmp	866	2	vertrauen	866	1	!	1319	1	!	-1	0	0	0	0	0	0	0	0	0	0	0	0	0	0	0	0	0	0	0	0	0	0	0	0	0	0	0
121218	15:17:52	15:24:00	367315	5.0.10.0	4_exp_EVA_AMP_AWA_CON	10	Rpleas_acq	Same	Rpleas	Amasked	CS_A	2pleas	distractor1	EVAbeforeCON	acq_US_pleas_masked	acq2_masked	2	29	480	0	300	300	0	0	707	50	0	1	0	0	0	1	blank2r.bmp	0	1	+	0	5	C1r.bmp	492	1	blank2r.bmp	786	1	DHJF	786	1	blank2r.bmp	866	3	sonnig	866	1	!	1319	1	!	-1	0	0	0	0	0	0	0	0	0	0	0	0	0	0	0	0	0	0	0	0	0	0	0	0	0	0	0
121218	15:17:52	15:24:03	369807	5.0.10.0	4_exp_EVA_AMP_AWA_CON	10	Rpleas_acq	Same	Rpleas	Amasked	CS_A	2pleas	distractor1	EVAbeforeCON	acq_US_unple_masked	acq2_masked	2	30	480	0	300	300	0	0	713	46	0	1	0	0	0	1	blank2r.bmp	0	1	+	0	6	C2r.bmp	492	1	blank2r.bmp	786	1	CPLW	786	1	blank2r.bmp	866	4	bange	866	1	!	1319	1	!	-1	0	0	0	0	0	0	0	0	0	0	0	0	0	0	0	0	0	0	0	0	0	0	0	0	0	0	0
121218	15:17:52	15:24:05	372393	5.0.10.0	4_exp_EVA_AMP_AWA_CON	10	Rpleas_acq	Same	Rpleas	Amasked	CS_A	2pleas	distractor1	EVAbeforeCON	acq_new_unple_masked	acq2_masked	2	31	480	0	300	300	0	0	794	46	0	1	0	0	0	1	blank2r.bmp	0	1	+	0	2	B2r.bmp	492	1	blank2r.bmp	786	3	B3r.bmp	786	1	blank2r.bmp	866	4	krise	866	1	!	1319	1	!	-1	0	0	0	0	0	0	0	0	0	0	0	0	0	0	0	0	0	0	0	0	0	0	0	0	0	0	0
121218	15:17:52	15:24:08	375071	5.0.10.0	4_exp_EVA_AMP_AWA_CON	10	Rpleas_acq	Same	Rpleas	Amasked	CS_A	2pleas	distractor1	EVAbeforeCON	acq_new_pleas_masked	acq2_masked	2	32	480	0	300	300	0	0	903	50	0	1	0	0	0	1	blank2r.bmp	0	1	+	0	8	C4r.bmp	492	1	blank2r.bmp	786	7	C3r.bmp	786	1	blank2r.bmp	866	6	genießen	866	1	!	1319	1	!	-1	0	0	0	0	0	0	0	0	0	0	0	0	0	0	0	0	0	0	0	0	0	0	0	0	0	0	0
121218	15:17:52	15:24:10	377497	5.0.10.0	4_exp_EVA_AMP_AWA_CON	10	Rpleas_acq	Same	Rpleas	Amasked	CS_A	2pleas	distractor1	EVAbeforeCON	acq_US_unple_masked	acq2_masked	2	33	480	0	300	300	0	0	647	46	0	1	0	0	0	1	blank2r.bmp	0	1	+	0	3	B3r.bmp	492	1	blank2r.bmp	786	1	CPLW	786	1	blank2r.bmp	866	5	krank	866	1	!	1319	1	!	-1	0	0	0	0	0	0	0	0	0	0	0	0	0	0	0	0	0	0	0	0	0	0	0	0	0	0	0
121218	15:17:52	15:24:13	380376	5.0.10.0	4_exp_EVA_AMP_AWA_CON	10	Rpleas_acq	Same	Rpleas	Amasked	CS_A	2pleas	distractor1	EVAbeforeCON	acq_new_unple_masked	acq2_masked	2	34	480	0	300	300	0	0	863	50	0	0	0	0	0	1	blank2r.bmp	0	1	+	0	7	C3r.bmp	492	1	blank2r.bmp	786	2	B2r.bmp	786	1	blank2r.bmp	866	1	engstirnig	866	1	FEHLER	2065	1	!	1319	1	!	-1	0	0	0	0	0	0	0	0	0	0	0	0	0	0	0	0	0	0	0	0	0	0	0	0
121218	15:17:52	15:24:16	382615	5.0.10.0	4_exp_EVA_AMP_AWA_CON	10	Rpleas_acq	Same	Rpleas	Amasked	CS_A	2pleas	distractor1	EVAbeforeCON	acq_US_unple_masked	acq2_masked	2	35	480	0	300	300	0	0	668	46	0	1	0	0	0	1	blank2r.bmp	0	1	+	0	4	B4r.bmp	492	1	blank2r.bmp	786	1	CPLW	786	1	blank2r.bmp	866	2	versagen	866	1	!	1319	1	!	-1	0	0	0	0	0	0	0	0	0	0	0	0	0	0	0	0	0	0	0	0	0	0	0	0	0	0	0
121218	15:17:52	15:24:19	385640	5.0.10.0	4_exp_EVA_AMP_AWA_CON	10	Rpleas_acq	Same	Rpleas	Amasked	CS_A	2pleas	distractor1	EVAbeforeCON	acq_new_pleas_masked	acq2_masked	2	36	480	0	300	300	0	0	1001	46	0	0	0	0	0	1	blank2r.bmp	0	1	+	0	1	B1r.bmp	492	1	blank2r.bmp	786	5	C1r.bmp	786	1	blank2r.bmp	866	5	gesittet	866	1	FEHLER	2212	1	!	1319	1	!	-1	0	0	0	0	0	0	0	0	0	0	0	0	0	0	0	0	0	0	0	0	0	0	0	0
121218	15:17:52	15:24:46	412869	5.0.10.0	4_exp_EVA_AMP_AWA_CON	10	Rpleas_acq	Same	Rpleas	Amasked	CS_A	2pleas	distractor1	EVAbeforeCON	acq_US_unple_masked	acq3_masked	3	1	453	0	300	300	0	0	3910	46	0	1	0	0	0	1	blank2r.bmp	0	1	+	0	7	C3r.bmp	492	1	blank2r.bmp	786	1	CPLW	786	1	blank2r.bmp	866	2	versagen	866	1	!	1292	1	!	-1	0	0	0	0	0	0	0	0	0	0	0	0	0	0	0	0	0	0	0	0	0	0	0	0	0	0	0
121218	15:17:52	15:24:48	415308	5.0.10.0	4_exp_EVA_AMP_AWA_CON	10	Rpleas_acq	Same	Rpleas	Amasked	CS_A	2pleas	distractor1	EVAbeforeCON	acq_US_pleas_masked	acq3_masked	3	2	453	0	300	300	0	0	657	50	0	1	0	0	0	1	blank2r.bmp	0	1	+	0	5	C1r.bmp	492	1	blank2r.bmp	786	1	DHJF	786	1	blank2r.bmp	866	1	anregung	866	1	!	1292	1	!	-1	0	0	0	0	0	0	0	0	0	0	0	0	0	0	0	0	0	0	0	0	0	0	0	0	0	0	0
121218	15:17:52	15:24:51	417694	5.0.10.0	4_exp_EVA_AMP_AWA_CON	10	Rpleas_acq	Same	Rpleas	Amasked	CS_A	2pleas	distractor1	EVAbeforeCON	acq_US_unple_masked	acq3_masked	3	3	453	0	300	300	0	0	607	46	0	1	0	0	0	1	blank2r.bmp	0	1	+	0	6	C2r.bmp	492	1	blank2r.bmp	786	1	CPLW	786	1	blank2r.bmp	866	3	sterben	866	1	!	1292	1	!	-1	0	0	0	0	0	0	0	0	0	0	0	0	0	0	0	0	0	0	0	0	0	0	0	0	0	0	0
121218	15:17:52	15:24:53	419973	5.0.10.0	4_exp_EVA_AMP_AWA_CON	10	Rpleas_acq	Same	Rpleas	Amasked	CS_A	2pleas	distractor1	EVAbeforeCON	acq_US_pleas_masked	acq3_masked	3	4	453	1	300	300	0	0	478	50	0	1	0	0	0	1	blank2r.bmp	0	1	+	0	3	B3r.bmp	492	1	blank2r.bmp	786	1	DHJF	786	1	blank2r.bmp	866	6	träumen	866	1	!	1292	1	!	1372	0	0	0	0	0	0	0	0	0	0	0	0	0	0	0	0	0	0	0	0	0	0	0	0	0	0	0
121218	15:17:52	15:24:55	422292	5.0.10.0	4_exp_EVA_AMP_AWA_CON	10	Rpleas_acq	Same	Rpleas	Amasked	CS_A	2pleas	distractor1	EVAbeforeCON	acq_US_unple_masked	acq3_masked	3	5	453	0	300	300	0	0	533	46	0	1	0	0	0	1	blank2r.bmp	0	1	+	0	4	B4r.bmp	492	1	blank2r.bmp	786	1	CPLW	786	1	blank2r.bmp	866	1	ausrottung	866	1	!	1292	1	!	-1	0	0	0	0	0	0	0	0	0	0	0	0	0	0	0	0	0	0	0	0	0	0	0	0	0	0	0
121218	15:17:52	15:24:58	424744	5.0.10.0	4_exp_EVA_AMP_AWA_CON	10	Rpleas_acq	Same	Rpleas	Amasked	CS_A	2pleas	distractor1	EVAbeforeCON	acq_US_pleas_masked	acq3_masked	3	6	453	0	300	300	0	0	665	50	0	1	0	0	0	1	blank2r.bmp	0	1	+	0	1	B1r.bmp	492	1	blank2r.bmp	786	1	DHJF	786	1	blank2r.bmp	866	5	kreativ	866	1	!	1292	1	!	-1	0	0	0	0	0	0	0	0	0	0	0	0	0	0	0	0	0	0	0	0	0	0	0	0	0	0	0
121218	15:17:52	15:25:00	427010	5.0.10.0	4_exp_EVA_AMP_AWA_CON	10	Rpleas_acq	Same	Rpleas	Amasked	CS_A	2pleas	distractor1	EVAbeforeCON	acq_US_pleas_masked	acq3_masked	3	7	453	1	300	300	0	0	465	50	0	1	0	0	0	1	blank2r.bmp	0	1	+	0	8	C4r.bmp	492	1	blank2r.bmp	786	1	DHJF	786	1	blank2r.bmp	866	3	sonnig	866	1	!	1292	1	!	1359	0	0	0	0	0	0	0	0	0	0	0	0	0	0	0	0	0	0	0	0	0	0	0	0	0	0	0
121218	15:17:52	15:25:02	429276	5.0.10.0	4_exp_EVA_AMP_AWA_CON	10	Rpleas_acq	Same	Rpleas	Amasked	CS_A	2pleas	distractor1	EVAbeforeCON	acq_US_pleas_masked	acq3_masked	3	8	453	1	300	300	0	0	464	50	0	1	0	0	0	1	blank2r.bmp	0	1	+	0	2	B2r.bmp	492	1	blank2r.bmp	786	1	DHJF	786	1	blank2r.bmp	866	2	vertrauen	866	1	!	1292	1	!	1359	0	0	0	0	0	0	0	0	0	0	0	0	0	0	0	0	0	0	0	0	0	0	0	0	0	0	0
121218	15:17:52	15:25:05	431595	5.0.10.0	4_exp_EVA_AMP_AWA_CON	10	Rpleas_acq	Same	Rpleas	Amasked	CS_A	2pleas	distractor1	EVAbeforeCON	acq_US_unple_masked	acq3_masked	3	9	453	0	300	300	0	0	548	46	0	1	0	0	0	1	blank2r.bmp	0	1	+	0	6	C2r.bmp	492	1	blank2r.bmp	786	1	CPLW	786	1	blank2r.bmp	866	4	bange	866	1	!	1292	1	!	-1	0	0	0	0	0	0	0	0	0	0	0	0	0	0	0	0	0	0	0	0	0	0	0	0	0	0	0
121218	15:17:52	15:25:07	433847	5.0.10.0	4_exp_EVA_AMP_AWA_CON	10	Rpleas_acq	Same	Rpleas	Amasked	CS_A	2pleas	distractor1	EVAbeforeCON	acq_US_unple_masked	acq3_masked	3	10	453	1	300	300	0	0	448	46	0	1	0	0	0	1	blank2r.bmp	0	1	+	0	2	B2r.bmp	492	1	blank2r.bmp	786	1	CPLW	786	1	blank2r.bmp	866	6	töten	866	1	!	1292	1	!	1346	0	0	0	0	0	0	0	0	0	0	0	0	0	0	0	0	0	0	0	0	0	0	0	0	0	0	0
121218	15:17:52	15:25:09	436073	5.0.10.0	4_exp_EVA_AMP_AWA_CON	10	Rpleas_acq	Same	Rpleas	Amasked	CS_A	2pleas	distractor1	EVAbeforeCON	acq_US_unple_masked	acq3_masked	3	11	453	1	300	300	0	0	435	46	0	1	0	0	0	1	blank2r.bmp	0	1	+	0	8	C4r.bmp	492	1	blank2r.bmp	786	1	CPLW	786	1	blank2r.bmp	866	5	krank	866	1	!	1292	1	!	1332	0	0	0	0	0	0	0	0	0	0	0	0	0	0	0	0	0	0	0	0	0	0	0	0	0	0	0
121218	15:17:52	15:25:11	438405	5.0.10.0	4_exp_EVA_AMP_AWA_CON	10	Rpleas_acq	Same	Rpleas	Amasked	CS_A	2pleas	distractor1	EVAbeforeCON	acq_US_pleas_masked	acq3_masked	3	12	453	0	300	300	0	0	554	50	0	1	0	0	0	1	blank2r.bmp	0	1	+	0	3	B3r.bmp	492	1	blank2r.bmp	786	1	DHJF	786	1	blank2r.bmp	866	4	besonnen	866	1	!	1292	1	!	-1	0	0	0	0	0	0	0	0	0	0	0	0	0	0	0	0	0	0	0	0	0	0	0	0	0	0	0
121218	15:17:52	15:25:14	440724	5.0.10.0	4_exp_EVA_AMP_AWA_CON	10	Rpleas_acq	Same	Rpleas	Amasked	CS_A	2pleas	distractor1	EVAbeforeCON	acq_US_pleas_masked	acq3_masked	3	13	453	1	300	300	0	0	512	50	0	1	0	0	0	1	blank2r.bmp	0	1	+	0	1	B1r.bmp	492	1	blank2r.bmp	786	1	DHJF	786	1	blank2r.bmp	866	2	vertrauen	866	1	!	1292	1	!	1412	0	0	0	0	0	0	0	0	0	0	0	0	0	0	0	0	0	0	0	0	0	0	0	0	0	0	0
121218	15:17:52	15:25:16	443323	5.0.10.0	4_exp_EVA_AMP_AWA_CON	10	Rpleas_acq	Same	Rpleas	Amasked	CS_A	2pleas	distractor1	EVAbeforeCON	acq_US_unple_masked	acq3_masked	3	14	453	0	300	300	0	0	611	50	0	0	0	0	0	1	blank2r.bmp	0	1	+	0	5	C1r.bmp	492	1	blank2r.bmp	786	1	CPLW	786	1	blank2r.bmp	866	5	krank	866	1	FEHLER	1812	1	!	1292	1	!	-1	0	0	0	0	0	0	0	0	0	0	0	0	0	0	0	0	0	0	0	0	0	0	0	0
121218	15:17:52	15:25:18	445416	5.0.10.0	4_exp_EVA_AMP_AWA_CON	10	Rpleas_acq	Same	Rpleas	Amasked	CS_A	2pleas	distractor1	EVAbeforeCON	acq_US_unple_masked	acq3_masked	3	15	453	1	300	300	0	0	515	46	0	1	0	0	0	1	blank2r.bmp	0	1	+	0	7	C3r.bmp	492	1	blank2r.bmp	786	1	CPLW	786	1	blank2r.bmp	866	3	sterben	866	1	!	1292	1	!	1412	0	0	0	0	0	0	0	0	0	0	0	0	0	0	0	0	0	0	0	0	0	0	0	0	0	0	0
121218	15:17:52	15:25:21	447735	5.0.10.0	4_exp_EVA_AMP_AWA_CON	10	Rpleas_acq	Same	Rpleas	Amasked	CS_A	2pleas	distractor1	EVAbeforeCON	acq_US_unple_masked	acq3_masked	3	16	453	0	300	300	0	0	532	46	0	1	0	0	0	1	blank2r.bmp	0	1	+	0	4	B4r.bmp	492	1	blank2r.bmp	786	1	CPLW	786	1	blank2r.bmp	866	6	töten	866	1	!	1292	1	!	-1	0	0	0	0	0	0	0	0	0	0	0	0	0	0	0	0	0	0	0	0	0	0	0	0	0	0	0
121218	15:17:52	15:25:23	450014	5.0.10.0	4_exp_EVA_AMP_AWA_CON	10	Rpleas_acq	Same	Rpleas	Amasked	CS_A	2pleas	distractor1	EVAbeforeCON	acq_US_unple_masked	acq3_masked	3	17	453	1	300	300	0	0	470	46	0	1	0	0	0	1	blank2r.bmp	0	1	+	0	7	C3r.bmp	492	1	blank2r.bmp	786	1	CPLW	786	1	blank2r.bmp	866	4	bange	866	1	!	1292	1	!	1372	0	0	0	0	0	0	0	0	0	0	0	0	0	0	0	0	0	0	0	0	0	0	0	0	0	0	0
121218	15:17:52	15:25:25	452413	5.0.10.0	4_exp_EVA_AMP_AWA_CON	10	Rpleas_acq	Same	Rpleas	Amasked	CS_A	2pleas	distractor1	EVAbeforeCON	acq_US_unple_masked	acq3_masked	3	18	453	0	300	300	0	0	634	46	0	1	0	0	0	1	blank2r.bmp	0	1	+	0	1	B1r.bmp	492	1	blank2r.bmp	786	1	CPLW	786	1	blank2r.bmp	866	1	ausrottung	866	1	!	1292	1	!	-1	0	0	0	0	0	0	0	0	0	0	0	0	0	0	0	0	0	0	0	0	0	0	0	0	0	0	0
121218	15:17:52	15:25:28	455052	5.0.10.0	4_exp_EVA_AMP_AWA_CON	10	Rpleas_acq	Same	Rpleas	Amasked	CS_A	2pleas	distractor1	EVAbeforeCON	acq_US_pleas_masked	acq3_masked	3	19	453	0	300	300	0	0	628	46	0	0	0	0	0	1	blank2r.bmp	0	1	+	0	8	C4r.bmp	492	1	blank2r.bmp	786	1	DHJF	786	1	blank2r.bmp	866	6	träumen	866	1	FEHLER	1839	1	!	1292	1	!	-1	0	0	0	0	0	0	0	0	0	0	0	0	0	0	0	0	0	0	0	0	0	0	0	0
121218	15:17:52	15:25:30	457198	5.0.10.0	4_exp_EVA_AMP_AWA_CON	10	Rpleas_acq	Same	Rpleas	Amasked	CS_A	2pleas	distractor1	EVAbeforeCON	acq_US_pleas_masked	acq3_masked	3	20	453	0	300	300	0	0	574	50	0	1	0	0	0	1	blank2r.bmp	0	1	+	0	3	B3r.bmp	492	1	blank2r.bmp	786	1	DHJF	786	1	blank2r.bmp	866	4	besonnen	866	1	!	1292	1	!	-1	0	0	0	0	0	0	0	0	0	0	0	0	0	0	0	0	0	0	0	0	0	0	0	0	0	0	0
121218	15:17:52	15:25:32	459477	5.0.10.0	4_exp_EVA_AMP_AWA_CON	10	Rpleas_acq	Same	Rpleas	Amasked	CS_A	2pleas	distractor1	EVAbeforeCON	acq_US_pleas_masked	acq3_masked	3	21	453	1	300	300	0	0	460	50	0	1	0	0	0	1	blank2r.bmp	0	1	+	0	4	B4r.bmp	492	1	blank2r.bmp	786	1	DHJF	786	1	blank2r.bmp	866	5	kreativ	866	1	!	1292	1	!	1359	0	0	0	0	0	0	0	0	0	0	0	0	0	0	0	0	0	0	0	0	0	0	0	0	0	0	0
121218	15:17:52	15:25:35	461729	5.0.10.0	4_exp_EVA_AMP_AWA_CON	10	Rpleas_acq	Same	Rpleas	Amasked	CS_A	2pleas	distractor1	EVAbeforeCON	acq_US_pleas_masked	acq3_masked	3	22	453	1	300	300	0	0	456	50	0	1	0	0	0	1	blank2r.bmp	0	1	+	0	5	C1r.bmp	492	1	blank2r.bmp	786	1	DHJF	786	1	blank2r.bmp	866	3	sonnig	866	1	!	1292	1	!	1359	0	0	0	0	0	0	0	0	0	0	0	0	0	0	0	0	0	0	0	0	0	0	0	0	0	0	0
121218	15:17:52	15:25:37	463942	5.0.10.0	4_exp_EVA_AMP_AWA_CON	10	Rpleas_acq	Same	Rpleas	Amasked	CS_A	2pleas	distractor1	EVAbeforeCON	acq_US_pleas_masked	acq3_masked	3	23	453	1	300	300	0	0	414	50	0	1	0	0	0	1	blank2r.bmp	0	1	+	0	2	B2r.bmp	492	1	blank2r.bmp	786	1	DHJF	786	1	blank2r.bmp	866	1	anregung	866	1	!	1292	1	!	1319	0	0	0	0	0	0	0	0	0	0	0	0	0	0	0	0	0	0	0	0	0	0	0	0	0	0	0
121218	15:17:52	15:25:39	466327	5.0.10.0	4_exp_EVA_AMP_AWA_CON	10	Rpleas_acq	Same	Rpleas	Amasked	CS_A	2pleas	distractor1	EVAbeforeCON	acq_US_unple_masked	acq3_masked	3	24	453	0	300	300	0	0	386	50	0	0	0	0	0	1	blank2r.bmp	0	1	+	0	6	C2r.bmp	492	1	blank2r.bmp	786	1	CPLW	786	1	blank2r.bmp	866	2	versagen	866	1	FEHLER	1599	1	!	-1	1	!	-1	0	0	0	0	0	0	0	0	0	0	0	0	0	0	0	0	0	0	0	0	0	0	0	0
121218	15:17:52	15:25:41	468340	5.0.10.0	4_exp_EVA_AMP_AWA_CON	10	Rpleas_acq	Same	Rpleas	Amasked	CS_A	2pleas	distractor1	EVAbeforeCON	acq_US_unple_masked	acq3_masked	3	25	453	1	300	300	0	0	438	46	0	1	0	0	0	1	blank2r.bmp	0	1	+	0	2	B2r.bmp	492	1	blank2r.bmp	786	1	CPLW	786	1	blank2r.bmp	866	6	töten	866	1	!	1292	1	!	1332	0	0	0	0	0	0	0	0	0	0	0	0	0	0	0	0	0	0	0	0	0	0	0	0	0	0	0
121218	15:17:52	15:25:44	470872	5.0.10.0	4_exp_EVA_AMP_AWA_CON	10	Rpleas_acq	Same	Rpleas	Amasked	CS_A	2pleas	distractor1	EVAbeforeCON	acq_US_pleas_masked	acq3_masked	3	26	453	0	300	300	0	0	534	46	0	0	0	0	0	1	blank2r.bmp	0	1	+	0	4	B4r.bmp	492	1	blank2r.bmp	786	1	DHJF	786	1	blank2r.bmp	866	1	anregung	866	1	FEHLER	1745	1	!	1292	1	!	-1	0	0	0	0	0	0	0	0	0	0	0	0	0	0	0	0	0	0	0	0	0	0	0	0
121218	15:17:52	15:25:46	473298	5.0.10.0	4_exp_EVA_AMP_AWA_CON	10	Rpleas_acq	Same	Rpleas	Amasked	CS_A	2pleas	distractor1	EVAbeforeCON	acq_US_unple_masked	acq3_masked	3	27	453	0	300	300	0	0	643	50	0	0	0	0	0	1	blank2r.bmp	0	1	+	0	1	B1r.bmp	492	1	blank2r.bmp	786	1	CPLW	786	1	blank2r.bmp	866	1	ausrottung	866	1	FEHLER	1852	1	!	1292	1	!	-1	0	0	0	0	0	0	0	0	0	0	0	0	0	0	0	0	0	0	0	0	0	0	0	0
121218	15:17:52	15:25:48	475390	5.0.10.0	4_exp_EVA_AMP_AWA_CON	10	Rpleas_acq	Same	Rpleas	Amasked	CS_A	2pleas	distractor1	EVAbeforeCON	acq_US_pleas_masked	acq3_masked	3	28	453	1	300	300	0	0	509	50	0	1	0	0	0	1	blank2r.bmp	0	1	+	0	7	C3r.bmp	492	1	blank2r.bmp	786	1	DHJF	786	1	blank2r.bmp	866	2	vertrauen	866	1	!	1292	1	!	1412	0	0	0	0	0	0	0	0	0	0	0	0	0	0	0	0	0	0	0	0	0	0	0	0	0	0	0
121218	15:17:52	15:25:51	477696	5.0.10.0	4_exp_EVA_AMP_AWA_CON	10	Rpleas_acq	Same	Rpleas	Amasked	CS_A	2pleas	distractor1	EVAbeforeCON	acq_US_unple_masked	acq3_masked	3	29	453	0	300	300	0	0	532	46	0	1	0	0	0	1	blank2r.bmp	0	1	+	0	8	C4r.bmp	492	1	blank2r.bmp	786	1	CPLW	786	1	blank2r.bmp	866	3	sterben	866	1	!	1292	1	!	-1	0	0	0	0	0	0	0	0	0	0	0	0	0	0	0	0	0	0	0	0	0	0	0	0	0	0	0
121218	15:17:52	15:25:53	480281	5.0.10.0	4_exp_EVA_AMP_AWA_CON	10	Rpleas_acq	Same	Rpleas	Amasked	CS_A	2pleas	distractor1	EVAbeforeCON	acq_US_pleas_masked	acq3_masked	3	30	453	0	300	300	0	0	559	46	0	0	0	0	0	1	blank2r.bmp	0	1	+	0	6	C2r.bmp	492	1	blank2r.bmp	786	1	DHJF	786	1	blank2r.bmp	866	5	kreativ	866	1	FEHLER	1772	1	!	1292	1	!	-1	0	0	0	0	0	0	0	0	0	0	0	0	0	0	0	0	0	0	0	0	0	0	0	0
121218	15:17:52	15:25:55	482374	5.0.10.0	4_exp_EVA_AMP_AWA_CON	10	Rpleas_acq	Same	Rpleas	Amasked	CS_A	2pleas	distractor1	EVAbeforeCON	acq_US_pleas_masked	acq3_masked	3	31	453	1	300	300	0	0	518	50	0	1	0	0	0	1	blank2r.bmp	0	1	+	0	3	B3r.bmp	492	1	blank2r.bmp	786	1	DHJF	786	1	blank2r.bmp	866	4	besonnen	866	1	!	1292	1	!	1412	0	0	0	0	0	0	0	0	0	0	0	0	0	0	0	0	0	0	0	0	0	0	0	0	0	0	0
121218	15:17:52	15:25:58	484746	5.0.10.0	4_exp_EVA_AMP_AWA_CON	10	Rpleas_acq	Same	Rpleas	Amasked	CS_A	2pleas	distractor1	EVAbeforeCON	acq_US_unple_masked	acq3_masked	3	32	453	0	300	300	0	0	592	46	0	1	0	0	0	1	blank2r.bmp	0	1	+	0	5	C1r.bmp	492	1	blank2r.bmp	786	1	CPLW	786	1	blank2r.bmp	866	4	bange	866	1	!	1292	1	!	-1	0	0	0	0	0	0	0	0	0	0	0	0	0	0	0	0	0	0	0	0	0	0	0	0	0	0	0
121218	15:17:52	15:26:00	487025	5.0.10.0	4_exp_EVA_AMP_AWA_CON	10	Rpleas_acq	Same	Rpleas	Amasked	CS_A	2pleas	distractor1	EVAbeforeCON	acq_US_unple_masked	acq3_masked	3	33	453	1	300	300	0	0	462	46	0	1	0	0	0	1	blank2r.bmp	0	1	+	0	2	B2r.bmp	492	1	blank2r.bmp	786	1	CPLW	786	1	blank2r.bmp	866	5	krank	866	1	!	1292	1	!	1359	0	0	0	0	0	0	0	0	0	0	0	0	0	0	0	0	0	0	0	0	0	0	0	0	0	0	0
121218	15:17:52	15:26:02	489344	5.0.10.0	4_exp_EVA_AMP_AWA_CON	10	Rpleas_acq	Same	Rpleas	Amasked	CS_A	2pleas	distractor1	EVAbeforeCON	acq_US_unple_masked	acq3_masked	3	34	453	0	300	300	0	0	551	46	0	1	0	0	0	1	blank2r.bmp	0	1	+	0	5	C1r.bmp	492	1	blank2r.bmp	786	1	CPLW	786	1	blank2r.bmp	866	2	versagen	866	1	!	1292	1	!	-1	0	0	0	0	0	0	0	0	0	0	0	0	0	0	0	0	0	0	0	0	0	0	0	0	0	0	0
121218	15:17:52	15:26:05	491703	5.0.10.0	4_exp_EVA_AMP_AWA_CON	10	Rpleas_acq	Same	Rpleas	Amasked	CS_A	2pleas	distractor1	EVAbeforeCON	acq_US_pleas_masked	acq3_masked	3	35	453	0	300	300	0	0	346	46	0	0	0	0	0	1	blank2r.bmp	0	1	+	0	6	C2r.bmp	492	1	blank2r.bmp	786	1	DHJF	786	1	blank2r.bmp	866	3	sonnig	866	1	FEHLER	1559	1	!	-1	1	!	-1	0	0	0	0	0	0	0	0	0	0	0	0	0	0	0	0	0	0	0	0	0	0	0	0
121218	15:17:52	15:26:07	493716	5.0.10.0	4_exp_EVA_AMP_AWA_CON	10	Rpleas_acq	Same	Rpleas	Amasked	CS_A	2pleas	distractor1	EVAbeforeCON	acq_US_pleas_masked	acq3_masked	3	36	453	1	300	300	0	0	432	50	0	1	0	0	0	1	blank2r.bmp	0	1	+	0	8	C4r.bmp	492	1	blank2r.bmp	786	1	DHJF	786	1	blank2r.bmp	866	6	träumen	866	1	!	1292	1	!	1332	0	0	0	0	0	0	0	0	0	0	0	0	0	0	0	0	0	0	0	0	0	0	0	0	0	0	0
121218	15:17:52	15:26:25	512055	5.0.10.0	4_exp_EVA_AMP_AWA_CON	10	Rpleas_acq	Same	Rpleas	Amasked	CS_A	2pleas	distractor1	EVAbeforeCON	acq_US_pleas_masked	acq45_masked	4	1	400	1	300	300	0	0	459	50	0	1	0	0	0	1	blank2r.bmp	0	1	+	0	4	B4r.bmp	492	1	blank2r.bmp	786	1	DHJF	786	1	blank2r.bmp	866	4	besonnen	866	1	!	1239	1	!	1359	0	0	0	0	0	0	0	0	0	0	0	0	0	0	0	0	0	0	0	0	0	0	0	0	0	0	0
121218	15:17:52	15:26:27	514401	5.0.10.0	4_exp_EVA_AMP_AWA_CON	10	Rpleas_acq	Same	Rpleas	Amasked	CS_A	2pleas	distractor1	EVAbeforeCON	acq_US_unple_masked	acq45_masked	4	2	400	0	300	300	0	0	582	46	0	1	0	0	0	1	blank2r.bmp	0	1	+	0	1	B1r.bmp	492	1	blank2r.bmp	786	1	CPLW	786	1	blank2r.bmp	866	4	bange	866	1	!	1239	1	!	-1	0	0	0	0	0	0	0	0	0	0	0	0	0	0	0	0	0	0	0	0	0	0	0	0	0	0	0
121218	15:17:52	15:26:29	516587	5.0.10.0	4_exp_EVA_AMP_AWA_CON	10	Rpleas_acq	Same	Rpleas	Amasked	CS_A	2pleas	distractor1	EVAbeforeCON	acq_US_unple_masked	acq45_masked	4	3	400	1	300	300	0	0	374	46	0	1	0	0	0	1	blank2r.bmp	0	1	+	0	7	C3r.bmp	492	1	blank2r.bmp	786	1	CPLW	786	1	blank2r.bmp	866	3	sterben	866	1	!	1239	1	!	1279	0	0	0	0	0	0	0	0	0	0	0	0	0	0	0	0	0	0	0	0	0	0	0	0	0	0	0
121218	15:17:52	15:26:32	518759	5.0.10.0	4_exp_EVA_AMP_AWA_CON	10	Rpleas_acq	Same	Rpleas	Amasked	CS_A	2pleas	distractor1	EVAbeforeCON	acq_US_pleas_masked	acq45_masked	4	4	400	1	300	300	0	0	379	46	0	0	0	0	0	1	blank2r.bmp	0	1	+	0	3	B3r.bmp	492	1	blank2r.bmp	786	1	DHJF	786	1	blank2r.bmp	866	1	anregung	866	1	!	1239	1	!	1279	0	0	0	0	0	0	0	0	0	0	0	0	0	0	0	0	0	0	0	0	0	0	0	0	0	0	0
121218	15:17:52	15:26:34	520931	5.0.10.0	4_exp_EVA_AMP_AWA_CON	10	Rpleas_acq	Same	Rpleas	Amasked	CS_A	2pleas	distractor1	EVAbeforeCON	acq_US_unple_masked	acq45_masked	4	5	400	1	300	300	0	0	376	50	0	0	0	0	0	1	blank2r.bmp	0	1	+	0	3	B3r.bmp	492	1	blank2r.bmp	786	1	CPLW	786	1	blank2r.bmp	866	6	töten	866	1	!	1239	1	!	1279	0	0	0	0	0	0	0	0	0	0	0	0	0	0	0	0	0	0	0	0	0	0	0	0	0	0	0
121218	15:17:52	15:26:36	523144	5.0.10.0	4_exp_EVA_AMP_AWA_CON	10	Rpleas_acq	Same	Rpleas	Amasked	CS_A	2pleas	distractor1	EVAbeforeCON	acq_US_unple_masked	acq45_masked	4	6	400	1	300	300	0	0	418	46	0	1	0	0	0	1	blank2r.bmp	0	1	+	0	1	B1r.bmp	492	1	blank2r.bmp	786	1	CPLW	786	1	blank2r.bmp	866	5	krank	866	1	!	1239	1	!	1319	0	0	0	0	0	0	0	0	0	0	0	0	0	0	0	0	0	0	0	0	0	0	0	0	0	0	0
121218	15:17:52	15:26:38	525543	5.0.10.0	4_exp_EVA_AMP_AWA_CON	10	Rpleas_acq	Same	Rpleas	Amasked	CS_A	2pleas	distractor1	EVAbeforeCON	acq_US_unple_masked	acq45_masked	4	7	400	0	300	300	0	0	636	50	0	0	0	0	0	1	blank2r.bmp	0	1	+	0	6	C2r.bmp	492	1	blank2r.bmp	786	1	CPLW	786	1	blank2r.bmp	866	1	ausrottung	866	1	!	1239	1	!	-1	0	0	0	0	0	0	0	0	0	0	0	0	0	0	0	0	0	0	0	0	0	0	0	0	0	0	0
121218	15:17:52	15:26:41	527809	5.0.10.0	4_exp_EVA_AMP_AWA_CON	10	Rpleas_acq	Same	Rpleas	Amasked	CS_A	2pleas	distractor1	EVAbeforeCON	acq_US_pleas_masked	acq45_masked	4	8	400	0	300	300	0	0	484	50	0	1	0	0	0	1	blank2r.bmp	0	1	+	0	7	C3r.bmp	492	1	blank2r.bmp	786	1	DHJF	786	1	blank2r.bmp	866	2	vertrauen	866	1	!	1239	1	!	-1	0	0	0	0	0	0	0	0	0	0	0	0	0	0	0	0	0	0	0	0	0	0	0	0	0	0	0
121218	15:17:52	15:26:43	530154	5.0.10.0	4_exp_EVA_AMP_AWA_CON	10	Rpleas_acq	Same	Rpleas	Amasked	CS_A	2pleas	distractor1	EVAbeforeCON	acq_US_pleas_masked	acq45_masked	4	9	400	0	300	300	0	0	564	50	0	1	0	0	0	1	blank2r.bmp	0	1	+	0	2	B2r.bmp	492	1	blank2r.bmp	786	1	DHJF	786	1	blank2r.bmp	866	3	sonnig	866	1	!	1239	1	!	-1	0	0	0	0	0	0	0	0	0	0	0	0	0	0	0	0	0	0	0	0	0	0	0	0	0	0	0
121218	15:17:52	15:26:45	532313	5.0.10.0	4_exp_EVA_AMP_AWA_CON	10	Rpleas_acq	Same	Rpleas	Amasked	CS_A	2pleas	distractor1	EVAbeforeCON	acq_US_pleas_masked	acq45_masked	4	10	400	1	300	300	0	0	353	50	0	1	0	0	0	1	blank2r.bmp	0	1	+	0	4	B4r.bmp	492	1	blank2r.bmp	786	1	DHJF	786	1	blank2r.bmp	866	5	kreativ	866	1	!	1239	1	!	1252	0	0	0	0	0	0	0	0	0	0	0	0	0	0	0	0	0	0	0	0	0	0	0	0	0	0	0
121218	15:17:52	15:26:47	534366	5.0.10.0	4_exp_EVA_AMP_AWA_CON	10	Rpleas_acq	Same	Rpleas	Amasked	CS_A	2pleas	distractor1	EVAbeforeCON	acq_US_pleas_masked	acq45_masked	4	11	400	0	300	300	0	0	290	50	0	1	0	0	0	1	blank2r.bmp	0	1	+	0	8	C4r.bmp	492	1	blank2r.bmp	786	1	DHJF	786	1	blank2r.bmp	866	6	träumen	866	1	!	-1	1	!	-1	0	0	0	0	0	0	0	0	0	0	0	0	0	0	0	0	0	0	0	0	0	0	0	0	0	0	0
121218	15:17:52	15:26:49	536458	5.0.10.0	4_exp_EVA_AMP_AWA_CON	10	Rpleas_acq	Same	Rpleas	Amasked	CS_A	2pleas	distractor1	EVAbeforeCON	acq_US_unple_masked	acq45_masked	4	12	400	0	300	300	0	0	317	50	0	0	0	0	0	1	blank2r.bmp	0	1	+	0	5	C1r.bmp	492	1	blank2r.bmp	786	1	CPLW	786	1	blank2r.bmp	866	2	versagen	866	1	!	-1	1	!	-1	0	0	0	0	0	0	0	0	0	0	0	0	0	0	0	0	0	0	0	0	0	0	0	0	0	0	0
121218	15:17:52	15:26:52	538817	5.0.10.0	4_exp_EVA_AMP_AWA_CON	10	Rpleas_acq	Same	Rpleas	Amasked	CS_A	2pleas	distractor1	EVAbeforeCON	acq_US_pleas_masked	acq45_masked	4	13	400	0	300	300	0	0	576	50	0	1	0	0	0	1	blank2r.bmp	0	1	+	0	5	C1r.bmp	492	1	blank2r.bmp	786	1	DHJF	786	1	blank2r.bmp	866	2	vertrauen	866	1	!	1239	1	!	-1	0	0	0	0	0	0	0	0	0	0	0	0	0	0	0	0	0	0	0	0	0	0	0	0	0	0	0
121218	15:17:52	15:26:54	541030	5.0.10.0	4_exp_EVA_AMP_AWA_CON	10	Rpleas_acq	Same	Rpleas	Amasked	CS_A	2pleas	distractor1	EVAbeforeCON	acq_US_unple_masked	acq45_masked	4	14	400	1	300	300	0	0	408	50	0	0	0	0	0	1	blank2r.bmp	0	1	+	0	8	C4r.bmp	492	1	blank2r.bmp	786	1	CPLW	786	1	blank2r.bmp	866	2	versagen	866	1	!	1239	1	!	1306	0	0	0	0	0	0	0	0	0	0	0	0	0	0	0	0	0	0	0	0	0	0	0	0	0	0	0
121218	15:17:52	15:26:56	543282	5.0.10.0	4_exp_EVA_AMP_AWA_CON	10	Rpleas_acq	Same	Rpleas	Amasked	CS_A	2pleas	distractor1	EVAbeforeCON	acq_US_pleas_masked	acq45_masked	4	15	400	1	300	300	0	0	456	46	0	0	0	0	0	1	blank2r.bmp	0	1	+	0	2	B2r.bmp	492	1	blank2r.bmp	786	1	DHJF	786	1	blank2r.bmp	866	1	anregung	866	1	!	1239	1	!	1359	0	0	0	0	0	0	0	0	0	0	0	0	0	0	0	0	0	0	0	0	0	0	0	0	0	0	0
121218	15:17:52	15:26:58	545535	5.0.10.0	4_exp_EVA_AMP_AWA_CON	10	Rpleas_acq	Same	Rpleas	Amasked	CS_A	2pleas	distractor1	EVAbeforeCON	acq_US_pleas_masked	acq45_masked	4	16	400	0	300	300	0	0	479	50	0	1	0	0	0	1	blank2r.bmp	0	1	+	0	1	B1r.bmp	492	1	blank2r.bmp	786	1	DHJF	786	1	blank2r.bmp	866	3	sonnig	866	1	!	1239	1	!	-1	0	0	0	0	0	0	0	0	0	0	0	0	0	0	0	0	0	0	0	0	0	0	0	0	0	0	0
121218	15:17:52	15:27:01	547694	5.0.10.0	4_exp_EVA_AMP_AWA_CON	10	Rpleas_acq	Same	Rpleas	Amasked	CS_A	2pleas	distractor1	EVAbeforeCON	acq_US_unple_masked	acq45_masked	4	17	400	1	300	300	0	0	346	50	0	0	0	0	0	1	blank2r.bmp	0	1	+	0	3	B3r.bmp	492	1	blank2r.bmp	786	1	CPLW	786	1	blank2r.bmp	866	5	krank	866	1	!	1239	1	!	1252	0	0	0	0	0	0	0	0	0	0	0	0	0	0	0	0	0	0	0	0	0	0	0	0	0	0	0
121218	15:17:52	15:27:03	549946	5.0.10.0	4_exp_EVA_AMP_AWA_CON	10	Rpleas_acq	Same	Rpleas	Amasked	CS_A	2pleas	distractor1	EVAbeforeCON	acq_US_unple_masked	acq45_masked	4	18	400	1	300	300	0	0	453	50	0	0	0	0	0	1	blank2r.bmp	0	1	+	0	4	B4r.bmp	492	1	blank2r.bmp	786	1	CPLW	786	1	blank2r.bmp	866	3	sterben	866	1	!	1239	1	!	1359	0	0	0	0	0	0	0	0	0	0	0	0	0	0	0	0	0	0	0	0	0	0	0	0	0	0	0
121218	15:17:52	15:27:05	552199	5.0.10.0	4_exp_EVA_AMP_AWA_CON	10	Rpleas_acq	Same	Rpleas	Amasked	CS_A	2pleas	distractor1	EVAbeforeCON	acq_US_unple_masked	acq45_masked	4	19	400	0	300	300	0	0	481	50	0	0	0	0	0	1	blank2r.bmp	0	1	+	0	7	C3r.bmp	492	1	blank2r.bmp	786	1	CPLW	786	1	blank2r.bmp	866	6	töten	866	1	!	1239	1	!	-1	0	0	0	0	0	0	0	0	0	0	0	0	0	0	0	0	0	0	0	0	0	0	0	0	0	0	0
121218	15:17:52	15:27:07	554558	5.0.10.0	4_exp_EVA_AMP_AWA_CON	10	Rpleas_acq	Same	Rpleas	Amasked	CS_A	2pleas	distractor1	EVAbeforeCON	acq_US_pleas_masked	acq45_masked	4	20	400	0	300	300	0	0	582	50	0	1	0	0	0	1	blank2r.bmp	0	1	+	0	6	C2r.bmp	492	1	blank2r.bmp	786	1	DHJF	786	1	blank2r.bmp	866	4	besonnen	866	1	!	1239	1	!	-1	0	0	0	0	0	0	0	0	0	0	0	0	0	0	0	0	0	0	0	0	0	0	0	0	0	0	0
121218	15:17:52	15:27:10	556650	5.0.10.0	4_exp_EVA_AMP_AWA_CON	10	Rpleas_acq	Same	Rpleas	Amasked	CS_A	2pleas	distractor1	EVAbeforeCON	acq_US_unple_masked	acq45_masked	4	21	400	0	300	300	0	0	318	46	0	1	0	0	0	1	blank2r.bmp	0	1	+	0	7	C3r.bmp	492	1	blank2r.bmp	786	1	CPLW	786	1	blank2r.bmp	866	1	ausrottung	866	1	!	-1	1	!	-1	0	0	0	0	0	0	0	0	0	0	0	0	0	0	0	0	0	0	0	0	0	0	0	0	0	0	0
121218	15:17:52	15:27:12	558849	5.0.10.0	4_exp_EVA_AMP_AWA_CON	10	Rpleas_acq	Same	Rpleas	Amasked	CS_A	2pleas	distractor1	EVAbeforeCON	acq_US_pleas_masked	acq45_masked	4	22	400	1	300	300	0	0	392	46	0	0	0	0	0	1	blank2r.bmp	0	1	+	0	1	B1r.bmp	492	1	blank2r.bmp	786	1	DHJF	786	1	blank2r.bmp	866	5	kreativ	866	1	!	1239	1	!	1292	0	0	0	0	0	0	0	0	0	0	0	0	0	0	0	0	0	0	0	0	0	0	0	0	0	0	0
121218	15:17:52	15:27:14	561208	5.0.10.0	4_exp_EVA_AMP_AWA_CON	10	Rpleas_acq	Same	Rpleas	Amasked	CS_A	2pleas	distractor1	EVAbeforeCON	acq_US_unple_masked	acq45_masked	4	23	400	0	300	300	0	0	586	46	0	1	0	0	0	1	blank2r.bmp	0	1	+	0	2	B2r.bmp	492	1	blank2r.bmp	786	1	CPLW	786	1	blank2r.bmp	866	4	bange	866	1	!	1239	1	!	-1	0	0	0	0	0	0	0	0	0	0	0	0	0	0	0	0	0	0	0	0	0	0	0	0	0	0	0
121218	15:17:52	15:27:16	563274	5.0.10.0	4_exp_EVA_AMP_AWA_CON	10	Rpleas_acq	Same	Rpleas	Amasked	CS_A	2pleas	distractor1	EVAbeforeCON	acq_US_unple_masked	acq45_masked	4	24	400	0	300	300	0	0	288	50	0	0	0	0	0	1	blank2r.bmp	0	1	+	0	8	C4r.bmp	492	1	blank2r.bmp	786	1	CPLW	786	1	blank2r.bmp	866	2	versagen	866	1	!	-1	1	!	-1	0	0	0	0	0	0	0	0	0	0	0	0	0	0	0	0	0	0	0	0	0	0	0	0	0	0	0
121218	15:17:52	15:27:18	565566	5.0.10.0	4_exp_EVA_AMP_AWA_CON	10	Rpleas_acq	Same	Rpleas	Amasked	CS_A	2pleas	distractor1	EVAbeforeCON	acq_US_unple_masked	acq45_masked	4	25	400	0	300	300	0	0	507	46	0	1	0	0	0	1	blank2r.bmp	0	1	+	0	3	B3r.bmp	492	1	blank2r.bmp	786	1	CPLW	786	1	blank2r.bmp	866	3	sterben	866	1	!	1239	1	!	-1	0	0	0	0	0	0	0	0	0	0	0	0	0	0	0	0	0	0	0	0	0	0	0	0	0	0	0
121218	15:17:52	15:27:21	567885	5.0.10.0	4_exp_EVA_AMP_AWA_CON	10	Rpleas_acq	Same	Rpleas	Amasked	CS_A	2pleas	distractor1	EVAbeforeCON	acq_US_pleas_masked	acq45_masked	4	26	400	0	300	300	0	0	534	50	0	1	0	0	0	1	blank2r.bmp	0	1	+	0	5	C1r.bmp	492	1	blank2r.bmp	786	1	DHJF	786	1	blank2r.bmp	866	6	träumen	866	1	!	1239	1	!	-1	0	0	0	0	0	0	0	0	0	0	0	0	0	0	0	0	0	0	0	0	0	0	0	0	0	0	0
121218	15:17:52	15:27:23	570218	5.0.10.0	4_exp_EVA_AMP_AWA_CON	10	Rpleas_acq	Same	Rpleas	Amasked	CS_A	2pleas	distractor1	EVAbeforeCON	acq_US_unple_masked	acq45_masked	4	27	400	0	300	300	0	0	549	50	0	0	0	0	0	1	blank2r.bmp	0	1	+	0	4	B4r.bmp	492	1	blank2r.bmp	786	1	CPLW	786	1	blank2r.bmp	866	1	ausrottung	866	1	!	1239	1	!	-1	0	0	0	0	0	0	0	0	0	0	0	0	0	0	0	0	0	0	0	0	0	0	0	0	0	0	0
121218	15:17:52	15:27:25	572417	5.0.10.0	4_exp_EVA_AMP_AWA_CON	10	Rpleas_acq	Same	Rpleas	Amasked	CS_A	2pleas	distractor1	EVAbeforeCON	acq_US_unple_masked	acq45_masked	4	28	400	1	300	300	0	0	378	46	0	1	0	0	0	1	blank2r.bmp	0	1	+	0	6	C2r.bmp	492	1	blank2r.bmp	786	1	CPLW	786	1	blank2r.bmp	866	6	töten	866	1	!	1239	1	!	1279	0	0	0	0	0	0	0	0	0	0	0	0	0	0	0	0	0	0	0	0	0	0	0	0	0	0	0
121218	15:17:52	15:27:28	574669	5.0.10.0	4_exp_EVA_AMP_AWA_CON	10	Rpleas_acq	Same	Rpleas	Amasked	CS_A	2pleas	distractor1	EVAbeforeCON	acq_US_pleas_masked	acq45_masked	4	29	400	0	300	300	0	0	479	50	0	1	0	0	0	1	blank2r.bmp	0	1	+	0	6	C2r.bmp	492	1	blank2r.bmp	786	1	DHJF	786	1	blank2r.bmp	866	4	besonnen	866	1	!	1239	1	!	-1	0	0	0	0	0	0	0	0	0	0	0	0	0	0	0	0	0	0	0	0	0	0	0	0	0	0	0
121218	15:17:52	15:27:30	576922	5.0.10.0	4_exp_EVA_AMP_AWA_CON	10	Rpleas_acq	Same	Rpleas	Amasked	CS_A	2pleas	distractor1	EVAbeforeCON	acq_US_pleas_masked	acq45_masked	4	30	400	1	300	300	0	0	445	46	0	0	0	0	0	1	blank2r.bmp	0	1	+	0	1	B1r.bmp	492	1	blank2r.bmp	786	1	DHJF	786	1	blank2r.bmp	866	3	sonnig	866	1	!	1239	1	!	1346	0	0	0	0	0	0	0	0	0	0	0	0	0	0	0	0	0	0	0	0	0	0	0	0	0	0	0
121218	15:17:52	15:27:32	579241	5.0.10.0	4_exp_EVA_AMP_AWA_CON	10	Rpleas_acq	Same	Rpleas	Amasked	CS_A	2pleas	distractor1	EVAbeforeCON	acq_US_pleas_masked	acq45_masked	4	31	400	0	300	300	0	0	545	50	0	1	0	0	0	1	blank2r.bmp	0	1	+	0	5	C1r.bmp	492	1	blank2r.bmp	786	1	DHJF	786	1	blank2r.bmp	866	6	träumen	866	1	!	1239	1	!	-1	0	0	0	0	0	0	0	0	0	0	0	0	0	0	0	0	0	0	0	0	0	0	0	0	0	0	0
121218	15:17:52	15:27:34	581466	5.0.10.0	4_exp_EVA_AMP_AWA_CON	10	Rpleas_acq	Same	Rpleas	Amasked	CS_A	2pleas	distractor1	EVAbeforeCON	acq_US_pleas_masked	acq45_masked	4	32	400	1	300	300	0	0	412	50	0	1	0	0	0	1	blank2r.bmp	0	1	+	0	2	B2r.bmp	492	1	blank2r.bmp	786	1	DHJF	786	1	blank2r.bmp	866	1	anregung	866	1	!	1239	1	!	1319	0	0	0	0	0	0	0	0	0	0	0	0	0	0	0	0	0	0	0	0	0	0	0	0	0	0	0
121218	15:17:52	15:27:37	583719	5.0.10.0	4_exp_EVA_AMP_AWA_CON	10	Rpleas_acq	Same	Rpleas	Amasked	CS_A	2pleas	distractor1	EVAbeforeCON	acq_US_pleas_masked	acq45_masked	4	33	400	1	300	300	0	0	457	50	0	1	0	0	0	1	blank2r.bmp	0	1	+	0	3	B3r.bmp	492	1	blank2r.bmp	786	1	DHJF	786	1	blank2r.bmp	866	2	vertrauen	866	1	!	1239	1	!	1359	0	0	0	0	0	0	0	0	0	0	0	0	0	0	0	0	0	0	0	0	0	0	0	0	0	0	0
121218	15:17:52	15:27:39	585918	5.0.10.0	4_exp_EVA_AMP_AWA_CON	10	Rpleas_acq	Same	Rpleas	Amasked	CS_A	2pleas	distractor1	EVAbeforeCON	acq_US_pleas_masked	acq45_masked	4	34	400	1	300	300	0	0	404	50	0	1	0	0	0	1	blank2r.bmp	0	1	+	0	4	B4r.bmp	492	1	blank2r.bmp	786	1	DHJF	786	1	blank2r.bmp	866	5	kreativ	866	1	!	1239	1	!	1306	0	0	0	0	0	0	0	0	0	0	0	0	0	0	0	0	0	0	0	0	0	0	0	0	0	0	0
121218	15:17:52	15:27:41	588104	5.0.10.0	4_exp_EVA_AMP_AWA_CON	10	Rpleas_acq	Same	Rpleas	Amasked	CS_A	2pleas	distractor1	EVAbeforeCON	acq_US_unple_masked	acq45_masked	4	35	400	1	300	300	0	0	395	46	0	1	0	0	0	1	blank2r.bmp	0	1	+	0	7	C3r.bmp	492	1	blank2r.bmp	786	1	CPLW	786	1	blank2r.bmp	866	4	bange	866	1	!	1239	1	!	1292	0	0	0	0	0	0	0	0	0	0	0	0	0	0	0	0	0	0	0	0	0	0	0	0	0	0	0
121218	15:17:52	15:27:43	590196	5.0.10.0	4_exp_EVA_AMP_AWA_CON	10	Rpleas_acq	Same	Rpleas	Amasked	CS_A	2pleas	distractor1	EVAbeforeCON	acq_US_unple_masked	acq45_masked	4	36	400	0	300	300	0	0	324	50	0	0	0	0	0	1	blank2r.bmp	0	1	+	0	8	C4r.bmp	492	1	blank2r.bmp	786	1	CPLW	786	1	blank2r.bmp	866	5	krank	866	1	!	-1	1	!	-1	0	0	0	0	0	0	0	0	0	0	0	0	0	0	0	0	0	0	0	0	0	0	0	0	0	0	0
121218	15:17:52	15:27:54	600779	5.0.10.0	4_exp_EVA_AMP_AWA_CON	10	Rpleas_acq	Same	Rpleas	Amasked	CS_A	2pleas	distractor1	EVAbeforeCON	acq_US_pleas_masked	acq45_masked	5	1	400	0	300	300	0	0	572	46	0	0	0	0	0	1	blank2r.bmp	0	1	+	0	6	C2r.bmp	492	1	blank2r.bmp	786	1	DHJF	786	1	blank2r.bmp	866	5	kreativ	866	1	!	1239	1	!	-1	0	0	0	0	0	0	0	0	0	0	0	0	0	0	0	0	0	0	0	0	0	0	0	0	0	0	0
121218	15:17:52	15:27:56	602951	5.0.10.0	4_exp_EVA_AMP_AWA_CON	10	Rpleas_acq	Same	Rpleas	Amasked	CS_A	2pleas	distractor1	EVAbeforeCON	acq_US_unple_masked	acq45_masked	5	2	400	1	300	300	0	0	353	46	0	1	0	0	0	1	blank2r.bmp	0	1	+	0	5	C1r.bmp	492	1	blank2r.bmp	786	1	CPLW	786	1	blank2r.bmp	866	2	versagen	866	1	!	1239	1	!	1252	0	0	0	0	0	0	0	0	0	0	0	0	0	0	0	0	0	0	0	0	0	0	0	0	0	0	0
121218	15:17:52	15:27:58	605297	5.0.10.0	4_exp_EVA_AMP_AWA_CON	10	Rpleas_acq	Same	Rpleas	Amasked	CS_A	2pleas	distractor1	EVAbeforeCON	acq_US_pleas_masked	acq45_masked	5	3	400	0	300	300	0	0	577	50	0	1	0	0	0	1	blank2r.bmp	0	1	+	0	1	B1r.bmp	492	1	blank2r.bmp	786	1	DHJF	786	1	blank2r.bmp	866	4	besonnen	866	1	!	1239	1	!	-1	0	0	0	0	0	0	0	0	0	0	0	0	0	0	0	0	0	0	0	0	0	0	0	0	0	0	0
121218	15:17:52	15:28:01	607656	5.0.10.0	4_exp_EVA_AMP_AWA_CON	10	Rpleas_acq	Same	Rpleas	Amasked	CS_A	2pleas	distractor1	EVAbeforeCON	acq_US_pleas_masked	acq45_masked	5	4	400	0	300	300	0	0	580	50	0	1	0	0	0	1	blank2r.bmp	0	1	+	0	8	C4r.bmp	492	1	blank2r.bmp	786	1	DHJF	786	1	blank2r.bmp	866	3	sonnig	866	1	!	1239	1	!	-1	0	0	0	0	0	0	0	0	0	0	0	0	0	0	0	0	0	0	0	0	0	0	0	0	0	0	0
121218	15:17:52	15:28:03	609868	5.0.10.0	4_exp_EVA_AMP_AWA_CON	10	Rpleas_acq	Same	Rpleas	Amasked	CS_A	2pleas	distractor1	EVAbeforeCON	acq_US_unple_masked	acq45_masked	5	5	400	1	300	300	0	0	406	46	0	1	0	0	0	1	blank2r.bmp	0	1	+	0	3	B3r.bmp	492	1	blank2r.bmp	786	1	CPLW	786	1	blank2r.bmp	866	5	krank	866	1	!	1239	1	!	1306	0	0	0	0	0	0	0	0	0	0	0	0	0	0	0	0	0	0	0	0	0	0	0	0	0	0	0
121218	15:17:52	15:28:05	612081	5.0.10.0	4_exp_EVA_AMP_AWA_CON	10	Rpleas_acq	Same	Rpleas	Amasked	CS_A	2pleas	distractor1	EVAbeforeCON	acq_US_pleas_masked	acq45_masked	5	6	400	1	300	300	0	0	416	46	0	0	0	0	0	1	blank2r.bmp	0	1	+	0	2	B2r.bmp	492	1	blank2r.bmp	786	1	DHJF	786	1	blank2r.bmp	866	2	vertrauen	866	1	!	1239	1	!	1319	0	0	0	0	0	0	0	0	0	0	0	0	0	0	0	0	0	0	0	0	0	0	0	0	0	0	0
121218	15:17:52	15:28:07	614346	5.0.10.0	4_exp_EVA_AMP_AWA_CON	10	Rpleas_acq	Same	Rpleas	Amasked	CS_A	2pleas	distractor1	EVAbeforeCON	acq_US_pleas_masked	acq45_masked	5	7	400	0	300	300	0	0	492	50	0	1	0	0	0	1	blank2r.bmp	0	1	+	0	4	B4r.bmp	492	1	blank2r.bmp	786	1	DHJF	786	1	blank2r.bmp	866	1	anregung	866	1	!	1239	1	!	-1	0	0	0	0	0	0	0	0	0	0	0	0	0	0	0	0	0	0	0	0	0	0	0	0	0	0	0
121218	15:17:52	15:28:09	616465	5.0.10.0	4_exp_EVA_AMP_AWA_CON	10	Rpleas_acq	Same	Rpleas	Amasked	CS_A	2pleas	distractor1	EVAbeforeCON	acq_US_pleas_masked	acq45_masked	5	8	400	0	300	300	0	0	333	46	0	0	0	0	0	1	blank2r.bmp	0	1	+	0	7	C3r.bmp	492	1	blank2r.bmp	786	1	DHJF	786	1	blank2r.bmp	866	6	träumen	866	1	!	-1	1	!	-1	0	0	0	0	0	0	0	0	0	0	0	0	0	0	0	0	0	0	0	0	0	0	0	0	0	0	0
121218	15:17:52	15:28:12	618664	5.0.10.0	4_exp_EVA_AMP_AWA_CON	10	Rpleas_acq	Same	Rpleas	Amasked	CS_A	2pleas	distractor1	EVAbeforeCON	acq_US_pleas_masked	acq45_masked	5	9	400	1	300	300	0	0	392	50	0	1	0	0	0	1	blank2r.bmp	0	1	+	0	1	B1r.bmp	492	1	blank2r.bmp	786	1	DHJF	786	1	blank2r.bmp	866	1	anregung	866	1	!	1239	1	!	1292	0	0	0	0	0	0	0	0	0	0	0	0	0	0	0	0	0	0	0	0	0	0	0	0	0	0	0
121218	15:17:52	15:28:14	620997	5.0.10.0	4_exp_EVA_AMP_AWA_CON	10	Rpleas_acq	Same	Rpleas	Amasked	CS_A	2pleas	distractor1	EVAbeforeCON	acq_US_unple_masked	acq45_masked	5	10	400	0	300	300	0	0	569	50	0	0	0	0	0	1	blank2r.bmp	0	1	+	0	4	B4r.bmp	492	1	blank2r.bmp	786	1	CPLW	786	1	blank2r.bmp	866	1	ausrottung	866	1	!	1239	1	!	-1	0	0	0	0	0	0	0	0	0	0	0	0	0	0	0	0	0	0	0	0	0	0	0	0	0	0	0
121218	15:17:52	15:28:16	623276	5.0.10.0	4_exp_EVA_AMP_AWA_CON	10	Rpleas_acq	Same	Rpleas	Amasked	CS_A	2pleas	distractor1	EVAbeforeCON	acq_US_unple_masked	acq45_masked	5	11	400	1	300	300	0	0	463	46	0	1	0	0	0	1	blank2r.bmp	0	1	+	0	2	B2r.bmp	492	1	blank2r.bmp	786	1	CPLW	786	1	blank2r.bmp	866	3	sterben	866	1	!	1239	1	!	1359	0	0	0	0	0	0	0	0	0	0	0	0	0	0	0	0	0	0	0	0	0	0	0	0	0	0	0
121218	15:17:52	15:28:18	625555	5.0.10.0	4_exp_EVA_AMP_AWA_CON	10	Rpleas_acq	Same	Rpleas	Amasked	CS_A	2pleas	distractor1	EVAbeforeCON	acq_US_unple_masked	acq45_masked	5	12	400	0	300	300	0	0	518	46	0	1	0	0	0	1	blank2r.bmp	0	1	+	0	6	C2r.bmp	492	1	blank2r.bmp	786	1	CPLW	786	1	blank2r.bmp	866	6	töten	866	1	!	1239	1	!	-1	0	0	0	0	0	0	0	0	0	0	0	0	0	0	0	0	0	0	0	0	0	0	0	0	0	0	0
121218	15:17:52	15:28:21	627941	5.0.10.0	4_exp_EVA_AMP_AWA_CON	10	Rpleas_acq	Same	Rpleas	Amasked	CS_A	2pleas	distractor1	EVAbeforeCON	acq_US_pleas_masked	acq45_masked	5	13	400	0	300	300	0	0	605	50	0	1	0	0	0	1	blank2r.bmp	0	1	+	0	3	B3r.bmp	492	1	blank2r.bmp	786	1	DHJF	786	1	blank2r.bmp	866	5	kreativ	866	1	!	1239	1	!	-1	0	0	0	0	0	0	0	0	0	0	0	0	0	0	0	0	0	0	0	0	0	0	0	0	0	0	0
121218	15:17:52	15:28:23	630126	5.0.10.0	4_exp_EVA_AMP_AWA_CON	10	Rpleas_acq	Same	Rpleas	Amasked	CS_A	2pleas	distractor1	EVAbeforeCON	acq_US_unple_masked	acq45_masked	5	14	400	1	300	300	0	0	375	46	0	1	0	0	0	1	blank2r.bmp	0	1	+	0	5	C1r.bmp	492	1	blank2r.bmp	786	1	CPLW	786	1	blank2r.bmp	866	4	bange	866	1	!	1239	1	!	1279	0	0	0	0	0	0	0	0	0	0	0	0	0	0	0	0	0	0	0	0	0	0	0	0	0	0	0
121218	15:17:52	15:28:25	632379	5.0.10.0	4_exp_EVA_AMP_AWA_CON	10	Rpleas_acq	Same	Rpleas	Amasked	CS_A	2pleas	distractor1	EVAbeforeCON	acq_US_unple_masked	acq45_masked	5	15	400	0	300	300	0	0	483	46	0	1	0	0	0	1	blank2r.bmp	0	1	+	0	8	C4r.bmp	492	1	blank2r.bmp	786	1	CPLW	786	1	blank2r.bmp	866	3	sterben	866	1	!	1239	1	!	-1	0	0	0	0	0	0	0	0	0	0	0	0	0	0	0	0	0	0	0	0	0	0	0	0	0	0	0
121218	15:17:52	15:28:28	634671	5.0.10.0	4_exp_EVA_AMP_AWA_CON	10	Rpleas_acq	Same	Rpleas	Amasked	CS_A	2pleas	distractor1	EVAbeforeCON	acq_US_pleas_masked	acq45_masked	5	16	400	0	300	300	0	0	510	46	0	0	0	0	0	1	blank2r.bmp	0	1	+	0	7	C3r.bmp	492	1	blank2r.bmp	786	1	DHJF	786	1	blank2r.bmp	866	3	sonnig	866	1	!	1239	1	!	-1	0	0	0	0	0	0	0	0	0	0	0	0	0	0	0	0	0	0	0	0	0	0	0	0	0	0	0
121218	15:17:52	15:28:30	636857	5.0.10.0	4_exp_EVA_AMP_AWA_CON	10	Rpleas_acq	Same	Rpleas	Amasked	CS_A	2pleas	distractor1	EVAbeforeCON	acq_US_unple_masked	acq45_masked	5	17	400	1	300	300	0	0	384	50	0	0	0	0	0	1	blank2r.bmp	0	1	+	0	4	B4r.bmp	492	1	blank2r.bmp	786	1	CPLW	786	1	blank2r.bmp	866	5	krank	866	1	!	1239	1	!	1279	0	0	0	0	0	0	0	0	0	0	0	0	0	0	0	0	0	0	0	0	0	0	0	0	0	0	0
121218	15:17:52	15:28:32	639123	5.0.10.0	4_exp_EVA_AMP_AWA_CON	10	Rpleas_acq	Same	Rpleas	Amasked	CS_A	2pleas	distractor1	EVAbeforeCON	acq_US_unple_masked	acq45_masked	5	18	400	0	300	300	0	0	479	46	0	1	0	0	0	1	blank2r.bmp	0	1	+	0	6	C2r.bmp	492	1	blank2r.bmp	786	1	CPLW	786	1	blank2r.bmp	866	6	töten	866	1	!	1239	1	!	-1	0	0	0	0	0	0	0	0	0	0	0	0	0	0	0	0	0	0	0	0	0	0	0	0	0	0	0
121218	15:17:52	15:28:34	641415	5.0.10.0	4_exp_EVA_AMP_AWA_CON	10	Rpleas_acq	Same	Rpleas	Amasked	CS_A	2pleas	distractor1	EVAbeforeCON	acq_US_pleas_masked	acq45_masked	5	19	400	0	300	300	0	0	497	46	0	0	0	0	0	1	blank2r.bmp	0	1	+	0	7	C3r.bmp	492	1	blank2r.bmp	786	1	DHJF	786	1	blank2r.bmp	866	2	vertrauen	866	1	!	1239	1	!	-1	0	0	0	0	0	0	0	0	0	0	0	0	0	0	0	0	0	0	0	0	0	0	0	0	0	0	0
121218	15:17:52	15:28:37	643694	5.0.10.0	4_exp_EVA_AMP_AWA_CON	10	Rpleas_acq	Same	Rpleas	Amasked	CS_A	2pleas	distractor1	EVAbeforeCON	acq_US_pleas_masked	acq45_masked	5	20	400	0	300	300	0	0	479	50	0	1	0	0	0	1	blank2r.bmp	0	1	+	0	5	C1r.bmp	492	1	blank2r.bmp	786	1	DHJF	786	1	blank2r.bmp	866	6	träumen	866	1	!	1239	1	!	-1	0	0	0	0	0	0	0	0	0	0	0	0	0	0	0	0	0	0	0	0	0	0	0	0	0	0	0
121218	15:17:52	15:28:39	645920	5.0.10.0	4_exp_EVA_AMP_AWA_CON	10	Rpleas_acq	Same	Rpleas	Amasked	CS_A	2pleas	distractor1	EVAbeforeCON	acq_US_pleas_masked	acq45_masked	5	21	400	1	300	300	0	0	410	50	0	1	0	0	0	1	blank2r.bmp	0	1	+	0	8	C4r.bmp	492	1	blank2r.bmp	786	1	DHJF	786	1	blank2r.bmp	866	4	besonnen	866	1	!	1239	1	!	1306	0	0	0	0	0	0	0	0	0	0	0	0	0	0	0	0	0	0	0	0	0	0	0	0	0	0	0
121218	15:17:52	15:28:41	648146	5.0.10.0	4_exp_EVA_AMP_AWA_CON	10	Rpleas_acq	Same	Rpleas	Amasked	CS_A	2pleas	distractor1	EVAbeforeCON	acq_US_unple_masked	acq45_masked	5	22	400	1	300	300	0	0	434	50	0	0	0	0	0	1	blank2r.bmp	0	1	+	0	2	B2r.bmp	492	1	blank2r.bmp	786	1	CPLW	786	1	blank2r.bmp	866	1	ausrottung	866	1	!	1239	1	!	1332	0	0	0	0	0	0	0	0	0	0	0	0	0	0	0	0	0	0	0	0	0	0	0	0	0	0	0
121218	15:17:52	15:28:43	650345	5.0.10.0	4_exp_EVA_AMP_AWA_CON	10	Rpleas_acq	Same	Rpleas	Amasked	CS_A	2pleas	distractor1	EVAbeforeCON	acq_US_unple_masked	acq45_masked	5	23	400	1	300	300	0	0	409	46	0	1	0	0	0	1	blank2r.bmp	0	1	+	0	3	B3r.bmp	492	1	blank2r.bmp	786	1	CPLW	786	1	blank2r.bmp	866	2	versagen	866	1	!	1239	1	!	1306	0	0	0	0	0	0	0	0	0	0	0	0	0	0	0	0	0	0	0	0	0	0	0	0	0	0	0
121218	15:17:52	15:28:46	652597	5.0.10.0	4_exp_EVA_AMP_AWA_CON	10	Rpleas_acq	Same	Rpleas	Amasked	CS_A	2pleas	distractor1	EVAbeforeCON	acq_US_pleas_masked	acq45_masked	5	24	400	1	300	300	0	0	463	46	0	0	0	0	0	1	blank2r.bmp	0	1	+	0	1	B1r.bmp	492	1	blank2r.bmp	786	1	DHJF	786	1	blank2r.bmp	866	1	anregung	866	1	!	1239	1	!	1359	0	0	0	0	0	0	0	0	0	0	0	0	0	0	0	0	0	0	0	0	0	0	0	0	0	0	0
121218	15:17:52	15:28:48	654756	5.0.10.0	4_exp_EVA_AMP_AWA_CON	10	Rpleas_acq	Same	Rpleas	Amasked	CS_A	2pleas	distractor1	EVAbeforeCON	acq_US_pleas_masked	acq45_masked	5	25	400	1	300	300	0	0	346	50	0	1	0	0	0	1	blank2r.bmp	0	1	+	0	3	B3r.bmp	492	1	blank2r.bmp	786	1	DHJF	786	1	blank2r.bmp	866	2	vertrauen	866	1	!	1239	1	!	1252	0	0	0	0	0	0	0	0	0	0	0	0	0	0	0	0	0	0	0	0	0	0	0	0	0	0	0
121218	15:17:52	15:28:50	656915	5.0.10.0	4_exp_EVA_AMP_AWA_CON	10	Rpleas_acq	Same	Rpleas	Amasked	CS_A	2pleas	distractor1	EVAbeforeCON	acq_US_pleas_masked	acq45_masked	5	26	400	1	300	300	0	0	371	46	0	0	0	0	0	1	blank2r.bmp	0	1	+	0	8	C4r.bmp	492	1	blank2r.bmp	786	1	DHJF	786	1	blank2r.bmp	866	3	sonnig	866	1	!	1239	1	!	1266	0	0	0	0	0	0	0	0	0	0	0	0	0	0	0	0	0	0	0	0	0	0	0	0	0	0	0
121218	15:17:52	15:28:52	659075	5.0.10.0	4_exp_EVA_AMP_AWA_CON	10	Rpleas_acq	Same	Rpleas	Amasked	CS_A	2pleas	distractor1	EVAbeforeCON	acq_US_pleas_masked	acq45_masked	5	27	400	1	300	300	0	0	359	50	0	1	0	0	0	1	blank2r.bmp	0	1	+	0	2	B2r.bmp	492	1	blank2r.bmp	786	1	DHJF	786	1	blank2r.bmp	866	4	besonnen	866	1	!	1239	1	!	1266	0	0	0	0	0	0	0	0	0	0	0	0	0	0	0	0	0	0	0	0	0	0	0	0	0	0	0
121218	15:17:52	15:28:54	661247	5.0.10.0	4_exp_EVA_AMP_AWA_CON	10	Rpleas_acq	Same	Rpleas	Amasked	CS_A	2pleas	distractor1	EVAbeforeCON	acq_US_pleas_masked	acq45_masked	5	28	400	1	300	300	0	0	375	46	0	0	0	0	0	1	blank2r.bmp	0	1	+	0	5	C1r.bmp	492	1	blank2r.bmp	786	1	DHJF	786	1	blank2r.bmp	866	6	träumen	866	1	!	1239	1	!	1279	0	0	0	0	0	0	0	0	0	0	0	0	0	0	0	0	0	0	0	0	0	0	0	0	0	0	0
121218	15:17:52	15:28:56	663499	5.0.10.0	4_exp_EVA_AMP_AWA_CON	10	Rpleas_acq	Same	Rpleas	Amasked	CS_A	2pleas	distractor1	EVAbeforeCON	acq_US_unple_masked	acq45_masked	5	29	400	0	300	300	0	0	484	46	0	1	0	0	0	1	blank2r.bmp	0	1	+	0	4	B4r.bmp	492	1	blank2r.bmp	786	1	CPLW	786	1	blank2r.bmp	866	4	bange	866	1	!	1239	1	!	-1	0	0	0	0	0	0	0	0	0	0	0	0	0	0	0	0	0	0	0	0	0	0	0	0	0	0	0
121218	15:17:52	15:28:59	665778	5.0.10.0	4_exp_EVA_AMP_AWA_CON	10	Rpleas_acq	Same	Rpleas	Amasked	CS_A	2pleas	distractor1	EVAbeforeCON	acq_US_unple_masked	acq45_masked	5	30	400	0	300	300	0	0	500	46	0	1	0	0	0	1	blank2r.bmp	0	1	+	0	7	C3r.bmp	492	1	blank2r.bmp	786	1	CPLW	786	1	blank2r.bmp	866	4	bange	866	1	!	1239	1	!	-1	0	0	0	0	0	0	0	0	0	0	0	0	0	0	0	0	0	0	0	0	0	0	0	0	0	0	0
121218	15:17:52	15:29:01	668044	5.0.10.0	4_exp_EVA_AMP_AWA_CON	10	Rpleas_acq	Same	Rpleas	Amasked	CS_A	2pleas	distractor1	EVAbeforeCON	acq_US_unple_masked	acq45_masked	5	31	400	0	300	300	0	0	479	50	0	0	0	0	0	1	blank2r.bmp	0	1	+	0	6	C2r.bmp	492	1	blank2r.bmp	786	1	CPLW	786	1	blank2r.bmp	866	6	töten	866	1	!	1239	1	!	-1	0	0	0	0	0	0	0	0	0	0	0	0	0	0	0	0	0	0	0	0	0	0	0	0	0	0	0
121218	15:17:52	15:29:03	670310	5.0.10.0	4_exp_EVA_AMP_AWA_CON	10	Rpleas_acq	Same	Rpleas	Amasked	CS_A	2pleas	distractor1	EVAbeforeCON	acq_US_unple_masked	acq45_masked	5	32	400	1	300	300	0	0	446	46	0	1	0	0	0	1	blank2r.bmp	0	1	+	0	1	B1r.bmp	492	1	blank2r.bmp	786	1	CPLW	786	1	blank2r.bmp	866	2	versagen	866	1	!	1239	1	!	1346	0	0	0	0	0	0	0	0	0	0	0	0	0	0	0	0	0	0	0	0	0	0	0	0	0	0	0
121218	15:17:52	15:29:05	672589	5.0.10.0	4_exp_EVA_AMP_AWA_CON	10	Rpleas_acq	Same	Rpleas	Amasked	CS_A	2pleas	distractor1	EVAbeforeCON	acq_US_unple_masked	acq45_masked	5	33	400	0	300	300	0	0	517	46	0	1	0	0	0	1	blank2r.bmp	0	1	+	0	5	C1r.bmp	492	1	blank2r.bmp	786	1	CPLW	786	1	blank2r.bmp	866	1	ausrottung	866	1	!	1239	1	!	-1	0	0	0	0	0	0	0	0	0	0	0	0	0	0	0	0	0	0	0	0	0	0	0	0	0	0	0
121218	15:17:52	15:29:08	674841	5.0.10.0	4_exp_EVA_AMP_AWA_CON	10	Rpleas_acq	Same	Rpleas	Amasked	CS_A	2pleas	distractor1	EVAbeforeCON	acq_US_unple_masked	acq45_masked	5	34	400	1	300	300	0	0	448	46	0	1	0	0	0	1	blank2r.bmp	0	1	+	0	2	B2r.bmp	492	1	blank2r.bmp	786	1	CPLW	786	1	blank2r.bmp	866	5	krank	866	1	!	1239	1	!	1346	0	0	0	0	0	0	0	0	0	0	0	0	0	0	0	0	0	0	0	0	0	0	0	0	0	0	0
121218	15:17:52	15:29:10	677040	5.0.10.0	4_exp_EVA_AMP_AWA_CON	10	Rpleas_acq	Same	Rpleas	Amasked	CS_A	2pleas	distractor1	EVAbeforeCON	acq_US_pleas_masked	acq45_masked	5	35	400	1	300	300	0	0	405	46	0	0	0	0	0	1	blank2r.bmp	0	1	+	0	7	C3r.bmp	492	1	blank2r.bmp	786	1	DHJF	786	1	blank2r.bmp	866	5	kreativ	866	1	!	1239	1	!	1306	0	0	0	0	0	0	0	0	0	0	0	0	0	0	0	0	0	0	0	0	0	0	0	0	0	0	0
121218	15:17:52	15:29:12	679306	5.0.10.0	4_exp_EVA_AMP_AWA_CON	10	Rpleas_acq	Same	Rpleas	Amasked	CS_A	2pleas	distractor1	EVAbeforeCON	acq_US_unple_masked	acq45_masked	5	36	400	0	300	300	0	0	504	46	0	1	0	0	0	1	blank2r.bmp	0	1	+	0	1	B1r.bmp	492	1	blank2r.bmp	786	1	CPLW	786	1	blank2r.bmp	866	3	sterben	866	1	!	1239	1	!	-1	0	0	0	0	0	0	0	0	0	0	0	0	0	0	0	0	0	0	0	0	0	0	0	0	0	0	0
121218	15:17:52	15:29:41	708401	5.0.10.0	4_exp_EVA_AMP_AWA_CON	10	Rpleas_acq	Same	Rpleas	Amasked	CS_A	2pleas	distractor1	EVAbeforeCON	EvalRating_firsttwo	EvalRating_firsttwo	6	1	0	0	300	300	0	0	8353	line	-12,20703125	0	0	0	0	1	eraser	1	1	Wie angenehm oder unangenehm finden Sie die  Buchstabenkette ZGXT?	1	1	leftborder	1	1	rightborder	1	1	line	1	1	Unangenehm	1	1	Angenehm	1	0	0	0	0	0	0	0	0	0	0	0	0	0	0	0	0	0	0	0	0	0	0	0	0	0	0	0	0	0	0	0	0	0
121218	15:17:52	15:29:46	712879	5.0.10.0	4_exp_EVA_AMP_AWA_CON	10	Rpleas_acq	Same	Rpleas	Amasked	CS_A	2pleas	distractor1	EVAbeforeCON	EvalRating_lastfour	EvalRating_lastfour	7	1	0	0	300	300	0	0	2017	line	31,73828125	0	0	0	0	1	eraser	1	2	Wie angenehm oder unangenehm finden Sie die  Buchstabenkette DHJF?	1	1	leftborder	1	1	rightborder	1	1	line	1	1	Unangenehm	1	1	Angenehm	1	0	0	0	0	0	0	0	0	0	0	0	0	0	0	0	0	0	0	0	0	0	0	0	0	0	0	0	0	0	0	0	0	0
121218	15:17:52	15:29:48	715251	5.0.10.0	4_exp_EVA_AMP_AWA_CON	10	Rpleas_acq	Same	Rpleas	Amasked	CS_A	2pleas	distractor1	EVAbeforeCON	blank_screen	EvalRating_lastfour	7	3	0	0	300	300	0	0	0	0	31,73828125	0	0	0	0	1	eraser	0	0	0	0	0	0	0	0	0	0	0	0	0	0	0	0	0	0	0	0	0	0	0	0	0	0	0	0	0	0	0	0	0	0	0	0	0	0	0	0	0	0	0	0	0	0	0	0	0	0	0	0
121218	15:17:52	15:29:51	717824	5.0.10.0	4_exp_EVA_AMP_AWA_CON	10	Rpleas_acq	Same	Rpleas	Amasked	CS_A	2pleas	distractor1	EVAbeforeCON	EvalRating_lastfour	EvalRating_lastfour	7	4	0	0	300	300	0	0	1987	line	47,36328125	0	0	0	0	1	eraser	0	1	Wie angenehm oder unangenehm finden Sie die  Buchstabenkette CPLW?	0	1	leftborder	0	1	rightborder	0	1	line	0	1	Unangenehm	0	1	Angenehm	0	0	0	0	0	0	0	0	0	0	0	0	0	0	0	0	0	0	0	0	0	0	0	0	0	0	0	0	0	0	0	0	0	0
121218	15:17:52	15:29:53	720196	5.0.10.0	4_exp_EVA_AMP_AWA_CON	10	Rpleas_acq	Same	Rpleas	Amasked	CS_A	2pleas	distractor1	EVAbeforeCON	blank_screen	EvalRating_lastfour	7	6	0	0	300	300	0	0	0	0	47,36328125	0	0	0	0	1	eraser	0	0	0	0	0	0	0	0	0	0	0	0	0	0	0	0	0	0	0	0	0	0	0	0	0	0	0	0	0	0	0	0	0	0	0	0	0	0	0	0	0	0	0	0	0	0	0	0	0	0	0	0
121218	15:17:52	15:29:55	722355	5.0.10.0	4_exp_EVA_AMP_AWA_CON	10	Rpleas_acq	Same	Rpleas	Amasked	CS_A	2pleas	distractor1	EVAbeforeCON	EvalRating_lastfour	EvalRating_lastfour	7	7	0	0	300	300	0	0	1579	line	-3,41796875	0	0	0	0	1	eraser	0	3	Wie angenehm oder unangenehm finden Sie die  Buchstabenkette QYSB?	0	1	leftborder	0	1	rightborder	0	1	line	0	1	Unangenehm	0	1	Angenehm	0	0	0	0	0	0	0	0	0	0	0	0	0	0	0	0	0	0	0	0	0	0	0	0	0	0	0	0	0	0	0	0	0	0
121218	15:17:52	15:30:54	781158	5.0.10.0	4_exp_EVA_AMP_AWA_CON	10	Rpleas_acq	Same	Rpleas	Amasked	CS_A	2pleas	distractor1	EVAbeforeCON	AMP_CSpleas	AMP1_masked	8	1	0	0	300	300	0	0	3886	50	-3,41796875	1	0	0	0	1	blank2r.bmp	0	1	DHJF	0	1	blank2r.bmp	79	67	pic67.bmp	199	1	whitenoise_No3.bmp	306	0	0	0	0	0	0	0	0	0	0	0	0	0	0	0	0	0	0	0	0	0	0	0	0	0	0	0	0	0	0	0	0	0	0	0	0	0	0	0
121218	15:17:52	15:30:56	782917	5.0.10.0	4_exp_EVA_AMP_AWA_CON	10	Rpleas_acq	Same	Rpleas	Amasked	CS_A	2pleas	distractor1	EVAbeforeCON	AMP_distractor	AMP1_masked	8	2	0	0	300	300	0	0	836	50	-3,41796875	0	0	0	0	1	blank2r.bmp	0	1	ZGXT	0	1	blank2r.bmp	79	19	pic19.bmp	199	1	whitenoise_No3.bmp	306	0	0	0	0	0	0	0	0	0	0	0	0	0	0	0	0	0	0	0	0	0	0	0	0	0	0	0	0	0	0	0	0	0	0	0	0	0	0	0
121218	15:17:52	15:30:57	784490	5.0.10.0	4_exp_EVA_AMP_AWA_CON	10	Rpleas_acq	Same	Rpleas	Amasked	CS_A	2pleas	distractor1	EVAbeforeCON	AMP_CSunple	AMP1_masked	8	3	0	0	300	300	0	0	640	46	-3,41796875	1	0	0	0	1	blank2r.bmp	0	1	CPLW	0	1	blank2r.bmp	79	139	pic139.bmp	199	1	whitenoise_No3.bmp	306	0	0	0	0	0	0	0	0	0	0	0	0	0	0	0	0	0	0	0	0	0	0	0	0	0	0	0	0	0	0	0	0	0	0	0	0	0	0	0
121218	15:17:52	15:30:59	785969	5.0.10.0	4_exp_EVA_AMP_AWA_CON	10	Rpleas_acq	Same	Rpleas	Amasked	CS_A	2pleas	distractor1	EVAbeforeCON	AMP_CSunple	AMP1_masked	8	4	0	0	300	300	0	0	558	50	-3,41796875	0	0	0	0	1	blank2r.bmp	0	1	CPLW	0	1	blank2r.bmp	79	20	pic20.bmp	199	1	whitenoise_No3.bmp	306	0	0	0	0	0	0	0	0	0	0	0	0	0	0	0	0	0	0	0	0	0	0	0	0	0	0	0	0	0	0	0	0	0	0	0	0	0	0	0
121218	15:17:52	15:31:00	787488	5.0.10.0	4_exp_EVA_AMP_AWA_CON	10	Rpleas_acq	Same	Rpleas	Amasked	CS_A	2pleas	distractor1	EVAbeforeCON	AMP_CSunple	AMP1_masked	8	5	0	0	300	300	0	0	601	50	-3,41796875	0	0	0	0	1	blank2r.bmp	0	1	CPLW	0	1	blank2r.bmp	79	128	pic128.bmp	199	1	whitenoise_No3.bmp	306	0	0	0	0	0	0	0	0	0	0	0	0	0	0	0	0	0	0	0	0	0	0	0	0	0	0	0	0	0	0	0	0	0	0	0	0	0	0	0
121218	15:17:52	15:31:02	789328	5.0.10.0	4_exp_EVA_AMP_AWA_CON	10	Rpleas_acq	Same	Rpleas	Amasked	CS_A	2pleas	distractor1	EVAbeforeCON	AMP_CSunple	AMP1_masked	8	6	0	0	300	300	0	0	923	50	-3,41796875	0	0	0	0	1	blank2r.bmp	0	1	CPLW	0	1	blank2r.bmp	79	64	pic64.bmp	199	1	whitenoise_No3.bmp	306	0	0	0	0	0	0	0	0	0	0	0	0	0	0	0	0	0	0	0	0	0	0	0	0	0	0	0	0	0	0	0	0	0	0	0	0	0	0	0
121218	15:17:52	15:31:04	790860	5.0.10.0	4_exp_EVA_AMP_AWA_CON	10	Rpleas_acq	Same	Rpleas	Amasked	CS_A	2pleas	distractor1	EVAbeforeCON	AMP_CSpleas	AMP1_masked	8	7	0	0	300	300	0	0	609	50	-3,41796875	1	0	0	0	1	blank2r.bmp	0	1	DHJF	0	1	blank2r.bmp	79	45	pic45.bmp	199	1	whitenoise_No3.bmp	306	0	0	0	0	0	0	0	0	0	0	0	0	0	0	0	0	0	0	0	0	0	0	0	0	0	0	0	0	0	0	0	0	0	0	0	0	0	0	0
121218	15:17:52	15:31:05	792273	5.0.10.0	4_exp_EVA_AMP_AWA_CON	10	Rpleas_acq	Same	Rpleas	Amasked	CS_A	2pleas	distractor1	EVAbeforeCON	AMP_distractor	AMP1_masked	8	8	0	0	300	300	0	0	487	46	-3,41796875	0	0	0	0	1	blank2r.bmp	0	1	ZGXT	0	1	blank2r.bmp	79	89	pic89.bmp	199	1	whitenoise_No3.bmp	306	0	0	0	0	0	0	0	0	0	0	0	0	0	0	0	0	0	0	0	0	0	0	0	0	0	0	0	0	0	0	0	0	0	0	0	0	0	0	0
121218	15:17:52	15:31:07	793766	5.0.10.0	4_exp_EVA_AMP_AWA_CON	10	Rpleas_acq	Same	Rpleas	Amasked	CS_A	2pleas	distractor1	EVAbeforeCON	AMP_CSunple	AMP1_masked	8	9	0	0	300	300	0	0	569	50	-3,41796875	0	0	0	0	1	blank2r.bmp	0	1	CPLW	0	1	blank2r.bmp	79	16	pic16.bmp	199	1	whitenoise_No3.bmp	306	0	0	0	0	0	0	0	0	0	0	0	0	0	0	0	0	0	0	0	0	0	0	0	0	0	0	0	0	0	0	0	0	0	0	0	0	0	0	0
121218	15:17:52	15:31:08	795218	5.0.10.0	4_exp_EVA_AMP_AWA_CON	10	Rpleas_acq	Same	Rpleas	Amasked	CS_A	2pleas	distractor1	EVAbeforeCON	AMP_CSunple	AMP1_masked	8	10	0	0	300	300	0	0	538	50	-3,41796875	0	0	0	0	1	blank2r.bmp	0	1	CPLW	0	1	blank2r.bmp	79	80	pic80.bmp	199	1	whitenoise_No3.bmp	306	0	0	0	0	0	0	0	0	0	0	0	0	0	0	0	0	0	0	0	0	0	0	0	0	0	0	0	0	0	0	0	0	0	0	0	0	0	0	0
121218	15:17:52	15:31:10	796924	5.0.10.0	4_exp_EVA_AMP_AWA_CON	10	Rpleas_acq	Same	Rpleas	Amasked	CS_A	2pleas	distractor1	EVAbeforeCON	AMP_CSpleas	AMP1_masked	8	11	0	0	300	300	0	0	787	46	-3,41796875	0	0	0	0	1	blank2r.bmp	0	1	DHJF	0	1	blank2r.bmp	79	79	pic79.bmp	199	1	whitenoise_No3.bmp	306	0	0	0	0	0	0	0	0	0	0	0	0	0	0	0	0	0	0	0	0	0	0	0	0	0	0	0	0	0	0	0	0	0	0	0	0	0	0	0
121218	15:17:52	15:31:11	798311	5.0.10.0	4_exp_EVA_AMP_AWA_CON	10	Rpleas_acq	Same	Rpleas	Amasked	CS_A	2pleas	distractor1	EVAbeforeCON	AMP_distractor	AMP1_masked	8	12	0	0	300	300	0	0	473	46	-3,41796875	0	0	0	0	1	blank2r.bmp	0	1	ZGXT	0	1	blank2r.bmp	79	87	pic87.bmp	199	1	whitenoise_No3.bmp	306	0	0	0	0	0	0	0	0	0	0	0	0	0	0	0	0	0	0	0	0	0	0	0	0	0	0	0	0	0	0	0	0	0	0	0	0	0	0	0
121218	15:17:52	15:31:13	799883	5.0.10.0	4_exp_EVA_AMP_AWA_CON	10	Rpleas_acq	Same	Rpleas	Amasked	CS_A	2pleas	distractor1	EVAbeforeCON	AMP_CSpleas	AMP1_masked	8	13	0	0	300	300	0	0	648	50	-3,41796875	1	0	0	0	1	blank2r.bmp	0	1	DHJF	0	1	blank2r.bmp	79	17	pic17.bmp	199	1	whitenoise_No3.bmp	306	0	0	0	0	0	0	0	0	0	0	0	0	0	0	0	0	0	0	0	0	0	0	0	0	0	0	0	0	0	0	0	0	0	0	0	0	0	0	0
121218	15:17:52	15:31:14	801389	5.0.10.0	4_exp_EVA_AMP_AWA_CON	10	Rpleas_acq	Same	Rpleas	Amasked	CS_A	2pleas	distractor1	EVAbeforeCON	AMP_distractor	AMP1_masked	8	14	0	0	300	300	0	0	583	50	-3,41796875	0	0	0	0	1	blank2r.bmp	0	1	ZGXT	0	1	blank2r.bmp	79	83	pic83.bmp	199	1	whitenoise_No3.bmp	306	0	0	0	0	0	0	0	0	0	0	0	0	0	0	0	0	0	0	0	0	0	0	0	0	0	0	0	0	0	0	0	0	0	0	0	0	0	0	0
121218	15:17:52	15:31:16	802775	5.0.10.0	4_exp_EVA_AMP_AWA_CON	10	Rpleas_acq	Same	Rpleas	Amasked	CS_A	2pleas	distractor1	EVAbeforeCON	AMP_CSunple	AMP1_masked	8	15	0	0	300	300	0	0	461	50	-3,41796875	0	0	0	0	1	blank2r.bmp	0	1	CPLW	0	1	blank2r.bmp	79	118	pic118.bmp	199	1	whitenoise_No3.bmp	306	0	0	0	0	0	0	0	0	0	0	0	0	0	0	0	0	0	0	0	0	0	0	0	0	0	0	0	0	0	0	0	0	0	0	0	0	0	0	0
121218	15:17:52	15:31:18	805254	5.0.10.0	4_exp_EVA_AMP_AWA_CON	10	Rpleas_acq	Same	Rpleas	Amasked	CS_A	2pleas	distractor1	EVAbeforeCON	AMP_CSpleas	AMP1_masked	8	16	0	0	300	300	0	0	1549	50	-3,41796875	1	0	0	0	1	blank2r.bmp	0	1	DHJF	0	1	blank2r.bmp	79	132	pic132.bmp	199	1	whitenoise_No3.bmp	306	0	0	0	0	0	0	0	0	0	0	0	0	0	0	0	0	0	0	0	0	0	0	0	0	0	0	0	0	0	0	0	0	0	0	0	0	0	0	0
121218	15:17:52	15:31:20	806654	5.0.10.0	4_exp_EVA_AMP_AWA_CON	10	Rpleas_acq	Same	Rpleas	Amasked	CS_A	2pleas	distractor1	EVAbeforeCON	AMP_distractor	AMP1_masked	8	17	0	0	300	300	0	0	491	46	-3,41796875	0	0	0	0	1	blank2r.bmp	0	1	ZGXT	0	1	blank2r.bmp	79	120	pic120.bmp	199	1	whitenoise_No3.bmp	306	0	0	0	0	0	0	0	0	0	0	0	0	0	0	0	0	0	0	0	0	0	0	0	0	0	0	0	0	0	0	0	0	0	0	0	0	0	0	0
121218	15:17:52	15:31:21	808133	5.0.10.0	4_exp_EVA_AMP_AWA_CON	10	Rpleas_acq	Same	Rpleas	Amasked	CS_A	2pleas	distractor1	EVAbeforeCON	AMP_distractor	AMP1_masked	8	18	0	0	300	300	0	0	552	46	-3,41796875	0	0	0	0	1	blank2r.bmp	0	1	ZGXT	0	1	blank2r.bmp	79	127	pic127.bmp	199	1	whitenoise_No3.bmp	306	0	0	0	0	0	0	0	0	0	0	0	0	0	0	0	0	0	0	0	0	0	0	0	0	0	0	0	0	0	0	0	0	0	0	0	0	0	0	0
121218	15:17:52	15:31:22	809546	5.0.10.0	4_exp_EVA_AMP_AWA_CON	10	Rpleas_acq	Same	Rpleas	Amasked	CS_A	2pleas	distractor1	EVAbeforeCON	AMP_CSpleas	AMP1_masked	8	19	0	0	300	300	0	0	498	46	-3,41796875	0	0	0	0	1	blank2r.bmp	0	1	DHJF	0	1	blank2r.bmp	79	34	pic34.bmp	199	1	whitenoise_No3.bmp	306	0	0	0	0	0	0	0	0	0	0	0	0	0	0	0	0	0	0	0	0	0	0	0	0	0	0	0	0	0	0	0	0	0	0	0	0	0	0	0
121218	15:17:52	15:31:24	811198	5.0.10.0	4_exp_EVA_AMP_AWA_CON	10	Rpleas_acq	Same	Rpleas	Amasked	CS_A	2pleas	distractor1	EVAbeforeCON	AMP_CSunple	AMP1_masked	8	20	0	0	300	300	0	0	725	46	-3,41796875	1	0	0	0	1	blank2r.bmp	0	1	CPLW	0	1	blank2r.bmp	79	55	pic55.bmp	199	1	whitenoise_No3.bmp	306	0	0	0	0	0	0	0	0	0	0	0	0	0	0	0	0	0	0	0	0	0	0	0	0	0	0	0	0	0	0	0	0	0	0	0	0	0	0	0
121218	15:17:52	15:31:26	812678	5.0.10.0	4_exp_EVA_AMP_AWA_CON	10	Rpleas_acq	Same	Rpleas	Amasked	CS_A	2pleas	distractor1	EVAbeforeCON	AMP_CSpleas	AMP1_masked	8	21	0	0	300	300	0	0	557	50	-3,41796875	1	0	0	0	1	blank2r.bmp	0	1	DHJF	0	1	blank2r.bmp	79	51	pic51.bmp	199	1	whitenoise_No3.bmp	306	0	0	0	0	0	0	0	0	0	0	0	0	0	0	0	0	0	0	0	0	0	0	0	0	0	0	0	0	0	0	0	0	0	0	0	0	0	0	0
121218	15:17:52	15:31:27	814157	5.0.10.0	4_exp_EVA_AMP_AWA_CON	10	Rpleas_acq	Same	Rpleas	Amasked	CS_A	2pleas	distractor1	EVAbeforeCON	AMP_CSpleas	AMP1_masked	8	22	0	0	300	300	0	0	547	50	-3,41796875	1	0	0	0	1	blank2r.bmp	0	1	DHJF	0	1	blank2r.bmp	79	125	pic125.bmp	199	1	whitenoise_No3.bmp	306	0	0	0	0	0	0	0	0	0	0	0	0	0	0	0	0	0	0	0	0	0	0	0	0	0	0	0	0	0	0	0	0	0	0	0	0	0	0	0
121218	15:17:52	15:31:29	815717	5.0.10.0	4_exp_EVA_AMP_AWA_CON	10	Rpleas_acq	Same	Rpleas	Amasked	CS_A	2pleas	distractor1	EVAbeforeCON	AMP_distractor	AMP1_masked	8	23	0	0	300	300	0	0	648	50	-3,41796875	0	0	0	0	1	blank2r.bmp	0	1	ZGXT	0	1	blank2r.bmp	79	10	pic10.bmp	199	1	whitenoise_No3.bmp	306	0	0	0	0	0	0	0	0	0	0	0	0	0	0	0	0	0	0	0	0	0	0	0	0	0	0	0	0	0	0	0	0	0	0	0	0	0	0	0
121218	15:17:52	15:31:30	817223	5.0.10.0	4_exp_EVA_AMP_AWA_CON	10	Rpleas_acq	Same	Rpleas	Amasked	CS_A	2pleas	distractor1	EVAbeforeCON	AMP_CSunple	AMP1_masked	8	24	0	0	300	300	0	0	583	46	-3,41796875	1	0	0	0	1	blank2r.bmp	0	1	CPLW	0	1	blank2r.bmp	79	52	pic52.bmp	199	1	whitenoise_No3.bmp	306	0	0	0	0	0	0	0	0	0	0	0	0	0	0	0	0	0	0	0	0	0	0	0	0	0	0	0	0	0	0	0	0	0	0	0	0	0	0	0
121218	15:17:52	15:31:32	818622	5.0.10.0	4_exp_EVA_AMP_AWA_CON	10	Rpleas_acq	Same	Rpleas	Amasked	CS_A	2pleas	distractor1	EVAbeforeCON	AMP_distractor	AMP1_masked	8	25	0	0	300	300	0	0	474	50	-3,41796875	0	0	0	0	1	blank2r.bmp	0	1	ZGXT	0	1	blank2r.bmp	79	113	pic113.bmp	199	1	whitenoise_No3.bmp	306	0	0	0	0	0	0	0	0	0	0	0	0	0	0	0	0	0	0	0	0	0	0	0	0	0	0	0	0	0	0	0	0	0	0	0	0	0	0	0
121218	15:17:52	15:31:33	820408	5.0.10.0	4_exp_EVA_AMP_AWA_CON	10	Rpleas_acq	Same	Rpleas	Amasked	CS_A	2pleas	distractor1	EVAbeforeCON	AMP_CSunple	AMP1_masked	8	26	0	0	300	300	0	0	860	46	-3,41796875	1	0	0	0	1	blank2r.bmp	0	1	CPLW	0	1	blank2r.bmp	79	119	pic119.bmp	199	1	whitenoise_No3.bmp	306	0	0	0	0	0	0	0	0	0	0	0	0	0	0	0	0	0	0	0	0	0	0	0	0	0	0	0	0	0	0	0	0	0	0	0	0	0	0	0
121218	15:17:52	15:31:35	821781	5.0.10.0	4_exp_EVA_AMP_AWA_CON	10	Rpleas_acq	Same	Rpleas	Amasked	CS_A	2pleas	distractor1	EVAbeforeCON	AMP_distractor	AMP1_masked	8	27	0	0	300	300	0	0	449	50	-3,41796875	0	0	0	0	1	blank2r.bmp	0	1	ZGXT	0	1	blank2r.bmp	79	112	pic112.bmp	199	1	whitenoise_No3.bmp	306	0	0	0	0	0	0	0	0	0	0	0	0	0	0	0	0	0	0	0	0	0	0	0	0	0	0	0	0	0	0	0	0	0	0	0	0	0	0	0
121218	15:17:52	15:31:37	823927	5.0.10.0	4_exp_EVA_AMP_AWA_CON	10	Rpleas_acq	Same	Rpleas	Amasked	CS_A	2pleas	distractor1	EVAbeforeCON	AMP_CSunple	AMP1_masked	8	28	0	0	300	300	0	0	1213	50	-3,41796875	0	0	0	0	1	blank2r.bmp	0	1	CPLW	0	1	blank2r.bmp	79	63	pic63.bmp	199	1	whitenoise_No3.bmp	306	0	0	0	0	0	0	0	0	0	0	0	0	0	0	0	0	0	0	0	0	0	0	0	0	0	0	0	0	0	0	0	0	0	0	0	0	0	0	0
121218	15:17:52	15:31:38	825379	5.0.10.0	4_exp_EVA_AMP_AWA_CON	10	Rpleas_acq	Same	Rpleas	Amasked	CS_A	2pleas	distractor1	EVAbeforeCON	AMP_distractor	AMP1_masked	8	29	0	0	300	300	0	0	537	46	-3,41796875	0	0	0	0	1	blank2r.bmp	0	1	ZGXT	0	1	blank2r.bmp	79	142	pic142.bmp	199	1	whitenoise_No3.bmp	306	0	0	0	0	0	0	0	0	0	0	0	0	0	0	0	0	0	0	0	0	0	0	0	0	0	0	0	0	0	0	0	0	0	0	0	0	0	0	0
121218	15:17:52	15:31:40	826939	5.0.10.0	4_exp_EVA_AMP_AWA_CON	10	Rpleas_acq	Same	Rpleas	Amasked	CS_A	2pleas	distractor1	EVAbeforeCON	AMP_CSpleas	AMP1_masked	8	30	0	0	300	300	0	0	635	50	-3,41796875	1	0	0	0	1	blank2r.bmp	0	1	DHJF	0	1	blank2r.bmp	79	103	pic103.bmp	199	1	whitenoise_No3.bmp	306	0	0	0	0	0	0	0	0	0	0	0	0	0	0	0	0	0	0	0	0	0	0	0	0	0	0	0	0	0	0	0	0	0	0	0	0	0	0	0
121218	15:17:52	15:31:41	828285	5.0.10.0	4_exp_EVA_AMP_AWA_CON	10	Rpleas_acq	Same	Rpleas	Amasked	CS_A	2pleas	distractor1	EVAbeforeCON	AMP_CSunple	AMP1_masked	8	31	0	0	300	300	0	0	416	50	-3,41796875	0	0	0	0	1	blank2r.bmp	0	1	CPLW	0	1	blank2r.bmp	79	82	pic82.bmp	199	1	whitenoise_No3.bmp	306	0	0	0	0	0	0	0	0	0	0	0	0	0	0	0	0	0	0	0	0	0	0	0	0	0	0	0	0	0	0	0	0	0	0	0	0	0	0	0
121218	15:17:52	15:31:42	829538	5.0.10.0	4_exp_EVA_AMP_AWA_CON	10	Rpleas_acq	Same	Rpleas	Amasked	CS_A	2pleas	distractor1	EVAbeforeCON	AMP_CSunple	AMP1_masked	8	32	0	0	300	300	0	0	331	50	-3,41796875	0	0	0	0	1	blank2r.bmp	0	1	CPLW	0	1	blank2r.bmp	79	29	pic29.bmp	199	1	whitenoise_No3.bmp	306	0	0	0	0	0	0	0	0	0	0	0	0	0	0	0	0	0	0	0	0	0	0	0	0	0	0	0	0	0	0	0	0	0	0	0	0	0	0	0
121218	15:17:52	15:31:44	830857	5.0.10.0	4_exp_EVA_AMP_AWA_CON	10	Rpleas_acq	Same	Rpleas	Amasked	CS_A	2pleas	distractor1	EVAbeforeCON	AMP_CSpleas	AMP1_masked	8	33	0	0	300	300	0	0	393	50	-3,41796875	1	0	0	0	1	blank2r.bmp	0	1	DHJF	0	1	blank2r.bmp	79	99	pic99.bmp	199	1	whitenoise_No3.bmp	306	0	0	0	0	0	0	0	0	0	0	0	0	0	0	0	0	0	0	0	0	0	0	0	0	0	0	0	0	0	0	0	0	0	0	0	0	0	0	0
121218	15:17:52	15:31:45	832163	5.0.10.0	4_exp_EVA_AMP_AWA_CON	10	Rpleas_acq	Same	Rpleas	Amasked	CS_A	2pleas	distractor1	EVAbeforeCON	AMP_distractor	AMP1_masked	8	34	0	0	300	300	0	0	383	50	-3,41796875	0	0	0	0	1	blank2r.bmp	0	1	ZGXT	0	1	blank2r.bmp	79	115	pic115.bmp	199	1	whitenoise_No3.bmp	306	0	0	0	0	0	0	0	0	0	0	0	0	0	0	0	0	0	0	0	0	0	0	0	0	0	0	0	0	0	0	0	0	0	0	0	0	0	0	0
121218	15:17:52	15:31:46	833496	5.0.10.0	4_exp_EVA_AMP_AWA_CON	10	Rpleas_acq	Same	Rpleas	Amasked	CS_A	2pleas	distractor1	EVAbeforeCON	AMP_distractor	AMP1_masked	8	35	0	0	300	300	0	0	404	50	-3,41796875	0	0	0	0	1	blank2r.bmp	0	1	ZGXT	0	1	blank2r.bmp	79	59	pic59.bmp	199	1	whitenoise_No3.bmp	306	0	0	0	0	0	0	0	0	0	0	0	0	0	0	0	0	0	0	0	0	0	0	0	0	0	0	0	0	0	0	0	0	0	0	0	0	0	0	0
121218	15:17:52	15:31:48	834789	5.0.10.0	4_exp_EVA_AMP_AWA_CON	10	Rpleas_acq	Same	Rpleas	Amasked	CS_A	2pleas	distractor1	EVAbeforeCON	AMP_CSunple	AMP1_masked	8	36	0	0	300	300	0	0	371	50	-3,41796875	0	0	0	0	1	blank2r.bmp	0	1	CPLW	0	1	blank2r.bmp	79	53	pic53.bmp	199	1	whitenoise_No3.bmp	306	0	0	0	0	0	0	0	0	0	0	0	0	0	0	0	0	0	0	0	0	0	0	0	0	0	0	0	0	0	0	0	0	0	0	0	0	0	0	0
121218	15:17:52	15:31:49	836135	5.0.10.0	4_exp_EVA_AMP_AWA_CON	10	Rpleas_acq	Same	Rpleas	Amasked	CS_A	2pleas	distractor1	EVAbeforeCON	AMP_distractor	AMP1_masked	8	37	0	0	300	300	0	0	415	50	-3,41796875	0	0	0	0	1	blank2r.bmp	0	1	ZGXT	0	1	blank2r.bmp	79	1	pic1.bmp	199	1	whitenoise_No3.bmp	306	0	0	0	0	0	0	0	0	0	0	0	0	0	0	0	0	0	0	0	0	0	0	0	0	0	0	0	0	0	0	0	0	0	0	0	0	0	0	0
121218	15:17:52	15:31:50	837481	5.0.10.0	4_exp_EVA_AMP_AWA_CON	10	Rpleas_acq	Same	Rpleas	Amasked	CS_A	2pleas	distractor1	EVAbeforeCON	AMP_distractor	AMP1_masked	8	38	0	0	300	300	0	0	437	50	-3,41796875	0	0	0	0	1	blank2r.bmp	0	1	ZGXT	0	1	blank2r.bmp	79	102	pic102.bmp	199	1	whitenoise_No3.bmp	306	0	0	0	0	0	0	0	0	0	0	0	0	0	0	0	0	0	0	0	0	0	0	0	0	0	0	0	0	0	0	0	0	0	0	0	0	0	0	0
121218	15:17:52	15:31:52	838947	5.0.10.0	4_exp_EVA_AMP_AWA_CON	10	Rpleas_acq	Same	Rpleas	Amasked	CS_A	2pleas	distractor1	EVAbeforeCON	AMP_CSunple	AMP1_masked	8	39	0	0	300	300	0	0	541	50	-3,41796875	0	0	0	0	1	blank2r.bmp	0	1	CPLW	0	1	blank2r.bmp	79	149	pic149.bmp	199	1	whitenoise_No3.bmp	306	0	0	0	0	0	0	0	0	0	0	0	0	0	0	0	0	0	0	0	0	0	0	0	0	0	0	0	0	0	0	0	0	0	0	0	0	0	0	0
121218	15:17:52	15:31:53	840307	5.0.10.0	4_exp_EVA_AMP_AWA_CON	10	Rpleas_acq	Same	Rpleas	Amasked	CS_A	2pleas	distractor1	EVAbeforeCON	AMP_CSunple	AMP1_masked	8	40	0	0	300	300	0	0	426	50	-3,41796875	0	0	0	0	1	blank2r.bmp	0	1	CPLW	0	1	blank2r.bmp	79	9	pic9.bmp	199	1	whitenoise_No3.bmp	306	0	0	0	0	0	0	0	0	0	0	0	0	0	0	0	0	0	0	0	0	0	0	0	0	0	0	0	0	0	0	0	0	0	0	0	0	0	0	0
121218	15:17:52	15:31:55	841773	5.0.10.0	4_exp_EVA_AMP_AWA_CON	10	Rpleas_acq	Same	Rpleas	Amasked	CS_A	2pleas	distractor1	EVAbeforeCON	AMP_CSpleas	AMP1_masked	8	41	0	0	300	300	0	0	546	50	-3,41796875	1	0	0	0	1	blank2r.bmp	0	1	DHJF	0	1	blank2r.bmp	79	30	pic30.bmp	199	1	whitenoise_No3.bmp	306	0	0	0	0	0	0	0	0	0	0	0	0	0	0	0	0	0	0	0	0	0	0	0	0	0	0	0	0	0	0	0	0	0	0	0	0	0	0	0
121218	15:17:52	15:31:56	843185	5.0.10.0	4_exp_EVA_AMP_AWA_CON	10	Rpleas_acq	Same	Rpleas	Amasked	CS_A	2pleas	distractor1	EVAbeforeCON	AMP_CSpleas	AMP1_masked	8	42	0	0	300	300	0	0	503	50	-3,41796875	1	0	0	0	1	blank2r.bmp	0	1	DHJF	0	1	blank2r.bmp	79	61	pic61.bmp	199	1	whitenoise_No3.bmp	306	0	0	0	0	0	0	0	0	0	0	0	0	0	0	0	0	0	0	0	0	0	0	0	0	0	0	0	0	0	0	0	0	0	0	0	0	0	0	0
121218	15:17:52	15:31:58	844811	5.0.10.0	4_exp_EVA_AMP_AWA_CON	10	Rpleas_acq	Same	Rpleas	Amasked	CS_A	2pleas	distractor1	EVAbeforeCON	AMP_CSpleas	AMP1_masked	8	43	0	0	300	300	0	0	712	50	-3,41796875	1	0	0	0	1	blank2r.bmp	0	1	DHJF	0	1	blank2r.bmp	79	153	pic153.bmp	199	1	whitenoise_No3.bmp	306	0	0	0	0	0	0	0	0	0	0	0	0	0	0	0	0	0	0	0	0	0	0	0	0	0	0	0	0	0	0	0	0	0	0	0	0	0	0	0
121218	15:17:52	15:31:59	846144	5.0.10.0	4_exp_EVA_AMP_AWA_CON	10	Rpleas_acq	Same	Rpleas	Amasked	CS_A	2pleas	distractor1	EVAbeforeCON	AMP_CSpleas	AMP1_masked	8	44	0	0	300	300	0	0	416	50	-3,41796875	1	0	0	0	1	blank2r.bmp	0	1	DHJF	0	1	blank2r.bmp	79	3	pic3.bmp	199	1	whitenoise_No3.bmp	306	0	0	0	0	0	0	0	0	0	0	0	0	0	0	0	0	0	0	0	0	0	0	0	0	0	0	0	0	0	0	0	0	0	0	0	0	0	0	0
121218	15:17:52	15:32:00	847557	5.0.10.0	4_exp_EVA_AMP_AWA_CON	10	Rpleas_acq	Same	Rpleas	Amasked	CS_A	2pleas	distractor1	EVAbeforeCON	AMP_CSpleas	AMP1_masked	8	45	0	0	300	300	0	0	488	46	-3,41796875	0	0	0	0	1	blank2r.bmp	0	1	DHJF	0	1	blank2r.bmp	79	27	pic27.bmp	199	1	whitenoise_No3.bmp	306	0	0	0	0	0	0	0	0	0	0	0	0	0	0	0	0	0	0	0	0	0	0	0	0	0	0	0	0	0	0	0	0	0	0	0	0	0	0	0
121218	15:17:52	15:32:02	848983	5.0.10.0	4_exp_EVA_AMP_AWA_CON	10	Rpleas_acq	Same	Rpleas	Amasked	CS_A	2pleas	distractor1	EVAbeforeCON	AMP_distractor	AMP1_masked	8	46	0	0	300	300	0	0	498	50	-3,41796875	0	0	0	0	1	blank2r.bmp	0	1	ZGXT	0	1	blank2r.bmp	79	37	pic37.bmp	199	1	whitenoise_No3.bmp	306	0	0	0	0	0	0	0	0	0	0	0	0	0	0	0	0	0	0	0	0	0	0	0	0	0	0	0	0	0	0	0	0	0	0	0	0	0	0	0
121218	15:17:52	15:32:03	850409	5.0.10.0	4_exp_EVA_AMP_AWA_CON	10	Rpleas_acq	Same	Rpleas	Amasked	CS_A	2pleas	distractor1	EVAbeforeCON	AMP_distractor	AMP1_masked	8	47	0	0	300	300	0	0	493	50	-3,41796875	0	0	0	0	1	blank2r.bmp	0	1	ZGXT	0	1	blank2r.bmp	79	126	pic126.bmp	199	1	whitenoise_No3.bmp	306	0	0	0	0	0	0	0	0	0	0	0	0	0	0	0	0	0	0	0	0	0	0	0	0	0	0	0	0	0	0	0	0	0	0	0	0	0	0	0
121218	15:17:52	15:32:05	851782	5.0.10.0	4_exp_EVA_AMP_AWA_CON	10	Rpleas_acq	Same	Rpleas	Amasked	CS_A	2pleas	distractor1	EVAbeforeCON	AMP_distractor	AMP1_masked	8	48	0	0	300	300	0	0	464	50	-3,41796875	0	0	0	0	1	blank2r.bmp	0	1	ZGXT	0	1	blank2r.bmp	79	54	pic54.bmp	199	1	whitenoise_No3.bmp	306	0	0	0	0	0	0	0	0	0	0	0	0	0	0	0	0	0	0	0	0	0	0	0	0	0	0	0	0	0	0	0	0	0	0	0	0	0	0	0
121218	15:17:52	15:32:06	853341	5.0.10.0	4_exp_EVA_AMP_AWA_CON	10	Rpleas_acq	Same	Rpleas	Amasked	CS_A	2pleas	distractor1	EVAbeforeCON	AMP_CSpleas	AMP1_masked	8	49	0	0	300	300	0	0	631	50	-3,41796875	1	0	0	0	1	blank2r.bmp	0	1	DHJF	0	1	blank2r.bmp	79	150	pic150.bmp	199	1	whitenoise_No3.bmp	306	0	0	0	0	0	0	0	0	0	0	0	0	0	0	0	0	0	0	0	0	0	0	0	0	0	0	0	0	0	0	0	0	0	0	0	0	0	0	0
121218	15:17:52	15:32:08	854821	5.0.10.0	4_exp_EVA_AMP_AWA_CON	10	Rpleas_acq	Same	Rpleas	Amasked	CS_A	2pleas	distractor1	EVAbeforeCON	AMP_CSunple	AMP1_masked	8	50	0	0	300	300	0	0	559	50	-3,41796875	0	0	0	0	1	blank2r.bmp	0	1	CPLW	0	1	blank2r.bmp	79	73	pic73.bmp	199	1	whitenoise_No3.bmp	306	0	0	0	0	0	0	0	0	0	0	0	0	0	0	0	0	0	0	0	0	0	0	0	0	0	0	0	0	0	0	0	0	0	0	0	0	0	0	0
121218	15:17:52	15:32:09	856273	5.0.10.0	4_exp_EVA_AMP_AWA_CON	10	Rpleas_acq	Same	Rpleas	Amasked	CS_A	2pleas	distractor1	EVAbeforeCON	AMP_CSpleas	AMP1_masked	8	51	0	0	300	300	0	0	527	46	-3,41796875	0	0	0	0	1	blank2r.bmp	0	1	DHJF	0	1	blank2r.bmp	79	95	pic95.bmp	199	1	whitenoise_No3.bmp	306	0	0	0	0	0	0	0	0	0	0	0	0	0	0	0	0	0	0	0	0	0	0	0	0	0	0	0	0	0	0	0	0	0	0	0	0	0	0	0
121218	15:17:52	15:32:16	862711	5.0.10.0	4_exp_EVA_AMP_AWA_CON	10	Rpleas_acq	Same	Rpleas	Amasked	CS_A	2pleas	distractor1	EVAbeforeCON	AMP_CSpleas	AMP23	9	1	0	0	300	300	0	0	868	50	-3,41796875	1	0	0	0	1	blank2r.bmp	0	1	DHJF	0	1	blank2r.bmp	79	111	pic111.bmp	199	1	whitenoise_No3.bmp	306	0	0	0	0	0	0	0	0	0	0	0	0	0	0	0	0	0	0	0	0	0	0	0	0	0	0	0	0	0	0	0	0	0	0	0	0	0	0	0
121218	15:17:52	15:32:18	864670	5.0.10.0	4_exp_EVA_AMP_AWA_CON	10	Rpleas_acq	Same	Rpleas	Amasked	CS_A	2pleas	distractor1	EVAbeforeCON	AMP_CSpleas	AMP23	9	2	0	0	300	300	0	0	1027	46	-3,41796875	0	0	0	0	1	blank2r.bmp	0	1	DHJF	0	1	blank2r.bmp	79	98	pic98.bmp	199	1	whitenoise_No3.bmp	306	0	0	0	0	0	0	0	0	0	0	0	0	0	0	0	0	0	0	0	0	0	0	0	0	0	0	0	0	0	0	0	0	0	0	0	0	0	0	0
121218	15:17:52	15:32:19	866029	5.0.10.0	4_exp_EVA_AMP_AWA_CON	10	Rpleas_acq	Same	Rpleas	Amasked	CS_A	2pleas	distractor1	EVAbeforeCON	AMP_CSpleas	AMP23	9	3	0	0	300	300	0	0	449	50	-3,41796875	1	0	0	0	1	blank2r.bmp	0	1	DHJF	0	1	blank2r.bmp	79	47	pic47.bmp	199	1	whitenoise_No3.bmp	306	0	0	0	0	0	0	0	0	0	0	0	0	0	0	0	0	0	0	0	0	0	0	0	0	0	0	0	0	0	0	0	0	0	0	0	0	0	0	0
121218	15:17:52	15:32:21	868015	5.0.10.0	4_exp_EVA_AMP_AWA_CON	10	Rpleas_acq	Same	Rpleas	Amasked	CS_A	2pleas	distractor1	EVAbeforeCON	AMP_CSunple	AMP23	9	4	0	0	300	300	0	0	1057	50	-3,41796875	0	0	0	0	1	blank2r.bmp	0	1	CPLW	0	1	blank2r.bmp	79	91	pic91.bmp	199	1	whitenoise_No3.bmp	306	0	0	0	0	0	0	0	0	0	0	0	0	0	0	0	0	0	0	0	0	0	0	0	0	0	0	0	0	0	0	0	0	0	0	0	0	0	0	0
121218	15:17:52	15:32:22	869548	5.0.10.0	4_exp_EVA_AMP_AWA_CON	10	Rpleas_acq	Same	Rpleas	Amasked	CS_A	2pleas	distractor1	EVAbeforeCON	AMP_distractor	AMP23	9	5	0	0	300	300	0	0	604	46	-3,41796875	0	0	0	0	1	blank2r.bmp	0	1	ZGXT	0	1	blank2r.bmp	79	36	pic36.bmp	199	1	whitenoise_No3.bmp	306	0	0	0	0	0	0	0	0	0	0	0	0	0	0	0	0	0	0	0	0	0	0	0	0	0	0	0	0	0	0	0	0	0	0	0	0	0	0	0
121218	15:17:52	15:32:24	871014	5.0.10.0	4_exp_EVA_AMP_AWA_CON	10	Rpleas_acq	Same	Rpleas	Amasked	CS_A	2pleas	distractor1	EVAbeforeCON	AMP_CSpleas	AMP23	9	6	0	0	300	300	0	0	557	46	-3,41796875	0	0	0	0	1	blank2r.bmp	0	1	DHJF	0	1	blank2r.bmp	79	137	pic137.bmp	199	1	whitenoise_No3.bmp	306	0	0	0	0	0	0	0	0	0	0	0	0	0	0	0	0	0	0	0	0	0	0	0	0	0	0	0	0	0	0	0	0	0	0	0	0	0	0	0
121218	15:17:52	15:32:25	872480	5.0.10.0	4_exp_EVA_AMP_AWA_CON	10	Rpleas_acq	Same	Rpleas	Amasked	CS_A	2pleas	distractor1	EVAbeforeCON	AMP_CSunple	AMP23	9	7	0	0	300	300	0	0	534	50	-3,41796875	0	0	0	0	1	blank2r.bmp	0	1	CPLW	0	1	blank2r.bmp	79	130	pic130.bmp	199	1	whitenoise_No3.bmp	306	0	0	0	0	0	0	0	0	0	0	0	0	0	0	0	0	0	0	0	0	0	0	0	0	0	0	0	0	0	0	0	0	0	0	0	0	0	0	0
121218	15:17:52	15:32:27	873986	5.0.10.0	4_exp_EVA_AMP_AWA_CON	10	Rpleas_acq	Same	Rpleas	Amasked	CS_A	2pleas	distractor1	EVAbeforeCON	AMP_CSunple	AMP23	9	8	0	0	300	300	0	0	583	50	-3,41796875	0	0	0	0	1	blank2r.bmp	0	1	CPLW	0	1	blank2r.bmp	79	11	pic11.bmp	199	1	whitenoise_No3.bmp	306	0	0	0	0	0	0	0	0	0	0	0	0	0	0	0	0	0	0	0	0	0	0	0	0	0	0	0	0	0	0	0	0	0	0	0	0	0	0	0
121218	15:17:52	15:32:29	875759	5.0.10.0	4_exp_EVA_AMP_AWA_CON	10	Rpleas_acq	Same	Rpleas	Amasked	CS_A	2pleas	distractor1	EVAbeforeCON	AMP_distractor	AMP23	9	9	0	0	300	300	0	0	838	46	-3,41796875	0	0	0	0	1	blank2r.bmp	0	1	ZGXT	0	1	blank2r.bmp	79	105	pic105.bmp	199	1	whitenoise_No3.bmp	306	0	0	0	0	0	0	0	0	0	0	0	0	0	0	0	0	0	0	0	0	0	0	0	0	0	0	0	0	0	0	0	0	0	0	0	0	0	0	0
121218	15:17:52	15:32:31	877718	5.0.10.0	4_exp_EVA_AMP_AWA_CON	10	Rpleas_acq	Same	Rpleas	Amasked	CS_A	2pleas	distractor1	EVAbeforeCON	AMP_distractor	AMP23	9	10	0	0	300	300	0	0	1046	50	-3,41796875	0	0	0	0	1	blank2r.bmp	0	1	ZGXT	0	1	blank2r.bmp	79	69	pic69.bmp	199	1	whitenoise_No3.bmp	306	0	0	0	0	0	0	0	0	0	0	0	0	0	0	0	0	0	0	0	0	0	0	0	0	0	0	0	0	0	0	0	0	0	0	0	0	0	0	0
121218	15:17:52	15:32:32	879184	5.0.10.0	4_exp_EVA_AMP_AWA_CON	10	Rpleas_acq	Same	Rpleas	Amasked	CS_A	2pleas	distractor1	EVAbeforeCON	AMP_distractor	AMP23	9	11	0	0	300	300	0	0	544	50	-3,41796875	0	0	0	0	1	blank2r.bmp	0	1	ZGXT	0	1	blank2r.bmp	79	117	pic117.bmp	199	1	whitenoise_No3.bmp	306	0	0	0	0	0	0	0	0	0	0	0	0	0	0	0	0	0	0	0	0	0	0	0	0	0	0	0	0	0	0	0	0	0	0	0	0	0	0	0
121218	15:17:52	15:32:34	880690	5.0.10.0	4_exp_EVA_AMP_AWA_CON	10	Rpleas_acq	Same	Rpleas	Amasked	CS_A	2pleas	distractor1	EVAbeforeCON	AMP_distractor	AMP23	9	12	0	0	300	300	0	0	581	46	-3,41796875	0	0	0	0	1	blank2r.bmp	0	1	ZGXT	0	1	blank2r.bmp	79	88	pic88.bmp	199	1	whitenoise_No3.bmp	306	0	0	0	0	0	0	0	0	0	0	0	0	0	0	0	0	0	0	0	0	0	0	0	0	0	0	0	0	0	0	0	0	0	0	0	0	0	0	0
121218	15:17:52	15:32:35	882329	5.0.10.0	4_exp_EVA_AMP_AWA_CON	10	Rpleas_acq	Same	Rpleas	Amasked	CS_A	2pleas	distractor1	EVAbeforeCON	AMP_CSunple	AMP23	9	13	0	0	300	300	0	0	722	50	-3,41796875	0	0	0	0	1	blank2r.bmp	0	1	CPLW	0	1	blank2r.bmp	79	44	pic44.bmp	199	1	whitenoise_No3.bmp	306	0	0	0	0	0	0	0	0	0	0	0	0	0	0	0	0	0	0	0	0	0	0	0	0	0	0	0	0	0	0	0	0	0	0	0	0	0	0	0
121218	15:17:52	15:32:37	883862	5.0.10.0	4_exp_EVA_AMP_AWA_CON	10	Rpleas_acq	Same	Rpleas	Amasked	CS_A	2pleas	distractor1	EVAbeforeCON	AMP_CSpleas	AMP23	9	14	0	0	300	300	0	0	613	46	-3,41796875	0	0	0	0	1	blank2r.bmp	0	1	DHJF	0	1	blank2r.bmp	79	93	pic93.bmp	199	1	whitenoise_No3.bmp	306	0	0	0	0	0	0	0	0	0	0	0	0	0	0	0	0	0	0	0	0	0	0	0	0	0	0	0	0	0	0	0	0	0	0	0	0	0	0	0
121218	15:17:52	15:32:39	886421	5.0.10.0	4_exp_EVA_AMP_AWA_CON	10	Rpleas_acq	Same	Rpleas	Amasked	CS_A	2pleas	distractor1	EVAbeforeCON	AMP_CSunple	AMP23	9	15	0	0	300	300	0	0	1647	50	-3,41796875	0	0	0	0	1	blank2r.bmp	0	1	CPLW	0	1	blank2r.bmp	79	6	pic6.bmp	199	1	whitenoise_No3.bmp	306	0	0	0	0	0	0	0	0	0	0	0	0	0	0	0	0	0	0	0	0	0	0	0	0	0	0	0	0	0	0	0	0	0	0	0	0	0	0	0
121218	15:17:52	15:32:41	887954	5.0.10.0	4_exp_EVA_AMP_AWA_CON	10	Rpleas_acq	Same	Rpleas	Amasked	CS_A	2pleas	distractor1	EVAbeforeCON	AMP_distractor	AMP23	9	16	0	0	300	300	0	0	605	50	-3,41796875	0	0	0	0	1	blank2r.bmp	0	1	ZGXT	0	1	blank2r.bmp	79	106	pic106.bmp	199	1	whitenoise_No3.bmp	306	0	0	0	0	0	0	0	0	0	0	0	0	0	0	0	0	0	0	0	0	0	0	0	0	0	0	0	0	0	0	0	0	0	0	0	0	0	0	0
121218	15:17:52	15:32:43	889846	5.0.10.0	4_exp_EVA_AMP_AWA_CON	10	Rpleas_acq	Same	Rpleas	Amasked	CS_A	2pleas	distractor1	EVAbeforeCON	AMP_CSunple	AMP23	9	17	0	0	300	300	0	0	961	50	-3,41796875	0	0	0	0	1	blank2r.bmp	0	1	CPLW	0	1	blank2r.bmp	79	81	pic81.bmp	199	1	whitenoise_No3.bmp	306	0	0	0	0	0	0	0	0	0	0	0	0	0	0	0	0	0	0	0	0	0	0	0	0	0	0	0	0	0	0	0	0	0	0	0	0	0	0	0
121218	15:17:52	15:32:44	891286	5.0.10.0	4_exp_EVA_AMP_AWA_CON	10	Rpleas_acq	Same	Rpleas	Amasked	CS_A	2pleas	distractor1	EVAbeforeCON	AMP_CSunple	AMP23	9	18	0	0	300	300	0	0	523	50	-3,41796875	0	0	0	0	1	blank2r.bmp	0	1	CPLW	0	1	blank2r.bmp	79	14	pic14.bmp	199	1	whitenoise_No3.bmp	306	0	0	0	0	0	0	0	0	0	0	0	0	0	0	0	0	0	0	0	0	0	0	0	0	0	0	0	0	0	0	0	0	0	0	0	0	0	0	0
121218	15:17:52	15:32:46	892725	5.0.10.0	4_exp_EVA_AMP_AWA_CON	10	Rpleas_acq	Same	Rpleas	Amasked	CS_A	2pleas	distractor1	EVAbeforeCON	AMP_distractor	AMP23	9	19	0	0	300	300	0	0	519	46	-3,41796875	0	0	0	0	1	blank2r.bmp	0	1	ZGXT	0	1	blank2r.bmp	79	2	pic2.bmp	199	1	whitenoise_No3.bmp	306	0	0	0	0	0	0	0	0	0	0	0	0	0	0	0	0	0	0	0	0	0	0	0	0	0	0	0	0	0	0	0	0	0	0	0	0	0	0	0
121218	15:17:52	15:32:47	894004	5.0.10.0	4_exp_EVA_AMP_AWA_CON	10	Rpleas_acq	Same	Rpleas	Amasked	CS_A	2pleas	distractor1	EVAbeforeCON	AMP_distractor	AMP23	9	20	0	0	300	300	0	0	370	50	-3,41796875	0	0	0	0	1	blank2r.bmp	0	1	ZGXT	0	1	blank2r.bmp	79	46	pic46.bmp	199	1	whitenoise_No3.bmp	306	0	0	0	0	0	0	0	0	0	0	0	0	0	0	0	0	0	0	0	0	0	0	0	0	0	0	0	0	0	0	0	0	0	0	0	0	0	0	0
121218	15:17:52	15:32:48	895311	5.0.10.0	4_exp_EVA_AMP_AWA_CON	10	Rpleas_acq	Same	Rpleas	Amasked	CS_A	2pleas	distractor1	EVAbeforeCON	AMP_distractor	AMP23	9	21	0	0	300	300	0	0	384	50	-3,41796875	0	0	0	0	1	blank2r.bmp	0	1	ZGXT	0	1	blank2r.bmp	79	21	pic21.bmp	199	1	whitenoise_No3.bmp	306	0	0	0	0	0	0	0	0	0	0	0	0	0	0	0	0	0	0	0	0	0	0	0	0	0	0	0	0	0	0	0	0	0	0	0	0	0	0	0
121218	15:17:52	15:32:49	896537	5.0.10.0	4_exp_EVA_AMP_AWA_CON	10	Rpleas_acq	Same	Rpleas	Amasked	CS_A	2pleas	distractor1	EVAbeforeCON	AMP_CSpleas	AMP23	9	22	0	0	300	300	0	0	295	50	-3,41796875	1	0	0	0	1	blank2r.bmp	0	1	DHJF	0	1	blank2r.bmp	79	97	pic97.bmp	199	1	whitenoise_No3.bmp	306	0	0	0	0	0	0	0	0	0	0	0	0	0	0	0	0	0	0	0	0	0	0	0	0	0	0	0	0	0	0	0	0	0	0	0	0	0	0	0
121218	15:17:52	15:32:51	897936	5.0.10.0	4_exp_EVA_AMP_AWA_CON	10	Rpleas_acq	Same	Rpleas	Amasked	CS_A	2pleas	distractor1	EVAbeforeCON	AMP_CSunple	AMP23	9	23	0	0	300	300	0	0	485	50	-3,41796875	0	0	0	0	1	blank2r.bmp	0	1	CPLW	0	1	blank2r.bmp	79	33	pic33.bmp	199	1	whitenoise_No3.bmp	306	0	0	0	0	0	0	0	0	0	0	0	0	0	0	0	0	0	0	0	0	0	0	0	0	0	0	0	0	0	0	0	0	0	0	0	0	0	0	0
121218	15:17:52	15:32:52	899202	5.0.10.0	4_exp_EVA_AMP_AWA_CON	10	Rpleas_acq	Same	Rpleas	Amasked	CS_A	2pleas	distractor1	EVAbeforeCON	AMP_CSpleas	AMP23	9	24	0	0	300	300	0	0	344	50	-3,41796875	1	0	0	0	1	blank2r.bmp	0	1	DHJF	0	1	blank2r.bmp	79	48	pic48.bmp	199	1	whitenoise_No3.bmp	306	0	0	0	0	0	0	0	0	0	0	0	0	0	0	0	0	0	0	0	0	0	0	0	0	0	0	0	0	0	0	0	0	0	0	0	0	0	0	0
121218	15:17:52	15:32:54	900642	5.0.10.0	4_exp_EVA_AMP_AWA_CON	10	Rpleas_acq	Same	Rpleas	Amasked	CS_A	2pleas	distractor1	EVAbeforeCON	AMP_CSunple	AMP23	9	25	0	0	300	300	0	0	505	46	-3,41796875	1	0	0	0	1	blank2r.bmp	0	1	CPLW	0	1	blank2r.bmp	79	58	pic58.bmp	199	1	whitenoise_No3.bmp	306	0	0	0	0	0	0	0	0	0	0	0	0	0	0	0	0	0	0	0	0	0	0	0	0	0	0	0	0	0	0	0	0	0	0	0	0	0	0	0
121218	15:17:52	15:32:55	901841	5.0.10.0	4_exp_EVA_AMP_AWA_CON	10	Rpleas_acq	Same	Rpleas	Amasked	CS_A	2pleas	distractor1	EVAbeforeCON	AMP_CSpleas	AMP23	9	26	0	0	300	300	0	0	282	50	-3,41796875	1	0	0	0	1	blank2r.bmp	0	1	DHJF	0	1	blank2r.bmp	79	138	pic138.bmp	199	1	whitenoise_No3.bmp	306	0	0	0	0	0	0	0	0	0	0	0	0	0	0	0	0	0	0	0	0	0	0	0	0	0	0	0	0	0	0	0	0	0	0	0	0	0	0	0
