date	time	script.currenttime	script.elapsedtime	build	script.currentexpt	subject	expressions.LRpleas_acq	expressions.SameOppo	expressions.condition_Lpleas	expressions.ABmasked	expressions.conditionCS_A	expressions.condition_1pleas	expressions.condition_distractor_AMP	expressions.AWACON_AMPEVA_first	trialcode	blockcode	blocknum	trialnum	windowcenter	inwindow	pretrialpause	posttrialpause	trialduration	trialtimeout	latency	response	expressions.correctedscore	correct	values.vis_performance	values.vis_rating_sum	values.vis_rating_mean	stimulusnumber1	stimulusitem1	stimulusonset1	stimulusnumber2	stimulusitem2	stimulusonset2	stimulusnumber3	stimulusitem3	stimulusonset3	stimulusnumber4	stimulusitem4	stimulusonset4	stimulusnumber5	stimulusitem5	stimulusonset5	stimulusnumber6	stimulusitem6	stimulusonset6	stimulusnumber7	stimulusitem7	stimulusonset7	stimulusnumber8	stimulusitem8	stimulusonset8	stimulusnumber9	stimulusitem9	stimulusonset9	stimulusnumber10	stimulusitem10	stimulusonset10	stimulusnumber11	stimulusitem11	stimulusonset11	stimulusnumber12	stimulusitem12	stimulusonset12	stimulusnumber13	stimulusitem13	stimulusonset13	stimulusnumber14	stimulusitem14	stimulusonset14	stimulusnumber15	stimulusitem15	stimulusonset15	stimulusnumber16	stimulusitem16	stimulusonset16	stimulusnumber17	stimulusitem17	stimulusonset17	stimulusnumber18	stimulusitem18	stimulusonset18
012919	12:35:22	12:37:27	124308	5.0.10.0	4_exp_AWA_CON_EVA_AMP	95	Rpleas_acq	Oppo	Rpleas	Amasked	CS_A	2pleas	distractor2	CONbeforeEVA	acq_US_pleas_masked	acq1_masked	1	1	0	0	300	300	0	0	2717	50	0	1	0	0	0	1	blank2r.bmp	0	1	+	0	3	B3r.bmp	492	1	blank2r.bmp	786	1	DHJF	786	1	blank2r.bmp	866	2	kreativ	866	0	0	0	0	0	0	0	0	0	0	0	0	0	0	0	0	0	0	0	0	0	0	0	0	0	0	0	0	0	0	0	0	0
012919	12:35:22	12:37:29	126587	5.0.10.0	4_exp_AWA_CON_EVA_AMP	95	Rpleas_acq	Oppo	Rpleas	Amasked	CS_A	2pleas	distractor2	CONbeforeEVA	acq_new_pleas_masked	acq1_masked	1	2	0	0	300	300	0	0	792	50	0	1	0	0	0	1	blank2r.bmp	0	1	+	0	6	C2r.bmp	492	1	blank2r.bmp	786	3	B3r.bmp	786	1	blank2r.bmp	866	6	kuss	866	0	0	0	0	0	0	0	0	0	0	0	0	0	0	0	0	0	0	0	0	0	0	0	0	0	0	0	0	0	0	0	0	0
012919	12:35:22	12:37:31	128506	5.0.10.0	4_exp_AWA_CON_EVA_AMP	95	Rpleas_acq	Oppo	Rpleas	Amasked	CS_A	2pleas	distractor2	CONbeforeEVA	acq_new_unple_masked	acq1_masked	1	3	0	0	300	300	0	0	437	46	0	1	0	0	0	1	blank2r.bmp	0	1	+	0	5	C1r.bmp	492	1	blank2r.bmp	786	6	C2r.bmp	786	1	blank2r.bmp	866	3	bange	866	0	0	0	0	0	0	0	0	0	0	0	0	0	0	0	0	0	0	0	0	0	0	0	0	0	0	0	0	0	0	0	0	0
012919	12:35:22	12:37:33	130546	5.0.10.0	4_exp_AWA_CON_EVA_AMP	95	Rpleas_acq	Oppo	Rpleas	Amasked	CS_A	2pleas	distractor2	CONbeforeEVA	acq_US_unple_masked	acq1_masked	1	4	0	0	300	300	0	0	554	46	0	1	0	0	0	1	blank2r.bmp	0	1	+	0	8	C4r.bmp	492	1	blank2r.bmp	786	1	CPLW	786	1	blank2r.bmp	866	6	ausrottung	866	0	0	0	0	0	0	0	0	0	0	0	0	0	0	0	0	0	0	0	0	0	0	0	0	0	0	0	0	0	0	0	0	0
012919	12:35:22	12:37:35	132678	5.0.10.0	4_exp_AWA_CON_EVA_AMP	95	Rpleas_acq	Oppo	Rpleas	Amasked	CS_A	2pleas	distractor2	CONbeforeEVA	acq_US_unple_masked	acq1_masked	1	5	0	0	300	300	0	0	648	46	0	1	0	0	0	1	blank2r.bmp	0	1	+	0	1	B1r.bmp	492	1	blank2r.bmp	786	1	CPLW	786	1	blank2r.bmp	866	4	gemein	866	0	0	0	0	0	0	0	0	0	0	0	0	0	0	0	0	0	0	0	0	0	0	0	0	0	0	0	0	0	0	0	0	0
012919	12:35:22	12:37:37	134664	5.0.10.0	4_exp_AWA_CON_EVA_AMP	95	Rpleas_acq	Oppo	Rpleas	Amasked	CS_A	2pleas	distractor2	CONbeforeEVA	acq_new_pleas_masked	acq1_masked	1	6	0	0	300	300	0	0	509	50	0	1	0	0	0	1	blank2r.bmp	0	1	+	0	7	C3r.bmp	492	1	blank2r.bmp	786	2	B2r.bmp	786	1	blank2r.bmp	866	4	sonnig	866	0	0	0	0	0	0	0	0	0	0	0	0	0	0	0	0	0	0	0	0	0	0	0	0	0	0	0	0	0	0	0	0	0
012919	12:35:22	12:37:39	136890	5.0.10.0	4_exp_AWA_CON_EVA_AMP	95	Rpleas_acq	Oppo	Rpleas	Amasked	CS_A	2pleas	distractor2	CONbeforeEVA	acq_US_unple_masked	acq1_masked	1	7	0	0	300	300	0	0	756	46	0	1	0	0	0	1	blank2r.bmp	0	1	+	0	2	B2r.bmp	492	1	blank2r.bmp	786	1	CPLW	786	1	blank2r.bmp	866	1	töten	866	0	0	0	0	0	0	0	0	0	0	0	0	0	0	0	0	0	0	0	0	0	0	0	0	0	0	0	0	0	0	0	0	0
012919	12:35:22	12:37:41	138982	5.0.10.0	4_exp_AWA_CON_EVA_AMP	95	Rpleas_acq	Oppo	Rpleas	Amasked	CS_A	2pleas	distractor2	CONbeforeEVA	acq_new_unple_masked	acq1_masked	1	8	0	0	300	300	0	0	588	46	0	1	0	0	0	1	blank2r.bmp	0	1	+	0	4	B4r.bmp	492	1	blank2r.bmp	786	8	C4r.bmp	786	1	blank2r.bmp	866	4	sterben	866	0	0	0	0	0	0	0	0	0	0	0	0	0	0	0	0	0	0	0	0	0	0	0	0	0	0	0	0	0	0	0	0	0
012919	12:35:22	12:37:43	141061	5.0.10.0	4_exp_AWA_CON_EVA_AMP	95	Rpleas_acq	Oppo	Rpleas	Amasked	CS_A	2pleas	distractor2	CONbeforeEVA	acq_new_unple_masked	acq1_masked	1	9	0	0	300	300	0	0	606	46	0	1	0	0	0	1	blank2r.bmp	0	1	+	0	7	C3r.bmp	492	1	blank2r.bmp	786	5	C1r.bmp	786	1	blank2r.bmp	866	5	versagen	866	0	0	0	0	0	0	0	0	0	0	0	0	0	0	0	0	0	0	0	0	0	0	0	0	0	0	0	0	0	0	0	0	0
012919	12:35:22	12:37:45	143100	5.0.10.0	4_exp_AWA_CON_EVA_AMP	95	Rpleas_acq	Oppo	Rpleas	Amasked	CS_A	2pleas	distractor2	CONbeforeEVA	acq_US_pleas_masked	acq1_masked	1	10	0	0	300	300	0	0	549	50	0	1	0	0	0	1	blank2r.bmp	0	1	+	0	6	C2r.bmp	492	1	blank2r.bmp	786	1	DHJF	786	1	blank2r.bmp	866	1	träumen	866	0	0	0	0	0	0	0	0	0	0	0	0	0	0	0	0	0	0	0	0	0	0	0	0	0	0	0	0	0	0	0	0	0
012919	12:35:22	12:37:47	145193	5.0.10.0	4_exp_AWA_CON_EVA_AMP	95	Rpleas_acq	Oppo	Rpleas	Amasked	CS_A	2pleas	distractor2	CONbeforeEVA	acq_new_pleas_masked	acq1_masked	1	11	0	0	300	300	0	0	611	50	0	1	0	0	0	1	blank2r.bmp	0	1	+	0	5	C1r.bmp	492	1	blank2r.bmp	786	1	B1r.bmp	786	1	blank2r.bmp	866	3	besonnen	866	0	0	0	0	0	0	0	0	0	0	0	0	0	0	0	0	0	0	0	0	0	0	0	0	0	0	0	0	0	0	0	0	0
012919	12:35:22	12:37:50	147285	5.0.10.0	4_exp_AWA_CON_EVA_AMP	95	Rpleas_acq	Oppo	Rpleas	Amasked	CS_A	2pleas	distractor2	CONbeforeEVA	acq_US_pleas_masked	acq1_masked	1	12	0	0	300	300	0	0	623	50	0	1	0	0	0	1	blank2r.bmp	0	1	+	0	8	C4r.bmp	492	1	blank2r.bmp	786	1	DHJF	786	1	blank2r.bmp	866	3	vergnügt	866	0	0	0	0	0	0	0	0	0	0	0	0	0	0	0	0	0	0	0	0	0	0	0	0	0	0	0	0	0	0	0	0	0
012919	12:35:22	12:37:52	149338	5.0.10.0	4_exp_AWA_CON_EVA_AMP	95	Rpleas_acq	Oppo	Rpleas	Amasked	CS_A	2pleas	distractor2	CONbeforeEVA	acq_new_pleas_masked	acq1_masked	1	13	0	0	300	300	0	0	567	50	0	1	0	0	0	1	blank2r.bmp	0	1	+	0	3	B3r.bmp	492	1	blank2r.bmp	786	4	B4r.bmp	786	1	blank2r.bmp	866	1	gütig	866	0	0	0	0	0	0	0	0	0	0	0	0	0	0	0	0	0	0	0	0	0	0	0	0	0	0	0	0	0	0	0	0	0
012919	12:35:22	12:37:54	151657	5.0.10.0	4_exp_AWA_CON_EVA_AMP	95	Rpleas_acq	Oppo	Rpleas	Amasked	CS_A	2pleas	distractor2	CONbeforeEVA	acq_US_pleas_masked	acq1_masked	1	14	0	0	300	300	0	0	843	50	0	1	0	0	0	1	blank2r.bmp	0	1	+	0	2	B2r.bmp	492	1	blank2r.bmp	786	1	DHJF	786	1	blank2r.bmp	866	6	anregung	866	0	0	0	0	0	0	0	0	0	0	0	0	0	0	0	0	0	0	0	0	0	0	0	0	0	0	0	0	0	0	0	0	0
012919	12:35:22	12:37:56	153576	5.0.10.0	4_exp_AWA_CON_EVA_AMP	95	Rpleas_acq	Oppo	Rpleas	Amasked	CS_A	2pleas	distractor2	CONbeforeEVA	acq_US_unple_masked	acq1_masked	1	15	0	0	300	300	0	0	437	46	0	1	0	0	0	1	blank2r.bmp	0	1	+	0	1	B1r.bmp	492	1	blank2r.bmp	786	1	CPLW	786	1	blank2r.bmp	866	2	krank	866	0	0	0	0	0	0	0	0	0	0	0	0	0	0	0	0	0	0	0	0	0	0	0	0	0	0	0	0	0	0	0	0	0
012919	12:35:22	12:37:58	155589	5.0.10.0	4_exp_AWA_CON_EVA_AMP	95	Rpleas_acq	Oppo	Rpleas	Amasked	CS_A	2pleas	distractor2	CONbeforeEVA	acq_new_unple_masked	acq1_masked	1	16	0	0	300	300	0	0	519	46	0	1	0	0	0	1	blank2r.bmp	0	1	+	0	4	B4r.bmp	492	1	blank2r.bmp	786	7	C3r.bmp	786	1	blank2r.bmp	866	6	krise	866	0	0	0	0	0	0	0	0	0	0	0	0	0	0	0	0	0	0	0	0	0	0	0	0	0	0	0	0	0	0	0	0	0
012919	12:35:22	12:38:00	157614	5.0.10.0	4_exp_AWA_CON_EVA_AMP	95	Rpleas_acq	Oppo	Rpleas	Amasked	CS_A	2pleas	distractor2	CONbeforeEVA	acq_new_pleas_masked	acq1_masked	1	17	0	0	300	300	0	0	556	50	0	1	0	0	0	1	blank2r.bmp	0	1	+	0	2	B2r.bmp	492	1	blank2r.bmp	786	8	C4r.bmp	786	1	blank2r.bmp	866	5	vertrauen	866	0	0	0	0	0	0	0	0	0	0	0	0	0	0	0	0	0	0	0	0	0	0	0	0	0	0	0	0	0	0	0	0	0
012919	12:35:22	12:38:02	159694	5.0.10.0	4_exp_AWA_CON_EVA_AMP	95	Rpleas_acq	Oppo	Rpleas	Amasked	CS_A	2pleas	distractor2	CONbeforeEVA	acq_US_pleas_masked	acq1_masked	1	18	0	0	300	300	0	0	595	50	0	1	0	0	0	1	blank2r.bmp	0	1	+	0	7	C3r.bmp	492	1	blank2r.bmp	786	1	DHJF	786	1	blank2r.bmp	866	4	genießen	866	0	0	0	0	0	0	0	0	0	0	0	0	0	0	0	0	0	0	0	0	0	0	0	0	0	0	0	0	0	0	0	0	0
012919	12:35:22	12:38:04	161653	5.0.10.0	4_exp_AWA_CON_EVA_AMP	95	Rpleas_acq	Oppo	Rpleas	Amasked	CS_A	2pleas	distractor2	CONbeforeEVA	acq_new_pleas_masked	acq1_masked	1	19	0	0	300	300	0	0	467	50	0	1	0	0	0	1	blank2r.bmp	0	1	+	0	3	B3r.bmp	492	1	blank2r.bmp	786	1	B1r.bmp	786	1	blank2r.bmp	866	2	engagiert	866	0	0	0	0	0	0	0	0	0	0	0	0	0	0	0	0	0	0	0	0	0	0	0	0	0	0	0	0	0	0	0	0	0
012919	12:35:22	12:38:06	163732	5.0.10.0	4_exp_AWA_CON_EVA_AMP	95	Rpleas_acq	Oppo	Rpleas	Amasked	CS_A	2pleas	distractor2	CONbeforeEVA	acq_new_unple_masked	acq1_masked	1	20	0	0	300	300	0	0	602	46	0	1	0	0	0	1	blank2r.bmp	0	1	+	0	1	B1r.bmp	492	1	blank2r.bmp	786	5	C1r.bmp	786	1	blank2r.bmp	866	1	gierig	866	0	0	0	0	0	0	0	0	0	0	0	0	0	0	0	0	0	0	0	0	0	0	0	0	0	0	0	0	0	0	0	0	0
012919	12:35:22	12:38:08	165624	5.0.10.0	4_exp_AWA_CON_EVA_AMP	95	Rpleas_acq	Oppo	Rpleas	Amasked	CS_A	2pleas	distractor2	CONbeforeEVA	acq_US_unple_masked	acq1_masked	1	21	0	0	300	300	0	0	406	46	0	1	0	0	0	1	blank2r.bmp	0	1	+	0	6	C2r.bmp	492	1	blank2r.bmp	786	1	CPLW	786	1	blank2r.bmp	866	5	geizig	866	0	0	0	0	0	0	0	0	0	0	0	0	0	0	0	0	0	0	0	0	0	0	0	0	0	0	0	0	0	0	0	0	0
012919	12:35:22	12:38:10	167704	5.0.10.0	4_exp_AWA_CON_EVA_AMP	95	Rpleas_acq	Oppo	Rpleas	Amasked	CS_A	2pleas	distractor2	CONbeforeEVA	acq_new_unple_masked	acq1_masked	1	22	0	0	300	300	0	0	610	46	0	1	0	0	0	1	blank2r.bmp	0	1	+	0	5	C1r.bmp	492	1	blank2r.bmp	786	7	C3r.bmp	786	1	blank2r.bmp	866	2	engstirnig	866	0	0	0	0	0	0	0	0	0	0	0	0	0	0	0	0	0	0	0	0	0	0	0	0	0	0	0	0	0	0	0	0	0
012919	12:35:22	12:38:12	169809	5.0.10.0	4_exp_AWA_CON_EVA_AMP	95	Rpleas_acq	Oppo	Rpleas	Amasked	CS_A	2pleas	distractor2	CONbeforeEVA	acq_US_unple_masked	acq1_masked	1	23	0	0	300	300	0	0	623	46	0	1	0	0	0	1	blank2r.bmp	0	1	+	0	8	C4r.bmp	492	1	blank2r.bmp	786	1	CPLW	786	1	blank2r.bmp	866	3	verbissen	866	0	0	0	0	0	0	0	0	0	0	0	0	0	0	0	0	0	0	0	0	0	0	0	0	0	0	0	0	0	0	0	0	0
012919	12:35:22	12:38:14	171862	5.0.10.0	4_exp_AWA_CON_EVA_AMP	95	Rpleas_acq	Oppo	Rpleas	Amasked	CS_A	2pleas	distractor2	CONbeforeEVA	acq_US_pleas_masked	acq1_masked	1	24	0	0	300	300	0	0	567	50	0	1	0	0	0	1	blank2r.bmp	0	1	+	0	4	B4r.bmp	492	1	blank2r.bmp	786	1	DHJF	786	1	blank2r.bmp	866	5	gesittet	866	0	0	0	0	0	0	0	0	0	0	0	0	0	0	0	0	0	0	0	0	0	0	0	0	0	0	0	0	0	0	0	0	0
012919	12:35:22	12:38:16	173848	5.0.10.0	4_exp_AWA_CON_EVA_AMP	95	Rpleas_acq	Oppo	Rpleas	Amasked	CS_A	2pleas	distractor2	CONbeforeEVA	acq_new_unple_masked	acq1_masked	1	25	0	0	300	300	0	0	492	46	0	1	0	0	0	1	blank2r.bmp	0	1	+	0	1	B1r.bmp	492	1	blank2r.bmp	786	6	C2r.bmp	786	1	blank2r.bmp	866	4	sterben	866	0	0	0	0	0	0	0	0	0	0	0	0	0	0	0	0	0	0	0	0	0	0	0	0	0	0	0	0	0	0	0	0	0
012919	12:35:22	12:38:18	175834	5.0.10.0	4_exp_AWA_CON_EVA_AMP	95	Rpleas_acq	Oppo	Rpleas	Amasked	CS_A	2pleas	distractor2	CONbeforeEVA	acq_new_unple_masked	acq1_masked	1	26	0	0	300	300	0	0	517	46	0	1	0	0	0	1	blank2r.bmp	0	1	+	0	5	C1r.bmp	492	1	blank2r.bmp	786	4	B4r.bmp	786	1	blank2r.bmp	866	1	gierig	866	0	0	0	0	0	0	0	0	0	0	0	0	0	0	0	0	0	0	0	0	0	0	0	0	0	0	0	0	0	0	0	0	0
012919	12:35:22	12:38:20	177739	5.0.10.0	4_exp_AWA_CON_EVA_AMP	95	Rpleas_acq	Oppo	Rpleas	Amasked	CS_A	2pleas	distractor2	CONbeforeEVA	acq_new_unple_masked	acq1_masked	1	27	0	0	300	300	0	0	416	46	0	1	0	0	0	1	blank2r.bmp	0	1	+	0	3	B3r.bmp	492	1	blank2r.bmp	786	2	B2r.bmp	786	1	blank2r.bmp	866	3	bange	866	0	0	0	0	0	0	0	0	0	0	0	0	0	0	0	0	0	0	0	0	0	0	0	0	0	0	0	0	0	0	0	0	0
012919	12:35:22	12:38:22	179725	5.0.10.0	4_exp_AWA_CON_EVA_AMP	95	Rpleas_acq	Oppo	Rpleas	Amasked	CS_A	2pleas	distractor2	CONbeforeEVA	acq_new_pleas_masked	acq1_masked	1	28	0	0	300	300	0	0	499	50	0	1	0	0	0	1	blank2r.bmp	0	1	+	0	2	B2r.bmp	492	1	blank2r.bmp	786	3	B3r.bmp	786	1	blank2r.bmp	866	4	sonnig	866	0	0	0	0	0	0	0	0	0	0	0	0	0	0	0	0	0	0	0	0	0	0	0	0	0	0	0	0	0	0	0	0	0
012919	12:35:22	12:38:24	181711	5.0.10.0	4_exp_AWA_CON_EVA_AMP	95	Rpleas_acq	Oppo	Rpleas	Amasked	CS_A	2pleas	distractor2	CONbeforeEVA	acq_US_unple_masked	acq1_masked	1	29	0	0	300	300	0	0	505	46	0	1	0	0	0	1	blank2r.bmp	0	1	+	0	4	B4r.bmp	492	1	blank2r.bmp	786	1	CPLW	786	1	blank2r.bmp	866	6	ausrottung	866	0	0	0	0	0	0	0	0	0	0	0	0	0	0	0	0	0	0	0	0	0	0	0	0	0	0	0	0	0	0	0	0	0
012919	12:35:22	12:38:26	183844	5.0.10.0	4_exp_AWA_CON_EVA_AMP	95	Rpleas_acq	Oppo	Rpleas	Amasked	CS_A	2pleas	distractor2	CONbeforeEVA	acq_new_pleas_masked	acq1_masked	1	30	0	0	300	300	0	0	659	50	0	1	0	0	0	1	blank2r.bmp	0	1	+	0	8	C4r.bmp	492	1	blank2r.bmp	786	5	C1r.bmp	786	1	blank2r.bmp	866	5	vertrauen	866	0	0	0	0	0	0	0	0	0	0	0	0	0	0	0	0	0	0	0	0	0	0	0	0	0	0	0	0	0	0	0	0	0
012919	12:35:22	12:38:28	185829	5.0.10.0	4_exp_AWA_CON_EVA_AMP	95	Rpleas_acq	Oppo	Rpleas	Amasked	CS_A	2pleas	distractor2	CONbeforeEVA	acq_US_unple_masked	acq1_masked	1	31	0	0	300	300	0	0	506	46	0	1	0	0	0	1	blank2r.bmp	0	1	+	0	7	C3r.bmp	492	1	blank2r.bmp	786	1	CPLW	786	1	blank2r.bmp	866	4	gemein	866	0	0	0	0	0	0	0	0	0	0	0	0	0	0	0	0	0	0	0	0	0	0	0	0	0	0	0	0	0	0	0	0	0
012919	12:35:22	12:38:30	187655	5.0.10.0	4_exp_AWA_CON_EVA_AMP	95	Rpleas_acq	Oppo	Rpleas	Amasked	CS_A	2pleas	distractor2	CONbeforeEVA	acq_US_unple_masked	acq1_masked	1	32	0	0	300	300	0	0	356	46	0	1	0	0	0	1	blank2r.bmp	0	1	+	0	6	C2r.bmp	492	1	blank2r.bmp	786	1	CPLW	786	1	blank2r.bmp	866	5	geizig	866	0	0	0	0	0	0	0	0	0	0	0	0	0	0	0	0	0	0	0	0	0	0	0	0	0	0	0	0	0	0	0	0	0
012919	12:35:22	12:38:32	189535	5.0.10.0	4_exp_AWA_CON_EVA_AMP	95	Rpleas_acq	Oppo	Rpleas	Amasked	CS_A	2pleas	distractor2	CONbeforeEVA	acq_US_pleas_masked	acq1_masked	1	33	0	0	300	300	0	0	389	50	0	1	0	0	0	1	blank2r.bmp	0	1	+	0	7	C3r.bmp	492	1	blank2r.bmp	786	1	DHJF	786	1	blank2r.bmp	866	2	kreativ	866	0	0	0	0	0	0	0	0	0	0	0	0	0	0	0	0	0	0	0	0	0	0	0	0	0	0	0	0	0	0	0	0	0
012919	12:35:22	12:38:34	191667	5.0.10.0	4_exp_AWA_CON_EVA_AMP	95	Rpleas_acq	Oppo	Rpleas	Amasked	CS_A	2pleas	distractor2	CONbeforeEVA	acq_US_pleas_masked	acq1_masked	1	34	0	0	300	300	0	0	428	46	0	0	0	0	0	1	blank2r.bmp	0	1	+	0	2	B2r.bmp	492	1	blank2r.bmp	786	1	DHJF	786	1	blank2r.bmp	866	5	gesittet	866	1	FEHLER	1332	0	0	0	0	0	0	0	0	0	0	0	0	0	0	0	0	0	0	0	0	0	0	0	0	0	0	0	0	0	0
012919	12:35:22	12:38:36	193493	5.0.10.0	4_exp_AWA_CON_EVA_AMP	95	Rpleas_acq	Oppo	Rpleas	Amasked	CS_A	2pleas	distractor2	CONbeforeEVA	acq_US_pleas_masked	acq1_masked	1	35	0	0	300	300	0	0	550	50	0	1	0	0	0	1	blank2r.bmp	0	1	+	0	4	B4r.bmp	492	1	blank2r.bmp	786	1	DHJF	786	1	blank2r.bmp	866	1	träumen	866	0	0	0	0	0	0	0	0	0	0	0	0	0	0	0	0	0	0	0	0	0	0	0	0	0	0	0	0	0	0	0	0	0
012919	12:35:22	12:38:38	195572	5.0.10.0	4_exp_AWA_CON_EVA_AMP	95	Rpleas_acq	Oppo	Rpleas	Amasked	CS_A	2pleas	distractor2	CONbeforeEVA	acq_new_pleas_masked	acq1_masked	1	36	0	0	300	300	0	0	598	50	0	1	0	0	0	1	blank2r.bmp	0	1	+	0	8	C4r.bmp	492	1	blank2r.bmp	786	7	C3r.bmp	786	1	blank2r.bmp	866	6	kuss	866	0	0	0	0	0	0	0	0	0	0	0	0	0	0	0	0	0	0	0	0	0	0	0	0	0	0	0	0	0	0	0	0	0
012919	12:35:22	12:39:17	234330	5.0.10.0	4_exp_AWA_CON_EVA_AMP	95	Rpleas_acq	Oppo	Rpleas	Amasked	CS_A	2pleas	distractor2	CONbeforeEVA	acq_US_pleas_masked	acq2_masked	2	1	480	0	300	300	0	0	792	50	0	1	0	0	0	1	blank2r.bmp	0	1	+	0	3	B3r.bmp	492	1	blank2r.bmp	786	1	DHJF	786	1	blank2r.bmp	866	3	vergnügt	866	1	!	1319	1	!	-1	0	0	0	0	0	0	0	0	0	0	0	0	0	0	0	0	0	0	0	0	0	0	0	0	0	0	0
012919	12:35:22	12:39:19	236649	5.0.10.0	4_exp_AWA_CON_EVA_AMP	95	Rpleas_acq	Oppo	Rpleas	Amasked	CS_A	2pleas	distractor2	CONbeforeEVA	acq_US_pleas_masked	acq2_masked	2	2	480	1	300	300	0	0	515	50	0	1	0	0	0	1	blank2r.bmp	0	1	+	0	6	C2r.bmp	492	1	blank2r.bmp	786	1	DHJF	786	1	blank2r.bmp	866	6	anregung	866	1	!	1319	1	!	1412	0	0	0	0	0	0	0	0	0	0	0	0	0	0	0	0	0	0	0	0	0	0	0	0	0	0	0
012919	12:35:22	12:39:21	238941	5.0.10.0	4_exp_AWA_CON_EVA_AMP	95	Rpleas_acq	Oppo	Rpleas	Amasked	CS_A	2pleas	distractor2	CONbeforeEVA	acq_new_pleas_masked	acq2_masked	2	3	480	1	300	300	0	0	479	50	0	1	0	0	0	1	blank2r.bmp	0	1	+	0	1	B1r.bmp	492	1	blank2r.bmp	786	3	B3r.bmp	786	1	blank2r.bmp	866	2	engagiert	866	1	!	1319	1	!	1386	0	0	0	0	0	0	0	0	0	0	0	0	0	0	0	0	0	0	0	0	0	0	0	0	0	0	0
012919	12:35:22	12:39:24	241393	5.0.10.0	4_exp_AWA_CON_EVA_AMP	95	Rpleas_acq	Oppo	Rpleas	Amasked	CS_A	2pleas	distractor2	CONbeforeEVA	acq_US_unple_masked	acq2_masked	2	4	480	0	300	300	0	0	675	46	0	1	0	0	0	1	blank2r.bmp	0	1	+	0	5	C1r.bmp	492	1	blank2r.bmp	786	1	CPLW	786	1	blank2r.bmp	866	1	töten	866	1	!	1319	1	!	-1	0	0	0	0	0	0	0	0	0	0	0	0	0	0	0	0	0	0	0	0	0	0	0	0	0	0	0
012919	12:35:22	12:39:26	243792	5.0.10.0	4_exp_AWA_CON_EVA_AMP	95	Rpleas_acq	Oppo	Rpleas	Amasked	CS_A	2pleas	distractor2	CONbeforeEVA	acq_new_unple_masked	acq2_masked	2	5	480	0	300	300	0	0	605	46	0	1	0	0	0	1	blank2r.bmp	0	1	+	0	6	C2r.bmp	492	1	blank2r.bmp	786	2	B2r.bmp	786	1	blank2r.bmp	866	5	versagen	866	1	!	1319	1	!	-1	0	0	0	0	0	0	0	0	0	0	0	0	0	0	0	0	0	0	0	0	0	0	0	0	0	0	0
012919	12:35:22	12:39:29	246311	5.0.10.0	4_exp_AWA_CON_EVA_AMP	95	Rpleas_acq	Oppo	Rpleas	Amasked	CS_A	2pleas	distractor2	CONbeforeEVA	acq_US_unple_masked	acq2_masked	2	6	480	1	300	300	0	0	499	50	0	0	0	0	0	1	blank2r.bmp	0	1	+	0	8	C4r.bmp	492	1	blank2r.bmp	786	1	CPLW	786	1	blank2r.bmp	866	3	verbissen	866	1	FEHLER	1719	1	!	1319	1	!	1399	0	0	0	0	0	0	0	0	0	0	0	0	0	0	0	0	0	0	0	0	0	0	0	0
012919	12:35:22	12:39:31	248444	5.0.10.0	4_exp_AWA_CON_EVA_AMP	95	Rpleas_acq	Oppo	Rpleas	Amasked	CS_A	2pleas	distractor2	CONbeforeEVA	acq_new_pleas_masked	acq2_masked	2	7	480	1	300	300	0	0	545	50	0	1	0	0	0	1	blank2r.bmp	0	1	+	0	2	B2r.bmp	492	1	blank2r.bmp	786	4	B4r.bmp	786	1	blank2r.bmp	866	1	gütig	866	1	!	1319	1	!	1452	0	0	0	0	0	0	0	0	0	0	0	0	0	0	0	0	0	0	0	0	0	0	0	0	0	0	0
012919	12:35:22	12:39:33	250869	5.0.10.0	4_exp_AWA_CON_EVA_AMP	95	Rpleas_acq	Oppo	Rpleas	Amasked	CS_A	2pleas	distractor2	CONbeforeEVA	acq_new_unple_masked	acq2_masked	2	8	480	0	300	300	0	0	658	46	0	1	0	0	0	1	blank2r.bmp	0	1	+	0	5	C1r.bmp	492	1	blank2r.bmp	786	1	B1r.bmp	786	1	blank2r.bmp	866	6	krise	866	1	!	1319	1	!	-1	0	0	0	0	0	0	0	0	0	0	0	0	0	0	0	0	0	0	0	0	0	0	0	0	0	0	0
012919	12:35:22	12:39:36	253242	5.0.10.0	4_exp_AWA_CON_EVA_AMP	95	Rpleas_acq	Oppo	Rpleas	Amasked	CS_A	2pleas	distractor2	CONbeforeEVA	acq_US_pleas_masked	acq2_masked	2	9	480	0	300	300	0	0	591	50	0	1	0	0	0	1	blank2r.bmp	0	1	+	0	4	B4r.bmp	492	1	blank2r.bmp	786	1	DHJF	786	1	blank2r.bmp	866	4	genießen	866	1	!	1319	1	!	-1	0	0	0	0	0	0	0	0	0	0	0	0	0	0	0	0	0	0	0	0	0	0	0	0	0	0	0
012919	12:35:22	12:39:38	255414	5.0.10.0	4_exp_AWA_CON_EVA_AMP	95	Rpleas_acq	Oppo	Rpleas	Amasked	CS_A	2pleas	distractor2	CONbeforeEVA	acq_US_unple_masked	acq2_masked	2	10	480	0	300	300	0	0	394	46	0	1	0	0	0	1	blank2r.bmp	0	1	+	0	1	B1r.bmp	492	1	blank2r.bmp	786	1	CPLW	786	1	blank2r.bmp	866	2	krank	866	1	!	-1	1	!	-1	0	0	0	0	0	0	0	0	0	0	0	0	0	0	0	0	0	0	0	0	0	0	0	0	0	0	0
012919	12:35:22	12:39:40	257760	5.0.10.0	4_exp_AWA_CON_EVA_AMP	95	Rpleas_acq	Oppo	Rpleas	Amasked	CS_A	2pleas	distractor2	CONbeforeEVA	acq_new_unple_masked	acq2_masked	2	11	480	0	300	300	0	0	571	46	0	1	0	0	0	1	blank2r.bmp	0	1	+	0	3	B3r.bmp	492	1	blank2r.bmp	786	8	C4r.bmp	786	1	blank2r.bmp	866	2	engstirnig	866	1	!	1319	1	!	-1	0	0	0	0	0	0	0	0	0	0	0	0	0	0	0	0	0	0	0	0	0	0	0	0	0	0	0
012919	12:35:22	12:39:42	260026	5.0.10.0	4_exp_AWA_CON_EVA_AMP	95	Rpleas_acq	Oppo	Rpleas	Amasked	CS_A	2pleas	distractor2	CONbeforeEVA	acq_new_pleas_masked	acq2_masked	2	12	480	1	300	300	0	0	464	50	0	1	0	0	0	1	blank2r.bmp	0	1	+	0	7	C3r.bmp	492	1	blank2r.bmp	786	6	C2r.bmp	786	1	blank2r.bmp	866	3	besonnen	866	1	!	1319	1	!	1359	0	0	0	0	0	0	0	0	0	0	0	0	0	0	0	0	0	0	0	0	0	0	0	0	0	0	0
012919	12:35:22	12:39:45	262305	5.0.10.0	4_exp_AWA_CON_EVA_AMP	95	Rpleas_acq	Oppo	Rpleas	Amasked	CS_A	2pleas	distractor2	CONbeforeEVA	acq_US_unple_masked	acq2_masked	2	13	480	1	300	300	0	0	484	46	0	1	0	0	0	1	blank2r.bmp	0	1	+	0	3	B3r.bmp	492	1	blank2r.bmp	786	1	CPLW	786	1	blank2r.bmp	866	2	krank	866	1	!	1319	1	!	1386	0	0	0	0	0	0	0	0	0	0	0	0	0	0	0	0	0	0	0	0	0	0	0	0	0	0	0
012919	12:35:22	12:39:47	264717	5.0.10.0	4_exp_AWA_CON_EVA_AMP	95	Rpleas_acq	Oppo	Rpleas	Amasked	CS_A	2pleas	distractor2	CONbeforeEVA	acq_new_pleas_masked	acq2_masked	2	14	480	0	300	300	0	0	641	50	0	1	0	0	0	1	blank2r.bmp	0	1	+	0	6	C2r.bmp	492	1	blank2r.bmp	786	1	B1r.bmp	786	1	blank2r.bmp	866	5	vertrauen	866	1	!	1319	1	!	-1	0	0	0	0	0	0	0	0	0	0	0	0	0	0	0	0	0	0	0	0	0	0	0	0	0	0	0
012919	12:35:22	12:39:49	267129	5.0.10.0	4_exp_AWA_CON_EVA_AMP	95	Rpleas_acq	Oppo	Rpleas	Amasked	CS_A	2pleas	distractor2	CONbeforeEVA	acq_US_pleas_masked	acq2_masked	2	15	480	0	300	300	0	0	632	50	0	1	0	0	0	1	blank2r.bmp	0	1	+	0	8	C4r.bmp	492	1	blank2r.bmp	786	1	DHJF	786	1	blank2r.bmp	866	6	anregung	866	1	!	1319	1	!	-1	0	0	0	0	0	0	0	0	0	0	0	0	0	0	0	0	0	0	0	0	0	0	0	0	0	0	0
012919	12:35:22	12:39:52	269435	5.0.10.0	4_exp_AWA_CON_EVA_AMP	95	Rpleas_acq	Oppo	Rpleas	Amasked	CS_A	2pleas	distractor2	CONbeforeEVA	acq_new_pleas_masked	acq2_masked	2	16	480	1	300	300	0	0	500	50	0	1	0	0	0	1	blank2r.bmp	0	1	+	0	5	C1r.bmp	492	1	blank2r.bmp	786	4	B4r.bmp	786	1	blank2r.bmp	866	3	besonnen	866	1	!	1319	1	!	1399	0	0	0	0	0	0	0	0	0	0	0	0	0	0	0	0	0	0	0	0	0	0	0	0	0	0	0
012919	12:35:22	12:39:54	271887	5.0.10.0	4_exp_AWA_CON_EVA_AMP	95	Rpleas_acq	Oppo	Rpleas	Amasked	CS_A	2pleas	distractor2	CONbeforeEVA	acq_new_unple_masked	acq2_masked	2	17	480	0	300	300	0	0	680	46	0	1	0	0	0	1	blank2r.bmp	0	1	+	0	2	B2r.bmp	492	1	blank2r.bmp	786	8	C4r.bmp	786	1	blank2r.bmp	866	5	versagen	866	1	!	1319	1	!	-1	0	0	0	0	0	0	0	0	0	0	0	0	0	0	0	0	0	0	0	0	0	0	0	0	0	0	0
012919	12:35:22	12:39:57	274620	5.0.10.0	4_exp_AWA_CON_EVA_AMP	95	Rpleas_acq	Oppo	Rpleas	Amasked	CS_A	2pleas	distractor2	CONbeforeEVA	acq_US_pleas_masked	acq2_masked	2	18	480	0	300	300	0	0	729	46	0	0	0	0	0	1	blank2r.bmp	0	1	+	0	4	B4r.bmp	492	1	blank2r.bmp	786	1	DHJF	786	1	blank2r.bmp	866	5	gesittet	866	1	FEHLER	1932	1	!	1319	1	!	-1	0	0	0	0	0	0	0	0	0	0	0	0	0	0	0	0	0	0	0	0	0	0	0	0
012919	12:35:22	12:39:59	276699	5.0.10.0	4_exp_AWA_CON_EVA_AMP	95	Rpleas_acq	Oppo	Rpleas	Amasked	CS_A	2pleas	distractor2	CONbeforeEVA	acq_new_pleas_masked	acq2_masked	2	19	480	1	300	300	0	0	492	50	0	1	0	0	0	1	blank2r.bmp	0	1	+	0	7	C3r.bmp	492	1	blank2r.bmp	786	6	C2r.bmp	786	1	blank2r.bmp	866	2	engagiert	866	1	!	1319	1	!	1399	0	0	0	0	0	0	0	0	0	0	0	0	0	0	0	0	0	0	0	0	0	0	0	0	0	0	0
012919	12:35:22	12:40:01	278951	5.0.10.0	4_exp_AWA_CON_EVA_AMP	95	Rpleas_acq	Oppo	Rpleas	Amasked	CS_A	2pleas	distractor2	CONbeforeEVA	acq_US_unple_masked	acq2_masked	2	20	480	1	300	300	0	0	462	46	0	1	0	0	0	1	blank2r.bmp	0	1	+	0	1	B1r.bmp	492	1	blank2r.bmp	786	1	CPLW	786	1	blank2r.bmp	866	1	töten	866	1	!	1319	1	!	1359	0	0	0	0	0	0	0	0	0	0	0	0	0	0	0	0	0	0	0	0	0	0	0	0	0	0	0
012919	12:35:22	12:40:04	281403	5.0.10.0	4_exp_AWA_CON_EVA_AMP	95	Rpleas_acq	Oppo	Rpleas	Amasked	CS_A	2pleas	distractor2	CONbeforeEVA	acq_new_unple_masked	acq2_masked	2	21	480	0	300	300	0	0	683	46	0	1	0	0	0	1	blank2r.bmp	0	1	+	0	6	C2r.bmp	492	1	blank2r.bmp	786	5	C1r.bmp	786	1	blank2r.bmp	866	4	sterben	866	1	!	1319	1	!	-1	0	0	0	0	0	0	0	0	0	0	0	0	0	0	0	0	0	0	0	0	0	0	0	0	0	0	0
012919	12:35:22	12:40:06	283749	5.0.10.0	4_exp_AWA_CON_EVA_AMP	95	Rpleas_acq	Oppo	Rpleas	Amasked	CS_A	2pleas	distractor2	CONbeforeEVA	acq_US_unple_masked	acq2_masked	2	22	480	0	300	300	0	0	572	46	0	1	0	0	0	1	blank2r.bmp	0	1	+	0	3	B3r.bmp	492	1	blank2r.bmp	786	1	CPLW	786	1	blank2r.bmp	866	3	verbissen	866	1	!	1319	1	!	-1	0	0	0	0	0	0	0	0	0	0	0	0	0	0	0	0	0	0	0	0	0	0	0	0	0	0	0
012919	12:35:22	12:40:09	286308	5.0.10.0	4_exp_AWA_CON_EVA_AMP	95	Rpleas_acq	Oppo	Rpleas	Amasked	CS_A	2pleas	distractor2	CONbeforeEVA	acq_US_pleas_masked	acq2_masked	2	23	480	0	300	300	0	0	779	50	0	1	0	0	0	1	blank2r.bmp	0	1	+	0	8	C4r.bmp	492	1	blank2r.bmp	786	1	DHJF	786	1	blank2r.bmp	866	2	kreativ	866	1	!	1319	1	!	-1	0	0	0	0	0	0	0	0	0	0	0	0	0	0	0	0	0	0	0	0	0	0	0	0	0	0	0
012919	12:35:22	12:40:11	288734	5.0.10.0	4_exp_AWA_CON_EVA_AMP	95	Rpleas_acq	Oppo	Rpleas	Amasked	CS_A	2pleas	distractor2	CONbeforeEVA	acq_new_unple_masked	acq2_masked	2	24	480	0	300	300	0	0	639	46	0	1	0	0	0	1	blank2r.bmp	0	1	+	0	4	B4r.bmp	492	1	blank2r.bmp	786	2	B2r.bmp	786	1	blank2r.bmp	866	6	krise	866	1	!	1319	1	!	-1	0	0	0	0	0	0	0	0	0	0	0	0	0	0	0	0	0	0	0	0	0	0	0	0	0	0	0
012919	12:35:22	12:40:13	291159	5.0.10.0	4_exp_AWA_CON_EVA_AMP	95	Rpleas_acq	Oppo	Rpleas	Amasked	CS_A	2pleas	distractor2	CONbeforeEVA	acq_US_unple_masked	acq2_masked	2	25	480	0	300	300	0	0	645	46	0	1	0	0	0	1	blank2r.bmp	0	1	+	0	5	C1r.bmp	492	1	blank2r.bmp	786	1	CPLW	786	1	blank2r.bmp	866	5	geizig	866	1	!	1319	1	!	-1	0	0	0	0	0	0	0	0	0	0	0	0	0	0	0	0	0	0	0	0	0	0	0	0	0	0	0
012919	12:35:22	12:40:16	293612	5.0.10.0	4_exp_AWA_CON_EVA_AMP	95	Rpleas_acq	Oppo	Rpleas	Amasked	CS_A	2pleas	distractor2	CONbeforeEVA	acq_US_pleas_masked	acq2_masked	2	26	480	0	300	300	0	0	670	50	0	1	0	0	0	1	blank2r.bmp	0	1	+	0	1	B1r.bmp	492	1	blank2r.bmp	786	1	DHJF	786	1	blank2r.bmp	866	4	genießen	866	1	!	1319	1	!	-1	0	0	0	0	0	0	0	0	0	0	0	0	0	0	0	0	0	0	0	0	0	0	0	0	0	0	0
012919	12:35:22	12:40:18	296091	5.0.10.0	4_exp_AWA_CON_EVA_AMP	95	Rpleas_acq	Oppo	Rpleas	Amasked	CS_A	2pleas	distractor2	CONbeforeEVA	acq_new_pleas_masked	acq2_masked	2	27	480	0	300	300	0	0	701	50	0	1	0	0	0	1	blank2r.bmp	0	1	+	0	2	B2r.bmp	492	1	blank2r.bmp	786	7	C3r.bmp	786	1	blank2r.bmp	866	6	kuss	866	1	!	1319	1	!	-1	0	0	0	0	0	0	0	0	0	0	0	0	0	0	0	0	0	0	0	0	0	0	0	0	0	0	0
012919	12:35:22	12:40:21	298436	5.0.10.0	4_exp_AWA_CON_EVA_AMP	95	Rpleas_acq	Oppo	Rpleas	Amasked	CS_A	2pleas	distractor2	CONbeforeEVA	acq_new_unple_masked	acq2_masked	2	28	480	0	300	300	0	0	559	46	0	1	0	0	0	1	blank2r.bmp	0	1	+	0	7	C3r.bmp	492	1	blank2r.bmp	786	3	B3r.bmp	786	1	blank2r.bmp	866	1	gierig	866	1	!	1319	1	!	-1	0	0	0	0	0	0	0	0	0	0	0	0	0	0	0	0	0	0	0	0	0	0	0	0	0	0	0
012919	12:35:22	12:40:23	300915	5.0.10.0	4_exp_AWA_CON_EVA_AMP	95	Rpleas_acq	Oppo	Rpleas	Amasked	CS_A	2pleas	distractor2	CONbeforeEVA	acq_new_pleas_masked	acq2_masked	2	29	480	0	300	300	0	0	695	50	0	1	0	0	0	1	blank2r.bmp	0	1	+	0	3	B3r.bmp	492	1	blank2r.bmp	786	4	B4r.bmp	786	1	blank2r.bmp	866	4	sonnig	866	1	!	1319	1	!	-1	0	0	0	0	0	0	0	0	0	0	0	0	0	0	0	0	0	0	0	0	0	0	0	0	0	0	0
012919	12:35:22	12:40:26	303434	5.0.10.0	4_exp_AWA_CON_EVA_AMP	95	Rpleas_acq	Oppo	Rpleas	Amasked	CS_A	2pleas	distractor2	CONbeforeEVA	acq_US_pleas_masked	acq2_masked	2	30	480	0	300	300	0	0	732	50	0	1	0	0	0	1	blank2r.bmp	0	1	+	0	5	C1r.bmp	492	1	blank2r.bmp	786	1	DHJF	786	1	blank2r.bmp	866	1	träumen	866	1	!	1319	1	!	-1	0	0	0	0	0	0	0	0	0	0	0	0	0	0	0	0	0	0	0	0	0	0	0	0	0	0	0
012919	12:35:22	12:40:28	305900	5.0.10.0	4_exp_AWA_CON_EVA_AMP	95	Rpleas_acq	Oppo	Rpleas	Amasked	CS_A	2pleas	distractor2	CONbeforeEVA	acq_new_pleas_masked	acq2_masked	2	31	480	0	300	300	0	0	680	50	0	1	0	0	0	1	blank2r.bmp	0	1	+	0	8	C4r.bmp	492	1	blank2r.bmp	786	3	B3r.bmp	786	1	blank2r.bmp	866	1	gütig	866	1	!	1319	1	!	-1	0	0	0	0	0	0	0	0	0	0	0	0	0	0	0	0	0	0	0	0	0	0	0	0	0	0	0
012919	12:35:22	12:40:31	308286	5.0.10.0	4_exp_AWA_CON_EVA_AMP	95	Rpleas_acq	Oppo	Rpleas	Amasked	CS_A	2pleas	distractor2	CONbeforeEVA	acq_US_unple_masked	acq2_masked	2	32	480	0	300	300	0	0	606	46	0	1	0	0	0	1	blank2r.bmp	0	1	+	0	1	B1r.bmp	492	1	blank2r.bmp	786	1	CPLW	786	1	blank2r.bmp	866	4	gemein	866	1	!	1319	1	!	-1	0	0	0	0	0	0	0	0	0	0	0	0	0	0	0	0	0	0	0	0	0	0	0	0	0	0	0
012919	12:35:22	12:40:33	310645	5.0.10.0	4_exp_AWA_CON_EVA_AMP	95	Rpleas_acq	Oppo	Rpleas	Amasked	CS_A	2pleas	distractor2	CONbeforeEVA	acq_US_pleas_masked	acq2_masked	2	33	480	0	300	300	0	0	575	50	0	1	0	0	0	1	blank2r.bmp	0	1	+	0	4	B4r.bmp	492	1	blank2r.bmp	786	1	DHJF	786	1	blank2r.bmp	866	3	vergnügt	866	1	!	1319	1	!	-1	0	0	0	0	0	0	0	0	0	0	0	0	0	0	0	0	0	0	0	0	0	0	0	0	0	0	0
012919	12:35:22	12:40:35	313097	5.0.10.0	4_exp_AWA_CON_EVA_AMP	95	Rpleas_acq	Oppo	Rpleas	Amasked	CS_A	2pleas	distractor2	CONbeforeEVA	acq_new_unple_masked	acq2_masked	2	34	480	0	300	300	0	0	668	46	0	1	0	0	0	1	blank2r.bmp	0	1	+	0	2	B2r.bmp	492	1	blank2r.bmp	786	5	C1r.bmp	786	1	blank2r.bmp	866	3	bange	866	1	!	1319	1	!	-1	0	0	0	0	0	0	0	0	0	0	0	0	0	0	0	0	0	0	0	0	0	0	0	0	0	0	0
012919	12:35:22	12:40:38	315896	5.0.10.0	4_exp_AWA_CON_EVA_AMP	95	Rpleas_acq	Oppo	Rpleas	Amasked	CS_A	2pleas	distractor2	CONbeforeEVA	acq_US_unple_masked	acq2_masked	2	35	480	0	300	300	0	0	786	50	0	0	0	0	0	1	blank2r.bmp	0	1	+	0	6	C2r.bmp	492	1	blank2r.bmp	786	1	CPLW	786	1	blank2r.bmp	866	6	ausrottung	866	1	FEHLER	1999	1	!	1319	1	!	-1	0	0	0	0	0	0	0	0	0	0	0	0	0	0	0	0	0	0	0	0	0	0	0	0
012919	12:35:22	12:40:40	318082	5.0.10.0	4_exp_AWA_CON_EVA_AMP	95	Rpleas_acq	Oppo	Rpleas	Amasked	CS_A	2pleas	distractor2	CONbeforeEVA	acq_new_unple_masked	acq2_masked	2	36	480	0	300	300	0	0	635	46	0	1	0	0	0	1	blank2r.bmp	0	1	+	0	7	C3r.bmp	492	1	blank2r.bmp	786	6	C2r.bmp	786	1	blank2r.bmp	866	2	engstirnig	866	1	!	1319	1	!	-1	0	0	0	0	0	0	0	0	0	0	0	0	0	0	0	0	0	0	0	0	0	0	0	0	0	0	0
012919	12:35:22	12:41:07	345017	5.0.10.0	4_exp_AWA_CON_EVA_AMP	95	Rpleas_acq	Oppo	Rpleas	Amasked	CS_A	2pleas	distractor2	CONbeforeEVA	acq_US_pleas_masked	acq3_masked	3	1	453	0	300	300	0	0	711	46	0	0	0	0	0	1	blank2r.bmp	0	1	+	0	1	B1r.bmp	492	1	blank2r.bmp	786	1	DHJF	786	1	blank2r.bmp	866	6	anregung	866	1	FEHLER	1919	1	!	1292	1	!	-1	0	0	0	0	0	0	0	0	0	0	0	0	0	0	0	0	0	0	0	0	0	0	0	0
012919	12:35:22	12:41:10	347243	5.0.10.0	4_exp_AWA_CON_EVA_AMP	95	Rpleas_acq	Oppo	Rpleas	Amasked	CS_A	2pleas	distractor2	CONbeforeEVA	acq_US_unple_masked	acq3_masked	3	2	453	0	300	300	0	0	666	46	0	1	0	0	0	1	blank2r.bmp	0	1	+	0	3	B3r.bmp	492	1	blank2r.bmp	786	1	CPLW	786	1	blank2r.bmp	866	4	gemein	866	1	!	1292	1	!	-1	0	0	0	0	0	0	0	0	0	0	0	0	0	0	0	0	0	0	0	0	0	0	0	0	0	0	0
012919	12:35:22	12:41:12	349562	5.0.10.0	4_exp_AWA_CON_EVA_AMP	95	Rpleas_acq	Oppo	Rpleas	Amasked	CS_A	2pleas	distractor2	CONbeforeEVA	acq_US_pleas_masked	acq3_masked	3	3	453	1	300	300	0	0	512	50	0	1	0	0	0	1	blank2r.bmp	0	1	+	0	8	C4r.bmp	492	1	blank2r.bmp	786	1	DHJF	786	1	blank2r.bmp	866	4	genießen	866	1	!	1292	1	!	1412	0	0	0	0	0	0	0	0	0	0	0	0	0	0	0	0	0	0	0	0	0	0	0	0	0	0	0
012919	12:35:22	12:41:14	351961	5.0.10.0	4_exp_AWA_CON_EVA_AMP	95	Rpleas_acq	Oppo	Rpleas	Amasked	CS_A	2pleas	distractor2	CONbeforeEVA	acq_US_pleas_masked	acq3_masked	3	4	453	0	300	300	0	0	634	50	0	1	0	0	0	1	blank2r.bmp	0	1	+	0	4	B4r.bmp	492	1	blank2r.bmp	786	1	DHJF	786	1	blank2r.bmp	866	5	gesittet	866	1	!	1292	1	!	-1	0	0	0	0	0	0	0	0	0	0	0	0	0	0	0	0	0	0	0	0	0	0	0	0	0	0	0
012919	12:35:22	12:41:17	354280	5.0.10.0	4_exp_AWA_CON_EVA_AMP	95	Rpleas_acq	Oppo	Rpleas	Amasked	CS_A	2pleas	distractor2	CONbeforeEVA	acq_US_unple_masked	acq3_masked	3	5	453	1	300	300	0	0	514	46	0	1	0	0	0	1	blank2r.bmp	0	1	+	0	5	C1r.bmp	492	1	blank2r.bmp	786	1	CPLW	786	1	blank2r.bmp	866	1	töten	866	1	!	1292	1	!	1412	0	0	0	0	0	0	0	0	0	0	0	0	0	0	0	0	0	0	0	0	0	0	0	0	0	0	0
012919	12:35:22	12:41:19	356919	5.0.10.0	4_exp_AWA_CON_EVA_AMP	95	Rpleas_acq	Oppo	Rpleas	Amasked	CS_A	2pleas	distractor2	CONbeforeEVA	acq_US_pleas_masked	acq3_masked	3	6	453	0	300	300	0	0	643	46	0	0	0	0	0	1	blank2r.bmp	0	1	+	0	6	C2r.bmp	492	1	blank2r.bmp	786	1	DHJF	786	1	blank2r.bmp	866	3	vergnügt	866	1	FEHLER	1852	1	!	1292	1	!	-1	0	0	0	0	0	0	0	0	0	0	0	0	0	0	0	0	0	0	0	0	0	0	0	0
012919	12:35:22	12:41:21	359118	5.0.10.0	4_exp_AWA_CON_EVA_AMP	95	Rpleas_acq	Oppo	Rpleas	Amasked	CS_A	2pleas	distractor2	CONbeforeEVA	acq_US_unple_masked	acq3_masked	3	7	453	0	300	300	0	0	645	46	0	1	0	0	0	1	blank2r.bmp	0	1	+	0	2	B2r.bmp	492	1	blank2r.bmp	786	1	CPLW	786	1	blank2r.bmp	866	3	verbissen	866	1	!	1292	1	!	-1	0	0	0	0	0	0	0	0	0	0	0	0	0	0	0	0	0	0	0	0	0	0	0	0	0	0	0
012919	12:35:22	12:41:24	361357	5.0.10.0	4_exp_AWA_CON_EVA_AMP	95	Rpleas_acq	Oppo	Rpleas	Amasked	CS_A	2pleas	distractor2	CONbeforeEVA	acq_US_pleas_masked	acq3_masked	3	8	453	1	300	300	0	0	436	50	0	1	0	0	0	1	blank2r.bmp	0	1	+	0	7	C3r.bmp	492	1	blank2r.bmp	786	1	DHJF	786	1	blank2r.bmp	866	1	träumen	866	1	!	1292	1	!	1332	0	0	0	0	0	0	0	0	0	0	0	0	0	0	0	0	0	0	0	0	0	0	0	0	0	0	0
012919	12:35:22	12:41:26	363810	5.0.10.0	4_exp_AWA_CON_EVA_AMP	95	Rpleas_acq	Oppo	Rpleas	Amasked	CS_A	2pleas	distractor2	CONbeforeEVA	acq_US_unple_masked	acq3_masked	3	9	453	0	300	300	0	0	685	46	0	1	0	0	0	1	blank2r.bmp	0	1	+	0	3	B3r.bmp	492	1	blank2r.bmp	786	1	CPLW	786	1	blank2r.bmp	866	5	geizig	866	1	!	1292	1	!	-1	0	0	0	0	0	0	0	0	0	0	0	0	0	0	0	0	0	0	0	0	0	0	0	0	0	0	0
012919	12:35:22	12:41:28	366129	5.0.10.0	4_exp_AWA_CON_EVA_AMP	95	Rpleas_acq	Oppo	Rpleas	Amasked	CS_A	2pleas	distractor2	CONbeforeEVA	acq_US_unple_masked	acq3_masked	3	10	453	0	300	300	0	0	532	46	0	1	0	0	0	1	blank2r.bmp	0	1	+	0	6	C2r.bmp	492	1	blank2r.bmp	786	1	CPLW	786	1	blank2r.bmp	866	2	krank	866	1	!	1292	1	!	-1	0	0	0	0	0	0	0	0	0	0	0	0	0	0	0	0	0	0	0	0	0	0	0	0	0	0	0
012919	12:35:22	12:41:31	368394	5.0.10.0	4_exp_AWA_CON_EVA_AMP	95	Rpleas_acq	Oppo	Rpleas	Amasked	CS_A	2pleas	distractor2	CONbeforeEVA	acq_US_pleas_masked	acq3_masked	3	11	453	1	300	300	0	0	450	50	0	1	0	0	0	1	blank2r.bmp	0	1	+	0	5	C1r.bmp	492	1	blank2r.bmp	786	1	DHJF	786	1	blank2r.bmp	866	2	kreativ	866	1	!	1292	1	!	1346	0	0	0	0	0	0	0	0	0	0	0	0	0	0	0	0	0	0	0	0	0	0	0	0	0	0	0
012919	12:35:22	12:41:33	370700	5.0.10.0	4_exp_AWA_CON_EVA_AMP	95	Rpleas_acq	Oppo	Rpleas	Amasked	CS_A	2pleas	distractor2	CONbeforeEVA	acq_US_unple_masked	acq3_masked	3	12	453	1	300	300	0	0	513	46	0	1	0	0	0	1	blank2r.bmp	0	1	+	0	4	B4r.bmp	492	1	blank2r.bmp	786	1	CPLW	786	1	blank2r.bmp	866	6	ausrottung	866	1	!	1292	1	!	1412	0	0	0	0	0	0	0	0	0	0	0	0	0	0	0	0	0	0	0	0	0	0	0	0	0	0	0
012919	12:35:22	12:41:35	373006	5.0.10.0	4_exp_AWA_CON_EVA_AMP	95	Rpleas_acq	Oppo	Rpleas	Amasked	CS_A	2pleas	distractor2	CONbeforeEVA	acq_US_unple_masked	acq3_masked	3	13	453	1	300	300	0	0	507	46	0	1	0	0	0	1	blank2r.bmp	0	1	+	0	7	C3r.bmp	492	1	blank2r.bmp	786	1	CPLW	786	1	blank2r.bmp	866	5	geizig	866	1	!	1292	1	!	1412	0	0	0	0	0	0	0	0	0	0	0	0	0	0	0	0	0	0	0	0	0	0	0	0	0	0	0
012919	12:35:22	12:41:38	375325	5.0.10.0	4_exp_AWA_CON_EVA_AMP	95	Rpleas_acq	Oppo	Rpleas	Amasked	CS_A	2pleas	distractor2	CONbeforeEVA	acq_US_unple_masked	acq3_masked	3	14	453	0	300	300	0	0	545	46	0	1	0	0	0	1	blank2r.bmp	0	1	+	0	1	B1r.bmp	492	1	blank2r.bmp	786	1	CPLW	786	1	blank2r.bmp	866	6	ausrottung	866	1	!	1292	1	!	-1	0	0	0	0	0	0	0	0	0	0	0	0	0	0	0	0	0	0	0	0	0	0	0	0	0	0	0
012919	12:35:22	12:41:40	377644	5.0.10.0	4_exp_AWA_CON_EVA_AMP	95	Rpleas_acq	Oppo	Rpleas	Amasked	CS_A	2pleas	distractor2	CONbeforeEVA	acq_US_unple_masked	acq3_masked	3	15	453	0	300	300	0	0	539	46	0	1	0	0	0	1	blank2r.bmp	0	1	+	0	8	C4r.bmp	492	1	blank2r.bmp	786	1	CPLW	786	1	blank2r.bmp	866	2	krank	866	1	!	1292	1	!	-1	0	0	0	0	0	0	0	0	0	0	0	0	0	0	0	0	0	0	0	0	0	0	0	0	0	0	0
012919	12:35:22	12:41:42	379883	5.0.10.0	4_exp_AWA_CON_EVA_AMP	95	Rpleas_acq	Oppo	Rpleas	Amasked	CS_A	2pleas	distractor2	CONbeforeEVA	acq_US_pleas_masked	acq3_masked	3	16	453	1	300	300	0	0	434	50	0	1	0	0	0	1	blank2r.bmp	0	1	+	0	2	B2r.bmp	492	1	blank2r.bmp	786	1	DHJF	786	1	blank2r.bmp	866	2	kreativ	866	1	!	1292	1	!	1332	0	0	0	0	0	0	0	0	0	0	0	0	0	0	0	0	0	0	0	0	0	0	0	0	0	0	0
012919	12:35:22	12:41:44	382189	5.0.10.0	4_exp_AWA_CON_EVA_AMP	95	Rpleas_acq	Oppo	Rpleas	Amasked	CS_A	2pleas	distractor2	CONbeforeEVA	acq_US_pleas_masked	acq3_masked	3	17	453	0	300	300	0	0	532	50	0	1	0	0	0	1	blank2r.bmp	0	1	+	0	3	B3r.bmp	492	1	blank2r.bmp	786	1	DHJF	786	1	blank2r.bmp	866	4	genießen	866	1	!	1292	1	!	-1	0	0	0	0	0	0	0	0	0	0	0	0	0	0	0	0	0	0	0	0	0	0	0	0	0	0	0
012919	12:35:22	12:41:47	384548	5.0.10.0	4_exp_AWA_CON_EVA_AMP	95	Rpleas_acq	Oppo	Rpleas	Amasked	CS_A	2pleas	distractor2	CONbeforeEVA	acq_US_pleas_masked	acq3_masked	3	18	453	0	300	300	0	0	579	50	0	1	0	0	0	1	blank2r.bmp	0	1	+	0	1	B1r.bmp	492	1	blank2r.bmp	786	1	DHJF	786	1	blank2r.bmp	866	1	träumen	866	1	!	1292	1	!	-1	0	0	0	0	0	0	0	0	0	0	0	0	0	0	0	0	0	0	0	0	0	0	0	0	0	0	0
012919	12:35:22	12:41:49	386800	5.0.10.0	4_exp_AWA_CON_EVA_AMP	95	Rpleas_acq	Oppo	Rpleas	Amasked	CS_A	2pleas	distractor2	CONbeforeEVA	acq_US_unple_masked	acq3_masked	3	19	453	1	300	300	0	0	451	46	0	1	0	0	0	1	blank2r.bmp	0	1	+	0	8	C4r.bmp	492	1	blank2r.bmp	786	1	CPLW	786	1	blank2r.bmp	866	3	verbissen	866	1	!	1292	1	!	1346	0	0	0	0	0	0	0	0	0	0	0	0	0	0	0	0	0	0	0	0	0	0	0	0	0	0	0
012919	12:35:22	12:41:51	389106	5.0.10.0	4_exp_AWA_CON_EVA_AMP	95	Rpleas_acq	Oppo	Rpleas	Amasked	CS_A	2pleas	distractor2	CONbeforeEVA	acq_US_pleas_masked	acq3_masked	3	20	453	0	300	300	0	0	533	50	0	1	0	0	0	1	blank2r.bmp	0	1	+	0	2	B2r.bmp	492	1	blank2r.bmp	786	1	DHJF	786	1	blank2r.bmp	866	6	anregung	866	1	!	1292	1	!	-1	0	0	0	0	0	0	0	0	0	0	0	0	0	0	0	0	0	0	0	0	0	0	0	0	0	0	0
012919	12:35:22	12:41:54	391438	5.0.10.0	4_exp_AWA_CON_EVA_AMP	95	Rpleas_acq	Oppo	Rpleas	Amasked	CS_A	2pleas	distractor2	CONbeforeEVA	acq_US_unple_masked	acq3_masked	3	21	453	1	300	300	0	0	507	46	0	1	0	0	0	1	blank2r.bmp	0	1	+	0	5	C1r.bmp	492	1	blank2r.bmp	786	1	CPLW	786	1	blank2r.bmp	866	1	töten	866	1	!	1292	1	!	1412	0	0	0	0	0	0	0	0	0	0	0	0	0	0	0	0	0	0	0	0	0	0	0	0	0	0	0
012919	12:35:22	12:41:56	394010	5.0.10.0	4_exp_AWA_CON_EVA_AMP	95	Rpleas_acq	Oppo	Rpleas	Amasked	CS_A	2pleas	distractor2	CONbeforeEVA	acq_US_unple_masked	acq3_masked	3	22	453	0	300	300	0	0	584	50	0	0	0	0	0	1	blank2r.bmp	0	1	+	0	7	C3r.bmp	492	1	blank2r.bmp	786	1	CPLW	786	1	blank2r.bmp	866	4	gemein	866	1	FEHLER	1785	1	!	1292	1	!	-1	0	0	0	0	0	0	0	0	0	0	0	0	0	0	0	0	0	0	0	0	0	0	0	0
012919	12:35:22	12:41:58	396063	5.0.10.0	4_exp_AWA_CON_EVA_AMP	95	Rpleas_acq	Oppo	Rpleas	Amasked	CS_A	2pleas	distractor2	CONbeforeEVA	acq_US_pleas_masked	acq3_masked	3	23	453	1	300	300	0	0	468	50	0	1	0	0	0	1	blank2r.bmp	0	1	+	0	6	C2r.bmp	492	1	blank2r.bmp	786	1	DHJF	786	1	blank2r.bmp	866	5	gesittet	866	1	!	1292	1	!	1372	0	0	0	0	0	0	0	0	0	0	0	0	0	0	0	0	0	0	0	0	0	0	0	0	0	0	0
012919	12:35:22	12:42:01	398515	5.0.10.0	4_exp_AWA_CON_EVA_AMP	95	Rpleas_acq	Oppo	Rpleas	Amasked	CS_A	2pleas	distractor2	CONbeforeEVA	acq_US_pleas_masked	acq3_masked	3	24	453	1	300	300	0	0	433	46	0	0	0	0	0	1	blank2r.bmp	0	1	+	0	4	B4r.bmp	492	1	blank2r.bmp	786	1	DHJF	786	1	blank2r.bmp	866	3	vergnügt	866	1	FEHLER	1652	1	!	1292	1	!	1332	0	0	0	0	0	0	0	0	0	0	0	0	0	0	0	0	0	0	0	0	0	0	0	0
012919	12:35:22	12:42:03	400581	5.0.10.0	4_exp_AWA_CON_EVA_AMP	95	Rpleas_acq	Oppo	Rpleas	Amasked	CS_A	2pleas	distractor2	CONbeforeEVA	acq_US_pleas_masked	acq3_masked	3	25	453	1	300	300	0	0	479	50	0	1	0	0	0	1	blank2r.bmp	0	1	+	0	7	C3r.bmp	492	1	blank2r.bmp	786	1	DHJF	786	1	blank2r.bmp	866	6	anregung	866	1	!	1292	1	!	1386	0	0	0	0	0	0	0	0	0	0	0	0	0	0	0	0	0	0	0	0	0	0	0	0	0	0	0
012919	12:35:22	12:42:05	402874	5.0.10.0	4_exp_AWA_CON_EVA_AMP	95	Rpleas_acq	Oppo	Rpleas	Amasked	CS_A	2pleas	distractor2	CONbeforeEVA	acq_US_pleas_masked	acq3_masked	3	26	453	1	300	300	0	0	498	50	0	1	0	0	0	1	blank2r.bmp	0	1	+	0	5	C1r.bmp	492	1	blank2r.bmp	786	1	DHJF	786	1	blank2r.bmp	866	1	träumen	866	1	!	1292	1	!	1399	0	0	0	0	0	0	0	0	0	0	0	0	0	0	0	0	0	0	0	0	0	0	0	0	0	0	0
012919	12:35:22	12:42:07	405086	5.0.10.0	4_exp_AWA_CON_EVA_AMP	95	Rpleas_acq	Oppo	Rpleas	Amasked	CS_A	2pleas	distractor2	CONbeforeEVA	acq_US_unple_masked	acq3_masked	3	27	453	1	300	300	0	0	424	46	0	1	0	0	0	1	blank2r.bmp	0	1	+	0	1	B1r.bmp	492	1	blank2r.bmp	786	1	CPLW	786	1	blank2r.bmp	866	1	töten	866	1	!	1292	1	!	1319	0	0	0	0	0	0	0	0	0	0	0	0	0	0	0	0	0	0	0	0	0	0	0	0	0	0	0
012919	12:35:22	12:42:10	407325	5.0.10.0	4_exp_AWA_CON_EVA_AMP	95	Rpleas_acq	Oppo	Rpleas	Amasked	CS_A	2pleas	distractor2	CONbeforeEVA	acq_US_unple_masked	acq3_masked	3	28	453	1	300	300	0	0	446	46	0	1	0	0	0	1	blank2r.bmp	0	1	+	0	6	C2r.bmp	492	1	blank2r.bmp	786	1	CPLW	786	1	blank2r.bmp	866	3	verbissen	866	1	!	1292	1	!	1346	0	0	0	0	0	0	0	0	0	0	0	0	0	0	0	0	0	0	0	0	0	0	0	0	0	0	0
012919	12:35:22	12:42:12	409591	5.0.10.0	4_exp_AWA_CON_EVA_AMP	95	Rpleas_acq	Oppo	Rpleas	Amasked	CS_A	2pleas	distractor2	CONbeforeEVA	acq_US_unple_masked	acq3_masked	3	29	453	1	300	300	0	0	459	46	0	1	0	0	0	1	blank2r.bmp	0	1	+	0	8	C4r.bmp	492	1	blank2r.bmp	786	1	CPLW	786	1	blank2r.bmp	866	2	krank	866	1	!	1292	1	!	1359	0	0	0	0	0	0	0	0	0	0	0	0	0	0	0	0	0	0	0	0	0	0	0	0	0	0	0
012919	12:35:22	12:42:14	412016	5.0.10.0	4_exp_AWA_CON_EVA_AMP	95	Rpleas_acq	Oppo	Rpleas	Amasked	CS_A	2pleas	distractor2	CONbeforeEVA	acq_US_pleas_masked	acq3_masked	3	30	453	1	300	300	0	0	416	46	0	0	0	0	0	1	blank2r.bmp	0	1	+	0	2	B2r.bmp	492	1	blank2r.bmp	786	1	DHJF	786	1	blank2r.bmp	866	5	gesittet	866	1	FEHLER	1639	1	!	1292	1	!	1319	0	0	0	0	0	0	0	0	0	0	0	0	0	0	0	0	0	0	0	0	0	0	0	0
012919	12:35:22	12:42:16	414016	5.0.10.0	4_exp_AWA_CON_EVA_AMP	95	Rpleas_acq	Oppo	Rpleas	Amasked	CS_A	2pleas	distractor2	CONbeforeEVA	acq_US_unple_masked	acq3_masked	3	31	453	1	300	300	0	0	409	46	0	1	0	0	0	1	blank2r.bmp	0	1	+	0	3	B3r.bmp	492	1	blank2r.bmp	786	1	CPLW	786	1	blank2r.bmp	866	6	ausrottung	866	1	!	1292	1	!	1306	0	0	0	0	0	0	0	0	0	0	0	0	0	0	0	0	0	0	0	0	0	0	0	0	0	0	0
012919	12:35:22	12:42:19	416428	5.0.10.0	4_exp_AWA_CON_EVA_AMP	95	Rpleas_acq	Oppo	Rpleas	Amasked	CS_A	2pleas	distractor2	CONbeforeEVA	acq_US_unple_masked	acq3_masked	3	32	453	1	300	300	0	0	399	50	0	0	0	0	0	1	blank2r.bmp	0	1	+	0	4	B4r.bmp	492	1	blank2r.bmp	786	1	CPLW	786	1	blank2r.bmp	866	5	geizig	866	1	FEHLER	1625	1	!	1292	1	!	1306	0	0	0	0	0	0	0	0	0	0	0	0	0	0	0	0	0	0	0	0	0	0	0	0
012919	12:35:22	12:42:21	418747	5.0.10.0	4_exp_AWA_CON_EVA_AMP	95	Rpleas_acq	Oppo	Rpleas	Amasked	CS_A	2pleas	distractor2	CONbeforeEVA	acq_US_pleas_masked	acq3_masked	3	33	453	0	300	300	0	0	536	46	0	0	0	0	0	1	blank2r.bmp	0	1	+	0	6	C2r.bmp	492	1	blank2r.bmp	786	1	DHJF	786	1	blank2r.bmp	866	2	kreativ	866	1	FEHLER	1745	1	!	1292	1	!	-1	0	0	0	0	0	0	0	0	0	0	0	0	0	0	0	0	0	0	0	0	0	0	0	0
012919	12:35:22	12:42:23	420853	5.0.10.0	4_exp_AWA_CON_EVA_AMP	95	Rpleas_acq	Oppo	Rpleas	Amasked	CS_A	2pleas	distractor2	CONbeforeEVA	acq_US_pleas_masked	acq3_masked	3	34	453	0	300	300	0	0	555	50	0	1	0	0	0	1	blank2r.bmp	0	1	+	0	7	C3r.bmp	492	1	blank2r.bmp	786	1	DHJF	786	1	blank2r.bmp	866	3	vergnügt	866	1	!	1292	1	!	-1	0	0	0	0	0	0	0	0	0	0	0	0	0	0	0	0	0	0	0	0	0	0	0	0	0	0	0
012919	12:35:22	12:42:25	423105	5.0.10.0	4_exp_AWA_CON_EVA_AMP	95	Rpleas_acq	Oppo	Rpleas	Amasked	CS_A	2pleas	distractor2	CONbeforeEVA	acq_US_pleas_masked	acq3_masked	3	35	453	1	300	300	0	0	429	50	0	1	0	0	0	1	blank2r.bmp	0	1	+	0	1	B1r.bmp	492	1	blank2r.bmp	786	1	DHJF	786	1	blank2r.bmp	866	4	genießen	866	1	!	1292	1	!	1332	0	0	0	0	0	0	0	0	0	0	0	0	0	0	0	0	0	0	0	0	0	0	0	0	0	0	0
012919	12:35:22	12:42:28	425598	5.0.10.0	4_exp_AWA_CON_EVA_AMP	95	Rpleas_acq	Oppo	Rpleas	Amasked	CS_A	2pleas	distractor2	CONbeforeEVA	acq_US_unple_masked	acq3_masked	3	36	453	1	300	300	0	0	499	50	0	0	0	0	0	1	blank2r.bmp	0	1	+	0	5	C1r.bmp	492	1	blank2r.bmp	786	1	CPLW	786	1	blank2r.bmp	866	4	gemein	866	1	FEHLER	1719	1	!	1292	1	!	1399	0	0	0	0	0	0	0	0	0	0	0	0	0	0	0	0	0	0	0	0	0	0	0	0
012919	12:35:22	12:42:43	441031	5.0.10.0	4_exp_AWA_CON_EVA_AMP	95	Rpleas_acq	Oppo	Rpleas	Amasked	CS_A	2pleas	distractor2	CONbeforeEVA	acq_US_pleas_masked	acq45_masked	4	1	400	0	300	300	0	0	682	46	0	0	0	0	0	1	blank2r.bmp	0	1	+	0	4	B4r.bmp	492	1	blank2r.bmp	786	1	DHJF	786	1	blank2r.bmp	866	4	genießen	866	1	!	1239	1	!	-1	0	0	0	0	0	0	0	0	0	0	0	0	0	0	0	0	0	0	0	0	0	0	0	0	0	0	0
012919	12:35:22	12:42:46	443377	5.0.10.0	4_exp_AWA_CON_EVA_AMP	95	Rpleas_acq	Oppo	Rpleas	Amasked	CS_A	2pleas	distractor2	CONbeforeEVA	acq_US_unple_masked	acq45_masked	4	2	400	0	300	300	0	0	567	46	0	1	0	0	0	1	blank2r.bmp	0	1	+	0	8	C4r.bmp	492	1	blank2r.bmp	786	1	CPLW	786	1	blank2r.bmp	866	5	geizig	866	1	!	1239	1	!	-1	0	0	0	0	0	0	0	0	0	0	0	0	0	0	0	0	0	0	0	0	0	0	0	0	0	0	0
012919	12:35:22	12:42:48	445603	5.0.10.0	4_exp_AWA_CON_EVA_AMP	95	Rpleas_acq	Oppo	Rpleas	Amasked	CS_A	2pleas	distractor2	CONbeforeEVA	acq_US_pleas_masked	acq45_masked	4	3	400	1	300	300	0	0	421	50	0	1	0	0	0	1	blank2r.bmp	0	1	+	0	3	B3r.bmp	492	1	blank2r.bmp	786	1	DHJF	786	1	blank2r.bmp	866	1	träumen	866	1	!	1239	1	!	1319	0	0	0	0	0	0	0	0	0	0	0	0	0	0	0	0	0	0	0	0	0	0	0	0	0	0	0
012919	12:35:22	12:42:50	447855	5.0.10.0	4_exp_AWA_CON_EVA_AMP	95	Rpleas_acq	Oppo	Rpleas	Amasked	CS_A	2pleas	distractor2	CONbeforeEVA	acq_US_pleas_masked	acq45_masked	4	4	400	0	300	300	0	0	479	50	0	1	0	0	0	1	blank2r.bmp	0	1	+	0	2	B2r.bmp	492	1	blank2r.bmp	786	1	DHJF	786	1	blank2r.bmp	866	2	kreativ	866	1	!	1239	1	!	-1	0	0	0	0	0	0	0	0	0	0	0	0	0	0	0	0	0	0	0	0	0	0	0	0	0	0	0
012919	12:35:22	12:42:52	450121	5.0.10.0	4_exp_AWA_CON_EVA_AMP	95	Rpleas_acq	Oppo	Rpleas	Amasked	CS_A	2pleas	distractor2	CONbeforeEVA	acq_US_unple_masked	acq45_masked	4	5	400	0	300	300	0	0	479	46	0	1	0	0	0	1	blank2r.bmp	0	1	+	0	5	C1r.bmp	492	1	blank2r.bmp	786	1	CPLW	786	1	blank2r.bmp	866	6	ausrottung	866	1	!	1239	1	!	-1	0	0	0	0	0	0	0	0	0	0	0	0	0	0	0	0	0	0	0	0	0	0	0	0	0	0	0
012919	12:35:22	12:42:55	452213	5.0.10.0	4_exp_AWA_CON_EVA_AMP	95	Rpleas_acq	Oppo	Rpleas	Amasked	CS_A	2pleas	distractor2	CONbeforeEVA	acq_US_pleas_masked	acq45_masked	4	6	400	0	300	300	0	0	307	46	0	0	0	0	0	1	blank2r.bmp	0	1	+	0	2	B2r.bmp	492	1	blank2r.bmp	786	1	DHJF	786	1	blank2r.bmp	866	6	anregung	866	1	!	-1	1	!	-1	0	0	0	0	0	0	0	0	0	0	0	0	0	0	0	0	0	0	0	0	0	0	0	0	0	0	0
012919	12:35:22	12:42:59	456905	5.0.10.0	4_exp_AWA_CON_EVA_AMP	95	Rpleas_acq	Oppo	Rpleas	Amasked	CS_A	2pleas	distractor2	CONbeforeEVA	acq_US_unple_masked	acq45_masked	4	7	400	0	300	300	0	0	2906	46	0	1	0	0	0	1	blank2r.bmp	0	1	+	0	8	C4r.bmp	492	1	blank2r.bmp	786	1	CPLW	786	1	blank2r.bmp	866	3	verbissen	866	1	!	1239	1	!	-1	0	0	0	0	0	0	0	0	0	0	0	0	0	0	0	0	0	0	0	0	0	0	0	0	0	0	0
012919	12:35:22	12:43:01	459077	5.0.10.0	4_exp_AWA_CON_EVA_AMP	95	Rpleas_acq	Oppo	Rpleas	Amasked	CS_A	2pleas	distractor2	CONbeforeEVA	acq_US_unple_masked	acq45_masked	4	8	400	1	300	300	0	0	346	50	0	0	0	0	0	1	blank2r.bmp	0	1	+	0	3	B3r.bmp	492	1	blank2r.bmp	786	1	CPLW	786	1	blank2r.bmp	866	4	gemein	866	1	!	1239	1	!	1252	0	0	0	0	0	0	0	0	0	0	0	0	0	0	0	0	0	0	0	0	0	0	0	0	0	0	0
012919	12:35:22	12:43:04	461249	5.0.10.0	4_exp_AWA_CON_EVA_AMP	95	Rpleas_acq	Oppo	Rpleas	Amasked	CS_A	2pleas	distractor2	CONbeforeEVA	acq_US_unple_masked	acq45_masked	4	9	400	1	300	300	0	0	374	46	0	1	0	0	0	1	blank2r.bmp	0	1	+	0	7	C3r.bmp	492	1	blank2r.bmp	786	1	CPLW	786	1	blank2r.bmp	866	2	krank	866	1	!	1239	1	!	1279	0	0	0	0	0	0	0	0	0	0	0	0	0	0	0	0	0	0	0	0	0	0	0	0	0	0	0
012919	12:35:22	12:43:06	463462	5.0.10.0	4_exp_AWA_CON_EVA_AMP	95	Rpleas_acq	Oppo	Rpleas	Amasked	CS_A	2pleas	distractor2	CONbeforeEVA	acq_US_unple_masked	acq45_masked	4	10	400	1	300	300	0	0	421	46	0	1	0	0	0	1	blank2r.bmp	0	1	+	0	4	B4r.bmp	492	1	blank2r.bmp	786	1	CPLW	786	1	blank2r.bmp	866	1	töten	866	1	!	1239	1	!	1319	0	0	0	0	0	0	0	0	0	0	0	0	0	0	0	0	0	0	0	0	0	0	0	0	0	0	0
012919	12:35:22	12:43:08	465701	5.0.10.0	4_exp_AWA_CON_EVA_AMP	95	Rpleas_acq	Oppo	Rpleas	Amasked	CS_A	2pleas	distractor2	CONbeforeEVA	acq_US_pleas_masked	acq45_masked	4	11	400	1	300	300	0	0	442	46	0	0	0	0	0	1	blank2r.bmp	0	1	+	0	6	C2r.bmp	492	1	blank2r.bmp	786	1	DHJF	786	1	blank2r.bmp	866	3	vergnügt	866	1	!	1239	1	!	1346	0	0	0	0	0	0	0	0	0	0	0	0	0	0	0	0	0	0	0	0	0	0	0	0	0	0	0
012919	12:35:22	12:43:10	467900	5.0.10.0	4_exp_AWA_CON_EVA_AMP	95	Rpleas_acq	Oppo	Rpleas	Amasked	CS_A	2pleas	distractor2	CONbeforeEVA	acq_US_pleas_masked	acq45_masked	4	12	400	1	300	300	0	0	393	46	0	0	0	0	0	1	blank2r.bmp	0	1	+	0	1	B1r.bmp	492	1	blank2r.bmp	786	1	DHJF	786	1	blank2r.bmp	866	5	gesittet	866	1	!	1239	1	!	1292	0	0	0	0	0	0	0	0	0	0	0	0	0	0	0	0	0	0	0	0	0	0	0	0	0	0	0
012919	12:35:22	12:43:12	470086	5.0.10.0	4_exp_AWA_CON_EVA_AMP	95	Rpleas_acq	Oppo	Rpleas	Amasked	CS_A	2pleas	distractor2	CONbeforeEVA	acq_US_unple_masked	acq45_masked	4	13	400	1	300	300	0	0	379	46	0	1	0	0	0	1	blank2r.bmp	0	1	+	0	3	B3r.bmp	492	1	blank2r.bmp	786	1	CPLW	786	1	blank2r.bmp	866	3	verbissen	866	1	!	1239	1	!	1279	0	0	0	0	0	0	0	0	0	0	0	0	0	0	0	0	0	0	0	0	0	0	0	0	0	0	0
012919	12:35:22	12:43:15	472338	5.0.10.0	4_exp_AWA_CON_EVA_AMP	95	Rpleas_acq	Oppo	Rpleas	Amasked	CS_A	2pleas	distractor2	CONbeforeEVA	acq_US_unple_masked	acq45_masked	4	14	400	1	300	300	0	0	456	46	0	1	0	0	0	1	blank2r.bmp	0	1	+	0	2	B2r.bmp	492	1	blank2r.bmp	786	1	CPLW	786	1	blank2r.bmp	866	2	krank	866	1	!	1239	1	!	1359	0	0	0	0	0	0	0	0	0	0	0	0	0	0	0	0	0	0	0	0	0	0	0	0	0	0	0
012919	12:35:22	12:43:17	474591	5.0.10.0	4_exp_AWA_CON_EVA_AMP	95	Rpleas_acq	Oppo	Rpleas	Amasked	CS_A	2pleas	distractor2	CONbeforeEVA	acq_US_pleas_masked	acq45_masked	4	15	400	0	300	300	0	0	479	46	0	0	0	0	0	1	blank2r.bmp	0	1	+	0	5	C1r.bmp	492	1	blank2r.bmp	786	1	DHJF	786	1	blank2r.bmp	866	5	gesittet	866	1	!	1239	1	!	-1	0	0	0	0	0	0	0	0	0	0	0	0	0	0	0	0	0	0	0	0	0	0	0	0	0	0	0
012919	12:35:22	12:43:19	476790	5.0.10.0	4_exp_AWA_CON_EVA_AMP	95	Rpleas_acq	Oppo	Rpleas	Amasked	CS_A	2pleas	distractor2	CONbeforeEVA	acq_US_unple_masked	acq45_masked	4	16	400	1	300	300	0	0	388	50	0	0	0	0	0	1	blank2r.bmp	0	1	+	0	4	B4r.bmp	492	1	blank2r.bmp	786	1	CPLW	786	1	blank2r.bmp	866	5	geizig	866	1	!	1239	1	!	1292	0	0	0	0	0	0	0	0	0	0	0	0	0	0	0	0	0	0	0	0	0	0	0	0	0	0	0
012919	12:35:22	12:43:21	478989	5.0.10.0	4_exp_AWA_CON_EVA_AMP	95	Rpleas_acq	Oppo	Rpleas	Amasked	CS_A	2pleas	distractor2	CONbeforeEVA	acq_US_pleas_masked	acq45_masked	4	17	400	1	300	300	0	0	410	46	0	0	0	0	0	1	blank2r.bmp	0	1	+	0	7	C3r.bmp	492	1	blank2r.bmp	786	1	DHJF	786	1	blank2r.bmp	866	6	anregung	866	1	!	1239	1	!	1306	0	0	0	0	0	0	0	0	0	0	0	0	0	0	0	0	0	0	0	0	0	0	0	0	0	0	0
012919	12:35:22	12:43:23	481135	5.0.10.0	4_exp_AWA_CON_EVA_AMP	95	Rpleas_acq	Oppo	Rpleas	Amasked	CS_A	2pleas	distractor2	CONbeforeEVA	acq_US_pleas_masked	acq45_masked	4	18	400	1	300	300	0	0	349	46	0	0	0	0	0	1	blank2r.bmp	0	1	+	0	8	C4r.bmp	492	1	blank2r.bmp	786	1	DHJF	786	1	blank2r.bmp	866	2	kreativ	866	1	!	1239	1	!	1252	0	0	0	0	0	0	0	0	0	0	0	0	0	0	0	0	0	0	0	0	0	0	0	0	0	0	0
012919	12:35:22	12:43:26	483387	5.0.10.0	4_exp_AWA_CON_EVA_AMP	95	Rpleas_acq	Oppo	Rpleas	Amasked	CS_A	2pleas	distractor2	CONbeforeEVA	acq_US_pleas_masked	acq45_masked	4	19	400	0	300	300	0	0	479	50	0	1	0	0	0	1	blank2r.bmp	0	1	+	0	1	B1r.bmp	492	1	blank2r.bmp	786	1	DHJF	786	1	blank2r.bmp	866	4	genießen	866	1	!	1239	1	!	-1	0	0	0	0	0	0	0	0	0	0	0	0	0	0	0	0	0	0	0	0	0	0	0	0	0	0	0
012919	12:35:22	12:43:28	485639	5.0.10.0	4_exp_AWA_CON_EVA_AMP	95	Rpleas_acq	Oppo	Rpleas	Amasked	CS_A	2pleas	distractor2	CONbeforeEVA	acq_US_unple_masked	acq45_masked	4	20	400	1	300	300	0	0	438	46	0	1	0	0	0	1	blank2r.bmp	0	1	+	0	6	C2r.bmp	492	1	blank2r.bmp	786	1	CPLW	786	1	blank2r.bmp	866	4	gemein	866	1	!	1239	1	!	1346	0	0	0	0	0	0	0	0	0	0	0	0	0	0	0	0	0	0	0	0	0	0	0	0	0	0	0
012919	12:35:22	12:43:30	487905	5.0.10.0	4_exp_AWA_CON_EVA_AMP	95	Rpleas_acq	Oppo	Rpleas	Amasked	CS_A	2pleas	distractor2	CONbeforeEVA	acq_US_unple_masked	acq45_masked	4	21	400	0	300	300	0	0	500	50	0	0	0	0	0	1	blank2r.bmp	0	1	+	0	3	B3r.bmp	492	1	blank2r.bmp	786	1	CPLW	786	1	blank2r.bmp	866	6	ausrottung	866	1	!	1239	1	!	-1	0	0	0	0	0	0	0	0	0	0	0	0	0	0	0	0	0	0	0	0	0	0	0	0	0	0	0
012919	12:35:22	12:43:32	490078	5.0.10.0	4_exp_AWA_CON_EVA_AMP	95	Rpleas_acq	Oppo	Rpleas	Amasked	CS_A	2pleas	distractor2	CONbeforeEVA	acq_US_unple_masked	acq45_masked	4	22	400	1	300	300	0	0	365	46	0	1	0	0	0	1	blank2r.bmp	0	1	+	0	5	C1r.bmp	492	1	blank2r.bmp	786	1	CPLW	786	1	blank2r.bmp	866	1	töten	866	1	!	1239	1	!	1266	0	0	0	0	0	0	0	0	0	0	0	0	0	0	0	0	0	0	0	0	0	0	0	0	0	0	0
012919	12:35:22	12:43:35	492223	5.0.10.0	4_exp_AWA_CON_EVA_AMP	95	Rpleas_acq	Oppo	Rpleas	Amasked	CS_A	2pleas	distractor2	CONbeforeEVA	acq_US_pleas_masked	acq45_masked	4	23	400	1	300	300	0	0	347	46	0	0	0	0	0	1	blank2r.bmp	0	1	+	0	8	C4r.bmp	492	1	blank2r.bmp	786	1	DHJF	786	1	blank2r.bmp	866	3	vergnügt	866	1	!	1239	1	!	1252	0	0	0	0	0	0	0	0	0	0	0	0	0	0	0	0	0	0	0	0	0	0	0	0	0	0	0
012919	12:35:22	12:43:37	494409	5.0.10.0	4_exp_AWA_CON_EVA_AMP	95	Rpleas_acq	Oppo	Rpleas	Amasked	CS_A	2pleas	distractor2	CONbeforeEVA	acq_US_pleas_masked	acq45_masked	4	24	400	1	300	300	0	0	396	46	0	0	0	0	0	1	blank2r.bmp	0	1	+	0	4	B4r.bmp	492	1	blank2r.bmp	786	1	DHJF	786	1	blank2r.bmp	866	1	träumen	866	1	!	1239	1	!	1292	0	0	0	0	0	0	0	0	0	0	0	0	0	0	0	0	0	0	0	0	0	0	0	0	0	0	0
012919	12:35:22	12:43:39	496555	5.0.10.0	4_exp_AWA_CON_EVA_AMP	95	Rpleas_acq	Oppo	Rpleas	Amasked	CS_A	2pleas	distractor2	CONbeforeEVA	acq_US_unple_masked	acq45_masked	4	25	400	1	300	300	0	0	352	50	0	0	0	0	0	1	blank2r.bmp	0	1	+	0	7	C3r.bmp	492	1	blank2r.bmp	786	1	CPLW	786	1	blank2r.bmp	866	5	geizig	866	1	!	1239	1	!	1252	0	0	0	0	0	0	0	0	0	0	0	0	0	0	0	0	0	0	0	0	0	0	0	0	0	0	0
012919	12:35:22	12:43:41	498767	5.0.10.0	4_exp_AWA_CON_EVA_AMP	95	Rpleas_acq	Oppo	Rpleas	Amasked	CS_A	2pleas	distractor2	CONbeforeEVA	acq_US_pleas_masked	acq45_masked	4	26	400	1	300	300	0	0	423	46	0	0	0	0	0	1	blank2r.bmp	0	1	+	0	6	C2r.bmp	492	1	blank2r.bmp	786	1	DHJF	786	1	blank2r.bmp	866	1	träumen	866	1	!	1239	1	!	1319	0	0	0	0	0	0	0	0	0	0	0	0	0	0	0	0	0	0	0	0	0	0	0	0	0	0	0
012919	12:35:22	12:43:43	500953	5.0.10.0	4_exp_AWA_CON_EVA_AMP	95	Rpleas_acq	Oppo	Rpleas	Amasked	CS_A	2pleas	distractor2	CONbeforeEVA	acq_US_pleas_masked	acq45_masked	4	27	400	1	300	300	0	0	387	50	0	1	0	0	0	1	blank2r.bmp	0	1	+	0	1	B1r.bmp	492	1	blank2r.bmp	786	1	DHJF	786	1	blank2r.bmp	866	2	kreativ	866	1	!	1239	1	!	1292	0	0	0	0	0	0	0	0	0	0	0	0	0	0	0	0	0	0	0	0	0	0	0	0	0	0	0
012919	12:35:22	12:43:46	504179	5.0.10.0	4_exp_AWA_CON_EVA_AMP	95	Rpleas_acq	Oppo	Rpleas	Amasked	CS_A	2pleas	distractor2	CONbeforeEVA	acq_US_pleas_masked	acq45_masked	4	28	400	0	300	300	0	0	1457	50	0	1	0	0	0	1	blank2r.bmp	0	1	+	0	2	B2r.bmp	492	1	blank2r.bmp	786	1	DHJF	786	1	blank2r.bmp	866	5	gesittet	866	1	!	1239	1	!	-1	0	0	0	0	0	0	0	0	0	0	0	0	0	0	0	0	0	0	0	0	0	0	0	0	0	0	0
012919	12:35:22	12:43:49	506444	5.0.10.0	4_exp_AWA_CON_EVA_AMP	95	Rpleas_acq	Oppo	Rpleas	Amasked	CS_A	2pleas	distractor2	CONbeforeEVA	acq_US_unple_masked	acq45_masked	4	29	400	1	300	300	0	0	453	46	0	1	0	0	0	1	blank2r.bmp	0	1	+	0	3	B3r.bmp	492	1	blank2r.bmp	786	1	CPLW	786	1	blank2r.bmp	866	3	verbissen	866	1	!	1239	1	!	1359	0	0	0	0	0	0	0	0	0	0	0	0	0	0	0	0	0	0	0	0	0	0	0	0	0	0	0
012919	12:35:22	12:43:51	508630	5.0.10.0	4_exp_AWA_CON_EVA_AMP	95	Rpleas_acq	Oppo	Rpleas	Amasked	CS_A	2pleas	distractor2	CONbeforeEVA	acq_US_pleas_masked	acq45_masked	4	30	400	1	300	300	0	0	390	50	0	1	0	0	0	1	blank2r.bmp	0	1	+	0	2	B2r.bmp	492	1	blank2r.bmp	786	1	DHJF	786	1	blank2r.bmp	866	6	anregung	866	1	!	1239	1	!	1292	0	0	0	0	0	0	0	0	0	0	0	0	0	0	0	0	0	0	0	0	0	0	0	0	0	0	0
012919	12:35:22	12:43:53	510882	5.0.10.0	4_exp_AWA_CON_EVA_AMP	95	Rpleas_acq	Oppo	Rpleas	Amasked	CS_A	2pleas	distractor2	CONbeforeEVA	acq_US_unple_masked	acq45_masked	4	31	400	1	300	300	0	0	446	46	0	1	0	0	0	1	blank2r.bmp	0	1	+	0	5	C1r.bmp	492	1	blank2r.bmp	786	1	CPLW	786	1	blank2r.bmp	866	6	ausrottung	866	1	!	1239	1	!	1346	0	0	0	0	0	0	0	0	0	0	0	0	0	0	0	0	0	0	0	0	0	0	0	0	0	0	0
012919	12:35:22	12:43:55	513095	5.0.10.0	4_exp_AWA_CON_EVA_AMP	95	Rpleas_acq	Oppo	Rpleas	Amasked	CS_A	2pleas	distractor2	CONbeforeEVA	acq_US_unple_masked	acq45_masked	4	32	400	1	300	300	0	0	423	46	0	1	0	0	0	1	blank2r.bmp	0	1	+	0	1	B1r.bmp	492	1	blank2r.bmp	786	1	CPLW	786	1	blank2r.bmp	866	2	krank	866	1	!	1239	1	!	1319	0	0	0	0	0	0	0	0	0	0	0	0	0	0	0	0	0	0	0	0	0	0	0	0	0	0	0
012919	12:35:22	12:43:58	515321	5.0.10.0	4_exp_AWA_CON_EVA_AMP	95	Rpleas_acq	Oppo	Rpleas	Amasked	CS_A	2pleas	distractor2	CONbeforeEVA	acq_US_pleas_masked	acq45_masked	4	33	400	1	300	300	0	0	428	46	0	0	0	0	0	1	blank2r.bmp	0	1	+	0	7	C3r.bmp	492	1	blank2r.bmp	786	1	DHJF	786	1	blank2r.bmp	866	3	vergnügt	866	1	!	1239	1	!	1332	0	0	0	0	0	0	0	0	0	0	0	0	0	0	0	0	0	0	0	0	0	0	0	0	0	0	0
012919	12:35:22	12:44:00	517466	5.0.10.0	4_exp_AWA_CON_EVA_AMP	95	Rpleas_acq	Oppo	Rpleas	Amasked	CS_A	2pleas	distractor2	CONbeforeEVA	acq_US_unple_masked	acq45_masked	4	34	400	1	300	300	0	0	358	50	0	0	0	0	0	1	blank2r.bmp	0	1	+	0	4	B4r.bmp	492	1	blank2r.bmp	786	1	CPLW	786	1	blank2r.bmp	866	1	töten	866	1	!	1239	1	!	1252	0	0	0	0	0	0	0	0	0	0	0	0	0	0	0	0	0	0	0	0	0	0	0	0	0	0	0
012919	12:35:22	12:44:02	519705	5.0.10.0	4_exp_AWA_CON_EVA_AMP	95	Rpleas_acq	Oppo	Rpleas	Amasked	CS_A	2pleas	distractor2	CONbeforeEVA	acq_US_unple_masked	acq45_masked	4	35	400	1	300	300	0	0	449	46	0	1	0	0	0	1	blank2r.bmp	0	1	+	0	6	C2r.bmp	492	1	blank2r.bmp	786	1	CPLW	786	1	blank2r.bmp	866	4	gemein	866	1	!	1239	1	!	1346	0	0	0	0	0	0	0	0	0	0	0	0	0	0	0	0	0	0	0	0	0	0	0	0	0	0	0
012919	12:35:22	12:44:04	521958	5.0.10.0	4_exp_AWA_CON_EVA_AMP	95	Rpleas_acq	Oppo	Rpleas	Amasked	CS_A	2pleas	distractor2	CONbeforeEVA	acq_US_pleas_masked	acq45_masked	4	36	400	1	300	300	0	0	459	50	0	1	0	0	0	1	blank2r.bmp	0	1	+	0	8	C4r.bmp	492	1	blank2r.bmp	786	1	DHJF	786	1	blank2r.bmp	866	4	genießen	866	1	!	1239	1	!	1359	0	0	0	0	0	0	0	0	0	0	0	0	0	0	0	0	0	0	0	0	0	0	0	0	0	0	0
012919	12:35:22	12:44:16	533620	5.0.10.0	4_exp_AWA_CON_EVA_AMP	95	Rpleas_acq	Oppo	Rpleas	Amasked	CS_A	2pleas	distractor2	CONbeforeEVA	acq_US_pleas_masked	acq45_masked	5	1	400	0	300	300	0	0	560	46	0	0	0	0	0	1	blank2r.bmp	0	1	+	0	6	C2r.bmp	492	1	blank2r.bmp	786	1	DHJF	786	1	blank2r.bmp	866	3	vergnügt	866	1	!	1239	1	!	-1	0	0	0	0	0	0	0	0	0	0	0	0	0	0	0	0	0	0	0	0	0	0	0	0	0	0	0
012919	12:35:22	12:44:18	535899	5.0.10.0	4_exp_AWA_CON_EVA_AMP	95	Rpleas_acq	Oppo	Rpleas	Amasked	CS_A	2pleas	distractor2	CONbeforeEVA	acq_US_unple_masked	acq45_masked	5	2	400	0	300	300	0	0	497	46	0	1	0	0	0	1	blank2r.bmp	0	1	+	0	7	C3r.bmp	492	1	blank2r.bmp	786	1	CPLW	786	1	blank2r.bmp	866	6	ausrottung	866	1	!	1239	1	!	-1	0	0	0	0	0	0	0	0	0	0	0	0	0	0	0	0	0	0	0	0	0	0	0	0	0	0	0
012919	12:35:22	12:44:20	538138	5.0.10.0	4_exp_AWA_CON_EVA_AMP	95	Rpleas_acq	Oppo	Rpleas	Amasked	CS_A	2pleas	distractor2	CONbeforeEVA	acq_US_pleas_masked	acq45_masked	5	3	400	1	300	300	0	0	431	50	0	1	0	0	0	1	blank2r.bmp	0	1	+	0	3	B3r.bmp	492	1	blank2r.bmp	786	1	DHJF	786	1	blank2r.bmp	866	5	gesittet	866	1	!	1239	1	!	1332	0	0	0	0	0	0	0	0	0	0	0	0	0	0	0	0	0	0	0	0	0	0	0	0	0	0	0
012919	12:35:22	12:44:23	540390	5.0.10.0	4_exp_AWA_CON_EVA_AMP	95	Rpleas_acq	Oppo	Rpleas	Amasked	CS_A	2pleas	distractor2	CONbeforeEVA	acq_US_pleas_masked	acq45_masked	5	4	400	0	300	300	0	0	486	46	0	0	0	0	0	1	blank2r.bmp	0	1	+	0	4	B4r.bmp	492	1	blank2r.bmp	786	1	DHJF	786	1	blank2r.bmp	866	6	anregung	866	1	!	1239	1	!	-1	0	0	0	0	0	0	0	0	0	0	0	0	0	0	0	0	0	0	0	0	0	0	0	0	0	0	0
012919	12:35:22	12:44:25	542616	5.0.10.0	4_exp_AWA_CON_EVA_AMP	95	Rpleas_acq	Oppo	Rpleas	Amasked	CS_A	2pleas	distractor2	CONbeforeEVA	acq_US_unple_masked	acq45_masked	5	5	400	1	300	300	0	0	416	46	0	1	0	0	0	1	blank2r.bmp	0	1	+	0	5	C1r.bmp	492	1	blank2r.bmp	786	1	CPLW	786	1	blank2r.bmp	866	2	krank	866	1	!	1239	1	!	1319	0	0	0	0	0	0	0	0	0	0	0	0	0	0	0	0	0	0	0	0	0	0	0	0	0	0	0
012919	12:35:22	12:44:27	544868	5.0.10.0	4_exp_AWA_CON_EVA_AMP	95	Rpleas_acq	Oppo	Rpleas	Amasked	CS_A	2pleas	distractor2	CONbeforeEVA	acq_US_unple_masked	acq45_masked	5	6	400	1	300	300	0	0	463	46	0	1	0	0	0	1	blank2r.bmp	0	1	+	0	2	B2r.bmp	492	1	blank2r.bmp	786	1	CPLW	786	1	blank2r.bmp	866	3	verbissen	866	1	!	1239	1	!	1359	0	0	0	0	0	0	0	0	0	0	0	0	0	0	0	0	0	0	0	0	0	0	0	0	0	0	0
012919	12:35:22	12:44:29	547028	5.0.10.0	4_exp_AWA_CON_EVA_AMP	95	Rpleas_acq	Oppo	Rpleas	Amasked	CS_A	2pleas	distractor2	CONbeforeEVA	acq_US_unple_masked	acq45_masked	5	7	400	1	300	300	0	0	366	50	0	0	0	0	0	1	blank2r.bmp	0	1	+	0	8	C4r.bmp	492	1	blank2r.bmp	786	1	CPLW	786	1	blank2r.bmp	866	5	geizig	866	1	!	1239	1	!	1266	0	0	0	0	0	0	0	0	0	0	0	0	0	0	0	0	0	0	0	0	0	0	0	0	0	0	0
012919	12:35:22	12:44:32	549213	5.0.10.0	4_exp_AWA_CON_EVA_AMP	95	Rpleas_acq	Oppo	Rpleas	Amasked	CS_A	2pleas	distractor2	CONbeforeEVA	acq_US_pleas_masked	acq45_masked	5	8	400	1	300	300	0	0	388	50	0	1	0	0	0	1	blank2r.bmp	0	1	+	0	1	B1r.bmp	492	1	blank2r.bmp	786	1	DHJF	786	1	blank2r.bmp	866	1	träumen	866	1	!	1239	1	!	1292	0	0	0	0	0	0	0	0	0	0	0	0	0	0	0	0	0	0	0	0	0	0	0	0	0	0	0
012919	12:35:22	12:44:34	551492	5.0.10.0	4_exp_AWA_CON_EVA_AMP	95	Rpleas_acq	Oppo	Rpleas	Amasked	CS_A	2pleas	distractor2	CONbeforeEVA	acq_US_pleas_masked	acq45_masked	5	9	400	0	300	300	0	0	508	50	0	1	0	0	0	1	blank2r.bmp	0	1	+	0	3	B3r.bmp	492	1	blank2r.bmp	786	1	DHJF	786	1	blank2r.bmp	866	4	genießen	866	1	!	1239	1	!	-1	0	0	0	0	0	0	0	0	0	0	0	0	0	0	0	0	0	0	0	0	0	0	0	0	0	0	0
012919	12:35:22	12:44:36	553651	5.0.10.0	4_exp_AWA_CON_EVA_AMP	95	Rpleas_acq	Oppo	Rpleas	Amasked	CS_A	2pleas	distractor2	CONbeforeEVA	acq_US_unple_masked	acq45_masked	5	10	400	1	300	300	0	0	354	46	0	1	0	0	0	1	blank2r.bmp	0	1	+	0	7	C3r.bmp	492	1	blank2r.bmp	786	1	CPLW	786	1	blank2r.bmp	866	1	töten	866	1	!	1239	1	!	1252	0	0	0	0	0	0	0	0	0	0	0	0	0	0	0	0	0	0	0	0	0	0	0	0	0	0	0
012919	12:35:22	12:44:38	555824	5.0.10.0	4_exp_AWA_CON_EVA_AMP	95	Rpleas_acq	Oppo	Rpleas	Amasked	CS_A	2pleas	distractor2	CONbeforeEVA	acq_US_pleas_masked	acq45_masked	5	11	400	1	300	300	0	0	367	46	0	0	0	0	0	1	blank2r.bmp	0	1	+	0	2	B2r.bmp	492	1	blank2r.bmp	786	1	DHJF	786	1	blank2r.bmp	866	2	kreativ	866	1	!	1239	1	!	1266	0	0	0	0	0	0	0	0	0	0	0	0	0	0	0	0	0	0	0	0	0	0	0	0	0	0	0
012919	12:35:22	12:44:40	558036	5.0.10.0	4_exp_AWA_CON_EVA_AMP	95	Rpleas_acq	Oppo	Rpleas	Amasked	CS_A	2pleas	distractor2	CONbeforeEVA	acq_US_unple_masked	acq45_masked	5	12	400	1	300	300	0	0	423	50	0	0	0	0	0	1	blank2r.bmp	0	1	+	0	6	C2r.bmp	492	1	blank2r.bmp	786	1	CPLW	786	1	blank2r.bmp	866	4	gemein	866	1	!	1239	1	!	1319	0	0	0	0	0	0	0	0	0	0	0	0	0	0	0	0	0	0	0	0	0	0	0	0	0	0	0
012919	12:35:22	12:44:43	560382	5.0.10.0	4_exp_AWA_CON_EVA_AMP	95	Rpleas_acq	Oppo	Rpleas	Amasked	CS_A	2pleas	distractor2	CONbeforeEVA	acq_US_pleas_masked	acq45_masked	5	13	400	0	300	300	0	0	564	50	0	1	0	0	0	1	blank2r.bmp	0	1	+	0	1	B1r.bmp	492	1	blank2r.bmp	786	1	DHJF	786	1	blank2r.bmp	866	3	vergnügt	866	1	!	1239	1	!	-1	0	0	0	0	0	0	0	0	0	0	0	0	0	0	0	0	0	0	0	0	0	0	0	0	0	0	0
012919	12:35:22	12:44:45	562648	5.0.10.0	4_exp_AWA_CON_EVA_AMP	95	Rpleas_acq	Oppo	Rpleas	Amasked	CS_A	2pleas	distractor2	CONbeforeEVA	acq_US_pleas_masked	acq45_masked	5	14	400	0	300	300	0	0	479	46	0	0	0	0	0	1	blank2r.bmp	0	1	+	0	8	C4r.bmp	492	1	blank2r.bmp	786	1	DHJF	786	1	blank2r.bmp	866	5	gesittet	866	1	!	1239	1	!	-1	0	0	0	0	0	0	0	0	0	0	0	0	0	0	0	0	0	0	0	0	0	0	0	0	0	0	0
012919	12:35:22	12:44:47	564993	5.0.10.0	4_exp_AWA_CON_EVA_AMP	95	Rpleas_acq	Oppo	Rpleas	Amasked	CS_A	2pleas	distractor2	CONbeforeEVA	acq_US_unple_masked	acq45_masked	5	15	400	0	300	300	0	0	565	46	0	1	0	0	0	1	blank2r.bmp	0	1	+	0	4	B4r.bmp	492	1	blank2r.bmp	786	1	CPLW	786	1	blank2r.bmp	866	2	krank	866	1	!	1239	1	!	-1	0	0	0	0	0	0	0	0	0	0	0	0	0	0	0	0	0	0	0	0	0	0	0	0	0	0	0
012919	12:35:22	12:44:50	567219	5.0.10.0	4_exp_AWA_CON_EVA_AMP	95	Rpleas_acq	Oppo	Rpleas	Amasked	CS_A	2pleas	distractor2	CONbeforeEVA	acq_US_unple_masked	acq45_masked	5	16	400	1	300	300	0	0	420	50	0	0	0	0	0	1	blank2r.bmp	0	1	+	0	5	C1r.bmp	492	1	blank2r.bmp	786	1	CPLW	786	1	blank2r.bmp	866	5	geizig	866	1	!	1239	1	!	1319	0	0	0	0	0	0	0	0	0	0	0	0	0	0	0	0	0	0	0	0	0	0	0	0	0	0	0
012919	12:35:22	12:44:52	569458	5.0.10.0	4_exp_AWA_CON_EVA_AMP	95	Rpleas_acq	Oppo	Rpleas	Amasked	CS_A	2pleas	distractor2	CONbeforeEVA	acq_US_unple_masked	acq45_masked	5	17	400	1	300	300	0	0	440	46	0	1	0	0	0	1	blank2r.bmp	0	1	+	0	8	C4r.bmp	492	1	blank2r.bmp	786	1	CPLW	786	1	blank2r.bmp	866	6	ausrottung	866	1	!	1239	1	!	1346	0	0	0	0	0	0	0	0	0	0	0	0	0	0	0	0	0	0	0	0	0	0	0	0	0	0	0
012919	12:35:22	12:44:54	571724	5.0.10.0	4_exp_AWA_CON_EVA_AMP	95	Rpleas_acq	Oppo	Rpleas	Amasked	CS_A	2pleas	distractor2	CONbeforeEVA	acq_US_pleas_masked	acq45_masked	5	18	400	0	300	300	0	0	502	50	0	1	0	0	0	1	blank2r.bmp	0	1	+	0	4	B4r.bmp	492	1	blank2r.bmp	786	1	DHJF	786	1	blank2r.bmp	866	2	kreativ	866	1	!	1239	1	!	-1	0	0	0	0	0	0	0	0	0	0	0	0	0	0	0	0	0	0	0	0	0	0	0	0	0	0	0
012919	12:35:22	12:44:56	573910	5.0.10.0	4_exp_AWA_CON_EVA_AMP	95	Rpleas_acq	Oppo	Rpleas	Amasked	CS_A	2pleas	distractor2	CONbeforeEVA	acq_US_pleas_masked	acq45_masked	5	19	400	1	300	300	0	0	376	50	0	1	0	0	0	1	blank2r.bmp	0	1	+	0	5	C1r.bmp	492	1	blank2r.bmp	786	1	DHJF	786	1	blank2r.bmp	866	6	anregung	866	1	!	1239	1	!	1279	0	0	0	0	0	0	0	0	0	0	0	0	0	0	0	0	0	0	0	0	0	0	0	0	0	0	0
012919	12:35:22	12:44:58	576056	5.0.10.0	4_exp_AWA_CON_EVA_AMP	95	Rpleas_acq	Oppo	Rpleas	Amasked	CS_A	2pleas	distractor2	CONbeforeEVA	acq_US_unple_masked	acq45_masked	5	20	400	1	300	300	0	0	347	46	0	1	0	0	0	1	blank2r.bmp	0	1	+	0	6	C2r.bmp	492	1	blank2r.bmp	786	1	CPLW	786	1	blank2r.bmp	866	3	verbissen	866	1	!	1239	1	!	1252	0	0	0	0	0	0	0	0	0	0	0	0	0	0	0	0	0	0	0	0	0	0	0	0	0	0	0
012919	12:35:22	12:45:01	578308	5.0.10.0	4_exp_AWA_CON_EVA_AMP	95	Rpleas_acq	Oppo	Rpleas	Amasked	CS_A	2pleas	distractor2	CONbeforeEVA	acq_US_unple_masked	acq45_masked	5	21	400	1	300	300	0	0	464	46	0	1	0	0	0	1	blank2r.bmp	0	1	+	0	1	B1r.bmp	492	1	blank2r.bmp	786	1	CPLW	786	1	blank2r.bmp	866	1	töten	866	1	!	1239	1	!	1359	0	0	0	0	0	0	0	0	0	0	0	0	0	0	0	0	0	0	0	0	0	0	0	0	0	0	0
012919	12:35:22	12:45:03	580467	5.0.10.0	4_exp_AWA_CON_EVA_AMP	95	Rpleas_acq	Oppo	Rpleas	Amasked	CS_A	2pleas	distractor2	CONbeforeEVA	acq_US_pleas_masked	acq45_masked	5	22	400	1	300	300	0	0	363	50	0	1	0	0	0	1	blank2r.bmp	0	1	+	0	2	B2r.bmp	492	1	blank2r.bmp	786	1	DHJF	786	1	blank2r.bmp	866	1	träumen	866	1	!	1239	1	!	1266	0	0	0	0	0	0	0	0	0	0	0	0	0	0	0	0	0	0	0	0	0	0	0	0	0	0	0
012919	12:35:22	12:45:05	582680	5.0.10.0	4_exp_AWA_CON_EVA_AMP	95	Rpleas_acq	Oppo	Rpleas	Amasked	CS_A	2pleas	distractor2	CONbeforeEVA	acq_US_pleas_masked	acq45_masked	5	23	400	1	300	300	0	0	423	50	0	1	0	0	0	1	blank2r.bmp	0	1	+	0	7	C3r.bmp	492	1	blank2r.bmp	786	1	DHJF	786	1	blank2r.bmp	866	4	genießen	866	1	!	1239	1	!	1319	0	0	0	0	0	0	0	0	0	0	0	0	0	0	0	0	0	0	0	0	0	0	0	0	0	0	0
012919	12:35:22	12:45:07	584825	5.0.10.0	4_exp_AWA_CON_EVA_AMP	95	Rpleas_acq	Oppo	Rpleas	Amasked	CS_A	2pleas	distractor2	CONbeforeEVA	acq_US_pleas_masked	acq45_masked	5	24	400	1	300	300	0	0	359	46	0	0	0	0	0	1	blank2r.bmp	0	1	+	0	3	B3r.bmp	492	1	blank2r.bmp	786	1	DHJF	786	1	blank2r.bmp	866	3	vergnügt	866	1	!	1239	1	!	1252	0	0	0	0	0	0	0	0	0	0	0	0	0	0	0	0	0	0	0	0	0	0	0	0	0	0	0
012919	12:35:22	12:45:09	586864	5.0.10.0	4_exp_AWA_CON_EVA_AMP	95	Rpleas_acq	Oppo	Rpleas	Amasked	CS_A	2pleas	distractor2	CONbeforeEVA	acq_US_pleas_masked	acq45_masked	5	25	400	0	300	300	0	0	278	46	0	0	0	0	0	1	blank2r.bmp	0	1	+	0	1	B1r.bmp	492	1	blank2r.bmp	786	1	DHJF	786	1	blank2r.bmp	866	1	träumen	866	1	!	-1	1	!	-1	0	0	0	0	0	0	0	0	0	0	0	0	0	0	0	0	0	0	0	0	0	0	0	0	0	0	0
012919	12:35:22	12:45:11	589104	5.0.10.0	4_exp_AWA_CON_EVA_AMP	95	Rpleas_acq	Oppo	Rpleas	Amasked	CS_A	2pleas	distractor2	CONbeforeEVA	acq_US_pleas_masked	acq45_masked	5	26	400	1	300	300	0	0	426	50	0	1	0	0	0	1	blank2r.bmp	0	1	+	0	5	C1r.bmp	492	1	blank2r.bmp	786	1	DHJF	786	1	blank2r.bmp	866	2	kreativ	866	1	!	1239	1	!	1332	0	0	0	0	0	0	0	0	0	0	0	0	0	0	0	0	0	0	0	0	0	0	0	0	0	0	0
012919	12:35:22	12:45:14	591409	5.0.10.0	4_exp_AWA_CON_EVA_AMP	95	Rpleas_acq	Oppo	Rpleas	Amasked	CS_A	2pleas	distractor2	CONbeforeEVA	acq_US_pleas_masked	acq45_masked	5	27	400	0	300	300	0	0	540	50	0	1	0	0	0	1	blank2r.bmp	0	1	+	0	4	B4r.bmp	492	1	blank2r.bmp	786	1	DHJF	786	1	blank2r.bmp	866	5	gesittet	866	1	!	1239	1	!	-1	0	0	0	0	0	0	0	0	0	0	0	0	0	0	0	0	0	0	0	0	0	0	0	0	0	0	0
012919	12:35:22	12:45:16	593688	5.0.10.0	4_exp_AWA_CON_EVA_AMP	95	Rpleas_acq	Oppo	Rpleas	Amasked	CS_A	2pleas	distractor2	CONbeforeEVA	acq_US_pleas_masked	acq45_masked	5	28	400	0	300	300	0	0	494	50	0	1	0	0	0	1	blank2r.bmp	0	1	+	0	2	B2r.bmp	492	1	blank2r.bmp	786	1	DHJF	786	1	blank2r.bmp	866	6	anregung	866	1	!	1239	1	!	-1	0	0	0	0	0	0	0	0	0	0	0	0	0	0	0	0	0	0	0	0	0	0	0	0	0	0	0
012919	12:35:22	12:45:18	595901	5.0.10.0	4_exp_AWA_CON_EVA_AMP	95	Rpleas_acq	Oppo	Rpleas	Amasked	CS_A	2pleas	distractor2	CONbeforeEVA	acq_US_unple_masked	acq45_masked	5	29	400	1	300	300	0	0	400	50	0	0	0	0	0	1	blank2r.bmp	0	1	+	0	8	C4r.bmp	492	1	blank2r.bmp	786	1	CPLW	786	1	blank2r.bmp	866	4	gemein	866	1	!	1239	1	!	1306	0	0	0	0	0	0	0	0	0	0	0	0	0	0	0	0	0	0	0	0	0	0	0	0	0	0	0
012919	12:35:22	12:45:20	598087	5.0.10.0	4_exp_AWA_CON_EVA_AMP	95	Rpleas_acq	Oppo	Rpleas	Amasked	CS_A	2pleas	distractor2	CONbeforeEVA	acq_US_unple_masked	acq45_masked	5	30	400	1	300	300	0	0	388	50	0	0	0	0	0	1	blank2r.bmp	0	1	+	0	3	B3r.bmp	492	1	blank2r.bmp	786	1	CPLW	786	1	blank2r.bmp	866	4	gemein	866	1	!	1239	1	!	1292	0	0	0	0	0	0	0	0	0	0	0	0	0	0	0	0	0	0	0	0	0	0	0	0	0	0	0
012919	12:35:22	12:45:23	600339	5.0.10.0	4_exp_AWA_CON_EVA_AMP	95	Rpleas_acq	Oppo	Rpleas	Amasked	CS_A	2pleas	distractor2	CONbeforeEVA	acq_US_unple_masked	acq45_masked	5	31	400	0	300	300	0	0	491	46	0	1	0	0	0	1	blank2r.bmp	0	1	+	0	6	C2r.bmp	492	1	blank2r.bmp	786	1	CPLW	786	1	blank2r.bmp	866	2	krank	866	1	!	1239	1	!	-1	0	0	0	0	0	0	0	0	0	0	0	0	0	0	0	0	0	0	0	0	0	0	0	0	0	0	0
012919	12:35:22	12:45:25	602605	5.0.10.0	4_exp_AWA_CON_EVA_AMP	95	Rpleas_acq	Oppo	Rpleas	Amasked	CS_A	2pleas	distractor2	CONbeforeEVA	acq_US_unple_masked	acq45_masked	5	32	400	0	300	300	0	0	483	50	0	0	0	0	0	1	blank2r.bmp	0	1	+	0	7	C3r.bmp	492	1	blank2r.bmp	786	1	CPLW	786	1	blank2r.bmp	866	6	ausrottung	866	1	!	1239	1	!	-1	0	0	0	0	0	0	0	0	0	0	0	0	0	0	0	0	0	0	0	0	0	0	0	0	0	0	0
012919	12:35:22	12:45:27	605017	5.0.10.0	4_exp_AWA_CON_EVA_AMP	95	Rpleas_acq	Oppo	Rpleas	Amasked	CS_A	2pleas	distractor2	CONbeforeEVA	acq_US_unple_masked	acq45_masked	5	33	400	0	300	300	0	0	636	46	0	1	0	0	0	1	blank2r.bmp	0	1	+	0	8	C4r.bmp	492	1	blank2r.bmp	786	1	CPLW	786	1	blank2r.bmp	866	5	geizig	866	1	!	1239	1	!	-1	0	0	0	0	0	0	0	0	0	0	0	0	0	0	0	0	0	0	0	0	0	0	0	0	0	0	0
012919	12:35:22	12:45:30	607203	5.0.10.0	4_exp_AWA_CON_EVA_AMP	95	Rpleas_acq	Oppo	Rpleas	Amasked	CS_A	2pleas	distractor2	CONbeforeEVA	acq_US_unple_masked	acq45_masked	5	34	400	1	300	300	0	0	380	46	0	1	0	0	0	1	blank2r.bmp	0	1	+	0	4	B4r.bmp	492	1	blank2r.bmp	786	1	CPLW	786	1	blank2r.bmp	866	3	verbissen	866	1	!	1239	1	!	1279	0	0	0	0	0	0	0	0	0	0	0	0	0	0	0	0	0	0	0	0	0	0	0	0	0	0	0
012919	12:35:22	12:45:32	609415	5.0.10.0	4_exp_AWA_CON_EVA_AMP	95	Rpleas_acq	Oppo	Rpleas	Amasked	CS_A	2pleas	distractor2	CONbeforeEVA	acq_US_unple_masked	acq45_masked	5	35	400	1	300	300	0	0	416	50	0	0	0	0	0	1	blank2r.bmp	0	1	+	0	5	C1r.bmp	492	1	blank2r.bmp	786	1	CPLW	786	1	blank2r.bmp	866	1	töten	866	1	!	1239	1	!	1319	0	0	0	0	0	0	0	0	0	0	0	0	0	0	0	0	0	0	0	0	0	0	0	0	0	0	0
012919	12:35:22	12:45:34	611614	5.0.10.0	4_exp_AWA_CON_EVA_AMP	95	Rpleas_acq	Oppo	Rpleas	Amasked	CS_A	2pleas	distractor2	CONbeforeEVA	acq_US_pleas_masked	acq45_masked	5	36	400	1	300	300	0	0	400	46	0	0	0	0	0	1	blank2r.bmp	0	1	+	0	2	B2r.bmp	492	1	blank2r.bmp	786	1	DHJF	786	1	blank2r.bmp	866	4	genießen	866	1	!	1239	1	!	1306	0	0	0	0	0	0	0	0	0	0	0	0	0	0	0	0	0	0	0	0	0	0	0	0	0	0	0
012919	12:35:22	12:46:53	690795	5.0.10.0	4_exp_AWA_CON_EVA_AMP	95	Rpleas_acq	Oppo	Lpleas	Amasked	CS_A	2pleas	distractor2	CONbeforeEVA	cond_new_pleas_456_masked_CS1	condtest_masked_1	8	1	400	0	300	300	0	0	535	46	0	1	0	0	0	1	blank2r.bmp	0	1	+	0	6	C2r.bmp	492	1	blank2r.bmp	786	1	CPLW	786	1	blank2r.bmp	866	3	kuss	866	1	!	1239	1	!	-1	0	0	0	0	0	0	0	0	0	0	0	0	0	0	0	0	0	0	0	0	0	0	0	0	0	0	0
012919	12:35:22	12:46:55	693007	5.0.10.0	4_exp_AWA_CON_EVA_AMP	95	Rpleas_acq	Oppo	Lpleas	Amasked	CS_A	2pleas	distractor2	CONbeforeEVA	cond_US_pleas_123_masked_CS1	condtest_masked_1	8	2	400	1	300	300	0	0	403	46	0	1	0	0	0	1	blank2r.bmp	0	1	+	0	7	C3r.bmp	492	1	blank2r.bmp	786	1	CPLW	786	1	blank2r.bmp	866	2	kreativ	866	1	!	1239	1	!	1306	0	0	0	0	0	0	0	0	0	0	0	0	0	0	0	0	0	0	0	0	0	0	0	0	0	0	0
012919	12:35:22	12:46:58	695260	5.0.10.0	4_exp_AWA_CON_EVA_AMP	95	Rpleas_acq	Oppo	Lpleas	Amasked	CS_A	2pleas	distractor2	CONbeforeEVA	cond_US_unple_123_masked_CS2	condtest_masked_1	8	3	400	1	300	300	0	0	451	50	0	1	0	0	0	1	blank2r.bmp	0	1	+	0	3	B3r.bmp	492	1	blank2r.bmp	786	1	DHJF	786	1	blank2r.bmp	866	2	krank	866	1	!	1239	1	!	1346	0	0	0	0	0	0	0	0	0	0	0	0	0	0	0	0	0	0	0	0	0	0	0	0	0	0	0
012919	12:35:22	12:47:00	697486	5.0.10.0	4_exp_AWA_CON_EVA_AMP	95	Rpleas_acq	Oppo	Lpleas	Amasked	CS_A	2pleas	distractor2	CONbeforeEVA	cond_new_unple_456_masked_CS1	condtest_masked_1	8	4	400	1	300	300	0	0	437	46	0	0	0	0	0	1	blank2r.bmp	0	1	+	0	1	B1r.bmp	492	1	blank2r.bmp	786	1	CPLW	786	1	blank2r.bmp	866	3	krise	866	1	!	1239	1	!	1332	0	0	0	0	0	0	0	0	0	0	0	0	0	0	0	0	0	0	0	0	0	0	0	0	0	0	0
012919	12:35:22	12:47:02	699751	5.0.10.0	4_exp_AWA_CON_EVA_AMP	95	Rpleas_acq	Oppo	Lpleas	Amasked	CS_A	2pleas	distractor2	CONbeforeEVA	cond_new_unple_456_masked_CS2	condtest_masked_1	8	5	400	0	300	300	0	0	495	46	0	0	0	0	0	1	blank2r.bmp	0	1	+	0	4	B4r.bmp	492	1	blank2r.bmp	786	1	DHJF	786	1	blank2r.bmp	866	1	sterben	866	1	!	1239	1	!	-1	0	0	0	0	0	0	0	0	0	0	0	0	0	0	0	0	0	0	0	0	0	0	0	0	0	0	0
012919	12:35:22	12:47:04	702110	5.0.10.0	4_exp_AWA_CON_EVA_AMP	95	Rpleas_acq	Oppo	Lpleas	Amasked	CS_A	2pleas	distractor2	CONbeforeEVA	cond_US_pleas_123_masked_CS2	condtest_masked_1	8	6	400	0	300	300	0	0	572	46	0	1	0	0	0	1	blank2r.bmp	0	1	+	0	5	C1r.bmp	492	1	blank2r.bmp	786	1	DHJF	786	1	blank2r.bmp	866	3	vergnügt	866	1	!	1239	1	!	-1	0	0	0	0	0	0	0	0	0	0	0	0	0	0	0	0	0	0	0	0	0	0	0	0	0	0	0
012919	12:35:22	12:47:07	704310	5.0.10.0	4_exp_AWA_CON_EVA_AMP	95	Rpleas_acq	Oppo	Lpleas	Amasked	CS_A	2pleas	distractor2	CONbeforeEVA	cond_US_unple_123_masked_CS1	condtest_masked_1	8	7	400	1	300	300	0	0	395	50	0	1	0	0	0	1	blank2r.bmp	0	1	+	0	6	C2r.bmp	492	1	blank2r.bmp	786	1	CPLW	786	1	blank2r.bmp	866	1	töten	866	1	!	1239	1	!	1292	0	0	0	0	0	0	0	0	0	0	0	0	0	0	0	0	0	0	0	0	0	0	0	0	0	0	0
012919	12:35:22	12:47:09	706549	5.0.10.0	4_exp_AWA_CON_EVA_AMP	95	Rpleas_acq	Oppo	Lpleas	Amasked	CS_A	2pleas	distractor2	CONbeforeEVA	cond_new_pleas_456_masked_CS2	condtest_masked_1	8	8	400	1	300	300	0	0	440	46	0	1	0	0	0	1	blank2r.bmp	0	1	+	0	3	B3r.bmp	492	1	blank2r.bmp	786	1	DHJF	786	1	blank2r.bmp	866	2	vertrauen	866	1	!	1239	1	!	1346	0	0	0	0	0	0	0	0	0	0	0	0	0	0	0	0	0	0	0	0	0	0	0	0	0	0	0
012919	12:35:22	12:47:23	720623	5.0.10.0	4_exp_AWA_CON_EVA_AMP	95	Rpleas_acq	Oppo	Lpleas	Amasked	CS_A	2pleas	distractor2	CONbeforeEVA	cond_US_unple_123_masked_CS1	condtest_masked_2	9	1	400	1	300	300	0	0	453	50	0	1	0	0	0	1	blank2r.bmp	0	1	+	0	8	C4r.bmp	492	1	blank2r.bmp	786	1	CPLW	786	1	blank2r.bmp	866	3	verbissen	866	1	!	1239	1	!	1359	0	0	0	0	0	0	0	0	0	0	0	0	0	0	0	0	0	0	0	0	0	0	0	0	0	0	0
012919	12:35:22	12:47:25	722849	5.0.10.0	4_exp_AWA_CON_EVA_AMP	95	Rpleas_acq	Oppo	Lpleas	Amasked	CS_A	2pleas	distractor2	CONbeforeEVA	cond_new_unple_456_masked_CS2	condtest_masked_2	9	2	400	1	300	300	0	0	431	46	0	0	0	0	0	1	blank2r.bmp	0	1	+	0	1	B1r.bmp	492	1	blank2r.bmp	786	1	DHJF	786	1	blank2r.bmp	866	2	versagen	866	1	!	1239	1	!	1332	0	0	0	0	0	0	0	0	0	0	0	0	0	0	0	0	0	0	0	0	0	0	0	0	0	0	0
012919	12:35:22	12:47:27	725021	5.0.10.0	4_exp_AWA_CON_EVA_AMP	95	Rpleas_acq	Oppo	Lpleas	Amasked	CS_A	2pleas	distractor2	CONbeforeEVA	cond_US_unple_123_masked_CS2	condtest_masked_2	9	3	400	1	300	300	0	0	359	50	0	1	0	0	0	1	blank2r.bmp	0	1	+	0	2	B2r.bmp	492	1	blank2r.bmp	786	1	DHJF	786	1	blank2r.bmp	866	1	töten	866	1	!	1239	1	!	1266	0	0	0	0	0	0	0	0	0	0	0	0	0	0	0	0	0	0	0	0	0	0	0	0	0	0	0
012919	12:35:22	12:47:30	727247	5.0.10.0	4_exp_AWA_CON_EVA_AMP	95	Rpleas_acq	Oppo	Lpleas	Amasked	CS_A	2pleas	distractor2	CONbeforeEVA	cond_new_unple_456_masked_CS2	condtest_masked_2	9	4	400	1	300	300	0	0	428	50	0	1	0	0	0	1	blank2r.bmp	0	1	+	0	7	C3r.bmp	492	1	blank2r.bmp	786	1	DHJF	786	1	blank2r.bmp	866	3	krise	866	1	!	1239	1	!	1332	0	0	0	0	0	0	0	0	0	0	0	0	0	0	0	0	0	0	0	0	0	0	0	0	0	0	0
012919	12:35:22	12:47:32	729499	5.0.10.0	4_exp_AWA_CON_EVA_AMP	95	Rpleas_acq	Oppo	Lpleas	Amasked	CS_A	2pleas	distractor2	CONbeforeEVA	cond_US_pleas_123_masked_CS2	condtest_masked_2	9	5	400	0	300	300	0	0	487	46	0	1	0	0	0	1	blank2r.bmp	0	1	+	0	1	B1r.bmp	492	1	blank2r.bmp	786	1	DHJF	786	1	blank2r.bmp	866	1	träumen	866	1	!	1239	1	!	-1	0	0	0	0	0	0	0	0	0	0	0	0	0	0	0	0	0	0	0	0	0	0	0	0	0	0	0
012919	12:35:22	12:47:34	731765	5.0.10.0	4_exp_AWA_CON_EVA_AMP	95	Rpleas_acq	Oppo	Lpleas	Amasked	CS_A	2pleas	distractor2	CONbeforeEVA	cond_new_pleas_456_masked_CS1	condtest_masked_2	9	6	400	1	300	300	0	0	454	46	0	1	0	0	0	1	blank2r.bmp	0	1	+	0	8	C4r.bmp	492	1	blank2r.bmp	786	1	CPLW	786	1	blank2r.bmp	866	1	sonnig	866	1	!	1239	1	!	1359	0	0	0	0	0	0	0	0	0	0	0	0	0	0	0	0	0	0	0	0	0	0	0	0	0	0	0
012919	12:35:22	12:47:36	734084	5.0.10.0	4_exp_AWA_CON_EVA_AMP	95	Rpleas_acq	Oppo	Lpleas	Amasked	CS_A	2pleas	distractor2	CONbeforeEVA	cond_new_unple_456_masked_CS1	condtest_masked_2	9	7	400	0	300	300	0	0	554	50	0	1	0	0	0	1	blank2r.bmp	0	1	+	0	7	C3r.bmp	492	1	blank2r.bmp	786	1	CPLW	786	1	blank2r.bmp	866	1	sterben	866	1	!	1239	1	!	-1	0	0	0	0	0	0	0	0	0	0	0	0	0	0	0	0	0	0	0	0	0	0	0	0	0	0	0
012919	12:35:22	12:47:39	736283	5.0.10.0	4_exp_AWA_CON_EVA_AMP	95	Rpleas_acq	Oppo	Lpleas	Amasked	CS_A	2pleas	distractor2	CONbeforeEVA	cond_new_pleas_456_masked_CS2	condtest_masked_2	9	8	400	1	300	300	0	0	378	46	0	1	0	0	0	1	blank2r.bmp	0	1	+	0	3	B3r.bmp	492	1	blank2r.bmp	786	1	DHJF	786	1	blank2r.bmp	866	1	sonnig	866	1	!	1239	1	!	1279	0	0	0	0	0	0	0	0	0	0	0	0	0	0	0	0	0	0	0	0	0	0	0	0	0	0	0
012919	12:35:22	12:47:41	738562	5.0.10.0	4_exp_AWA_CON_EVA_AMP	95	Rpleas_acq	Oppo	Lpleas	Amasked	CS_A	2pleas	distractor2	CONbeforeEVA	cond_new_pleas_456_masked_CS2	condtest_masked_2	9	9	400	0	300	300	0	0	506	50	0	0	0	0	0	1	blank2r.bmp	0	1	+	0	2	B2r.bmp	492	1	blank2r.bmp	786	1	DHJF	786	1	blank2r.bmp	866	2	vertrauen	866	1	!	1239	1	!	-1	0	0	0	0	0	0	0	0	0	0	0	0	0	0	0	0	0	0	0	0	0	0	0	0	0	0	0
012919	12:35:22	12:47:43	740735	5.0.10.0	4_exp_AWA_CON_EVA_AMP	95	Rpleas_acq	Oppo	Lpleas	Amasked	CS_A	2pleas	distractor2	CONbeforeEVA	cond_US_unple_123_masked_CS1	condtest_masked_2	9	10	400	1	300	300	0	0	361	50	0	1	0	0	0	1	blank2r.bmp	0	1	+	0	5	C1r.bmp	492	1	blank2r.bmp	786	1	CPLW	786	1	blank2r.bmp	866	3	verbissen	866	1	!	1239	1	!	1266	0	0	0	0	0	0	0	0	0	0	0	0	0	0	0	0	0	0	0	0	0	0	0	0	0	0	0
012919	12:35:22	12:47:45	743147	5.0.10.0	4_exp_AWA_CON_EVA_AMP	95	Rpleas_acq	Oppo	Lpleas	Amasked	CS_A	2pleas	distractor2	CONbeforeEVA	cond_US_unple_123_masked_CS1	condtest_masked_2	9	11	400	0	300	300	0	0	640	46	0	0	0	0	0	1	blank2r.bmp	0	1	+	0	6	C2r.bmp	492	1	blank2r.bmp	786	1	CPLW	786	1	blank2r.bmp	866	2	krank	866	1	!	1239	1	!	-1	0	0	0	0	0	0	0	0	0	0	0	0	0	0	0	0	0	0	0	0	0	0	0	0	0	0	0
012919	12:35:22	12:47:48	745439	5.0.10.0	4_exp_AWA_CON_EVA_AMP	95	Rpleas_acq	Oppo	Lpleas	Amasked	CS_A	2pleas	distractor2	CONbeforeEVA	cond_new_pleas_456_masked_CS2	condtest_masked_2	9	12	400	0	300	300	0	0	497	50	0	0	0	0	0	1	blank2r.bmp	0	1	+	0	4	B4r.bmp	492	1	blank2r.bmp	786	1	DHJF	786	1	blank2r.bmp	866	3	kuss	866	1	!	1239	1	!	-1	0	0	0	0	0	0	0	0	0	0	0	0	0	0	0	0	0	0	0	0	0	0	0	0	0	0	0
012919	12:35:22	12:47:50	747878	5.0.10.0	4_exp_AWA_CON_EVA_AMP	95	Rpleas_acq	Oppo	Lpleas	Amasked	CS_A	2pleas	distractor2	CONbeforeEVA	cond_US_unple_123_masked_CS2	condtest_masked_2	9	13	400	0	300	300	0	0	648	50	0	1	0	0	0	1	blank2r.bmp	0	1	+	0	6	C2r.bmp	492	1	blank2r.bmp	786	1	DHJF	786	1	blank2r.bmp	866	2	krank	866	1	!	1239	1	!	-1	0	0	0	0	0	0	0	0	0	0	0	0	0	0	0	0	0	0	0	0	0	0	0	0	0	0	0
012919	12:35:22	12:47:52	750144	5.0.10.0	4_exp_AWA_CON_EVA_AMP	95	Rpleas_acq	Oppo	Lpleas	Amasked	CS_A	2pleas	distractor2	CONbeforeEVA	cond_new_unple_456_masked_CS1	condtest_masked_2	9	14	400	1	300	300	0	0	461	50	0	1	0	0	0	1	blank2r.bmp	0	1	+	0	7	C3r.bmp	492	1	blank2r.bmp	786	1	CPLW	786	1	blank2r.bmp	866	2	versagen	866	1	!	1239	1	!	1359	0	0	0	0	0	0	0	0	0	0	0	0	0	0	0	0	0	0	0	0	0	0	0	0	0	0	0
012919	12:35:22	12:47:55	752396	5.0.10.0	4_exp_AWA_CON_EVA_AMP	95	Rpleas_acq	Oppo	Lpleas	Amasked	CS_A	2pleas	distractor2	CONbeforeEVA	cond_US_pleas_123_masked_CS1	condtest_masked_2	9	15	400	1	300	300	0	0	464	46	0	1	0	0	0	1	blank2r.bmp	0	1	+	0	2	B2r.bmp	492	1	blank2r.bmp	786	1	CPLW	786	1	blank2r.bmp	866	1	träumen	866	1	!	1239	1	!	1359	0	0	0	0	0	0	0	0	0	0	0	0	0	0	0	0	0	0	0	0	0	0	0	0	0	0	0
012919	12:35:22	12:47:57	754635	5.0.10.0	4_exp_AWA_CON_EVA_AMP	95	Rpleas_acq	Oppo	Lpleas	Amasked	CS_A	2pleas	distractor2	CONbeforeEVA	cond_US_unple_123_masked_CS2	condtest_masked_2	9	16	400	1	300	300	0	0	427	46	0	0	0	0	0	1	blank2r.bmp	0	1	+	0	3	B3r.bmp	492	1	blank2r.bmp	786	1	DHJF	786	1	blank2r.bmp	866	1	töten	866	1	!	1239	1	!	1332	0	0	0	0	0	0	0	0	0	0	0	0	0	0	0	0	0	0	0	0	0	0	0	0	0	0	0
012919	12:35:22	12:47:59	756848	5.0.10.0	4_exp_AWA_CON_EVA_AMP	95	Rpleas_acq	Oppo	Lpleas	Amasked	CS_A	2pleas	distractor2	CONbeforeEVA	cond_US_pleas_123_masked_CS1	condtest_masked_2	9	17	400	1	300	300	0	0	424	50	0	0	0	0	0	1	blank2r.bmp	0	1	+	0	4	B4r.bmp	492	1	blank2r.bmp	786	1	CPLW	786	1	blank2r.bmp	866	3	vergnügt	866	1	!	1239	1	!	1319	0	0	0	0	0	0	0	0	0	0	0	0	0	0	0	0	0	0	0	0	0	0	0	0	0	0	0
012919	12:35:22	12:48:01	759167	5.0.10.0	4_exp_AWA_CON_EVA_AMP	95	Rpleas_acq	Oppo	Lpleas	Amasked	CS_A	2pleas	distractor2	CONbeforeEVA	cond_new_unple_456_masked_CS1	condtest_masked_2	9	18	400	0	300	300	0	0	550	50	0	1	0	0	0	1	blank2r.bmp	0	1	+	0	1	B1r.bmp	492	1	blank2r.bmp	786	1	CPLW	786	1	blank2r.bmp	866	1	sterben	866	1	!	1239	1	!	-1	0	0	0	0	0	0	0	0	0	0	0	0	0	0	0	0	0	0	0	0	0	0	0	0	0	0	0
012919	12:35:22	12:48:04	761406	5.0.10.0	4_exp_AWA_CON_EVA_AMP	95	Rpleas_acq	Oppo	Lpleas	Amasked	CS_A	2pleas	distractor2	CONbeforeEVA	cond_new_pleas_456_masked_CS1	condtest_masked_2	9	19	400	1	300	300	0	0	422	46	0	1	0	0	0	1	blank2r.bmp	0	1	+	0	8	C4r.bmp	492	1	blank2r.bmp	786	1	CPLW	786	1	blank2r.bmp	866	3	kuss	866	1	!	1239	1	!	1319	0	0	0	0	0	0	0	0	0	0	0	0	0	0	0	0	0	0	0	0	0	0	0	0	0	0	0
012919	12:35:22	12:48:06	763698	5.0.10.0	4_exp_AWA_CON_EVA_AMP	95	Rpleas_acq	Oppo	Lpleas	Amasked	CS_A	2pleas	distractor2	CONbeforeEVA	cond_US_pleas_123_masked_CS2	condtest_masked_2	9	20	400	0	300	300	0	0	518	46	0	1	0	0	0	1	blank2r.bmp	0	1	+	0	5	C1r.bmp	492	1	blank2r.bmp	786	1	DHJF	786	1	blank2r.bmp	866	2	kreativ	866	1	!	1239	1	!	-1	0	0	0	0	0	0	0	0	0	0	0	0	0	0	0	0	0	0	0	0	0	0	0	0	0	0	0
012919	12:35:22	12:48:08	765884	5.0.10.0	4_exp_AWA_CON_EVA_AMP	95	Rpleas_acq	Oppo	Lpleas	Amasked	CS_A	2pleas	distractor2	CONbeforeEVA	cond_US_unple_123_masked_CS1	condtest_masked_2	9	21	400	1	300	300	0	0	384	50	0	1	0	0	0	1	blank2r.bmp	0	1	+	0	3	B3r.bmp	492	1	blank2r.bmp	786	1	CPLW	786	1	blank2r.bmp	866	3	verbissen	866	1	!	1239	1	!	1279	0	0	0	0	0	0	0	0	0	0	0	0	0	0	0	0	0	0	0	0	0	0	0	0	0	0	0
012919	12:35:22	12:48:10	768097	5.0.10.0	4_exp_AWA_CON_EVA_AMP	95	Rpleas_acq	Oppo	Lpleas	Amasked	CS_A	2pleas	distractor2	CONbeforeEVA	cond_new_unple_456_masked_CS1	condtest_masked_2	9	22	400	1	300	300	0	0	417	50	0	1	0	0	0	1	blank2r.bmp	0	1	+	0	2	B2r.bmp	492	1	blank2r.bmp	786	1	CPLW	786	1	blank2r.bmp	866	2	versagen	866	1	!	1239	1	!	1319	0	0	0	0	0	0	0	0	0	0	0	0	0	0	0	0	0	0	0	0	0	0	0	0	0	0	0
012919	12:35:22	12:48:13	770282	5.0.10.0	4_exp_AWA_CON_EVA_AMP	95	Rpleas_acq	Oppo	Lpleas	Amasked	CS_A	2pleas	distractor2	CONbeforeEVA	cond_new_pleas_456_masked_CS1	condtest_masked_2	9	23	400	1	300	300	0	0	394	50	0	0	0	0	0	1	blank2r.bmp	0	1	+	0	1	B1r.bmp	492	1	blank2r.bmp	786	1	CPLW	786	1	blank2r.bmp	866	2	vertrauen	866	1	!	1239	1	!	1292	0	0	0	0	0	0	0	0	0	0	0	0	0	0	0	0	0	0	0	0	0	0	0	0	0	0	0
012919	12:35:22	12:48:15	772495	5.0.10.0	4_exp_AWA_CON_EVA_AMP	95	Rpleas_acq	Oppo	Lpleas	Amasked	CS_A	2pleas	distractor2	CONbeforeEVA	cond_new_pleas_456_masked_CS1	condtest_masked_2	9	24	400	1	300	300	0	0	423	46	0	1	0	0	0	1	blank2r.bmp	0	1	+	0	6	C2r.bmp	492	1	blank2r.bmp	786	1	CPLW	786	1	blank2r.bmp	866	1	sonnig	866	1	!	1239	1	!	1319	0	0	0	0	0	0	0	0	0	0	0	0	0	0	0	0	0	0	0	0	0	0	0	0	0	0	0
012919	12:35:22	12:48:17	774774	5.0.10.0	4_exp_AWA_CON_EVA_AMP	95	Rpleas_acq	Oppo	Lpleas	Amasked	CS_A	2pleas	distractor2	CONbeforeEVA	cond_US_pleas_123_masked_CS2	condtest_masked_2	9	25	400	0	300	300	0	0	513	50	0	0	0	0	0	1	blank2r.bmp	0	1	+	0	8	C4r.bmp	492	1	blank2r.bmp	786	1	DHJF	786	1	blank2r.bmp	866	2	kreativ	866	1	!	1239	1	!	-1	0	0	0	0	0	0	0	0	0	0	0	0	0	0	0	0	0	0	0	0	0	0	0	0	0	0	0
012919	12:35:22	12:48:19	776880	5.0.10.0	4_exp_AWA_CON_EVA_AMP	95	Rpleas_acq	Oppo	Lpleas	Amasked	CS_A	2pleas	distractor2	CONbeforeEVA	cond_US_pleas_123_masked_CS1	condtest_masked_2	9	26	400	0	300	300	0	0	325	46	0	1	0	0	0	1	blank2r.bmp	0	1	+	0	4	B4r.bmp	492	1	blank2r.bmp	786	1	CPLW	786	1	blank2r.bmp	866	1	träumen	866	1	!	-1	1	!	-1	0	0	0	0	0	0	0	0	0	0	0	0	0	0	0	0	0	0	0	0	0	0	0	0	0	0	0
012919	12:35:22	12:48:21	779065	5.0.10.0	4_exp_AWA_CON_EVA_AMP	95	Rpleas_acq	Oppo	Lpleas	Amasked	CS_A	2pleas	distractor2	CONbeforeEVA	cond_US_pleas_123_masked_CS2	condtest_masked_2	9	27	400	1	300	300	0	0	385	46	0	1	0	0	0	1	blank2r.bmp	0	1	+	0	7	C3r.bmp	492	1	blank2r.bmp	786	1	DHJF	786	1	blank2r.bmp	866	3	vergnügt	866	1	!	1239	1	!	1279	0	0	0	0	0	0	0	0	0	0	0	0	0	0	0	0	0	0	0	0	0	0	0	0	0	0	0
012919	12:35:22	12:48:24	781225	5.0.10.0	4_exp_AWA_CON_EVA_AMP	95	Rpleas_acq	Oppo	Lpleas	Amasked	CS_A	2pleas	distractor2	CONbeforeEVA	cond_US_pleas_123_masked_CS2	condtest_masked_2	9	28	400	1	300	300	0	0	361	46	0	1	0	0	0	1	blank2r.bmp	0	1	+	0	5	C1r.bmp	492	1	blank2r.bmp	786	1	DHJF	786	1	blank2r.bmp	866	3	vergnügt	866	1	!	1239	1	!	1266	0	0	0	0	0	0	0	0	0	0	0	0	0	0	0	0	0	0	0	0	0	0	0	0	0	0	0
012919	12:35:22	12:48:26	783384	5.0.10.0	4_exp_AWA_CON_EVA_AMP	95	Rpleas_acq	Oppo	Lpleas	Amasked	CS_A	2pleas	distractor2	CONbeforeEVA	cond_new_pleas_456_masked_CS2	condtest_masked_2	9	29	400	1	300	300	0	0	346	50	0	0	0	0	0	1	blank2r.bmp	0	1	+	0	5	C1r.bmp	492	1	blank2r.bmp	786	1	DHJF	786	1	blank2r.bmp	866	1	sonnig	866	1	!	1239	1	!	1252	0	0	0	0	0	0	0	0	0	0	0	0	0	0	0	0	0	0	0	0	0	0	0	0	0	0	0
012919	12:35:22	12:48:28	785609	5.0.10.0	4_exp_AWA_CON_EVA_AMP	95	Rpleas_acq	Oppo	Lpleas	Amasked	CS_A	2pleas	distractor2	CONbeforeEVA	cond_new_pleas_456_masked_CS2	condtest_masked_2	9	30	400	1	300	300	0	0	432	46	0	1	0	0	0	1	blank2r.bmp	0	1	+	0	6	C2r.bmp	492	1	blank2r.bmp	786	1	DHJF	786	1	blank2r.bmp	866	3	kuss	866	1	!	1239	1	!	1332	0	0	0	0	0	0	0	0	0	0	0	0	0	0	0	0	0	0	0	0	0	0	0	0	0	0	0
012919	12:35:22	12:48:30	787808	5.0.10.0	4_exp_AWA_CON_EVA_AMP	95	Rpleas_acq	Oppo	Lpleas	Amasked	CS_A	2pleas	distractor2	CONbeforeEVA	cond_new_pleas_456_masked_CS1	condtest_masked_2	9	31	400	1	300	300	0	0	408	46	0	1	0	0	0	1	blank2r.bmp	0	1	+	0	2	B2r.bmp	492	1	blank2r.bmp	786	1	CPLW	786	1	blank2r.bmp	866	2	vertrauen	866	1	!	1239	1	!	1306	0	0	0	0	0	0	0	0	0	0	0	0	0	0	0	0	0	0	0	0	0	0	0	0	0	0	0
012919	12:35:22	12:48:32	790061	5.0.10.0	4_exp_AWA_CON_EVA_AMP	95	Rpleas_acq	Oppo	Lpleas	Amasked	CS_A	2pleas	distractor2	CONbeforeEVA	cond_new_unple_456_masked_CS1	condtest_masked_2	9	32	400	1	300	300	0	0	465	50	0	1	0	0	0	1	blank2r.bmp	0	1	+	0	3	B3r.bmp	492	1	blank2r.bmp	786	1	CPLW	786	1	blank2r.bmp	866	3	krise	866	1	!	1239	1	!	1359	0	0	0	0	0	0	0	0	0	0	0	0	0	0	0	0	0	0	0	0	0	0	0	0	0	0	0
012919	12:35:22	12:48:35	792313	5.0.10.0	4_exp_AWA_CON_EVA_AMP	95	Rpleas_acq	Oppo	Lpleas	Amasked	CS_A	2pleas	distractor2	CONbeforeEVA	cond_US_unple_123_masked_CS1	condtest_masked_2	9	33	400	0	300	300	0	0	482	50	0	1	0	0	0	1	blank2r.bmp	0	1	+	0	7	C3r.bmp	492	1	blank2r.bmp	786	1	CPLW	786	1	blank2r.bmp	866	2	krank	866	1	!	1239	1	!	-1	0	0	0	0	0	0	0	0	0	0	0	0	0	0	0	0	0	0	0	0	0	0	0	0	0	0	0
012919	12:35:22	12:48:37	794486	5.0.10.0	4_exp_AWA_CON_EVA_AMP	95	Rpleas_acq	Oppo	Lpleas	Amasked	CS_A	2pleas	distractor2	CONbeforeEVA	cond_US_pleas_123_masked_CS1	condtest_masked_2	9	34	400	1	300	300	0	0	364	46	0	1	0	0	0	1	blank2r.bmp	0	1	+	0	1	B1r.bmp	492	1	blank2r.bmp	786	1	CPLW	786	1	blank2r.bmp	866	2	kreativ	866	1	!	1239	1	!	1266	0	0	0	0	0	0	0	0	0	0	0	0	0	0	0	0	0	0	0	0	0	0	0	0	0	0	0
012919	12:35:22	12:48:39	796658	5.0.10.0	4_exp_AWA_CON_EVA_AMP	95	Rpleas_acq	Oppo	Lpleas	Amasked	CS_A	2pleas	distractor2	CONbeforeEVA	cond_US_unple_123_masked_CS2	condtest_masked_2	9	35	400	1	300	300	0	0	372	50	0	1	0	0	0	1	blank2r.bmp	0	1	+	0	8	C4r.bmp	492	1	blank2r.bmp	786	1	DHJF	786	1	blank2r.bmp	866	1	töten	866	1	!	1239	1	!	1279	0	0	0	0	0	0	0	0	0	0	0	0	0	0	0	0	0	0	0	0	0	0	0	0	0	0	0
012919	12:35:22	12:48:41	798844	5.0.10.0	4_exp_AWA_CON_EVA_AMP	95	Rpleas_acq	Oppo	Lpleas	Amasked	CS_A	2pleas	distractor2	CONbeforeEVA	cond_new_unple_456_masked_CS2	condtest_masked_2	9	36	400	1	300	300	0	0	395	50	0	1	0	0	0	1	blank2r.bmp	0	1	+	0	4	B4r.bmp	492	1	blank2r.bmp	786	1	DHJF	786	1	blank2r.bmp	866	2	versagen	866	1	!	1239	1	!	1292	0	0	0	0	0	0	0	0	0	0	0	0	0	0	0	0	0	0	0	0	0	0	0	0	0	0	0
012919	12:35:22	12:48:43	801043	5.0.10.0	4_exp_AWA_CON_EVA_AMP	95	Rpleas_acq	Oppo	Lpleas	Amasked	CS_A	2pleas	distractor2	CONbeforeEVA	cond_US_pleas_123_masked_CS1	condtest_masked_2	9	37	400	1	300	300	0	0	402	46	0	1	0	0	0	1	blank2r.bmp	0	1	+	0	4	B4r.bmp	492	1	blank2r.bmp	786	1	CPLW	786	1	blank2r.bmp	866	1	träumen	866	1	!	1239	1	!	1306	0	0	0	0	0	0	0	0	0	0	0	0	0	0	0	0	0	0	0	0	0	0	0	0	0	0	0
012919	12:35:22	12:48:46	803189	5.0.10.0	4_exp_AWA_CON_EVA_AMP	95	Rpleas_acq	Oppo	Lpleas	Amasked	CS_A	2pleas	distractor2	CONbeforeEVA	cond_new_unple_456_masked_CS2	condtest_masked_2	9	38	400	1	300	300	0	0	358	50	0	1	0	0	0	1	blank2r.bmp	0	1	+	0	6	C2r.bmp	492	1	blank2r.bmp	786	1	DHJF	786	1	blank2r.bmp	866	1	sterben	866	1	!	1239	1	!	1252	0	0	0	0	0	0	0	0	0	0	0	0	0	0	0	0	0	0	0	0	0	0	0	0	0	0	0
012919	12:35:22	12:48:48	805348	5.0.10.0	4_exp_AWA_CON_EVA_AMP	95	Rpleas_acq	Oppo	Lpleas	Amasked	CS_A	2pleas	distractor2	CONbeforeEVA	cond_new_unple_456_masked_CS2	condtest_masked_2	9	39	400	1	300	300	0	0	346	46	0	0	0	0	0	1	blank2r.bmp	0	1	+	0	2	B2r.bmp	492	1	blank2r.bmp	786	1	DHJF	786	1	blank2r.bmp	866	3	krise	866	1	!	1239	1	!	1252	0	0	0	0	0	0	0	0	0	0	0	0	0	0	0	0	0	0	0	0	0	0	0	0	0	0	0
012919	12:35:22	12:48:50	807574	5.0.10.0	4_exp_AWA_CON_EVA_AMP	95	Rpleas_acq	Oppo	Lpleas	Amasked	CS_A	2pleas	distractor2	CONbeforeEVA	cond_US_unple_123_masked_CS2	condtest_masked_2	9	40	400	1	300	300	0	0	436	50	0	1	0	0	0	1	blank2r.bmp	0	1	+	0	1	B1r.bmp	492	1	blank2r.bmp	786	1	DHJF	786	1	blank2r.bmp	866	3	verbissen	866	1	!	1239	1	!	1332	0	0	0	0	0	0	0	0	0	0	0	0	0	0	0	0	0	0	0	0	0	0	0	0	0	0	0
012919	12:35:22	12:49:10	827912	5.0.10.0	4_exp_AWA_CON_EVA_AMP	95	Rpleas_acq	Oppo	Lpleas	Amasked	CS_A	2pleas	distractor2	CONbeforeEVA	cond_US_unple_456_masked_CS2	condtest_masked_3	10	1	400	1	300	300	0	0	350	50	0	1	0	0	0	1	blank2r.bmp	0	1	+	0	3	B3r.bmp	492	1	blank2r.bmp	786	1	DHJF	786	1	blank2r.bmp	866	2	geizig	866	1	!	1239	1	!	1252	0	0	0	0	0	0	0	0	0	0	0	0	0	0	0	0	0	0	0	0	0	0	0	0	0	0	0
012919	12:35:22	12:49:13	830204	5.0.10.0	4_exp_AWA_CON_EVA_AMP	95	Rpleas_acq	Oppo	Lpleas	Amasked	CS_A	2pleas	distractor2	CONbeforeEVA	cond_new_pleas_123_masked_CS2	condtest_masked_3	10	2	400	0	300	300	0	0	523	50	0	0	0	0	0	1	blank2r.bmp	0	1	+	0	5	C1r.bmp	492	1	blank2r.bmp	786	1	DHJF	786	1	blank2r.bmp	866	2	engagiert	866	1	!	1239	1	!	-1	0	0	0	0	0	0	0	0	0	0	0	0	0	0	0	0	0	0	0	0	0	0	0	0	0	0	0
012919	12:35:22	12:49:15	832377	5.0.10.0	4_exp_AWA_CON_EVA_AMP	95	Rpleas_acq	Oppo	Lpleas	Amasked	CS_A	2pleas	distractor2	CONbeforeEVA	cond_US_pleas_456_masked_CS2	condtest_masked_3	10	3	400	1	300	300	0	0	369	50	0	0	0	0	0	1	blank2r.bmp	0	1	+	0	7	C3r.bmp	492	1	blank2r.bmp	786	1	DHJF	786	1	blank2r.bmp	866	2	gesittet	866	1	!	1239	1	!	1266	0	0	0	0	0	0	0	0	0	0	0	0	0	0	0	0	0	0	0	0	0	0	0	0	0	0	0
012919	12:35:22	12:49:17	834629	5.0.10.0	4_exp_AWA_CON_EVA_AMP	95	Rpleas_acq	Oppo	Lpleas	Amasked	CS_A	2pleas	distractor2	CONbeforeEVA	cond_US_unple_456_masked_CS2	condtest_masked_3	10	4	400	1	300	300	0	0	442	46	0	0	0	0	0	1	blank2r.bmp	0	1	+	0	8	C4r.bmp	492	1	blank2r.bmp	786	1	DHJF	786	1	blank2r.bmp	866	1	gemein	866	1	!	1239	1	!	1346	0	0	0	0	0	0	0	0	0	0	0	0	0	0	0	0	0	0	0	0	0	0	0	0	0	0	0
012919	12:35:22	12:49:20	837255	5.0.10.0	4_exp_AWA_CON_EVA_AMP	95	Rpleas_acq	Oppo	Lpleas	Amasked	CS_A	2pleas	distractor2	CONbeforeEVA	cond_US_unple_456_masked_CS2	condtest_masked_3	10	5	400	0	300	300	0	0	859	50	0	1	0	0	0	1	blank2r.bmp	0	1	+	0	8	C4r.bmp	492	1	blank2r.bmp	786	1	DHJF	786	1	blank2r.bmp	866	3	ausrottung	866	1	!	1239	1	!	-1	0	0	0	0	0	0	0	0	0	0	0	0	0	0	0	0	0	0	0	0	0	0	0	0	0	0	0
012919	12:35:22	12:49:22	839521	5.0.10.0	4_exp_AWA_CON_EVA_AMP	95	Rpleas_acq	Oppo	Lpleas	Amasked	CS_A	2pleas	distractor2	CONbeforeEVA	cond_new_pleas_123_masked_CS2	condtest_masked_3	10	6	400	0	300	300	0	0	489	46	0	1	0	0	0	1	blank2r.bmp	0	1	+	0	7	C3r.bmp	492	1	blank2r.bmp	786	1	DHJF	786	1	blank2r.bmp	866	1	gütig	866	1	!	1239	1	!	-1	0	0	0	0	0	0	0	0	0	0	0	0	0	0	0	0	0	0	0	0	0	0	0	0	0	0	0
012919	12:35:22	12:49:24	841693	5.0.10.0	4_exp_AWA_CON_EVA_AMP	95	Rpleas_acq	Oppo	Lpleas	Amasked	CS_A	2pleas	distractor2	CONbeforeEVA	cond_new_pleas_123_masked_CS1	condtest_masked_3	10	7	400	1	300	300	0	0	365	46	0	1	0	0	0	1	blank2r.bmp	0	1	+	0	2	B2r.bmp	492	1	blank2r.bmp	786	1	CPLW	786	1	blank2r.bmp	866	3	besonnen	866	1	!	1239	1	!	1266	0	0	0	0	0	0	0	0	0	0	0	0	0	0	0	0	0	0	0	0	0	0	0	0	0	0	0
012919	12:35:22	12:49:26	843865	5.0.10.0	4_exp_AWA_CON_EVA_AMP	95	Rpleas_acq	Oppo	Lpleas	Amasked	CS_A	2pleas	distractor2	CONbeforeEVA	cond_new_pleas_123_masked_CS2	condtest_masked_3	10	8	400	1	300	300	0	0	376	46	0	1	0	0	0	1	blank2r.bmp	0	1	+	0	6	C2r.bmp	492	1	blank2r.bmp	786	1	DHJF	786	1	blank2r.bmp	866	3	besonnen	866	1	!	1239	1	!	1279	0	0	0	0	0	0	0	0	0	0	0	0	0	0	0	0	0	0	0	0	0	0	0	0	0	0	0
012919	12:35:22	12:49:28	845958	5.0.10.0	4_exp_AWA_CON_EVA_AMP	95	Rpleas_acq	Oppo	Lpleas	Amasked	CS_A	2pleas	distractor2	CONbeforeEVA	cond_new_pleas_123_masked_CS1	condtest_masked_3	10	9	400	0	300	300	0	0	323	50	0	0	0	0	0	1	blank2r.bmp	0	1	+	0	4	B4r.bmp	492	1	blank2r.bmp	786	1	CPLW	786	1	blank2r.bmp	866	2	engagiert	866	1	!	-1	1	!	-1	0	0	0	0	0	0	0	0	0	0	0	0	0	0	0	0	0	0	0	0	0	0	0	0	0	0	0
012919	12:35:22	12:49:30	848050	5.0.10.0	4_exp_AWA_CON_EVA_AMP	95	Rpleas_acq	Oppo	Lpleas	Amasked	CS_A	2pleas	distractor2	CONbeforeEVA	cond_US_unple_456_masked_CS1	condtest_masked_3	10	10	400	0	300	300	0	0	308	46	0	0	0	0	0	1	blank2r.bmp	0	1	+	0	3	B3r.bmp	492	1	blank2r.bmp	786	1	CPLW	786	1	blank2r.bmp	866	1	gemein	866	1	!	-1	1	!	-1	0	0	0	0	0	0	0	0	0	0	0	0	0	0	0	0	0	0	0	0	0	0	0	0	0	0	0
012919	12:35:22	12:49:32	849983	5.0.10.0	4_exp_AWA_CON_EVA_AMP	95	Rpleas_acq	Oppo	Lpleas	Amasked	CS_A	2pleas	distractor2	CONbeforeEVA	cond_US_pleas_456_masked_CS1	condtest_masked_3	10	11	400	0	300	300	0	0	155	46	0	1	0	0	0	1	blank2r.bmp	0	1	+	0	5	C1r.bmp	492	1	blank2r.bmp	786	1	CPLW	786	1	blank2r.bmp	866	3	anregung	866	1	!	-1	1	!	-1	0	0	0	0	0	0	0	0	0	0	0	0	0	0	0	0	0	0	0	0	0	0	0	0	0	0	0
012919	12:35:22	12:49:35	852249	5.0.10.0	4_exp_AWA_CON_EVA_AMP	95	Rpleas_acq	Oppo	Lpleas	Amasked	CS_A	2pleas	distractor2	CONbeforeEVA	cond_US_pleas_456_masked_CS1	condtest_masked_3	10	12	400	0	300	300	0	0	487	46	0	1	0	0	0	1	blank2r.bmp	0	1	+	0	1	B1r.bmp	492	1	blank2r.bmp	786	1	CPLW	786	1	blank2r.bmp	866	1	genießen	866	1	!	1239	1	!	-1	0	0	0	0	0	0	0	0	0	0	0	0	0	0	0	0	0	0	0	0	0	0	0	0	0	0	0
012919	12:35:22	12:49:37	854341	5.0.10.0	4_exp_AWA_CON_EVA_AMP	95	Rpleas_acq	Oppo	Lpleas	Amasked	CS_A	2pleas	distractor2	CONbeforeEVA	cond_new_pleas_123_masked_CS2	condtest_masked_3	10	13	400	0	300	300	0	0	314	50	0	0	0	0	0	1	blank2r.bmp	0	1	+	0	7	C3r.bmp	492	1	blank2r.bmp	786	1	DHJF	786	1	blank2r.bmp	866	1	gütig	866	1	!	-1	1	!	-1	0	0	0	0	0	0	0	0	0	0	0	0	0	0	0	0	0	0	0	0	0	0	0	0	0	0	0
012919	12:35:22	12:49:39	856394	5.0.10.0	4_exp_AWA_CON_EVA_AMP	95	Rpleas_acq	Oppo	Lpleas	Amasked	CS_A	2pleas	distractor2	CONbeforeEVA	cond_new_unple_123_masked_CS2	condtest_masked_3	10	14	400	0	300	300	0	0	275	46	0	0	0	0	0	1	blank2r.bmp	0	1	+	0	1	B1r.bmp	492	1	blank2r.bmp	786	1	DHJF	786	1	blank2r.bmp	866	2	engstirnig	866	1	!	-1	1	!	-1	0	0	0	0	0	0	0	0	0	0	0	0	0	0	0	0	0	0	0	0	0	0	0	0	0	0	0
012919	12:35:22	12:49:41	858913	5.0.10.0	4_exp_AWA_CON_EVA_AMP	95	Rpleas_acq	Oppo	Lpleas	Amasked	CS_A	2pleas	distractor2	CONbeforeEVA	cond_US_unple_456_masked_CS1	condtest_masked_3	10	15	400	0	300	300	0	0	736	46	0	0	0	0	0	1	blank2r.bmp	0	1	+	0	5	C1r.bmp	492	1	blank2r.bmp	786	1	CPLW	786	1	blank2r.bmp	866	2	geizig	866	1	!	1239	1	!	-1	0	0	0	0	0	0	0	0	0	0	0	0	0	0	0	0	0	0	0	0	0	0	0	0	0	0	0
012919	12:35:22	12:49:43	861178	5.0.10.0	4_exp_AWA_CON_EVA_AMP	95	Rpleas_acq	Oppo	Lpleas	Amasked	CS_A	2pleas	distractor2	CONbeforeEVA	cond_US_unple_456_masked_CS1	condtest_masked_3	10	16	400	1	300	300	0	0	454	50	0	1	0	0	0	1	blank2r.bmp	0	1	+	0	2	B2r.bmp	492	1	blank2r.bmp	786	1	CPLW	786	1	blank2r.bmp	866	3	ausrottung	866	1	!	1239	1	!	1359	0	0	0	0	0	0	0	0	0	0	0	0	0	0	0	0	0	0	0	0	0	0	0	0	0	0	0
012919	12:35:22	12:49:45	863177	5.0.10.0	4_exp_AWA_CON_EVA_AMP	95	Rpleas_acq	Oppo	Lpleas	Amasked	CS_A	2pleas	distractor2	CONbeforeEVA	cond_US_pleas_456_masked_CS1	condtest_masked_3	10	17	400	0	300	300	0	0	227	46	0	1	0	0	0	1	blank2r.bmp	0	1	+	0	3	B3r.bmp	492	1	blank2r.bmp	786	1	CPLW	786	1	blank2r.bmp	866	2	gesittet	866	1	!	-1	1	!	-1	0	0	0	0	0	0	0	0	0	0	0	0	0	0	0	0	0	0	0	0	0	0	0	0	0	0	0
012919	12:35:22	12:49:48	865337	5.0.10.0	4_exp_AWA_CON_EVA_AMP	95	Rpleas_acq	Oppo	Lpleas	Amasked	CS_A	2pleas	distractor2	CONbeforeEVA	cond_new_unple_123_masked_CS2	condtest_masked_3	10	18	400	1	300	300	0	0	352	50	0	1	0	0	0	1	blank2r.bmp	0	1	+	0	8	C4r.bmp	492	1	blank2r.bmp	786	1	DHJF	786	1	blank2r.bmp	866	1	gierig	866	1	!	1239	1	!	1252	0	0	0	0	0	0	0	0	0	0	0	0	0	0	0	0	0	0	0	0	0	0	0	0	0	0	0
012919	12:35:22	12:49:50	867309	5.0.10.0	4_exp_AWA_CON_EVA_AMP	95	Rpleas_acq	Oppo	Lpleas	Amasked	CS_A	2pleas	distractor2	CONbeforeEVA	cond_US_pleas_456_masked_CS1	condtest_masked_3	10	19	400	0	300	300	0	0	207	46	0	1	0	0	0	1	blank2r.bmp	0	1	+	0	6	C2r.bmp	492	1	blank2r.bmp	786	1	CPLW	786	1	blank2r.bmp	866	3	anregung	866	1	!	-1	1	!	-1	0	0	0	0	0	0	0	0	0	0	0	0	0	0	0	0	0	0	0	0	0	0	0	0	0	0	0
012919	12:35:22	12:49:52	869535	5.0.10.0	4_exp_AWA_CON_EVA_AMP	95	Rpleas_acq	Oppo	Lpleas	Amasked	CS_A	2pleas	distractor2	CONbeforeEVA	cond_new_unple_123_masked_CS1	condtest_masked_3	10	20	400	1	300	300	0	0	413	50	0	1	0	0	0	1	blank2r.bmp	0	1	+	0	4	B4r.bmp	492	1	blank2r.bmp	786	1	CPLW	786	1	blank2r.bmp	866	3	bange	866	1	!	1239	1	!	1319	0	0	0	0	0	0	0	0	0	0	0	0	0	0	0	0	0	0	0	0	0	0	0	0	0	0	0
012919	12:35:22	12:49:54	871801	5.0.10.0	4_exp_AWA_CON_EVA_AMP	95	Rpleas_acq	Oppo	Lpleas	Amasked	CS_A	2pleas	distractor2	CONbeforeEVA	cond_US_unple_456_masked_CS2	condtest_masked_3	10	21	400	1	300	300	0	0	459	46	0	0	0	0	0	1	blank2r.bmp	0	1	+	0	1	B1r.bmp	492	1	blank2r.bmp	786	1	DHJF	786	1	blank2r.bmp	866	3	ausrottung	866	1	!	1239	1	!	1359	0	0	0	0	0	0	0	0	0	0	0	0	0	0	0	0	0	0	0	0	0	0	0	0	0	0	0
012919	12:35:22	12:49:56	873986	5.0.10.0	4_exp_AWA_CON_EVA_AMP	95	Rpleas_acq	Oppo	Lpleas	Amasked	CS_A	2pleas	distractor2	CONbeforeEVA	cond_US_unple_456_masked_CS1	condtest_masked_3	10	22	400	1	300	300	0	0	394	46	0	0	0	0	0	1	blank2r.bmp	0	1	+	0	2	B2r.bmp	492	1	blank2r.bmp	786	1	CPLW	786	1	blank2r.bmp	866	2	geizig	866	1	!	1239	1	!	1292	0	0	0	0	0	0	0	0	0	0	0	0	0	0	0	0	0	0	0	0	0	0	0	0	0	0	0
012919	12:35:22	12:49:58	876145	5.0.10.0	4_exp_AWA_CON_EVA_AMP	95	Rpleas_acq	Oppo	Lpleas	Amasked	CS_A	2pleas	distractor2	CONbeforeEVA	cond_new_unple_123_masked_CS1	condtest_masked_3	10	23	400	1	300	300	0	0	364	50	0	1	0	0	0	1	blank2r.bmp	0	1	+	0	5	C1r.bmp	492	1	blank2r.bmp	786	1	CPLW	786	1	blank2r.bmp	866	3	bange	866	1	!	1239	1	!	1266	0	0	0	0	0	0	0	0	0	0	0	0	0	0	0	0	0	0	0	0	0	0	0	0	0	0	0
012919	12:35:22	12:50:01	878398	5.0.10.0	4_exp_AWA_CON_EVA_AMP	95	Rpleas_acq	Oppo	Lpleas	Amasked	CS_A	2pleas	distractor2	CONbeforeEVA	cond_US_pleas_456_masked_CS1	condtest_masked_3	10	24	400	1	300	300	0	0	462	46	0	1	0	0	0	1	blank2r.bmp	0	1	+	0	6	C2r.bmp	492	1	blank2r.bmp	786	1	CPLW	786	1	blank2r.bmp	866	1	genießen	866	1	!	1239	1	!	1359	0	0	0	0	0	0	0	0	0	0	0	0	0	0	0	0	0	0	0	0	0	0	0	0	0	0	0
012919	12:35:22	12:50:03	880664	5.0.10.0	4_exp_AWA_CON_EVA_AMP	95	Rpleas_acq	Oppo	Lpleas	Amasked	CS_A	2pleas	distractor2	CONbeforeEVA	cond_US_pleas_456_masked_CS2	condtest_masked_3	10	25	400	0	300	300	0	0	502	46	0	1	0	0	0	1	blank2r.bmp	0	1	+	0	3	B3r.bmp	492	1	blank2r.bmp	786	1	DHJF	786	1	blank2r.bmp	866	1	genießen	866	1	!	1239	1	!	-1	0	0	0	0	0	0	0	0	0	0	0	0	0	0	0	0	0	0	0	0	0	0	0	0	0	0	0
012919	12:35:22	12:50:05	882823	5.0.10.0	4_exp_AWA_CON_EVA_AMP	95	Rpleas_acq	Oppo	Lpleas	Amasked	CS_A	2pleas	distractor2	CONbeforeEVA	cond_new_pleas_123_masked_CS1	condtest_masked_3	10	26	400	1	300	300	0	0	357	50	0	0	0	0	0	1	blank2r.bmp	0	1	+	0	8	C4r.bmp	492	1	blank2r.bmp	786	1	CPLW	786	1	blank2r.bmp	866	2	engagiert	866	1	!	1239	1	!	1252	0	0	0	0	0	0	0	0	0	0	0	0	0	0	0	0	0	0	0	0	0	0	0	0	0	0	0
012919	12:35:22	12:50:07	884982	5.0.10.0	4_exp_AWA_CON_EVA_AMP	95	Rpleas_acq	Oppo	Lpleas	Amasked	CS_A	2pleas	distractor2	CONbeforeEVA	cond_US_pleas_456_masked_CS2	condtest_masked_3	10	27	400	1	300	300	0	0	362	46	0	1	0	0	0	1	blank2r.bmp	0	1	+	0	7	C3r.bmp	492	1	blank2r.bmp	786	1	DHJF	786	1	blank2r.bmp	866	3	anregung	866	1	!	1239	1	!	1266	0	0	0	0	0	0	0	0	0	0	0	0	0	0	0	0	0	0	0	0	0	0	0	0	0	0	0
012919	12:35:22	12:50:10	887261	5.0.10.0	4_exp_AWA_CON_EVA_AMP	95	Rpleas_acq	Oppo	Lpleas	Amasked	CS_A	2pleas	distractor2	CONbeforeEVA	cond_new_unple_123_masked_CS2	condtest_masked_3	10	28	400	0	300	300	0	0	514	50	0	1	0	0	0	1	blank2r.bmp	0	1	+	0	4	B4r.bmp	492	1	blank2r.bmp	786	1	DHJF	786	1	blank2r.bmp	866	1	gierig	866	1	!	1239	1	!	-1	0	0	0	0	0	0	0	0	0	0	0	0	0	0	0	0	0	0	0	0	0	0	0	0	0	0	0
012919	12:35:22	12:50:12	889460	5.0.10.0	4_exp_AWA_CON_EVA_AMP	95	Rpleas_acq	Oppo	Lpleas	Amasked	CS_A	2pleas	distractor2	CONbeforeEVA	cond_US_unple_456_masked_CS1	condtest_masked_3	10	29	400	1	300	300	0	0	390	50	0	1	0	0	0	1	blank2r.bmp	0	1	+	0	6	C2r.bmp	492	1	blank2r.bmp	786	1	CPLW	786	1	blank2r.bmp	866	1	gemein	866	1	!	1239	1	!	1292	0	0	0	0	0	0	0	0	0	0	0	0	0	0	0	0	0	0	0	0	0	0	0	0	0	0	0
012919	12:35:22	12:50:14	891539	5.0.10.0	4_exp_AWA_CON_EVA_AMP	95	Rpleas_acq	Oppo	Lpleas	Amasked	CS_A	2pleas	distractor2	CONbeforeEVA	cond_new_pleas_123_masked_CS1	condtest_masked_3	10	30	400	0	300	300	0	0	306	46	0	1	0	0	0	1	blank2r.bmp	0	1	+	0	1	B1r.bmp	492	1	blank2r.bmp	786	1	CPLW	786	1	blank2r.bmp	866	3	besonnen	866	1	!	-1	1	!	-1	0	0	0	0	0	0	0	0	0	0	0	0	0	0	0	0	0	0	0	0	0	0	0	0	0	0	0
012919	12:35:22	12:50:16	893805	5.0.10.0	4_exp_AWA_CON_EVA_AMP	95	Rpleas_acq	Oppo	Lpleas	Amasked	CS_A	2pleas	distractor2	CONbeforeEVA	cond_new_pleas_123_masked_CS2	condtest_masked_3	10	31	400	0	300	300	0	0	485	46	0	1	0	0	0	1	blank2r.bmp	0	1	+	0	7	C3r.bmp	492	1	blank2r.bmp	786	1	DHJF	786	1	blank2r.bmp	866	1	gütig	866	1	!	1239	1	!	-1	0	0	0	0	0	0	0	0	0	0	0	0	0	0	0	0	0	0	0	0	0	0	0	0	0	0	0
