date	time	script.currenttime	script.elapsedtime	build	script.currentexpt	subject	expressions.LRpleas_acq	expressions.SameOppo	expressions.condition_Lpleas	expressions.ABmasked	expressions.conditionCS_A	expressions.condition_1pleas	expressions.condition_distractor_AMP	expressions.AWACON_AMPEVA_first	trialcode	blockcode	blocknum	trialnum	windowcenter	inwindow	pretrialpause	posttrialpause	trialduration	trialtimeout	latency	response	expressions.correctedscore	correct	values.vis_performance	values.vis_rating_sum	values.vis_rating_mean	stimulusnumber1	stimulusitem1	stimulusonset1	stimulusnumber2	stimulusitem2	stimulusonset2	stimulusnumber3	stimulusitem3	stimulusonset3	stimulusnumber4	stimulusitem4	stimulusonset4	stimulusnumber5	stimulusitem5	stimulusonset5	stimulusnumber6	stimulusitem6	stimulusonset6	stimulusnumber7	stimulusitem7	stimulusonset7	stimulusnumber8	stimulusitem8	stimulusonset8	stimulusnumber9	stimulusitem9	stimulusonset9	stimulusnumber10	stimulusitem10	stimulusonset10	stimulusnumber11	stimulusitem11	stimulusonset11	stimulusnumber12	stimulusitem12	stimulusonset12	stimulusnumber13	stimulusitem13	stimulusonset13	stimulusnumber14	stimulusitem14	stimulusonset14	stimulusnumber15	stimulusitem15	stimulusonset15	stimulusnumber16	stimulusitem16	stimulusonset16	stimulusnumber17	stimulusitem17	stimulusonset17	stimulusnumber18	stimulusitem18	stimulusonset18
013019	09:03:41	09:05:24	102156	5.0.10.0	4_exp_AWA_CON_AMP_EVA	99	Rpleas_acq	Oppo	Rpleas	Amasked	CS_A	1pleas	distractor1	CONbeforeEVA	acq_new_pleas_masked	acq1_masked	1	1	0	0	300	300	0	0	706	50	0	1	0	0	0	1	blank2r.bmp	0	1	+	0	8	C4r.bmp	492	1	blank2r.bmp	786	2	B2r.bmp	786	1	blank2r.bmp	866	6	sonnig	866	0	0	0	0	0	0	0	0	0	0	0	0	0	0	0	0	0	0	0	0	0	0	0	0	0	0	0	0	0	0	0	0	0
013019	09:03:41	09:05:26	104169	5.0.10.0	4_exp_AWA_CON_AMP_EVA	99	Rpleas_acq	Oppo	Rpleas	Amasked	CS_A	1pleas	distractor1	CONbeforeEVA	acq_new_unple_masked	acq1_masked	1	2	0	0	300	300	0	0	537	46	0	1	0	0	0	1	blank2r.bmp	0	1	+	0	6	C2r.bmp	492	1	blank2r.bmp	786	4	B4r.bmp	786	1	blank2r.bmp	866	5	engstirnig	866	0	0	0	0	0	0	0	0	0	0	0	0	0	0	0	0	0	0	0	0	0	0	0	0	0	0	0	0	0	0	0	0	0
013019	09:03:41	09:05:28	106328	5.0.10.0	4_exp_AWA_CON_AMP_EVA	99	Rpleas_acq	Oppo	Rpleas	Amasked	CS_A	1pleas	distractor1	CONbeforeEVA	acq_new_unple_masked	acq1_masked	1	3	0	0	300	300	0	0	690	46	0	1	0	0	0	1	blank2r.bmp	0	1	+	0	1	B1r.bmp	492	1	blank2r.bmp	786	5	C1r.bmp	786	1	blank2r.bmp	866	3	krank	866	0	0	0	0	0	0	0	0	0	0	0	0	0	0	0	0	0	0	0	0	0	0	0	0	0	0	0	0	0	0	0	0	0
013019	09:03:41	09:05:30	108300	5.0.10.0	4_exp_AWA_CON_AMP_EVA	99	Rpleas_acq	Oppo	Rpleas	Amasked	CS_A	2pleas	distractor1	CONbeforeEVA	acq_US_unple_masked	acq1_masked	1	4	0	0	300	300	0	0	488	46	0	1	0	0	0	1	blank2r.bmp	0	1	+	0	4	B4r.bmp	492	1	blank2r.bmp	786	1	CPLW	786	1	blank2r.bmp	866	4	ausrottung	866	0	0	0	0	0	0	0	0	0	0	0	0	0	0	0	0	0	0	0	0	0	0	0	0	0	0	0	0	0	0	0	0	0
013019	09:03:41	09:05:32	110340	5.0.10.0	4_exp_AWA_CON_AMP_EVA	99	Rpleas_acq	Oppo	Rpleas	Amasked	CS_A	2pleas	distractor1	CONbeforeEVA	acq_US_pleas_masked	acq1_masked	1	5	0	0	300	300	0	0	570	50	0	1	0	0	0	1	blank2r.bmp	0	1	+	0	3	B3r.bmp	492	1	blank2r.bmp	786	1	DHJF	786	1	blank2r.bmp	866	4	anregung	866	0	0	0	0	0	0	0	0	0	0	0	0	0	0	0	0	0	0	0	0	0	0	0	0	0	0	0	0	0	0	0	0	0
013019	09:03:41	09:05:34	112365	5.0.10.0	4_exp_AWA_CON_AMP_EVA	99	Rpleas_acq	Oppo	Rpleas	Amasked	CS_A	2pleas	distractor1	CONbeforeEVA	acq_new_pleas_masked	acq1_masked	1	6	0	0	300	300	0	0	537	50	0	1	0	0	0	1	blank2r.bmp	0	1	+	0	2	B2r.bmp	492	1	blank2r.bmp	786	7	C3r.bmp	786	1	blank2r.bmp	866	1	gütig	866	0	0	0	0	0	0	0	0	0	0	0	0	0	0	0	0	0	0	0	0	0	0	0	0	0	0	0	0	0	0	0	0	0
013019	09:03:41	09:05:36	114471	5.0.10.0	4_exp_AWA_CON_AMP_EVA	99	Rpleas_acq	Oppo	Rpleas	Amasked	CS_A	2pleas	distractor1	CONbeforeEVA	acq_US_unple_masked	acq1_masked	1	7	0	0	300	300	0	0	622	46	0	1	0	0	0	1	blank2r.bmp	0	1	+	0	5	C1r.bmp	492	1	blank2r.bmp	786	1	CPLW	786	1	blank2r.bmp	866	3	krise	866	0	0	0	0	0	0	0	0	0	0	0	0	0	0	0	0	0	0	0	0	0	0	0	0	0	0	0	0	0	0	0	0	0
013019	09:03:41	09:05:39	116750	5.0.10.0	4_exp_AWA_CON_AMP_EVA	99	Rpleas_acq	Oppo	Rpleas	Amasked	CS_A	2pleas	distractor1	CONbeforeEVA	acq_US_pleas_masked	acq1_masked	1	8	0	0	300	300	0	0	572	46	0	0	0	0	0	1	blank2r.bmp	0	1	+	0	7	C3r.bmp	492	1	blank2r.bmp	786	1	DHJF	786	1	blank2r.bmp	866	6	gesittet	866	1	FEHLER	1479	0	0	0	0	0	0	0	0	0	0	0	0	0	0	0	0	0	0	0	0	0	0	0	0	0	0	0	0	0	0
013019	09:03:41	09:05:40	118416	5.0.10.0	4_exp_AWA_CON_AMP_EVA	99	Rpleas_acq	Oppo	Rpleas	Amasked	CS_A	2pleas	distractor1	CONbeforeEVA	acq_US_pleas_masked	acq1_masked	1	9	0	0	300	300	0	0	411	50	0	1	0	0	0	1	blank2r.bmp	0	1	+	0	2	B2r.bmp	492	1	blank2r.bmp	786	1	DHJF	786	1	blank2r.bmp	866	3	kuss	866	0	0	0	0	0	0	0	0	0	0	0	0	0	0	0	0	0	0	0	0	0	0	0	0	0	0	0	0	0	0	0	0	0
013019	09:03:41	09:05:42	120429	5.0.10.0	4_exp_AWA_CON_AMP_EVA	99	Rpleas_acq	Oppo	Rpleas	Amasked	CS_A	2pleas	distractor1	CONbeforeEVA	acq_new_unple_masked	acq1_masked	1	10	0	0	300	300	0	0	527	46	0	1	0	0	0	1	blank2r.bmp	0	1	+	0	6	C2r.bmp	492	1	blank2r.bmp	786	1	B1r.bmp	786	1	blank2r.bmp	866	1	gierig	866	0	0	0	0	0	0	0	0	0	0	0	0	0	0	0	0	0	0	0	0	0	0	0	0	0	0	0	0	0	0	0	0	0
013019	09:03:41	09:05:44	122654	5.0.10.0	4_exp_AWA_CON_AMP_EVA	99	Rpleas_acq	Oppo	Rpleas	Amasked	CS_A	2pleas	distractor1	CONbeforeEVA	acq_US_unple_masked	acq1_masked	1	11	0	0	300	300	0	0	527	50	0	0	0	0	0	1	blank2r.bmp	0	1	+	0	7	C3r.bmp	492	1	blank2r.bmp	786	1	CPLW	786	1	blank2r.bmp	866	6	geizig	866	1	FEHLER	1426	0	0	0	0	0	0	0	0	0	0	0	0	0	0	0	0	0	0	0	0	0	0	0	0	0	0	0	0	0	0
013019	09:03:41	09:05:46	124480	5.0.10.0	4_exp_AWA_CON_AMP_EVA	99	Rpleas_acq	Oppo	Rpleas	Amasked	CS_A	2pleas	distractor1	CONbeforeEVA	acq_new_pleas_masked	acq1_masked	1	12	0	0	300	300	0	0	548	50	0	1	0	0	0	1	blank2r.bmp	0	1	+	0	1	B1r.bmp	492	1	blank2r.bmp	786	8	C4r.bmp	786	1	blank2r.bmp	866	5	engagiert	866	0	0	0	0	0	0	0	0	0	0	0	0	0	0	0	0	0	0	0	0	0	0	0	0	0	0	0	0	0	0	0	0	0
013019	09:03:41	09:05:48	126439	5.0.10.0	4_exp_AWA_CON_AMP_EVA	99	Rpleas_acq	Oppo	Rpleas	Amasked	CS_A	2pleas	distractor1	CONbeforeEVA	acq_US_pleas_masked	acq1_masked	1	13	0	0	300	300	0	0	481	50	0	1	0	0	0	1	blank2r.bmp	0	1	+	0	4	B4r.bmp	492	1	blank2r.bmp	786	1	DHJF	786	1	blank2r.bmp	866	1	vertrauen	866	0	0	0	0	0	0	0	0	0	0	0	0	0	0	0	0	0	0	0	0	0	0	0	0	0	0	0	0	0	0	0	0	0
013019	09:03:41	09:05:50	128492	5.0.10.0	4_exp_AWA_CON_AMP_EVA	99	Rpleas_acq	Oppo	Rpleas	Amasked	CS_A	2pleas	distractor1	CONbeforeEVA	acq_US_unple_masked	acq1_masked	1	14	0	0	300	300	0	0	565	46	0	1	0	0	0	1	blank2r.bmp	0	1	+	0	3	B3r.bmp	492	1	blank2r.bmp	786	1	CPLW	786	1	blank2r.bmp	866	5	bange	866	0	0	0	0	0	0	0	0	0	0	0	0	0	0	0	0	0	0	0	0	0	0	0	0	0	0	0	0	0	0	0	0	0
013019	09:03:41	09:05:52	130624	5.0.10.0	4_exp_AWA_CON_AMP_EVA	99	Rpleas_acq	Oppo	Rpleas	Amasked	CS_A	2pleas	distractor1	CONbeforeEVA	acq_new_unple_masked	acq1_masked	1	15	0	0	300	300	0	0	443	50	0	0	0	0	0	1	blank2r.bmp	0	1	+	0	5	C1r.bmp	492	1	blank2r.bmp	786	3	B3r.bmp	786	1	blank2r.bmp	866	2	gemein	866	1	FEHLER	1346	0	0	0	0	0	0	0	0	0	0	0	0	0	0	0	0	0	0	0	0	0	0	0	0	0	0	0	0	0	0
013019	09:03:41	09:05:54	132450	5.0.10.0	4_exp_AWA_CON_AMP_EVA	99	Rpleas_acq	Oppo	Rpleas	Amasked	CS_A	2pleas	distractor1	CONbeforeEVA	acq_US_pleas_masked	acq1_masked	1	16	0	0	300	300	0	0	548	50	0	1	0	0	0	1	blank2r.bmp	0	1	+	0	8	C4r.bmp	492	1	blank2r.bmp	786	1	DHJF	786	1	blank2r.bmp	866	2	träumen	866	0	0	0	0	0	0	0	0	0	0	0	0	0	0	0	0	0	0	0	0	0	0	0	0	0	0	0	0	0	0	0	0	0
013019	09:03:41	09:05:56	134423	5.0.10.0	4_exp_AWA_CON_AMP_EVA	99	Rpleas_acq	Oppo	Rpleas	Amasked	CS_A	2pleas	distractor1	CONbeforeEVA	acq_new_pleas_masked	acq1_masked	1	17	0	0	300	300	0	0	496	50	0	1	0	0	0	1	blank2r.bmp	0	1	+	0	3	B3r.bmp	492	1	blank2r.bmp	786	6	C2r.bmp	786	1	blank2r.bmp	866	2	genießen	866	0	0	0	0	0	0	0	0	0	0	0	0	0	0	0	0	0	0	0	0	0	0	0	0	0	0	0	0	0	0	0	0	0
013019	09:03:41	09:05:58	136609	5.0.10.0	4_exp_AWA_CON_AMP_EVA	99	Rpleas_acq	Oppo	Rpleas	Amasked	CS_A	2pleas	distractor1	CONbeforeEVA	acq_new_unple_masked	acq1_masked	1	18	0	0	300	300	0	0	481	50	0	0	0	0	0	1	blank2r.bmp	0	1	+	0	2	B2r.bmp	492	1	blank2r.bmp	786	3	B3r.bmp	786	1	blank2r.bmp	866	4	verbissen	866	1	FEHLER	1386	0	0	0	0	0	0	0	0	0	0	0	0	0	0	0	0	0	0	0	0	0	0	0	0	0	0	0	0	0	0
013019	09:03:41	09:06:00	138408	5.0.10.0	4_exp_AWA_CON_AMP_EVA	99	Rpleas_acq	Oppo	Rpleas	Amasked	CS_A	2pleas	distractor1	CONbeforeEVA	acq_new_pleas_masked	acq1_masked	1	19	0	0	300	300	0	0	541	50	0	1	0	0	0	1	blank2r.bmp	0	1	+	0	6	C2r.bmp	492	1	blank2r.bmp	786	8	C4r.bmp	786	1	blank2r.bmp	866	4	vergnügt	866	0	0	0	0	0	0	0	0	0	0	0	0	0	0	0	0	0	0	0	0	0	0	0	0	0	0	0	0	0	0	0	0	0
013019	09:03:41	09:06:02	140314	5.0.10.0	4_exp_AWA_CON_AMP_EVA	99	Rpleas_acq	Oppo	Rpleas	Amasked	CS_A	2pleas	distractor1	CONbeforeEVA	acq_new_unple_masked	acq1_masked	1	20	0	0	300	300	0	0	427	46	0	1	0	0	0	1	blank2r.bmp	0	1	+	0	7	C3r.bmp	492	1	blank2r.bmp	786	6	C2r.bmp	786	1	blank2r.bmp	866	6	sterben	866	0	0	0	0	0	0	0	0	0	0	0	0	0	0	0	0	0	0	0	0	0	0	0	0	0	0	0	0	0	0	0	0	0
013019	09:03:41	09:06:05	142686	5.0.10.0	4_exp_AWA_CON_AMP_EVA	99	Rpleas_acq	Oppo	Rpleas	Amasked	CS_A	2pleas	distractor1	CONbeforeEVA	acq_US_unple_masked	acq1_masked	1	21	0	0	300	300	0	0	897	46	0	1	0	0	0	1	blank2r.bmp	0	1	+	0	1	B1r.bmp	492	1	blank2r.bmp	786	1	CPLW	786	1	blank2r.bmp	866	1	versagen	866	0	0	0	0	0	0	0	0	0	0	0	0	0	0	0	0	0	0	0	0	0	0	0	0	0	0	0	0	0	0	0	0	0
013019	09:03:41	09:06:06	144579	5.0.10.0	4_exp_AWA_CON_AMP_EVA	99	Rpleas_acq	Oppo	Rpleas	Amasked	CS_A	2pleas	distractor1	CONbeforeEVA	acq_new_pleas_masked	acq1_masked	1	22	0	0	300	300	0	0	417	50	0	1	0	0	0	1	blank2r.bmp	0	1	+	0	5	C1r.bmp	492	1	blank2r.bmp	786	7	C3r.bmp	786	1	blank2r.bmp	866	3	kreativ	866	0	0	0	0	0	0	0	0	0	0	0	0	0	0	0	0	0	0	0	0	0	0	0	0	0	0	0	0	0	0	0	0	0
013019	09:03:41	09:06:08	146551	5.0.10.0	4_exp_AWA_CON_AMP_EVA	99	Rpleas_acq	Oppo	Rpleas	Amasked	CS_A	2pleas	distractor1	CONbeforeEVA	acq_US_unple_masked	acq1_masked	1	23	0	0	300	300	0	0	481	46	0	1	0	0	0	1	blank2r.bmp	0	1	+	0	8	C4r.bmp	492	1	blank2r.bmp	786	1	CPLW	786	1	blank2r.bmp	866	2	töten	866	0	0	0	0	0	0	0	0	0	0	0	0	0	0	0	0	0	0	0	0	0	0	0	0	0	0	0	0	0	0	0	0	0
013019	09:03:41	09:06:10	148497	5.0.10.0	4_exp_AWA_CON_AMP_EVA	99	Rpleas_acq	Oppo	Rpleas	Amasked	CS_A	2pleas	distractor1	CONbeforeEVA	acq_US_pleas_masked	acq1_masked	1	24	0	0	300	300	0	0	477	50	0	1	0	0	0	1	blank2r.bmp	0	1	+	0	4	B4r.bmp	492	1	blank2r.bmp	786	1	DHJF	786	1	blank2r.bmp	866	5	besonnen	866	0	0	0	0	0	0	0	0	0	0	0	0	0	0	0	0	0	0	0	0	0	0	0	0	0	0	0	0	0	0	0	0	0
013019	09:03:41	09:06:12	150456	5.0.10.0	4_exp_AWA_CON_AMP_EVA	99	Rpleas_acq	Oppo	Rpleas	Amasked	CS_A	2pleas	distractor1	CONbeforeEVA	acq_US_unple_masked	acq1_masked	1	25	0	0	300	300	0	0	476	46	0	1	0	0	0	1	blank2r.bmp	0	1	+	0	5	C1r.bmp	492	1	blank2r.bmp	786	1	CPLW	786	1	blank2r.bmp	866	4	ausrottung	866	0	0	0	0	0	0	0	0	0	0	0	0	0	0	0	0	0	0	0	0	0	0	0	0	0	0	0	0	0	0	0	0	0
013019	09:03:41	09:06:14	152349	5.0.10.0	4_exp_AWA_CON_AMP_EVA	99	Rpleas_acq	Oppo	Rpleas	Amasked	CS_A	2pleas	distractor1	CONbeforeEVA	acq_US_pleas_masked	acq1_masked	1	26	0	0	300	300	0	0	400	50	0	1	0	0	0	1	blank2r.bmp	0	1	+	0	8	C4r.bmp	492	1	blank2r.bmp	786	1	DHJF	786	1	blank2r.bmp	866	5	besonnen	866	0	0	0	0	0	0	0	0	0	0	0	0	0	0	0	0	0	0	0	0	0	0	0	0	0	0	0	0	0	0	0	0	0
013019	09:03:41	09:06:16	154334	5.0.10.0	4_exp_AWA_CON_AMP_EVA	99	Rpleas_acq	Oppo	Rpleas	Amasked	CS_A	2pleas	distractor1	CONbeforeEVA	acq_US_unple_masked	acq1_masked	1	27	0	0	300	300	0	0	494	46	0	1	0	0	0	1	blank2r.bmp	0	1	+	0	6	C2r.bmp	492	1	blank2r.bmp	786	1	CPLW	786	1	blank2r.bmp	866	5	bange	866	0	0	0	0	0	0	0	0	0	0	0	0	0	0	0	0	0	0	0	0	0	0	0	0	0	0	0	0	0	0	0	0	0
013019	09:03:41	09:06:18	156440	5.0.10.0	4_exp_AWA_CON_AMP_EVA	99	Rpleas_acq	Oppo	Rpleas	Amasked	CS_A	2pleas	distractor1	CONbeforeEVA	acq_new_unple_masked	acq1_masked	1	28	0	0	300	300	0	0	422	50	0	0	0	0	0	1	blank2r.bmp	0	1	+	0	7	C3r.bmp	492	1	blank2r.bmp	786	2	B2r.bmp	786	1	blank2r.bmp	866	4	verbissen	866	1	FEHLER	1319	0	0	0	0	0	0	0	0	0	0	0	0	0	0	0	0	0	0	0	0	0	0	0	0	0	0	0	0	0	0
013019	09:03:41	09:06:20	158213	5.0.10.0	4_exp_AWA_CON_AMP_EVA	99	Rpleas_acq	Oppo	Rpleas	Amasked	CS_A	2pleas	distractor1	CONbeforeEVA	acq_new_pleas_masked	acq1_masked	1	29	0	0	300	300	0	0	492	50	0	1	0	0	0	1	blank2r.bmp	0	1	+	0	2	B2r.bmp	492	1	blank2r.bmp	786	5	C1r.bmp	786	1	blank2r.bmp	866	2	genießen	866	0	0	0	0	0	0	0	0	0	0	0	0	0	0	0	0	0	0	0	0	0	0	0	0	0	0	0	0	0	0	0	0	0
013019	09:03:41	09:06:22	160345	5.0.10.0	4_exp_AWA_CON_AMP_EVA	99	Rpleas_acq	Oppo	Rpleas	Amasked	CS_A	2pleas	distractor1	CONbeforeEVA	acq_new_unple_masked	acq1_masked	1	30	0	0	300	300	0	0	664	46	0	1	0	0	0	1	blank2r.bmp	0	1	+	0	4	B4r.bmp	492	1	blank2r.bmp	786	1	B1r.bmp	786	1	blank2r.bmp	866	3	krank	866	0	0	0	0	0	0	0	0	0	0	0	0	0	0	0	0	0	0	0	0	0	0	0	0	0	0	0	0	0	0	0	0	0
013019	09:03:41	09:06:24	162278	5.0.10.0	4_exp_AWA_CON_AMP_EVA	99	Rpleas_acq	Oppo	Rpleas	Amasked	CS_A	2pleas	distractor1	CONbeforeEVA	acq_US_pleas_masked	acq1_masked	1	31	0	0	300	300	0	0	448	50	0	1	0	0	0	1	blank2r.bmp	0	1	+	0	1	B1r.bmp	492	1	blank2r.bmp	786	1	DHJF	786	1	blank2r.bmp	866	1	vertrauen	866	0	0	0	0	0	0	0	0	0	0	0	0	0	0	0	0	0	0	0	0	0	0	0	0	0	0	0	0	0	0	0	0	0
013019	09:03:41	09:06:26	164130	5.0.10.0	4_exp_AWA_CON_AMP_EVA	99	Rpleas_acq	Oppo	Rpleas	Amasked	CS_A	2pleas	distractor1	CONbeforeEVA	acq_US_pleas_masked	acq1_masked	1	32	0	0	300	300	0	0	361	50	0	1	0	0	0	1	blank2r.bmp	0	1	+	0	3	B3r.bmp	492	1	blank2r.bmp	786	1	DHJF	786	1	blank2r.bmp	866	3	kuss	866	0	0	0	0	0	0	0	0	0	0	0	0	0	0	0	0	0	0	0	0	0	0	0	0	0	0	0	0	0	0	0	0	0
013019	09:03:41	09:06:28	166089	5.0.10.0	4_exp_AWA_CON_AMP_EVA	99	Rpleas_acq	Oppo	Rpleas	Amasked	CS_A	2pleas	distractor1	CONbeforeEVA	acq_new_pleas_masked	acq1_masked	1	33	0	0	300	300	0	0	481	50	0	1	0	0	0	1	blank2r.bmp	0	1	+	0	5	C1r.bmp	492	1	blank2r.bmp	786	4	B4r.bmp	786	1	blank2r.bmp	866	4	vergnügt	866	0	0	0	0	0	0	0	0	0	0	0	0	0	0	0	0	0	0	0	0	0	0	0	0	0	0	0	0	0	0	0	0	0
013019	09:03:41	09:06:30	168115	5.0.10.0	4_exp_AWA_CON_AMP_EVA	99	Rpleas_acq	Oppo	Rpleas	Amasked	CS_A	2pleas	distractor1	CONbeforeEVA	acq_US_unple_masked	acq1_masked	1	34	0	0	300	300	0	0	555	46	0	1	0	0	0	1	blank2r.bmp	0	1	+	0	1	B1r.bmp	492	1	blank2r.bmp	786	1	CPLW	786	1	blank2r.bmp	866	6	geizig	866	0	0	0	0	0	0	0	0	0	0	0	0	0	0	0	0	0	0	0	0	0	0	0	0	0	0	0	0	0	0	0	0	0
013019	09:03:41	09:06:32	170114	5.0.10.0	4_exp_AWA_CON_AMP_EVA	99	Rpleas_acq	Oppo	Rpleas	Amasked	CS_A	2pleas	distractor1	CONbeforeEVA	acq_new_pleas_masked	acq1_masked	1	35	0	0	300	300	0	0	511	50	0	1	0	0	0	1	blank2r.bmp	0	1	+	0	6	C2r.bmp	492	1	blank2r.bmp	786	2	B2r.bmp	786	1	blank2r.bmp	866	5	engagiert	866	0	0	0	0	0	0	0	0	0	0	0	0	0	0	0	0	0	0	0	0	0	0	0	0	0	0	0	0	0	0	0	0	0
013019	09:03:41	09:06:34	172300	5.0.10.0	4_exp_AWA_CON_AMP_EVA	99	Rpleas_acq	Oppo	Rpleas	Amasked	CS_A	2pleas	distractor1	CONbeforeEVA	acq_new_unple_masked	acq1_masked	1	36	0	0	300	300	0	0	478	50	0	0	0	0	0	1	blank2r.bmp	0	1	+	0	2	B2r.bmp	492	1	blank2r.bmp	786	6	C2r.bmp	786	1	blank2r.bmp	866	1	gierig	866	1	FEHLER	1386	0	0	0	0	0	0	0	0	0	0	0	0	0	0	0	0	0	0	0	0	0	0	0	0	0	0	0	0	0	0
013019	09:03:41	09:07:09	206699	5.0.10.0	4_exp_AWA_CON_AMP_EVA	99	Rpleas_acq	Oppo	Rpleas	Amasked	CS_A	2pleas	distractor1	CONbeforeEVA	acq_new_pleas_masked	acq2_masked	2	1	480	1	300	300	0	0	426	50	0	1	0	0	0	1	blank2r.bmp	0	1	+	0	8	C4r.bmp	492	1	blank2r.bmp	786	1	B1r.bmp	786	1	blank2r.bmp	866	6	sonnig	866	1	!	1319	1	!	1332	0	0	0	0	0	0	0	0	0	0	0	0	0	0	0	0	0	0	0	0	0	0	0	0	0	0	0
013019	09:03:41	09:07:11	208978	5.0.10.0	4_exp_AWA_CON_AMP_EVA	99	Rpleas_acq	Oppo	Rpleas	Amasked	CS_A	2pleas	distractor1	CONbeforeEVA	acq_US_pleas_masked	acq2_masked	2	2	480	1	300	300	0	0	466	50	0	1	0	0	0	1	blank2r.bmp	0	1	+	0	4	B4r.bmp	492	1	blank2r.bmp	786	1	DHJF	786	1	blank2r.bmp	866	2	träumen	866	1	!	1319	1	!	1372	0	0	0	0	0	0	0	0	0	0	0	0	0	0	0	0	0	0	0	0	0	0	0	0	0	0	0
013019	09:03:41	09:07:13	211324	5.0.10.0	4_exp_AWA_CON_AMP_EVA	99	Rpleas_acq	Oppo	Rpleas	Amasked	CS_A	2pleas	distractor1	CONbeforeEVA	acq_new_pleas_masked	acq2_masked	2	3	480	1	300	300	0	0	534	50	0	1	0	0	0	1	blank2r.bmp	0	1	+	0	3	B3r.bmp	492	1	blank2r.bmp	786	5	C1r.bmp	786	1	blank2r.bmp	866	3	kreativ	866	1	!	1319	1	!	1439	0	0	0	0	0	0	0	0	0	0	0	0	0	0	0	0	0	0	0	0	0	0	0	0	0	0	0
013019	09:03:41	09:07:15	213669	5.0.10.0	4_exp_AWA_CON_AMP_EVA	99	Rpleas_acq	Oppo	Rpleas	Amasked	CS_A	2pleas	distractor1	CONbeforeEVA	acq_US_pleas_masked	acq2_masked	2	4	480	0	300	300	0	0	577	50	0	1	0	0	0	1	blank2r.bmp	0	1	+	0	7	C3r.bmp	492	1	blank2r.bmp	786	1	DHJF	786	1	blank2r.bmp	866	6	gesittet	866	1	!	1319	1	!	-1	0	0	0	0	0	0	0	0	0	0	0	0	0	0	0	0	0	0	0	0	0	0	0	0	0	0	0
013019	09:03:41	09:07:18	216042	5.0.10.0	4_exp_AWA_CON_AMP_EVA	99	Rpleas_acq	Oppo	Rpleas	Amasked	CS_A	2pleas	distractor1	CONbeforeEVA	acq_new_unple_masked	acq2_masked	2	5	480	0	300	300	0	0	587	46	0	1	0	0	0	1	blank2r.bmp	0	1	+	0	2	B2r.bmp	492	1	blank2r.bmp	786	7	C3r.bmp	786	1	blank2r.bmp	866	5	engstirnig	866	1	!	1319	1	!	-1	0	0	0	0	0	0	0	0	0	0	0	0	0	0	0	0	0	0	0	0	0	0	0	0	0	0	0
013019	09:03:41	09:07:20	218214	5.0.10.0	4_exp_AWA_CON_AMP_EVA	99	Rpleas_acq	Oppo	Rpleas	Amasked	CS_A	2pleas	distractor1	CONbeforeEVA	acq_US_pleas_masked	acq2_masked	2	6	480	0	300	300	0	0	387	50	0	1	0	0	0	1	blank2r.bmp	0	1	+	0	7	C3r.bmp	492	1	blank2r.bmp	786	1	DHJF	786	1	blank2r.bmp	866	4	anregung	866	1	!	-1	1	!	-1	0	0	0	0	0	0	0	0	0	0	0	0	0	0	0	0	0	0	0	0	0	0	0	0	0	0	0
013019	09:03:41	09:07:22	220560	5.0.10.0	4_exp_AWA_CON_AMP_EVA	99	Rpleas_acq	Oppo	Rpleas	Amasked	CS_A	2pleas	distractor1	CONbeforeEVA	acq_new_pleas_masked	acq2_masked	2	7	480	1	300	300	0	0	525	50	0	1	0	0	0	1	blank2r.bmp	0	1	+	0	3	B3r.bmp	492	1	blank2r.bmp	786	4	B4r.bmp	786	1	blank2r.bmp	866	1	gütig	866	1	!	1319	1	!	1426	0	0	0	0	0	0	0	0	0	0	0	0	0	0	0	0	0	0	0	0	0	0	0	0	0	0	0
013019	09:03:41	09:07:25	222892	5.0.10.0	4_exp_AWA_CON_AMP_EVA	99	Rpleas_acq	Oppo	Rpleas	Amasked	CS_A	2pleas	distractor1	CONbeforeEVA	acq_new_unple_masked	acq2_masked	2	8	480	0	300	300	0	0	570	46	0	1	0	0	0	1	blank2r.bmp	0	1	+	0	4	B4r.bmp	492	1	blank2r.bmp	786	3	B3r.bmp	786	1	blank2r.bmp	866	2	gemein	866	1	!	1319	1	!	-1	0	0	0	0	0	0	0	0	0	0	0	0	0	0	0	0	0	0	0	0	0	0	0	0	0	0	0
013019	09:03:41	09:07:27	225345	5.0.10.0	4_exp_AWA_CON_AMP_EVA	99	Rpleas_acq	Oppo	Rpleas	Amasked	CS_A	2pleas	distractor1	CONbeforeEVA	acq_US_unple_masked	acq2_masked	2	9	480	1	300	300	0	0	434	50	0	0	0	0	0	1	blank2r.bmp	0	1	+	0	8	C4r.bmp	492	1	blank2r.bmp	786	1	CPLW	786	1	blank2r.bmp	866	3	krise	866	1	FEHLER	1652	1	!	1319	1	!	1332	0	0	0	0	0	0	0	0	0	0	0	0	0	0	0	0	0	0	0	0	0	0	0	0
013019	09:03:41	09:07:29	227304	5.0.10.0	4_exp_AWA_CON_AMP_EVA	99	Rpleas_acq	Oppo	Rpleas	Amasked	CS_A	2pleas	distractor1	CONbeforeEVA	acq_US_unple_masked	acq2_masked	2	10	480	0	300	300	0	0	400	46	0	1	0	0	0	1	blank2r.bmp	0	1	+	0	5	C1r.bmp	492	1	blank2r.bmp	786	1	CPLW	786	1	blank2r.bmp	866	2	töten	866	1	!	-1	1	!	-1	0	0	0	0	0	0	0	0	0	0	0	0	0	0	0	0	0	0	0	0	0	0	0	0	0	0	0
013019	09:03:41	09:07:31	229623	5.0.10.0	4_exp_AWA_CON_AMP_EVA	99	Rpleas_acq	Oppo	Rpleas	Amasked	CS_A	2pleas	distractor1	CONbeforeEVA	acq_US_unple_masked	acq2_masked	2	11	480	1	300	300	0	0	506	46	0	1	0	0	0	1	blank2r.bmp	0	1	+	0	1	B1r.bmp	492	1	blank2r.bmp	786	1	CPLW	786	1	blank2r.bmp	866	1	versagen	866	1	!	1319	1	!	1412	0	0	0	0	0	0	0	0	0	0	0	0	0	0	0	0	0	0	0	0	0	0	0	0	0	0	0
013019	09:03:41	09:07:34	232102	5.0.10.0	4_exp_AWA_CON_AMP_EVA	99	Rpleas_acq	Oppo	Rpleas	Amasked	CS_A	2pleas	distractor1	CONbeforeEVA	acq_new_unple_masked	acq2_masked	2	12	480	0	300	300	0	0	710	46	0	1	0	0	0	1	blank2r.bmp	0	1	+	0	6	C2r.bmp	492	1	blank2r.bmp	786	8	C4r.bmp	786	1	blank2r.bmp	866	6	sterben	866	1	!	1319	1	!	-1	0	0	0	0	0	0	0	0	0	0	0	0	0	0	0	0	0	0	0	0	0	0	0	0	0	0	0
013019	09:03:41	09:07:36	234274	5.0.10.0	4_exp_AWA_CON_AMP_EVA	99	Rpleas_acq	Oppo	Rpleas	Amasked	CS_A	2pleas	distractor1	CONbeforeEVA	acq_US_pleas_masked	acq2_masked	2	13	480	0	300	300	0	0	390	50	0	1	0	0	0	1	blank2r.bmp	0	1	+	0	5	C1r.bmp	492	1	blank2r.bmp	786	1	DHJF	786	1	blank2r.bmp	866	3	kuss	866	1	!	-1	1	!	-1	0	0	0	0	0	0	0	0	0	0	0	0	0	0	0	0	0	0	0	0	0	0	0	0	0	0	0
013019	09:03:41	09:07:38	236567	5.0.10.0	4_exp_AWA_CON_AMP_EVA	99	Rpleas_acq	Oppo	Rpleas	Amasked	CS_A	2pleas	distractor1	CONbeforeEVA	acq_new_pleas_masked	acq2_masked	2	14	480	1	300	300	0	0	486	50	0	1	0	0	0	1	blank2r.bmp	0	1	+	0	6	C2r.bmp	492	1	blank2r.bmp	786	2	B2r.bmp	786	1	blank2r.bmp	866	1	gütig	866	1	!	1319	1	!	1386	0	0	0	0	0	0	0	0	0	0	0	0	0	0	0	0	0	0	0	0	0	0	0	0	0	0	0
013019	09:03:41	09:07:41	238859	5.0.10.0	4_exp_AWA_CON_AMP_EVA	99	Rpleas_acq	Oppo	Rpleas	Amasked	CS_A	2pleas	distractor1	CONbeforeEVA	acq_US_unple_masked	acq2_masked	2	15	480	1	300	300	0	0	504	46	0	1	0	0	0	1	blank2r.bmp	0	1	+	0	1	B1r.bmp	492	1	blank2r.bmp	786	1	CPLW	786	1	blank2r.bmp	866	1	versagen	866	1	!	1319	1	!	1399	0	0	0	0	0	0	0	0	0	0	0	0	0	0	0	0	0	0	0	0	0	0	0	0	0	0	0
013019	09:03:41	09:07:43	241245	5.0.10.0	4_exp_AWA_CON_AMP_EVA	99	Rpleas_acq	Oppo	Rpleas	Amasked	CS_A	2pleas	distractor1	CONbeforeEVA	acq_US_unple_masked	acq2_masked	2	16	480	0	300	300	0	0	612	46	0	1	0	0	0	1	blank2r.bmp	0	1	+	0	4	B4r.bmp	492	1	blank2r.bmp	786	1	CPLW	786	1	blank2r.bmp	866	4	ausrottung	866	1	!	1319	1	!	-1	0	0	0	0	0	0	0	0	0	0	0	0	0	0	0	0	0	0	0	0	0	0	0	0	0	0	0
013019	09:03:41	09:07:45	243497	5.0.10.0	4_exp_AWA_CON_AMP_EVA	99	Rpleas_acq	Oppo	Rpleas	Amasked	CS_A	2pleas	distractor1	CONbeforeEVA	acq_US_pleas_masked	acq2_masked	2	17	480	1	300	300	0	0	450	50	0	1	0	0	0	1	blank2r.bmp	0	1	+	0	7	C3r.bmp	492	1	blank2r.bmp	786	1	DHJF	786	1	blank2r.bmp	866	2	träumen	866	1	!	1319	1	!	1346	0	0	0	0	0	0	0	0	0	0	0	0	0	0	0	0	0	0	0	0	0	0	0	0	0	0	0
013019	09:03:41	09:07:48	245776	5.0.10.0	4_exp_AWA_CON_AMP_EVA	99	Rpleas_acq	Oppo	Rpleas	Amasked	CS_A	2pleas	distractor1	CONbeforeEVA	acq_new_pleas_masked	acq2_masked	2	18	480	1	300	300	0	0	481	50	0	1	0	0	0	1	blank2r.bmp	0	1	+	0	8	C4r.bmp	492	1	blank2r.bmp	786	1	B1r.bmp	786	1	blank2r.bmp	866	4	vergnügt	866	1	!	1319	1	!	1386	0	0	0	0	0	0	0	0	0	0	0	0	0	0	0	0	0	0	0	0	0	0	0	0	0	0	0
013019	09:03:41	09:07:50	247882	5.0.10.0	4_exp_AWA_CON_AMP_EVA	99	Rpleas_acq	Oppo	Rpleas	Amasked	CS_A	2pleas	distractor1	CONbeforeEVA	acq_new_unple_masked	acq2_masked	2	19	480	0	300	300	0	0	320	46	0	1	0	0	0	1	blank2r.bmp	0	1	+	0	2	B2r.bmp	492	1	blank2r.bmp	786	8	C4r.bmp	786	1	blank2r.bmp	866	6	sterben	866	1	!	-1	1	!	-1	0	0	0	0	0	0	0	0	0	0	0	0	0	0	0	0	0	0	0	0	0	0	0	0	0	0	0
013019	09:03:41	09:07:52	250401	5.0.10.0	4_exp_AWA_CON_AMP_EVA	99	Rpleas_acq	Oppo	Rpleas	Amasked	CS_A	2pleas	distractor1	CONbeforeEVA	acq_new_unple_masked	acq2_masked	2	20	480	0	300	300	0	0	741	46	0	1	0	0	0	1	blank2r.bmp	0	1	+	0	3	B3r.bmp	492	1	blank2r.bmp	786	5	C1r.bmp	786	1	blank2r.bmp	866	1	gierig	866	1	!	1319	1	!	-1	0	0	0	0	0	0	0	0	0	0	0	0	0	0	0	0	0	0	0	0	0	0	0	0	0	0	0
013019	09:03:41	09:07:54	252640	5.0.10.0	4_exp_AWA_CON_AMP_EVA	99	Rpleas_acq	Oppo	Rpleas	Amasked	CS_A	2pleas	distractor1	CONbeforeEVA	acq_US_pleas_masked	acq2_masked	2	21	480	1	300	300	0	0	435	50	0	1	0	0	0	1	blank2r.bmp	0	1	+	0	7	C3r.bmp	492	1	blank2r.bmp	786	1	DHJF	786	1	blank2r.bmp	866	4	anregung	866	1	!	1319	1	!	1332	0	0	0	0	0	0	0	0	0	0	0	0	0	0	0	0	0	0	0	0	0	0	0	0	0	0	0
013019	09:03:41	09:07:57	254972	5.0.10.0	4_exp_AWA_CON_AMP_EVA	99	Rpleas_acq	Oppo	Rpleas	Amasked	CS_A	2pleas	distractor1	CONbeforeEVA	acq_new_pleas_masked	acq2_masked	2	22	480	0	300	300	0	0	337	46	0	0	0	0	0	1	blank2r.bmp	0	1	+	0	1	B1r.bmp	492	1	blank2r.bmp	786	4	B4r.bmp	786	1	blank2r.bmp	866	5	engagiert	866	1	FEHLER	1546	1	!	-1	1	!	-1	0	0	0	0	0	0	0	0	0	0	0	0	0	0	0	0	0	0	0	0	0	0	0	0
013019	09:03:41	09:07:59	257224	5.0.10.0	4_exp_AWA_CON_AMP_EVA	99	Rpleas_acq	Oppo	Rpleas	Amasked	CS_A	2pleas	distractor1	CONbeforeEVA	acq_new_unple_masked	acq2_masked	2	23	480	1	300	300	0	0	455	50	0	0	0	0	0	1	blank2r.bmp	0	1	+	0	4	B4r.bmp	492	1	blank2r.bmp	786	6	C2r.bmp	786	1	blank2r.bmp	866	5	engstirnig	866	1	FEHLER	1679	1	!	1319	1	!	1359	0	0	0	0	0	0	0	0	0	0	0	0	0	0	0	0	0	0	0	0	0	0	0	0
013019	09:03:41	09:08:01	259370	5.0.10.0	4_exp_AWA_CON_AMP_EVA	99	Rpleas_acq	Oppo	Rpleas	Amasked	CS_A	2pleas	distractor1	CONbeforeEVA	acq_US_unple_masked	acq2_masked	2	24	480	0	300	300	0	0	591	46	0	1	0	0	0	1	blank2r.bmp	0	1	+	0	2	B2r.bmp	492	1	blank2r.bmp	786	1	CPLW	786	1	blank2r.bmp	866	3	krise	866	1	!	1319	1	!	-1	0	0	0	0	0	0	0	0	0	0	0	0	0	0	0	0	0	0	0	0	0	0	0	0	0	0	0
013019	09:03:41	09:08:03	261503	5.0.10.0	4_exp_AWA_CON_AMP_EVA	99	Rpleas_acq	Oppo	Rpleas	Amasked	CS_A	2pleas	distractor1	CONbeforeEVA	acq_new_unple_masked	acq2_masked	2	25	480	0	300	300	0	0	357	46	0	1	0	0	0	1	blank2r.bmp	0	1	+	0	5	C1r.bmp	492	1	blank2r.bmp	786	7	C3r.bmp	786	1	blank2r.bmp	866	4	verbissen	866	1	!	-1	1	!	-1	0	0	0	0	0	0	0	0	0	0	0	0	0	0	0	0	0	0	0	0	0	0	0	0	0	0	0
013019	09:03:41	09:08:06	263848	5.0.10.0	4_exp_AWA_CON_AMP_EVA	99	Rpleas_acq	Oppo	Rpleas	Amasked	CS_A	2pleas	distractor1	CONbeforeEVA	acq_new_unple_masked	acq2_masked	2	26	480	0	300	300	0	0	559	46	0	1	0	0	0	1	blank2r.bmp	0	1	+	0	8	C4r.bmp	492	1	blank2r.bmp	786	3	B3r.bmp	786	1	blank2r.bmp	866	3	krank	866	1	!	1319	1	!	-1	0	0	0	0	0	0	0	0	0	0	0	0	0	0	0	0	0	0	0	0	0	0	0	0	0	0	0
013019	09:03:41	09:08:08	266127	5.0.10.0	4_exp_AWA_CON_AMP_EVA	99	Rpleas_acq	Oppo	Rpleas	Amasked	CS_A	2pleas	distractor1	CONbeforeEVA	acq_US_unple_masked	acq2_masked	2	27	480	1	300	300	0	0	476	46	0	1	0	0	0	1	blank2r.bmp	0	1	+	0	3	B3r.bmp	492	1	blank2r.bmp	786	1	CPLW	786	1	blank2r.bmp	866	6	geizig	866	1	!	1319	1	!	1372	0	0	0	0	0	0	0	0	0	0	0	0	0	0	0	0	0	0	0	0	0	0	0	0	0	0	0
013019	09:03:41	09:08:10	268247	5.0.10.0	4_exp_AWA_CON_AMP_EVA	99	Rpleas_acq	Oppo	Rpleas	Amasked	CS_A	2pleas	distractor1	CONbeforeEVA	acq_US_pleas_masked	acq2_masked	2	28	480	0	300	300	0	0	354	50	0	1	0	0	0	1	blank2r.bmp	0	1	+	0	6	C2r.bmp	492	1	blank2r.bmp	786	1	DHJF	786	1	blank2r.bmp	866	5	besonnen	866	1	!	-1	1	!	-1	0	0	0	0	0	0	0	0	0	0	0	0	0	0	0	0	0	0	0	0	0	0	0	0	0	0	0
013019	09:03:41	09:08:12	270579	5.0.10.0	4_exp_AWA_CON_AMP_EVA	99	Rpleas_acq	Oppo	Rpleas	Amasked	CS_A	2pleas	distractor1	CONbeforeEVA	acq_new_unple_masked	acq2_masked	2	29	480	1	300	300	0	0	525	46	0	1	0	0	0	1	blank2r.bmp	0	1	+	0	7	C3r.bmp	492	1	blank2r.bmp	786	2	B2r.bmp	786	1	blank2r.bmp	866	2	gemein	866	1	!	1319	1	!	1426	0	0	0	0	0	0	0	0	0	0	0	0	0	0	0	0	0	0	0	0	0	0	0	0	0	0	0
013019	09:03:41	09:08:15	272805	5.0.10.0	4_exp_AWA_CON_AMP_EVA	99	Rpleas_acq	Oppo	Rpleas	Amasked	CS_A	2pleas	distractor1	CONbeforeEVA	acq_new_pleas_masked	acq2_masked	2	30	480	1	300	300	0	0	426	50	0	1	0	0	0	1	blank2r.bmp	0	1	+	0	4	B4r.bmp	492	1	blank2r.bmp	786	5	C1r.bmp	786	1	blank2r.bmp	866	6	sonnig	866	1	!	1319	1	!	1332	0	0	0	0	0	0	0	0	0	0	0	0	0	0	0	0	0	0	0	0	0	0	0	0	0	0	0
013019	09:03:41	09:08:17	275137	5.0.10.0	4_exp_AWA_CON_AMP_EVA	99	Rpleas_acq	Oppo	Rpleas	Amasked	CS_A	2pleas	distractor1	CONbeforeEVA	acq_new_pleas_masked	acq2_masked	2	31	480	0	300	300	0	0	559	50	0	1	0	0	0	1	blank2r.bmp	0	1	+	0	6	C2r.bmp	492	1	blank2r.bmp	786	8	C4r.bmp	786	1	blank2r.bmp	866	3	kreativ	866	1	!	1319	1	!	-1	0	0	0	0	0	0	0	0	0	0	0	0	0	0	0	0	0	0	0	0	0	0	0	0	0	0	0
013019	09:03:41	09:08:19	277483	5.0.10.0	4_exp_AWA_CON_AMP_EVA	99	Rpleas_acq	Oppo	Rpleas	Amasked	CS_A	2pleas	distractor1	CONbeforeEVA	acq_US_pleas_masked	acq2_masked	2	32	480	0	300	300	0	0	334	46	0	0	0	0	0	1	blank2r.bmp	0	1	+	0	1	B1r.bmp	492	1	blank2r.bmp	786	1	DHJF	786	1	blank2r.bmp	866	1	vertrauen	866	1	FEHLER	1546	1	!	-1	1	!	-1	0	0	0	0	0	0	0	0	0	0	0	0	0	0	0	0	0	0	0	0	0	0	0	0
013019	09:03:41	09:08:22	279775	5.0.10.0	4_exp_AWA_CON_AMP_EVA	99	Rpleas_acq	Oppo	Rpleas	Amasked	CS_A	2pleas	distractor1	CONbeforeEVA	acq_US_unple_masked	acq2_masked	2	33	480	0	300	300	0	0	733	46	0	1	0	0	0	1	blank2r.bmp	0	1	+	0	5	C1r.bmp	492	1	blank2r.bmp	786	1	CPLW	786	1	blank2r.bmp	866	2	töten	866	1	!	1319	1	!	-1	0	0	0	0	0	0	0	0	0	0	0	0	0	0	0	0	0	0	0	0	0	0	0	0	0	0	0
013019	09:03:41	09:08:24	282187	5.0.10.0	4_exp_AWA_CON_AMP_EVA	99	Rpleas_acq	Oppo	Rpleas	Amasked	CS_A	2pleas	distractor1	CONbeforeEVA	acq_US_pleas_masked	acq2_masked	2	34	480	0	300	300	0	0	407	46	0	0	0	0	0	1	blank2r.bmp	0	1	+	0	2	B2r.bmp	492	1	blank2r.bmp	786	1	DHJF	786	1	blank2r.bmp	866	6	gesittet	866	1	FEHLER	1612	1	!	-1	1	!	-1	0	0	0	0	0	0	0	0	0	0	0	0	0	0	0	0	0	0	0	0	0	0	0	0
013019	09:03:41	09:08:26	284346	5.0.10.0	4_exp_AWA_CON_AMP_EVA	99	Rpleas_acq	Oppo	Rpleas	Amasked	CS_A	2pleas	distractor1	CONbeforeEVA	acq_US_unple_masked	acq2_masked	2	35	480	0	300	300	0	0	378	50	0	0	0	0	0	1	blank2r.bmp	0	1	+	0	3	B3r.bmp	492	1	blank2r.bmp	786	1	CPLW	786	1	blank2r.bmp	866	5	bange	866	1	FEHLER	1585	1	!	-1	1	!	-1	0	0	0	0	0	0	0	0	0	0	0	0	0	0	0	0	0	0	0	0	0	0	0	0
013019	09:03:41	09:08:28	286292	5.0.10.0	4_exp_AWA_CON_AMP_EVA	99	Rpleas_acq	Oppo	Rpleas	Amasked	CS_A	2pleas	distractor1	CONbeforeEVA	acq_new_pleas_masked	acq2_masked	2	36	480	0	300	300	0	0	397	50	0	1	0	0	0	1	blank2r.bmp	0	1	+	0	8	C4r.bmp	492	1	blank2r.bmp	786	7	C3r.bmp	786	1	blank2r.bmp	866	2	genießen	866	1	!	-1	1	!	-1	0	0	0	0	0	0	0	0	0	0	0	0	0	0	0	0	0	0	0	0	0	0	0	0	0	0	0
013019	09:03:41	09:08:43	301126	5.0.10.0	4_exp_AWA_CON_AMP_EVA	99	Rpleas_acq	Oppo	Rpleas	Amasked	CS_A	2pleas	distractor1	CONbeforeEVA	acq_US_pleas_masked	acq3_masked	3	1	453	1	300	300	0	0	444	50	0	1	0	0	0	1	blank2r.bmp	0	1	+	0	1	B1r.bmp	492	1	blank2r.bmp	786	1	DHJF	786	1	blank2r.bmp	866	5	besonnen	866	1	!	1292	1	!	1346	0	0	0	0	0	0	0	0	0	0	0	0	0	0	0	0	0	0	0	0	0	0	0	0	0	0	0
013019	09:03:41	09:08:45	303472	5.0.10.0	4_exp_AWA_CON_AMP_EVA	99	Rpleas_acq	Oppo	Rpleas	Amasked	CS_A	2pleas	distractor1	CONbeforeEVA	acq_US_pleas_masked	acq3_masked	3	2	453	0	300	300	0	0	559	50	0	1	0	0	0	1	blank2r.bmp	0	1	+	0	6	C2r.bmp	492	1	blank2r.bmp	786	1	DHJF	786	1	blank2r.bmp	866	6	gesittet	866	1	!	1292	1	!	-1	0	0	0	0	0	0	0	0	0	0	0	0	0	0	0	0	0	0	0	0	0	0	0	0	0	0	0
013019	09:03:41	09:08:47	305578	5.0.10.0	4_exp_AWA_CON_AMP_EVA	99	Rpleas_acq	Oppo	Rpleas	Amasked	CS_A	2pleas	distractor1	CONbeforeEVA	acq_US_unple_masked	acq3_masked	3	3	453	0	300	300	0	0	329	46	0	1	0	0	0	1	blank2r.bmp	0	1	+	0	8	C4r.bmp	492	1	blank2r.bmp	786	1	CPLW	786	1	blank2r.bmp	866	2	töten	866	1	!	-1	1	!	-1	0	0	0	0	0	0	0	0	0	0	0	0	0	0	0	0	0	0	0	0	0	0	0	0	0	0	0
013019	09:03:41	09:08:50	307883	5.0.10.0	4_exp_AWA_CON_AMP_EVA	99	Rpleas_acq	Oppo	Rpleas	Amasked	CS_A	2pleas	distractor1	CONbeforeEVA	acq_US_unple_masked	acq3_masked	3	4	453	1	300	300	0	0	494	46	0	1	0	0	0	1	blank2r.bmp	0	1	+	0	7	C3r.bmp	492	1	blank2r.bmp	786	1	CPLW	786	1	blank2r.bmp	866	5	bange	866	1	!	1292	1	!	1399	0	0	0	0	0	0	0	0	0	0	0	0	0	0	0	0	0	0	0	0	0	0	0	0	0	0	0
013019	09:03:41	09:08:52	310096	5.0.10.0	4_exp_AWA_CON_AMP_EVA	99	Rpleas_acq	Oppo	Rpleas	Amasked	CS_A	2pleas	distractor1	CONbeforeEVA	acq_US_unple_masked	acq3_masked	3	5	453	1	300	300	0	0	412	46	0	1	0	0	0	1	blank2r.bmp	0	1	+	0	4	B4r.bmp	492	1	blank2r.bmp	786	1	CPLW	786	1	blank2r.bmp	866	3	krise	866	1	!	1292	1	!	1319	0	0	0	0	0	0	0	0	0	0	0	0	0	0	0	0	0	0	0	0	0	0	0	0	0	0	0
013019	09:03:41	09:08:54	312415	5.0.10.0	4_exp_AWA_CON_AMP_EVA	99	Rpleas_acq	Oppo	Rpleas	Amasked	CS_A	2pleas	distractor1	CONbeforeEVA	acq_US_unple_masked	acq3_masked	3	6	453	1	300	300	0	0	514	46	0	1	0	0	0	1	blank2r.bmp	0	1	+	0	5	C1r.bmp	492	1	blank2r.bmp	786	1	CPLW	786	1	blank2r.bmp	866	4	ausrottung	866	1	!	1292	1	!	1412	0	0	0	0	0	0	0	0	0	0	0	0	0	0	0	0	0	0	0	0	0	0	0	0	0	0	0
013019	09:03:41	09:08:57	314720	5.0.10.0	4_exp_AWA_CON_AMP_EVA	99	Rpleas_acq	Oppo	Rpleas	Amasked	CS_A	2pleas	distractor1	CONbeforeEVA	acq_US_unple_masked	acq3_masked	3	7	453	0	300	300	0	0	317	50	0	0	0	0	0	1	blank2r.bmp	0	1	+	0	3	B3r.bmp	492	1	blank2r.bmp	786	1	CPLW	786	1	blank2r.bmp	866	1	versagen	866	1	FEHLER	1519	1	!	-1	1	!	-1	0	0	0	0	0	0	0	0	0	0	0	0	0	0	0	0	0	0	0	0	0	0	0	0
013019	09:03:41	09:08:59	316773	5.0.10.0	4_exp_AWA_CON_AMP_EVA	99	Rpleas_acq	Oppo	Rpleas	Amasked	CS_A	2pleas	distractor1	CONbeforeEVA	acq_US_pleas_masked	acq3_masked	3	8	453	1	300	300	0	0	472	50	0	1	0	0	0	1	blank2r.bmp	0	1	+	0	2	B2r.bmp	492	1	blank2r.bmp	786	1	DHJF	786	1	blank2r.bmp	866	2	träumen	866	1	!	1292	1	!	1372	0	0	0	0	0	0	0	0	0	0	0	0	0	0	0	0	0	0	0	0	0	0	0	0	0	0	0
013019	09:03:41	09:09:01	319052	5.0.10.0	4_exp_AWA_CON_AMP_EVA	99	Rpleas_acq	Oppo	Rpleas	Amasked	CS_A	2pleas	distractor1	CONbeforeEVA	acq_US_pleas_masked	acq3_masked	3	9	453	1	300	300	0	0	467	50	0	1	0	0	0	1	blank2r.bmp	0	1	+	0	5	C1r.bmp	492	1	blank2r.bmp	786	1	DHJF	786	1	blank2r.bmp	866	4	anregung	866	1	!	1292	1	!	1372	0	0	0	0	0	0	0	0	0	0	0	0	0	0	0	0	0	0	0	0	0	0	0	0	0	0	0
013019	09:03:41	09:09:03	321198	5.0.10.0	4_exp_AWA_CON_AMP_EVA	99	Rpleas_acq	Oppo	Rpleas	Amasked	CS_A	2pleas	distractor1	CONbeforeEVA	acq_US_unple_masked	acq3_masked	3	10	453	0	300	300	0	0	379	46	0	1	0	0	0	1	blank2r.bmp	0	1	+	0	1	B1r.bmp	492	1	blank2r.bmp	786	1	CPLW	786	1	blank2r.bmp	866	6	geizig	866	1	!	-1	1	!	-1	0	0	0	0	0	0	0	0	0	0	0	0	0	0	0	0	0	0	0	0	0	0	0	0	0	0	0
013019	09:03:41	09:09:05	323583	5.0.10.0	4_exp_AWA_CON_AMP_EVA	99	Rpleas_acq	Oppo	Rpleas	Amasked	CS_A	2pleas	distractor1	CONbeforeEVA	acq_US_pleas_masked	acq3_masked	3	11	453	0	300	300	0	0	599	50	0	1	0	0	0	1	blank2r.bmp	0	1	+	0	3	B3r.bmp	492	1	blank2r.bmp	786	1	DHJF	786	1	blank2r.bmp	866	1	vertrauen	866	1	!	1292	1	!	-1	0	0	0	0	0	0	0	0	0	0	0	0	0	0	0	0	0	0	0	0	0	0	0	0	0	0	0
013019	09:03:41	09:09:08	325902	5.0.10.0	4_exp_AWA_CON_AMP_EVA	99	Rpleas_acq	Oppo	Rpleas	Amasked	CS_A	2pleas	distractor1	CONbeforeEVA	acq_US_pleas_masked	acq3_masked	3	12	453	0	300	300	0	0	311	46	0	0	0	0	0	1	blank2r.bmp	0	1	+	0	2	B2r.bmp	492	1	blank2r.bmp	786	1	DHJF	786	1	blank2r.bmp	866	3	kuss	866	1	FEHLER	1519	1	!	-1	1	!	-1	0	0	0	0	0	0	0	0	0	0	0	0	0	0	0	0	0	0	0	0	0	0	0	0
013019	09:03:41	09:09:10	327888	5.0.10.0	4_exp_AWA_CON_AMP_EVA	99	Rpleas_acq	Oppo	Rpleas	Amasked	CS_A	2pleas	distractor1	CONbeforeEVA	acq_US_pleas_masked	acq3_masked	3	13	453	1	300	300	0	0	412	50	0	1	0	0	0	1	blank2r.bmp	0	1	+	0	6	C2r.bmp	492	1	blank2r.bmp	786	1	DHJF	786	1	blank2r.bmp	866	5	besonnen	866	1	!	1292	1	!	1306	0	0	0	0	0	0	0	0	0	0	0	0	0	0	0	0	0	0	0	0	0	0	0	0	0	0	0
013019	09:03:41	09:09:12	330034	5.0.10.0	4_exp_AWA_CON_AMP_EVA	99	Rpleas_acq	Oppo	Rpleas	Amasked	CS_A	2pleas	distractor1	CONbeforeEVA	acq_US_pleas_masked	acq3_masked	3	14	453	0	300	300	0	0	384	50	0	1	0	0	0	1	blank2r.bmp	0	1	+	0	4	B4r.bmp	492	1	blank2r.bmp	786	1	DHJF	786	1	blank2r.bmp	866	4	anregung	866	1	!	-1	1	!	-1	0	0	0	0	0	0	0	0	0	0	0	0	0	0	0	0	0	0	0	0	0	0	0	0	0	0	0
013019	09:03:41	09:09:14	332393	5.0.10.0	4_exp_AWA_CON_AMP_EVA	99	Rpleas_acq	Oppo	Rpleas	Amasked	CS_A	2pleas	distractor1	CONbeforeEVA	acq_US_pleas_masked	acq3_masked	3	15	453	0	300	300	0	0	560	50	0	1	0	0	0	1	blank2r.bmp	0	1	+	0	8	C4r.bmp	492	1	blank2r.bmp	786	1	DHJF	786	1	blank2r.bmp	866	6	gesittet	866	1	!	1292	1	!	-1	0	0	0	0	0	0	0	0	0	0	0	0	0	0	0	0	0	0	0	0	0	0	0	0	0	0	0
013019	09:03:41	09:09:17	334819	5.0.10.0	4_exp_AWA_CON_AMP_EVA	99	Rpleas_acq	Oppo	Rpleas	Amasked	CS_A	2pleas	distractor1	CONbeforeEVA	acq_US_unple_masked	acq3_masked	3	16	453	1	300	300	0	0	399	50	0	0	0	0	0	1	blank2r.bmp	0	1	+	0	7	C3r.bmp	492	1	blank2r.bmp	786	1	CPLW	786	1	blank2r.bmp	866	5	bange	866	1	FEHLER	1625	1	!	1292	1	!	1306	0	0	0	0	0	0	0	0	0	0	0	0	0	0	0	0	0	0	0	0	0	0	0	0
013019	09:03:41	09:09:19	336964	5.0.10.0	4_exp_AWA_CON_AMP_EVA	99	Rpleas_acq	Oppo	Rpleas	Amasked	CS_A	2pleas	distractor1	CONbeforeEVA	acq_US_unple_masked	acq3_masked	3	17	453	0	300	300	0	0	592	46	0	1	0	0	0	1	blank2r.bmp	0	1	+	0	7	C3r.bmp	492	1	blank2r.bmp	786	1	CPLW	786	1	blank2r.bmp	866	6	geizig	866	1	!	1292	1	!	-1	0	0	0	0	0	0	0	0	0	0	0	0	0	0	0	0	0	0	0	0	0	0	0	0	0	0	0
013019	09:03:41	09:09:21	339230	5.0.10.0	4_exp_AWA_CON_AMP_EVA	99	Rpleas_acq	Oppo	Rpleas	Amasked	CS_A	2pleas	distractor1	CONbeforeEVA	acq_US_unple_masked	acq3_masked	3	18	453	1	300	300	0	0	463	46	0	1	0	0	0	1	blank2r.bmp	0	1	+	0	2	B2r.bmp	492	1	blank2r.bmp	786	1	CPLW	786	1	blank2r.bmp	866	4	ausrottung	866	1	!	1292	1	!	1359	0	0	0	0	0	0	0	0	0	0	0	0	0	0	0	0	0	0	0	0	0	0	0	0	0	0	0
013019	09:03:41	09:09:23	341562	5.0.10.0	4_exp_AWA_CON_AMP_EVA	99	Rpleas_acq	Oppo	Rpleas	Amasked	CS_A	2pleas	distractor1	CONbeforeEVA	acq_US_unple_masked	acq3_masked	3	19	453	0	300	300	0	0	569	46	0	1	0	0	0	1	blank2r.bmp	0	1	+	0	4	B4r.bmp	492	1	blank2r.bmp	786	1	CPLW	786	1	blank2r.bmp	866	1	versagen	866	1	!	1292	1	!	-1	0	0	0	0	0	0	0	0	0	0	0	0	0	0	0	0	0	0	0	0	0	0	0	0	0	0	0
013019	09:03:41	09:09:26	343801	5.0.10.0	4_exp_AWA_CON_AMP_EVA	99	Rpleas_acq	Oppo	Rpleas	Amasked	CS_A	2pleas	distractor1	CONbeforeEVA	acq_US_unple_masked	acq3_masked	3	20	453	1	300	300	0	0	412	46	0	1	0	0	0	1	blank2r.bmp	0	1	+	0	8	C4r.bmp	492	1	blank2r.bmp	786	1	CPLW	786	1	blank2r.bmp	866	2	töten	866	1	!	1292	1	!	1319	0	0	0	0	0	0	0	0	0	0	0	0	0	0	0	0	0	0	0	0	0	0	0	0	0	0	0
013019	09:03:41	09:09:28	346001	5.0.10.0	4_exp_AWA_CON_AMP_EVA	99	Rpleas_acq	Oppo	Rpleas	Amasked	CS_A	2pleas	distractor1	CONbeforeEVA	acq_US_pleas_masked	acq3_masked	3	21	453	1	300	300	0	0	399	50	0	1	0	0	0	1	blank2r.bmp	0	1	+	0	1	B1r.bmp	492	1	blank2r.bmp	786	1	DHJF	786	1	blank2r.bmp	866	3	kuss	866	1	!	1292	1	!	1306	0	0	0	0	0	0	0	0	0	0	0	0	0	0	0	0	0	0	0	0	0	0	0	0	0	0	0
013019	09:03:41	09:09:30	348146	5.0.10.0	4_exp_AWA_CON_AMP_EVA	99	Rpleas_acq	Oppo	Rpleas	Amasked	CS_A	2pleas	distractor1	CONbeforeEVA	acq_US_pleas_masked	acq3_masked	3	22	453	0	300	300	0	0	374	50	0	1	0	0	0	1	blank2r.bmp	0	1	+	0	6	C2r.bmp	492	1	blank2r.bmp	786	1	DHJF	786	1	blank2r.bmp	866	1	vertrauen	866	1	!	-1	1	!	-1	0	0	0	0	0	0	0	0	0	0	0	0	0	0	0	0	0	0	0	0	0	0	0	0	0	0	0
013019	09:03:41	09:09:32	350492	5.0.10.0	4_exp_AWA_CON_AMP_EVA	99	Rpleas_acq	Oppo	Rpleas	Amasked	CS_A	2pleas	distractor1	CONbeforeEVA	acq_US_pleas_masked	acq3_masked	3	23	453	0	300	300	0	0	554	50	0	1	0	0	0	1	blank2r.bmp	0	1	+	0	5	C1r.bmp	492	1	blank2r.bmp	786	1	DHJF	786	1	blank2r.bmp	866	2	träumen	866	1	!	1292	1	!	-1	0	0	0	0	0	0	0	0	0	0	0	0	0	0	0	0	0	0	0	0	0	0	0	0	0	0	0
013019	09:03:41	09:09:35	352864	5.0.10.0	4_exp_AWA_CON_AMP_EVA	99	Rpleas_acq	Oppo	Rpleas	Amasked	CS_A	2pleas	distractor1	CONbeforeEVA	acq_US_unple_masked	acq3_masked	3	24	453	0	300	300	0	0	360	50	0	0	0	0	0	1	blank2r.bmp	0	1	+	0	3	B3r.bmp	492	1	blank2r.bmp	786	1	CPLW	786	1	blank2r.bmp	866	3	krise	866	1	FEHLER	1572	1	!	-1	1	!	-1	0	0	0	0	0	0	0	0	0	0	0	0	0	0	0	0	0	0	0	0	0	0	0	0
013019	09:03:41	09:09:37	354917	5.0.10.0	4_exp_AWA_CON_AMP_EVA	99	Rpleas_acq	Oppo	Rpleas	Amasked	CS_A	2pleas	distractor1	CONbeforeEVA	acq_US_pleas_masked	acq3_masked	3	25	453	1	300	300	0	0	452	50	0	1	0	0	0	1	blank2r.bmp	0	1	+	0	5	C1r.bmp	492	1	blank2r.bmp	786	1	DHJF	786	1	blank2r.bmp	866	4	anregung	866	1	!	1292	1	!	1359	0	0	0	0	0	0	0	0	0	0	0	0	0	0	0	0	0	0	0	0	0	0	0	0	0	0	0
013019	09:03:41	09:09:39	357116	5.0.10.0	4_exp_AWA_CON_AMP_EVA	99	Rpleas_acq	Oppo	Rpleas	Amasked	CS_A	2pleas	distractor1	CONbeforeEVA	acq_US_pleas_masked	acq3_masked	3	26	453	1	300	300	0	0	403	50	0	1	0	0	0	1	blank2r.bmp	0	1	+	0	1	B1r.bmp	492	1	blank2r.bmp	786	1	DHJF	786	1	blank2r.bmp	866	5	besonnen	866	1	!	1292	1	!	1306	0	0	0	0	0	0	0	0	0	0	0	0	0	0	0	0	0	0	0	0	0	0	0	0	0	0	0
013019	09:03:41	09:09:41	359315	5.0.10.0	4_exp_AWA_CON_AMP_EVA	99	Rpleas_acq	Oppo	Rpleas	Amasked	CS_A	2pleas	distractor1	CONbeforeEVA	acq_US_pleas_masked	acq3_masked	3	27	453	1	300	300	0	0	399	50	0	1	0	0	0	1	blank2r.bmp	0	1	+	0	3	B3r.bmp	492	1	blank2r.bmp	786	1	DHJF	786	1	blank2r.bmp	866	1	vertrauen	866	1	!	1292	1	!	1306	0	0	0	0	0	0	0	0	0	0	0	0	0	0	0	0	0	0	0	0	0	0	0	0	0	0	0
013019	09:03:41	09:09:43	361594	5.0.10.0	4_exp_AWA_CON_AMP_EVA	99	Rpleas_acq	Oppo	Rpleas	Amasked	CS_A	2pleas	distractor1	CONbeforeEVA	acq_US_unple_masked	acq3_masked	3	28	453	1	300	300	0	0	484	46	0	1	0	0	0	1	blank2r.bmp	0	1	+	0	7	C3r.bmp	492	1	blank2r.bmp	786	1	CPLW	786	1	blank2r.bmp	866	4	ausrottung	866	1	!	1292	1	!	1386	0	0	0	0	0	0	0	0	0	0	0	0	0	0	0	0	0	0	0	0	0	0	0	0	0	0	0
013019	09:03:41	09:09:46	363873	5.0.10.0	4_exp_AWA_CON_AMP_EVA	99	Rpleas_acq	Oppo	Rpleas	Amasked	CS_A	2pleas	distractor1	CONbeforeEVA	acq_US_unple_masked	acq3_masked	3	29	453	1	300	300	0	0	489	46	0	1	0	0	0	1	blank2r.bmp	0	1	+	0	4	B4r.bmp	492	1	blank2r.bmp	786	1	CPLW	786	1	blank2r.bmp	866	2	töten	866	1	!	1292	1	!	1386	0	0	0	0	0	0	0	0	0	0	0	0	0	0	0	0	0	0	0	0	0	0	0	0	0	0	0
013019	09:03:41	09:09:48	366312	5.0.10.0	4_exp_AWA_CON_AMP_EVA	99	Rpleas_acq	Oppo	Rpleas	Amasked	CS_A	2pleas	distractor1	CONbeforeEVA	acq_US_unple_masked	acq3_masked	3	30	453	1	300	300	0	0	426	50	0	0	0	0	0	1	blank2r.bmp	0	1	+	0	2	B2r.bmp	492	1	blank2r.bmp	786	1	CPLW	786	1	blank2r.bmp	866	6	geizig	866	1	FEHLER	1652	1	!	1292	1	!	1332	0	0	0	0	0	0	0	0	0	0	0	0	0	0	0	0	0	0	0	0	0	0	0	0
013019	09:03:41	09:09:50	368351	5.0.10.0	4_exp_AWA_CON_AMP_EVA	99	Rpleas_acq	Oppo	Rpleas	Amasked	CS_A	2pleas	distractor1	CONbeforeEVA	acq_US_pleas_masked	acq3_masked	3	31	453	1	300	300	0	0	449	50	0	1	0	0	0	1	blank2r.bmp	0	1	+	0	6	C2r.bmp	492	1	blank2r.bmp	786	1	DHJF	786	1	blank2r.bmp	866	2	träumen	866	1	!	1292	1	!	1346	0	0	0	0	0	0	0	0	0	0	0	0	0	0	0	0	0	0	0	0	0	0	0	0	0	0	0
013019	09:03:41	09:09:52	370657	5.0.10.0	4_exp_AWA_CON_AMP_EVA	99	Rpleas_acq	Oppo	Rpleas	Amasked	CS_A	2pleas	distractor1	CONbeforeEVA	acq_US_unple_masked	acq3_masked	3	32	453	1	300	300	0	0	516	46	0	1	0	0	0	1	blank2r.bmp	0	1	+	0	8	C4r.bmp	492	1	blank2r.bmp	786	1	CPLW	786	1	blank2r.bmp	866	3	krise	866	1	!	1292	1	!	1412	0	0	0	0	0	0	0	0	0	0	0	0	0	0	0	0	0	0	0	0	0	0	0	0	0	0	0
013019	09:03:41	09:09:55	372963	5.0.10.0	4_exp_AWA_CON_AMP_EVA	99	Rpleas_acq	Oppo	Rpleas	Amasked	CS_A	2pleas	distractor1	CONbeforeEVA	acq_US_pleas_masked	acq3_masked	3	33	453	0	300	300	0	0	532	50	0	1	0	0	0	1	blank2r.bmp	0	1	+	0	2	B2r.bmp	492	1	blank2r.bmp	786	1	DHJF	786	1	blank2r.bmp	866	6	gesittet	866	1	!	1292	1	!	-1	0	0	0	0	0	0	0	0	0	0	0	0	0	0	0	0	0	0	0	0	0	0	0	0	0	0	0
013019	09:03:41	09:09:57	375055	5.0.10.0	4_exp_AWA_CON_AMP_EVA	99	Rpleas_acq	Oppo	Rpleas	Amasked	CS_A	2pleas	distractor1	CONbeforeEVA	acq_US_unple_masked	acq3_masked	3	34	453	0	300	300	0	0	310	46	0	1	0	0	0	1	blank2r.bmp	0	1	+	0	8	C4r.bmp	492	1	blank2r.bmp	786	1	CPLW	786	1	blank2r.bmp	866	5	bange	866	1	!	-1	1	!	-1	0	0	0	0	0	0	0	0	0	0	0	0	0	0	0	0	0	0	0	0	0	0	0	0	0	0	0
013019	09:03:41	09:09:59	377547	5.0.10.0	4_exp_AWA_CON_AMP_EVA	99	Rpleas_acq	Oppo	Rpleas	Amasked	CS_A	2pleas	distractor1	CONbeforeEVA	acq_US_unple_masked	acq3_masked	3	35	453	1	300	300	0	0	452	50	0	0	0	0	0	1	blank2r.bmp	0	1	+	0	6	C2r.bmp	492	1	blank2r.bmp	786	1	CPLW	786	1	blank2r.bmp	866	1	versagen	866	1	FEHLER	1679	1	!	1292	1	!	1359	0	0	0	0	0	0	0	0	0	0	0	0	0	0	0	0	0	0	0	0	0	0	0	0
013019	09:03:41	09:10:01	379440	5.0.10.0	4_exp_AWA_CON_AMP_EVA	99	Rpleas_acq	Oppo	Rpleas	Amasked	CS_A	2pleas	distractor1	CONbeforeEVA	acq_US_pleas_masked	acq3_masked	3	36	453	0	300	300	0	0	337	50	0	1	0	0	0	1	blank2r.bmp	0	1	+	0	1	B1r.bmp	492	1	blank2r.bmp	786	1	DHJF	786	1	blank2r.bmp	866	3	kuss	866	1	!	-1	1	!	-1	0	0	0	0	0	0	0	0	0	0	0	0	0	0	0	0	0	0	0	0	0	0	0	0	0	0	0
013019	09:03:41	09:10:12	390062	5.0.10.0	4_exp_AWA_CON_AMP_EVA	99	Rpleas_acq	Oppo	Rpleas	Amasked	CS_A	2pleas	distractor1	CONbeforeEVA	acq_US_unple_masked	acq45_masked	4	1	400	0	300	300	0	0	519	46	0	1	0	0	0	1	blank2r.bmp	0	1	+	0	5	C1r.bmp	492	1	blank2r.bmp	786	1	CPLW	786	1	blank2r.bmp	866	4	ausrottung	866	1	!	1239	1	!	-1	0	0	0	0	0	0	0	0	0	0	0	0	0	0	0	0	0	0	0	0	0	0	0	0	0	0	0
013019	09:03:41	09:10:14	392181	5.0.10.0	4_exp_AWA_CON_AMP_EVA	99	Rpleas_acq	Oppo	Rpleas	Amasked	CS_A	2pleas	distractor1	CONbeforeEVA	acq_US_pleas_masked	acq45_masked	4	2	400	0	300	300	0	0	329	50	0	1	0	0	0	1	blank2r.bmp	0	1	+	0	4	B4r.bmp	492	1	blank2r.bmp	786	1	DHJF	786	1	blank2r.bmp	866	4	anregung	866	1	!	-1	1	!	-1	0	0	0	0	0	0	0	0	0	0	0	0	0	0	0	0	0	0	0	0	0	0	0	0	0	0	0
013019	09:03:41	09:10:16	394460	5.0.10.0	4_exp_AWA_CON_AMP_EVA	99	Rpleas_acq	Oppo	Rpleas	Amasked	CS_A	2pleas	distractor1	CONbeforeEVA	acq_US_pleas_masked	acq45_masked	4	3	400	0	300	300	0	0	495	50	0	1	0	0	0	1	blank2r.bmp	0	1	+	0	3	B3r.bmp	492	1	blank2r.bmp	786	1	DHJF	786	1	blank2r.bmp	866	2	träumen	866	1	!	1239	1	!	-1	0	0	0	0	0	0	0	0	0	0	0	0	0	0	0	0	0	0	0	0	0	0	0	0	0	0	0
013019	09:03:41	09:10:19	396699	5.0.10.0	4_exp_AWA_CON_AMP_EVA	99	Rpleas_acq	Oppo	Rpleas	Amasked	CS_A	2pleas	distractor1	CONbeforeEVA	acq_US_pleas_masked	acq45_masked	4	4	400	1	300	300	0	0	437	50	0	1	0	0	0	1	blank2r.bmp	0	1	+	0	7	C3r.bmp	492	1	blank2r.bmp	786	1	DHJF	786	1	blank2r.bmp	866	6	gesittet	866	1	!	1239	1	!	1332	0	0	0	0	0	0	0	0	0	0	0	0	0	0	0	0	0	0	0	0	0	0	0	0	0	0	0
013019	09:03:41	09:10:21	398778	5.0.10.0	4_exp_AWA_CON_AMP_EVA	99	Rpleas_acq	Oppo	Rpleas	Amasked	CS_A	2pleas	distractor1	CONbeforeEVA	acq_US_pleas_masked	acq45_masked	4	5	400	0	300	300	0	0	315	46	0	0	0	0	0	1	blank2r.bmp	0	1	+	0	4	B4r.bmp	492	1	blank2r.bmp	786	1	DHJF	786	1	blank2r.bmp	866	5	besonnen	866	1	!	-1	1	!	-1	0	0	0	0	0	0	0	0	0	0	0	0	0	0	0	0	0	0	0	0	0	0	0	0	0	0	0
013019	09:03:41	09:10:23	400951	5.0.10.0	4_exp_AWA_CON_AMP_EVA	99	Rpleas_acq	Oppo	Rpleas	Amasked	CS_A	2pleas	distractor1	CONbeforeEVA	acq_US_unple_masked	acq45_masked	4	6	400	1	300	300	0	0	371	50	0	0	0	0	0	1	blank2r.bmp	0	1	+	0	8	C4r.bmp	492	1	blank2r.bmp	786	1	CPLW	786	1	blank2r.bmp	866	1	versagen	866	1	!	1239	1	!	1266	0	0	0	0	0	0	0	0	0	0	0	0	0	0	0	0	0	0	0	0	0	0	0	0	0	0	0
013019	09:03:41	09:10:25	403216	5.0.10.0	4_exp_AWA_CON_AMP_EVA	99	Rpleas_acq	Oppo	Rpleas	Amasked	CS_A	2pleas	distractor1	CONbeforeEVA	acq_US_unple_masked	acq45_masked	4	7	400	0	300	300	0	0	503	46	0	1	0	0	0	1	blank2r.bmp	0	1	+	0	5	C1r.bmp	492	1	blank2r.bmp	786	1	CPLW	786	1	blank2r.bmp	866	2	töten	866	1	!	1239	1	!	-1	0	0	0	0	0	0	0	0	0	0	0	0	0	0	0	0	0	0	0	0	0	0	0	0	0	0	0
013019	09:03:41	09:10:27	405402	5.0.10.0	4_exp_AWA_CON_AMP_EVA	99	Rpleas_acq	Oppo	Rpleas	Amasked	CS_A	2pleas	distractor1	CONbeforeEVA	acq_US_pleas_masked	acq45_masked	4	8	400	1	300	300	0	0	373	50	0	1	0	0	0	1	blank2r.bmp	0	1	+	0	6	C2r.bmp	492	1	blank2r.bmp	786	1	DHJF	786	1	blank2r.bmp	866	1	vertrauen	866	1	!	1239	1	!	1279	0	0	0	0	0	0	0	0	0	0	0	0	0	0	0	0	0	0	0	0	0	0	0	0	0	0	0
013019	09:03:41	09:10:29	407628	5.0.10.0	4_exp_AWA_CON_AMP_EVA	99	Rpleas_acq	Oppo	Rpleas	Amasked	CS_A	2pleas	distractor1	CONbeforeEVA	acq_US_unple_masked	acq45_masked	4	9	400	1	300	300	0	0	431	46	0	1	0	0	0	1	blank2r.bmp	0	1	+	0	2	B2r.bmp	492	1	blank2r.bmp	786	1	CPLW	786	1	blank2r.bmp	866	3	krise	866	1	!	1239	1	!	1332	0	0	0	0	0	0	0	0	0	0	0	0	0	0	0	0	0	0	0	0	0	0	0	0	0	0	0
013019	09:03:41	09:10:32	409814	5.0.10.0	4_exp_AWA_CON_AMP_EVA	99	Rpleas_acq	Oppo	Rpleas	Amasked	CS_A	2pleas	distractor1	CONbeforeEVA	acq_US_unple_masked	acq45_masked	4	10	400	1	300	300	0	0	387	46	0	1	0	0	0	1	blank2r.bmp	0	1	+	0	1	B1r.bmp	492	1	blank2r.bmp	786	1	CPLW	786	1	blank2r.bmp	866	6	geizig	866	1	!	1239	1	!	1292	0	0	0	0	0	0	0	0	0	0	0	0	0	0	0	0	0	0	0	0	0	0	0	0	0	0	0
013019	09:03:41	09:10:34	411880	5.0.10.0	4_exp_AWA_CON_AMP_EVA	99	Rpleas_acq	Oppo	Rpleas	Amasked	CS_A	2pleas	distractor1	CONbeforeEVA	acq_US_pleas_masked	acq45_masked	4	11	400	0	300	300	0	0	302	50	0	1	0	0	0	1	blank2r.bmp	0	1	+	0	3	B3r.bmp	492	1	blank2r.bmp	786	1	DHJF	786	1	blank2r.bmp	866	3	kuss	866	1	!	-1	1	!	-1	0	0	0	0	0	0	0	0	0	0	0	0	0	0	0	0	0	0	0	0	0	0	0	0	0	0	0
013019	09:03:41	09:10:36	414079	5.0.10.0	4_exp_AWA_CON_AMP_EVA	99	Rpleas_acq	Oppo	Rpleas	Amasked	CS_A	2pleas	distractor1	CONbeforeEVA	acq_US_unple_masked	acq45_masked	4	12	400	1	300	300	0	0	395	46	0	1	0	0	0	1	blank2r.bmp	0	1	+	0	7	C3r.bmp	492	1	blank2r.bmp	786	1	CPLW	786	1	blank2r.bmp	866	5	bange	866	1	!	1239	1	!	1292	0	0	0	0	0	0	0	0	0	0	0	0	0	0	0	0	0	0	0	0	0	0	0	0	0	0	0
013019	09:03:41	09:10:38	416318	5.0.10.0	4_exp_AWA_CON_AMP_EVA	99	Rpleas_acq	Oppo	Rpleas	Amasked	CS_A	2pleas	distractor1	CONbeforeEVA	acq_US_pleas_masked	acq45_masked	4	13	400	1	300	300	0	0	440	50	0	1	0	0	0	1	blank2r.bmp	0	1	+	0	5	C1r.bmp	492	1	blank2r.bmp	786	1	DHJF	786	1	blank2r.bmp	866	4	anregung	866	1	!	1239	1	!	1346	0	0	0	0	0	0	0	0	0	0	0	0	0	0	0	0	0	0	0	0	0	0	0	0	0	0	0
013019	09:03:41	09:10:40	418570	5.0.10.0	4_exp_AWA_CON_AMP_EVA	99	Rpleas_acq	Oppo	Rpleas	Amasked	CS_A	2pleas	distractor1	CONbeforeEVA	acq_US_unple_masked	acq45_masked	4	14	400	0	300	300	0	0	488	46	0	1	0	0	0	1	blank2r.bmp	0	1	+	0	3	B3r.bmp	492	1	blank2r.bmp	786	1	CPLW	786	1	blank2r.bmp	866	2	töten	866	1	!	1239	1	!	-1	0	0	0	0	0	0	0	0	0	0	0	0	0	0	0	0	0	0	0	0	0	0	0	0	0	0	0
013019	09:03:41	09:10:43	420836	5.0.10.0	4_exp_AWA_CON_AMP_EVA	99	Rpleas_acq	Oppo	Rpleas	Amasked	CS_A	2pleas	distractor1	CONbeforeEVA	acq_US_unple_masked	acq45_masked	4	15	400	0	300	300	0	0	491	50	0	0	0	0	0	1	blank2r.bmp	0	1	+	0	8	C4r.bmp	492	1	blank2r.bmp	786	1	CPLW	786	1	blank2r.bmp	866	6	geizig	866	1	!	1239	1	!	-1	0	0	0	0	0	0	0	0	0	0	0	0	0	0	0	0	0	0	0	0	0	0	0	0	0	0	0
013019	09:03:41	09:10:45	423088	5.0.10.0	4_exp_AWA_CON_AMP_EVA	99	Rpleas_acq	Oppo	Rpleas	Amasked	CS_A	2pleas	distractor1	CONbeforeEVA	acq_US_pleas_masked	acq45_masked	4	16	400	1	300	300	0	0	449	50	0	1	0	0	0	1	blank2r.bmp	0	1	+	0	7	C3r.bmp	492	1	blank2r.bmp	786	1	DHJF	786	1	blank2r.bmp	866	2	träumen	866	1	!	1239	1	!	1346	0	0	0	0	0	0	0	0	0	0	0	0	0	0	0	0	0	0	0	0	0	0	0	0	0	0	0
013019	09:03:41	09:10:47	425341	5.0.10.0	4_exp_AWA_CON_AMP_EVA	99	Rpleas_acq	Oppo	Rpleas	Amasked	CS_A	2pleas	distractor1	CONbeforeEVA	acq_US_pleas_masked	acq45_masked	4	17	400	0	300	300	0	0	479	50	0	1	0	0	0	1	blank2r.bmp	0	1	+	0	2	B2r.bmp	492	1	blank2r.bmp	786	1	DHJF	786	1	blank2r.bmp	866	6	gesittet	866	1	!	1239	1	!	-1	0	0	0	0	0	0	0	0	0	0	0	0	0	0	0	0	0	0	0	0	0	0	0	0	0	0	0
013019	09:03:41	09:10:49	427500	5.0.10.0	4_exp_AWA_CON_AMP_EVA	99	Rpleas_acq	Oppo	Rpleas	Amasked	CS_A	2pleas	distractor1	CONbeforeEVA	acq_US_unple_masked	acq45_masked	4	18	400	1	300	300	0	0	346	50	0	0	0	0	0	1	blank2r.bmp	0	1	+	0	6	C2r.bmp	492	1	blank2r.bmp	786	1	CPLW	786	1	blank2r.bmp	866	3	krise	866	1	!	1239	1	!	1252	0	0	0	0	0	0	0	0	0	0	0	0	0	0	0	0	0	0	0	0	0	0	0	0	0	0	0
013019	09:03:41	09:10:51	429605	5.0.10.0	4_exp_AWA_CON_AMP_EVA	99	Rpleas_acq	Oppo	Rpleas	Amasked	CS_A	2pleas	distractor1	CONbeforeEVA	acq_US_unple_masked	acq45_masked	4	19	400	0	300	300	0	0	327	46	0	1	0	0	0	1	blank2r.bmp	0	1	+	0	1	B1r.bmp	492	1	blank2r.bmp	786	1	CPLW	786	1	blank2r.bmp	866	1	versagen	866	1	!	-1	1	!	-1	0	0	0	0	0	0	0	0	0	0	0	0	0	0	0	0	0	0	0	0	0	0	0	0	0	0	0
013019	09:03:41	09:10:54	431858	5.0.10.0	4_exp_AWA_CON_AMP_EVA	99	Rpleas_acq	Oppo	Rpleas	Amasked	CS_A	2pleas	distractor1	CONbeforeEVA	acq_US_unple_masked	acq45_masked	4	20	400	1	300	300	0	0	441	46	0	1	0	0	0	1	blank2r.bmp	0	1	+	0	4	B4r.bmp	492	1	blank2r.bmp	786	1	CPLW	786	1	blank2r.bmp	866	4	ausrottung	866	1	!	1239	1	!	1346	0	0	0	0	0	0	0	0	0	0	0	0	0	0	0	0	0	0	0	0	0	0	0	0	0	0	0
013019	09:03:41	09:10:56	434110	5.0.10.0	4_exp_AWA_CON_AMP_EVA	99	Rpleas_acq	Oppo	Rpleas	Amasked	CS_A	2pleas	distractor1	CONbeforeEVA	acq_US_unple_masked	acq45_masked	4	21	400	1	300	300	0	0	463	46	0	1	0	0	0	1	blank2r.bmp	0	1	+	0	4	B4r.bmp	492	1	blank2r.bmp	786	1	CPLW	786	1	blank2r.bmp	866	5	bange	866	1	!	1239	1	!	1359	0	0	0	0	0	0	0	0	0	0	0	0	0	0	0	0	0	0	0	0	0	0	0	0	0	0	0
013019	09:03:41	09:10:58	436283	5.0.10.0	4_exp_AWA_CON_AMP_EVA	99	Rpleas_acq	Oppo	Rpleas	Amasked	CS_A	2pleas	distractor1	CONbeforeEVA	acq_US_unple_masked	acq45_masked	4	22	400	1	300	300	0	0	379	46	0	1	0	0	0	1	blank2r.bmp	0	1	+	0	2	B2r.bmp	492	1	blank2r.bmp	786	1	CPLW	786	1	blank2r.bmp	866	1	versagen	866	1	!	1239	1	!	1279	0	0	0	0	0	0	0	0	0	0	0	0	0	0	0	0	0	0	0	0	0	0	0	0	0	0	0
013019	09:03:41	09:11:00	438468	5.0.10.0	4_exp_AWA_CON_AMP_EVA	99	Rpleas_acq	Oppo	Rpleas	Amasked	CS_A	2pleas	distractor1	CONbeforeEVA	acq_US_unple_masked	acq45_masked	4	23	400	1	300	300	0	0	383	46	0	1	0	0	0	1	blank2r.bmp	0	1	+	0	7	C3r.bmp	492	1	blank2r.bmp	786	1	CPLW	786	1	blank2r.bmp	866	3	krise	866	1	!	1239	1	!	1279	0	0	0	0	0	0	0	0	0	0	0	0	0	0	0	0	0	0	0	0	0	0	0	0	0	0	0
013019	09:03:41	09:11:02	440627	5.0.10.0	4_exp_AWA_CON_AMP_EVA	99	Rpleas_acq	Oppo	Rpleas	Amasked	CS_A	2pleas	distractor1	CONbeforeEVA	acq_US_pleas_masked	acq45_masked	4	24	400	1	300	300	0	0	346	50	0	1	0	0	0	1	blank2r.bmp	0	1	+	0	5	C1r.bmp	492	1	blank2r.bmp	786	1	DHJF	786	1	blank2r.bmp	866	1	vertrauen	866	1	!	1239	1	!	1252	0	0	0	0	0	0	0	0	0	0	0	0	0	0	0	0	0	0	0	0	0	0	0	0	0	0	0
013019	09:03:41	09:11:04	442653	5.0.10.0	4_exp_AWA_CON_AMP_EVA	99	Rpleas_acq	Oppo	Rpleas	Amasked	CS_A	2pleas	distractor1	CONbeforeEVA	acq_US_pleas_masked	acq45_masked	4	25	400	0	300	300	0	0	264	46	0	0	0	0	0	1	blank2r.bmp	0	1	+	0	1	B1r.bmp	492	1	blank2r.bmp	786	1	DHJF	786	1	blank2r.bmp	866	5	besonnen	866	1	!	-1	1	!	-1	0	0	0	0	0	0	0	0	0	0	0	0	0	0	0	0	0	0	0	0	0	0	0	0	0	0	0
013019	09:03:41	09:11:07	444866	5.0.10.0	4_exp_AWA_CON_AMP_EVA	99	Rpleas_acq	Oppo	Rpleas	Amasked	CS_A	2pleas	distractor1	CONbeforeEVA	acq_US_pleas_masked	acq45_masked	4	26	400	1	300	300	0	0	411	46	0	0	0	0	0	1	blank2r.bmp	0	1	+	0	6	C2r.bmp	492	1	blank2r.bmp	786	1	DHJF	786	1	blank2r.bmp	866	3	kuss	866	1	!	1239	1	!	1306	0	0	0	0	0	0	0	0	0	0	0	0	0	0	0	0	0	0	0	0	0	0	0	0	0	0	0
013019	09:03:41	09:11:09	447078	5.0.10.0	4_exp_AWA_CON_AMP_EVA	99	Rpleas_acq	Oppo	Rpleas	Amasked	CS_A	2pleas	distractor1	CONbeforeEVA	acq_US_unple_masked	acq45_masked	4	27	400	1	300	300	0	0	418	50	0	0	0	0	0	1	blank2r.bmp	0	1	+	0	3	B3r.bmp	492	1	blank2r.bmp	786	1	CPLW	786	1	blank2r.bmp	866	5	bange	866	1	!	1239	1	!	1319	0	0	0	0	0	0	0	0	0	0	0	0	0	0	0	0	0	0	0	0	0	0	0	0	0	0	0
013019	09:03:41	09:11:11	449464	5.0.10.0	4_exp_AWA_CON_AMP_EVA	99	Rpleas_acq	Oppo	Rpleas	Amasked	CS_A	2pleas	distractor1	CONbeforeEVA	acq_US_pleas_masked	acq45_masked	4	28	400	0	300	300	0	0	599	50	0	1	0	0	0	1	blank2r.bmp	0	1	+	0	8	C4r.bmp	492	1	blank2r.bmp	786	1	DHJF	786	1	blank2r.bmp	866	1	vertrauen	866	1	!	1239	1	!	-1	0	0	0	0	0	0	0	0	0	0	0	0	0	0	0	0	0	0	0	0	0	0	0	0	0	0	0
013019	09:03:41	09:11:14	451663	5.0.10.0	4_exp_AWA_CON_AMP_EVA	99	Rpleas_acq	Oppo	Rpleas	Amasked	CS_A	2pleas	distractor1	CONbeforeEVA	acq_US_unple_masked	acq45_masked	4	29	400	1	300	300	0	0	397	46	0	1	0	0	0	1	blank2r.bmp	0	1	+	0	7	C3r.bmp	492	1	blank2r.bmp	786	1	CPLW	786	1	blank2r.bmp	866	6	geizig	866	1	!	1239	1	!	1292	0	0	0	0	0	0	0	0	0	0	0	0	0	0	0	0	0	0	0	0	0	0	0	0	0	0	0
013019	09:03:41	09:11:16	453822	5.0.10.0	4_exp_AWA_CON_AMP_EVA	99	Rpleas_acq	Oppo	Rpleas	Amasked	CS_A	2pleas	distractor1	CONbeforeEVA	acq_US_pleas_masked	acq45_masked	4	30	400	1	300	300	0	0	362	50	0	1	0	0	0	1	blank2r.bmp	0	1	+	0	8	C4r.bmp	492	1	blank2r.bmp	786	1	DHJF	786	1	blank2r.bmp	866	5	besonnen	866	1	!	1239	1	!	1266	0	0	0	0	0	0	0	0	0	0	0	0	0	0	0	0	0	0	0	0	0	0	0	0	0	0	0
013019	09:03:41	09:11:18	456074	5.0.10.0	4_exp_AWA_CON_AMP_EVA	99	Rpleas_acq	Oppo	Rpleas	Amasked	CS_A	2pleas	distractor1	CONbeforeEVA	acq_US_pleas_masked	acq45_masked	4	31	400	0	300	300	0	0	479	50	0	1	0	0	0	1	blank2r.bmp	0	1	+	0	5	C1r.bmp	492	1	blank2r.bmp	786	1	DHJF	786	1	blank2r.bmp	866	4	anregung	866	1	!	1239	1	!	-1	0	0	0	0	0	0	0	0	0	0	0	0	0	0	0	0	0	0	0	0	0	0	0	0	0	0	0
013019	09:03:41	09:11:20	458287	5.0.10.0	4_exp_AWA_CON_AMP_EVA	99	Rpleas_acq	Oppo	Rpleas	Amasked	CS_A	2pleas	distractor1	CONbeforeEVA	acq_US_pleas_masked	acq45_masked	4	32	400	1	300	300	0	0	402	50	0	1	0	0	0	1	blank2r.bmp	0	1	+	0	3	B3r.bmp	492	1	blank2r.bmp	786	1	DHJF	786	1	blank2r.bmp	866	3	kuss	866	1	!	1239	1	!	1306	0	0	0	0	0	0	0	0	0	0	0	0	0	0	0	0	0	0	0	0	0	0	0	0	0	0	0
013019	09:03:41	09:11:22	460539	5.0.10.0	4_exp_AWA_CON_AMP_EVA	99	Rpleas_acq	Oppo	Rpleas	Amasked	CS_A	2pleas	distractor1	CONbeforeEVA	acq_US_pleas_masked	acq45_masked	4	33	400	1	300	300	0	0	463	46	0	0	0	0	0	1	blank2r.bmp	0	1	+	0	6	C2r.bmp	492	1	blank2r.bmp	786	1	DHJF	786	1	blank2r.bmp	866	6	gesittet	866	1	!	1239	1	!	1359	0	0	0	0	0	0	0	0	0	0	0	0	0	0	0	0	0	0	0	0	0	0	0	0	0	0	0
013019	09:03:41	09:11:25	462765	5.0.10.0	4_exp_AWA_CON_AMP_EVA	99	Rpleas_acq	Oppo	Rpleas	Amasked	CS_A	2pleas	distractor1	CONbeforeEVA	acq_US_pleas_masked	acq45_masked	4	34	400	1	300	300	0	0	430	50	0	1	0	0	0	1	blank2r.bmp	0	1	+	0	2	B2r.bmp	492	1	blank2r.bmp	786	1	DHJF	786	1	blank2r.bmp	866	2	träumen	866	1	!	1239	1	!	1332	0	0	0	0	0	0	0	0	0	0	0	0	0	0	0	0	0	0	0	0	0	0	0	0	0	0	0
013019	09:03:41	09:11:27	464911	5.0.10.0	4_exp_AWA_CON_AMP_EVA	99	Rpleas_acq	Oppo	Rpleas	Amasked	CS_A	2pleas	distractor1	CONbeforeEVA	acq_US_unple_masked	acq45_masked	4	35	400	1	300	300	0	0	358	46	0	1	0	0	0	1	blank2r.bmp	0	1	+	0	4	B4r.bmp	492	1	blank2r.bmp	786	1	CPLW	786	1	blank2r.bmp	866	4	ausrottung	866	1	!	1239	1	!	1252	0	0	0	0	0	0	0	0	0	0	0	0	0	0	0	0	0	0	0	0	0	0	0	0	0	0	0
013019	09:03:41	09:11:29	467176	5.0.10.0	4_exp_AWA_CON_AMP_EVA	99	Rpleas_acq	Oppo	Rpleas	Amasked	CS_A	2pleas	distractor1	CONbeforeEVA	acq_US_unple_masked	acq45_masked	4	36	400	1	300	300	0	0	466	46	0	1	0	0	0	1	blank2r.bmp	0	1	+	0	1	B1r.bmp	492	1	blank2r.bmp	786	1	CPLW	786	1	blank2r.bmp	866	2	töten	866	1	!	1239	1	!	1372	0	0	0	0	0	0	0	0	0	0	0	0	0	0	0	0	0	0	0	0	0	0	0	0	0	0	0
013019	09:03:41	09:11:40	478278	5.0.10.0	4_exp_AWA_CON_AMP_EVA	99	Rpleas_acq	Oppo	Rpleas	Amasked	CS_A	2pleas	distractor1	CONbeforeEVA	acq_US_pleas_masked	acq45_masked	5	1	400	1	300	300	0	0	430	46	0	0	0	0	0	1	blank2r.bmp	0	1	+	0	8	C4r.bmp	492	1	blank2r.bmp	786	1	DHJF	786	1	blank2r.bmp	866	6	gesittet	866	1	!	1239	1	!	1332	0	0	0	0	0	0	0	0	0	0	0	0	0	0	0	0	0	0	0	0	0	0	0	0	0	0	0
013019	09:03:41	09:11:42	480357	5.0.10.0	4_exp_AWA_CON_AMP_EVA	99	Rpleas_acq	Oppo	Rpleas	Amasked	CS_A	2pleas	distractor1	CONbeforeEVA	acq_US_unple_masked	acq45_masked	5	2	400	0	300	300	0	0	303	46	0	1	0	0	0	1	blank2r.bmp	0	1	+	0	5	C1r.bmp	492	1	blank2r.bmp	786	1	CPLW	786	1	blank2r.bmp	866	6	geizig	866	1	!	-1	1	!	-1	0	0	0	0	0	0	0	0	0	0	0	0	0	0	0	0	0	0	0	0	0	0	0	0	0	0	0
013019	09:03:41	09:11:44	482450	5.0.10.0	4_exp_AWA_CON_AMP_EVA	99	Rpleas_acq	Oppo	Rpleas	Amasked	CS_A	2pleas	distractor1	CONbeforeEVA	acq_US_unple_masked	acq45_masked	5	3	400	0	300	300	0	0	315	50	0	0	0	0	0	1	blank2r.bmp	0	1	+	0	1	B1r.bmp	492	1	blank2r.bmp	786	1	CPLW	786	1	blank2r.bmp	866	1	versagen	866	1	!	-1	1	!	-1	0	0	0	0	0	0	0	0	0	0	0	0	0	0	0	0	0	0	0	0	0	0	0	0	0	0	0
013019	09:03:41	09:11:46	484649	5.0.10.0	4_exp_AWA_CON_AMP_EVA	99	Rpleas_acq	Oppo	Rpleas	Amasked	CS_A	2pleas	distractor1	CONbeforeEVA	acq_US_pleas_masked	acq45_masked	5	4	400	1	300	300	0	0	389	46	0	0	0	0	0	1	blank2r.bmp	0	1	+	0	4	B4r.bmp	492	1	blank2r.bmp	786	1	DHJF	786	1	blank2r.bmp	866	4	anregung	866	1	!	1239	1	!	1292	0	0	0	0	0	0	0	0	0	0	0	0	0	0	0	0	0	0	0	0	0	0	0	0	0	0	0
013019	09:03:41	09:11:49	486875	5.0.10.0	4_exp_AWA_CON_AMP_EVA	99	Rpleas_acq	Oppo	Rpleas	Amasked	CS_A	2pleas	distractor1	CONbeforeEVA	acq_US_pleas_masked	acq45_masked	5	5	400	1	300	300	0	0	433	50	0	1	0	0	0	1	blank2r.bmp	0	1	+	0	7	C3r.bmp	492	1	blank2r.bmp	786	1	DHJF	786	1	blank2r.bmp	866	2	träumen	866	1	!	1239	1	!	1332	0	0	0	0	0	0	0	0	0	0	0	0	0	0	0	0	0	0	0	0	0	0	0	0	0	0	0
013019	09:03:41	09:11:51	489140	5.0.10.0	4_exp_AWA_CON_AMP_EVA	99	Rpleas_acq	Oppo	Rpleas	Amasked	CS_A	2pleas	distractor1	CONbeforeEVA	acq_US_unple_masked	acq45_masked	5	6	400	1	300	300	0	0	457	46	0	1	0	0	0	1	blank2r.bmp	0	1	+	0	2	B2r.bmp	492	1	blank2r.bmp	786	1	CPLW	786	1	blank2r.bmp	866	5	bange	866	1	!	1239	1	!	1359	0	0	0	0	0	0	0	0	0	0	0	0	0	0	0	0	0	0	0	0	0	0	0	0	0	0	0
013019	09:03:41	09:11:53	491366	5.0.10.0	4_exp_AWA_CON_AMP_EVA	99	Rpleas_acq	Oppo	Rpleas	Amasked	CS_A	2pleas	distractor1	CONbeforeEVA	acq_US_pleas_masked	acq45_masked	5	7	400	1	300	300	0	0	432	50	0	1	0	0	0	1	blank2r.bmp	0	1	+	0	3	B3r.bmp	492	1	blank2r.bmp	786	1	DHJF	786	1	blank2r.bmp	866	5	besonnen	866	1	!	1239	1	!	1332	0	0	0	0	0	0	0	0	0	0	0	0	0	0	0	0	0	0	0	0	0	0	0	0	0	0	0
013019	09:03:41	09:11:55	493645	5.0.10.0	4_exp_AWA_CON_AMP_EVA	99	Rpleas_acq	Oppo	Rpleas	Amasked	CS_A	2pleas	distractor1	CONbeforeEVA	acq_US_pleas_masked	acq45_masked	5	8	400	0	300	300	0	0	501	50	0	1	0	0	0	1	blank2r.bmp	0	1	+	0	6	C2r.bmp	492	1	blank2r.bmp	786	1	DHJF	786	1	blank2r.bmp	866	1	vertrauen	866	1	!	1239	1	!	-1	0	0	0	0	0	0	0	0	0	0	0	0	0	0	0	0	0	0	0	0	0	0	0	0	0	0	0
013019	09:03:41	09:11:58	495818	5.0.10.0	4_exp_AWA_CON_AMP_EVA	99	Rpleas_acq	Oppo	Rpleas	Amasked	CS_A	2pleas	distractor1	CONbeforeEVA	acq_US_unple_masked	acq45_masked	5	9	400	1	300	300	0	0	346	50	0	0	0	0	0	1	blank2r.bmp	0	1	+	0	4	B4r.bmp	492	1	blank2r.bmp	786	1	CPLW	786	1	blank2r.bmp	866	2	töten	866	1	!	1239	1	!	1252	0	0	0	0	0	0	0	0	0	0	0	0	0	0	0	0	0	0	0	0	0	0	0	0	0	0	0
013019	09:03:41	09:12:00	498070	5.0.10.0	4_exp_AWA_CON_AMP_EVA	99	Rpleas_acq	Oppo	Rpleas	Amasked	CS_A	2pleas	distractor1	CONbeforeEVA	acq_US_unple_masked	acq45_masked	5	10	400	0	300	300	0	0	479	50	0	0	0	0	0	1	blank2r.bmp	0	1	+	0	6	C2r.bmp	492	1	blank2r.bmp	786	1	CPLW	786	1	blank2r.bmp	866	4	ausrottung	866	1	!	1239	1	!	-1	0	0	0	0	0	0	0	0	0	0	0	0	0	0	0	0	0	0	0	0	0	0	0	0	0	0	0
013019	09:03:41	09:12:02	500296	5.0.10.0	4_exp_AWA_CON_AMP_EVA	99	Rpleas_acq	Oppo	Rpleas	Amasked	CS_A	2pleas	distractor1	CONbeforeEVA	acq_US_unple_masked	acq45_masked	5	11	400	1	300	300	0	0	417	50	0	0	0	0	0	1	blank2r.bmp	0	1	+	0	3	B3r.bmp	492	1	blank2r.bmp	786	1	CPLW	786	1	blank2r.bmp	866	3	krise	866	1	!	1239	1	!	1319	0	0	0	0	0	0	0	0	0	0	0	0	0	0	0	0	0	0	0	0	0	0	0	0	0	0	0
013019	09:03:41	09:12:04	502388	5.0.10.0	4_exp_AWA_CON_AMP_EVA	99	Rpleas_acq	Oppo	Rpleas	Amasked	CS_A	2pleas	distractor1	CONbeforeEVA	acq_US_pleas_masked	acq45_masked	5	12	400	0	300	300	0	0	322	50	0	1	0	0	0	1	blank2r.bmp	0	1	+	0	7	C3r.bmp	492	1	blank2r.bmp	786	1	DHJF	786	1	blank2r.bmp	866	3	kuss	866	1	!	-1	1	!	-1	0	0	0	0	0	0	0	0	0	0	0	0	0	0	0	0	0	0	0	0	0	0	0	0	0	0	0
013019	09:03:41	09:12:06	504614	5.0.10.0	4_exp_AWA_CON_AMP_EVA	99	Rpleas_acq	Oppo	Rpleas	Amasked	CS_A	2pleas	distractor1	CONbeforeEVA	acq_US_pleas_masked	acq45_masked	5	13	400	1	300	300	0	0	414	50	0	1	0	0	0	1	blank2r.bmp	0	1	+	0	2	B2r.bmp	492	1	blank2r.bmp	786	1	DHJF	786	1	blank2r.bmp	866	6	gesittet	866	1	!	1239	1	!	1319	0	0	0	0	0	0	0	0	0	0	0	0	0	0	0	0	0	0	0	0	0	0	0	0	0	0	0
013019	09:03:41	09:12:09	506800	5.0.10.0	4_exp_AWA_CON_AMP_EVA	99	Rpleas_acq	Oppo	Rpleas	Amasked	CS_A	2pleas	distractor1	CONbeforeEVA	acq_US_unple_masked	acq45_masked	5	14	400	1	300	300	0	0	397	50	0	0	0	0	0	1	blank2r.bmp	0	1	+	0	5	C1r.bmp	492	1	blank2r.bmp	786	1	CPLW	786	1	blank2r.bmp	866	6	geizig	866	1	!	1239	1	!	1292	0	0	0	0	0	0	0	0	0	0	0	0	0	0	0	0	0	0	0	0	0	0	0	0	0	0	0
013019	09:03:41	09:12:11	509052	5.0.10.0	4_exp_AWA_CON_AMP_EVA	99	Rpleas_acq	Oppo	Rpleas	Amasked	CS_A	2pleas	distractor1	CONbeforeEVA	acq_US_pleas_masked	acq45_masked	5	15	400	0	300	300	0	0	483	50	0	1	0	0	0	1	blank2r.bmp	0	1	+	0	1	B1r.bmp	492	1	blank2r.bmp	786	1	DHJF	786	1	blank2r.bmp	866	5	besonnen	866	1	!	1239	1	!	-1	0	0	0	0	0	0	0	0	0	0	0	0	0	0	0	0	0	0	0	0	0	0	0	0	0	0	0
013019	09:03:41	09:12:13	511251	5.0.10.0	4_exp_AWA_CON_AMP_EVA	99	Rpleas_acq	Oppo	Rpleas	Amasked	CS_A	2pleas	distractor1	CONbeforeEVA	acq_US_unple_masked	acq45_masked	5	16	400	1	300	300	0	0	391	46	0	1	0	0	0	1	blank2r.bmp	0	1	+	0	8	C4r.bmp	492	1	blank2r.bmp	786	1	CPLW	786	1	blank2r.bmp	866	2	töten	866	1	!	1239	1	!	1292	0	0	0	0	0	0	0	0	0	0	0	0	0	0	0	0	0	0	0	0	0	0	0	0	0	0	0
013019	09:03:41	09:12:15	513477	5.0.10.0	4_exp_AWA_CON_AMP_EVA	99	Rpleas_acq	Oppo	Rpleas	Amasked	CS_A	2pleas	distractor1	CONbeforeEVA	acq_US_unple_masked	acq45_masked	5	17	400	1	300	300	0	0	436	46	0	1	0	0	0	1	blank2r.bmp	0	1	+	0	4	B4r.bmp	492	1	blank2r.bmp	786	1	CPLW	786	1	blank2r.bmp	866	3	krise	866	1	!	1239	1	!	1332	0	0	0	0	0	0	0	0	0	0	0	0	0	0	0	0	0	0	0	0	0	0	0	0	0	0	0
013019	09:03:41	09:12:18	515743	5.0.10.0	4_exp_AWA_CON_AMP_EVA	99	Rpleas_acq	Oppo	Rpleas	Amasked	CS_A	2pleas	distractor1	CONbeforeEVA	acq_US_pleas_masked	acq45_masked	5	18	400	0	300	300	0	0	504	50	0	1	0	0	0	1	blank2r.bmp	0	1	+	0	5	C1r.bmp	492	1	blank2r.bmp	786	1	DHJF	786	1	blank2r.bmp	866	1	vertrauen	866	1	!	1239	1	!	-1	0	0	0	0	0	0	0	0	0	0	0	0	0	0	0	0	0	0	0	0	0	0	0	0	0	0	0
013019	09:03:41	09:12:20	517928	5.0.10.0	4_exp_AWA_CON_AMP_EVA	99	Rpleas_acq	Oppo	Rpleas	Amasked	CS_A	2pleas	distractor1	CONbeforeEVA	acq_US_pleas_masked	acq45_masked	5	19	400	1	300	300	0	0	372	50	0	1	0	0	0	1	blank2r.bmp	0	1	+	0	6	C2r.bmp	492	1	blank2r.bmp	786	1	DHJF	786	1	blank2r.bmp	866	2	träumen	866	1	!	1239	1	!	1279	0	0	0	0	0	0	0	0	0	0	0	0	0	0	0	0	0	0	0	0	0	0	0	0	0	0	0
013019	09:03:41	09:12:22	520074	5.0.10.0	4_exp_AWA_CON_AMP_EVA	99	Rpleas_acq	Oppo	Rpleas	Amasked	CS_A	2pleas	distractor1	CONbeforeEVA	acq_US_pleas_masked	acq45_masked	5	20	400	1	300	300	0	0	346	50	0	1	0	0	0	1	blank2r.bmp	0	1	+	0	7	C3r.bmp	492	1	blank2r.bmp	786	1	DHJF	786	1	blank2r.bmp	866	3	kuss	866	1	!	1239	1	!	1252	0	0	0	0	0	0	0	0	0	0	0	0	0	0	0	0	0	0	0	0	0	0	0	0	0	0	0
013019	09:03:41	09:12:24	522273	5.0.10.0	4_exp_AWA_CON_AMP_EVA	99	Rpleas_acq	Oppo	Rpleas	Amasked	CS_A	2pleas	distractor1	CONbeforeEVA	acq_US_unple_masked	acq45_masked	5	21	400	1	300	300	0	0	404	50	0	0	0	0	0	1	blank2r.bmp	0	1	+	0	2	B2r.bmp	492	1	blank2r.bmp	786	1	CPLW	786	1	blank2r.bmp	866	5	bange	866	1	!	1239	1	!	1306	0	0	0	0	0	0	0	0	0	0	0	0	0	0	0	0	0	0	0	0	0	0	0	0	0	0	0
013019	09:03:41	09:12:27	524765	5.0.10.0	4_exp_AWA_CON_AMP_EVA	99	Rpleas_acq	Oppo	Rpleas	Amasked	CS_A	2pleas	distractor1	CONbeforeEVA	acq_US_unple_masked	acq45_masked	5	22	400	0	300	300	0	0	723	46	0	1	0	0	0	1	blank2r.bmp	0	1	+	0	8	C4r.bmp	492	1	blank2r.bmp	786	1	CPLW	786	1	blank2r.bmp	866	1	versagen	866	1	!	1239	1	!	-1	0	0	0	0	0	0	0	0	0	0	0	0	0	0	0	0	0	0	0	0	0	0	0	0	0	0	0
013019	09:03:41	09:12:29	527005	5.0.10.0	4_exp_AWA_CON_AMP_EVA	99	Rpleas_acq	Oppo	Rpleas	Amasked	CS_A	2pleas	distractor1	CONbeforeEVA	acq_US_unple_masked	acq45_masked	5	23	400	1	300	300	0	0	434	46	0	1	0	0	0	1	blank2r.bmp	0	1	+	0	1	B1r.bmp	492	1	blank2r.bmp	786	1	CPLW	786	1	blank2r.bmp	866	4	ausrottung	866	1	!	1239	1	!	1332	0	0	0	0	0	0	0	0	0	0	0	0	0	0	0	0	0	0	0	0	0	0	0	0	0	0	0
013019	09:03:41	09:12:31	529244	5.0.10.0	4_exp_AWA_CON_AMP_EVA	99	Rpleas_acq	Oppo	Rpleas	Amasked	CS_A	2pleas	distractor1	CONbeforeEVA	acq_US_pleas_masked	acq45_masked	5	24	400	1	300	300	0	0	439	50	0	1	0	0	0	1	blank2r.bmp	0	1	+	0	3	B3r.bmp	492	1	blank2r.bmp	786	1	DHJF	786	1	blank2r.bmp	866	4	anregung	866	1	!	1239	1	!	1346	0	0	0	0	0	0	0	0	0	0	0	0	0	0	0	0	0	0	0	0	0	0	0	0	0	0	0
013019	09:03:41	09:12:33	531576	5.0.10.0	4_exp_AWA_CON_AMP_EVA	99	Rpleas_acq	Oppo	Rpleas	Amasked	CS_A	2pleas	distractor1	CONbeforeEVA	acq_US_pleas_masked	acq45_masked	5	25	400	0	300	300	0	0	557	50	0	1	0	0	0	1	blank2r.bmp	0	1	+	0	3	B3r.bmp	492	1	blank2r.bmp	786	1	DHJF	786	1	blank2r.bmp	866	4	anregung	866	1	!	1239	1	!	-1	0	0	0	0	0	0	0	0	0	0	0	0	0	0	0	0	0	0	0	0	0	0	0	0	0	0	0
013019	09:03:41	09:12:36	533802	5.0.10.0	4_exp_AWA_CON_AMP_EVA	99	Rpleas_acq	Oppo	Rpleas	Amasked	CS_A	2pleas	distractor1	CONbeforeEVA	acq_US_unple_masked	acq45_masked	5	26	400	1	300	300	0	0	414	46	0	1	0	0	0	1	blank2r.bmp	0	1	+	0	2	B2r.bmp	492	1	blank2r.bmp	786	1	CPLW	786	1	blank2r.bmp	866	4	ausrottung	866	1	!	1239	1	!	1319	0	0	0	0	0	0	0	0	0	0	0	0	0	0	0	0	0	0	0	0	0	0	0	0	0	0	0
013019	09:03:41	09:12:38	536027	5.0.10.0	4_exp_AWA_CON_AMP_EVA	99	Rpleas_acq	Oppo	Rpleas	Amasked	CS_A	2pleas	distractor1	CONbeforeEVA	acq_US_pleas_masked	acq45_masked	5	27	400	1	300	300	0	0	428	46	0	0	0	0	0	1	blank2r.bmp	0	1	+	0	1	B1r.bmp	492	1	blank2r.bmp	786	1	DHJF	786	1	blank2r.bmp	866	1	vertrauen	866	1	!	1239	1	!	1332	0	0	0	0	0	0	0	0	0	0	0	0	0	0	0	0	0	0	0	0	0	0	0	0	0	0	0
013019	09:03:41	09:12:40	538213	5.0.10.0	4_exp_AWA_CON_AMP_EVA	99	Rpleas_acq	Oppo	Rpleas	Amasked	CS_A	2pleas	distractor1	CONbeforeEVA	acq_US_pleas_masked	acq45_masked	5	28	400	1	300	300	0	0	373	50	0	1	0	0	0	1	blank2r.bmp	0	1	+	0	5	C1r.bmp	492	1	blank2r.bmp	786	1	DHJF	786	1	blank2r.bmp	866	3	kuss	866	1	!	1239	1	!	1279	0	0	0	0	0	0	0	0	0	0	0	0	0	0	0	0	0	0	0	0	0	0	0	0	0	0	0
013019	09:03:41	09:12:42	540466	5.0.10.0	4_exp_AWA_CON_AMP_EVA	99	Rpleas_acq	Oppo	Rpleas	Amasked	CS_A	2pleas	distractor1	CONbeforeEVA	acq_US_unple_masked	acq45_masked	5	29	400	1	300	300	0	0	444	46	0	1	0	0	0	1	blank2r.bmp	0	1	+	0	7	C3r.bmp	492	1	blank2r.bmp	786	1	CPLW	786	1	blank2r.bmp	866	2	töten	866	1	!	1239	1	!	1346	0	0	0	0	0	0	0	0	0	0	0	0	0	0	0	0	0	0	0	0	0	0	0	0	0	0	0
013019	09:03:41	09:12:45	542691	5.0.10.0	4_exp_AWA_CON_AMP_EVA	99	Rpleas_acq	Oppo	Rpleas	Amasked	CS_A	2pleas	distractor1	CONbeforeEVA	acq_US_pleas_masked	acq45_masked	5	30	400	1	300	300	0	0	431	50	0	1	0	0	0	1	blank2r.bmp	0	1	+	0	4	B4r.bmp	492	1	blank2r.bmp	786	1	DHJF	786	1	blank2r.bmp	866	2	träumen	866	1	!	1239	1	!	1332	0	0	0	0	0	0	0	0	0	0	0	0	0	0	0	0	0	0	0	0	0	0	0	0	0	0	0
013019	09:03:41	09:12:47	544957	5.0.10.0	4_exp_AWA_CON_AMP_EVA	99	Rpleas_acq	Oppo	Rpleas	Amasked	CS_A	2pleas	distractor1	CONbeforeEVA	acq_US_pleas_masked	acq45_masked	5	31	400	1	300	300	0	0	455	50	0	1	0	0	0	1	blank2r.bmp	0	1	+	0	6	C2r.bmp	492	1	blank2r.bmp	786	1	DHJF	786	1	blank2r.bmp	866	6	gesittet	866	1	!	1239	1	!	1359	0	0	0	0	0	0	0	0	0	0	0	0	0	0	0	0	0	0	0	0	0	0	0	0	0	0	0
013019	09:03:41	09:12:49	547316	5.0.10.0	4_exp_AWA_CON_AMP_EVA	99	Rpleas_acq	Oppo	Rpleas	Amasked	CS_A	2pleas	distractor1	CONbeforeEVA	acq_US_unple_masked	acq45_masked	5	32	400	0	300	300	0	0	596	46	0	1	0	0	0	1	blank2r.bmp	0	1	+	0	8	C4r.bmp	492	1	blank2r.bmp	786	1	CPLW	786	1	blank2r.bmp	866	1	versagen	866	1	!	1239	1	!	-1	0	0	0	0	0	0	0	0	0	0	0	0	0	0	0	0	0	0	0	0	0	0	0	0	0	0	0
013019	09:03:41	09:12:51	549528	5.0.10.0	4_exp_AWA_CON_AMP_EVA	99	Rpleas_acq	Oppo	Rpleas	Amasked	CS_A	2pleas	distractor1	CONbeforeEVA	acq_US_pleas_masked	acq45_masked	5	33	400	1	300	300	0	0	403	50	0	1	0	0	0	1	blank2r.bmp	0	1	+	0	6	C2r.bmp	492	1	blank2r.bmp	786	1	DHJF	786	1	blank2r.bmp	866	5	besonnen	866	1	!	1239	1	!	1306	0	0	0	0	0	0	0	0	0	0	0	0	0	0	0	0	0	0	0	0	0	0	0	0	0	0	0
013019	09:03:41	09:12:54	552007	5.0.10.0	4_exp_AWA_CON_AMP_EVA	99	Rpleas_acq	Oppo	Rpleas	Amasked	CS_A	2pleas	distractor1	CONbeforeEVA	acq_US_unple_masked	acq45_masked	5	34	400	0	300	300	0	0	706	46	0	1	0	0	0	1	blank2r.bmp	0	1	+	0	5	C1r.bmp	492	1	blank2r.bmp	786	1	CPLW	786	1	blank2r.bmp	866	3	krise	866	1	!	1239	1	!	-1	0	0	0	0	0	0	0	0	0	0	0	0	0	0	0	0	0	0	0	0	0	0	0	0	0	0	0
013019	09:03:41	09:12:56	554233	5.0.10.0	4_exp_AWA_CON_AMP_EVA	99	Rpleas_acq	Oppo	Rpleas	Amasked	CS_A	2pleas	distractor1	CONbeforeEVA	acq_US_unple_masked	acq45_masked	5	35	400	1	300	300	0	0	419	46	0	1	0	0	0	1	blank2r.bmp	0	1	+	0	7	C3r.bmp	492	1	blank2r.bmp	786	1	CPLW	786	1	blank2r.bmp	866	5	bange	866	1	!	1239	1	!	1319	0	0	0	0	0	0	0	0	0	0	0	0	0	0	0	0	0	0	0	0	0	0	0	0	0	0	0
013019	09:03:41	09:12:58	556419	5.0.10.0	4_exp_AWA_CON_AMP_EVA	99	Rpleas_acq	Oppo	Rpleas	Amasked	CS_A	2pleas	distractor1	CONbeforeEVA	acq_US_unple_masked	acq45_masked	5	36	400	1	300	300	0	0	376	46	0	1	0	0	0	1	blank2r.bmp	0	1	+	0	3	B3r.bmp	492	1	blank2r.bmp	786	1	CPLW	786	1	blank2r.bmp	866	6	geizig	866	1	!	1239	1	!	1279	0	0	0	0	0	0	0	0	0	0	0	0	0	0	0	0	0	0	0	0	0	0	0	0	0	0	0
013019	09:03:41	09:13:50	608024	5.0.10.0	4_exp_AWA_CON_AMP_EVA	99	Rpleas_acq	Oppo	Lpleas	Amasked	CS_A	2pleas	distractor1	CONbeforeEVA	cond_new_unple_456_masked_CS1	condtest_masked_1	8	1	400	1	300	300	0	0	456	50	0	1	0	0	0	1	blank2r.bmp	0	1	+	0	4	B4r.bmp	492	1	blank2r.bmp	786	1	CPLW	786	1	blank2r.bmp	866	3	sterben	866	1	!	1239	1	!	1359	0	0	0	0	0	0	0	0	0	0	0	0	0	0	0	0	0	0	0	0	0	0	0	0	0	0	0
013019	09:03:41	09:13:52	610223	5.0.10.0	4_exp_AWA_CON_AMP_EVA	99	Rpleas_acq	Oppo	Lpleas	Amasked	CS_A	2pleas	distractor1	CONbeforeEVA	cond_new_pleas_456_masked_CS1	condtest_masked_1	8	2	400	1	300	300	0	0	408	46	0	1	0	0	0	1	blank2r.bmp	0	1	+	0	1	B1r.bmp	492	1	blank2r.bmp	786	1	CPLW	786	1	blank2r.bmp	866	3	sonnig	866	1	!	1239	1	!	1306	0	0	0	0	0	0	0	0	0	0	0	0	0	0	0	0	0	0	0	0	0	0	0	0	0	0	0
013019	09:03:41	09:13:54	612435	5.0.10.0	4_exp_AWA_CON_AMP_EVA	99	Rpleas_acq	Oppo	Lpleas	Amasked	CS_A	2pleas	distractor1	CONbeforeEVA	cond_US_unple_123_masked_CS1	condtest_masked_1	8	3	400	1	300	300	0	0	404	50	0	1	0	0	0	1	blank2r.bmp	0	1	+	0	2	B2r.bmp	492	1	blank2r.bmp	786	1	CPLW	786	1	blank2r.bmp	866	3	krise	866	1	!	1239	1	!	1306	0	0	0	0	0	0	0	0	0	0	0	0	0	0	0	0	0	0	0	0	0	0	0	0	0	0	0
013019	09:03:41	09:13:57	614688	5.0.10.0	4_exp_AWA_CON_AMP_EVA	99	Rpleas_acq	Oppo	Lpleas	Amasked	CS_A	2pleas	distractor1	CONbeforeEVA	cond_US_pleas_123_masked_CS1	condtest_masked_1	8	4	400	0	300	300	0	0	479	46	0	1	0	0	0	1	blank2r.bmp	0	1	+	0	8	C4r.bmp	492	1	blank2r.bmp	786	1	CPLW	786	1	blank2r.bmp	866	2	träumen	866	1	!	1239	1	!	-1	0	0	0	0	0	0	0	0	0	0	0	0	0	0	0	0	0	0	0	0	0	0	0	0	0	0	0
013019	09:03:41	09:13:59	616887	5.0.10.0	4_exp_AWA_CON_AMP_EVA	99	Rpleas_acq	Oppo	Lpleas	Amasked	CS_A	2pleas	distractor1	CONbeforeEVA	cond_US_pleas_123_masked_CS2	condtest_masked_1	8	5	400	1	300	300	0	0	396	46	0	1	0	0	0	1	blank2r.bmp	0	1	+	0	5	C1r.bmp	492	1	blank2r.bmp	786	1	DHJF	786	1	blank2r.bmp	866	1	vertrauen	866	1	!	1239	1	!	1292	0	0	0	0	0	0	0	0	0	0	0	0	0	0	0	0	0	0	0	0	0	0	0	0	0	0	0
013019	09:03:41	09:14:01	619392	5.0.10.0	4_exp_AWA_CON_AMP_EVA	99	Rpleas_acq	Oppo	Lpleas	Amasked	CS_A	2pleas	distractor1	CONbeforeEVA	cond_new_unple_456_masked_CS2	condtest_masked_1	8	6	400	0	300	300	0	0	743	50	0	1	0	0	0	1	blank2r.bmp	0	1	+	0	7	C3r.bmp	492	1	blank2r.bmp	786	1	DHJF	786	1	blank2r.bmp	866	2	engstirnig	866	1	!	1239	1	!	-1	0	0	0	0	0	0	0	0	0	0	0	0	0	0	0	0	0	0	0	0	0	0	0	0	0	0	0
013019	09:03:41	09:14:04	621778	5.0.10.0	4_exp_AWA_CON_AMP_EVA	99	Rpleas_acq	Oppo	Lpleas	Amasked	CS_A	2pleas	distractor1	CONbeforeEVA	cond_new_pleas_456_masked_CS2	condtest_masked_1	8	7	400	0	300	300	0	0	608	46	0	1	0	0	0	1	blank2r.bmp	0	1	+	0	8	C4r.bmp	492	1	blank2r.bmp	786	1	DHJF	786	1	blank2r.bmp	866	2	engagiert	866	1	!	1239	1	!	-1	0	0	0	0	0	0	0	0	0	0	0	0	0	0	0	0	0	0	0	0	0	0	0	0	0	0	0
013019	09:03:41	09:14:06	624177	5.0.10.0	4_exp_AWA_CON_AMP_EVA	99	Rpleas_acq	Oppo	Lpleas	Amasked	CS_A	2pleas	distractor1	CONbeforeEVA	cond_US_unple_123_masked_CS2	condtest_masked_1	8	8	400	0	300	300	0	0	618	50	0	1	0	0	0	1	blank2r.bmp	0	1	+	0	2	B2r.bmp	492	1	blank2r.bmp	786	1	DHJF	786	1	blank2r.bmp	866	1	versagen	866	1	!	1239	1	!	-1	0	0	0	0	0	0	0	0	0	0	0	0	0	0	0	0	0	0	0	0	0	0	0	0	0	0	0
013019	09:03:41	09:14:19	636878	5.0.10.0	4_exp_AWA_CON_AMP_EVA	99	Rpleas_acq	Oppo	Lpleas	Amasked	CS_A	2pleas	distractor1	CONbeforeEVA	cond_new_pleas_456_masked_CS1	condtest_masked_2	9	1	400	1	300	300	0	0	357	46	0	1	0	0	0	1	blank2r.bmp	0	1	+	0	6	C2r.bmp	492	1	blank2r.bmp	786	1	CPLW	786	1	blank2r.bmp	866	1	vergnügt	866	1	!	1239	1	!	1252	0	0	0	0	0	0	0	0	0	0	0	0	0	0	0	0	0	0	0	0	0	0	0	0	0	0	0
013019	09:03:41	09:14:21	639024	5.0.10.0	4_exp_AWA_CON_AMP_EVA	99	Rpleas_acq	Oppo	Lpleas	Amasked	CS_A	2pleas	distractor1	CONbeforeEVA	cond_US_pleas_123_masked_CS2	condtest_masked_2	9	2	400	1	300	300	0	0	346	50	0	0	0	0	0	1	blank2r.bmp	0	1	+	0	4	B4r.bmp	492	1	blank2r.bmp	786	1	DHJF	786	1	blank2r.bmp	866	3	kuss	866	1	!	1239	1	!	1252	0	0	0	0	0	0	0	0	0	0	0	0	0	0	0	0	0	0	0	0	0	0	0	0	0	0	0
013019	09:03:41	09:14:23	641263	5.0.10.0	4_exp_AWA_CON_AMP_EVA	99	Rpleas_acq	Oppo	Lpleas	Amasked	CS_A	2pleas	distractor1	CONbeforeEVA	cond_new_unple_456_masked_CS2	condtest_masked_2	9	3	400	1	300	300	0	0	449	50	0	1	0	0	0	1	blank2r.bmp	0	1	+	0	1	B1r.bmp	492	1	blank2r.bmp	786	1	DHJF	786	1	blank2r.bmp	866	1	verbissen	866	1	!	1239	1	!	1346	0	0	0	0	0	0	0	0	0	0	0	0	0	0	0	0	0	0	0	0	0	0	0	0	0	0	0
013019	09:03:41	09:14:25	643489	5.0.10.0	4_exp_AWA_CON_AMP_EVA	99	Rpleas_acq	Oppo	Lpleas	Amasked	CS_A	2pleas	distractor1	CONbeforeEVA	cond_US_pleas_123_masked_CS1	condtest_masked_2	9	4	400	1	300	300	0	0	435	46	0	1	0	0	0	1	blank2r.bmp	0	1	+	0	3	B3r.bmp	492	1	blank2r.bmp	786	1	CPLW	786	1	blank2r.bmp	866	1	vertrauen	866	1	!	1239	1	!	1332	0	0	0	0	0	0	0	0	0	0	0	0	0	0	0	0	0	0	0	0	0	0	0	0	0	0	0
013019	09:03:41	09:14:28	645941	5.0.10.0	4_exp_AWA_CON_AMP_EVA	99	Rpleas_acq	Oppo	Lpleas	Amasked	CS_A	2pleas	distractor1	CONbeforeEVA	cond_new_unple_456_masked_CS2	condtest_masked_2	9	5	400	0	300	300	0	0	685	50	0	1	0	0	0	1	blank2r.bmp	0	1	+	0	4	B4r.bmp	492	1	blank2r.bmp	786	1	DHJF	786	1	blank2r.bmp	866	2	engstirnig	866	1	!	1239	1	!	-1	0	0	0	0	0	0	0	0	0	0	0	0	0	0	0	0	0	0	0	0	0	0	0	0	0	0	0
013019	09:03:41	09:14:30	648127	5.0.10.0	4_exp_AWA_CON_AMP_EVA	99	Rpleas_acq	Oppo	Lpleas	Amasked	CS_A	2pleas	distractor1	CONbeforeEVA	cond_US_pleas_123_masked_CS2	condtest_masked_2	9	6	400	1	300	300	0	0	385	46	0	1	0	0	0	1	blank2r.bmp	0	1	+	0	3	B3r.bmp	492	1	blank2r.bmp	786	1	DHJF	786	1	blank2r.bmp	866	3	kuss	866	1	!	1239	1	!	1279	0	0	0	0	0	0	0	0	0	0	0	0	0	0	0	0	0	0	0	0	0	0	0	0	0	0	0
013019	09:03:41	09:14:32	650526	5.0.10.0	4_exp_AWA_CON_AMP_EVA	99	Rpleas_acq	Oppo	Lpleas	Amasked	CS_A	2pleas	distractor1	CONbeforeEVA	cond_US_unple_123_masked_CS2	condtest_masked_2	9	7	400	0	300	300	0	0	633	50	0	1	0	0	0	1	blank2r.bmp	0	1	+	0	2	B2r.bmp	492	1	blank2r.bmp	786	1	DHJF	786	1	blank2r.bmp	866	2	töten	866	1	!	1239	1	!	-1	0	0	0	0	0	0	0	0	0	0	0	0	0	0	0	0	0	0	0	0	0	0	0	0	0	0	0
013019	09:03:41	09:14:35	652725	5.0.10.0	4_exp_AWA_CON_AMP_EVA	99	Rpleas_acq	Oppo	Lpleas	Amasked	CS_A	2pleas	distractor1	CONbeforeEVA	cond_new_unple_456_masked_CS1	condtest_masked_2	9	8	400	1	300	300	0	0	393	50	0	1	0	0	0	1	blank2r.bmp	0	1	+	0	8	C4r.bmp	492	1	blank2r.bmp	786	1	CPLW	786	1	blank2r.bmp	866	3	sterben	866	1	!	1239	1	!	1292	0	0	0	0	0	0	0	0	0	0	0	0	0	0	0	0	0	0	0	0	0	0	0	0	0	0	0
013019	09:03:41	09:14:37	654911	5.0.10.0	4_exp_AWA_CON_AMP_EVA	99	Rpleas_acq	Oppo	Lpleas	Amasked	CS_A	2pleas	distractor1	CONbeforeEVA	cond_new_pleas_456_masked_CS2	condtest_masked_2	9	9	400	1	300	300	0	0	397	50	0	0	0	0	0	1	blank2r.bmp	0	1	+	0	7	C3r.bmp	492	1	blank2r.bmp	786	1	DHJF	786	1	blank2r.bmp	866	2	engagiert	866	1	!	1239	1	!	1292	0	0	0	0	0	0	0	0	0	0	0	0	0	0	0	0	0	0	0	0	0	0	0	0	0	0	0
013019	09:03:41	09:14:39	657177	5.0.10.0	4_exp_AWA_CON_AMP_EVA	99	Rpleas_acq	Oppo	Lpleas	Amasked	CS_A	2pleas	distractor1	CONbeforeEVA	cond_new_unple_456_masked_CS1	condtest_masked_2	9	10	400	0	300	300	0	0	499	50	0	1	0	0	0	1	blank2r.bmp	0	1	+	0	1	B1r.bmp	492	1	blank2r.bmp	786	1	CPLW	786	1	blank2r.bmp	866	1	verbissen	866	1	!	1239	1	!	-1	0	0	0	0	0	0	0	0	0	0	0	0	0	0	0	0	0	0	0	0	0	0	0	0	0	0	0
013019	09:03:41	09:14:41	659416	5.0.10.0	4_exp_AWA_CON_AMP_EVA	99	Rpleas_acq	Oppo	Lpleas	Amasked	CS_A	2pleas	distractor1	CONbeforeEVA	cond_new_unple_456_masked_CS1	condtest_masked_2	9	11	400	1	300	300	0	0	438	50	0	1	0	0	0	1	blank2r.bmp	0	1	+	0	6	C2r.bmp	492	1	blank2r.bmp	786	1	CPLW	786	1	blank2r.bmp	866	3	sterben	866	1	!	1239	1	!	1332	0	0	0	0	0	0	0	0	0	0	0	0	0	0	0	0	0	0	0	0	0	0	0	0	0	0	0
013019	09:03:41	09:14:43	661588	5.0.10.0	4_exp_AWA_CON_AMP_EVA	99	Rpleas_acq	Oppo	Lpleas	Amasked	CS_A	2pleas	distractor1	CONbeforeEVA	cond_US_pleas_123_masked_CS1	condtest_masked_2	9	12	400	1	300	300	0	0	375	46	0	1	0	0	0	1	blank2r.bmp	0	1	+	0	5	C1r.bmp	492	1	blank2r.bmp	786	1	CPLW	786	1	blank2r.bmp	866	2	träumen	866	1	!	1239	1	!	1279	0	0	0	0	0	0	0	0	0	0	0	0	0	0	0	0	0	0	0	0	0	0	0	0	0	0	0
013019	09:03:41	09:14:46	663840	5.0.10.0	4_exp_AWA_CON_AMP_EVA	99	Rpleas_acq	Oppo	Lpleas	Amasked	CS_A	2pleas	distractor1	CONbeforeEVA	cond_US_pleas_123_masked_CS1	condtest_masked_2	9	13	400	1	300	300	0	0	452	46	0	1	0	0	0	1	blank2r.bmp	0	1	+	0	2	B2r.bmp	492	1	blank2r.bmp	786	1	CPLW	786	1	blank2r.bmp	866	2	träumen	866	1	!	1239	1	!	1359	0	0	0	0	0	0	0	0	0	0	0	0	0	0	0	0	0	0	0	0	0	0	0	0	0	0	0
013019	09:03:41	09:14:48	666093	5.0.10.0	4_exp_AWA_CON_AMP_EVA	99	Rpleas_acq	Oppo	Lpleas	Amasked	CS_A	2pleas	distractor1	CONbeforeEVA	cond_US_pleas_123_masked_CS2	condtest_masked_2	9	14	400	1	300	300	0	0	457	46	0	1	0	0	0	1	blank2r.bmp	0	1	+	0	6	C2r.bmp	492	1	blank2r.bmp	786	1	DHJF	786	1	blank2r.bmp	866	1	vertrauen	866	1	!	1239	1	!	1359	0	0	0	0	0	0	0	0	0	0	0	0	0	0	0	0	0	0	0	0	0	0	0	0	0	0	0
013019	09:03:41	09:14:50	668265	5.0.10.0	4_exp_AWA_CON_AMP_EVA	99	Rpleas_acq	Oppo	Lpleas	Amasked	CS_A	2pleas	distractor1	CONbeforeEVA	cond_new_unple_456_masked_CS1	condtest_masked_2	9	15	400	1	300	300	0	0	381	50	0	1	0	0	0	1	blank2r.bmp	0	1	+	0	4	B4r.bmp	492	1	blank2r.bmp	786	1	CPLW	786	1	blank2r.bmp	866	2	engstirnig	866	1	!	1239	1	!	1279	0	0	0	0	0	0	0	0	0	0	0	0	0	0	0	0	0	0	0	0	0	0	0	0	0	0	0
013019	09:03:41	09:14:53	670678	5.0.10.0	4_exp_AWA_CON_AMP_EVA	99	Rpleas_acq	Oppo	Lpleas	Amasked	CS_A	2pleas	distractor1	CONbeforeEVA	cond_US_pleas_123_masked_CS2	condtest_masked_2	9	16	400	0	300	300	0	0	648	46	0	1	0	0	0	1	blank2r.bmp	0	1	+	0	7	C3r.bmp	492	1	blank2r.bmp	786	1	DHJF	786	1	blank2r.bmp	866	3	kuss	866	1	!	1239	1	!	-1	0	0	0	0	0	0	0	0	0	0	0	0	0	0	0	0	0	0	0	0	0	0	0	0	0	0	0
013019	09:03:41	09:14:55	672943	5.0.10.0	4_exp_AWA_CON_AMP_EVA	99	Rpleas_acq	Oppo	Lpleas	Amasked	CS_A	2pleas	distractor1	CONbeforeEVA	cond_US_unple_123_masked_CS1	condtest_masked_2	9	17	400	0	300	300	0	0	479	50	0	1	0	0	0	1	blank2r.bmp	0	1	+	0	1	B1r.bmp	492	1	blank2r.bmp	786	1	CPLW	786	1	blank2r.bmp	866	3	krise	866	1	!	1239	1	!	-1	0	0	0	0	0	0	0	0	0	0	0	0	0	0	0	0	0	0	0	0	0	0	0	0	0	0	0
013019	09:03:41	09:14:57	675196	5.0.10.0	4_exp_AWA_CON_AMP_EVA	99	Rpleas_acq	Oppo	Lpleas	Amasked	CS_A	2pleas	distractor1	CONbeforeEVA	cond_US_pleas_123_masked_CS1	condtest_masked_2	9	18	400	1	300	300	0	0	446	46	0	1	0	0	0	1	blank2r.bmp	0	1	+	0	8	C4r.bmp	492	1	blank2r.bmp	786	1	CPLW	786	1	blank2r.bmp	866	3	kuss	866	1	!	1239	1	!	1346	0	0	0	0	0	0	0	0	0	0	0	0	0	0	0	0	0	0	0	0	0	0	0	0	0	0	0
013019	09:03:41	09:14:59	677421	5.0.10.0	4_exp_AWA_CON_AMP_EVA	99	Rpleas_acq	Oppo	Lpleas	Amasked	CS_A	2pleas	distractor1	CONbeforeEVA	cond_new_unple_456_masked_CS2	condtest_masked_2	9	19	400	1	300	300	0	0	418	46	0	0	0	0	0	1	blank2r.bmp	0	1	+	0	5	C1r.bmp	492	1	blank2r.bmp	786	1	DHJF	786	1	blank2r.bmp	866	1	verbissen	866	1	!	1239	1	!	1319	0	0	0	0	0	0	0	0	0	0	0	0	0	0	0	0	0	0	0	0	0	0	0	0	0	0	0
013019	09:03:41	09:15:01	679660	5.0.10.0	4_exp_AWA_CON_AMP_EVA	99	Rpleas_acq	Oppo	Lpleas	Amasked	CS_A	2pleas	distractor1	CONbeforeEVA	cond_US_unple_123_masked_CS1	condtest_masked_2	9	20	400	1	300	300	0	0	451	50	0	1	0	0	0	1	blank2r.bmp	0	1	+	0	3	B3r.bmp	492	1	blank2r.bmp	786	1	CPLW	786	1	blank2r.bmp	866	1	versagen	866	1	!	1239	1	!	1346	0	0	0	0	0	0	0	0	0	0	0	0	0	0	0	0	0	0	0	0	0	0	0	0	0	0	0
013019	09:03:41	09:15:04	681859	5.0.10.0	4_exp_AWA_CON_AMP_EVA	99	Rpleas_acq	Oppo	Lpleas	Amasked	CS_A	2pleas	distractor1	CONbeforeEVA	cond_US_unple_123_masked_CS1	condtest_masked_2	9	21	400	1	300	300	0	0	407	50	0	1	0	0	0	1	blank2r.bmp	0	1	+	0	1	B1r.bmp	492	1	blank2r.bmp	786	1	CPLW	786	1	blank2r.bmp	866	2	töten	866	1	!	1239	1	!	1306	0	0	0	0	0	0	0	0	0	0	0	0	0	0	0	0	0	0	0	0	0	0	0	0	0	0	0
013019	09:03:41	09:15:06	684125	5.0.10.0	4_exp_AWA_CON_AMP_EVA	99	Rpleas_acq	Oppo	Lpleas	Amasked	CS_A	2pleas	distractor1	CONbeforeEVA	cond_US_unple_123_masked_CS2	condtest_masked_2	9	22	400	1	300	300	0	0	465	50	0	1	0	0	0	1	blank2r.bmp	0	1	+	0	2	B2r.bmp	492	1	blank2r.bmp	786	1	DHJF	786	1	blank2r.bmp	866	1	versagen	866	1	!	1239	1	!	1372	0	0	0	0	0	0	0	0	0	0	0	0	0	0	0	0	0	0	0	0	0	0	0	0	0	0	0
013019	09:03:41	09:15:08	686204	5.0.10.0	4_exp_AWA_CON_AMP_EVA	99	Rpleas_acq	Oppo	Lpleas	Amasked	CS_A	2pleas	distractor1	CONbeforeEVA	cond_new_unple_456_masked_CS1	condtest_masked_2	9	23	400	0	300	300	0	0	318	50	0	1	0	0	0	1	blank2r.bmp	0	1	+	0	4	B4r.bmp	492	1	blank2r.bmp	786	1	CPLW	786	1	blank2r.bmp	866	1	verbissen	866	1	!	-1	1	!	-1	0	0	0	0	0	0	0	0	0	0	0	0	0	0	0	0	0	0	0	0	0	0	0	0	0	0	0
013019	09:03:41	09:15:10	688470	5.0.10.0	4_exp_AWA_CON_AMP_EVA	99	Rpleas_acq	Oppo	Lpleas	Amasked	CS_A	2pleas	distractor1	CONbeforeEVA	cond_new_pleas_456_masked_CS1	condtest_masked_2	9	24	400	0	300	300	0	0	479	46	0	1	0	0	0	1	blank2r.bmp	0	1	+	0	8	C4r.bmp	492	1	blank2r.bmp	786	1	CPLW	786	1	blank2r.bmp	866	1	vergnügt	866	1	!	1239	1	!	-1	0	0	0	0	0	0	0	0	0	0	0	0	0	0	0	0	0	0	0	0	0	0	0	0	0	0	0
013019	09:03:41	09:15:13	690709	5.0.10.0	4_exp_AWA_CON_AMP_EVA	99	Rpleas_acq	Oppo	Lpleas	Amasked	CS_A	2pleas	distractor1	CONbeforeEVA	cond_new_pleas_456_masked_CS2	condtest_masked_2	9	25	400	1	300	300	0	0	427	46	0	1	0	0	0	1	blank2r.bmp	0	1	+	0	7	C3r.bmp	492	1	blank2r.bmp	786	1	DHJF	786	1	blank2r.bmp	866	3	sonnig	866	1	!	1239	1	!	1332	0	0	0	0	0	0	0	0	0	0	0	0	0	0	0	0	0	0	0	0	0	0	0	0	0	0	0
013019	09:03:41	09:15:15	692935	5.0.10.0	4_exp_AWA_CON_AMP_EVA	99	Rpleas_acq	Oppo	Lpleas	Amasked	CS_A	2pleas	distractor1	CONbeforeEVA	cond_US_unple_123_masked_CS2	condtest_masked_2	9	26	400	1	300	300	0	0	428	46	0	0	0	0	0	1	blank2r.bmp	0	1	+	0	6	C2r.bmp	492	1	blank2r.bmp	786	1	DHJF	786	1	blank2r.bmp	866	3	krise	866	1	!	1239	1	!	1332	0	0	0	0	0	0	0	0	0	0	0	0	0	0	0	0	0	0	0	0	0	0	0	0	0	0	0
013019	09:03:41	09:15:17	695187	5.0.10.0	4_exp_AWA_CON_AMP_EVA	99	Rpleas_acq	Oppo	Lpleas	Amasked	CS_A	2pleas	distractor1	CONbeforeEVA	cond_new_pleas_456_masked_CS1	condtest_masked_2	9	27	400	0	300	300	0	0	479	46	0	1	0	0	0	1	blank2r.bmp	0	1	+	0	3	B3r.bmp	492	1	blank2r.bmp	786	1	CPLW	786	1	blank2r.bmp	866	3	sonnig	866	1	!	1239	1	!	-1	0	0	0	0	0	0	0	0	0	0	0	0	0	0	0	0	0	0	0	0	0	0	0	0	0	0	0
013019	09:03:41	09:15:19	697373	5.0.10.0	4_exp_AWA_CON_AMP_EVA	99	Rpleas_acq	Oppo	Lpleas	Amasked	CS_A	2pleas	distractor1	CONbeforeEVA	cond_US_unple_123_masked_CS2	condtest_masked_2	9	28	400	1	300	300	0	0	375	50	0	1	0	0	0	1	blank2r.bmp	0	1	+	0	5	C1r.bmp	492	1	blank2r.bmp	786	1	DHJF	786	1	blank2r.bmp	866	2	töten	866	1	!	1239	1	!	1279	0	0	0	0	0	0	0	0	0	0	0	0	0	0	0	0	0	0	0	0	0	0	0	0	0	0	0
013019	09:03:41	09:15:21	699652	5.0.10.0	4_exp_AWA_CON_AMP_EVA	99	Rpleas_acq	Oppo	Lpleas	Amasked	CS_A	2pleas	distractor1	CONbeforeEVA	cond_new_pleas_456_masked_CS2	condtest_masked_2	9	29	400	0	300	300	0	0	510	46	0	1	0	0	0	1	blank2r.bmp	0	1	+	0	1	B1r.bmp	492	1	blank2r.bmp	786	1	DHJF	786	1	blank2r.bmp	866	1	vergnügt	866	1	!	1239	1	!	-1	0	0	0	0	0	0	0	0	0	0	0	0	0	0	0	0	0	0	0	0	0	0	0	0	0	0	0
013019	09:03:41	09:15:24	701811	5.0.10.0	4_exp_AWA_CON_AMP_EVA	99	Rpleas_acq	Oppo	Lpleas	Amasked	CS_A	2pleas	distractor1	CONbeforeEVA	cond_US_unple_123_masked_CS1	condtest_masked_2	9	30	400	1	300	300	0	0	353	50	0	1	0	0	0	1	blank2r.bmp	0	1	+	0	5	C1r.bmp	492	1	blank2r.bmp	786	1	CPLW	786	1	blank2r.bmp	866	1	versagen	866	1	!	1239	1	!	1252	0	0	0	0	0	0	0	0	0	0	0	0	0	0	0	0	0	0	0	0	0	0	0	0	0	0	0
013019	09:03:41	09:15:26	703970	5.0.10.0	4_exp_AWA_CON_AMP_EVA	99	Rpleas_acq	Oppo	Lpleas	Amasked	CS_A	2pleas	distractor1	CONbeforeEVA	cond_new_pleas_456_masked_CS1	condtest_masked_2	9	31	400	1	300	300	0	0	360	50	0	0	0	0	0	1	blank2r.bmp	0	1	+	0	4	B4r.bmp	492	1	blank2r.bmp	786	1	CPLW	786	1	blank2r.bmp	866	2	engagiert	866	1	!	1239	1	!	1266	0	0	0	0	0	0	0	0	0	0	0	0	0	0	0	0	0	0	0	0	0	0	0	0	0	0	0
013019	09:03:41	09:15:28	706129	5.0.10.0	4_exp_AWA_CON_AMP_EVA	99	Rpleas_acq	Oppo	Lpleas	Amasked	CS_A	2pleas	distractor1	CONbeforeEVA	cond_US_pleas_123_masked_CS1	condtest_masked_2	9	32	400	1	300	300	0	0	371	46	0	1	0	0	0	1	blank2r.bmp	0	1	+	0	6	C2r.bmp	492	1	blank2r.bmp	786	1	CPLW	786	1	blank2r.bmp	866	2	träumen	866	1	!	1239	1	!	1266	0	0	0	0	0	0	0	0	0	0	0	0	0	0	0	0	0	0	0	0	0	0	0	0	0	0	0
013019	09:03:41	09:15:30	708408	5.0.10.0	4_exp_AWA_CON_AMP_EVA	99	Rpleas_acq	Oppo	Lpleas	Amasked	CS_A	2pleas	distractor1	CONbeforeEVA	cond_US_pleas_123_masked_CS2	condtest_masked_2	9	33	400	0	300	300	0	0	500	46	0	1	0	0	0	1	blank2r.bmp	0	1	+	0	8	C4r.bmp	492	1	blank2r.bmp	786	1	DHJF	786	1	blank2r.bmp	866	1	vertrauen	866	1	!	1239	1	!	-1	0	0	0	0	0	0	0	0	0	0	0	0	0	0	0	0	0	0	0	0	0	0	0	0	0	0	0
013019	09:03:41	09:15:32	710581	5.0.10.0	4_exp_AWA_CON_AMP_EVA	99	Rpleas_acq	Oppo	Lpleas	Amasked	CS_A	2pleas	distractor1	CONbeforeEVA	cond_new_pleas_456_masked_CS2	condtest_masked_2	9	34	400	1	300	300	0	0	371	46	0	1	0	0	0	1	blank2r.bmp	0	1	+	0	3	B3r.bmp	492	1	blank2r.bmp	786	1	DHJF	786	1	blank2r.bmp	866	1	vergnügt	866	1	!	1239	1	!	1266	0	0	0	0	0	0	0	0	0	0	0	0	0	0	0	0	0	0	0	0	0	0	0	0	0	0	0
013019	09:03:41	09:15:35	712833	5.0.10.0	4_exp_AWA_CON_AMP_EVA	99	Rpleas_acq	Oppo	Lpleas	Amasked	CS_A	2pleas	distractor1	CONbeforeEVA	cond_new_unple_456_masked_CS2	condtest_masked_2	9	35	400	1	300	300	0	0	460	46	0	0	0	0	0	1	blank2r.bmp	0	1	+	0	2	B2r.bmp	492	1	blank2r.bmp	786	1	DHJF	786	1	blank2r.bmp	866	2	engstirnig	866	1	!	1239	1	!	1359	0	0	0	0	0	0	0	0	0	0	0	0	0	0	0	0	0	0	0	0	0	0	0	0	0	0	0
013019	09:03:41	09:15:37	715485	5.0.10.0	4_exp_AWA_CON_AMP_EVA	99	Rpleas_acq	Oppo	Lpleas	Amasked	CS_A	2pleas	distractor1	CONbeforeEVA	cond_new_pleas_456_masked_CS1	condtest_masked_2	9	36	400	0	300	300	0	0	888	46	0	1	0	0	0	1	blank2r.bmp	0	1	+	0	7	C3r.bmp	492	1	blank2r.bmp	786	1	CPLW	786	1	blank2r.bmp	866	3	sonnig	866	1	!	1239	1	!	-1	0	0	0	0	0	0	0	0	0	0	0	0	0	0	0	0	0	0	0	0	0	0	0	0	0	0	0
013019	09:03:41	09:15:40	717751	5.0.10.0	4_exp_AWA_CON_AMP_EVA	99	Rpleas_acq	Oppo	Lpleas	Amasked	CS_A	2pleas	distractor1	CONbeforeEVA	cond_new_pleas_456_masked_CS2	condtest_masked_2	9	37	400	0	300	300	0	0	489	46	0	1	0	0	0	1	blank2r.bmp	0	1	+	0	6	C2r.bmp	492	1	blank2r.bmp	786	1	DHJF	786	1	blank2r.bmp	866	2	engagiert	866	1	!	1239	1	!	-1	0	0	0	0	0	0	0	0	0	0	0	0	0	0	0	0	0	0	0	0	0	0	0	0	0	0	0
013019	09:03:41	09:15:42	719830	5.0.10.0	4_exp_AWA_CON_AMP_EVA	99	Rpleas_acq	Oppo	Lpleas	Amasked	CS_A	2pleas	distractor1	CONbeforeEVA	cond_US_unple_123_masked_CS2	condtest_masked_2	9	38	400	0	300	300	0	0	296	50	0	1	0	0	0	1	blank2r.bmp	0	1	+	0	3	B3r.bmp	492	1	blank2r.bmp	786	1	DHJF	786	1	blank2r.bmp	866	2	töten	866	1	!	-1	1	!	-1	0	0	0	0	0	0	0	0	0	0	0	0	0	0	0	0	0	0	0	0	0	0	0	0	0	0	0
013019	09:03:41	09:15:44	722109	5.0.10.0	4_exp_AWA_CON_AMP_EVA	99	Rpleas_acq	Oppo	Lpleas	Amasked	CS_A	2pleas	distractor1	CONbeforeEVA	cond_new_unple_456_masked_CS2	condtest_masked_2	9	39	400	0	300	300	0	0	482	50	0	1	0	0	0	1	blank2r.bmp	0	1	+	0	7	C3r.bmp	492	1	blank2r.bmp	786	1	DHJF	786	1	blank2r.bmp	866	3	sterben	866	1	!	1239	1	!	-1	0	0	0	0	0	0	0	0	0	0	0	0	0	0	0	0	0	0	0	0	0	0	0	0	0	0	0
013019	09:03:41	09:15:46	724388	5.0.10.0	4_exp_AWA_CON_AMP_EVA	99	Rpleas_acq	Oppo	Lpleas	Amasked	CS_A	2pleas	distractor1	CONbeforeEVA	cond_US_unple_123_masked_CS1	condtest_masked_2	9	40	400	0	300	300	0	0	501	50	0	1	0	0	0	1	blank2r.bmp	0	1	+	0	8	C4r.bmp	492	1	blank2r.bmp	786	1	CPLW	786	1	blank2r.bmp	866	3	krise	866	1	!	1239	1	!	-1	0	0	0	0	0	0	0	0	0	0	0	0	0	0	0	0	0	0	0	0	0	0	0	0	0	0	0
013019	09:03:41	09:15:56	733664	5.0.10.0	4_exp_AWA_CON_AMP_EVA	99	Rpleas_acq	Oppo	Lpleas	Amasked	CS_A	2pleas	distractor1	CONbeforeEVA	cond_US_pleas_456_masked_CS1	condtest_masked_3	10	1	400	1	300	300	0	0	380	50	0	0	0	0	0	1	blank2r.bmp	0	1	+	0	2	B2r.bmp	492	1	blank2r.bmp	786	1	CPLW	786	1	blank2r.bmp	866	3	gesittet	866	1	!	1239	1	!	1279	0	0	0	0	0	0	0	0	0	0	0	0	0	0	0	0	0	0	0	0	0	0	0	0	0	0	0
013019	09:03:41	09:15:58	736037	5.0.10.0	4_exp_AWA_CON_AMP_EVA	99	Rpleas_acq	Oppo	Lpleas	Amasked	CS_A	2pleas	distractor1	CONbeforeEVA	cond_US_pleas_456_masked_CS2	condtest_masked_3	10	2	400	0	300	300	0	0	592	46	0	1	0	0	0	1	blank2r.bmp	0	1	+	0	4	B4r.bmp	492	1	blank2r.bmp	786	1	DHJF	786	1	blank2r.bmp	866	1	anregung	866	1	!	1239	1	!	-1	0	0	0	0	0	0	0	0	0	0	0	0	0	0	0	0	0	0	0	0	0	0	0	0	0	0	0
013019	09:03:41	09:16:00	738156	5.0.10.0	4_exp_AWA_CON_AMP_EVA	99	Rpleas_acq	Oppo	Lpleas	Amasked	CS_A	2pleas	distractor1	CONbeforeEVA	cond_US_pleas_456_masked_CS2	condtest_masked_3	10	3	400	0	300	300	0	0	325	46	0	1	0	0	0	1	blank2r.bmp	0	1	+	0	1	B1r.bmp	492	1	blank2r.bmp	786	1	DHJF	786	1	blank2r.bmp	866	2	besonnen	866	1	!	-1	1	!	-1	0	0	0	0	0	0	0	0	0	0	0	0	0	0	0	0	0	0	0	0	0	0	0	0	0	0	0
013019	09:03:41	09:16:02	740248	5.0.10.0	4_exp_AWA_CON_AMP_EVA	99	Rpleas_acq	Oppo	Lpleas	Amasked	CS_A	2pleas	distractor1	CONbeforeEVA	cond_US_pleas_456_masked_CS2	condtest_masked_3	10	4	400	0	300	300	0	0	305	46	0	1	0	0	0	1	blank2r.bmp	0	1	+	0	5	C1r.bmp	492	1	blank2r.bmp	786	1	DHJF	786	1	blank2r.bmp	866	3	gesittet	866	1	!	-1	1	!	-1	0	0	0	0	0	0	0	0	0	0	0	0	0	0	0	0	0	0	0	0	0	0	0	0	0	0	0
013019	09:03:41	09:16:04	742447	5.0.10.0	4_exp_AWA_CON_AMP_EVA	99	Rpleas_acq	Oppo	Lpleas	Amasked	CS_A	2pleas	distractor1	CONbeforeEVA	cond_US_pleas_456_masked_CS1	condtest_masked_3	10	5	400	1	300	300	0	0	384	46	0	1	0	0	0	1	blank2r.bmp	0	1	+	0	6	C2r.bmp	492	1	blank2r.bmp	786	1	CPLW	786	1	blank2r.bmp	866	2	besonnen	866	1	!	1239	1	!	1279	0	0	0	0	0	0	0	0	0	0	0	0	0	0	0	0	0	0	0	0	0	0	0	0	0	0	0
013019	09:03:41	09:16:06	744646	5.0.10.0	4_exp_AWA_CON_AMP_EVA	99	Rpleas_acq	Oppo	Lpleas	Amasked	CS_A	2pleas	distractor1	CONbeforeEVA	cond_new_pleas_123_masked_CS1	condtest_masked_3	10	6	400	1	300	300	0	0	390	46	0	1	0	0	0	1	blank2r.bmp	0	1	+	0	8	C4r.bmp	492	1	blank2r.bmp	786	1	CPLW	786	1	blank2r.bmp	866	3	kreativ	866	1	!	1239	1	!	1292	0	0	0	0	0	0	0	0	0	0	0	0	0	0	0	0	0	0	0	0	0	0	0	0	0	0	0
013019	09:03:41	09:16:09	746819	5.0.10.0	4_exp_AWA_CON_AMP_EVA	99	Rpleas_acq	Oppo	Lpleas	Amasked	CS_A	2pleas	distractor1	CONbeforeEVA	cond_new_unple_123_masked_CS2	condtest_masked_3	10	7	400	1	300	300	0	0	372	50	0	1	0	0	0	1	blank2r.bmp	0	1	+	0	7	C3r.bmp	492	1	blank2r.bmp	786	1	DHJF	786	1	blank2r.bmp	866	2	gemein	866	1	!	1239	1	!	1266	0	0	0	0	0	0	0	0	0	0	0	0	0	0	0	0	0	0	0	0	0	0	0	0	0	0	0
013019	09:03:41	09:16:11	749071	5.0.10.0	4_exp_AWA_CON_AMP_EVA	99	Rpleas_acq	Oppo	Lpleas	Amasked	CS_A	2pleas	distractor1	CONbeforeEVA	cond_new_unple_123_masked_CS1	condtest_masked_3	10	8	400	0	300	300	0	0	492	50	0	1	0	0	0	1	blank2r.bmp	0	1	+	0	5	C1r.bmp	492	1	blank2r.bmp	786	1	CPLW	786	1	blank2r.bmp	866	1	gierig	866	1	!	1239	1	!	-1	0	0	0	0	0	0	0	0	0	0	0	0	0	0	0	0	0	0	0	0	0	0	0	0	0	0	0
013019	09:03:41	09:16:13	751350	5.0.10.0	4_exp_AWA_CON_AMP_EVA	99	Rpleas_acq	Oppo	Lpleas	Amasked	CS_A	2pleas	distractor1	CONbeforeEVA	cond_US_pleas_456_masked_CS2	condtest_masked_3	10	9	400	0	300	300	0	0	496	46	0	1	0	0	0	1	blank2r.bmp	0	1	+	0	2	B2r.bmp	492	1	blank2r.bmp	786	1	DHJF	786	1	blank2r.bmp	866	1	anregung	866	1	!	1239	1	!	-1	0	0	0	0	0	0	0	0	0	0	0	0	0	0	0	0	0	0	0	0	0	0	0	0	0	0	0
013019	09:03:41	09:16:15	753603	5.0.10.0	4_exp_AWA_CON_AMP_EVA	99	Rpleas_acq	Oppo	Lpleas	Amasked	CS_A	2pleas	distractor1	CONbeforeEVA	cond_US_unple_456_masked_CS1	condtest_masked_3	10	10	400	1	300	300	0	0	446	50	0	1	0	0	0	1	blank2r.bmp	0	1	+	0	4	B4r.bmp	492	1	blank2r.bmp	786	1	CPLW	786	1	blank2r.bmp	866	2	bange	866	1	!	1239	1	!	1346	0	0	0	0	0	0	0	0	0	0	0	0	0	0	0	0	0	0	0	0	0	0	0	0	0	0	0
013019	09:03:41	09:16:18	755802	5.0.10.0	4_exp_AWA_CON_AMP_EVA	99	Rpleas_acq	Oppo	Lpleas	Amasked	CS_A	2pleas	distractor1	CONbeforeEVA	cond_new_pleas_123_masked_CS1	condtest_masked_3	10	11	400	1	300	300	0	0	407	46	0	1	0	0	0	1	blank2r.bmp	0	1	+	0	1	B1r.bmp	492	1	blank2r.bmp	786	1	CPLW	786	1	blank2r.bmp	866	2	genießen	866	1	!	1239	1	!	1306	0	0	0	0	0	0	0	0	0	0	0	0	0	0	0	0	0	0	0	0	0	0	0	0	0	0	0
013019	09:03:41	09:16:20	758014	5.0.10.0	4_exp_AWA_CON_AMP_EVA	99	Rpleas_acq	Oppo	Lpleas	Amasked	CS_A	2pleas	distractor1	CONbeforeEVA	cond_new_pleas_123_masked_CS1	condtest_masked_3	10	12	400	1	300	300	0	0	421	46	0	1	0	0	0	1	blank2r.bmp	0	1	+	0	3	B3r.bmp	492	1	blank2r.bmp	786	1	CPLW	786	1	blank2r.bmp	866	1	gütig	866	1	!	1239	1	!	1319	0	0	0	0	0	0	0	0	0	0	0	0	0	0	0	0	0	0	0	0	0	0	0	0	0	0	0
013019	09:03:41	09:16:22	760173	5.0.10.0	4_exp_AWA_CON_AMP_EVA	99	Rpleas_acq	Oppo	Lpleas	Amasked	CS_A	2pleas	distractor1	CONbeforeEVA	cond_US_unple_456_masked_CS2	condtest_masked_3	10	13	400	1	300	300	0	0	355	50	0	1	0	0	0	1	blank2r.bmp	0	1	+	0	1	B1r.bmp	492	1	blank2r.bmp	786	1	DHJF	786	1	blank2r.bmp	866	1	ausrottung	866	1	!	1239	1	!	1252	0	0	0	0	0	0	0	0	0	0	0	0	0	0	0	0	0	0	0	0	0	0	0	0	0	0	0
013019	09:03:41	09:16:24	762439	5.0.10.0	4_exp_AWA_CON_AMP_EVA	99	Rpleas_acq	Oppo	Lpleas	Amasked	CS_A	2pleas	distractor1	CONbeforeEVA	cond_new_unple_123_masked_CS1	condtest_masked_3	10	14	400	0	300	300	0	0	499	46	0	0	0	0	0	1	blank2r.bmp	0	1	+	0	3	B3r.bmp	492	1	blank2r.bmp	786	1	CPLW	786	1	blank2r.bmp	866	3	krank	866	1	!	1239	1	!	-1	0	0	0	0	0	0	0	0	0	0	0	0	0	0	0	0	0	0	0	0	0	0	0	0	0	0	0
013019	09:03:41	09:16:27	764705	5.0.10.0	4_exp_AWA_CON_AMP_EVA	99	Rpleas_acq	Oppo	Lpleas	Amasked	CS_A	2pleas	distractor1	CONbeforeEVA	cond_US_pleas_456_masked_CS1	condtest_masked_3	10	15	400	0	300	300	0	0	479	46	0	1	0	0	0	1	blank2r.bmp	0	1	+	0	2	B2r.bmp	492	1	blank2r.bmp	786	1	CPLW	786	1	blank2r.bmp	866	2	besonnen	866	1	!	1239	1	!	-1	0	0	0	0	0	0	0	0	0	0	0	0	0	0	0	0	0	0	0	0	0	0	0	0	0	0	0
013019	09:03:41	09:16:29	767130	5.0.10.0	4_exp_AWA_CON_AMP_EVA	99	Rpleas_acq	Oppo	Lpleas	Amasked	CS_A	2pleas	distractor1	CONbeforeEVA	cond_new_unple_123_masked_CS1	condtest_masked_3	10	16	400	0	300	300	0	0	647	50	0	1	0	0	0	1	blank2r.bmp	0	1	+	0	7	C3r.bmp	492	1	blank2r.bmp	786	1	CPLW	786	1	blank2r.bmp	866	3	krank	866	1	!	1239	1	!	-1	0	0	0	0	0	0	0	0	0	0	0	0	0	0	0	0	0	0	0	0	0	0	0	0	0	0	0
013019	09:03:41	09:16:31	769396	5.0.10.0	4_exp_AWA_CON_AMP_EVA	99	Rpleas_acq	Oppo	Lpleas	Amasked	CS_A	2pleas	distractor1	CONbeforeEVA	cond_US_unple_456_masked_CS1	condtest_masked_3	10	17	400	1	300	300	0	0	463	50	0	1	0	0	0	1	blank2r.bmp	0	1	+	0	6	C2r.bmp	492	1	blank2r.bmp	786	1	CPLW	786	1	blank2r.bmp	866	3	geizig	866	1	!	1239	1	!	1359	0	0	0	0	0	0	0	0	0	0	0	0	0	0	0	0	0	0	0	0	0	0	0	0	0	0	0
013019	09:03:41	09:16:33	771595	5.0.10.0	4_exp_AWA_CON_AMP_EVA	99	Rpleas_acq	Oppo	Lpleas	Amasked	CS_A	2pleas	distractor1	CONbeforeEVA	cond_US_pleas_456_masked_CS2	condtest_masked_3	10	18	400	1	300	300	0	0	409	46	0	1	0	0	0	1	blank2r.bmp	0	1	+	0	4	B4r.bmp	492	1	blank2r.bmp	786	1	DHJF	786	1	blank2r.bmp	866	1	anregung	866	1	!	1239	1	!	1306	0	0	0	0	0	0	0	0	0	0	0	0	0	0	0	0	0	0	0	0	0	0	0	0	0	0	0
013019	09:03:41	09:16:36	773808	5.0.10.0	4_exp_AWA_CON_AMP_EVA	99	Rpleas_acq	Oppo	Lpleas	Amasked	CS_A	2pleas	distractor1	CONbeforeEVA	cond_new_pleas_123_masked_CS2	condtest_masked_3	10	19	400	1	300	300	0	0	419	46	0	1	0	0	0	1	blank2r.bmp	0	1	+	0	8	C4r.bmp	492	1	blank2r.bmp	786	1	DHJF	786	1	blank2r.bmp	866	2	genießen	866	1	!	1239	1	!	1319	0	0	0	0	0	0	0	0	0	0	0	0	0	0	0	0	0	0	0	0	0	0	0	0	0	0	0
013019	09:03:41	09:16:38	775967	5.0.10.0	4_exp_AWA_CON_AMP_EVA	99	Rpleas_acq	Oppo	Lpleas	Amasked	CS_A	2pleas	distractor1	CONbeforeEVA	cond_US_unple_456_masked_CS1	condtest_masked_3	10	20	400	1	300	300	0	0	366	50	0	1	0	0	0	1	blank2r.bmp	0	1	+	0	5	C1r.bmp	492	1	blank2r.bmp	786	1	CPLW	786	1	blank2r.bmp	866	1	ausrottung	866	1	!	1239	1	!	1266	0	0	0	0	0	0	0	0	0	0	0	0	0	0	0	0	0	0	0	0	0	0	0	0	0	0	0
013019	09:03:41	09:16:40	778139	5.0.10.0	4_exp_AWA_CON_AMP_EVA	99	Rpleas_acq	Oppo	Lpleas	Amasked	CS_A	2pleas	distractor1	CONbeforeEVA	cond_US_unple_456_masked_CS1	condtest_masked_3	10	21	400	1	300	300	0	0	375	50	0	1	0	0	0	1	blank2r.bmp	0	1	+	0	5	C1r.bmp	492	1	blank2r.bmp	786	1	CPLW	786	1	blank2r.bmp	866	3	geizig	866	1	!	1239	1	!	1279	0	0	0	0	0	0	0	0	0	0	0	0	0	0	0	0	0	0	0	0	0	0	0	0	0	0	0
013019	09:03:41	09:16:42	780298	5.0.10.0	4_exp_AWA_CON_AMP_EVA	99	Rpleas_acq	Oppo	Lpleas	Amasked	CS_A	2pleas	distractor1	CONbeforeEVA	cond_US_unple_456_masked_CS1	condtest_masked_3	10	22	400	1	300	300	0	0	346	50	0	1	0	0	0	1	blank2r.bmp	0	1	+	0	7	C3r.bmp	492	1	blank2r.bmp	786	1	CPLW	786	1	blank2r.bmp	866	2	bange	866	1	!	1239	1	!	1252	0	0	0	0	0	0	0	0	0	0	0	0	0	0	0	0	0	0	0	0	0	0	0	0	0	0	0
013019	09:03:41	09:16:44	782524	5.0.10.0	4_exp_AWA_CON_AMP_EVA	99	Rpleas_acq	Oppo	Lpleas	Amasked	CS_A	2pleas	distractor1	CONbeforeEVA	cond_new_unple_123_masked_CS2	condtest_masked_3	10	23	400	1	300	300	0	0	426	50	0	1	0	0	0	1	blank2r.bmp	0	1	+	0	6	C2r.bmp	492	1	blank2r.bmp	786	1	DHJF	786	1	blank2r.bmp	866	1	gierig	866	1	!	1239	1	!	1332	0	0	0	0	0	0	0	0	0	0	0	0	0	0	0	0	0	0	0	0	0	0	0	0	0	0	0
013019	09:03:41	09:16:47	784736	5.0.10.0	4_exp_AWA_CON_AMP_EVA	99	Rpleas_acq	Oppo	Lpleas	Amasked	CS_A	2pleas	distractor1	CONbeforeEVA	cond_new_unple_123_masked_CS2	condtest_masked_3	10	24	400	1	300	300	0	0	407	50	0	1	0	0	0	1	blank2r.bmp	0	1	+	0	2	B2r.bmp	492	1	blank2r.bmp	786	1	DHJF	786	1	blank2r.bmp	866	2	gemein	866	1	!	1239	1	!	1306	0	0	0	0	0	0	0	0	0	0	0	0	0	0	0	0	0	0	0	0	0	0	0	0	0	0	0
013019	09:03:41	09:16:49	786949	5.0.10.0	4_exp_AWA_CON_AMP_EVA	99	Rpleas_acq	Oppo	Lpleas	Amasked	CS_A	2pleas	distractor1	CONbeforeEVA	cond_US_unple_456_masked_CS2	condtest_masked_3	10	25	400	1	300	300	0	0	401	50	0	1	0	0	0	1	blank2r.bmp	0	1	+	0	8	C4r.bmp	492	1	blank2r.bmp	786	1	DHJF	786	1	blank2r.bmp	866	1	ausrottung	866	1	!	1239	1	!	1306	0	0	0	0	0	0	0	0	0	0	0	0	0	0	0	0	0	0	0	0	0	0	0	0	0	0	0
013019	09:03:41	09:16:51	789174	5.0.10.0	4_exp_AWA_CON_AMP_EVA	99	Rpleas_acq	Oppo	Lpleas	Amasked	CS_A	2pleas	distractor1	CONbeforeEVA	cond_new_unple_123_masked_CS1	condtest_masked_3	10	26	400	1	300	300	0	0	428	50	0	1	0	0	0	1	blank2r.bmp	0	1	+	0	1	B1r.bmp	492	1	blank2r.bmp	786	1	CPLW	786	1	blank2r.bmp	866	1	gierig	866	1	!	1239	1	!	1332	0	0	0	0	0	0	0	0	0	0	0	0	0	0	0	0	0	0	0	0	0	0	0	0	0	0	0
013019	09:03:41	09:16:53	791347	5.0.10.0	4_exp_AWA_CON_AMP_EVA	99	Rpleas_acq	Oppo	Lpleas	Amasked	CS_A	2pleas	distractor1	CONbeforeEVA	cond_US_unple_456_masked_CS1	condtest_masked_3	10	27	400	1	300	300	0	0	377	50	0	1	0	0	0	1	blank2r.bmp	0	1	+	0	3	B3r.bmp	492	1	blank2r.bmp	786	1	CPLW	786	1	blank2r.bmp	866	3	geizig	866	1	!	1239	1	!	1279	0	0	0	0	0	0	0	0	0	0	0	0	0	0	0	0	0	0	0	0	0	0	0	0	0	0	0
013019	09:03:41	09:17:00	798117	5.0.10.0	4_exp_AWA_CON_AMP_EVA	99	Rpleas_acq	Oppo	Lpleas	Amasked	CS_A	2pleas	distractor1	CONbeforeEVA	cond_US_pleas_456_masked_CS2	condtest_masked_3	10	28	400	0	300	300	0	0	5001	50	0	0	0	0	0	1	blank2r.bmp	0	1	+	0	4	B4r.bmp	492	1	blank2r.bmp	786	1	DHJF	786	1	blank2r.bmp	866	3	gesittet	866	1	!	1239	1	!	-1	0	0	0	0	0	0	0	0	0	0	0	0	0	0	0	0	0	0	0	0	0	0	0	0	0	0	0
013019	09:03:41	09:17:02	800410	5.0.10.0	4_exp_AWA_CON_AMP_EVA	99	Rpleas_acq	Oppo	Lpleas	Amasked	CS_A	2pleas	distractor1	CONbeforeEVA	cond_US_pleas_456_masked_CS1	condtest_masked_3	10	29	400	0	300	300	0	0	508	46	0	1	0	0	0	1	blank2r.bmp	0	1	+	0	4	B4r.bmp	492	1	blank2r.bmp	786	1	CPLW	786	1	blank2r.bmp	866	1	anregung	866	1	!	1239	1	!	-1	0	0	0	0	0	0	0	0	0	0	0	0	0	0	0	0	0	0	0	0	0	0	0	0	0	0	0
013019	09:03:41	09:17:05	802675	5.0.10.0	4_exp_AWA_CON_AMP_EVA	99	Rpleas_acq	Oppo	Lpleas	Amasked	CS_A	2pleas	distractor1	CONbeforeEVA	cond_US_unple_456_masked_CS2	condtest_masked_3	10	30	400	1	300	300	0	0	457	50	0	1	0	0	0	1	blank2r.bmp	0	1	+	0	3	B3r.bmp	492	1	blank2r.bmp	786	1	DHJF	786	1	blank2r.bmp	866	2	bange	866	1	!	1239	1	!	1359	0	0	0	0	0	0	0	0	0	0	0	0	0	0	0	0	0	0	0	0	0	0	0	0	0	0	0
013019	09:03:41	09:17:07	804928	5.0.10.0	4_exp_AWA_CON_AMP_EVA	99	Rpleas_acq	Oppo	Lpleas	Amasked	CS_A	2pleas	distractor1	CONbeforeEVA	cond_new_unple_123_masked_CS2	condtest_masked_3	10	31	400	1	300	300	0	0	460	50	0	1	0	0	0	1	blank2r.bmp	0	1	+	0	7	C3r.bmp	492	1	blank2r.bmp	786	1	DHJF	786	1	blank2r.bmp	866	3	krank	866	1	!	1239	1	!	1359	0	0	0	0	0	0	0	0	0	0	0	0	0	0	0	0	0	0	0	0	0	0	0	0	0	0	0
