date	time	script.currenttime	script.elapsedtime	build	script.currentexpt	subject	expressions.LRpleas_acq	expressions.SameOppo	expressions.condition_Lpleas	expressions.ABmasked	expressions.conditionCS_A	expressions.condition_1pleas	expressions.condition_distractor_AMP	expressions.AWACON_AMPEVA_first	trialcode	blockcode	blocknum	trialnum	windowcenter	inwindow	pretrialpause	posttrialpause	trialduration	trialtimeout	latency	response	expressions.correctedscore	correct	values.vis_performance	values.vis_rating_sum	values.vis_rating_mean	stimulusnumber1	stimulusitem1	stimulusonset1	stimulusnumber2	stimulusitem2	stimulusonset2	stimulusnumber3	stimulusitem3	stimulusonset3	stimulusnumber4	stimulusitem4	stimulusonset4	stimulusnumber5	stimulusitem5	stimulusonset5	stimulusnumber6	stimulusitem6	stimulusonset6	stimulusnumber7	stimulusitem7	stimulusonset7	stimulusnumber8	stimulusitem8	stimulusonset8	stimulusnumber9	stimulusitem9	stimulusonset9	stimulusnumber10	stimulusitem10	stimulusonset10	stimulusnumber11	stimulusitem11	stimulusonset11	stimulusnumber12	stimulusitem12	stimulusonset12	stimulusnumber13	stimulusitem13	stimulusonset13	stimulusnumber14	stimulusitem14	stimulusonset14	stimulusnumber15	stimulusitem15	stimulusonset15	stimulusnumber16	stimulusitem16	stimulusonset16	stimulusnumber17	stimulusitem17	stimulusonset17	stimulusnumber18	stimulusitem18	stimulusonset18
030619	15:11:17	15:15:25	246898	5.0.10.0	4_exp_EVA_AMP_AWA_CON	146	Rpleas_acq	Same	Rpleas	Bmasked	CS_B	1pleas	distractor1	EVAbeforeCON	acq_new_unple_masked	acq1_masked	1	1	0	0	300	300	0	0	491	46	0	1	0	0	0	1	blank2r.bmp	0	1	+	0	7	C3r.bmp	492	1	blank2r.bmp	786	1	B1r.bmp	786	1	blank2r.bmp	866	6	hindern	866	0	0	0	0	0	0	0	0	0	0	0	0	0	0	0	0	0	0	0	0	0	0	0	0	0	0	0	0	0	0	0	0	0
030619	15:11:17	15:15:28	249563	5.0.10.0	4_exp_EVA_AMP_AWA_CON	146	Rpleas_acq	Same	Rpleas	Bmasked	CS_B	1pleas	distractor1	EVAbeforeCON	acq_new_pleas_masked	acq1_masked	1	2	0	0	300	300	0	0	1175	50	0	1	0	0	0	1	blank2r.bmp	0	1	+	0	2	B2r.bmp	492	1	blank2r.bmp	786	7	C3r.bmp	786	1	blank2r.bmp	866	4	tolerant	866	0	0	0	0	0	0	0	0	0	0	0	0	0	0	0	0	0	0	0	0	0	0	0	0	0	0	0	0	0	0	0	0	0
030619	15:11:17	15:15:30	252175	5.0.10.0	4_exp_EVA_AMP_AWA_CON	146	Rpleas_acq	Same	Rpleas	Bmasked	CS_B	1pleas	distractor1	EVAbeforeCON	acq_new_pleas_masked	acq1_masked	1	3	0	0	300	300	0	0	936	46	0	0	0	0	0	1	blank2r.bmp	0	1	+	0	1	B1r.bmp	492	1	blank2r.bmp	786	5	C1r.bmp	786	1	blank2r.bmp	866	3	lachen	866	1	FEHLER	1839	0	0	0	0	0	0	0	0	0	0	0	0	0	0	0	0	0	0	0	0	0	0	0	0	0	0	0	0	0	0
030619	15:11:17	15:15:33	254521	5.0.10.0	4_exp_EVA_AMP_AWA_CON	146	Rpleas_acq	Same	Rpleas	Bmasked	CS_B	1pleas	distractor1	EVAbeforeCON	acq_US_unple_masked	acq1_masked	1	4	0	0	300	300	0	0	854	50	0	0	0	0	0	1	blank2r.bmp	0	1	+	0	4	B4r.bmp	492	1	blank2r.bmp	786	1	GKQX	786	1	blank2r.bmp	866	4	tot	866	1	FEHLER	1759	0	0	0	0	0	0	0	0	0	0	0	0	0	0	0	0	0	0	0	0	0	0	0	0	0	0	0	0	0	0
030619	15:11:17	15:15:36	257493	5.0.10.0	4_exp_EVA_AMP_AWA_CON	146	Rpleas_acq	Same	Rpleas	Bmasked	CS_B	1pleas	distractor1	EVAbeforeCON	acq_new_unple_masked	acq1_masked	1	5	0	0	300	300	0	0	1498	50	0	0	0	0	0	1	blank2r.bmp	0	1	+	0	8	C4r.bmp	492	1	blank2r.bmp	786	6	C2r.bmp	786	1	blank2r.bmp	866	2	rächen	866	1	FEHLER	2399	0	0	0	0	0	0	0	0	0	0	0	0	0	0	0	0	0	0	0	0	0	0	0	0	0	0	0	0	0	0
030619	15:11:17	15:15:38	259985	5.0.10.0	4_exp_EVA_AMP_AWA_CON	146	Rpleas_acq	Same	Rpleas	Bmasked	CS_B	1pleas	distractor1	EVAbeforeCON	acq_US_unple_masked	acq1_masked	1	6	0	0	300	300	0	0	1234	46	0	1	0	0	0	1	blank2r.bmp	0	1	+	0	3	B3r.bmp	492	1	blank2r.bmp	786	1	GKQX	786	1	blank2r.bmp	866	5	eitel	866	0	0	0	0	0	0	0	0	0	0	0	0	0	0	0	0	0	0	0	0	0	0	0	0	0	0	0	0	0	0	0	0	0
030619	15:11:17	15:15:40	262198	5.0.10.0	4_exp_EVA_AMP_AWA_CON	146	Rpleas_acq	Same	Rpleas	Bmasked	CS_B	1pleas	distractor1	EVAbeforeCON	acq_US_pleas_masked	acq1_masked	1	7	0	0	300	300	0	0	722	50	0	1	0	0	0	1	blank2r.bmp	0	1	+	0	6	C2r.bmp	492	1	blank2r.bmp	786	1	BMVZ	786	1	blank2r.bmp	866	3	schön	866	0	0	0	0	0	0	0	0	0	0	0	0	0	0	0	0	0	0	0	0	0	0	0	0	0	0	0	0	0	0	0	0	0
030619	15:11:17	15:15:43	264690	5.0.10.0	4_exp_EVA_AMP_AWA_CON	146	Rpleas_acq	Same	Rpleas	Bmasked	CS_B	1pleas	distractor1	EVAbeforeCON	acq_US_pleas_masked	acq1_masked	1	8	0	0	300	300	0	0	806	46	0	0	0	0	0	1	blank2r.bmp	0	1	+	0	5	C1r.bmp	492	1	blank2r.bmp	786	1	BMVZ	786	1	blank2r.bmp	866	2	fair	866	1	FEHLER	1705	0	0	0	0	0	0	0	0	0	0	0	0	0	0	0	0	0	0	0	0	0	0	0	0	0	0	0	0	0	0
030619	15:11:17	15:15:45	267036	5.0.10.0	4_exp_EVA_AMP_AWA_CON	146	Rpleas_acq	Same	Rpleas	Bmasked	CS_B	1pleas	distractor1	EVAbeforeCON	acq_US_pleas_masked	acq1_masked	1	9	0	0	300	300	0	0	1075	50	0	1	0	0	0	1	blank2r.bmp	0	1	+	0	7	C3r.bmp	492	1	blank2r.bmp	786	1	BMVZ	786	1	blank2r.bmp	866	5	ehrlich	866	0	0	0	0	0	0	0	0	0	0	0	0	0	0	0	0	0	0	0	0	0	0	0	0	0	0	0	0	0	0	0	0	0
030619	15:11:17	15:15:48	269448	5.0.10.0	4_exp_EVA_AMP_AWA_CON	146	Rpleas_acq	Same	Rpleas	Bmasked	CS_B	1pleas	distractor1	EVAbeforeCON	acq_new_pleas_masked	acq1_masked	1	10	0	0	300	300	0	0	927	50	0	1	0	0	0	1	blank2r.bmp	0	1	+	0	8	C4r.bmp	492	1	blank2r.bmp	786	2	B2r.bmp	786	1	blank2r.bmp	866	2	retten	866	0	0	0	0	0	0	0	0	0	0	0	0	0	0	0	0	0	0	0	0	0	0	0	0	0	0	0	0	0	0	0	0	0
030619	15:11:17	15:15:50	272087	5.0.10.0	4_exp_EVA_AMP_AWA_CON	146	Rpleas_acq	Same	Rpleas	Bmasked	CS_B	1pleas	distractor1	EVAbeforeCON	acq_US_unple_masked	acq1_masked	1	11	0	0	300	300	0	0	955	50	0	0	0	0	0	1	blank2r.bmp	0	1	+	0	2	B2r.bmp	492	1	blank2r.bmp	786	1	GKQX	786	1	blank2r.bmp	866	6	fanatisch	866	1	FEHLER	1852	0	0	0	0	0	0	0	0	0	0	0	0	0	0	0	0	0	0	0	0	0	0	0	0	0	0	0	0	0	0
030619	15:11:17	15:15:52	274366	5.0.10.0	4_exp_EVA_AMP_AWA_CON	146	Rpleas_acq	Same	Rpleas	Bmasked	CS_B	1pleas	distractor1	EVAbeforeCON	acq_new_unple_masked	acq1_masked	1	12	0	0	300	300	0	0	1008	46	0	1	0	0	0	1	blank2r.bmp	0	1	+	0	6	C2r.bmp	492	1	blank2r.bmp	786	4	B4r.bmp	786	1	blank2r.bmp	866	5	strafen	866	0	0	0	0	0	0	0	0	0	0	0	0	0	0	0	0	0	0	0	0	0	0	0	0	0	0	0	0	0	0	0	0	0
030619	15:11:17	15:15:55	276605	5.0.10.0	4_exp_EVA_AMP_AWA_CON	146	Rpleas_acq	Same	Rpleas	Bmasked	CS_B	1pleas	distractor1	EVAbeforeCON	acq_new_pleas_masked	acq1_masked	1	13	0	0	300	300	0	0	745	50	0	1	0	0	0	1	blank2r.bmp	0	1	+	0	1	B1r.bmp	492	1	blank2r.bmp	786	3	B3r.bmp	786	1	blank2r.bmp	866	6	helfen	866	0	0	0	0	0	0	0	0	0	0	0	0	0	0	0	0	0	0	0	0	0	0	0	0	0	0	0	0	0	0	0	0	0
030619	15:11:17	15:15:57	278804	5.0.10.0	4_exp_EVA_AMP_AWA_CON	146	Rpleas_acq	Same	Rpleas	Bmasked	CS_B	1pleas	distractor1	EVAbeforeCON	acq_US_unple_masked	acq1_masked	1	14	0	0	300	300	0	0	726	46	0	1	0	0	0	1	blank2r.bmp	0	1	+	0	4	B4r.bmp	492	1	blank2r.bmp	786	1	GKQX	786	1	blank2r.bmp	866	3	schlecht	866	0	0	0	0	0	0	0	0	0	0	0	0	0	0	0	0	0	0	0	0	0	0	0	0	0	0	0	0	0	0	0	0	0
030619	15:11:17	15:15:59	281230	5.0.10.0	4_exp_EVA_AMP_AWA_CON	146	Rpleas_acq	Same	Rpleas	Bmasked	CS_B	1pleas	distractor1	EVAbeforeCON	acq_US_unple_masked	acq1_masked	1	15	0	0	300	300	0	0	953	46	0	1	0	0	0	1	blank2r.bmp	0	1	+	0	3	B3r.bmp	492	1	blank2r.bmp	786	1	GKQX	786	1	blank2r.bmp	866	1	lasch	866	0	0	0	0	0	0	0	0	0	0	0	0	0	0	0	0	0	0	0	0	0	0	0	0	0	0	0	0	0	0	0	0	0
030619	15:11:17	15:16:02	283403	5.0.10.0	4_exp_EVA_AMP_AWA_CON	146	Rpleas_acq	Same	Rpleas	Bmasked	CS_B	1pleas	distractor1	EVAbeforeCON	acq_US_pleas_masked	acq1_masked	1	16	0	0	300	300	0	0	690	50	0	1	0	0	0	1	blank2r.bmp	0	1	+	0	5	C1r.bmp	492	1	blank2r.bmp	786	1	BMVZ	786	1	blank2r.bmp	866	4	treu	866	0	0	0	0	0	0	0	0	0	0	0	0	0	0	0	0	0	0	0	0	0	0	0	0	0	0	0	0	0	0	0	0	0
030619	15:11:17	15:16:04	285842	5.0.10.0	4_exp_EVA_AMP_AWA_CON	146	Rpleas_acq	Same	Rpleas	Bmasked	CS_B	1pleas	distractor1	EVAbeforeCON	acq_US_pleas_masked	acq1_masked	1	17	0	0	300	300	0	0	949	50	0	1	0	0	0	1	blank2r.bmp	0	1	+	0	1	B1r.bmp	492	1	blank2r.bmp	786	1	BMVZ	786	1	blank2r.bmp	866	1	loyal	866	0	0	0	0	0	0	0	0	0	0	0	0	0	0	0	0	0	0	0	0	0	0	0	0	0	0	0	0	0	0	0	0	0
030619	15:11:17	15:16:06	288067	5.0.10.0	4_exp_EVA_AMP_AWA_CON	146	Rpleas_acq	Same	Rpleas	Bmasked	CS_B	1pleas	distractor1	EVAbeforeCON	acq_new_unple_masked	acq1_masked	1	18	0	0	300	300	0	0	754	46	0	1	0	0	0	1	blank2r.bmp	0	1	+	0	8	C4r.bmp	492	1	blank2r.bmp	786	8	C4r.bmp	786	1	blank2r.bmp	866	1	schroff	866	0	0	0	0	0	0	0	0	0	0	0	0	0	0	0	0	0	0	0	0	0	0	0	0	0	0	0	0	0	0	0	0	0
030619	15:11:17	15:16:09	290453	5.0.10.0	4_exp_EVA_AMP_AWA_CON	146	Rpleas_acq	Same	Rpleas	Bmasked	CS_B	1pleas	distractor1	EVAbeforeCON	acq_new_unple_masked	acq1_masked	1	19	0	0	300	300	0	0	901	46	0	1	0	0	0	1	blank2r.bmp	0	1	+	0	7	C3r.bmp	492	1	blank2r.bmp	786	4	B4r.bmp	786	1	blank2r.bmp	866	4	tyrannisch	866	0	0	0	0	0	0	0	0	0	0	0	0	0	0	0	0	0	0	0	0	0	0	0	0	0	0	0	0	0	0	0	0	0
030619	15:11:17	15:16:11	292719	5.0.10.0	4_exp_EVA_AMP_AWA_CON	146	Rpleas_acq	Same	Rpleas	Bmasked	CS_B	1pleas	distractor1	EVAbeforeCON	acq_new_unple_masked	acq1_masked	1	20	0	0	300	300	0	0	771	46	0	1	0	0	0	1	blank2r.bmp	0	1	+	0	2	B2r.bmp	492	1	blank2r.bmp	786	6	C2r.bmp	786	1	blank2r.bmp	866	3	leiden	866	0	0	0	0	0	0	0	0	0	0	0	0	0	0	0	0	0	0	0	0	0	0	0	0	0	0	0	0	0	0	0	0	0
030619	15:11:17	15:16:13	294944	5.0.10.0	4_exp_EVA_AMP_AWA_CON	146	Rpleas_acq	Same	Rpleas	Bmasked	CS_B	1pleas	distractor1	EVAbeforeCON	acq_US_unple_masked	acq1_masked	1	21	0	0	300	300	0	0	739	46	0	1	0	0	0	1	blank2r.bmp	0	1	+	0	4	B4r.bmp	492	1	blank2r.bmp	786	1	GKQX	786	1	blank2r.bmp	866	2	faul	866	0	0	0	0	0	0	0	0	0	0	0	0	0	0	0	0	0	0	0	0	0	0	0	0	0	0	0	0	0	0	0	0	0
030619	15:11:17	15:16:15	297197	5.0.10.0	4_exp_EVA_AMP_AWA_CON	146	Rpleas_acq	Same	Rpleas	Bmasked	CS_B	1pleas	distractor1	EVAbeforeCON	acq_new_pleas_masked	acq1_masked	1	22	0	0	300	300	0	0	769	50	0	1	0	0	0	1	blank2r.bmp	0	1	+	0	6	C2r.bmp	492	1	blank2r.bmp	786	3	B3r.bmp	786	1	blank2r.bmp	866	5	spielen	866	0	0	0	0	0	0	0	0	0	0	0	0	0	0	0	0	0	0	0	0	0	0	0	0	0	0	0	0	0	0	0	0	0
030619	15:11:17	15:16:18	299463	5.0.10.0	4_exp_EVA_AMP_AWA_CON	146	Rpleas_acq	Same	Rpleas	Bmasked	CS_B	1pleas	distractor1	EVAbeforeCON	acq_new_pleas_masked	acq1_masked	1	23	0	0	300	300	0	0	792	50	0	1	0	0	0	1	blank2r.bmp	0	1	+	0	5	C1r.bmp	492	1	blank2r.bmp	786	7	C3r.bmp	786	1	blank2r.bmp	866	1	schlau	866	0	0	0	0	0	0	0	0	0	0	0	0	0	0	0	0	0	0	0	0	0	0	0	0	0	0	0	0	0	0	0	0	0
030619	15:11:17	15:16:20	301608	5.0.10.0	4_exp_EVA_AMP_AWA_CON	146	Rpleas_acq	Same	Rpleas	Bmasked	CS_B	1pleas	distractor1	EVAbeforeCON	acq_US_pleas_masked	acq1_masked	1	24	0	0	300	300	0	0	671	50	0	1	0	0	0	1	blank2r.bmp	0	1	+	0	3	B3r.bmp	492	1	blank2r.bmp	786	1	BMVZ	786	1	blank2r.bmp	866	6	freundlich	866	0	0	0	0	0	0	0	0	0	0	0	0	0	0	0	0	0	0	0	0	0	0	0	0	0	0	0	0	0	0	0	0	0
030619	15:11:17	15:16:22	303714	5.0.10.0	4_exp_EVA_AMP_AWA_CON	146	Rpleas_acq	Same	Rpleas	Bmasked	CS_B	1pleas	distractor1	EVAbeforeCON	acq_US_pleas_masked	acq1_masked	1	25	0	0	300	300	0	0	616	50	0	1	0	0	0	1	blank2r.bmp	0	1	+	0	6	C2r.bmp	492	1	blank2r.bmp	786	1	BMVZ	786	1	blank2r.bmp	866	3	schön	866	0	0	0	0	0	0	0	0	0	0	0	0	0	0	0	0	0	0	0	0	0	0	0	0	0	0	0	0	0	0	0	0	0
030619	15:11:17	15:16:24	305833	5.0.10.0	4_exp_EVA_AMP_AWA_CON	146	Rpleas_acq	Same	Rpleas	Bmasked	CS_B	1pleas	distractor1	EVAbeforeCON	acq_new_pleas_masked	acq1_masked	1	26	0	0	300	300	0	0	631	50	0	1	0	0	0	1	blank2r.bmp	0	1	+	0	3	B3r.bmp	492	1	blank2r.bmp	786	5	C1r.bmp	786	1	blank2r.bmp	866	4	tolerant	866	0	0	0	0	0	0	0	0	0	0	0	0	0	0	0	0	0	0	0	0	0	0	0	0	0	0	0	0	0	0	0	0	0
030619	15:11:17	15:16:26	307886	5.0.10.0	4_exp_EVA_AMP_AWA_CON	146	Rpleas_acq	Same	Rpleas	Bmasked	CS_B	1pleas	distractor1	EVAbeforeCON	acq_US_pleas_masked	acq1_masked	1	27	0	0	300	300	0	0	564	50	0	1	0	0	0	1	blank2r.bmp	0	1	+	0	7	C3r.bmp	492	1	blank2r.bmp	786	1	BMVZ	786	1	blank2r.bmp	866	4	treu	866	0	0	0	0	0	0	0	0	0	0	0	0	0	0	0	0	0	0	0	0	0	0	0	0	0	0	0	0	0	0	0	0	0
030619	15:11:17	15:16:28	310098	5.0.10.0	4_exp_EVA_AMP_AWA_CON	146	Rpleas_acq	Same	Rpleas	Bmasked	CS_B	1pleas	distractor1	EVAbeforeCON	acq_new_unple_masked	acq1_masked	1	28	0	0	300	300	0	0	743	46	0	1	0	0	0	1	blank2r.bmp	0	1	+	0	2	B2r.bmp	492	1	blank2r.bmp	786	1	B1r.bmp	786	1	blank2r.bmp	866	1	schroff	866	0	0	0	0	0	0	0	0	0	0	0	0	0	0	0	0	0	0	0	0	0	0	0	0	0	0	0	0	0	0	0	0	0
030619	15:11:17	15:16:31	312417	5.0.10.0	4_exp_EVA_AMP_AWA_CON	146	Rpleas_acq	Same	Rpleas	Bmasked	CS_B	1pleas	distractor1	EVAbeforeCON	acq_US_pleas_masked	acq1_masked	1	29	0	0	300	300	0	0	848	50	0	1	0	0	0	1	blank2r.bmp	0	1	+	0	1	B1r.bmp	492	1	blank2r.bmp	786	1	BMVZ	786	1	blank2r.bmp	866	2	fair	866	0	0	0	0	0	0	0	0	0	0	0	0	0	0	0	0	0	0	0	0	0	0	0	0	0	0	0	0	0	0	0	0	0
030619	15:11:17	15:16:33	314830	5.0.10.0	4_exp_EVA_AMP_AWA_CON	146	Rpleas_acq	Same	Rpleas	Bmasked	CS_B	1pleas	distractor1	EVAbeforeCON	acq_US_unple_masked	acq1_masked	1	30	0	0	300	300	0	0	918	46	0	1	0	0	0	1	blank2r.bmp	0	1	+	0	4	B4r.bmp	492	1	blank2r.bmp	786	1	GKQX	786	1	blank2r.bmp	866	5	eitel	866	0	0	0	0	0	0	0	0	0	0	0	0	0	0	0	0	0	0	0	0	0	0	0	0	0	0	0	0	0	0	0	0	0
030619	15:11:17	15:16:35	317069	5.0.10.0	4_exp_EVA_AMP_AWA_CON	146	Rpleas_acq	Same	Rpleas	Bmasked	CS_B	1pleas	distractor1	EVAbeforeCON	acq_new_unple_masked	acq1_masked	1	31	0	0	300	300	0	0	762	46	0	1	0	0	0	1	blank2r.bmp	0	1	+	0	5	C1r.bmp	492	1	blank2r.bmp	786	2	B2r.bmp	786	1	blank2r.bmp	866	4	tyrannisch	866	0	0	0	0	0	0	0	0	0	0	0	0	0	0	0	0	0	0	0	0	0	0	0	0	0	0	0	0	0	0	0	0	0
030619	15:11:17	15:16:37	319281	5.0.10.0	4_exp_EVA_AMP_AWA_CON	146	Rpleas_acq	Same	Rpleas	Bmasked	CS_B	1pleas	distractor1	EVAbeforeCON	acq_new_pleas_masked	acq1_masked	1	32	0	0	300	300	0	0	724	50	0	1	0	0	0	1	blank2r.bmp	0	1	+	0	8	C4r.bmp	492	1	blank2r.bmp	786	8	C4r.bmp	786	1	blank2r.bmp	866	3	lachen	866	0	0	0	0	0	0	0	0	0	0	0	0	0	0	0	0	0	0	0	0	0	0	0	0	0	0	0	0	0	0	0	0	0
030619	15:11:17	15:16:40	321480	5.0.10.0	4_exp_EVA_AMP_AWA_CON	146	Rpleas_acq	Same	Rpleas	Bmasked	CS_B	1pleas	distractor1	EVAbeforeCON	acq_US_unple_masked	acq1_masked	1	33	0	0	300	300	0	0	716	46	0	1	0	0	0	1	blank2r.bmp	0	1	+	0	3	B3r.bmp	492	1	blank2r.bmp	786	1	GKQX	786	1	blank2r.bmp	866	4	tot	866	0	0	0	0	0	0	0	0	0	0	0	0	0	0	0	0	0	0	0	0	0	0	0	0	0	0	0	0	0	0	0	0	0
030619	15:11:17	15:16:42	323866	5.0.10.0	4_exp_EVA_AMP_AWA_CON	146	Rpleas_acq	Same	Rpleas	Bmasked	CS_B	1pleas	distractor1	EVAbeforeCON	acq_new_unple_masked	acq1_masked	1	34	0	0	300	300	0	0	902	46	0	1	0	0	0	1	blank2r.bmp	0	1	+	0	6	C2r.bmp	492	1	blank2r.bmp	786	2	B2r.bmp	786	1	blank2r.bmp	866	6	hindern	866	0	0	0	0	0	0	0	0	0	0	0	0	0	0	0	0	0	0	0	0	0	0	0	0	0	0	0	0	0	0	0	0	0
030619	15:11:17	15:16:44	326025	5.0.10.0	4_exp_EVA_AMP_AWA_CON	146	Rpleas_acq	Same	Rpleas	Bmasked	CS_B	1pleas	distractor1	EVAbeforeCON	acq_new_pleas_masked	acq1_masked	1	35	0	0	300	300	0	0	675	50	0	1	0	0	0	1	blank2r.bmp	0	1	+	0	4	B4r.bmp	492	1	blank2r.bmp	786	1	B1r.bmp	786	1	blank2r.bmp	866	5	spielen	866	0	0	0	0	0	0	0	0	0	0	0	0	0	0	0	0	0	0	0	0	0	0	0	0	0	0	0	0	0	0	0	0	0
030619	15:11:17	15:16:46	328357	5.0.10.0	4_exp_EVA_AMP_AWA_CON	146	Rpleas_acq	Same	Rpleas	Bmasked	CS_B	1pleas	distractor1	EVAbeforeCON	acq_US_unple_masked	acq1_masked	1	36	0	0	300	300	0	0	857	46	0	1	0	0	0	1	blank2r.bmp	0	1	+	0	5	C1r.bmp	492	1	blank2r.bmp	786	1	GKQX	786	1	blank2r.bmp	866	1	lasch	866	0	0	0	0	0	0	0	0	0	0	0	0	0	0	0	0	0	0	0	0	0	0	0	0	0	0	0	0	0	0	0	0	0
030619	15:11:17	15:17:55	397089	5.0.10.0	4_exp_EVA_AMP_AWA_CON	146	Rpleas_acq	Same	Rpleas	Bmasked	CS_B	1pleas	distractor1	EVAbeforeCON	acq_new_pleas_masked	acq2_masked	2	1	480	0	300	300	0	0	7497	46	0	0	0	0	0	1	blank2r.bmp	0	1	+	0	7	C3r.bmp	492	1	blank2r.bmp	786	4	B4r.bmp	786	1	blank2r.bmp	866	2	retten	866	1	FEHLER	8703	1	!	1319	1	!	-1	0	0	0	0	0	0	0	0	0	0	0	0	0	0	0	0	0	0	0	0	0	0	0	0
030619	15:11:17	15:17:57	399262	5.0.10.0	4_exp_EVA_AMP_AWA_CON	146	Rpleas_acq	Same	Rpleas	Bmasked	CS_B	1pleas	distractor1	EVAbeforeCON	acq_US_unple_masked	acq2_masked	2	2	480	0	300	300	0	0	613	46	0	1	0	0	0	1	blank2r.bmp	0	1	+	0	2	B2r.bmp	492	1	blank2r.bmp	786	1	GKQX	786	1	blank2r.bmp	866	2	faul	866	1	!	1319	1	!	-1	0	0	0	0	0	0	0	0	0	0	0	0	0	0	0	0	0	0	0	0	0	0	0	0	0	0	0
030619	15:11:17	15:18:00	401661	5.0.10.0	4_exp_EVA_AMP_AWA_CON	146	Rpleas_acq	Same	Rpleas	Bmasked	CS_B	1pleas	distractor1	EVAbeforeCON	acq_US_pleas_masked	acq2_masked	2	3	480	0	300	300	0	0	617	50	0	1	0	0	0	1	blank2r.bmp	0	1	+	0	8	C4r.bmp	492	1	blank2r.bmp	786	1	BMVZ	786	1	blank2r.bmp	866	5	ehrlich	866	1	!	1319	1	!	-1	0	0	0	0	0	0	0	0	0	0	0	0	0	0	0	0	0	0	0	0	0	0	0	0	0	0	0
030619	15:11:17	15:18:02	404100	5.0.10.0	4_exp_EVA_AMP_AWA_CON	146	Rpleas_acq	Same	Rpleas	Bmasked	CS_B	1pleas	distractor1	EVAbeforeCON	acq_US_pleas_masked	acq2_masked	2	4	480	0	300	300	0	0	661	50	0	1	0	0	0	1	blank2r.bmp	0	1	+	0	1	B1r.bmp	492	1	blank2r.bmp	786	1	BMVZ	786	1	blank2r.bmp	866	6	freundlich	866	1	!	1319	1	!	-1	0	0	0	0	0	0	0	0	0	0	0	0	0	0	0	0	0	0	0	0	0	0	0	0	0	0	0
030619	15:11:17	15:18:05	406445	5.0.10.0	4_exp_EVA_AMP_AWA_CON	146	Rpleas_acq	Same	Rpleas	Bmasked	CS_B	1pleas	distractor1	EVAbeforeCON	acq_new_pleas_masked	acq2_masked	2	5	480	0	300	300	0	0	559	50	0	1	0	0	0	1	blank2r.bmp	0	1	+	0	8	C4r.bmp	492	1	blank2r.bmp	786	7	C3r.bmp	786	1	blank2r.bmp	866	6	helfen	866	1	!	1319	1	!	-1	0	0	0	0	0	0	0	0	0	0	0	0	0	0	0	0	0	0	0	0	0	0	0	0	0	0	0
030619	15:11:17	15:18:07	409031	5.0.10.0	4_exp_EVA_AMP_AWA_CON	146	Rpleas_acq	Same	Rpleas	Bmasked	CS_B	1pleas	distractor1	EVAbeforeCON	acq_US_unple_masked	acq2_masked	2	6	480	0	300	300	0	0	580	50	0	0	0	0	0	1	blank2r.bmp	0	1	+	0	4	B4r.bmp	492	1	blank2r.bmp	786	1	GKQX	786	1	blank2r.bmp	866	6	fanatisch	866	1	FEHLER	1785	1	!	1319	1	!	-1	0	0	0	0	0	0	0	0	0	0	0	0	0	0	0	0	0	0	0	0	0	0	0	0
030619	15:11:17	15:18:09	411163	5.0.10.0	4_exp_EVA_AMP_AWA_CON	146	Rpleas_acq	Same	Rpleas	Bmasked	CS_B	1pleas	distractor1	EVAbeforeCON	acq_new_pleas_masked	acq2_masked	2	7	480	0	300	300	0	0	581	50	0	1	0	0	0	1	blank2r.bmp	0	1	+	0	3	B3r.bmp	492	1	blank2r.bmp	786	5	C1r.bmp	786	1	blank2r.bmp	866	1	schlau	866	1	!	1319	1	!	-1	0	0	0	0	0	0	0	0	0	0	0	0	0	0	0	0	0	0	0	0	0	0	0	0	0	0	0
030619	15:11:17	15:18:12	413682	5.0.10.0	4_exp_EVA_AMP_AWA_CON	146	Rpleas_acq	Same	Rpleas	Bmasked	CS_B	1pleas	distractor1	EVAbeforeCON	acq_US_unple_masked	acq2_masked	2	8	480	1	300	300	0	0	495	50	0	0	0	0	0	1	blank2r.bmp	0	1	+	0	7	C3r.bmp	492	1	blank2r.bmp	786	1	GKQX	786	1	blank2r.bmp	866	3	schlecht	866	1	FEHLER	1719	1	!	1319	1	!	1399	0	0	0	0	0	0	0	0	0	0	0	0	0	0	0	0	0	0	0	0	0	0	0	0
030619	15:11:17	15:18:14	416028	5.0.10.0	4_exp_EVA_AMP_AWA_CON	146	Rpleas_acq	Same	Rpleas	Bmasked	CS_B	1pleas	distractor1	EVAbeforeCON	acq_new_unple_masked	acq2_masked	2	9	480	0	300	300	0	0	559	50	0	0	0	0	0	1	blank2r.bmp	0	1	+	0	5	C1r.bmp	492	1	blank2r.bmp	786	8	C4r.bmp	786	1	blank2r.bmp	866	3	leiden	866	1	FEHLER	1772	1	!	1319	1	!	-1	0	0	0	0	0	0	0	0	0	0	0	0	0	0	0	0	0	0	0	0	0	0	0	0
030619	15:11:17	15:18:16	418160	5.0.10.0	4_exp_EVA_AMP_AWA_CON	146	Rpleas_acq	Same	Rpleas	Bmasked	CS_B	1pleas	distractor1	EVAbeforeCON	acq_new_unple_masked	acq2_masked	2	10	480	0	300	300	0	0	577	46	0	1	0	0	0	1	blank2r.bmp	0	1	+	0	6	C2r.bmp	492	1	blank2r.bmp	786	3	B3r.bmp	786	1	blank2r.bmp	866	2	rächen	866	1	!	1319	1	!	-1	0	0	0	0	0	0	0	0	0	0	0	0	0	0	0	0	0	0	0	0	0	0	0	0	0	0	0
030619	15:11:17	15:18:19	420599	5.0.10.0	4_exp_EVA_AMP_AWA_CON	146	Rpleas_acq	Same	Rpleas	Bmasked	CS_B	1pleas	distractor1	EVAbeforeCON	acq_US_pleas_masked	acq2_masked	2	11	480	0	300	300	0	0	655	50	0	1	0	0	0	1	blank2r.bmp	0	1	+	0	2	B2r.bmp	492	1	blank2r.bmp	786	1	BMVZ	786	1	blank2r.bmp	866	1	loyal	866	1	!	1319	1	!	-1	0	0	0	0	0	0	0	0	0	0	0	0	0	0	0	0	0	0	0	0	0	0	0	0	0	0	0
030619	15:11:17	15:18:21	422972	5.0.10.0	4_exp_EVA_AMP_AWA_CON	146	Rpleas_acq	Same	Rpleas	Bmasked	CS_B	1pleas	distractor1	EVAbeforeCON	acq_new_unple_masked	acq2_masked	2	12	480	0	300	300	0	0	586	46	0	1	0	0	0	1	blank2r.bmp	0	1	+	0	1	B1r.bmp	492	1	blank2r.bmp	786	6	C2r.bmp	786	1	blank2r.bmp	866	5	strafen	866	1	!	1319	1	!	-1	0	0	0	0	0	0	0	0	0	0	0	0	0	0	0	0	0	0	0	0	0	0	0	0	0	0	0
030619	15:11:17	15:18:24	425477	5.0.10.0	4_exp_EVA_AMP_AWA_CON	146	Rpleas_acq	Same	Rpleas	Bmasked	CS_B	1pleas	distractor1	EVAbeforeCON	acq_new_unple_masked	acq2_masked	2	13	480	0	300	300	0	0	730	46	0	1	0	0	0	1	blank2r.bmp	0	1	+	0	8	C4r.bmp	492	1	blank2r.bmp	786	5	C1r.bmp	786	1	blank2r.bmp	866	4	tyrannisch	866	1	!	1319	1	!	-1	0	0	0	0	0	0	0	0	0	0	0	0	0	0	0	0	0	0	0	0	0	0	0	0	0	0	0
030619	15:11:17	15:18:26	428050	5.0.10.0	4_exp_EVA_AMP_AWA_CON	146	Rpleas_acq	Same	Rpleas	Bmasked	CS_B	1pleas	distractor1	EVAbeforeCON	acq_new_pleas_masked	acq2_masked	2	14	480	0	300	300	0	0	562	46	0	0	0	0	0	1	blank2r.bmp	0	1	+	0	1	B1r.bmp	492	1	blank2r.bmp	786	7	C3r.bmp	786	1	blank2r.bmp	866	1	schlau	866	1	FEHLER	1772	1	!	1319	1	!	-1	0	0	0	0	0	0	0	0	0	0	0	0	0	0	0	0	0	0	0	0	0	0	0	0
030619	15:11:17	15:18:28	430249	5.0.10.0	4_exp_EVA_AMP_AWA_CON	146	Rpleas_acq	Same	Rpleas	Bmasked	CS_B	1pleas	distractor1	EVAbeforeCON	acq_US_pleas_masked	acq2_masked	2	15	480	0	300	300	0	0	647	50	0	1	0	0	0	1	blank2r.bmp	0	1	+	0	4	B4r.bmp	492	1	blank2r.bmp	786	1	BMVZ	786	1	blank2r.bmp	866	5	ehrlich	866	1	!	1319	1	!	-1	0	0	0	0	0	0	0	0	0	0	0	0	0	0	0	0	0	0	0	0	0	0	0	0	0	0	0
030619	15:11:17	15:18:31	432834	5.0.10.0	4_exp_EVA_AMP_AWA_CON	146	Rpleas_acq	Same	Rpleas	Bmasked	CS_B	1pleas	distractor1	EVAbeforeCON	acq_new_unple_masked	acq2_masked	2	16	480	0	300	300	0	0	790	46	0	1	0	0	0	1	blank2r.bmp	0	1	+	0	3	B3r.bmp	492	1	blank2r.bmp	786	1	B1r.bmp	786	1	blank2r.bmp	866	6	hindern	866	1	!	1319	1	!	-1	0	0	0	0	0	0	0	0	0	0	0	0	0	0	0	0	0	0	0	0	0	0	0	0	0	0	0
030619	15:11:17	15:18:33	435313	5.0.10.0	4_exp_EVA_AMP_AWA_CON	146	Rpleas_acq	Same	Rpleas	Bmasked	CS_B	1pleas	distractor1	EVAbeforeCON	acq_new_pleas_masked	acq2_masked	2	17	480	0	300	300	0	0	703	50	0	1	0	0	0	1	blank2r.bmp	0	1	+	0	5	C1r.bmp	492	1	blank2r.bmp	786	3	B3r.bmp	786	1	blank2r.bmp	866	2	retten	866	1	!	1319	1	!	-1	0	0	0	0	0	0	0	0	0	0	0	0	0	0	0	0	0	0	0	0	0	0	0	0	0	0	0
030619	15:11:17	15:18:36	437832	5.0.10.0	4_exp_EVA_AMP_AWA_CON	146	Rpleas_acq	Same	Rpleas	Bmasked	CS_B	1pleas	distractor1	EVAbeforeCON	acq_new_unple_masked	acq2_masked	2	18	480	0	300	300	0	0	733	46	0	1	0	0	0	1	blank2r.bmp	0	1	+	0	6	C2r.bmp	492	1	blank2r.bmp	786	2	B2r.bmp	786	1	blank2r.bmp	866	5	strafen	866	1	!	1319	1	!	-1	0	0	0	0	0	0	0	0	0	0	0	0	0	0	0	0	0	0	0	0	0	0	0	0	0	0	0
030619	15:11:17	15:18:38	440138	5.0.10.0	4_exp_EVA_AMP_AWA_CON	146	Rpleas_acq	Same	Rpleas	Bmasked	CS_B	1pleas	distractor1	EVAbeforeCON	acq_US_pleas_masked	acq2_masked	2	19	480	1	300	300	0	0	498	50	0	1	0	0	0	1	blank2r.bmp	0	1	+	0	2	B2r.bmp	492	1	blank2r.bmp	786	1	BMVZ	786	1	blank2r.bmp	866	2	fair	866	1	!	1319	1	!	1399	0	0	0	0	0	0	0	0	0	0	0	0	0	0	0	0	0	0	0	0	0	0	0	0	0	0	0
030619	15:11:17	15:18:41	442564	5.0.10.0	4_exp_EVA_AMP_AWA_CON	146	Rpleas_acq	Same	Rpleas	Bmasked	CS_B	1pleas	distractor1	EVAbeforeCON	acq_US_pleas_masked	acq2_masked	2	20	480	0	300	300	0	0	645	50	0	1	0	0	0	1	blank2r.bmp	0	1	+	0	7	C3r.bmp	492	1	blank2r.bmp	786	1	BMVZ	786	1	blank2r.bmp	866	6	freundlich	866	1	!	1319	1	!	-1	0	0	0	0	0	0	0	0	0	0	0	0	0	0	0	0	0	0	0	0	0	0	0	0	0	0	0
030619	15:11:17	15:18:43	444949	5.0.10.0	4_exp_EVA_AMP_AWA_CON	146	Rpleas_acq	Same	Rpleas	Bmasked	CS_B	1pleas	distractor1	EVAbeforeCON	acq_new_pleas_masked	acq2_masked	2	21	480	0	300	300	0	0	599	50	0	1	0	0	0	1	blank2r.bmp	0	1	+	0	4	B4r.bmp	492	1	blank2r.bmp	786	8	C4r.bmp	786	1	blank2r.bmp	866	6	helfen	866	1	!	1319	1	!	-1	0	0	0	0	0	0	0	0	0	0	0	0	0	0	0	0	0	0	0	0	0	0	0	0	0	0	0
030619	15:11:17	15:18:46	447415	5.0.10.0	4_exp_EVA_AMP_AWA_CON	146	Rpleas_acq	Same	Rpleas	Bmasked	CS_B	1pleas	distractor1	EVAbeforeCON	acq_US_unple_masked	acq2_masked	2	22	480	0	300	300	0	0	689	46	0	1	0	0	0	1	blank2r.bmp	0	1	+	0	3	B3r.bmp	492	1	blank2r.bmp	786	1	GKQX	786	1	blank2r.bmp	866	2	faul	866	1	!	1319	1	!	-1	0	0	0	0	0	0	0	0	0	0	0	0	0	0	0	0	0	0	0	0	0	0	0	0	0	0	0
030619	15:11:17	15:18:48	450001	5.0.10.0	4_exp_EVA_AMP_AWA_CON	146	Rpleas_acq	Same	Rpleas	Bmasked	CS_B	1pleas	distractor1	EVAbeforeCON	acq_US_unple_masked	acq2_masked	2	23	480	0	300	300	0	0	584	50	0	0	0	0	0	1	blank2r.bmp	0	1	+	0	2	B2r.bmp	492	1	blank2r.bmp	786	1	GKQX	786	1	blank2r.bmp	866	6	fanatisch	866	1	FEHLER	1785	1	!	1319	1	!	-1	0	0	0	0	0	0	0	0	0	0	0	0	0	0	0	0	0	0	0	0	0	0	0	0
030619	15:11:17	15:18:50	452160	5.0.10.0	4_exp_EVA_AMP_AWA_CON	146	Rpleas_acq	Same	Rpleas	Bmasked	CS_B	1pleas	distractor1	EVAbeforeCON	acq_US_unple_masked	acq2_masked	2	24	480	0	300	300	0	0	601	46	0	1	0	0	0	1	blank2r.bmp	0	1	+	0	8	C4r.bmp	492	1	blank2r.bmp	786	1	GKQX	786	1	blank2r.bmp	866	4	tot	866	1	!	1319	1	!	-1	0	0	0	0	0	0	0	0	0	0	0	0	0	0	0	0	0	0	0	0	0	0	0	0	0	0	0
030619	15:11:17	15:18:53	454559	5.0.10.0	4_exp_EVA_AMP_AWA_CON	146	Rpleas_acq	Same	Rpleas	Bmasked	CS_B	1pleas	distractor1	EVAbeforeCON	acq_new_pleas_masked	acq2_masked	2	25	480	0	300	300	0	0	612	50	0	1	0	0	0	1	blank2r.bmp	0	1	+	0	6	C2r.bmp	492	1	blank2r.bmp	786	4	B4r.bmp	786	1	blank2r.bmp	866	3	lachen	866	1	!	1319	1	!	-1	0	0	0	0	0	0	0	0	0	0	0	0	0	0	0	0	0	0	0	0	0	0	0	0	0	0	0
030619	15:11:17	15:18:55	456958	5.0.10.0	4_exp_EVA_AMP_AWA_CON	146	Rpleas_acq	Same	Rpleas	Bmasked	CS_B	1pleas	distractor1	EVAbeforeCON	acq_new_unple_masked	acq2_masked	2	26	480	0	300	300	0	0	615	46	0	1	0	0	0	1	blank2r.bmp	0	1	+	0	7	C3r.bmp	492	1	blank2r.bmp	786	6	C2r.bmp	786	1	blank2r.bmp	866	1	schroff	866	1	!	1319	1	!	-1	0	0	0	0	0	0	0	0	0	0	0	0	0	0	0	0	0	0	0	0	0	0	0	0	0	0	0
030619	15:11:17	15:18:58	459637	5.0.10.0	4_exp_EVA_AMP_AWA_CON	146	Rpleas_acq	Same	Rpleas	Bmasked	CS_B	1pleas	distractor1	EVAbeforeCON	acq_US_unple_masked	acq2_masked	2	27	480	0	300	300	0	0	670	50	0	0	0	0	0	1	blank2r.bmp	0	1	+	0	5	C1r.bmp	492	1	blank2r.bmp	786	1	GKQX	786	1	blank2r.bmp	866	3	schlecht	866	1	FEHLER	1879	1	!	1319	1	!	-1	0	0	0	0	0	0	0	0	0	0	0	0	0	0	0	0	0	0	0	0	0	0	0	0
030619	15:11:17	15:19:00	461862	5.0.10.0	4_exp_EVA_AMP_AWA_CON	146	Rpleas_acq	Same	Rpleas	Bmasked	CS_B	1pleas	distractor1	EVAbeforeCON	acq_US_pleas_masked	acq2_masked	2	28	480	0	300	300	0	0	666	50	0	1	0	0	0	1	blank2r.bmp	0	1	+	0	1	B1r.bmp	492	1	blank2r.bmp	786	1	BMVZ	786	1	blank2r.bmp	866	3	schön	866	1	!	1319	1	!	-1	0	0	0	0	0	0	0	0	0	0	0	0	0	0	0	0	0	0	0	0	0	0	0	0	0	0	0
030619	15:11:17	15:19:03	464381	5.0.10.0	4_exp_EVA_AMP_AWA_CON	146	Rpleas_acq	Same	Rpleas	Bmasked	CS_B	1pleas	distractor1	EVAbeforeCON	acq_US_unple_masked	acq2_masked	2	29	480	0	300	300	0	0	742	46	0	1	0	0	0	1	blank2r.bmp	0	1	+	0	3	B3r.bmp	492	1	blank2r.bmp	786	1	GKQX	786	1	blank2r.bmp	866	5	eitel	866	1	!	1319	1	!	-1	0	0	0	0	0	0	0	0	0	0	0	0	0	0	0	0	0	0	0	0	0	0	0	0	0	0	0
030619	15:11:17	15:19:05	467180	5.0.10.0	4_exp_EVA_AMP_AWA_CON	146	Rpleas_acq	Same	Rpleas	Bmasked	CS_B	1pleas	distractor1	EVAbeforeCON	acq_new_unple_masked	acq2_masked	2	30	480	0	300	300	0	0	1008	46	0	1	0	0	0	1	blank2r.bmp	0	1	+	0	5	C1r.bmp	492	1	blank2r.bmp	786	2	B2r.bmp	786	1	blank2r.bmp	866	2	rächen	866	1	!	1319	1	!	-1	0	0	0	0	0	0	0	0	0	0	0	0	0	0	0	0	0	0	0	0	0	0	0	0	0	0	0
030619	15:11:17	15:19:08	469606	5.0.10.0	4_exp_EVA_AMP_AWA_CON	146	Rpleas_acq	Same	Rpleas	Bmasked	CS_B	1pleas	distractor1	EVAbeforeCON	acq_new_unple_masked	acq2_masked	2	31	480	0	300	300	0	0	644	46	0	1	0	0	0	1	blank2r.bmp	0	1	+	0	4	B4r.bmp	492	1	blank2r.bmp	786	6	C2r.bmp	786	1	blank2r.bmp	866	3	leiden	866	1	!	1319	1	!	-1	0	0	0	0	0	0	0	0	0	0	0	0	0	0	0	0	0	0	0	0	0	0	0	0	0	0	0
030619	15:11:17	15:19:10	472138	5.0.10.0	4_exp_EVA_AMP_AWA_CON	146	Rpleas_acq	Same	Rpleas	Bmasked	CS_B	1pleas	distractor1	EVAbeforeCON	acq_new_pleas_masked	acq2_masked	2	32	480	0	300	300	0	0	744	50	0	1	0	0	0	1	blank2r.bmp	0	1	+	0	7	C3r.bmp	492	1	blank2r.bmp	786	4	B4r.bmp	786	1	blank2r.bmp	866	4	tolerant	866	1	!	1319	1	!	-1	0	0	0	0	0	0	0	0	0	0	0	0	0	0	0	0	0	0	0	0	0	0	0	0	0	0	0
030619	15:11:17	15:19:13	474631	5.0.10.0	4_exp_EVA_AMP_AWA_CON	146	Rpleas_acq	Same	Rpleas	Bmasked	CS_B	1pleas	distractor1	EVAbeforeCON	acq_US_pleas_masked	acq2_masked	2	33	480	0	300	300	0	0	712	50	0	1	0	0	0	1	blank2r.bmp	0	1	+	0	6	C2r.bmp	492	1	blank2r.bmp	786	1	BMVZ	786	1	blank2r.bmp	866	4	treu	866	1	!	1319	1	!	-1	0	0	0	0	0	0	0	0	0	0	0	0	0	0	0	0	0	0	0	0	0	0	0	0	0	0	0
030619	15:11:17	15:19:15	477030	5.0.10.0	4_exp_EVA_AMP_AWA_CON	146	Rpleas_acq	Same	Rpleas	Bmasked	CS_B	1pleas	distractor1	EVAbeforeCON	acq_US_unple_masked	acq2_masked	2	34	480	0	300	300	0	0	608	46	0	1	0	0	0	1	blank2r.bmp	0	1	+	0	1	B1r.bmp	492	1	blank2r.bmp	786	1	GKQX	786	1	blank2r.bmp	866	1	lasch	866	1	!	1319	1	!	-1	0	0	0	0	0	0	0	0	0	0	0	0	0	0	0	0	0	0	0	0	0	0	0	0	0	0	0
030619	15:11:17	15:19:18	479389	5.0.10.0	4_exp_EVA_AMP_AWA_CON	146	Rpleas_acq	Same	Rpleas	Bmasked	CS_B	1pleas	distractor1	EVAbeforeCON	acq_new_pleas_masked	acq2_masked	2	35	480	0	300	300	0	0	573	50	0	1	0	0	0	1	blank2r.bmp	0	1	+	0	2	B2r.bmp	492	1	blank2r.bmp	786	1	B1r.bmp	786	1	blank2r.bmp	866	5	spielen	866	1	!	1319	1	!	-1	0	0	0	0	0	0	0	0	0	0	0	0	0	0	0	0	0	0	0	0	0	0	0	0	0	0	0
030619	15:11:17	15:19:20	481814	5.0.10.0	4_exp_EVA_AMP_AWA_CON	146	Rpleas_acq	Same	Rpleas	Bmasked	CS_B	1pleas	distractor1	EVAbeforeCON	acq_US_pleas_masked	acq2_masked	2	36	480	0	300	300	0	0	632	50	0	1	0	0	0	1	blank2r.bmp	0	1	+	0	8	C4r.bmp	492	1	blank2r.bmp	786	1	BMVZ	786	1	blank2r.bmp	866	1	loyal	866	1	!	1319	1	!	-1	0	0	0	0	0	0	0	0	0	0	0	0	0	0	0	0	0	0	0	0	0	0	0	0	0	0	0
030619	15:11:17	15:19:41	502686	5.0.10.0	4_exp_EVA_AMP_AWA_CON	146	Rpleas_acq	Same	Rpleas	Bmasked	CS_B	1pleas	distractor1	EVAbeforeCON	acq_US_unple_masked	acq3_masked	3	1	453	0	300	300	0	0	532	46	0	1	0	0	0	1	blank2r.bmp	0	1	+	0	8	C4r.bmp	492	1	blank2r.bmp	786	1	GKQX	786	1	blank2r.bmp	866	4	tot	866	1	!	1292	1	!	-1	0	0	0	0	0	0	0	0	0	0	0	0	0	0	0	0	0	0	0	0	0	0	0	0	0	0	0
030619	15:11:17	15:19:43	504911	5.0.10.0	4_exp_EVA_AMP_AWA_CON	146	Rpleas_acq	Same	Rpleas	Bmasked	CS_B	1pleas	distractor1	EVAbeforeCON	acq_US_pleas_masked	acq3_masked	3	2	453	1	300	300	0	0	421	50	0	1	0	0	0	1	blank2r.bmp	0	1	+	0	5	C1r.bmp	492	1	blank2r.bmp	786	1	BMVZ	786	1	blank2r.bmp	866	3	schön	866	1	!	1292	1	!	1319	0	0	0	0	0	0	0	0	0	0	0	0	0	0	0	0	0	0	0	0	0	0	0	0	0	0	0
030619	15:11:17	15:19:45	507230	5.0.10.0	4_exp_EVA_AMP_AWA_CON	146	Rpleas_acq	Same	Rpleas	Bmasked	CS_B	1pleas	distractor1	EVAbeforeCON	acq_US_unple_masked	acq3_masked	3	3	453	0	300	300	0	0	557	46	0	1	0	0	0	1	blank2r.bmp	0	1	+	0	7	C3r.bmp	492	1	blank2r.bmp	786	1	GKQX	786	1	blank2r.bmp	866	1	lasch	866	1	!	1292	1	!	-1	0	0	0	0	0	0	0	0	0	0	0	0	0	0	0	0	0	0	0	0	0	0	0	0	0	0	0
030619	15:11:17	15:19:48	509589	5.0.10.0	4_exp_EVA_AMP_AWA_CON	146	Rpleas_acq	Same	Rpleas	Bmasked	CS_B	1pleas	distractor1	EVAbeforeCON	acq_US_pleas_masked	acq3_masked	3	4	453	0	300	300	0	0	576	50	0	1	0	0	0	1	blank2r.bmp	0	1	+	0	3	B3r.bmp	492	1	blank2r.bmp	786	1	BMVZ	786	1	blank2r.bmp	866	2	fair	866	1	!	1292	1	!	-1	0	0	0	0	0	0	0	0	0	0	0	0	0	0	0	0	0	0	0	0	0	0	0	0	0	0	0
030619	15:11:17	15:19:50	512188	5.0.10.0	4_exp_EVA_AMP_AWA_CON	146	Rpleas_acq	Same	Rpleas	Bmasked	CS_B	1pleas	distractor1	EVAbeforeCON	acq_US_unple_masked	acq3_masked	3	5	453	0	300	300	0	0	807	46	0	1	0	0	0	1	blank2r.bmp	0	1	+	0	1	B1r.bmp	492	1	blank2r.bmp	786	1	GKQX	786	1	blank2r.bmp	866	2	faul	866	1	!	1292	1	!	-1	0	0	0	0	0	0	0	0	0	0	0	0	0	0	0	0	0	0	0	0	0	0	0	0	0	0	0
030619	15:11:17	15:19:53	514827	5.0.10.0	4_exp_EVA_AMP_AWA_CON	146	Rpleas_acq	Same	Rpleas	Bmasked	CS_B	1pleas	distractor1	EVAbeforeCON	acq_US_pleas_masked	acq3_masked	3	6	453	0	300	300	0	0	627	46	0	0	0	0	0	1	blank2r.bmp	0	1	+	0	6	C2r.bmp	492	1	blank2r.bmp	786	1	BMVZ	786	1	blank2r.bmp	866	5	ehrlich	866	1	FEHLER	1839	1	!	1292	1	!	-1	0	0	0	0	0	0	0	0	0	0	0	0	0	0	0	0	0	0	0	0	0	0	0	0
030619	15:11:17	15:19:55	516946	5.0.10.0	4_exp_EVA_AMP_AWA_CON	146	Rpleas_acq	Same	Rpleas	Bmasked	CS_B	1pleas	distractor1	EVAbeforeCON	acq_US_pleas_masked	acq3_masked	3	7	453	0	300	300	0	0	570	50	0	1	0	0	0	1	blank2r.bmp	0	1	+	0	4	B4r.bmp	492	1	blank2r.bmp	786	1	BMVZ	786	1	blank2r.bmp	866	1	loyal	866	1	!	1292	1	!	-1	0	0	0	0	0	0	0	0	0	0	0	0	0	0	0	0	0	0	0	0	0	0	0	0	0	0	0
030619	15:11:17	15:19:57	519305	5.0.10.0	4_exp_EVA_AMP_AWA_CON	146	Rpleas_acq	Same	Rpleas	Bmasked	CS_B	1pleas	distractor1	EVAbeforeCON	acq_US_pleas_masked	acq3_masked	3	8	453	0	300	300	0	0	573	50	0	1	0	0	0	1	blank2r.bmp	0	1	+	0	2	B2r.bmp	492	1	blank2r.bmp	786	1	BMVZ	786	1	blank2r.bmp	866	6	freundlich	866	1	!	1292	1	!	-1	0	0	0	0	0	0	0	0	0	0	0	0	0	0	0	0	0	0	0	0	0	0	0	0	0	0	0
030619	15:11:17	15:20:00	521625	5.0.10.0	4_exp_EVA_AMP_AWA_CON	146	Rpleas_acq	Same	Rpleas	Bmasked	CS_B	1pleas	distractor1	EVAbeforeCON	acq_US_pleas_masked	acq3_masked	3	9	453	0	300	300	0	0	532	50	0	1	0	0	0	1	blank2r.bmp	0	1	+	0	5	C1r.bmp	492	1	blank2r.bmp	786	1	BMVZ	786	1	blank2r.bmp	866	4	treu	866	1	!	1292	1	!	-1	0	0	0	0	0	0	0	0	0	0	0	0	0	0	0	0	0	0	0	0	0	0	0	0	0	0	0
030619	15:11:17	15:20:02	524223	5.0.10.0	4_exp_EVA_AMP_AWA_CON	146	Rpleas_acq	Same	Rpleas	Bmasked	CS_B	1pleas	distractor1	EVAbeforeCON	acq_US_unple_masked	acq3_masked	3	10	453	0	300	300	0	0	593	50	0	0	0	0	0	1	blank2r.bmp	0	1	+	0	2	B2r.bmp	492	1	blank2r.bmp	786	1	GKQX	786	1	blank2r.bmp	866	6	fanatisch	866	1	FEHLER	1799	1	!	1292	1	!	-1	0	0	0	0	0	0	0	0	0	0	0	0	0	0	0	0	0	0	0	0	0	0	0	0
030619	15:11:17	15:20:04	526329	5.0.10.0	4_exp_EVA_AMP_AWA_CON	146	Rpleas_acq	Same	Rpleas	Bmasked	CS_B	1pleas	distractor1	EVAbeforeCON	acq_US_unple_masked	acq3_masked	3	11	453	0	300	300	0	0	549	46	0	1	0	0	0	1	blank2r.bmp	0	1	+	0	3	B3r.bmp	492	1	blank2r.bmp	786	1	GKQX	786	1	blank2r.bmp	866	3	schlecht	866	1	!	1292	1	!	-1	0	0	0	0	0	0	0	0	0	0	0	0	0	0	0	0	0	0	0	0	0	0	0	0	0	0	0
030619	15:11:17	15:20:07	528888	5.0.10.0	4_exp_EVA_AMP_AWA_CON	146	Rpleas_acq	Same	Rpleas	Bmasked	CS_B	1pleas	distractor1	EVAbeforeCON	acq_US_unple_masked	acq3_masked	3	12	453	0	300	300	0	0	758	46	0	1	0	0	0	1	blank2r.bmp	0	1	+	0	8	C4r.bmp	492	1	blank2r.bmp	786	1	GKQX	786	1	blank2r.bmp	866	5	eitel	866	1	!	1292	1	!	-1	0	0	0	0	0	0	0	0	0	0	0	0	0	0	0	0	0	0	0	0	0	0	0	0	0	0	0
030619	15:11:17	15:20:10	531381	5.0.10.0	4_exp_EVA_AMP_AWA_CON	146	Rpleas_acq	Same	Rpleas	Bmasked	CS_B	1pleas	distractor1	EVAbeforeCON	acq_US_unple_masked	acq3_masked	3	13	453	0	300	300	0	0	710	46	0	1	0	0	0	1	blank2r.bmp	0	1	+	0	1	B1r.bmp	492	1	blank2r.bmp	786	1	GKQX	786	1	blank2r.bmp	866	1	lasch	866	1	!	1292	1	!	-1	0	0	0	0	0	0	0	0	0	0	0	0	0	0	0	0	0	0	0	0	0	0	0	0	0	0	0
030619	15:11:17	15:20:12	533753	5.0.10.0	4_exp_EVA_AMP_AWA_CON	146	Rpleas_acq	Same	Rpleas	Bmasked	CS_B	1pleas	distractor1	EVAbeforeCON	acq_US_unple_masked	acq3_masked	3	14	453	0	300	300	0	0	589	46	0	1	0	0	0	1	blank2r.bmp	0	1	+	0	6	C2r.bmp	492	1	blank2r.bmp	786	1	GKQX	786	1	blank2r.bmp	866	4	tot	866	1	!	1292	1	!	-1	0	0	0	0	0	0	0	0	0	0	0	0	0	0	0	0	0	0	0	0	0	0	0	0	0	0	0
030619	15:11:17	15:20:14	536072	5.0.10.0	4_exp_EVA_AMP_AWA_CON	146	Rpleas_acq	Same	Rpleas	Bmasked	CS_B	1pleas	distractor1	EVAbeforeCON	acq_US_unple_masked	acq3_masked	3	15	453	1	300	300	0	0	501	46	0	1	0	0	0	1	blank2r.bmp	0	1	+	0	4	B4r.bmp	492	1	blank2r.bmp	786	1	GKQX	786	1	blank2r.bmp	866	3	schlecht	866	1	!	1292	1	!	1399	0	0	0	0	0	0	0	0	0	0	0	0	0	0	0	0	0	0	0	0	0	0	0	0	0	0	0
030619	15:11:17	15:20:17	538458	5.0.10.0	4_exp_EVA_AMP_AWA_CON	146	Rpleas_acq	Same	Rpleas	Bmasked	CS_B	1pleas	distractor1	EVAbeforeCON	acq_US_unple_masked	acq3_masked	3	16	453	0	300	300	0	0	619	46	0	1	0	0	0	1	blank2r.bmp	0	1	+	0	7	C3r.bmp	492	1	blank2r.bmp	786	1	GKQX	786	1	blank2r.bmp	866	2	faul	866	1	!	1292	1	!	-1	0	0	0	0	0	0	0	0	0	0	0	0	0	0	0	0	0	0	0	0	0	0	0	0	0	0	0
030619	15:11:17	15:20:19	541083	5.0.10.0	4_exp_EVA_AMP_AWA_CON	146	Rpleas_acq	Same	Rpleas	Bmasked	CS_B	1pleas	distractor1	EVAbeforeCON	acq_US_pleas_masked	acq3_masked	3	17	453	0	300	300	0	0	844	50	0	1	0	0	0	1	blank2r.bmp	0	1	+	0	4	B4r.bmp	492	1	blank2r.bmp	786	1	BMVZ	786	1	blank2r.bmp	866	1	loyal	866	1	!	1292	1	!	-1	0	0	0	0	0	0	0	0	0	0	0	0	0	0	0	0	0	0	0	0	0	0	0	0	0	0	0
030619	15:11:17	15:20:22	543602	5.0.10.0	4_exp_EVA_AMP_AWA_CON	146	Rpleas_acq	Same	Rpleas	Bmasked	CS_B	1pleas	distractor1	EVAbeforeCON	acq_US_pleas_masked	acq3_masked	3	18	453	0	300	300	0	0	739	50	0	1	0	0	0	1	blank2r.bmp	0	1	+	0	7	C3r.bmp	492	1	blank2r.bmp	786	1	BMVZ	786	1	blank2r.bmp	866	4	treu	866	1	!	1292	1	!	-1	0	0	0	0	0	0	0	0	0	0	0	0	0	0	0	0	0	0	0	0	0	0	0	0	0	0	0
030619	15:11:17	15:20:25	546374	5.0.10.0	4_exp_EVA_AMP_AWA_CON	146	Rpleas_acq	Same	Rpleas	Bmasked	CS_B	1pleas	distractor1	EVAbeforeCON	acq_US_unple_masked	acq3_masked	3	19	453	0	300	300	0	0	770	50	0	0	0	0	0	1	blank2r.bmp	0	1	+	0	8	C4r.bmp	492	1	blank2r.bmp	786	1	GKQX	786	1	blank2r.bmp	866	6	fanatisch	866	1	FEHLER	1972	1	!	1292	1	!	-1	0	0	0	0	0	0	0	0	0	0	0	0	0	0	0	0	0	0	0	0	0	0	0	0
030619	15:11:17	15:20:27	548467	5.0.10.0	4_exp_EVA_AMP_AWA_CON	146	Rpleas_acq	Same	Rpleas	Bmasked	CS_B	1pleas	distractor1	EVAbeforeCON	acq_US_pleas_masked	acq3_masked	3	20	453	0	300	300	0	0	544	50	0	1	0	0	0	1	blank2r.bmp	0	1	+	0	3	B3r.bmp	492	1	blank2r.bmp	786	1	BMVZ	786	1	blank2r.bmp	866	3	schön	866	1	!	1292	1	!	-1	0	0	0	0	0	0	0	0	0	0	0	0	0	0	0	0	0	0	0	0	0	0	0	0	0	0	0
030619	15:11:17	15:20:29	550852	5.0.10.0	4_exp_EVA_AMP_AWA_CON	146	Rpleas_acq	Same	Rpleas	Bmasked	CS_B	1pleas	distractor1	EVAbeforeCON	acq_US_pleas_masked	acq3_masked	3	21	453	0	300	300	0	0	602	50	0	1	0	0	0	1	blank2r.bmp	0	1	+	0	6	C2r.bmp	492	1	blank2r.bmp	786	1	BMVZ	786	1	blank2r.bmp	866	2	fair	866	1	!	1292	1	!	-1	0	0	0	0	0	0	0	0	0	0	0	0	0	0	0	0	0	0	0	0	0	0	0	0	0	0	0
030619	15:11:17	15:20:32	553451	5.0.10.0	4_exp_EVA_AMP_AWA_CON	146	Rpleas_acq	Same	Rpleas	Bmasked	CS_B	1pleas	distractor1	EVAbeforeCON	acq_US_unple_masked	acq3_masked	3	22	453	0	300	300	0	0	809	46	0	1	0	0	0	1	blank2r.bmp	0	1	+	0	1	B1r.bmp	492	1	blank2r.bmp	786	1	GKQX	786	1	blank2r.bmp	866	5	eitel	866	1	!	1292	1	!	-1	0	0	0	0	0	0	0	0	0	0	0	0	0	0	0	0	0	0	0	0	0	0	0	0	0	0	0
030619	15:11:17	15:20:34	555837	5.0.10.0	4_exp_EVA_AMP_AWA_CON	146	Rpleas_acq	Same	Rpleas	Bmasked	CS_B	1pleas	distractor1	EVAbeforeCON	acq_US_pleas_masked	acq3_masked	3	23	453	0	300	300	0	0	610	50	0	1	0	0	0	1	blank2r.bmp	0	1	+	0	2	B2r.bmp	492	1	blank2r.bmp	786	1	BMVZ	786	1	blank2r.bmp	866	5	ehrlich	866	1	!	1292	1	!	-1	0	0	0	0	0	0	0	0	0	0	0	0	0	0	0	0	0	0	0	0	0	0	0	0	0	0	0
030619	15:11:17	15:20:36	558289	5.0.10.0	4_exp_EVA_AMP_AWA_CON	146	Rpleas_acq	Same	Rpleas	Bmasked	CS_B	1pleas	distractor1	EVAbeforeCON	acq_US_pleas_masked	acq3_masked	3	24	453	0	300	300	0	0	665	50	0	1	0	0	0	1	blank2r.bmp	0	1	+	0	5	C1r.bmp	492	1	blank2r.bmp	786	1	BMVZ	786	1	blank2r.bmp	866	6	freundlich	866	1	!	1292	1	!	-1	0	0	0	0	0	0	0	0	0	0	0	0	0	0	0	0	0	0	0	0	0	0	0	0	0	0	0
030619	15:11:17	15:20:39	560675	5.0.10.0	4_exp_EVA_AMP_AWA_CON	146	Rpleas_acq	Same	Rpleas	Bmasked	CS_B	1pleas	distractor1	EVAbeforeCON	acq_US_pleas_masked	acq3_masked	3	25	453	0	300	300	0	0	599	50	0	1	0	0	0	1	blank2r.bmp	0	1	+	0	7	C3r.bmp	492	1	blank2r.bmp	786	1	BMVZ	786	1	blank2r.bmp	866	1	loyal	866	1	!	1292	1	!	-1	0	0	0	0	0	0	0	0	0	0	0	0	0	0	0	0	0	0	0	0	0	0	0	0	0	0	0
030619	15:11:17	15:20:41	562981	5.0.10.0	4_exp_EVA_AMP_AWA_CON	146	Rpleas_acq	Same	Rpleas	Bmasked	CS_B	1pleas	distractor1	EVAbeforeCON	acq_US_pleas_masked	acq3_masked	3	26	453	1	300	300	0	0	499	50	0	1	0	0	0	1	blank2r.bmp	0	1	+	0	6	C2r.bmp	492	1	blank2r.bmp	786	1	BMVZ	786	1	blank2r.bmp	866	3	schön	866	1	!	1292	1	!	1399	0	0	0	0	0	0	0	0	0	0	0	0	0	0	0	0	0	0	0	0	0	0	0	0	0	0	0
030619	15:11:17	15:20:44	565380	5.0.10.0	4_exp_EVA_AMP_AWA_CON	146	Rpleas_acq	Same	Rpleas	Bmasked	CS_B	1pleas	distractor1	EVAbeforeCON	acq_US_unple_masked	acq3_masked	3	27	453	0	300	300	0	0	626	46	0	1	0	0	0	1	blank2r.bmp	0	1	+	0	8	C4r.bmp	492	1	blank2r.bmp	786	1	GKQX	786	1	blank2r.bmp	866	3	schlecht	866	1	!	1292	1	!	-1	0	0	0	0	0	0	0	0	0	0	0	0	0	0	0	0	0	0	0	0	0	0	0	0	0	0	0
030619	15:11:17	15:20:46	567885	5.0.10.0	4_exp_EVA_AMP_AWA_CON	146	Rpleas_acq	Same	Rpleas	Bmasked	CS_B	1pleas	distractor1	EVAbeforeCON	acq_US_unple_masked	acq3_masked	3	28	453	0	300	300	0	0	723	46	0	1	0	0	0	1	blank2r.bmp	0	1	+	0	5	C1r.bmp	492	1	blank2r.bmp	786	1	GKQX	786	1	blank2r.bmp	866	5	eitel	866	1	!	1292	1	!	-1	0	0	0	0	0	0	0	0	0	0	0	0	0	0	0	0	0	0	0	0	0	0	0	0	0	0	0
030619	15:11:17	15:20:49	570484	5.0.10.0	4_exp_EVA_AMP_AWA_CON	146	Rpleas_acq	Same	Rpleas	Bmasked	CS_B	1pleas	distractor1	EVAbeforeCON	acq_US_unple_masked	acq3_masked	3	29	453	0	300	300	0	0	583	50	0	0	0	0	0	1	blank2r.bmp	0	1	+	0	2	B2r.bmp	492	1	blank2r.bmp	786	1	GKQX	786	1	blank2r.bmp	866	6	fanatisch	866	1	FEHLER	1785	1	!	1292	1	!	-1	0	0	0	0	0	0	0	0	0	0	0	0	0	0	0	0	0	0	0	0	0	0	0	0
030619	15:11:17	15:20:51	572843	5.0.10.0	4_exp_EVA_AMP_AWA_CON	146	Rpleas_acq	Same	Rpleas	Bmasked	CS_B	1pleas	distractor1	EVAbeforeCON	acq_US_unple_masked	acq3_masked	3	30	453	0	300	300	0	0	796	46	0	1	0	0	0	1	blank2r.bmp	0	1	+	0	1	B1r.bmp	492	1	blank2r.bmp	786	1	GKQX	786	1	blank2r.bmp	866	2	faul	866	1	!	1292	1	!	-1	0	0	0	0	0	0	0	0	0	0	0	0	0	0	0	0	0	0	0	0	0	0	0	0	0	0	0
030619	15:11:17	15:20:53	575229	5.0.10.0	4_exp_EVA_AMP_AWA_CON	146	Rpleas_acq	Same	Rpleas	Bmasked	CS_B	1pleas	distractor1	EVAbeforeCON	acq_US_unple_masked	acq3_masked	3	31	453	0	300	300	0	0	607	46	0	1	0	0	0	1	blank2r.bmp	0	1	+	0	3	B3r.bmp	492	1	blank2r.bmp	786	1	GKQX	786	1	blank2r.bmp	866	1	lasch	866	1	!	1292	1	!	-1	0	0	0	0	0	0	0	0	0	0	0	0	0	0	0	0	0	0	0	0	0	0	0	0	0	0	0
030619	15:11:17	15:20:56	577681	5.0.10.0	4_exp_EVA_AMP_AWA_CON	146	Rpleas_acq	Same	Rpleas	Bmasked	CS_B	1pleas	distractor1	EVAbeforeCON	acq_US_pleas_masked	acq3_masked	3	32	453	0	300	300	0	0	675	50	0	1	0	0	0	1	blank2r.bmp	0	1	+	0	4	B4r.bmp	492	1	blank2r.bmp	786	1	BMVZ	786	1	blank2r.bmp	866	6	freundlich	866	1	!	1292	1	!	-1	0	0	0	0	0	0	0	0	0	0	0	0	0	0	0	0	0	0	0	0	0	0	0	0	0	0	0
030619	15:11:17	15:20:58	580360	5.0.10.0	4_exp_EVA_AMP_AWA_CON	146	Rpleas_acq	Same	Rpleas	Bmasked	CS_B	1pleas	distractor1	EVAbeforeCON	acq_US_pleas_masked	acq3_masked	3	33	453	0	300	300	0	0	672	46	0	0	0	0	0	1	blank2r.bmp	0	1	+	0	8	C4r.bmp	492	1	blank2r.bmp	786	1	BMVZ	786	1	blank2r.bmp	866	2	fair	866	1	FEHLER	1879	1	!	1292	1	!	-1	0	0	0	0	0	0	0	0	0	0	0	0	0	0	0	0	0	0	0	0	0	0	0	0
030619	15:11:17	15:21:01	582546	5.0.10.0	4_exp_EVA_AMP_AWA_CON	146	Rpleas_acq	Same	Rpleas	Bmasked	CS_B	1pleas	distractor1	EVAbeforeCON	acq_US_pleas_masked	acq3_masked	3	34	453	0	300	300	0	0	627	50	0	1	0	0	0	1	blank2r.bmp	0	1	+	0	7	C3r.bmp	492	1	blank2r.bmp	786	1	BMVZ	786	1	blank2r.bmp	866	5	ehrlich	866	1	!	1292	1	!	-1	0	0	0	0	0	0	0	0	0	0	0	0	0	0	0	0	0	0	0	0	0	0	0	0	0	0	0
030619	15:11:17	15:21:03	584865	5.0.10.0	4_exp_EVA_AMP_AWA_CON	146	Rpleas_acq	Same	Rpleas	Bmasked	CS_B	1pleas	distractor1	EVAbeforeCON	acq_US_pleas_masked	acq3_masked	3	35	453	1	300	300	0	0	516	50	0	1	0	0	0	1	blank2r.bmp	0	1	+	0	5	C1r.bmp	492	1	blank2r.bmp	786	1	BMVZ	786	1	blank2r.bmp	866	4	treu	866	1	!	1292	1	!	1412	0	0	0	0	0	0	0	0	0	0	0	0	0	0	0	0	0	0	0	0	0	0	0	0	0	0	0
030619	15:11:17	15:21:05	587251	5.0.10.0	4_exp_EVA_AMP_AWA_CON	146	Rpleas_acq	Same	Rpleas	Bmasked	CS_B	1pleas	distractor1	EVAbeforeCON	acq_US_unple_masked	acq3_masked	3	36	453	0	300	300	0	0	624	46	0	1	0	0	0	1	blank2r.bmp	0	1	+	0	1	B1r.bmp	492	1	blank2r.bmp	786	1	GKQX	786	1	blank2r.bmp	866	4	tot	866	1	!	1292	1	!	-1	0	0	0	0	0	0	0	0	0	0	0	0	0	0	0	0	0	0	0	0	0	0	0	0	0	0	0
030619	15:11:17	15:21:21	603178	5.0.10.0	4_exp_EVA_AMP_AWA_CON	146	Rpleas_acq	Same	Rpleas	Bmasked	CS_B	1pleas	distractor1	EVAbeforeCON	acq_US_pleas_masked	acq45_masked	4	1	400	0	300	300	0	0	632	50	0	1	0	0	0	1	blank2r.bmp	0	1	+	0	3	B3r.bmp	492	1	blank2r.bmp	786	1	BMVZ	786	1	blank2r.bmp	866	3	schön	866	1	!	1239	1	!	-1	0	0	0	0	0	0	0	0	0	0	0	0	0	0	0	0	0	0	0	0	0	0	0	0	0	0	0
030619	15:11:17	15:21:24	605723	5.0.10.0	4_exp_EVA_AMP_AWA_CON	146	Rpleas_acq	Same	Rpleas	Bmasked	CS_B	1pleas	distractor1	EVAbeforeCON	acq_US_pleas_masked	acq45_masked	4	2	400	0	300	300	0	0	771	50	0	1	0	0	0	1	blank2r.bmp	0	1	+	0	2	B2r.bmp	492	1	blank2r.bmp	786	1	BMVZ	786	1	blank2r.bmp	866	1	loyal	866	1	!	1239	1	!	-1	0	0	0	0	0	0	0	0	0	0	0	0	0	0	0	0	0	0	0	0	0	0	0	0	0	0	0
030619	15:11:17	15:21:26	608069	5.0.10.0	4_exp_EVA_AMP_AWA_CON	146	Rpleas_acq	Same	Rpleas	Bmasked	CS_B	1pleas	distractor1	EVAbeforeCON	acq_US_unple_masked	acq45_masked	4	3	400	0	300	300	0	0	560	50	0	0	0	0	0	1	blank2r.bmp	0	1	+	0	6	C2r.bmp	492	1	blank2r.bmp	786	1	GKQX	786	1	blank2r.bmp	866	6	fanatisch	866	1	!	1239	1	!	-1	0	0	0	0	0	0	0	0	0	0	0	0	0	0	0	0	0	0	0	0	0	0	0	0	0	0	0
030619	15:11:17	15:21:29	610455	5.0.10.0	4_exp_EVA_AMP_AWA_CON	146	Rpleas_acq	Same	Rpleas	Bmasked	CS_B	1pleas	distractor1	EVAbeforeCON	acq_US_unple_masked	acq45_masked	4	4	400	0	300	300	0	0	598	46	0	1	0	0	0	1	blank2r.bmp	0	1	+	0	4	B4r.bmp	492	1	blank2r.bmp	786	1	GKQX	786	1	blank2r.bmp	866	1	lasch	866	1	!	1239	1	!	-1	0	0	0	0	0	0	0	0	0	0	0	0	0	0	0	0	0	0	0	0	0	0	0	0	0	0	0
030619	15:11:17	15:21:31	612840	5.0.10.0	4_exp_EVA_AMP_AWA_CON	146	Rpleas_acq	Same	Rpleas	Bmasked	CS_B	1pleas	distractor1	EVAbeforeCON	acq_US_pleas_masked	acq45_masked	4	5	400	0	300	300	0	0	618	50	0	1	0	0	0	1	blank2r.bmp	0	1	+	0	6	C2r.bmp	492	1	blank2r.bmp	786	1	BMVZ	786	1	blank2r.bmp	866	2	fair	866	1	!	1239	1	!	-1	0	0	0	0	0	0	0	0	0	0	0	0	0	0	0	0	0	0	0	0	0	0	0	0	0	0	0
030619	15:11:17	15:21:34	615386	5.0.10.0	4_exp_EVA_AMP_AWA_CON	146	Rpleas_acq	Same	Rpleas	Bmasked	CS_B	1pleas	distractor1	EVAbeforeCON	acq_US_unple_masked	acq45_masked	4	6	400	0	300	300	0	0	766	46	0	1	0	0	0	1	blank2r.bmp	0	1	+	0	5	C1r.bmp	492	1	blank2r.bmp	786	1	GKQX	786	1	blank2r.bmp	866	5	eitel	866	1	!	1239	1	!	-1	0	0	0	0	0	0	0	0	0	0	0	0	0	0	0	0	0	0	0	0	0	0	0	0	0	0	0
030619	15:11:17	15:21:36	617732	5.0.10.0	4_exp_EVA_AMP_AWA_CON	146	Rpleas_acq	Same	Rpleas	Bmasked	CS_B	1pleas	distractor1	EVAbeforeCON	acq_US_pleas_masked	acq45_masked	4	7	400	0	300	300	0	0	559	50	0	1	0	0	0	1	blank2r.bmp	0	1	+	0	2	B2r.bmp	492	1	blank2r.bmp	786	1	BMVZ	786	1	blank2r.bmp	866	5	ehrlich	866	1	!	1239	1	!	-1	0	0	0	0	0	0	0	0	0	0	0	0	0	0	0	0	0	0	0	0	0	0	0	0	0	0	0
030619	15:11:17	15:21:38	620157	5.0.10.0	4_exp_EVA_AMP_AWA_CON	146	Rpleas_acq	Same	Rpleas	Bmasked	CS_B	1pleas	distractor1	EVAbeforeCON	acq_US_unple_masked	acq45_masked	4	8	400	0	300	300	0	0	643	46	0	1	0	0	0	1	blank2r.bmp	0	1	+	0	7	C3r.bmp	492	1	blank2r.bmp	786	1	GKQX	786	1	blank2r.bmp	866	2	faul	866	1	!	1239	1	!	-1	0	0	0	0	0	0	0	0	0	0	0	0	0	0	0	0	0	0	0	0	0	0	0	0	0	0	0
030619	15:11:17	15:21:41	622623	5.0.10.0	4_exp_EVA_AMP_AWA_CON	146	Rpleas_acq	Same	Rpleas	Bmasked	CS_B	1pleas	distractor1	EVAbeforeCON	acq_US_unple_masked	acq45_masked	4	9	400	0	300	300	0	0	679	46	0	1	0	0	0	1	blank2r.bmp	0	1	+	0	1	B1r.bmp	492	1	blank2r.bmp	786	1	GKQX	786	1	blank2r.bmp	866	4	tot	866	1	!	1239	1	!	-1	0	0	0	0	0	0	0	0	0	0	0	0	0	0	0	0	0	0	0	0	0	0	0	0	0	0	0
030619	15:11:17	15:21:43	625142	5.0.10.0	4_exp_EVA_AMP_AWA_CON	146	Rpleas_acq	Same	Rpleas	Bmasked	CS_B	1pleas	distractor1	EVAbeforeCON	acq_US_pleas_masked	acq45_masked	4	10	400	0	300	300	0	0	742	50	0	1	0	0	0	1	blank2r.bmp	0	1	+	0	4	B4r.bmp	492	1	blank2r.bmp	786	1	BMVZ	786	1	blank2r.bmp	866	6	freundlich	866	1	!	1239	1	!	-1	0	0	0	0	0	0	0	0	0	0	0	0	0	0	0	0	0	0	0	0	0	0	0	0	0	0	0
030619	15:11:17	15:21:46	627501	5.0.10.0	4_exp_EVA_AMP_AWA_CON	146	Rpleas_acq	Same	Rpleas	Bmasked	CS_B	1pleas	distractor1	EVAbeforeCON	acq_US_unple_masked	acq45_masked	4	11	400	0	300	300	0	0	577	46	0	1	0	0	0	1	blank2r.bmp	0	1	+	0	8	C4r.bmp	492	1	blank2r.bmp	786	1	GKQX	786	1	blank2r.bmp	866	3	schlecht	866	1	!	1239	1	!	-1	0	0	0	0	0	0	0	0	0	0	0	0	0	0	0	0	0	0	0	0	0	0	0	0	0	0	0
030619	15:11:17	15:21:48	629820	5.0.10.0	4_exp_EVA_AMP_AWA_CON	146	Rpleas_acq	Same	Rpleas	Bmasked	CS_B	1pleas	distractor1	EVAbeforeCON	acq_US_pleas_masked	acq45_masked	4	12	400	0	300	300	0	0	544	50	0	1	0	0	0	1	blank2r.bmp	0	1	+	0	3	B3r.bmp	492	1	blank2r.bmp	786	1	BMVZ	786	1	blank2r.bmp	866	4	treu	866	1	!	1239	1	!	-1	0	0	0	0	0	0	0	0	0	0	0	0	0	0	0	0	0	0	0	0	0	0	0	0	0	0	0
030619	15:11:17	15:21:50	632219	5.0.10.0	4_exp_EVA_AMP_AWA_CON	146	Rpleas_acq	Same	Rpleas	Bmasked	CS_B	1pleas	distractor1	EVAbeforeCON	acq_US_pleas_masked	acq45_masked	4	13	400	0	300	300	0	0	624	46	0	0	0	0	0	1	blank2r.bmp	0	1	+	0	1	B1r.bmp	492	1	blank2r.bmp	786	1	BMVZ	786	1	blank2r.bmp	866	2	fair	866	1	!	1239	1	!	-1	0	0	0	0	0	0	0	0	0	0	0	0	0	0	0	0	0	0	0	0	0	0	0	0	0	0	0
030619	15:11:17	15:21:53	634631	5.0.10.0	4_exp_EVA_AMP_AWA_CON	146	Rpleas_acq	Same	Rpleas	Bmasked	CS_B	1pleas	distractor1	EVAbeforeCON	acq_US_pleas_masked	acq45_masked	4	14	400	0	300	300	0	0	623	50	0	1	0	0	0	1	blank2r.bmp	0	1	+	0	5	C1r.bmp	492	1	blank2r.bmp	786	1	BMVZ	786	1	blank2r.bmp	866	5	ehrlich	866	1	!	1239	1	!	-1	0	0	0	0	0	0	0	0	0	0	0	0	0	0	0	0	0	0	0	0	0	0	0	0	0	0	0
030619	15:11:17	15:21:55	637204	5.0.10.0	4_exp_EVA_AMP_AWA_CON	146	Rpleas_acq	Same	Rpleas	Bmasked	CS_B	1pleas	distractor1	EVAbeforeCON	acq_US_unple_masked	acq45_masked	4	15	400	0	300	300	0	0	787	46	0	1	0	0	0	1	blank2r.bmp	0	1	+	0	4	B4r.bmp	492	1	blank2r.bmp	786	1	GKQX	786	1	blank2r.bmp	866	2	faul	866	1	!	1239	1	!	-1	0	0	0	0	0	0	0	0	0	0	0	0	0	0	0	0	0	0	0	0	0	0	0	0	0	0	0
030619	15:11:17	15:21:58	639723	5.0.10.0	4_exp_EVA_AMP_AWA_CON	146	Rpleas_acq	Same	Rpleas	Bmasked	CS_B	1pleas	distractor1	EVAbeforeCON	acq_US_unple_masked	acq45_masked	4	16	400	0	300	300	0	0	734	46	0	1	0	0	0	1	blank2r.bmp	0	1	+	0	3	B3r.bmp	492	1	blank2r.bmp	786	1	GKQX	786	1	blank2r.bmp	866	3	schlecht	866	1	!	1239	1	!	-1	0	0	0	0	0	0	0	0	0	0	0	0	0	0	0	0	0	0	0	0	0	0	0	0	0	0	0
030619	15:11:17	15:22:00	642162	5.0.10.0	4_exp_EVA_AMP_AWA_CON	146	Rpleas_acq	Same	Rpleas	Bmasked	CS_B	1pleas	distractor1	EVAbeforeCON	acq_US_unple_masked	acq45_masked	4	17	400	0	300	300	0	0	658	46	0	1	0	0	0	1	blank2r.bmp	0	1	+	0	7	C3r.bmp	492	1	blank2r.bmp	786	1	GKQX	786	1	blank2r.bmp	866	1	lasch	866	1	!	1239	1	!	-1	0	0	0	0	0	0	0	0	0	0	0	0	0	0	0	0	0	0	0	0	0	0	0	0	0	0	0
030619	15:11:17	15:22:03	644627	5.0.10.0	4_exp_EVA_AMP_AWA_CON	146	Rpleas_acq	Same	Rpleas	Bmasked	CS_B	1pleas	distractor1	EVAbeforeCON	acq_US_pleas_masked	acq45_masked	4	18	400	0	300	300	0	0	679	50	0	1	0	0	0	1	blank2r.bmp	0	1	+	0	6	C2r.bmp	492	1	blank2r.bmp	786	1	BMVZ	786	1	blank2r.bmp	866	4	treu	866	1	!	1239	1	!	-1	0	0	0	0	0	0	0	0	0	0	0	0	0	0	0	0	0	0	0	0	0	0	0	0	0	0	0
030619	15:11:17	15:22:05	647253	5.0.10.0	4_exp_EVA_AMP_AWA_CON	146	Rpleas_acq	Same	Rpleas	Bmasked	CS_B	1pleas	distractor1	EVAbeforeCON	acq_US_unple_masked	acq45_masked	4	19	400	0	300	300	0	0	845	46	0	1	0	0	0	1	blank2r.bmp	0	1	+	0	2	B2r.bmp	492	1	blank2r.bmp	786	1	GKQX	786	1	blank2r.bmp	866	5	eitel	866	1	!	1239	1	!	-1	0	0	0	0	0	0	0	0	0	0	0	0	0	0	0	0	0	0	0	0	0	0	0	0	0	0	0
030619	15:11:17	15:22:08	649625	5.0.10.0	4_exp_EVA_AMP_AWA_CON	146	Rpleas_acq	Same	Rpleas	Bmasked	CS_B	1pleas	distractor1	EVAbeforeCON	acq_US_pleas_masked	acq45_masked	4	20	400	0	300	300	0	0	586	50	0	1	0	0	0	1	blank2r.bmp	0	1	+	0	8	C4r.bmp	492	1	blank2r.bmp	786	1	BMVZ	786	1	blank2r.bmp	866	3	schön	866	1	!	1239	1	!	-1	0	0	0	0	0	0	0	0	0	0	0	0	0	0	0	0	0	0	0	0	0	0	0	0	0	0	0
030619	15:11:17	15:22:10	652104	5.0.10.0	4_exp_EVA_AMP_AWA_CON	146	Rpleas_acq	Same	Rpleas	Bmasked	CS_B	1pleas	distractor1	EVAbeforeCON	acq_US_unple_masked	acq45_masked	4	21	400	0	300	300	0	0	693	50	0	0	0	0	0	1	blank2r.bmp	0	1	+	0	6	C2r.bmp	492	1	blank2r.bmp	786	1	GKQX	786	1	blank2r.bmp	866	6	fanatisch	866	1	!	1239	1	!	-1	0	0	0	0	0	0	0	0	0	0	0	0	0	0	0	0	0	0	0	0	0	0	0	0	0	0	0
030619	15:11:17	15:22:13	654530	5.0.10.0	4_exp_EVA_AMP_AWA_CON	146	Rpleas_acq	Same	Rpleas	Bmasked	CS_B	1pleas	distractor1	EVAbeforeCON	acq_US_unple_masked	acq45_masked	4	22	400	0	300	300	0	0	651	46	0	1	0	0	0	1	blank2r.bmp	0	1	+	0	5	C1r.bmp	492	1	blank2r.bmp	786	1	GKQX	786	1	blank2r.bmp	866	4	tot	866	1	!	1239	1	!	-1	0	0	0	0	0	0	0	0	0	0	0	0	0	0	0	0	0	0	0	0	0	0	0	0	0	0	0
030619	15:11:17	15:22:15	656956	5.0.10.0	4_exp_EVA_AMP_AWA_CON	146	Rpleas_acq	Same	Rpleas	Bmasked	CS_B	1pleas	distractor1	EVAbeforeCON	acq_US_unple_masked	acq45_masked	4	23	400	0	300	300	0	0	641	46	0	1	0	0	0	1	blank2r.bmp	0	1	+	0	8	C4r.bmp	492	1	blank2r.bmp	786	1	GKQX	786	1	blank2r.bmp	866	4	tot	866	1	!	1239	1	!	-1	0	0	0	0	0	0	0	0	0	0	0	0	0	0	0	0	0	0	0	0	0	0	0	0	0	0	0
030619	15:11:17	15:22:17	659315	5.0.10.0	4_exp_EVA_AMP_AWA_CON	146	Rpleas_acq	Same	Rpleas	Bmasked	CS_B	1pleas	distractor1	EVAbeforeCON	acq_US_pleas_masked	acq45_masked	4	24	400	0	300	300	0	0	572	50	0	1	0	0	0	1	blank2r.bmp	0	1	+	0	7	C3r.bmp	492	1	blank2r.bmp	786	1	BMVZ	786	1	blank2r.bmp	866	6	freundlich	866	1	!	1239	1	!	-1	0	0	0	0	0	0	0	0	0	0	0	0	0	0	0	0	0	0	0	0	0	0	0	0	0	0	0
030619	15:11:17	15:22:20	661687	5.0.10.0	4_exp_EVA_AMP_AWA_CON	146	Rpleas_acq	Same	Rpleas	Bmasked	CS_B	1pleas	distractor1	EVAbeforeCON	acq_US_pleas_masked	acq45_masked	4	25	400	0	300	300	0	0	588	46	0	0	0	0	0	1	blank2r.bmp	0	1	+	0	4	B4r.bmp	492	1	blank2r.bmp	786	1	BMVZ	786	1	blank2r.bmp	866	1	loyal	866	1	!	1239	1	!	-1	0	0	0	0	0	0	0	0	0	0	0	0	0	0	0	0	0	0	0	0	0	0	0	0	0	0	0
030619	15:11:17	15:22:22	664113	5.0.10.0	4_exp_EVA_AMP_AWA_CON	146	Rpleas_acq	Same	Rpleas	Bmasked	CS_B	1pleas	distractor1	EVAbeforeCON	acq_US_unple_masked	acq45_masked	4	26	400	0	300	300	0	0	639	50	0	0	0	0	0	1	blank2r.bmp	0	1	+	0	1	B1r.bmp	492	1	blank2r.bmp	786	1	GKQX	786	1	blank2r.bmp	866	6	fanatisch	866	1	!	1239	1	!	-1	0	0	0	0	0	0	0	0	0	0	0	0	0	0	0	0	0	0	0	0	0	0	0	0	0	0	0
030619	15:11:17	15:22:25	666552	5.0.10.0	4_exp_EVA_AMP_AWA_CON	146	Rpleas_acq	Same	Rpleas	Bmasked	CS_B	1pleas	distractor1	EVAbeforeCON	acq_US_pleas_masked	acq45_masked	4	27	400	0	300	300	0	0	660	50	0	1	0	0	0	1	blank2r.bmp	0	1	+	0	3	B3r.bmp	492	1	blank2r.bmp	786	1	BMVZ	786	1	blank2r.bmp	866	6	freundlich	866	1	!	1239	1	!	-1	0	0	0	0	0	0	0	0	0	0	0	0	0	0	0	0	0	0	0	0	0	0	0	0	0	0	0
030619	15:11:17	15:22:27	668991	5.0.10.0	4_exp_EVA_AMP_AWA_CON	146	Rpleas_acq	Same	Rpleas	Bmasked	CS_B	1pleas	distractor1	EVAbeforeCON	acq_US_pleas_masked	acq45_masked	4	28	400	0	300	300	0	0	652	50	0	1	0	0	0	1	blank2r.bmp	0	1	+	0	2	B2r.bmp	492	1	blank2r.bmp	786	1	BMVZ	786	1	blank2r.bmp	866	2	fair	866	1	!	1239	1	!	-1	0	0	0	0	0	0	0	0	0	0	0	0	0	0	0	0	0	0	0	0	0	0	0	0	0	0	0
030619	15:11:17	15:22:30	671470	5.0.10.0	4_exp_EVA_AMP_AWA_CON	146	Rpleas_acq	Same	Rpleas	Bmasked	CS_B	1pleas	distractor1	EVAbeforeCON	acq_US_pleas_masked	acq45_masked	4	29	400	0	300	300	0	0	689	50	0	1	0	0	0	1	blank2r.bmp	0	1	+	0	7	C3r.bmp	492	1	blank2r.bmp	786	1	BMVZ	786	1	blank2r.bmp	866	1	loyal	866	1	!	1239	1	!	-1	0	0	0	0	0	0	0	0	0	0	0	0	0	0	0	0	0	0	0	0	0	0	0	0	0	0	0
030619	15:11:17	15:22:32	673895	5.0.10.0	4_exp_EVA_AMP_AWA_CON	146	Rpleas_acq	Same	Rpleas	Bmasked	CS_B	1pleas	distractor1	EVAbeforeCON	acq_US_unple_masked	acq45_masked	4	30	400	0	300	300	0	0	628	46	0	1	0	0	0	1	blank2r.bmp	0	1	+	0	5	C1r.bmp	492	1	blank2r.bmp	786	1	GKQX	786	1	blank2r.bmp	866	3	schlecht	866	1	!	1239	1	!	-1	0	0	0	0	0	0	0	0	0	0	0	0	0	0	0	0	0	0	0	0	0	0	0	0	0	0	0
030619	15:11:17	15:22:34	676268	5.0.10.0	4_exp_EVA_AMP_AWA_CON	146	Rpleas_acq	Same	Rpleas	Bmasked	CS_B	1pleas	distractor1	EVAbeforeCON	acq_US_unple_masked	acq45_masked	4	31	400	0	300	300	0	0	585	46	0	1	0	0	0	1	blank2r.bmp	0	1	+	0	1	B1r.bmp	492	1	blank2r.bmp	786	1	GKQX	786	1	blank2r.bmp	866	1	lasch	866	1	!	1239	1	!	-1	0	0	0	0	0	0	0	0	0	0	0	0	0	0	0	0	0	0	0	0	0	0	0	0	0	0	0
030619	15:11:17	15:22:37	678653	5.0.10.0	4_exp_EVA_AMP_AWA_CON	146	Rpleas_acq	Same	Rpleas	Bmasked	CS_B	1pleas	distractor1	EVAbeforeCON	acq_US_unple_masked	acq45_masked	4	32	400	0	300	300	0	0	601	46	0	1	0	0	0	1	blank2r.bmp	0	1	+	0	2	B2r.bmp	492	1	blank2r.bmp	786	1	GKQX	786	1	blank2r.bmp	866	2	faul	866	1	!	1239	1	!	-1	0	0	0	0	0	0	0	0	0	0	0	0	0	0	0	0	0	0	0	0	0	0	0	0	0	0	0
030619	15:11:17	15:22:39	680999	5.0.10.0	4_exp_EVA_AMP_AWA_CON	146	Rpleas_acq	Same	Rpleas	Bmasked	CS_B	1pleas	distractor1	EVAbeforeCON	acq_US_pleas_masked	acq45_masked	4	33	400	0	300	300	0	0	563	50	0	1	0	0	0	1	blank2r.bmp	0	1	+	0	3	B3r.bmp	492	1	blank2r.bmp	786	1	BMVZ	786	1	blank2r.bmp	866	4	treu	866	1	!	1239	1	!	-1	0	0	0	0	0	0	0	0	0	0	0	0	0	0	0	0	0	0	0	0	0	0	0	0	0	0	0
030619	15:11:17	15:22:41	683318	5.0.10.0	4_exp_EVA_AMP_AWA_CON	146	Rpleas_acq	Same	Rpleas	Bmasked	CS_B	1pleas	distractor1	EVAbeforeCON	acq_US_pleas_masked	acq45_masked	4	34	400	0	300	300	0	0	535	50	0	1	0	0	0	1	blank2r.bmp	0	1	+	0	8	C4r.bmp	492	1	blank2r.bmp	786	1	BMVZ	786	1	blank2r.bmp	866	3	schön	866	1	!	1239	1	!	-1	0	0	0	0	0	0	0	0	0	0	0	0	0	0	0	0	0	0	0	0	0	0	0	0	0	0	0
030619	15:11:17	15:22:44	685650	5.0.10.0	4_exp_EVA_AMP_AWA_CON	146	Rpleas_acq	Same	Rpleas	Bmasked	CS_B	1pleas	distractor1	EVAbeforeCON	acq_US_pleas_masked	acq45_masked	4	35	400	0	300	300	0	0	554	50	0	1	0	0	0	1	blank2r.bmp	0	1	+	0	4	B4r.bmp	492	1	blank2r.bmp	786	1	BMVZ	786	1	blank2r.bmp	866	5	ehrlich	866	1	!	1239	1	!	-1	0	0	0	0	0	0	0	0	0	0	0	0	0	0	0	0	0	0	0	0	0	0	0	0	0	0	0
030619	15:11:17	15:22:46	688063	5.0.10.0	4_exp_EVA_AMP_AWA_CON	146	Rpleas_acq	Same	Rpleas	Bmasked	CS_B	1pleas	distractor1	EVAbeforeCON	acq_US_unple_masked	acq45_masked	4	36	400	0	300	300	0	0	624	46	0	1	0	0	0	1	blank2r.bmp	0	1	+	0	6	C2r.bmp	492	1	blank2r.bmp	786	1	GKQX	786	1	blank2r.bmp	866	5	eitel	866	1	!	1239	1	!	-1	0	0	0	0	0	0	0	0	0	0	0	0	0	0	0	0	0	0	0	0	0	0	0	0	0	0	0
030619	15:11:17	15:23:06	708214	5.0.10.0	4_exp_EVA_AMP_AWA_CON	146	Rpleas_acq	Same	Rpleas	Bmasked	CS_B	1pleas	distractor1	EVAbeforeCON	acq_US_unple_masked	acq45_masked	5	1	400	0	300	300	0	0	623	46	0	1	0	0	0	1	blank2r.bmp	0	1	+	0	3	B3r.bmp	492	1	blank2r.bmp	786	1	GKQX	786	1	blank2r.bmp	866	1	lasch	866	1	!	1239	1	!	-1	0	0	0	0	0	0	0	0	0	0	0	0	0	0	0	0	0	0	0	0	0	0	0	0	0	0	0
030619	15:11:17	15:23:09	710640	5.0.10.0	4_exp_EVA_AMP_AWA_CON	146	Rpleas_acq	Same	Rpleas	Bmasked	CS_B	1pleas	distractor1	EVAbeforeCON	acq_US_pleas_masked	acq45_masked	5	2	400	0	300	300	0	0	639	50	0	1	0	0	0	1	blank2r.bmp	0	1	+	0	4	B4r.bmp	492	1	blank2r.bmp	786	1	BMVZ	786	1	blank2r.bmp	866	1	loyal	866	1	!	1239	1	!	-1	0	0	0	0	0	0	0	0	0	0	0	0	0	0	0	0	0	0	0	0	0	0	0	0	0	0	0
030619	15:11:17	15:23:11	713146	5.0.10.0	4_exp_EVA_AMP_AWA_CON	146	Rpleas_acq	Same	Rpleas	Bmasked	CS_B	1pleas	distractor1	EVAbeforeCON	acq_US_pleas_masked	acq45_masked	5	3	400	0	300	300	0	0	709	50	0	1	0	0	0	1	blank2r.bmp	0	1	+	0	1	B1r.bmp	492	1	blank2r.bmp	786	1	BMVZ	786	1	blank2r.bmp	866	3	schön	866	1	!	1239	1	!	-1	0	0	0	0	0	0	0	0	0	0	0	0	0	0	0	0	0	0	0	0	0	0	0	0	0	0	0
030619	15:11:17	15:23:14	715571	5.0.10.0	4_exp_EVA_AMP_AWA_CON	146	Rpleas_acq	Same	Rpleas	Bmasked	CS_B	1pleas	distractor1	EVAbeforeCON	acq_US_pleas_masked	acq45_masked	5	4	400	0	300	300	0	0	648	50	0	1	0	0	0	1	blank2r.bmp	0	1	+	0	8	C4r.bmp	492	1	blank2r.bmp	786	1	BMVZ	786	1	blank2r.bmp	866	4	treu	866	1	!	1239	1	!	-1	0	0	0	0	0	0	0	0	0	0	0	0	0	0	0	0	0	0	0	0	0	0	0	0	0	0	0
030619	15:11:17	15:23:16	717984	5.0.10.0	4_exp_EVA_AMP_AWA_CON	146	Rpleas_acq	Same	Rpleas	Bmasked	CS_B	1pleas	distractor1	EVAbeforeCON	acq_US_pleas_masked	acq45_masked	5	5	400	0	300	300	0	0	620	50	0	1	0	0	0	1	blank2r.bmp	0	1	+	0	6	C2r.bmp	492	1	blank2r.bmp	786	1	BMVZ	786	1	blank2r.bmp	866	2	fair	866	1	!	1239	1	!	-1	0	0	0	0	0	0	0	0	0	0	0	0	0	0	0	0	0	0	0	0	0	0	0	0	0	0	0
030619	15:11:17	15:23:19	720463	5.0.10.0	4_exp_EVA_AMP_AWA_CON	146	Rpleas_acq	Same	Rpleas	Bmasked	CS_B	1pleas	distractor1	EVAbeforeCON	acq_US_unple_masked	acq45_masked	5	6	400	0	300	300	0	0	700	46	0	1	0	0	0	1	blank2r.bmp	0	1	+	0	5	C1r.bmp	492	1	blank2r.bmp	786	1	GKQX	786	1	blank2r.bmp	866	4	tot	866	1	!	1239	1	!	-1	0	0	0	0	0	0	0	0	0	0	0	0	0	0	0	0	0	0	0	0	0	0	0	0	0	0	0
030619	15:11:17	15:23:21	722742	5.0.10.0	4_exp_EVA_AMP_AWA_CON	146	Rpleas_acq	Same	Rpleas	Bmasked	CS_B	1pleas	distractor1	EVAbeforeCON	acq_US_pleas_masked	acq45_masked	5	7	400	0	300	300	0	0	501	50	0	1	0	0	0	1	blank2r.bmp	0	1	+	0	2	B2r.bmp	492	1	blank2r.bmp	786	1	BMVZ	786	1	blank2r.bmp	866	5	ehrlich	866	1	!	1239	1	!	-1	0	0	0	0	0	0	0	0	0	0	0	0	0	0	0	0	0	0	0	0	0	0	0	0	0	0	0
030619	15:11:17	15:23:23	725247	5.0.10.0	4_exp_EVA_AMP_AWA_CON	146	Rpleas_acq	Same	Rpleas	Bmasked	CS_B	1pleas	distractor1	EVAbeforeCON	acq_US_unple_masked	acq45_masked	5	8	400	0	300	300	0	0	722	46	0	1	0	0	0	1	blank2r.bmp	0	1	+	0	7	C3r.bmp	492	1	blank2r.bmp	786	1	GKQX	786	1	blank2r.bmp	866	2	faul	866	1	!	1239	1	!	-1	0	0	0	0	0	0	0	0	0	0	0	0	0	0	0	0	0	0	0	0	0	0	0	0	0	0	0
030619	15:11:17	15:23:26	727526	5.0.10.0	4_exp_EVA_AMP_AWA_CON	146	Rpleas_acq	Same	Rpleas	Bmasked	CS_B	1pleas	distractor1	EVAbeforeCON	acq_US_pleas_masked	acq45_masked	5	9	400	0	300	300	0	0	498	50	0	1	0	0	0	1	blank2r.bmp	0	1	+	0	3	B3r.bmp	492	1	blank2r.bmp	786	1	BMVZ	786	1	blank2r.bmp	866	6	freundlich	866	1	!	1239	1	!	-1	0	0	0	0	0	0	0	0	0	0	0	0	0	0	0	0	0	0	0	0	0	0	0	0	0	0	0
030619	15:11:17	15:23:28	729925	5.0.10.0	4_exp_EVA_AMP_AWA_CON	146	Rpleas_acq	Same	Rpleas	Bmasked	CS_B	1pleas	distractor1	EVAbeforeCON	acq_US_unple_masked	acq45_masked	5	10	400	0	300	300	0	0	614	46	0	1	0	0	0	1	blank2r.bmp	0	1	+	0	5	C1r.bmp	492	1	blank2r.bmp	786	1	GKQX	786	1	blank2r.bmp	866	3	schlecht	866	1	!	1239	1	!	-1	0	0	0	0	0	0	0	0	0	0	0	0	0	0	0	0	0	0	0	0	0	0	0	0	0	0	0
030619	15:11:17	15:23:30	732205	5.0.10.0	4_exp_EVA_AMP_AWA_CON	146	Rpleas_acq	Same	Rpleas	Bmasked	CS_B	1pleas	distractor1	EVAbeforeCON	acq_US_pleas_masked	acq45_masked	5	11	400	0	300	300	0	0	497	50	0	1	0	0	0	1	blank2r.bmp	0	1	+	0	8	C4r.bmp	492	1	blank2r.bmp	786	1	BMVZ	786	1	blank2r.bmp	866	2	fair	866	1	!	1239	1	!	-1	0	0	0	0	0	0	0	0	0	0	0	0	0	0	0	0	0	0	0	0	0	0	0	0	0	0	0
030619	15:11:17	15:23:33	734510	5.0.10.0	4_exp_EVA_AMP_AWA_CON	146	Rpleas_acq	Same	Rpleas	Bmasked	CS_B	1pleas	distractor1	EVAbeforeCON	acq_US_unple_masked	acq45_masked	5	12	400	0	300	300	0	0	520	50	0	0	0	0	0	1	blank2r.bmp	0	1	+	0	7	C3r.bmp	492	1	blank2r.bmp	786	1	GKQX	786	1	blank2r.bmp	866	6	fanatisch	866	1	!	1239	1	!	-1	0	0	0	0	0	0	0	0	0	0	0	0	0	0	0	0	0	0	0	0	0	0	0	0	0	0	0
030619	15:11:17	15:23:35	736803	5.0.10.0	4_exp_EVA_AMP_AWA_CON	146	Rpleas_acq	Same	Rpleas	Bmasked	CS_B	1pleas	distractor1	EVAbeforeCON	acq_US_pleas_masked	acq45_masked	5	13	400	0	300	300	0	0	515	50	0	1	0	0	0	1	blank2r.bmp	0	1	+	0	2	B2r.bmp	492	1	blank2r.bmp	786	1	BMVZ	786	1	blank2r.bmp	866	6	freundlich	866	1	!	1239	1	!	-1	0	0	0	0	0	0	0	0	0	0	0	0	0	0	0	0	0	0	0	0	0	0	0	0	0	0	0
030619	15:11:17	15:23:37	739122	5.0.10.0	4_exp_EVA_AMP_AWA_CON	146	Rpleas_acq	Same	Rpleas	Bmasked	CS_B	1pleas	distractor1	EVAbeforeCON	acq_US_unple_masked	acq45_masked	5	14	400	0	300	300	0	0	530	46	0	1	0	0	0	1	blank2r.bmp	0	1	+	0	4	B4r.bmp	492	1	blank2r.bmp	786	1	GKQX	786	1	blank2r.bmp	866	5	eitel	866	1	!	1239	1	!	-1	0	0	0	0	0	0	0	0	0	0	0	0	0	0	0	0	0	0	0	0	0	0	0	0	0	0	0
030619	15:11:17	15:23:40	741614	5.0.10.0	4_exp_EVA_AMP_AWA_CON	146	Rpleas_acq	Same	Rpleas	Bmasked	CS_B	1pleas	distractor1	EVAbeforeCON	acq_US_unple_masked	acq45_masked	5	15	400	0	300	300	0	0	705	46	0	1	0	0	0	1	blank2r.bmp	0	1	+	0	6	C2r.bmp	492	1	blank2r.bmp	786	1	GKQX	786	1	blank2r.bmp	866	1	lasch	866	1	!	1239	1	!	-1	0	0	0	0	0	0	0	0	0	0	0	0	0	0	0	0	0	0	0	0	0	0	0	0	0	0	0
030619	15:11:17	15:23:42	744040	5.0.10.0	4_exp_EVA_AMP_AWA_CON	146	Rpleas_acq	Same	Rpleas	Bmasked	CS_B	1pleas	distractor1	EVAbeforeCON	acq_US_unple_masked	acq45_masked	5	16	400	0	300	300	0	0	639	46	0	1	0	0	0	1	blank2r.bmp	0	1	+	0	1	B1r.bmp	492	1	blank2r.bmp	786	1	GKQX	786	1	blank2r.bmp	866	4	tot	866	1	!	1239	1	!	-1	0	0	0	0	0	0	0	0	0	0	0	0	0	0	0	0	0	0	0	0	0	0	0	0	0	0	0
030619	15:11:17	15:23:45	746612	5.0.10.0	4_exp_EVA_AMP_AWA_CON	146	Rpleas_acq	Same	Rpleas	Bmasked	CS_B	1pleas	distractor1	EVAbeforeCON	acq_US_unple_masked	acq45_masked	5	17	400	0	300	300	0	0	781	46	0	1	0	0	0	1	blank2r.bmp	0	1	+	0	8	C4r.bmp	492	1	blank2r.bmp	786	1	GKQX	786	1	blank2r.bmp	866	2	faul	866	1	!	1239	1	!	-1	0	0	0	0	0	0	0	0	0	0	0	0	0	0	0	0	0	0	0	0	0	0	0	0	0	0	0
030619	15:11:17	15:23:47	748864	5.0.10.0	4_exp_EVA_AMP_AWA_CON	146	Rpleas_acq	Same	Rpleas	Bmasked	CS_B	1pleas	distractor1	EVAbeforeCON	acq_US_pleas_masked	acq45_masked	5	18	400	1	300	300	0	0	439	50	0	1	0	0	0	1	blank2r.bmp	0	1	+	0	6	C2r.bmp	492	1	blank2r.bmp	786	1	BMVZ	786	1	blank2r.bmp	866	4	treu	866	1	!	1239	1	!	1346	0	0	0	0	0	0	0	0	0	0	0	0	0	0	0	0	0	0	0	0	0	0	0	0	0	0	0
030619	15:11:17	15:23:49	751223	5.0.10.0	4_exp_EVA_AMP_AWA_CON	146	Rpleas_acq	Same	Rpleas	Bmasked	CS_B	1pleas	distractor1	EVAbeforeCON	acq_US_unple_masked	acq45_masked	5	19	400	0	300	300	0	0	598	46	0	1	0	0	0	1	blank2r.bmp	0	1	+	0	3	B3r.bmp	492	1	blank2r.bmp	786	1	GKQX	786	1	blank2r.bmp	866	3	schlecht	866	1	!	1239	1	!	-1	0	0	0	0	0	0	0	0	0	0	0	0	0	0	0	0	0	0	0	0	0	0	0	0	0	0	0
030619	15:11:17	15:23:52	753582	5.0.10.0	4_exp_EVA_AMP_AWA_CON	146	Rpleas_acq	Same	Rpleas	Bmasked	CS_B	1pleas	distractor1	EVAbeforeCON	acq_US_pleas_masked	acq45_masked	5	20	400	0	300	300	0	0	583	50	0	1	0	0	0	1	blank2r.bmp	0	1	+	0	1	B1r.bmp	492	1	blank2r.bmp	786	1	BMVZ	786	1	blank2r.bmp	866	3	schön	866	1	!	1239	1	!	-1	0	0	0	0	0	0	0	0	0	0	0	0	0	0	0	0	0	0	0	0	0	0	0	0	0	0	0
030619	15:11:17	15:23:54	756181	5.0.10.0	4_exp_EVA_AMP_AWA_CON	146	Rpleas_acq	Same	Rpleas	Bmasked	CS_B	1pleas	distractor1	EVAbeforeCON	acq_US_pleas_masked	acq45_masked	5	21	400	0	300	300	0	0	824	50	0	1	0	0	0	1	blank2r.bmp	0	1	+	0	5	C1r.bmp	492	1	blank2r.bmp	786	1	BMVZ	786	1	blank2r.bmp	866	5	ehrlich	866	1	!	1239	1	!	-1	0	0	0	0	0	0	0	0	0	0	0	0	0	0	0	0	0	0	0	0	0	0	0	0	0	0	0
030619	15:11:17	15:23:57	758554	5.0.10.0	4_exp_EVA_AMP_AWA_CON	146	Rpleas_acq	Same	Rpleas	Bmasked	CS_B	1pleas	distractor1	EVAbeforeCON	acq_US_unple_masked	acq45_masked	5	22	400	0	300	300	0	0	598	46	0	1	0	0	0	1	blank2r.bmp	0	1	+	0	2	B2r.bmp	492	1	blank2r.bmp	786	1	GKQX	786	1	blank2r.bmp	866	5	eitel	866	1	!	1239	1	!	-1	0	0	0	0	0	0	0	0	0	0	0	0	0	0	0	0	0	0	0	0	0	0	0	0	0	0	0
030619	15:11:17	15:23:59	760846	5.0.10.0	4_exp_EVA_AMP_AWA_CON	146	Rpleas_acq	Same	Rpleas	Bmasked	CS_B	1pleas	distractor1	EVAbeforeCON	acq_US_pleas_masked	acq45_masked	5	23	400	0	300	300	0	0	507	50	0	1	0	0	0	1	blank2r.bmp	0	1	+	0	4	B4r.bmp	492	1	blank2r.bmp	786	1	BMVZ	786	1	blank2r.bmp	866	1	loyal	866	1	!	1239	1	!	-1	0	0	0	0	0	0	0	0	0	0	0	0	0	0	0	0	0	0	0	0	0	0	0	0	0	0	0
030619	15:11:17	15:24:01	763272	5.0.10.0	4_exp_EVA_AMP_AWA_CON	146	Rpleas_acq	Same	Rpleas	Bmasked	CS_B	1pleas	distractor1	EVAbeforeCON	acq_US_unple_masked	acq45_masked	5	24	400	0	300	300	0	0	648	50	0	0	0	0	0	1	blank2r.bmp	0	1	+	0	7	C3r.bmp	492	1	blank2r.bmp	786	1	GKQX	786	1	blank2r.bmp	866	6	fanatisch	866	1	!	1239	1	!	-1	0	0	0	0	0	0	0	0	0	0	0	0	0	0	0	0	0	0	0	0	0	0	0	0	0	0	0
030619	15:11:17	15:24:04	765537	5.0.10.0	4_exp_EVA_AMP_AWA_CON	146	Rpleas_acq	Same	Rpleas	Bmasked	CS_B	1pleas	distractor1	EVAbeforeCON	acq_US_unple_masked	acq45_masked	5	25	400	1	300	300	0	0	452	50	0	0	0	0	0	1	blank2r.bmp	0	1	+	0	5	C1r.bmp	492	1	blank2r.bmp	786	1	GKQX	786	1	blank2r.bmp	866	6	fanatisch	866	1	!	1239	1	!	1359	0	0	0	0	0	0	0	0	0	0	0	0	0	0	0	0	0	0	0	0	0	0	0	0	0	0	0
030619	15:11:17	15:24:06	767870	5.0.10.0	4_exp_EVA_AMP_AWA_CON	146	Rpleas_acq	Same	Rpleas	Bmasked	CS_B	1pleas	distractor1	EVAbeforeCON	acq_US_unple_masked	acq45_masked	5	26	400	0	300	300	0	0	571	46	0	1	0	0	0	1	blank2r.bmp	0	1	+	0	6	C2r.bmp	492	1	blank2r.bmp	786	1	GKQX	786	1	blank2r.bmp	866	5	eitel	866	1	!	1239	1	!	-1	0	0	0	0	0	0	0	0	0	0	0	0	0	0	0	0	0	0	0	0	0	0	0	0	0	0	0
030619	15:11:17	15:24:08	770189	5.0.10.0	4_exp_EVA_AMP_AWA_CON	146	Rpleas_acq	Same	Rpleas	Bmasked	CS_B	1pleas	distractor1	EVAbeforeCON	acq_US_pleas_masked	acq45_masked	5	27	400	0	300	300	0	0	532	50	0	1	0	0	0	1	blank2r.bmp	0	1	+	0	8	C4r.bmp	492	1	blank2r.bmp	786	1	BMVZ	786	1	blank2r.bmp	866	6	freundlich	866	1	!	1239	1	!	-1	0	0	0	0	0	0	0	0	0	0	0	0	0	0	0	0	0	0	0	0	0	0	0	0	0	0	0
030619	15:11:17	15:24:11	772761	5.0.10.0	4_exp_EVA_AMP_AWA_CON	146	Rpleas_acq	Same	Rpleas	Bmasked	CS_B	1pleas	distractor1	EVAbeforeCON	acq_US_pleas_masked	acq45_masked	5	28	400	0	300	300	0	0	786	50	0	1	0	0	0	1	blank2r.bmp	0	1	+	0	2	B2r.bmp	492	1	blank2r.bmp	786	1	BMVZ	786	1	blank2r.bmp	866	1	loyal	866	1	!	1239	1	!	-1	0	0	0	0	0	0	0	0	0	0	0	0	0	0	0	0	0	0	0	0	0	0	0	0	0	0	0
030619	15:11:17	15:24:13	775027	5.0.10.0	4_exp_EVA_AMP_AWA_CON	146	Rpleas_acq	Same	Rpleas	Bmasked	CS_B	1pleas	distractor1	EVAbeforeCON	acq_US_pleas_masked	acq45_masked	5	29	400	0	300	300	0	0	479	50	0	1	0	0	0	1	blank2r.bmp	0	1	+	0	1	B1r.bmp	492	1	blank2r.bmp	786	1	BMVZ	786	1	blank2r.bmp	866	4	treu	866	1	!	1239	1	!	-1	0	0	0	0	0	0	0	0	0	0	0	0	0	0	0	0	0	0	0	0	0	0	0	0	0	0	0
030619	15:11:17	15:24:15	777293	5.0.10.0	4_exp_EVA_AMP_AWA_CON	146	Rpleas_acq	Same	Rpleas	Bmasked	CS_B	1pleas	distractor1	EVAbeforeCON	acq_US_pleas_masked	acq45_masked	5	30	400	0	300	300	0	0	487	50	0	1	0	0	0	1	blank2r.bmp	0	1	+	0	7	C3r.bmp	492	1	blank2r.bmp	786	1	BMVZ	786	1	blank2r.bmp	866	3	schön	866	1	!	1239	1	!	-1	0	0	0	0	0	0	0	0	0	0	0	0	0	0	0	0	0	0	0	0	0	0	0	0	0	0	0
030619	15:11:17	15:24:18	779638	5.0.10.0	4_exp_EVA_AMP_AWA_CON	146	Rpleas_acq	Same	Rpleas	Bmasked	CS_B	1pleas	distractor1	EVAbeforeCON	acq_US_unple_masked	acq45_masked	5	31	400	0	300	300	0	0	569	46	0	1	0	0	0	1	blank2r.bmp	0	1	+	0	3	B3r.bmp	492	1	blank2r.bmp	786	1	GKQX	786	1	blank2r.bmp	866	1	lasch	866	1	!	1239	1	!	-1	0	0	0	0	0	0	0	0	0	0	0	0	0	0	0	0	0	0	0	0	0	0	0	0	0	0	0
030619	15:11:17	15:24:20	781917	5.0.10.0	4_exp_EVA_AMP_AWA_CON	146	Rpleas_acq	Same	Rpleas	Bmasked	CS_B	1pleas	distractor1	EVAbeforeCON	acq_US_pleas_masked	acq45_masked	5	32	400	0	300	300	0	0	479	50	0	1	0	0	0	1	blank2r.bmp	0	1	+	0	4	B4r.bmp	492	1	blank2r.bmp	786	1	BMVZ	786	1	blank2r.bmp	866	2	fair	866	1	!	1239	1	!	-1	0	0	0	0	0	0	0	0	0	0	0	0	0	0	0	0	0	0	0	0	0	0	0	0	0	0	0
030619	15:11:17	15:24:22	784263	5.0.10.0	4_exp_EVA_AMP_AWA_CON	146	Rpleas_acq	Same	Rpleas	Bmasked	CS_B	1pleas	distractor1	EVAbeforeCON	acq_US_unple_masked	acq45_masked	5	33	400	0	300	300	0	0	550	46	0	1	0	0	0	1	blank2r.bmp	0	1	+	0	2	B2r.bmp	492	1	blank2r.bmp	786	1	GKQX	786	1	blank2r.bmp	866	4	tot	866	1	!	1239	1	!	-1	0	0	0	0	0	0	0	0	0	0	0	0	0	0	0	0	0	0	0	0	0	0	0	0	0	0	0
030619	15:11:17	15:24:25	786715	5.0.10.0	4_exp_EVA_AMP_AWA_CON	146	Rpleas_acq	Same	Rpleas	Bmasked	CS_B	1pleas	distractor1	EVAbeforeCON	acq_US_unple_masked	acq45_masked	5	34	400	0	300	300	0	0	674	46	0	1	0	0	0	1	blank2r.bmp	0	1	+	0	5	C1r.bmp	492	1	blank2r.bmp	786	1	GKQX	786	1	blank2r.bmp	866	3	schlecht	866	1	!	1239	1	!	-1	0	0	0	0	0	0	0	0	0	0	0	0	0	0	0	0	0	0	0	0	0	0	0	0	0	0	0
030619	15:11:17	15:24:27	789048	5.0.10.0	4_exp_EVA_AMP_AWA_CON	146	Rpleas_acq	Same	Rpleas	Bmasked	CS_B	1pleas	distractor1	EVAbeforeCON	acq_US_pleas_masked	acq45_masked	5	35	400	0	300	300	0	0	546	50	0	1	0	0	0	1	blank2r.bmp	0	1	+	0	6	C2r.bmp	492	1	blank2r.bmp	786	1	BMVZ	786	1	blank2r.bmp	866	5	ehrlich	866	1	!	1239	1	!	-1	0	0	0	0	0	0	0	0	0	0	0	0	0	0	0	0	0	0	0	0	0	0	0	0	0	0	0
030619	15:11:17	15:24:30	791540	5.0.10.0	4_exp_EVA_AMP_AWA_CON	146	Rpleas_acq	Same	Rpleas	Bmasked	CS_B	1pleas	distractor1	EVAbeforeCON	acq_US_unple_masked	acq45_masked	5	36	400	0	300	300	0	0	714	46	0	1	0	0	0	1	blank2r.bmp	0	1	+	0	4	B4r.bmp	492	1	blank2r.bmp	786	1	GKQX	786	1	blank2r.bmp	866	2	faul	866	1	!	1239	1	!	-1	0	0	0	0	0	0	0	0	0	0	0	0	0	0	0	0	0	0	0	0	0	0	0	0	0	0	0
030619	15:11:17	15:25:07	829258	5.0.10.0	4_exp_EVA_AMP_AWA_CON	146	Rpleas_acq	Same	Rpleas	Bmasked	CS_B	1pleas	distractor1	EVAbeforeCON	EvalRating_firsttwo	EvalRating_firsttwo	6	1	0	0	300	300	0	0	4908	line	-25,146484375	0	0	0	0	1	eraser	0	1	Wie angenehm oder unangenehm finden Sie die  Buchstabenkette WFPH?	0	1	leftborder	0	1	rightborder	0	1	line	0	1	Unangenehm	0	1	Angenehm	0	0	0	0	0	0	0	0	0	0	0	0	0	0	0	0	0	0	0	0	0	0	0	0	0	0	0	0	0	0	0	0	0	0
030619	15:11:17	15:25:13	835189	5.0.10.0	4_exp_EVA_AMP_AWA_CON	146	Rpleas_acq	Same	Rpleas	Bmasked	CS_B	1pleas	distractor1	EVAbeforeCON	EvalRating_lastfour	EvalRating_lastfour	7	1	0	0	300	300	0	0	3488	line	-15,625	0	0	0	0	1	eraser	1	1	Wie angenehm oder unangenehm finden Sie die  Buchstabenkette BMVZ?	1	1	leftborder	1	1	rightborder	1	1	line	1	1	Unangenehm	1	1	Angenehm	1	0	0	0	0	0	0	0	0	0	0	0	0	0	0	0	0	0	0	0	0	0	0	0	0	0	0	0	0	0	0	0	0	0
030619	15:11:17	15:25:16	837575	5.0.10.0	4_exp_EVA_AMP_AWA_CON	146	Rpleas_acq	Same	Rpleas	Bmasked	CS_B	1pleas	distractor1	EVAbeforeCON	blank_screen	EvalRating_lastfour	7	3	0	0	300	300	0	0	0	0	-15,625	0	0	0	0	1	eraser	0	0	0	0	0	0	0	0	0	0	0	0	0	0	0	0	0	0	0	0	0	0	0	0	0	0	0	0	0	0	0	0	0	0	0	0	0	0	0	0	0	0	0	0	0	0	0	0	0	0	0	0
030619	15:11:17	15:25:20	842133	5.0.10.0	4_exp_EVA_AMP_AWA_CON	146	Rpleas_acq	Same	Rpleas	Bmasked	CS_B	1pleas	distractor1	EVAbeforeCON	EvalRating_lastfour	EvalRating_lastfour	7	4	0	0	300	300	0	0	3969	line	-12,20703125	0	0	0	0	1	eraser	1	2	Wie angenehm oder unangenehm finden Sie die  Buchstabenkette GKQX?	1	1	leftborder	1	1	rightborder	1	1	line	1	1	Unangenehm	1	1	Angenehm	1	0	0	0	0	0	0	0	0	0	0	0	0	0	0	0	0	0	0	0	0	0	0	0	0	0	0	0	0	0	0	0	0	0
030619	15:11:17	15:25:23	844505	5.0.10.0	4_exp_EVA_AMP_AWA_CON	146	Rpleas_acq	Same	Rpleas	Bmasked	CS_B	1pleas	distractor1	EVAbeforeCON	blank_screen	EvalRating_lastfour	7	6	0	0	300	300	0	0	0	0	-12,20703125	0	0	0	0	1	eraser	0	0	0	0	0	0	0	0	0	0	0	0	0	0	0	0	0	0	0	0	0	0	0	0	0	0	0	0	0	0	0	0	0	0	0	0	0	0	0	0	0	0	0	0	0	0	0	0	0	0	0	0
030619	15:11:17	15:25:26	848237	5.0.10.0	4_exp_EVA_AMP_AWA_CON	146	Rpleas_acq	Same	Rpleas	Bmasked	CS_B	1pleas	distractor1	EVAbeforeCON	EvalRating_lastfour	EvalRating_lastfour	7	7	0	0	300	300	0	0	3157	line	-14,6484375	0	0	0	0	1	eraser	0	3	Wie angenehm oder unangenehm finden Sie die  Buchstabenkette JCRD?	0	1	leftborder	0	1	rightborder	0	1	line	0	1	Unangenehm	0	1	Angenehm	0	0	0	0	0	0	0	0	0	0	0	0	0	0	0	0	0	0	0	0	0	0	0	0	0	0	0	0	0	0	0	0	0	0
030619	15:11:17	15:26:38	919647	5.0.10.0	4_exp_EVA_AMP_AWA_CON	146	Rpleas_acq	Same	Rpleas	Bmasked	CS_B	1pleas	distractor1	EVAbeforeCON	AMP_CSpleas	AMP1_masked	8	1	0	0	300	300	0	0	2976	50	-14,6484375	1	0	0	0	1	blank2r.bmp	0	1	BMVZ	0	1	blank2r.bmp	79	39	pic39.bmp	199	1	whitenoise_No3.bmp	306	0	0	0	0	0	0	0	0	0	0	0	0	0	0	0	0	0	0	0	0	0	0	0	0	0	0	0	0	0	0	0	0	0	0	0	0	0	0	0
030619	15:11:17	15:26:41	922846	5.0.10.0	4_exp_EVA_AMP_AWA_CON	146	Rpleas_acq	Same	Rpleas	Bmasked	CS_B	1pleas	distractor1	EVAbeforeCON	AMP_distractor	AMP1_masked	8	2	0	0	300	300	0	0	2283	46	-14,6484375	0	0	0	0	1	blank2r.bmp	0	1	WFPH	0	1	blank2r.bmp	79	96	pic96.bmp	199	1	whitenoise_No3.bmp	306	0	0	0	0	0	0	0	0	0	0	0	0	0	0	0	0	0	0	0	0	0	0	0	0	0	0	0	0	0	0	0	0	0	0	0	0	0	0	0
030619	15:11:17	15:26:44	926151	5.0.10.0	4_exp_EVA_AMP_AWA_CON	146	Rpleas_acq	Same	Rpleas	Bmasked	CS_B	1pleas	distractor1	EVAbeforeCON	AMP_CSunple	AMP1_masked	8	3	0	0	300	300	0	0	2387	46	-14,6484375	1	0	0	0	1	blank2r.bmp	0	1	GKQX	0	1	blank2r.bmp	79	62	pic62.bmp	199	1	whitenoise_No3.bmp	306	0	0	0	0	0	0	0	0	0	0	0	0	0	0	0	0	0	0	0	0	0	0	0	0	0	0	0	0	0	0	0	0	0	0	0	0	0	0	0
030619	15:11:17	15:26:47	929323	5.0.10.0	4_exp_EVA_AMP_AWA_CON	146	Rpleas_acq	Same	Rpleas	Bmasked	CS_B	1pleas	distractor1	EVAbeforeCON	AMP_distractor	AMP1_masked	8	4	0	0	300	300	0	0	2239	50	-14,6484375	0	0	0	0	1	blank2r.bmp	0	1	WFPH	0	1	blank2r.bmp	79	42	pic42.bmp	199	1	whitenoise_No3.bmp	306	0	0	0	0	0	0	0	0	0	0	0	0	0	0	0	0	0	0	0	0	0	0	0	0	0	0	0	0	0	0	0	0	0	0	0	0	0	0	0
030619	15:11:17	15:26:50	931976	5.0.10.0	4_exp_EVA_AMP_AWA_CON	146	Rpleas_acq	Same	Rpleas	Bmasked	CS_B	1pleas	distractor1	EVAbeforeCON	AMP_CSpleas	AMP1_masked	8	5	0	0	300	300	0	0	1741	50	-14,6484375	1	0	0	0	1	blank2r.bmp	0	1	BMVZ	0	1	blank2r.bmp	79	60	pic60.bmp	199	1	whitenoise_No3.bmp	306	0	0	0	0	0	0	0	0	0	0	0	0	0	0	0	0	0	0	0	0	0	0	0	0	0	0	0	0	0	0	0	0	0	0	0	0	0	0	0
030619	15:11:17	15:26:52	934228	5.0.10.0	4_exp_EVA_AMP_AWA_CON	146	Rpleas_acq	Same	Rpleas	Bmasked	CS_B	1pleas	distractor1	EVAbeforeCON	AMP_CSunple	AMP1_masked	8	6	0	0	300	300	0	0	1319	50	-14,6484375	0	0	0	0	1	blank2r.bmp	0	1	GKQX	0	1	blank2r.bmp	79	9	pic9.bmp	199	1	whitenoise_No3.bmp	306	0	0	0	0	0	0	0	0	0	0	0	0	0	0	0	0	0	0	0	0	0	0	0	0	0	0	0	0	0	0	0	0	0	0	0	0	0	0	0
030619	15:11:17	15:26:55	936640	5.0.10.0	4_exp_EVA_AMP_AWA_CON	146	Rpleas_acq	Same	Rpleas	Bmasked	CS_B	1pleas	distractor1	EVAbeforeCON	AMP_CSpleas	AMP1_masked	8	7	0	0	300	300	0	0	1493	50	-14,6484375	1	0	0	0	1	blank2r.bmp	0	1	BMVZ	0	1	blank2r.bmp	79	10	pic10.bmp	199	1	whitenoise_No3.bmp	306	0	0	0	0	0	0	0	0	0	0	0	0	0	0	0	0	0	0	0	0	0	0	0	0	0	0	0	0	0	0	0	0	0	0	0	0	0	0	0
030619	15:11:17	15:26:57	938640	5.0.10.0	4_exp_EVA_AMP_AWA_CON	146	Rpleas_acq	Same	Rpleas	Bmasked	CS_B	1pleas	distractor1	EVAbeforeCON	AMP_CSunple	AMP1_masked	8	8	0	0	300	300	0	0	1079	46	-14,6484375	1	0	0	0	1	blank2r.bmp	0	1	GKQX	0	1	blank2r.bmp	79	110	pic110.bmp	199	1	whitenoise_No3.bmp	306	0	0	0	0	0	0	0	0	0	0	0	0	0	0	0	0	0	0	0	0	0	0	0	0	0	0	0	0	0	0	0	0	0	0	0	0	0	0	0
030619	15:11:17	15:26:59	940719	5.0.10.0	4_exp_EVA_AMP_AWA_CON	146	Rpleas_acq	Same	Rpleas	Bmasked	CS_B	1pleas	distractor1	EVAbeforeCON	AMP_CSunple	AMP1_masked	8	9	0	0	300	300	0	0	1169	50	-14,6484375	0	0	0	0	1	blank2r.bmp	0	1	GKQX	0	1	blank2r.bmp	79	49	pic49.bmp	199	1	whitenoise_No3.bmp	306	0	0	0	0	0	0	0	0	0	0	0	0	0	0	0	0	0	0	0	0	0	0	0	0	0	0	0	0	0	0	0	0	0	0	0	0	0	0	0
030619	15:11:17	15:27:02	943558	5.0.10.0	4_exp_EVA_AMP_AWA_CON	146	Rpleas_acq	Same	Rpleas	Bmasked	CS_B	1pleas	distractor1	EVAbeforeCON	AMP_CSunple	AMP1_masked	8	10	0	0	300	300	0	0	1909	50	-14,6484375	0	0	0	0	1	blank2r.bmp	0	1	GKQX	0	1	blank2r.bmp	79	16	pic16.bmp	199	1	whitenoise_No3.bmp	306	0	0	0	0	0	0	0	0	0	0	0	0	0	0	0	0	0	0	0	0	0	0	0	0	0	0	0	0	0	0	0	0	0	0	0	0	0	0	0
030619	15:11:17	15:27:04	945677	5.0.10.0	4_exp_EVA_AMP_AWA_CON	146	Rpleas_acq	Same	Rpleas	Bmasked	CS_B	1pleas	distractor1	EVAbeforeCON	AMP_CSunple	AMP1_masked	8	11	0	0	300	300	0	0	1189	50	-14,6484375	0	0	0	0	1	blank2r.bmp	0	1	GKQX	0	1	blank2r.bmp	79	146	pic146.bmp	199	1	whitenoise_No3.bmp	306	0	0	0	0	0	0	0	0	0	0	0	0	0	0	0	0	0	0	0	0	0	0	0	0	0	0	0	0	0	0	0	0	0	0	0	0	0	0	0
030619	15:11:17	15:27:06	948262	5.0.10.0	4_exp_EVA_AMP_AWA_CON	146	Rpleas_acq	Same	Rpleas	Bmasked	CS_B	1pleas	distractor1	EVAbeforeCON	AMP_distractor	AMP1_masked	8	12	0	0	300	300	0	0	1678	46	-14,6484375	0	0	0	0	1	blank2r.bmp	0	1	WFPH	0	1	blank2r.bmp	79	143	pic143.bmp	199	1	whitenoise_No3.bmp	306	0	0	0	0	0	0	0	0	0	0	0	0	0	0	0	0	0	0	0	0	0	0	0	0	0	0	0	0	0	0	0	0	0	0	0	0	0	0	0
030619	15:11:17	15:27:09	950621	5.0.10.0	4_exp_EVA_AMP_AWA_CON	146	Rpleas_acq	Same	Rpleas	Bmasked	CS_B	1pleas	distractor1	EVAbeforeCON	AMP_CSunple	AMP1_masked	8	13	0	0	300	300	0	0	1436	46	-14,6484375	1	0	0	0	1	blank2r.bmp	0	1	GKQX	0	1	blank2r.bmp	79	73	pic73.bmp	199	1	whitenoise_No3.bmp	306	0	0	0	0	0	0	0	0	0	0	0	0	0	0	0	0	0	0	0	0	0	0	0	0	0	0	0	0	0	0	0	0	0	0	0	0	0	0	0
030619	15:11:17	15:27:11	952754	5.0.10.0	4_exp_EVA_AMP_AWA_CON	146	Rpleas_acq	Same	Rpleas	Bmasked	CS_B	1pleas	distractor1	EVAbeforeCON	AMP_CSpleas	AMP1_masked	8	14	0	0	300	300	0	0	1208	46	-14,6484375	0	0	0	0	1	blank2r.bmp	0	1	BMVZ	0	1	blank2r.bmp	79	43	pic43.bmp	199	1	whitenoise_No3.bmp	306	0	0	0	0	0	0	0	0	0	0	0	0	0	0	0	0	0	0	0	0	0	0	0	0	0	0	0	0	0	0	0	0	0	0	0	0	0	0	0
030619	15:11:17	15:27:13	954726	5.0.10.0	4_exp_EVA_AMP_AWA_CON	146	Rpleas_acq	Same	Rpleas	Bmasked	CS_B	1pleas	distractor1	EVAbeforeCON	AMP_distractor	AMP1_masked	8	15	0	0	300	300	0	0	1048	46	-14,6484375	0	0	0	0	1	blank2r.bmp	0	1	WFPH	0	1	blank2r.bmp	79	23	pic23.bmp	199	1	whitenoise_No3.bmp	306	0	0	0	0	0	0	0	0	0	0	0	0	0	0	0	0	0	0	0	0	0	0	0	0	0	0	0	0	0	0	0	0	0	0	0	0	0	0	0
030619	15:11:17	15:27:15	957112	5.0.10.0	4_exp_EVA_AMP_AWA_CON	146	Rpleas_acq	Same	Rpleas	Bmasked	CS_B	1pleas	distractor1	EVAbeforeCON	AMP_distractor	AMP1_masked	8	16	0	0	300	300	0	0	1455	46	-14,6484375	0	0	0	0	1	blank2r.bmp	0	1	WFPH	0	1	blank2r.bmp	79	93	pic93.bmp	199	1	whitenoise_No3.bmp	306	0	0	0	0	0	0	0	0	0	0	0	0	0	0	0	0	0	0	0	0	0	0	0	0	0	0	0	0	0	0	0	0	0	0	0	0	0	0	0
030619	15:11:17	15:27:17	959178	5.0.10.0	4_exp_EVA_AMP_AWA_CON	146	Rpleas_acq	Same	Rpleas	Bmasked	CS_B	1pleas	distractor1	EVAbeforeCON	AMP_distractor	AMP1_masked	8	17	0	0	300	300	0	0	1154	50	-14,6484375	0	0	0	0	1	blank2r.bmp	0	1	WFPH	0	1	blank2r.bmp	79	4	pic4.bmp	199	1	whitenoise_No3.bmp	306	0	0	0	0	0	0	0	0	0	0	0	0	0	0	0	0	0	0	0	0	0	0	0	0	0	0	0	0	0	0	0	0	0	0	0	0	0	0	0
030619	15:11:17	15:27:20	961457	5.0.10.0	4_exp_EVA_AMP_AWA_CON	146	Rpleas_acq	Same	Rpleas	Bmasked	CS_B	1pleas	distractor1	EVAbeforeCON	AMP_distractor	AMP1_masked	8	18	0	0	300	300	0	0	1366	46	-14,6484375	0	0	0	0	1	blank2r.bmp	0	1	WFPH	0	1	blank2r.bmp	79	131	pic131.bmp	199	1	whitenoise_No3.bmp	306	0	0	0	0	0	0	0	0	0	0	0	0	0	0	0	0	0	0	0	0	0	0	0	0	0	0	0	0	0	0	0	0	0	0	0	0	0	0	0
030619	15:11:17	15:27:22	963656	5.0.10.0	4_exp_EVA_AMP_AWA_CON	146	Rpleas_acq	Same	Rpleas	Bmasked	CS_B	1pleas	distractor1	EVAbeforeCON	AMP_CSunple	AMP1_masked	8	19	0	0	300	300	0	0	1288	50	-14,6484375	0	0	0	0	1	blank2r.bmp	0	1	GKQX	0	1	blank2r.bmp	79	68	pic68.bmp	199	1	whitenoise_No3.bmp	306	0	0	0	0	0	0	0	0	0	0	0	0	0	0	0	0	0	0	0	0	0	0	0	0	0	0	0	0	0	0	0	0	0	0	0	0	0	0	0
030619	15:11:17	15:27:24	965815	5.0.10.0	4_exp_EVA_AMP_AWA_CON	146	Rpleas_acq	Same	Rpleas	Bmasked	CS_B	1pleas	distractor1	EVAbeforeCON	AMP_CSunple	AMP1_masked	8	20	0	0	300	300	0	0	1251	46	-14,6484375	1	0	0	0	1	blank2r.bmp	0	1	GKQX	0	1	blank2r.bmp	79	8	pic8.bmp	199	1	whitenoise_No3.bmp	306	0	0	0	0	0	0	0	0	0	0	0	0	0	0	0	0	0	0	0	0	0	0	0	0	0	0	0	0	0	0	0	0	0	0	0	0	0	0	0
030619	15:11:17	15:27:26	967774	5.0.10.0	4_exp_EVA_AMP_AWA_CON	146	Rpleas_acq	Same	Rpleas	Bmasked	CS_B	1pleas	distractor1	EVAbeforeCON	AMP_CSpleas	AMP1_masked	8	21	0	0	300	300	0	0	1026	50	-14,6484375	1	0	0	0	1	blank2r.bmp	0	1	BMVZ	0	1	blank2r.bmp	79	84	pic84.bmp	199	1	whitenoise_No3.bmp	306	0	0	0	0	0	0	0	0	0	0	0	0	0	0	0	0	0	0	0	0	0	0	0	0	0	0	0	0	0	0	0	0	0	0	0	0	0	0	0
030619	15:11:17	15:27:28	969973	5.0.10.0	4_exp_EVA_AMP_AWA_CON	146	Rpleas_acq	Same	Rpleas	Bmasked	CS_B	1pleas	distractor1	EVAbeforeCON	AMP_CSunple	AMP1_masked	8	22	0	0	300	300	0	0	1279	50	-14,6484375	0	0	0	0	1	blank2r.bmp	0	1	GKQX	0	1	blank2r.bmp	79	125	pic125.bmp	199	1	whitenoise_No3.bmp	306	0	0	0	0	0	0	0	0	0	0	0	0	0	0	0	0	0	0	0	0	0	0	0	0	0	0	0	0	0	0	0	0	0	0	0	0	0	0	0
030619	15:11:17	15:27:30	972093	5.0.10.0	4_exp_EVA_AMP_AWA_CON	146	Rpleas_acq	Same	Rpleas	Bmasked	CS_B	1pleas	distractor1	EVAbeforeCON	AMP_CSpleas	AMP1_masked	8	23	0	0	300	300	0	0	1200	50	-14,6484375	1	0	0	0	1	blank2r.bmp	0	1	BMVZ	0	1	blank2r.bmp	79	151	pic151.bmp	199	1	whitenoise_No3.bmp	306	0	0	0	0	0	0	0	0	0	0	0	0	0	0	0	0	0	0	0	0	0	0	0	0	0	0	0	0	0	0	0	0	0	0	0	0	0	0	0
030619	15:11:17	15:27:32	974065	5.0.10.0	4_exp_EVA_AMP_AWA_CON	146	Rpleas_acq	Same	Rpleas	Bmasked	CS_B	1pleas	distractor1	EVAbeforeCON	AMP_distractor	AMP1_masked	8	24	0	0	300	300	0	0	1044	46	-14,6484375	0	0	0	0	1	blank2r.bmp	0	1	WFPH	0	1	blank2r.bmp	79	14	pic14.bmp	199	1	whitenoise_No3.bmp	306	0	0	0	0	0	0	0	0	0	0	0	0	0	0	0	0	0	0	0	0	0	0	0	0	0	0	0	0	0	0	0	0	0	0	0	0	0	0	0
030619	15:11:17	15:27:34	975918	5.0.10.0	4_exp_EVA_AMP_AWA_CON	146	Rpleas_acq	Same	Rpleas	Bmasked	CS_B	1pleas	distractor1	EVAbeforeCON	AMP_CSpleas	AMP1_masked	8	25	0	0	300	300	0	0	943	50	-14,6484375	1	0	0	0	1	blank2r.bmp	0	1	BMVZ	0	1	blank2r.bmp	79	65	pic65.bmp	199	1	whitenoise_No3.bmp	306	0	0	0	0	0	0	0	0	0	0	0	0	0	0	0	0	0	0	0	0	0	0	0	0	0	0	0	0	0	0	0	0	0	0	0	0	0	0	0
030619	15:11:17	15:27:36	977957	5.0.10.0	4_exp_EVA_AMP_AWA_CON	146	Rpleas_acq	Same	Rpleas	Bmasked	CS_B	1pleas	distractor1	EVAbeforeCON	AMP_distractor	AMP1_masked	8	26	0	0	300	300	0	0	1128	50	-14,6484375	0	0	0	0	1	blank2r.bmp	0	1	WFPH	0	1	blank2r.bmp	79	36	pic36.bmp	199	1	whitenoise_No3.bmp	306	0	0	0	0	0	0	0	0	0	0	0	0	0	0	0	0	0	0	0	0	0	0	0	0	0	0	0	0	0	0	0	0	0	0	0	0	0	0	0
030619	15:11:17	15:27:38	979783	5.0.10.0	4_exp_EVA_AMP_AWA_CON	146	Rpleas_acq	Same	Rpleas	Bmasked	CS_B	1pleas	distractor1	EVAbeforeCON	AMP_CSunple	AMP1_masked	8	27	0	0	300	300	0	0	902	50	-14,6484375	0	0	0	0	1	blank2r.bmp	0	1	GKQX	0	1	blank2r.bmp	79	124	pic124.bmp	199	1	whitenoise_No3.bmp	306	0	0	0	0	0	0	0	0	0	0	0	0	0	0	0	0	0	0	0	0	0	0	0	0	0	0	0	0	0	0	0	0	0	0	0	0	0	0	0
030619	15:11:17	15:27:40	981915	5.0.10.0	4_exp_EVA_AMP_AWA_CON	146	Rpleas_acq	Same	Rpleas	Bmasked	CS_B	1pleas	distractor1	EVAbeforeCON	AMP_distractor	AMP1_masked	8	28	0	0	300	300	0	0	1205	50	-14,6484375	0	0	0	0	1	blank2r.bmp	0	1	WFPH	0	1	blank2r.bmp	79	21	pic21.bmp	199	1	whitenoise_No3.bmp	306	0	0	0	0	0	0	0	0	0	0	0	0	0	0	0	0	0	0	0	0	0	0	0	0	0	0	0	0	0	0	0	0	0	0	0	0	0	0	0
030619	15:11:17	15:27:42	983888	5.0.10.0	4_exp_EVA_AMP_AWA_CON	146	Rpleas_acq	Same	Rpleas	Bmasked	CS_B	1pleas	distractor1	EVAbeforeCON	AMP_CSunple	AMP1_masked	8	29	0	0	300	300	0	0	1042	46	-14,6484375	1	0	0	0	1	blank2r.bmp	0	1	GKQX	0	1	blank2r.bmp	79	147	pic147.bmp	199	1	whitenoise_No3.bmp	306	0	0	0	0	0	0	0	0	0	0	0	0	0	0	0	0	0	0	0	0	0	0	0	0	0	0	0	0	0	0	0	0	0	0	0	0	0	0	0
030619	15:11:17	15:27:44	985754	5.0.10.0	4_exp_EVA_AMP_AWA_CON	146	Rpleas_acq	Same	Rpleas	Bmasked	CS_B	1pleas	distractor1	EVAbeforeCON	AMP_CSpleas	AMP1_masked	8	30	0	0	300	300	0	0	934	50	-14,6484375	1	0	0	0	1	blank2r.bmp	0	1	BMVZ	0	1	blank2r.bmp	79	47	pic47.bmp	199	1	whitenoise_No3.bmp	306	0	0	0	0	0	0	0	0	0	0	0	0	0	0	0	0	0	0	0	0	0	0	0	0	0	0	0	0	0	0	0	0	0	0	0	0	0	0	0
030619	15:11:17	15:27:46	988006	5.0.10.0	4_exp_EVA_AMP_AWA_CON	146	Rpleas_acq	Same	Rpleas	Bmasked	CS_B	1pleas	distractor1	EVAbeforeCON	AMP_CSpleas	AMP1_masked	8	31	0	0	300	300	0	0	1343	50	-14,6484375	1	0	0	0	1	blank2r.bmp	0	1	BMVZ	0	1	blank2r.bmp	79	54	pic54.bmp	199	1	whitenoise_No3.bmp	306	0	0	0	0	0	0	0	0	0	0	0	0	0	0	0	0	0	0	0	0	0	0	0	0	0	0	0	0	0	0	0	0	0	0	0	0	0	0	0
030619	15:11:17	15:27:48	989699	5.0.10.0	4_exp_EVA_AMP_AWA_CON	146	Rpleas_acq	Same	Rpleas	Bmasked	CS_B	1pleas	distractor1	EVAbeforeCON	AMP_CSunple	AMP1_masked	8	32	0	0	300	300	0	0	767	46	-14,6484375	1	0	0	0	1	blank2r.bmp	0	1	GKQX	0	1	blank2r.bmp	79	30	pic30.bmp	199	1	whitenoise_No3.bmp	306	0	0	0	0	0	0	0	0	0	0	0	0	0	0	0	0	0	0	0	0	0	0	0	0	0	0	0	0	0	0	0	0	0	0	0	0	0	0	0
030619	15:11:17	15:27:50	991418	5.0.10.0	4_exp_EVA_AMP_AWA_CON	146	Rpleas_acq	Same	Rpleas	Bmasked	CS_B	1pleas	distractor1	EVAbeforeCON	AMP_CSpleas	AMP1_masked	8	33	0	0	300	300	0	0	788	50	-14,6484375	1	0	0	0	1	blank2r.bmp	0	1	BMVZ	0	1	blank2r.bmp	79	136	pic136.bmp	199	1	whitenoise_No3.bmp	306	0	0	0	0	0	0	0	0	0	0	0	0	0	0	0	0	0	0	0	0	0	0	0	0	0	0	0	0	0	0	0	0	0	0	0	0	0	0	0
030619	15:11:17	15:27:52	993444	5.0.10.0	4_exp_EVA_AMP_AWA_CON	146	Rpleas_acq	Same	Rpleas	Bmasked	CS_B	1pleas	distractor1	EVAbeforeCON	AMP_distractor	AMP1_masked	8	34	0	0	300	300	0	0	1104	46	-14,6484375	0	0	0	0	1	blank2r.bmp	0	1	WFPH	0	1	blank2r.bmp	79	53	pic53.bmp	199	1	whitenoise_No3.bmp	306	0	0	0	0	0	0	0	0	0	0	0	0	0	0	0	0	0	0	0	0	0	0	0	0	0	0	0	0	0	0	0	0	0	0	0	0	0	0	0
030619	15:11:17	15:27:53	995363	5.0.10.0	4_exp_EVA_AMP_AWA_CON	146	Rpleas_acq	Same	Rpleas	Bmasked	CS_B	1pleas	distractor1	EVAbeforeCON	AMP_CSunple	AMP1_masked	8	35	0	0	300	300	0	0	989	50	-14,6484375	0	0	0	0	1	blank2r.bmp	0	1	GKQX	0	1	blank2r.bmp	79	38	pic38.bmp	199	1	whitenoise_No3.bmp	306	0	0	0	0	0	0	0	0	0	0	0	0	0	0	0	0	0	0	0	0	0	0	0	0	0	0	0	0	0	0	0	0	0	0	0	0	0	0	0
030619	15:11:17	15:27:55	997295	5.0.10.0	4_exp_EVA_AMP_AWA_CON	146	Rpleas_acq	Same	Rpleas	Bmasked	CS_B	1pleas	distractor1	EVAbeforeCON	AMP_CSunple	AMP1_masked	8	36	0	0	300	300	0	0	999	46	-14,6484375	1	0	0	0	1	blank2r.bmp	0	1	GKQX	0	1	blank2r.bmp	79	81	pic81.bmp	199	1	whitenoise_No3.bmp	306	0	0	0	0	0	0	0	0	0	0	0	0	0	0	0	0	0	0	0	0	0	0	0	0	0	0	0	0	0	0	0	0	0	0	0	0	0	0	0
030619	15:11:17	15:27:57	998975	5.0.10.0	4_exp_EVA_AMP_AWA_CON	146	Rpleas_acq	Same	Rpleas	Bmasked	CS_B	1pleas	distractor1	EVAbeforeCON	AMP_distractor	AMP1_masked	8	37	0	0	300	300	0	0	768	50	-14,6484375	0	0	0	0	1	blank2r.bmp	0	1	WFPH	0	1	blank2r.bmp	79	37	pic37.bmp	199	1	whitenoise_No3.bmp	306	0	0	0	0	0	0	0	0	0	0	0	0	0	0	0	0	0	0	0	0	0	0	0	0	0	0	0	0	0	0	0	0	0	0	0	0	0	0	0
030619	15:11:17	15:27:59	1000641	5.0.10.0	4_exp_EVA_AMP_AWA_CON	146	Rpleas_acq	Same	Rpleas	Bmasked	CS_B	1pleas	distractor1	EVAbeforeCON	AMP_CSpleas	AMP1_masked	8	38	0	0	300	300	0	0	753	50	-14,6484375	1	0	0	0	1	blank2r.bmp	0	1	BMVZ	0	1	blank2r.bmp	79	88	pic88.bmp	199	1	whitenoise_No3.bmp	306	0	0	0	0	0	0	0	0	0	0	0	0	0	0	0	0	0	0	0	0	0	0	0	0	0	0	0	0	0	0	0	0	0	0	0	0	0	0	0
030619	15:11:17	15:28:00	1002307	5.0.10.0	4_exp_EVA_AMP_AWA_CON	146	Rpleas_acq	Same	Rpleas	Bmasked	CS_B	1pleas	distractor1	EVAbeforeCON	AMP_CSpleas	AMP1_masked	8	39	0	0	300	300	0	0	733	50	-14,6484375	1	0	0	0	1	blank2r.bmp	0	1	BMVZ	0	1	blank2r.bmp	79	82	pic82.bmp	199	1	whitenoise_No3.bmp	306	0	0	0	0	0	0	0	0	0	0	0	0	0	0	0	0	0	0	0	0	0	0	0	0	0	0	0	0	0	0	0	0	0	0	0	0	0	0	0
030619	15:11:17	15:28:02	1003946	5.0.10.0	4_exp_EVA_AMP_AWA_CON	146	Rpleas_acq	Same	Rpleas	Bmasked	CS_B	1pleas	distractor1	EVAbeforeCON	AMP_CSpleas	AMP1_masked	8	40	0	0	300	300	0	0	722	50	-14,6484375	1	0	0	0	1	blank2r.bmp	0	1	BMVZ	0	1	blank2r.bmp	79	113	pic113.bmp	199	1	whitenoise_No3.bmp	306	0	0	0	0	0	0	0	0	0	0	0	0	0	0	0	0	0	0	0	0	0	0	0	0	0	0	0	0	0	0	0	0	0	0	0	0	0	0	0
030619	15:11:17	15:28:04	1005559	5.0.10.0	4_exp_EVA_AMP_AWA_CON	146	Rpleas_acq	Same	Rpleas	Bmasked	CS_B	1pleas	distractor1	EVAbeforeCON	AMP_CSpleas	AMP1_masked	8	41	0	0	300	300	0	0	688	46	-14,6484375	0	0	0	0	1	blank2r.bmp	0	1	BMVZ	0	1	blank2r.bmp	79	92	pic92.bmp	199	1	whitenoise_No3.bmp	306	0	0	0	0	0	0	0	0	0	0	0	0	0	0	0	0	0	0	0	0	0	0	0	0	0	0	0	0	0	0	0	0	0	0	0	0	0	0	0
030619	15:11:17	15:28:05	1007198	5.0.10.0	4_exp_EVA_AMP_AWA_CON	146	Rpleas_acq	Same	Rpleas	Bmasked	CS_B	1pleas	distractor1	EVAbeforeCON	AMP_distractor	AMP1_masked	8	42	0	0	300	300	0	0	729	50	-14,6484375	0	0	0	0	1	blank2r.bmp	0	1	WFPH	0	1	blank2r.bmp	79	134	pic134.bmp	199	1	whitenoise_No3.bmp	306	0	0	0	0	0	0	0	0	0	0	0	0	0	0	0	0	0	0	0	0	0	0	0	0	0	0	0	0	0	0	0	0	0	0	0	0	0	0	0
030619	15:11:17	15:28:07	1008877	5.0.10.0	4_exp_EVA_AMP_AWA_CON	146	Rpleas_acq	Same	Rpleas	Bmasked	CS_B	1pleas	distractor1	EVAbeforeCON	AMP_CSunple	AMP1_masked	8	43	0	0	300	300	0	0	756	50	-14,6484375	0	0	0	0	1	blank2r.bmp	0	1	GKQX	0	1	blank2r.bmp	79	127	pic127.bmp	199	1	whitenoise_No3.bmp	306	0	0	0	0	0	0	0	0	0	0	0	0	0	0	0	0	0	0	0	0	0	0	0	0	0	0	0	0	0	0	0	0	0	0	0	0	0	0	0
030619	15:11:17	15:28:09	1010703	5.0.10.0	4_exp_EVA_AMP_AWA_CON	146	Rpleas_acq	Same	Rpleas	Bmasked	CS_B	1pleas	distractor1	EVAbeforeCON	AMP_distractor	AMP1_masked	8	44	0	0	300	300	0	0	897	46	-14,6484375	0	0	0	0	1	blank2r.bmp	0	1	WFPH	0	1	blank2r.bmp	79	32	pic32.bmp	199	1	whitenoise_No3.bmp	306	0	0	0	0	0	0	0	0	0	0	0	0	0	0	0	0	0	0	0	0	0	0	0	0	0	0	0	0	0	0	0	0	0	0	0	0	0	0	0
030619	15:11:17	15:28:11	1012809	5.0.10.0	4_exp_EVA_AMP_AWA_CON	146	Rpleas_acq	Same	Rpleas	Bmasked	CS_B	1pleas	distractor1	EVAbeforeCON	AMP_distractor	AMP1_masked	8	45	0	0	300	300	0	0	1177	46	-14,6484375	0	0	0	0	1	blank2r.bmp	0	1	WFPH	0	1	blank2r.bmp	79	72	pic72.bmp	199	1	whitenoise_No3.bmp	306	0	0	0	0	0	0	0	0	0	0	0	0	0	0	0	0	0	0	0	0	0	0	0	0	0	0	0	0	0	0	0	0	0	0	0	0	0	0	0
030619	15:11:17	15:28:13	1014875	5.0.10.0	4_exp_EVA_AMP_AWA_CON	146	Rpleas_acq	Same	Rpleas	Bmasked	CS_B	1pleas	distractor1	EVAbeforeCON	AMP_CSpleas	AMP1_masked	8	46	0	0	300	300	0	0	1136	46	-14,6484375	0	0	0	0	1	blank2r.bmp	0	1	BMVZ	0	1	blank2r.bmp	79	126	pic126.bmp	199	1	whitenoise_No3.bmp	306	0	0	0	0	0	0	0	0	0	0	0	0	0	0	0	0	0	0	0	0	0	0	0	0	0	0	0	0	0	0	0	0	0	0	0	0	0	0	0
030619	15:11:17	15:28:15	1016714	5.0.10.0	4_exp_EVA_AMP_AWA_CON	146	Rpleas_acq	Same	Rpleas	Bmasked	CS_B	1pleas	distractor1	EVAbeforeCON	AMP_CSunple	AMP1_masked	8	47	0	0	300	300	0	0	924	50	-14,6484375	0	0	0	0	1	blank2r.bmp	0	1	GKQX	0	1	blank2r.bmp	79	7	pic7.bmp	199	1	whitenoise_No3.bmp	306	0	0	0	0	0	0	0	0	0	0	0	0	0	0	0	0	0	0	0	0	0	0	0	0	0	0	0	0	0	0	0	0	0	0	0	0	0	0	0
030619	15:11:17	15:28:17	1018687	5.0.10.0	4_exp_EVA_AMP_AWA_CON	146	Rpleas_acq	Same	Rpleas	Bmasked	CS_B	1pleas	distractor1	EVAbeforeCON	AMP_CSpleas	AMP1_masked	8	48	0	0	300	300	0	0	1053	50	-14,6484375	1	0	0	0	1	blank2r.bmp	0	1	BMVZ	0	1	blank2r.bmp	79	66	pic66.bmp	199	1	whitenoise_No3.bmp	306	0	0	0	0	0	0	0	0	0	0	0	0	0	0	0	0	0	0	0	0	0	0	0	0	0	0	0	0	0	0	0	0	0	0	0	0	0	0	0
030619	15:11:17	15:28:19	1020433	5.0.10.0	4_exp_EVA_AMP_AWA_CON	146	Rpleas_acq	Same	Rpleas	Bmasked	CS_B	1pleas	distractor1	EVAbeforeCON	AMP_distractor	AMP1_masked	8	49	0	0	300	300	0	0	834	50	-14,6484375	0	0	0	0	1	blank2r.bmp	0	1	WFPH	0	1	blank2r.bmp	79	19	pic19.bmp	199	1	whitenoise_No3.bmp	306	0	0	0	0	0	0	0	0	0	0	0	0	0	0	0	0	0	0	0	0	0	0	0	0	0	0	0	0	0	0	0	0	0	0	0	0	0	0	0
030619	15:11:17	15:28:20	1022032	5.0.10.0	4_exp_EVA_AMP_AWA_CON	146	Rpleas_acq	Same	Rpleas	Bmasked	CS_B	1pleas	distractor1	EVAbeforeCON	AMP_CSpleas	AMP1_masked	8	50	0	0	300	300	0	0	668	50	-14,6484375	1	0	0	0	1	blank2r.bmp	0	1	BMVZ	0	1	blank2r.bmp	79	1	pic1.bmp	199	1	whitenoise_No3.bmp	306	0	0	0	0	0	0	0	0	0	0	0	0	0	0	0	0	0	0	0	0	0	0	0	0	0	0	0	0	0	0	0	0	0	0	0	0	0	0	0
030619	15:11:17	15:28:22	1024098	5.0.10.0	4_exp_EVA_AMP_AWA_CON	146	Rpleas_acq	Same	Rpleas	Bmasked	CS_B	1pleas	distractor1	EVAbeforeCON	AMP_distractor	AMP1_masked	8	51	0	0	300	300	0	0	1154	50	-14,6484375	0	0	0	0	1	blank2r.bmp	0	1	WFPH	0	1	blank2r.bmp	79	100	pic100.bmp	199	1	whitenoise_No3.bmp	306	0	0	0	0	0	0	0	0	0	0	0	0	0	0	0	0	0	0	0	0	0	0	0	0	0	0	0	0	0	0	0	0	0	0	0	0	0	0	0
030619	15:11:17	15:28:39	1040744	5.0.10.0	4_exp_EVA_AMP_AWA_CON	146	Rpleas_acq	Same	Rpleas	Bmasked	CS_B	1pleas	distractor1	EVAbeforeCON	AMP_CSunple	AMP23	9	1	0	0	300	300	0	0	1238	50	-14,6484375	0	0	0	0	1	blank2r.bmp	0	1	GKQX	0	1	blank2r.bmp	79	102	pic102.bmp	199	1	whitenoise_No3.bmp	306	0	0	0	0	0	0	0	0	0	0	0	0	0	0	0	0	0	0	0	0	0	0	0	0	0	0	0	0	0	0	0	0	0	0	0	0	0	0	0
030619	15:11:17	15:28:41	1042610	5.0.10.0	4_exp_EVA_AMP_AWA_CON	146	Rpleas_acq	Same	Rpleas	Bmasked	CS_B	1pleas	distractor1	EVAbeforeCON	AMP_CSunple	AMP23	9	2	0	0	300	300	0	0	952	46	-14,6484375	1	0	0	0	1	blank2r.bmp	0	1	GKQX	0	1	blank2r.bmp	79	31	pic31.bmp	199	1	whitenoise_No3.bmp	306	0	0	0	0	0	0	0	0	0	0	0	0	0	0	0	0	0	0	0	0	0	0	0	0	0	0	0	0	0	0	0	0	0	0	0	0	0	0	0
030619	15:11:17	15:28:43	1044596	5.0.10.0	4_exp_EVA_AMP_AWA_CON	146	Rpleas_acq	Same	Rpleas	Bmasked	CS_B	1pleas	distractor1	EVAbeforeCON	AMP_distractor	AMP23	9	3	0	0	300	300	0	0	1068	50	-14,6484375	0	0	0	0	1	blank2r.bmp	0	1	WFPH	0	1	blank2r.bmp	79	27	pic27.bmp	199	1	whitenoise_No3.bmp	306	0	0	0	0	0	0	0	0	0	0	0	0	0	0	0	0	0	0	0	0	0	0	0	0	0	0	0	0	0	0	0	0	0	0	0	0	0	0	0
030619	15:11:17	15:28:45	1047035	5.0.10.0	4_exp_EVA_AMP_AWA_CON	146	Rpleas_acq	Same	Rpleas	Bmasked	CS_B	1pleas	distractor1	EVAbeforeCON	AMP_CSunple	AMP23	9	4	0	0	300	300	0	0	1518	50	-14,6484375	0	0	0	0	1	blank2r.bmp	0	1	GKQX	0	1	blank2r.bmp	79	63	pic63.bmp	199	1	whitenoise_No3.bmp	306	0	0	0	0	0	0	0	0	0	0	0	0	0	0	0	0	0	0	0	0	0	0	0	0	0	0	0	0	0	0	0	0	0	0	0	0	0	0	0
030619	15:11:17	15:28:47	1048941	5.0.10.0	4_exp_EVA_AMP_AWA_CON	146	Rpleas_acq	Same	Rpleas	Bmasked	CS_B	1pleas	distractor1	EVAbeforeCON	AMP_CSpleas	AMP23	9	5	0	0	300	300	0	0	976	50	-14,6484375	1	0	0	0	1	blank2r.bmp	0	1	BMVZ	0	1	blank2r.bmp	79	152	pic152.bmp	199	1	whitenoise_No3.bmp	306	0	0	0	0	0	0	0	0	0	0	0	0	0	0	0	0	0	0	0	0	0	0	0	0	0	0	0	0	0	0	0	0	0	0	0	0	0	0	0
030619	15:11:17	15:28:49	1050927	5.0.10.0	4_exp_EVA_AMP_AWA_CON	146	Rpleas_acq	Same	Rpleas	Bmasked	CS_B	1pleas	distractor1	EVAbeforeCON	AMP_CSunple	AMP23	9	6	0	0	300	300	0	0	1072	46	-14,6484375	1	0	0	0	1	blank2r.bmp	0	1	GKQX	0	1	blank2r.bmp	79	26	pic26.bmp	199	1	whitenoise_No3.bmp	306	0	0	0	0	0	0	0	0	0	0	0	0	0	0	0	0	0	0	0	0	0	0	0	0	0	0	0	0	0	0	0	0	0	0	0	0	0	0	0
030619	15:11:17	15:28:51	1052566	5.0.10.0	4_exp_EVA_AMP_AWA_CON	146	Rpleas_acq	Same	Rpleas	Bmasked	CS_B	1pleas	distractor1	EVAbeforeCON	AMP_distractor	AMP23	9	7	0	0	300	300	0	0	707	50	-14,6484375	0	0	0	0	1	blank2r.bmp	0	1	WFPH	0	1	blank2r.bmp	79	145	pic145.bmp	199	1	whitenoise_No3.bmp	306	0	0	0	0	0	0	0	0	0	0	0	0	0	0	0	0	0	0	0	0	0	0	0	0	0	0	0	0	0	0	0	0	0	0	0	0	0	0	0
030619	15:11:17	15:28:52	1054312	5.0.10.0	4_exp_EVA_AMP_AWA_CON	146	Rpleas_acq	Same	Rpleas	Bmasked	CS_B	1pleas	distractor1	EVAbeforeCON	AMP_CSpleas	AMP23	9	8	0	0	300	300	0	0	834	50	-14,6484375	1	0	0	0	1	blank2r.bmp	0	1	BMVZ	0	1	blank2r.bmp	79	95	pic95.bmp	199	1	whitenoise_No3.bmp	306	0	0	0	0	0	0	0	0	0	0	0	0	0	0	0	0	0	0	0	0	0	0	0	0	0	0	0	0	0	0	0	0	0	0	0	0	0	0	0
030619	15:11:17	15:28:54	1056205	5.0.10.0	4_exp_EVA_AMP_AWA_CON	146	Rpleas_acq	Same	Rpleas	Bmasked	CS_B	1pleas	distractor1	EVAbeforeCON	AMP_CSunple	AMP23	9	9	0	0	300	300	0	0	962	50	-14,6484375	0	0	0	0	1	blank2r.bmp	0	1	GKQX	0	1	blank2r.bmp	79	101	pic101.bmp	199	1	whitenoise_No3.bmp	306	0	0	0	0	0	0	0	0	0	0	0	0	0	0	0	0	0	0	0	0	0	0	0	0	0	0	0	0	0	0	0	0	0	0	0	0	0	0	0
030619	15:11:17	15:28:56	1058031	5.0.10.0	4_exp_EVA_AMP_AWA_CON	146	Rpleas_acq	Same	Rpleas	Bmasked	CS_B	1pleas	distractor1	EVAbeforeCON	AMP_distractor	AMP23	9	10	0	0	300	300	0	0	902	50	-14,6484375	0	0	0	0	1	blank2r.bmp	0	1	WFPH	0	1	blank2r.bmp	79	6	pic6.bmp	199	1	whitenoise_No3.bmp	306	0	0	0	0	0	0	0	0	0	0	0	0	0	0	0	0	0	0	0	0	0	0	0	0	0	0	0	0	0	0	0	0	0	0	0	0	0	0	0
030619	15:11:17	15:28:58	1060043	5.0.10.0	4_exp_EVA_AMP_AWA_CON	146	Rpleas_acq	Same	Rpleas	Bmasked	CS_B	1pleas	distractor1	EVAbeforeCON	AMP_CSpleas	AMP23	9	11	0	0	300	300	0	0	1083	46	-14,6484375	0	0	0	0	1	blank2r.bmp	0	1	BMVZ	0	1	blank2r.bmp	79	137	pic137.bmp	199	1	whitenoise_No3.bmp	306	0	0	0	0	0	0	0	0	0	0	0	0	0	0	0	0	0	0	0	0	0	0	0	0	0	0	0	0	0	0	0	0	0	0	0	0	0	0	0
030619	15:11:17	15:29:00	1061829	5.0.10.0	4_exp_EVA_AMP_AWA_CON	146	Rpleas_acq	Same	Rpleas	Bmasked	CS_B	1pleas	distractor1	EVAbeforeCON	AMP_distractor	AMP23	9	12	0	0	300	300	0	0	853	50	-14,6484375	0	0	0	0	1	blank2r.bmp	0	1	WFPH	0	1	blank2r.bmp	79	105	pic105.bmp	199	1	whitenoise_No3.bmp	306	0	0	0	0	0	0	0	0	0	0	0	0	0	0	0	0	0	0	0	0	0	0	0	0	0	0	0	0	0	0	0	0	0	0	0	0	0	0	0
030619	15:11:17	15:29:02	1063775	5.0.10.0	4_exp_EVA_AMP_AWA_CON	146	Rpleas_acq	Same	Rpleas	Bmasked	CS_B	1pleas	distractor1	EVAbeforeCON	AMP_CSpleas	AMP23	9	13	0	0	300	300	0	0	1036	50	-14,6484375	1	0	0	0	1	blank2r.bmp	0	1	BMVZ	0	1	blank2r.bmp	79	52	pic52.bmp	199	1	whitenoise_No3.bmp	306	0	0	0	0	0	0	0	0	0	0	0	0	0	0	0	0	0	0	0	0	0	0	0	0	0	0	0	0	0	0	0	0	0	0	0	0	0	0	0
030619	15:11:17	15:29:04	1066001	5.0.10.0	4_exp_EVA_AMP_AWA_CON	146	Rpleas_acq	Same	Rpleas	Bmasked	CS_B	1pleas	distractor1	EVAbeforeCON	AMP_distractor	AMP23	9	14	0	0	300	300	0	0	1306	50	-14,6484375	0	0	0	0	1	blank2r.bmp	0	1	WFPH	0	1	blank2r.bmp	79	140	pic140.bmp	199	1	whitenoise_No3.bmp	306	0	0	0	0	0	0	0	0	0	0	0	0	0	0	0	0	0	0	0	0	0	0	0	0	0	0	0	0	0	0	0	0	0	0	0	0	0	0	0
030619	15:11:17	15:29:06	1068253	5.0.10.0	4_exp_EVA_AMP_AWA_CON	146	Rpleas_acq	Same	Rpleas	Bmasked	CS_B	1pleas	distractor1	EVAbeforeCON	AMP_distractor	AMP23	9	15	0	0	300	300	0	0	1332	50	-14,6484375	0	0	0	0	1	blank2r.bmp	0	1	WFPH	0	1	blank2r.bmp	79	87	pic87.bmp	199	1	whitenoise_No3.bmp	306	0	0	0	0	0	0	0	0	0	0	0	0	0	0	0	0	0	0	0	0	0	0	0	0	0	0	0	0	0	0	0	0	0	0	0	0	0	0	0
030619	15:11:17	15:29:08	1070146	5.0.10.0	4_exp_EVA_AMP_AWA_CON	146	Rpleas_acq	Same	Rpleas	Bmasked	CS_B	1pleas	distractor1	EVAbeforeCON	AMP_distractor	AMP23	9	16	0	0	300	300	0	0	979	50	-14,6484375	0	0	0	0	1	blank2r.bmp	0	1	WFPH	0	1	blank2r.bmp	79	89	pic89.bmp	199	1	whitenoise_No3.bmp	306	0	0	0	0	0	0	0	0	0	0	0	0	0	0	0	0	0	0	0	0	0	0	0	0	0	0	0	0	0	0	0	0	0	0	0	0	0	0	0
030619	15:11:17	15:29:10	1071732	5.0.10.0	4_exp_EVA_AMP_AWA_CON	146	Rpleas_acq	Same	Rpleas	Bmasked	CS_B	1pleas	distractor1	EVAbeforeCON	AMP_distractor	AMP23	9	17	0	0	300	300	0	0	656	46	-14,6484375	0	0	0	0	1	blank2r.bmp	0	1	WFPH	0	1	blank2r.bmp	79	20	pic20.bmp	199	1	whitenoise_No3.bmp	306	0	0	0	0	0	0	0	0	0	0	0	0	0	0	0	0	0	0	0	0	0	0	0	0	0	0	0	0	0	0	0	0	0	0	0	0	0	0	0
030619	15:11:17	15:29:12	1073584	5.0.10.0	4_exp_EVA_AMP_AWA_CON	146	Rpleas_acq	Same	Rpleas	Bmasked	CS_B	1pleas	distractor1	EVAbeforeCON	AMP_distractor	AMP23	9	18	0	0	300	300	0	0	932	46	-14,6484375	0	0	0	0	1	blank2r.bmp	0	1	WFPH	0	1	blank2r.bmp	79	106	pic106.bmp	199	1	whitenoise_No3.bmp	306	0	0	0	0	0	0	0	0	0	0	0	0	0	0	0	0	0	0	0	0	0	0	0	0	0	0	0	0	0	0	0	0	0	0	0	0	0	0	0
030619	15:11:17	15:29:14	1075530	5.0.10.0	4_exp_EVA_AMP_AWA_CON	146	Rpleas_acq	Same	Rpleas	Bmasked	CS_B	1pleas	distractor1	EVAbeforeCON	AMP_distractor	AMP23	9	19	0	0	300	300	0	0	1026	46	-14,6484375	0	0	0	0	1	blank2r.bmp	0	1	WFPH	0	1	blank2r.bmp	79	41	pic41.bmp	199	1	whitenoise_No3.bmp	306	0	0	0	0	0	0	0	0	0	0	0	0	0	0	0	0	0	0	0	0	0	0	0	0	0	0	0	0	0	0	0	0	0	0	0	0	0	0	0
030619	15:11:17	15:29:16	1077676	5.0.10.0	4_exp_EVA_AMP_AWA_CON	146	Rpleas_acq	Same	Rpleas	Bmasked	CS_B	1pleas	distractor1	EVAbeforeCON	AMP_CSunple	AMP23	9	20	0	0	300	300	0	0	1234	46	-14,6484375	1	0	0	0	1	blank2r.bmp	0	1	GKQX	0	1	blank2r.bmp	79	86	pic86.bmp	199	1	whitenoise_No3.bmp	306	0	0	0	0	0	0	0	0	0	0	0	0	0	0	0	0	0	0	0	0	0	0	0	0	0	0	0	0	0	0	0	0	0	0	0	0	0	0	0
030619	15:11:17	15:29:18	1079528	5.0.10.0	4_exp_EVA_AMP_AWA_CON	146	Rpleas_acq	Same	Rpleas	Bmasked	CS_B	1pleas	distractor1	EVAbeforeCON	AMP_CSunple	AMP23	9	21	0	0	300	300	0	0	944	46	-14,6484375	1	0	0	0	1	blank2r.bmp	0	1	GKQX	0	1	blank2r.bmp	79	107	pic107.bmp	199	1	whitenoise_No3.bmp	306	0	0	0	0	0	0	0	0	0	0	0	0	0	0	0	0	0	0	0	0	0	0	0	0	0	0	0	0	0	0	0	0	0	0	0	0	0	0	0
030619	15:11:17	15:29:19	1081048	5.0.10.0	4_exp_EVA_AMP_AWA_CON	146	Rpleas_acq	Same	Rpleas	Bmasked	CS_B	1pleas	distractor1	EVAbeforeCON	AMP_CSpleas	AMP23	9	22	0	0	300	300	0	0	587	50	-14,6484375	1	0	0	0	1	blank2r.bmp	0	1	BMVZ	0	1	blank2r.bmp	79	12	pic12.bmp	199	1	whitenoise_No3.bmp	306	0	0	0	0	0	0	0	0	0	0	0	0	0	0	0	0	0	0	0	0	0	0	0	0	0	0	0	0	0	0	0	0	0	0	0	0	0	0	0
030619	15:11:17	15:29:21	1082967	5.0.10.0	4_exp_EVA_AMP_AWA_CON	146	Rpleas_acq	Same	Rpleas	Bmasked	CS_B	1pleas	distractor1	EVAbeforeCON	AMP_CSpleas	AMP23	9	23	0	0	300	300	0	0	1007	50	-14,6484375	1	0	0	0	1	blank2r.bmp	0	1	BMVZ	0	1	blank2r.bmp	79	118	pic118.bmp	199	1	whitenoise_No3.bmp	306	0	0	0	0	0	0	0	0	0	0	0	0	0	0	0	0	0	0	0	0	0	0	0	0	0	0	0	0	0	0	0	0	0	0	0	0	0	0	0
030619	15:11:17	15:29:23	1084646	5.0.10.0	4_exp_EVA_AMP_AWA_CON	146	Rpleas_acq	Same	Rpleas	Bmasked	CS_B	1pleas	distractor1	EVAbeforeCON	AMP_CSunple	AMP23	9	24	0	0	300	300	0	0	749	50	-14,6484375	0	0	0	0	1	blank2r.bmp	0	1	GKQX	0	1	blank2r.bmp	79	149	pic149.bmp	199	1	whitenoise_No3.bmp	306	0	0	0	0	0	0	0	0	0	0	0	0	0	0	0	0	0	0	0	0	0	0	0	0	0	0	0	0	0	0	0	0	0	0	0	0	0	0	0
030619	15:11:17	15:29:25	1087205	5.0.10.0	4_exp_EVA_AMP_AWA_CON	146	Rpleas_acq	Same	Rpleas	Bmasked	CS_B	1pleas	distractor1	EVAbeforeCON	AMP_distractor	AMP23	9	25	0	0	300	300	0	0	1637	50	-14,6484375	0	0	0	0	1	blank2r.bmp	0	1	WFPH	0	1	blank2r.bmp	79	91	pic91.bmp	199	1	whitenoise_No3.bmp	306	0	0	0	0	0	0	0	0	0	0	0	0	0	0	0	0	0	0	0	0	0	0	0	0	0	0	0	0	0	0	0	0	0	0	0	0	0	0	0
030619	15:11:17	15:29:27	1089124	5.0.10.0	4_exp_EVA_AMP_AWA_CON	146	Rpleas_acq	Same	Rpleas	Bmasked	CS_B	1pleas	distractor1	EVAbeforeCON	AMP_CSpleas	AMP23	9	26	0	0	300	300	0	0	994	46	-14,6484375	0	0	0	0	1	blank2r.bmp	0	1	BMVZ	0	1	blank2r.bmp	79	11	pic11.bmp	199	1	whitenoise_No3.bmp	306	0	0	0	0	0	0	0	0	0	0	0	0	0	0	0	0	0	0	0	0	0	0	0	0	0	0	0	0	0	0	0	0	0	0	0	0	0	0	0
