date	time	script.currenttime	script.elapsedtime	build	script.currentexpt	subject	expressions.LRpleas_acq	expressions.SameOppo	expressions.condition_Lpleas	expressions.ABmasked	expressions.conditionCS_A	expressions.condition_1pleas	expressions.condition_distractor_AMP	expressions.AWACON_AMPEVA_first	trialcode	blockcode	blocknum	trialnum	windowcenter	inwindow	pretrialpause	posttrialpause	trialduration	trialtimeout	latency	response	expressions.correctedscore	correct	values.vis_performance	values.vis_rating_sum	values.vis_rating_mean	stimulusnumber1	stimulusitem1	stimulusonset1	stimulusnumber2	stimulusitem2	stimulusonset2	stimulusnumber3	stimulusitem3	stimulusonset3	stimulusnumber4	stimulusitem4	stimulusonset4	stimulusnumber5	stimulusitem5	stimulusonset5	stimulusnumber6	stimulusitem6	stimulusonset6	stimulusnumber7	stimulusitem7	stimulusonset7	stimulusnumber8	stimulusitem8	stimulusonset8	stimulusnumber9	stimulusitem9	stimulusonset9	stimulusnumber10	stimulusitem10	stimulusonset10	stimulusnumber11	stimulusitem11	stimulusonset11	stimulusnumber12	stimulusitem12	stimulusonset12	stimulusnumber13	stimulusitem13	stimulusonset13	stimulusnumber14	stimulusitem14	stimulusonset14	stimulusnumber15	stimulusitem15	stimulusonset15	stimulusnumber16	stimulusitem16	stimulusonset16	stimulusnumber17	stimulusitem17	stimulusonset17	stimulusnumber18	stimulusitem18	stimulusonset18
021819	14:09:03	14:11:26	143059	5.0.10.0	4_exp_AMP_EVA_AWA_CON	128  	Rpleas_acq	Oppo	Rpleas	Amasked	CS_A	2pleas	distractor1	EVAbeforeCON	acq_US_unple_masked	acq1_masked	1	1	0	0	300	300	0	0	1104	46	0	1	0	0	0	1	blank2r.bmp	0	1	+	0	7	C3r.bmp	492	1	blank2r.bmp	786	1	CPLW	786	1	blank2r.bmp	866	5	sterben	866	0	0	0	0	0	0	0	0	0	0	0	0	0	0	0	0	0	0	0	0	0	0	0	0	0	0	0	0	0	0	0	0	0
021819	14:09:03	14:11:29	145218	5.0.10.0	4_exp_AMP_EVA_AWA_CON	128  	Rpleas_acq	Oppo	Rpleas	Amasked	CS_A	2pleas	distractor1	EVAbeforeCON	acq_new_unple_masked	acq1_masked	1	2	0	0	300	300	0	0	676	46	0	1	0	0	0	1	blank2r.bmp	0	1	+	0	5	C1r.bmp	492	1	blank2r.bmp	786	7	C3r.bmp	786	1	blank2r.bmp	866	6	krank	866	0	0	0	0	0	0	0	0	0	0	0	0	0	0	0	0	0	0	0	0	0	0	0	0	0	0	0	0	0	0	0	0	0
021819	14:09:03	14:11:31	147444	5.0.10.0	4_exp_AMP_EVA_AWA_CON	128  	Rpleas_acq	Oppo	Rpleas	Amasked	CS_A	2pleas	distractor1	EVAbeforeCON	acq_new_unple_masked	acq1_masked	1	3	0	0	300	300	0	0	741	46	0	1	0	0	0	1	blank2r.bmp	0	1	+	0	6	C2r.bmp	492	1	blank2r.bmp	786	3	B3r.bmp	786	1	blank2r.bmp	866	3	verbissen	866	0	0	0	0	0	0	0	0	0	0	0	0	0	0	0	0	0	0	0	0	0	0	0	0	0	0	0	0	0	0	0	0	0
021819	14:09:03	14:11:33	149856	5.0.10.0	4_exp_AMP_EVA_AWA_CON	128  	Rpleas_acq	Oppo	Rpleas	Amasked	CS_A	2pleas	distractor1	EVAbeforeCON	acq_US_pleas_masked	acq1_masked	1	4	0	0	300	300	0	0	923	50	0	1	0	0	0	1	blank2r.bmp	0	1	+	0	3	B3r.bmp	492	1	blank2r.bmp	786	1	DHJF	786	1	blank2r.bmp	866	2	gesittet	866	0	0	0	0	0	0	0	0	0	0	0	0	0	0	0	0	0	0	0	0	0	0	0	0	0	0	0	0	0	0	0	0	0
021819	14:09:03	14:11:35	151895	5.0.10.0	4_exp_AMP_EVA_AWA_CON	128  	Rpleas_acq	Oppo	Rpleas	Amasked	CS_A	2pleas	distractor1	EVAbeforeCON	acq_US_pleas_masked	acq1_masked	1	5	0	0	300	300	0	0	551	50	0	1	0	0	0	1	blank2r.bmp	0	1	+	0	4	B4r.bmp	492	1	blank2r.bmp	786	1	DHJF	786	1	blank2r.bmp	866	5	sonnig	866	0	0	0	0	0	0	0	0	0	0	0	0	0	0	0	0	0	0	0	0	0	0	0	0	0	0	0	0	0	0	0	0	0
021819	14:09:03	14:11:37	154108	5.0.10.0	4_exp_AMP_EVA_AWA_CON	128  	Rpleas_acq	Oppo	Rpleas	Amasked	CS_A	2pleas	distractor1	EVAbeforeCON	acq_new_unple_masked	acq1_masked	1	6	0	0	300	300	0	0	736	46	0	1	0	0	0	1	blank2r.bmp	0	1	+	0	2	B2r.bmp	492	1	blank2r.bmp	786	8	C4r.bmp	786	1	blank2r.bmp	866	5	gierig	866	0	0	0	0	0	0	0	0	0	0	0	0	0	0	0	0	0	0	0	0	0	0	0	0	0	0	0	0	0	0	0	0	0
021819	14:09:03	14:11:40	156387	5.0.10.0	4_exp_AMP_EVA_AWA_CON	128  	Rpleas_acq	Oppo	Rpleas	Amasked	CS_A	2pleas	distractor1	EVAbeforeCON	acq_new_pleas_masked	acq1_masked	1	7	0	0	300	300	0	0	798	50	0	1	0	0	0	1	blank2r.bmp	0	1	+	0	8	C4r.bmp	492	1	blank2r.bmp	786	4	B4r.bmp	786	1	blank2r.bmp	866	6	kreativ	866	0	0	0	0	0	0	0	0	0	0	0	0	0	0	0	0	0	0	0	0	0	0	0	0	0	0	0	0	0	0	0	0	0
021819	14:09:03	14:11:42	158533	5.0.10.0	4_exp_AMP_EVA_AWA_CON	128  	Rpleas_acq	Oppo	Rpleas	Amasked	CS_A	2pleas	distractor1	EVAbeforeCON	acq_US_pleas_masked	acq1_masked	1	8	0	0	300	300	0	0	668	50	0	1	0	0	0	1	blank2r.bmp	0	1	+	0	1	B1r.bmp	492	1	blank2r.bmp	786	1	DHJF	786	1	blank2r.bmp	866	3	kuss	866	0	0	0	0	0	0	0	0	0	0	0	0	0	0	0	0	0	0	0	0	0	0	0	0	0	0	0	0	0	0	0	0	0
021819	14:09:03	14:11:44	160798	5.0.10.0	4_exp_AMP_EVA_AWA_CON	128  	Rpleas_acq	Oppo	Rpleas	Amasked	CS_A	2pleas	distractor1	EVAbeforeCON	acq_new_pleas_masked	acq1_masked	1	9	0	0	300	300	0	0	782	50	0	1	0	0	0	1	blank2r.bmp	0	1	+	0	1	B1r.bmp	492	1	blank2r.bmp	786	2	B2r.bmp	786	1	blank2r.bmp	866	5	gütig	866	0	0	0	0	0	0	0	0	0	0	0	0	0	0	0	0	0	0	0	0	0	0	0	0	0	0	0	0	0	0	0	0	0
021819	14:09:03	14:11:46	162877	5.0.10.0	4_exp_AMP_EVA_AWA_CON	128  	Rpleas_acq	Oppo	Rpleas	Amasked	CS_A	2pleas	distractor1	EVAbeforeCON	acq_US_unple_masked	acq1_masked	1	10	0	0	300	300	0	0	610	46	0	1	0	0	0	1	blank2r.bmp	0	1	+	0	7	C3r.bmp	492	1	blank2r.bmp	786	1	CPLW	786	1	blank2r.bmp	866	6	töten	866	0	0	0	0	0	0	0	0	0	0	0	0	0	0	0	0	0	0	0	0	0	0	0	0	0	0	0	0	0	0	0	0	0
021819	14:09:03	14:11:48	165077	5.0.10.0	4_exp_AMP_EVA_AWA_CON	128  	Rpleas_acq	Oppo	Rpleas	Amasked	CS_A	2pleas	distractor1	EVAbeforeCON	acq_new_pleas_masked	acq1_masked	1	11	0	0	300	300	0	0	712	50	0	1	0	0	0	1	blank2r.bmp	0	1	+	0	6	C2r.bmp	492	1	blank2r.bmp	786	1	B1r.bmp	786	1	blank2r.bmp	866	3	vergnügt	866	0	0	0	0	0	0	0	0	0	0	0	0	0	0	0	0	0	0	0	0	0	0	0	0	0	0	0	0	0	0	0	0	0
021819	14:09:03	14:11:51	167249	5.0.10.0	4_exp_AMP_EVA_AWA_CON	128  	Rpleas_acq	Oppo	Rpleas	Amasked	CS_A	2pleas	distractor1	EVAbeforeCON	acq_US_unple_masked	acq1_masked	1	12	0	0	300	300	0	0	701	46	0	1	0	0	0	1	blank2r.bmp	0	1	+	0	3	B3r.bmp	492	1	blank2r.bmp	786	1	CPLW	786	1	blank2r.bmp	866	1	ausrottung	866	0	0	0	0	0	0	0	0	0	0	0	0	0	0	0	0	0	0	0	0	0	0	0	0	0	0	0	0	0	0	0	0	0
021819	14:09:03	14:11:53	169528	5.0.10.0	4_exp_AMP_EVA_AWA_CON	128  	Rpleas_acq	Oppo	Rpleas	Amasked	CS_A	2pleas	distractor1	EVAbeforeCON	acq_new_pleas_masked	acq1_masked	1	13	0	0	300	300	0	0	786	50	0	1	0	0	0	1	blank2r.bmp	0	1	+	0	2	B2r.bmp	492	1	blank2r.bmp	786	5	C1r.bmp	786	1	blank2r.bmp	866	2	besonnen	866	0	0	0	0	0	0	0	0	0	0	0	0	0	0	0	0	0	0	0	0	0	0	0	0	0	0	0	0	0	0	0	0	0
021819	14:09:03	14:11:55	171727	5.0.10.0	4_exp_AMP_EVA_AWA_CON	128  	Rpleas_acq	Oppo	Rpleas	Amasked	CS_A	2pleas	distractor1	EVAbeforeCON	acq_new_unple_masked	acq1_masked	1	14	0	0	300	300	0	0	720	46	0	1	0	0	0	1	blank2r.bmp	0	1	+	0	8	C4r.bmp	492	1	blank2r.bmp	786	6	C2r.bmp	786	1	blank2r.bmp	866	4	engstirnig	866	0	0	0	0	0	0	0	0	0	0	0	0	0	0	0	0	0	0	0	0	0	0	0	0	0	0	0	0	0	0	0	0	0
021819	14:09:03	14:11:57	173673	5.0.10.0	4_exp_AMP_EVA_AWA_CON	128  	Rpleas_acq	Oppo	Rpleas	Amasked	CS_A	2pleas	distractor1	EVAbeforeCON	acq_US_unple_masked	acq1_masked	1	15	0	0	300	300	0	0	476	46	0	1	0	0	0	1	blank2r.bmp	0	1	+	0	4	B4r.bmp	492	1	blank2r.bmp	786	1	CPLW	786	1	blank2r.bmp	866	2	geizig	866	0	0	0	0	0	0	0	0	0	0	0	0	0	0	0	0	0	0	0	0	0	0	0	0	0	0	0	0	0	0	0	0	0
021819	14:09:03	14:11:59	175859	5.0.10.0	4_exp_AMP_EVA_AWA_CON	128  	Rpleas_acq	Oppo	Rpleas	Amasked	CS_A	2pleas	distractor1	EVAbeforeCON	acq_new_pleas_masked	acq1_masked	1	16	0	0	300	300	0	0	702	50	0	1	0	0	0	1	blank2r.bmp	0	1	+	0	5	C1r.bmp	492	1	blank2r.bmp	786	6	C2r.bmp	786	1	blank2r.bmp	866	1	genießen	866	0	0	0	0	0	0	0	0	0	0	0	0	0	0	0	0	0	0	0	0	0	0	0	0	0	0	0	0	0	0	0	0	0
021819	14:09:03	14:12:01	177911	5.0.10.0	4_exp_AMP_EVA_AWA_CON	128  	Rpleas_acq	Oppo	Rpleas	Amasked	CS_A	2pleas	distractor1	EVAbeforeCON	acq_US_pleas_masked	acq1_masked	1	17	0	0	300	300	0	0	562	50	0	1	0	0	0	1	blank2r.bmp	0	1	+	0	2	B2r.bmp	492	1	blank2r.bmp	786	1	DHJF	786	1	blank2r.bmp	866	4	vertrauen	866	0	0	0	0	0	0	0	0	0	0	0	0	0	0	0	0	0	0	0	0	0	0	0	0	0	0	0	0	0	0	0	0	0
021819	14:09:03	14:12:04	180350	5.0.10.0	4_exp_AMP_EVA_AWA_CON	128  	Rpleas_acq	Oppo	Rpleas	Amasked	CS_A	2pleas	distractor1	EVAbeforeCON	acq_new_unple_masked	acq1_masked	1	18	0	0	300	300	0	0	968	46	0	1	0	0	0	1	blank2r.bmp	0	1	+	0	7	C3r.bmp	492	1	blank2r.bmp	786	4	B4r.bmp	786	1	blank2r.bmp	866	2	bange	866	0	0	0	0	0	0	0	0	0	0	0	0	0	0	0	0	0	0	0	0	0	0	0	0	0	0	0	0	0	0	0	0	0
021819	14:09:03	14:12:06	182576	5.0.10.0	4_exp_AMP_EVA_AWA_CON	128  	Rpleas_acq	Oppo	Rpleas	Amasked	CS_A	2pleas	distractor1	EVAbeforeCON	acq_US_unple_masked	acq1_masked	1	19	0	0	300	300	0	0	744	46	0	1	0	0	0	1	blank2r.bmp	0	1	+	0	5	C1r.bmp	492	1	blank2r.bmp	786	1	CPLW	786	1	blank2r.bmp	866	3	krise	866	0	0	0	0	0	0	0	0	0	0	0	0	0	0	0	0	0	0	0	0	0	0	0	0	0	0	0	0	0	0	0	0	0
021819	14:09:03	14:12:08	184668	5.0.10.0	4_exp_AMP_EVA_AWA_CON	128  	Rpleas_acq	Oppo	Rpleas	Amasked	CS_A	2pleas	distractor1	EVAbeforeCON	acq_US_pleas_masked	acq1_masked	1	20	0	0	300	300	0	0	619	50	0	1	0	0	0	1	blank2r.bmp	0	1	+	0	8	C4r.bmp	492	1	blank2r.bmp	786	1	DHJF	786	1	blank2r.bmp	866	6	träumen	866	0	0	0	0	0	0	0	0	0	0	0	0	0	0	0	0	0	0	0	0	0	0	0	0	0	0	0	0	0	0	0	0	0
021819	14:09:03	14:12:10	187041	5.0.10.0	4_exp_AMP_EVA_AWA_CON	128  	Rpleas_acq	Oppo	Rpleas	Amasked	CS_A	2pleas	distractor1	EVAbeforeCON	acq_US_pleas_masked	acq1_masked	1	21	0	0	300	300	0	0	903	50	0	1	0	0	0	1	blank2r.bmp	0	1	+	0	3	B3r.bmp	492	1	blank2r.bmp	786	1	DHJF	786	1	blank2r.bmp	866	1	anregung	866	0	0	0	0	0	0	0	0	0	0	0	0	0	0	0	0	0	0	0	0	0	0	0	0	0	0	0	0	0	0	0	0	0
021819	14:09:03	14:12:13	189146	5.0.10.0	4_exp_AMP_EVA_AWA_CON	128  	Rpleas_acq	Oppo	Rpleas	Amasked	CS_A	2pleas	distractor1	EVAbeforeCON	acq_new_unple_masked	acq1_masked	1	22	0	0	300	300	0	0	615	46	0	1	0	0	0	1	blank2r.bmp	0	1	+	0	6	C2r.bmp	492	1	blank2r.bmp	786	3	B3r.bmp	786	1	blank2r.bmp	866	1	gemein	866	0	0	0	0	0	0	0	0	0	0	0	0	0	0	0	0	0	0	0	0	0	0	0	0	0	0	0	0	0	0	0	0	0
021819	14:09:03	14:12:15	191292	5.0.10.0	4_exp_AMP_EVA_AWA_CON	128  	Rpleas_acq	Oppo	Rpleas	Amasked	CS_A	2pleas	distractor1	EVAbeforeCON	acq_new_pleas_masked	acq1_masked	1	23	0	0	300	300	0	0	676	50	0	1	0	0	0	1	blank2r.bmp	0	1	+	0	1	B1r.bmp	492	1	blank2r.bmp	786	8	C4r.bmp	786	1	blank2r.bmp	866	4	engagiert	866	0	0	0	0	0	0	0	0	0	0	0	0	0	0	0	0	0	0	0	0	0	0	0	0	0	0	0	0	0	0	0	0	0
021819	14:09:03	14:12:17	193438	5.0.10.0	4_exp_AMP_EVA_AWA_CON	128  	Rpleas_acq	Oppo	Rpleas	Amasked	CS_A	2pleas	distractor1	EVAbeforeCON	acq_US_unple_masked	acq1_masked	1	24	0	0	300	300	0	0	664	46	0	1	0	0	0	1	blank2r.bmp	0	1	+	0	4	B4r.bmp	492	1	blank2r.bmp	786	1	CPLW	786	1	blank2r.bmp	866	4	versagen	866	0	0	0	0	0	0	0	0	0	0	0	0	0	0	0	0	0	0	0	0	0	0	0	0	0	0	0	0	0	0	0	0	0
021819	14:09:03	14:12:19	195650	5.0.10.0	4_exp_AMP_EVA_AWA_CON	128  	Rpleas_acq	Oppo	Rpleas	Amasked	CS_A	2pleas	distractor1	EVAbeforeCON	acq_US_pleas_masked	acq1_masked	1	25	0	0	300	300	0	0	729	50	0	1	0	0	0	1	blank2r.bmp	0	1	+	0	3	B3r.bmp	492	1	blank2r.bmp	786	1	DHJF	786	1	blank2r.bmp	866	2	gesittet	866	0	0	0	0	0	0	0	0	0	0	0	0	0	0	0	0	0	0	0	0	0	0	0	0	0	0	0	0	0	0	0	0	0
021819	14:09:03	14:12:21	197916	5.0.10.0	4_exp_AMP_EVA_AWA_CON	128  	Rpleas_acq	Oppo	Rpleas	Amasked	CS_A	2pleas	distractor1	EVAbeforeCON	acq_new_pleas_masked	acq1_masked	1	26	0	0	300	300	0	0	791	50	0	1	0	0	0	1	blank2r.bmp	0	1	+	0	2	B2r.bmp	492	1	blank2r.bmp	786	5	C1r.bmp	786	1	blank2r.bmp	866	4	engagiert	866	0	0	0	0	0	0	0	0	0	0	0	0	0	0	0	0	0	0	0	0	0	0	0	0	0	0	0	0	0	0	0	0	0
021819	14:09:03	14:12:23	200008	5.0.10.0	4_exp_AMP_EVA_AWA_CON	128  	Rpleas_acq	Oppo	Rpleas	Amasked	CS_A	2pleas	distractor1	EVAbeforeCON	acq_new_pleas_masked	acq1_masked	1	27	0	0	300	300	0	0	620	50	0	1	0	0	0	1	blank2r.bmp	0	1	+	0	5	C1r.bmp	492	1	blank2r.bmp	786	2	B2r.bmp	786	1	blank2r.bmp	866	3	vergnügt	866	0	0	0	0	0	0	0	0	0	0	0	0	0	0	0	0	0	0	0	0	0	0	0	0	0	0	0	0	0	0	0	0	0
021819	14:09:03	14:12:25	202008	5.0.10.0	4_exp_AMP_EVA_AWA_CON	128  	Rpleas_acq	Oppo	Rpleas	Amasked	CS_A	2pleas	distractor1	EVAbeforeCON	acq_US_unple_masked	acq1_masked	1	28	0	0	300	300	0	0	506	46	0	1	0	0	0	1	blank2r.bmp	0	1	+	0	6	C2r.bmp	492	1	blank2r.bmp	786	1	CPLW	786	1	blank2r.bmp	866	2	geizig	866	0	0	0	0	0	0	0	0	0	0	0	0	0	0	0	0	0	0	0	0	0	0	0	0	0	0	0	0	0	0	0	0	0
021819	14:09:03	14:12:28	204127	5.0.10.0	4_exp_AMP_EVA_AWA_CON	128  	Rpleas_acq	Oppo	Rpleas	Amasked	CS_A	2pleas	distractor1	EVAbeforeCON	acq_US_unple_masked	acq1_masked	1	29	0	0	300	300	0	0	640	46	0	1	0	0	0	1	blank2r.bmp	0	1	+	0	1	B1r.bmp	492	1	blank2r.bmp	786	1	CPLW	786	1	blank2r.bmp	866	4	versagen	866	0	0	0	0	0	0	0	0	0	0	0	0	0	0	0	0	0	0	0	0	0	0	0	0	0	0	0	0	0	0	0	0	0
021819	14:09:03	14:12:30	206912	5.0.10.0	4_exp_AMP_EVA_AWA_CON	128  	Rpleas_acq	Oppo	Rpleas	Amasked	CS_A	2pleas	distractor1	EVAbeforeCON	acq_US_pleas_masked	acq1_masked	1	30	0	0	300	300	0	0	1314	50	0	1	0	0	0	1	blank2r.bmp	0	1	+	0	8	C4r.bmp	492	1	blank2r.bmp	786	1	DHJF	786	1	blank2r.bmp	866	3	kuss	866	0	0	0	0	0	0	0	0	0	0	0	0	0	0	0	0	0	0	0	0	0	0	0	0	0	0	0	0	0	0	0	0	0
021819	14:09:03	14:12:32	208925	5.0.10.0	4_exp_AMP_EVA_AWA_CON	128  	Rpleas_acq	Oppo	Rpleas	Amasked	CS_A	2pleas	distractor1	EVAbeforeCON	acq_US_unple_masked	acq1_masked	1	31	0	0	300	300	0	0	542	46	0	1	0	0	0	1	blank2r.bmp	0	1	+	0	7	C3r.bmp	492	1	blank2r.bmp	786	1	CPLW	786	1	blank2r.bmp	866	1	ausrottung	866	0	0	0	0	0	0	0	0	0	0	0	0	0	0	0	0	0	0	0	0	0	0	0	0	0	0	0	0	0	0	0	0	0
021819	14:09:03	14:12:34	211097	5.0.10.0	4_exp_AMP_EVA_AWA_CON	128  	Rpleas_acq	Oppo	Rpleas	Amasked	CS_A	2pleas	distractor1	EVAbeforeCON	acq_US_pleas_masked	acq1_masked	1	32	0	0	300	300	0	0	698	50	0	1	0	0	0	1	blank2r.bmp	0	1	+	0	4	B4r.bmp	492	1	blank2r.bmp	786	1	DHJF	786	1	blank2r.bmp	866	4	vertrauen	866	0	0	0	0	0	0	0	0	0	0	0	0	0	0	0	0	0	0	0	0	0	0	0	0	0	0	0	0	0	0	0	0	0
021819	14:09:03	14:12:37	213123	5.0.10.0	4_exp_AMP_EVA_AWA_CON	128  	Rpleas_acq	Oppo	Rpleas	Amasked	CS_A	2pleas	distractor1	EVAbeforeCON	acq_new_pleas_masked	acq1_masked	1	33	0	0	300	300	0	0	547	50	0	1	0	0	0	1	blank2r.bmp	0	1	+	0	6	C2r.bmp	492	1	blank2r.bmp	786	1	B1r.bmp	786	1	blank2r.bmp	866	6	kreativ	866	0	0	0	0	0	0	0	0	0	0	0	0	0	0	0	0	0	0	0	0	0	0	0	0	0	0	0	0	0	0	0	0	0
021819	14:09:03	14:12:39	215255	5.0.10.0	4_exp_AMP_EVA_AWA_CON	128  	Rpleas_acq	Oppo	Rpleas	Amasked	CS_A	2pleas	distractor1	EVAbeforeCON	acq_new_unple_masked	acq1_masked	1	34	0	0	300	300	0	0	660	46	0	1	0	0	0	1	blank2r.bmp	0	1	+	0	3	B3r.bmp	492	1	blank2r.bmp	786	7	C3r.bmp	786	1	blank2r.bmp	866	2	bange	866	0	0	0	0	0	0	0	0	0	0	0	0	0	0	0	0	0	0	0	0	0	0	0	0	0	0	0	0	0	0	0	0	0
021819	14:09:03	14:12:41	217428	5.0.10.0	4_exp_AMP_EVA_AWA_CON	128  	Rpleas_acq	Oppo	Rpleas	Amasked	CS_A	2pleas	distractor1	EVAbeforeCON	acq_new_unple_masked	acq1_masked	1	35	0	0	300	300	0	0	684	46	0	1	0	0	0	1	blank2r.bmp	0	1	+	0	1	B1r.bmp	492	1	blank2r.bmp	786	8	C4r.bmp	786	1	blank2r.bmp	866	6	krank	866	0	0	0	0	0	0	0	0	0	0	0	0	0	0	0	0	0	0	0	0	0	0	0	0	0	0	0	0	0	0	0	0	0
021819	14:09:03	14:12:43	219480	5.0.10.0	4_exp_AMP_EVA_AWA_CON	128  	Rpleas_acq	Oppo	Rpleas	Amasked	CS_A	2pleas	distractor1	EVAbeforeCON	acq_new_unple_masked	acq1_masked	1	36	0	0	300	300	0	0	576	46	0	1	0	0	0	1	blank2r.bmp	0	1	+	0	2	B2r.bmp	492	1	blank2r.bmp	786	1	B1r.bmp	786	1	blank2r.bmp	866	3	verbissen	866	0	0	0	0	0	0	0	0	0	0	0	0	0	0	0	0	0	0	0	0	0	0	0	0	0	0	0	0	0	0	0	0	0
021819	14:09:03	14:13:15	251187	5.0.10.0	4_exp_AMP_EVA_AWA_CON	128  	Rpleas_acq	Oppo	Rpleas	Amasked	CS_A	2pleas	distractor1	EVAbeforeCON	acq_US_unple_masked	acq2_masked	2	1	480	0	300	300	0	0	920	46	0	1	0	0	0	1	blank2r.bmp	0	1	+	0	7	C3r.bmp	492	1	blank2r.bmp	786	1	CPLW	786	1	blank2r.bmp	866	6	töten	866	1	!	1319	1	!	-1	0	0	0	0	0	0	0	0	0	0	0	0	0	0	0	0	0	0	0	0	0	0	0	0	0	0	0
021819	14:09:03	14:13:17	253799	5.0.10.0	4_exp_AMP_EVA_AWA_CON	128  	Rpleas_acq	Oppo	Rpleas	Amasked	CS_A	2pleas	distractor1	EVAbeforeCON	acq_US_pleas_masked	acq2_masked	2	2	480	0	300	300	0	0	601	46	0	0	0	0	0	1	blank2r.bmp	0	1	+	0	5	C1r.bmp	492	1	blank2r.bmp	786	1	DHJF	786	1	blank2r.bmp	866	1	anregung	866	1	FEHLER	1812	1	!	1319	1	!	-1	0	0	0	0	0	0	0	0	0	0	0	0	0	0	0	0	0	0	0	0	0	0	0	0
021819	14:09:03	14:13:19	255825	5.0.10.0	4_exp_AMP_EVA_AWA_CON	128  	Rpleas_acq	Oppo	Rpleas	Amasked	CS_A	2pleas	distractor1	EVAbeforeCON	acq_US_unple_masked	acq2_masked	2	3	480	1	300	300	0	0	426	46	0	1	0	0	0	1	blank2r.bmp	0	1	+	0	4	B4r.bmp	492	1	blank2r.bmp	786	1	CPLW	786	1	blank2r.bmp	866	3	krise	866	1	!	1319	1	!	1332	0	0	0	0	0	0	0	0	0	0	0	0	0	0	0	0	0	0	0	0	0	0	0	0	0	0	0
021819	14:09:03	14:13:21	258104	5.0.10.0	4_exp_AMP_EVA_AWA_CON	128  	Rpleas_acq	Oppo	Rpleas	Amasked	CS_A	2pleas	distractor1	EVAbeforeCON	acq_US_unple_masked	acq2_masked	2	4	480	1	300	300	0	0	482	46	0	1	0	0	0	1	blank2r.bmp	0	1	+	0	8	C4r.bmp	492	1	blank2r.bmp	786	1	CPLW	786	1	blank2r.bmp	866	5	sterben	866	1	!	1319	1	!	1386	0	0	0	0	0	0	0	0	0	0	0	0	0	0	0	0	0	0	0	0	0	0	0	0	0	0	0
021819	14:09:03	14:13:24	260436	5.0.10.0	4_exp_AMP_EVA_AWA_CON	128  	Rpleas_acq	Oppo	Rpleas	Amasked	CS_A	2pleas	distractor1	EVAbeforeCON	acq_new_pleas_masked	acq2_masked	2	5	480	1	300	300	0	0	539	50	0	1	0	0	0	1	blank2r.bmp	0	1	+	0	1	B1r.bmp	492	1	blank2r.bmp	786	7	C3r.bmp	786	1	blank2r.bmp	866	2	besonnen	866	1	!	1319	1	!	1439	0	0	0	0	0	0	0	0	0	0	0	0	0	0	0	0	0	0	0	0	0	0	0	0	0	0	0
021819	14:09:03	14:13:26	262702	5.0.10.0	4_exp_AMP_EVA_AWA_CON	128  	Rpleas_acq	Oppo	Rpleas	Amasked	CS_A	2pleas	distractor1	EVAbeforeCON	acq_new_pleas_masked	acq2_masked	2	6	480	1	300	300	0	0	466	50	0	1	0	0	0	1	blank2r.bmp	0	1	+	0	4	B4r.bmp	492	1	blank2r.bmp	786	5	C1r.bmp	786	1	blank2r.bmp	866	1	genießen	866	1	!	1319	1	!	1372	0	0	0	0	0	0	0	0	0	0	0	0	0	0	0	0	0	0	0	0	0	0	0	0	0	0	0
021819	14:09:03	14:13:28	265074	5.0.10.0	4_exp_AMP_EVA_AWA_CON	128  	Rpleas_acq	Oppo	Rpleas	Amasked	CS_A	2pleas	distractor1	EVAbeforeCON	acq_new_unple_masked	acq2_masked	2	7	480	0	300	300	0	0	605	46	0	1	0	0	0	1	blank2r.bmp	0	1	+	0	3	B3r.bmp	492	1	blank2r.bmp	786	4	B4r.bmp	786	1	blank2r.bmp	866	5	gierig	866	1	!	1319	1	!	-1	0	0	0	0	0	0	0	0	0	0	0	0	0	0	0	0	0	0	0	0	0	0	0	0	0	0	0
021819	14:09:03	14:13:31	267433	5.0.10.0	4_exp_AMP_EVA_AWA_CON	128  	Rpleas_acq	Oppo	Rpleas	Amasked	CS_A	2pleas	distractor1	EVAbeforeCON	acq_new_unple_masked	acq2_masked	2	8	480	0	300	300	0	0	577	46	0	1	0	0	0	1	blank2r.bmp	0	1	+	0	2	B2r.bmp	492	1	blank2r.bmp	786	6	C2r.bmp	786	1	blank2r.bmp	866	4	engstirnig	866	1	!	1319	1	!	-1	0	0	0	0	0	0	0	0	0	0	0	0	0	0	0	0	0	0	0	0	0	0	0	0	0	0	0
021819	14:09:03	14:13:33	269686	5.0.10.0	4_exp_AMP_EVA_AWA_CON	128  	Rpleas_acq	Oppo	Rpleas	Amasked	CS_A	2pleas	distractor1	EVAbeforeCON	acq_US_pleas_masked	acq2_masked	2	9	480	1	300	300	0	0	452	50	0	1	0	0	0	1	blank2r.bmp	0	1	+	0	8	C4r.bmp	492	1	blank2r.bmp	786	1	DHJF	786	1	blank2r.bmp	866	5	sonnig	866	1	!	1319	1	!	1346	0	0	0	0	0	0	0	0	0	0	0	0	0	0	0	0	0	0	0	0	0	0	0	0	0	0	0
021819	14:09:03	14:13:35	271912	5.0.10.0	4_exp_AMP_EVA_AWA_CON	128  	Rpleas_acq	Oppo	Rpleas	Amasked	CS_A	2pleas	distractor1	EVAbeforeCON	acq_new_pleas_masked	acq2_masked	2	10	480	1	300	300	0	0	426	50	0	1	0	0	0	1	blank2r.bmp	0	1	+	0	6	C2r.bmp	492	1	blank2r.bmp	786	2	B2r.bmp	786	1	blank2r.bmp	866	5	gütig	866	1	!	1319	1	!	1332	0	0	0	0	0	0	0	0	0	0	0	0	0	0	0	0	0	0	0	0	0	0	0	0	0	0	0
021819	14:09:03	14:13:38	274231	5.0.10.0	4_exp_AMP_EVA_AWA_CON	128  	Rpleas_acq	Oppo	Rpleas	Amasked	CS_A	2pleas	distractor1	EVAbeforeCON	acq_new_unple_masked	acq2_masked	2	11	480	1	300	300	0	0	525	46	0	1	0	0	0	1	blank2r.bmp	0	1	+	0	5	C1r.bmp	492	1	blank2r.bmp	786	3	B3r.bmp	786	1	blank2r.bmp	866	1	gemein	866	1	!	1319	1	!	1426	0	0	0	0	0	0	0	0	0	0	0	0	0	0	0	0	0	0	0	0	0	0	0	0	0	0	0
021819	14:09:03	14:13:40	276510	5.0.10.0	4_exp_AMP_EVA_AWA_CON	128  	Rpleas_acq	Oppo	Rpleas	Amasked	CS_A	2pleas	distractor1	EVAbeforeCON	acq_US_pleas_masked	acq2_masked	2	12	480	1	300	300	0	0	490	50	0	1	0	0	0	1	blank2r.bmp	0	1	+	0	7	C3r.bmp	492	1	blank2r.bmp	786	1	DHJF	786	1	blank2r.bmp	866	6	träumen	866	1	!	1319	1	!	1386	0	0	0	0	0	0	0	0	0	0	0	0	0	0	0	0	0	0	0	0	0	0	0	0	0	0	0
021819	14:09:03	14:13:42	278802	5.0.10.0	4_exp_AMP_EVA_AWA_CON	128  	Rpleas_acq	Oppo	Rpleas	Amasked	CS_A	2pleas	distractor1	EVAbeforeCON	acq_US_pleas_masked	acq2_masked	2	13	480	1	300	300	0	0	498	50	0	1	0	0	0	1	blank2r.bmp	0	1	+	0	5	C1r.bmp	492	1	blank2r.bmp	786	1	DHJF	786	1	blank2r.bmp	866	1	anregung	866	1	!	1319	1	!	1399	0	0	0	0	0	0	0	0	0	0	0	0	0	0	0	0	0	0	0	0	0	0	0	0	0	0	0
021819	14:09:03	14:13:44	281041	5.0.10.0	4_exp_AMP_EVA_AWA_CON	128  	Rpleas_acq	Oppo	Rpleas	Amasked	CS_A	2pleas	distractor1	EVAbeforeCON	acq_new_pleas_masked	acq2_masked	2	14	480	1	300	300	0	0	451	50	0	1	0	0	0	1	blank2r.bmp	0	1	+	0	6	C2r.bmp	492	1	blank2r.bmp	786	2	B2r.bmp	786	1	blank2r.bmp	866	2	besonnen	866	1	!	1319	1	!	1346	0	0	0	0	0	0	0	0	0	0	0	0	0	0	0	0	0	0	0	0	0	0	0	0	0	0	0
021819	14:09:03	14:13:47	283307	5.0.10.0	4_exp_AMP_EVA_AWA_CON	128  	Rpleas_acq	Oppo	Rpleas	Amasked	CS_A	2pleas	distractor1	EVAbeforeCON	acq_US_unple_masked	acq2_masked	2	15	480	1	300	300	0	0	461	46	0	1	0	0	0	1	blank2r.bmp	0	1	+	0	3	B3r.bmp	492	1	blank2r.bmp	786	1	CPLW	786	1	blank2r.bmp	866	2	geizig	866	1	!	1319	1	!	1359	0	0	0	0	0	0	0	0	0	0	0	0	0	0	0	0	0	0	0	0	0	0	0	0	0	0	0
021819	14:09:03	14:13:49	285679	5.0.10.0	4_exp_AMP_EVA_AWA_CON	128  	Rpleas_acq	Oppo	Rpleas	Amasked	CS_A	2pleas	distractor1	EVAbeforeCON	acq_new_pleas_masked	acq2_masked	2	16	480	0	300	300	0	0	607	50	0	1	0	0	0	1	blank2r.bmp	0	1	+	0	1	B1r.bmp	492	1	blank2r.bmp	786	7	C3r.bmp	786	1	blank2r.bmp	866	1	genießen	866	1	!	1319	1	!	-1	0	0	0	0	0	0	0	0	0	0	0	0	0	0	0	0	0	0	0	0	0	0	0	0	0	0	0
021819	14:09:03	14:13:51	287932	5.0.10.0	4_exp_AMP_EVA_AWA_CON	128  	Rpleas_acq	Oppo	Rpleas	Amasked	CS_A	2pleas	distractor1	EVAbeforeCON	acq_US_unple_masked	acq2_masked	2	17	480	1	300	300	0	0	447	46	0	1	0	0	0	1	blank2r.bmp	0	1	+	0	8	C4r.bmp	492	1	blank2r.bmp	786	1	CPLW	786	1	blank2r.bmp	866	3	krise	866	1	!	1319	1	!	1346	0	0	0	0	0	0	0	0	0	0	0	0	0	0	0	0	0	0	0	0	0	0	0	0	0	0	0
021819	14:09:03	14:13:53	290077	5.0.10.0	4_exp_AMP_EVA_AWA_CON	128  	Rpleas_acq	Oppo	Rpleas	Amasked	CS_A	2pleas	distractor1	EVAbeforeCON	acq_new_unple_masked	acq2_masked	2	18	480	0	300	300	0	0	377	46	0	1	0	0	0	1	blank2r.bmp	0	1	+	0	7	C3r.bmp	492	1	blank2r.bmp	786	5	C1r.bmp	786	1	blank2r.bmp	866	6	krank	866	1	!	-1	1	!	-1	0	0	0	0	0	0	0	0	0	0	0	0	0	0	0	0	0	0	0	0	0	0	0	0	0	0	0
021819	14:09:03	14:13:56	292476	5.0.10.0	4_exp_AMP_EVA_AWA_CON	128  	Rpleas_acq	Oppo	Rpleas	Amasked	CS_A	2pleas	distractor1	EVAbeforeCON	acq_new_unple_masked	acq2_masked	2	19	480	0	300	300	0	0	618	46	0	1	0	0	0	1	blank2r.bmp	0	1	+	0	2	B2r.bmp	492	1	blank2r.bmp	786	1	B1r.bmp	786	1	blank2r.bmp	866	5	gierig	866	1	!	1319	1	!	-1	0	0	0	0	0	0	0	0	0	0	0	0	0	0	0	0	0	0	0	0	0	0	0	0	0	0	0
021819	14:09:03	14:13:58	294982	5.0.10.0	4_exp_AMP_EVA_AWA_CON	128  	Rpleas_acq	Oppo	Rpleas	Amasked	CS_A	2pleas	distractor1	EVAbeforeCON	acq_US_unple_masked	acq2_masked	2	20	480	0	300	300	0	0	705	46	0	1	0	0	0	1	blank2r.bmp	0	1	+	0	4	B4r.bmp	492	1	blank2r.bmp	786	1	CPLW	786	1	blank2r.bmp	866	4	versagen	866	1	!	1319	1	!	-1	0	0	0	0	0	0	0	0	0	0	0	0	0	0	0	0	0	0	0	0	0	0	0	0	0	0	0
021819	14:09:03	14:14:01	297368	5.0.10.0	4_exp_AMP_EVA_AWA_CON	128  	Rpleas_acq	Oppo	Rpleas	Amasked	CS_A	2pleas	distractor1	EVAbeforeCON	acq_US_pleas_masked	acq2_masked	2	21	480	0	300	300	0	0	374	46	0	0	0	0	0	1	blank2r.bmp	0	1	+	0	6	C2r.bmp	492	1	blank2r.bmp	786	1	DHJF	786	1	blank2r.bmp	866	3	kuss	866	1	FEHLER	1585	1	!	-1	1	!	-1	0	0	0	0	0	0	0	0	0	0	0	0	0	0	0	0	0	0	0	0	0	0	0	0
021819	14:09:03	14:14:03	299447	5.0.10.0	4_exp_AMP_EVA_AWA_CON	128  	Rpleas_acq	Oppo	Rpleas	Amasked	CS_A	2pleas	distractor1	EVAbeforeCON	acq_new_pleas_masked	acq2_masked	2	22	480	1	300	300	0	0	485	50	0	1	0	0	0	1	blank2r.bmp	0	1	+	0	7	C3r.bmp	492	1	blank2r.bmp	786	6	C2r.bmp	786	1	blank2r.bmp	866	6	kreativ	866	1	!	1319	1	!	1386	0	0	0	0	0	0	0	0	0	0	0	0	0	0	0	0	0	0	0	0	0	0	0	0	0	0	0
021819	14:09:03	14:14:05	301739	5.0.10.0	4_exp_AMP_EVA_AWA_CON	128  	Rpleas_acq	Oppo	Rpleas	Amasked	CS_A	2pleas	distractor1	EVAbeforeCON	acq_new_unple_masked	acq2_masked	2	23	480	1	300	300	0	0	492	46	0	1	0	0	0	1	blank2r.bmp	0	1	+	0	4	B4r.bmp	492	1	blank2r.bmp	786	8	C4r.bmp	786	1	blank2r.bmp	866	1	gemein	866	1	!	1319	1	!	1399	0	0	0	0	0	0	0	0	0	0	0	0	0	0	0	0	0	0	0	0	0	0	0	0	0	0	0
021819	14:09:03	14:14:07	304058	5.0.10.0	4_exp_AMP_EVA_AWA_CON	128  	Rpleas_acq	Oppo	Rpleas	Amasked	CS_A	2pleas	distractor1	EVAbeforeCON	acq_US_pleas_masked	acq2_masked	2	24	480	1	300	300	0	0	524	50	0	1	0	0	0	1	blank2r.bmp	0	1	+	0	2	B2r.bmp	492	1	blank2r.bmp	786	1	DHJF	786	1	blank2r.bmp	866	4	vertrauen	866	1	!	1319	1	!	1426	0	0	0	0	0	0	0	0	0	0	0	0	0	0	0	0	0	0	0	0	0	0	0	0	0	0	0
021819	14:09:03	14:14:10	306377	5.0.10.0	4_exp_AMP_EVA_AWA_CON	128  	Rpleas_acq	Oppo	Rpleas	Amasked	CS_A	2pleas	distractor1	EVAbeforeCON	acq_US_unple_masked	acq2_masked	2	25	480	1	300	300	0	0	521	46	0	1	0	0	0	1	blank2r.bmp	0	1	+	0	1	B1r.bmp	492	1	blank2r.bmp	786	1	CPLW	786	1	blank2r.bmp	866	1	ausrottung	866	1	!	1319	1	!	1426	0	0	0	0	0	0	0	0	0	0	0	0	0	0	0	0	0	0	0	0	0	0	0	0	0	0	0
021819	14:09:03	14:14:12	308963	5.0.10.0	4_exp_AMP_EVA_AWA_CON	128  	Rpleas_acq	Oppo	Rpleas	Amasked	CS_A	2pleas	distractor1	EVAbeforeCON	acq_US_pleas_masked	acq2_masked	2	26	480	0	300	300	0	0	594	46	0	0	0	0	0	1	blank2r.bmp	0	1	+	0	8	C4r.bmp	492	1	blank2r.bmp	786	1	DHJF	786	1	blank2r.bmp	866	2	gesittet	866	1	FEHLER	1799	1	!	1319	1	!	-1	0	0	0	0	0	0	0	0	0	0	0	0	0	0	0	0	0	0	0	0	0	0	0	0
021819	14:09:03	14:14:14	311042	5.0.10.0	4_exp_AMP_EVA_AWA_CON	128  	Rpleas_acq	Oppo	Rpleas	Amasked	CS_A	2pleas	distractor1	EVAbeforeCON	acq_US_pleas_masked	acq2_masked	2	27	480	1	300	300	0	0	500	50	0	1	0	0	0	1	blank2r.bmp	0	1	+	0	3	B3r.bmp	492	1	blank2r.bmp	786	1	DHJF	786	1	blank2r.bmp	866	5	sonnig	866	1	!	1319	1	!	1399	0	0	0	0	0	0	0	0	0	0	0	0	0	0	0	0	0	0	0	0	0	0	0	0	0	0	0
021819	14:09:03	14:14:17	313308	5.0.10.0	4_exp_AMP_EVA_AWA_CON	128  	Rpleas_acq	Oppo	Rpleas	Amasked	CS_A	2pleas	distractor1	EVAbeforeCON	acq_new_unple_masked	acq2_masked	2	28	480	1	300	300	0	0	476	46	0	1	0	0	0	1	blank2r.bmp	0	1	+	0	5	C1r.bmp	492	1	blank2r.bmp	786	4	B4r.bmp	786	1	blank2r.bmp	866	3	verbissen	866	1	!	1319	1	!	1372	0	0	0	0	0	0	0	0	0	0	0	0	0	0	0	0	0	0	0	0	0	0	0	0	0	0	0
021819	14:09:03	14:14:19	315533	5.0.10.0	4_exp_AMP_EVA_AWA_CON	128  	Rpleas_acq	Oppo	Rpleas	Amasked	CS_A	2pleas	distractor1	EVAbeforeCON	acq_US_unple_masked	acq2_masked	2	29	480	1	300	300	0	0	437	46	0	1	0	0	0	1	blank2r.bmp	0	1	+	0	6	C2r.bmp	492	1	blank2r.bmp	786	1	CPLW	786	1	blank2r.bmp	866	6	töten	866	1	!	1319	1	!	1332	0	0	0	0	0	0	0	0	0	0	0	0	0	0	0	0	0	0	0	0	0	0	0	0	0	0	0
021819	14:09:03	14:14:21	317892	5.0.10.0	4_exp_AMP_EVA_AWA_CON	128  	Rpleas_acq	Oppo	Rpleas	Amasked	CS_A	2pleas	distractor1	EVAbeforeCON	acq_new_unple_masked	acq2_masked	2	30	480	0	300	300	0	0	588	46	0	1	0	0	0	1	blank2r.bmp	0	1	+	0	3	B3r.bmp	492	1	blank2r.bmp	786	3	B3r.bmp	786	1	blank2r.bmp	866	4	engstirnig	866	1	!	1319	1	!	-1	0	0	0	0	0	0	0	0	0	0	0	0	0	0	0	0	0	0	0	0	0	0	0	0	0	0	0
021819	14:09:03	14:14:24	320398	5.0.10.0	4_exp_AMP_EVA_AWA_CON	128  	Rpleas_acq	Oppo	Rpleas	Amasked	CS_A	2pleas	distractor1	EVAbeforeCON	acq_new_pleas_masked	acq2_masked	2	31	480	1	300	300	0	0	489	46	0	0	0	0	0	1	blank2r.bmp	0	1	+	0	8	C4r.bmp	492	1	blank2r.bmp	786	4	B4r.bmp	786	1	blank2r.bmp	866	4	engagiert	866	1	FEHLER	1705	1	!	1319	1	!	1386	0	0	0	0	0	0	0	0	0	0	0	0	0	0	0	0	0	0	0	0	0	0	0	0
021819	14:09:03	14:14:26	322464	5.0.10.0	4_exp_AMP_EVA_AWA_CON	128  	Rpleas_acq	Oppo	Rpleas	Amasked	CS_A	2pleas	distractor1	EVAbeforeCON	acq_new_pleas_masked	acq2_masked	2	32	480	1	300	300	0	0	484	50	0	1	0	0	0	1	blank2r.bmp	0	1	+	0	7	C3r.bmp	492	1	blank2r.bmp	786	5	C1r.bmp	786	1	blank2r.bmp	866	5	gütig	866	1	!	1319	1	!	1386	0	0	0	0	0	0	0	0	0	0	0	0	0	0	0	0	0	0	0	0	0	0	0	0	0	0	0
021819	14:09:03	14:14:28	324623	5.0.10.0	4_exp_AMP_EVA_AWA_CON	128  	Rpleas_acq	Oppo	Rpleas	Amasked	CS_A	2pleas	distractor1	EVAbeforeCON	acq_US_unple_masked	acq2_masked	2	33	480	0	300	300	0	0	396	46	0	1	0	0	0	1	blank2r.bmp	0	1	+	0	1	B1r.bmp	492	1	blank2r.bmp	786	1	CPLW	786	1	blank2r.bmp	866	5	sterben	866	1	!	-1	1	!	-1	0	0	0	0	0	0	0	0	0	0	0	0	0	0	0	0	0	0	0	0	0	0	0	0	0	0	0
021819	14:09:03	14:14:31	327195	5.0.10.0	4_exp_AMP_EVA_AWA_CON	128  	Rpleas_acq	Oppo	Rpleas	Amasked	CS_A	2pleas	distractor1	EVAbeforeCON	acq_new_unple_masked	acq2_masked	2	34	480	0	300	300	0	0	790	46	0	1	0	0	0	1	blank2r.bmp	0	1	+	0	5	C1r.bmp	492	1	blank2r.bmp	786	3	B3r.bmp	786	1	blank2r.bmp	866	2	bange	866	1	!	1319	1	!	-1	0	0	0	0	0	0	0	0	0	0	0	0	0	0	0	0	0	0	0	0	0	0	0	0	0	0	0
021819	14:09:03	14:14:33	329661	5.0.10.0	4_exp_AMP_EVA_AWA_CON	128  	Rpleas_acq	Oppo	Rpleas	Amasked	CS_A	2pleas	distractor1	EVAbeforeCON	acq_new_pleas_masked	acq2_masked	2	35	480	1	300	300	0	0	445	46	0	0	0	0	0	1	blank2r.bmp	0	1	+	0	4	B4r.bmp	492	1	blank2r.bmp	786	6	C2r.bmp	786	1	blank2r.bmp	866	3	vergnügt	866	1	FEHLER	1665	1	!	1319	1	!	1346	0	0	0	0	0	0	0	0	0	0	0	0	0	0	0	0	0	0	0	0	0	0	0	0
021819	14:09:03	14:14:35	331726	5.0.10.0	4_exp_AMP_EVA_AWA_CON	128  	Rpleas_acq	Oppo	Rpleas	Amasked	CS_A	2pleas	distractor1	EVAbeforeCON	acq_US_pleas_masked	acq2_masked	2	36	480	1	300	300	0	0	466	50	0	1	0	0	0	1	blank2r.bmp	0	1	+	0	2	B2r.bmp	492	1	blank2r.bmp	786	1	DHJF	786	1	blank2r.bmp	866	6	träumen	866	1	!	1319	1	!	1372	0	0	0	0	0	0	0	0	0	0	0	0	0	0	0	0	0	0	0	0	0	0	0	0	0	0	0
021819	14:09:03	14:14:56	352198	5.0.10.0	4_exp_AMP_EVA_AWA_CON	128  	Rpleas_acq	Oppo	Rpleas	Amasked	CS_A	2pleas	distractor1	EVAbeforeCON	acq_US_unple_masked	acq3_masked	3	1	453	0	300	300	0	0	656	46	0	1	0	0	0	1	blank2r.bmp	0	1	+	0	4	B4r.bmp	492	1	blank2r.bmp	786	1	CPLW	786	1	blank2r.bmp	866	1	ausrottung	866	1	!	1292	1	!	-1	0	0	0	0	0	0	0	0	0	0	0	0	0	0	0	0	0	0	0	0	0	0	0	0	0	0	0
021819	14:09:03	14:14:58	354464	5.0.10.0	4_exp_AMP_EVA_AWA_CON	128  	Rpleas_acq	Oppo	Rpleas	Amasked	CS_A	2pleas	distractor1	EVAbeforeCON	acq_US_pleas_masked	acq3_masked	3	2	453	1	300	300	0	0	457	50	0	1	0	0	0	1	blank2r.bmp	0	1	+	0	7	C3r.bmp	492	1	blank2r.bmp	786	1	DHJF	786	1	blank2r.bmp	866	2	gesittet	866	1	!	1292	1	!	1359	0	0	0	0	0	0	0	0	0	0	0	0	0	0	0	0	0	0	0	0	0	0	0	0	0	0	0
021819	14:09:03	14:15:00	356609	5.0.10.0	4_exp_AMP_EVA_AWA_CON	128  	Rpleas_acq	Oppo	Rpleas	Amasked	CS_A	2pleas	distractor1	EVAbeforeCON	acq_US_unple_masked	acq3_masked	3	3	453	0	300	300	0	0	383	46	0	1	0	0	0	1	blank2r.bmp	0	1	+	0	1	B1r.bmp	492	1	blank2r.bmp	786	1	CPLW	786	1	blank2r.bmp	866	2	geizig	866	1	!	-1	1	!	-1	0	0	0	0	0	0	0	0	0	0	0	0	0	0	0	0	0	0	0	0	0	0	0	0	0	0	0
021819	14:09:03	14:15:03	359142	5.0.10.0	4_exp_AMP_EVA_AWA_CON	128  	Rpleas_acq	Oppo	Rpleas	Amasked	CS_A	2pleas	distractor1	EVAbeforeCON	acq_US_pleas_masked	acq3_masked	3	4	453	0	300	300	0	0	743	50	0	1	0	0	0	1	blank2r.bmp	0	1	+	0	5	C1r.bmp	492	1	blank2r.bmp	786	1	DHJF	786	1	blank2r.bmp	866	1	anregung	866	1	!	1292	1	!	-1	0	0	0	0	0	0	0	0	0	0	0	0	0	0	0	0	0	0	0	0	0	0	0	0	0	0	0
021819	14:09:03	14:15:05	361461	5.0.10.0	4_exp_AMP_EVA_AWA_CON	128  	Rpleas_acq	Oppo	Rpleas	Amasked	CS_A	2pleas	distractor1	EVAbeforeCON	acq_US_pleas_masked	acq3_masked	3	5	453	1	300	300	0	0	510	50	0	1	0	0	0	1	blank2r.bmp	0	1	+	0	6	C2r.bmp	492	1	blank2r.bmp	786	1	DHJF	786	1	blank2r.bmp	866	4	vertrauen	866	1	!	1292	1	!	1412	0	0	0	0	0	0	0	0	0	0	0	0	0	0	0	0	0	0	0	0	0	0	0	0	0	0	0
021819	14:09:03	14:15:07	363780	5.0.10.0	4_exp_AMP_EVA_AWA_CON	128  	Rpleas_acq	Oppo	Rpleas	Amasked	CS_A	2pleas	distractor1	EVAbeforeCON	acq_US_unple_masked	acq3_masked	3	6	453	0	300	300	0	0	549	46	0	1	0	0	0	1	blank2r.bmp	0	1	+	0	2	B2r.bmp	492	1	blank2r.bmp	786	1	CPLW	786	1	blank2r.bmp	866	4	versagen	866	1	!	1292	1	!	-1	0	0	0	0	0	0	0	0	0	0	0	0	0	0	0	0	0	0	0	0	0	0	0	0	0	0	0
021819	14:09:03	14:15:09	366059	5.0.10.0	4_exp_AMP_EVA_AWA_CON	128  	Rpleas_acq	Oppo	Rpleas	Amasked	CS_A	2pleas	distractor1	EVAbeforeCON	acq_US_unple_masked	acq3_masked	3	7	453	1	300	300	0	0	478	46	0	1	0	0	0	1	blank2r.bmp	0	1	+	0	8	C4r.bmp	492	1	blank2r.bmp	786	1	CPLW	786	1	blank2r.bmp	866	6	töten	866	1	!	1292	1	!	1372	0	0	0	0	0	0	0	0	0	0	0	0	0	0	0	0	0	0	0	0	0	0	0	0	0	0	0
021819	14:09:03	14:15:12	368338	5.0.10.0	4_exp_AMP_EVA_AWA_CON	128  	Rpleas_acq	Oppo	Rpleas	Amasked	CS_A	2pleas	distractor1	EVAbeforeCON	acq_US_unple_masked	acq3_masked	3	8	453	1	300	300	0	0	477	46	0	1	0	0	0	1	blank2r.bmp	0	1	+	0	3	B3r.bmp	492	1	blank2r.bmp	786	1	CPLW	786	1	blank2r.bmp	866	3	krise	866	1	!	1292	1	!	1372	0	0	0	0	0	0	0	0	0	0	0	0	0	0	0	0	0	0	0	0	0	0	0	0	0	0	0
021819	14:09:03	14:15:14	370577	5.0.10.0	4_exp_AMP_EVA_AWA_CON	128  	Rpleas_acq	Oppo	Rpleas	Amasked	CS_A	2pleas	distractor1	EVAbeforeCON	acq_US_pleas_masked	acq3_masked	3	9	453	1	300	300	0	0	429	50	0	1	0	0	0	1	blank2r.bmp	0	1	+	0	4	B4r.bmp	492	1	blank2r.bmp	786	1	DHJF	786	1	blank2r.bmp	866	6	träumen	866	1	!	1292	1	!	1332	0	0	0	0	0	0	0	0	0	0	0	0	0	0	0	0	0	0	0	0	0	0	0	0	0	0	0
021819	14:09:03	14:15:16	372802	5.0.10.0	4_exp_AMP_EVA_AWA_CON	128  	Rpleas_acq	Oppo	Rpleas	Amasked	CS_A	2pleas	distractor1	EVAbeforeCON	acq_US_pleas_masked	acq3_masked	3	10	453	1	300	300	0	0	430	50	0	1	0	0	0	1	blank2r.bmp	0	1	+	0	5	C1r.bmp	492	1	blank2r.bmp	786	1	DHJF	786	1	blank2r.bmp	866	5	sonnig	866	1	!	1292	1	!	1332	0	0	0	0	0	0	0	0	0	0	0	0	0	0	0	0	0	0	0	0	0	0	0	0	0	0	0
021819	14:09:03	14:15:18	374948	5.0.10.0	4_exp_AMP_EVA_AWA_CON	128  	Rpleas_acq	Oppo	Rpleas	Amasked	CS_A	2pleas	distractor1	EVAbeforeCON	acq_US_unple_masked	acq3_masked	3	11	453	0	300	300	0	0	384	46	0	1	0	0	0	1	blank2r.bmp	0	1	+	0	8	C4r.bmp	492	1	blank2r.bmp	786	1	CPLW	786	1	blank2r.bmp	866	5	sterben	866	1	!	-1	1	!	-1	0	0	0	0	0	0	0	0	0	0	0	0	0	0	0	0	0	0	0	0	0	0	0	0	0	0	0
021819	14:09:03	14:15:21	377201	5.0.10.0	4_exp_AMP_EVA_AWA_CON	128  	Rpleas_acq	Oppo	Rpleas	Amasked	CS_A	2pleas	distractor1	EVAbeforeCON	acq_US_pleas_masked	acq3_masked	3	12	453	1	300	300	0	0	446	50	0	1	0	0	0	1	blank2r.bmp	0	1	+	0	1	B1r.bmp	492	1	blank2r.bmp	786	1	DHJF	786	1	blank2r.bmp	866	3	kuss	866	1	!	1292	1	!	1346	0	0	0	0	0	0	0	0	0	0	0	0	0	0	0	0	0	0	0	0	0	0	0	0	0	0	0
021819	14:09:03	14:15:23	379293	5.0.10.0	4_exp_AMP_EVA_AWA_CON	128  	Rpleas_acq	Oppo	Rpleas	Amasked	CS_A	2pleas	distractor1	EVAbeforeCON	acq_US_unple_masked	acq3_masked	3	13	453	0	300	300	0	0	321	46	0	1	0	0	0	1	blank2r.bmp	0	1	+	0	7	C3r.bmp	492	1	blank2r.bmp	786	1	CPLW	786	1	blank2r.bmp	866	6	töten	866	1	!	-1	1	!	-1	0	0	0	0	0	0	0	0	0	0	0	0	0	0	0	0	0	0	0	0	0	0	0	0	0	0	0
021819	14:09:03	14:15:25	381719	5.0.10.0	4_exp_AMP_EVA_AWA_CON	128  	Rpleas_acq	Oppo	Rpleas	Amasked	CS_A	2pleas	distractor1	EVAbeforeCON	acq_US_pleas_masked	acq3_masked	3	14	453	0	300	300	0	0	638	50	0	1	0	0	0	1	blank2r.bmp	0	1	+	0	3	B3r.bmp	492	1	blank2r.bmp	786	1	DHJF	786	1	blank2r.bmp	866	6	träumen	866	1	!	1292	1	!	-1	0	0	0	0	0	0	0	0	0	0	0	0	0	0	0	0	0	0	0	0	0	0	0	0	0	0	0
021819	14:09:03	14:15:27	383971	5.0.10.0	4_exp_AMP_EVA_AWA_CON	128  	Rpleas_acq	Oppo	Rpleas	Amasked	CS_A	2pleas	distractor1	EVAbeforeCON	acq_US_unple_masked	acq3_masked	3	15	453	1	300	300	0	0	464	46	0	1	0	0	0	1	blank2r.bmp	0	1	+	0	6	C2r.bmp	492	1	blank2r.bmp	786	1	CPLW	786	1	blank2r.bmp	866	1	ausrottung	866	1	!	1292	1	!	1359	0	0	0	0	0	0	0	0	0	0	0	0	0	0	0	0	0	0	0	0	0	0	0	0	0	0	0
021819	14:09:03	14:15:30	386450	5.0.10.0	4_exp_AMP_EVA_AWA_CON	128  	Rpleas_acq	Oppo	Rpleas	Amasked	CS_A	2pleas	distractor1	EVAbeforeCON	acq_US_unple_masked	acq3_masked	3	16	453	1	300	300	0	0	477	50	0	0	0	0	0	1	blank2r.bmp	0	1	+	0	2	B2r.bmp	492	1	blank2r.bmp	786	1	CPLW	786	1	blank2r.bmp	866	2	geizig	866	1	FEHLER	1692	1	!	1292	1	!	1372	0	0	0	0	0	0	0	0	0	0	0	0	0	0	0	0	0	0	0	0	0	0	0	0
021819	14:09:03	14:15:32	388596	5.0.10.0	4_exp_AMP_EVA_AWA_CON	128  	Rpleas_acq	Oppo	Rpleas	Amasked	CS_A	2pleas	distractor1	EVAbeforeCON	acq_US_pleas_masked	acq3_masked	3	17	453	0	300	300	0	0	359	46	0	0	0	0	0	1	blank2r.bmp	0	1	+	0	1	B1r.bmp	492	1	blank2r.bmp	786	1	DHJF	786	1	blank2r.bmp	866	4	vertrauen	866	1	FEHLER	1572	1	!	-1	1	!	-1	0	0	0	0	0	0	0	0	0	0	0	0	0	0	0	0	0	0	0	0	0	0	0	0
021819	14:09:03	14:15:34	390635	5.0.10.0	4_exp_AMP_EVA_AWA_CON	128  	Rpleas_acq	Oppo	Rpleas	Amasked	CS_A	2pleas	distractor1	EVAbeforeCON	acq_US_unple_masked	acq3_masked	3	18	453	1	300	300	0	0	447	46	0	1	0	0	0	1	blank2r.bmp	0	1	+	0	8	C4r.bmp	492	1	blank2r.bmp	786	1	CPLW	786	1	blank2r.bmp	866	4	versagen	866	1	!	1292	1	!	1346	0	0	0	0	0	0	0	0	0	0	0	0	0	0	0	0	0	0	0	0	0	0	0	0	0	0	0
021819	14:09:03	14:15:36	392914	5.0.10.0	4_exp_AMP_EVA_AWA_CON	128  	Rpleas_acq	Oppo	Rpleas	Amasked	CS_A	2pleas	distractor1	EVAbeforeCON	acq_US_unple_masked	acq3_masked	3	19	453	1	300	300	0	0	486	46	0	1	0	0	0	1	blank2r.bmp	0	1	+	0	3	B3r.bmp	492	1	blank2r.bmp	786	1	CPLW	786	1	blank2r.bmp	866	3	krise	866	1	!	1292	1	!	1386	0	0	0	0	0	0	0	0	0	0	0	0	0	0	0	0	0	0	0	0	0	0	0	0	0	0	0
021819	14:09:03	14:15:39	395353	5.0.10.0	4_exp_AMP_EVA_AWA_CON	128  	Rpleas_acq	Oppo	Rpleas	Amasked	CS_A	2pleas	distractor1	EVAbeforeCON	acq_US_pleas_masked	acq3_masked	3	20	453	1	300	300	0	0	427	46	0	0	0	0	0	1	blank2r.bmp	0	1	+	0	5	C1r.bmp	492	1	blank2r.bmp	786	1	DHJF	786	1	blank2r.bmp	866	2	gesittet	866	1	FEHLER	1652	1	!	1292	1	!	1332	0	0	0	0	0	0	0	0	0	0	0	0	0	0	0	0	0	0	0	0	0	0	0	0
021819	14:09:03	14:15:41	397379	5.0.10.0	4_exp_AMP_EVA_AWA_CON	128  	Rpleas_acq	Oppo	Rpleas	Amasked	CS_A	2pleas	distractor1	EVAbeforeCON	acq_US_pleas_masked	acq3_masked	3	21	453	1	300	300	0	0	441	50	0	1	0	0	0	1	blank2r.bmp	0	1	+	0	4	B4r.bmp	492	1	blank2r.bmp	786	1	DHJF	786	1	blank2r.bmp	866	5	sonnig	866	1	!	1292	1	!	1346	0	0	0	0	0	0	0	0	0	0	0	0	0	0	0	0	0	0	0	0	0	0	0	0	0	0	0
021819	14:09:03	14:15:43	399525	5.0.10.0	4_exp_AMP_EVA_AWA_CON	128  	Rpleas_acq	Oppo	Rpleas	Amasked	CS_A	2pleas	distractor1	EVAbeforeCON	acq_US_unple_masked	acq3_masked	3	22	453	0	300	300	0	0	377	46	0	1	0	0	0	1	blank2r.bmp	0	1	+	0	2	B2r.bmp	492	1	blank2r.bmp	786	1	CPLW	786	1	blank2r.bmp	866	5	sterben	866	1	!	-1	1	!	-1	0	0	0	0	0	0	0	0	0	0	0	0	0	0	0	0	0	0	0	0	0	0	0	0	0	0	0
021819	14:09:03	14:15:45	401697	5.0.10.0	4_exp_AMP_EVA_AWA_CON	128  	Rpleas_acq	Oppo	Rpleas	Amasked	CS_A	2pleas	distractor1	EVAbeforeCON	acq_US_pleas_masked	acq3_masked	3	23	453	0	300	300	0	0	384	50	0	1	0	0	0	1	blank2r.bmp	0	1	+	0	6	C2r.bmp	492	1	blank2r.bmp	786	1	DHJF	786	1	blank2r.bmp	866	3	kuss	866	1	!	-1	1	!	-1	0	0	0	0	0	0	0	0	0	0	0	0	0	0	0	0	0	0	0	0	0	0	0	0	0	0	0
021819	14:09:03	14:15:47	404029	5.0.10.0	4_exp_AMP_EVA_AWA_CON	128  	Rpleas_acq	Oppo	Rpleas	Amasked	CS_A	2pleas	distractor1	EVAbeforeCON	acq_US_pleas_masked	acq3_masked	3	24	453	0	300	300	0	0	550	50	0	1	0	0	0	1	blank2r.bmp	0	1	+	0	7	C3r.bmp	492	1	blank2r.bmp	786	1	DHJF	786	1	blank2r.bmp	866	1	anregung	866	1	!	1292	1	!	-1	0	0	0	0	0	0	0	0	0	0	0	0	0	0	0	0	0	0	0	0	0	0	0	0	0	0	0
021819	14:09:03	14:15:50	406428	5.0.10.0	4_exp_AMP_EVA_AWA_CON	128  	Rpleas_acq	Oppo	Rpleas	Amasked	CS_A	2pleas	distractor1	EVAbeforeCON	acq_US_pleas_masked	acq3_masked	3	25	453	0	300	300	0	0	621	50	0	1	0	0	0	1	blank2r.bmp	0	1	+	0	5	C1r.bmp	492	1	blank2r.bmp	786	1	DHJF	786	1	blank2r.bmp	866	1	anregung	866	1	!	1292	1	!	-1	0	0	0	0	0	0	0	0	0	0	0	0	0	0	0	0	0	0	0	0	0	0	0	0	0	0	0
021819	14:09:03	14:15:52	408641	5.0.10.0	4_exp_AMP_EVA_AWA_CON	128  	Rpleas_acq	Oppo	Rpleas	Amasked	CS_A	2pleas	distractor1	EVAbeforeCON	acq_US_unple_masked	acq3_masked	3	26	453	1	300	300	0	0	402	46	0	1	0	0	0	1	blank2r.bmp	0	1	+	0	6	C2r.bmp	492	1	blank2r.bmp	786	1	CPLW	786	1	blank2r.bmp	866	5	sterben	866	1	!	1292	1	!	1306	0	0	0	0	0	0	0	0	0	0	0	0	0	0	0	0	0	0	0	0	0	0	0	0	0	0	0
021819	14:09:03	14:15:54	410946	5.0.10.0	4_exp_AMP_EVA_AWA_CON	128  	Rpleas_acq	Oppo	Rpleas	Amasked	CS_A	2pleas	distractor1	EVAbeforeCON	acq_US_pleas_masked	acq3_masked	3	27	453	0	300	300	0	0	537	50	0	1	0	0	0	1	blank2r.bmp	0	1	+	0	7	C3r.bmp	492	1	blank2r.bmp	786	1	DHJF	786	1	blank2r.bmp	866	5	sonnig	866	1	!	1292	1	!	-1	0	0	0	0	0	0	0	0	0	0	0	0	0	0	0	0	0	0	0	0	0	0	0	0	0	0	0
021819	14:09:03	14:15:57	413212	5.0.10.0	4_exp_AMP_EVA_AWA_CON	128  	Rpleas_acq	Oppo	Rpleas	Amasked	CS_A	2pleas	distractor1	EVAbeforeCON	acq_US_unple_masked	acq3_masked	3	28	453	1	300	300	0	0	460	46	0	1	0	0	0	1	blank2r.bmp	0	1	+	0	2	B2r.bmp	492	1	blank2r.bmp	786	1	CPLW	786	1	blank2r.bmp	866	3	krise	866	1	!	1292	1	!	1359	0	0	0	0	0	0	0	0	0	0	0	0	0	0	0	0	0	0	0	0	0	0	0	0	0	0	0
021819	14:09:03	14:15:59	415411	5.0.10.0	4_exp_AMP_EVA_AWA_CON	128  	Rpleas_acq	Oppo	Rpleas	Amasked	CS_A	2pleas	distractor1	EVAbeforeCON	acq_US_pleas_masked	acq3_masked	3	29	453	1	300	300	0	0	399	50	0	1	0	0	0	1	blank2r.bmp	0	1	+	0	1	B1r.bmp	492	1	blank2r.bmp	786	1	DHJF	786	1	blank2r.bmp	866	3	kuss	866	1	!	1292	1	!	1306	0	0	0	0	0	0	0	0	0	0	0	0	0	0	0	0	0	0	0	0	0	0	0	0	0	0	0
021819	14:09:03	14:16:01	417650	5.0.10.0	4_exp_AMP_EVA_AWA_CON	128  	Rpleas_acq	Oppo	Rpleas	Amasked	CS_A	2pleas	distractor1	EVAbeforeCON	acq_US_unple_masked	acq3_masked	3	30	453	1	300	300	0	0	439	46	0	1	0	0	0	1	blank2r.bmp	0	1	+	0	4	B4r.bmp	492	1	blank2r.bmp	786	1	CPLW	786	1	blank2r.bmp	866	6	töten	866	1	!	1292	1	!	1346	0	0	0	0	0	0	0	0	0	0	0	0	0	0	0	0	0	0	0	0	0	0	0	0	0	0	0
021819	14:09:03	14:16:04	420129	5.0.10.0	4_exp_AMP_EVA_AWA_CON	128  	Rpleas_acq	Oppo	Rpleas	Amasked	CS_A	2pleas	distractor1	EVAbeforeCON	acq_US_pleas_masked	acq3_masked	3	31	453	1	300	300	0	0	468	46	0	0	0	0	0	1	blank2r.bmp	0	1	+	0	3	B3r.bmp	492	1	blank2r.bmp	786	1	DHJF	786	1	blank2r.bmp	866	2	gesittet	866	1	FEHLER	1692	1	!	1292	1	!	1372	0	0	0	0	0	0	0	0	0	0	0	0	0	0	0	0	0	0	0	0	0	0	0	0
021819	14:09:03	14:16:06	422168	5.0.10.0	4_exp_AMP_EVA_AWA_CON	128  	Rpleas_acq	Oppo	Rpleas	Amasked	CS_A	2pleas	distractor1	EVAbeforeCON	acq_US_unple_masked	acq3_masked	3	32	453	1	300	300	0	0	453	46	0	1	0	0	0	1	blank2r.bmp	0	1	+	0	8	C4r.bmp	492	1	blank2r.bmp	786	1	CPLW	786	1	blank2r.bmp	866	2	geizig	866	1	!	1292	1	!	1359	0	0	0	0	0	0	0	0	0	0	0	0	0	0	0	0	0	0	0	0	0	0	0	0	0	0	0
021819	14:09:03	14:16:08	424514	5.0.10.0	4_exp_AMP_EVA_AWA_CON	128  	Rpleas_acq	Oppo	Rpleas	Amasked	CS_A	2pleas	distractor1	EVAbeforeCON	acq_US_unple_masked	acq3_masked	3	33	453	0	300	300	0	0	580	46	0	1	0	0	0	1	blank2r.bmp	0	1	+	0	5	C1r.bmp	492	1	blank2r.bmp	786	1	CPLW	786	1	blank2r.bmp	866	4	versagen	866	1	!	1292	1	!	-1	0	0	0	0	0	0	0	0	0	0	0	0	0	0	0	0	0	0	0	0	0	0	0	0	0	0	0
021819	14:09:03	14:16:10	426673	5.0.10.0	4_exp_AMP_EVA_AWA_CON	128  	Rpleas_acq	Oppo	Rpleas	Amasked	CS_A	2pleas	distractor1	EVAbeforeCON	acq_US_pleas_masked	acq3_masked	3	34	453	0	300	300	0	0	359	50	0	1	0	0	0	1	blank2r.bmp	0	1	+	0	3	B3r.bmp	492	1	blank2r.bmp	786	1	DHJF	786	1	blank2r.bmp	866	6	träumen	866	1	!	-1	1	!	-1	0	0	0	0	0	0	0	0	0	0	0	0	0	0	0	0	0	0	0	0	0	0	0	0	0	0	0
021819	14:09:03	14:16:12	428952	5.0.10.0	4_exp_AMP_EVA_AWA_CON	128  	Rpleas_acq	Oppo	Rpleas	Amasked	CS_A	2pleas	distractor1	EVAbeforeCON	acq_US_pleas_masked	acq3_masked	3	35	453	1	300	300	0	0	467	50	0	1	0	0	0	1	blank2r.bmp	0	1	+	0	6	C2r.bmp	492	1	blank2r.bmp	786	1	DHJF	786	1	blank2r.bmp	866	4	vertrauen	866	1	!	1292	1	!	1372	0	0	0	0	0	0	0	0	0	0	0	0	0	0	0	0	0	0	0	0	0	0	0	0	0	0	0
021819	14:09:03	14:16:15	431151	5.0.10.0	4_exp_AMP_EVA_AWA_CON	128  	Rpleas_acq	Oppo	Rpleas	Amasked	CS_A	2pleas	distractor1	EVAbeforeCON	acq_US_unple_masked	acq3_masked	3	36	453	1	300	300	0	0	404	46	0	1	0	0	0	1	blank2r.bmp	0	1	+	0	1	B1r.bmp	492	1	blank2r.bmp	786	1	CPLW	786	1	blank2r.bmp	866	1	ausrottung	866	1	!	1292	1	!	1306	0	0	0	0	0	0	0	0	0	0	0	0	0	0	0	0	0	0	0	0	0	0	0	0	0	0	0
021819	14:09:03	14:16:33	449690	5.0.10.0	4_exp_AMP_EVA_AWA_CON	128  	Rpleas_acq	Oppo	Rpleas	Amasked	CS_A	2pleas	distractor1	EVAbeforeCON	acq_US_pleas_masked	acq45_masked	4	1	400	0	300	300	0	0	508	50	0	1	0	0	0	1	blank2r.bmp	0	1	+	0	8	C4r.bmp	492	1	blank2r.bmp	786	1	DHJF	786	1	blank2r.bmp	866	5	sonnig	866	1	!	1239	1	!	-1	0	0	0	0	0	0	0	0	0	0	0	0	0	0	0	0	0	0	0	0	0	0	0	0	0	0	0
021819	14:09:03	14:16:35	451916	5.0.10.0	4_exp_AMP_EVA_AWA_CON	128  	Rpleas_acq	Oppo	Rpleas	Amasked	CS_A	2pleas	distractor1	EVAbeforeCON	acq_US_unple_masked	acq45_masked	4	2	400	1	300	300	0	0	422	50	0	0	0	0	0	1	blank2r.bmp	0	1	+	0	2	B2r.bmp	492	1	blank2r.bmp	786	1	CPLW	786	1	blank2r.bmp	866	2	geizig	866	1	!	1239	1	!	1319	0	0	0	0	0	0	0	0	0	0	0	0	0	0	0	0	0	0	0	0	0	0	0	0	0	0	0
021819	14:09:03	14:16:38	454168	5.0.10.0	4_exp_AMP_EVA_AWA_CON	128  	Rpleas_acq	Oppo	Rpleas	Amasked	CS_A	2pleas	distractor1	EVAbeforeCON	acq_US_pleas_masked	acq45_masked	4	3	400	0	300	300	0	0	479	50	0	1	0	0	0	1	blank2r.bmp	0	1	+	0	4	B4r.bmp	492	1	blank2r.bmp	786	1	DHJF	786	1	blank2r.bmp	866	6	träumen	866	1	!	1239	1	!	-1	0	0	0	0	0	0	0	0	0	0	0	0	0	0	0	0	0	0	0	0	0	0	0	0	0	0	0
021819	14:09:03	14:16:40	456434	5.0.10.0	4_exp_AMP_EVA_AWA_CON	128  	Rpleas_acq	Oppo	Rpleas	Amasked	CS_A	2pleas	distractor1	EVAbeforeCON	acq_US_unple_masked	acq45_masked	4	4	400	1	300	300	0	0	461	46	0	1	0	0	0	1	blank2r.bmp	0	1	+	0	7	C3r.bmp	492	1	blank2r.bmp	786	1	CPLW	786	1	blank2r.bmp	866	4	versagen	866	1	!	1239	1	!	1359	0	0	0	0	0	0	0	0	0	0	0	0	0	0	0	0	0	0	0	0	0	0	0	0	0	0	0
021819	14:09:03	14:16:42	458633	5.0.10.0	4_exp_AMP_EVA_AWA_CON	128  	Rpleas_acq	Oppo	Rpleas	Amasked	CS_A	2pleas	distractor1	EVAbeforeCON	acq_US_pleas_masked	acq45_masked	4	5	400	1	300	300	0	0	411	50	0	1	0	0	0	1	blank2r.bmp	0	1	+	0	8	C4r.bmp	492	1	blank2r.bmp	786	1	DHJF	786	1	blank2r.bmp	866	3	kuss	866	1	!	1239	1	!	1306	0	0	0	0	0	0	0	0	0	0	0	0	0	0	0	0	0	0	0	0	0	0	0	0	0	0	0
021819	14:09:03	14:16:44	460859	5.0.10.0	4_exp_AMP_EVA_AWA_CON	128  	Rpleas_acq	Oppo	Rpleas	Amasked	CS_A	2pleas	distractor1	EVAbeforeCON	acq_US_unple_masked	acq45_masked	4	6	400	1	300	300	0	0	430	46	0	1	0	0	0	1	blank2r.bmp	0	1	+	0	6	C2r.bmp	492	1	blank2r.bmp	786	1	CPLW	786	1	blank2r.bmp	866	1	ausrottung	866	1	!	1239	1	!	1332	0	0	0	0	0	0	0	0	0	0	0	0	0	0	0	0	0	0	0	0	0	0	0	0	0	0	0
021819	14:09:03	14:16:46	463031	5.0.10.0	4_exp_AMP_EVA_AWA_CON	128  	Rpleas_acq	Oppo	Rpleas	Amasked	CS_A	2pleas	distractor1	EVAbeforeCON	acq_US_unple_masked	acq45_masked	4	7	400	1	300	300	0	0	376	46	0	1	0	0	0	1	blank2r.bmp	0	1	+	0	2	B2r.bmp	492	1	blank2r.bmp	786	1	CPLW	786	1	blank2r.bmp	866	3	krise	866	1	!	1239	1	!	1279	0	0	0	0	0	0	0	0	0	0	0	0	0	0	0	0	0	0	0	0	0	0	0	0	0	0	0
021819	14:09:03	14:16:49	465284	5.0.10.0	4_exp_AMP_EVA_AWA_CON	128  	Rpleas_acq	Oppo	Rpleas	Amasked	CS_A	2pleas	distractor1	EVAbeforeCON	acq_US_unple_masked	acq45_masked	4	8	400	0	300	300	0	0	481	46	0	1	0	0	0	1	blank2r.bmp	0	1	+	0	4	B4r.bmp	492	1	blank2r.bmp	786	1	CPLW	786	1	blank2r.bmp	866	6	töten	866	1	!	1239	1	!	-1	0	0	0	0	0	0	0	0	0	0	0	0	0	0	0	0	0	0	0	0	0	0	0	0	0	0	0
021819	14:09:03	14:16:51	467563	5.0.10.0	4_exp_AMP_EVA_AWA_CON	128  	Rpleas_acq	Oppo	Rpleas	Amasked	CS_A	2pleas	distractor1	EVAbeforeCON	acq_US_pleas_masked	acq45_masked	4	9	400	0	300	300	0	0	494	46	0	0	0	0	0	1	blank2r.bmp	0	1	+	0	7	C3r.bmp	492	1	blank2r.bmp	786	1	DHJF	786	1	blank2r.bmp	866	2	gesittet	866	1	!	1239	1	!	-1	0	0	0	0	0	0	0	0	0	0	0	0	0	0	0	0	0	0	0	0	0	0	0	0	0	0	0
021819	14:09:03	14:16:53	469722	5.0.10.0	4_exp_AMP_EVA_AWA_CON	128  	Rpleas_acq	Oppo	Rpleas	Amasked	CS_A	2pleas	distractor1	EVAbeforeCON	acq_US_unple_masked	acq45_masked	4	10	400	1	300	300	0	0	347	46	0	1	0	0	0	1	blank2r.bmp	0	1	+	0	3	B3r.bmp	492	1	blank2r.bmp	786	1	CPLW	786	1	blank2r.bmp	866	5	sterben	866	1	!	1239	1	!	1252	0	0	0	0	0	0	0	0	0	0	0	0	0	0	0	0	0	0	0	0	0	0	0	0	0	0	0
021819	14:09:03	14:16:55	471828	5.0.10.0	4_exp_AMP_EVA_AWA_CON	128  	Rpleas_acq	Oppo	Rpleas	Amasked	CS_A	2pleas	distractor1	EVAbeforeCON	acq_US_unple_masked	acq45_masked	4	11	400	0	300	300	0	0	330	46	0	1	0	0	0	1	blank2r.bmp	0	1	+	0	5	C1r.bmp	492	1	blank2r.bmp	786	1	CPLW	786	1	blank2r.bmp	866	3	krise	866	1	!	-1	1	!	-1	0	0	0	0	0	0	0	0	0	0	0	0	0	0	0	0	0	0	0	0	0	0	0	0	0	0	0
021819	14:09:03	14:16:57	474067	5.0.10.0	4_exp_AMP_EVA_AWA_CON	128  	Rpleas_acq	Oppo	Rpleas	Amasked	CS_A	2pleas	distractor1	EVAbeforeCON	acq_US_unple_masked	acq45_masked	4	12	400	1	300	300	0	0	427	46	0	1	0	0	0	1	blank2r.bmp	0	1	+	0	1	B1r.bmp	492	1	blank2r.bmp	786	1	CPLW	786	1	blank2r.bmp	866	4	versagen	866	1	!	1239	1	!	1332	0	0	0	0	0	0	0	0	0	0	0	0	0	0	0	0	0	0	0	0	0	0	0	0	0	0	0
021819	14:09:03	14:17:00	476239	5.0.10.0	4_exp_AMP_EVA_AWA_CON	128  	Rpleas_acq	Oppo	Rpleas	Amasked	CS_A	2pleas	distractor1	EVAbeforeCON	acq_US_unple_masked	acq45_masked	4	13	400	1	300	300	0	0	382	46	0	1	0	0	0	1	blank2r.bmp	0	1	+	0	7	C3r.bmp	492	1	blank2r.bmp	786	1	CPLW	786	1	blank2r.bmp	866	5	sterben	866	1	!	1239	1	!	1279	0	0	0	0	0	0	0	0	0	0	0	0	0	0	0	0	0	0	0	0	0	0	0	0	0	0	0
021819	14:09:03	14:17:02	478491	5.0.10.0	4_exp_AMP_EVA_AWA_CON	128  	Rpleas_acq	Oppo	Rpleas	Amasked	CS_A	2pleas	distractor1	EVAbeforeCON	acq_US_pleas_masked	acq45_masked	4	14	400	1	300	300	0	0	459	46	0	0	0	0	0	1	blank2r.bmp	0	1	+	0	3	B3r.bmp	492	1	blank2r.bmp	786	1	DHJF	786	1	blank2r.bmp	866	1	anregung	866	1	!	1239	1	!	1359	0	0	0	0	0	0	0	0	0	0	0	0	0	0	0	0	0	0	0	0	0	0	0	0	0	0	0
021819	14:09:03	14:17:04	480744	5.0.10.0	4_exp_AMP_EVA_AWA_CON	128  	Rpleas_acq	Oppo	Rpleas	Amasked	CS_A	2pleas	distractor1	EVAbeforeCON	acq_US_pleas_masked	acq45_masked	4	15	400	1	300	300	0	0	452	50	0	1	0	0	0	1	blank2r.bmp	0	1	+	0	5	C1r.bmp	492	1	blank2r.bmp	786	1	DHJF	786	1	blank2r.bmp	866	4	vertrauen	866	1	!	1239	1	!	1359	0	0	0	0	0	0	0	0	0	0	0	0	0	0	0	0	0	0	0	0	0	0	0	0	0	0	0
021819	14:09:03	14:17:06	482996	5.0.10.0	4_exp_AMP_EVA_AWA_CON	128  	Rpleas_acq	Oppo	Rpleas	Amasked	CS_A	2pleas	distractor1	EVAbeforeCON	acq_US_pleas_masked	acq45_masked	4	16	400	1	300	300	0	0	453	50	0	1	0	0	0	1	blank2r.bmp	0	1	+	0	4	B4r.bmp	492	1	blank2r.bmp	786	1	DHJF	786	1	blank2r.bmp	866	3	kuss	866	1	!	1239	1	!	1359	0	0	0	0	0	0	0	0	0	0	0	0	0	0	0	0	0	0	0	0	0	0	0	0	0	0	0
021819	14:09:03	14:17:09	485209	5.0.10.0	4_exp_AMP_EVA_AWA_CON	128  	Rpleas_acq	Oppo	Rpleas	Amasked	CS_A	2pleas	distractor1	EVAbeforeCON	acq_US_pleas_masked	acq45_masked	4	17	400	1	300	300	0	0	403	50	0	1	0	0	0	1	blank2r.bmp	0	1	+	0	6	C2r.bmp	492	1	blank2r.bmp	786	1	DHJF	786	1	blank2r.bmp	866	4	vertrauen	866	1	!	1239	1	!	1306	0	0	0	0	0	0	0	0	0	0	0	0	0	0	0	0	0	0	0	0	0	0	0	0	0	0	0
021819	14:09:03	14:17:11	487501	5.0.10.0	4_exp_AMP_EVA_AWA_CON	128  	Rpleas_acq	Oppo	Rpleas	Amasked	CS_A	2pleas	distractor1	EVAbeforeCON	acq_US_pleas_masked	acq45_masked	4	18	400	0	300	300	0	0	528	50	0	1	0	0	0	1	blank2r.bmp	0	1	+	0	8	C4r.bmp	492	1	blank2r.bmp	786	1	DHJF	786	1	blank2r.bmp	866	1	anregung	866	1	!	1239	1	!	-1	0	0	0	0	0	0	0	0	0	0	0	0	0	0	0	0	0	0	0	0	0	0	0	0	0	0	0
021819	14:09:03	14:17:13	489767	5.0.10.0	4_exp_AMP_EVA_AWA_CON	128  	Rpleas_acq	Oppo	Rpleas	Amasked	CS_A	2pleas	distractor1	EVAbeforeCON	acq_US_pleas_masked	acq45_masked	4	19	400	0	300	300	0	0	479	50	0	1	0	0	0	1	blank2r.bmp	0	1	+	0	1	B1r.bmp	492	1	blank2r.bmp	786	1	DHJF	786	1	blank2r.bmp	866	6	träumen	866	1	!	1239	1	!	-1	0	0	0	0	0	0	0	0	0	0	0	0	0	0	0	0	0	0	0	0	0	0	0	0	0	0	0
021819	14:09:03	14:17:15	491966	5.0.10.0	4_exp_AMP_EVA_AWA_CON	128  	Rpleas_acq	Oppo	Rpleas	Amasked	CS_A	2pleas	distractor1	EVAbeforeCON	acq_US_pleas_masked	acq45_masked	4	20	400	1	300	300	0	0	391	50	0	1	0	0	0	1	blank2r.bmp	0	1	+	0	2	B2r.bmp	492	1	blank2r.bmp	786	1	DHJF	786	1	blank2r.bmp	866	5	sonnig	866	1	!	1239	1	!	1292	0	0	0	0	0	0	0	0	0	0	0	0	0	0	0	0	0	0	0	0	0	0	0	0	0	0	0
021819	14:09:03	14:17:18	494138	5.0.10.0	4_exp_AMP_EVA_AWA_CON	128  	Rpleas_acq	Oppo	Rpleas	Amasked	CS_A	2pleas	distractor1	EVAbeforeCON	acq_US_pleas_masked	acq45_masked	4	21	400	1	300	300	0	0	367	50	0	1	0	0	0	1	blank2r.bmp	0	1	+	0	1	B1r.bmp	492	1	blank2r.bmp	786	1	DHJF	786	1	blank2r.bmp	866	2	gesittet	866	1	!	1239	1	!	1266	0	0	0	0	0	0	0	0	0	0	0	0	0	0	0	0	0	0	0	0	0	0	0	0	0	0	0
021819	14:09:03	14:17:20	496337	5.0.10.0	4_exp_AMP_EVA_AWA_CON	128  	Rpleas_acq	Oppo	Rpleas	Amasked	CS_A	2pleas	distractor1	EVAbeforeCON	acq_US_unple_masked	acq45_masked	4	22	400	1	300	300	0	0	410	46	0	1	0	0	0	1	blank2r.bmp	0	1	+	0	6	C2r.bmp	492	1	blank2r.bmp	786	1	CPLW	786	1	blank2r.bmp	866	2	geizig	866	1	!	1239	1	!	1306	0	0	0	0	0	0	0	0	0	0	0	0	0	0	0	0	0	0	0	0	0	0	0	0	0	0	0
021819	14:09:03	14:17:22	498590	5.0.10.0	4_exp_AMP_EVA_AWA_CON	128  	Rpleas_acq	Oppo	Rpleas	Amasked	CS_A	2pleas	distractor1	EVAbeforeCON	acq_US_unple_masked	acq45_masked	4	23	400	0	300	300	0	0	479	46	0	1	0	0	0	1	blank2r.bmp	0	1	+	0	3	B3r.bmp	492	1	blank2r.bmp	786	1	CPLW	786	1	blank2r.bmp	866	6	töten	866	1	!	1239	1	!	-1	0	0	0	0	0	0	0	0	0	0	0	0	0	0	0	0	0	0	0	0	0	0	0	0	0	0	0
021819	14:09:03	14:17:24	500855	5.0.10.0	4_exp_AMP_EVA_AWA_CON	128  	Rpleas_acq	Oppo	Rpleas	Amasked	CS_A	2pleas	distractor1	EVAbeforeCON	acq_US_pleas_masked	acq45_masked	4	24	400	1	300	300	0	0	460	50	0	1	0	0	0	1	blank2r.bmp	0	1	+	0	2	B2r.bmp	492	1	blank2r.bmp	786	1	DHJF	786	1	blank2r.bmp	866	1	anregung	866	1	!	1239	1	!	1359	0	0	0	0	0	0	0	0	0	0	0	0	0	0	0	0	0	0	0	0	0	0	0	0	0	0	0
021819	14:09:03	14:17:27	503108	5.0.10.0	4_exp_AMP_EVA_AWA_CON	128  	Rpleas_acq	Oppo	Rpleas	Amasked	CS_A	2pleas	distractor1	EVAbeforeCON	acq_US_unple_masked	acq45_masked	4	25	400	1	300	300	0	0	455	46	0	1	0	0	0	1	blank2r.bmp	0	1	+	0	5	C1r.bmp	492	1	blank2r.bmp	786	1	CPLW	786	1	blank2r.bmp	866	1	ausrottung	866	1	!	1239	1	!	1359	0	0	0	0	0	0	0	0	0	0	0	0	0	0	0	0	0	0	0	0	0	0	0	0	0	0	0
021819	14:09:03	14:17:29	505293	5.0.10.0	4_exp_AMP_EVA_AWA_CON	128  	Rpleas_acq	Oppo	Rpleas	Amasked	CS_A	2pleas	distractor1	EVAbeforeCON	acq_US_pleas_masked	acq45_masked	4	26	400	1	300	300	0	0	386	50	0	1	0	0	0	1	blank2r.bmp	0	1	+	0	7	C3r.bmp	492	1	blank2r.bmp	786	1	DHJF	786	1	blank2r.bmp	866	4	vertrauen	866	1	!	1239	1	!	1292	0	0	0	0	0	0	0	0	0	0	0	0	0	0	0	0	0	0	0	0	0	0	0	0	0	0	0
021819	14:09:03	14:17:31	507439	5.0.10.0	4_exp_AMP_EVA_AWA_CON	128  	Rpleas_acq	Oppo	Rpleas	Amasked	CS_A	2pleas	distractor1	EVAbeforeCON	acq_US_unple_masked	acq45_masked	4	27	400	1	300	300	0	0	348	46	0	1	0	0	0	1	blank2r.bmp	0	1	+	0	4	B4r.bmp	492	1	blank2r.bmp	786	1	CPLW	786	1	blank2r.bmp	866	2	geizig	866	1	!	1239	1	!	1252	0	0	0	0	0	0	0	0	0	0	0	0	0	0	0	0	0	0	0	0	0	0	0	0	0	0	0
021819	14:09:03	14:17:33	509678	5.0.10.0	4_exp_AMP_EVA_AWA_CON	128  	Rpleas_acq	Oppo	Rpleas	Amasked	CS_A	2pleas	distractor1	EVAbeforeCON	acq_US_unple_masked	acq45_masked	4	28	400	1	300	300	0	0	443	46	0	1	0	0	0	1	blank2r.bmp	0	1	+	0	8	C4r.bmp	492	1	blank2r.bmp	786	1	CPLW	786	1	blank2r.bmp	866	4	versagen	866	1	!	1239	1	!	1346	0	0	0	0	0	0	0	0	0	0	0	0	0	0	0	0	0	0	0	0	0	0	0	0	0	0	0
021819	14:09:03	14:17:35	511917	5.0.10.0	4_exp_AMP_EVA_AWA_CON	128  	Rpleas_acq	Oppo	Rpleas	Amasked	CS_A	2pleas	distractor1	EVAbeforeCON	acq_US_unple_masked	acq45_masked	4	29	400	1	300	300	0	0	445	46	0	1	0	0	0	1	blank2r.bmp	0	1	+	0	6	C2r.bmp	492	1	blank2r.bmp	786	1	CPLW	786	1	blank2r.bmp	866	3	krise	866	1	!	1239	1	!	1346	0	0	0	0	0	0	0	0	0	0	0	0	0	0	0	0	0	0	0	0	0	0	0	0	0	0	0
021819	14:09:03	14:17:38	514143	5.0.10.0	4_exp_AMP_EVA_AWA_CON	128  	Rpleas_acq	Oppo	Rpleas	Amasked	CS_A	2pleas	distractor1	EVAbeforeCON	acq_US_pleas_masked	acq45_masked	4	30	400	1	300	300	0	0	416	50	0	1	0	0	0	1	blank2r.bmp	0	1	+	0	4	B4r.bmp	492	1	blank2r.bmp	786	1	DHJF	786	1	blank2r.bmp	866	5	sonnig	866	1	!	1239	1	!	1319	0	0	0	0	0	0	0	0	0	0	0	0	0	0	0	0	0	0	0	0	0	0	0	0	0	0	0
021819	14:09:03	14:17:40	516369	5.0.10.0	4_exp_AMP_EVA_AWA_CON	128  	Rpleas_acq	Oppo	Rpleas	Amasked	CS_A	2pleas	distractor1	EVAbeforeCON	acq_US_unple_masked	acq45_masked	4	31	400	1	300	300	0	0	429	46	0	1	0	0	0	1	blank2r.bmp	0	1	+	0	1	B1r.bmp	492	1	blank2r.bmp	786	1	CPLW	786	1	blank2r.bmp	866	1	ausrottung	866	1	!	1239	1	!	1332	0	0	0	0	0	0	0	0	0	0	0	0	0	0	0	0	0	0	0	0	0	0	0	0	0	0	0
021819	14:09:03	14:17:42	518621	5.0.10.0	4_exp_AMP_EVA_AWA_CON	128  	Rpleas_acq	Oppo	Rpleas	Amasked	CS_A	2pleas	distractor1	EVAbeforeCON	acq_US_unple_masked	acq45_masked	4	32	400	0	300	300	0	0	479	46	0	1	0	0	0	1	blank2r.bmp	0	1	+	0	7	C3r.bmp	492	1	blank2r.bmp	786	1	CPLW	786	1	blank2r.bmp	866	5	sterben	866	1	!	1239	1	!	-1	0	0	0	0	0	0	0	0	0	0	0	0	0	0	0	0	0	0	0	0	0	0	0	0	0	0	0
021819	14:09:03	14:17:44	520847	5.0.10.0	4_exp_AMP_EVA_AWA_CON	128  	Rpleas_acq	Oppo	Rpleas	Amasked	CS_A	2pleas	distractor1	EVAbeforeCON	acq_US_pleas_masked	acq45_masked	4	33	400	1	300	300	0	0	420	50	0	1	0	0	0	1	blank2r.bmp	0	1	+	0	8	C4r.bmp	492	1	blank2r.bmp	786	1	DHJF	786	1	blank2r.bmp	866	2	gesittet	866	1	!	1239	1	!	1319	0	0	0	0	0	0	0	0	0	0	0	0	0	0	0	0	0	0	0	0	0	0	0	0	0	0	0
021819	14:09:03	14:17:46	523086	5.0.10.0	4_exp_AMP_EVA_AWA_CON	128  	Rpleas_acq	Oppo	Rpleas	Amasked	CS_A	2pleas	distractor1	EVAbeforeCON	acq_US_pleas_masked	acq45_masked	4	34	400	1	300	300	0	0	445	50	0	1	0	0	0	1	blank2r.bmp	0	1	+	0	2	B2r.bmp	492	1	blank2r.bmp	786	1	DHJF	786	1	blank2r.bmp	866	6	träumen	866	1	!	1239	1	!	1346	0	0	0	0	0	0	0	0	0	0	0	0	0	0	0	0	0	0	0	0	0	0	0	0	0	0	0
021819	14:09:03	14:17:49	525245	5.0.10.0	4_exp_AMP_EVA_AWA_CON	128  	Rpleas_acq	Oppo	Rpleas	Amasked	CS_A	2pleas	distractor1	EVAbeforeCON	acq_US_pleas_masked	acq45_masked	4	35	400	1	300	300	0	0	366	50	0	1	0	0	0	1	blank2r.bmp	0	1	+	0	3	B3r.bmp	492	1	blank2r.bmp	786	1	DHJF	786	1	blank2r.bmp	866	3	kuss	866	1	!	1239	1	!	1266	0	0	0	0	0	0	0	0	0	0	0	0	0	0	0	0	0	0	0	0	0	0	0	0	0	0	0
021819	14:09:03	14:17:51	527431	5.0.10.0	4_exp_AMP_EVA_AWA_CON	128  	Rpleas_acq	Oppo	Rpleas	Amasked	CS_A	2pleas	distractor1	EVAbeforeCON	acq_US_unple_masked	acq45_masked	4	36	400	1	300	300	0	0	388	46	0	1	0	0	0	1	blank2r.bmp	0	1	+	0	5	C1r.bmp	492	1	blank2r.bmp	786	1	CPLW	786	1	blank2r.bmp	866	6	töten	866	1	!	1239	1	!	1292	0	0	0	0	0	0	0	0	0	0	0	0	0	0	0	0	0	0	0	0	0	0	0	0	0	0	0
021819	14:09:03	14:18:08	545050	5.0.10.0	4_exp_AMP_EVA_AWA_CON	128  	Rpleas_acq	Oppo	Rpleas	Amasked	CS_A	2pleas	distractor1	EVAbeforeCON	acq_US_unple_masked	acq45_masked	5	1	400	0	300	300	0	0	479	46	0	1	0	0	0	1	blank2r.bmp	0	1	+	0	5	C1r.bmp	492	1	blank2r.bmp	786	1	CPLW	786	1	blank2r.bmp	866	3	krise	866	1	!	1239	1	!	-1	0	0	0	0	0	0	0	0	0	0	0	0	0	0	0	0	0	0	0	0	0	0	0	0	0	0	0
021819	14:09:03	14:18:11	547209	5.0.10.0	4_exp_AMP_EVA_AWA_CON	128  	Rpleas_acq	Oppo	Rpleas	Amasked	CS_A	2pleas	distractor1	EVAbeforeCON	acq_US_pleas_masked	acq45_masked	5	2	400	1	300	300	0	0	350	50	0	1	0	0	0	1	blank2r.bmp	0	1	+	0	7	C3r.bmp	492	1	blank2r.bmp	786	1	DHJF	786	1	blank2r.bmp	866	3	kuss	866	1	!	1239	1	!	1252	0	0	0	0	0	0	0	0	0	0	0	0	0	0	0	0	0	0	0	0	0	0	0	0	0	0	0
021819	14:09:03	14:18:13	549422	5.0.10.0	4_exp_AMP_EVA_AWA_CON	128  	Rpleas_acq	Oppo	Rpleas	Amasked	CS_A	2pleas	distractor1	EVAbeforeCON	acq_US_pleas_masked	acq45_masked	5	3	400	1	300	300	0	0	418	50	0	1	0	0	0	1	blank2r.bmp	0	1	+	0	2	B2r.bmp	492	1	blank2r.bmp	786	1	DHJF	786	1	blank2r.bmp	866	6	träumen	866	1	!	1239	1	!	1319	0	0	0	0	0	0	0	0	0	0	0	0	0	0	0	0	0	0	0	0	0	0	0	0	0	0	0
021819	14:09:03	14:18:15	551581	5.0.10.0	4_exp_AMP_EVA_AWA_CON	128  	Rpleas_acq	Oppo	Rpleas	Amasked	CS_A	2pleas	distractor1	EVAbeforeCON	acq_US_unple_masked	acq45_masked	5	4	400	1	300	300	0	0	356	46	0	1	0	0	0	1	blank2r.bmp	0	1	+	0	8	C4r.bmp	492	1	blank2r.bmp	786	1	CPLW	786	1	blank2r.bmp	866	4	versagen	866	1	!	1239	1	!	1252	0	0	0	0	0	0	0	0	0	0	0	0	0	0	0	0	0	0	0	0	0	0	0	0	0	0	0
021819	14:09:03	14:18:17	553793	5.0.10.0	4_exp_AMP_EVA_AWA_CON	128  	Rpleas_acq	Oppo	Rpleas	Amasked	CS_A	2pleas	distractor1	EVAbeforeCON	acq_US_pleas_masked	acq45_masked	5	5	400	1	300	300	0	0	419	50	0	1	0	0	0	1	blank2r.bmp	0	1	+	0	1	B1r.bmp	492	1	blank2r.bmp	786	1	DHJF	786	1	blank2r.bmp	866	2	gesittet	866	1	!	1239	1	!	1319	0	0	0	0	0	0	0	0	0	0	0	0	0	0	0	0	0	0	0	0	0	0	0	0	0	0	0
021819	14:09:03	14:18:19	555939	5.0.10.0	4_exp_AMP_EVA_AWA_CON	128  	Rpleas_acq	Oppo	Rpleas	Amasked	CS_A	2pleas	distractor1	EVAbeforeCON	acq_US_unple_masked	acq45_masked	5	6	400	1	300	300	0	0	346	46	0	1	0	0	0	1	blank2r.bmp	0	1	+	0	6	C2r.bmp	492	1	blank2r.bmp	786	1	CPLW	786	1	blank2r.bmp	866	5	sterben	866	1	!	1239	1	!	1252	0	0	0	0	0	0	0	0	0	0	0	0	0	0	0	0	0	0	0	0	0	0	0	0	0	0	0
021819	14:09:03	14:18:22	558125	5.0.10.0	4_exp_AMP_EVA_AWA_CON	128  	Rpleas_acq	Oppo	Rpleas	Amasked	CS_A	2pleas	distractor1	EVAbeforeCON	acq_US_unple_masked	acq45_masked	5	7	400	1	300	300	0	0	393	46	0	1	0	0	0	1	blank2r.bmp	0	1	+	0	3	B3r.bmp	492	1	blank2r.bmp	786	1	CPLW	786	1	blank2r.bmp	866	6	töten	866	1	!	1239	1	!	1292	0	0	0	0	0	0	0	0	0	0	0	0	0	0	0	0	0	0	0	0	0	0	0	0	0	0	0
021819	14:09:03	14:18:24	560310	5.0.10.0	4_exp_AMP_EVA_AWA_CON	128  	Rpleas_acq	Oppo	Rpleas	Amasked	CS_A	2pleas	distractor1	EVAbeforeCON	acq_US_unple_masked	acq45_masked	5	8	400	1	300	300	0	0	377	46	0	1	0	0	0	1	blank2r.bmp	0	1	+	0	4	B4r.bmp	492	1	blank2r.bmp	786	1	CPLW	786	1	blank2r.bmp	866	1	ausrottung	866	1	!	1239	1	!	1279	0	0	0	0	0	0	0	0	0	0	0	0	0	0	0	0	0	0	0	0	0	0	0	0	0	0	0
021819	14:09:03	14:18:26	562483	5.0.10.0	4_exp_AMP_EVA_AWA_CON	128  	Rpleas_acq	Oppo	Rpleas	Amasked	CS_A	2pleas	distractor1	EVAbeforeCON	acq_US_pleas_masked	acq45_masked	5	9	400	1	300	300	0	0	365	46	0	0	0	0	0	1	blank2r.bmp	0	1	+	0	4	B4r.bmp	492	1	blank2r.bmp	786	1	DHJF	786	1	blank2r.bmp	866	1	anregung	866	1	!	1239	1	!	1266	0	0	0	0	0	0	0	0	0	0	0	0	0	0	0	0	0	0	0	0	0	0	0	0	0	0	0
021819	14:09:03	14:18:28	564629	5.0.10.0	4_exp_AMP_EVA_AWA_CON	128  	Rpleas_acq	Oppo	Rpleas	Amasked	CS_A	2pleas	distractor1	EVAbeforeCON	acq_US_pleas_masked	acq45_masked	5	10	400	1	300	300	0	0	352	46	0	0	0	0	0	1	blank2r.bmp	0	1	+	0	6	C2r.bmp	492	1	blank2r.bmp	786	1	DHJF	786	1	blank2r.bmp	866	5	sonnig	866	1	!	1239	1	!	1252	0	0	0	0	0	0	0	0	0	0	0	0	0	0	0	0	0	0	0	0	0	0	0	0	0	0	0
021819	14:09:03	14:18:30	566774	5.0.10.0	4_exp_AMP_EVA_AWA_CON	128  	Rpleas_acq	Oppo	Rpleas	Amasked	CS_A	2pleas	distractor1	EVAbeforeCON	acq_US_pleas_masked	acq45_masked	5	11	400	1	300	300	0	0	355	46	0	0	0	0	0	1	blank2r.bmp	0	1	+	0	8	C4r.bmp	492	1	blank2r.bmp	786	1	DHJF	786	1	blank2r.bmp	866	4	vertrauen	866	1	!	1239	1	!	1252	0	0	0	0	0	0	0	0	0	0	0	0	0	0	0	0	0	0	0	0	0	0	0	0	0	0	0
021819	14:09:03	14:18:32	568960	5.0.10.0	4_exp_AMP_EVA_AWA_CON	128  	Rpleas_acq	Oppo	Rpleas	Amasked	CS_A	2pleas	distractor1	EVAbeforeCON	acq_US_pleas_masked	acq45_masked	5	12	400	1	300	300	0	0	389	50	0	1	0	0	0	1	blank2r.bmp	0	1	+	0	7	C3r.bmp	492	1	blank2r.bmp	786	1	DHJF	786	1	blank2r.bmp	866	3	kuss	866	1	!	1239	1	!	1292	0	0	0	0	0	0	0	0	0	0	0	0	0	0	0	0	0	0	0	0	0	0	0	0	0	0	0
021819	14:09:03	14:18:35	571119	5.0.10.0	4_exp_AMP_EVA_AWA_CON	128  	Rpleas_acq	Oppo	Rpleas	Amasked	CS_A	2pleas	distractor1	EVAbeforeCON	acq_US_unple_masked	acq45_masked	5	13	400	1	300	300	0	0	362	50	0	0	0	0	0	1	blank2r.bmp	0	1	+	0	1	B1r.bmp	492	1	blank2r.bmp	786	1	CPLW	786	1	blank2r.bmp	866	2	geizig	866	1	!	1239	1	!	1266	0	0	0	0	0	0	0	0	0	0	0	0	0	0	0	0	0	0	0	0	0	0	0	0	0	0	0
021819	14:09:03	14:18:37	573385	5.0.10.0	4_exp_AMP_EVA_AWA_CON	128  	Rpleas_acq	Oppo	Rpleas	Amasked	CS_A	2pleas	distractor1	EVAbeforeCON	acq_US_pleas_masked	acq45_masked	5	14	400	0	300	300	0	0	485	50	0	1	0	0	0	1	blank2r.bmp	0	1	+	0	3	B3r.bmp	492	1	blank2r.bmp	786	1	DHJF	786	1	blank2r.bmp	866	6	träumen	866	1	!	1239	1	!	-1	0	0	0	0	0	0	0	0	0	0	0	0	0	0	0	0	0	0	0	0	0	0	0	0	0	0	0
021819	14:09:03	14:18:39	575584	5.0.10.0	4_exp_AMP_EVA_AWA_CON	128  	Rpleas_acq	Oppo	Rpleas	Amasked	CS_A	2pleas	distractor1	EVAbeforeCON	acq_US_unple_masked	acq45_masked	5	15	400	1	300	300	0	0	378	46	0	1	0	0	0	1	blank2r.bmp	0	1	+	0	5	C1r.bmp	492	1	blank2r.bmp	786	1	CPLW	786	1	blank2r.bmp	866	5	sterben	866	1	!	1239	1	!	1279	0	0	0	0	0	0	0	0	0	0	0	0	0	0	0	0	0	0	0	0	0	0	0	0	0	0	0
021819	14:09:03	14:18:41	577836	5.0.10.0	4_exp_AMP_EVA_AWA_CON	128  	Rpleas_acq	Oppo	Rpleas	Amasked	CS_A	2pleas	distractor1	EVAbeforeCON	acq_US_unple_masked	acq45_masked	5	16	400	0	300	300	0	0	479	46	0	1	0	0	0	1	blank2r.bmp	0	1	+	0	2	B2r.bmp	492	1	blank2r.bmp	786	1	CPLW	786	1	blank2r.bmp	866	3	krise	866	1	!	1239	1	!	-1	0	0	0	0	0	0	0	0	0	0	0	0	0	0	0	0	0	0	0	0	0	0	0	0	0	0	0
021819	14:09:03	14:18:44	580222	5.0.10.0	4_exp_AMP_EVA_AWA_CON	128  	Rpleas_acq	Oppo	Rpleas	Amasked	CS_A	2pleas	distractor1	EVAbeforeCON	acq_US_pleas_masked	acq45_masked	5	17	400	0	300	300	0	0	602	50	0	1	0	0	0	1	blank2r.bmp	0	1	+	0	8	C4r.bmp	492	1	blank2r.bmp	786	1	DHJF	786	1	blank2r.bmp	866	1	anregung	866	1	!	1239	1	!	-1	0	0	0	0	0	0	0	0	0	0	0	0	0	0	0	0	0	0	0	0	0	0	0	0	0	0	0
021819	14:09:03	14:18:46	582448	5.0.10.0	4_exp_AMP_EVA_AWA_CON	128  	Rpleas_acq	Oppo	Rpleas	Amasked	CS_A	2pleas	distractor1	EVAbeforeCON	acq_US_unple_masked	acq45_masked	5	18	400	1	300	300	0	0	421	46	0	1	0	0	0	1	blank2r.bmp	0	1	+	0	2	B2r.bmp	492	1	blank2r.bmp	786	1	CPLW	786	1	blank2r.bmp	866	6	töten	866	1	!	1239	1	!	1319	0	0	0	0	0	0	0	0	0	0	0	0	0	0	0	0	0	0	0	0	0	0	0	0	0	0	0
021819	14:09:03	14:18:48	584700	5.0.10.0	4_exp_AMP_EVA_AWA_CON	128  	Rpleas_acq	Oppo	Rpleas	Amasked	CS_A	2pleas	distractor1	EVAbeforeCON	acq_US_unple_masked	acq45_masked	5	19	400	0	300	300	0	0	491	46	0	1	0	0	0	1	blank2r.bmp	0	1	+	0	5	C1r.bmp	492	1	blank2r.bmp	786	1	CPLW	786	1	blank2r.bmp	866	1	ausrottung	866	1	!	1239	1	!	-1	0	0	0	0	0	0	0	0	0	0	0	0	0	0	0	0	0	0	0	0	0	0	0	0	0	0	0
021819	14:09:03	14:18:50	587019	5.0.10.0	4_exp_AMP_EVA_AWA_CON	128  	Rpleas_acq	Oppo	Rpleas	Amasked	CS_A	2pleas	distractor1	EVAbeforeCON	acq_US_pleas_masked	acq45_masked	5	20	400	0	300	300	0	0	541	46	0	0	0	0	0	1	blank2r.bmp	0	1	+	0	6	C2r.bmp	492	1	blank2r.bmp	786	1	DHJF	786	1	blank2r.bmp	866	2	gesittet	866	1	!	1239	1	!	-1	0	0	0	0	0	0	0	0	0	0	0	0	0	0	0	0	0	0	0	0	0	0	0	0	0	0	0
021819	14:09:03	14:18:53	589258	5.0.10.0	4_exp_AMP_EVA_AWA_CON	128  	Rpleas_acq	Oppo	Rpleas	Amasked	CS_A	2pleas	distractor1	EVAbeforeCON	acq_US_pleas_masked	acq45_masked	5	21	400	1	300	300	0	0	424	50	0	1	0	0	0	1	blank2r.bmp	0	1	+	0	4	B4r.bmp	492	1	blank2r.bmp	786	1	DHJF	786	1	blank2r.bmp	866	5	sonnig	866	1	!	1239	1	!	1319	0	0	0	0	0	0	0	0	0	0	0	0	0	0	0	0	0	0	0	0	0	0	0	0	0	0	0
021819	14:09:03	14:18:55	591511	5.0.10.0	4_exp_AMP_EVA_AWA_CON	128  	Rpleas_acq	Oppo	Rpleas	Amasked	CS_A	2pleas	distractor1	EVAbeforeCON	acq_US_unple_masked	acq45_masked	5	22	400	0	300	300	0	0	488	46	0	1	0	0	0	1	blank2r.bmp	0	1	+	0	7	C3r.bmp	492	1	blank2r.bmp	786	1	CPLW	786	1	blank2r.bmp	866	2	geizig	866	1	!	1239	1	!	-1	0	0	0	0	0	0	0	0	0	0	0	0	0	0	0	0	0	0	0	0	0	0	0	0	0	0	0
021819	14:09:03	14:18:57	593776	5.0.10.0	4_exp_AMP_EVA_AWA_CON	128  	Rpleas_acq	Oppo	Rpleas	Amasked	CS_A	2pleas	distractor1	EVAbeforeCON	acq_US_unple_masked	acq45_masked	5	23	400	1	300	300	0	0	457	46	0	1	0	0	0	1	blank2r.bmp	0	1	+	0	3	B3r.bmp	492	1	blank2r.bmp	786	1	CPLW	786	1	blank2r.bmp	866	4	versagen	866	1	!	1239	1	!	1359	0	0	0	0	0	0	0	0	0	0	0	0	0	0	0	0	0	0	0	0	0	0	0	0	0	0	0
021819	14:09:03	14:18:59	595935	5.0.10.0	4_exp_AMP_EVA_AWA_CON	128  	Rpleas_acq	Oppo	Rpleas	Amasked	CS_A	2pleas	distractor1	EVAbeforeCON	acq_US_pleas_masked	acq45_masked	5	24	400	1	300	300	0	0	366	50	0	1	0	0	0	1	blank2r.bmp	0	1	+	0	1	B1r.bmp	492	1	blank2r.bmp	786	1	DHJF	786	1	blank2r.bmp	866	4	vertrauen	866	1	!	1239	1	!	1266	0	0	0	0	0	0	0	0	0	0	0	0	0	0	0	0	0	0	0	0	0	0	0	0	0	0	0
021819	14:09:03	14:19:02	598148	5.0.10.0	4_exp_AMP_EVA_AWA_CON	128  	Rpleas_acq	Oppo	Rpleas	Amasked	CS_A	2pleas	distractor1	EVAbeforeCON	acq_US_unple_masked	acq45_masked	5	25	400	1	300	300	0	0	420	46	0	1	0	0	0	1	blank2r.bmp	0	1	+	0	5	C1r.bmp	492	1	blank2r.bmp	786	1	CPLW	786	1	blank2r.bmp	866	3	krise	866	1	!	1239	1	!	1319	0	0	0	0	0	0	0	0	0	0	0	0	0	0	0	0	0	0	0	0	0	0	0	0	0	0	0
021819	14:09:03	14:19:04	600400	5.0.10.0	4_exp_AMP_EVA_AWA_CON	128  	Rpleas_acq	Oppo	Rpleas	Amasked	CS_A	2pleas	distractor1	EVAbeforeCON	acq_US_pleas_masked	acq45_masked	5	26	400	0	300	300	0	0	484	50	0	1	0	0	0	1	blank2r.bmp	0	1	+	0	6	C2r.bmp	492	1	blank2r.bmp	786	1	DHJF	786	1	blank2r.bmp	866	4	vertrauen	866	1	!	1239	1	!	-1	0	0	0	0	0	0	0	0	0	0	0	0	0	0	0	0	0	0	0	0	0	0	0	0	0	0	0
021819	14:09:03	14:19:06	602599	5.0.10.0	4_exp_AMP_EVA_AWA_CON	128  	Rpleas_acq	Oppo	Rpleas	Amasked	CS_A	2pleas	distractor1	EVAbeforeCON	acq_US_unple_masked	acq45_masked	5	27	400	1	300	300	0	0	398	46	0	1	0	0	0	1	blank2r.bmp	0	1	+	0	2	B2r.bmp	492	1	blank2r.bmp	786	1	CPLW	786	1	blank2r.bmp	866	6	töten	866	1	!	1239	1	!	1292	0	0	0	0	0	0	0	0	0	0	0	0	0	0	0	0	0	0	0	0	0	0	0	0	0	0	0
021819	14:09:03	14:19:08	604798	5.0.10.0	4_exp_AMP_EVA_AWA_CON	128  	Rpleas_acq	Oppo	Rpleas	Amasked	CS_A	2pleas	distractor1	EVAbeforeCON	acq_US_pleas_masked	acq45_masked	5	28	400	1	300	300	0	0	405	46	0	0	0	0	0	1	blank2r.bmp	0	1	+	0	1	B1r.bmp	492	1	blank2r.bmp	786	1	DHJF	786	1	blank2r.bmp	866	6	träumen	866	1	!	1239	1	!	1306	0	0	0	0	0	0	0	0	0	0	0	0	0	0	0	0	0	0	0	0	0	0	0	0	0	0	0
021819	14:09:03	14:19:10	607011	5.0.10.0	4_exp_AMP_EVA_AWA_CON	128  	Rpleas_acq	Oppo	Rpleas	Amasked	CS_A	2pleas	distractor1	EVAbeforeCON	acq_US_pleas_masked	acq45_masked	5	29	400	1	300	300	0	0	420	50	0	1	0	0	0	1	blank2r.bmp	0	1	+	0	8	C4r.bmp	492	1	blank2r.bmp	786	1	DHJF	786	1	blank2r.bmp	866	5	sonnig	866	1	!	1239	1	!	1319	0	0	0	0	0	0	0	0	0	0	0	0	0	0	0	0	0	0	0	0	0	0	0	0	0	0	0
021819	14:09:03	14:19:13	609170	5.0.10.0	4_exp_AMP_EVA_AWA_CON	128  	Rpleas_acq	Oppo	Rpleas	Amasked	CS_A	2pleas	distractor1	EVAbeforeCON	acq_US_unple_masked	acq45_masked	5	30	400	1	300	300	0	0	369	46	0	1	0	0	0	1	blank2r.bmp	0	1	+	0	4	B4r.bmp	492	1	blank2r.bmp	786	1	CPLW	786	1	blank2r.bmp	866	5	sterben	866	1	!	1239	1	!	1266	0	0	0	0	0	0	0	0	0	0	0	0	0	0	0	0	0	0	0	0	0	0	0	0	0	0	0
021819	14:09:03	14:19:15	611369	5.0.10.0	4_exp_AMP_EVA_AWA_CON	128  	Rpleas_acq	Oppo	Rpleas	Amasked	CS_A	2pleas	distractor1	EVAbeforeCON	acq_US_pleas_masked	acq45_masked	5	31	400	1	300	300	0	0	388	50	0	1	0	0	0	1	blank2r.bmp	0	1	+	0	3	B3r.bmp	492	1	blank2r.bmp	786	1	DHJF	786	1	blank2r.bmp	866	3	kuss	866	1	!	1239	1	!	1292	0	0	0	0	0	0	0	0	0	0	0	0	0	0	0	0	0	0	0	0	0	0	0	0	0	0	0
021819	14:09:03	14:19:17	613581	5.0.10.0	4_exp_AMP_EVA_AWA_CON	128  	Rpleas_acq	Oppo	Rpleas	Amasked	CS_A	2pleas	distractor1	EVAbeforeCON	acq_US_pleas_masked	acq45_masked	5	32	400	1	300	300	0	0	409	50	0	1	0	0	0	1	blank2r.bmp	0	1	+	0	7	C3r.bmp	492	1	blank2r.bmp	786	1	DHJF	786	1	blank2r.bmp	866	2	gesittet	866	1	!	1239	1	!	1306	0	0	0	0	0	0	0	0	0	0	0	0	0	0	0	0	0	0	0	0	0	0	0	0	0	0	0
021819	14:09:03	14:19:19	615807	5.0.10.0	4_exp_AMP_EVA_AWA_CON	128  	Rpleas_acq	Oppo	Rpleas	Amasked	CS_A	2pleas	distractor1	EVAbeforeCON	acq_US_unple_masked	acq45_masked	5	33	400	1	300	300	0	0	433	50	0	0	0	0	0	1	blank2r.bmp	0	1	+	0	8	C4r.bmp	492	1	blank2r.bmp	786	1	CPLW	786	1	blank2r.bmp	866	2	geizig	866	1	!	1239	1	!	1332	0	0	0	0	0	0	0	0	0	0	0	0	0	0	0	0	0	0	0	0	0	0	0	0	0	0	0
021819	14:09:03	14:19:21	618059	5.0.10.0	4_exp_AMP_EVA_AWA_CON	128  	Rpleas_acq	Oppo	Rpleas	Amasked	CS_A	2pleas	distractor1	EVAbeforeCON	acq_US_pleas_masked	acq45_masked	5	34	400	0	300	300	0	0	479	50	0	1	0	0	0	1	blank2r.bmp	0	1	+	0	2	B2r.bmp	492	1	blank2r.bmp	786	1	DHJF	786	1	blank2r.bmp	866	1	anregung	866	1	!	1239	1	!	-1	0	0	0	0	0	0	0	0	0	0	0	0	0	0	0	0	0	0	0	0	0	0	0	0	0	0	0
021819	14:09:03	14:19:24	620352	5.0.10.0	4_exp_AMP_EVA_AWA_CON	128  	Rpleas_acq	Oppo	Rpleas	Amasked	CS_A	2pleas	distractor1	EVAbeforeCON	acq_US_unple_masked	acq45_masked	5	35	400	0	300	300	0	0	510	46	0	1	0	0	0	1	blank2r.bmp	0	1	+	0	6	C2r.bmp	492	1	blank2r.bmp	786	1	CPLW	786	1	blank2r.bmp	866	1	ausrottung	866	1	!	1239	1	!	-1	0	0	0	0	0	0	0	0	0	0	0	0	0	0	0	0	0	0	0	0	0	0	0	0	0	0	0
021819	14:09:03	14:19:26	622631	5.0.10.0	4_exp_AMP_EVA_AWA_CON	128  	Rpleas_acq	Oppo	Rpleas	Amasked	CS_A	2pleas	distractor1	EVAbeforeCON	acq_US_unple_masked	acq45_masked	5	36	400	0	300	300	0	0	504	46	0	1	0	0	0	1	blank2r.bmp	0	1	+	0	1	B1r.bmp	492	1	blank2r.bmp	786	1	CPLW	786	1	blank2r.bmp	866	4	versagen	866	1	!	1239	1	!	-1	0	0	0	0	0	0	0	0	0	0	0	0	0	0	0	0	0	0	0	0	0	0	0	0	0	0	0
021819	14:09:03	14:20:01	657749	5.0.10.0	4_exp_AMP_EVA_AWA_CON	128  	Rpleas_acq	Oppo	Lpleas	Amasked	CS_A	2pleas	distractor1	EVAbeforeCON	AMP_CSpleas	AMP1_masked	6	1	0	0	300	300	0	0	1138	50	0	0	0	0	0	1	blank2r.bmp	0	1	DHJF	0	1	blank2r.bmp	79	40	pic40.bmp	199	1	whitenoise_No3.bmp	306	0	0	0	0	0	0	0	0	0	0	0	0	0	0	0	0	0	0	0	0	0	0	0	0	0	0	0	0	0	0	0	0	0	0	0	0	0	0	0
021819	14:09:03	14:20:11	667185	5.0.10.0	4_exp_AMP_EVA_AWA_CON	128  	Rpleas_acq	Oppo	Lpleas	Amasked	CS_A	2pleas	distractor1	EVAbeforeCON	AMP_distractor	AMP1_masked	6	2	0	0	300	300	0	0	8519	46	0	0	0	0	0	1	blank2r.bmp	0	1	ZGXT	0	1	blank2r.bmp	79	131	pic131.bmp	199	1	whitenoise_No3.bmp	306	0	0	0	0	0	0	0	0	0	0	0	0	0	0	0	0	0	0	0	0	0	0	0	0	0	0	0	0	0	0	0	0	0	0	0	0	0	0	0
021819	14:09:03	14:20:14	670757	5.0.10.0	4_exp_AMP_EVA_AWA_CON	128  	Rpleas_acq	Oppo	Lpleas	Amasked	CS_A	2pleas	distractor1	EVAbeforeCON	AMP_CSunple	AMP1_masked	6	3	0	0	300	300	0	0	2645	50	0	1	0	0	0	1	blank2r.bmp	0	1	CPLW	0	1	blank2r.bmp	79	84	pic84.bmp	199	1	whitenoise_No3.bmp	306	0	0	0	0	0	0	0	0	0	0	0	0	0	0	0	0	0	0	0	0	0	0	0	0	0	0	0	0	0	0	0	0	0	0	0	0	0	0	0
021819	14:09:03	14:20:18	674476	5.0.10.0	4_exp_AMP_EVA_AWA_CON	128  	Rpleas_acq	Oppo	Lpleas	Amasked	CS_A	2pleas	distractor1	EVAbeforeCON	AMP_CSunple	AMP1_masked	6	4	0	0	300	300	0	0	2794	50	0	1	0	0	0	1	blank2r.bmp	0	1	CPLW	0	1	blank2r.bmp	79	20	pic20.bmp	199	1	whitenoise_No3.bmp	306	0	0	0	0	0	0	0	0	0	0	0	0	0	0	0	0	0	0	0	0	0	0	0	0	0	0	0	0	0	0	0	0	0	0	0	0	0	0	0
021819	14:09:03	14:20:20	676275	5.0.10.0	4_exp_AMP_EVA_AWA_CON	128  	Rpleas_acq	Oppo	Lpleas	Amasked	CS_A	2pleas	distractor1	EVAbeforeCON	AMP_CSpleas	AMP1_masked	6	5	0	0	300	300	0	0	867	46	0	1	0	0	0	1	blank2r.bmp	0	1	DHJF	0	1	blank2r.bmp	79	35	pic35.bmp	199	1	whitenoise_No3.bmp	306	0	0	0	0	0	0	0	0	0	0	0	0	0	0	0	0	0	0	0	0	0	0	0	0	0	0	0	0	0	0	0	0	0	0	0	0	0	0	0
021819	14:09:03	14:20:21	677914	5.0.10.0	4_exp_AMP_EVA_AWA_CON	128  	Rpleas_acq	Oppo	Lpleas	Amasked	CS_A	2pleas	distractor1	EVAbeforeCON	AMP_distractor	AMP1_masked	6	6	0	0	300	300	0	0	730	46	0	0	0	0	0	1	blank2r.bmp	0	1	ZGXT	0	1	blank2r.bmp	79	86	pic86.bmp	199	1	whitenoise_No3.bmp	306	0	0	0	0	0	0	0	0	0	0	0	0	0	0	0	0	0	0	0	0	0	0	0	0	0	0	0	0	0	0	0	0	0	0	0	0	0	0	0
021819	14:09:03	14:20:23	679420	5.0.10.0	4_exp_AMP_EVA_AWA_CON	128  	Rpleas_acq	Oppo	Lpleas	Amasked	CS_A	2pleas	distractor1	EVAbeforeCON	AMP_CSunple	AMP1_masked	6	7	0	0	300	300	0	0	576	46	0	0	0	0	0	1	blank2r.bmp	0	1	CPLW	0	1	blank2r.bmp	79	24	pic24.bmp	199	1	whitenoise_No3.bmp	306	0	0	0	0	0	0	0	0	0	0	0	0	0	0	0	0	0	0	0	0	0	0	0	0	0	0	0	0	0	0	0	0	0	0	0	0	0	0	0
021819	14:09:03	14:20:24	680820	5.0.10.0	4_exp_AMP_EVA_AWA_CON	128  	Rpleas_acq	Oppo	Lpleas	Amasked	CS_A	2pleas	distractor1	EVAbeforeCON	AMP_distractor	AMP1_masked	6	8	0	0	300	300	0	0	488	50	0	0	0	0	0	1	blank2r.bmp	0	1	ZGXT	0	1	blank2r.bmp	79	88	pic88.bmp	199	1	whitenoise_No3.bmp	306	0	0	0	0	0	0	0	0	0	0	0	0	0	0	0	0	0	0	0	0	0	0	0	0	0	0	0	0	0	0	0	0	0	0	0	0	0	0	0
021819	14:09:03	14:20:26	682472	5.0.10.0	4_exp_AMP_EVA_AWA_CON	128  	Rpleas_acq	Oppo	Lpleas	Amasked	CS_A	2pleas	distractor1	EVAbeforeCON	AMP_distractor	AMP1_masked	6	9	0	0	300	300	0	0	722	46	0	0	0	0	0	1	blank2r.bmp	0	1	ZGXT	0	1	blank2r.bmp	79	9	pic9.bmp	199	1	whitenoise_No3.bmp	306	0	0	0	0	0	0	0	0	0	0	0	0	0	0	0	0	0	0	0	0	0	0	0	0	0	0	0	0	0	0	0	0	0	0	0	0	0	0	0
021819	14:09:03	14:20:28	684738	5.0.10.0	4_exp_AMP_EVA_AWA_CON	128  	Rpleas_acq	Oppo	Lpleas	Amasked	CS_A	2pleas	distractor1	EVAbeforeCON	AMP_distractor	AMP1_masked	6	10	0	0	300	300	0	0	1344	50	0	0	0	0	0	1	blank2r.bmp	0	1	ZGXT	0	1	blank2r.bmp	79	115	pic115.bmp	199	1	whitenoise_No3.bmp	306	0	0	0	0	0	0	0	0	0	0	0	0	0	0	0	0	0	0	0	0	0	0	0	0	0	0	0	0	0	0	0	0	0	0	0	0	0	0	0
021819	14:09:03	14:20:31	687217	5.0.10.0	4_exp_AMP_EVA_AWA_CON	128  	Rpleas_acq	Oppo	Lpleas	Amasked	CS_A	2pleas	distractor1	EVAbeforeCON	AMP_CSunple	AMP1_masked	6	11	0	0	300	300	0	0	1556	46	0	0	0	0	0	1	blank2r.bmp	0	1	CPLW	0	1	blank2r.bmp	79	77	pic77.bmp	199	1	whitenoise_No3.bmp	306	0	0	0	0	0	0	0	0	0	0	0	0	0	0	0	0	0	0	0	0	0	0	0	0	0	0	0	0	0	0	0	0	0	0	0	0	0	0	0
021819	14:09:03	14:20:33	689216	5.0.10.0	4_exp_AMP_EVA_AWA_CON	128  	Rpleas_acq	Oppo	Lpleas	Amasked	CS_A	2pleas	distractor1	EVAbeforeCON	AMP_distractor	AMP1_masked	6	12	0	0	300	300	0	0	1081	46	0	0	0	0	0	1	blank2r.bmp	0	1	ZGXT	0	1	blank2r.bmp	79	22	pic22.bmp	199	1	whitenoise_No3.bmp	306	0	0	0	0	0	0	0	0	0	0	0	0	0	0	0	0	0	0	0	0	0	0	0	0	0	0	0	0	0	0	0	0	0	0	0	0	0	0	0
021819	14:09:03	14:20:35	691695	5.0.10.0	4_exp_AMP_EVA_AWA_CON	128  	Rpleas_acq	Oppo	Lpleas	Amasked	CS_A	2pleas	distractor1	EVAbeforeCON	AMP_CSpleas	AMP1_masked	6	13	0	0	300	300	0	0	1558	46	0	1	0	0	0	1	blank2r.bmp	0	1	DHJF	0	1	blank2r.bmp	79	49	pic49.bmp	199	1	whitenoise_No3.bmp	306	0	0	0	0	0	0	0	0	0	0	0	0	0	0	0	0	0	0	0	0	0	0	0	0	0	0	0	0	0	0	0	0	0	0	0	0	0	0	0
021819	14:09:03	14:20:37	694081	5.0.10.0	4_exp_AMP_EVA_AWA_CON	128  	Rpleas_acq	Oppo	Lpleas	Amasked	CS_A	2pleas	distractor1	EVAbeforeCON	AMP_CSunple	AMP1_masked	6	14	0	0	300	300	0	0	1467	46	0	0	0	0	0	1	blank2r.bmp	0	1	CPLW	0	1	blank2r.bmp	79	80	pic80.bmp	199	1	whitenoise_No3.bmp	306	0	0	0	0	0	0	0	0	0	0	0	0	0	0	0	0	0	0	0	0	0	0	0	0	0	0	0	0	0	0	0	0	0	0	0	0	0	0	0
021819	14:09:03	14:20:40	696346	5.0.10.0	4_exp_AMP_EVA_AWA_CON	128  	Rpleas_acq	Oppo	Lpleas	Amasked	CS_A	2pleas	distractor1	EVAbeforeCON	AMP_CSunple	AMP1_masked	6	15	0	0	300	300	0	0	1347	46	0	0	0	0	0	1	blank2r.bmp	0	1	CPLW	0	1	blank2r.bmp	79	89	pic89.bmp	199	1	whitenoise_No3.bmp	306	0	0	0	0	0	0	0	0	0	0	0	0	0	0	0	0	0	0	0	0	0	0	0	0	0	0	0	0	0	0	0	0	0	0	0	0	0	0	0
021819	14:09:03	14:20:41	697892	5.0.10.0	4_exp_AMP_EVA_AWA_CON	128  	Rpleas_acq	Oppo	Lpleas	Amasked	CS_A	2pleas	distractor1	EVAbeforeCON	AMP_CSunple	AMP1_masked	6	16	0	0	300	300	0	0	634	50	0	1	0	0	0	1	blank2r.bmp	0	1	CPLW	0	1	blank2r.bmp	79	43	pic43.bmp	199	1	whitenoise_No3.bmp	306	0	0	0	0	0	0	0	0	0	0	0	0	0	0	0	0	0	0	0	0	0	0	0	0	0	0	0	0	0	0	0	0	0	0	0	0	0	0	0
021819	14:09:03	14:20:43	699678	5.0.10.0	4_exp_AMP_EVA_AWA_CON	128  	Rpleas_acq	Oppo	Lpleas	Amasked	CS_A	2pleas	distractor1	EVAbeforeCON	AMP_CSunple	AMP1_masked	6	17	0	0	300	300	0	0	857	50	0	1	0	0	0	1	blank2r.bmp	0	1	CPLW	0	1	blank2r.bmp	79	41	pic41.bmp	199	1	whitenoise_No3.bmp	306	0	0	0	0	0	0	0	0	0	0	0	0	0	0	0	0	0	0	0	0	0	0	0	0	0	0	0	0	0	0	0	0	0	0	0	0	0	0	0
021819	14:09:03	14:20:45	701704	5.0.10.0	4_exp_AMP_EVA_AWA_CON	128  	Rpleas_acq	Oppo	Lpleas	Amasked	CS_A	2pleas	distractor1	EVAbeforeCON	AMP_CSpleas	AMP1_masked	6	18	0	0	300	300	0	0	1101	50	0	0	0	0	0	1	blank2r.bmp	0	1	DHJF	0	1	blank2r.bmp	79	15	pic15.bmp	199	1	whitenoise_No3.bmp	306	0	0	0	0	0	0	0	0	0	0	0	0	0	0	0	0	0	0	0	0	0	0	0	0	0	0	0	0	0	0	0	0	0	0	0	0	0	0	0
021819	14:09:03	14:20:47	703423	5.0.10.0	4_exp_AMP_EVA_AWA_CON	128  	Rpleas_acq	Oppo	Lpleas	Amasked	CS_A	2pleas	distractor1	EVAbeforeCON	AMP_distractor	AMP1_masked	6	19	0	0	300	300	0	0	794	50	0	0	0	0	0	1	blank2r.bmp	0	1	ZGXT	0	1	blank2r.bmp	79	3	pic3.bmp	199	1	whitenoise_No3.bmp	306	0	0	0	0	0	0	0	0	0	0	0	0	0	0	0	0	0	0	0	0	0	0	0	0	0	0	0	0	0	0	0	0	0	0	0	0	0	0	0
021819	14:09:03	14:20:49	705716	5.0.10.0	4_exp_AMP_EVA_AWA_CON	128  	Rpleas_acq	Oppo	Lpleas	Amasked	CS_A	2pleas	distractor1	EVAbeforeCON	AMP_CSpleas	AMP1_masked	6	20	0	0	300	300	0	0	1367	50	0	0	0	0	0	1	blank2r.bmp	0	1	DHJF	0	1	blank2r.bmp	79	91	pic91.bmp	199	1	whitenoise_No3.bmp	306	0	0	0	0	0	0	0	0	0	0	0	0	0	0	0	0	0	0	0	0	0	0	0	0	0	0	0	0	0	0	0	0	0	0	0	0	0	0	0
021819	14:09:03	14:20:53	709488	5.0.10.0	4_exp_AMP_EVA_AWA_CON	128  	Rpleas_acq	Oppo	Lpleas	Amasked	CS_A	2pleas	distractor1	EVAbeforeCON	AMP_CSpleas	AMP1_masked	6	21	0	0	300	300	0	0	2843	50	0	0	0	0	0	1	blank2r.bmp	0	1	DHJF	0	1	blank2r.bmp	79	143	pic143.bmp	199	1	whitenoise_No3.bmp	306	0	0	0	0	0	0	0	0	0	0	0	0	0	0	0	0	0	0	0	0	0	0	0	0	0	0	0	0	0	0	0	0	0	0	0	0	0	0	0
021819	14:09:03	14:20:55	711673	5.0.10.0	4_exp_AMP_EVA_AWA_CON	128  	Rpleas_acq	Oppo	Lpleas	Amasked	CS_A	2pleas	distractor1	EVAbeforeCON	AMP_distractor	AMP1_masked	6	22	0	0	300	300	0	0	1255	46	0	0	0	0	0	1	blank2r.bmp	0	1	ZGXT	0	1	blank2r.bmp	79	126	pic126.bmp	199	1	whitenoise_No3.bmp	306	0	0	0	0	0	0	0	0	0	0	0	0	0	0	0	0	0	0	0	0	0	0	0	0	0	0	0	0	0	0	0	0	0	0	0	0	0	0	0
021819	14:09:03	14:20:57	713579	5.0.10.0	4_exp_AMP_EVA_AWA_CON	128  	Rpleas_acq	Oppo	Lpleas	Amasked	CS_A	2pleas	distractor1	EVAbeforeCON	AMP_distractor	AMP1_masked	6	23	0	0	300	300	0	0	982	46	0	0	0	0	0	1	blank2r.bmp	0	1	ZGXT	0	1	blank2r.bmp	79	16	pic16.bmp	199	1	whitenoise_No3.bmp	306	0	0	0	0	0	0	0	0	0	0	0	0	0	0	0	0	0	0	0	0	0	0	0	0	0	0	0	0	0	0	0	0	0	0	0	0	0	0	0
021819	14:09:03	14:20:59	715352	5.0.10.0	4_exp_AMP_EVA_AWA_CON	128  	Rpleas_acq	Oppo	Lpleas	Amasked	CS_A	2pleas	distractor1	EVAbeforeCON	AMP_distractor	AMP1_masked	6	24	0	0	300	300	0	0	850	50	0	0	0	0	0	1	blank2r.bmp	0	1	ZGXT	0	1	blank2r.bmp	79	31	pic31.bmp	199	1	whitenoise_No3.bmp	306	0	0	0	0	0	0	0	0	0	0	0	0	0	0	0	0	0	0	0	0	0	0	0	0	0	0	0	0	0	0	0	0	0	0	0	0	0	0	0
021819	14:09:03	14:21:01	717911	5.0.10.0	4_exp_AMP_EVA_AWA_CON	128  	Rpleas_acq	Oppo	Lpleas	Amasked	CS_A	2pleas	distractor1	EVAbeforeCON	AMP_distractor	AMP1_masked	6	25	0	0	300	300	0	0	1628	46	0	0	0	0	0	1	blank2r.bmp	0	1	ZGXT	0	1	blank2r.bmp	79	123	pic123.bmp	199	1	whitenoise_No3.bmp	306	0	0	0	0	0	0	0	0	0	0	0	0	0	0	0	0	0	0	0	0	0	0	0	0	0	0	0	0	0	0	0	0	0	0	0	0	0	0	0
021819	14:09:03	14:21:03	719857	5.0.10.0	4_exp_AMP_EVA_AWA_CON	128  	Rpleas_acq	Oppo	Lpleas	Amasked	CS_A	2pleas	distractor1	EVAbeforeCON	AMP_CSunple	AMP1_masked	6	26	0	0	300	300	0	0	1036	46	0	0	0	0	0	1	blank2r.bmp	0	1	CPLW	0	1	blank2r.bmp	79	101	pic101.bmp	199	1	whitenoise_No3.bmp	306	0	0	0	0	0	0	0	0	0	0	0	0	0	0	0	0	0	0	0	0	0	0	0	0	0	0	0	0	0	0	0	0	0	0	0	0	0	0	0
021819	14:09:03	14:21:05	721616	5.0.10.0	4_exp_AMP_EVA_AWA_CON	128  	Rpleas_acq	Oppo	Lpleas	Amasked	CS_A	2pleas	distractor1	EVAbeforeCON	AMP_distractor	AMP1_masked	6	27	0	0	300	300	0	0	832	50	0	0	0	0	0	1	blank2r.bmp	0	1	ZGXT	0	1	blank2r.bmp	79	1	pic1.bmp	199	1	whitenoise_No3.bmp	306	0	0	0	0	0	0	0	0	0	0	0	0	0	0	0	0	0	0	0	0	0	0	0	0	0	0	0	0	0	0	0	0	0	0	0	0	0	0	0
021819	14:09:03	14:21:07	723162	5.0.10.0	4_exp_AMP_EVA_AWA_CON	128  	Rpleas_acq	Oppo	Lpleas	Amasked	CS_A	2pleas	distractor1	EVAbeforeCON	AMP_CSpleas	AMP1_masked	6	28	0	0	300	300	0	0	636	46	0	1	0	0	0	1	blank2r.bmp	0	1	DHJF	0	1	blank2r.bmp	79	32	pic32.bmp	199	1	whitenoise_No3.bmp	306	0	0	0	0	0	0	0	0	0	0	0	0	0	0	0	0	0	0	0	0	0	0	0	0	0	0	0	0	0	0	0	0	0	0	0	0	0	0	0
021819	14:09:03	14:21:08	724615	5.0.10.0	4_exp_AMP_EVA_AWA_CON	128  	Rpleas_acq	Oppo	Lpleas	Amasked	CS_A	2pleas	distractor1	EVAbeforeCON	AMP_CSpleas	AMP1_masked	6	29	0	0	300	300	0	0	527	46	0	1	0	0	0	1	blank2r.bmp	0	1	DHJF	0	1	blank2r.bmp	79	100	pic100.bmp	199	1	whitenoise_No3.bmp	306	0	0	0	0	0	0	0	0	0	0	0	0	0	0	0	0	0	0	0	0	0	0	0	0	0	0	0	0	0	0	0	0	0	0	0	0	0	0	0
021819	14:09:03	14:21:10	726440	5.0.10.0	4_exp_AMP_EVA_AWA_CON	128  	Rpleas_acq	Oppo	Lpleas	Amasked	CS_A	2pleas	distractor1	EVAbeforeCON	AMP_CSpleas	AMP1_masked	6	30	0	0	300	300	0	0	894	46	0	1	0	0	0	1	blank2r.bmp	0	1	DHJF	0	1	blank2r.bmp	79	122	pic122.bmp	199	1	whitenoise_No3.bmp	306	0	0	0	0	0	0	0	0	0	0	0	0	0	0	0	0	0	0	0	0	0	0	0	0	0	0	0	0	0	0	0	0	0	0	0	0	0	0	0
021819	14:09:03	14:21:12	728586	5.0.10.0	4_exp_AMP_EVA_AWA_CON	128  	Rpleas_acq	Oppo	Lpleas	Amasked	CS_A	2pleas	distractor1	EVAbeforeCON	AMP_distractor	AMP1_masked	6	31	0	0	300	300	0	0	1228	46	0	0	0	0	0	1	blank2r.bmp	0	1	ZGXT	0	1	blank2r.bmp	79	4	pic4.bmp	199	1	whitenoise_No3.bmp	306	0	0	0	0	0	0	0	0	0	0	0	0	0	0	0	0	0	0	0	0	0	0	0	0	0	0	0	0	0	0	0	0	0	0	0	0	0	0	0
021819	14:09:03	14:21:14	730932	5.0.10.0	4_exp_AMP_EVA_AWA_CON	128  	Rpleas_acq	Oppo	Lpleas	Amasked	CS_A	2pleas	distractor1	EVAbeforeCON	AMP_CSpleas	AMP1_masked	6	32	0	0	300	300	0	0	1413	46	0	1	0	0	0	1	blank2r.bmp	0	1	DHJF	0	1	blank2r.bmp	79	75	pic75.bmp	199	1	whitenoise_No3.bmp	306	0	0	0	0	0	0	0	0	0	0	0	0	0	0	0	0	0	0	0	0	0	0	0	0	0	0	0	0	0	0	0	0	0	0	0	0	0	0	0
021819	14:09:03	14:21:16	732505	5.0.10.0	4_exp_AMP_EVA_AWA_CON	128  	Rpleas_acq	Oppo	Lpleas	Amasked	CS_A	2pleas	distractor1	EVAbeforeCON	AMP_CSpleas	AMP1_masked	6	33	0	0	300	300	0	0	663	46	0	1	0	0	0	1	blank2r.bmp	0	1	DHJF	0	1	blank2r.bmp	79	48	pic48.bmp	199	1	whitenoise_No3.bmp	306	0	0	0	0	0	0	0	0	0	0	0	0	0	0	0	0	0	0	0	0	0	0	0	0	0	0	0	0	0	0	0	0	0	0	0	0	0	0	0
021819	14:09:03	14:21:17	734077	5.0.10.0	4_exp_AMP_EVA_AWA_CON	128  	Rpleas_acq	Oppo	Lpleas	Amasked	CS_A	2pleas	distractor1	EVAbeforeCON	AMP_CSunple	AMP1_masked	6	34	0	0	300	300	0	0	636	46	0	0	0	0	0	1	blank2r.bmp	0	1	CPLW	0	1	blank2r.bmp	79	36	pic36.bmp	199	1	whitenoise_No3.bmp	306	0	0	0	0	0	0	0	0	0	0	0	0	0	0	0	0	0	0	0	0	0	0	0	0	0	0	0	0	0	0	0	0	0	0	0	0	0	0	0
021819	14:09:03	14:21:21	737236	5.0.10.0	4_exp_AMP_EVA_AWA_CON	128  	Rpleas_acq	Oppo	Lpleas	Amasked	CS_A	2pleas	distractor1	EVAbeforeCON	AMP_CSpleas	AMP1_masked	6	35	0	0	300	300	0	0	2225	50	0	0	0	0	0	1	blank2r.bmp	0	1	DHJF	0	1	blank2r.bmp	79	64	pic64.bmp	199	1	whitenoise_No3.bmp	306	0	0	0	0	0	0	0	0	0	0	0	0	0	0	0	0	0	0	0	0	0	0	0	0	0	0	0	0	0	0	0	0	0	0	0	0	0	0	0
021819	14:09:03	14:21:22	738715	5.0.10.0	4_exp_AMP_EVA_AWA_CON	128  	Rpleas_acq	Oppo	Lpleas	Amasked	CS_A	2pleas	distractor1	EVAbeforeCON	AMP_distractor	AMP1_masked	6	36	0	0	300	300	0	0	566	50	0	0	0	0	0	1	blank2r.bmp	0	1	ZGXT	0	1	blank2r.bmp	79	153	pic153.bmp	199	1	whitenoise_No3.bmp	306	0	0	0	0	0	0	0	0	0	0	0	0	0	0	0	0	0	0	0	0	0	0	0	0	0	0	0	0	0	0	0	0	0	0	0	0	0	0	0
021819	14:09:03	14:21:24	741008	5.0.10.0	4_exp_AMP_EVA_AWA_CON	128  	Rpleas_acq	Oppo	Lpleas	Amasked	CS_A	2pleas	distractor1	EVAbeforeCON	AMP_CSunple	AMP1_masked	6	37	0	0	300	300	0	0	1381	46	0	0	0	0	0	1	blank2r.bmp	0	1	CPLW	0	1	blank2r.bmp	79	98	pic98.bmp	199	1	whitenoise_No3.bmp	306	0	0	0	0	0	0	0	0	0	0	0	0	0	0	0	0	0	0	0	0	0	0	0	0	0	0	0	0	0	0	0	0	0	0	0	0	0	0	0
021819	14:09:03	14:21:27	743620	5.0.10.0	4_exp_AMP_EVA_AWA_CON	128  	Rpleas_acq	Oppo	Lpleas	Amasked	CS_A	2pleas	distractor1	EVAbeforeCON	AMP_CSpleas	AMP1_masked	6	38	0	0	300	300	0	0	1698	46	0	1	0	0	0	1	blank2r.bmp	0	1	DHJF	0	1	blank2r.bmp	79	69	pic69.bmp	199	1	whitenoise_No3.bmp	306	0	0	0	0	0	0	0	0	0	0	0	0	0	0	0	0	0	0	0	0	0	0	0	0	0	0	0	0	0	0	0	0	0	0	0	0	0	0	0
021819	14:09:03	14:21:30	746512	5.0.10.0	4_exp_AMP_EVA_AWA_CON	128  	Rpleas_acq	Oppo	Lpleas	Amasked	CS_A	2pleas	distractor1	EVAbeforeCON	AMP_CSpleas	AMP1_masked	6	39	0	0	300	300	0	0	1960	50	0	0	0	0	0	1	blank2r.bmp	0	1	DHJF	0	1	blank2r.bmp	79	70	pic70.bmp	199	1	whitenoise_No3.bmp	306	0	0	0	0	0	0	0	0	0	0	0	0	0	0	0	0	0	0	0	0	0	0	0	0	0	0	0	0	0	0	0	0	0	0	0	0	0	0	0
021819	14:09:03	14:21:33	749244	5.0.10.0	4_exp_AMP_EVA_AWA_CON	128  	Rpleas_acq	Oppo	Lpleas	Amasked	CS_A	2pleas	distractor1	EVAbeforeCON	AMP_CSunple	AMP1_masked	6	40	0	0	300	300	0	0	1822	50	0	1	0	0	0	1	blank2r.bmp	0	1	CPLW	0	1	blank2r.bmp	79	144	pic144.bmp	199	1	whitenoise_No3.bmp	306	0	0	0	0	0	0	0	0	0	0	0	0	0	0	0	0	0	0	0	0	0	0	0	0	0	0	0	0	0	0	0	0	0	0	0	0	0	0	0
021819	14:09:03	14:21:34	750870	5.0.10.0	4_exp_AMP_EVA_AWA_CON	128  	Rpleas_acq	Oppo	Lpleas	Amasked	CS_A	2pleas	distractor1	EVAbeforeCON	AMP_CSpleas	AMP1_masked	6	41	0	0	300	300	0	0	694	46	0	1	0	0	0	1	blank2r.bmp	0	1	DHJF	0	1	blank2r.bmp	79	141	pic141.bmp	199	1	whitenoise_No3.bmp	306	0	0	0	0	0	0	0	0	0	0	0	0	0	0	0	0	0	0	0	0	0	0	0	0	0	0	0	0	0	0	0	0	0	0	0	0	0	0	0
021819	14:09:03	14:21:37	753149	5.0.10.0	4_exp_AMP_EVA_AWA_CON	128  	Rpleas_acq	Oppo	Lpleas	Amasked	CS_A	2pleas	distractor1	EVAbeforeCON	AMP_CSpleas	AMP1_masked	6	42	0	0	300	300	0	0	1360	46	0	1	0	0	0	1	blank2r.bmp	0	1	DHJF	0	1	blank2r.bmp	79	52	pic52.bmp	199	1	whitenoise_No3.bmp	306	0	0	0	0	0	0	0	0	0	0	0	0	0	0	0	0	0	0	0	0	0	0	0	0	0	0	0	0	0	0	0	0	0	0	0	0	0	0	0
021819	14:09:03	14:21:40	756161	5.0.10.0	4_exp_AMP_EVA_AWA_CON	128  	Rpleas_acq	Oppo	Lpleas	Amasked	CS_A	2pleas	distractor1	EVAbeforeCON	AMP_CSunple	AMP1_masked	6	43	0	0	300	300	0	0	2098	46	0	0	0	0	0	1	blank2r.bmp	0	1	CPLW	0	1	blank2r.bmp	79	146	pic146.bmp	199	1	whitenoise_No3.bmp	306	0	0	0	0	0	0	0	0	0	0	0	0	0	0	0	0	0	0	0	0	0	0	0	0	0	0	0	0	0	0	0	0	0	0	0	0	0	0	0
021819	14:09:03	14:21:41	757747	5.0.10.0	4_exp_AMP_EVA_AWA_CON	128  	Rpleas_acq	Oppo	Lpleas	Amasked	CS_A	2pleas	distractor1	EVAbeforeCON	AMP_CSpleas	AMP1_masked	6	44	0	0	300	300	0	0	657	50	0	0	0	0	0	1	blank2r.bmp	0	1	DHJF	0	1	blank2r.bmp	79	142	pic142.bmp	199	1	whitenoise_No3.bmp	306	0	0	0	0	0	0	0	0	0	0	0	0	0	0	0	0	0	0	0	0	0	0	0	0	0	0	0	0	0	0	0	0	0	0	0	0	0	0	0
021819	14:09:03	14:21:43	760080	5.0.10.0	4_exp_AMP_EVA_AWA_CON	128  	Rpleas_acq	Oppo	Lpleas	Amasked	CS_A	2pleas	distractor1	EVAbeforeCON	AMP_distractor	AMP1_masked	6	45	0	0	300	300	0	0	1424	46	0	0	0	0	0	1	blank2r.bmp	0	1	ZGXT	0	1	blank2r.bmp	79	102	pic102.bmp	199	1	whitenoise_No3.bmp	306	0	0	0	0	0	0	0	0	0	0	0	0	0	0	0	0	0	0	0	0	0	0	0	0	0	0	0	0	0	0	0	0	0	0	0	0	0	0	0
021819	14:09:03	14:21:45	761932	5.0.10.0	4_exp_AMP_EVA_AWA_CON	128  	Rpleas_acq	Oppo	Lpleas	Amasked	CS_A	2pleas	distractor1	EVAbeforeCON	AMP_CSunple	AMP1_masked	6	46	0	0	300	300	0	0	925	50	0	1	0	0	0	1	blank2r.bmp	0	1	CPLW	0	1	blank2r.bmp	79	137	pic137.bmp	199	1	whitenoise_No3.bmp	306	0	0	0	0	0	0	0	0	0	0	0	0	0	0	0	0	0	0	0	0	0	0	0	0	0	0	0	0	0	0	0	0	0	0	0	0	0	0	0
021819	14:09:03	14:21:47	763638	5.0.10.0	4_exp_AMP_EVA_AWA_CON	128  	Rpleas_acq	Oppo	Lpleas	Amasked	CS_A	2pleas	distractor1	EVAbeforeCON	AMP_distractor	AMP1_masked	6	47	0	0	300	300	0	0	776	46	0	0	0	0	0	1	blank2r.bmp	0	1	ZGXT	0	1	blank2r.bmp	79	106	pic106.bmp	199	1	whitenoise_No3.bmp	306	0	0	0	0	0	0	0	0	0	0	0	0	0	0	0	0	0	0	0	0	0	0	0	0	0	0	0	0	0	0	0	0	0	0	0	0	0	0	0
021819	14:09:03	14:21:48	765091	5.0.10.0	4_exp_AMP_EVA_AWA_CON	128  	Rpleas_acq	Oppo	Lpleas	Amasked	CS_A	2pleas	distractor1	EVAbeforeCON	AMP_distractor	AMP1_masked	6	48	0	0	300	300	0	0	519	46	0	0	0	0	0	1	blank2r.bmp	0	1	ZGXT	0	1	blank2r.bmp	79	148	pic148.bmp	199	1	whitenoise_No3.bmp	306	0	0	0	0	0	0	0	0	0	0	0	0	0	0	0	0	0	0	0	0	0	0	0	0	0	0	0	0	0	0	0	0	0	0	0	0	0	0	0
021819	14:09:03	14:21:50	766970	5.0.10.0	4_exp_AMP_EVA_AWA_CON	128  	Rpleas_acq	Oppo	Lpleas	Amasked	CS_A	2pleas	distractor1	EVAbeforeCON	AMP_CSunple	AMP1_masked	6	49	0	0	300	300	0	0	961	46	0	0	0	0	0	1	blank2r.bmp	0	1	CPLW	0	1	blank2r.bmp	79	125	pic125.bmp	199	1	whitenoise_No3.bmp	306	0	0	0	0	0	0	0	0	0	0	0	0	0	0	0	0	0	0	0	0	0	0	0	0	0	0	0	0	0	0	0	0	0	0	0	0	0	0	0
021819	14:09:03	14:21:52	768783	5.0.10.0	4_exp_AMP_EVA_AWA_CON	128  	Rpleas_acq	Oppo	Lpleas	Amasked	CS_A	2pleas	distractor1	EVAbeforeCON	AMP_CSunple	AMP1_masked	6	50	0	0	300	300	0	0	896	46	0	0	0	0	0	1	blank2r.bmp	0	1	CPLW	0	1	blank2r.bmp	79	21	pic21.bmp	199	1	whitenoise_No3.bmp	306	0	0	0	0	0	0	0	0	0	0	0	0	0	0	0	0	0	0	0	0	0	0	0	0	0	0	0	0	0	0	0	0	0	0	0	0	0	0	0
021819	14:09:03	14:21:54	770315	5.0.10.0	4_exp_AMP_EVA_AWA_CON	128  	Rpleas_acq	Oppo	Lpleas	Amasked	CS_A	2pleas	distractor1	EVAbeforeCON	AMP_CSunple	AMP1_masked	6	51	0	0	300	300	0	0	610	50	0	1	0	0	0	1	blank2r.bmp	0	1	CPLW	0	1	blank2r.bmp	79	19	pic19.bmp	199	1	whitenoise_No3.bmp	306	0	0	0	0	0	0	0	0	0	0	0	0	0	0	0	0	0	0	0	0	0	0	0	0	0	0	0	0	0	0	0	0	0	0	0	0	0	0	0
021819	14:09:03	14:22:00	776379	5.0.10.0	4_exp_AMP_EVA_AWA_CON	128  	Rpleas_acq	Oppo	Lpleas	Amasked	CS_A	2pleas	distractor1	EVAbeforeCON	AMP_CSpleas	AMP23	7	1	0	0	300	300	0	0	821	50	0	0	0	0	0	1	blank2r.bmp	0	1	DHJF	0	1	blank2r.bmp	79	59	pic59.bmp	199	1	whitenoise_No3.bmp	306	0	0	0	0	0	0	0	0	0	0	0	0	0	0	0	0	0	0	0	0	0	0	0	0	0	0	0	0	0	0	0	0	0	0	0	0	0	0	0
021819	14:09:03	14:22:01	777752	5.0.10.0	4_exp_AMP_EVA_AWA_CON	128  	Rpleas_acq	Oppo	Lpleas	Amasked	CS_A	2pleas	distractor1	EVAbeforeCON	AMP_CSunple	AMP23	7	2	0	0	300	300	0	0	445	46	0	0	0	0	0	1	blank2r.bmp	0	1	CPLW	0	1	blank2r.bmp	79	145	pic145.bmp	199	1	whitenoise_No3.bmp	306	0	0	0	0	0	0	0	0	0	0	0	0	0	0	0	0	0	0	0	0	0	0	0	0	0	0	0	0	0	0	0	0	0	0	0	0	0	0	0
021819	14:09:03	14:22:03	779432	5.0.10.0	4_exp_AMP_EVA_AWA_CON	128  	Rpleas_acq	Oppo	Lpleas	Amasked	CS_A	2pleas	distractor1	EVAbeforeCON	AMP_CSunple	AMP23	7	3	0	0	300	300	0	0	747	50	0	1	0	0	0	1	blank2r.bmp	0	1	CPLW	0	1	blank2r.bmp	79	134	pic134.bmp	199	1	whitenoise_No3.bmp	306	0	0	0	0	0	0	0	0	0	0	0	0	0	0	0	0	0	0	0	0	0	0	0	0	0	0	0	0	0	0	0	0	0	0	0	0	0	0	0
021819	14:09:03	14:22:04	780898	5.0.10.0	4_exp_AMP_EVA_AWA_CON	128  	Rpleas_acq	Oppo	Lpleas	Amasked	CS_A	2pleas	distractor1	EVAbeforeCON	AMP_CSpleas	AMP23	7	4	0	0	300	300	0	0	550	46	0	1	0	0	0	1	blank2r.bmp	0	1	DHJF	0	1	blank2r.bmp	79	128	pic128.bmp	199	1	whitenoise_No3.bmp	306	0	0	0	0	0	0	0	0	0	0	0	0	0	0	0	0	0	0	0	0	0	0	0	0	0	0	0	0	0	0	0	0	0	0	0	0	0	0	0
021819	14:09:03	14:22:07	783110	5.0.10.0	4_exp_AMP_EVA_AWA_CON	128  	Rpleas_acq	Oppo	Lpleas	Amasked	CS_A	2pleas	distractor1	EVAbeforeCON	AMP_distractor	AMP23	7	5	0	0	300	300	0	0	1298	46	0	0	0	0	0	1	blank2r.bmp	0	1	ZGXT	0	1	blank2r.bmp	79	71	pic71.bmp	199	1	whitenoise_No3.bmp	306	0	0	0	0	0	0	0	0	0	0	0	0	0	0	0	0	0	0	0	0	0	0	0	0	0	0	0	0	0	0	0	0	0	0	0	0	0	0	0
021819	14:09:03	14:22:09	785136	5.0.10.0	4_exp_AMP_EVA_AWA_CON	128  	Rpleas_acq	Oppo	Lpleas	Amasked	CS_A	2pleas	distractor1	EVAbeforeCON	AMP_distractor	AMP23	7	6	0	0	300	300	0	0	1110	46	0	0	0	0	0	1	blank2r.bmp	0	1	ZGXT	0	1	blank2r.bmp	79	57	pic57.bmp	199	1	whitenoise_No3.bmp	306	0	0	0	0	0	0	0	0	0	0	0	0	0	0	0	0	0	0	0	0	0	0	0	0	0	0	0	0	0	0	0	0	0	0	0	0	0	0	0
021819	14:09:03	14:22:10	786975	5.0.10.0	4_exp_AMP_EVA_AWA_CON	128  	Rpleas_acq	Oppo	Lpleas	Amasked	CS_A	2pleas	distractor1	EVAbeforeCON	AMP_CSpleas	AMP23	7	7	0	0	300	300	0	0	910	46	0	1	0	0	0	1	blank2r.bmp	0	1	DHJF	0	1	blank2r.bmp	79	107	pic107.bmp	199	1	whitenoise_No3.bmp	306	0	0	0	0	0	0	0	0	0	0	0	0	0	0	0	0	0	0	0	0	0	0	0	0	0	0	0	0	0	0	0	0	0	0	0	0	0	0	0
021819	14:09:03	14:22:13	789201	5.0.10.0	4_exp_AMP_EVA_AWA_CON	128  	Rpleas_acq	Oppo	Lpleas	Amasked	CS_A	2pleas	distractor1	EVAbeforeCON	AMP_distractor	AMP23	7	8	0	0	300	300	0	0	1301	50	0	0	0	0	0	1	blank2r.bmp	0	1	ZGXT	0	1	blank2r.bmp	79	13	pic13.bmp	199	1	whitenoise_No3.bmp	306	0	0	0	0	0	0	0	0	0	0	0	0	0	0	0	0	0	0	0	0	0	0	0	0	0	0	0	0	0	0	0	0	0	0	0	0	0	0	0
021819	14:09:03	14:22:14	791040	5.0.10.0	4_exp_AMP_EVA_AWA_CON	128  	Rpleas_acq	Oppo	Lpleas	Amasked	CS_A	2pleas	distractor1	EVAbeforeCON	AMP_CSunple	AMP23	7	9	0	0	300	300	0	0	918	46	0	0	0	0	0	1	blank2r.bmp	0	1	CPLW	0	1	blank2r.bmp	79	121	pic121.bmp	199	1	whitenoise_No3.bmp	306	0	0	0	0	0	0	0	0	0	0	0	0	0	0	0	0	0	0	0	0	0	0	0	0	0	0	0	0	0	0	0	0	0	0	0	0	0	0	0
021819	14:09:03	14:22:16	792586	5.0.10.0	4_exp_AMP_EVA_AWA_CON	128  	Rpleas_acq	Oppo	Lpleas	Amasked	CS_A	2pleas	distractor1	EVAbeforeCON	AMP_CSpleas	AMP23	7	10	0	0	300	300	0	0	615	50	0	0	0	0	0	1	blank2r.bmp	0	1	DHJF	0	1	blank2r.bmp	79	76	pic76.bmp	199	1	whitenoise_No3.bmp	306	0	0	0	0	0	0	0	0	0	0	0	0	0	0	0	0	0	0	0	0	0	0	0	0	0	0	0	0	0	0	0	0	0	0	0	0	0	0	0
021819	14:09:03	14:22:18	794292	5.0.10.0	4_exp_AMP_EVA_AWA_CON	128  	Rpleas_acq	Oppo	Lpleas	Amasked	CS_A	2pleas	distractor1	EVAbeforeCON	AMP_CSunple	AMP23	7	11	0	0	300	300	0	0	795	50	0	1	0	0	0	1	blank2r.bmp	0	1	CPLW	0	1	blank2r.bmp	79	118	pic118.bmp	199	1	whitenoise_No3.bmp	306	0	0	0	0	0	0	0	0	0	0	0	0	0	0	0	0	0	0	0	0	0	0	0	0	0	0	0	0	0	0	0	0	0	0	0	0	0	0	0
021819	14:09:03	14:22:19	796078	5.0.10.0	4_exp_AMP_EVA_AWA_CON	128  	Rpleas_acq	Oppo	Lpleas	Amasked	CS_A	2pleas	distractor1	EVAbeforeCON	AMP_CSunple	AMP23	7	12	0	0	300	300	0	0	854	46	0	0	0	0	0	1	blank2r.bmp	0	1	CPLW	0	1	blank2r.bmp	79	78	pic78.bmp	199	1	whitenoise_No3.bmp	306	0	0	0	0	0	0	0	0	0	0	0	0	0	0	0	0	0	0	0	0	0	0	0	0	0	0	0	0	0	0	0	0	0	0	0	0	0	0	0
021819	14:09:03	14:22:21	797611	5.0.10.0	4_exp_AMP_EVA_AWA_CON	128  	Rpleas_acq	Oppo	Lpleas	Amasked	CS_A	2pleas	distractor1	EVAbeforeCON	AMP_distractor	AMP23	7	13	0	0	300	300	0	0	621	46	0	0	0	0	0	1	blank2r.bmp	0	1	ZGXT	0	1	blank2r.bmp	79	152	pic152.bmp	199	1	whitenoise_No3.bmp	306	0	0	0	0	0	0	0	0	0	0	0	0	0	0	0	0	0	0	0	0	0	0	0	0	0	0	0	0	0	0	0	0	0	0	0	0	0	0	0
021819	14:09:03	14:22:23	799410	5.0.10.0	4_exp_AMP_EVA_AWA_CON	128  	Rpleas_acq	Oppo	Lpleas	Amasked	CS_A	2pleas	distractor1	EVAbeforeCON	AMP_CSpleas	AMP23	7	14	0	0	300	300	0	0	872	46	0	1	0	0	0	1	blank2r.bmp	0	1	DHJF	0	1	blank2r.bmp	79	46	pic46.bmp	199	1	whitenoise_No3.bmp	306	0	0	0	0	0	0	0	0	0	0	0	0	0	0	0	0	0	0	0	0	0	0	0	0	0	0	0	0	0	0	0	0	0	0	0	0	0	0	0
021819	14:09:03	14:22:25	801649	5.0.10.0	4_exp_AMP_EVA_AWA_CON	128  	Rpleas_acq	Oppo	Lpleas	Amasked	CS_A	2pleas	distractor1	EVAbeforeCON	AMP_CSunple	AMP23	7	15	0	0	300	300	0	0	1311	50	0	1	0	0	0	1	blank2r.bmp	0	1	CPLW	0	1	blank2r.bmp	79	103	pic103.bmp	199	1	whitenoise_No3.bmp	306	0	0	0	0	0	0	0	0	0	0	0	0	0	0	0	0	0	0	0	0	0	0	0	0	0	0	0	0	0	0	0	0	0	0	0	0	0	0	0
021819	14:09:03	14:22:27	803368	5.0.10.0	4_exp_AMP_EVA_AWA_CON	128  	Rpleas_acq	Oppo	Lpleas	Amasked	CS_A	2pleas	distractor1	EVAbeforeCON	AMP_CSpleas	AMP23	7	16	0	0	300	300	0	0	791	50	0	0	0	0	0	1	blank2r.bmp	0	1	DHJF	0	1	blank2r.bmp	79	62	pic62.bmp	199	1	whitenoise_No3.bmp	306	0	0	0	0	0	0	0	0	0	0	0	0	0	0	0	0	0	0	0	0	0	0	0	0	0	0	0	0	0	0	0	0	0	0	0	0	0	0	0
021819	14:09:03	14:22:28	805007	5.0.10.0	4_exp_AMP_EVA_AWA_CON	128  	Rpleas_acq	Oppo	Lpleas	Amasked	CS_A	2pleas	distractor1	EVAbeforeCON	AMP_distractor	AMP23	7	17	0	0	300	300	0	0	714	46	0	0	0	0	0	1	blank2r.bmp	0	1	ZGXT	0	1	blank2r.bmp	79	112	pic112.bmp	199	1	whitenoise_No3.bmp	306	0	0	0	0	0	0	0	0	0	0	0	0	0	0	0	0	0	0	0	0	0	0	0	0	0	0	0	0	0	0	0	0	0	0	0	0	0	0	0
021819	14:09:03	14:22:30	806593	5.0.10.0	4_exp_AMP_EVA_AWA_CON	128  	Rpleas_acq	Oppo	Lpleas	Amasked	CS_A	2pleas	distractor1	EVAbeforeCON	AMP_CSunple	AMP23	7	18	0	0	300	300	0	0	661	50	0	1	0	0	0	1	blank2r.bmp	0	1	CPLW	0	1	blank2r.bmp	79	42	pic42.bmp	199	1	whitenoise_No3.bmp	306	0	0	0	0	0	0	0	0	0	0	0	0	0	0	0	0	0	0	0	0	0	0	0	0	0	0	0	0	0	0	0	0	0	0	0	0	0	0	0
021819	14:09:03	14:22:31	808059	5.0.10.0	4_exp_AMP_EVA_AWA_CON	128  	Rpleas_acq	Oppo	Lpleas	Amasked	CS_A	2pleas	distractor1	EVAbeforeCON	AMP_CSpleas	AMP23	7	19	0	0	300	300	0	0	534	46	0	1	0	0	0	1	blank2r.bmp	0	1	DHJF	0	1	blank2r.bmp	79	39	pic39.bmp	199	1	whitenoise_No3.bmp	306	0	0	0	0	0	0	0	0	0	0	0	0	0	0	0	0	0	0	0	0	0	0	0	0	0	0	0	0	0	0	0	0	0	0	0	0	0	0	0
021819	14:09:03	14:22:33	809659	5.0.10.0	4_exp_AMP_EVA_AWA_CON	128  	Rpleas_acq	Oppo	Lpleas	Amasked	CS_A	2pleas	distractor1	EVAbeforeCON	AMP_CSunple	AMP23	7	20	0	0	300	300	0	0	683	46	0	0	0	0	0	1	blank2r.bmp	0	1	CPLW	0	1	blank2r.bmp	79	132	pic132.bmp	199	1	whitenoise_No3.bmp	306	0	0	0	0	0	0	0	0	0	0	0	0	0	0	0	0	0	0	0	0	0	0	0	0	0	0	0	0	0	0	0	0	0	0	0	0	0	0	0
021819	14:09:03	14:22:35	811845	5.0.10.0	4_exp_AMP_EVA_AWA_CON	128  	Rpleas_acq	Oppo	Lpleas	Amasked	CS_A	2pleas	distractor1	EVAbeforeCON	AMP_CSunple	AMP23	7	21	0	0	300	300	0	0	1264	46	0	0	0	0	0	1	blank2r.bmp	0	1	CPLW	0	1	blank2r.bmp	79	83	pic83.bmp	199	1	whitenoise_No3.bmp	306	0	0	0	0	0	0	0	0	0	0	0	0	0	0	0	0	0	0	0	0	0	0	0	0	0	0	0	0	0	0	0	0	0	0	0	0	0	0	0
021819	14:09:03	14:22:37	813444	5.0.10.0	4_exp_AMP_EVA_AWA_CON	128  	Rpleas_acq	Oppo	Lpleas	Amasked	CS_A	2pleas	distractor1	EVAbeforeCON	AMP_CSpleas	AMP23	7	22	0	0	300	300	0	0	663	46	0	1	0	0	0	1	blank2r.bmp	0	1	DHJF	0	1	blank2r.bmp	79	54	pic54.bmp	199	1	whitenoise_No3.bmp	306	0	0	0	0	0	0	0	0	0	0	0	0	0	0	0	0	0	0	0	0	0	0	0	0	0	0	0	0	0	0	0	0	0	0	0	0	0	0	0
021819	14:09:03	14:22:39	815176	5.0.10.0	4_exp_AMP_EVA_AWA_CON	128  	Rpleas_acq	Oppo	Lpleas	Amasked	CS_A	2pleas	distractor1	EVAbeforeCON	AMP_distractor	AMP23	7	23	0	0	300	300	0	0	805	50	0	0	0	0	0	1	blank2r.bmp	0	1	ZGXT	0	1	blank2r.bmp	79	58	pic58.bmp	199	1	whitenoise_No3.bmp	306	0	0	0	0	0	0	0	0	0	0	0	0	0	0	0	0	0	0	0	0	0	0	0	0	0	0	0	0	0	0	0	0	0	0	0	0	0	0	0
021819	14:09:03	14:22:40	816683	5.0.10.0	4_exp_AMP_EVA_AWA_CON	128  	Rpleas_acq	Oppo	Lpleas	Amasked	CS_A	2pleas	distractor1	EVAbeforeCON	AMP_distractor	AMP23	7	24	0	0	300	300	0	0	584	50	0	0	0	0	0	1	blank2r.bmp	0	1	ZGXT	0	1	blank2r.bmp	79	87	pic87.bmp	199	1	whitenoise_No3.bmp	306	0	0	0	0	0	0	0	0	0	0	0	0	0	0	0	0	0	0	0	0	0	0	0	0	0	0	0	0	0	0	0	0	0	0	0	0	0	0	0
021819	14:09:03	14:22:42	818828	5.0.10.0	4_exp_AMP_EVA_AWA_CON	128  	Rpleas_acq	Oppo	Lpleas	Amasked	CS_A	2pleas	distractor1	EVAbeforeCON	AMP_distractor	AMP23	7	25	0	0	300	300	0	0	1216	46	0	0	0	0	0	1	blank2r.bmp	0	1	ZGXT	0	1	blank2r.bmp	79	130	pic130.bmp	199	1	whitenoise_No3.bmp	306	0	0	0	0	0	0	0	0	0	0	0	0	0	0	0	0	0	0	0	0	0	0	0	0	0	0	0	0	0	0	0	0	0	0	0	0	0	0	0
021819	14:09:03	14:22:45	821401	5.0.10.0	4_exp_AMP_EVA_AWA_CON	128  	Rpleas_acq	Oppo	Lpleas	Amasked	CS_A	2pleas	distractor1	EVAbeforeCON	AMP_distractor	AMP23	7	26	0	0	300	300	0	0	1646	50	0	0	0	0	0	1	blank2r.bmp	0	1	ZGXT	0	1	blank2r.bmp	79	93	pic93.bmp	199	1	whitenoise_No3.bmp	306	0	0	0	0	0	0	0	0	0	0	0	0	0	0	0	0	0	0	0	0	0	0	0	0	0	0	0	0	0	0	0	0	0	0	0	0	0	0	0
021819	14:09:03	14:22:46	822960	5.0.10.0	4_exp_AMP_EVA_AWA_CON	128  	Rpleas_acq	Oppo	Lpleas	Amasked	CS_A	2pleas	distractor1	EVAbeforeCON	AMP_CSpleas	AMP23	7	27	0	0	300	300	0	0	638	50	0	0	0	0	0	1	blank2r.bmp	0	1	DHJF	0	1	blank2r.bmp	79	34	pic34.bmp	199	1	whitenoise_No3.bmp	306	0	0	0	0	0	0	0	0	0	0	0	0	0	0	0	0	0	0	0	0	0	0	0	0	0	0	0	0	0	0	0	0	0	0	0	0	0	0	0
021819	14:09:03	14:22:48	824439	5.0.10.0	4_exp_AMP_EVA_AWA_CON	128  	Rpleas_acq	Oppo	Lpleas	Amasked	CS_A	2pleas	distractor1	EVAbeforeCON	AMP_CSunple	AMP23	7	28	0	0	300	300	0	0	556	50	0	1	0	0	0	1	blank2r.bmp	0	1	CPLW	0	1	blank2r.bmp	79	10	pic10.bmp	199	1	whitenoise_No3.bmp	306	0	0	0	0	0	0	0	0	0	0	0	0	0	0	0	0	0	0	0	0	0	0	0	0	0	0	0	0	0	0	0	0	0	0	0	0	0	0	0
021819	14:09:03	14:22:49	825999	5.0.10.0	4_exp_AMP_EVA_AWA_CON	128  	Rpleas_acq	Oppo	Lpleas	Amasked	CS_A	2pleas	distractor1	EVAbeforeCON	AMP_CSpleas	AMP23	7	29	0	0	300	300	0	0	630	50	0	0	0	0	0	1	blank2r.bmp	0	1	DHJF	0	1	blank2r.bmp	79	65	pic65.bmp	199	1	whitenoise_No3.bmp	306	0	0	0	0	0	0	0	0	0	0	0	0	0	0	0	0	0	0	0	0	0	0	0	0	0	0	0	0	0	0	0	0	0	0	0	0	0	0	0
021819	14:09:03	14:22:54	830490	5.0.10.0	4_exp_AMP_EVA_AWA_CON	128  	Rpleas_acq	Oppo	Lpleas	Amasked	CS_A	2pleas	distractor1	EVAbeforeCON	AMP_distractor	AMP23	7	30	0	0	300	300	0	0	3574	50	0	0	0	0	0	1	blank2r.bmp	0	1	ZGXT	0	1	blank2r.bmp	79	67	pic67.bmp	199	1	whitenoise_No3.bmp	306	0	0	0	0	0	0	0	0	0	0	0	0	0	0	0	0	0	0	0	0	0	0	0	0	0	0	0	0	0	0	0	0	0	0	0	0	0	0	0
021819	14:09:03	14:22:56	832236	5.0.10.0	4_exp_AMP_EVA_AWA_CON	128  	Rpleas_acq	Oppo	Lpleas	Amasked	CS_A	2pleas	distractor1	EVAbeforeCON	AMP_CSpleas	AMP23	7	31	0	0	300	300	0	0	835	50	0	0	0	0	0	1	blank2r.bmp	0	1	DHJF	0	1	blank2r.bmp	79	61	pic61.bmp	199	1	whitenoise_No3.bmp	306	0	0	0	0	0	0	0	0	0	0	0	0	0	0	0	0	0	0	0	0	0	0	0	0	0	0	0	0	0	0	0	0	0	0	0	0	0	0	0
021819	14:09:03	14:22:57	833982	5.0.10.0	4_exp_AMP_EVA_AWA_CON	128  	Rpleas_acq	Oppo	Lpleas	Amasked	CS_A	2pleas	distractor1	EVAbeforeCON	AMP_CSunple	AMP23	7	32	0	0	300	300	0	0	818	50	0	1	0	0	0	1	blank2r.bmp	0	1	CPLW	0	1	blank2r.bmp	79	66	pic66.bmp	199	1	whitenoise_No3.bmp	306	0	0	0	0	0	0	0	0	0	0	0	0	0	0	0	0	0	0	0	0	0	0	0	0	0	0	0	0	0	0	0	0	0	0	0	0	0	0	0
021819	14:09:03	14:23:01	837847	5.0.10.0	4_exp_AMP_EVA_AWA_CON	128  	Rpleas_acq	Oppo	Lpleas	Amasked	CS_A	2pleas	distractor1	EVAbeforeCON	AMP_CSunple	AMP23	7	33	0	0	300	300	0	0	2953	50	0	1	0	0	0	1	blank2r.bmp	0	1	CPLW	0	1	blank2r.bmp	79	117	pic117.bmp	199	1	whitenoise_No3.bmp	306	0	0	0	0	0	0	0	0	0	0	0	0	0	0	0	0	0	0	0	0	0	0	0	0	0	0	0	0	0	0	0	0	0	0	0	0	0	0	0
