date	time	script.currenttime	script.elapsedtime	build	script.currentexpt	subject	expressions.LRpleas_acq	expressions.SameOppo	expressions.condition_Lpleas	expressions.ABmasked	expressions.conditionCS_A	expressions.condition_1pleas	expressions.condition_distractor_AMP	trialcode	blockcode	blocknum	trialnum	windowcenter	inwindow	pretrialpause	posttrialpause	trialduration	trialtimeout	latency	response	expressions.correctedscore	correct	values.vis_performance	values.vis_rating_sum	values.vis_rating_mean	stimulusnumber1	stimulusitem1	stimulusonset1	stimulusnumber2	stimulusitem2	stimulusonset2	stimulusnumber3	stimulusitem3	stimulusonset3	stimulusnumber4	stimulusitem4	stimulusonset4	stimulusnumber5	stimulusitem5	stimulusonset5	stimulusnumber6	stimulusitem6	stimulusonset6	stimulusnumber7	stimulusitem7	stimulusonset7	stimulusnumber8	stimulusitem8	stimulusonset8	stimulusnumber9	stimulusitem9	stimulusonset9	stimulusnumber10	stimulusitem10	stimulusonset10	stimulusnumber11	stimulusitem11	stimulusonset11	stimulusnumber12	stimulusitem12	stimulusonset12	stimulusnumber13	stimulusitem13	stimulusonset13	stimulusnumber14	stimulusitem14	stimulusonset14	stimulusnumber15	stimulusitem15	stimulusonset15	stimulusnumber16	stimulusitem16	stimulusonset16	stimulusnumber17	stimulusitem17	stimulusonset17	stimulusnumber18	stimulusitem18	stimulusonset18
120518	12:19:55	12:20:53	55187	5.0.10.0	4_exp_EVA_AMP_AWA_CON	997	Rpleas_acq	Oppo	Rpleas	Amasked	CS_A	1pleas	distractor2	acq_US_unple_masked	acq1_masked	1	1	0	0	300	300	0	0	1277	46	0	1	0	0	0	1	blank2r.bmp	0	1	+	0	2	B2r.bmp	370	1	blank2r.bmp	590	1	DHJF	590	1	blank2r.bmp	650	2	gemein	650	0	0	0	0	0	0	0	0	0	0	0	0	0	0	0	0	0	0	0	0	0	0	0	0	0	0	0	0	0	0	0	0	0
120518	12:19:55	12:20:55	57157	5.0.10.0	4_exp_EVA_AMP_AWA_CON	997	Rpleas_acq	Oppo	Rpleas	Amasked	CS_A	1pleas	distractor2	acq_new_pleas_masked	acq1_masked	1	2	0	0	300	300	0	0	705	50	0	1	0	0	0	1	blank2r.bmp	0	1	+	0	1	B1r.bmp	370	1	blank2r.bmp	590	3	B3r.bmp	590	1	blank2r.bmp	650	6	anregung	650	0	0	0	0	0	0	0	0	0	0	0	0	0	0	0	0	0	0	0	0	0	0	0	0	0	0	0	0	0	0	0	0	0
120518	12:19:55	12:20:57	59077	5.0.10.0	4_exp_EVA_AMP_AWA_CON	997	Rpleas_acq	Oppo	Rpleas	Amasked	CS_A	1pleas	distractor2	acq_new_unple_masked	acq1_masked	1	3	0	0	300	300	0	0	658	46	0	1	0	0	0	1	blank2r.bmp	0	1	+	0	4	B4r.bmp	370	1	blank2r.bmp	590	5	C1r.bmp	590	1	blank2r.bmp	650	4	töten	650	0	0	0	0	0	0	0	0	0	0	0	0	0	0	0	0	0	0	0	0	0	0	0	0	0	0	0	0	0	0	0	0	0
120518	12:19:55	12:20:59	60837	5.0.10.0	4_exp_EVA_AMP_AWA_CON	997	Rpleas_acq	Oppo	Rpleas	Amasked	CS_A	1pleas	distractor2	acq_US_pleas_masked	acq1_masked	1	4	0	0	300	300	0	0	479	50	0	1	0	0	0	1	blank2r.bmp	0	1	+	0	7	C3r.bmp	370	1	blank2r.bmp	590	1	CPLW	590	1	blank2r.bmp	650	3	kuss	650	0	0	0	0	0	0	0	0	0	0	0	0	0	0	0	0	0	0	0	0	0	0	0	0	0	0	0	0	0	0	0	0	0
120518	12:19:55	12:21:01	62747	5.0.10.0	4_exp_EVA_AMP_AWA_CON	997	Rpleas_acq	Oppo	Rpleas	Amasked	CS_A	1pleas	distractor2	acq_new_pleas_masked	acq1_masked	1	5	0	0	300	300	0	0	645	50	0	1	0	0	0	1	blank2r.bmp	0	1	+	0	5	C1r.bmp	370	1	blank2r.bmp	590	1	B1r.bmp	590	1	blank2r.bmp	650	1	sonnig	650	0	0	0	0	0	0	0	0	0	0	0	0	0	0	0	0	0	0	0	0	0	0	0	0	0	0	0	0	0	0	0	0	0
120518	12:19:55	12:21:03	64537	5.0.10.0	4_exp_EVA_AMP_AWA_CON	997	Rpleas_acq	Oppo	Rpleas	Amasked	CS_A	1pleas	distractor2	acq_US_pleas_masked	acq1_masked	1	6	0	0	300	300	0	0	511	50	0	1	0	0	0	1	blank2r.bmp	0	1	+	0	6	C2r.bmp	370	1	blank2r.bmp	590	1	CPLW	590	1	blank2r.bmp	650	1	gütig	650	0	0	0	0	0	0	0	0	0	0	0	0	0	0	0	0	0	0	0	0	0	0	0	0	0	0	0	0	0	0	0	0	0
120518	12:19:55	12:21:05	66307	5.0.10.0	4_exp_EVA_AMP_AWA_CON	997	Rpleas_acq	Oppo	Rpleas	Amasked	CS_A	1pleas	distractor2	acq_new_pleas_masked	acq1_masked	1	7	0	0	300	300	0	0	510	50	0	1	0	0	0	1	blank2r.bmp	0	1	+	0	3	B3r.bmp	370	1	blank2r.bmp	590	8	C4r.bmp	590	1	blank2r.bmp	650	5	gesittet	650	0	0	0	0	0	0	0	0	0	0	0	0	0	0	0	0	0	0	0	0	0	0	0	0	0	0	0	0	0	0	0	0	0
120518	12:19:55	12:21:06	68037	5.0.10.0	4_exp_EVA_AMP_AWA_CON	997	Rpleas_acq	Oppo	Rpleas	Amasked	CS_A	1pleas	distractor2	acq_new_unple_masked	acq1_masked	1	8	0	0	300	300	0	0	478	46	0	1	0	0	0	1	blank2r.bmp	0	1	+	0	8	C4r.bmp	370	1	blank2r.bmp	590	6	C2r.bmp	590	1	blank2r.bmp	650	1	sterben	650	0	0	0	0	0	0	0	0	0	0	0	0	0	0	0	0	0	0	0	0	0	0	0	0	0	0	0	0	0	0	0	0	0
120518	12:19:55	12:21:08	69707	5.0.10.0	4_exp_EVA_AMP_AWA_CON	997	Rpleas_acq	Oppo	Rpleas	Amasked	CS_A	1pleas	distractor2	acq_new_unple_masked	acq1_masked	1	9	0	0	300	300	0	0	403	46	0	1	0	0	0	1	blank2r.bmp	0	1	+	0	4	B4r.bmp	370	1	blank2r.bmp	590	7	C3r.bmp	590	1	blank2r.bmp	650	2	krank	650	0	0	0	0	0	0	0	0	0	0	0	0	0	0	0	0	0	0	0	0	0	0	0	0	0	0	0	0	0	0	0	0	0
120518	12:19:55	12:21:10	71397	5.0.10.0	4_exp_EVA_AMP_AWA_CON	997	Rpleas_acq	Oppo	Rpleas	Amasked	CS_A	1pleas	distractor2	acq_US_unple_masked	acq1_masked	1	10	0	0	300	300	0	0	421	46	0	1	0	0	0	1	blank2r.bmp	0	1	+	0	7	C3r.bmp	370	1	blank2r.bmp	590	1	DHJF	590	1	blank2r.bmp	650	3	krise	650	0	0	0	0	0	0	0	0	0	0	0	0	0	0	0	0	0	0	0	0	0	0	0	0	0	0	0	0	0	0	0	0	0
120518	12:19:55	12:21:11	73107	5.0.10.0	4_exp_EVA_AMP_AWA_CON	997	Rpleas_acq	Oppo	Rpleas	Amasked	CS_A	1pleas	distractor2	acq_US_pleas_masked	acq1_masked	1	11	0	0	300	300	0	0	443	50	0	1	0	0	0	1	blank2r.bmp	0	1	+	0	3	B3r.bmp	370	1	blank2r.bmp	590	1	CPLW	590	1	blank2r.bmp	650	4	vergnügt	650	0	0	0	0	0	0	0	0	0	0	0	0	0	0	0	0	0	0	0	0	0	0	0	0	0	0	0	0	0	0	0	0	0
120518	12:19:55	12:21:13	74877	5.0.10.0	4_exp_EVA_AMP_AWA_CON	997	Rpleas_acq	Oppo	Rpleas	Amasked	CS_A	1pleas	distractor2	acq_US_unple_masked	acq1_masked	1	12	0	0	300	300	0	0	509	46	0	1	0	0	0	1	blank2r.bmp	0	1	+	0	5	C1r.bmp	370	1	blank2r.bmp	590	1	DHJF	590	1	blank2r.bmp	650	1	gierig	650	0	0	0	0	0	0	0	0	0	0	0	0	0	0	0	0	0	0	0	0	0	0	0	0	0	0	0	0	0	0	0	0	0
120518	12:19:55	12:21:15	76767	5.0.10.0	4_exp_EVA_AMP_AWA_CON	997	Rpleas_acq	Oppo	Rpleas	Amasked	CS_A	1pleas	distractor2	acq_new_pleas_masked	acq1_masked	1	13	0	0	300	300	0	0	414	46	0	0	0	0	0	1	blank2r.bmp	0	1	+	0	6	C2r.bmp	370	1	blank2r.bmp	590	4	B4r.bmp	590	1	blank2r.bmp	650	4	träumen	650	1	FEHLER	1089	0	0	0	0	0	0	0	0	0	0	0	0	0	0	0	0	0	0	0	0	0	0	0	0	0	0	0	0	0	0
120518	12:19:55	12:21:17	78567	5.0.10.0	4_exp_EVA_AMP_AWA_CON	997	Rpleas_acq	Oppo	Rpleas	Amasked	CS_A	1pleas	distractor2	acq_new_unple_masked	acq1_masked	1	14	0	0	300	300	0	0	539	50	0	0	0	0	0	1	blank2r.bmp	0	1	+	0	8	C4r.bmp	370	1	blank2r.bmp	590	2	B2r.bmp	590	1	blank2r.bmp	650	5	geizig	650	1	FEHLER	1219	0	0	0	0	0	0	0	0	0	0	0	0	0	0	0	0	0	0	0	0	0	0	0	0	0	0	0	0	0	0
120518	12:19:55	12:21:18	80076	5.0.10.0	4_exp_EVA_AMP_AWA_CON	997	Rpleas_acq	Oppo	Rpleas	Amasked	CS_A	1pleas	distractor2	acq_US_pleas_masked	acq1_masked	1	15	0	0	300	300	0	0	452	50	0	1	0	0	0	1	blank2r.bmp	0	1	+	0	1	B1r.bmp	370	1	blank2r.bmp	590	1	CPLW	590	1	blank2r.bmp	650	5	engagiert	650	0	0	0	0	0	0	0	0	0	0	0	0	0	0	0	0	0	0	0	0	0	0	0	0	0	0	0	0	0	0	0	0	0
120518	12:19:55	12:21:20	81826	5.0.10.0	4_exp_EVA_AMP_AWA_CON	997	Rpleas_acq	Oppo	Rpleas	Amasked	CS_A	1pleas	distractor2	acq_new_unple_masked	acq1_masked	1	16	0	0	300	300	0	0	494	46	0	1	0	0	0	1	blank2r.bmp	0	1	+	0	2	B2r.bmp	370	1	blank2r.bmp	590	7	C3r.bmp	590	1	blank2r.bmp	650	3	bange	650	0	0	0	0	0	0	0	0	0	0	0	0	0	0	0	0	0	0	0	0	0	0	0	0	0	0	0	0	0	0	0	0	0
120518	12:19:55	12:21:22	83546	5.0.10.0	4_exp_EVA_AMP_AWA_CON	997	Rpleas_acq	Oppo	Rpleas	Amasked	CS_A	1pleas	distractor2	acq_US_pleas_masked	acq1_masked	1	17	0	0	300	300	0	0	468	50	0	1	0	0	0	1	blank2r.bmp	0	1	+	0	4	B4r.bmp	370	1	blank2r.bmp	590	1	CPLW	590	1	blank2r.bmp	650	2	genießen	650	0	0	0	0	0	0	0	0	0	0	0	0	0	0	0	0	0	0	0	0	0	0	0	0	0	0	0	0	0	0	0	0	0
120518	12:19:55	12:21:24	85516	5.0.10.0	4_exp_EVA_AMP_AWA_CON	997	Rpleas_acq	Oppo	Rpleas	Amasked	CS_A	1pleas	distractor2	acq_US_unple_masked	acq1_masked	1	18	0	0	300	300	0	0	490	50	0	0	0	0	0	1	blank2r.bmp	0	1	+	0	2	B2r.bmp	370	1	blank2r.bmp	590	1	DHJF	590	1	blank2r.bmp	650	5	engstirnig	650	1	FEHLER	1169	0	0	0	0	0	0	0	0	0	0	0	0	0	0	0	0	0	0	0	0	0	0	0	0	0	0	0	0	0	0
120518	12:19:55	12:21:25	87016	5.0.10.0	4_exp_EVA_AMP_AWA_CON	997	Rpleas_acq	Oppo	Rpleas	Amasked	CS_A	1pleas	distractor2	acq_US_unple_masked	acq1_masked	1	19	0	0	300	300	0	0	455	46	0	1	0	0	0	1	blank2r.bmp	0	1	+	0	6	C2r.bmp	370	1	blank2r.bmp	590	1	DHJF	590	1	blank2r.bmp	650	6	versagen	650	0	0	0	0	0	0	0	0	0	0	0	0	0	0	0	0	0	0	0	0	0	0	0	0	0	0	0	0	0	0	0	0	0
120518	12:19:55	12:21:27	88696	5.0.10.0	4_exp_EVA_AMP_AWA_CON	997	Rpleas_acq	Oppo	Rpleas	Amasked	CS_A	1pleas	distractor2	acq_new_pleas_masked	acq1_masked	1	20	0	0	300	300	0	0	427	50	0	1	0	0	0	1	blank2r.bmp	0	1	+	0	3	B3r.bmp	370	1	blank2r.bmp	590	8	C4r.bmp	590	1	blank2r.bmp	650	2	kreativ	650	0	0	0	0	0	0	0	0	0	0	0	0	0	0	0	0	0	0	0	0	0	0	0	0	0	0	0	0	0	0	0	0	0
120518	12:19:55	12:21:29	90436	5.0.10.0	4_exp_EVA_AMP_AWA_CON	997	Rpleas_acq	Oppo	Rpleas	Amasked	CS_A	1pleas	distractor2	acq_US_pleas_masked	acq1_masked	1	21	0	0	300	300	0	0	478	50	0	1	0	0	0	1	blank2r.bmp	0	1	+	0	7	C3r.bmp	370	1	blank2r.bmp	590	1	CPLW	590	1	blank2r.bmp	650	6	vertrauen	650	0	0	0	0	0	0	0	0	0	0	0	0	0	0	0	0	0	0	0	0	0	0	0	0	0	0	0	0	0	0	0	0	0
120518	12:19:55	12:21:31	92266	5.0.10.0	4_exp_EVA_AMP_AWA_CON	997	Rpleas_acq	Oppo	Rpleas	Amasked	CS_A	1pleas	distractor2	acq_new_unple_masked	acq1_masked	1	22	0	0	300	300	0	0	549	46	0	1	0	0	0	1	blank2r.bmp	0	1	+	0	8	C4r.bmp	370	1	blank2r.bmp	590	2	B2r.bmp	590	1	blank2r.bmp	650	6	ausrottung	650	0	0	0	0	0	0	0	0	0	0	0	0	0	0	0	0	0	0	0	0	0	0	0	0	0	0	0	0	0	0	0	0	0
120518	12:19:55	12:21:33	94416	5.0.10.0	4_exp_EVA_AMP_AWA_CON	997	Rpleas_acq	Oppo	Rpleas	Amasked	CS_A	1pleas	distractor2	acq_new_pleas_masked	acq1_masked	1	23	0	0	300	300	0	0	891	50	0	1	0	0	0	1	blank2r.bmp	0	1	+	0	5	C1r.bmp	370	1	blank2r.bmp	590	6	C2r.bmp	590	1	blank2r.bmp	650	3	besonnen	650	0	0	0	0	0	0	0	0	0	0	0	0	0	0	0	0	0	0	0	0	0	0	0	0	0	0	0	0	0	0	0	0	0
120518	12:19:55	12:21:34	96076	5.0.10.0	4_exp_EVA_AMP_AWA_CON	997	Rpleas_acq	Oppo	Rpleas	Amasked	CS_A	1pleas	distractor2	acq_US_unple_masked	acq1_masked	1	24	0	0	300	300	0	0	403	46	0	1	0	0	0	1	blank2r.bmp	0	1	+	0	1	B1r.bmp	370	1	blank2r.bmp	590	1	DHJF	590	1	blank2r.bmp	650	4	verbissen	650	0	0	0	0	0	0	0	0	0	0	0	0	0	0	0	0	0	0	0	0	0	0	0	0	0	0	0	0	0	0	0	0	0
120518	12:19:55	12:21:36	98006	5.0.10.0	4_exp_EVA_AMP_AWA_CON	997	Rpleas_acq	Oppo	Rpleas	Amasked	CS_A	1pleas	distractor2	acq_new_unple_masked	acq1_masked	1	25	0	0	300	300	0	0	449	50	0	0	0	0	0	1	blank2r.bmp	0	1	+	0	3	B3r.bmp	370	1	blank2r.bmp	590	4	B4r.bmp	590	1	blank2r.bmp	650	5	geizig	650	1	FEHLER	1129	0	0	0	0	0	0	0	0	0	0	0	0	0	0	0	0	0	0	0	0	0	0	0	0	0	0	0	0	0	0
120518	12:19:55	12:21:38	99466	5.0.10.0	4_exp_EVA_AMP_AWA_CON	997	Rpleas_acq	Oppo	Rpleas	Amasked	CS_A	1pleas	distractor2	acq_new_pleas_masked	acq1_masked	1	26	0	0	300	300	0	0	415	50	0	1	0	0	0	1	blank2r.bmp	0	1	+	0	2	B2r.bmp	370	1	blank2r.bmp	590	3	B3r.bmp	590	1	blank2r.bmp	650	4	träumen	650	0	0	0	0	0	0	0	0	0	0	0	0	0	0	0	0	0	0	0	0	0	0	0	0	0	0	0	0	0	0	0	0	0
120518	12:19:55	12:21:39	101106	5.0.10.0	4_exp_EVA_AMP_AWA_CON	997	Rpleas_acq	Oppo	Rpleas	Amasked	CS_A	1pleas	distractor2	acq_new_unple_masked	acq1_masked	1	27	0	0	300	300	0	0	386	46	0	1	0	0	0	1	blank2r.bmp	0	1	+	0	6	C2r.bmp	370	1	blank2r.bmp	590	5	C1r.bmp	590	1	blank2r.bmp	650	1	sterben	650	0	0	0	0	0	0	0	0	0	0	0	0	0	0	0	0	0	0	0	0	0	0	0	0	0	0	0	0	0	0	0	0	0
120518	12:19:55	12:21:41	102826	5.0.10.0	4_exp_EVA_AMP_AWA_CON	997	Rpleas_acq	Oppo	Rpleas	Amasked	CS_A	1pleas	distractor2	acq_US_pleas_masked	acq1_masked	1	28	0	0	300	300	0	0	466	50	0	1	0	0	0	1	blank2r.bmp	0	1	+	0	4	B4r.bmp	370	1	blank2r.bmp	590	1	CPLW	590	1	blank2r.bmp	650	2	genießen	650	0	0	0	0	0	0	0	0	0	0	0	0	0	0	0	0	0	0	0	0	0	0	0	0	0	0	0	0	0	0	0	0	0
120518	12:19:55	12:21:43	104546	5.0.10.0	4_exp_EVA_AMP_AWA_CON	997	Rpleas_acq	Oppo	Rpleas	Amasked	CS_A	1pleas	distractor2	acq_US_pleas_masked	acq1_masked	1	29	0	0	300	300	0	0	454	50	0	1	0	0	0	1	blank2r.bmp	0	1	+	0	5	C1r.bmp	370	1	blank2r.bmp	590	1	CPLW	590	1	blank2r.bmp	650	1	gütig	650	0	0	0	0	0	0	0	0	0	0	0	0	0	0	0	0	0	0	0	0	0	0	0	0	0	0	0	0	0	0	0	0	0
120518	12:19:55	12:21:44	106186	5.0.10.0	4_exp_EVA_AMP_AWA_CON	997	Rpleas_acq	Oppo	Rpleas	Amasked	CS_A	1pleas	distractor2	acq_new_pleas_masked	acq1_masked	1	30	0	0	300	300	0	0	378	50	0	1	0	0	0	1	blank2r.bmp	0	1	+	0	8	C4r.bmp	370	1	blank2r.bmp	590	1	B1r.bmp	590	1	blank2r.bmp	650	1	sonnig	650	0	0	0	0	0	0	0	0	0	0	0	0	0	0	0	0	0	0	0	0	0	0	0	0	0	0	0	0	0	0	0	0	0
120518	12:19:55	12:21:46	107926	5.0.10.0	4_exp_EVA_AMP_AWA_CON	997	Rpleas_acq	Oppo	Rpleas	Amasked	CS_A	1pleas	distractor2	acq_new_pleas_masked	acq1_masked	1	31	0	0	300	300	0	0	472	50	0	1	0	0	0	1	blank2r.bmp	0	1	+	0	7	C3r.bmp	370	1	blank2r.bmp	590	5	C1r.bmp	590	1	blank2r.bmp	650	6	anregung	650	0	0	0	0	0	0	0	0	0	0	0	0	0	0	0	0	0	0	0	0	0	0	0	0	0	0	0	0	0	0	0	0	0
120518	12:19:55	12:21:48	109596	5.0.10.0	4_exp_EVA_AMP_AWA_CON	997	Rpleas_acq	Oppo	Rpleas	Amasked	CS_A	1pleas	distractor2	acq_US_pleas_masked	acq1_masked	1	32	0	0	300	300	0	0	416	50	0	1	0	0	0	1	blank2r.bmp	0	1	+	0	1	B1r.bmp	370	1	blank2r.bmp	590	1	CPLW	590	1	blank2r.bmp	650	4	vergnügt	650	0	0	0	0	0	0	0	0	0	0	0	0	0	0	0	0	0	0	0	0	0	0	0	0	0	0	0	0	0	0	0	0	0
120518	12:19:55	12:21:50	111395	5.0.10.0	4_exp_EVA_AMP_AWA_CON	997	Rpleas_acq	Oppo	Rpleas	Amasked	CS_A	1pleas	distractor2	acq_new_unple_masked	acq1_masked	1	33	0	0	300	300	0	0	532	46	0	1	0	0	0	1	blank2r.bmp	0	1	+	0	5	C1r.bmp	370	1	blank2r.bmp	590	3	B3r.bmp	590	1	blank2r.bmp	650	2	krank	650	0	0	0	0	0	0	0	0	0	0	0	0	0	0	0	0	0	0	0	0	0	0	0	0	0	0	0	0	0	0	0	0	0
120518	12:19:55	12:21:52	113295	5.0.10.0	4_exp_EVA_AMP_AWA_CON	997	Rpleas_acq	Oppo	Rpleas	Amasked	CS_A	1pleas	distractor2	acq_US_unple_masked	acq1_masked	1	34	0	0	300	300	0	0	428	50	0	0	0	0	0	1	blank2r.bmp	0	1	+	0	4	B4r.bmp	370	1	blank2r.bmp	590	1	DHJF	590	1	blank2r.bmp	650	3	krise	650	1	FEHLER	1099	0	0	0	0	0	0	0	0	0	0	0	0	0	0	0	0	0	0	0	0	0	0	0	0	0	0	0	0	0	0
120518	12:19:55	12:21:53	114755	5.0.10.0	4_exp_EVA_AMP_AWA_CON	997	Rpleas_acq	Oppo	Rpleas	Amasked	CS_A	1pleas	distractor2	acq_US_unple_masked	acq1_masked	1	35	0	0	300	300	0	0	393	46	0	1	0	0	0	1	blank2r.bmp	0	1	+	0	1	B1r.bmp	370	1	blank2r.bmp	590	1	DHJF	590	1	blank2r.bmp	650	4	verbissen	650	0	0	0	0	0	0	0	0	0	0	0	0	0	0	0	0	0	0	0	0	0	0	0	0	0	0	0	0	0	0	0	0	0
120518	12:19:55	12:21:55	116525	5.0.10.0	4_exp_EVA_AMP_AWA_CON	997	Rpleas_acq	Oppo	Rpleas	Amasked	CS_A	1pleas	distractor2	acq_US_unple_masked	acq1_masked	1	36	0	0	300	300	0	0	517	46	0	1	0	0	0	1	blank2r.bmp	0	1	+	0	6	C2r.bmp	370	1	blank2r.bmp	590	1	DHJF	590	1	blank2r.bmp	650	2	gemein	650	0	0	0	0	0	0	0	0	0	0	0	0	0	0	0	0	0	0	0	0	0	0	0	0	0	0	0	0	0	0	0	0	0
120518	12:19:55	12:22:22	143644	5.0.10.0	4_exp_EVA_AMP_AWA_CON	997	Rpleas_acq	Oppo	Rpleas	Amasked	CS_A	1pleas	distractor2	acq_new_pleas_masked	acq2_masked	2	1	480	1	300	300	0	0	502	50	0	1	0	0	0	1	blank2r.bmp	0	1	+	0	8	C4r.bmp	370	1	blank2r.bmp	590	2	B2r.bmp	590	1	blank2r.bmp	650	3	besonnen	650	1	!	1089	1	!	1179	0	0	0	0	0	0	0	0	0	0	0	0	0	0	0	0	0	0	0	0	0	0	0	0	0	0	0
120518	12:19:55	12:22:24	145554	5.0.10.0	4_exp_EVA_AMP_AWA_CON	997	Rpleas_acq	Oppo	Rpleas	Amasked	CS_A	1pleas	distractor2	acq_new_unple_masked	acq2_masked	2	2	480	0	300	300	0	0	356	46	0	1	0	0	0	1	blank2r.bmp	0	1	+	0	2	B2r.bmp	370	1	blank2r.bmp	590	6	C2r.bmp	590	1	blank2r.bmp	650	4	töten	650	1	!	-1	1	!	-1	0	0	0	0	0	0	0	0	0	0	0	0	0	0	0	0	0	0	0	0	0	0	0	0	0	0	0
120518	12:19:55	12:22:26	147604	5.0.10.0	4_exp_EVA_AMP_AWA_CON	997	Rpleas_acq	Oppo	Rpleas	Amasked	CS_A	1pleas	distractor2	acq_US_unple_masked	acq2_masked	2	3	480	1	300	300	0	0	486	46	0	1	0	0	0	1	blank2r.bmp	0	1	+	0	3	B3r.bmp	370	1	blank2r.bmp	590	1	DHJF	590	1	blank2r.bmp	650	5	engstirnig	650	1	!	1089	1	!	1159	0	0	0	0	0	0	0	0	0	0	0	0	0	0	0	0	0	0	0	0	0	0	0	0	0	0	0
120518	12:19:55	12:22:28	149864	5.0.10.0	4_exp_EVA_AMP_AWA_CON	997	Rpleas_acq	Oppo	Rpleas	Amasked	CS_A	1pleas	distractor2	acq_new_unple_masked	acq2_masked	2	4	480	0	300	300	0	0	698	46	0	1	0	0	0	1	blank2r.bmp	0	1	+	0	7	C3r.bmp	370	1	blank2r.bmp	590	8	C4r.bmp	590	1	blank2r.bmp	650	6	ausrottung	650	1	!	1089	1	!	-1	0	0	0	0	0	0	0	0	0	0	0	0	0	0	0	0	0	0	0	0	0	0	0	0	0	0	0
120518	12:19:55	12:22:30	152044	5.0.10.0	4_exp_EVA_AMP_AWA_CON	997	Rpleas_acq	Oppo	Rpleas	Amasked	CS_A	1pleas	distractor2	acq_new_unple_masked	acq2_masked	2	5	480	0	300	300	0	0	609	46	0	1	0	0	0	1	blank2r.bmp	0	1	+	0	1	B1r.bmp	370	1	blank2r.bmp	590	4	B4r.bmp	590	1	blank2r.bmp	650	3	bange	650	1	!	1089	1	!	-1	0	0	0	0	0	0	0	0	0	0	0	0	0	0	0	0	0	0	0	0	0	0	0	0	0	0	0
120518	12:19:55	12:22:32	154204	5.0.10.0	4_exp_EVA_AMP_AWA_CON	997	Rpleas_acq	Oppo	Rpleas	Amasked	CS_A	1pleas	distractor2	acq_US_pleas_masked	acq2_masked	2	6	480	0	300	300	0	0	393	46	0	0	0	0	0	1	blank2r.bmp	0	1	+	0	7	C3r.bmp	370	1	blank2r.bmp	590	1	CPLW	590	1	blank2r.bmp	650	3	kuss	650	1	FEHLER	1369	1	!	-1	1	!	-1	0	0	0	0	0	0	0	0	0	0	0	0	0	0	0	0	0	0	0	0	0	0	0	0
120518	12:19:55	12:22:34	155954	5.0.10.0	4_exp_EVA_AMP_AWA_CON	997	Rpleas_acq	Oppo	Rpleas	Amasked	CS_A	1pleas	distractor2	acq_new_pleas_masked	acq2_masked	2	7	480	0	300	300	0	0	405	50	0	1	0	0	0	1	blank2r.bmp	0	1	+	0	3	B3r.bmp	370	1	blank2r.bmp	590	1	B1r.bmp	590	1	blank2r.bmp	650	2	kreativ	650	1	!	-1	1	!	-1	0	0	0	0	0	0	0	0	0	0	0	0	0	0	0	0	0	0	0	0	0	0	0	0	0	0	0
120518	12:19:55	12:22:36	158104	5.0.10.0	4_exp_EVA_AMP_AWA_CON	997	Rpleas_acq	Oppo	Rpleas	Amasked	CS_A	1pleas	distractor2	acq_US_unple_masked	acq2_masked	2	8	480	0	300	300	0	0	591	46	0	1	0	0	0	1	blank2r.bmp	0	1	+	0	6	C2r.bmp	370	1	blank2r.bmp	590	1	DHJF	590	1	blank2r.bmp	650	6	versagen	650	1	!	1089	1	!	-1	0	0	0	0	0	0	0	0	0	0	0	0	0	0	0	0	0	0	0	0	0	0	0	0	0	0	0
120518	12:19:55	12:22:38	160104	5.0.10.0	4_exp_EVA_AMP_AWA_CON	997	Rpleas_acq	Oppo	Rpleas	Amasked	CS_A	1pleas	distractor2	acq_new_pleas_masked	acq2_masked	2	9	480	1	300	300	0	0	424	50	0	1	0	0	0	1	blank2r.bmp	0	1	+	0	2	B2r.bmp	370	1	blank2r.bmp	590	7	C3r.bmp	590	1	blank2r.bmp	650	5	gesittet	650	1	!	1089	1	!	1099	0	0	0	0	0	0	0	0	0	0	0	0	0	0	0	0	0	0	0	0	0	0	0	0	0	0	0
120518	12:19:55	12:22:41	162344	5.0.10.0	4_exp_EVA_AMP_AWA_CON	997	Rpleas_acq	Oppo	Rpleas	Amasked	CS_A	1pleas	distractor2	acq_US_pleas_masked	acq2_masked	2	10	480	0	300	300	0	0	688	50	0	1	0	0	0	1	blank2r.bmp	0	1	+	0	5	C1r.bmp	370	1	blank2r.bmp	590	1	CPLW	590	1	blank2r.bmp	650	5	engagiert	650	1	!	1089	1	!	-1	0	0	0	0	0	0	0	0	0	0	0	0	0	0	0	0	0	0	0	0	0	0	0	0	0	0	0
120518	12:19:55	12:22:43	164244	5.0.10.0	4_exp_EVA_AMP_AWA_CON	997	Rpleas_acq	Oppo	Rpleas	Amasked	CS_A	1pleas	distractor2	acq_US_unple_masked	acq2_masked	2	11	480	0	300	300	0	0	331	46	0	1	0	0	0	1	blank2r.bmp	0	1	+	0	8	C4r.bmp	370	1	blank2r.bmp	590	1	DHJF	590	1	blank2r.bmp	650	1	gierig	650	1	!	-1	1	!	-1	0	0	0	0	0	0	0	0	0	0	0	0	0	0	0	0	0	0	0	0	0	0	0	0	0	0	0
120518	12:19:55	12:22:45	166444	5.0.10.0	4_exp_EVA_AMP_AWA_CON	997	Rpleas_acq	Oppo	Rpleas	Amasked	CS_A	1pleas	distractor2	acq_US_pleas_masked	acq2_masked	2	12	480	0	300	300	0	0	640	50	0	1	0	0	0	1	blank2r.bmp	0	1	+	0	4	B4r.bmp	370	1	blank2r.bmp	590	1	CPLW	590	1	blank2r.bmp	650	6	vertrauen	650	1	!	1089	1	!	-1	0	0	0	0	0	0	0	0	0	0	0	0	0	0	0	0	0	0	0	0	0	0	0	0	0	0	0
120518	12:19:55	12:22:47	168554	5.0.10.0	4_exp_EVA_AMP_AWA_CON	997	Rpleas_acq	Oppo	Rpleas	Amasked	CS_A	1pleas	distractor2	acq_US_unple_masked	acq2_masked	2	13	480	1	300	300	0	0	541	46	0	1	0	0	0	1	blank2r.bmp	0	1	+	0	6	C2r.bmp	370	1	blank2r.bmp	590	1	DHJF	590	1	blank2r.bmp	650	5	engstirnig	650	1	!	1089	1	!	1219	0	0	0	0	0	0	0	0	0	0	0	0	0	0	0	0	0	0	0	0	0	0	0	0	0	0	0
120518	12:19:55	12:22:49	170604	5.0.10.0	4_exp_EVA_AMP_AWA_CON	997	Rpleas_acq	Oppo	Rpleas	Amasked	CS_A	1pleas	distractor2	acq_US_unple_masked	acq2_masked	2	14	480	1	300	300	0	0	476	46	0	1	0	0	0	1	blank2r.bmp	0	1	+	0	8	C4r.bmp	370	1	blank2r.bmp	590	1	DHJF	590	1	blank2r.bmp	650	4	verbissen	650	1	!	1089	1	!	1149	0	0	0	0	0	0	0	0	0	0	0	0	0	0	0	0	0	0	0	0	0	0	0	0	0	0	0
120518	12:19:55	12:22:51	172553	5.0.10.0	4_exp_EVA_AMP_AWA_CON	997	Rpleas_acq	Oppo	Rpleas	Amasked	CS_A	1pleas	distractor2	acq_US_pleas_masked	acq2_masked	2	15	480	0	300	300	0	0	390	50	0	1	0	0	0	1	blank2r.bmp	0	1	+	0	7	C3r.bmp	370	1	blank2r.bmp	590	1	CPLW	590	1	blank2r.bmp	650	4	vergnügt	650	1	!	-1	1	!	-1	0	0	0	0	0	0	0	0	0	0	0	0	0	0	0	0	0	0	0	0	0	0	0	0	0	0	0
120518	12:19:55	12:22:53	174693	5.0.10.0	4_exp_EVA_AMP_AWA_CON	997	Rpleas_acq	Oppo	Rpleas	Amasked	CS_A	1pleas	distractor2	acq_US_pleas_masked	acq2_masked	2	16	480	0	300	300	0	0	580	50	0	1	0	0	0	1	blank2r.bmp	0	1	+	0	1	B1r.bmp	370	1	blank2r.bmp	590	1	CPLW	590	1	blank2r.bmp	650	5	engagiert	650	1	!	1089	1	!	-1	0	0	0	0	0	0	0	0	0	0	0	0	0	0	0	0	0	0	0	0	0	0	0	0	0	0	0
120518	12:19:55	12:22:55	176683	5.0.10.0	4_exp_EVA_AMP_AWA_CON	997	Rpleas_acq	Oppo	Rpleas	Amasked	CS_A	1pleas	distractor2	acq_new_unple_masked	acq2_masked	2	17	480	1	300	300	0	0	420	46	0	1	0	0	0	1	blank2r.bmp	0	1	+	0	2	B2r.bmp	370	1	blank2r.bmp	590	7	C3r.bmp	590	1	blank2r.bmp	650	2	krank	650	1	!	1089	1	!	1099	0	0	0	0	0	0	0	0	0	0	0	0	0	0	0	0	0	0	0	0	0	0	0	0	0	0	0
120518	12:19:55	12:22:57	178813	5.0.10.0	4_exp_EVA_AMP_AWA_CON	997	Rpleas_acq	Oppo	Rpleas	Amasked	CS_A	1pleas	distractor2	acq_US_unple_masked	acq2_masked	2	18	480	0	300	300	0	0	560	46	0	1	0	0	0	1	blank2r.bmp	0	1	+	0	4	B4r.bmp	370	1	blank2r.bmp	590	1	DHJF	590	1	blank2r.bmp	650	6	versagen	650	1	!	1089	1	!	-1	0	0	0	0	0	0	0	0	0	0	0	0	0	0	0	0	0	0	0	0	0	0	0	0	0	0	0
120518	12:19:55	12:22:59	180733	5.0.10.0	4_exp_EVA_AMP_AWA_CON	997	Rpleas_acq	Oppo	Rpleas	Amasked	CS_A	1pleas	distractor2	acq_new_pleas_masked	acq2_masked	2	19	480	0	300	300	0	0	360	50	0	1	0	0	0	1	blank2r.bmp	0	1	+	0	3	B3r.bmp	370	1	blank2r.bmp	590	1	B1r.bmp	590	1	blank2r.bmp	650	1	sonnig	650	1	!	-1	1	!	-1	0	0	0	0	0	0	0	0	0	0	0	0	0	0	0	0	0	0	0	0	0	0	0	0	0	0	0
120518	12:19:55	12:23:01	182923	5.0.10.0	4_exp_EVA_AMP_AWA_CON	997	Rpleas_acq	Oppo	Rpleas	Amasked	CS_A	1pleas	distractor2	acq_US_pleas_masked	acq2_masked	2	20	480	0	300	300	0	0	631	50	0	1	0	0	0	1	blank2r.bmp	0	1	+	0	5	C1r.bmp	370	1	blank2r.bmp	590	1	CPLW	590	1	blank2r.bmp	650	2	genießen	650	1	!	1089	1	!	-1	0	0	0	0	0	0	0	0	0	0	0	0	0	0	0	0	0	0	0	0	0	0	0	0	0	0	0
120518	12:19:55	12:23:03	185073	5.0.10.0	4_exp_EVA_AMP_AWA_CON	997	Rpleas_acq	Oppo	Rpleas	Amasked	CS_A	1pleas	distractor2	acq_new_unple_masked	acq2_masked	2	21	480	0	300	300	0	0	587	46	0	1	0	0	0	1	blank2r.bmp	0	1	+	0	3	B3r.bmp	370	1	blank2r.bmp	590	4	B4r.bmp	590	1	blank2r.bmp	650	6	ausrottung	650	1	!	1089	1	!	-1	0	0	0	0	0	0	0	0	0	0	0	0	0	0	0	0	0	0	0	0	0	0	0	0	0	0	0
120518	12:19:55	12:23:05	187203	5.0.10.0	4_exp_EVA_AMP_AWA_CON	997	Rpleas_acq	Oppo	Rpleas	Amasked	CS_A	1pleas	distractor2	acq_new_unple_masked	acq2_masked	2	22	480	1	300	300	0	0	550	46	0	1	0	0	0	1	blank2r.bmp	0	1	+	0	5	C1r.bmp	370	1	blank2r.bmp	590	6	C2r.bmp	590	1	blank2r.bmp	650	5	geizig	650	1	!	1089	1	!	1229	0	0	0	0	0	0	0	0	0	0	0	0	0	0	0	0	0	0	0	0	0	0	0	0	0	0	0
120518	12:19:55	12:23:08	189333	5.0.10.0	4_exp_EVA_AMP_AWA_CON	997	Rpleas_acq	Oppo	Rpleas	Amasked	CS_A	1pleas	distractor2	acq_new_pleas_masked	acq2_masked	2	23	480	0	300	300	0	0	578	50	0	1	0	0	0	1	blank2r.bmp	0	1	+	0	2	B2r.bmp	370	1	blank2r.bmp	590	8	C4r.bmp	590	1	blank2r.bmp	650	4	träumen	650	1	!	1089	1	!	-1	0	0	0	0	0	0	0	0	0	0	0	0	0	0	0	0	0	0	0	0	0	0	0	0	0	0	0
120518	12:19:55	12:23:10	191373	5.0.10.0	4_exp_EVA_AMP_AWA_CON	997	Rpleas_acq	Oppo	Rpleas	Amasked	CS_A	1pleas	distractor2	acq_new_pleas_masked	acq2_masked	2	24	480	1	300	300	0	0	459	50	0	1	0	0	0	1	blank2r.bmp	0	1	+	0	8	C4r.bmp	370	1	blank2r.bmp	590	5	C1r.bmp	590	1	blank2r.bmp	650	5	gesittet	650	1	!	1089	1	!	1139	0	0	0	0	0	0	0	0	0	0	0	0	0	0	0	0	0	0	0	0	0	0	0	0	0	0	0
120518	12:19:55	12:23:12	193503	5.0.10.0	4_exp_EVA_AMP_AWA_CON	997	Rpleas_acq	Oppo	Rpleas	Amasked	CS_A	1pleas	distractor2	acq_US_pleas_masked	acq2_masked	2	25	480	0	300	300	0	0	578	50	0	1	0	0	0	1	blank2r.bmp	0	1	+	0	7	C3r.bmp	370	1	blank2r.bmp	590	1	CPLW	590	1	blank2r.bmp	650	1	gütig	650	1	!	1089	1	!	-1	0	0	0	0	0	0	0	0	0	0	0	0	0	0	0	0	0	0	0	0	0	0	0	0	0	0	0
120518	12:19:55	12:23:14	195533	5.0.10.0	4_exp_EVA_AMP_AWA_CON	997	Rpleas_acq	Oppo	Rpleas	Amasked	CS_A	1pleas	distractor2	acq_new_pleas_masked	acq2_masked	2	26	480	1	300	300	0	0	462	50	0	1	0	0	0	1	blank2r.bmp	0	1	+	0	1	B1r.bmp	370	1	blank2r.bmp	590	2	B2r.bmp	590	1	blank2r.bmp	650	2	kreativ	650	1	!	1089	1	!	1139	0	0	0	0	0	0	0	0	0	0	0	0	0	0	0	0	0	0	0	0	0	0	0	0	0	0	0
120518	12:19:55	12:23:16	197433	5.0.10.0	4_exp_EVA_AMP_AWA_CON	997	Rpleas_acq	Oppo	Rpleas	Amasked	CS_A	1pleas	distractor2	acq_US_pleas_masked	acq2_masked	2	27	480	0	300	300	0	0	339	50	0	1	0	0	0	1	blank2r.bmp	0	1	+	0	6	C2r.bmp	370	1	blank2r.bmp	590	1	CPLW	590	1	blank2r.bmp	650	6	vertrauen	650	1	!	-1	1	!	-1	0	0	0	0	0	0	0	0	0	0	0	0	0	0	0	0	0	0	0	0	0	0	0	0	0	0	0
120518	12:19:55	12:23:18	199643	5.0.10.0	4_exp_EVA_AMP_AWA_CON	997	Rpleas_acq	Oppo	Rpleas	Amasked	CS_A	1pleas	distractor2	acq_US_unple_masked	acq2_masked	2	28	480	0	300	300	0	0	652	46	0	1	0	0	0	1	blank2r.bmp	0	1	+	0	4	B4r.bmp	370	1	blank2r.bmp	590	1	DHJF	590	1	blank2r.bmp	650	1	gierig	650	1	!	1089	1	!	-1	0	0	0	0	0	0	0	0	0	0	0	0	0	0	0	0	0	0	0	0	0	0	0	0	0	0	0
120518	12:19:55	12:23:20	201642	5.0.10.0	4_exp_EVA_AMP_AWA_CON	997	Rpleas_acq	Oppo	Rpleas	Amasked	CS_A	1pleas	distractor2	acq_new_pleas_masked	acq2_masked	2	29	480	1	300	300	0	0	420	50	0	1	0	0	0	1	blank2r.bmp	0	1	+	0	5	C1r.bmp	370	1	blank2r.bmp	590	3	B3r.bmp	590	1	blank2r.bmp	650	3	besonnen	650	1	!	1089	1	!	1099	0	0	0	0	0	0	0	0	0	0	0	0	0	0	0	0	0	0	0	0	0	0	0	0	0	0	0
120518	12:19:55	12:23:22	203662	5.0.10.0	4_exp_EVA_AMP_AWA_CON	997	Rpleas_acq	Oppo	Rpleas	Amasked	CS_A	1pleas	distractor2	acq_US_unple_masked	acq2_masked	2	30	480	1	300	300	0	0	440	46	0	1	0	0	0	1	blank2r.bmp	0	1	+	0	3	B3r.bmp	370	1	blank2r.bmp	590	1	DHJF	590	1	blank2r.bmp	650	2	gemein	650	1	!	1089	1	!	1119	0	0	0	0	0	0	0	0	0	0	0	0	0	0	0	0	0	0	0	0	0	0	0	0	0	0	0
120518	12:19:55	12:23:24	205812	5.0.10.0	4_exp_EVA_AMP_AWA_CON	997	Rpleas_acq	Oppo	Rpleas	Amasked	CS_A	1pleas	distractor2	acq_new_unple_masked	acq2_masked	2	31	480	0	300	300	0	0	598	46	0	1	0	0	0	1	blank2r.bmp	0	1	+	0	4	B4r.bmp	370	1	blank2r.bmp	590	8	C4r.bmp	590	1	blank2r.bmp	650	3	bange	650	1	!	1089	1	!	-1	0	0	0	0	0	0	0	0	0	0	0	0	0	0	0	0	0	0	0	0	0	0	0	0	0	0	0
120518	12:19:55	12:23:26	207842	5.0.10.0	4_exp_EVA_AMP_AWA_CON	997	Rpleas_acq	Oppo	Rpleas	Amasked	CS_A	1pleas	distractor2	acq_new_pleas_masked	acq2_masked	2	32	480	1	300	300	0	0	462	50	0	1	0	0	0	1	blank2r.bmp	0	1	+	0	2	B2r.bmp	370	1	blank2r.bmp	590	5	C1r.bmp	590	1	blank2r.bmp	650	6	anregung	650	1	!	1089	1	!	1139	0	0	0	0	0	0	0	0	0	0	0	0	0	0	0	0	0	0	0	0	0	0	0	0	0	0	0
120518	12:19:55	12:23:28	209802	5.0.10.0	4_exp_EVA_AMP_AWA_CON	997	Rpleas_acq	Oppo	Rpleas	Amasked	CS_A	1pleas	distractor2	acq_new_unple_masked	acq2_masked	2	33	480	0	300	300	0	0	403	46	0	1	0	0	0	1	blank2r.bmp	0	1	+	0	1	B1r.bmp	370	1	blank2r.bmp	590	6	C2r.bmp	590	1	blank2r.bmp	650	1	sterben	650	1	!	-1	1	!	-1	0	0	0	0	0	0	0	0	0	0	0	0	0	0	0	0	0	0	0	0	0	0	0	0	0	0	0
120518	12:19:55	12:23:30	211972	5.0.10.0	4_exp_EVA_AMP_AWA_CON	997	Rpleas_acq	Oppo	Rpleas	Amasked	CS_A	1pleas	distractor2	acq_US_pleas_masked	acq2_masked	2	34	480	0	300	300	0	0	608	50	0	1	0	0	0	1	blank2r.bmp	0	1	+	0	7	C3r.bmp	370	1	blank2r.bmp	590	1	CPLW	590	1	blank2r.bmp	650	3	kuss	650	1	!	1089	1	!	-1	0	0	0	0	0	0	0	0	0	0	0	0	0	0	0	0	0	0	0	0	0	0	0	0	0	0	0
120518	12:19:55	12:23:32	214092	5.0.10.0	4_exp_EVA_AMP_AWA_CON	997	Rpleas_acq	Oppo	Rpleas	Amasked	CS_A	1pleas	distractor2	acq_new_unple_masked	acq2_masked	2	35	480	0	300	300	0	0	564	46	0	1	0	0	0	1	blank2r.bmp	0	1	+	0	8	C4r.bmp	370	1	blank2r.bmp	590	7	C3r.bmp	590	1	blank2r.bmp	650	4	töten	650	1	!	1089	1	!	-1	0	0	0	0	0	0	0	0	0	0	0	0	0	0	0	0	0	0	0	0	0	0	0	0	0	0	0
120518	12:19:55	12:23:34	216162	5.0.10.0	4_exp_EVA_AMP_AWA_CON	997	Rpleas_acq	Oppo	Rpleas	Amasked	CS_A	1pleas	distractor2	acq_US_unple_masked	acq2_masked	2	36	480	1	300	300	0	0	496	46	0	1	0	0	0	1	blank2r.bmp	0	1	+	0	6	C2r.bmp	370	1	blank2r.bmp	590	1	DHJF	590	1	blank2r.bmp	650	3	krise	650	1	!	1089	1	!	1169	0	0	0	0	0	0	0	0	0	0	0	0	0	0	0	0	0	0	0	0	0	0	0	0	0	0	0
120518	12:19:55	12:23:44	225822	5.0.10.0	4_exp_EVA_AMP_AWA_CON	997	Rpleas_acq	Oppo	Rpleas	Amasked	CS_A	1pleas	distractor2	acq_US_unple_masked	acq3_masked	3	1	453	1	300	300	0	0	471	46	0	1	0	0	0	1	blank2r.bmp	0	1	+	0	8	C4r.bmp	370	1	blank2r.bmp	590	1	DHJF	590	1	blank2r.bmp	650	4	verbissen	650	1	!	1069	1	!	1149	0	0	0	0	0	0	0	0	0	0	0	0	0	0	0	0	0	0	0	0	0	0	0	0	0	0	0
120518	12:19:55	12:23:46	227812	5.0.10.0	4_exp_EVA_AMP_AWA_CON	997	Rpleas_acq	Oppo	Rpleas	Amasked	CS_A	1pleas	distractor2	acq_US_unple_masked	acq3_masked	3	2	453	1	300	300	0	0	415	46	0	1	0	0	0	1	blank2r.bmp	0	1	+	0	4	B4r.bmp	370	1	blank2r.bmp	590	1	DHJF	590	1	blank2r.bmp	650	3	krise	650	1	!	1069	1	!	1089	0	0	0	0	0	0	0	0	0	0	0	0	0	0	0	0	0	0	0	0	0	0	0	0	0	0	0
120518	12:19:55	12:23:48	230182	5.0.10.0	4_exp_EVA_AMP_AWA_CON	997	Rpleas_acq	Oppo	Rpleas	Amasked	CS_A	1pleas	distractor2	acq_US_unple_masked	acq3_masked	3	3	453	0	300	300	0	0	615	50	0	0	0	0	0	1	blank2r.bmp	0	1	+	0	7	C3r.bmp	370	1	blank2r.bmp	590	1	DHJF	590	1	blank2r.bmp	650	2	gemein	650	1	FEHLER	1589	1	!	1069	1	!	-1	0	0	0	0	0	0	0	0	0	0	0	0	0	0	0	0	0	0	0	0	0	0	0	0
120518	12:19:55	12:23:51	232271	5.0.10.0	4_exp_EVA_AMP_AWA_CON	997	Rpleas_acq	Oppo	Rpleas	Amasked	CS_A	1pleas	distractor2	acq_US_unple_masked	acq3_masked	3	4	453	0	300	300	0	0	732	46	0	1	0	0	0	1	blank2r.bmp	0	1	+	0	3	B3r.bmp	370	1	blank2r.bmp	590	1	DHJF	590	1	blank2r.bmp	650	1	gierig	650	1	!	1069	1	!	-1	0	0	0	0	0	0	0	0	0	0	0	0	0	0	0	0	0	0	0	0	0	0	0	0	0	0	0
120518	12:19:55	12:23:53	234241	5.0.10.0	4_exp_EVA_AMP_AWA_CON	997	Rpleas_acq	Oppo	Rpleas	Amasked	CS_A	1pleas	distractor2	acq_US_pleas_masked	acq3_masked	3	5	453	1	300	300	0	0	401	50	0	1	0	0	0	1	blank2r.bmp	0	1	+	0	5	C1r.bmp	370	1	blank2r.bmp	590	1	CPLW	590	1	blank2r.bmp	650	3	kuss	650	1	!	1069	1	!	1079	0	0	0	0	0	0	0	0	0	0	0	0	0	0	0	0	0	0	0	0	0	0	0	0	0	0	0
120518	12:19:55	12:23:55	236331	5.0.10.0	4_exp_EVA_AMP_AWA_CON	997	Rpleas_acq	Oppo	Rpleas	Amasked	CS_A	1pleas	distractor2	acq_US_pleas_masked	acq3_masked	3	6	453	0	300	300	0	0	530	50	0	1	0	0	0	1	blank2r.bmp	0	1	+	0	2	B2r.bmp	370	1	blank2r.bmp	590	1	CPLW	590	1	blank2r.bmp	650	1	gütig	650	1	!	1069	1	!	-1	0	0	0	0	0	0	0	0	0	0	0	0	0	0	0	0	0	0	0	0	0	0	0	0	0	0	0
120518	12:19:55	12:23:57	238451	5.0.10.0	4_exp_EVA_AMP_AWA_CON	997	Rpleas_acq	Oppo	Rpleas	Amasked	CS_A	1pleas	distractor2	acq_US_pleas_masked	acq3_masked	3	7	453	0	300	300	0	0	567	50	0	1	0	0	0	1	blank2r.bmp	0	1	+	0	1	B1r.bmp	370	1	blank2r.bmp	590	1	CPLW	590	1	blank2r.bmp	650	5	engagiert	650	1	!	1069	1	!	-1	0	0	0	0	0	0	0	0	0	0	0	0	0	0	0	0	0	0	0	0	0	0	0	0	0	0	0
120518	12:19:55	12:23:59	240541	5.0.10.0	4_exp_EVA_AMP_AWA_CON	997	Rpleas_acq	Oppo	Rpleas	Amasked	CS_A	1pleas	distractor2	acq_US_pleas_masked	acq3_masked	3	8	453	1	300	300	0	0	519	50	0	1	0	0	0	1	blank2r.bmp	0	1	+	0	6	C2r.bmp	370	1	blank2r.bmp	590	1	CPLW	590	1	blank2r.bmp	650	6	vertrauen	650	1	!	1069	1	!	1199	0	0	0	0	0	0	0	0	0	0	0	0	0	0	0	0	0	0	0	0	0	0	0	0	0	0	0
120518	12:19:55	12:24:01	242761	5.0.10.0	4_exp_EVA_AMP_AWA_CON	997	Rpleas_acq	Oppo	Rpleas	Amasked	CS_A	1pleas	distractor2	acq_US_unple_masked	acq3_masked	3	9	453	0	300	300	0	0	659	46	0	1	0	0	0	1	blank2r.bmp	0	1	+	0	2	B2r.bmp	370	1	blank2r.bmp	590	1	DHJF	590	1	blank2r.bmp	650	5	engstirnig	650	1	!	1069	1	!	-1	0	0	0	0	0	0	0	0	0	0	0	0	0	0	0	0	0	0	0	0	0	0	0	0	0	0	0
120518	12:19:55	12:24:03	244881	5.0.10.0	4_exp_EVA_AMP_AWA_CON	997	Rpleas_acq	Oppo	Rpleas	Amasked	CS_A	1pleas	distractor2	acq_US_unple_masked	acq3_masked	3	10	453	0	300	300	0	0	554	46	0	1	0	0	0	1	blank2r.bmp	0	1	+	0	8	C4r.bmp	370	1	blank2r.bmp	590	1	DHJF	590	1	blank2r.bmp	650	6	versagen	650	1	!	1069	1	!	-1	0	0	0	0	0	0	0	0	0	0	0	0	0	0	0	0	0	0	0	0	0	0	0	0	0	0	0
120518	12:19:55	12:24:05	246931	5.0.10.0	4_exp_EVA_AMP_AWA_CON	997	Rpleas_acq	Oppo	Rpleas	Amasked	CS_A	1pleas	distractor2	acq_US_pleas_masked	acq3_masked	3	11	453	0	300	300	0	0	275	46	0	0	0	0	0	1	blank2r.bmp	0	1	+	0	7	C3r.bmp	370	1	blank2r.bmp	590	1	CPLW	590	1	blank2r.bmp	650	4	vergnügt	650	1	FEHLER	1249	1	!	-1	1	!	-1	0	0	0	0	0	0	0	0	0	0	0	0	0	0	0	0	0	0	0	0	0	0	0	0
120518	12:19:55	12:24:07	248621	5.0.10.0	4_exp_EVA_AMP_AWA_CON	997	Rpleas_acq	Oppo	Rpleas	Amasked	CS_A	1pleas	distractor2	acq_US_pleas_masked	acq3_masked	3	12	453	0	300	300	0	0	345	50	0	1	0	0	0	1	blank2r.bmp	0	1	+	0	1	B1r.bmp	370	1	blank2r.bmp	590	1	CPLW	590	1	blank2r.bmp	650	2	genießen	650	1	!	-1	1	!	-1	0	0	0	0	0	0	0	0	0	0	0	0	0	0	0	0	0	0	0	0	0	0	0	0	0	0	0
120518	12:19:55	12:24:09	250731	5.0.10.0	4_exp_EVA_AMP_AWA_CON	997	Rpleas_acq	Oppo	Rpleas	Amasked	CS_A	1pleas	distractor2	acq_US_pleas_masked	acq3_masked	3	13	453	0	300	300	0	0	551	50	0	1	0	0	0	1	blank2r.bmp	0	1	+	0	3	B3r.bmp	370	1	blank2r.bmp	590	1	CPLW	590	1	blank2r.bmp	650	4	vergnügt	650	1	!	1069	1	!	-1	0	0	0	0	0	0	0	0	0	0	0	0	0	0	0	0	0	0	0	0	0	0	0	0	0	0	0
120518	12:19:55	12:24:11	252821	5.0.10.0	4_exp_EVA_AMP_AWA_CON	997	Rpleas_acq	Oppo	Rpleas	Amasked	CS_A	1pleas	distractor2	acq_US_unple_masked	acq3_masked	3	14	453	0	300	300	0	0	314	50	0	0	0	0	0	1	blank2r.bmp	0	1	+	0	6	C2r.bmp	370	1	blank2r.bmp	590	1	DHJF	590	1	blank2r.bmp	650	6	versagen	650	1	FEHLER	1289	1	!	-1	1	!	-1	0	0	0	0	0	0	0	0	0	0	0	0	0	0	0	0	0	0	0	0	0	0	0	0
120518	12:19:55	12:24:13	254821	5.0.10.0	4_exp_EVA_AMP_AWA_CON	997	Rpleas_acq	Oppo	Rpleas	Amasked	CS_A	1pleas	distractor2	acq_US_unple_masked	acq3_masked	3	15	453	0	300	300	0	0	650	46	0	1	0	0	0	1	blank2r.bmp	0	1	+	0	5	C1r.bmp	370	1	blank2r.bmp	590	1	DHJF	590	1	blank2r.bmp	650	2	gemein	650	1	!	1069	1	!	-1	0	0	0	0	0	0	0	0	0	0	0	0	0	0	0	0	0	0	0	0	0	0	0	0	0	0	0
120518	12:19:55	12:24:15	256861	5.0.10.0	4_exp_EVA_AMP_AWA_CON	997	Rpleas_acq	Oppo	Rpleas	Amasked	CS_A	1pleas	distractor2	acq_US_pleas_masked	acq3_masked	3	16	453	1	300	300	0	0	463	50	0	1	0	0	0	1	blank2r.bmp	0	1	+	0	4	B4r.bmp	370	1	blank2r.bmp	590	1	CPLW	590	1	blank2r.bmp	650	2	genießen	650	1	!	1069	1	!	1139	0	0	0	0	0	0	0	0	0	0	0	0	0	0	0	0	0	0	0	0	0	0	0	0	0	0	0
120518	12:19:55	12:24:17	258951	5.0.10.0	4_exp_EVA_AMP_AWA_CON	997	Rpleas_acq	Oppo	Rpleas	Amasked	CS_A	1pleas	distractor2	acq_US_pleas_masked	acq3_masked	3	17	453	0	300	300	0	0	531	50	0	1	0	0	0	1	blank2r.bmp	0	1	+	0	2	B2r.bmp	370	1	blank2r.bmp	590	1	CPLW	590	1	blank2r.bmp	650	6	vertrauen	650	1	!	1069	1	!	-1	0	0	0	0	0	0	0	0	0	0	0	0	0	0	0	0	0	0	0	0	0	0	0	0	0	0	0
120518	12:19:55	12:24:19	260941	5.0.10.0	4_exp_EVA_AMP_AWA_CON	997	Rpleas_acq	Oppo	Rpleas	Amasked	CS_A	1pleas	distractor2	acq_US_pleas_masked	acq3_masked	3	18	453	1	300	300	0	0	429	50	0	1	0	0	0	1	blank2r.bmp	0	1	+	0	3	B3r.bmp	370	1	blank2r.bmp	590	1	CPLW	590	1	blank2r.bmp	650	5	engagiert	650	1	!	1069	1	!	1099	0	0	0	0	0	0	0	0	0	0	0	0	0	0	0	0	0	0	0	0	0	0	0	0	0	0	0
120518	12:19:55	12:24:21	263030	5.0.10.0	4_exp_EVA_AMP_AWA_CON	997	Rpleas_acq	Oppo	Rpleas	Amasked	CS_A	1pleas	distractor2	acq_US_unple_masked	acq3_masked	3	19	453	0	300	300	0	0	530	46	0	1	0	0	0	1	blank2r.bmp	0	1	+	0	6	C2r.bmp	370	1	blank2r.bmp	590	1	DHJF	590	1	blank2r.bmp	650	3	krise	650	1	!	1069	1	!	-1	0	0	0	0	0	0	0	0	0	0	0	0	0	0	0	0	0	0	0	0	0	0	0	0	0	0	0
120518	12:19:55	12:24:23	265180	5.0.10.0	4_exp_EVA_AMP_AWA_CON	997	Rpleas_acq	Oppo	Rpleas	Amasked	CS_A	1pleas	distractor2	acq_US_unple_masked	acq3_masked	3	20	453	0	300	300	0	0	594	46	0	1	0	0	0	1	blank2r.bmp	0	1	+	0	7	C3r.bmp	370	1	blank2r.bmp	590	1	DHJF	590	1	blank2r.bmp	650	4	verbissen	650	1	!	1069	1	!	-1	0	0	0	0	0	0	0	0	0	0	0	0	0	0	0	0	0	0	0	0	0	0	0	0	0	0	0
120518	12:19:55	12:24:25	267220	5.0.10.0	4_exp_EVA_AMP_AWA_CON	997	Rpleas_acq	Oppo	Rpleas	Amasked	CS_A	1pleas	distractor2	acq_US_unple_masked	acq3_masked	3	21	453	1	300	300	0	0	468	46	0	1	0	0	0	1	blank2r.bmp	0	1	+	0	1	B1r.bmp	370	1	blank2r.bmp	590	1	DHJF	590	1	blank2r.bmp	650	5	engstirnig	650	1	!	1069	1	!	1139	0	0	0	0	0	0	0	0	0	0	0	0	0	0	0	0	0	0	0	0	0	0	0	0	0	0	0
120518	12:19:55	12:24:28	269530	5.0.10.0	4_exp_EVA_AMP_AWA_CON	997	Rpleas_acq	Oppo	Rpleas	Amasked	CS_A	1pleas	distractor2	acq_US_unple_masked	acq3_masked	3	22	453	0	300	300	0	0	534	50	0	0	0	0	0	1	blank2r.bmp	0	1	+	0	8	C4r.bmp	370	1	blank2r.bmp	590	1	DHJF	590	1	blank2r.bmp	650	1	gierig	650	1	FEHLER	1509	1	!	1069	1	!	-1	0	0	0	0	0	0	0	0	0	0	0	0	0	0	0	0	0	0	0	0	0	0	0	0
120518	12:19:55	12:24:30	271470	5.0.10.0	4_exp_EVA_AMP_AWA_CON	997	Rpleas_acq	Oppo	Rpleas	Amasked	CS_A	1pleas	distractor2	acq_US_pleas_masked	acq3_masked	3	23	453	0	300	300	0	0	596	50	0	1	0	0	0	1	blank2r.bmp	0	1	+	0	5	C1r.bmp	370	1	blank2r.bmp	590	1	CPLW	590	1	blank2r.bmp	650	3	kuss	650	1	!	1069	1	!	-1	0	0	0	0	0	0	0	0	0	0	0	0	0	0	0	0	0	0	0	0	0	0	0	0	0	0	0
120518	12:19:55	12:24:32	273770	5.0.10.0	4_exp_EVA_AMP_AWA_CON	997	Rpleas_acq	Oppo	Rpleas	Amasked	CS_A	1pleas	distractor2	acq_US_pleas_masked	acq3_masked	3	24	453	0	300	300	0	0	530	46	0	0	0	0	0	1	blank2r.bmp	0	1	+	0	4	B4r.bmp	370	1	blank2r.bmp	590	1	CPLW	590	1	blank2r.bmp	650	1	gütig	650	1	FEHLER	1509	1	!	1069	1	!	-1	0	0	0	0	0	0	0	0	0	0	0	0	0	0	0	0	0	0	0	0	0	0	0	0
120518	12:19:55	12:24:34	275650	5.0.10.0	4_exp_EVA_AMP_AWA_CON	997	Rpleas_acq	Oppo	Rpleas	Amasked	CS_A	1pleas	distractor2	acq_US_unple_masked	acq3_masked	3	25	453	0	300	300	0	0	539	46	0	1	0	0	0	1	blank2r.bmp	0	1	+	0	1	B1r.bmp	370	1	blank2r.bmp	590	1	DHJF	590	1	blank2r.bmp	650	4	verbissen	650	1	!	1069	1	!	-1	0	0	0	0	0	0	0	0	0	0	0	0	0	0	0	0	0	0	0	0	0	0	0	0	0	0	0
120518	12:19:55	12:24:36	277560	5.0.10.0	4_exp_EVA_AMP_AWA_CON	997	Rpleas_acq	Oppo	Rpleas	Amasked	CS_A	1pleas	distractor2	acq_US_unple_masked	acq3_masked	3	26	453	0	300	300	0	0	356	46	0	1	0	0	0	1	blank2r.bmp	0	1	+	0	5	C1r.bmp	370	1	blank2r.bmp	590	1	DHJF	590	1	blank2r.bmp	650	5	engstirnig	650	1	!	-1	1	!	-1	0	0	0	0	0	0	0	0	0	0	0	0	0	0	0	0	0	0	0	0	0	0	0	0	0	0	0
120518	12:19:55	12:24:38	279610	5.0.10.0	4_exp_EVA_AMP_AWA_CON	997	Rpleas_acq	Oppo	Rpleas	Amasked	CS_A	1pleas	distractor2	acq_US_pleas_masked	acq3_masked	3	27	453	0	300	300	0	0	285	46	0	0	0	0	0	1	blank2r.bmp	0	1	+	0	7	C3r.bmp	370	1	blank2r.bmp	590	1	CPLW	590	1	blank2r.bmp	650	3	kuss	650	1	FEHLER	1259	1	!	-1	1	!	-1	0	0	0	0	0	0	0	0	0	0	0	0	0	0	0	0	0	0	0	0	0	0	0	0
120518	12:19:55	12:24:40	281390	5.0.10.0	4_exp_EVA_AMP_AWA_CON	997	Rpleas_acq	Oppo	Rpleas	Amasked	CS_A	1pleas	distractor2	acq_US_pleas_masked	acq3_masked	3	28	453	1	300	300	0	0	419	50	0	1	0	0	0	1	blank2r.bmp	0	1	+	0	2	B2r.bmp	370	1	blank2r.bmp	590	1	CPLW	590	1	blank2r.bmp	650	1	gütig	650	1	!	1069	1	!	1099	0	0	0	0	0	0	0	0	0	0	0	0	0	0	0	0	0	0	0	0	0	0	0	0	0	0	0
120518	12:19:55	12:24:42	283470	5.0.10.0	4_exp_EVA_AMP_AWA_CON	997	Rpleas_acq	Oppo	Rpleas	Amasked	CS_A	1pleas	distractor2	acq_US_unple_masked	acq3_masked	3	29	453	1	300	300	0	0	503	46	0	1	0	0	0	1	blank2r.bmp	0	1	+	0	3	B3r.bmp	370	1	blank2r.bmp	590	1	DHJF	590	1	blank2r.bmp	650	3	krise	650	1	!	1069	1	!	1179	0	0	0	0	0	0	0	0	0	0	0	0	0	0	0	0	0	0	0	0	0	0	0	0	0	0	0
120518	12:19:55	12:24:44	285830	5.0.10.0	4_exp_EVA_AMP_AWA_CON	997	Rpleas_acq	Oppo	Rpleas	Amasked	CS_A	1pleas	distractor2	acq_US_unple_masked	acq3_masked	3	30	453	0	300	300	0	0	594	50	0	0	0	0	0	1	blank2r.bmp	0	1	+	0	6	C2r.bmp	370	1	blank2r.bmp	590	1	DHJF	590	1	blank2r.bmp	650	2	gemein	650	1	FEHLER	1569	1	!	1069	1	!	-1	0	0	0	0	0	0	0	0	0	0	0	0	0	0	0	0	0	0	0	0	0	0	0	0
120518	12:19:55	12:24:46	287840	5.0.10.0	4_exp_EVA_AMP_AWA_CON	997	Rpleas_acq	Oppo	Rpleas	Amasked	CS_A	1pleas	distractor2	acq_US_pleas_masked	acq3_masked	3	31	453	0	300	300	0	0	660	50	0	1	0	0	0	1	blank2r.bmp	0	1	+	0	4	B4r.bmp	370	1	blank2r.bmp	590	1	CPLW	590	1	blank2r.bmp	650	6	vertrauen	650	1	!	1069	1	!	-1	0	0	0	0	0	0	0	0	0	0	0	0	0	0	0	0	0	0	0	0	0	0	0	0	0	0	0
120518	12:19:55	12:24:48	290180	5.0.10.0	4_exp_EVA_AMP_AWA_CON	997	Rpleas_acq	Oppo	Rpleas	Amasked	CS_A	1pleas	distractor2	acq_US_unple_masked	acq3_masked	3	32	453	0	300	300	0	0	585	50	0	0	0	0	0	1	blank2r.bmp	0	1	+	0	8	C4r.bmp	370	1	blank2r.bmp	590	1	DHJF	590	1	blank2r.bmp	650	6	versagen	650	1	FEHLER	1559	1	!	1069	1	!	-1	0	0	0	0	0	0	0	0	0	0	0	0	0	0	0	0	0	0	0	0	0	0	0	0
120518	12:19:55	12:24:51	292430	5.0.10.0	4_exp_EVA_AMP_AWA_CON	997	Rpleas_acq	Oppo	Rpleas	Amasked	CS_A	1pleas	distractor2	acq_US_pleas_masked	acq3_masked	3	33	453	0	300	300	0	0	684	46	0	0	0	0	0	1	blank2r.bmp	0	1	+	0	8	C4r.bmp	370	1	blank2r.bmp	590	1	CPLW	590	1	blank2r.bmp	650	4	vergnügt	650	1	FEHLER	1659	1	!	1069	1	!	-1	0	0	0	0	0	0	0	0	0	0	0	0	0	0	0	0	0	0	0	0	0	0	0	0
120518	12:19:55	12:24:53	294639	5.0.10.0	4_exp_EVA_AMP_AWA_CON	997	Rpleas_acq	Oppo	Rpleas	Amasked	CS_A	1pleas	distractor2	acq_US_unple_masked	acq3_masked	3	34	453	0	300	300	0	0	629	50	0	0	0	0	0	1	blank2r.bmp	0	1	+	0	7	C3r.bmp	370	1	blank2r.bmp	590	1	DHJF	590	1	blank2r.bmp	650	1	gierig	650	1	FEHLER	1609	1	!	1069	1	!	-1	0	0	0	0	0	0	0	0	0	0	0	0	0	0	0	0	0	0	0	0	0	0	0	0
120518	12:19:55	12:24:57	298979	5.0.10.0	4_exp_EVA_AMP_AWA_CON	997	Rpleas_acq	Oppo	Rpleas	Amasked	CS_A	1pleas	distractor2	acq_US_pleas_masked	acq3_masked	3	35	453	0	300	300	0	0	2984	50	0	1	0	0	0	1	blank2r.bmp	0	1	+	0	4	B4r.bmp	370	1	blank2r.bmp	590	1	CPLW	590	1	blank2r.bmp	650	2	genießen	650	1	!	1069	1	!	-1	0	0	0	0	0	0	0	0	0	0	0	0	0	0	0	0	0	0	0	0	0	0	0	0	0	0	0
120518	12:19:55	12:24:59	300869	5.0.10.0	4_exp_EVA_AMP_AWA_CON	997	Rpleas_acq	Oppo	Rpleas	Amasked	CS_A	1pleas	distractor2	acq_US_pleas_masked	acq3_masked	3	36	453	0	300	300	0	0	334	50	0	1	0	0	0	1	blank2r.bmp	0	1	+	0	5	C1r.bmp	370	1	blank2r.bmp	590	1	CPLW	590	1	blank2r.bmp	650	5	engagiert	650	1	!	-1	1	!	-1	0	0	0	0	0	0	0	0	0	0	0	0	0	0	0	0	0	0	0	0	0	0	0	0	0	0	0
120518	12:19:55	12:25:13	314569	5.0.10.0	4_exp_EVA_AMP_AWA_CON	997	Rpleas_acq	Oppo	Rpleas	Amasked	CS_A	1pleas	distractor2	acq_US_pleas_masked	acq45_masked	4	1	400	0	300	300	0	0	5145	Ctrl+'B'	0	1	0	0	0	1	blank2r.bmp	0	1	+	0	3	B3r.bmp	370	1	blank2r.bmp	590	1	CPLW	590	1	blank2r.bmp	650	4	vergnügt	650	1	!	1009	1	!	-1	0	0	0	0	0	0	0	0	0	0	0	0	0	0	0	0	0	0	0	0	0	0	0	0	0	0	0
120518	12:19:55	12:25:16	318142	5.0.10.0	4_exp_EVA_AMP_AWA_CON	997	Rpleas_acq	Oppo	Lpleas	Amasked	CS_A	1pleas	distractor2	EvalRating_lastfour	EvalRating_lastfour	7	1	0	0	300	300	0	0	803	Ctrl+'B'	7,8125	1	0	0	0	1	eraser	0	2	Wie angenehm oder unangenehm finden Sie die  Buchstabenkette DHJF?	0	1	leftborder	0	1	rightborder	0	1	line	0	1	Unangenehm	0	1	Angenehm	0	0	0	0	0	0	0	0	0	0	0	0	0	0	0	0	0	0	0	0	0	0	0	0	0	0	0	0	0	0	0	0	0	0
120518	12:19:55	12:25:57	358277	5.0.10.0	4_exp_EVA_AMP_AWA_CON	997	Rpleas_acq	Oppo	Rpleas	Amasked	CS_B	1pleas	distractor2	acq_new_unple_nomask	acq1_nomask	18	1	0	0	300	300	0	0	384	46	7,8125	1	0	0	0	1	blank2r.bmp	0	1	+	0	1	blank2r.bmp	370	1	B1r.bmp	370	1	blank2r.bmp	430	5	faul	650	0	0	0	0	0	0	0	0	0	0	0	0	0	0	0	0	0	0	0	0	0	0	0	0	0	0	0	0	0	0	0	0	0	0	0	0
120518	12:19:55	12:25:59	360867	5.0.10.0	4_exp_EVA_AMP_AWA_CON	997	Rpleas_acq	Oppo	Rpleas	Amasked	CS_B	1pleas	distractor2	acq_US_pleas_nomask	acq1_nomask	18	2	0	0	300	300	0	0	1321	50	7,8125	1	0	0	0	1	blank2r.bmp	0	1	+	0	1	blank2r.bmp	370	1	BMVZ	370	1	blank2r.bmp	430	2	schlau	650	0	0	0	0	0	0	0	0	0	0	0	0	0	0	0	0	0	0	0	0	0	0	0	0	0	0	0	0	0	0	0	0	0	0	0	0
120518	12:19:55	12:26:01	362507	5.0.10.0	4_exp_EVA_AMP_AWA_CON	997	Rpleas_acq	Oppo	Rpleas	Amasked	CS_B	1pleas	distractor2	acq_US_pleas_nomask	acq1_nomask	18	3	0	0	300	300	0	0	378	50	7,8125	1	0	0	0	1	blank2r.bmp	0	1	+	0	1	blank2r.bmp	370	1	BMVZ	370	1	blank2r.bmp	430	3	schön	650	0	0	0	0	0	0	0	0	0	0	0	0	0	0	0	0	0	0	0	0	0	0	0	0	0	0	0	0	0	0	0	0	0	0	0	0
120518	12:19:55	12:26:02	364217	5.0.10.0	4_exp_EVA_AMP_AWA_CON	997	Rpleas_acq	Oppo	Rpleas	Amasked	CS_B	1pleas	distractor2	acq_US_unple_nomask	acq1_nomask	18	4	0	0	300	300	0	0	442	46	7,8125	1	0	0	0	1	blank2r.bmp	0	1	+	0	1	blank2r.bmp	370	1	GKQX	370	1	blank2r.bmp	430	4	hindern	650	0	0	0	0	0	0	0	0	0	0	0	0	0	0	0	0	0	0	0	0	0	0	0	0	0	0	0	0	0	0	0	0	0	0	0	0
120518	12:19:55	12:26:04	365827	5.0.10.0	4_exp_EVA_AMP_AWA_CON	997	Rpleas_acq	Oppo	Rpleas	Amasked	CS_B	1pleas	distractor2	acq_US_unple_nomask	acq1_nomask	18	5	0	0	300	300	0	0	348	46	7,8125	1	0	0	0	1	blank2r.bmp	0	1	+	0	1	blank2r.bmp	370	1	GKQX	370	1	blank2r.bmp	430	3	schlecht	650	0	0	0	0	0	0	0	0	0	0	0	0	0	0	0	0	0	0	0	0	0	0	0	0	0	0	0	0	0	0	0	0	0	0	0	0
120518	12:19:55	12:26:06	367687	5.0.10.0	4_exp_EVA_AMP_AWA_CON	997	Rpleas_acq	Oppo	Rpleas	Amasked	CS_B	1pleas	distractor2	acq_US_unple_nomask	acq1_nomask	18	6	0	0	300	300	0	0	598	46	7,8125	1	0	0	0	1	blank2r.bmp	0	1	+	0	1	blank2r.bmp	370	1	GKQX	370	1	blank2r.bmp	430	6	lasch	650	0	0	0	0	0	0	0	0	0	0	0	0	0	0	0	0	0	0	0	0	0	0	0	0	0	0	0	0	0	0	0	0	0	0	0	0
120518	12:19:55	12:26:08	369597	5.0.10.0	4_exp_EVA_AMP_AWA_CON	997	Rpleas_acq	Oppo	Rpleas	Amasked	CS_B	1pleas	distractor2	acq_new_unple_nomask	acq1_nomask	18	7	0	0	300	300	0	0	437	50	7,8125	0	0	0	0	1	blank2r.bmp	0	1	+	0	1	blank2r.bmp	370	4	B4r.bmp	370	1	blank2r.bmp	430	2	tot	650	1	FEHLER	1109	0	0	0	0	0	0	0	0	0	0	0	0	0	0	0	0	0	0	0	0	0	0	0	0	0	0	0	0	0	0	0	0	0
120518	12:19:55	12:26:09	371007	5.0.10.0	4_exp_EVA_AMP_AWA_CON	997	Rpleas_acq	Oppo	Rpleas	Amasked	CS_B	1pleas	distractor2	acq_new_unple_nomask	acq1_nomask	18	8	0	0	300	300	0	0	350	46	7,8125	1	0	0	0	1	blank2r.bmp	0	1	+	0	1	blank2r.bmp	370	2	B2r.bmp	370	1	blank2r.bmp	430	4	leiden	650	0	0	0	0	0	0	0	0	0	0	0	0	0	0	0	0	0	0	0	0	0	0	0	0	0	0	0	0	0	0	0	0	0	0	0	0
120518	12:19:55	12:26:12	373287	5.0.10.0	4_exp_EVA_AMP_AWA_CON	997	Rpleas_acq	Oppo	Rpleas	Amasked	CS_B	1pleas	distractor2	acq_new_pleas_nomask	acq1_nomask	18	9	0	0	300	300	0	0	1013	50	7,8125	1	0	0	0	1	blank2r.bmp	0	1	+	0	1	blank2r.bmp	370	3	B3r.bmp	370	1	blank2r.bmp	430	5	fair	650	0	0	0	0	0	0	0	0	0	0	0	0	0	0	0	0	0	0	0	0	0	0	0	0	0	0	0	0	0	0	0	0	0	0	0	0
120518	12:19:55	12:26:13	374917	5.0.10.0	4_exp_EVA_AMP_AWA_CON	997	Rpleas_acq	Oppo	Rpleas	Amasked	CS_B	1pleas	distractor2	acq_new_pleas_nomask	acq1_nomask	18	10	0	0	300	300	0	0	360	50	7,8125	1	0	0	0	1	blank2r.bmp	0	1	+	0	1	blank2r.bmp	370	4	B4r.bmp	370	1	blank2r.bmp	430	2	treu	650	0	0	0	0	0	0	0	0	0	0	0	0	0	0	0	0	0	0	0	0	0	0	0	0	0	0	0	0	0	0	0	0	0	0	0	0
120518	12:19:55	12:26:15	376647	5.0.10.0	4_exp_EVA_AMP_AWA_CON	997	Rpleas_acq	Oppo	Rpleas	Amasked	CS_B	1pleas	distractor2	acq_US_pleas_nomask	acq1_nomask	18	11	0	0	300	300	0	0	478	50	7,8125	1	0	0	0	1	blank2r.bmp	0	1	+	0	1	blank2r.bmp	370	1	BMVZ	370	1	blank2r.bmp	430	1	ehrlich	650	0	0	0	0	0	0	0	0	0	0	0	0	0	0	0	0	0	0	0	0	0	0	0	0	0	0	0	0	0	0	0	0	0	0	0	0
120518	12:19:55	12:26:17	378347	5.0.10.0	4_exp_EVA_AMP_AWA_CON	997	Rpleas_acq	Oppo	Rpleas	Amasked	CS_B	1pleas	distractor2	acq_new_pleas_nomask	acq1_nomask	18	12	0	0	300	300	0	0	423	50	7,8125	1	0	0	0	1	blank2r.bmp	0	1	+	0	1	blank2r.bmp	370	2	B2r.bmp	370	1	blank2r.bmp	430	6	spielen	650	0	0	0	0	0	0	0	0	0	0	0	0	0	0	0	0	0	0	0	0	0	0	0	0	0	0	0	0	0	0	0	0	0	0	0	0
120518	12:19:55	12:26:18	380147	5.0.10.0	4_exp_EVA_AMP_AWA_CON	997	Rpleas_acq	Oppo	Rpleas	Amasked	CS_B	1pleas	distractor2	acq_US_unple_nomask	acq1_nomask	18	13	0	0	300	300	0	0	542	46	7,8125	1	0	0	0	1	blank2r.bmp	0	1	+	0	1	blank2r.bmp	370	1	GKQX	370	1	blank2r.bmp	430	2	schroff	650	0	0	0	0	0	0	0	0	0	0	0	0	0	0	0	0	0	0	0	0	0	0	0	0	0	0	0	0	0	0	0	0	0	0	0	0
120518	12:19:55	12:26:20	381907	5.0.10.0	4_exp_EVA_AMP_AWA_CON	997	Rpleas_acq	Oppo	Rpleas	Amasked	CS_B	1pleas	distractor2	acq_US_unple_nomask	acq1_nomask	18	14	0	0	300	300	0	0	489	46	7,8125	1	0	0	0	1	blank2r.bmp	0	1	+	0	1	blank2r.bmp	370	1	GKQX	370	1	blank2r.bmp	430	1	eitel	650	0	0	0	0	0	0	0	0	0	0	0	0	0	0	0	0	0	0	0	0	0	0	0	0	0	0	0	0	0	0	0	0	0	0	0	0
120518	12:19:55	12:26:22	383807	5.0.10.0	4_exp_EVA_AMP_AWA_CON	997	Rpleas_acq	Oppo	Rpleas	Amasked	CS_B	1pleas	distractor2	acq_new_pleas_nomask	acq1_nomask	18	15	0	0	300	300	0	0	446	46	7,8125	0	0	0	0	1	blank2r.bmp	0	1	+	0	1	blank2r.bmp	370	8	C4r.bmp	370	1	blank2r.bmp	430	1	retten	650	1	FEHLER	1119	0	0	0	0	0	0	0	0	0	0	0	0	0	0	0	0	0	0	0	0	0	0	0	0	0	0	0	0	0	0	0	0	0
120518	12:19:55	12:26:24	385356	5.0.10.0	4_exp_EVA_AMP_AWA_CON	997	Rpleas_acq	Oppo	Rpleas	Amasked	CS_B	1pleas	distractor2	acq_US_unple_nomask	acq1_nomask	18	16	0	0	300	300	0	0	487	46	7,8125	1	0	0	0	1	blank2r.bmp	0	1	+	0	1	blank2r.bmp	370	1	GKQX	370	1	blank2r.bmp	430	5	tyrannisch	650	0	0	0	0	0	0	0	0	0	0	0	0	0	0	0	0	0	0	0	0	0	0	0	0	0	0	0	0	0	0	0	0	0	0	0	0
120518	12:19:55	12:26:26	387466	5.0.10.0	4_exp_EVA_AMP_AWA_CON	997	Rpleas_acq	Oppo	Rpleas	Amasked	CS_B	1pleas	distractor2	acq_new_unple_nomask	acq1_nomask	18	17	0	0	300	300	0	0	633	50	7,8125	0	0	0	0	1	blank2r.bmp	0	1	+	0	1	blank2r.bmp	370	7	C3r.bmp	370	1	blank2r.bmp	430	3	fanatisch	650	1	FEHLER	1309	0	0	0	0	0	0	0	0	0	0	0	0	0	0	0	0	0	0	0	0	0	0	0	0	0	0	0	0	0	0	0	0	0
120518	12:19:55	12:26:27	389196	5.0.10.0	4_exp_EVA_AMP_AWA_CON	997	Rpleas_acq	Oppo	Rpleas	Amasked	CS_B	1pleas	distractor2	acq_new_pleas_nomask	acq1_nomask	18	18	0	0	300	300	0	0	684	50	7,8125	1	0	0	0	1	blank2r.bmp	0	1	+	0	1	blank2r.bmp	370	6	C2r.bmp	370	1	blank2r.bmp	430	4	lachen	650	0	0	0	0	0	0	0	0	0	0	0	0	0	0	0	0	0	0	0	0	0	0	0	0	0	0	0	0	0	0	0	0	0	0	0	0
120518	12:19:55	12:26:29	390856	5.0.10.0	4_exp_EVA_AMP_AWA_CON	997	Rpleas_acq	Oppo	Rpleas	Amasked	CS_B	1pleas	distractor2	acq_US_pleas_nomask	acq1_nomask	18	19	0	0	300	300	0	0	391	50	7,8125	1	0	0	0	1	blank2r.bmp	0	1	+	0	1	blank2r.bmp	370	1	BMVZ	370	1	blank2r.bmp	430	4	helfen	650	0	0	0	0	0	0	0	0	0	0	0	0	0	0	0	0	0	0	0	0	0	0	0	0	0	0	0	0	0	0	0	0	0	0	0	0
120518	12:19:55	12:26:31	392756	5.0.10.0	4_exp_EVA_AMP_AWA_CON	997	Rpleas_acq	Oppo	Rpleas	Amasked	CS_B	1pleas	distractor2	acq_US_pleas_nomask	acq1_nomask	18	20	0	0	300	300	0	0	646	50	7,8125	1	0	0	0	1	blank2r.bmp	0	1	+	0	1	blank2r.bmp	370	1	BMVZ	370	1	blank2r.bmp	430	5	tolerant	650	0	0	0	0	0	0	0	0	0	0	0	0	0	0	0	0	0	0	0	0	0	0	0	0	0	0	0	0	0	0	0	0	0	0	0	0
120518	12:19:55	12:26:33	394676	5.0.10.0	4_exp_EVA_AMP_AWA_CON	997	Rpleas_acq	Oppo	Rpleas	Amasked	CS_B	1pleas	distractor2	acq_new_unple_nomask	acq1_nomask	18	21	0	0	300	300	0	0	652	46	7,8125	1	0	0	0	1	blank2r.bmp	0	1	+	0	1	blank2r.bmp	370	1	B1r.bmp	370	1	blank2r.bmp	430	1	rächen	650	0	0	0	0	0	0	0	0	0	0	0	0	0	0	0	0	0	0	0	0	0	0	0	0	0	0	0	0	0	0	0	0	0	0	0	0
120518	12:19:55	12:26:35	396406	5.0.10.0	4_exp_EVA_AMP_AWA_CON	997	Rpleas_acq	Oppo	Rpleas	Amasked	CS_B	1pleas	distractor2	acq_new_pleas_nomask	acq1_nomask	18	22	0	0	300	300	0	0	461	50	7,8125	1	0	0	0	1	blank2r.bmp	0	1	+	0	1	blank2r.bmp	370	5	C1r.bmp	370	1	blank2r.bmp	430	3	freundlich	650	0	0	0	0	0	0	0	0	0	0	0	0	0	0	0	0	0	0	0	0	0	0	0	0	0	0	0	0	0	0	0	0	0	0	0	0
120518	12:19:55	12:26:36	398196	5.0.10.0	4_exp_EVA_AMP_AWA_CON	997	Rpleas_acq	Oppo	Rpleas	Amasked	CS_B	1pleas	distractor2	acq_new_unple_nomask	acq1_nomask	18	23	0	0	300	300	0	0	527	46	7,8125	1	0	0	0	1	blank2r.bmp	0	1	+	0	1	blank2r.bmp	370	3	B3r.bmp	370	1	blank2r.bmp	430	6	strafen	650	0	0	0	0	0	0	0	0	0	0	0	0	0	0	0	0	0	0	0	0	0	0	0	0	0	0	0	0	0	0	0	0	0	0	0	0
120518	12:19:55	12:26:38	400056	5.0.10.0	4_exp_EVA_AMP_AWA_CON	997	Rpleas_acq	Oppo	Rpleas	Amasked	CS_B	1pleas	distractor2	acq_US_pleas_nomask	acq1_nomask	18	24	0	0	300	300	0	0	593	50	7,8125	1	0	0	0	1	blank2r.bmp	0	1	+	0	1	blank2r.bmp	370	1	BMVZ	370	1	blank2r.bmp	430	6	loyal	650	0	0	0	0	0	0	0	0	0	0	0	0	0	0	0	0	0	0	0	0	0	0	0	0	0	0	0	0	0	0	0	0	0	0	0	0
120518	12:19:55	12:26:40	401756	5.0.10.0	4_exp_EVA_AMP_AWA_CON	997	Rpleas_acq	Oppo	Rpleas	Amasked	CS_B	1pleas	distractor2	acq_new_pleas_nomask	acq1_nomask	18	25	0	0	300	300	0	0	429	50	7,8125	1	0	0	0	1	blank2r.bmp	0	1	+	0	1	blank2r.bmp	370	6	C2r.bmp	370	1	blank2r.bmp	430	1	retten	650	0	0	0	0	0	0	0	0	0	0	0	0	0	0	0	0	0	0	0	0	0	0	0	0	0	0	0	0	0	0	0	0	0	0	0	0
120518	12:19:55	12:26:42	403426	5.0.10.0	4_exp_EVA_AMP_AWA_CON	997	Rpleas_acq	Oppo	Rpleas	Amasked	CS_B	1pleas	distractor2	acq_new_unple_nomask	acq1_nomask	18	26	0	0	300	300	0	0	402	46	7,8125	1	0	0	0	1	blank2r.bmp	0	1	+	0	1	blank2r.bmp	370	7	C3r.bmp	370	1	blank2r.bmp	430	2	tot	650	0	0	0	0	0	0	0	0	0	0	0	0	0	0	0	0	0	0	0	0	0	0	0	0	0	0	0	0	0	0	0	0	0	0	0	0
120518	12:19:55	12:26:43	405106	5.0.10.0	4_exp_EVA_AMP_AWA_CON	997	Rpleas_acq	Oppo	Rpleas	Amasked	CS_B	1pleas	distractor2	acq_US_unple_nomask	acq1_nomask	18	27	0	0	300	300	0	0	411	46	7,8125	1	0	0	0	1	blank2r.bmp	0	1	+	0	1	blank2r.bmp	370	1	GKQX	370	1	blank2r.bmp	430	2	schroff	650	0	0	0	0	0	0	0	0	0	0	0	0	0	0	0	0	0	0	0	0	0	0	0	0	0	0	0	0	0	0	0	0	0	0	0	0
120518	12:19:55	12:26:45	406926	5.0.10.0	4_exp_EVA_AMP_AWA_CON	997	Rpleas_acq	Oppo	Rpleas	Amasked	CS_B	1pleas	distractor2	acq_new_unple_nomask	acq1_nomask	18	28	0	0	300	300	0	0	556	46	7,8125	1	0	0	0	1	blank2r.bmp	0	1	+	0	1	blank2r.bmp	370	4	B4r.bmp	370	1	blank2r.bmp	430	1	rächen	650	0	0	0	0	0	0	0	0	0	0	0	0	0	0	0	0	0	0	0	0	0	0	0	0	0	0	0	0	0	0	0	0	0	0	0	0
120518	12:19:55	12:26:47	408586	5.0.10.0	4_exp_EVA_AMP_AWA_CON	997	Rpleas_acq	Oppo	Rpleas	Amasked	CS_B	1pleas	distractor2	acq_US_pleas_nomask	acq1_nomask	18	29	0	0	300	300	0	0	405	50	7,8125	1	0	0	0	1	blank2r.bmp	0	1	+	0	1	blank2r.bmp	370	1	BMVZ	370	1	blank2r.bmp	430	4	helfen	650	0	0	0	0	0	0	0	0	0	0	0	0	0	0	0	0	0	0	0	0	0	0	0	0	0	0	0	0	0	0	0	0	0	0	0	0
120518	12:19:55	12:26:49	410356	5.0.10.0	4_exp_EVA_AMP_AWA_CON	997	Rpleas_acq	Oppo	Rpleas	Amasked	CS_B	1pleas	distractor2	acq_US_unple_nomask	acq1_nomask	18	30	0	0	300	300	0	0	502	46	7,8125	1	0	0	0	1	blank2r.bmp	0	1	+	0	1	blank2r.bmp	370	1	GKQX	370	1	blank2r.bmp	430	5	tyrannisch	650	0	0	0	0	0	0	0	0	0	0	0	0	0	0	0	0	0	0	0	0	0	0	0	0	0	0	0	0	0	0	0	0	0	0	0	0
120518	12:19:55	12:26:50	412046	5.0.10.0	4_exp_EVA_AMP_AWA_CON	997	Rpleas_acq	Oppo	Rpleas	Amasked	CS_B	1pleas	distractor2	acq_new_pleas_nomask	acq1_nomask	18	31	0	0	300	300	0	0	432	50	7,8125	1	0	0	0	1	blank2r.bmp	0	1	+	0	1	blank2r.bmp	370	2	B2r.bmp	370	1	blank2r.bmp	430	4	lachen	650	0	0	0	0	0	0	0	0	0	0	0	0	0	0	0	0	0	0	0	0	0	0	0	0	0	0	0	0	0	0	0	0	0	0	0	0
120518	12:19:55	12:26:52	413756	5.0.10.0	4_exp_EVA_AMP_AWA_CON	997	Rpleas_acq	Oppo	Rpleas	Amasked	CS_B	1pleas	distractor2	acq_US_pleas_nomask	acq1_nomask	18	32	0	0	300	300	0	0	457	50	7,8125	1	0	0	0	1	blank2r.bmp	0	1	+	0	1	blank2r.bmp	370	1	BMVZ	370	1	blank2r.bmp	430	2	schlau	650	0	0	0	0	0	0	0	0	0	0	0	0	0	0	0	0	0	0	0	0	0	0	0	0	0	0	0	0	0	0	0	0	0	0	0	0
120518	12:19:55	12:26:54	415545	5.0.10.0	4_exp_EVA_AMP_AWA_CON	997	Rpleas_acq	Oppo	Rpleas	Amasked	CS_B	1pleas	distractor2	acq_new_unple_nomask	acq1_nomask	18	33	0	0	300	300	0	0	530	46	7,8125	1	0	0	0	1	blank2r.bmp	0	1	+	0	1	blank2r.bmp	370	5	C1r.bmp	370	1	blank2r.bmp	430	4	leiden	650	0	0	0	0	0	0	0	0	0	0	0	0	0	0	0	0	0	0	0	0	0	0	0	0	0	0	0	0	0	0	0	0	0	0	0	0
120518	12:19:55	12:26:56	417475	5.0.10.0	4_exp_EVA_AMP_AWA_CON	997	Rpleas_acq	Oppo	Rpleas	Amasked	CS_B	1pleas	distractor2	acq_US_unple_nomask	acq1_nomask	18	34	0	0	300	300	0	0	452	50	7,8125	0	0	0	0	1	blank2r.bmp	0	1	+	0	1	blank2r.bmp	370	1	GKQX	370	1	blank2r.bmp	430	6	lasch	650	1	FEHLER	1129	0	0	0	0	0	0	0	0	0	0	0	0	0	0	0	0	0	0	0	0	0	0	0	0	0	0	0	0	0	0	0	0	0
120518	12:19:55	12:26:57	418995	5.0.10.0	4_exp_EVA_AMP_AWA_CON	997	Rpleas_acq	Oppo	Rpleas	Amasked	CS_B	1pleas	distractor2	acq_new_pleas_nomask	acq1_nomask	18	35	0	0	300	300	0	0	473	50	7,8125	1	0	0	0	1	blank2r.bmp	0	1	+	0	1	blank2r.bmp	370	8	C4r.bmp	370	1	blank2r.bmp	430	5	fair	650	0	0	0	0	0	0	0	0	0	0	0	0	0	0	0	0	0	0	0	0	0	0	0	0	0	0	0	0	0	0	0	0	0	0	0	0
120518	12:19:55	12:26:59	420645	5.0.10.0	4_exp_EVA_AMP_AWA_CON	997	Rpleas_acq	Oppo	Rpleas	Amasked	CS_B	1pleas	distractor2	acq_US_pleas_nomask	acq1_nomask	18	36	0	0	300	300	0	0	379	50	7,8125	1	0	0	0	1	blank2r.bmp	0	1	+	0	1	blank2r.bmp	370	1	BMVZ	370	1	blank2r.bmp	430	1	ehrlich	650	0	0	0	0	0	0	0	0	0	0	0	0	0	0	0	0	0	0	0	0	0	0	0	0	0	0	0	0	0	0	0	0	0	0	0	0
120518	12:19:55	12:27:06	427375	5.0.10.0	4_exp_EVA_AMP_AWA_CON	997	Rpleas_acq	Oppo	Rpleas	Amasked	CS_B	1pleas	distractor2	acq_new_pleas_nomask	acq2_nomask	19	1	480	0	300	300	0	0	397	50	7,8125	1	0	0	0	1	blank2r.bmp	0	1	+	0	1	blank2r.bmp	370	1	B1r.bmp	370	1	blank2r.bmp	430	3	freundlich	650	1	!	-1	1	!	-1	0	0	0	0	0	0	0	0	0	0	0	0	0	0	0	0	0	0	0	0	0	0	0	0	0	0	0	0	0	0
120518	12:19:55	12:27:08	429695	5.0.10.0	4_exp_EVA_AMP_AWA_CON	997	Rpleas_acq	Oppo	Rpleas	Amasked	CS_B	1pleas	distractor2	acq_new_pleas_nomask	acq2_nomask	19	2	480	0	300	300	0	0	764	50	7,8125	1	0	0	0	1	blank2r.bmp	0	1	+	0	1	blank2r.bmp	370	3	B3r.bmp	370	1	blank2r.bmp	430	6	spielen	650	1	!	1089	1	!	-1	0	0	0	0	0	0	0	0	0	0	0	0	0	0	0	0	0	0	0	0	0	0	0	0	0	0	0	0	0	0
120518	12:19:55	12:27:10	432015	5.0.10.0	4_exp_EVA_AMP_AWA_CON	997	Rpleas_acq	Oppo	Rpleas	Amasked	CS_B	1pleas	distractor2	acq_US_pleas_nomask	acq2_nomask	19	3	480	0	300	300	0	0	753	50	7,8125	1	0	0	0	1	blank2r.bmp	0	1	+	0	1	blank2r.bmp	370	1	BMVZ	370	1	blank2r.bmp	430	5	tolerant	650	1	!	1089	1	!	-1	0	0	0	0	0	0	0	0	0	0	0	0	0	0	0	0	0	0	0	0	0	0	0	0	0	0	0	0	0	0
120518	12:19:55	12:27:12	434225	5.0.10.0	4_exp_EVA_AMP_AWA_CON	997	Rpleas_acq	Oppo	Rpleas	Amasked	CS_B	1pleas	distractor2	acq_US_pleas_nomask	acq2_nomask	19	4	480	0	300	300	0	0	649	50	7,8125	1	0	0	0	1	blank2r.bmp	0	1	+	0	1	blank2r.bmp	370	1	BMVZ	370	1	blank2r.bmp	430	6	loyal	650	1	!	1089	1	!	-1	0	0	0	0	0	0	0	0	0	0	0	0	0	0	0	0	0	0	0	0	0	0	0	0	0	0	0	0	0	0
120518	12:19:55	12:27:15	436245	5.0.10.0	4_exp_EVA_AMP_AWA_CON	997	Rpleas_acq	Oppo	Rpleas	Amasked	CS_B	1pleas	distractor2	acq_US_unple_nomask	acq2_nomask	19	5	480	1	300	300	0	0	452	46	7,8125	1	0	0	0	1	blank2r.bmp	0	1	+	0	1	blank2r.bmp	370	1	GKQX	370	1	blank2r.bmp	430	3	schlecht	650	1	!	1089	1	!	1129	0	0	0	0	0	0	0	0	0	0	0	0	0	0	0	0	0	0	0	0	0	0	0	0	0	0	0	0	0	0
120518	12:19:55	12:27:17	438535	5.0.10.0	4_exp_EVA_AMP_AWA_CON	997	Rpleas_acq	Oppo	Rpleas	Amasked	CS_B	1pleas	distractor2	acq_new_unple_nomask	acq2_nomask	19	6	480	0	300	300	0	0	727	46	7,8125	1	0	0	0	1	blank2r.bmp	0	1	+	0	1	blank2r.bmp	370	4	B4r.bmp	370	1	blank2r.bmp	430	3	fanatisch	650	1	!	1089	1	!	-1	0	0	0	0	0	0	0	0	0	0	0	0	0	0	0	0	0	0	0	0	0	0	0	0	0	0	0	0	0	0
120518	12:19:55	12:27:19	440585	5.0.10.0	4_exp_EVA_AMP_AWA_CON	997	Rpleas_acq	Oppo	Rpleas	Amasked	CS_B	1pleas	distractor2	acq_new_pleas_nomask	acq2_nomask	19	7	480	1	300	300	0	0	482	50	7,8125	1	0	0	0	1	blank2r.bmp	0	1	+	0	1	blank2r.bmp	370	5	C1r.bmp	370	1	blank2r.bmp	430	2	treu	650	1	!	1089	1	!	1159	0	0	0	0	0	0	0	0	0	0	0	0	0	0	0	0	0	0	0	0	0	0	0	0	0	0	0	0	0	0
120518	12:19:55	12:27:21	442855	5.0.10.0	4_exp_EVA_AMP_AWA_CON	997	Rpleas_acq	Oppo	Rpleas	Amasked	CS_B	1pleas	distractor2	acq_US_unple_nomask	acq2_nomask	19	8	480	0	300	300	0	0	706	46	7,8125	1	0	0	0	1	blank2r.bmp	0	1	+	0	1	blank2r.bmp	370	1	GKQX	370	1	blank2r.bmp	430	4	hindern	650	1	!	1089	1	!	-1	0	0	0	0	0	0	0	0	0	0	0	0	0	0	0	0	0	0	0	0	0	0	0	0	0	0	0	0	0	0
120518	12:19:55	12:27:23	445004	5.0.10.0	4_exp_EVA_AMP_AWA_CON	997	Rpleas_acq	Oppo	Rpleas	Amasked	CS_B	1pleas	distractor2	acq_new_unple_nomask	acq2_nomask	19	9	480	0	300	300	0	0	599	46	7,8125	1	0	0	0	1	blank2r.bmp	0	1	+	0	1	blank2r.bmp	370	2	B2r.bmp	370	1	blank2r.bmp	430	6	strafen	650	1	!	1089	1	!	-1	0	0	0	0	0	0	0	0	0	0	0	0	0	0	0	0	0	0	0	0	0	0	0	0	0	0	0	0	0	0
120518	12:19:55	12:27:26	447424	5.0.10.0	4_exp_EVA_AMP_AWA_CON	997	Rpleas_acq	Oppo	Rpleas	Amasked	CS_B	1pleas	distractor2	acq_US_unple_nomask	acq2_nomask	19	10	480	0	300	300	0	0	667	50	7,8125	0	0	0	0	1	blank2r.bmp	0	1	+	0	1	blank2r.bmp	370	1	GKQX	370	1	blank2r.bmp	430	1	eitel	650	1	FEHLER	1639	1	!	1089	1	!	-1	0	0	0	0	0	0	0	0	0	0	0	0	0	0	0	0	0	0	0	0	0	0	0	0	0	0	0
120518	12:19:55	12:27:28	449384	5.0.10.0	4_exp_EVA_AMP_AWA_CON	997	Rpleas_acq	Oppo	Rpleas	Amasked	CS_B	1pleas	distractor2	acq_new_unple_nomask	acq2_nomask	19	11	480	0	300	300	0	0	600	46	7,8125	1	0	0	0	1	blank2r.bmp	0	1	+	0	1	blank2r.bmp	370	1	B1r.bmp	370	1	blank2r.bmp	430	5	faul	650	1	!	1089	1	!	-1	0	0	0	0	0	0	0	0	0	0	0	0	0	0	0	0	0	0	0	0	0	0	0	0	0	0	0	0	0	0
120518	12:19:55	12:27:30	451304	5.0.10.0	4_exp_EVA_AMP_AWA_CON	997	Rpleas_acq	Oppo	Rpleas	Amasked	CS_B	1pleas	distractor2	acq_US_pleas_nomask	acq2_nomask	19	12	480	0	300	300	0	0	350	50	7,8125	1	0	0	0	1	blank2r.bmp	0	1	+	0	1	blank2r.bmp	370	1	BMVZ	370	1	blank2r.bmp	430	3	schön	650	1	!	-1	1	!	-1	0	0	0	0	0	0	0	0	0	0	0	0	0	0	0	0	0	0	0	0	0	0	0	0	0	0	0	0	0	0
120518	12:19:55	12:27:32	453424	5.0.10.0	4_exp_EVA_AMP_AWA_CON	997	Rpleas_acq	Oppo	Rpleas	Amasked	CS_B	1pleas	distractor2	acq_new_pleas_nomask	acq2_nomask	19	13	480	0	300	300	0	0	561	50	7,8125	1	0	0	0	1	blank2r.bmp	0	1	+	0	1	blank2r.bmp	370	7	C3r.bmp	370	1	blank2r.bmp	430	5	fair	650	1	!	1089	1	!	-1	0	0	0	0	0	0	0	0	0	0	0	0	0	0	0	0	0	0	0	0	0	0	0	0	0	0	0	0	0	0
120518	12:19:55	12:27:34	455514	5.0.10.0	4_exp_EVA_AMP_AWA_CON	997	Rpleas_acq	Oppo	Rpleas	Amasked	CS_B	1pleas	distractor2	acq_new_unple_nomask	acq2_nomask	19	14	480	1	300	300	0	0	513	46	7,8125	1	0	0	0	1	blank2r.bmp	0	1	+	0	1	blank2r.bmp	370	8	C4r.bmp	370	1	blank2r.bmp	430	1	rächen	650	1	!	1089	1	!	1189	0	0	0	0	0	0	0	0	0	0	0	0	0	0	0	0	0	0	0	0	0	0	0	0	0	0	0	0	0	0
120518	12:19:55	12:27:36	457704	5.0.10.0	4_exp_EVA_AMP_AWA_CON	997	Rpleas_acq	Oppo	Rpleas	Amasked	CS_B	1pleas	distractor2	acq_US_pleas_nomask	acq2_nomask	19	15	480	0	300	300	0	0	623	50	7,8125	1	0	0	0	1	blank2r.bmp	0	1	+	0	1	blank2r.bmp	370	1	BMVZ	370	1	blank2r.bmp	430	4	helfen	650	1	!	1089	1	!	-1	0	0	0	0	0	0	0	0	0	0	0	0	0	0	0	0	0	0	0	0	0	0	0	0	0	0	0	0	0	0
120518	12:19:55	12:27:38	460054	5.0.10.0	4_exp_EVA_AMP_AWA_CON	997	Rpleas_acq	Oppo	Rpleas	Amasked	CS_B	1pleas	distractor2	acq_US_unple_nomask	acq2_nomask	19	16	480	0	300	300	0	0	789	46	7,8125	1	0	0	0	1	blank2r.bmp	0	1	+	0	1	blank2r.bmp	370	1	GKQX	370	1	blank2r.bmp	430	2	schroff	650	1	!	1089	1	!	-1	0	0	0	0	0	0	0	0	0	0	0	0	0	0	0	0	0	0	0	0	0	0	0	0	0	0	0	0	0	0
120518	12:19:55	12:27:41	462234	5.0.10.0	4_exp_EVA_AMP_AWA_CON	997	Rpleas_acq	Oppo	Rpleas	Amasked	CS_B	1pleas	distractor2	acq_new_pleas_nomask	acq2_nomask	19	17	480	0	300	300	0	0	610	50	7,8125	1	0	0	0	1	blank2r.bmp	0	1	+	0	1	blank2r.bmp	370	6	C2r.bmp	370	1	blank2r.bmp	430	3	freundlich	650	1	!	1089	1	!	-1	0	0	0	0	0	0	0	0	0	0	0	0	0	0	0	0	0	0	0	0	0	0	0	0	0	0	0	0	0	0
120518	12:19:55	12:27:43	464334	5.0.10.0	4_exp_EVA_AMP_AWA_CON	997	Rpleas_acq	Oppo	Rpleas	Amasked	CS_B	1pleas	distractor2	acq_US_pleas_nomask	acq2_nomask	19	18	480	1	300	300	0	0	535	50	7,8125	1	0	0	0	1	blank2r.bmp	0	1	+	0	1	blank2r.bmp	370	1	BMVZ	370	1	blank2r.bmp	430	1	ehrlich	650	1	!	1089	1	!	1209	0	0	0	0	0	0	0	0	0	0	0	0	0	0	0	0	0	0	0	0	0	0	0	0	0	0	0	0	0	0
120518	12:19:55	12:27:45	466504	5.0.10.0	4_exp_EVA_AMP_AWA_CON	997	Rpleas_acq	Oppo	Rpleas	Amasked	CS_B	1pleas	distractor2	acq_new_pleas_nomask	acq2_nomask	19	19	480	0	300	300	0	0	612	50	7,8125	1	0	0	0	1	blank2r.bmp	0	1	+	0	1	blank2r.bmp	370	3	B3r.bmp	370	1	blank2r.bmp	430	4	lachen	650	1	!	1089	1	!	-1	0	0	0	0	0	0	0	0	0	0	0	0	0	0	0	0	0	0	0	0	0	0	0	0	0	0	0	0	0	0
120518	12:19:55	12:27:47	468834	5.0.10.0	4_exp_EVA_AMP_AWA_CON	997	Rpleas_acq	Oppo	Rpleas	Amasked	CS_B	1pleas	distractor2	acq_new_unple_nomask	acq2_nomask	19	20	480	0	300	300	0	0	560	50	7,8125	0	0	0	0	1	blank2r.bmp	0	1	+	0	1	blank2r.bmp	370	1	B1r.bmp	370	1	blank2r.bmp	430	5	faul	650	1	FEHLER	1539	1	!	1089	1	!	-1	0	0	0	0	0	0	0	0	0	0	0	0	0	0	0	0	0	0	0	0	0	0	0	0	0	0	0
120518	12:19:55	12:27:49	470724	5.0.10.0	4_exp_EVA_AMP_AWA_CON	997	Rpleas_acq	Oppo	Rpleas	Amasked	CS_B	1pleas	distractor2	acq_US_pleas_nomask	acq2_nomask	19	21	480	1	300	300	0	0	536	50	7,8125	1	0	0	0	1	blank2r.bmp	0	1	+	0	1	blank2r.bmp	370	1	BMVZ	370	1	blank2r.bmp	430	2	schlau	650	1	!	1089	1	!	1209	0	0	0	0	0	0	0	0	0	0	0	0	0	0	0	0	0	0	0	0	0	0	0	0	0	0	0	0	0	0
120518	12:19:55	12:27:51	472734	5.0.10.0	4_exp_EVA_AMP_AWA_CON	997	Rpleas_acq	Oppo	Rpleas	Amasked	CS_B	1pleas	distractor2	acq_new_unple_nomask	acq2_nomask	19	22	480	1	300	300	0	0	438	46	7,8125	1	0	0	0	1	blank2r.bmp	0	1	+	0	1	blank2r.bmp	370	8	C4r.bmp	370	1	blank2r.bmp	430	6	strafen	650	1	!	1089	1	!	1109	0	0	0	0	0	0	0	0	0	0	0	0	0	0	0	0	0	0	0	0	0	0	0	0	0	0	0	0	0	0
120518	12:19:55	12:27:53	474834	5.0.10.0	4_exp_EVA_AMP_AWA_CON	997	Rpleas_acq	Oppo	Rpleas	Amasked	CS_B	1pleas	distractor2	acq_US_unple_nomask	acq2_nomask	19	23	480	1	300	300	0	0	528	46	7,8125	1	0	0	0	1	blank2r.bmp	0	1	+	0	1	blank2r.bmp	370	1	GKQX	370	1	blank2r.bmp	430	5	tyrannisch	650	1	!	1089	1	!	1199	0	0	0	0	0	0	0	0	0	0	0	0	0	0	0	0	0	0	0	0	0	0	0	0	0	0	0	0	0	0
120518	12:19:55	12:27:55	477063	5.0.10.0	4_exp_EVA_AMP_AWA_CON	997	Rpleas_acq	Oppo	Rpleas	Amasked	CS_B	1pleas	distractor2	acq_US_unple_nomask	acq2_nomask	19	24	480	1	300	300	0	0	456	50	7,8125	0	0	0	0	1	blank2r.bmp	0	1	+	0	1	blank2r.bmp	370	1	GKQX	370	1	blank2r.bmp	430	6	lasch	650	1	FEHLER	1439	1	!	1089	1	!	1129	0	0	0	0	0	0	0	0	0	0	0	0	0	0	0	0	0	0	0	0	0	0	0	0	0	0	0
120518	12:19:55	12:27:57	479203	5.0.10.0	4_exp_EVA_AMP_AWA_CON	997	Rpleas_acq	Oppo	Rpleas	Amasked	CS_B	1pleas	distractor2	acq_new_unple_nomask	acq2_nomask	19	25	480	0	300	300	0	0	788	46	7,8125	1	0	0	0	1	blank2r.bmp	0	1	+	0	1	blank2r.bmp	370	2	B2r.bmp	370	1	blank2r.bmp	430	2	tot	650	1	!	1089	1	!	-1	0	0	0	0	0	0	0	0	0	0	0	0	0	0	0	0	0	0	0	0	0	0	0	0	0	0	0	0	0	0
120518	12:19:55	12:27:59	481153	5.0.10.0	4_exp_EVA_AMP_AWA_CON	997	Rpleas_acq	Oppo	Rpleas	Amasked	CS_B	1pleas	distractor2	acq_US_unple_nomask	acq2_nomask	19	26	480	0	300	300	0	0	389	46	7,8125	1	0	0	0	1	blank2r.bmp	0	1	+	0	1	blank2r.bmp	370	1	GKQX	370	1	blank2r.bmp	430	3	schlecht	650	1	!	-1	1	!	-1	0	0	0	0	0	0	0	0	0	0	0	0	0	0	0	0	0	0	0	0	0	0	0	0	0	0	0	0	0	0
120518	12:19:55	12:28:01	483043	5.0.10.0	4_exp_EVA_AMP_AWA_CON	997	Rpleas_acq	Oppo	Rpleas	Amasked	CS_B	1pleas	distractor2	acq_new_unple_nomask	acq2_nomask	19	27	480	0	300	300	0	0	331	46	7,8125	1	0	0	0	1	blank2r.bmp	0	1	+	0	1	blank2r.bmp	370	5	C1r.bmp	370	1	blank2r.bmp	430	3	fanatisch	650	1	!	-1	1	!	-1	0	0	0	0	0	0	0	0	0	0	0	0	0	0	0	0	0	0	0	0	0	0	0	0	0	0	0	0	0	0
120518	12:19:55	12:28:03	485203	5.0.10.0	4_exp_EVA_AMP_AWA_CON	997	Rpleas_acq	Oppo	Rpleas	Amasked	CS_B	1pleas	distractor2	acq_US_pleas_nomask	acq2_nomask	19	28	480	0	300	300	0	0	605	50	7,8125	1	0	0	0	1	blank2r.bmp	0	1	+	0	1	blank2r.bmp	370	1	BMVZ	370	1	blank2r.bmp	430	5	tolerant	650	1	!	1089	1	!	-1	0	0	0	0	0	0	0	0	0	0	0	0	0	0	0	0	0	0	0	0	0	0	0	0	0	0	0	0	0	0
120518	12:19:55	12:28:06	487483	5.0.10.0	4_exp_EVA_AMP_AWA_CON	997	Rpleas_acq	Oppo	Rpleas	Amasked	CS_B	1pleas	distractor2	acq_US_unple_nomask	acq2_nomask	19	29	480	1	300	300	0	0	503	50	7,8125	0	0	0	0	1	blank2r.bmp	0	1	+	0	1	blank2r.bmp	370	1	GKQX	370	1	blank2r.bmp	430	1	eitel	650	1	FEHLER	1489	1	!	1089	1	!	1179	0	0	0	0	0	0	0	0	0	0	0	0	0	0	0	0	0	0	0	0	0	0	0	0	0	0	0
120518	12:19:55	12:28:08	489643	5.0.10.0	4_exp_EVA_AMP_AWA_CON	997	Rpleas_acq	Oppo	Rpleas	Amasked	CS_B	1pleas	distractor2	acq_US_pleas_nomask	acq2_nomask	19	30	480	0	300	300	0	0	803	50	7,8125	1	0	0	0	1	blank2r.bmp	0	1	+	0	1	blank2r.bmp	370	1	BMVZ	370	1	blank2r.bmp	430	3	schön	650	1	!	1089	1	!	-1	0	0	0	0	0	0	0	0	0	0	0	0	0	0	0	0	0	0	0	0	0	0	0	0	0	0	0	0	0	0
120518	12:19:55	12:28:10	492143	5.0.10.0	4_exp_EVA_AMP_AWA_CON	997	Rpleas_acq	Oppo	Rpleas	Amasked	CS_B	1pleas	distractor2	acq_US_unple_nomask	acq2_nomask	19	31	480	0	300	300	0	0	732	50	7,8125	0	0	0	0	1	blank2r.bmp	0	1	+	0	1	blank2r.bmp	370	1	GKQX	370	1	blank2r.bmp	430	4	hindern	650	1	FEHLER	1709	1	!	1089	1	!	-1	0	0	0	0	0	0	0	0	0	0	0	0	0	0	0	0	0	0	0	0	0	0	0	0	0	0	0
120518	12:19:55	12:28:12	494053	5.0.10.0	4_exp_EVA_AMP_AWA_CON	997	Rpleas_acq	Oppo	Rpleas	Amasked	CS_B	1pleas	distractor2	acq_new_pleas_nomask	acq2_nomask	19	32	480	0	300	300	0	0	560	50	7,8125	1	0	0	0	1	blank2r.bmp	0	1	+	0	1	blank2r.bmp	370	4	B4r.bmp	370	1	blank2r.bmp	430	2	treu	650	1	!	1089	1	!	-1	0	0	0	0	0	0	0	0	0	0	0	0	0	0	0	0	0	0	0	0	0	0	0	0	0	0	0	0	0	0
120518	12:19:55	12:28:14	496123	5.0.10.0	4_exp_EVA_AMP_AWA_CON	997	Rpleas_acq	Oppo	Rpleas	Amasked	CS_B	1pleas	distractor2	acq_new_unple_nomask	acq2_nomask	19	33	480	1	300	300	0	0	504	46	7,8125	1	0	0	0	1	blank2r.bmp	0	1	+	0	1	blank2r.bmp	370	6	C2r.bmp	370	1	blank2r.bmp	430	4	leiden	650	1	!	1089	1	!	1179	0	0	0	0	0	0	0	0	0	0	0	0	0	0	0	0	0	0	0	0	0	0	0	0	0	0	0	0	0	0
120518	12:19:55	12:28:17	498283	5.0.10.0	4_exp_EVA_AMP_AWA_CON	997	Rpleas_acq	Oppo	Rpleas	Amasked	CS_B	1pleas	distractor2	acq_US_pleas_nomask	acq2_nomask	19	34	480	0	300	300	0	0	606	50	7,8125	1	0	0	0	1	blank2r.bmp	0	1	+	0	1	blank2r.bmp	370	1	BMVZ	370	1	blank2r.bmp	430	6	loyal	650	1	!	1089	1	!	-1	0	0	0	0	0	0	0	0	0	0	0	0	0	0	0	0	0	0	0	0	0	0	0	0	0	0	0	0	0	0
120518	12:19:55	12:28:19	500403	5.0.10.0	4_exp_EVA_AMP_AWA_CON	997	Rpleas_acq	Oppo	Rpleas	Amasked	CS_B	1pleas	distractor2	acq_new_pleas_nomask	acq2_nomask	19	35	480	0	300	300	0	0	560	50	7,8125	1	0	0	0	1	blank2r.bmp	0	1	+	0	1	blank2r.bmp	370	7	C3r.bmp	370	1	blank2r.bmp	430	6	spielen	650	1	!	1089	1	!	-1	0	0	0	0	0	0	0	0	0	0	0	0	0	0	0	0	0	0	0	0	0	0	0	0	0	0	0	0	0	0
120518	12:19:55	12:28:21	502833	5.0.10.0	4_exp_EVA_AMP_AWA_CON	997	Rpleas_acq	Oppo	Rpleas	Amasked	CS_B	1pleas	distractor2	acq_new_pleas_nomask	acq2_nomask	19	36	480	0	300	300	0	0	871	50	7,8125	1	0	0	0	1	blank2r.bmp	0	1	+	0	1	blank2r.bmp	370	3	B3r.bmp	370	1	blank2r.bmp	430	1	retten	650	1	!	1089	1	!	-1	0	0	0	0	0	0	0	0	0	0	0	0	0	0	0	0	0	0	0	0	0	0	0	0	0	0	0	0	0	0
120518	12:19:55	12:28:26	507982	5.0.10.0	4_exp_EVA_AMP_AWA_CON	997	Rpleas_acq	Oppo	Rpleas	Amasked	CS_B	1pleas	distractor2	acq_US_unple_nomask	acq3_nomask	20	1	453	0	300	300	0	0	618	46	7,8125	1	0	0	0	1	blank2r.bmp	0	1	+	0	1	blank2r.bmp	370	1	GKQX	370	1	blank2r.bmp	430	4	hindern	650	1	!	1069	1	!	-1	0	0	0	0	0	0	0	0	0	0	0	0	0	0	0	0	0	0	0	0	0	0	0	0	0	0	0	0	0	0
120518	12:19:55	12:28:28	510122	5.0.10.0	4_exp_EVA_AMP_AWA_CON	997	Rpleas_acq	Oppo	Rpleas	Amasked	CS_B	1pleas	distractor2	acq_US_unple_nomask	acq3_nomask	20	2	453	0	300	300	0	0	584	46	7,8125	1	0	0	0	1	blank2r.bmp	0	1	+	0	1	blank2r.bmp	370	1	GKQX	370	1	blank2r.bmp	430	1	eitel	650	1	!	1069	1	!	-1	0	0	0	0	0	0	0	0	0	0	0	0	0	0	0	0	0	0	0	0	0	0	0	0	0	0	0	0	0	0
120518	12:19:55	12:28:30	512142	5.0.10.0	4_exp_EVA_AMP_AWA_CON	997	Rpleas_acq	Oppo	Rpleas	Amasked	CS_B	1pleas	distractor2	acq_US_unple_nomask	acq3_nomask	20	3	453	1	300	300	0	0	456	46	7,8125	1	0	0	0	1	blank2r.bmp	0	1	+	0	1	blank2r.bmp	370	1	GKQX	370	1	blank2r.bmp	430	5	tyrannisch	650	1	!	1069	1	!	1129	0	0	0	0	0	0	0	0	0	0	0	0	0	0	0	0	0	0	0	0	0	0	0	0	0	0	0	0	0	0
120518	12:19:55	12:28:32	514202	5.0.10.0	4_exp_EVA_AMP_AWA_CON	997	Rpleas_acq	Oppo	Rpleas	Amasked	CS_B	1pleas	distractor2	acq_US_pleas_nomask	acq3_nomask	20	4	453	1	300	300	0	0	480	50	7,8125	1	0	0	0	1	blank2r.bmp	0	1	+	0	1	blank2r.bmp	370	1	BMVZ	370	1	blank2r.bmp	430	3	schön	650	1	!	1069	1	!	1159	0	0	0	0	0	0	0	0	0	0	0	0	0	0	0	0	0	0	0	0	0	0	0	0	0	0	0	0	0	0
120518	12:19:55	12:28:35	516392	5.0.10.0	4_exp_EVA_AMP_AWA_CON	997	Rpleas_acq	Oppo	Rpleas	Amasked	CS_B	1pleas	distractor2	acq_US_unple_nomask	acq3_nomask	20	5	453	0	300	300	0	0	619	46	7,8125	1	0	0	0	1	blank2r.bmp	0	1	+	0	1	blank2r.bmp	370	1	GKQX	370	1	blank2r.bmp	430	2	schroff	650	1	!	1069	1	!	-1	0	0	0	0	0	0	0	0	0	0	0	0	0	0	0	0	0	0	0	0	0	0	0	0	0	0	0	0	0	0
120518	12:19:55	12:28:37	518482	5.0.10.0	4_exp_EVA_AMP_AWA_CON	997	Rpleas_acq	Oppo	Rpleas	Amasked	CS_B	1pleas	distractor2	acq_US_pleas_nomask	acq3_nomask	20	6	453	0	300	300	0	0	530	50	7,8125	1	0	0	0	1	blank2r.bmp	0	1	+	0	1	blank2r.bmp	370	1	BMVZ	370	1	blank2r.bmp	430	2	schlau	650	1	!	1069	1	!	-1	0	0	0	0	0	0	0	0	0	0	0	0	0	0	0	0	0	0	0	0	0	0	0	0	0	0	0	0	0	0
120518	12:19:55	12:28:39	520402	5.0.10.0	4_exp_EVA_AMP_AWA_CON	997	Rpleas_acq	Oppo	Rpleas	Amasked	CS_B	1pleas	distractor2	acq_US_unple_nomask	acq3_nomask	20	7	453	0	300	300	0	0	363	46	7,8125	1	0	0	0	1	blank2r.bmp	0	1	+	0	1	blank2r.bmp	370	1	GKQX	370	1	blank2r.bmp	430	3	schlecht	650	1	!	-1	1	!	-1	0	0	0	0	0	0	0	0	0	0	0	0	0	0	0	0	0	0	0	0	0	0	0	0	0	0	0	0	0	0
120518	12:19:55	12:28:41	522772	5.0.10.0	4_exp_EVA_AMP_AWA_CON	997	Rpleas_acq	Oppo	Rpleas	Amasked	CS_B	1pleas	distractor2	acq_US_unple_nomask	acq3_nomask	20	8	453	0	300	300	0	0	599	50	7,8125	0	0	0	0	1	blank2r.bmp	0	1	+	0	1	blank2r.bmp	370	1	GKQX	370	1	blank2r.bmp	430	6	lasch	650	1	FEHLER	1579	1	!	1069	1	!	-1	0	0	0	0	0	0	0	0	0	0	0	0	0	0	0	0	0	0	0	0	0	0	0	0	0	0	0
120518	12:19:55	12:28:44	526052	5.0.10.0	4_exp_EVA_AMP_AWA_CON	997	Rpleas_acq	Oppo	Rpleas	Amasked	CS_B	1pleas	distractor2	acq_US_pleas_nomask	acq3_nomask	20	9	453	0	300	300	0	0	1921	50	7,8125	1	0	0	0	1	blank2r.bmp	0	1	+	0	1	blank2r.bmp	370	1	BMVZ	370	1	blank2r.bmp	430	4	helfen	650	1	!	1069	1	!	-1	0	0	0	0	0	0	0	0	0	0	0	0	0	0	0	0	0	0	0	0	0	0	0	0	0	0	0	0	0	0
120518	12:19:55	12:28:46	528052	5.0.10.0	4_exp_EVA_AMP_AWA_CON	997	Rpleas_acq	Oppo	Rpleas	Amasked	CS_B	1pleas	distractor2	acq_US_pleas_nomask	acq3_nomask	20	10	453	1	300	300	0	0	434	50	7,8125	1	0	0	0	1	blank2r.bmp	0	1	+	0	1	blank2r.bmp	370	1	BMVZ	370	1	blank2r.bmp	430	1	ehrlich	650	1	!	1069	1	!	1109	0	0	0	0	0	0	0	0	0	0	0	0	0	0	0	0	0	0	0	0	0	0	0	0	0	0	0	0	0	0
120518	12:19:55	12:28:48	530002	5.0.10.0	4_exp_EVA_AMP_AWA_CON	997	Rpleas_acq	Oppo	Rpleas	Amasked	CS_B	1pleas	distractor2	acq_US_pleas_nomask	acq3_nomask	20	11	453	0	300	300	0	0	383	50	7,8125	1	0	0	0	1	blank2r.bmp	0	1	+	0	1	blank2r.bmp	370	1	BMVZ	370	1	blank2r.bmp	430	5	tolerant	650	1	!	-1	1	!	-1	0	0	0	0	0	0	0	0	0	0	0	0	0	0	0	0	0	0	0	0	0	0	0	0	0	0	0	0	0	0
120518	12:19:55	12:28:51	532262	5.0.10.0	4_exp_EVA_AMP_AWA_CON	997	Rpleas_acq	Oppo	Rpleas	Amasked	CS_B	1pleas	distractor2	acq_US_pleas_nomask	acq3_nomask	20	12	453	0	300	300	0	0	696	50	7,8125	1	0	0	0	1	blank2r.bmp	0	1	+	0	1	blank2r.bmp	370	1	BMVZ	370	1	blank2r.bmp	430	6	loyal	650	1	!	1069	1	!	-1	0	0	0	0	0	0	0	0	0	0	0	0	0	0	0	0	0	0	0	0	0	0	0	0	0	0	0	0	0	0
120518	12:19:55	12:28:52	534202	5.0.10.0	4_exp_EVA_AMP_AWA_CON	997	Rpleas_acq	Oppo	Rpleas	Amasked	CS_B	1pleas	distractor2	acq_US_pleas_nomask	acq3_nomask	20	13	453	0	300	300	0	0	385	50	7,8125	1	0	0	0	1	blank2r.bmp	0	1	+	0	1	blank2r.bmp	370	1	BMVZ	370	1	blank2r.bmp	430	1	ehrlich	650	1	!	-1	1	!	-1	0	0	0	0	0	0	0	0	0	0	0	0	0	0	0	0	0	0	0	0	0	0	0	0	0	0	0	0	0	0
120518	12:19:55	12:28:55	536332	5.0.10.0	4_exp_EVA_AMP_AWA_CON	997	Rpleas_acq	Oppo	Rpleas	Amasked	CS_B	1pleas	distractor2	acq_US_unple_nomask	acq3_nomask	20	14	453	0	300	300	0	0	566	46	7,8125	1	0	0	0	1	blank2r.bmp	0	1	+	0	1	blank2r.bmp	370	1	GKQX	370	1	blank2r.bmp	430	4	hindern	650	1	!	1069	1	!	-1	0	0	0	0	0	0	0	0	0	0	0	0	0	0	0	0	0	0	0	0	0	0	0	0	0	0	0	0	0	0
120518	12:19:55	12:28:57	538311	5.0.10.0	4_exp_EVA_AMP_AWA_CON	997	Rpleas_acq	Oppo	Rpleas	Amasked	CS_B	1pleas	distractor2	acq_US_pleas_nomask	acq3_nomask	20	15	453	1	300	300	0	0	415	50	7,8125	1	0	0	0	1	blank2r.bmp	0	1	+	0	1	blank2r.bmp	370	1	BMVZ	370	1	blank2r.bmp	430	3	schön	650	1	!	1069	1	!	1089	0	0	0	0	0	0	0	0	0	0	0	0	0	0	0	0	0	0	0	0	0	0	0	0	0	0	0	0	0	0
120518	12:19:55	12:28:59	540401	5.0.10.0	4_exp_EVA_AMP_AWA_CON	997	Rpleas_acq	Oppo	Rpleas	Amasked	CS_B	1pleas	distractor2	acq_US_pleas_nomask	acq3_nomask	20	16	453	0	300	300	0	0	538	50	7,8125	1	0	0	0	1	blank2r.bmp	0	1	+	0	1	blank2r.bmp	370	1	BMVZ	370	1	blank2r.bmp	430	2	schlau	650	1	!	1069	1	!	-1	0	0	0	0	0	0	0	0	0	0	0	0	0	0	0	0	0	0	0	0	0	0	0	0	0	0	0	0	0	0
120518	12:19:55	12:29:01	542541	5.0.10.0	4_exp_EVA_AMP_AWA_CON	997	Rpleas_acq	Oppo	Rpleas	Amasked	CS_B	1pleas	distractor2	acq_US_unple_nomask	acq3_nomask	20	17	453	0	300	300	0	0	584	46	7,8125	1	0	0	0	1	blank2r.bmp	0	1	+	0	1	blank2r.bmp	370	1	GKQX	370	1	blank2r.bmp	430	3	schlecht	650	1	!	1069	1	!	-1	0	0	0	0	0	0	0	0	0	0	0	0	0	0	0	0	0	0	0	0	0	0	0	0	0	0	0	0	0	0
120518	12:19:55	12:29:03	544661	5.0.10.0	4_exp_EVA_AMP_AWA_CON	997	Rpleas_acq	Oppo	Rpleas	Amasked	CS_B	1pleas	distractor2	acq_US_pleas_nomask	acq3_nomask	20	18	453	0	300	300	0	0	353	46	7,8125	0	0	0	0	1	blank2r.bmp	0	1	+	0	1	blank2r.bmp	370	1	BMVZ	370	1	blank2r.bmp	430	5	tolerant	650	1	FEHLER	1329	1	!	-1	1	!	-1	0	0	0	0	0	0	0	0	0	0	0	0	0	0	0	0	0	0	0	0	0	0	0	0	0	0	0
120518	12:19:55	12:29:06	548121	5.0.10.0	4_exp_EVA_AMP_AWA_CON	997	Rpleas_acq	Oppo	Rpleas	Amasked	CS_B	1pleas	distractor2	acq_US_pleas_nomask	acq3_nomask	20	19	453	0	300	300	0	0	2102	50	7,8125	1	0	0	0	1	blank2r.bmp	0	1	+	0	1	blank2r.bmp	370	1	BMVZ	370	1	blank2r.bmp	430	4	helfen	650	1	!	1069	1	!	-1	0	0	0	0	0	0	0	0	0	0	0	0	0	0	0	0	0	0	0	0	0	0	0	0	0	0	0	0	0	0
120518	12:19:55	12:29:08	549981	5.0.10.0	4_exp_EVA_AMP_AWA_CON	997	Rpleas_acq	Oppo	Rpleas	Amasked	CS_B	1pleas	distractor2	acq_US_pleas_nomask	acq3_nomask	20	20	453	0	300	300	0	0	307	50	7,8125	1	0	0	0	1	blank2r.bmp	0	1	+	0	1	blank2r.bmp	370	1	BMVZ	370	1	blank2r.bmp	430	6	loyal	650	1	!	-1	1	!	-1	0	0	0	0	0	0	0	0	0	0	0	0	0	0	0	0	0	0	0	0	0	0	0	0	0	0	0	0	0	0
120518	12:19:55	12:29:10	552071	5.0.10.0	4_exp_EVA_AMP_AWA_CON	997	Rpleas_acq	Oppo	Rpleas	Amasked	CS_B	1pleas	distractor2	acq_US_unple_nomask	acq3_nomask	20	21	453	1	300	300	0	0	520	46	7,8125	1	0	0	0	1	blank2r.bmp	0	1	+	0	1	blank2r.bmp	370	1	GKQX	370	1	blank2r.bmp	430	2	schroff	650	1	!	1069	1	!	1199	0	0	0	0	0	0	0	0	0	0	0	0	0	0	0	0	0	0	0	0	0	0	0	0	0	0	0	0	0	0
120518	12:19:55	12:29:12	554211	5.0.10.0	4_exp_EVA_AMP_AWA_CON	997	Rpleas_acq	Oppo	Rpleas	Amasked	CS_B	1pleas	distractor2	acq_US_unple_nomask	acq3_nomask	20	22	453	0	300	300	0	0	582	46	7,8125	1	0	0	0	1	blank2r.bmp	0	1	+	0	1	blank2r.bmp	370	1	GKQX	370	1	blank2r.bmp	430	6	lasch	650	1	!	1069	1	!	-1	0	0	0	0	0	0	0	0	0	0	0	0	0	0	0	0	0	0	0	0	0	0	0	0	0	0	0	0	0	0
120518	12:19:55	12:29:15	556331	5.0.10.0	4_exp_EVA_AMP_AWA_CON	997	Rpleas_acq	Oppo	Rpleas	Amasked	CS_B	1pleas	distractor2	acq_US_unple_nomask	acq3_nomask	20	23	453	0	300	300	0	0	564	46	7,8125	1	0	0	0	1	blank2r.bmp	0	1	+	0	1	blank2r.bmp	370	1	GKQX	370	1	blank2r.bmp	430	5	tyrannisch	650	1	!	1069	1	!	-1	0	0	0	0	0	0	0	0	0	0	0	0	0	0	0	0	0	0	0	0	0	0	0	0	0	0	0	0	0	0
120518	12:19:55	12:29:17	558551	5.0.10.0	4_exp_EVA_AMP_AWA_CON	997	Rpleas_acq	Oppo	Rpleas	Amasked	CS_B	1pleas	distractor2	acq_US_unple_nomask	acq3_nomask	20	24	453	1	300	300	0	0	449	50	7,8125	0	0	0	0	1	blank2r.bmp	0	1	+	0	1	blank2r.bmp	370	1	GKQX	370	1	blank2r.bmp	430	1	eitel	650	1	FEHLER	1429	1	!	1069	1	!	1119	0	0	0	0	0	0	0	0	0	0	0	0	0	0	0	0	0	0	0	0	0	0	0	0	0	0	0
120518	12:19:55	12:29:19	560591	5.0.10.0	4_exp_EVA_AMP_AWA_CON	997	Rpleas_acq	Oppo	Rpleas	Amasked	CS_B	1pleas	distractor2	acq_US_pleas_nomask	acq3_nomask	20	25	453	0	300	300	0	0	693	50	7,8125	1	0	0	0	1	blank2r.bmp	0	1	+	0	1	blank2r.bmp	370	1	BMVZ	370	1	blank2r.bmp	430	6	loyal	650	1	!	1069	1	!	-1	0	0	0	0	0	0	0	0	0	0	0	0	0	0	0	0	0	0	0	0	0	0	0	0	0	0	0	0	0	0
120518	12:19:55	12:29:21	562681	5.0.10.0	4_exp_EVA_AMP_AWA_CON	997	Rpleas_acq	Oppo	Rpleas	Amasked	CS_B	1pleas	distractor2	acq_US_pleas_nomask	acq3_nomask	20	26	453	0	300	300	0	0	530	50	7,8125	1	0	0	0	1	blank2r.bmp	0	1	+	0	1	blank2r.bmp	370	1	BMVZ	370	1	blank2r.bmp	430	5	tolerant	650	1	!	1069	1	!	-1	0	0	0	0	0	0	0	0	0	0	0	0	0	0	0	0	0	0	0	0	0	0	0	0	0	0	0	0	0	0
120518	12:19:55	12:29:23	564621	5.0.10.0	4_exp_EVA_AMP_AWA_CON	997	Rpleas_acq	Oppo	Rpleas	Amasked	CS_B	1pleas	distractor2	acq_US_pleas_nomask	acq3_nomask	20	27	453	0	300	300	0	0	384	50	7,8125	1	0	0	0	1	blank2r.bmp	0	1	+	0	1	blank2r.bmp	370	1	BMVZ	370	1	blank2r.bmp	430	3	schön	650	1	!	-1	1	!	-1	0	0	0	0	0	0	0	0	0	0	0	0	0	0	0	0	0	0	0	0	0	0	0	0	0	0	0	0	0	0
120518	12:19:55	12:29:25	566441	5.0.10.0	4_exp_EVA_AMP_AWA_CON	997	Rpleas_acq	Oppo	Rpleas	Amasked	CS_B	1pleas	distractor2	acq_US_pleas_nomask	acq3_nomask	20	28	453	0	300	300	0	0	257	50	7,8125	1	0	0	0	1	blank2r.bmp	0	1	+	0	1	blank2r.bmp	370	1	BMVZ	370	1	blank2r.bmp	430	2	schlau	650	1	!	-1	1	!	-1	0	0	0	0	0	0	0	0	0	0	0	0	0	0	0	0	0	0	0	0	0	0	0	0	0	0	0	0	0	0
120518	12:19:55	12:29:27	568460	5.0.10.0	4_exp_EVA_AMP_AWA_CON	997	Rpleas_acq	Oppo	Rpleas	Amasked	CS_B	1pleas	distractor2	acq_US_unple_nomask	acq3_nomask	20	29	453	0	300	300	0	0	258	50	7,8125	0	0	0	0	1	blank2r.bmp	0	1	+	0	1	blank2r.bmp	370	1	GKQX	370	1	blank2r.bmp	430	5	tyrannisch	650	1	FEHLER	1229	1	!	-1	1	!	-1	0	0	0	0	0	0	0	0	0	0	0	0	0	0	0	0	0	0	0	0	0	0	0	0	0	0	0
120518	12:19:55	12:29:29	570560	5.0.10.0	4_exp_EVA_AMP_AWA_CON	997	Rpleas_acq	Oppo	Rpleas	Amasked	CS_B	1pleas	distractor2	acq_US_unple_nomask	acq3_nomask	20	30	453	0	300	300	0	0	547	50	7,8125	0	0	0	0	1	blank2r.bmp	0	1	+	0	1	blank2r.bmp	370	1	GKQX	370	1	blank2r.bmp	430	6	lasch	650	1	FEHLER	1519	1	!	1069	1	!	-1	0	0	0	0	0	0	0	0	0	0	0	0	0	0	0	0	0	0	0	0	0	0	0	0	0	0	0
120518	12:19:55	12:29:31	572470	5.0.10.0	4_exp_EVA_AMP_AWA_CON	997	Rpleas_acq	Oppo	Rpleas	Amasked	CS_B	1pleas	distractor2	acq_US_unple_nomask	acq3_nomask	20	31	453	0	300	300	0	0	564	46	7,8125	1	0	0	0	1	blank2r.bmp	0	1	+	0	1	blank2r.bmp	370	1	GKQX	370	1	blank2r.bmp	430	4	hindern	650	1	!	1069	1	!	-1	0	0	0	0	0	0	0	0	0	0	0	0	0	0	0	0	0	0	0	0	0	0	0	0	0	0	0	0	0	0
120518	12:19:55	12:29:33	574500	5.0.10.0	4_exp_EVA_AMP_AWA_CON	997	Rpleas_acq	Oppo	Rpleas	Amasked	CS_B	1pleas	distractor2	acq_US_pleas_nomask	acq3_nomask	20	32	453	1	300	300	0	0	468	50	7,8125	1	0	0	0	1	blank2r.bmp	0	1	+	0	1	blank2r.bmp	370	1	BMVZ	370	1	blank2r.bmp	430	1	ehrlich	650	1	!	1069	1	!	1139	0	0	0	0	0	0	0	0	0	0	0	0	0	0	0	0	0	0	0	0	0	0	0	0	0	0	0	0	0	0
120518	12:19:55	12:29:35	576650	5.0.10.0	4_exp_EVA_AMP_AWA_CON	997	Rpleas_acq	Oppo	Rpleas	Amasked	CS_B	1pleas	distractor2	acq_US_unple_nomask	acq3_nomask	20	33	453	0	300	300	0	0	591	46	7,8125	1	0	0	0	1	blank2r.bmp	0	1	+	0	1	blank2r.bmp	370	1	GKQX	370	1	blank2r.bmp	430	3	schlecht	650	1	!	1069	1	!	-1	0	0	0	0	0	0	0	0	0	0	0	0	0	0	0	0	0	0	0	0	0	0	0	0	0	0	0	0	0	0
120518	12:19:55	12:29:37	578980	5.0.10.0	4_exp_EVA_AMP_AWA_CON	997	Rpleas_acq	Oppo	Rpleas	Amasked	CS_B	1pleas	distractor2	acq_US_unple_nomask	acq3_nomask	20	34	453	0	300	300	0	0	566	50	7,8125	0	0	0	0	1	blank2r.bmp	0	1	+	0	1	blank2r.bmp	370	1	GKQX	370	1	blank2r.bmp	430	1	eitel	650	1	FEHLER	1539	1	!	1069	1	!	-1	0	0	0	0	0	0	0	0	0	0	0	0	0	0	0	0	0	0	0	0	0	0	0	0	0	0	0
120518	12:19:55	12:29:39	581050	5.0.10.0	4_exp_EVA_AMP_AWA_CON	997	Rpleas_acq	Oppo	Rpleas	Amasked	CS_B	1pleas	distractor2	acq_US_pleas_nomask	acq3_nomask	20	35	453	0	300	300	0	0	718	50	7,8125	1	0	0	0	1	blank2r.bmp	0	1	+	0	1	blank2r.bmp	370	1	BMVZ	370	1	blank2r.bmp	430	4	helfen	650	1	!	1069	1	!	-1	0	0	0	0	0	0	0	0	0	0	0	0	0	0	0	0	0	0	0	0	0	0	0	0	0	0	0	0	0	0
120518	12:19:55	12:29:41	582940	5.0.10.0	4_exp_EVA_AMP_AWA_CON	997	Rpleas_acq	Oppo	Rpleas	Amasked	CS_B	1pleas	distractor2	acq_US_unple_nomask	acq3_nomask	20	36	453	0	300	300	0	0	338	46	7,8125	1	0	0	0	1	blank2r.bmp	0	1	+	0	1	blank2r.bmp	370	1	GKQX	370	1	blank2r.bmp	430	2	schroff	650	1	!	-1	1	!	-1	0	0	0	0	0	0	0	0	0	0	0	0	0	0	0	0	0	0	0	0	0	0	0	0	0	0	0	0	0	0
120518	12:19:55	12:29:49	591170	5.0.10.0	4_exp_EVA_AMP_AWA_CON	997	Rpleas_acq	Oppo	Rpleas	Amasked	CS_B	1pleas	distractor2	acq_US_unple_nomask	acq45_nomask	21	1	400	0	300	300	0	0	693	46	7,8125	1	0	0	0	1	blank2r.bmp	0	1	+	0	1	blank2r.bmp	370	1	GKQX	370	1	blank2r.bmp	430	4	hindern	650	1	!	1009	1	!	-1	0	0	0	0	0	0	0	0	0	0	0	0	0	0	0	0	0	0	0	0	0	0	0	0	0	0	0	0	0	0
120518	12:19:55	12:29:51	593060	5.0.10.0	4_exp_EVA_AMP_AWA_CON	997	Rpleas_acq	Oppo	Rpleas	Amasked	CS_B	1pleas	distractor2	acq_US_pleas_nomask	acq45_nomask	21	2	400	0	300	300	0	0	321	50	7,8125	1	0	0	0	1	blank2r.bmp	0	1	+	0	1	blank2r.bmp	370	1	BMVZ	370	1	blank2r.bmp	430	4	helfen	650	1	!	-1	1	!	-1	0	0	0	0	0	0	0	0	0	0	0	0	0	0	0	0	0	0	0	0	0	0	0	0	0	0	0	0	0	0
120518	12:19:55	12:29:56	597839	5.0.10.0	4_exp_EVA_AMP_AWA_CON	997	Rpleas_acq	Oppo	Rpleas	Amasked	CS_B	1pleas	distractor2	acq_US_unple_nomask	acq45_nomask	21	3	400	0	300	300	0	0	3225	Ctrl+'Q'	7,8125	1	0	0	0	1	blank2r.bmp	0	1	+	0	1	blank2r.bmp	370	1	GKQX	370	1	blank2r.bmp	430	2	schroff	650	1	!	1009	1	!	-1	0	0	0	0	0	0	0	0	0	0	0	0	0	0	0	0	0	0	0	0	0	0	0	0	0	0	0	0	0	0
