date	time	script.currenttime	script.elapsedtime	build	script.currentexpt	subject	expressions.LRpleas_acq	expressions.SameOppo	expressions.condition_Lpleas	expressions.ABmasked	expressions.conditionCS_A	expressions.condition_1pleas	expressions.condition_distractor_AMP	expressions.AWACON_AMPEVA_first	trialcode	blockcode	blocknum	trialnum	windowcenter	inwindow	pretrialpause	posttrialpause	trialduration	trialtimeout	latency	response	expressions.correctedscore	correct	values.vis_performance	values.vis_rating_sum	values.vis_rating_mean	stimulusnumber1	stimulusitem1	stimulusonset1	stimulusnumber2	stimulusitem2	stimulusonset2	stimulusnumber3	stimulusitem3	stimulusonset3	stimulusnumber4	stimulusitem4	stimulusonset4	stimulusnumber5	stimulusitem5	stimulusonset5	stimulusnumber6	stimulusitem6	stimulusonset6	stimulusnumber7	stimulusitem7	stimulusonset7	stimulusnumber8	stimulusitem8	stimulusonset8	stimulusnumber9	stimulusitem9	stimulusonset9	stimulusnumber10	stimulusitem10	stimulusonset10	stimulusnumber11	stimulusitem11	stimulusonset11	stimulusnumber12	stimulusitem12	stimulusonset12	stimulusnumber13	stimulusitem13	stimulusonset13	stimulusnumber14	stimulusitem14	stimulusonset14	stimulusnumber15	stimulusitem15	stimulusonset15	stimulusnumber16	stimulusitem16	stimulusonset16	stimulusnumber17	stimulusitem17	stimulusonset17	stimulusnumber18	stimulusitem18	stimulusonset18
011019	14:44:21	14:48:27	245351	5.0.10.0	4_exp_AWA_CON_AMP_EVA	59	Rpleas_acq	Oppo	Rpleas	Amasked	CS_A	2pleas	distractor2	CONbeforeEVA	acq_US_unple_masked	acq1_masked	1	1	0	0	300	300	0	0	8729	50	0	0	0	0	0	1	blank2r.bmp	0	1	+	0	7	C3r.bmp	492	1	blank2r.bmp	786	1	CPLW	786	1	blank2r.bmp	866	6	bange	866	1	FEHLER	9636	0	0	0	0	0	0	0	0	0	0	0	0	0	0	0	0	0	0	0	0	0	0	0	0	0	0	0	0	0	0
011019	14:44:21	14:48:31	249896	5.0.10.0	4_exp_AWA_CON_AMP_EVA	59	Rpleas_acq	Oppo	Rpleas	Amasked	CS_A	2pleas	distractor2	CONbeforeEVA	acq_new_unple_masked	acq1_masked	1	2	0	0	300	300	0	0	3276	46	0	1	0	0	0	1	blank2r.bmp	0	1	+	0	1	B1r.bmp	492	1	blank2r.bmp	786	7	C3r.bmp	786	1	blank2r.bmp	866	2	geizig	866	0	0	0	0	0	0	0	0	0	0	0	0	0	0	0	0	0	0	0	0	0	0	0	0	0	0	0	0	0	0	0	0	0
011019	14:44:21	14:48:35	253495	5.0.10.0	4_exp_AWA_CON_AMP_EVA	59	Rpleas_acq	Oppo	Rpleas	Amasked	CS_A	2pleas	distractor2	CONbeforeEVA	acq_new_pleas_masked	acq1_masked	1	3	0	0	300	300	0	0	2113	50	0	1	0	0	0	1	blank2r.bmp	0	1	+	0	3	B3r.bmp	492	1	blank2r.bmp	786	6	C2r.bmp	786	1	blank2r.bmp	866	1	engagiert	866	0	0	0	0	0	0	0	0	0	0	0	0	0	0	0	0	0	0	0	0	0	0	0	0	0	0	0	0	0	0	0	0	0
011019	14:44:21	14:48:38	256240	5.0.10.0	4_exp_AWA_CON_AMP_EVA	59	Rpleas_acq	Oppo	Rpleas	Amasked	CS_A	2pleas	distractor2	CONbeforeEVA	acq_US_pleas_masked	acq1_masked	1	4	0	0	300	300	0	0	1269	50	0	1	0	0	0	1	blank2r.bmp	0	1	+	0	6	C2r.bmp	492	1	blank2r.bmp	786	1	DHJF	786	1	blank2r.bmp	866	1	kuss	866	0	0	0	0	0	0	0	0	0	0	0	0	0	0	0	0	0	0	0	0	0	0	0	0	0	0	0	0	0	0	0	0	0
011019	14:44:21	14:48:41	259332	5.0.10.0	4_exp_AWA_CON_AMP_EVA	59	Rpleas_acq	Oppo	Rpleas	Amasked	CS_A	2pleas	distractor2	CONbeforeEVA	acq_US_unple_masked	acq1_masked	1	5	0	0	300	300	0	0	1614	46	0	1	0	0	0	1	blank2r.bmp	0	1	+	0	4	B4r.bmp	492	1	blank2r.bmp	786	1	CPLW	786	1	blank2r.bmp	866	1	krise	866	0	0	0	0	0	0	0	0	0	0	0	0	0	0	0	0	0	0	0	0	0	0	0	0	0	0	0	0	0	0	0	0	0
011019	14:44:21	14:48:48	266343	5.0.10.0	4_exp_AWA_CON_AMP_EVA	59	Rpleas_acq	Oppo	Rpleas	Amasked	CS_A	2pleas	distractor2	CONbeforeEVA	acq_US_pleas_masked	acq1_masked	1	6	0	0	300	300	0	0	5531	50	0	1	0	0	0	1	blank2r.bmp	0	1	+	0	8	C4r.bmp	492	1	blank2r.bmp	786	1	DHJF	786	1	blank2r.bmp	866	2	gütig	866	0	0	0	0	0	0	0	0	0	0	0	0	0	0	0	0	0	0	0	0	0	0	0	0	0	0	0	0	0	0	0	0	0
011019	14:44:21	14:48:50	268702	5.0.10.0	4_exp_AWA_CON_AMP_EVA	59	Rpleas_acq	Oppo	Rpleas	Amasked	CS_A	2pleas	distractor2	CONbeforeEVA	acq_new_pleas_masked	acq1_masked	1	7	0	0	300	300	0	0	889	50	0	1	0	0	0	1	blank2r.bmp	0	1	+	0	2	B2r.bmp	492	1	blank2r.bmp	786	4	B4r.bmp	786	1	blank2r.bmp	866	4	kreativ	866	0	0	0	0	0	0	0	0	0	0	0	0	0	0	0	0	0	0	0	0	0	0	0	0	0	0	0	0	0	0	0	0	0
011019	14:44:21	14:48:53	271301	5.0.10.0	4_exp_AWA_CON_AMP_EVA	59	Rpleas_acq	Oppo	Rpleas	Amasked	CS_A	2pleas	distractor2	CONbeforeEVA	acq_new_unple_masked	acq1_masked	1	8	0	0	300	300	0	0	1107	46	0	1	0	0	0	1	blank2r.bmp	0	1	+	0	5	C1r.bmp	492	1	blank2r.bmp	786	8	C4r.bmp	786	1	blank2r.bmp	866	5	töten	866	0	0	0	0	0	0	0	0	0	0	0	0	0	0	0	0	0	0	0	0	0	0	0	0	0	0	0	0	0	0	0	0	0
011019	14:44:21	14:48:55	273993	5.0.10.0	4_exp_AWA_CON_AMP_EVA	59	Rpleas_acq	Oppo	Rpleas	Amasked	CS_A	2pleas	distractor2	CONbeforeEVA	acq_new_unple_masked	acq1_masked	1	9	0	0	300	300	0	0	1223	46	0	1	0	0	0	1	blank2r.bmp	0	1	+	0	4	B4r.bmp	492	1	blank2r.bmp	786	1	B1r.bmp	786	1	blank2r.bmp	866	6	ausrottung	866	0	0	0	0	0	0	0	0	0	0	0	0	0	0	0	0	0	0	0	0	0	0	0	0	0	0	0	0	0	0	0	0	0
011019	14:44:21	14:48:58	276645	5.0.10.0	4_exp_AWA_CON_AMP_EVA	59	Rpleas_acq	Oppo	Rpleas	Amasked	CS_A	2pleas	distractor2	CONbeforeEVA	acq_US_pleas_masked	acq1_masked	1	10	0	0	300	300	0	0	1181	50	0	1	0	0	0	1	blank2r.bmp	0	1	+	0	8	C4r.bmp	492	1	blank2r.bmp	786	1	DHJF	786	1	blank2r.bmp	866	6	besonnen	866	0	0	0	0	0	0	0	0	0	0	0	0	0	0	0	0	0	0	0	0	0	0	0	0	0	0	0	0	0	0	0	0	0
011019	14:44:21	14:49:01	279218	5.0.10.0	4_exp_AWA_CON_AMP_EVA	59	Rpleas_acq	Oppo	Rpleas	Amasked	CS_A	2pleas	distractor2	CONbeforeEVA	acq_new_pleas_masked	acq1_masked	1	11	0	0	300	300	0	0	1093	50	0	1	0	0	0	1	blank2r.bmp	0	1	+	0	6	C2r.bmp	492	1	blank2r.bmp	786	2	B2r.bmp	786	1	blank2r.bmp	866	6	anregung	866	0	0	0	0	0	0	0	0	0	0	0	0	0	0	0	0	0	0	0	0	0	0	0	0	0	0	0	0	0	0	0	0	0
011019	14:44:21	14:49:03	281537	5.0.10.0	4_exp_AWA_CON_AMP_EVA	59	Rpleas_acq	Oppo	Rpleas	Amasked	CS_A	2pleas	distractor2	CONbeforeEVA	acq_US_unple_masked	acq1_masked	1	12	0	0	300	300	0	0	851	46	0	1	0	0	0	1	blank2r.bmp	0	1	+	0	1	B1r.bmp	492	1	blank2r.bmp	786	1	CPLW	786	1	blank2r.bmp	866	3	gemein	866	0	0	0	0	0	0	0	0	0	0	0	0	0	0	0	0	0	0	0	0	0	0	0	0	0	0	0	0	0	0	0	0	0
011019	14:44:21	14:49:05	283789	5.0.10.0	4_exp_AWA_CON_AMP_EVA	59	Rpleas_acq	Oppo	Rpleas	Amasked	CS_A	2pleas	distractor2	CONbeforeEVA	acq_US_pleas_masked	acq1_masked	1	13	0	0	300	300	0	0	767	50	0	1	0	0	0	1	blank2r.bmp	0	1	+	0	7	C3r.bmp	492	1	blank2r.bmp	786	1	DHJF	786	1	blank2r.bmp	866	5	sonnig	866	0	0	0	0	0	0	0	0	0	0	0	0	0	0	0	0	0	0	0	0	0	0	0	0	0	0	0	0	0	0	0	0	0
011019	14:44:21	14:49:08	286708	5.0.10.0	4_exp_AWA_CON_AMP_EVA	59	Rpleas_acq	Oppo	Rpleas	Amasked	CS_A	2pleas	distractor2	CONbeforeEVA	acq_new_unple_masked	acq1_masked	1	14	0	0	300	300	0	0	1446	46	0	1	0	0	0	1	blank2r.bmp	0	1	+	0	5	C1r.bmp	492	1	blank2r.bmp	786	3	B3r.bmp	786	1	blank2r.bmp	866	3	versagen	866	0	0	0	0	0	0	0	0	0	0	0	0	0	0	0	0	0	0	0	0	0	0	0	0	0	0	0	0	0	0	0	0	0
011019	14:44:21	14:49:11	289360	5.0.10.0	4_exp_AWA_CON_AMP_EVA	59	Rpleas_acq	Oppo	Rpleas	Amasked	CS_A	2pleas	distractor2	CONbeforeEVA	acq_new_pleas_masked	acq1_masked	1	15	0	0	300	300	0	0	1181	50	0	1	0	0	0	1	blank2r.bmp	0	1	+	0	3	B3r.bmp	492	1	blank2r.bmp	786	5	C1r.bmp	786	1	blank2r.bmp	866	3	vertrauen	866	0	0	0	0	0	0	0	0	0	0	0	0	0	0	0	0	0	0	0	0	0	0	0	0	0	0	0	0	0	0	0	0	0
011019	14:44:21	14:49:14	292372	5.0.10.0	4_exp_AWA_CON_AMP_EVA	59	Rpleas_acq	Oppo	Rpleas	Amasked	CS_A	2pleas	distractor2	CONbeforeEVA	acq_new_unple_masked	acq1_masked	1	16	0	0	300	300	0	0	1531	46	0	1	0	0	0	1	blank2r.bmp	0	1	+	0	2	B2r.bmp	492	1	blank2r.bmp	786	3	B3r.bmp	786	1	blank2r.bmp	866	1	engstirnig	866	0	0	0	0	0	0	0	0	0	0	0	0	0	0	0	0	0	0	0	0	0	0	0	0	0	0	0	0	0	0	0	0	0
011019	14:44:21	14:49:17	295971	5.0.10.0	4_exp_AWA_CON_AMP_EVA	59	Rpleas_acq	Oppo	Rpleas	Amasked	CS_A	2pleas	distractor2	CONbeforeEVA	acq_new_pleas_masked	acq1_masked	1	17	0	0	300	300	0	0	1914	46	0	0	0	0	0	1	blank2r.bmp	0	1	+	0	2	B2r.bmp	492	1	blank2r.bmp	786	1	B1r.bmp	786	1	blank2r.bmp	866	2	gesittet	866	1	FEHLER	2812	0	0	0	0	0	0	0	0	0	0	0	0	0	0	0	0	0	0	0	0	0	0	0	0	0	0	0	0	0	0
011019	14:44:21	14:49:20	298196	5.0.10.0	4_exp_AWA_CON_AMP_EVA	59	Rpleas_acq	Oppo	Rpleas	Amasked	CS_A	2pleas	distractor2	CONbeforeEVA	acq_US_pleas_masked	acq1_masked	1	18	0	0	300	300	0	0	951	50	0	1	0	0	0	1	blank2r.bmp	0	1	+	0	7	C3r.bmp	492	1	blank2r.bmp	786	1	DHJF	786	1	blank2r.bmp	866	3	genießen	866	0	0	0	0	0	0	0	0	0	0	0	0	0	0	0	0	0	0	0	0	0	0	0	0	0	0	0	0	0	0	0	0	0
011019	14:44:21	14:49:22	300769	5.0.10.0	4_exp_AWA_CON_AMP_EVA	59	Rpleas_acq	Oppo	Rpleas	Amasked	CS_A	2pleas	distractor2	CONbeforeEVA	acq_US_unple_masked	acq1_masked	1	19	0	0	300	300	0	0	1088	46	0	1	0	0	0	1	blank2r.bmp	0	1	+	0	6	C2r.bmp	492	1	blank2r.bmp	786	1	CPLW	786	1	blank2r.bmp	866	4	verbissen	866	0	0	0	0	0	0	0	0	0	0	0	0	0	0	0	0	0	0	0	0	0	0	0	0	0	0	0	0	0	0	0	0	0
011019	14:44:21	14:49:25	303714	5.0.10.0	4_exp_AWA_CON_AMP_EVA	59	Rpleas_acq	Oppo	Rpleas	Amasked	CS_A	2pleas	distractor2	CONbeforeEVA	acq_new_unple_masked	acq1_masked	1	20	0	0	300	300	0	0	1455	46	0	1	0	0	0	1	blank2r.bmp	0	1	+	0	8	C4r.bmp	492	1	blank2r.bmp	786	2	B2r.bmp	786	1	blank2r.bmp	866	4	krank	866	0	0	0	0	0	0	0	0	0	0	0	0	0	0	0	0	0	0	0	0	0	0	0	0	0	0	0	0	0	0	0	0	0
011019	14:44:21	14:49:28	306740	5.0.10.0	4_exp_AWA_CON_AMP_EVA	59	Rpleas_acq	Oppo	Rpleas	Amasked	CS_A	2pleas	distractor2	CONbeforeEVA	acq_US_pleas_masked	acq1_masked	1	21	0	0	300	300	0	0	1548	50	0	1	0	0	0	1	blank2r.bmp	0	1	+	0	5	C1r.bmp	492	1	blank2r.bmp	786	1	DHJF	786	1	blank2r.bmp	866	4	vergnügt	866	0	0	0	0	0	0	0	0	0	0	0	0	0	0	0	0	0	0	0	0	0	0	0	0	0	0	0	0	0	0	0	0	0
011019	14:44:21	14:49:31	309392	5.0.10.0	4_exp_AWA_CON_AMP_EVA	59	Rpleas_acq	Oppo	Rpleas	Amasked	CS_A	2pleas	distractor2	CONbeforeEVA	acq_US_unple_masked	acq1_masked	1	22	0	0	300	300	0	0	1182	46	0	1	0	0	0	1	blank2r.bmp	0	1	+	0	3	B3r.bmp	492	1	blank2r.bmp	786	1	CPLW	786	1	blank2r.bmp	866	5	sterben	866	0	0	0	0	0	0	0	0	0	0	0	0	0	0	0	0	0	0	0	0	0	0	0	0	0	0	0	0	0	0	0	0	0
011019	14:44:21	14:49:33	312017	5.0.10.0	4_exp_AWA_CON_AMP_EVA	59	Rpleas_acq	Oppo	Rpleas	Amasked	CS_A	2pleas	distractor2	CONbeforeEVA	acq_new_pleas_masked	acq1_masked	1	23	0	0	300	300	0	0	1134	50	0	1	0	0	0	1	blank2r.bmp	0	1	+	0	1	B1r.bmp	492	1	blank2r.bmp	786	7	C3r.bmp	786	1	blank2r.bmp	866	5	träumen	866	0	0	0	0	0	0	0	0	0	0	0	0	0	0	0	0	0	0	0	0	0	0	0	0	0	0	0	0	0	0	0	0	0
011019	14:44:21	14:49:36	315003	5.0.10.0	4_exp_AWA_CON_AMP_EVA	59	Rpleas_acq	Oppo	Rpleas	Amasked	CS_A	2pleas	distractor2	CONbeforeEVA	acq_US_unple_masked	acq1_masked	1	24	0	0	300	300	0	0	1507	46	0	1	0	0	0	1	blank2r.bmp	0	1	+	0	4	B4r.bmp	492	1	blank2r.bmp	786	1	CPLW	786	1	blank2r.bmp	866	2	gierig	866	0	0	0	0	0	0	0	0	0	0	0	0	0	0	0	0	0	0	0	0	0	0	0	0	0	0	0	0	0	0	0	0	0
011019	14:44:21	14:49:39	317562	5.0.10.0	4_exp_AWA_CON_AMP_EVA	59	Rpleas_acq	Oppo	Rpleas	Amasked	CS_A	2pleas	distractor2	CONbeforeEVA	acq_new_pleas_masked	acq1_masked	1	25	0	0	300	300	0	0	1076	50	0	1	0	0	0	1	blank2r.bmp	0	1	+	0	3	B3r.bmp	492	1	blank2r.bmp	786	6	C2r.bmp	786	1	blank2r.bmp	866	3	vertrauen	866	0	0	0	0	0	0	0	0	0	0	0	0	0	0	0	0	0	0	0	0	0	0	0	0	0	0	0	0	0	0	0	0	0
011019	14:44:21	14:49:42	320161	5.0.10.0	4_exp_AWA_CON_AMP_EVA	59	Rpleas_acq	Oppo	Rpleas	Amasked	CS_A	2pleas	distractor2	CONbeforeEVA	acq_new_unple_masked	acq1_masked	1	26	0	0	300	300	0	0	1117	46	0	1	0	0	0	1	blank2r.bmp	0	1	+	0	5	C1r.bmp	492	1	blank2r.bmp	786	4	B4r.bmp	786	1	blank2r.bmp	866	2	geizig	866	0	0	0	0	0	0	0	0	0	0	0	0	0	0	0	0	0	0	0	0	0	0	0	0	0	0	0	0	0	0	0	0	0
011019	14:44:21	14:49:44	322946	5.0.10.0	4_exp_AWA_CON_AMP_EVA	59	Rpleas_acq	Oppo	Rpleas	Amasked	CS_A	2pleas	distractor2	CONbeforeEVA	acq_new_unple_masked	acq1_masked	1	27	0	0	300	300	0	0	1302	46	0	1	0	0	0	1	blank2r.bmp	0	1	+	0	7	C3r.bmp	492	1	blank2r.bmp	786	8	C4r.bmp	786	1	blank2r.bmp	866	4	krank	866	0	0	0	0	0	0	0	0	0	0	0	0	0	0	0	0	0	0	0	0	0	0	0	0	0	0	0	0	0	0	0	0	0
011019	14:44:21	14:49:49	327184	5.0.10.0	4_exp_AWA_CON_AMP_EVA	59	Rpleas_acq	Oppo	Rpleas	Amasked	CS_A	2pleas	distractor2	CONbeforeEVA	acq_new_pleas_masked	acq1_masked	1	28	0	0	300	300	0	0	2757	50	0	1	0	0	0	1	blank2r.bmp	0	1	+	0	2	B2r.bmp	492	1	blank2r.bmp	786	5	C1r.bmp	786	1	blank2r.bmp	866	2	gesittet	866	0	0	0	0	0	0	0	0	0	0	0	0	0	0	0	0	0	0	0	0	0	0	0	0	0	0	0	0	0	0	0	0	0
011019	14:44:21	14:49:51	330103	5.0.10.0	4_exp_AWA_CON_AMP_EVA	59	Rpleas_acq	Oppo	Rpleas	Amasked	CS_A	2pleas	distractor2	CONbeforeEVA	acq_US_pleas_masked	acq1_masked	1	29	0	0	300	300	0	0	1429	50	0	1	0	0	0	1	blank2r.bmp	0	1	+	0	8	C4r.bmp	492	1	blank2r.bmp	786	1	DHJF	786	1	blank2r.bmp	866	3	genießen	866	0	0	0	0	0	0	0	0	0	0	0	0	0	0	0	0	0	0	0	0	0	0	0	0	0	0	0	0	0	0	0	0	0
011019	14:44:21	14:49:54	332502	5.0.10.0	4_exp_AWA_CON_AMP_EVA	59	Rpleas_acq	Oppo	Rpleas	Amasked	CS_A	2pleas	distractor2	CONbeforeEVA	acq_US_unple_masked	acq1_masked	1	30	0	0	300	300	0	0	905	46	0	1	0	0	0	1	blank2r.bmp	0	1	+	0	4	B4r.bmp	492	1	blank2r.bmp	786	1	CPLW	786	1	blank2r.bmp	866	1	krise	866	0	0	0	0	0	0	0	0	0	0	0	0	0	0	0	0	0	0	0	0	0	0	0	0	0	0	0	0	0	0	0	0	0
011019	14:44:21	14:49:56	335048	5.0.10.0	4_exp_AWA_CON_AMP_EVA	59	Rpleas_acq	Oppo	Rpleas	Amasked	CS_A	2pleas	distractor2	CONbeforeEVA	acq_US_unple_masked	acq1_masked	1	31	0	0	300	300	0	0	1070	46	0	1	0	0	0	1	blank2r.bmp	0	1	+	0	6	C2r.bmp	492	1	blank2r.bmp	786	1	CPLW	786	1	blank2r.bmp	866	5	sterben	866	0	0	0	0	0	0	0	0	0	0	0	0	0	0	0	0	0	0	0	0	0	0	0	0	0	0	0	0	0	0	0	0	0
011019	14:44:21	14:49:59	337487	5.0.10.0	4_exp_AWA_CON_AMP_EVA	59	Rpleas_acq	Oppo	Rpleas	Amasked	CS_A	2pleas	distractor2	CONbeforeEVA	acq_US_pleas_masked	acq1_masked	1	32	0	0	300	300	0	0	948	50	0	1	0	0	0	1	blank2r.bmp	0	1	+	0	1	B1r.bmp	492	1	blank2r.bmp	786	1	DHJF	786	1	blank2r.bmp	866	2	gütig	866	0	0	0	0	0	0	0	0	0	0	0	0	0	0	0	0	0	0	0	0	0	0	0	0	0	0	0	0	0	0	0	0	0
011019	14:44:21	14:50:01	339779	5.0.10.0	4_exp_AWA_CON_AMP_EVA	59	Rpleas_acq	Oppo	Rpleas	Amasked	CS_A	2pleas	distractor2	CONbeforeEVA	acq_US_unple_masked	acq1_masked	1	33	0	0	300	300	0	0	813	46	0	1	0	0	0	1	blank2r.bmp	0	1	+	0	7	C3r.bmp	492	1	blank2r.bmp	786	1	CPLW	786	1	blank2r.bmp	866	4	verbissen	866	0	0	0	0	0	0	0	0	0	0	0	0	0	0	0	0	0	0	0	0	0	0	0	0	0	0	0	0	0	0	0	0	0
011019	14:44:21	14:50:05	343618	5.0.10.0	4_exp_AWA_CON_AMP_EVA	59	Rpleas_acq	Oppo	Rpleas	Amasked	CS_A	2pleas	distractor2	CONbeforeEVA	acq_new_pleas_masked	acq1_masked	1	34	0	0	300	300	0	0	2359	50	0	1	0	0	0	1	blank2r.bmp	0	1	+	0	4	B4r.bmp	492	1	blank2r.bmp	786	6	C2r.bmp	786	1	blank2r.bmp	866	5	träumen	866	0	0	0	0	0	0	0	0	0	0	0	0	0	0	0	0	0	0	0	0	0	0	0	0	0	0	0	0	0	0	0	0	0
011019	14:44:21	14:50:08	346590	5.0.10.0	4_exp_AWA_CON_AMP_EVA	59	Rpleas_acq	Oppo	Rpleas	Amasked	CS_A	2pleas	distractor2	CONbeforeEVA	acq_new_unple_masked	acq1_masked	1	35	0	0	300	300	0	0	1502	46	0	1	0	0	0	1	blank2r.bmp	0	1	+	0	3	B3r.bmp	492	1	blank2r.bmp	786	5	C1r.bmp	786	1	blank2r.bmp	866	3	versagen	866	0	0	0	0	0	0	0	0	0	0	0	0	0	0	0	0	0	0	0	0	0	0	0	0	0	0	0	0	0	0	0	0	0
011019	14:44:21	14:50:10	348669	5.0.10.0	4_exp_AWA_CON_AMP_EVA	59	Rpleas_acq	Oppo	Rpleas	Amasked	CS_A	2pleas	distractor2	CONbeforeEVA	acq_US_pleas_masked	acq1_masked	1	36	0	0	300	300	0	0	585	50	0	1	0	0	0	1	blank2r.bmp	0	1	+	0	5	C1r.bmp	492	1	blank2r.bmp	786	1	DHJF	786	1	blank2r.bmp	866	1	kuss	866	0	0	0	0	0	0	0	0	0	0	0	0	0	0	0	0	0	0	0	0	0	0	0	0	0	0	0	0	0	0	0	0	0
011019	14:44:21	14:51:43	441777	5.0.10.0	4_exp_AWA_CON_AMP_EVA	59	Rpleas_acq	Oppo	Rpleas	Amasked	CS_A	2pleas	distractor2	CONbeforeEVA	acq_US_pleas_masked	acq2_masked	2	1	480	0	300	300	0	0	3149	50	0	1	0	0	0	1	blank2r.bmp	0	1	+	0	8	C4r.bmp	492	1	blank2r.bmp	786	1	DHJF	786	1	blank2r.bmp	866	5	sonnig	866	1	!	1319	1	!	-1	0	0	0	0	0	0	0	0	0	0	0	0	0	0	0	0	0	0	0	0	0	0	0	0	0	0	0
011019	14:44:21	14:51:46	444469	5.0.10.0	4_exp_AWA_CON_AMP_EVA	59	Rpleas_acq	Oppo	Rpleas	Amasked	CS_A	2pleas	distractor2	CONbeforeEVA	acq_US_pleas_masked	acq2_masked	2	2	480	0	300	300	0	0	914	50	0	1	0	0	0	1	blank2r.bmp	0	1	+	0	2	B2r.bmp	492	1	blank2r.bmp	786	1	DHJF	786	1	blank2r.bmp	866	4	vergnügt	866	1	!	1319	1	!	-1	0	0	0	0	0	0	0	0	0	0	0	0	0	0	0	0	0	0	0	0	0	0	0	0	0	0	0
011019	14:44:21	14:51:49	447961	5.0.10.0	4_exp_AWA_CON_AMP_EVA	59	Rpleas_acq	Oppo	Rpleas	Amasked	CS_A	2pleas	distractor2	CONbeforeEVA	acq_new_unple_masked	acq2_masked	2	3	480	0	300	300	0	0	1711	46	0	1	0	0	0	1	blank2r.bmp	0	1	+	0	1	B1r.bmp	492	1	blank2r.bmp	786	4	B4r.bmp	786	1	blank2r.bmp	866	1	engstirnig	866	1	!	1319	1	!	-1	0	0	0	0	0	0	0	0	0	0	0	0	0	0	0	0	0	0	0	0	0	0	0	0	0	0	0
011019	14:44:21	14:51:52	450907	5.0.10.0	4_exp_AWA_CON_AMP_EVA	59	Rpleas_acq	Oppo	Rpleas	Amasked	CS_A	2pleas	distractor2	CONbeforeEVA	acq_new_unple_masked	acq2_masked	2	4	480	0	300	300	0	0	1145	46	0	1	0	0	0	1	blank2r.bmp	0	1	+	0	6	C2r.bmp	492	1	blank2r.bmp	786	7	C3r.bmp	786	1	blank2r.bmp	866	6	ausrottung	866	1	!	1319	1	!	-1	0	0	0	0	0	0	0	0	0	0	0	0	0	0	0	0	0	0	0	0	0	0	0	0	0	0	0
011019	14:44:21	14:51:55	453266	5.0.10.0	4_exp_AWA_CON_AMP_EVA	59	Rpleas_acq	Oppo	Rpleas	Amasked	CS_A	2pleas	distractor2	CONbeforeEVA	acq_new_unple_masked	acq2_masked	2	5	480	0	300	300	0	0	573	46	0	1	0	0	0	1	blank2r.bmp	0	1	+	0	2	B2r.bmp	492	1	blank2r.bmp	786	1	B1r.bmp	786	1	blank2r.bmp	866	5	töten	866	1	!	1319	1	!	-1	0	0	0	0	0	0	0	0	0	0	0	0	0	0	0	0	0	0	0	0	0	0	0	0	0	0	0
011019	14:44:21	14:51:57	455758	5.0.10.0	4_exp_AWA_CON_AMP_EVA	59	Rpleas_acq	Oppo	Rpleas	Amasked	CS_A	2pleas	distractor2	CONbeforeEVA	acq_new_pleas_masked	acq2_masked	2	6	480	0	300	300	0	0	704	50	0	1	0	0	0	1	blank2r.bmp	0	1	+	0	4	B4r.bmp	492	1	blank2r.bmp	786	8	C4r.bmp	786	1	blank2r.bmp	866	4	kreativ	866	1	!	1319	1	!	-1	0	0	0	0	0	0	0	0	0	0	0	0	0	0	0	0	0	0	0	0	0	0	0	0	0	0	0
011019	14:44:21	14:52:00	458290	5.0.10.0	4_exp_AWA_CON_AMP_EVA	59	Rpleas_acq	Oppo	Rpleas	Amasked	CS_A	2pleas	distractor2	CONbeforeEVA	acq_US_unple_masked	acq2_masked	2	7	480	0	300	300	0	0	746	46	0	1	0	0	0	1	blank2r.bmp	0	1	+	0	5	C1r.bmp	492	1	blank2r.bmp	786	1	CPLW	786	1	blank2r.bmp	866	2	gierig	866	1	!	1319	1	!	-1	0	0	0	0	0	0	0	0	0	0	0	0	0	0	0	0	0	0	0	0	0	0	0	0	0	0	0
011019	14:44:21	14:52:02	460889	5.0.10.0	4_exp_AWA_CON_AMP_EVA	59	Rpleas_acq	Oppo	Rpleas	Amasked	CS_A	2pleas	distractor2	CONbeforeEVA	acq_US_unple_masked	acq2_masked	2	8	480	0	300	300	0	0	802	46	0	1	0	0	0	1	blank2r.bmp	0	1	+	0	7	C3r.bmp	492	1	blank2r.bmp	786	1	CPLW	786	1	blank2r.bmp	866	6	bange	866	1	!	1319	1	!	-1	0	0	0	0	0	0	0	0	0	0	0	0	0	0	0	0	0	0	0	0	0	0	0	0	0	0	0
011019	14:44:21	14:52:04	463128	5.0.10.0	4_exp_AWA_CON_AMP_EVA	59	Rpleas_acq	Oppo	Rpleas	Amasked	CS_A	2pleas	distractor2	CONbeforeEVA	acq_US_pleas_masked	acq2_masked	2	9	480	1	300	300	0	0	426	50	0	1	0	0	0	1	blank2r.bmp	0	1	+	0	1	B1r.bmp	492	1	blank2r.bmp	786	1	DHJF	786	1	blank2r.bmp	866	6	besonnen	866	1	!	1319	1	!	1332	0	0	0	0	0	0	0	0	0	0	0	0	0	0	0	0	0	0	0	0	0	0	0	0	0	0	0
011019	14:44:21	14:52:07	465647	5.0.10.0	4_exp_AWA_CON_AMP_EVA	59	Rpleas_acq	Oppo	Rpleas	Amasked	CS_A	2pleas	distractor2	CONbeforeEVA	acq_US_unple_masked	acq2_masked	2	10	480	0	300	300	0	0	756	46	0	1	0	0	0	1	blank2r.bmp	0	1	+	0	3	B3r.bmp	492	1	blank2r.bmp	786	1	CPLW	786	1	blank2r.bmp	866	3	gemein	866	1	!	1319	1	!	-1	0	0	0	0	0	0	0	0	0	0	0	0	0	0	0	0	0	0	0	0	0	0	0	0	0	0	0
011019	14:44:21	14:52:09	467993	5.0.10.0	4_exp_AWA_CON_AMP_EVA	59	Rpleas_acq	Oppo	Rpleas	Amasked	CS_A	2pleas	distractor2	CONbeforeEVA	acq_new_pleas_masked	acq2_masked	2	11	480	0	300	300	0	0	559	50	0	1	0	0	0	1	blank2r.bmp	0	1	+	0	8	C4r.bmp	492	1	blank2r.bmp	786	2	B2r.bmp	786	1	blank2r.bmp	866	1	engagiert	866	1	!	1319	1	!	-1	0	0	0	0	0	0	0	0	0	0	0	0	0	0	0	0	0	0	0	0	0	0	0	0	0	0	0
011019	14:44:21	14:52:12	470405	5.0.10.0	4_exp_AWA_CON_AMP_EVA	59	Rpleas_acq	Oppo	Rpleas	Amasked	CS_A	2pleas	distractor2	CONbeforeEVA	acq_new_pleas_masked	acq2_masked	2	12	480	0	300	300	0	0	407	46	0	0	0	0	0	1	blank2r.bmp	0	1	+	0	6	C2r.bmp	492	1	blank2r.bmp	786	3	B3r.bmp	786	1	blank2r.bmp	866	6	anregung	866	1	FEHLER	1612	1	!	-1	1	!	-1	0	0	0	0	0	0	0	0	0	0	0	0	0	0	0	0	0	0	0	0	0	0	0	0
011019	14:44:21	14:52:14	472325	5.0.10.0	4_exp_AWA_CON_AMP_EVA	59	Rpleas_acq	Oppo	Rpleas	Amasked	CS_A	2pleas	distractor2	CONbeforeEVA	acq_US_pleas_masked	acq2_masked	2	13	480	0	300	300	0	0	342	50	0	1	0	0	0	1	blank2r.bmp	0	1	+	0	2	B2r.bmp	492	1	blank2r.bmp	786	1	DHJF	786	1	blank2r.bmp	866	4	vergnügt	866	1	!	-1	1	!	-1	0	0	0	0	0	0	0	0	0	0	0	0	0	0	0	0	0	0	0	0	0	0	0	0	0	0	0
011019	14:44:21	14:52:16	474670	5.0.10.0	4_exp_AWA_CON_AMP_EVA	59	Rpleas_acq	Oppo	Rpleas	Amasked	CS_A	2pleas	distractor2	CONbeforeEVA	acq_US_unple_masked	acq2_masked	2	14	480	0	300	300	0	0	561	46	0	1	0	0	0	1	blank2r.bmp	0	1	+	0	8	C4r.bmp	492	1	blank2r.bmp	786	1	CPLW	786	1	blank2r.bmp	866	3	gemein	866	1	!	1319	1	!	-1	0	0	0	0	0	0	0	0	0	0	0	0	0	0	0	0	0	0	0	0	0	0	0	0	0	0	0
011019	14:44:21	14:52:18	476963	5.0.10.0	4_exp_AWA_CON_AMP_EVA	59	Rpleas_acq	Oppo	Rpleas	Amasked	CS_A	2pleas	distractor2	CONbeforeEVA	acq_US_pleas_masked	acq2_masked	2	15	480	1	300	300	0	0	477	50	0	1	0	0	0	1	blank2r.bmp	0	1	+	0	1	B1r.bmp	492	1	blank2r.bmp	786	1	DHJF	786	1	blank2r.bmp	866	2	gütig	866	1	!	1319	1	!	1372	0	0	0	0	0	0	0	0	0	0	0	0	0	0	0	0	0	0	0	0	0	0	0	0	0	0	0
011019	14:44:21	14:52:21	479295	5.0.10.0	4_exp_AWA_CON_AMP_EVA	59	Rpleas_acq	Oppo	Rpleas	Amasked	CS_A	2pleas	distractor2	CONbeforeEVA	acq_US_unple_masked	acq2_masked	2	16	480	0	300	300	0	0	559	46	0	1	0	0	0	1	blank2r.bmp	0	1	+	0	5	C1r.bmp	492	1	blank2r.bmp	786	1	CPLW	786	1	blank2r.bmp	866	5	sterben	866	1	!	1319	1	!	-1	0	0	0	0	0	0	0	0	0	0	0	0	0	0	0	0	0	0	0	0	0	0	0	0	0	0	0
011019	14:44:21	14:52:23	481548	5.0.10.0	4_exp_AWA_CON_AMP_EVA	59	Rpleas_acq	Oppo	Rpleas	Amasked	CS_A	2pleas	distractor2	CONbeforeEVA	acq_new_pleas_masked	acq2_masked	2	17	480	1	300	300	0	0	446	50	0	1	0	0	0	1	blank2r.bmp	0	1	+	0	3	B3r.bmp	492	1	blank2r.bmp	786	4	B4r.bmp	786	1	blank2r.bmp	866	3	vertrauen	866	1	!	1319	1	!	1346	0	0	0	0	0	0	0	0	0	0	0	0	0	0	0	0	0	0	0	0	0	0	0	0	0	0	0
011019	14:44:21	14:52:25	484066	5.0.10.0	4_exp_AWA_CON_AMP_EVA	59	Rpleas_acq	Oppo	Rpleas	Amasked	CS_A	2pleas	distractor2	CONbeforeEVA	acq_new_pleas_masked	acq2_masked	2	18	480	1	300	300	0	0	504	46	0	0	0	0	0	1	blank2r.bmp	0	1	+	0	7	C3r.bmp	492	1	blank2r.bmp	786	6	C2r.bmp	786	1	blank2r.bmp	866	1	engagiert	866	1	FEHLER	1719	1	!	1319	1	!	1399	0	0	0	0	0	0	0	0	0	0	0	0	0	0	0	0	0	0	0	0	0	0	0	0
011019	14:44:21	14:52:28	486199	5.0.10.0	4_exp_AWA_CON_AMP_EVA	59	Rpleas_acq	Oppo	Rpleas	Amasked	CS_A	2pleas	distractor2	CONbeforeEVA	acq_new_unple_masked	acq2_masked	2	19	480	0	300	300	0	0	351	50	0	0	0	0	0	1	blank2r.bmp	0	1	+	0	6	C2r.bmp	492	1	blank2r.bmp	786	7	C3r.bmp	786	1	blank2r.bmp	866	3	versagen	866	1	FEHLER	1559	1	!	-1	1	!	-1	0	0	0	0	0	0	0	0	0	0	0	0	0	0	0	0	0	0	0	0	0	0	0	0
011019	14:44:21	14:52:30	488211	5.0.10.0	4_exp_AWA_CON_AMP_EVA	59	Rpleas_acq	Oppo	Rpleas	Amasked	CS_A	2pleas	distractor2	CONbeforeEVA	acq_US_unple_masked	acq2_masked	2	20	480	1	300	300	0	0	426	46	0	1	0	0	0	1	blank2r.bmp	0	1	+	0	4	B4r.bmp	492	1	blank2r.bmp	786	1	CPLW	786	1	blank2r.bmp	866	6	bange	866	1	!	1319	1	!	1332	0	0	0	0	0	0	0	0	0	0	0	0	0	0	0	0	0	0	0	0	0	0	0	0	0	0	0
011019	14:44:21	14:52:32	490384	5.0.10.0	4_exp_AWA_CON_AMP_EVA	59	Rpleas_acq	Oppo	Rpleas	Amasked	CS_A	2pleas	distractor2	CONbeforeEVA	acq_new_pleas_masked	acq2_masked	2	21	480	0	300	300	0	0	410	50	0	1	0	0	0	1	blank2r.bmp	0	1	+	0	5	C1r.bmp	492	1	blank2r.bmp	786	8	C4r.bmp	786	1	blank2r.bmp	866	6	anregung	866	1	!	-1	1	!	-1	0	0	0	0	0	0	0	0	0	0	0	0	0	0	0	0	0	0	0	0	0	0	0	0	0	0	0
011019	14:44:21	14:52:34	492730	5.0.10.0	4_exp_AWA_CON_AMP_EVA	59	Rpleas_acq	Oppo	Rpleas	Amasked	CS_A	2pleas	distractor2	CONbeforeEVA	acq_US_pleas_masked	acq2_masked	2	22	480	1	300	300	0	0	541	50	0	1	0	0	0	1	blank2r.bmp	0	1	+	0	2	B2r.bmp	492	1	blank2r.bmp	786	1	DHJF	786	1	blank2r.bmp	866	3	genießen	866	1	!	1319	1	!	1439	0	0	0	0	0	0	0	0	0	0	0	0	0	0	0	0	0	0	0	0	0	0	0	0	0	0	0
011019	14:44:21	14:52:37	495222	5.0.10.0	4_exp_AWA_CON_AMP_EVA	59	Rpleas_acq	Oppo	Rpleas	Amasked	CS_A	2pleas	distractor2	CONbeforeEVA	acq_new_unple_masked	acq2_masked	2	23	480	1	300	300	0	0	479	50	0	0	0	0	0	1	blank2r.bmp	0	1	+	0	7	C3r.bmp	492	1	blank2r.bmp	786	5	C1r.bmp	786	1	blank2r.bmp	866	5	töten	866	1	FEHLER	1705	1	!	1319	1	!	1386	0	0	0	0	0	0	0	0	0	0	0	0	0	0	0	0	0	0	0	0	0	0	0	0
011019	14:44:21	14:52:38	497048	5.0.10.0	4_exp_AWA_CON_AMP_EVA	59	Rpleas_acq	Oppo	Rpleas	Amasked	CS_A	2pleas	distractor2	CONbeforeEVA	acq_new_unple_masked	acq2_masked	2	24	480	0	300	300	0	0	261	46	0	1	0	0	0	1	blank2r.bmp	0	1	+	0	4	B4r.bmp	492	1	blank2r.bmp	786	1	B1r.bmp	786	1	blank2r.bmp	866	2	geizig	866	1	!	-1	1	!	-1	0	0	0	0	0	0	0	0	0	0	0	0	0	0	0	0	0	0	0	0	0	0	0	0	0	0	0
011019	14:44:21	14:52:41	499500	5.0.10.0	4_exp_AWA_CON_AMP_EVA	59	Rpleas_acq	Oppo	Rpleas	Amasked	CS_A	2pleas	distractor2	CONbeforeEVA	acq_US_unple_masked	acq2_masked	2	25	480	1	300	300	0	0	426	50	0	0	0	0	0	1	blank2r.bmp	0	1	+	0	8	C4r.bmp	492	1	blank2r.bmp	786	1	CPLW	786	1	blank2r.bmp	866	1	krise	866	1	FEHLER	1652	1	!	1319	1	!	1332	0	0	0	0	0	0	0	0	0	0	0	0	0	0	0	0	0	0	0	0	0	0	0	0
011019	14:44:21	14:52:43	501726	5.0.10.0	4_exp_AWA_CON_AMP_EVA	59	Rpleas_acq	Oppo	Rpleas	Amasked	CS_A	2pleas	distractor2	CONbeforeEVA	acq_US_pleas_masked	acq2_masked	2	26	480	1	300	300	0	0	426	46	0	0	0	0	0	1	blank2r.bmp	0	1	+	0	3	B3r.bmp	492	1	blank2r.bmp	786	1	DHJF	786	1	blank2r.bmp	866	1	kuss	866	1	FEHLER	1652	1	!	1319	1	!	1332	0	0	0	0	0	0	0	0	0	0	0	0	0	0	0	0	0	0	0	0	0	0	0	0
011019	14:44:21	14:52:45	504125	5.0.10.0	4_exp_AWA_CON_AMP_EVA	59	Rpleas_acq	Oppo	Rpleas	Amasked	CS_A	2pleas	distractor2	CONbeforeEVA	acq_new_unple_masked	acq2_masked	2	27	480	0	300	300	0	0	616	50	0	0	0	0	0	1	blank2r.bmp	0	1	+	0	1	B1r.bmp	492	1	blank2r.bmp	786	3	B3r.bmp	786	1	blank2r.bmp	866	1	engstirnig	866	1	FEHLER	1825	1	!	1319	1	!	-1	0	0	0	0	0	0	0	0	0	0	0	0	0	0	0	0	0	0	0	0	0	0	0	0
011019	14:44:21	14:52:48	506271	5.0.10.0	4_exp_AWA_CON_AMP_EVA	59	Rpleas_acq	Oppo	Rpleas	Amasked	CS_A	2pleas	distractor2	CONbeforeEVA	acq_US_unple_masked	acq2_masked	2	28	480	0	300	300	0	0	590	46	0	1	0	0	0	1	blank2r.bmp	0	1	+	0	6	C2r.bmp	492	1	blank2r.bmp	786	1	CPLW	786	1	blank2r.bmp	866	2	gierig	866	1	!	1319	1	!	-1	0	0	0	0	0	0	0	0	0	0	0	0	0	0	0	0	0	0	0	0	0	0	0	0	0	0	0
011019	14:44:21	14:52:50	508576	5.0.10.0	4_exp_AWA_CON_AMP_EVA	59	Rpleas_acq	Oppo	Rpleas	Amasked	CS_A	2pleas	distractor2	CONbeforeEVA	acq_US_pleas_masked	acq2_masked	2	29	480	1	300	300	0	0	501	50	0	1	0	0	0	1	blank2r.bmp	0	1	+	0	2	B2r.bmp	492	1	blank2r.bmp	786	1	DHJF	786	1	blank2r.bmp	866	5	sonnig	866	1	!	1319	1	!	1399	0	0	0	0	0	0	0	0	0	0	0	0	0	0	0	0	0	0	0	0	0	0	0	0	0	0	0
011019	14:44:21	14:52:52	510855	5.0.10.0	4_exp_AWA_CON_AMP_EVA	59	Rpleas_acq	Oppo	Rpleas	Amasked	CS_A	2pleas	distractor2	CONbeforeEVA	acq_new_unple_masked	acq2_masked	2	30	480	1	300	300	0	0	489	46	0	1	0	0	0	1	blank2r.bmp	0	1	+	0	7	C3r.bmp	492	1	blank2r.bmp	786	2	B2r.bmp	786	1	blank2r.bmp	866	4	krank	866	1	!	1319	1	!	1386	0	0	0	0	0	0	0	0	0	0	0	0	0	0	0	0	0	0	0	0	0	0	0	0	0	0	0
011019	14:44:21	14:52:54	513121	5.0.10.0	4_exp_AWA_CON_AMP_EVA	59	Rpleas_acq	Oppo	Rpleas	Amasked	CS_A	2pleas	distractor2	CONbeforeEVA	acq_US_pleas_masked	acq2_masked	2	31	480	1	300	300	0	0	476	50	0	1	0	0	0	1	blank2r.bmp	0	1	+	0	5	C1r.bmp	492	1	blank2r.bmp	786	1	DHJF	786	1	blank2r.bmp	866	6	besonnen	866	1	!	1319	1	!	1372	0	0	0	0	0	0	0	0	0	0	0	0	0	0	0	0	0	0	0	0	0	0	0	0	0	0	0
011019	14:44:21	14:52:57	515467	5.0.10.0	4_exp_AWA_CON_AMP_EVA	59	Rpleas_acq	Oppo	Rpleas	Amasked	CS_A	2pleas	distractor2	CONbeforeEVA	acq_new_pleas_masked	acq2_masked	2	32	480	0	300	300	0	0	563	50	0	1	0	0	0	1	blank2r.bmp	0	1	+	0	3	B3r.bmp	492	1	blank2r.bmp	786	8	C4r.bmp	786	1	blank2r.bmp	866	4	kreativ	866	1	!	1319	1	!	-1	0	0	0	0	0	0	0	0	0	0	0	0	0	0	0	0	0	0	0	0	0	0	0	0	0	0	0
011019	14:44:21	14:52:59	517999	5.0.10.0	4_exp_AWA_CON_AMP_EVA	59	Rpleas_acq	Oppo	Rpleas	Amasked	CS_A	2pleas	distractor2	CONbeforeEVA	acq_new_pleas_masked	acq2_masked	2	33	480	1	300	300	0	0	508	46	0	0	0	0	0	1	blank2r.bmp	0	1	+	0	8	C4r.bmp	492	1	blank2r.bmp	786	5	C1r.bmp	786	1	blank2r.bmp	866	5	träumen	866	1	FEHLER	1732	1	!	1319	1	!	1412	0	0	0	0	0	0	0	0	0	0	0	0	0	0	0	0	0	0	0	0	0	0	0	0
011019	14:44:21	14:53:01	520132	5.0.10.0	4_exp_AWA_CON_AMP_EVA	59	Rpleas_acq	Oppo	Rpleas	Amasked	CS_A	2pleas	distractor2	CONbeforeEVA	acq_new_pleas_masked	acq2_masked	2	34	480	1	300	300	0	0	543	50	0	1	0	0	0	1	blank2r.bmp	0	1	+	0	1	B1r.bmp	492	1	blank2r.bmp	786	6	C2r.bmp	786	1	blank2r.bmp	866	2	gesittet	866	1	!	1319	1	!	1439	0	0	0	0	0	0	0	0	0	0	0	0	0	0	0	0	0	0	0	0	0	0	0	0	0	0	0
011019	14:44:21	14:53:04	522651	5.0.10.0	4_exp_AWA_CON_AMP_EVA	59	Rpleas_acq	Oppo	Rpleas	Amasked	CS_A	2pleas	distractor2	CONbeforeEVA	acq_new_unple_masked	acq2_masked	2	35	480	1	300	300	0	0	506	50	0	0	0	0	0	1	blank2r.bmp	0	1	+	0	4	B4r.bmp	492	1	blank2r.bmp	786	1	B1r.bmp	786	1	blank2r.bmp	866	6	ausrottung	866	1	FEHLER	1732	1	!	1319	1	!	1412	0	0	0	0	0	0	0	0	0	0	0	0	0	0	0	0	0	0	0	0	0	0	0	0
011019	14:44:21	14:53:06	524570	5.0.10.0	4_exp_AWA_CON_AMP_EVA	59	Rpleas_acq	Oppo	Rpleas	Amasked	CS_A	2pleas	distractor2	CONbeforeEVA	acq_US_unple_masked	acq2_masked	2	36	480	0	300	300	0	0	359	46	0	1	0	0	0	1	blank2r.bmp	0	1	+	0	6	C2r.bmp	492	1	blank2r.bmp	786	1	CPLW	786	1	blank2r.bmp	866	4	verbissen	866	1	!	-1	1	!	-1	0	0	0	0	0	0	0	0	0	0	0	0	0	0	0	0	0	0	0	0	0	0	0	0	0	0	0
011019	14:44:21	14:53:27	545388	5.0.10.0	4_exp_AWA_CON_AMP_EVA	59	Rpleas_acq	Oppo	Rpleas	Amasked	CS_A	2pleas	distractor2	CONbeforeEVA	acq_US_unple_masked	acq3_masked	3	1	453	0	300	300	0	0	532	46	0	1	0	0	0	1	blank2r.bmp	0	1	+	0	3	B3r.bmp	492	1	blank2r.bmp	786	1	CPLW	786	1	blank2r.bmp	866	5	sterben	866	1	!	1292	1	!	-1	0	0	0	0	0	0	0	0	0	0	0	0	0	0	0	0	0	0	0	0	0	0	0	0	0	0	0
011019	14:44:21	14:53:29	547680	5.0.10.0	4_exp_AWA_CON_AMP_EVA	59	Rpleas_acq	Oppo	Rpleas	Amasked	CS_A	2pleas	distractor2	CONbeforeEVA	acq_US_pleas_masked	acq3_masked	3	2	453	1	300	300	0	0	480	50	0	1	0	0	0	1	blank2r.bmp	0	1	+	0	4	B4r.bmp	492	1	blank2r.bmp	786	1	DHJF	786	1	blank2r.bmp	866	6	besonnen	866	1	!	1292	1	!	1386	0	0	0	0	0	0	0	0	0	0	0	0	0	0	0	0	0	0	0	0	0	0	0	0	0	0	0
011019	14:44:21	14:53:31	549933	5.0.10.0	4_exp_AWA_CON_AMP_EVA	59	Rpleas_acq	Oppo	Rpleas	Amasked	CS_A	2pleas	distractor2	CONbeforeEVA	acq_US_pleas_masked	acq3_masked	3	3	453	1	300	300	0	0	453	50	0	1	0	0	0	1	blank2r.bmp	0	1	+	0	5	C1r.bmp	492	1	blank2r.bmp	786	1	DHJF	786	1	blank2r.bmp	866	1	kuss	866	1	!	1292	1	!	1359	0	0	0	0	0	0	0	0	0	0	0	0	0	0	0	0	0	0	0	0	0	0	0	0	0	0	0
011019	14:44:21	14:53:34	552398	5.0.10.0	4_exp_AWA_CON_AMP_EVA	59	Rpleas_acq	Oppo	Rpleas	Amasked	CS_A	2pleas	distractor2	CONbeforeEVA	acq_US_unple_masked	acq3_masked	3	4	453	1	300	300	0	0	452	50	0	0	0	0	0	1	blank2r.bmp	0	1	+	0	6	C2r.bmp	492	1	blank2r.bmp	786	1	CPLW	786	1	blank2r.bmp	866	3	gemein	866	1	FEHLER	1679	1	!	1292	1	!	1359	0	0	0	0	0	0	0	0	0	0	0	0	0	0	0	0	0	0	0	0	0	0	0	0
011019	14:44:21	14:53:36	554464	5.0.10.0	4_exp_AWA_CON_AMP_EVA	59	Rpleas_acq	Oppo	Rpleas	Amasked	CS_A	2pleas	distractor2	CONbeforeEVA	acq_US_pleas_masked	acq3_masked	3	5	453	1	300	300	0	0	482	50	0	1	0	0	0	1	blank2r.bmp	0	1	+	0	2	B2r.bmp	492	1	blank2r.bmp	786	1	DHJF	786	1	blank2r.bmp	866	3	genießen	866	1	!	1292	1	!	1386	0	0	0	0	0	0	0	0	0	0	0	0	0	0	0	0	0	0	0	0	0	0	0	0	0	0	0
011019	14:44:21	14:53:38	556610	5.0.10.0	4_exp_AWA_CON_AMP_EVA	59	Rpleas_acq	Oppo	Rpleas	Amasked	CS_A	2pleas	distractor2	CONbeforeEVA	acq_US_unple_masked	acq3_masked	3	6	453	0	300	300	0	0	372	46	0	1	0	0	0	1	blank2r.bmp	0	1	+	0	1	B1r.bmp	492	1	blank2r.bmp	786	1	CPLW	786	1	blank2r.bmp	866	2	gierig	866	1	!	-1	1	!	-1	0	0	0	0	0	0	0	0	0	0	0	0	0	0	0	0	0	0	0	0	0	0	0	0	0	0	0
011019	14:44:21	14:53:40	559062	5.0.10.0	4_exp_AWA_CON_AMP_EVA	59	Rpleas_acq	Oppo	Rpleas	Amasked	CS_A	2pleas	distractor2	CONbeforeEVA	acq_US_unple_masked	acq3_masked	3	7	453	1	300	300	0	0	426	50	0	0	0	0	0	1	blank2r.bmp	0	1	+	0	7	C3r.bmp	492	1	blank2r.bmp	786	1	CPLW	786	1	blank2r.bmp	866	4	verbissen	866	1	FEHLER	1652	1	!	1292	1	!	1332	0	0	0	0	0	0	0	0	0	0	0	0	0	0	0	0	0	0	0	0	0	0	0	0
011019	14:44:21	14:53:43	561221	5.0.10.0	4_exp_AWA_CON_AMP_EVA	59	Rpleas_acq	Oppo	Rpleas	Amasked	CS_A	2pleas	distractor2	CONbeforeEVA	acq_US_pleas_masked	acq3_masked	3	8	453	0	300	300	0	0	608	50	0	1	0	0	0	1	blank2r.bmp	0	1	+	0	8	C4r.bmp	492	1	blank2r.bmp	786	1	DHJF	786	1	blank2r.bmp	866	4	vergnügt	866	1	!	1292	1	!	-1	0	0	0	0	0	0	0	0	0	0	0	0	0	0	0	0	0	0	0	0	0	0	0	0	0	0	0
011019	14:44:21	14:53:45	563274	5.0.10.0	4_exp_AWA_CON_AMP_EVA	59	Rpleas_acq	Oppo	Rpleas	Amasked	CS_A	2pleas	distractor2	CONbeforeEVA	acq_US_unple_masked	acq3_masked	3	9	453	0	300	300	0	0	267	46	0	1	0	0	0	1	blank2r.bmp	0	1	+	0	1	B1r.bmp	492	1	blank2r.bmp	786	1	CPLW	786	1	blank2r.bmp	866	6	bange	866	1	!	-1	1	!	-1	0	0	0	0	0	0	0	0	0	0	0	0	0	0	0	0	0	0	0	0	0	0	0	0	0	0	0
011019	14:44:21	14:53:47	565646	5.0.10.0	4_exp_AWA_CON_AMP_EVA	59	Rpleas_acq	Oppo	Rpleas	Amasked	CS_A	2pleas	distractor2	CONbeforeEVA	acq_US_unple_masked	acq3_masked	3	10	453	0	300	300	0	0	361	50	0	0	0	0	0	1	blank2r.bmp	0	1	+	0	5	C1r.bmp	492	1	blank2r.bmp	786	1	CPLW	786	1	blank2r.bmp	866	1	krise	866	1	FEHLER	1572	1	!	-1	1	!	-1	0	0	0	0	0	0	0	0	0	0	0	0	0	0	0	0	0	0	0	0	0	0	0	0
011019	14:44:21	14:53:49	567712	5.0.10.0	4_exp_AWA_CON_AMP_EVA	59	Rpleas_acq	Oppo	Rpleas	Amasked	CS_A	2pleas	distractor2	CONbeforeEVA	acq_US_pleas_masked	acq3_masked	3	11	453	1	300	300	0	0	486	50	0	1	0	0	0	1	blank2r.bmp	0	1	+	0	8	C4r.bmp	492	1	blank2r.bmp	786	1	DHJF	786	1	blank2r.bmp	866	2	gütig	866	1	!	1292	1	!	1386	0	0	0	0	0	0	0	0	0	0	0	0	0	0	0	0	0	0	0	0	0	0	0	0	0	0	0
011019	14:44:21	14:53:51	570031	5.0.10.0	4_exp_AWA_CON_AMP_EVA	59	Rpleas_acq	Oppo	Rpleas	Amasked	CS_A	2pleas	distractor2	CONbeforeEVA	acq_US_pleas_masked	acq3_masked	3	12	453	0	300	300	0	0	325	46	0	0	0	0	0	1	blank2r.bmp	0	1	+	0	2	B2r.bmp	492	1	blank2r.bmp	786	1	DHJF	786	1	blank2r.bmp	866	5	sonnig	866	1	FEHLER	1532	1	!	-1	1	!	-1	0	0	0	0	0	0	0	0	0	0	0	0	0	0	0	0	0	0	0	0	0	0	0	0
011019	14:44:21	14:53:53	571924	5.0.10.0	4_exp_AWA_CON_AMP_EVA	59	Rpleas_acq	Oppo	Rpleas	Amasked	CS_A	2pleas	distractor2	CONbeforeEVA	acq_US_pleas_masked	acq3_masked	3	13	453	0	300	300	0	0	337	50	0	1	0	0	0	1	blank2r.bmp	0	1	+	0	3	B3r.bmp	492	1	blank2r.bmp	786	1	DHJF	786	1	blank2r.bmp	866	1	kuss	866	1	!	-1	1	!	-1	0	0	0	0	0	0	0	0	0	0	0	0	0	0	0	0	0	0	0	0	0	0	0	0	0	0	0
011019	14:44:21	14:53:55	574029	5.0.10.0	4_exp_AWA_CON_AMP_EVA	59	Rpleas_acq	Oppo	Rpleas	Amasked	CS_A	2pleas	distractor2	CONbeforeEVA	acq_US_unple_masked	acq3_masked	3	14	453	0	300	300	0	0	327	46	0	1	0	0	0	1	blank2r.bmp	0	1	+	0	4	B4r.bmp	492	1	blank2r.bmp	786	1	CPLW	786	1	blank2r.bmp	866	2	gierig	866	1	!	-1	1	!	-1	0	0	0	0	0	0	0	0	0	0	0	0	0	0	0	0	0	0	0	0	0	0	0	0	0	0	0
011019	14:44:21	14:53:58	576348	5.0.10.0	4_exp_AWA_CON_AMP_EVA	59	Rpleas_acq	Oppo	Rpleas	Amasked	CS_A	2pleas	distractor2	CONbeforeEVA	acq_US_pleas_masked	acq3_masked	3	15	453	0	300	300	0	0	545	50	0	1	0	0	0	1	blank2r.bmp	0	1	+	0	7	C3r.bmp	492	1	blank2r.bmp	786	1	DHJF	786	1	blank2r.bmp	866	4	vergnügt	866	1	!	1292	1	!	-1	0	0	0	0	0	0	0	0	0	0	0	0	0	0	0	0	0	0	0	0	0	0	0	0	0	0	0
011019	14:44:21	14:54:00	578588	5.0.10.0	4_exp_AWA_CON_AMP_EVA	59	Rpleas_acq	Oppo	Rpleas	Amasked	CS_A	2pleas	distractor2	CONbeforeEVA	acq_US_pleas_masked	acq3_masked	3	16	453	1	300	300	0	0	419	50	0	1	0	0	0	1	blank2r.bmp	0	1	+	0	6	C2r.bmp	492	1	blank2r.bmp	786	1	DHJF	786	1	blank2r.bmp	866	6	besonnen	866	1	!	1292	1	!	1319	0	0	0	0	0	0	0	0	0	0	0	0	0	0	0	0	0	0	0	0	0	0	0	0	0	0	0
011019	14:44:21	14:54:02	580720	5.0.10.0	4_exp_AWA_CON_AMP_EVA	59	Rpleas_acq	Oppo	Rpleas	Amasked	CS_A	2pleas	distractor2	CONbeforeEVA	acq_US_unple_masked	acq3_masked	3	17	453	0	300	300	0	0	370	46	0	1	0	0	0	1	blank2r.bmp	0	1	+	0	5	C1r.bmp	492	1	blank2r.bmp	786	1	CPLW	786	1	blank2r.bmp	866	5	sterben	866	1	!	-1	1	!	-1	0	0	0	0	0	0	0	0	0	0	0	0	0	0	0	0	0	0	0	0	0	0	0	0	0	0	0
011019	14:44:21	14:54:04	582972	5.0.10.0	4_exp_AWA_CON_AMP_EVA	59	Rpleas_acq	Oppo	Rpleas	Amasked	CS_A	2pleas	distractor2	CONbeforeEVA	acq_US_pleas_masked	acq3_masked	3	18	453	1	300	300	0	0	446	50	0	1	0	0	0	1	blank2r.bmp	0	1	+	0	7	C3r.bmp	492	1	blank2r.bmp	786	1	DHJF	786	1	blank2r.bmp	866	5	sonnig	866	1	!	1292	1	!	1346	0	0	0	0	0	0	0	0	0	0	0	0	0	0	0	0	0	0	0	0	0	0	0	0	0	0	0
011019	14:44:21	14:54:07	585371	5.0.10.0	4_exp_AWA_CON_AMP_EVA	59	Rpleas_acq	Oppo	Rpleas	Amasked	CS_A	2pleas	distractor2	CONbeforeEVA	acq_US_unple_masked	acq3_masked	3	19	453	1	300	300	0	0	399	50	0	0	0	0	0	1	blank2r.bmp	0	1	+	0	1	B1r.bmp	492	1	blank2r.bmp	786	1	CPLW	786	1	blank2r.bmp	866	1	krise	866	1	FEHLER	1625	1	!	1292	1	!	1306	0	0	0	0	0	0	0	0	0	0	0	0	0	0	0	0	0	0	0	0	0	0	0	0
011019	14:44:21	14:54:09	587464	5.0.10.0	4_exp_AWA_CON_AMP_EVA	59	Rpleas_acq	Oppo	Rpleas	Amasked	CS_A	2pleas	distractor2	CONbeforeEVA	acq_US_pleas_masked	acq3_masked	3	20	453	1	300	300	0	0	503	50	0	1	0	0	0	1	blank2r.bmp	0	1	+	0	2	B2r.bmp	492	1	blank2r.bmp	786	1	DHJF	786	1	blank2r.bmp	866	3	genießen	866	1	!	1292	1	!	1399	0	0	0	0	0	0	0	0	0	0	0	0	0	0	0	0	0	0	0	0	0	0	0	0	0	0	0
011019	14:44:21	14:54:11	589583	5.0.10.0	4_exp_AWA_CON_AMP_EVA	59	Rpleas_acq	Oppo	Rpleas	Amasked	CS_A	2pleas	distractor2	CONbeforeEVA	acq_US_unple_masked	acq3_masked	3	21	453	0	300	300	0	0	353	46	0	1	0	0	0	1	blank2r.bmp	0	1	+	0	8	C4r.bmp	492	1	blank2r.bmp	786	1	CPLW	786	1	blank2r.bmp	866	3	gemein	866	1	!	-1	1	!	-1	0	0	0	0	0	0	0	0	0	0	0	0	0	0	0	0	0	0	0	0	0	0	0	0	0	0	0
011019	14:44:21	14:54:13	591862	5.0.10.0	4_exp_AWA_CON_AMP_EVA	59	Rpleas_acq	Oppo	Rpleas	Amasked	CS_A	2pleas	distractor2	CONbeforeEVA	acq_US_unple_masked	acq3_masked	3	22	453	1	300	300	0	0	469	46	0	1	0	0	0	1	blank2r.bmp	0	1	+	0	3	B3r.bmp	492	1	blank2r.bmp	786	1	CPLW	786	1	blank2r.bmp	866	6	bange	866	1	!	1292	1	!	1372	0	0	0	0	0	0	0	0	0	0	0	0	0	0	0	0	0	0	0	0	0	0	0	0	0	0	0
011019	14:44:21	14:54:16	594394	5.0.10.0	4_exp_AWA_CON_AMP_EVA	59	Rpleas_acq	Oppo	Rpleas	Amasked	CS_A	2pleas	distractor2	CONbeforeEVA	acq_US_pleas_masked	acq3_masked	3	23	453	0	300	300	0	0	539	46	0	0	0	0	0	1	blank2r.bmp	0	1	+	0	4	B4r.bmp	492	1	blank2r.bmp	786	1	DHJF	786	1	blank2r.bmp	866	2	gütig	866	1	FEHLER	1745	1	!	1292	1	!	-1	0	0	0	0	0	0	0	0	0	0	0	0	0	0	0	0	0	0	0	0	0	0	0	0
011019	14:44:21	14:54:18	596700	5.0.10.0	4_exp_AWA_CON_AMP_EVA	59	Rpleas_acq	Oppo	Rpleas	Amasked	CS_A	2pleas	distractor2	CONbeforeEVA	acq_US_unple_masked	acq3_masked	3	24	453	1	300	300	0	0	517	50	0	0	0	0	0	1	blank2r.bmp	0	1	+	0	6	C2r.bmp	492	1	blank2r.bmp	786	1	CPLW	786	1	blank2r.bmp	866	4	verbissen	866	1	FEHLER	1732	1	!	1292	1	!	1412	0	0	0	0	0	0	0	0	0	0	0	0	0	0	0	0	0	0	0	0	0	0	0	0
011019	14:44:21	14:54:20	598913	5.0.10.0	4_exp_AWA_CON_AMP_EVA	59	Rpleas_acq	Oppo	Rpleas	Amasked	CS_A	2pleas	distractor2	CONbeforeEVA	acq_US_unple_masked	acq3_masked	3	25	453	1	300	300	0	0	399	50	0	0	0	0	0	1	blank2r.bmp	0	1	+	0	1	B1r.bmp	492	1	blank2r.bmp	786	1	CPLW	786	1	blank2r.bmp	866	2	gierig	866	1	FEHLER	1625	1	!	1292	1	!	1306	0	0	0	0	0	0	0	0	0	0	0	0	0	0	0	0	0	0	0	0	0	0	0	0
011019	14:44:21	14:54:22	601125	5.0.10.0	4_exp_AWA_CON_AMP_EVA	59	Rpleas_acq	Oppo	Rpleas	Amasked	CS_A	2pleas	distractor2	CONbeforeEVA	acq_US_unple_masked	acq3_masked	3	26	453	1	300	300	0	0	414	50	0	0	0	0	0	1	blank2r.bmp	0	1	+	0	7	C3r.bmp	492	1	blank2r.bmp	786	1	CPLW	786	1	blank2r.bmp	866	5	sterben	866	1	FEHLER	1639	1	!	1292	1	!	1319	0	0	0	0	0	0	0	0	0	0	0	0	0	0	0	0	0	0	0	0	0	0	0	0
011019	14:44:21	14:54:25	603284	5.0.10.0	4_exp_AWA_CON_AMP_EVA	59	Rpleas_acq	Oppo	Rpleas	Amasked	CS_A	2pleas	distractor2	CONbeforeEVA	acq_US_pleas_masked	acq3_masked	3	27	453	0	300	300	0	0	373	46	0	0	0	0	0	1	blank2r.bmp	0	1	+	0	6	C2r.bmp	492	1	blank2r.bmp	786	1	DHJF	786	1	blank2r.bmp	866	5	sonnig	866	1	FEHLER	1586	1	!	-1	1	!	-1	0	0	0	0	0	0	0	0	0	0	0	0	0	0	0	0	0	0	0	0	0	0	0	0
011019	14:44:21	14:54:27	605457	5.0.10.0	4_exp_AWA_CON_AMP_EVA	59	Rpleas_acq	Oppo	Rpleas	Amasked	CS_A	2pleas	distractor2	CONbeforeEVA	acq_US_unple_masked	acq3_masked	3	28	453	0	300	300	0	0	601	46	0	1	0	0	0	1	blank2r.bmp	0	1	+	0	2	B2r.bmp	492	1	blank2r.bmp	786	1	CPLW	786	1	blank2r.bmp	866	6	bange	866	1	!	1292	1	!	-1	0	0	0	0	0	0	0	0	0	0	0	0	0	0	0	0	0	0	0	0	0	0	0	0	0	0	0
011019	14:44:21	14:54:29	607776	5.0.10.0	4_exp_AWA_CON_AMP_EVA	59	Rpleas_acq	Oppo	Rpleas	Amasked	CS_A	2pleas	distractor2	CONbeforeEVA	acq_US_unple_masked	acq3_masked	3	29	453	0	300	300	0	0	542	46	0	1	0	0	0	1	blank2r.bmp	0	1	+	0	4	B4r.bmp	492	1	blank2r.bmp	786	1	CPLW	786	1	blank2r.bmp	866	4	verbissen	866	1	!	1292	1	!	-1	0	0	0	0	0	0	0	0	0	0	0	0	0	0	0	0	0	0	0	0	0	0	0	0	0	0	0
011019	14:44:21	14:54:32	610201	5.0.10.0	4_exp_AWA_CON_AMP_EVA	59	Rpleas_acq	Oppo	Rpleas	Amasked	CS_A	2pleas	distractor2	CONbeforeEVA	acq_US_pleas_masked	acq3_masked	3	30	453	1	300	300	0	0	399	46	0	0	0	0	0	1	blank2r.bmp	0	1	+	0	3	B3r.bmp	492	1	blank2r.bmp	786	1	DHJF	786	1	blank2r.bmp	866	2	gütig	866	1	FEHLER	1625	1	!	1292	1	!	1306	0	0	0	0	0	0	0	0	0	0	0	0	0	0	0	0	0	0	0	0	0	0	0	0
011019	14:44:21	14:54:36	614493	5.0.10.0	4_exp_AWA_CON_AMP_EVA	59	Rpleas_acq	Oppo	Rpleas	Amasked	CS_A	2pleas	distractor2	CONbeforeEVA	acq_US_pleas_masked	acq3_masked	3	31	453	0	300	300	0	0	2739	50	0	1	0	0	0	1	blank2r.bmp	0	1	+	0	5	C1r.bmp	492	1	blank2r.bmp	786	1	DHJF	786	1	blank2r.bmp	866	3	genießen	866	1	!	1292	1	!	-1	0	0	0	0	0	0	0	0	0	0	0	0	0	0	0	0	0	0	0	0	0	0	0	0	0	0	0
011019	14:44:21	14:54:38	616865	5.0.10.0	4_exp_AWA_CON_AMP_EVA	59	Rpleas_acq	Oppo	Rpleas	Amasked	CS_A	2pleas	distractor2	CONbeforeEVA	acq_US_pleas_masked	acq3_masked	3	32	453	0	300	300	0	0	593	50	0	1	0	0	0	1	blank2r.bmp	0	1	+	0	8	C4r.bmp	492	1	blank2r.bmp	786	1	DHJF	786	1	blank2r.bmp	866	4	vergnügt	866	1	!	1292	1	!	-1	0	0	0	0	0	0	0	0	0	0	0	0	0	0	0	0	0	0	0	0	0	0	0	0	0	0	0
011019	14:44:21	14:54:40	619104	5.0.10.0	4_exp_AWA_CON_AMP_EVA	59	Rpleas_acq	Oppo	Rpleas	Amasked	CS_A	2pleas	distractor2	CONbeforeEVA	acq_US_pleas_masked	acq3_masked	3	33	453	1	300	300	0	0	432	50	0	1	0	0	0	1	blank2r.bmp	0	1	+	0	5	C1r.bmp	492	1	blank2r.bmp	786	1	DHJF	786	1	blank2r.bmp	866	6	besonnen	866	1	!	1292	1	!	1332	0	0	0	0	0	0	0	0	0	0	0	0	0	0	0	0	0	0	0	0	0	0	0	0	0	0	0
011019	14:44:21	14:54:43	621343	5.0.10.0	4_exp_AWA_CON_AMP_EVA	59	Rpleas_acq	Oppo	Rpleas	Amasked	CS_A	2pleas	distractor2	CONbeforeEVA	acq_US_pleas_masked	acq3_masked	3	34	453	1	300	300	0	0	439	50	0	1	0	0	0	1	blank2r.bmp	0	1	+	0	3	B3r.bmp	492	1	blank2r.bmp	786	1	DHJF	786	1	blank2r.bmp	866	1	kuss	866	1	!	1292	1	!	1346	0	0	0	0	0	0	0	0	0	0	0	0	0	0	0	0	0	0	0	0	0	0	0	0	0	0	0
011019	14:44:21	14:54:45	623822	5.0.10.0	4_exp_AWA_CON_AMP_EVA	59	Rpleas_acq	Oppo	Rpleas	Amasked	CS_A	2pleas	distractor2	CONbeforeEVA	acq_US_unple_masked	acq3_masked	3	35	453	1	300	300	0	0	473	50	0	0	0	0	0	1	blank2r.bmp	0	1	+	0	2	B2r.bmp	492	1	blank2r.bmp	786	1	CPLW	786	1	blank2r.bmp	866	1	krise	866	1	FEHLER	1692	1	!	1292	1	!	1372	0	0	0	0	0	0	0	0	0	0	0	0	0	0	0	0	0	0	0	0	0	0	0	0
011019	14:44:21	14:54:47	625835	5.0.10.0	4_exp_AWA_CON_AMP_EVA	59	Rpleas_acq	Oppo	Rpleas	Amasked	CS_A	2pleas	distractor2	CONbeforeEVA	acq_US_unple_masked	acq3_masked	3	36	453	1	300	300	0	0	426	46	0	1	0	0	0	1	blank2r.bmp	0	1	+	0	8	C4r.bmp	492	1	blank2r.bmp	786	1	CPLW	786	1	blank2r.bmp	866	3	gemein	866	1	!	1292	1	!	1332	0	0	0	0	0	0	0	0	0	0	0	0	0	0	0	0	0	0	0	0	0	0	0	0	0	0	0
011019	14:44:21	14:55:03	641428	5.0.10.0	4_exp_AWA_CON_AMP_EVA	59	Rpleas_acq	Oppo	Rpleas	Amasked	CS_A	2pleas	distractor2	CONbeforeEVA	acq_US_pleas_masked	acq45_masked	4	1	400	0	300	300	0	0	496	50	0	1	0	0	0	1	blank2r.bmp	0	1	+	0	1	B1r.bmp	492	1	blank2r.bmp	786	1	DHJF	786	1	blank2r.bmp	866	3	genießen	866	1	!	1239	1	!	-1	0	0	0	0	0	0	0	0	0	0	0	0	0	0	0	0	0	0	0	0	0	0	0	0	0	0	0
011019	14:44:21	14:55:05	643614	5.0.10.0	4_exp_AWA_CON_AMP_EVA	59	Rpleas_acq	Oppo	Rpleas	Amasked	CS_A	2pleas	distractor2	CONbeforeEVA	acq_US_unple_masked	acq45_masked	4	2	400	1	300	300	0	0	382	50	0	0	0	0	0	1	blank2r.bmp	0	1	+	0	6	C2r.bmp	492	1	blank2r.bmp	786	1	CPLW	786	1	blank2r.bmp	866	5	sterben	866	1	!	1239	1	!	1279	0	0	0	0	0	0	0	0	0	0	0	0	0	0	0	0	0	0	0	0	0	0	0	0	0	0	0
011019	14:44:21	14:55:07	645893	5.0.10.0	4_exp_AWA_CON_AMP_EVA	59	Rpleas_acq	Oppo	Rpleas	Amasked	CS_A	2pleas	distractor2	CONbeforeEVA	acq_US_unple_masked	acq45_masked	4	3	400	1	300	300	0	0	465	46	0	1	0	0	0	1	blank2r.bmp	0	1	+	0	7	C3r.bmp	492	1	blank2r.bmp	786	1	CPLW	786	1	blank2r.bmp	866	4	verbissen	866	1	!	1239	1	!	1372	0	0	0	0	0	0	0	0	0	0	0	0	0	0	0	0	0	0	0	0	0	0	0	0	0	0	0
011019	14:44:21	14:55:10	648172	5.0.10.0	4_exp_AWA_CON_AMP_EVA	59	Rpleas_acq	Oppo	Rpleas	Amasked	CS_A	2pleas	distractor2	CONbeforeEVA	acq_US_unple_masked	acq45_masked	4	4	400	0	300	300	0	0	512	46	0	1	0	0	0	1	blank2r.bmp	0	1	+	0	4	B4r.bmp	492	1	blank2r.bmp	786	1	CPLW	786	1	blank2r.bmp	866	6	bange	866	1	!	1239	1	!	-1	0	0	0	0	0	0	0	0	0	0	0	0	0	0	0	0	0	0	0	0	0	0	0	0	0	0	0
011019	14:44:21	14:55:12	650451	5.0.10.0	4_exp_AWA_CON_AMP_EVA	59	Rpleas_acq	Oppo	Rpleas	Amasked	CS_A	2pleas	distractor2	CONbeforeEVA	acq_US_pleas_masked	acq45_masked	4	5	400	1	300	300	0	0	456	50	0	1	0	0	0	1	blank2r.bmp	0	1	+	0	5	C1r.bmp	492	1	blank2r.bmp	786	1	DHJF	786	1	blank2r.bmp	866	4	vergnügt	866	1	!	1239	1	!	1359	0	0	0	0	0	0	0	0	0	0	0	0	0	0	0	0	0	0	0	0	0	0	0	0	0	0	0
011019	14:44:21	14:55:14	652690	5.0.10.0	4_exp_AWA_CON_AMP_EVA	59	Rpleas_acq	Oppo	Rpleas	Amasked	CS_A	2pleas	distractor2	CONbeforeEVA	acq_US_pleas_masked	acq45_masked	4	6	400	1	300	300	0	0	445	50	0	1	0	0	0	1	blank2r.bmp	0	1	+	0	3	B3r.bmp	492	1	blank2r.bmp	786	1	DHJF	786	1	blank2r.bmp	866	6	besonnen	866	1	!	1239	1	!	1346	0	0	0	0	0	0	0	0	0	0	0	0	0	0	0	0	0	0	0	0	0	0	0	0	0	0	0
011019	14:44:21	14:55:16	654956	5.0.10.0	4_exp_AWA_CON_AMP_EVA	59	Rpleas_acq	Oppo	Rpleas	Amasked	CS_A	2pleas	distractor2	CONbeforeEVA	acq_US_pleas_masked	acq45_masked	4	7	400	0	300	300	0	0	500	50	0	1	0	0	0	1	blank2r.bmp	0	1	+	0	7	C3r.bmp	492	1	blank2r.bmp	786	1	DHJF	786	1	blank2r.bmp	866	5	sonnig	866	1	!	1239	1	!	-1	0	0	0	0	0	0	0	0	0	0	0	0	0	0	0	0	0	0	0	0	0	0	0	0	0	0	0
011019	14:44:21	14:55:18	657129	5.0.10.0	4_exp_AWA_CON_AMP_EVA	59	Rpleas_acq	Oppo	Rpleas	Amasked	CS_A	2pleas	distractor2	CONbeforeEVA	acq_US_pleas_masked	acq45_masked	4	8	400	1	300	300	0	0	346	50	0	1	0	0	0	1	blank2r.bmp	0	1	+	0	8	C4r.bmp	492	1	blank2r.bmp	786	1	DHJF	786	1	blank2r.bmp	866	1	kuss	866	1	!	1239	1	!	1252	0	0	0	0	0	0	0	0	0	0	0	0	0	0	0	0	0	0	0	0	0	0	0	0	0	0	0
011019	14:44:21	14:55:21	659421	5.0.10.0	4_exp_AWA_CON_AMP_EVA	59	Rpleas_acq	Oppo	Rpleas	Amasked	CS_A	2pleas	distractor2	CONbeforeEVA	acq_US_pleas_masked	acq45_masked	4	9	400	0	300	300	0	0	524	50	0	1	0	0	0	1	blank2r.bmp	0	1	+	0	2	B2r.bmp	492	1	blank2r.bmp	786	1	DHJF	786	1	blank2r.bmp	866	2	gütig	866	1	!	1239	1	!	-1	0	0	0	0	0	0	0	0	0	0	0	0	0	0	0	0	0	0	0	0	0	0	0	0	0	0	0
011019	14:44:21	14:55:23	661607	5.0.10.0	4_exp_AWA_CON_AMP_EVA	59	Rpleas_acq	Oppo	Rpleas	Amasked	CS_A	2pleas	distractor2	CONbeforeEVA	acq_US_unple_masked	acq45_masked	4	10	400	1	300	300	0	0	378	46	0	1	0	0	0	1	blank2r.bmp	0	1	+	0	4	B4r.bmp	492	1	blank2r.bmp	786	1	CPLW	786	1	blank2r.bmp	866	3	gemein	866	1	!	1239	1	!	1279	0	0	0	0	0	0	0	0	0	0	0	0	0	0	0	0	0	0	0	0	0	0	0	0	0	0	0
011019	14:44:21	14:55:25	663766	5.0.10.0	4_exp_AWA_CON_AMP_EVA	59	Rpleas_acq	Oppo	Rpleas	Amasked	CS_A	2pleas	distractor2	CONbeforeEVA	acq_US_unple_masked	acq45_masked	4	11	400	1	300	300	0	0	372	50	0	0	0	0	0	1	blank2r.bmp	0	1	+	0	6	C2r.bmp	492	1	blank2r.bmp	786	1	CPLW	786	1	blank2r.bmp	866	2	gierig	866	1	!	1239	1	!	1266	0	0	0	0	0	0	0	0	0	0	0	0	0	0	0	0	0	0	0	0	0	0	0	0	0	0	0
011019	14:44:21	14:55:27	666018	5.0.10.0	4_exp_AWA_CON_AMP_EVA	59	Rpleas_acq	Oppo	Rpleas	Amasked	CS_A	2pleas	distractor2	CONbeforeEVA	acq_US_pleas_masked	acq45_masked	4	12	400	0	300	300	0	0	479	50	0	1	0	0	0	1	blank2r.bmp	0	1	+	0	1	B1r.bmp	492	1	blank2r.bmp	786	1	DHJF	786	1	blank2r.bmp	866	6	besonnen	866	1	!	1239	1	!	-1	0	0	0	0	0	0	0	0	0	0	0	0	0	0	0	0	0	0	0	0	0	0	0	0	0	0	0
011019	14:44:21	14:55:30	668231	5.0.10.0	4_exp_AWA_CON_AMP_EVA	59	Rpleas_acq	Oppo	Rpleas	Amasked	CS_A	2pleas	distractor2	CONbeforeEVA	acq_US_pleas_masked	acq45_masked	4	13	400	1	300	300	0	0	388	50	0	1	0	0	0	1	blank2r.bmp	0	1	+	0	3	B3r.bmp	492	1	blank2r.bmp	786	1	DHJF	786	1	blank2r.bmp	866	3	genießen	866	1	!	1239	1	!	1292	0	0	0	0	0	0	0	0	0	0	0	0	0	0	0	0	0	0	0	0	0	0	0	0	0	0	0
011019	14:44:21	14:55:32	670390	5.0.10.0	4_exp_AWA_CON_AMP_EVA	59	Rpleas_acq	Oppo	Rpleas	Amasked	CS_A	2pleas	distractor2	CONbeforeEVA	acq_US_unple_masked	acq45_masked	4	14	400	1	300	300	0	0	346	50	0	0	0	0	0	1	blank2r.bmp	0	1	+	0	6	C2r.bmp	492	1	blank2r.bmp	786	1	CPLW	786	1	blank2r.bmp	866	1	krise	866	1	!	1239	1	!	1252	0	0	0	0	0	0	0	0	0	0	0	0	0	0	0	0	0	0	0	0	0	0	0	0	0	0	0
011019	14:44:21	14:55:34	672549	5.0.10.0	4_exp_AWA_CON_AMP_EVA	59	Rpleas_acq	Oppo	Rpleas	Amasked	CS_A	2pleas	distractor2	CONbeforeEVA	acq_US_pleas_masked	acq45_masked	4	15	400	1	300	300	0	0	372	46	0	0	0	0	0	1	blank2r.bmp	0	1	+	0	7	C3r.bmp	492	1	blank2r.bmp	786	1	DHJF	786	1	blank2r.bmp	866	5	sonnig	866	1	!	1239	1	!	1266	0	0	0	0	0	0	0	0	0	0	0	0	0	0	0	0	0	0	0	0	0	0	0	0	0	0	0
011019	14:44:21	14:55:36	674988	5.0.10.0	4_exp_AWA_CON_AMP_EVA	59	Rpleas_acq	Oppo	Rpleas	Amasked	CS_A	2pleas	distractor2	CONbeforeEVA	acq_US_unple_masked	acq45_masked	4	16	400	0	300	300	0	0	666	46	0	1	0	0	0	1	blank2r.bmp	0	1	+	0	1	B1r.bmp	492	1	blank2r.bmp	786	1	CPLW	786	1	blank2r.bmp	866	5	sterben	866	1	!	1239	1	!	-1	0	0	0	0	0	0	0	0	0	0	0	0	0	0	0	0	0	0	0	0	0	0	0	0	0	0	0
011019	14:44:21	14:55:39	677200	5.0.10.0	4_exp_AWA_CON_AMP_EVA	59	Rpleas_acq	Oppo	Rpleas	Amasked	CS_A	2pleas	distractor2	CONbeforeEVA	acq_US_unple_masked	acq45_masked	4	17	400	1	300	300	0	0	395	50	0	0	0	0	0	1	blank2r.bmp	0	1	+	0	5	C1r.bmp	492	1	blank2r.bmp	786	1	CPLW	786	1	blank2r.bmp	866	4	verbissen	866	1	!	1239	1	!	1292	0	0	0	0	0	0	0	0	0	0	0	0	0	0	0	0	0	0	0	0	0	0	0	0	0	0	0
011019	14:44:21	14:55:43	681519	5.0.10.0	4_exp_AWA_CON_AMP_EVA	59	Rpleas_acq	Oppo	Rpleas	Amasked	CS_A	2pleas	distractor2	CONbeforeEVA	acq_US_unple_masked	acq45_masked	4	18	400	0	300	300	0	0	2532	50	0	0	0	0	0	1	blank2r.bmp	0	1	+	0	2	B2r.bmp	492	1	blank2r.bmp	786	1	CPLW	786	1	blank2r.bmp	866	2	gierig	866	1	!	1239	1	!	-1	0	0	0	0	0	0	0	0	0	0	0	0	0	0	0	0	0	0	0	0	0	0	0	0	0	0	0
011019	14:44:21	14:55:45	683624	5.0.10.0	4_exp_AWA_CON_AMP_EVA	59	Rpleas_acq	Oppo	Rpleas	Amasked	CS_A	2pleas	distractor2	CONbeforeEVA	acq_US_pleas_masked	acq45_masked	4	19	400	0	300	300	0	0	319	50	0	1	0	0	0	1	blank2r.bmp	0	1	+	0	4	B4r.bmp	492	1	blank2r.bmp	786	1	DHJF	786	1	blank2r.bmp	866	1	kuss	866	1	!	-1	1	!	-1	0	0	0	0	0	0	0	0	0	0	0	0	0	0	0	0	0	0	0	0	0	0	0	0	0	0	0
011019	14:44:21	14:55:47	685970	5.0.10.0	4_exp_AWA_CON_AMP_EVA	59	Rpleas_acq	Oppo	Rpleas	Amasked	CS_A	2pleas	distractor2	CONbeforeEVA	acq_US_unple_masked	acq45_masked	4	20	400	0	300	300	0	0	560	46	0	1	0	0	0	1	blank2r.bmp	0	1	+	0	8	C4r.bmp	492	1	blank2r.bmp	786	1	CPLW	786	1	blank2r.bmp	866	3	gemein	866	1	!	1239	1	!	-1	0	0	0	0	0	0	0	0	0	0	0	0	0	0	0	0	0	0	0	0	0	0	0	0	0	0	0
011019	14:44:21	14:55:51	689355	5.0.10.0	4_exp_AWA_CON_AMP_EVA	59	Rpleas_acq	Oppo	Rpleas	Amasked	CS_A	2pleas	distractor2	CONbeforeEVA	acq_US_pleas_masked	acq45_masked	4	21	400	0	300	300	0	0	1591	50	0	1	0	0	0	1	blank2r.bmp	0	1	+	0	8	C4r.bmp	492	1	blank2r.bmp	786	1	DHJF	786	1	blank2r.bmp	866	4	vergnügt	866	1	!	1239	1	!	-1	0	0	0	0	0	0	0	0	0	0	0	0	0	0	0	0	0	0	0	0	0	0	0	0	0	0	0
011019	14:44:21	14:55:53	691594	5.0.10.0	4_exp_AWA_CON_AMP_EVA	59	Rpleas_acq	Oppo	Rpleas	Amasked	CS_A	2pleas	distractor2	CONbeforeEVA	acq_US_unple_masked	acq45_masked	4	22	400	1	300	300	0	0	425	50	0	0	0	0	0	1	blank2r.bmp	0	1	+	0	6	C2r.bmp	492	1	blank2r.bmp	786	1	CPLW	786	1	blank2r.bmp	866	1	krise	866	1	!	1239	1	!	1319	0	0	0	0	0	0	0	0	0	0	0	0	0	0	0	0	0	0	0	0	0	0	0	0	0	0	0
011019	14:44:21	14:55:55	693847	5.0.10.0	4_exp_AWA_CON_AMP_EVA	59	Rpleas_acq	Oppo	Rpleas	Amasked	CS_A	2pleas	distractor2	CONbeforeEVA	acq_US_unple_masked	acq45_masked	4	23	400	0	300	300	0	0	490	46	0	1	0	0	0	1	blank2r.bmp	0	1	+	0	7	C3r.bmp	492	1	blank2r.bmp	786	1	CPLW	786	1	blank2r.bmp	866	6	bange	866	1	!	1239	1	!	-1	0	0	0	0	0	0	0	0	0	0	0	0	0	0	0	0	0	0	0	0	0	0	0	0	0	0	0
011019	14:44:21	14:56:00	698592	5.0.10.0	4_exp_AWA_CON_AMP_EVA	59	Rpleas_acq	Oppo	Rpleas	Amasked	CS_A	2pleas	distractor2	CONbeforeEVA	acq_US_unple_masked	acq45_masked	4	24	400	0	300	300	0	0	2949	46	0	1	0	0	0	1	blank2r.bmp	0	1	+	0	4	B4r.bmp	492	1	blank2r.bmp	786	1	CPLW	786	1	blank2r.bmp	866	5	sterben	866	1	!	1239	1	!	-1	0	0	0	0	0	0	0	0	0	0	0	0	0	0	0	0	0	0	0	0	0	0	0	0	0	0	0
011019	14:44:21	14:56:02	700871	5.0.10.0	4_exp_AWA_CON_AMP_EVA	59	Rpleas_acq	Oppo	Rpleas	Amasked	CS_A	2pleas	distractor2	CONbeforeEVA	acq_US_unple_masked	acq45_masked	4	25	400	0	300	300	0	0	491	46	0	1	0	0	0	1	blank2r.bmp	0	1	+	0	2	B2r.bmp	492	1	blank2r.bmp	786	1	CPLW	786	1	blank2r.bmp	866	3	gemein	866	1	!	1239	1	!	-1	0	0	0	0	0	0	0	0	0	0	0	0	0	0	0	0	0	0	0	0	0	0	0	0	0	0	0
011019	14:44:21	14:56:04	703043	5.0.10.0	4_exp_AWA_CON_AMP_EVA	59	Rpleas_acq	Oppo	Rpleas	Amasked	CS_A	2pleas	distractor2	CONbeforeEVA	acq_US_pleas_masked	acq45_masked	4	26	400	1	300	300	0	0	368	46	0	0	0	0	0	1	blank2r.bmp	0	1	+	0	3	B3r.bmp	492	1	blank2r.bmp	786	1	DHJF	786	1	blank2r.bmp	866	2	gütig	866	1	!	1239	1	!	1266	0	0	0	0	0	0	0	0	0	0	0	0	0	0	0	0	0	0	0	0	0	0	0	0	0	0	0
011019	14:44:21	14:56:07	705335	5.0.10.0	4_exp_AWA_CON_AMP_EVA	59	Rpleas_acq	Oppo	Rpleas	Amasked	CS_A	2pleas	distractor2	CONbeforeEVA	acq_US_pleas_masked	acq45_masked	4	27	400	0	300	300	0	0	519	50	0	1	0	0	0	1	blank2r.bmp	0	1	+	0	5	C1r.bmp	492	1	blank2r.bmp	786	1	DHJF	786	1	blank2r.bmp	866	3	genießen	866	1	!	1239	1	!	-1	0	0	0	0	0	0	0	0	0	0	0	0	0	0	0	0	0	0	0	0	0	0	0	0	0	0	0
011019	14:44:21	14:56:10	708761	5.0.10.0	4_exp_AWA_CON_AMP_EVA	59	Rpleas_acq	Oppo	Rpleas	Amasked	CS_A	2pleas	distractor2	CONbeforeEVA	acq_US_pleas_masked	acq45_masked	4	28	400	0	300	300	0	0	1637	46	0	0	0	0	0	1	blank2r.bmp	0	1	+	0	1	B1r.bmp	492	1	blank2r.bmp	786	1	DHJF	786	1	blank2r.bmp	866	2	gütig	866	1	!	1239	1	!	-1	0	0	0	0	0	0	0	0	0	0	0	0	0	0	0	0	0	0	0	0	0	0	0	0	0	0	0
011019	14:44:21	14:56:12	710866	5.0.10.0	4_exp_AWA_CON_AMP_EVA	59	Rpleas_acq	Oppo	Rpleas	Amasked	CS_A	2pleas	distractor2	CONbeforeEVA	acq_US_pleas_masked	acq45_masked	4	29	400	0	300	300	0	0	307	50	0	1	0	0	0	1	blank2r.bmp	0	1	+	0	5	C1r.bmp	492	1	blank2r.bmp	786	1	DHJF	786	1	blank2r.bmp	866	1	kuss	866	1	!	-1	1	!	-1	0	0	0	0	0	0	0	0	0	0	0	0	0	0	0	0	0	0	0	0	0	0	0	0	0	0	0
011019	14:44:21	14:56:14	713039	5.0.10.0	4_exp_AWA_CON_AMP_EVA	59	Rpleas_acq	Oppo	Rpleas	Amasked	CS_A	2pleas	distractor2	CONbeforeEVA	acq_US_pleas_masked	acq45_masked	4	30	400	1	300	300	0	0	350	50	0	1	0	0	0	1	blank2r.bmp	0	1	+	0	4	B4r.bmp	492	1	blank2r.bmp	786	1	DHJF	786	1	blank2r.bmp	866	4	vergnügt	866	1	!	1239	1	!	1252	0	0	0	0	0	0	0	0	0	0	0	0	0	0	0	0	0	0	0	0	0	0	0	0	0	0	0
011019	14:44:21	14:56:17	715185	5.0.10.0	4_exp_AWA_CON_AMP_EVA	59	Rpleas_acq	Oppo	Rpleas	Amasked	CS_A	2pleas	distractor2	CONbeforeEVA	acq_US_pleas_masked	acq45_masked	4	31	400	1	300	300	0	0	347	50	0	1	0	0	0	1	blank2r.bmp	0	1	+	0	7	C3r.bmp	492	1	blank2r.bmp	786	1	DHJF	786	1	blank2r.bmp	866	5	sonnig	866	1	!	1239	1	!	1252	0	0	0	0	0	0	0	0	0	0	0	0	0	0	0	0	0	0	0	0	0	0	0	0	0	0	0
011019	14:44:21	14:56:19	717450	5.0.10.0	4_exp_AWA_CON_AMP_EVA	59	Rpleas_acq	Oppo	Rpleas	Amasked	CS_A	2pleas	distractor2	CONbeforeEVA	acq_US_unple_masked	acq45_masked	4	32	400	0	300	300	0	0	479	46	0	1	0	0	0	1	blank2r.bmp	0	1	+	0	1	B1r.bmp	492	1	blank2r.bmp	786	1	CPLW	786	1	blank2r.bmp	866	6	bange	866	1	!	1239	1	!	-1	0	0	0	0	0	0	0	0	0	0	0	0	0	0	0	0	0	0	0	0	0	0	0	0	0	0	0
011019	14:44:21	14:56:21	719729	5.0.10.0	4_exp_AWA_CON_AMP_EVA	59	Rpleas_acq	Oppo	Rpleas	Amasked	CS_A	2pleas	distractor2	CONbeforeEVA	acq_US_unple_masked	acq45_masked	4	33	400	1	300	300	0	0	456	50	0	0	0	0	0	1	blank2r.bmp	0	1	+	0	2	B2r.bmp	492	1	blank2r.bmp	786	1	CPLW	786	1	blank2r.bmp	866	4	verbissen	866	1	!	1239	1	!	1359	0	0	0	0	0	0	0	0	0	0	0	0	0	0	0	0	0	0	0	0	0	0	0	0	0	0	0
011019	14:44:21	14:56:23	721809	5.0.10.0	4_exp_AWA_CON_AMP_EVA	59	Rpleas_acq	Oppo	Rpleas	Amasked	CS_A	2pleas	distractor2	CONbeforeEVA	acq_US_unple_masked	acq45_masked	4	34	400	0	300	300	0	0	317	46	0	1	0	0	0	1	blank2r.bmp	0	1	+	0	6	C2r.bmp	492	1	blank2r.bmp	786	1	CPLW	786	1	blank2r.bmp	866	2	gierig	866	1	!	-1	1	!	-1	0	0	0	0	0	0	0	0	0	0	0	0	0	0	0	0	0	0	0	0	0	0	0	0	0	0	0
011019	14:44:21	14:56:25	723901	5.0.10.0	4_exp_AWA_CON_AMP_EVA	59	Rpleas_acq	Oppo	Rpleas	Amasked	CS_A	2pleas	distractor2	CONbeforeEVA	acq_US_pleas_masked	acq45_masked	4	35	400	0	300	300	0	0	315	50	0	1	0	0	0	1	blank2r.bmp	0	1	+	0	8	C4r.bmp	492	1	blank2r.bmp	786	1	DHJF	786	1	blank2r.bmp	866	6	besonnen	866	1	!	-1	1	!	-1	0	0	0	0	0	0	0	0	0	0	0	0	0	0	0	0	0	0	0	0	0	0	0	0	0	0	0
011019	14:44:21	14:56:27	726100	5.0.10.0	4_exp_AWA_CON_AMP_EVA	59	Rpleas_acq	Oppo	Rpleas	Amasked	CS_A	2pleas	distractor2	CONbeforeEVA	acq_US_unple_masked	acq45_masked	4	36	400	1	300	300	0	0	391	50	0	0	0	0	0	1	blank2r.bmp	0	1	+	0	3	B3r.bmp	492	1	blank2r.bmp	786	1	CPLW	786	1	blank2r.bmp	866	1	krise	866	1	!	1239	1	!	1292	0	0	0	0	0	0	0	0	0	0	0	0	0	0	0	0	0	0	0	0	0	0	0	0	0	0	0
011019	14:44:21	14:56:48	746692	5.0.10.0	4_exp_AWA_CON_AMP_EVA	59	Rpleas_acq	Oppo	Rpleas	Amasked	CS_A	2pleas	distractor2	CONbeforeEVA	acq_US_pleas_masked	acq45_masked	5	1	400	0	300	300	0	0	597	50	0	1	0	0	0	1	blank2r.bmp	0	1	+	0	7	C3r.bmp	492	1	blank2r.bmp	786	1	DHJF	786	1	blank2r.bmp	866	4	vergnügt	866	1	!	1239	1	!	-1	0	0	0	0	0	0	0	0	0	0	0	0	0	0	0	0	0	0	0	0	0	0	0	0	0	0	0
011019	14:44:21	14:56:50	748957	5.0.10.0	4_exp_AWA_CON_AMP_EVA	59	Rpleas_acq	Oppo	Rpleas	Amasked	CS_A	2pleas	distractor2	CONbeforeEVA	acq_US_unple_masked	acq45_masked	5	2	400	1	300	300	0	0	460	50	0	0	0	0	0	1	blank2r.bmp	0	1	+	0	4	B4r.bmp	492	1	blank2r.bmp	786	1	CPLW	786	1	blank2r.bmp	866	1	krise	866	1	!	1239	1	!	1359	0	0	0	0	0	0	0	0	0	0	0	0	0	0	0	0	0	0	0	0	0	0	0	0	0	0	0
011019	14:44:21	14:56:53	751183	5.0.10.0	4_exp_AWA_CON_AMP_EVA	59	Rpleas_acq	Oppo	Rpleas	Amasked	CS_A	2pleas	distractor2	CONbeforeEVA	acq_US_unple_masked	acq45_masked	5	3	400	1	300	300	0	0	427	46	0	1	0	0	0	1	blank2r.bmp	0	1	+	0	6	C2r.bmp	492	1	blank2r.bmp	786	1	CPLW	786	1	blank2r.bmp	866	2	gierig	866	1	!	1239	1	!	1332	0	0	0	0	0	0	0	0	0	0	0	0	0	0	0	0	0	0	0	0	0	0	0	0	0	0	0
011019	14:44:21	14:56:55	753329	5.0.10.0	4_exp_AWA_CON_AMP_EVA	59	Rpleas_acq	Oppo	Rpleas	Amasked	CS_A	2pleas	distractor2	CONbeforeEVA	acq_US_unple_masked	acq45_masked	5	4	400	1	300	300	0	0	353	50	0	0	0	0	0	1	blank2r.bmp	0	1	+	0	5	C1r.bmp	492	1	blank2r.bmp	786	1	CPLW	786	1	blank2r.bmp	866	6	bange	866	1	!	1239	1	!	1252	0	0	0	0	0	0	0	0	0	0	0	0	0	0	0	0	0	0	0	0	0	0	0	0	0	0	0
011019	14:44:21	14:56:58	756341	5.0.10.0	4_exp_AWA_CON_AMP_EVA	59	Rpleas_acq	Oppo	Rpleas	Amasked	CS_A	2pleas	distractor2	CONbeforeEVA	acq_US_unple_masked	acq45_masked	5	5	400	0	300	300	0	0	1232	46	0	1	0	0	0	1	blank2r.bmp	0	1	+	0	8	C4r.bmp	492	1	blank2r.bmp	786	1	CPLW	786	1	blank2r.bmp	866	5	sterben	866	1	!	1239	1	!	-1	0	0	0	0	0	0	0	0	0	0	0	0	0	0	0	0	0	0	0	0	0	0	0	0	0	0	0
011019	14:44:21	14:57:00	758513	5.0.10.0	4_exp_AWA_CON_AMP_EVA	59	Rpleas_acq	Oppo	Rpleas	Amasked	CS_A	2pleas	distractor2	CONbeforeEVA	acq_US_unple_masked	acq45_masked	5	6	400	1	300	300	0	0	353	46	0	1	0	0	0	1	blank2r.bmp	0	1	+	0	1	B1r.bmp	492	1	blank2r.bmp	786	1	CPLW	786	1	blank2r.bmp	866	3	gemein	866	1	!	1239	1	!	1252	0	0	0	0	0	0	0	0	0	0	0	0	0	0	0	0	0	0	0	0	0	0	0	0	0	0	0
011019	14:44:21	14:57:02	760766	5.0.10.0	4_exp_AWA_CON_AMP_EVA	59	Rpleas_acq	Oppo	Rpleas	Amasked	CS_A	2pleas	distractor2	CONbeforeEVA	acq_US_pleas_masked	acq45_masked	5	7	400	0	300	300	0	0	479	50	0	1	0	0	0	1	blank2r.bmp	0	1	+	0	3	B3r.bmp	492	1	blank2r.bmp	786	1	DHJF	786	1	blank2r.bmp	866	2	gütig	866	1	!	1239	1	!	-1	0	0	0	0	0	0	0	0	0	0	0	0	0	0	0	0	0	0	0	0	0	0	0	0	0	0	0
011019	14:44:21	14:57:05	763232	5.0.10.0	4_exp_AWA_CON_AMP_EVA	59	Rpleas_acq	Oppo	Rpleas	Amasked	CS_A	2pleas	distractor2	CONbeforeEVA	acq_US_pleas_masked	acq45_masked	5	8	400	0	300	300	0	0	686	50	0	1	0	0	0	1	blank2r.bmp	0	1	+	0	2	B2r.bmp	492	1	blank2r.bmp	786	1	DHJF	786	1	blank2r.bmp	866	3	genießen	866	1	!	1239	1	!	-1	0	0	0	0	0	0	0	0	0	0	0	0	0	0	0	0	0	0	0	0	0	0	0	0	0	0	0
011019	14:44:21	14:57:07	765497	5.0.10.0	4_exp_AWA_CON_AMP_EVA	59	Rpleas_acq	Oppo	Rpleas	Amasked	CS_A	2pleas	distractor2	CONbeforeEVA	acq_US_pleas_masked	acq45_masked	5	9	400	0	300	300	0	0	479	50	0	1	0	0	0	1	blank2r.bmp	0	1	+	0	7	C3r.bmp	492	1	blank2r.bmp	786	1	DHJF	786	1	blank2r.bmp	866	5	sonnig	866	1	!	1239	1	!	-1	0	0	0	0	0	0	0	0	0	0	0	0	0	0	0	0	0	0	0	0	0	0	0	0	0	0	0
011019	14:44:21	14:57:09	767803	5.0.10.0	4_exp_AWA_CON_AMP_EVA	59	Rpleas_acq	Oppo	Rpleas	Amasked	CS_A	2pleas	distractor2	CONbeforeEVA	acq_US_unple_masked	acq45_masked	5	10	400	0	300	300	0	0	516	50	0	0	0	0	0	1	blank2r.bmp	0	1	+	0	1	B1r.bmp	492	1	blank2r.bmp	786	1	CPLW	786	1	blank2r.bmp	866	4	verbissen	866	1	!	1239	1	!	-1	0	0	0	0	0	0	0	0	0	0	0	0	0	0	0	0	0	0	0	0	0	0	0	0	0	0	0
011019	14:44:21	14:57:11	769895	5.0.10.0	4_exp_AWA_CON_AMP_EVA	59	Rpleas_acq	Oppo	Rpleas	Amasked	CS_A	2pleas	distractor2	CONbeforeEVA	acq_US_pleas_masked	acq45_masked	5	11	400	0	300	300	0	0	307	46	0	0	0	0	0	1	blank2r.bmp	0	1	+	0	6	C2r.bmp	492	1	blank2r.bmp	786	1	DHJF	786	1	blank2r.bmp	866	6	besonnen	866	1	!	-1	1	!	-1	0	0	0	0	0	0	0	0	0	0	0	0	0	0	0	0	0	0	0	0	0	0	0	0	0	0	0
011019	14:44:21	14:57:13	772001	5.0.10.0	4_exp_AWA_CON_AMP_EVA	59	Rpleas_acq	Oppo	Rpleas	Amasked	CS_A	2pleas	distractor2	CONbeforeEVA	acq_US_pleas_masked	acq45_masked	5	12	400	0	300	300	0	0	328	50	0	1	0	0	0	1	blank2r.bmp	0	1	+	0	3	B3r.bmp	492	1	blank2r.bmp	786	1	DHJF	786	1	blank2r.bmp	866	1	kuss	866	1	!	-1	1	!	-1	0	0	0	0	0	0	0	0	0	0	0	0	0	0	0	0	0	0	0	0	0	0	0	0	0	0	0
011019	14:44:21	14:57:16	774320	5.0.10.0	4_exp_AWA_CON_AMP_EVA	59	Rpleas_acq	Oppo	Rpleas	Amasked	CS_A	2pleas	distractor2	CONbeforeEVA	acq_US_unple_masked	acq45_masked	5	13	400	0	300	300	0	0	533	46	0	1	0	0	0	1	blank2r.bmp	0	1	+	0	5	C1r.bmp	492	1	blank2r.bmp	786	1	CPLW	786	1	blank2r.bmp	866	1	krise	866	1	!	1239	1	!	-1	0	0	0	0	0	0	0	0	0	0	0	0	0	0	0	0	0	0	0	0	0	0	0	0	0	0	0
011019	14:44:21	14:57:18	777079	5.0.10.0	4_exp_AWA_CON_AMP_EVA	59	Rpleas_acq	Oppo	Rpleas	Amasked	CS_A	2pleas	distractor2	CONbeforeEVA	acq_US_unple_masked	acq45_masked	5	14	400	0	300	300	0	0	973	50	0	0	0	0	0	1	blank2r.bmp	0	1	+	0	8	C4r.bmp	492	1	blank2r.bmp	786	1	CPLW	786	1	blank2r.bmp	866	2	gierig	866	1	!	1239	1	!	-1	0	0	0	0	0	0	0	0	0	0	0	0	0	0	0	0	0	0	0	0	0	0	0	0	0	0	0
011019	14:44:21	14:57:20	779052	5.0.10.0	4_exp_AWA_CON_AMP_EVA	59	Rpleas_acq	Oppo	Rpleas	Amasked	CS_A	2pleas	distractor2	CONbeforeEVA	acq_US_pleas_masked	acq45_masked	5	15	400	0	300	300	0	0	194	50	0	1	0	0	0	1	blank2r.bmp	0	1	+	0	4	B4r.bmp	492	1	blank2r.bmp	786	1	DHJF	786	1	blank2r.bmp	866	6	besonnen	866	1	!	-1	1	!	-1	0	0	0	0	0	0	0	0	0	0	0	0	0	0	0	0	0	0	0	0	0	0	0	0	0	0	0
011019	14:44:21	14:57:23	781317	5.0.10.0	4_exp_AWA_CON_AMP_EVA	59	Rpleas_acq	Oppo	Rpleas	Amasked	CS_A	2pleas	distractor2	CONbeforeEVA	acq_US_unple_masked	acq45_masked	5	16	400	1	300	300	0	0	455	46	0	1	0	0	0	1	blank2r.bmp	0	1	+	0	2	B2r.bmp	492	1	blank2r.bmp	786	1	CPLW	786	1	blank2r.bmp	866	6	bange	866	1	!	1239	1	!	1359	0	0	0	0	0	0	0	0	0	0	0	0	0	0	0	0	0	0	0	0	0	0	0	0	0	0	0
011019	14:44:21	14:57:25	783583	5.0.10.0	4_exp_AWA_CON_AMP_EVA	59	Rpleas_acq	Oppo	Rpleas	Amasked	CS_A	2pleas	distractor2	CONbeforeEVA	acq_US_pleas_masked	acq45_masked	5	17	400	0	300	300	0	0	496	50	0	1	0	0	0	1	blank2r.bmp	0	1	+	0	6	C2r.bmp	492	1	blank2r.bmp	786	1	DHJF	786	1	blank2r.bmp	866	2	gütig	866	1	!	1239	1	!	-1	0	0	0	0	0	0	0	0	0	0	0	0	0	0	0	0	0	0	0	0	0	0	0	0	0	0	0
011019	14:44:21	14:57:27	785769	5.0.10.0	4_exp_AWA_CON_AMP_EVA	59	Rpleas_acq	Oppo	Rpleas	Amasked	CS_A	2pleas	distractor2	CONbeforeEVA	acq_US_pleas_masked	acq45_masked	5	18	400	1	300	300	0	0	383	50	0	1	0	0	0	1	blank2r.bmp	0	1	+	0	2	B2r.bmp	492	1	blank2r.bmp	786	1	DHJF	786	1	blank2r.bmp	866	5	sonnig	866	1	!	1239	1	!	1279	0	0	0	0	0	0	0	0	0	0	0	0	0	0	0	0	0	0	0	0	0	0	0	0	0	0	0
011019	14:44:21	14:57:29	787981	5.0.10.0	4_exp_AWA_CON_AMP_EVA	59	Rpleas_acq	Oppo	Rpleas	Amasked	CS_A	2pleas	distractor2	CONbeforeEVA	acq_US_pleas_masked	acq45_masked	5	19	400	1	300	300	0	0	419	50	0	1	0	0	0	1	blank2r.bmp	0	1	+	0	8	C4r.bmp	492	1	blank2r.bmp	786	1	DHJF	786	1	blank2r.bmp	866	1	kuss	866	1	!	1239	1	!	1319	0	0	0	0	0	0	0	0	0	0	0	0	0	0	0	0	0	0	0	0	0	0	0	0	0	0	0
011019	14:44:21	14:57:32	790394	5.0.10.0	4_exp_AWA_CON_AMP_EVA	59	Rpleas_acq	Oppo	Rpleas	Amasked	CS_A	2pleas	distractor2	CONbeforeEVA	acq_US_unple_masked	acq45_masked	5	20	400	0	300	300	0	0	646	46	0	1	0	0	0	1	blank2r.bmp	0	1	+	0	4	B4r.bmp	492	1	blank2r.bmp	786	1	CPLW	786	1	blank2r.bmp	866	3	gemein	866	1	!	1239	1	!	-1	0	0	0	0	0	0	0	0	0	0	0	0	0	0	0	0	0	0	0	0	0	0	0	0	0	0	0
011019	14:44:21	14:57:34	792553	5.0.10.0	4_exp_AWA_CON_AMP_EVA	59	Rpleas_acq	Oppo	Rpleas	Amasked	CS_A	2pleas	distractor2	CONbeforeEVA	acq_US_unple_masked	acq45_masked	5	21	400	1	300	300	0	0	346	50	0	0	0	0	0	1	blank2r.bmp	0	1	+	0	7	C3r.bmp	492	1	blank2r.bmp	786	1	CPLW	786	1	blank2r.bmp	866	5	sterben	866	1	!	1239	1	!	1252	0	0	0	0	0	0	0	0	0	0	0	0	0	0	0	0	0	0	0	0	0	0	0	0	0	0	0
011019	14:44:21	14:57:36	794699	5.0.10.0	4_exp_AWA_CON_AMP_EVA	59	Rpleas_acq	Oppo	Rpleas	Amasked	CS_A	2pleas	distractor2	CONbeforeEVA	acq_US_unple_masked	acq45_masked	5	22	400	1	300	300	0	0	347	50	0	0	0	0	0	1	blank2r.bmp	0	1	+	0	5	C1r.bmp	492	1	blank2r.bmp	786	1	CPLW	786	1	blank2r.bmp	866	4	verbissen	866	1	!	1239	1	!	1252	0	0	0	0	0	0	0	0	0	0	0	0	0	0	0	0	0	0	0	0	0	0	0	0	0	0	0
011019	14:44:21	14:57:38	796951	5.0.10.0	4_exp_AWA_CON_AMP_EVA	59	Rpleas_acq	Oppo	Rpleas	Amasked	CS_A	2pleas	distractor2	CONbeforeEVA	acq_US_pleas_masked	acq45_masked	5	23	400	1	300	300	0	0	442	46	0	0	0	0	0	1	blank2r.bmp	0	1	+	0	1	B1r.bmp	492	1	blank2r.bmp	786	1	DHJF	786	1	blank2r.bmp	866	4	vergnügt	866	1	!	1239	1	!	1346	0	0	0	0	0	0	0	0	0	0	0	0	0	0	0	0	0	0	0	0	0	0	0	0	0	0	0
011019	14:44:21	14:57:40	799097	5.0.10.0	4_exp_AWA_CON_AMP_EVA	59	Rpleas_acq	Oppo	Rpleas	Amasked	CS_A	2pleas	distractor2	CONbeforeEVA	acq_US_pleas_masked	acq45_masked	5	24	400	1	300	300	0	0	346	50	0	1	0	0	0	1	blank2r.bmp	0	1	+	0	3	B3r.bmp	492	1	blank2r.bmp	786	1	DHJF	786	1	blank2r.bmp	866	3	genießen	866	1	!	1239	1	!	1252	0	0	0	0	0	0	0	0	0	0	0	0	0	0	0	0	0	0	0	0	0	0	0	0	0	0	0
011019	14:44:21	14:57:43	801869	5.0.10.0	4_exp_AWA_CON_AMP_EVA	59	Rpleas_acq	Oppo	Rpleas	Amasked	CS_A	2pleas	distractor2	CONbeforeEVA	acq_US_unple_masked	acq45_masked	5	25	400	0	300	300	0	0	1009	46	0	1	0	0	0	1	blank2r.bmp	0	1	+	0	2	B2r.bmp	492	1	blank2r.bmp	786	1	CPLW	786	1	blank2r.bmp	866	3	gemein	866	1	!	1239	1	!	-1	0	0	0	0	0	0	0	0	0	0	0	0	0	0	0	0	0	0	0	0	0	0	0	0	0	0	0
011019	14:44:21	14:57:45	804055	5.0.10.0	4_exp_AWA_CON_AMP_EVA	59	Rpleas_acq	Oppo	Rpleas	Amasked	CS_A	2pleas	distractor2	CONbeforeEVA	acq_US_pleas_masked	acq45_masked	5	26	400	1	300	300	0	0	375	50	0	1	0	0	0	1	blank2r.bmp	0	1	+	0	4	B4r.bmp	492	1	blank2r.bmp	786	1	DHJF	786	1	blank2r.bmp	866	1	kuss	866	1	!	1239	1	!	1279	0	0	0	0	0	0	0	0	0	0	0	0	0	0	0	0	0	0	0	0	0	0	0	0	0	0	0
011019	14:44:21	14:57:48	806307	5.0.10.0	4_exp_AWA_CON_AMP_EVA	59	Rpleas_acq	Oppo	Rpleas	Amasked	CS_A	2pleas	distractor2	CONbeforeEVA	acq_US_unple_masked	acq45_masked	5	27	400	1	300	300	0	0	462	46	0	1	0	0	0	1	blank2r.bmp	0	1	+	0	1	B1r.bmp	492	1	blank2r.bmp	786	1	CPLW	786	1	blank2r.bmp	866	4	verbissen	866	1	!	1239	1	!	1359	0	0	0	0	0	0	0	0	0	0	0	0	0	0	0	0	0	0	0	0	0	0	0	0	0	0	0
011019	14:44:21	14:57:50	808466	5.0.10.0	4_exp_AWA_CON_AMP_EVA	59	Rpleas_acq	Oppo	Rpleas	Amasked	CS_A	2pleas	distractor2	CONbeforeEVA	acq_US_pleas_masked	acq45_masked	5	28	400	1	300	300	0	0	359	50	0	1	0	0	0	1	blank2r.bmp	0	1	+	0	3	B3r.bmp	492	1	blank2r.bmp	786	1	DHJF	786	1	blank2r.bmp	866	5	sonnig	866	1	!	1239	1	!	1266	0	0	0	0	0	0	0	0	0	0	0	0	0	0	0	0	0	0	0	0	0	0	0	0	0	0	0
011019	14:44:21	14:57:52	810692	5.0.10.0	4_exp_AWA_CON_AMP_EVA	59	Rpleas_acq	Oppo	Rpleas	Amasked	CS_A	2pleas	distractor2	CONbeforeEVA	acq_US_unple_masked	acq45_masked	5	29	400	1	300	300	0	0	437	50	0	0	0	0	0	1	blank2r.bmp	0	1	+	0	7	C3r.bmp	492	1	blank2r.bmp	786	1	CPLW	786	1	blank2r.bmp	866	1	krise	866	1	!	1239	1	!	1332	0	0	0	0	0	0	0	0	0	0	0	0	0	0	0	0	0	0	0	0	0	0	0	0	0	0	0
011019	14:44:21	14:57:54	812918	5.0.10.0	4_exp_AWA_CON_AMP_EVA	59	Rpleas_acq	Oppo	Rpleas	Amasked	CS_A	2pleas	distractor2	CONbeforeEVA	acq_US_pleas_masked	acq45_masked	5	30	400	1	300	300	0	0	429	50	0	1	0	0	0	1	blank2r.bmp	0	1	+	0	5	C1r.bmp	492	1	blank2r.bmp	786	1	DHJF	786	1	blank2r.bmp	866	6	besonnen	866	1	!	1239	1	!	1332	0	0	0	0	0	0	0	0	0	0	0	0	0	0	0	0	0	0	0	0	0	0	0	0	0	0	0
011019	14:44:21	14:57:56	815024	5.0.10.0	4_exp_AWA_CON_AMP_EVA	59	Rpleas_acq	Oppo	Rpleas	Amasked	CS_A	2pleas	distractor2	CONbeforeEVA	acq_US_pleas_masked	acq45_masked	5	31	400	0	300	300	0	0	333	46	0	0	0	0	0	1	blank2r.bmp	0	1	+	0	6	C2r.bmp	492	1	blank2r.bmp	786	1	DHJF	786	1	blank2r.bmp	866	3	genießen	866	1	!	-1	1	!	-1	0	0	0	0	0	0	0	0	0	0	0	0	0	0	0	0	0	0	0	0	0	0	0	0	0	0	0
011019	14:44:21	14:57:59	817209	5.0.10.0	4_exp_AWA_CON_AMP_EVA	59	Rpleas_acq	Oppo	Rpleas	Amasked	CS_A	2pleas	distractor2	CONbeforeEVA	acq_US_pleas_masked	acq45_masked	5	32	400	1	300	300	0	0	379	50	0	1	0	0	0	1	blank2r.bmp	0	1	+	0	8	C4r.bmp	492	1	blank2r.bmp	786	1	DHJF	786	1	blank2r.bmp	866	2	gütig	866	1	!	1239	1	!	1279	0	0	0	0	0	0	0	0	0	0	0	0	0	0	0	0	0	0	0	0	0	0	0	0	0	0	0
011019	14:44:21	14:58:01	819408	5.0.10.0	4_exp_AWA_CON_AMP_EVA	59	Rpleas_acq	Oppo	Rpleas	Amasked	CS_A	2pleas	distractor2	CONbeforeEVA	acq_US_unple_masked	acq45_masked	5	33	400	1	300	300	0	0	391	46	0	1	0	0	0	1	blank2r.bmp	0	1	+	0	8	C4r.bmp	492	1	blank2r.bmp	786	1	CPLW	786	1	blank2r.bmp	866	6	bange	866	1	!	1239	1	!	1292	0	0	0	0	0	0	0	0	0	0	0	0	0	0	0	0	0	0	0	0	0	0	0	0	0	0	0
011019	14:44:21	14:58:03	821568	5.0.10.0	4_exp_AWA_CON_AMP_EVA	59	Rpleas_acq	Oppo	Rpleas	Amasked	CS_A	2pleas	distractor2	CONbeforeEVA	acq_US_pleas_masked	acq45_masked	5	34	400	1	300	300	0	0	353	50	0	1	0	0	0	1	blank2r.bmp	0	1	+	0	2	B2r.bmp	492	1	blank2r.bmp	786	1	DHJF	786	1	blank2r.bmp	866	4	vergnügt	866	1	!	1239	1	!	1252	0	0	0	0	0	0	0	0	0	0	0	0	0	0	0	0	0	0	0	0	0	0	0	0	0	0	0
011019	14:44:21	14:58:05	823820	5.0.10.0	4_exp_AWA_CON_AMP_EVA	59	Rpleas_acq	Oppo	Rpleas	Amasked	CS_A	2pleas	distractor2	CONbeforeEVA	acq_US_unple_masked	acq45_masked	5	35	400	1	300	300	0	0	461	46	0	1	0	0	0	1	blank2r.bmp	0	1	+	0	1	B1r.bmp	492	1	blank2r.bmp	786	1	CPLW	786	1	blank2r.bmp	866	2	gierig	866	1	!	1239	1	!	1359	0	0	0	0	0	0	0	0	0	0	0	0	0	0	0	0	0	0	0	0	0	0	0	0	0	0	0
011019	14:44:21	14:58:07	825966	5.0.10.0	4_exp_AWA_CON_AMP_EVA	59	Rpleas_acq	Oppo	Rpleas	Amasked	CS_A	2pleas	distractor2	CONbeforeEVA	acq_US_unple_masked	acq45_masked	5	36	400	1	300	300	0	0	357	50	0	0	0	0	0	1	blank2r.bmp	0	1	+	0	7	C3r.bmp	492	1	blank2r.bmp	786	1	CPLW	786	1	blank2r.bmp	866	5	sterben	866	1	!	1239	1	!	1252	0	0	0	0	0	0	0	0	0	0	0	0	0	0	0	0	0	0	0	0	0	0	0	0	0	0	0
011019	14:44:21	15:00:17	955726	5.0.10.0	4_exp_AWA_CON_AMP_EVA	59	Rpleas_acq	Oppo	Lpleas	Amasked	CS_A	2pleas	distractor2	CONbeforeEVA	cond_US_unple_123_masked_CS2	condtest_masked_1	8	1	400	0	300	300	0	0	2907	46	0	0	0	0	0	1	blank2r.bmp	0	1	+	0	3	B3r.bmp	492	1	blank2r.bmp	786	1	DHJF	786	1	blank2r.bmp	866	2	gierig	866	1	!	1239	1	!	-1	0	0	0	0	0	0	0	0	0	0	0	0	0	0	0	0	0	0	0	0	0	0	0	0	0	0	0
011019	14:44:21	15:00:20	958205	5.0.10.0	4_exp_AWA_CON_AMP_EVA	59	Rpleas_acq	Oppo	Lpleas	Amasked	CS_A	2pleas	distractor2	CONbeforeEVA	cond_US_pleas_123_masked_CS1	condtest_masked_1	8	2	400	0	300	300	0	0	702	46	0	1	0	0	0	1	blank2r.bmp	0	1	+	0	6	C2r.bmp	492	1	blank2r.bmp	786	1	CPLW	786	1	blank2r.bmp	866	1	kuss	866	1	!	1239	1	!	-1	0	0	0	0	0	0	0	0	0	0	0	0	0	0	0	0	0	0	0	0	0	0	0	0	0	0	0
011019	14:44:21	15:00:25	963642	5.0.10.0	4_exp_AWA_CON_AMP_EVA	59	Rpleas_acq	Oppo	Lpleas	Amasked	CS_A	2pleas	distractor2	CONbeforeEVA	cond_US_pleas_123_masked_CS2	condtest_masked_1	8	3	400	0	300	300	0	0	3648	46	0	1	0	0	0	1	blank2r.bmp	0	1	+	0	5	C1r.bmp	492	1	blank2r.bmp	786	1	DHJF	786	1	blank2r.bmp	866	2	gütig	866	1	!	1239	1	!	-1	0	0	0	0	0	0	0	0	0	0	0	0	0	0	0	0	0	0	0	0	0	0	0	0	0	0	0
011019	14:44:21	15:00:35	973518	5.0.10.0	4_exp_AWA_CON_AMP_EVA	59	Rpleas_acq	Oppo	Lpleas	Amasked	CS_A	2pleas	distractor2	CONbeforeEVA	cond_new_unple_456_masked_CS1	condtest_masked_1	8	4	400	0	300	300	0	0	8095	50	0	1	0	0	0	1	blank2r.bmp	0	1	+	0	4	B4r.bmp	492	1	blank2r.bmp	786	1	CPLW	786	1	blank2r.bmp	866	2	töten	866	1	!	1239	1	!	-1	0	0	0	0	0	0	0	0	0	0	0	0	0	0	0	0	0	0	0	0	0	0	0	0	0	0	0
011019	14:44:21	15:00:38	976224	5.0.10.0	4_exp_AWA_CON_AMP_EVA	59	Rpleas_acq	Oppo	Lpleas	Amasked	CS_A	2pleas	distractor2	CONbeforeEVA	cond_new_unple_456_masked_CS2	condtest_masked_1	8	5	400	0	300	300	0	0	919	50	0	1	0	0	0	1	blank2r.bmp	0	1	+	0	2	B2r.bmp	492	1	blank2r.bmp	786	1	DHJF	786	1	blank2r.bmp	866	3	ausrottung	866	1	!	1239	1	!	-1	0	0	0	0	0	0	0	0	0	0	0	0	0	0	0	0	0	0	0	0	0	0	0	0	0	0	0
011019	14:44:21	15:00:40	978490	5.0.10.0	4_exp_AWA_CON_AMP_EVA	59	Rpleas_acq	Oppo	Lpleas	Amasked	CS_A	2pleas	distractor2	CONbeforeEVA	cond_new_pleas_456_masked_CS2	condtest_masked_1	8	6	400	0	300	300	0	0	485	50	0	0	0	0	0	1	blank2r.bmp	0	1	+	0	1	B1r.bmp	492	1	blank2r.bmp	786	1	DHJF	786	1	blank2r.bmp	866	2	träumen	866	1	!	1239	1	!	-1	0	0	0	0	0	0	0	0	0	0	0	0	0	0	0	0	0	0	0	0	0	0	0	0	0	0	0
011019	14:44:21	15:00:42	980715	5.0.10.0	4_exp_AWA_CON_AMP_EVA	59	Rpleas_acq	Oppo	Lpleas	Amasked	CS_A	2pleas	distractor2	CONbeforeEVA	cond_US_unple_123_masked_CS1	condtest_masked_1	8	7	400	1	300	300	0	0	412	46	0	0	0	0	0	1	blank2r.bmp	0	1	+	0	3	B3r.bmp	492	1	blank2r.bmp	786	1	CPLW	786	1	blank2r.bmp	866	1	krise	866	1	!	1239	1	!	1319	0	0	0	0	0	0	0	0	0	0	0	0	0	0	0	0	0	0	0	0	0	0	0	0	0	0	0
011019	14:44:21	15:00:44	982968	5.0.10.0	4_exp_AWA_CON_AMP_EVA	59	Rpleas_acq	Oppo	Lpleas	Amasked	CS_A	2pleas	distractor2	CONbeforeEVA	cond_new_pleas_456_masked_CS1	condtest_masked_1	8	8	400	0	300	300	0	0	485	50	0	0	0	0	0	1	blank2r.bmp	0	1	+	0	4	B4r.bmp	492	1	blank2r.bmp	786	1	CPLW	786	1	blank2r.bmp	866	1	kreativ	866	1	!	1239	1	!	-1	0	0	0	0	0	0	0	0	0	0	0	0	0	0	0	0	0	0	0	0	0	0	0	0	0	0	0
011019	14:44:21	15:01:08	1006198	5.0.10.0	4_exp_AWA_CON_AMP_EVA	59	Rpleas_acq	Oppo	Lpleas	Amasked	CS_A	2pleas	distractor2	CONbeforeEVA	cond_US_unple_123_masked_CS1	condtest_masked_2	9	1	400	0	300	300	0	0	479	46	0	0	0	0	0	1	blank2r.bmp	0	1	+	0	7	C3r.bmp	492	1	blank2r.bmp	786	1	CPLW	786	1	blank2r.bmp	866	3	gemein	866	1	!	1239	1	!	-1	0	0	0	0	0	0	0	0	0	0	0	0	0	0	0	0	0	0	0	0	0	0	0	0	0	0	0
011019	14:44:21	15:01:10	1008677	5.0.10.0	4_exp_AWA_CON_AMP_EVA	59	Rpleas_acq	Oppo	Lpleas	Amasked	CS_A	2pleas	distractor2	CONbeforeEVA	cond_US_unple_123_masked_CS2	condtest_masked_2	9	2	400	0	300	300	0	0	701	50	0	1	0	0	0	1	blank2r.bmp	0	1	+	0	6	C2r.bmp	492	1	blank2r.bmp	786	1	DHJF	786	1	blank2r.bmp	866	3	gemein	866	1	!	1239	1	!	-1	0	0	0	0	0	0	0	0	0	0	0	0	0	0	0	0	0	0	0	0	0	0	0	0	0	0	0
011019	14:44:21	15:01:12	1010863	5.0.10.0	4_exp_AWA_CON_AMP_EVA	59	Rpleas_acq	Oppo	Lpleas	Amasked	CS_A	2pleas	distractor2	CONbeforeEVA	cond_new_unple_456_masked_CS2	condtest_masked_2	9	3	400	1	300	300	0	0	384	46	0	0	0	0	0	1	blank2r.bmp	0	1	+	0	8	C4r.bmp	492	1	blank2r.bmp	786	1	DHJF	786	1	blank2r.bmp	866	1	krank	866	1	!	1239	1	!	1279	0	0	0	0	0	0	0	0	0	0	0	0	0	0	0	0	0	0	0	0	0	0	0	0	0	0	0
011019	14:44:21	15:01:14	1013062	5.0.10.0	4_exp_AWA_CON_AMP_EVA	59	Rpleas_acq	Oppo	Lpleas	Amasked	CS_A	2pleas	distractor2	CONbeforeEVA	cond_new_pleas_456_masked_CS1	condtest_masked_2	9	4	400	1	300	300	0	0	406	50	0	0	0	0	0	1	blank2r.bmp	0	1	+	0	5	C1r.bmp	492	1	blank2r.bmp	786	1	CPLW	786	1	blank2r.bmp	866	3	anregung	866	1	!	1239	1	!	1306	0	0	0	0	0	0	0	0	0	0	0	0	0	0	0	0	0	0	0	0	0	0	0	0	0	0	0
011019	14:44:21	15:01:17	1015514	5.0.10.0	4_exp_AWA_CON_AMP_EVA	59	Rpleas_acq	Oppo	Lpleas	Amasked	CS_A	2pleas	distractor2	CONbeforeEVA	cond_new_unple_456_masked_CS1	condtest_masked_2	9	5	400	0	300	300	0	0	678	50	0	1	0	0	0	1	blank2r.bmp	0	1	+	0	2	B2r.bmp	492	1	blank2r.bmp	786	1	CPLW	786	1	blank2r.bmp	866	3	ausrottung	866	1	!	1239	1	!	-1	0	0	0	0	0	0	0	0	0	0	0	0	0	0	0	0	0	0	0	0	0	0	0	0	0	0	0
011019	14:44:21	15:01:19	1017767	5.0.10.0	4_exp_AWA_CON_AMP_EVA	59	Rpleas_acq	Oppo	Lpleas	Amasked	CS_A	2pleas	distractor2	CONbeforeEVA	cond_US_pleas_123_masked_CS2	condtest_masked_2	9	6	400	1	300	300	0	0	438	46	0	1	0	0	0	1	blank2r.bmp	0	1	+	0	1	B1r.bmp	492	1	blank2r.bmp	786	1	DHJF	786	1	blank2r.bmp	866	3	genießen	866	1	!	1239	1	!	1346	0	0	0	0	0	0	0	0	0	0	0	0	0	0	0	0	0	0	0	0	0	0	0	0	0	0	0
011019	14:44:21	15:01:22	1020139	5.0.10.0	4_exp_AWA_CON_AMP_EVA	59	Rpleas_acq	Oppo	Lpleas	Amasked	CS_A	2pleas	distractor2	CONbeforeEVA	cond_US_unple_123_masked_CS2	condtest_masked_2	9	7	400	0	300	300	0	0	602	46	0	0	0	0	0	1	blank2r.bmp	0	1	+	0	4	B4r.bmp	492	1	blank2r.bmp	786	1	DHJF	786	1	blank2r.bmp	866	2	gierig	866	1	!	1239	1	!	-1	0	0	0	0	0	0	0	0	0	0	0	0	0	0	0	0	0	0	0	0	0	0	0	0	0	0	0
011019	14:44:21	15:01:24	1022325	5.0.10.0	4_exp_AWA_CON_AMP_EVA	59	Rpleas_acq	Oppo	Lpleas	Amasked	CS_A	2pleas	distractor2	CONbeforeEVA	cond_US_pleas_123_masked_CS1	condtest_masked_2	9	8	400	1	300	300	0	0	372	46	0	1	0	0	0	1	blank2r.bmp	0	1	+	0	5	C1r.bmp	492	1	blank2r.bmp	786	1	CPLW	786	1	blank2r.bmp	866	1	kuss	866	1	!	1239	1	!	1279	0	0	0	0	0	0	0	0	0	0	0	0	0	0	0	0	0	0	0	0	0	0	0	0	0	0	0
011019	14:44:21	15:01:26	1024417	5.0.10.0	4_exp_AWA_CON_AMP_EVA	59	Rpleas_acq	Oppo	Lpleas	Amasked	CS_A	2pleas	distractor2	CONbeforeEVA	cond_US_unple_123_masked_CS2	condtest_masked_2	9	9	400	0	300	300	0	0	328	46	0	0	0	0	0	1	blank2r.bmp	0	1	+	0	7	C3r.bmp	492	1	blank2r.bmp	786	1	DHJF	786	1	blank2r.bmp	866	1	krise	866	1	!	-1	1	!	-1	0	0	0	0	0	0	0	0	0	0	0	0	0	0	0	0	0	0	0	0	0	0	0	0	0	0	0
011019	14:44:21	15:01:28	1026683	5.0.10.0	4_exp_AWA_CON_AMP_EVA	59	Rpleas_acq	Oppo	Lpleas	Amasked	CS_A	2pleas	distractor2	CONbeforeEVA	cond_US_pleas_123_masked_CS1	condtest_masked_2	9	10	400	0	300	300	0	0	479	46	0	1	0	0	0	1	blank2r.bmp	0	1	+	0	3	B3r.bmp	492	1	blank2r.bmp	786	1	CPLW	786	1	blank2r.bmp	866	3	genießen	866	1	!	1239	1	!	-1	0	0	0	0	0	0	0	0	0	0	0	0	0	0	0	0	0	0	0	0	0	0	0	0	0	0	0
011019	14:44:21	15:01:30	1028842	5.0.10.0	4_exp_AWA_CON_AMP_EVA	59	Rpleas_acq	Oppo	Lpleas	Amasked	CS_A	2pleas	distractor2	CONbeforeEVA	cond_US_pleas_123_masked_CS1	condtest_masked_2	9	11	400	1	300	300	0	0	346	50	0	0	0	0	0	1	blank2r.bmp	0	1	+	0	6	C2r.bmp	492	1	blank2r.bmp	786	1	CPLW	786	1	blank2r.bmp	866	2	gütig	866	1	!	1239	1	!	1252	0	0	0	0	0	0	0	0	0	0	0	0	0	0	0	0	0	0	0	0	0	0	0	0	0	0	0
011019	14:44:21	15:01:32	1030988	5.0.10.0	4_exp_AWA_CON_AMP_EVA	59	Rpleas_acq	Oppo	Lpleas	Amasked	CS_A	2pleas	distractor2	CONbeforeEVA	cond_US_pleas_123_masked_CS2	condtest_masked_2	9	12	400	1	300	300	0	0	346	46	0	1	0	0	0	1	blank2r.bmp	0	1	+	0	8	C4r.bmp	492	1	blank2r.bmp	786	1	DHJF	786	1	blank2r.bmp	866	1	kuss	866	1	!	1239	1	!	1252	0	0	0	0	0	0	0	0	0	0	0	0	0	0	0	0	0	0	0	0	0	0	0	0	0	0	0
011019	14:44:21	15:01:35	1033240	5.0.10.0	4_exp_AWA_CON_AMP_EVA	59	Rpleas_acq	Oppo	Lpleas	Amasked	CS_A	2pleas	distractor2	CONbeforeEVA	cond_new_unple_456_masked_CS1	condtest_masked_2	9	13	400	1	300	300	0	0	461	50	0	1	0	0	0	1	blank2r.bmp	0	1	+	0	1	B1r.bmp	492	1	blank2r.bmp	786	1	CPLW	786	1	blank2r.bmp	866	1	krank	866	1	!	1239	1	!	1359	0	0	0	0	0	0	0	0	0	0	0	0	0	0	0	0	0	0	0	0	0	0	0	0	0	0	0
011019	14:44:21	15:01:37	1035639	5.0.10.0	4_exp_AWA_CON_AMP_EVA	59	Rpleas_acq	Oppo	Lpleas	Amasked	CS_A	2pleas	distractor2	CONbeforeEVA	cond_US_unple_123_masked_CS1	condtest_masked_2	9	14	400	0	300	300	0	0	636	46	0	0	0	0	0	1	blank2r.bmp	0	1	+	0	2	B2r.bmp	492	1	blank2r.bmp	786	1	CPLW	786	1	blank2r.bmp	866	1	krise	866	1	!	1239	1	!	-1	0	0	0	0	0	0	0	0	0	0	0	0	0	0	0	0	0	0	0	0	0	0	0	0	0	0	0
011019	14:44:21	15:01:39	1037865	5.0.10.0	4_exp_AWA_CON_AMP_EVA	59	Rpleas_acq	Oppo	Lpleas	Amasked	CS_A	2pleas	distractor2	CONbeforeEVA	cond_US_unple_123_masked_CS2	condtest_masked_2	9	15	400	1	300	300	0	0	417	46	0	0	0	0	0	1	blank2r.bmp	0	1	+	0	5	C1r.bmp	492	1	blank2r.bmp	786	1	DHJF	786	1	blank2r.bmp	866	3	gemein	866	1	!	1239	1	!	1319	0	0	0	0	0	0	0	0	0	0	0	0	0	0	0	0	0	0	0	0	0	0	0	0	0	0	0
011019	14:44:21	15:01:41	1040091	5.0.10.0	4_exp_AWA_CON_AMP_EVA	59	Rpleas_acq	Oppo	Lpleas	Amasked	CS_A	2pleas	distractor2	CONbeforeEVA	cond_new_pleas_456_masked_CS2	condtest_masked_2	9	16	400	1	300	300	0	0	437	46	0	1	0	0	0	1	blank2r.bmp	0	1	+	0	8	C4r.bmp	492	1	blank2r.bmp	786	1	DHJF	786	1	blank2r.bmp	866	2	träumen	866	1	!	1239	1	!	1332	0	0	0	0	0	0	0	0	0	0	0	0	0	0	0	0	0	0	0	0	0	0	0	0	0	0	0
011019	14:44:21	15:01:44	1042250	5.0.10.0	4_exp_AWA_CON_AMP_EVA	59	Rpleas_acq	Oppo	Lpleas	Amasked	CS_A	2pleas	distractor2	CONbeforeEVA	cond_US_pleas_123_masked_CS2	condtest_masked_2	9	17	400	1	300	300	0	0	365	50	0	0	0	0	0	1	blank2r.bmp	0	1	+	0	3	B3r.bmp	492	1	blank2r.bmp	786	1	DHJF	786	1	blank2r.bmp	866	3	genießen	866	1	!	1239	1	!	1266	0	0	0	0	0	0	0	0	0	0	0	0	0	0	0	0	0	0	0	0	0	0	0	0	0	0	0
011019	14:44:21	15:01:46	1044489	5.0.10.0	4_exp_AWA_CON_AMP_EVA	59	Rpleas_acq	Oppo	Lpleas	Amasked	CS_A	2pleas	distractor2	CONbeforeEVA	cond_new_pleas_456_masked_CS2	condtest_masked_2	9	18	400	1	300	300	0	0	449	46	0	1	0	0	0	1	blank2r.bmp	0	1	+	0	4	B4r.bmp	492	1	blank2r.bmp	786	1	DHJF	786	1	blank2r.bmp	866	1	kreativ	866	1	!	1239	1	!	1346	0	0	0	0	0	0	0	0	0	0	0	0	0	0	0	0	0	0	0	0	0	0	0	0	0	0	0
011019	14:44:21	15:01:48	1046901	5.0.10.0	4_exp_AWA_CON_AMP_EVA	59	Rpleas_acq	Oppo	Lpleas	Amasked	CS_A	2pleas	distractor2	CONbeforeEVA	cond_new_unple_456_masked_CS1	condtest_masked_2	9	19	400	0	300	300	0	0	644	50	0	1	0	0	0	1	blank2r.bmp	0	1	+	0	7	C3r.bmp	492	1	blank2r.bmp	786	1	CPLW	786	1	blank2r.bmp	866	2	töten	866	1	!	1239	1	!	-1	0	0	0	0	0	0	0	0	0	0	0	0	0	0	0	0	0	0	0	0	0	0	0	0	0	0	0
011019	14:44:21	15:01:50	1049087	5.0.10.0	4_exp_AWA_CON_AMP_EVA	59	Rpleas_acq	Oppo	Lpleas	Amasked	CS_A	2pleas	distractor2	CONbeforeEVA	cond_new_pleas_456_masked_CS1	condtest_masked_2	9	20	400	1	300	300	0	0	381	50	0	0	0	0	0	1	blank2r.bmp	0	1	+	0	6	C2r.bmp	492	1	blank2r.bmp	786	1	CPLW	786	1	blank2r.bmp	866	3	anregung	866	1	!	1239	1	!	1279	0	0	0	0	0	0	0	0	0	0	0	0	0	0	0	0	0	0	0	0	0	0	0	0	0	0	0
011019	14:44:21	15:01:53	1051353	5.0.10.0	4_exp_AWA_CON_AMP_EVA	59	Rpleas_acq	Oppo	Lpleas	Amasked	CS_A	2pleas	distractor2	CONbeforeEVA	cond_new_unple_456_masked_CS1	condtest_masked_2	9	21	400	0	300	300	0	0	479	50	0	1	0	0	0	1	blank2r.bmp	0	1	+	0	5	C1r.bmp	492	1	blank2r.bmp	786	1	CPLW	786	1	blank2r.bmp	866	1	krank	866	1	!	1239	1	!	-1	0	0	0	0	0	0	0	0	0	0	0	0	0	0	0	0	0	0	0	0	0	0	0	0	0	0	0
011019	14:44:21	15:01:55	1053619	5.0.10.0	4_exp_AWA_CON_AMP_EVA	59	Rpleas_acq	Oppo	Lpleas	Amasked	CS_A	2pleas	distractor2	CONbeforeEVA	cond_US_unple_123_masked_CS1	condtest_masked_2	9	22	400	1	300	300	0	0	462	50	0	1	0	0	0	1	blank2r.bmp	0	1	+	0	3	B3r.bmp	492	1	blank2r.bmp	786	1	CPLW	786	1	blank2r.bmp	866	2	gierig	866	1	!	1239	1	!	1359	0	0	0	0	0	0	0	0	0	0	0	0	0	0	0	0	0	0	0	0	0	0	0	0	0	0	0
011019	14:44:21	15:01:58	1056178	5.0.10.0	4_exp_AWA_CON_AMP_EVA	59	Rpleas_acq	Oppo	Lpleas	Amasked	CS_A	2pleas	distractor2	CONbeforeEVA	cond_new_pleas_456_masked_CS2	condtest_masked_2	9	23	400	0	300	300	0	0	792	50	0	0	0	0	0	1	blank2r.bmp	0	1	+	0	7	C3r.bmp	492	1	blank2r.bmp	786	1	DHJF	786	1	blank2r.bmp	866	3	anregung	866	1	!	1239	1	!	-1	0	0	0	0	0	0	0	0	0	0	0	0	0	0	0	0	0	0	0	0	0	0	0	0	0	0	0
011019	14:44:21	15:02:00	1058363	5.0.10.0	4_exp_AWA_CON_AMP_EVA	59	Rpleas_acq	Oppo	Lpleas	Amasked	CS_A	2pleas	distractor2	CONbeforeEVA	cond_US_pleas_123_masked_CS2	condtest_masked_2	9	24	400	1	300	300	0	0	378	46	0	1	0	0	0	1	blank2r.bmp	0	1	+	0	4	B4r.bmp	492	1	blank2r.bmp	786	1	DHJF	786	1	blank2r.bmp	866	2	gütig	866	1	!	1239	1	!	1279	0	0	0	0	0	0	0	0	0	0	0	0	0	0	0	0	0	0	0	0	0	0	0	0	0	0	0
011019	14:44:21	15:02:02	1060523	5.0.10.0	4_exp_AWA_CON_AMP_EVA	59	Rpleas_acq	Oppo	Lpleas	Amasked	CS_A	2pleas	distractor2	CONbeforeEVA	cond_US_unple_123_masked_CS1	condtest_masked_2	9	25	400	1	300	300	0	0	370	50	0	1	0	0	0	1	blank2r.bmp	0	1	+	0	1	B1r.bmp	492	1	blank2r.bmp	786	1	CPLW	786	1	blank2r.bmp	866	2	gierig	866	1	!	1239	1	!	1266	0	0	0	0	0	0	0	0	0	0	0	0	0	0	0	0	0	0	0	0	0	0	0	0	0	0	0
011019	14:44:21	15:02:04	1062748	5.0.10.0	4_exp_AWA_CON_AMP_EVA	59	Rpleas_acq	Oppo	Lpleas	Amasked	CS_A	2pleas	distractor2	CONbeforeEVA	cond_US_unple_123_masked_CS2	condtest_masked_2	9	26	400	1	300	300	0	0	425	46	0	0	0	0	0	1	blank2r.bmp	0	1	+	0	8	C4r.bmp	492	1	blank2r.bmp	786	1	DHJF	786	1	blank2r.bmp	866	1	krise	866	1	!	1239	1	!	1332	0	0	0	0	0	0	0	0	0	0	0	0	0	0	0	0	0	0	0	0	0	0	0	0	0	0	0
011019	14:44:21	15:02:06	1064987	5.0.10.0	4_exp_AWA_CON_AMP_EVA	59	Rpleas_acq	Oppo	Lpleas	Amasked	CS_A	2pleas	distractor2	CONbeforeEVA	cond_US_pleas_123_masked_CS2	condtest_masked_2	9	27	400	1	300	300	0	0	443	46	0	1	0	0	0	1	blank2r.bmp	0	1	+	0	6	C2r.bmp	492	1	blank2r.bmp	786	1	DHJF	786	1	blank2r.bmp	866	2	gütig	866	1	!	1239	1	!	1346	0	0	0	0	0	0	0	0	0	0	0	0	0	0	0	0	0	0	0	0	0	0	0	0	0	0	0
011019	14:44:21	15:02:09	1067240	5.0.10.0	4_exp_AWA_CON_AMP_EVA	59	Rpleas_acq	Oppo	Lpleas	Amasked	CS_A	2pleas	distractor2	CONbeforeEVA	cond_new_pleas_456_masked_CS2	condtest_masked_2	9	28	400	0	300	300	0	0	479	46	0	1	0	0	0	1	blank2r.bmp	0	1	+	0	2	B2r.bmp	492	1	blank2r.bmp	786	1	DHJF	786	1	blank2r.bmp	866	1	kreativ	866	1	!	1239	1	!	-1	0	0	0	0	0	0	0	0	0	0	0	0	0	0	0	0	0	0	0	0	0	0	0	0	0	0	0
011019	14:44:21	15:02:11	1069412	5.0.10.0	4_exp_AWA_CON_AMP_EVA	59	Rpleas_acq	Oppo	Lpleas	Amasked	CS_A	2pleas	distractor2	CONbeforeEVA	cond_new_unple_456_masked_CS2	condtest_masked_2	9	29	400	1	300	300	0	0	367	50	0	1	0	0	0	1	blank2r.bmp	0	1	+	0	7	C3r.bmp	492	1	blank2r.bmp	786	1	DHJF	786	1	blank2r.bmp	866	3	ausrottung	866	1	!	1239	1	!	1266	0	0	0	0	0	0	0	0	0	0	0	0	0	0	0	0	0	0	0	0	0	0	0	0	0	0	0
011019	14:44:21	15:02:13	1071718	5.0.10.0	4_exp_AWA_CON_AMP_EVA	59	Rpleas_acq	Oppo	Lpleas	Amasked	CS_A	2pleas	distractor2	CONbeforeEVA	cond_new_pleas_456_masked_CS2	condtest_masked_2	9	30	400	0	300	300	0	0	530	46	0	1	0	0	0	1	blank2r.bmp	0	1	+	0	4	B4r.bmp	492	1	blank2r.bmp	786	1	DHJF	786	1	blank2r.bmp	866	2	träumen	866	1	!	1239	1	!	-1	0	0	0	0	0	0	0	0	0	0	0	0	0	0	0	0	0	0	0	0	0	0	0	0	0	0	0
011019	14:44:21	15:02:15	1074024	5.0.10.0	4_exp_AWA_CON_AMP_EVA	59	Rpleas_acq	Oppo	Lpleas	Amasked	CS_A	2pleas	distractor2	CONbeforeEVA	cond_new_unple_456_masked_CS1	condtest_masked_2	9	31	400	0	300	300	0	0	532	50	0	1	0	0	0	1	blank2r.bmp	0	1	+	0	1	B1r.bmp	492	1	blank2r.bmp	786	1	CPLW	786	1	blank2r.bmp	866	2	töten	866	1	!	1239	1	!	-1	0	0	0	0	0	0	0	0	0	0	0	0	0	0	0	0	0	0	0	0	0	0	0	0	0	0	0
011019	14:44:21	15:02:17	1076036	5.0.10.0	4_exp_AWA_CON_AMP_EVA	59	Rpleas_acq	Oppo	Lpleas	Amasked	CS_A	2pleas	distractor2	CONbeforeEVA	cond_US_pleas_123_masked_CS1	condtest_masked_2	9	32	400	0	300	300	0	0	235	46	0	1	0	0	0	1	blank2r.bmp	0	1	+	0	2	B2r.bmp	492	1	blank2r.bmp	786	1	CPLW	786	1	blank2r.bmp	866	1	kuss	866	1	!	-1	1	!	-1	0	0	0	0	0	0	0	0	0	0	0	0	0	0	0	0	0	0	0	0	0	0	0	0	0	0	0
011019	14:44:21	15:02:19	1078115	5.0.10.0	4_exp_AWA_CON_AMP_EVA	59	Rpleas_acq	Oppo	Lpleas	Amasked	CS_A	2pleas	distractor2	CONbeforeEVA	cond_new_unple_456_masked_CS2	condtest_masked_2	9	33	400	0	300	300	0	0	300	50	0	1	0	0	0	1	blank2r.bmp	0	1	+	0	3	B3r.bmp	492	1	blank2r.bmp	786	1	DHJF	786	1	blank2r.bmp	866	1	krank	866	1	!	-1	1	!	-1	0	0	0	0	0	0	0	0	0	0	0	0	0	0	0	0	0	0	0	0	0	0	0	0	0	0	0
011019	14:44:21	15:02:22	1080288	5.0.10.0	4_exp_AWA_CON_AMP_EVA	59	Rpleas_acq	Oppo	Lpleas	Amasked	CS_A	2pleas	distractor2	CONbeforeEVA	cond_new_unple_456_masked_CS2	condtest_masked_2	9	34	400	1	300	300	0	0	362	46	0	0	0	0	0	1	blank2r.bmp	0	1	+	0	6	C2r.bmp	492	1	blank2r.bmp	786	1	DHJF	786	1	blank2r.bmp	866	2	töten	866	1	!	1239	1	!	1266	0	0	0	0	0	0	0	0	0	0	0	0	0	0	0	0	0	0	0	0	0	0	0	0	0	0	0
011019	14:44:21	15:02:24	1082473	5.0.10.0	4_exp_AWA_CON_AMP_EVA	59	Rpleas_acq	Oppo	Lpleas	Amasked	CS_A	2pleas	distractor2	CONbeforeEVA	cond_new_pleas_456_masked_CS1	condtest_masked_2	9	35	400	1	300	300	0	0	390	50	0	0	0	0	0	1	blank2r.bmp	0	1	+	0	8	C4r.bmp	492	1	blank2r.bmp	786	1	CPLW	786	1	blank2r.bmp	866	3	anregung	866	1	!	1239	1	!	1292	0	0	0	0	0	0	0	0	0	0	0	0	0	0	0	0	0	0	0	0	0	0	0	0	0	0	0
011019	14:44:21	15:02:26	1084499	5.0.10.0	4_exp_AWA_CON_AMP_EVA	59	Rpleas_acq	Oppo	Lpleas	Amasked	CS_A	2pleas	distractor2	CONbeforeEVA	cond_new_pleas_456_masked_CS1	condtest_masked_2	9	36	400	0	300	300	0	0	254	46	0	1	0	0	0	1	blank2r.bmp	0	1	+	0	5	C1r.bmp	492	1	blank2r.bmp	786	1	CPLW	786	1	blank2r.bmp	866	1	kreativ	866	1	!	-1	1	!	-1	0	0	0	0	0	0	0	0	0	0	0	0	0	0	0	0	0	0	0	0	0	0	0	0	0	0	0
011019	14:44:21	15:02:28	1086698	5.0.10.0	4_exp_AWA_CON_AMP_EVA	59	Rpleas_acq	Oppo	Lpleas	Amasked	CS_A	2pleas	distractor2	CONbeforeEVA	cond_US_pleas_123_masked_CS1	condtest_masked_2	9	37	400	1	300	300	0	0	375	50	0	0	0	0	0	1	blank2r.bmp	0	1	+	0	2	B2r.bmp	492	1	blank2r.bmp	786	1	CPLW	786	1	blank2r.bmp	866	3	genießen	866	1	!	1239	1	!	1279	0	0	0	0	0	0	0	0	0	0	0	0	0	0	0	0	0	0	0	0	0	0	0	0	0	0	0
011019	14:44:21	15:02:30	1089044	5.0.10.0	4_exp_AWA_CON_AMP_EVA	59	Rpleas_acq	Oppo	Lpleas	Amasked	CS_A	2pleas	distractor2	CONbeforeEVA	cond_new_pleas_456_masked_CS1	condtest_masked_2	9	38	400	0	300	300	0	0	564	46	0	1	0	0	0	1	blank2r.bmp	0	1	+	0	8	C4r.bmp	492	1	blank2r.bmp	786	1	CPLW	786	1	blank2r.bmp	866	2	träumen	866	1	!	1239	1	!	-1	0	0	0	0	0	0	0	0	0	0	0	0	0	0	0	0	0	0	0	0	0	0	0	0	0	0	0
011019	14:44:21	15:02:33	1091257	5.0.10.0	4_exp_AWA_CON_AMP_EVA	59	Rpleas_acq	Oppo	Lpleas	Amasked	CS_A	2pleas	distractor2	CONbeforeEVA	cond_new_unple_456_masked_CS2	condtest_masked_2	9	39	400	1	300	300	0	0	405	50	0	1	0	0	0	1	blank2r.bmp	0	1	+	0	5	C1r.bmp	492	1	blank2r.bmp	786	1	DHJF	786	1	blank2r.bmp	866	3	ausrottung	866	1	!	1239	1	!	1306	0	0	0	0	0	0	0	0	0	0	0	0	0	0	0	0	0	0	0	0	0	0	0	0	0	0	0
011019	14:44:21	15:02:35	1093482	5.0.10.0	4_exp_AWA_CON_AMP_EVA	59	Rpleas_acq	Oppo	Lpleas	Amasked	CS_A	2pleas	distractor2	CONbeforeEVA	cond_US_unple_123_masked_CS1	condtest_masked_2	9	40	400	1	300	300	0	0	437	50	0	1	0	0	0	1	blank2r.bmp	0	1	+	0	4	B4r.bmp	492	1	blank2r.bmp	786	1	CPLW	786	1	blank2r.bmp	866	3	gemein	866	1	!	1239	1	!	1332	0	0	0	0	0	0	0	0	0	0	0	0	0	0	0	0	0	0	0	0	0	0	0	0	0	0	0
011019	14:44:21	15:02:51	1109955	5.0.10.0	4_exp_AWA_CON_AMP_EVA	59	Rpleas_acq	Oppo	Lpleas	Amasked	CS_A	2pleas	distractor2	CONbeforeEVA	cond_new_unple_123_masked_CS1	condtest_masked_3	10	1	400	0	300	300	0	0	291	50	0	1	0	0	0	1	blank2r.bmp	0	1	+	0	1	B1r.bmp	492	1	blank2r.bmp	786	1	CPLW	786	1	blank2r.bmp	866	3	versagen	866	1	!	-1	1	!	-1	0	0	0	0	0	0	0	0	0	0	0	0	0	0	0	0	0	0	0	0	0	0	0	0	0	0	0
011019	14:44:21	15:02:54	1112235	5.0.10.0	4_exp_AWA_CON_AMP_EVA	59	Rpleas_acq	Oppo	Lpleas	Amasked	CS_A	2pleas	distractor2	CONbeforeEVA	cond_new_unple_123_masked_CS2	condtest_masked_3	10	2	400	0	300	300	0	0	494	50	0	1	0	0	0	1	blank2r.bmp	0	1	+	0	3	B3r.bmp	492	1	blank2r.bmp	786	1	DHJF	786	1	blank2r.bmp	866	1	engstirnig	866	1	!	1239	1	!	-1	0	0	0	0	0	0	0	0	0	0	0	0	0	0	0	0	0	0	0	0	0	0	0	0	0	0	0
011019	14:44:21	15:02:56	1114540	5.0.10.0	4_exp_AWA_CON_AMP_EVA	59	Rpleas_acq	Oppo	Lpleas	Amasked	CS_A	2pleas	distractor2	CONbeforeEVA	cond_US_unple_456_masked_CS2	condtest_masked_3	10	3	400	0	300	300	0	0	519	50	0	1	0	0	0	1	blank2r.bmp	0	1	+	0	7	C3r.bmp	492	1	blank2r.bmp	786	1	DHJF	786	1	blank2r.bmp	866	3	bange	866	1	!	1239	1	!	-1	0	0	0	0	0	0	0	0	0	0	0	0	0	0	0	0	0	0	0	0	0	0	0	0	0	0	0
011019	14:44:21	15:02:58	1116699	5.0.10.0	4_exp_AWA_CON_AMP_EVA	59	Rpleas_acq	Oppo	Lpleas	Amasked	CS_A	2pleas	distractor2	CONbeforeEVA	cond_US_pleas_456_masked_CS1	condtest_masked_3	10	4	400	1	300	300	0	0	347	50	0	0	0	0	0	1	blank2r.bmp	0	1	+	0	6	C2r.bmp	492	1	blank2r.bmp	786	1	CPLW	786	1	blank2r.bmp	866	1	vergnügt	866	1	!	1239	1	!	1252	0	0	0	0	0	0	0	0	0	0	0	0	0	0	0	0	0	0	0	0	0	0	0	0	0	0	0
011019	14:44:21	15:03:00	1118845	5.0.10.0	4_exp_AWA_CON_AMP_EVA	59	Rpleas_acq	Oppo	Lpleas	Amasked	CS_A	2pleas	distractor2	CONbeforeEVA	cond_US_unple_456_masked_CS2	condtest_masked_3	10	5	400	1	300	300	0	0	346	46	0	0	0	0	0	1	blank2r.bmp	0	1	+	0	4	B4r.bmp	492	1	blank2r.bmp	786	1	DHJF	786	1	blank2r.bmp	866	1	verbissen	866	1	!	1239	1	!	1252	0	0	0	0	0	0	0	0	0	0	0	0	0	0	0	0	0	0	0	0	0	0	0	0	0	0	0
011019	14:44:21	15:03:03	1121244	5.0.10.0	4_exp_AWA_CON_AMP_EVA	59	Rpleas_acq	Oppo	Lpleas	Amasked	CS_A	2pleas	distractor2	CONbeforeEVA	cond_US_unple_456_masked_CS2	condtest_masked_3	10	6	400	0	300	300	0	0	625	50	0	1	0	0	0	1	blank2r.bmp	0	1	+	0	1	B1r.bmp	492	1	blank2r.bmp	786	1	DHJF	786	1	blank2r.bmp	866	2	sterben	866	1	!	1239	1	!	-1	0	0	0	0	0	0	0	0	0	0	0	0	0	0	0	0	0	0	0	0	0	0	0	0	0	0	0
011019	14:44:21	15:03:05	1123457	5.0.10.0	4_exp_AWA_CON_AMP_EVA	59	Rpleas_acq	Oppo	Lpleas	Amasked	CS_A	2pleas	distractor2	CONbeforeEVA	cond_new_pleas_123_masked_CS2	condtest_masked_3	10	7	400	1	300	300	0	0	402	46	0	1	0	0	0	1	blank2r.bmp	0	1	+	0	2	B2r.bmp	492	1	blank2r.bmp	786	1	DHJF	786	1	blank2r.bmp	866	3	vertrauen	866	1	!	1239	1	!	1306	0	0	0	0	0	0	0	0	0	0	0	0	0	0	0	0	0	0	0	0	0	0	0	0	0	0	0
011019	14:44:21	15:03:07	1125749	5.0.10.0	4_exp_AWA_CON_AMP_EVA	59	Rpleas_acq	Oppo	Lpleas	Amasked	CS_A	2pleas	distractor2	CONbeforeEVA	cond_new_unple_123_masked_CS2	condtest_masked_3	10	8	400	0	300	300	0	0	527	46	0	0	0	0	0	1	blank2r.bmp	0	1	+	0	3	B3r.bmp	492	1	blank2r.bmp	786	1	DHJF	786	1	blank2r.bmp	866	2	geizig	866	1	!	1239	1	!	-1	0	0	0	0	0	0	0	0	0	0	0	0	0	0	0	0	0	0	0	0	0	0	0	0	0	0	0
011019	14:44:21	15:03:09	1128015	5.0.10.0	4_exp_AWA_CON_AMP_EVA	59	Rpleas_acq	Oppo	Lpleas	Amasked	CS_A	2pleas	distractor2	CONbeforeEVA	cond_new_unple_123_masked_CS2	condtest_masked_3	10	9	400	0	300	300	0	0	479	46	0	0	0	0	0	1	blank2r.bmp	0	1	+	0	7	C3r.bmp	492	1	blank2r.bmp	786	1	DHJF	786	1	blank2r.bmp	866	1	engstirnig	866	1	!	1239	1	!	-1	0	0	0	0	0	0	0	0	0	0	0	0	0	0	0	0	0	0	0	0	0	0	0	0	0	0	0
011019	14:44:21	15:03:12	1130240	5.0.10.0	4_exp_AWA_CON_AMP_EVA	59	Rpleas_acq	Oppo	Lpleas	Amasked	CS_A	2pleas	distractor2	CONbeforeEVA	cond_new_pleas_123_masked_CS1	condtest_masked_3	10	10	400	1	300	300	0	0	412	50	0	0	0	0	0	1	blank2r.bmp	0	1	+	0	5	C1r.bmp	492	1	blank2r.bmp	786	1	CPLW	786	1	blank2r.bmp	866	2	gesittet	866	1	!	1239	1	!	1319	0	0	0	0	0	0	0	0	0	0	0	0	0	0	0	0	0	0	0	0	0	0	0	0	0	0	0
011019	14:44:21	15:03:14	1132586	5.0.10.0	4_exp_AWA_CON_AMP_EVA	59	Rpleas_acq	Oppo	Lpleas	Amasked	CS_A	2pleas	distractor2	CONbeforeEVA	cond_US_unple_456_masked_CS2	condtest_masked_3	10	11	400	0	300	300	0	0	584	50	0	1	0	0	0	1	blank2r.bmp	0	1	+	0	6	C2r.bmp	492	1	blank2r.bmp	786	1	DHJF	786	1	blank2r.bmp	866	2	sterben	866	1	!	1239	1	!	-1	0	0	0	0	0	0	0	0	0	0	0	0	0	0	0	0	0	0	0	0	0	0	0	0	0	0	0
011019	14:44:21	15:03:16	1134852	5.0.10.0	4_exp_AWA_CON_AMP_EVA	59	Rpleas_acq	Oppo	Lpleas	Amasked	CS_A	2pleas	distractor2	CONbeforeEVA	cond_US_pleas_456_masked_CS2	condtest_masked_3	10	12	400	1	300	300	0	0	455	46	0	1	0	0	0	1	blank2r.bmp	0	1	+	0	8	C4r.bmp	492	1	blank2r.bmp	786	1	DHJF	786	1	blank2r.bmp	866	2	sonnig	866	1	!	1239	1	!	1359	0	0	0	0	0	0	0	0	0	0	0	0	0	0	0	0	0	0	0	0	0	0	0	0	0	0	0
011019	14:44:21	15:03:18	1137038	5.0.10.0	4_exp_AWA_CON_AMP_EVA	59	Rpleas_acq	Oppo	Lpleas	Amasked	CS_A	2pleas	distractor2	CONbeforeEVA	cond_new_pleas_123_masked_CS2	condtest_masked_3	10	13	400	1	300	300	0	0	398	50	0	0	0	0	0	1	blank2r.bmp	0	1	+	0	8	C4r.bmp	492	1	blank2r.bmp	786	1	DHJF	786	1	blank2r.bmp	866	1	engagiert	866	1	!	1239	1	!	1292	0	0	0	0	0	0	0	0	0	0	0	0	0	0	0	0	0	0	0	0	0	0	0	0	0	0	0
011019	14:44:21	15:03:21	1139197	5.0.10.0	4_exp_AWA_CON_AMP_EVA	59	Rpleas_acq	Oppo	Lpleas	Amasked	CS_A	2pleas	distractor2	CONbeforeEVA	cond_US_pleas_456_masked_CS2	condtest_masked_3	10	14	400	1	300	300	0	0	350	46	0	1	0	0	0	1	blank2r.bmp	0	1	+	0	2	B2r.bmp	492	1	blank2r.bmp	786	1	DHJF	786	1	blank2r.bmp	866	3	besonnen	866	1	!	1239	1	!	1252	0	0	0	0	0	0	0	0	0	0	0	0	0	0	0	0	0	0	0	0	0	0	0	0	0	0	0
011019	14:44:21	15:03:23	1141383	5.0.10.0	4_exp_AWA_CON_AMP_EVA	59	Rpleas_acq	Oppo	Lpleas	Amasked	CS_A	2pleas	distractor2	CONbeforeEVA	cond_new_pleas_123_masked_CS2	condtest_masked_3	10	15	400	1	300	300	0	0	398	46	0	1	0	0	0	1	blank2r.bmp	0	1	+	0	6	C2r.bmp	492	1	blank2r.bmp	786	1	DHJF	786	1	blank2r.bmp	866	1	engagiert	866	1	!	1239	1	!	1292	0	0	0	0	0	0	0	0	0	0	0	0	0	0	0	0	0	0	0	0	0	0	0	0	0	0	0
011019	14:44:21	15:03:25	1143635	5.0.10.0	4_exp_AWA_CON_AMP_EVA	59	Rpleas_acq	Oppo	Lpleas	Amasked	CS_A	2pleas	distractor2	CONbeforeEVA	cond_new_unple_123_masked_CS2	condtest_masked_3	10	16	400	0	300	300	0	0	482	50	0	1	0	0	0	1	blank2r.bmp	0	1	+	0	1	B1r.bmp	492	1	blank2r.bmp	786	1	DHJF	786	1	blank2r.bmp	866	3	versagen	866	1	!	1239	1	!	-1	0	0	0	0	0	0	0	0	0	0	0	0	0	0	0	0	0	0	0	0	0	0	0	0	0	0	0
011019	14:44:21	15:03:27	1145674	5.0.10.0	4_exp_AWA_CON_AMP_EVA	59	Rpleas_acq	Oppo	Lpleas	Amasked	CS_A	2pleas	distractor2	CONbeforeEVA	cond_new_unple_123_masked_CS2	condtest_masked_3	10	17	400	0	300	300	0	0	261	50	0	1	0	0	0	1	blank2r.bmp	0	1	+	0	5	C1r.bmp	492	1	blank2r.bmp	786	1	DHJF	786	1	blank2r.bmp	866	2	geizig	866	1	!	-1	1	!	-1	0	0	0	0	0	0	0	0	0	0	0	0	0	0	0	0	0	0	0	0	0	0	0	0	0	0	0
011019	14:44:21	15:03:29	1147887	5.0.10.0	4_exp_AWA_CON_AMP_EVA	59	Rpleas_acq	Oppo	Lpleas	Amasked	CS_A	2pleas	distractor2	CONbeforeEVA	cond_new_unple_123_masked_CS1	condtest_masked_3	10	18	400	1	300	300	0	0	411	50	0	1	0	0	0	1	blank2r.bmp	0	1	+	0	7	C3r.bmp	492	1	blank2r.bmp	786	1	CPLW	786	1	blank2r.bmp	866	3	versagen	866	1	!	1239	1	!	1306	0	0	0	0	0	0	0	0	0	0	0	0	0	0	0	0	0	0	0	0	0	0	0	0	0	0	0
011019	14:44:21	15:03:31	1149979	5.0.10.0	4_exp_AWA_CON_AMP_EVA	59	Rpleas_acq	Oppo	Lpleas	Amasked	CS_A	2pleas	distractor2	CONbeforeEVA	cond_new_pleas_123_masked_CS1	condtest_masked_3	10	19	400	0	300	300	0	0	319	46	0	1	0	0	0	1	blank2r.bmp	0	1	+	0	4	B4r.bmp	492	1	blank2r.bmp	786	1	CPLW	786	1	blank2r.bmp	866	3	vertrauen	866	1	!	-1	1	!	-1	0	0	0	0	0	0	0	0	0	0	0	0	0	0	0	0	0	0	0	0	0	0	0	0	0	0	0
011019	14:44:21	15:03:34	1152231	5.0.10.0	4_exp_AWA_CON_AMP_EVA	59	Rpleas_acq	Oppo	Lpleas	Amasked	CS_A	2pleas	distractor2	CONbeforeEVA	cond_US_unple_456_masked_CS1	condtest_masked_3	10	20	400	1	300	300	0	0	446	50	0	1	0	0	0	1	blank2r.bmp	0	1	+	0	3	B3r.bmp	492	1	blank2r.bmp	786	1	CPLW	786	1	blank2r.bmp	866	3	bange	866	1	!	1239	1	!	1346	0	0	0	0	0	0	0	0	0	0	0	0	0	0	0	0	0	0	0	0	0	0	0	0	0	0	0
011019	14:44:21	15:03:36	1154391	5.0.10.0	4_exp_AWA_CON_AMP_EVA	59	Rpleas_acq	Oppo	Lpleas	Amasked	CS_A	2pleas	distractor2	CONbeforeEVA	cond_US_pleas_456_masked_CS1	condtest_masked_3	10	21	400	1	300	300	0	0	346	46	0	1	0	0	0	1	blank2r.bmp	0	1	+	0	6	C2r.bmp	492	1	blank2r.bmp	786	1	CPLW	786	1	blank2r.bmp	866	2	sonnig	866	1	!	1239	1	!	1252	0	0	0	0	0	0	0	0	0	0	0	0	0	0	0	0	0	0	0	0	0	0	0	0	0	0	0
011019	14:44:21	15:03:38	1156536	5.0.10.0	4_exp_AWA_CON_AMP_EVA	59	Rpleas_acq	Oppo	Lpleas	Amasked	CS_A	2pleas	distractor2	CONbeforeEVA	cond_US_unple_456_masked_CS1	condtest_masked_3	10	22	400	1	300	300	0	0	351	50	0	1	0	0	0	1	blank2r.bmp	0	1	+	0	3	B3r.bmp	492	1	blank2r.bmp	786	1	CPLW	786	1	blank2r.bmp	866	1	verbissen	866	1	!	1239	1	!	1252	0	0	0	0	0	0	0	0	0	0	0	0	0	0	0	0	0	0	0	0	0	0	0	0	0	0	0
011019	14:44:21	15:03:40	1158709	5.0.10.0	4_exp_AWA_CON_AMP_EVA	59	Rpleas_acq	Oppo	Lpleas	Amasked	CS_A	2pleas	distractor2	CONbeforeEVA	cond_US_pleas_456_masked_CS2	condtest_masked_3	10	23	400	1	300	300	0	0	385	46	0	1	0	0	0	1	blank2r.bmp	0	1	+	0	5	C1r.bmp	492	1	blank2r.bmp	786	1	DHJF	786	1	blank2r.bmp	866	1	vergnügt	866	1	!	1239	1	!	1279	0	0	0	0	0	0	0	0	0	0	0	0	0	0	0	0	0	0	0	0	0	0	0	0	0	0	0
011019	14:44:21	15:03:42	1160855	5.0.10.0	4_exp_AWA_CON_AMP_EVA	59	Rpleas_acq	Oppo	Lpleas	Amasked	CS_A	2pleas	distractor2	CONbeforeEVA	cond_new_unple_123_masked_CS1	condtest_masked_3	10	24	400	1	300	300	0	0	346	50	0	1	0	0	0	1	blank2r.bmp	0	1	+	0	8	C4r.bmp	492	1	blank2r.bmp	786	1	CPLW	786	1	blank2r.bmp	866	1	engstirnig	866	1	!	1239	1	!	1252	0	0	0	0	0	0	0	0	0	0	0	0	0	0	0	0	0	0	0	0	0	0	0	0	0	0	0
011019	14:44:21	15:03:44	1163000	5.0.10.0	4_exp_AWA_CON_AMP_EVA	59	Rpleas_acq	Oppo	Lpleas	Amasked	CS_A	2pleas	distractor2	CONbeforeEVA	cond_new_unple_123_masked_CS1	condtest_masked_3	10	25	400	1	300	300	0	0	347	46	0	0	0	0	0	1	blank2r.bmp	0	1	+	0	7	C3r.bmp	492	1	blank2r.bmp	786	1	CPLW	786	1	blank2r.bmp	866	2	geizig	866	1	!	1239	1	!	1252	0	0	0	0	0	0	0	0	0	0	0	0	0	0	0	0	0	0	0	0	0	0	0	0	0	0	0
011019	14:44:21	15:03:47	1165146	5.0.10.0	4_exp_AWA_CON_AMP_EVA	59	Rpleas_acq	Oppo	Lpleas	Amasked	CS_A	2pleas	distractor2	CONbeforeEVA	cond_US_unple_456_masked_CS1	condtest_masked_3	10	26	400	1	300	300	0	0	346	46	0	0	0	0	0	1	blank2r.bmp	0	1	+	0	2	B2r.bmp	492	1	blank2r.bmp	786	1	CPLW	786	1	blank2r.bmp	866	2	sterben	866	1	!	1239	1	!	1252	0	0	0	0	0	0	0	0	0	0	0	0	0	0	0	0	0	0	0	0	0	0	0	0	0	0	0
011019	14:44:21	15:03:49	1167452	5.0.10.0	4_exp_AWA_CON_AMP_EVA	59	Rpleas_acq	Oppo	Lpleas	Amasked	CS_A	2pleas	distractor2	CONbeforeEVA	cond_new_unple_123_masked_CS1	condtest_masked_3	10	27	400	0	300	300	0	0	538	50	0	1	0	0	0	1	blank2r.bmp	0	1	+	0	1	B1r.bmp	492	1	blank2r.bmp	786	1	CPLW	786	1	blank2r.bmp	866	1	engstirnig	866	1	!	1239	1	!	-1	0	0	0	0	0	0	0	0	0	0	0	0	0	0	0	0	0	0	0	0	0	0	0	0	0	0	0
011019	14:44:21	15:03:51	1169638	5.0.10.0	4_exp_AWA_CON_AMP_EVA	59	Rpleas_acq	Oppo	Lpleas	Amasked	CS_A	2pleas	distractor2	CONbeforeEVA	cond_new_pleas_123_masked_CS1	condtest_masked_3	10	28	400	1	300	300	0	0	374	46	0	1	0	0	0	1	blank2r.bmp	0	1	+	0	4	B4r.bmp	492	1	blank2r.bmp	786	1	CPLW	786	1	blank2r.bmp	866	2	gesittet	866	1	!	1239	1	!	1279	0	0	0	0	0	0	0	0	0	0	0	0	0	0	0	0	0	0	0	0	0	0	0	0	0	0	0
011019	14:44:21	15:03:53	1171970	5.0.10.0	4_exp_AWA_CON_AMP_EVA	59	Rpleas_acq	Oppo	Lpleas	Amasked	CS_A	2pleas	distractor2	CONbeforeEVA	cond_new_pleas_123_masked_CS1	condtest_masked_3	10	29	400	0	300	300	0	0	564	46	0	1	0	0	0	1	blank2r.bmp	0	1	+	0	1	B1r.bmp	492	1	blank2r.bmp	786	1	CPLW	786	1	blank2r.bmp	866	1	engagiert	866	1	!	1239	1	!	-1	0	0	0	0	0	0	0	0	0	0	0	0	0	0	0	0	0	0	0	0	0	0	0	0	0	0	0
011019	14:44:21	15:03:56	1174262	5.0.10.0	4_exp_AWA_CON_AMP_EVA	59	Rpleas_acq	Oppo	Lpleas	Amasked	CS_A	2pleas	distractor2	CONbeforeEVA	cond_new_pleas_123_masked_CS2	condtest_masked_3	10	30	400	0	300	300	0	0	502	46	0	1	0	0	0	1	blank2r.bmp	0	1	+	0	4	B4r.bmp	492	1	blank2r.bmp	786	1	DHJF	786	1	blank2r.bmp	866	2	gesittet	866	1	!	1239	1	!	-1	0	0	0	0	0	0	0	0	0	0	0	0	0	0	0	0	0	0	0	0	0	0	0	0	0	0	0
011019	14:44:21	15:03:58	1176275	5.0.10.0	4_exp_AWA_CON_AMP_EVA	59	Rpleas_acq	Oppo	Lpleas	Amasked	CS_A	2pleas	distractor2	CONbeforeEVA	cond_US_unple_456_masked_CS1	condtest_masked_3	10	31	400	0	300	300	0	0	212	50	0	1	0	0	0	1	blank2r.bmp	0	1	+	0	8	C4r.bmp	492	1	blank2r.bmp	786	1	CPLW	786	1	blank2r.bmp	866	3	bange	866	1	!	-1	1	!	-1	0	0	0	0	0	0	0	0	0	0	0	0	0	0	0	0	0	0	0	0	0	0	0	0	0	0	0
