date	time	script.currenttime	script.elapsedtime	build	script.currentexpt	subject	expressions.LRpleas_acq	expressions.SameOppo	expressions.condition_Lpleas	expressions.ABmasked	expressions.conditionCS_A	expressions.condition_1pleas	expressions.condition_distractor_AMP	trialcode	blockcode	blocknum	trialnum	windowcenter	inwindow	pretrialpause	posttrialpause	trialduration	trialtimeout	latency	response	expressions.correctedscore	correct	values.vis_performance	values.vis_rating_sum	values.vis_rating_mean	stimulusnumber1	stimulusitem1	stimulusonset1	stimulusnumber2	stimulusitem2	stimulusonset2	stimulusnumber3	stimulusitem3	stimulusonset3	stimulusnumber4	stimulusitem4	stimulusonset4	stimulusnumber5	stimulusitem5	stimulusonset5	stimulusnumber6	stimulusitem6	stimulusonset6	stimulusnumber7	stimulusitem7	stimulusonset7	stimulusnumber8	stimulusitem8	stimulusonset8	stimulusnumber9	stimulusitem9	stimulusonset9	stimulusnumber10	stimulusitem10	stimulusonset10	stimulusnumber11	stimulusitem11	stimulusonset11	stimulusnumber12	stimulusitem12	stimulusonset12	stimulusnumber13	stimulusitem13	stimulusonset13	stimulusnumber14	stimulusitem14	stimulusonset14	stimulusnumber15	stimulusitem15	stimulusonset15	stimulusnumber16	stimulusitem16	stimulusonset16	stimulusnumber17	stimulusitem17	stimulusonset17	stimulusnumber18	stimulusitem18	stimulusonset18
120618	12:08:54	12:09:00	3377	5.0.10.0	4_exp_AWA_CON_AMP_EVA	985	Rpleas_acq	Same	Rpleas	Bmasked	CS_B	2pleas	distractor2	acq_US_unple_masked	acq1_masked	1	1	0	0	300	300	0	0	24	46	0	1	0	0	0	1	blank2r.bmp	0	1	+	0	7	C3r.bmp	492	1	blank2r.bmp	786	1	BMVZ	786	1	blank2r.bmp	866	3	faul	866	0	0	0	0	0	0	0	0	0	0	0	0	0	0	0	0	0	0	0	0	0	0	0	0	0	0	0	0	0	0	0	0	0
120618	12:08:54	12:09:01	4883	5.0.10.0	4_exp_AWA_CON_AMP_EVA	985	Rpleas_acq	Same	Rpleas	Bmasked	CS_B	2pleas	distractor2	acq_new_pleas_masked	acq1_masked	1	2	0	0	300	300	0	0	16	50	0	1	0	0	0	1	blank2r.bmp	0	1	+	0	4	B4r.bmp	492	1	blank2r.bmp	786	2	B2r.bmp	786	1	blank2r.bmp	866	5	loyal	866	0	0	0	0	0	0	0	0	0	0	0	0	0	0	0	0	0	0	0	0	0	0	0	0	0	0	0	0	0	0	0	0	0
120618	12:08:54	12:09:03	6602	5.0.10.0	4_exp_AWA_CON_AMP_EVA	985	Rpleas_acq	Same	Rpleas	Bmasked	CS_B	2pleas	distractor2	acq_US_pleas_masked	acq1_masked	1	3	0	0	300	300	0	0	36	46	0	0	0	0	0	1	blank2r.bmp	0	1	+	0	2	B2r.bmp	492	1	blank2r.bmp	786	1	GKQX	786	1	blank2r.bmp	866	1	treu	866	1	FEHLER	932	0	0	0	0	0	0	0	0	0	0	0	0	0	0	0	0	0	0	0	0	0	0	0	0	0	0	0	0	0	0
120618	12:08:54	12:09:04	7935	5.0.10.0	4_exp_AWA_CON_AMP_EVA	985	Rpleas_acq	Same	Rpleas	Bmasked	CS_B	2pleas	distractor2	acq_US_pleas_masked	acq1_masked	1	4	0	0	300	300	0	0	61	50	0	1	0	0	0	1	blank2r.bmp	0	1	+	0	8	C4r.bmp	492	1	blank2r.bmp	786	1	GKQX	786	1	blank2r.bmp	866	5	spielen	866	0	0	0	0	0	0	0	0	0	0	0	0	0	0	0	0	0	0	0	0	0	0	0	0	0	0	0	0	0	0	0	0	0
120618	12:08:54	12:09:06	9467	5.0.10.0	4_exp_AWA_CON_AMP_EVA	985	Rpleas_acq	Same	Rpleas	Bmasked	CS_B	2pleas	distractor2	acq_new_pleas_masked	acq1_masked	1	5	0	0	300	300	0	0	57	50	0	1	0	0	0	1	blank2r.bmp	0	1	+	0	6	C2r.bmp	492	1	blank2r.bmp	786	7	C3r.bmp	786	1	blank2r.bmp	866	6	retten	866	0	0	0	0	0	0	0	0	0	0	0	0	0	0	0	0	0	0	0	0	0	0	0	0	0	0	0	0	0	0	0	0	0
120618	12:08:54	12:09:07	10973	5.0.10.0	4_exp_AWA_CON_AMP_EVA	985	Rpleas_acq	Same	Rpleas	Bmasked	CS_B	2pleas	distractor2	acq_new_pleas_masked	acq1_masked	1	6	0	0	300	300	0	0	38	50	0	1	0	0	0	1	blank2r.bmp	0	1	+	0	5	C1r.bmp	492	1	blank2r.bmp	786	1	B1r.bmp	786	1	blank2r.bmp	866	2	schlau	866	0	0	0	0	0	0	0	0	0	0	0	0	0	0	0	0	0	0	0	0	0	0	0	0	0	0	0	0	0	0	0	0	0
120618	12:08:54	12:09:09	12706	5.0.10.0	4_exp_AWA_CON_AMP_EVA	985	Rpleas_acq	Same	Rpleas	Bmasked	CS_B	2pleas	distractor2	acq_US_unple_masked	acq1_masked	1	7	0	0	300	300	0	0	34	50	0	0	0	0	0	1	blank2r.bmp	0	1	+	0	1	B1r.bmp	492	1	blank2r.bmp	786	1	BMVZ	786	1	blank2r.bmp	866	5	strafen	866	1	FEHLER	932	0	0	0	0	0	0	0	0	0	0	0	0	0	0	0	0	0	0	0	0	0	0	0	0	0	0	0	0	0	0
120618	12:08:54	12:09:10	14225	5.0.10.0	4_exp_AWA_CON_AMP_EVA	985	Rpleas_acq	Same	Rpleas	Bmasked	CS_B	2pleas	distractor2	acq_US_unple_masked	acq1_masked	1	8	0	0	300	300	0	0	39	50	0	0	0	0	0	1	blank2r.bmp	0	1	+	0	3	B3r.bmp	492	1	blank2r.bmp	786	1	BMVZ	786	1	blank2r.bmp	866	6	tyrannisch	866	1	FEHLER	946	0	0	0	0	0	0	0	0	0	0	0	0	0	0	0	0	0	0	0	0	0	0	0	0	0	0	0	0	0	0
120618	12:08:54	12:09:12	15732	5.0.10.0	4_exp_AWA_CON_AMP_EVA	985	Rpleas_acq	Same	Rpleas	Bmasked	CS_B	2pleas	distractor2	acq_new_unple_masked	acq1_masked	1	9	0	0	300	300	0	0	33	50	0	0	0	0	0	1	blank2r.bmp	0	1	+	0	8	C4r.bmp	492	1	blank2r.bmp	786	3	B3r.bmp	786	1	blank2r.bmp	866	6	rächen	866	1	FEHLER	933	0	0	0	0	0	0	0	0	0	0	0	0	0	0	0	0	0	0	0	0	0	0	0	0	0	0	0	0	0	0
120618	12:08:54	12:09:13	17011	5.0.10.0	4_exp_AWA_CON_AMP_EVA	985	Rpleas_acq	Same	Rpleas	Bmasked	CS_B	2pleas	distractor2	acq_new_unple_masked	acq1_masked	1	10	0	0	300	300	0	0	24	46	0	1	0	0	0	1	blank2r.bmp	0	1	+	0	6	C2r.bmp	492	1	blank2r.bmp	786	8	C4r.bmp	786	1	blank2r.bmp	866	4	fanatisch	866	0	0	0	0	0	0	0	0	0	0	0	0	0	0	0	0	0	0	0	0	0	0	0	0	0	0	0	0	0	0	0	0	0
120618	12:08:54	12:09:15	18517	5.0.10.0	4_exp_AWA_CON_AMP_EVA	985	Rpleas_acq	Same	Rpleas	Bmasked	CS_B	2pleas	distractor2	acq_US_pleas_masked	acq1_masked	1	11	0	0	300	300	0	0	16	50	0	1	0	0	0	1	blank2r.bmp	0	1	+	0	2	B2r.bmp	492	1	blank2r.bmp	786	1	GKQX	786	1	blank2r.bmp	866	6	tolerant	866	0	0	0	0	0	0	0	0	0	0	0	0	0	0	0	0	0	0	0	0	0	0	0	0	0	0	0	0	0	0	0	0	0
120618	12:08:54	12:09:16	20010	5.0.10.0	4_exp_AWA_CON_AMP_EVA	985	Rpleas_acq	Same	Rpleas	Bmasked	CS_B	2pleas	distractor2	acq_new_unple_masked	acq1_masked	1	12	0	0	300	300	0	0	20	46	0	1	0	0	0	1	blank2r.bmp	0	1	+	0	1	B1r.bmp	492	1	blank2r.bmp	786	5	C1r.bmp	786	1	blank2r.bmp	866	2	schroff	866	0	0	0	0	0	0	0	0	0	0	0	0	0	0	0	0	0	0	0	0	0	0	0	0	0	0	0	0	0	0	0	0	0
120618	12:08:54	12:09:18	21742	5.0.10.0	4_exp_AWA_CON_AMP_EVA	985	Rpleas_acq	Same	Rpleas	Bmasked	CS_B	2pleas	distractor2	acq_new_pleas_masked	acq1_masked	1	13	0	0	300	300	0	0	57	46	0	0	0	0	0	1	blank2r.bmp	0	1	+	0	3	B3r.bmp	492	1	blank2r.bmp	786	4	B4r.bmp	786	1	blank2r.bmp	866	4	freundlich	866	1	FEHLER	959	0	0	0	0	0	0	0	0	0	0	0	0	0	0	0	0	0	0	0	0	0	0	0	0	0	0	0	0	0	0
120618	12:08:54	12:09:19	23035	5.0.10.0	4_exp_AWA_CON_AMP_EVA	985	Rpleas_acq	Same	Rpleas	Bmasked	CS_B	2pleas	distractor2	acq_US_unple_masked	acq1_masked	1	14	0	0	300	300	0	0	21	46	0	1	0	0	0	1	blank2r.bmp	0	1	+	0	5	C1r.bmp	492	1	blank2r.bmp	786	1	BMVZ	786	1	blank2r.bmp	866	1	tot	866	0	0	0	0	0	0	0	0	0	0	0	0	0	0	0	0	0	0	0	0	0	0	0	0	0	0	0	0	0	0	0	0	0
120618	12:08:54	12:09:21	24568	5.0.10.0	4_exp_AWA_CON_AMP_EVA	985	Rpleas_acq	Same	Rpleas	Bmasked	CS_B	2pleas	distractor2	acq_new_unple_masked	acq1_masked	1	15	0	0	300	300	0	0	57	46	0	1	0	0	0	1	blank2r.bmp	0	1	+	0	7	C3r.bmp	492	1	blank2r.bmp	786	6	C2r.bmp	786	1	blank2r.bmp	866	5	lasch	866	0	0	0	0	0	0	0	0	0	0	0	0	0	0	0	0	0	0	0	0	0	0	0	0	0	0	0	0	0	0	0	0	0
120618	12:08:54	12:09:22	26101	5.0.10.0	4_exp_AWA_CON_AMP_EVA	985	Rpleas_acq	Same	Rpleas	Bmasked	CS_B	2pleas	distractor2	acq_US_pleas_masked	acq1_masked	1	16	0	0	300	300	0	0	54	50	0	1	0	0	0	1	blank2r.bmp	0	1	+	0	4	B4r.bmp	492	1	blank2r.bmp	786	1	GKQX	786	1	blank2r.bmp	866	2	helfen	866	0	0	0	0	0	0	0	0	0	0	0	0	0	0	0	0	0	0	0	0	0	0	0	0	0	0	0	0	0	0	0	0	0
120618	12:08:54	12:09:24	27820	5.0.10.0	4_exp_AWA_CON_AMP_EVA	985	Rpleas_acq	Same	Rpleas	Bmasked	CS_B	2pleas	distractor2	acq_new_unple_masked	acq1_masked	1	17	0	0	300	300	0	0	34	50	0	0	0	0	0	1	blank2r.bmp	0	1	+	0	5	C1r.bmp	492	1	blank2r.bmp	786	2	B2r.bmp	786	1	blank2r.bmp	866	1	leiden	866	1	FEHLER	932	0	0	0	0	0	0	0	0	0	0	0	0	0	0	0	0	0	0	0	0	0	0	0	0	0	0	0	0	0	0
120618	12:08:54	12:09:25	29126	5.0.10.0	4_exp_AWA_CON_AMP_EVA	985	Rpleas_acq	Same	Rpleas	Bmasked	CS_B	2pleas	distractor2	acq_new_pleas_masked	acq1_masked	1	18	0	0	300	300	0	0	41	50	0	1	0	0	0	1	blank2r.bmp	0	1	+	0	3	B3r.bmp	492	1	blank2r.bmp	786	6	C2r.bmp	786	1	blank2r.bmp	866	1	lachen	866	0	0	0	0	0	0	0	0	0	0	0	0	0	0	0	0	0	0	0	0	0	0	0	0	0	0	0	0	0	0	0	0	0
120618	12:08:54	12:09:27	30845	5.0.10.0	4_exp_AWA_CON_AMP_EVA	985	Rpleas_acq	Same	Rpleas	Bmasked	CS_B	2pleas	distractor2	acq_US_unple_masked	acq1_masked	1	19	0	0	300	300	0	0	35	50	0	0	0	0	0	1	blank2r.bmp	0	1	+	0	7	C3r.bmp	492	1	blank2r.bmp	786	1	BMVZ	786	1	blank2r.bmp	866	2	hindern	866	1	FEHLER	932	0	0	0	0	0	0	0	0	0	0	0	0	0	0	0	0	0	0	0	0	0	0	0	0	0	0	0	0	0	0
120618	12:08:54	12:09:28	32138	5.0.10.0	4_exp_AWA_CON_AMP_EVA	985	Rpleas_acq	Same	Rpleas	Bmasked	CS_B	2pleas	distractor2	acq_US_pleas_masked	acq1_masked	1	20	0	0	300	300	0	0	27	50	0	1	0	0	0	1	blank2r.bmp	0	1	+	0	6	C2r.bmp	492	1	blank2r.bmp	786	1	GKQX	786	1	blank2r.bmp	866	4	ehrlich	866	0	0	0	0	0	0	0	0	0	0	0	0	0	0	0	0	0	0	0	0	0	0	0	0	0	0	0	0	0	0	0	0	0
120618	12:08:54	12:09:30	33857	5.0.10.0	4_exp_AWA_CON_AMP_EVA	985	Rpleas_acq	Same	Rpleas	Bmasked	CS_B	2pleas	distractor2	acq_new_unple_masked	acq1_masked	1	21	0	0	300	300	0	0	49	50	0	0	0	0	0	1	blank2r.bmp	0	1	+	0	8	C4r.bmp	492	1	blank2r.bmp	786	5	C1r.bmp	786	1	blank2r.bmp	866	3	schlecht	866	1	FEHLER	946	0	0	0	0	0	0	0	0	0	0	0	0	0	0	0	0	0	0	0	0	0	0	0	0	0	0	0	0	0	0
120618	12:08:54	12:09:32	35403	5.0.10.0	4_exp_AWA_CON_AMP_EVA	985	Rpleas_acq	Same	Rpleas	Bmasked	CS_B	2pleas	distractor2	acq_new_pleas_masked	acq1_masked	1	22	0	0	300	300	0	0	61	46	0	0	0	0	0	1	blank2r.bmp	0	1	+	0	2	B2r.bmp	492	1	blank2r.bmp	786	3	B3r.bmp	786	1	blank2r.bmp	866	3	schön	866	1	FEHLER	959	0	0	0	0	0	0	0	0	0	0	0	0	0	0	0	0	0	0	0	0	0	0	0	0	0	0	0	0	0	0
120618	12:08:54	12:09:33	36723	5.0.10.0	4_exp_AWA_CON_AMP_EVA	985	Rpleas_acq	Same	Rpleas	Bmasked	CS_B	2pleas	distractor2	acq_US_unple_masked	acq1_masked	1	23	0	0	300	300	0	0	41	46	0	1	0	0	0	1	blank2r.bmp	0	1	+	0	4	B4r.bmp	492	1	blank2r.bmp	786	1	BMVZ	786	1	blank2r.bmp	866	4	eitel	866	0	0	0	0	0	0	0	0	0	0	0	0	0	0	0	0	0	0	0	0	0	0	0	0	0	0	0	0	0	0	0	0	0
120618	12:08:54	12:09:34	38229	5.0.10.0	4_exp_AWA_CON_AMP_EVA	985	Rpleas_acq	Same	Rpleas	Bmasked	CS_B	2pleas	distractor2	acq_US_pleas_masked	acq1_masked	1	24	0	0	300	300	0	0	35	50	0	1	0	0	0	1	blank2r.bmp	0	1	+	0	1	B1r.bmp	492	1	blank2r.bmp	786	1	GKQX	786	1	blank2r.bmp	866	3	fair	866	0	0	0	0	0	0	0	0	0	0	0	0	0	0	0	0	0	0	0	0	0	0	0	0	0	0	0	0	0	0	0	0	0
120618	12:08:54	12:09:36	39775	5.0.10.0	4_exp_AWA_CON_AMP_EVA	985	Rpleas_acq	Same	Rpleas	Bmasked	CS_B	2pleas	distractor2	acq_new_unple_masked	acq1_masked	1	25	0	0	300	300	0	0	60	46	0	1	0	0	0	1	blank2r.bmp	0	1	+	0	6	C2r.bmp	492	1	blank2r.bmp	786	4	B4r.bmp	786	1	blank2r.bmp	866	1	leiden	866	0	0	0	0	0	0	0	0	0	0	0	0	0	0	0	0	0	0	0	0	0	0	0	0	0	0	0	0	0	0	0	0	0
120618	12:08:54	12:09:38	41494	5.0.10.0	4_exp_AWA_CON_AMP_EVA	985	Rpleas_acq	Same	Rpleas	Bmasked	CS_B	2pleas	distractor2	acq_US_unple_masked	acq1_masked	1	26	0	0	300	300	0	0	25	50	0	0	0	0	0	1	blank2r.bmp	0	1	+	0	4	B4r.bmp	492	1	blank2r.bmp	786	1	BMVZ	786	1	blank2r.bmp	866	5	strafen	866	1	FEHLER	932	0	0	0	0	0	0	0	0	0	0	0	0	0	0	0	0	0	0	0	0	0	0	0	0	0	0	0	0	0	0
120618	12:08:54	12:09:39	43000	5.0.10.0	4_exp_AWA_CON_AMP_EVA	985	Rpleas_acq	Same	Rpleas	Bmasked	CS_B	2pleas	distractor2	acq_new_unple_masked	acq1_masked	1	27	0	0	300	300	0	0	32	50	0	0	0	0	0	1	blank2r.bmp	0	1	+	0	8	C4r.bmp	492	1	blank2r.bmp	786	1	B1r.bmp	786	1	blank2r.bmp	866	3	schlecht	866	1	FEHLER	932	0	0	0	0	0	0	0	0	0	0	0	0	0	0	0	0	0	0	0	0	0	0	0	0	0	0	0	0	0	0
120618	12:08:54	12:09:40	44306	5.0.10.0	4_exp_AWA_CON_AMP_EVA	985	Rpleas_acq	Same	Rpleas	Bmasked	CS_B	2pleas	distractor2	acq_new_pleas_masked	acq1_masked	1	28	0	0	300	300	0	0	39	50	0	1	0	0	0	1	blank2r.bmp	0	1	+	0	1	B1r.bmp	492	1	blank2r.bmp	786	8	C4r.bmp	786	1	blank2r.bmp	866	2	schlau	866	0	0	0	0	0	0	0	0	0	0	0	0	0	0	0	0	0	0	0	0	0	0	0	0	0	0	0	0	0	0	0	0	0
120618	12:08:54	12:09:42	45812	5.0.10.0	4_exp_AWA_CON_AMP_EVA	985	Rpleas_acq	Same	Rpleas	Bmasked	CS_B	2pleas	distractor2	acq_US_unple_masked	acq1_masked	1	29	0	0	300	300	0	0	33	46	0	1	0	0	0	1	blank2r.bmp	0	1	+	0	3	B3r.bmp	492	1	blank2r.bmp	786	1	BMVZ	786	1	blank2r.bmp	866	6	tyrannisch	866	0	0	0	0	0	0	0	0	0	0	0	0	0	0	0	0	0	0	0	0	0	0	0	0	0	0	0	0	0	0	0	0	0
120618	12:08:54	12:09:44	47545	5.0.10.0	4_exp_AWA_CON_AMP_EVA	985	Rpleas_acq	Same	Rpleas	Bmasked	CS_B	2pleas	distractor2	acq_US_pleas_masked	acq1_masked	1	30	0	0	300	300	0	0	40	46	0	0	0	0	0	1	blank2r.bmp	0	1	+	0	5	C1r.bmp	492	1	blank2r.bmp	786	1	GKQX	786	1	blank2r.bmp	866	4	ehrlich	866	1	FEHLER	946	0	0	0	0	0	0	0	0	0	0	0	0	0	0	0	0	0	0	0	0	0	0	0	0	0	0	0	0	0	0
120618	12:08:54	12:09:45	48825	5.0.10.0	4_exp_AWA_CON_AMP_EVA	985	Rpleas_acq	Same	Rpleas	Bmasked	CS_B	2pleas	distractor2	acq_US_pleas_masked	acq1_masked	1	31	0	0	300	300	0	0	19	50	0	1	0	0	0	1	blank2r.bmp	0	1	+	0	2	B2r.bmp	492	1	blank2r.bmp	786	1	GKQX	786	1	blank2r.bmp	866	3	fair	866	0	0	0	0	0	0	0	0	0	0	0	0	0	0	0	0	0	0	0	0	0	0	0	0	0	0	0	0	0	0	0	0	0
120618	12:08:54	12:09:47	50317	5.0.10.0	4_exp_AWA_CON_AMP_EVA	985	Rpleas_acq	Same	Rpleas	Bmasked	CS_B	2pleas	distractor2	acq_US_pleas_masked	acq1_masked	1	32	0	0	300	300	0	0	24	50	0	1	0	0	0	1	blank2r.bmp	0	1	+	0	7	C3r.bmp	492	1	blank2r.bmp	786	1	GKQX	786	1	blank2r.bmp	866	5	spielen	866	0	0	0	0	0	0	0	0	0	0	0	0	0	0	0	0	0	0	0	0	0	0	0	0	0	0	0	0	0	0	0	0	0
120618	12:08:54	12:09:48	51850	5.0.10.0	4_exp_AWA_CON_AMP_EVA	985	Rpleas_acq	Same	Rpleas	Bmasked	CS_B	2pleas	distractor2	acq_US_unple_masked	acq1_masked	1	33	0	0	300	300	0	0	46	46	0	1	0	0	0	1	blank2r.bmp	0	1	+	0	7	C3r.bmp	492	1	blank2r.bmp	786	1	BMVZ	786	1	blank2r.bmp	866	4	eitel	866	0	0	0	0	0	0	0	0	0	0	0	0	0	0	0	0	0	0	0	0	0	0	0	0	0	0	0	0	0	0	0	0	0
120618	12:08:54	12:09:50	53596	5.0.10.0	4_exp_AWA_CON_AMP_EVA	985	Rpleas_acq	Same	Rpleas	Bmasked	CS_B	2pleas	distractor2	acq_new_pleas_masked	acq1_masked	1	34	0	0	300	300	0	0	56	46	0	0	0	0	0	1	blank2r.bmp	0	1	+	0	5	C1r.bmp	492	1	blank2r.bmp	786	7	C3r.bmp	786	1	blank2r.bmp	866	4	freundlich	866	1	FEHLER	959	0	0	0	0	0	0	0	0	0	0	0	0	0	0	0	0	0	0	0	0	0	0	0	0	0	0	0	0	0	0
120618	12:08:54	12:09:51	55142	5.0.10.0	4_exp_AWA_CON_AMP_EVA	985	Rpleas_acq	Same	Rpleas	Bmasked	CS_B	2pleas	distractor2	acq_new_unple_masked	acq1_masked	1	35	0	0	300	300	0	0	68	50	0	0	0	0	0	1	blank2r.bmp	0	1	+	0	3	B3r.bmp	492	1	blank2r.bmp	786	2	B2r.bmp	786	1	blank2r.bmp	866	5	lasch	866	1	FEHLER	972	0	0	0	0	0	0	0	0	0	0	0	0	0	0	0	0	0	0	0	0	0	0	0	0	0	0	0	0	0	0
120618	12:08:54	12:09:53	56648	5.0.10.0	4_exp_AWA_CON_AMP_EVA	985	Rpleas_acq	Same	Rpleas	Bmasked	CS_B	2pleas	distractor2	acq_new_pleas_masked	acq1_masked	1	36	0	0	300	300	0	0	35	46	0	0	0	0	0	1	blank2r.bmp	0	1	+	0	6	C2r.bmp	492	1	blank2r.bmp	786	7	C3r.bmp	786	1	blank2r.bmp	866	5	loyal	866	1	FEHLER	932	0	0	0	0	0	0	0	0	0	0	0	0	0	0	0	0	0	0	0	0	0	0	0	0	0	0	0	0	0	0
120618	12:08:54	12:09:57	60780	5.0.10.0	4_exp_AWA_CON_AMP_EVA	985	Rpleas_acq	Same	Rpleas	Bmasked	CS_B	2pleas	distractor2	acq_new_pleas_masked	acq2_masked	2	1	480	1	300	300	0	0	456	46	0	0	0	0	0	1	blank2r.bmp	0	1	+	0	8	C4r.bmp	492	1	blank2r.bmp	786	4	B4r.bmp	786	1	blank2r.bmp	866	6	retten	866	1	FEHLER	1679	1	!	1319	1	!	1359	0	0	0	0	0	0	0	0	0	0	0	0	0	0	0	0	0	0	0	0	0	0	0	0
120618	12:08:54	12:09:59	62925	5.0.10.0	4_exp_AWA_CON_AMP_EVA	985	Rpleas_acq	Same	Rpleas	Bmasked	CS_B	2pleas	distractor2	acq_new_unple_masked	acq2_masked	2	2	480	1	300	300	0	0	546	46	0	1	0	0	0	1	blank2r.bmp	0	1	+	0	4	B4r.bmp	492	1	blank2r.bmp	786	3	B3r.bmp	786	1	blank2r.bmp	866	2	schroff	866	1	!	1319	1	!	1452	0	0	0	0	0	0	0	0	0	0	0	0	0	0	0	0	0	0	0	0	0	0	0	0	0	0	0
120618	12:08:54	12:10:01	65151	5.0.10.0	4_exp_AWA_CON_AMP_EVA	985	Rpleas_acq	Same	Rpleas	Bmasked	CS_B	2pleas	distractor2	acq_US_unple_masked	acq2_masked	2	3	480	1	300	300	0	0	426	46	0	1	0	0	0	1	blank2r.bmp	0	1	+	0	2	B2r.bmp	492	1	blank2r.bmp	786	1	BMVZ	786	1	blank2r.bmp	866	1	tot	866	1	!	1319	1	!	1332	0	0	0	0	0	0	0	0	0	0	0	0	0	0	0	0	0	0	0	0	0	0	0	0	0	0	0
120618	12:08:54	12:10:04	67457	5.0.10.0	4_exp_AWA_CON_AMP_EVA	985	Rpleas_acq	Same	Rpleas	Bmasked	CS_B	2pleas	distractor2	acq_US_pleas_masked	acq2_masked	2	4	480	1	300	300	0	0	500	50	0	1	0	0	0	1	blank2r.bmp	0	1	+	0	1	B1r.bmp	492	1	blank2r.bmp	786	1	GKQX	786	1	blank2r.bmp	866	1	treu	866	1	!	1319	1	!	1399	0	0	0	0	0	0	0	0	0	0	0	0	0	0	0	0	0	0	0	0	0	0	0	0	0	0	0
120618	12:08:54	12:10:06	69936	5.0.10.0	4_exp_AWA_CON_AMP_EVA	985	Rpleas_acq	Same	Rpleas	Bmasked	CS_B	2pleas	distractor2	acq_new_unple_masked	acq2_masked	2	5	480	1	300	300	0	0	470	50	0	0	0	0	0	1	blank2r.bmp	0	1	+	0	6	C2r.bmp	492	1	blank2r.bmp	786	8	C4r.bmp	786	1	blank2r.bmp	866	4	fanatisch	866	1	FEHLER	1692	1	!	1319	1	!	1372	0	0	0	0	0	0	0	0	0	0	0	0	0	0	0	0	0	0	0	0	0	0	0	0
120618	12:08:54	12:10:08	72175	5.0.10.0	4_exp_AWA_CON_AMP_EVA	985	Rpleas_acq	Same	Rpleas	Bmasked	CS_B	2pleas	distractor2	acq_US_pleas_masked	acq2_masked	2	6	480	1	300	300	0	0	437	46	0	0	0	0	0	1	blank2r.bmp	0	1	+	0	7	C3r.bmp	492	1	blank2r.bmp	786	1	GKQX	786	1	blank2r.bmp	866	6	tolerant	866	1	FEHLER	1652	1	!	1319	1	!	1332	0	0	0	0	0	0	0	0	0	0	0	0	0	0	0	0	0	0	0	0	0	0	0	0
120618	12:08:54	12:10:10	74214	5.0.10.0	4_exp_AWA_CON_AMP_EVA	985	Rpleas_acq	Same	Rpleas	Bmasked	CS_B	2pleas	distractor2	acq_US_unple_masked	acq2_masked	2	7	480	1	300	300	0	0	458	46	0	1	0	0	0	1	blank2r.bmp	0	1	+	0	3	B3r.bmp	492	1	blank2r.bmp	786	1	BMVZ	786	1	blank2r.bmp	866	2	hindern	866	1	!	1319	1	!	1359	0	0	0	0	0	0	0	0	0	0	0	0	0	0	0	0	0	0	0	0	0	0	0	0	0	0	0
120618	12:08:54	12:10:13	76613	5.0.10.0	4_exp_AWA_CON_AMP_EVA	985	Rpleas_acq	Same	Rpleas	Bmasked	CS_B	2pleas	distractor2	acq_new_unple_masked	acq2_masked	2	8	480	0	300	300	0	0	405	50	0	0	0	0	0	1	blank2r.bmp	0	1	+	0	8	C4r.bmp	492	1	blank2r.bmp	786	6	C2r.bmp	786	1	blank2r.bmp	866	6	rächen	866	1	FEHLER	1612	1	!	-1	1	!	-1	0	0	0	0	0	0	0	0	0	0	0	0	0	0	0	0	0	0	0	0	0	0	0	0
120618	12:08:54	12:10:15	78919	5.0.10.0	4_exp_AWA_CON_AMP_EVA	985	Rpleas_acq	Same	Rpleas	Bmasked	CS_B	2pleas	distractor2	acq_US_pleas_masked	acq2_masked	2	9	480	1	300	300	0	0	499	46	0	0	0	0	0	1	blank2r.bmp	0	1	+	0	5	C1r.bmp	492	1	blank2r.bmp	786	1	GKQX	786	1	blank2r.bmp	866	2	helfen	866	1	FEHLER	1719	1	!	1319	1	!	1399	0	0	0	0	0	0	0	0	0	0	0	0	0	0	0	0	0	0	0	0	0	0	0	0
120618	12:08:54	12:10:17	80958	5.0.10.0	4_exp_AWA_CON_AMP_EVA	985	Rpleas_acq	Same	Rpleas	Bmasked	CS_B	2pleas	distractor2	acq_US_unple_masked	acq2_masked	2	10	480	1	300	300	0	0	453	46	0	1	0	0	0	1	blank2r.bmp	0	1	+	0	4	B4r.bmp	492	1	blank2r.bmp	786	1	BMVZ	786	1	blank2r.bmp	866	3	faul	866	1	!	1319	1	!	1359	0	0	0	0	0	0	0	0	0	0	0	0	0	0	0	0	0	0	0	0	0	0	0	0	0	0	0
120618	12:08:54	12:10:20	83357	5.0.10.0	4_exp_AWA_CON_AMP_EVA	985	Rpleas_acq	Same	Rpleas	Bmasked	CS_B	2pleas	distractor2	acq_new_pleas_masked	acq2_masked	2	11	480	0	300	300	0	0	400	46	0	0	0	0	0	1	blank2r.bmp	0	1	+	0	1	B1r.bmp	492	1	blank2r.bmp	786	5	C1r.bmp	786	1	blank2r.bmp	866	1	lachen	866	1	FEHLER	1612	1	!	-1	1	!	-1	0	0	0	0	0	0	0	0	0	0	0	0	0	0	0	0	0	0	0	0	0	0	0	0
120618	12:08:54	12:10:22	85703	5.0.10.0	4_exp_AWA_CON_AMP_EVA	985	Rpleas_acq	Same	Rpleas	Bmasked	CS_B	2pleas	distractor2	acq_new_pleas_masked	acq2_masked	2	12	480	0	300	300	0	0	570	46	0	0	0	0	0	1	blank2r.bmp	0	1	+	0	2	B2r.bmp	492	1	blank2r.bmp	786	1	B1r.bmp	786	1	blank2r.bmp	866	3	schön	866	1	FEHLER	1772	1	!	1319	1	!	-1	0	0	0	0	0	0	0	0	0	0	0	0	0	0	0	0	0	0	0	0	0	0	0	0
120618	12:08:54	12:10:24	87822	5.0.10.0	4_exp_AWA_CON_AMP_EVA	985	Rpleas_acq	Same	Rpleas	Bmasked	CS_B	2pleas	distractor2	acq_new_pleas_masked	acq2_masked	2	13	480	1	300	300	0	0	533	50	0	1	0	0	0	1	blank2r.bmp	0	1	+	0	4	B4r.bmp	492	1	blank2r.bmp	786	6	C2r.bmp	786	1	blank2r.bmp	866	6	retten	866	1	!	1319	1	!	1439	0	0	0	0	0	0	0	0	0	0	0	0	0	0	0	0	0	0	0	0	0	0	0	0	0	0	0
120618	12:08:54	12:10:26	90221	5.0.10.0	4_exp_AWA_CON_AMP_EVA	985	Rpleas_acq	Same	Rpleas	Bmasked	CS_B	2pleas	distractor2	acq_US_unple_masked	acq2_masked	2	14	480	0	300	300	0	0	400	50	0	0	0	0	0	1	blank2r.bmp	0	1	+	0	2	B2r.bmp	492	1	blank2r.bmp	786	1	BMVZ	786	1	blank2r.bmp	866	2	hindern	866	1	FEHLER	1612	1	!	-1	1	!	-1	0	0	0	0	0	0	0	0	0	0	0	0	0	0	0	0	0	0	0	0	0	0	0	0
120618	12:08:54	12:10:29	92407	5.0.10.0	4_exp_AWA_CON_AMP_EVA	985	Rpleas_acq	Same	Rpleas	Bmasked	CS_B	2pleas	distractor2	acq_new_pleas_masked	acq2_masked	2	15	480	0	300	300	0	0	399	46	0	0	0	0	0	1	blank2r.bmp	0	1	+	0	1	B1r.bmp	492	1	blank2r.bmp	786	7	C3r.bmp	786	1	blank2r.bmp	866	3	schön	866	1	FEHLER	1612	1	!	-1	1	!	-1	0	0	0	0	0	0	0	0	0	0	0	0	0	0	0	0	0	0	0	0	0	0	0	0
120618	12:08:54	12:10:31	94379	5.0.10.0	4_exp_AWA_CON_AMP_EVA	985	Rpleas_acq	Same	Rpleas	Bmasked	CS_B	2pleas	distractor2	acq_new_unple_masked	acq2_masked	2	16	480	0	300	300	0	0	412	46	0	1	0	0	0	1	blank2r.bmp	0	1	+	0	5	C1r.bmp	492	1	blank2r.bmp	786	1	B1r.bmp	786	1	blank2r.bmp	866	5	lasch	866	1	!	-1	1	!	-1	0	0	0	0	0	0	0	0	0	0	0	0	0	0	0	0	0	0	0	0	0	0	0	0	0	0	0
120618	12:08:54	12:10:33	96965	5.0.10.0	4_exp_AWA_CON_AMP_EVA	985	Rpleas_acq	Same	Rpleas	Bmasked	CS_B	2pleas	distractor2	acq_new_pleas_masked	acq2_masked	2	17	480	0	300	300	0	0	585	46	0	0	0	0	0	1	blank2r.bmp	0	1	+	0	8	C4r.bmp	492	1	blank2r.bmp	786	5	C1r.bmp	786	1	blank2r.bmp	866	4	freundlich	866	1	FEHLER	1785	1	!	1319	1	!	-1	0	0	0	0	0	0	0	0	0	0	0	0	0	0	0	0	0	0	0	0	0	0	0	0
120618	12:08:54	12:10:35	99031	5.0.10.0	4_exp_AWA_CON_AMP_EVA	985	Rpleas_acq	Same	Rpleas	Bmasked	CS_B	2pleas	distractor2	acq_US_pleas_masked	acq2_masked	2	18	480	1	300	300	0	0	487	50	0	1	0	0	0	1	blank2r.bmp	0	1	+	0	6	C2r.bmp	492	1	blank2r.bmp	786	1	GKQX	786	1	blank2r.bmp	866	2	helfen	866	1	!	1319	1	!	1386	0	0	0	0	0	0	0	0	0	0	0	0	0	0	0	0	0	0	0	0	0	0	0	0	0	0	0
120618	12:08:54	12:10:37	101296	5.0.10.0	4_exp_AWA_CON_AMP_EVA	985	Rpleas_acq	Same	Rpleas	Bmasked	CS_B	2pleas	distractor2	acq_new_unple_masked	acq2_masked	2	19	480	1	300	300	0	0	470	46	0	1	0	0	0	1	blank2r.bmp	0	1	+	0	3	B3r.bmp	492	1	blank2r.bmp	786	8	C4r.bmp	786	1	blank2r.bmp	866	4	fanatisch	866	1	!	1319	1	!	1372	0	0	0	0	0	0	0	0	0	0	0	0	0	0	0	0	0	0	0	0	0	0	0	0	0	0	0
120618	12:08:54	12:10:40	103695	5.0.10.0	4_exp_AWA_CON_AMP_EVA	985	Rpleas_acq	Same	Rpleas	Bmasked	CS_B	2pleas	distractor2	acq_US_unple_masked	acq2_masked	2	20	480	0	300	300	0	0	391	50	0	0	0	0	0	1	blank2r.bmp	0	1	+	0	7	C3r.bmp	492	1	blank2r.bmp	786	1	BMVZ	786	1	blank2r.bmp	866	5	strafen	866	1	FEHLER	1599	1	!	-1	1	!	-1	0	0	0	0	0	0	0	0	0	0	0	0	0	0	0	0	0	0	0	0	0	0	0	0
120618	12:08:54	12:10:42	105948	5.0.10.0	4_exp_AWA_CON_AMP_EVA	985	Rpleas_acq	Same	Rpleas	Bmasked	CS_B	2pleas	distractor2	acq_US_pleas_masked	acq2_masked	2	21	480	1	300	300	0	0	452	46	0	0	0	0	0	1	blank2r.bmp	0	1	+	0	6	C2r.bmp	492	1	blank2r.bmp	786	1	GKQX	786	1	blank2r.bmp	866	6	tolerant	866	1	FEHLER	1665	1	!	1319	1	!	1346	0	0	0	0	0	0	0	0	0	0	0	0	0	0	0	0	0	0	0	0	0	0	0	0
120618	12:08:54	12:10:44	108054	5.0.10.0	4_exp_AWA_CON_AMP_EVA	985	Rpleas_acq	Same	Rpleas	Bmasked	CS_B	2pleas	distractor2	acq_US_unple_masked	acq2_masked	2	22	480	1	300	300	0	0	521	46	0	1	0	0	0	1	blank2r.bmp	0	1	+	0	5	C1r.bmp	492	1	blank2r.bmp	786	1	BMVZ	786	1	blank2r.bmp	866	3	faul	866	1	!	1319	1	!	1426	0	0	0	0	0	0	0	0	0	0	0	0	0	0	0	0	0	0	0	0	0	0	0	0	0	0	0
120618	12:08:54	12:10:47	110373	5.0.10.0	4_exp_AWA_CON_AMP_EVA	985	Rpleas_acq	Same	Rpleas	Bmasked	CS_B	2pleas	distractor2	acq_new_unple_masked	acq2_masked	2	23	480	1	300	300	0	0	513	46	0	1	0	0	0	1	blank2r.bmp	0	1	+	0	1	B1r.bmp	492	1	blank2r.bmp	786	2	B2r.bmp	786	1	blank2r.bmp	866	2	schroff	866	1	!	1319	1	!	1412	0	0	0	0	0	0	0	0	0	0	0	0	0	0	0	0	0	0	0	0	0	0	0	0	0	0	0
120618	12:08:54	12:10:49	112718	5.0.10.0	4_exp_AWA_CON_AMP_EVA	985	Rpleas_acq	Same	Rpleas	Bmasked	CS_B	2pleas	distractor2	acq_US_pleas_masked	acq2_masked	2	24	480	0	300	300	0	0	579	50	0	1	0	0	0	1	blank2r.bmp	0	1	+	0	7	C3r.bmp	492	1	blank2r.bmp	786	1	GKQX	786	1	blank2r.bmp	866	3	fair	866	1	!	1319	1	!	-1	0	0	0	0	0	0	0	0	0	0	0	0	0	0	0	0	0	0	0	0	0	0	0	0	0	0	0
120618	12:08:54	12:10:51	115117	5.0.10.0	4_exp_AWA_CON_AMP_EVA	985	Rpleas_acq	Same	Rpleas	Bmasked	CS_B	2pleas	distractor2	acq_US_pleas_masked	acq2_masked	2	25	480	0	300	300	0	0	609	50	0	1	0	0	0	1	blank2r.bmp	0	1	+	0	3	B3r.bmp	492	1	blank2r.bmp	786	1	GKQX	786	1	blank2r.bmp	866	4	ehrlich	866	1	!	1319	1	!	-1	0	0	0	0	0	0	0	0	0	0	0	0	0	0	0	0	0	0	0	0	0	0	0	0	0	0	0
120618	12:08:54	12:10:54	117356	5.0.10.0	4_exp_AWA_CON_AMP_EVA	985	Rpleas_acq	Same	Rpleas	Bmasked	CS_B	2pleas	distractor2	acq_new_pleas_masked	acq2_masked	2	26	480	1	300	300	0	0	438	50	0	1	0	0	0	1	blank2r.bmp	0	1	+	0	2	B2r.bmp	492	1	blank2r.bmp	786	4	B4r.bmp	786	1	blank2r.bmp	866	1	lachen	866	1	!	1319	1	!	1332	0	0	0	0	0	0	0	0	0	0	0	0	0	0	0	0	0	0	0	0	0	0	0	0	0	0	0
120618	12:08:54	12:10:56	119809	5.0.10.0	4_exp_AWA_CON_AMP_EVA	985	Rpleas_acq	Same	Rpleas	Bmasked	CS_B	2pleas	distractor2	acq_US_unple_masked	acq2_masked	2	27	480	1	300	300	0	0	443	50	0	0	0	0	0	1	blank2r.bmp	0	1	+	0	4	B4r.bmp	492	1	blank2r.bmp	786	1	BMVZ	786	1	blank2r.bmp	866	1	tot	866	1	FEHLER	1665	1	!	1319	1	!	1346	0	0	0	0	0	0	0	0	0	0	0	0	0	0	0	0	0	0	0	0	0	0	0	0
120618	12:08:54	12:10:58	122114	5.0.10.0	4_exp_AWA_CON_AMP_EVA	985	Rpleas_acq	Same	Rpleas	Bmasked	CS_B	2pleas	distractor2	acq_new_unple_masked	acq2_masked	2	28	480	1	300	300	0	0	529	50	0	0	0	0	0	1	blank2r.bmp	0	1	+	0	8	C4r.bmp	492	1	blank2r.bmp	786	3	B3r.bmp	786	1	blank2r.bmp	866	6	rächen	866	1	FEHLER	1745	1	!	1319	1	!	1426	0	0	0	0	0	0	0	0	0	0	0	0	0	0	0	0	0	0	0	0	0	0	0	0
120618	12:08:54	12:11:00	124047	5.0.10.0	4_exp_AWA_CON_AMP_EVA	985	Rpleas_acq	Same	Rpleas	Bmasked	CS_B	2pleas	distractor2	acq_US_pleas_masked	acq2_masked	2	29	480	0	300	300	0	0	362	50	0	1	0	0	0	1	blank2r.bmp	0	1	+	0	5	C1r.bmp	492	1	blank2r.bmp	786	1	GKQX	786	1	blank2r.bmp	866	1	treu	866	1	!	-1	1	!	-1	0	0	0	0	0	0	0	0	0	0	0	0	0	0	0	0	0	0	0	0	0	0	0	0	0	0	0
120618	12:08:54	12:11:03	126393	5.0.10.0	4_exp_AWA_CON_AMP_EVA	985	Rpleas_acq	Same	Rpleas	Bmasked	CS_B	2pleas	distractor2	acq_new_unple_masked	acq2_masked	2	30	480	0	300	300	0	0	559	46	0	1	0	0	0	1	blank2r.bmp	0	1	+	0	3	B3r.bmp	492	1	blank2r.bmp	786	4	B4r.bmp	786	1	blank2r.bmp	866	3	schlecht	866	1	!	1319	1	!	-1	0	0	0	0	0	0	0	0	0	0	0	0	0	0	0	0	0	0	0	0	0	0	0	0	0	0	0
120618	12:08:54	12:11:05	128765	5.0.10.0	4_exp_AWA_CON_AMP_EVA	985	Rpleas_acq	Same	Rpleas	Bmasked	CS_B	2pleas	distractor2	acq_new_unple_masked	acq2_masked	2	31	480	0	300	300	0	0	364	50	0	0	0	0	0	1	blank2r.bmp	0	1	+	0	2	B2r.bmp	492	1	blank2r.bmp	786	6	C2r.bmp	786	1	blank2r.bmp	866	1	leiden	866	1	FEHLER	1572	1	!	-1	1	!	-1	0	0	0	0	0	0	0	0	0	0	0	0	0	0	0	0	0	0	0	0	0	0	0	0
120618	12:08:54	12:11:07	130844	5.0.10.0	4_exp_AWA_CON_AMP_EVA	985	Rpleas_acq	Same	Rpleas	Bmasked	CS_B	2pleas	distractor2	acq_US_unple_masked	acq2_masked	2	32	480	1	300	300	0	0	482	46	0	1	0	0	0	1	blank2r.bmp	0	1	+	0	8	C4r.bmp	492	1	blank2r.bmp	786	1	BMVZ	786	1	blank2r.bmp	866	4	eitel	866	1	!	1319	1	!	1386	0	0	0	0	0	0	0	0	0	0	0	0	0	0	0	0	0	0	0	0	0	0	0	0	0	0	0
120618	12:08:54	12:11:09	133097	5.0.10.0	4_exp_AWA_CON_AMP_EVA	985	Rpleas_acq	Same	Rpleas	Bmasked	CS_B	2pleas	distractor2	acq_US_pleas_masked	acq2_masked	2	33	480	1	300	300	0	0	452	50	0	1	0	0	0	1	blank2r.bmp	0	1	+	0	7	C3r.bmp	492	1	blank2r.bmp	786	1	GKQX	786	1	blank2r.bmp	866	5	spielen	866	1	!	1319	1	!	1346	0	0	0	0	0	0	0	0	0	0	0	0	0	0	0	0	0	0	0	0	0	0	0	0	0	0	0
120618	12:08:54	12:11:12	135576	5.0.10.0	4_exp_AWA_CON_AMP_EVA	985	Rpleas_acq	Same	Rpleas	Bmasked	CS_B	2pleas	distractor2	acq_new_pleas_masked	acq2_masked	2	34	480	1	300	300	0	0	475	46	0	0	0	0	0	1	blank2r.bmp	0	1	+	0	1	B1r.bmp	492	1	blank2r.bmp	786	7	C3r.bmp	786	1	blank2r.bmp	866	5	loyal	866	1	FEHLER	1692	1	!	1319	1	!	1372	0	0	0	0	0	0	0	0	0	0	0	0	0	0	0	0	0	0	0	0	0	0	0	0
120618	12:08:54	12:11:14	137815	5.0.10.0	4_exp_AWA_CON_AMP_EVA	985	Rpleas_acq	Same	Rpleas	Bmasked	CS_B	2pleas	distractor2	acq_US_unple_masked	acq2_masked	2	35	480	1	300	300	0	0	440	50	0	0	0	0	0	1	blank2r.bmp	0	1	+	0	6	C2r.bmp	492	1	blank2r.bmp	786	1	BMVZ	786	1	blank2r.bmp	866	6	tyrannisch	866	1	FEHLER	1665	1	!	1319	1	!	1346	0	0	0	0	0	0	0	0	0	0	0	0	0	0	0	0	0	0	0	0	0	0	0	0
120618	12:08:54	12:11:16	139960	5.0.10.0	4_exp_AWA_CON_AMP_EVA	985	Rpleas_acq	Same	Rpleas	Bmasked	CS_B	2pleas	distractor2	acq_new_pleas_masked	acq2_masked	2	36	480	0	300	300	0	0	369	46	0	0	0	0	0	1	blank2r.bmp	0	1	+	0	4	B4r.bmp	492	1	blank2r.bmp	786	8	C4r.bmp	786	1	blank2r.bmp	866	2	schlau	866	1	FEHLER	1572	1	!	-1	1	!	-1	0	0	0	0	0	0	0	0	0	0	0	0	0	0	0	0	0	0	0	0	0	0	0	0
120618	12:08:54	12:11:20	143892	5.0.10.0	4_exp_AWA_CON_AMP_EVA	985	Rpleas_acq	Same	Rpleas	Bmasked	CS_B	2pleas	distractor2	acq_US_unple_masked	acq3_masked	3	1	453	1	300	300	0	0	478	46	0	1	0	0	0	1	blank2r.bmp	0	1	+	0	7	C3r.bmp	492	1	blank2r.bmp	786	1	BMVZ	786	1	blank2r.bmp	866	2	hindern	866	1	!	1292	1	!	1372	0	0	0	0	0	0	0	0	0	0	0	0	0	0	0	0	0	0	0	0	0	0	0	0	0	0	0
120618	12:08:54	12:11:23	146411	5.0.10.0	4_exp_AWA_CON_AMP_EVA	985	Rpleas_acq	Same	Rpleas	Bmasked	CS_B	2pleas	distractor2	acq_US_pleas_masked	acq3_masked	3	2	453	1	300	300	0	0	505	46	0	0	0	0	0	1	blank2r.bmp	0	1	+	0	1	B1r.bmp	492	1	blank2r.bmp	786	1	GKQX	786	1	blank2r.bmp	866	6	tolerant	866	1	FEHLER	1732	1	!	1292	1	!	1412	0	0	0	0	0	0	0	0	0	0	0	0	0	0	0	0	0	0	0	0	0	0	0	0
120618	12:08:54	12:11:25	148517	5.0.10.0	4_exp_AWA_CON_AMP_EVA	985	Rpleas_acq	Same	Rpleas	Bmasked	CS_B	2pleas	distractor2	acq_US_pleas_masked	acq3_masked	3	3	453	0	300	300	0	0	321	46	0	0	0	0	0	1	blank2r.bmp	0	1	+	0	4	B4r.bmp	492	1	blank2r.bmp	786	1	GKQX	786	1	blank2r.bmp	866	3	fair	866	1	FEHLER	1532	1	!	-1	1	!	-1	0	0	0	0	0	0	0	0	0	0	0	0	0	0	0	0	0	0	0	0	0	0	0	0
120618	12:08:54	12:11:27	150529	5.0.10.0	4_exp_AWA_CON_AMP_EVA	985	Rpleas_acq	Same	Rpleas	Bmasked	CS_B	2pleas	distractor2	acq_US_unple_masked	acq3_masked	3	4	453	1	300	300	0	0	431	46	0	1	0	0	0	1	blank2r.bmp	0	1	+	0	2	B2r.bmp	492	1	blank2r.bmp	786	1	BMVZ	786	1	blank2r.bmp	866	4	eitel	866	1	!	1292	1	!	1332	0	0	0	0	0	0	0	0	0	0	0	0	0	0	0	0	0	0	0	0	0	0	0	0	0	0	0
120618	12:08:54	12:11:29	152768	5.0.10.0	4_exp_AWA_CON_AMP_EVA	985	Rpleas_acq	Same	Rpleas	Bmasked	CS_B	2pleas	distractor2	acq_US_unple_masked	acq3_masked	3	5	453	1	300	300	0	0	451	46	0	1	0	0	0	1	blank2r.bmp	0	1	+	0	6	C2r.bmp	492	1	blank2r.bmp	786	1	BMVZ	786	1	blank2r.bmp	866	5	strafen	866	1	!	1292	1	!	1346	0	0	0	0	0	0	0	0	0	0	0	0	0	0	0	0	0	0	0	0	0	0	0	0	0	0	0
120618	12:08:54	12:11:31	155207	5.0.10.0	4_exp_AWA_CON_AMP_EVA	985	Rpleas_acq	Same	Rpleas	Bmasked	CS_B	2pleas	distractor2	acq_US_pleas_masked	acq3_masked	3	6	453	1	300	300	0	0	443	46	0	0	0	0	0	1	blank2r.bmp	0	1	+	0	5	C1r.bmp	492	1	blank2r.bmp	786	1	GKQX	786	1	blank2r.bmp	866	4	ehrlich	866	1	FEHLER	1665	1	!	1292	1	!	1346	0	0	0	0	0	0	0	0	0	0	0	0	0	0	0	0	0	0	0	0	0	0	0	0
120618	12:08:54	12:11:33	157247	5.0.10.0	4_exp_AWA_CON_AMP_EVA	985	Rpleas_acq	Same	Rpleas	Bmasked	CS_B	2pleas	distractor2	acq_US_unple_masked	acq3_masked	3	7	453	1	300	300	0	0	437	46	0	1	0	0	0	1	blank2r.bmp	0	1	+	0	8	C4r.bmp	492	1	blank2r.bmp	786	1	BMVZ	786	1	blank2r.bmp	866	1	tot	866	1	!	1292	1	!	1332	0	0	0	0	0	0	0	0	0	0	0	0	0	0	0	0	0	0	0	0	0	0	0	0	0	0	0
120618	12:08:54	12:11:36	159779	5.0.10.0	4_exp_AWA_CON_AMP_EVA	985	Rpleas_acq	Same	Rpleas	Bmasked	CS_B	2pleas	distractor2	acq_US_pleas_masked	acq3_masked	3	8	453	1	300	300	0	0	520	46	0	0	0	0	0	1	blank2r.bmp	0	1	+	0	3	B3r.bmp	492	1	blank2r.bmp	786	1	GKQX	786	1	blank2r.bmp	866	2	helfen	866	1	FEHLER	1745	1	!	1292	1	!	1426	0	0	0	0	0	0	0	0	0	0	0	0	0	0	0	0	0	0	0	0	0	0	0	0
120618	12:08:54	12:11:38	161845	5.0.10.0	4_exp_AWA_CON_AMP_EVA	985	Rpleas_acq	Same	Rpleas	Bmasked	CS_B	2pleas	distractor2	acq_US_unple_masked	acq3_masked	3	9	453	1	300	300	0	0	478	46	0	1	0	0	0	1	blank2r.bmp	0	1	+	0	1	B1r.bmp	492	1	blank2r.bmp	786	1	BMVZ	786	1	blank2r.bmp	866	6	tyrannisch	866	1	!	1292	1	!	1386	0	0	0	0	0	0	0	0	0	0	0	0	0	0	0	0	0	0	0	0	0	0	0	0	0	0	0
120618	12:08:54	12:11:40	163977	5.0.10.0	4_exp_AWA_CON_AMP_EVA	985	Rpleas_acq	Same	Rpleas	Bmasked	CS_B	2pleas	distractor2	acq_US_pleas_masked	acq3_masked	3	10	453	0	300	300	0	0	368	50	0	1	0	0	0	1	blank2r.bmp	0	1	+	0	5	C1r.bmp	492	1	blank2r.bmp	786	1	GKQX	786	1	blank2r.bmp	866	5	spielen	866	1	!	-1	1	!	-1	0	0	0	0	0	0	0	0	0	0	0	0	0	0	0	0	0	0	0	0	0	0	0	0	0	0	0
120618	12:08:54	12:11:42	166296	5.0.10.0	4_exp_AWA_CON_AMP_EVA	985	Rpleas_acq	Same	Rpleas	Bmasked	CS_B	2pleas	distractor2	acq_US_pleas_masked	acq3_masked	3	11	453	0	300	300	0	0	532	50	0	1	0	0	0	1	blank2r.bmp	0	1	+	0	3	B3r.bmp	492	1	blank2r.bmp	786	1	GKQX	786	1	blank2r.bmp	866	1	treu	866	1	!	1292	1	!	-1	0	0	0	0	0	0	0	0	0	0	0	0	0	0	0	0	0	0	0	0	0	0	0	0	0	0	0
120618	12:08:54	12:11:45	168789	5.0.10.0	4_exp_AWA_CON_AMP_EVA	985	Rpleas_acq	Same	Rpleas	Bmasked	CS_B	2pleas	distractor2	acq_US_unple_masked	acq3_masked	3	12	453	1	300	300	0	0	474	50	0	0	0	0	0	1	blank2r.bmp	0	1	+	0	7	C3r.bmp	492	1	blank2r.bmp	786	1	BMVZ	786	1	blank2r.bmp	866	3	faul	866	1	FEHLER	1692	1	!	1292	1	!	1372	0	0	0	0	0	0	0	0	0	0	0	0	0	0	0	0	0	0	0	0	0	0	0	0
120618	12:08:54	12:11:47	171041	5.0.10.0	4_exp_AWA_CON_AMP_EVA	985	Rpleas_acq	Same	Rpleas	Bmasked	CS_B	2pleas	distractor2	acq_US_unple_masked	acq3_masked	3	13	453	1	300	300	0	0	454	50	0	0	0	0	0	1	blank2r.bmp	0	1	+	0	4	B4r.bmp	492	1	blank2r.bmp	786	1	BMVZ	786	1	blank2r.bmp	866	5	strafen	866	1	FEHLER	1679	1	!	1292	1	!	1359	0	0	0	0	0	0	0	0	0	0	0	0	0	0	0	0	0	0	0	0	0	0	0	0
120618	12:08:54	12:11:49	173280	5.0.10.0	4_exp_AWA_CON_AMP_EVA	985	Rpleas_acq	Same	Rpleas	Bmasked	CS_B	2pleas	distractor2	acq_US_unple_masked	acq3_masked	3	14	453	1	300	300	0	0	435	50	0	0	0	0	0	1	blank2r.bmp	0	1	+	0	2	B2r.bmp	492	1	blank2r.bmp	786	1	BMVZ	786	1	blank2r.bmp	866	4	eitel	866	1	FEHLER	1652	1	!	1292	1	!	1332	0	0	0	0	0	0	0	0	0	0	0	0	0	0	0	0	0	0	0	0	0	0	0	0
120618	12:08:54	12:11:52	175492	5.0.10.0	4_exp_AWA_CON_AMP_EVA	985	Rpleas_acq	Same	Rpleas	Bmasked	CS_B	2pleas	distractor2	acq_US_unple_masked	acq3_masked	3	15	453	1	300	300	0	0	424	50	0	0	0	0	0	1	blank2r.bmp	0	1	+	0	6	C2r.bmp	492	1	blank2r.bmp	786	1	BMVZ	786	1	blank2r.bmp	866	1	tot	866	1	FEHLER	1639	1	!	1292	1	!	1319	0	0	0	0	0	0	0	0	0	0	0	0	0	0	0	0	0	0	0	0	0	0	0	0
120618	12:08:54	12:11:54	177478	5.0.10.0	4_exp_AWA_CON_AMP_EVA	985	Rpleas_acq	Same	Rpleas	Bmasked	CS_B	2pleas	distractor2	acq_US_pleas_masked	acq3_masked	3	16	453	1	300	300	0	0	399	50	0	1	0	0	0	1	blank2r.bmp	0	1	+	0	8	C4r.bmp	492	1	blank2r.bmp	786	1	GKQX	786	1	blank2r.bmp	866	6	tolerant	866	1	!	1292	1	!	1306	0	0	0	0	0	0	0	0	0	0	0	0	0	0	0	0	0	0	0	0	0	0	0	0	0	0	0
120618	12:08:54	12:11:56	179784	5.0.10.0	4_exp_AWA_CON_AMP_EVA	985	Rpleas_acq	Same	Rpleas	Bmasked	CS_B	2pleas	distractor2	acq_US_pleas_masked	acq3_masked	3	17	453	0	300	300	0	0	538	50	0	1	0	0	0	1	blank2r.bmp	0	1	+	0	2	B2r.bmp	492	1	blank2r.bmp	786	1	GKQX	786	1	blank2r.bmp	866	5	spielen	866	1	!	1292	1	!	-1	0	0	0	0	0	0	0	0	0	0	0	0	0	0	0	0	0	0	0	0	0	0	0	0	0	0	0
120618	12:08:54	12:11:58	182156	5.0.10.0	4_exp_AWA_CON_AMP_EVA	985	Rpleas_acq	Same	Rpleas	Bmasked	CS_B	2pleas	distractor2	acq_US_unple_masked	acq3_masked	3	18	453	0	300	300	0	0	576	46	0	1	0	0	0	1	blank2r.bmp	0	1	+	0	7	C3r.bmp	492	1	blank2r.bmp	786	1	BMVZ	786	1	blank2r.bmp	866	2	hindern	866	1	!	1292	1	!	-1	0	0	0	0	0	0	0	0	0	0	0	0	0	0	0	0	0	0	0	0	0	0	0	0	0	0	0
120618	12:08:54	12:12:01	184689	5.0.10.0	4_exp_AWA_CON_AMP_EVA	985	Rpleas_acq	Same	Rpleas	Bmasked	CS_B	2pleas	distractor2	acq_US_pleas_masked	acq3_masked	3	19	453	1	300	300	0	0	510	46	0	0	0	0	0	1	blank2r.bmp	0	1	+	0	1	B1r.bmp	492	1	blank2r.bmp	786	1	GKQX	786	1	blank2r.bmp	866	4	ehrlich	866	1	FEHLER	1732	1	!	1292	1	!	1412	0	0	0	0	0	0	0	0	0	0	0	0	0	0	0	0	0	0	0	0	0	0	0	0
120618	12:08:54	12:12:03	186621	5.0.10.0	4_exp_AWA_CON_AMP_EVA	985	Rpleas_acq	Same	Rpleas	Bmasked	CS_B	2pleas	distractor2	acq_US_unple_masked	acq3_masked	3	20	453	0	300	300	0	0	359	46	0	1	0	0	0	1	blank2r.bmp	0	1	+	0	8	C4r.bmp	492	1	blank2r.bmp	786	1	BMVZ	786	1	blank2r.bmp	866	3	faul	866	1	!	-1	1	!	-1	0	0	0	0	0	0	0	0	0	0	0	0	0	0	0	0	0	0	0	0	0	0	0	0	0	0	0
120618	12:08:54	12:12:05	188954	5.0.10.0	4_exp_AWA_CON_AMP_EVA	985	Rpleas_acq	Same	Rpleas	Bmasked	CS_B	2pleas	distractor2	acq_US_pleas_masked	acq3_masked	3	21	453	0	300	300	0	0	319	46	0	0	0	0	0	1	blank2r.bmp	0	1	+	0	3	B3r.bmp	492	1	blank2r.bmp	786	1	GKQX	786	1	blank2r.bmp	866	2	helfen	866	1	FEHLER	1532	1	!	-1	1	!	-1	0	0	0	0	0	0	0	0	0	0	0	0	0	0	0	0	0	0	0	0	0	0	0	0
120618	12:08:54	12:12:07	191099	5.0.10.0	4_exp_AWA_CON_AMP_EVA	985	Rpleas_acq	Same	Rpleas	Bmasked	CS_B	2pleas	distractor2	acq_US_pleas_masked	acq3_masked	3	22	453	0	300	300	0	0	366	46	0	0	0	0	0	1	blank2r.bmp	0	1	+	0	6	C2r.bmp	492	1	blank2r.bmp	786	1	GKQX	786	1	blank2r.bmp	866	1	treu	866	1	FEHLER	1572	1	!	-1	1	!	-1	0	0	0	0	0	0	0	0	0	0	0	0	0	0	0	0	0	0	0	0	0	0	0	0
120618	12:08:54	12:12:10	193378	5.0.10.0	4_exp_AWA_CON_AMP_EVA	985	Rpleas_acq	Same	Rpleas	Bmasked	CS_B	2pleas	distractor2	acq_US_pleas_masked	acq3_masked	3	23	453	1	300	300	0	0	483	46	0	0	0	0	0	1	blank2r.bmp	0	1	+	0	5	C1r.bmp	492	1	blank2r.bmp	786	1	GKQX	786	1	blank2r.bmp	866	3	fair	866	1	FEHLER	1705	1	!	1292	1	!	1386	0	0	0	0	0	0	0	0	0	0	0	0	0	0	0	0	0	0	0	0	0	0	0	0
120618	12:08:54	12:12:12	195538	5.0.10.0	4_exp_AWA_CON_AMP_EVA	985	Rpleas_acq	Same	Rpleas	Bmasked	CS_B	2pleas	distractor2	acq_US_unple_masked	acq3_masked	3	24	453	0	300	300	0	0	359	50	0	0	0	0	0	1	blank2r.bmp	0	1	+	0	4	B4r.bmp	492	1	blank2r.bmp	786	1	BMVZ	786	1	blank2r.bmp	866	6	tyrannisch	866	1	FEHLER	1572	1	!	-1	1	!	-1	0	0	0	0	0	0	0	0	0	0	0	0	0	0	0	0	0	0	0	0	0	0	0	0
120618	12:08:54	12:12:14	197670	5.0.10.0	4_exp_AWA_CON_AMP_EVA	985	Rpleas_acq	Same	Rpleas	Bmasked	CS_B	2pleas	distractor2	acq_US_unple_masked	acq3_masked	3	25	453	0	300	300	0	0	350	50	0	0	0	0	0	1	blank2r.bmp	0	1	+	0	3	B3r.bmp	492	1	blank2r.bmp	786	1	BMVZ	786	1	blank2r.bmp	866	6	tyrannisch	866	1	FEHLER	1559	1	!	-1	1	!	-1	0	0	0	0	0	0	0	0	0	0	0	0	0	0	0	0	0	0	0	0	0	0	0	0
120618	12:08:54	12:12:16	199696	5.0.10.0	4_exp_AWA_CON_AMP_EVA	985	Rpleas_acq	Same	Rpleas	Bmasked	CS_B	2pleas	distractor2	acq_US_unple_masked	acq3_masked	3	26	453	1	300	300	0	0	435	46	0	1	0	0	0	1	blank2r.bmp	0	1	+	0	1	B1r.bmp	492	1	blank2r.bmp	786	1	BMVZ	786	1	blank2r.bmp	866	2	hindern	866	1	!	1292	1	!	1332	0	0	0	0	0	0	0	0	0	0	0	0	0	0	0	0	0	0	0	0	0	0	0	0	0	0	0
120618	12:08:54	12:12:18	201988	5.0.10.0	4_exp_AWA_CON_AMP_EVA	985	Rpleas_acq	Same	Rpleas	Bmasked	CS_B	2pleas	distractor2	acq_US_unple_masked	acq3_masked	3	27	453	1	300	300	0	0	502	46	0	1	0	0	0	1	blank2r.bmp	0	1	+	0	5	C1r.bmp	492	1	blank2r.bmp	786	1	BMVZ	786	1	blank2r.bmp	866	1	tot	866	1	!	1292	1	!	1399	0	0	0	0	0	0	0	0	0	0	0	0	0	0	0	0	0	0	0	0	0	0	0	0	0	0	0
120618	12:08:54	12:12:20	204267	5.0.10.0	4_exp_AWA_CON_AMP_EVA	985	Rpleas_acq	Same	Rpleas	Bmasked	CS_B	2pleas	distractor2	acq_US_pleas_masked	acq3_masked	3	28	453	1	300	300	0	0	488	50	0	1	0	0	0	1	blank2r.bmp	0	1	+	0	8	C4r.bmp	492	1	blank2r.bmp	786	1	GKQX	786	1	blank2r.bmp	866	2	helfen	866	1	!	1292	1	!	1386	0	0	0	0	0	0	0	0	0	0	0	0	0	0	0	0	0	0	0	0	0	0	0	0	0	0	0
120618	12:08:54	12:12:23	206626	5.0.10.0	4_exp_AWA_CON_AMP_EVA	985	Rpleas_acq	Same	Rpleas	Bmasked	CS_B	2pleas	distractor2	acq_US_pleas_masked	acq3_masked	3	29	453	0	300	300	0	0	361	46	0	0	0	0	0	1	blank2r.bmp	0	1	+	0	4	B4r.bmp	492	1	blank2r.bmp	786	1	GKQX	786	1	blank2r.bmp	866	6	tolerant	866	1	FEHLER	1572	1	!	-1	1	!	-1	0	0	0	0	0	0	0	0	0	0	0	0	0	0	0	0	0	0	0	0	0	0	0	0
120618	12:08:54	12:12:25	209012	5.0.10.0	4_exp_AWA_CON_AMP_EVA	985	Rpleas_acq	Same	Rpleas	Bmasked	CS_B	2pleas	distractor2	acq_US_pleas_masked	acq3_masked	3	30	453	0	300	300	0	0	603	46	0	0	0	0	0	1	blank2r.bmp	0	1	+	0	2	B2r.bmp	492	1	blank2r.bmp	786	1	GKQX	786	1	blank2r.bmp	866	1	treu	866	1	FEHLER	1812	1	!	1292	1	!	-1	0	0	0	0	0	0	0	0	0	0	0	0	0	0	0	0	0	0	0	0	0	0	0	0
120618	12:08:54	12:12:28	211331	5.0.10.0	4_exp_AWA_CON_AMP_EVA	985	Rpleas_acq	Same	Rpleas	Bmasked	CS_B	2pleas	distractor2	acq_US_pleas_masked	acq3_masked	3	31	453	0	300	300	0	0	532	46	0	0	0	0	0	1	blank2r.bmp	0	1	+	0	7	C3r.bmp	492	1	blank2r.bmp	786	1	GKQX	786	1	blank2r.bmp	866	3	fair	866	1	FEHLER	1745	1	!	1292	1	!	-1	0	0	0	0	0	0	0	0	0	0	0	0	0	0	0	0	0	0	0	0	0	0	0	0
120618	12:08:54	12:12:30	213583	5.0.10.0	4_exp_AWA_CON_AMP_EVA	985	Rpleas_acq	Same	Rpleas	Bmasked	CS_B	2pleas	distractor2	acq_US_pleas_masked	acq3_masked	3	32	453	1	300	300	0	0	453	46	0	0	0	0	0	1	blank2r.bmp	0	1	+	0	6	C2r.bmp	492	1	blank2r.bmp	786	1	GKQX	786	1	blank2r.bmp	866	4	ehrlich	866	1	FEHLER	1679	1	!	1292	1	!	1359	0	0	0	0	0	0	0	0	0	0	0	0	0	0	0	0	0	0	0	0	0	0	0	0
120618	12:08:54	12:12:32	215783	5.0.10.0	4_exp_AWA_CON_AMP_EVA	985	Rpleas_acq	Same	Rpleas	Bmasked	CS_B	2pleas	distractor2	acq_US_unple_masked	acq3_masked	3	33	453	1	300	300	0	0	400	50	0	0	0	0	0	1	blank2r.bmp	0	1	+	0	2	B2r.bmp	492	1	blank2r.bmp	786	1	BMVZ	786	1	blank2r.bmp	866	5	strafen	866	1	FEHLER	1625	1	!	1292	1	!	1306	0	0	0	0	0	0	0	0	0	0	0	0	0	0	0	0	0	0	0	0	0	0	0	0
120618	12:08:54	12:12:34	217888	5.0.10.0	4_exp_AWA_CON_AMP_EVA	985	Rpleas_acq	Same	Rpleas	Bmasked	CS_B	2pleas	distractor2	acq_US_unple_masked	acq3_masked	3	34	453	0	300	300	0	0	556	46	0	1	0	0	0	1	blank2r.bmp	0	1	+	0	4	B4r.bmp	492	1	blank2r.bmp	786	1	BMVZ	786	1	blank2r.bmp	866	3	faul	866	1	!	1292	1	!	-1	0	0	0	0	0	0	0	0	0	0	0	0	0	0	0	0	0	0	0	0	0	0	0	0	0	0	0
120618	12:08:54	12:12:36	220194	5.0.10.0	4_exp_AWA_CON_AMP_EVA	985	Rpleas_acq	Same	Rpleas	Bmasked	CS_B	2pleas	distractor2	acq_US_unple_masked	acq3_masked	3	35	453	1	300	300	0	0	502	46	0	1	0	0	0	1	blank2r.bmp	0	1	+	0	8	C4r.bmp	492	1	blank2r.bmp	786	1	BMVZ	786	1	blank2r.bmp	866	4	eitel	866	1	!	1292	1	!	1399	0	0	0	0	0	0	0	0	0	0	0	0	0	0	0	0	0	0	0	0	0	0	0	0	0	0	0
120618	12:08:54	12:12:39	222406	5.0.10.0	4_exp_AWA_CON_AMP_EVA	985	Rpleas_acq	Same	Rpleas	Bmasked	CS_B	2pleas	distractor2	acq_US_pleas_masked	acq3_masked	3	36	453	1	300	300	0	0	424	50	0	1	0	0	0	1	blank2r.bmp	0	1	+	0	5	C1r.bmp	492	1	blank2r.bmp	786	1	GKQX	786	1	blank2r.bmp	866	5	spielen	866	1	!	1292	1	!	1319	0	0	0	0	0	0	0	0	0	0	0	0	0	0	0	0	0	0	0	0	0	0	0	0	0	0	0
120618	12:08:54	12:12:43	226525	5.0.10.0	4_exp_AWA_CON_AMP_EVA	985	Rpleas_acq	Same	Rpleas	Bmasked	CS_B	2pleas	distractor2	acq_US_pleas_masked	acq45_masked	4	1	400	0	300	300	0	0	520	50	0	1	0	0	0	1	blank2r.bmp	0	1	+	0	6	C2r.bmp	492	1	blank2r.bmp	786	1	GKQX	786	1	blank2r.bmp	866	6	tolerant	866	1	!	1239	1	!	-1	0	0	0	0	0	0	0	0	0	0	0	0	0	0	0	0	0	0	0	0	0	0	0	0	0	0	0
120618	12:08:54	12:12:45	228631	5.0.10.0	4_exp_AWA_CON_AMP_EVA	985	Rpleas_acq	Same	Rpleas	Bmasked	CS_B	2pleas	distractor2	acq_US_unple_masked	acq45_masked	4	2	400	0	300	300	0	0	320	50	0	0	0	0	0	1	blank2r.bmp	0	1	+	0	1	B1r.bmp	492	1	blank2r.bmp	786	1	BMVZ	786	1	blank2r.bmp	866	2	hindern	866	1	!	-1	1	!	-1	0	0	0	0	0	0	0	0	0	0	0	0	0	0	0	0	0	0	0	0	0	0	0	0	0	0	0
120618	12:08:54	12:12:47	230870	5.0.10.0	4_exp_AWA_CON_AMP_EVA	985	Rpleas_acq	Same	Rpleas	Bmasked	CS_B	2pleas	distractor2	acq_US_pleas_masked	acq45_masked	4	3	400	1	300	300	0	0	430	50	0	1	0	0	0	1	blank2r.bmp	0	1	+	0	3	B3r.bmp	492	1	blank2r.bmp	786	1	GKQX	786	1	blank2r.bmp	866	2	helfen	866	1	!	1239	1	!	1332	0	0	0	0	0	0	0	0	0	0	0	0	0	0	0	0	0	0	0	0	0	0	0	0	0	0	0
120618	12:08:54	12:12:49	233029	5.0.10.0	4_exp_AWA_CON_AMP_EVA	985	Rpleas_acq	Same	Rpleas	Bmasked	CS_B	2pleas	distractor2	acq_US_unple_masked	acq45_masked	4	4	400	1	300	300	0	0	346	50	0	0	0	0	0	1	blank2r.bmp	0	1	+	0	7	C3r.bmp	492	1	blank2r.bmp	786	1	BMVZ	786	1	blank2r.bmp	866	6	tyrannisch	866	1	!	1239	1	!	1252	0	0	0	0	0	0	0	0	0	0	0	0	0	0	0	0	0	0	0	0	0	0	0	0	0	0	0
120618	12:08:54	12:12:51	235214	5.0.10.0	4_exp_AWA_CON_AMP_EVA	985	Rpleas_acq	Same	Rpleas	Bmasked	CS_B	2pleas	distractor2	acq_US_unple_masked	acq45_masked	4	5	400	1	300	300	0	0	397	46	0	1	0	0	0	1	blank2r.bmp	0	1	+	0	3	B3r.bmp	492	1	blank2r.bmp	786	1	BMVZ	786	1	blank2r.bmp	866	4	eitel	866	1	!	1239	1	!	1292	0	0	0	0	0	0	0	0	0	0	0	0	0	0	0	0	0	0	0	0	0	0	0	0	0	0	0
120618	12:08:54	12:12:54	237467	5.0.10.0	4_exp_AWA_CON_AMP_EVA	985	Rpleas_acq	Same	Rpleas	Bmasked	CS_B	2pleas	distractor2	acq_US_unple_masked	acq45_masked	4	6	400	0	300	300	0	0	489	46	0	1	0	0	0	1	blank2r.bmp	0	1	+	0	1	B1r.bmp	492	1	blank2r.bmp	786	1	BMVZ	786	1	blank2r.bmp	866	1	tot	866	1	!	1239	1	!	-1	0	0	0	0	0	0	0	0	0	0	0	0	0	0	0	0	0	0	0	0	0	0	0	0	0	0	0
120618	12:08:54	12:12:56	239679	5.0.10.0	4_exp_AWA_CON_AMP_EVA	985	Rpleas_acq	Same	Rpleas	Bmasked	CS_B	2pleas	distractor2	acq_US_pleas_masked	acq45_masked	4	7	400	1	300	300	0	0	407	46	0	0	0	0	0	1	blank2r.bmp	0	1	+	0	7	C3r.bmp	492	1	blank2r.bmp	786	1	GKQX	786	1	blank2r.bmp	866	1	treu	866	1	!	1239	1	!	1306	0	0	0	0	0	0	0	0	0	0	0	0	0	0	0	0	0	0	0	0	0	0	0	0	0	0	0
120618	12:08:54	12:12:58	241932	5.0.10.0	4_exp_AWA_CON_AMP_EVA	985	Rpleas_acq	Same	Rpleas	Bmasked	CS_B	2pleas	distractor2	acq_US_unple_masked	acq45_masked	4	8	400	0	300	300	0	0	486	50	0	0	0	0	0	1	blank2r.bmp	0	1	+	0	6	C2r.bmp	492	1	blank2r.bmp	786	1	BMVZ	786	1	blank2r.bmp	866	5	strafen	866	1	!	1239	1	!	-1	0	0	0	0	0	0	0	0	0	0	0	0	0	0	0	0	0	0	0	0	0	0	0	0	0	0	0
120618	12:08:54	12:13:00	244171	5.0.10.0	4_exp_AWA_CON_AMP_EVA	985	Rpleas_acq	Same	Rpleas	Bmasked	CS_B	2pleas	distractor2	acq_US_pleas_masked	acq45_masked	4	9	400	1	300	300	0	0	435	46	0	0	0	0	0	1	blank2r.bmp	0	1	+	0	4	B4r.bmp	492	1	blank2r.bmp	786	1	GKQX	786	1	blank2r.bmp	866	4	ehrlich	866	1	!	1239	1	!	1332	0	0	0	0	0	0	0	0	0	0	0	0	0	0	0	0	0	0	0	0	0	0	0	0	0	0	0
120618	12:08:54	12:13:03	246343	5.0.10.0	4_exp_AWA_CON_AMP_EVA	985	Rpleas_acq	Same	Rpleas	Bmasked	CS_B	2pleas	distractor2	acq_US_pleas_masked	acq45_masked	4	10	400	1	300	300	0	0	378	46	0	0	0	0	0	1	blank2r.bmp	0	1	+	0	2	B2r.bmp	492	1	blank2r.bmp	786	1	GKQX	786	1	blank2r.bmp	866	5	spielen	866	1	!	1239	1	!	1279	0	0	0	0	0	0	0	0	0	0	0	0	0	0	0	0	0	0	0	0	0	0	0	0	0	0	0
120618	12:08:54	12:13:05	248489	5.0.10.0	4_exp_AWA_CON_AMP_EVA	985	Rpleas_acq	Same	Rpleas	Bmasked	CS_B	2pleas	distractor2	acq_US_unple_masked	acq45_masked	4	11	400	1	300	300	0	0	346	46	0	1	0	0	0	1	blank2r.bmp	0	1	+	0	5	C1r.bmp	492	1	blank2r.bmp	786	1	BMVZ	786	1	blank2r.bmp	866	3	faul	866	1	!	1239	1	!	1252	0	0	0	0	0	0	0	0	0	0	0	0	0	0	0	0	0	0	0	0	0	0	0	0	0	0	0
120618	12:08:54	12:13:07	250648	5.0.10.0	4_exp_AWA_CON_AMP_EVA	985	Rpleas_acq	Same	Rpleas	Bmasked	CS_B	2pleas	distractor2	acq_US_pleas_masked	acq45_masked	4	12	400	1	300	300	0	0	365	46	0	0	0	0	0	1	blank2r.bmp	0	1	+	0	8	C4r.bmp	492	1	blank2r.bmp	786	1	GKQX	786	1	blank2r.bmp	866	3	fair	866	1	!	1239	1	!	1266	0	0	0	0	0	0	0	0	0	0	0	0	0	0	0	0	0	0	0	0	0	0	0	0	0	0	0
120618	12:08:54	12:13:09	252647	5.0.10.0	4_exp_AWA_CON_AMP_EVA	985	Rpleas_acq	Same	Rpleas	Bmasked	CS_B	2pleas	distractor2	acq_US_unple_masked	acq45_masked	4	13	400	0	300	300	0	0	234	50	0	0	0	0	0	1	blank2r.bmp	0	1	+	0	2	B2r.bmp	492	1	blank2r.bmp	786	1	BMVZ	786	1	blank2r.bmp	866	2	hindern	866	1	!	-1	1	!	-1	0	0	0	0	0	0	0	0	0	0	0	0	0	0	0	0	0	0	0	0	0	0	0	0	0	0	0
120618	12:08:54	12:13:11	254873	5.0.10.0	4_exp_AWA_CON_AMP_EVA	985	Rpleas_acq	Same	Rpleas	Bmasked	CS_B	2pleas	distractor2	acq_US_pleas_masked	acq45_masked	4	14	400	1	300	300	0	0	421	46	0	0	0	0	0	1	blank2r.bmp	0	1	+	0	6	C2r.bmp	492	1	blank2r.bmp	786	1	GKQX	786	1	blank2r.bmp	866	1	treu	866	1	!	1239	1	!	1319	0	0	0	0	0	0	0	0	0	0	0	0	0	0	0	0	0	0	0	0	0	0	0	0	0	0	0
120618	12:08:54	12:13:13	257112	5.0.10.0	4_exp_AWA_CON_AMP_EVA	985	Rpleas_acq	Same	Rpleas	Bmasked	CS_B	2pleas	distractor2	acq_US_unple_masked	acq45_masked	4	15	400	1	300	300	0	0	440	50	0	0	0	0	0	1	blank2r.bmp	0	1	+	0	7	C3r.bmp	492	1	blank2r.bmp	786	1	BMVZ	786	1	blank2r.bmp	866	1	tot	866	1	!	1239	1	!	1346	0	0	0	0	0	0	0	0	0	0	0	0	0	0	0	0	0	0	0	0	0	0	0	0	0	0	0
120618	12:08:54	12:13:16	259351	5.0.10.0	4_exp_AWA_CON_AMP_EVA	985	Rpleas_acq	Same	Rpleas	Bmasked	CS_B	2pleas	distractor2	acq_US_pleas_masked	acq45_masked	4	16	400	1	300	300	0	0	447	50	0	1	0	0	0	1	blank2r.bmp	0	1	+	0	4	B4r.bmp	492	1	blank2r.bmp	786	1	GKQX	786	1	blank2r.bmp	866	3	fair	866	1	!	1239	1	!	1346	0	0	0	0	0	0	0	0	0	0	0	0	0	0	0	0	0	0	0	0	0	0	0	0	0	0	0
120618	12:08:54	12:13:18	261604	5.0.10.0	4_exp_AWA_CON_AMP_EVA	985	Rpleas_acq	Same	Rpleas	Bmasked	CS_B	2pleas	distractor2	acq_US_unple_masked	acq45_masked	4	17	400	1	300	300	0	0	454	50	0	0	0	0	0	1	blank2r.bmp	0	1	+	0	5	C1r.bmp	492	1	blank2r.bmp	786	1	BMVZ	786	1	blank2r.bmp	866	5	strafen	866	1	!	1239	1	!	1359	0	0	0	0	0	0	0	0	0	0	0	0	0	0	0	0	0	0	0	0	0	0	0	0	0	0	0
120618	12:08:54	12:13:20	263696	5.0.10.0	4_exp_AWA_CON_AMP_EVA	985	Rpleas_acq	Same	Rpleas	Bmasked	CS_B	2pleas	distractor2	acq_US_pleas_masked	acq45_masked	4	18	400	0	300	300	0	0	310	50	0	1	0	0	0	1	blank2r.bmp	0	1	+	0	8	C4r.bmp	492	1	blank2r.bmp	786	1	GKQX	786	1	blank2r.bmp	866	5	spielen	866	1	!	-1	1	!	-1	0	0	0	0	0	0	0	0	0	0	0	0	0	0	0	0	0	0	0	0	0	0	0	0	0	0	0
120618	12:08:54	12:13:22	265869	5.0.10.0	4_exp_AWA_CON_AMP_EVA	985	Rpleas_acq	Same	Rpleas	Bmasked	CS_B	2pleas	distractor2	acq_US_pleas_masked	acq45_masked	4	19	400	1	300	300	0	0	346	50	0	1	0	0	0	1	blank2r.bmp	0	1	+	0	3	B3r.bmp	492	1	blank2r.bmp	786	1	GKQX	786	1	blank2r.bmp	866	6	tolerant	866	1	!	1239	1	!	1252	0	0	0	0	0	0	0	0	0	0	0	0	0	0	0	0	0	0	0	0	0	0	0	0	0	0	0
120618	12:08:54	12:13:24	268068	5.0.10.0	4_exp_AWA_CON_AMP_EVA	985	Rpleas_acq	Same	Rpleas	Bmasked	CS_B	2pleas	distractor2	acq_US_pleas_masked	acq45_masked	4	20	400	1	300	300	0	0	411	46	0	0	0	0	0	1	blank2r.bmp	0	1	+	0	1	B1r.bmp	492	1	blank2r.bmp	786	1	GKQX	786	1	blank2r.bmp	866	4	ehrlich	866	1	!	1239	1	!	1306	0	0	0	0	0	0	0	0	0	0	0	0	0	0	0	0	0	0	0	0	0	0	0	0	0	0	0
120618	12:08:54	12:13:26	270227	5.0.10.0	4_exp_AWA_CON_AMP_EVA	985	Rpleas_acq	Same	Rpleas	Bmasked	CS_B	2pleas	distractor2	acq_US_unple_masked	acq45_masked	4	21	400	1	300	300	0	0	365	46	0	1	0	0	0	1	blank2r.bmp	0	1	+	0	3	B3r.bmp	492	1	blank2r.bmp	786	1	BMVZ	786	1	blank2r.bmp	866	4	eitel	866	1	!	1239	1	!	1266	0	0	0	0	0	0	0	0	0	0	0	0	0	0	0	0	0	0	0	0	0	0	0	0	0	0	0
120618	12:08:54	12:13:29	272466	5.0.10.0	4_exp_AWA_CON_AMP_EVA	985	Rpleas_acq	Same	Rpleas	Bmasked	CS_B	2pleas	distractor2	acq_US_pleas_masked	acq45_masked	4	22	400	1	300	300	0	0	452	50	0	1	0	0	0	1	blank2r.bmp	0	1	+	0	6	C2r.bmp	492	1	blank2r.bmp	786	1	GKQX	786	1	blank2r.bmp	866	2	helfen	866	1	!	1239	1	!	1346	0	0	0	0	0	0	0	0	0	0	0	0	0	0	0	0	0	0	0	0	0	0	0	0	0	0	0
120618	12:08:54	12:13:31	274772	5.0.10.0	4_exp_AWA_CON_AMP_EVA	985	Rpleas_acq	Same	Rpleas	Bmasked	CS_B	2pleas	distractor2	acq_US_unple_masked	acq45_masked	4	23	400	0	300	300	0	0	537	46	0	1	0	0	0	1	blank2r.bmp	0	1	+	0	4	B4r.bmp	492	1	blank2r.bmp	786	1	BMVZ	786	1	blank2r.bmp	866	6	tyrannisch	866	1	!	1239	1	!	-1	0	0	0	0	0	0	0	0	0	0	0	0	0	0	0	0	0	0	0	0	0	0	0	0	0	0	0
120618	12:08:54	12:13:33	276971	5.0.10.0	4_exp_AWA_CON_AMP_EVA	985	Rpleas_acq	Same	Rpleas	Bmasked	CS_B	2pleas	distractor2	acq_US_unple_masked	acq45_masked	4	24	400	1	300	300	0	0	373	50	0	0	0	0	0	1	blank2r.bmp	0	1	+	0	1	B1r.bmp	492	1	blank2r.bmp	786	1	BMVZ	786	1	blank2r.bmp	866	3	faul	866	1	!	1239	1	!	1279	0	0	0	0	0	0	0	0	0	0	0	0	0	0	0	0	0	0	0	0	0	0	0	0	0	0	0
120618	12:08:54	12:13:35	279250	5.0.10.0	4_exp_AWA_CON_AMP_EVA	985	Rpleas_acq	Same	Rpleas	Bmasked	CS_B	2pleas	distractor2	acq_US_pleas_masked	acq45_masked	4	25	400	0	300	300	0	0	509	46	0	0	0	0	0	1	blank2r.bmp	0	1	+	0	5	C1r.bmp	492	1	blank2r.bmp	786	1	GKQX	786	1	blank2r.bmp	866	4	ehrlich	866	1	!	1239	1	!	-1	0	0	0	0	0	0	0	0	0	0	0	0	0	0	0	0	0	0	0	0	0	0	0	0	0	0	0
120618	12:08:54	12:13:38	281409	5.0.10.0	4_exp_AWA_CON_AMP_EVA	985	Rpleas_acq	Same	Rpleas	Bmasked	CS_B	2pleas	distractor2	acq_US_pleas_masked	acq45_masked	4	26	400	1	300	300	0	0	346	50	0	1	0	0	0	1	blank2r.bmp	0	1	+	0	7	C3r.bmp	492	1	blank2r.bmp	786	1	GKQX	786	1	blank2r.bmp	866	1	treu	866	1	!	1239	1	!	1252	0	0	0	0	0	0	0	0	0	0	0	0	0	0	0	0	0	0	0	0	0	0	0	0	0	0	0
120618	12:08:54	12:13:40	283408	5.0.10.0	4_exp_AWA_CON_AMP_EVA	985	Rpleas_acq	Same	Rpleas	Bmasked	CS_B	2pleas	distractor2	acq_US_unple_masked	acq45_masked	4	27	400	0	300	300	0	0	236	46	0	1	0	0	0	1	blank2r.bmp	0	1	+	0	2	B2r.bmp	492	1	blank2r.bmp	786	1	BMVZ	786	1	blank2r.bmp	866	1	tot	866	1	!	-1	1	!	-1	0	0	0	0	0	0	0	0	0	0	0	0	0	0	0	0	0	0	0	0	0	0	0	0	0	0	0
120618	12:08:54	12:13:42	285580	5.0.10.0	4_exp_AWA_CON_AMP_EVA	985	Rpleas_acq	Same	Rpleas	Bmasked	CS_B	2pleas	distractor2	acq_US_pleas_masked	acq45_masked	4	28	400	1	300	300	0	0	361	50	0	1	0	0	0	1	blank2r.bmp	0	1	+	0	8	C4r.bmp	492	1	blank2r.bmp	786	1	GKQX	786	1	blank2r.bmp	866	3	fair	866	1	!	1239	1	!	1266	0	0	0	0	0	0	0	0	0	0	0	0	0	0	0	0	0	0	0	0	0	0	0	0	0	0	0
120618	12:08:54	12:13:44	287939	5.0.10.0	4_exp_AWA_CON_AMP_EVA	985	Rpleas_acq	Same	Rpleas	Bmasked	CS_B	2pleas	distractor2	acq_US_pleas_masked	acq45_masked	4	29	400	0	300	300	0	0	575	50	0	1	0	0	0	1	blank2r.bmp	0	1	+	0	1	B1r.bmp	492	1	blank2r.bmp	786	1	GKQX	786	1	blank2r.bmp	866	5	spielen	866	1	!	1239	1	!	-1	0	0	0	0	0	0	0	0	0	0	0	0	0	0	0	0	0	0	0	0	0	0	0	0	0	0	0
120618	12:08:54	12:13:46	290192	5.0.10.0	4_exp_AWA_CON_AMP_EVA	985	Rpleas_acq	Same	Rpleas	Bmasked	CS_B	2pleas	distractor2	acq_US_unple_masked	acq45_masked	4	30	400	1	300	300	0	0	447	46	0	1	0	0	0	1	blank2r.bmp	0	1	+	0	6	C2r.bmp	492	1	blank2r.bmp	786	1	BMVZ	786	1	blank2r.bmp	866	6	tyrannisch	866	1	!	1239	1	!	1346	0	0	0	0	0	0	0	0	0	0	0	0	0	0	0	0	0	0	0	0	0	0	0	0	0	0	0
120618	12:08:54	12:13:49	292391	5.0.10.0	4_exp_AWA_CON_AMP_EVA	985	Rpleas_acq	Same	Rpleas	Bmasked	CS_B	2pleas	distractor2	acq_US_unple_masked	acq45_masked	4	31	400	1	300	300	0	0	408	46	0	1	0	0	0	1	blank2r.bmp	0	1	+	0	2	B2r.bmp	492	1	blank2r.bmp	786	1	BMVZ	786	1	blank2r.bmp	866	2	hindern	866	1	!	1239	1	!	1306	0	0	0	0	0	0	0	0	0	0	0	0	0	0	0	0	0	0	0	0	0	0	0	0	0	0	0
120618	12:08:54	12:13:51	294470	5.0.10.0	4_exp_AWA_CON_AMP_EVA	985	Rpleas_acq	Same	Rpleas	Bmasked	CS_B	2pleas	distractor2	acq_US_unple_masked	acq45_masked	4	32	400	0	300	300	0	0	315	46	0	1	0	0	0	1	blank2r.bmp	0	1	+	0	7	C3r.bmp	492	1	blank2r.bmp	786	1	BMVZ	786	1	blank2r.bmp	866	4	eitel	866	1	!	-1	1	!	-1	0	0	0	0	0	0	0	0	0	0	0	0	0	0	0	0	0	0	0	0	0	0	0	0	0	0	0
120618	12:08:54	12:13:53	296643	5.0.10.0	4_exp_AWA_CON_AMP_EVA	985	Rpleas_acq	Same	Rpleas	Bmasked	CS_B	2pleas	distractor2	acq_US_unple_masked	acq45_masked	4	33	400	1	300	300	0	0	359	46	0	1	0	0	0	1	blank2r.bmp	0	1	+	0	5	C1r.bmp	492	1	blank2r.bmp	786	1	BMVZ	786	1	blank2r.bmp	866	5	strafen	866	1	!	1239	1	!	1266	0	0	0	0	0	0	0	0	0	0	0	0	0	0	0	0	0	0	0	0	0	0	0	0	0	0	0
120618	12:08:54	12:13:55	298842	5.0.10.0	4_exp_AWA_CON_AMP_EVA	985	Rpleas_acq	Same	Rpleas	Bmasked	CS_B	2pleas	distractor2	acq_US_pleas_masked	acq45_masked	4	34	400	1	300	300	0	0	400	46	0	0	0	0	0	1	blank2r.bmp	0	1	+	0	8	C4r.bmp	492	1	blank2r.bmp	786	1	GKQX	786	1	blank2r.bmp	866	6	tolerant	866	1	!	1239	1	!	1306	0	0	0	0	0	0	0	0	0	0	0	0	0	0	0	0	0	0	0	0	0	0	0	0	0	0	0
120618	12:08:54	12:13:57	300894	5.0.10.0	4_exp_AWA_CON_AMP_EVA	985	Rpleas_acq	Same	Rpleas	Bmasked	CS_B	2pleas	distractor2	acq_US_unple_masked	acq45_masked	4	35	400	0	300	300	0	0	291	46	0	1	0	0	0	1	blank2r.bmp	0	1	+	0	4	B4r.bmp	492	1	blank2r.bmp	786	1	BMVZ	786	1	blank2r.bmp	866	3	faul	866	1	!	-1	1	!	-1	0	0	0	0	0	0	0	0	0	0	0	0	0	0	0	0	0	0	0	0	0	0	0	0	0	0	0
120618	12:08:54	12:13:59	303053	5.0.10.0	4_exp_AWA_CON_AMP_EVA	985	Rpleas_acq	Same	Rpleas	Bmasked	CS_B	2pleas	distractor2	acq_US_pleas_masked	acq45_masked	4	36	400	1	300	300	0	0	347	46	0	0	0	0	0	1	blank2r.bmp	0	1	+	0	3	B3r.bmp	492	1	blank2r.bmp	786	1	GKQX	786	1	blank2r.bmp	866	2	helfen	866	1	!	1239	1	!	1252	0	0	0	0	0	0	0	0	0	0	0	0	0	0	0	0	0	0	0	0	0	0	0	0	0	0	0
120618	12:08:54	12:14:03	307025	5.0.10.0	4_exp_AWA_CON_AMP_EVA	985	Rpleas_acq	Same	Rpleas	Bmasked	CS_B	2pleas	distractor2	acq_US_unple_masked	acq45_masked	5	1	400	0	300	300	0	0	304	50	0	0	0	0	0	1	blank2r.bmp	0	1	+	0	1	B1r.bmp	492	1	blank2r.bmp	786	1	BMVZ	786	1	blank2r.bmp	866	5	strafen	866	1	!	-1	1	!	-1	0	0	0	0	0	0	0	0	0	0	0	0	0	0	0	0	0	0	0	0	0	0	0	0	0	0	0
120618	12:08:54	12:14:05	309237	5.0.10.0	4_exp_AWA_CON_AMP_EVA	985	Rpleas_acq	Same	Rpleas	Bmasked	CS_B	2pleas	distractor2	acq_US_pleas_masked	acq45_masked	5	2	400	1	300	300	0	0	409	46	0	0	0	0	0	1	blank2r.bmp	0	1	+	0	4	B4r.bmp	492	1	blank2r.bmp	786	1	GKQX	786	1	blank2r.bmp	866	5	spielen	866	1	!	1239	1	!	1306	0	0	0	0	0	0	0	0	0	0	0	0	0	0	0	0	0	0	0	0	0	0	0	0	0	0	0
120618	12:08:54	12:14:08	311436	5.0.10.0	4_exp_AWA_CON_AMP_EVA	985	Rpleas_acq	Same	Rpleas	Bmasked	CS_B	2pleas	distractor2	acq_US_pleas_masked	acq45_masked	5	3	400	1	300	300	0	0	410	46	0	0	0	0	0	1	blank2r.bmp	0	1	+	0	6	C2r.bmp	492	1	blank2r.bmp	786	1	GKQX	786	1	blank2r.bmp	866	2	helfen	866	1	!	1239	1	!	1306	0	0	0	0	0	0	0	0	0	0	0	0	0	0	0	0	0	0	0	0	0	0	0	0	0	0	0
120618	12:08:54	12:14:10	313582	5.0.10.0	4_exp_AWA_CON_AMP_EVA	985	Rpleas_acq	Same	Rpleas	Bmasked	CS_B	2pleas	distractor2	acq_US_unple_masked	acq45_masked	5	4	400	1	300	300	0	0	348	50	0	0	0	0	0	1	blank2r.bmp	0	1	+	0	7	C3r.bmp	492	1	blank2r.bmp	786	1	BMVZ	786	1	blank2r.bmp	866	3	faul	866	1	!	1239	1	!	1252	0	0	0	0	0	0	0	0	0	0	0	0	0	0	0	0	0	0	0	0	0	0	0	0	0	0	0
120618	12:08:54	12:14:12	315795	5.0.10.0	4_exp_AWA_CON_AMP_EVA	985	Rpleas_acq	Same	Rpleas	Bmasked	CS_B	2pleas	distractor2	acq_US_unple_masked	acq45_masked	5	5	400	1	300	300	0	0	404	46	0	1	0	0	0	1	blank2r.bmp	0	1	+	0	3	B3r.bmp	492	1	blank2r.bmp	786	1	BMVZ	786	1	blank2r.bmp	866	1	tot	866	1	!	1239	1	!	1306	0	0	0	0	0	0	0	0	0	0	0	0	0	0	0	0	0	0	0	0	0	0	0	0	0	0	0
120618	12:08:54	12:14:14	317940	5.0.10.0	4_exp_AWA_CON_AMP_EVA	985	Rpleas_acq	Same	Rpleas	Bmasked	CS_B	2pleas	distractor2	acq_US_unple_masked	acq45_masked	5	6	400	1	300	300	0	0	346	50	0	0	0	0	0	1	blank2r.bmp	0	1	+	0	5	C1r.bmp	492	1	blank2r.bmp	786	1	BMVZ	786	1	blank2r.bmp	866	4	eitel	866	1	!	1239	1	!	1252	0	0	0	0	0	0	0	0	0	0	0	0	0	0	0	0	0	0	0	0	0	0	0	0	0	0	0
120618	12:08:54	12:14:16	320260	5.0.10.0	4_exp_AWA_CON_AMP_EVA	985	Rpleas_acq	Same	Rpleas	Bmasked	CS_B	2pleas	distractor2	acq_US_pleas_masked	acq45_masked	5	7	400	0	300	300	0	0	552	50	0	1	0	0	0	1	blank2r.bmp	0	1	+	0	2	B2r.bmp	492	1	blank2r.bmp	786	1	GKQX	786	1	blank2r.bmp	866	1	treu	866	1	!	1239	1	!	-1	0	0	0	0	0	0	0	0	0	0	0	0	0	0	0	0	0	0	0	0	0	0	0	0	0	0	0
120618	12:08:54	12:14:19	322512	5.0.10.0	4_exp_AWA_CON_AMP_EVA	985	Rpleas_acq	Same	Rpleas	Bmasked	CS_B	2pleas	distractor2	acq_US_pleas_masked	acq45_masked	5	8	400	1	300	300	0	0	437	46	0	0	0	0	0	1	blank2r.bmp	0	1	+	0	8	C4r.bmp	492	1	blank2r.bmp	786	1	GKQX	786	1	blank2r.bmp	866	3	fair	866	1	!	1239	1	!	1332	0	0	0	0	0	0	0	0	0	0	0	0	0	0	0	0	0	0	0	0	0	0	0	0	0	0	0
120618	12:08:54	12:14:21	324618	5.0.10.0	4_exp_AWA_CON_AMP_EVA	985	Rpleas_acq	Same	Rpleas	Bmasked	CS_B	2pleas	distractor2	acq_US_pleas_masked	acq45_masked	5	9	400	0	300	300	0	0	333	50	0	1	0	0	0	1	blank2r.bmp	0	1	+	0	6	C2r.bmp	492	1	blank2r.bmp	786	1	GKQX	786	1	blank2r.bmp	866	6	tolerant	866	1	!	-1	1	!	-1	0	0	0	0	0	0	0	0	0	0	0	0	0	0	0	0	0	0	0	0	0	0	0	0	0	0	0
120618	12:08:54	12:14:23	326724	5.0.10.0	4_exp_AWA_CON_AMP_EVA	985	Rpleas_acq	Same	Rpleas	Bmasked	CS_B	2pleas	distractor2	acq_US_pleas_masked	acq45_masked	5	10	400	0	300	300	0	0	319	50	0	1	0	0	0	1	blank2r.bmp	0	1	+	0	7	C3r.bmp	492	1	blank2r.bmp	786	1	GKQX	786	1	blank2r.bmp	866	4	ehrlich	866	1	!	-1	1	!	-1	0	0	0	0	0	0	0	0	0	0	0	0	0	0	0	0	0	0	0	0	0	0	0	0	0	0	0
120618	12:08:54	12:14:25	328909	5.0.10.0	4_exp_AWA_CON_AMP_EVA	985	Rpleas_acq	Same	Rpleas	Bmasked	CS_B	2pleas	distractor2	acq_US_unple_masked	acq45_masked	5	11	400	1	300	300	0	0	382	50	0	0	0	0	0	1	blank2r.bmp	0	1	+	0	5	C1r.bmp	492	1	blank2r.bmp	786	1	BMVZ	786	1	blank2r.bmp	866	6	tyrannisch	866	1	!	1239	1	!	1279	0	0	0	0	0	0	0	0	0	0	0	0	0	0	0	0	0	0	0	0	0	0	0	0	0	0	0
120618	12:08:54	12:14:27	331068	5.0.10.0	4_exp_AWA_CON_AMP_EVA	985	Rpleas_acq	Same	Rpleas	Bmasked	CS_B	2pleas	distractor2	acq_US_pleas_masked	acq45_masked	5	12	400	1	300	300	0	0	362	46	0	0	0	0	0	1	blank2r.bmp	0	1	+	0	2	B2r.bmp	492	1	blank2r.bmp	786	1	GKQX	786	1	blank2r.bmp	866	4	ehrlich	866	1	!	1239	1	!	1266	0	0	0	0	0	0	0	0	0	0	0	0	0	0	0	0	0	0	0	0	0	0	0	0	0	0	0
120618	12:08:54	12:14:29	333281	5.0.10.0	4_exp_AWA_CON_AMP_EVA	985	Rpleas_acq	Same	Rpleas	Bmasked	CS_B	2pleas	distractor2	acq_US_unple_masked	acq45_masked	5	13	400	1	300	300	0	0	405	50	0	0	0	0	0	1	blank2r.bmp	0	1	+	0	3	B3r.bmp	492	1	blank2r.bmp	786	1	BMVZ	786	1	blank2r.bmp	866	2	hindern	866	1	!	1239	1	!	1306	0	0	0	0	0	0	0	0	0	0	0	0	0	0	0	0	0	0	0	0	0	0	0	0	0	0	0
120618	12:08:54	12:14:32	335440	5.0.10.0	4_exp_AWA_CON_AMP_EVA	985	Rpleas_acq	Same	Rpleas	Bmasked	CS_B	2pleas	distractor2	acq_US_unple_masked	acq45_masked	5	14	400	1	300	300	0	0	359	46	0	1	0	0	0	1	blank2r.bmp	0	1	+	0	1	B1r.bmp	492	1	blank2r.bmp	786	1	BMVZ	786	1	blank2r.bmp	866	4	eitel	866	1	!	1239	1	!	1266	0	0	0	0	0	0	0	0	0	0	0	0	0	0	0	0	0	0	0	0	0	0	0	0	0	0	0
120618	12:08:54	12:14:34	337586	5.0.10.0	4_exp_AWA_CON_AMP_EVA	985	Rpleas_acq	Same	Rpleas	Bmasked	CS_B	2pleas	distractor2	acq_US_unple_masked	acq45_masked	5	15	400	1	300	300	0	0	352	50	0	0	0	0	0	1	blank2r.bmp	0	1	+	0	8	C4r.bmp	492	1	blank2r.bmp	786	1	BMVZ	786	1	blank2r.bmp	866	1	tot	866	1	!	1239	1	!	1252	0	0	0	0	0	0	0	0	0	0	0	0	0	0	0	0	0	0	0	0	0	0	0	0	0	0	0
120618	12:08:54	12:14:36	339731	5.0.10.0	4_exp_AWA_CON_AMP_EVA	985	Rpleas_acq	Same	Rpleas	Bmasked	CS_B	2pleas	distractor2	acq_US_unple_masked	acq45_masked	5	16	400	1	300	300	0	0	346	46	0	1	0	0	0	1	blank2r.bmp	0	1	+	0	4	B4r.bmp	492	1	blank2r.bmp	786	1	BMVZ	786	1	blank2r.bmp	866	3	faul	866	1	!	1239	1	!	1252	0	0	0	0	0	0	0	0	0	0	0	0	0	0	0	0	0	0	0	0	0	0	0	0	0	0	0
120618	12:08:54	12:14:38	341944	5.0.10.0	4_exp_AWA_CON_AMP_EVA	985	Rpleas_acq	Same	Rpleas	Bmasked	CS_B	2pleas	distractor2	acq_US_pleas_masked	acq45_masked	5	17	400	1	300	300	0	0	413	50	0	1	0	0	0	1	blank2r.bmp	0	1	+	0	6	C2r.bmp	492	1	blank2r.bmp	786	1	GKQX	786	1	blank2r.bmp	866	2	helfen	866	1	!	1239	1	!	1319	0	0	0	0	0	0	0	0	0	0	0	0	0	0	0	0	0	0	0	0	0	0	0	0	0	0	0
120618	12:08:54	12:14:40	344103	5.0.10.0	4_exp_AWA_CON_AMP_EVA	985	Rpleas_acq	Same	Rpleas	Bmasked	CS_B	2pleas	distractor2	acq_US_pleas_masked	acq45_masked	5	18	400	1	300	300	0	0	369	50	0	1	0	0	0	1	blank2r.bmp	0	1	+	0	8	C4r.bmp	492	1	blank2r.bmp	786	1	GKQX	786	1	blank2r.bmp	866	3	fair	866	1	!	1239	1	!	1266	0	0	0	0	0	0	0	0	0	0	0	0	0	0	0	0	0	0	0	0	0	0	0	0	0	0	0
120618	12:08:54	12:14:43	346342	5.0.10.0	4_exp_AWA_CON_AMP_EVA	985	Rpleas_acq	Same	Rpleas	Bmasked	CS_B	2pleas	distractor2	acq_US_unple_masked	acq45_masked	5	19	400	1	300	300	0	0	441	46	0	1	0	0	0	1	blank2r.bmp	0	1	+	0	3	B3r.bmp	492	1	blank2r.bmp	786	1	BMVZ	786	1	blank2r.bmp	866	2	hindern	866	1	!	1239	1	!	1346	0	0	0	0	0	0	0	0	0	0	0	0	0	0	0	0	0	0	0	0	0	0	0	0	0	0	0
120618	12:08:54	12:14:45	348621	5.0.10.0	4_exp_AWA_CON_AMP_EVA	985	Rpleas_acq	Same	Rpleas	Bmasked	CS_B	2pleas	distractor2	acq_US_pleas_masked	acq45_masked	5	20	400	1	300	300	0	0	466	46	0	0	0	0	0	1	blank2r.bmp	0	1	+	0	5	C1r.bmp	492	1	blank2r.bmp	786	1	GKQX	786	1	blank2r.bmp	866	1	treu	866	1	!	1239	1	!	1372	0	0	0	0	0	0	0	0	0	0	0	0	0	0	0	0	0	0	0	0	0	0	0	0	0	0	0
120618	12:08:54	12:14:47	350767	5.0.10.0	4_exp_AWA_CON_AMP_EVA	985	Rpleas_acq	Same	Rpleas	Bmasked	CS_B	2pleas	distractor2	acq_US_unple_masked	acq45_masked	5	21	400	1	300	300	0	0	353	50	0	0	0	0	0	1	blank2r.bmp	0	1	+	0	2	B2r.bmp	492	1	blank2r.bmp	786	1	BMVZ	786	1	blank2r.bmp	866	5	strafen	866	1	!	1239	1	!	1252	0	0	0	0	0	0	0	0	0	0	0	0	0	0	0	0	0	0	0	0	0	0	0	0	0	0	0
120618	12:08:54	12:14:49	352966	5.0.10.0	4_exp_AWA_CON_AMP_EVA	985	Rpleas_acq	Same	Rpleas	Bmasked	CS_B	2pleas	distractor2	acq_US_pleas_masked	acq45_masked	5	22	400	1	300	300	0	0	407	46	0	0	0	0	0	1	blank2r.bmp	0	1	+	0	4	B4r.bmp	492	1	blank2r.bmp	786	1	GKQX	786	1	blank2r.bmp	866	6	tolerant	866	1	!	1239	1	!	1306	0	0	0	0	0	0	0	0	0	0	0	0	0	0	0	0	0	0	0	0	0	0	0	0	0	0	0
120618	12:08:54	12:14:51	355205	5.0.10.0	4_exp_AWA_CON_AMP_EVA	985	Rpleas_acq	Same	Rpleas	Bmasked	CS_B	2pleas	distractor2	acq_US_pleas_masked	acq45_masked	5	23	400	1	300	300	0	0	439	50	0	1	0	0	0	1	blank2r.bmp	0	1	+	0	7	C3r.bmp	492	1	blank2r.bmp	786	1	GKQX	786	1	blank2r.bmp	866	5	spielen	866	1	!	1239	1	!	1346	0	0	0	0	0	0	0	0	0	0	0	0	0	0	0	0	0	0	0	0	0	0	0	0	0	0	0
120618	12:08:54	12:14:54	357351	5.0.10.0	4_exp_AWA_CON_AMP_EVA	985	Rpleas_acq	Same	Rpleas	Bmasked	CS_B	2pleas	distractor2	acq_US_unple_masked	acq45_masked	5	24	400	1	300	300	0	0	352	46	0	1	0	0	0	1	blank2r.bmp	0	1	+	0	1	B1r.bmp	492	1	blank2r.bmp	786	1	BMVZ	786	1	blank2r.bmp	866	6	tyrannisch	866	1	!	1239	1	!	1252	0	0	0	0	0	0	0	0	0	0	0	0	0	0	0	0	0	0	0	0	0	0	0	0	0	0	0
120618	12:08:54	12:14:56	359603	5.0.10.0	4_exp_AWA_CON_AMP_EVA	985	Rpleas_acq	Same	Rpleas	Bmasked	CS_B	2pleas	distractor2	acq_US_unple_masked	acq45_masked	5	25	400	0	300	300	0	0	479	50	0	0	0	0	0	1	blank2r.bmp	0	1	+	0	4	B4r.bmp	492	1	blank2r.bmp	786	1	BMVZ	786	1	blank2r.bmp	866	4	eitel	866	1	!	1239	1	!	-1	0	0	0	0	0	0	0	0	0	0	0	0	0	0	0	0	0	0	0	0	0	0	0	0	0	0	0
120618	12:08:54	12:14:58	361829	5.0.10.0	4_exp_AWA_CON_AMP_EVA	985	Rpleas_acq	Same	Rpleas	Bmasked	CS_B	2pleas	distractor2	acq_US_unple_masked	acq45_masked	5	26	400	1	300	300	0	0	405	50	0	0	0	0	0	1	blank2r.bmp	0	1	+	0	3	B3r.bmp	492	1	blank2r.bmp	786	1	BMVZ	786	1	blank2r.bmp	866	5	strafen	866	1	!	1239	1	!	1306	0	0	0	0	0	0	0	0	0	0	0	0	0	0	0	0	0	0	0	0	0	0	0	0	0	0	0
120618	12:08:54	12:15:00	364055	5.0.10.0	4_exp_AWA_CON_AMP_EVA	985	Rpleas_acq	Same	Rpleas	Bmasked	CS_B	2pleas	distractor2	acq_US_unple_masked	acq45_masked	5	27	400	1	300	300	0	0	436	46	0	1	0	0	0	1	blank2r.bmp	0	1	+	0	5	C1r.bmp	492	1	blank2r.bmp	786	1	BMVZ	786	1	blank2r.bmp	866	3	faul	866	1	!	1239	1	!	1332	0	0	0	0	0	0	0	0	0	0	0	0	0	0	0	0	0	0	0	0	0	0	0	0	0	0	0
120618	12:08:54	12:15:02	366254	5.0.10.0	4_exp_AWA_CON_AMP_EVA	985	Rpleas_acq	Same	Rpleas	Bmasked	CS_B	2pleas	distractor2	acq_US_unple_masked	acq45_masked	5	28	400	1	300	300	0	0	411	46	0	1	0	0	0	1	blank2r.bmp	0	1	+	0	1	B1r.bmp	492	1	blank2r.bmp	786	1	BMVZ	786	1	blank2r.bmp	866	6	tyrannisch	866	1	!	1239	1	!	1306	0	0	0	0	0	0	0	0	0	0	0	0	0	0	0	0	0	0	0	0	0	0	0	0	0	0	0
120618	12:08:54	12:15:05	368320	5.0.10.0	4_exp_AWA_CON_AMP_EVA	985	Rpleas_acq	Same	Rpleas	Bmasked	CS_B	2pleas	distractor2	acq_US_pleas_masked	acq45_masked	5	29	400	0	300	300	0	0	302	46	0	0	0	0	0	1	blank2r.bmp	0	1	+	0	7	C3r.bmp	492	1	blank2r.bmp	786	1	GKQX	786	1	blank2r.bmp	866	3	fair	866	1	!	-1	1	!	-1	0	0	0	0	0	0	0	0	0	0	0	0	0	0	0	0	0	0	0	0	0	0	0	0	0	0	0
120618	12:08:54	12:15:07	370372	5.0.10.0	4_exp_AWA_CON_AMP_EVA	985	Rpleas_acq	Same	Rpleas	Bmasked	CS_B	2pleas	distractor2	acq_US_pleas_masked	acq45_masked	5	30	400	0	300	300	0	0	266	50	0	1	0	0	0	1	blank2r.bmp	0	1	+	0	2	B2r.bmp	492	1	blank2r.bmp	786	1	GKQX	786	1	blank2r.bmp	866	2	helfen	866	1	!	-1	1	!	-1	0	0	0	0	0	0	0	0	0	0	0	0	0	0	0	0	0	0	0	0	0	0	0	0	0	0	0
120618	12:08:54	12:15:09	372718	5.0.10.0	4_exp_AWA_CON_AMP_EVA	985	Rpleas_acq	Same	Rpleas	Bmasked	CS_B	2pleas	distractor2	acq_US_pleas_masked	acq45_masked	5	31	400	0	300	300	0	0	569	46	0	0	0	0	0	1	blank2r.bmp	0	1	+	0	8	C4r.bmp	492	1	blank2r.bmp	786	1	GKQX	786	1	blank2r.bmp	866	5	spielen	866	1	!	1239	1	!	-1	0	0	0	0	0	0	0	0	0	0	0	0	0	0	0	0	0	0	0	0	0	0	0	0	0	0	0
120618	12:08:54	12:15:11	374997	5.0.10.0	4_exp_AWA_CON_AMP_EVA	985	Rpleas_acq	Same	Rpleas	Bmasked	CS_B	2pleas	distractor2	acq_US_pleas_masked	acq45_masked	5	32	400	0	300	300	0	0	501	46	0	0	0	0	0	1	blank2r.bmp	0	1	+	0	6	C2r.bmp	492	1	blank2r.bmp	786	1	GKQX	786	1	blank2r.bmp	866	1	treu	866	1	!	1239	1	!	-1	0	0	0	0	0	0	0	0	0	0	0	0	0	0	0	0	0	0	0	0	0	0	0	0	0	0	0
120618	12:08:54	12:15:13	377263	5.0.10.0	4_exp_AWA_CON_AMP_EVA	985	Rpleas_acq	Same	Rpleas	Bmasked	CS_B	2pleas	distractor2	acq_US_unple_masked	acq45_masked	5	33	400	0	300	300	0	0	484	46	0	1	0	0	0	1	blank2r.bmp	0	1	+	0	3	B3r.bmp	492	1	blank2r.bmp	786	1	BMVZ	786	1	blank2r.bmp	866	1	tot	866	1	!	1239	1	!	-1	0	0	0	0	0	0	0	0	0	0	0	0	0	0	0	0	0	0	0	0	0	0	0	0	0	0	0
120618	12:08:54	12:15:16	379568	5.0.10.0	4_exp_AWA_CON_AMP_EVA	985	Rpleas_acq	Same	Rpleas	Bmasked	CS_B	2pleas	distractor2	acq_US_pleas_masked	acq45_masked	5	34	400	0	300	300	0	0	514	50	0	1	0	0	0	1	blank2r.bmp	0	1	+	0	6	C2r.bmp	492	1	blank2r.bmp	786	1	GKQX	786	1	blank2r.bmp	866	6	tolerant	866	1	!	1239	1	!	-1	0	0	0	0	0	0	0	0	0	0	0	0	0	0	0	0	0	0	0	0	0	0	0	0	0	0	0
120618	12:08:54	12:15:18	381861	5.0.10.0	4_exp_AWA_CON_AMP_EVA	985	Rpleas_acq	Same	Rpleas	Bmasked	CS_B	2pleas	distractor2	acq_US_unple_masked	acq45_masked	5	35	400	0	300	300	0	0	514	50	0	0	0	0	0	1	blank2r.bmp	0	1	+	0	1	B1r.bmp	492	1	blank2r.bmp	786	1	BMVZ	786	1	blank2r.bmp	866	2	hindern	866	1	!	1239	1	!	-1	0	0	0	0	0	0	0	0	0	0	0	0	0	0	0	0	0	0	0	0	0	0	0	0	0	0	0
120618	12:08:54	12:15:20	384087	5.0.10.0	4_exp_AWA_CON_AMP_EVA	985	Rpleas_acq	Same	Rpleas	Bmasked	CS_B	2pleas	distractor2	acq_US_pleas_masked	acq45_masked	5	36	400	1	300	300	0	0	422	50	0	1	0	0	0	1	blank2r.bmp	0	1	+	0	7	C3r.bmp	492	1	blank2r.bmp	786	1	GKQX	786	1	blank2r.bmp	866	4	ehrlich	866	1	!	1239	1	!	1319	0	0	0	0	0	0	0	0	0	0	0	0	0	0	0	0	0	0	0	0	0	0	0	0	0	0	0
120618	12:08:54	12:15:26	389964	5.0.10.0	4_exp_AWA_CON_AMP_EVA	985	Rpleas_acq	Same	Rpleas	Bmasked	CS_B	2pleas	distractor2	cond_US_pleas_123_masked_CS1	condtest_masked_1	8	1	400	0	300	300	0	0	494	50	0	1	0	0	0	1	blank2r.bmp	0	1	+	0	8	C4r.bmp	492	1	blank2r.bmp	786	1	BMVZ	786	1	blank2r.bmp	866	1	treu	866	1	!	1239	1	!	-1	0	0	0	0	0	0	0	0	0	0	0	0	0	0	0	0	0	0	0	0	0	0	0	0	0	0	0
120618	12:08:54	12:15:28	392230	5.0.10.0	4_exp_AWA_CON_AMP_EVA	985	Rpleas_acq	Same	Rpleas	Bmasked	CS_B	2pleas	distractor2	cond_US_unple_123_masked_CS2	condtest_masked_1	8	2	400	1	300	300	0	0	461	46	0	1	0	0	0	1	blank2r.bmp	0	1	+	0	2	B2r.bmp	492	1	blank2r.bmp	786	1	GKQX	786	1	blank2r.bmp	866	3	faul	866	1	!	1239	1	!	1359	0	0	0	0	0	0	0	0	0	0	0	0	0	0	0	0	0	0	0	0	0	0	0	0	0	0	0
120618	12:08:54	12:15:31	394442	5.0.10.0	4_exp_AWA_CON_AMP_EVA	985	Rpleas_acq	Same	Rpleas	Bmasked	CS_B	2pleas	distractor2	cond_new_pleas_456_masked_CS2	condtest_masked_1	8	3	400	1	300	300	0	0	424	46	0	0	0	0	0	1	blank2r.bmp	0	1	+	0	4	B4r.bmp	492	1	blank2r.bmp	786	1	GKQX	786	1	blank2r.bmp	866	1	freundlich	866	1	!	1239	1	!	1319	0	0	0	0	0	0	0	0	0	0	0	0	0	0	0	0	0	0	0	0	0	0	0	0	0	0	0
120618	12:08:54	12:15:33	396628	5.0.10.0	4_exp_AWA_CON_AMP_EVA	985	Rpleas_acq	Same	Rpleas	Bmasked	CS_B	2pleas	distractor2	cond_new_unple_456_masked_CS1	condtest_masked_1	8	4	400	1	300	300	0	0	396	46	0	1	0	0	0	1	blank2r.bmp	0	1	+	0	5	C1r.bmp	492	1	blank2r.bmp	786	1	BMVZ	786	1	blank2r.bmp	866	1	fanatisch	866	1	!	1239	1	!	1292	0	0	0	0	0	0	0	0	0	0	0	0	0	0	0	0	0	0	0	0	0	0	0	0	0	0	0
120618	12:08:54	12:15:35	398854	5.0.10.0	4_exp_AWA_CON_AMP_EVA	985	Rpleas_acq	Same	Rpleas	Bmasked	CS_B	2pleas	distractor2	cond_new_pleas_456_masked_CS1	condtest_masked_1	8	5	400	1	300	300	0	0	425	50	0	1	0	0	0	1	blank2r.bmp	0	1	+	0	1	B1r.bmp	492	1	blank2r.bmp	786	1	BMVZ	786	1	blank2r.bmp	866	3	retten	866	1	!	1239	1	!	1332	0	0	0	0	0	0	0	0	0	0	0	0	0	0	0	0	0	0	0	0	0	0	0	0	0	0	0
120618	12:08:54	12:15:37	401053	5.0.10.0	4_exp_AWA_CON_AMP_EVA	985	Rpleas_acq	Same	Rpleas	Bmasked	CS_B	2pleas	distractor2	cond_US_unple_123_masked_CS1	condtest_masked_1	8	6	400	1	300	300	0	0	399	50	0	0	0	0	0	1	blank2r.bmp	0	1	+	0	2	B2r.bmp	492	1	blank2r.bmp	786	1	BMVZ	786	1	blank2r.bmp	866	1	tot	866	1	!	1239	1	!	1306	0	0	0	0	0	0	0	0	0	0	0	0	0	0	0	0	0	0	0	0	0	0	0	0	0	0	0
120618	12:08:54	12:15:40	403332	5.0.10.0	4_exp_AWA_CON_AMP_EVA	985	Rpleas_acq	Same	Rpleas	Bmasked	CS_B	2pleas	distractor2	cond_new_unple_456_masked_CS2	condtest_masked_1	8	7	400	0	300	300	0	0	509	46	0	1	0	0	0	1	blank2r.bmp	0	1	+	0	3	B3r.bmp	492	1	blank2r.bmp	786	1	GKQX	786	1	blank2r.bmp	866	3	rächen	866	1	!	1239	1	!	-1	0	0	0	0	0	0	0	0	0	0	0	0	0	0	0	0	0	0	0	0	0	0	0	0	0	0	0
120618	12:08:54	12:15:42	405491	5.0.10.0	4_exp_AWA_CON_AMP_EVA	985	Rpleas_acq	Same	Rpleas	Bmasked	CS_B	2pleas	distractor2	cond_US_pleas_123_masked_CS2	condtest_masked_1	8	8	400	1	300	300	0	0	346	50	0	1	0	0	0	1	blank2r.bmp	0	1	+	0	4	B4r.bmp	492	1	blank2r.bmp	786	1	GKQX	786	1	blank2r.bmp	866	2	helfen	866	1	!	1239	1	!	1252	0	0	0	0	0	0	0	0	0	0	0	0	0	0	0	0	0	0	0	0	0	0	0	0	0	0	0
120618	12:08:54	12:15:46	409463	5.0.10.0	4_exp_AWA_CON_AMP_EVA	985	Rpleas_acq	Same	Rpleas	Bmasked	CS_B	2pleas	distractor2	cond_new_pleas_456_masked_CS2	condtest_masked_2	9	1	400	0	300	300	0	0	282	46	0	0	0	0	0	1	blank2r.bmp	0	1	+	0	8	C4r.bmp	492	1	blank2r.bmp	786	1	GKQX	786	1	blank2r.bmp	866	2	loyal	866	1	!	-1	1	!	-1	0	0	0	0	0	0	0	0	0	0	0	0	0	0	0	0	0	0	0	0	0	0	0	0	0	0	0
120618	12:08:54	12:15:48	411635	5.0.10.0	4_exp_AWA_CON_AMP_EVA	985	Rpleas_acq	Same	Rpleas	Bmasked	CS_B	2pleas	distractor2	cond_new_unple_456_masked_CS2	condtest_masked_2	9	2	400	1	300	300	0	0	369	50	0	0	0	0	0	1	blank2r.bmp	0	1	+	0	7	C3r.bmp	492	1	blank2r.bmp	786	1	GKQX	786	1	blank2r.bmp	866	2	lasch	866	1	!	1239	1	!	1266	0	0	0	0	0	0	0	0	0	0	0	0	0	0	0	0	0	0	0	0	0	0	0	0	0	0	0
120618	12:08:54	12:15:50	413821	5.0.10.0	4_exp_AWA_CON_AMP_EVA	985	Rpleas_acq	Same	Rpleas	Bmasked	CS_B	2pleas	distractor2	cond_US_pleas_123_masked_CS1	condtest_masked_2	9	3	400	1	300	300	0	0	394	46	0	0	0	0	0	1	blank2r.bmp	0	1	+	0	5	C1r.bmp	492	1	blank2r.bmp	786	1	BMVZ	786	1	blank2r.bmp	866	3	fair	866	1	!	1239	1	!	1292	0	0	0	0	0	0	0	0	0	0	0	0	0	0	0	0	0	0	0	0	0	0	0	0	0	0	0
120618	12:08:54	12:15:52	416060	5.0.10.0	4_exp_AWA_CON_AMP_EVA	985	Rpleas_acq	Same	Rpleas	Bmasked	CS_B	2pleas	distractor2	cond_US_unple_123_masked_CS1	condtest_masked_2	9	4	400	1	300	300	0	0	439	46	0	1	0	0	0	1	blank2r.bmp	0	1	+	0	6	C2r.bmp	492	1	blank2r.bmp	786	1	BMVZ	786	1	blank2r.bmp	866	2	hindern	866	1	!	1239	1	!	1346	0	0	0	0	0	0	0	0	0	0	0	0	0	0	0	0	0	0	0	0	0	0	0	0	0	0	0
120618	12:08:54	12:15:54	418312	5.0.10.0	4_exp_AWA_CON_AMP_EVA	985	Rpleas_acq	Same	Rpleas	Bmasked	CS_B	2pleas	distractor2	cond_new_pleas_456_masked_CS2	condtest_masked_2	9	5	400	1	300	300	0	0	462	50	0	1	0	0	0	1	blank2r.bmp	0	1	+	0	7	C3r.bmp	492	1	blank2r.bmp	786	1	GKQX	786	1	blank2r.bmp	866	3	retten	866	1	!	1239	1	!	1359	0	0	0	0	0	0	0	0	0	0	0	0	0	0	0	0	0	0	0	0	0	0	0	0	0	0	0
120618	12:08:54	12:15:57	420645	5.0.10.0	4_exp_AWA_CON_AMP_EVA	985	Rpleas_acq	Same	Rpleas	Bmasked	CS_B	2pleas	distractor2	cond_US_pleas_123_masked_CS1	condtest_masked_2	9	6	400	0	300	300	0	0	565	46	0	0	0	0	0	1	blank2r.bmp	0	1	+	0	5	C1r.bmp	492	1	blank2r.bmp	786	1	BMVZ	786	1	blank2r.bmp	866	3	fair	866	1	!	1239	1	!	-1	0	0	0	0	0	0	0	0	0	0	0	0	0	0	0	0	0	0	0	0	0	0	0	0	0	0	0
120618	12:08:54	12:15:59	422831	5.0.10.0	4_exp_AWA_CON_AMP_EVA	985	Rpleas_acq	Same	Rpleas	Bmasked	CS_B	2pleas	distractor2	cond_US_pleas_123_masked_CS2	condtest_masked_2	9	7	400	1	300	300	0	0	359	46	0	0	0	0	0	1	blank2r.bmp	0	1	+	0	1	B1r.bmp	492	1	blank2r.bmp	786	1	GKQX	786	1	blank2r.bmp	866	1	treu	866	1	!	1239	1	!	1266	0	0	0	0	0	0	0	0	0	0	0	0	0	0	0	0	0	0	0	0	0	0	0	0	0	0	0
120618	12:08:54	12:16:01	425083	5.0.10.0	4_exp_AWA_CON_AMP_EVA	985	Rpleas_acq	Same	Rpleas	Bmasked	CS_B	2pleas	distractor2	cond_US_unple_123_masked_CS1	condtest_masked_2	9	8	400	0	300	300	0	0	479	50	0	0	0	0	0	1	blank2r.bmp	0	1	+	0	2	B2r.bmp	492	1	blank2r.bmp	786	1	BMVZ	786	1	blank2r.bmp	866	3	faul	866	1	!	1239	1	!	-1	0	0	0	0	0	0	0	0	0	0	0	0	0	0	0	0	0	0	0	0	0	0	0	0	0	0	0
120618	12:08:54	12:16:03	427202	5.0.10.0	4_exp_AWA_CON_AMP_EVA	985	Rpleas_acq	Same	Rpleas	Bmasked	CS_B	2pleas	distractor2	cond_new_unple_456_masked_CS1	condtest_masked_2	9	9	400	0	300	300	0	0	333	46	0	1	0	0	0	1	blank2r.bmp	0	1	+	0	8	C4r.bmp	492	1	blank2r.bmp	786	1	BMVZ	786	1	blank2r.bmp	866	1	fanatisch	866	1	!	-1	1	!	-1	0	0	0	0	0	0	0	0	0	0	0	0	0	0	0	0	0	0	0	0	0	0	0	0	0	0	0
120618	12:08:54	12:16:06	429388	5.0.10.0	4_exp_AWA_CON_AMP_EVA	985	Rpleas_acq	Same	Rpleas	Bmasked	CS_B	2pleas	distractor2	cond_new_unple_456_masked_CS1	condtest_masked_2	9	10	400	1	300	300	0	0	382	46	0	1	0	0	0	1	blank2r.bmp	0	1	+	0	4	B4r.bmp	492	1	blank2r.bmp	786	1	BMVZ	786	1	blank2r.bmp	866	2	lasch	866	1	!	1239	1	!	1279	0	0	0	0	0	0	0	0	0	0	0	0	0	0	0	0	0	0	0	0	0	0	0	0	0	0	0
120618	12:08:54	12:16:08	431640	5.0.10.0	4_exp_AWA_CON_AMP_EVA	985	Rpleas_acq	Same	Rpleas	Bmasked	CS_B	2pleas	distractor2	cond_US_pleas_123_masked_CS2	condtest_masked_2	9	11	400	1	300	300	0	0	456	46	0	0	0	0	0	1	blank2r.bmp	0	1	+	0	6	C2r.bmp	492	1	blank2r.bmp	786	1	GKQX	786	1	blank2r.bmp	866	2	helfen	866	1	!	1239	1	!	1359	0	0	0	0	0	0	0	0	0	0	0	0	0	0	0	0	0	0	0	0	0	0	0	0	0	0	0
120618	12:08:54	12:16:10	433719	5.0.10.0	4_exp_AWA_CON_AMP_EVA	985	Rpleas_acq	Same	Rpleas	Bmasked	CS_B	2pleas	distractor2	cond_new_pleas_456_masked_CS1	condtest_masked_2	9	12	400	0	300	300	0	0	296	46	0	0	0	0	0	1	blank2r.bmp	0	1	+	0	3	B3r.bmp	492	1	blank2r.bmp	786	1	BMVZ	786	1	blank2r.bmp	866	1	freundlich	866	1	!	-1	1	!	-1	0	0	0	0	0	0	0	0	0	0	0	0	0	0	0	0	0	0	0	0	0	0	0	0	0	0	0
120618	12:08:54	12:16:12	436079	5.0.10.0	4_exp_AWA_CON_AMP_EVA	985	Rpleas_acq	Same	Rpleas	Bmasked	CS_B	2pleas	distractor2	cond_new_unple_456_masked_CS2	condtest_masked_2	9	13	400	0	300	300	0	0	560	46	0	1	0	0	0	1	blank2r.bmp	0	1	+	0	6	C2r.bmp	492	1	blank2r.bmp	786	1	GKQX	786	1	blank2r.bmp	866	3	rächen	866	1	!	1239	1	!	-1	0	0	0	0	0	0	0	0	0	0	0	0	0	0	0	0	0	0	0	0	0	0	0	0	0	0	0
120618	12:08:54	12:16:14	438278	5.0.10.0	4_exp_AWA_CON_AMP_EVA	985	Rpleas_acq	Same	Rpleas	Bmasked	CS_B	2pleas	distractor2	cond_US_pleas_123_masked_CS1	condtest_masked_2	9	14	400	1	300	300	0	0	398	46	0	0	0	0	0	1	blank2r.bmp	0	1	+	0	4	B4r.bmp	492	1	blank2r.bmp	786	1	BMVZ	786	1	blank2r.bmp	866	3	fair	866	1	!	1239	1	!	1292	0	0	0	0	0	0	0	0	0	0	0	0	0	0	0	0	0	0	0	0	0	0	0	0	0	0	0
120618	12:08:54	12:16:17	440517	5.0.10.0	4_exp_AWA_CON_AMP_EVA	985	Rpleas_acq	Same	Rpleas	Bmasked	CS_B	2pleas	distractor2	cond_US_pleas_123_masked_CS2	condtest_masked_2	9	15	400	1	300	300	0	0	443	50	0	1	0	0	0	1	blank2r.bmp	0	1	+	0	8	C4r.bmp	492	1	blank2r.bmp	786	1	GKQX	786	1	blank2r.bmp	866	1	treu	866	1	!	1239	1	!	1346	0	0	0	0	0	0	0	0	0	0	0	0	0	0	0	0	0	0	0	0	0	0	0	0	0	0	0
120618	12:08:54	12:16:19	442796	5.0.10.0	4_exp_AWA_CON_AMP_EVA	985	Rpleas_acq	Same	Rpleas	Bmasked	CS_B	2pleas	distractor2	cond_new_pleas_456_masked_CS2	condtest_masked_2	9	16	400	0	300	300	0	0	499	46	0	0	0	0	0	1	blank2r.bmp	0	1	+	0	3	B3r.bmp	492	1	blank2r.bmp	786	1	GKQX	786	1	blank2r.bmp	866	2	loyal	866	1	!	1239	1	!	-1	0	0	0	0	0	0	0	0	0	0	0	0	0	0	0	0	0	0	0	0	0	0	0	0	0	0	0
120618	12:08:54	12:16:21	445075	5.0.10.0	4_exp_AWA_CON_AMP_EVA	985	Rpleas_acq	Same	Rpleas	Bmasked	CS_B	2pleas	distractor2	cond_US_unple_123_masked_CS2	condtest_masked_2	9	17	400	0	300	300	0	0	498	46	0	1	0	0	0	1	blank2r.bmp	0	1	+	0	2	B2r.bmp	492	1	blank2r.bmp	786	1	GKQX	786	1	blank2r.bmp	866	1	tot	866	1	!	1239	1	!	-1	0	0	0	0	0	0	0	0	0	0	0	0	0	0	0	0	0	0	0	0	0	0	0	0	0	0	0
120618	12:08:54	12:16:24	447367	5.0.10.0	4_exp_AWA_CON_AMP_EVA	985	Rpleas_acq	Same	Rpleas	Bmasked	CS_B	2pleas	distractor2	cond_new_unple_456_masked_CS2	condtest_masked_2	9	18	400	0	300	300	0	0	499	46	0	1	0	0	0	1	blank2r.bmp	0	1	+	0	1	B1r.bmp	492	1	blank2r.bmp	786	1	GKQX	786	1	blank2r.bmp	866	1	fanatisch	866	1	!	1239	1	!	-1	0	0	0	0	0	0	0	0	0	0	0	0	0	0	0	0	0	0	0	0	0	0	0	0	0	0	0
120618	12:08:54	12:16:26	449566	5.0.10.0	4_exp_AWA_CON_AMP_EVA	985	Rpleas_acq	Same	Rpleas	Bmasked	CS_B	2pleas	distractor2	cond_US_unple_123_masked_CS1	condtest_masked_2	9	19	400	1	300	300	0	0	375	50	0	0	0	0	0	1	blank2r.bmp	0	1	+	0	5	C1r.bmp	492	1	blank2r.bmp	786	1	BMVZ	786	1	blank2r.bmp	866	2	hindern	866	1	!	1239	1	!	1279	0	0	0	0	0	0	0	0	0	0	0	0	0	0	0	0	0	0	0	0	0	0	0	0	0	0	0
120618	12:08:54	12:16:28	451819	5.0.10.0	4_exp_AWA_CON_AMP_EVA	985	Rpleas_acq	Same	Rpleas	Bmasked	CS_B	2pleas	distractor2	cond_US_pleas_123_masked_CS2	condtest_masked_2	9	20	400	1	300	300	0	0	451	46	0	0	0	0	0	1	blank2r.bmp	0	1	+	0	7	C3r.bmp	492	1	blank2r.bmp	786	1	GKQX	786	1	blank2r.bmp	866	2	helfen	866	1	!	1239	1	!	1346	0	0	0	0	0	0	0	0	0	0	0	0	0	0	0	0	0	0	0	0	0	0	0	0	0	0	0
120618	12:08:54	12:16:30	453925	5.0.10.0	4_exp_AWA_CON_AMP_EVA	985	Rpleas_acq	Same	Rpleas	Bmasked	CS_B	2pleas	distractor2	cond_new_unple_456_masked_CS2	condtest_masked_2	9	21	400	0	300	300	0	0	333	50	0	0	0	0	0	1	blank2r.bmp	0	1	+	0	6	C2r.bmp	492	1	blank2r.bmp	786	1	GKQX	786	1	blank2r.bmp	866	3	rächen	866	1	!	-1	1	!	-1	0	0	0	0	0	0	0	0	0	0	0	0	0	0	0	0	0	0	0	0	0	0	0	0	0	0	0
120618	12:08:54	12:16:32	456164	5.0.10.0	4_exp_AWA_CON_AMP_EVA	985	Rpleas_acq	Same	Rpleas	Bmasked	CS_B	2pleas	distractor2	cond_new_pleas_456_masked_CS2	condtest_masked_2	9	22	400	1	300	300	0	0	429	50	0	1	0	0	0	1	blank2r.bmp	0	1	+	0	1	B1r.bmp	492	1	blank2r.bmp	786	1	GKQX	786	1	blank2r.bmp	866	1	freundlich	866	1	!	1239	1	!	1332	0	0	0	0	0	0	0	0	0	0	0	0	0	0	0	0	0	0	0	0	0	0	0	0	0	0	0
120618	12:08:54	12:16:34	458243	5.0.10.0	4_exp_AWA_CON_AMP_EVA	985	Rpleas_acq	Same	Rpleas	Bmasked	CS_B	2pleas	distractor2	cond_new_unple_456_masked_CS2	condtest_masked_2	9	23	400	0	300	300	0	0	296	46	0	1	0	0	0	1	blank2r.bmp	0	1	+	0	3	B3r.bmp	492	1	blank2r.bmp	786	1	GKQX	786	1	blank2r.bmp	866	2	lasch	866	1	!	-1	1	!	-1	0	0	0	0	0	0	0	0	0	0	0	0	0	0	0	0	0	0	0	0	0	0	0	0	0	0	0
120618	12:08:54	12:16:37	460415	5.0.10.0	4_exp_AWA_CON_AMP_EVA	985	Rpleas_acq	Same	Rpleas	Bmasked	CS_B	2pleas	distractor2	cond_US_unple_123_masked_CS2	condtest_masked_2	9	24	400	1	300	300	0	0	357	46	0	1	0	0	0	1	blank2r.bmp	0	1	+	0	4	B4r.bmp	492	1	blank2r.bmp	786	1	GKQX	786	1	blank2r.bmp	866	3	faul	866	1	!	1239	1	!	1252	0	0	0	0	0	0	0	0	0	0	0	0	0	0	0	0	0	0	0	0	0	0	0	0	0	0	0
120618	12:08:54	12:16:39	462614	5.0.10.0	4_exp_AWA_CON_AMP_EVA	985	Rpleas_acq	Same	Rpleas	Bmasked	CS_B	2pleas	distractor2	cond_US_unple_123_masked_CS1	condtest_masked_2	9	25	400	1	300	300	0	0	410	50	0	0	0	0	0	1	blank2r.bmp	0	1	+	0	8	C4r.bmp	492	1	blank2r.bmp	786	1	BMVZ	786	1	blank2r.bmp	866	1	tot	866	1	!	1239	1	!	1306	0	0	0	0	0	0	0	0	0	0	0	0	0	0	0	0	0	0	0	0	0	0	0	0	0	0	0
120618	12:08:54	12:16:41	464880	5.0.10.0	4_exp_AWA_CON_AMP_EVA	985	Rpleas_acq	Same	Rpleas	Bmasked	CS_B	2pleas	distractor2	cond_new_pleas_456_masked_CS2	condtest_masked_2	9	26	400	0	300	300	0	0	505	46	0	0	0	0	0	1	blank2r.bmp	0	1	+	0	7	C3r.bmp	492	1	blank2r.bmp	786	1	GKQX	786	1	blank2r.bmp	866	3	retten	866	1	!	1239	1	!	-1	0	0	0	0	0	0	0	0	0	0	0	0	0	0	0	0	0	0	0	0	0	0	0	0	0	0	0
120618	12:08:54	12:16:43	466999	5.0.10.0	4_exp_AWA_CON_AMP_EVA	985	Rpleas_acq	Same	Rpleas	Bmasked	CS_B	2pleas	distractor2	cond_US_unple_123_masked_CS2	condtest_masked_2	9	27	400	0	300	300	0	0	331	50	0	0	0	0	0	1	blank2r.bmp	0	1	+	0	2	B2r.bmp	492	1	blank2r.bmp	786	1	GKQX	786	1	blank2r.bmp	866	2	hindern	866	1	!	-1	1	!	-1	0	0	0	0	0	0	0	0	0	0	0	0	0	0	0	0	0	0	0	0	0	0	0	0	0	0	0
120618	12:08:54	12:16:45	469198	5.0.10.0	4_exp_AWA_CON_AMP_EVA	985	Rpleas_acq	Same	Rpleas	Bmasked	CS_B	2pleas	distractor2	cond_US_unple_123_masked_CS1	condtest_masked_2	9	28	400	1	300	300	0	0	397	46	0	1	0	0	0	1	blank2r.bmp	0	1	+	0	5	C1r.bmp	492	1	blank2r.bmp	786	1	BMVZ	786	1	blank2r.bmp	866	3	faul	866	1	!	1239	1	!	1292	0	0	0	0	0	0	0	0	0	0	0	0	0	0	0	0	0	0	0	0	0	0	0	0	0	0	0
120618	12:08:54	12:16:48	471491	5.0.10.0	4_exp_AWA_CON_AMP_EVA	985	Rpleas_acq	Same	Rpleas	Bmasked	CS_B	2pleas	distractor2	cond_US_pleas_123_masked_CS1	condtest_masked_2	9	29	400	0	300	300	0	0	519	50	0	1	0	0	0	1	blank2r.bmp	0	1	+	0	3	B3r.bmp	492	1	blank2r.bmp	786	1	BMVZ	786	1	blank2r.bmp	866	1	treu	866	1	!	1239	1	!	-1	0	0	0	0	0	0	0	0	0	0	0	0	0	0	0	0	0	0	0	0	0	0	0	0	0	0	0
120618	12:08:54	12:16:50	473690	5.0.10.0	4_exp_AWA_CON_AMP_EVA	985	Rpleas_acq	Same	Rpleas	Bmasked	CS_B	2pleas	distractor2	cond_new_unple_456_masked_CS1	condtest_masked_2	9	30	400	1	300	300	0	0	397	46	0	1	0	0	0	1	blank2r.bmp	0	1	+	0	8	C4r.bmp	492	1	blank2r.bmp	786	1	BMVZ	786	1	blank2r.bmp	866	2	lasch	866	1	!	1239	1	!	1292	0	0	0	0	0	0	0	0	0	0	0	0	0	0	0	0	0	0	0	0	0	0	0	0	0	0	0
120618	12:08:54	12:16:52	475942	5.0.10.0	4_exp_AWA_CON_AMP_EVA	985	Rpleas_acq	Same	Rpleas	Bmasked	CS_B	2pleas	distractor2	cond_new_pleas_456_masked_CS1	condtest_masked_2	9	31	400	0	300	300	0	0	489	46	0	0	0	0	0	1	blank2r.bmp	0	1	+	0	2	B2r.bmp	492	1	blank2r.bmp	786	1	BMVZ	786	1	blank2r.bmp	866	2	loyal	866	1	!	1239	1	!	-1	0	0	0	0	0	0	0	0	0	0	0	0	0	0	0	0	0	0	0	0	0	0	0	0	0	0	0
120618	12:08:54	12:16:54	478115	5.0.10.0	4_exp_AWA_CON_AMP_EVA	985	Rpleas_acq	Same	Rpleas	Bmasked	CS_B	2pleas	distractor2	cond_new_pleas_456_masked_CS1	condtest_masked_2	9	32	400	1	300	300	0	0	361	50	0	1	0	0	0	1	blank2r.bmp	0	1	+	0	6	C2r.bmp	492	1	blank2r.bmp	786	1	BMVZ	786	1	blank2r.bmp	866	1	freundlich	866	1	!	1239	1	!	1266	0	0	0	0	0	0	0	0	0	0	0	0	0	0	0	0	0	0	0	0	0	0	0	0	0	0	0
120618	12:08:54	12:16:56	480274	5.0.10.0	4_exp_AWA_CON_AMP_EVA	985	Rpleas_acq	Same	Rpleas	Bmasked	CS_B	2pleas	distractor2	cond_new_unple_456_masked_CS1	condtest_masked_2	9	33	400	1	300	300	0	0	357	50	0	0	0	0	0	1	blank2r.bmp	0	1	+	0	1	B1r.bmp	492	1	blank2r.bmp	786	1	BMVZ	786	1	blank2r.bmp	866	3	rächen	866	1	!	1239	1	!	1252	0	0	0	0	0	0	0	0	0	0	0	0	0	0	0	0	0	0	0	0	0	0	0	0	0	0	0
120618	12:08:54	12:16:59	482339	5.0.10.0	4_exp_AWA_CON_AMP_EVA	985	Rpleas_acq	Same	Rpleas	Bmasked	CS_B	2pleas	distractor2	cond_new_pleas_456_masked_CS1	condtest_masked_2	9	34	400	0	300	300	0	0	301	46	0	0	0	0	0	1	blank2r.bmp	0	1	+	0	4	B4r.bmp	492	1	blank2r.bmp	786	1	BMVZ	786	1	blank2r.bmp	866	2	loyal	866	1	!	-1	1	!	-1	0	0	0	0	0	0	0	0	0	0	0	0	0	0	0	0	0	0	0	0	0	0	0	0	0	0	0
120618	12:08:54	12:17:01	484565	5.0.10.0	4_exp_AWA_CON_AMP_EVA	985	Rpleas_acq	Same	Rpleas	Bmasked	CS_B	2pleas	distractor2	cond_US_unple_123_masked_CS2	condtest_masked_2	9	35	400	1	300	300	0	0	422	50	0	0	0	0	0	1	blank2r.bmp	0	1	+	0	7	C3r.bmp	492	1	blank2r.bmp	786	1	GKQX	786	1	blank2r.bmp	866	2	hindern	866	1	!	1239	1	!	1319	0	0	0	0	0	0	0	0	0	0	0	0	0	0	0	0	0	0	0	0	0	0	0	0	0	0	0
120618	12:08:54	12:17:03	486751	5.0.10.0	4_exp_AWA_CON_AMP_EVA	985	Rpleas_acq	Same	Rpleas	Bmasked	CS_B	2pleas	distractor2	cond_US_pleas_123_masked_CS2	condtest_masked_2	9	36	400	1	300	300	0	0	393	50	0	1	0	0	0	1	blank2r.bmp	0	1	+	0	5	C1r.bmp	492	1	blank2r.bmp	786	1	GKQX	786	1	blank2r.bmp	866	2	helfen	866	1	!	1239	1	!	1292	0	0	0	0	0	0	0	0	0	0	0	0	0	0	0	0	0	0	0	0	0	0	0	0	0	0	0
120618	12:08:54	12:17:05	489003	5.0.10.0	4_exp_AWA_CON_AMP_EVA	985	Rpleas_acq	Same	Rpleas	Bmasked	CS_B	2pleas	distractor2	cond_new_unple_456_masked_CS1	condtest_masked_2	9	37	400	0	300	300	0	0	485	46	0	1	0	0	0	1	blank2r.bmp	0	1	+	0	1	B1r.bmp	492	1	blank2r.bmp	786	1	BMVZ	786	1	blank2r.bmp	866	1	fanatisch	866	1	!	1239	1	!	-1	0	0	0	0	0	0	0	0	0	0	0	0	0	0	0	0	0	0	0	0	0	0	0	0	0	0	0
120618	12:08:54	12:17:07	491189	5.0.10.0	4_exp_AWA_CON_AMP_EVA	985	Rpleas_acq	Same	Rpleas	Bmasked	CS_B	2pleas	distractor2	cond_US_pleas_123_masked_CS1	condtest_masked_2	9	38	400	1	300	300	0	0	359	50	0	1	0	0	0	1	blank2r.bmp	0	1	+	0	6	C2r.bmp	492	1	blank2r.bmp	786	1	BMVZ	786	1	blank2r.bmp	866	3	fair	866	1	!	1239	1	!	1266	0	0	0	0	0	0	0	0	0	0	0	0	0	0	0	0	0	0	0	0	0	0	0	0	0	0	0
120618	12:08:54	12:17:10	493348	5.0.10.0	4_exp_AWA_CON_AMP_EVA	985	Rpleas_acq	Same	Rpleas	Bmasked	CS_B	2pleas	distractor2	cond_new_pleas_456_masked_CS1	condtest_masked_2	9	39	400	1	300	300	0	0	368	46	0	0	0	0	0	1	blank2r.bmp	0	1	+	0	2	B2r.bmp	492	1	blank2r.bmp	786	1	BMVZ	786	1	blank2r.bmp	866	3	retten	866	1	!	1239	1	!	1266	0	0	0	0	0	0	0	0	0	0	0	0	0	0	0	0	0	0	0	0	0	0	0	0	0	0	0
120618	12:08:54	12:17:12	495414	5.0.10.0	4_exp_AWA_CON_AMP_EVA	985	Rpleas_acq	Same	Rpleas	Bmasked	CS_B	2pleas	distractor2	cond_US_unple_123_masked_CS2	condtest_masked_2	9	40	400	0	300	300	0	0	299	46	0	1	0	0	0	1	blank2r.bmp	0	1	+	0	7	C3r.bmp	492	1	blank2r.bmp	786	1	GKQX	786	1	blank2r.bmp	866	1	tot	866	1	!	-1	1	!	-1	0	0	0	0	0	0	0	0	0	0	0	0	0	0	0	0	0	0	0	0	0	0	0	0	0	0	0
120618	12:08:54	12:17:16	499466	5.0.10.0	4_exp_AWA_CON_AMP_EVA	985	Rpleas_acq	Same	Rpleas	Bmasked	CS_B	2pleas	distractor2	cond_new_unple_123_masked_CS1	condtest_masked_3	10	1	400	1	300	300	0	0	379	46	0	1	0	0	0	1	blank2r.bmp	0	1	+	0	3	B3r.bmp	492	1	blank2r.bmp	786	1	BMVZ	786	1	blank2r.bmp	866	1	leiden	866	1	!	1239	1	!	1279	0	0	0	0	0	0	0	0	0	0	0	0	0	0	0	0	0	0	0	0	0	0	0	0	0	0	0
120618	12:08:54	12:17:18	501558	5.0.10.0	4_exp_AWA_CON_AMP_EVA	985	Rpleas_acq	Same	Rpleas	Bmasked	CS_B	2pleas	distractor2	cond_new_unple_123_masked_CS2	condtest_masked_3	10	2	400	0	300	300	0	0	328	50	0	0	0	0	0	1	blank2r.bmp	0	1	+	0	5	C1r.bmp	492	1	blank2r.bmp	786	1	GKQX	786	1	blank2r.bmp	866	2	schroff	866	1	!	-1	1	!	-1	0	0	0	0	0	0	0	0	0	0	0	0	0	0	0	0	0	0	0	0	0	0	0	0	0	0	0
120618	12:08:54	12:17:20	503824	5.0.10.0	4_exp_AWA_CON_AMP_EVA	985	Rpleas_acq	Same	Rpleas	Bmasked	CS_B	2pleas	distractor2	cond_new_unple_123_masked_CS2	condtest_masked_3	10	3	400	1	300	300	0	0	453	46	0	1	0	0	0	1	blank2r.bmp	0	1	+	0	4	B4r.bmp	492	1	blank2r.bmp	786	1	GKQX	786	1	blank2r.bmp	866	3	schlecht	866	1	!	1239	1	!	1359	0	0	0	0	0	0	0	0	0	0	0	0	0	0	0	0	0	0	0	0	0	0	0	0	0	0	0
120618	12:08:54	12:17:22	505970	5.0.10.0	4_exp_AWA_CON_AMP_EVA	985	Rpleas_acq	Same	Rpleas	Bmasked	CS_B	2pleas	distractor2	cond_US_unple_456_masked_CS2	condtest_masked_3	10	4	400	1	300	300	0	0	346	50	0	0	0	0	0	1	blank2r.bmp	0	1	+	0	8	C4r.bmp	492	1	blank2r.bmp	786	1	GKQX	786	1	blank2r.bmp	866	2	strafen	866	1	!	1239	1	!	1252	0	0	0	0	0	0	0	0	0	0	0	0	0	0	0	0	0	0	0	0	0	0	0	0	0	0	0
120618	12:08:54	12:17:24	508182	5.0.10.0	4_exp_AWA_CON_AMP_EVA	985	Rpleas_acq	Same	Rpleas	Bmasked	CS_B	2pleas	distractor2	cond_new_pleas_123_masked_CS2	condtest_masked_3	10	5	400	1	300	300	0	0	423	46	0	0	0	0	0	1	blank2r.bmp	0	1	+	0	3	B3r.bmp	492	1	blank2r.bmp	786	1	GKQX	786	1	blank2r.bmp	866	1	lachen	866	1	!	1239	1	!	1319	0	0	0	0	0	0	0	0	0	0	0	0	0	0	0	0	0	0	0	0	0	0	0	0	0	0	0
120618	12:08:54	12:17:27	510341	5.0.10.0	4_exp_AWA_CON_AMP_EVA	985	Rpleas_acq	Same	Rpleas	Bmasked	CS_B	2pleas	distractor2	cond_US_pleas_456_masked_CS2	condtest_masked_3	10	6	400	1	300	300	0	0	363	50	0	1	0	0	0	1	blank2r.bmp	0	1	+	0	6	C2r.bmp	492	1	blank2r.bmp	786	1	GKQX	786	1	blank2r.bmp	866	3	tolerant	866	1	!	1239	1	!	1266	0	0	0	0	0	0	0	0	0	0	0	0	0	0	0	0	0	0	0	0	0	0	0	0	0	0	0
120618	12:08:54	12:17:29	512434	5.0.10.0	4_exp_AWA_CON_AMP_EVA	985	Rpleas_acq	Same	Rpleas	Bmasked	CS_B	2pleas	distractor2	cond_US_unple_456_masked_CS2	condtest_masked_3	10	7	400	0	300	300	0	0	313	46	0	1	0	0	0	1	blank2r.bmp	0	1	+	0	1	B1r.bmp	492	1	blank2r.bmp	786	1	GKQX	786	1	blank2r.bmp	866	3	tyrannisch	866	1	!	-1	1	!	-1	0	0	0	0	0	0	0	0	0	0	0	0	0	0	0	0	0	0	0	0	0	0	0	0	0	0	0
120618	12:08:54	12:17:31	514526	5.0.10.0	4_exp_AWA_CON_AMP_EVA	985	Rpleas_acq	Same	Rpleas	Bmasked	CS_B	2pleas	distractor2	cond_new_unple_123_masked_CS1	condtest_masked_3	10	8	400	0	300	300	0	0	310	46	0	1	0	0	0	1	blank2r.bmp	0	1	+	0	5	C1r.bmp	492	1	blank2r.bmp	786	1	BMVZ	786	1	blank2r.bmp	866	3	schlecht	866	1	!	-1	1	!	-1	0	0	0	0	0	0	0	0	0	0	0	0	0	0	0	0	0	0	0	0	0	0	0	0	0	0	0
120618	12:08:54	12:17:33	516752	5.0.10.0	4_exp_AWA_CON_AMP_EVA	985	Rpleas_acq	Same	Rpleas	Bmasked	CS_B	2pleas	distractor2	cond_US_unple_456_masked_CS1	condtest_masked_3	10	9	400	1	300	300	0	0	404	46	0	1	0	0	0	1	blank2r.bmp	0	1	+	0	4	B4r.bmp	492	1	blank2r.bmp	786	1	BMVZ	786	1	blank2r.bmp	866	1	eitel	866	1	!	1239	1	!	1306	0	0	0	0	0	0	0	0	0	0	0	0	0	0	0	0	0	0	0	0	0	0	0	0	0	0	0
120618	12:08:54	12:17:35	518951	5.0.10.0	4_exp_AWA_CON_AMP_EVA	985	Rpleas_acq	Same	Rpleas	Bmasked	CS_B	2pleas	distractor2	cond_new_unple_123_masked_CS2	condtest_masked_3	10	10	400	1	300	300	0	0	405	46	0	1	0	0	0	1	blank2r.bmp	0	1	+	0	7	C3r.bmp	492	1	blank2r.bmp	786	1	GKQX	786	1	blank2r.bmp	866	2	schroff	866	1	!	1239	1	!	1306	0	0	0	0	0	0	0	0	0	0	0	0	0	0	0	0	0	0	0	0	0	0	0	0	0	0	0
120618	12:08:54	12:17:37	521137	5.0.10.0	4_exp_AWA_CON_AMP_EVA	985	Rpleas_acq	Same	Rpleas	Bmasked	CS_B	2pleas	distractor2	cond_US_unple_456_masked_CS1	condtest_masked_3	10	11	400	1	300	300	0	0	390	50	0	0	0	0	0	1	blank2r.bmp	0	1	+	0	2	B2r.bmp	492	1	blank2r.bmp	786	1	BMVZ	786	1	blank2r.bmp	866	1	eitel	866	1	!	1239	1	!	1292	0	0	0	0	0	0	0	0	0	0	0	0	0	0	0	0	0	0	0	0	0	0	0	0	0	0	0
120618	12:08:54	12:17:40	523363	5.0.10.0	4_exp_AWA_CON_AMP_EVA	985	Rpleas_acq	Same	Rpleas	Bmasked	CS_B	2pleas	distractor2	cond_new_unple_123_masked_CS1	condtest_masked_3	10	12	400	1	300	300	0	0	421	46	0	1	0	0	0	1	blank2r.bmp	0	1	+	0	8	C4r.bmp	492	1	blank2r.bmp	786	1	BMVZ	786	1	blank2r.bmp	866	1	leiden	866	1	!	1239	1	!	1319	0	0	0	0	0	0	0	0	0	0	0	0	0	0	0	0	0	0	0	0	0	0	0	0	0	0	0
120618	12:08:54	12:17:42	525575	5.0.10.0	4_exp_AWA_CON_AMP_EVA	985	Rpleas_acq	Same	Rpleas	Bmasked	CS_B	2pleas	distractor2	cond_US_unple_456_masked_CS1	condtest_masked_3	10	13	400	1	300	300	0	0	424	50	0	0	0	0	0	1	blank2r.bmp	0	1	+	0	8	C4r.bmp	492	1	blank2r.bmp	786	1	BMVZ	786	1	blank2r.bmp	866	3	tyrannisch	866	1	!	1239	1	!	1319	0	0	0	0	0	0	0	0	0	0	0	0	0	0	0	0	0	0	0	0	0	0	0	0	0	0	0
120618	12:08:54	12:17:44	527814	5.0.10.0	4_exp_AWA_CON_AMP_EVA	985	Rpleas_acq	Same	Rpleas	Bmasked	CS_B	2pleas	distractor2	cond_new_pleas_123_masked_CS1	condtest_masked_3	10	14	400	1	300	300	0	0	443	46	0	0	0	0	0	1	blank2r.bmp	0	1	+	0	2	B2r.bmp	492	1	blank2r.bmp	786	1	BMVZ	786	1	blank2r.bmp	866	2	schlau	866	1	!	1239	1	!	1346	0	0	0	0	0	0	0	0	0	0	0	0	0	0	0	0	0	0	0	0	0	0	0	0	0	0	0
120618	12:08:54	12:17:46	529920	5.0.10.0	4_exp_AWA_CON_AMP_EVA	985	Rpleas_acq	Same	Rpleas	Bmasked	CS_B	2pleas	distractor2	cond_US_pleas_456_masked_CS1	condtest_masked_3	10	15	400	0	300	300	0	0	327	50	0	1	0	0	0	1	blank2r.bmp	0	1	+	0	7	C3r.bmp	492	1	blank2r.bmp	786	1	BMVZ	786	1	blank2r.bmp	866	1	ehrlich	866	1	!	-1	1	!	-1	0	0	0	0	0	0	0	0	0	0	0	0	0	0	0	0	0	0	0	0	0	0	0	0	0	0	0
120618	12:08:54	12:17:48	532186	5.0.10.0	4_exp_AWA_CON_AMP_EVA	985	Rpleas_acq	Same	Rpleas	Bmasked	CS_B	2pleas	distractor2	cond_new_pleas_123_masked_CS2	condtest_masked_3	10	16	400	1	300	300	0	0	452	50	0	1	0	0	0	1	blank2r.bmp	0	1	+	0	4	B4r.bmp	492	1	blank2r.bmp	786	1	GKQX	786	1	blank2r.bmp	866	3	schön	866	1	!	1239	1	!	1359	0	0	0	0	0	0	0	0	0	0	0	0	0	0	0	0	0	0	0	0	0	0	0	0	0	0	0
120618	12:08:54	12:17:51	534385	5.0.10.0	4_exp_AWA_CON_AMP_EVA	985	Rpleas_acq	Same	Rpleas	Bmasked	CS_B	2pleas	distractor2	cond_new_pleas_123_masked_CS2	condtest_masked_3	10	17	400	1	300	300	0	0	400	50	0	1	0	0	0	1	blank2r.bmp	0	1	+	0	3	B3r.bmp	492	1	blank2r.bmp	786	1	GKQX	786	1	blank2r.bmp	866	1	lachen	866	1	!	1239	1	!	1306	0	0	0	0	0	0	0	0	0	0	0	0	0	0	0	0	0	0	0	0	0	0	0	0	0	0	0
120618	12:08:54	12:17:53	536637	5.0.10.0	4_exp_AWA_CON_AMP_EVA	985	Rpleas_acq	Same	Rpleas	Bmasked	CS_B	2pleas	distractor2	cond_US_unple_456_masked_CS1	condtest_masked_3	10	18	400	1	300	300	0	0	462	50	0	0	0	0	0	1	blank2r.bmp	0	1	+	0	1	B1r.bmp	492	1	blank2r.bmp	786	1	BMVZ	786	1	blank2r.bmp	866	2	strafen	866	1	!	1239	1	!	1359	0	0	0	0	0	0	0	0	0	0	0	0	0	0	0	0	0	0	0	0	0	0	0	0	0	0	0
120618	12:08:54	12:17:55	538890	5.0.10.0	4_exp_AWA_CON_AMP_EVA	985	Rpleas_acq	Same	Rpleas	Bmasked	CS_B	2pleas	distractor2	cond_new_unple_123_masked_CS2	condtest_masked_3	10	19	400	0	300	300	0	0	479	46	0	1	0	0	0	1	blank2r.bmp	0	1	+	0	5	C1r.bmp	492	1	blank2r.bmp	786	1	GKQX	786	1	blank2r.bmp	866	2	schroff	866	1	!	1239	1	!	-1	0	0	0	0	0	0	0	0	0	0	0	0	0	0	0	0	0	0	0	0	0	0	0	0	0	0	0
120618	12:08:54	12:17:57	541075	5.0.10.0	4_exp_AWA_CON_AMP_EVA	985	Rpleas_acq	Same	Rpleas	Bmasked	CS_B	2pleas	distractor2	cond_US_unple_456_masked_CS2	condtest_masked_3	10	20	400	1	300	300	0	0	375	46	0	1	0	0	0	1	blank2r.bmp	0	1	+	0	6	C2r.bmp	492	1	blank2r.bmp	786	1	GKQX	786	1	blank2r.bmp	866	3	tyrannisch	866	1	!	1239	1	!	1279	0	0	0	0	0	0	0	0	0	0	0	0	0	0	0	0	0	0	0	0	0	0	0	0	0	0	0
120618	12:08:54	12:17:59	543234	5.0.10.0	4_exp_AWA_CON_AMP_EVA	985	Rpleas_acq	Same	Rpleas	Bmasked	CS_B	2pleas	distractor2	cond_US_pleas_456_masked_CS1	condtest_masked_3	10	21	400	1	300	300	0	0	346	50	0	1	0	0	0	1	blank2r.bmp	0	1	+	0	5	C1r.bmp	492	1	blank2r.bmp	786	1	BMVZ	786	1	blank2r.bmp	866	2	spielen	866	1	!	1239	1	!	1252	0	0	0	0	0	0	0	0	0	0	0	0	0	0	0	0	0	0	0	0	0	0	0	0	0	0	0
120618	12:08:54	12:18:02	545460	5.0.10.0	4_exp_AWA_CON_AMP_EVA	985	Rpleas_acq	Same	Rpleas	Bmasked	CS_B	2pleas	distractor2	cond_US_pleas_456_masked_CS2	condtest_masked_3	10	22	400	1	300	300	0	0	427	50	0	1	0	0	0	1	blank2r.bmp	0	1	+	0	4	B4r.bmp	492	1	blank2r.bmp	786	1	GKQX	786	1	blank2r.bmp	866	1	ehrlich	866	1	!	1239	1	!	1332	0	0	0	0	0	0	0	0	0	0	0	0	0	0	0	0	0	0	0	0	0	0	0	0	0	0	0
120618	12:08:54	12:18:04	547619	5.0.10.0	4_exp_AWA_CON_AMP_EVA	985	Rpleas_acq	Same	Rpleas	Bmasked	CS_B	2pleas	distractor2	cond_new_unple_123_masked_CS1	condtest_masked_3	10	23	400	1	300	300	0	0	369	46	0	1	0	0	0	1	blank2r.bmp	0	1	+	0	1	B1r.bmp	492	1	blank2r.bmp	786	1	BMVZ	786	1	blank2r.bmp	866	1	leiden	866	1	!	1239	1	!	1266	0	0	0	0	0	0	0	0	0	0	0	0	0	0	0	0	0	0	0	0	0	0	0	0	0	0	0
120618	12:08:54	12:18:06	549872	5.0.10.0	4_exp_AWA_CON_AMP_EVA	985	Rpleas_acq	Same	Rpleas	Bmasked	CS_B	2pleas	distractor2	cond_US_pleas_456_masked_CS1	condtest_masked_3	10	24	400	0	300	300	0	0	479	50	0	1	0	0	0	1	blank2r.bmp	0	1	+	0	6	C2r.bmp	492	1	blank2r.bmp	786	1	BMVZ	786	1	blank2r.bmp	866	2	spielen	866	1	!	1239	1	!	-1	0	0	0	0	0	0	0	0	0	0	0	0	0	0	0	0	0	0	0	0	0	0	0	0	0	0	0
120618	12:08:54	12:18:08	551951	5.0.10.0	4_exp_AWA_CON_AMP_EVA	985	Rpleas_acq	Same	Rpleas	Bmasked	CS_B	2pleas	distractor2	cond_new_pleas_123_masked_CS2	condtest_masked_3	10	25	400	0	300	300	0	0	297	46	0	0	0	0	0	1	blank2r.bmp	0	1	+	0	2	B2r.bmp	492	1	blank2r.bmp	786	1	GKQX	786	1	blank2r.bmp	866	3	schön	866	1	!	-1	1	!	-1	0	0	0	0	0	0	0	0	0	0	0	0	0	0	0	0	0	0	0	0	0	0	0	0	0	0	0
120618	12:08:54	12:18:10	554123	5.0.10.0	4_exp_AWA_CON_AMP_EVA	985	Rpleas_acq	Same	Rpleas	Bmasked	CS_B	2pleas	distractor2	cond_new_pleas_123_masked_CS1	condtest_masked_3	10	26	400	1	300	300	0	0	346	50	0	1	0	0	0	1	blank2r.bmp	0	1	+	0	8	C4r.bmp	492	1	blank2r.bmp	786	1	BMVZ	786	1	blank2r.bmp	866	2	schlau	866	1	!	1239	1	!	1252	0	0	0	0	0	0	0	0	0	0	0	0	0	0	0	0	0	0	0	0	0	0	0	0	0	0	0
120618	12:08:54	12:18:12	556309	5.0.10.0	4_exp_AWA_CON_AMP_EVA	985	Rpleas_acq	Same	Rpleas	Bmasked	CS_B	2pleas	distractor2	cond_US_pleas_456_masked_CS2	condtest_masked_3	10	27	400	1	300	300	0	0	395	46	0	0	0	0	0	1	blank2r.bmp	0	1	+	0	3	B3r.bmp	492	1	blank2r.bmp	786	1	GKQX	786	1	blank2r.bmp	866	3	tolerant	866	1	!	1239	1	!	1292	0	0	0	0	0	0	0	0	0	0	0	0	0	0	0	0	0	0	0	0	0	0	0	0	0	0	0
120618	12:08:54	12:18:15	558548	5.0.10.0	4_exp_AWA_CON_AMP_EVA	985	Rpleas_acq	Same	Rpleas	Bmasked	CS_B	2pleas	distractor2	cond_new_pleas_123_masked_CS1	condtest_masked_3	10	28	400	1	300	300	0	0	440	50	0	1	0	0	0	1	blank2r.bmp	0	1	+	0	7	C3r.bmp	492	1	blank2r.bmp	786	1	BMVZ	786	1	blank2r.bmp	866	1	lachen	866	1	!	1239	1	!	1346	0	0	0	0	0	0	0	0	0	0	0	0	0	0	0	0	0	0	0	0	0	0	0	0	0	0	0
120618	12:08:54	12:18:17	560761	5.0.10.0	4_exp_AWA_CON_AMP_EVA	985	Rpleas_acq	Same	Rpleas	Bmasked	CS_B	2pleas	distractor2	cond_US_pleas_456_masked_CS2	condtest_masked_3	10	29	400	1	300	300	0	0	416	50	0	1	0	0	0	1	blank2r.bmp	0	1	+	0	6	C2r.bmp	492	1	blank2r.bmp	786	1	GKQX	786	1	blank2r.bmp	866	2	spielen	866	1	!	1239	1	!	1319	0	0	0	0	0	0	0	0	0	0	0	0	0	0	0	0	0	0	0	0	0	0	0	0	0	0	0
120618	12:08:54	12:18:19	562946	5.0.10.0	4_exp_AWA_CON_AMP_EVA	985	Rpleas_acq	Same	Rpleas	Bmasked	CS_B	2pleas	distractor2	cond_US_unple_456_masked_CS1	condtest_masked_3	10	30	400	1	300	300	0	0	375	46	0	1	0	0	0	1	blank2r.bmp	0	1	+	0	1	B1r.bmp	492	1	blank2r.bmp	786	1	BMVZ	786	1	blank2r.bmp	866	2	strafen	866	1	!	1239	1	!	1279	0	0	0	0	0	0	0	0	0	0	0	0	0	0	0	0	0	0	0	0	0	0	0	0	0	0	0
120618	12:08:54	12:18:21	565132	5.0.10.0	4_exp_AWA_CON_AMP_EVA	985	Rpleas_acq	Same	Rpleas	Bmasked	CS_B	2pleas	distractor2	cond_US_pleas_456_masked_CS2	condtest_masked_3	10	31	400	1	300	300	0	0	373	50	0	1	0	0	0	1	blank2r.bmp	0	1	+	0	5	C1r.bmp	492	1	blank2r.bmp	786	1	GKQX	786	1	blank2r.bmp	866	3	tolerant	866	1	!	1239	1	!	1279	0	0	0	0	0	0	0	0	0	0	0	0	0	0	0	0	0	0	0	0	0	0	0	0	0	0	0
120618	12:08:54	12:18:23	567225	5.0.10.0	4_exp_AWA_CON_AMP_EVA	985	Rpleas_acq	Same	Rpleas	Bmasked	CS_B	2pleas	distractor2	cond_US_pleas_456_masked_CS1	condtest_masked_3	10	32	400	0	300	300	0	0	322	46	0	0	0	0	0	1	blank2r.bmp	0	1	+	0	8	C4r.bmp	492	1	blank2r.bmp	786	1	BMVZ	786	1	blank2r.bmp	866	1	ehrlich	866	1	!	-1	1	!	-1	0	0	0	0	0	0	0	0	0	0	0	0	0	0	0	0	0	0	0	0	0	0	0	0	0	0	0
120618	12:08:54	12:18:26	569437	5.0.10.0	4_exp_AWA_CON_AMP_EVA	985	Rpleas_acq	Same	Rpleas	Bmasked	CS_B	2pleas	distractor2	cond_US_unple_456_masked_CS2	condtest_masked_3	10	33	400	1	300	300	0	0	400	46	0	1	0	0	0	1	blank2r.bmp	0	1	+	0	2	B2r.bmp	492	1	blank2r.bmp	786	1	GKQX	786	1	blank2r.bmp	866	1	eitel	866	1	!	1239	1	!	1306	0	0	0	0	0	0	0	0	0	0	0	0	0	0	0	0	0	0	0	0	0	0	0	0	0	0	0
120618	12:08:54	12:18:28	571676	5.0.10.0	4_exp_AWA_CON_AMP_EVA	985	Rpleas_acq	Same	Rpleas	Bmasked	CS_B	2pleas	distractor2	cond_US_pleas_456_masked_CS1	condtest_masked_3	10	34	400	1	300	300	0	0	447	46	0	0	0	0	0	1	blank2r.bmp	0	1	+	0	3	B3r.bmp	492	1	blank2r.bmp	786	1	BMVZ	786	1	blank2r.bmp	866	2	spielen	866	1	!	1239	1	!	1346	0	0	0	0	0	0	0	0	0	0	0	0	0	0	0	0	0	0	0	0	0	0	0	0	0	0	0
120618	12:08:54	12:18:30	573928	5.0.10.0	4_exp_AWA_CON_AMP_EVA	985	Rpleas_acq	Same	Rpleas	Bmasked	CS_B	2pleas	distractor2	cond_new_unple_123_masked_CS2	condtest_masked_3	10	35	400	0	300	300	0	0	479	50	0	0	0	0	0	1	blank2r.bmp	0	1	+	0	4	B4r.bmp	492	1	blank2r.bmp	786	1	GKQX	786	1	blank2r.bmp	866	3	schlecht	866	1	!	1239	1	!	-1	0	0	0	0	0	0	0	0	0	0	0	0	0	0	0	0	0	0	0	0	0	0	0	0	0	0	0
120618	12:08:54	12:18:32	576141	5.0.10.0	4_exp_AWA_CON_AMP_EVA	985	Rpleas_acq	Same	Rpleas	Bmasked	CS_B	2pleas	distractor2	cond_US_unple_456_masked_CS2	condtest_masked_3	10	36	400	1	300	300	0	0	404	50	0	0	0	0	0	1	blank2r.bmp	0	1	+	0	7	C3r.bmp	492	1	blank2r.bmp	786	1	GKQX	786	1	blank2r.bmp	866	2	strafen	866	1	!	1239	1	!	1306	0	0	0	0	0	0	0	0	0	0	0	0	0	0	0	0	0	0	0	0	0	0	0	0	0	0	0
120618	12:08:54	12:18:35	578367	5.0.10.0	4_exp_AWA_CON_AMP_EVA	985	Rpleas_acq	Same	Rpleas	Bmasked	CS_B	2pleas	distractor2	cond_new_pleas_123_masked_CS2	condtest_masked_3	10	37	400	1	300	300	0	0	436	50	0	1	0	0	0	1	blank2r.bmp	0	1	+	0	4	B4r.bmp	492	1	blank2r.bmp	786	1	GKQX	786	1	blank2r.bmp	866	2	schlau	866	1	!	1239	1	!	1332	0	0	0	0	0	0	0	0	0	0	0	0	0	0	0	0	0	0	0	0	0	0	0	0	0	0	0
120618	12:08:54	12:18:37	580512	5.0.10.0	4_exp_AWA_CON_AMP_EVA	985	Rpleas_acq	Same	Rpleas	Bmasked	CS_B	2pleas	distractor2	cond_new_pleas_123_masked_CS1	condtest_masked_3	10	38	400	1	300	300	0	0	347	50	0	1	0	0	0	1	blank2r.bmp	0	1	+	0	1	B1r.bmp	492	1	blank2r.bmp	786	1	BMVZ	786	1	blank2r.bmp	866	3	schön	866	1	!	1239	1	!	1252	0	0	0	0	0	0	0	0	0	0	0	0	0	0	0	0	0	0	0	0	0	0	0	0	0	0	0
120618	12:08:54	12:18:39	582671	5.0.10.0	4_exp_AWA_CON_AMP_EVA	985	Rpleas_acq	Same	Rpleas	Bmasked	CS_B	2pleas	distractor2	cond_US_unple_456_masked_CS1	condtest_masked_3	10	39	400	1	300	300	0	0	346	50	0	0	0	0	0	1	blank2r.bmp	0	1	+	0	3	B3r.bmp	492	1	blank2r.bmp	786	1	BMVZ	786	1	blank2r.bmp	866	1	eitel	866	1	!	1239	1	!	1252	0	0	0	0	0	0	0	0	0	0	0	0	0	0	0	0	0	0	0	0	0	0	0	0	0	0	0
120618	12:08:54	12:18:41	584857	5.0.10.0	4_exp_AWA_CON_AMP_EVA	985	Rpleas_acq	Same	Rpleas	Bmasked	CS_B	2pleas	distractor2	cond_new_unple_123_masked_CS1	condtest_masked_3	10	40	400	1	300	300	0	0	395	46	0	1	0	0	0	1	blank2r.bmp	0	1	+	0	6	C2r.bmp	492	1	blank2r.bmp	786	1	BMVZ	786	1	blank2r.bmp	866	3	schlecht	866	1	!	1239	1	!	1292	0	0	0	0	0	0	0	0	0	0	0	0	0	0	0	0	0	0	0	0	0	0	0	0	0	0	0
