date	time	script.currenttime	script.elapsedtime	build	script.currentexpt	subject	expressions.LRpleas_acq	expressions.SameOppo	expressions.condition_Lpleas	expressions.ABmasked	expressions.conditionCS_A	expressions.condition_1pleas	expressions.condition_distractor_AMP	expressions.AWACON_AMPEVA_first	trialcode	blockcode	blocknum	trialnum	windowcenter	inwindow	pretrialpause	posttrialpause	trialduration	trialtimeout	latency	response	expressions.correctedscore	correct	values.vis_performance	values.vis_rating_sum	values.vis_rating_mean	stimulusnumber1	stimulusitem1	stimulusonset1	stimulusnumber2	stimulusitem2	stimulusonset2	stimulusnumber3	stimulusitem3	stimulusonset3	stimulusnumber4	stimulusitem4	stimulusonset4	stimulusnumber5	stimulusitem5	stimulusonset5	stimulusnumber6	stimulusitem6	stimulusonset6	stimulusnumber7	stimulusitem7	stimulusonset7	stimulusnumber8	stimulusitem8	stimulusonset8	stimulusnumber9	stimulusitem9	stimulusonset9	stimulusnumber10	stimulusitem10	stimulusonset10	stimulusnumber11	stimulusitem11	stimulusonset11	stimulusnumber12	stimulusitem12	stimulusonset12	stimulusnumber13	stimulusitem13	stimulusonset13	stimulusnumber14	stimulusitem14	stimulusonset14	stimulusnumber15	stimulusitem15	stimulusonset15	stimulusnumber16	stimulusitem16	stimulusonset16	stimulusnumber17	stimulusitem17	stimulusonset17	stimulusnumber18	stimulusitem18	stimulusonset18
011119	09:59:48	10:01:53	122934	5.0.10.0	4_exp_AWA_CON_EVA_AMP	63	Rpleas_acq	Oppo	Rpleas	Amasked	CS_A	1pleas	distractor1	CONbeforeEVA	acq_US_pleas_masked	acq1_masked	1	1	0	0	300	300	0	0	958	46	0	0	0	0	0	1	blank2r.bmp	0	1	+	0	6	C2r.bmp	492	1	blank2r.bmp	786	1	CPLW	786	1	blank2r.bmp	866	4	vergnügt	866	1	FEHLER	1865	0	0	0	0	0	0	0	0	0	0	0	0	0	0	0	0	0	0	0	0	0	0	0	0	0	0	0	0	0	0
011119	09:59:48	10:01:56	125560	5.0.10.0	4_exp_AWA_CON_EVA_AMP	63	Rpleas_acq	Oppo	Rpleas	Amasked	CS_A	1pleas	distractor1	CONbeforeEVA	acq_new_unple_masked	acq1_masked	1	2	0	0	300	300	0	0	1362	46	0	1	0	0	0	1	blank2r.bmp	0	1	+	0	1	B1r.bmp	492	1	blank2r.bmp	786	5	C1r.bmp	786	1	blank2r.bmp	866	6	krank	866	0	0	0	0	0	0	0	0	0	0	0	0	0	0	0	0	0	0	0	0	0	0	0	0	0	0	0	0	0	0	0	0	0
011119	09:59:48	10:01:58	127772	5.0.10.0	4_exp_AWA_CON_EVA_AMP	63	Rpleas_acq	Oppo	Rpleas	Amasked	CS_A	1pleas	distractor1	CONbeforeEVA	acq_US_unple_masked	acq1_masked	1	3	0	0	300	300	0	0	741	46	0	1	0	0	0	1	blank2r.bmp	0	1	+	0	4	B4r.bmp	492	1	blank2r.bmp	786	1	DHJF	786	1	blank2r.bmp	866	2	krise	866	0	0	0	0	0	0	0	0	0	0	0	0	0	0	0	0	0	0	0	0	0	0	0	0	0	0	0	0	0	0	0	0	0
011119	09:59:48	10:02:00	129771	5.0.10.0	4_exp_AWA_CON_EVA_AMP	63	Rpleas_acq	Oppo	Rpleas	Amasked	CS_A	1pleas	distractor1	CONbeforeEVA	acq_new_pleas_masked	acq1_masked	1	4	0	0	300	300	0	0	513	50	0	1	0	0	0	1	blank2r.bmp	0	1	+	0	8	C4r.bmp	492	1	blank2r.bmp	786	1	B1r.bmp	786	1	blank2r.bmp	866	2	genießen	866	0	0	0	0	0	0	0	0	0	0	0	0	0	0	0	0	0	0	0	0	0	0	0	0	0	0	0	0	0	0	0	0	0
011119	09:59:48	10:02:02	131957	5.0.10.0	4_exp_AWA_CON_EVA_AMP	63	Rpleas_acq	Oppo	Rpleas	Amasked	CS_A	1pleas	distractor1	CONbeforeEVA	acq_new_unple_masked	acq1_masked	1	5	0	0	300	300	0	0	706	46	0	1	0	0	0	1	blank2r.bmp	0	1	+	0	7	C3r.bmp	492	1	blank2r.bmp	786	3	B3r.bmp	786	1	blank2r.bmp	866	5	versagen	866	0	0	0	0	0	0	0	0	0	0	0	0	0	0	0	0	0	0	0	0	0	0	0	0	0	0	0	0	0	0	0	0	0
011119	09:59:48	10:02:04	133996	5.0.10.0	4_exp_AWA_CON_EVA_AMP	63	Rpleas_acq	Oppo	Rpleas	Amasked	CS_A	1pleas	distractor1	CONbeforeEVA	acq_US_unple_masked	acq1_masked	1	6	0	0	300	300	0	0	569	46	0	1	0	0	0	1	blank2r.bmp	0	1	+	0	5	C1r.bmp	492	1	blank2r.bmp	786	1	DHJF	786	1	blank2r.bmp	866	4	verbissen	866	0	0	0	0	0	0	0	0	0	0	0	0	0	0	0	0	0	0	0	0	0	0	0	0	0	0	0	0	0	0	0	0	0
011119	09:59:48	10:02:07	136355	5.0.10.0	4_exp_AWA_CON_EVA_AMP	63	Rpleas_acq	Oppo	Rpleas	Amasked	CS_A	1pleas	distractor1	CONbeforeEVA	acq_US_pleas_masked	acq1_masked	1	7	0	0	300	300	0	0	873	50	0	1	0	0	0	1	blank2r.bmp	0	1	+	0	3	B3r.bmp	492	1	blank2r.bmp	786	1	CPLW	786	1	blank2r.bmp	866	6	besonnen	866	0	0	0	0	0	0	0	0	0	0	0	0	0	0	0	0	0	0	0	0	0	0	0	0	0	0	0	0	0	0	0	0	0
011119	09:59:48	10:02:09	138381	5.0.10.0	4_exp_AWA_CON_EVA_AMP	63	Rpleas_acq	Oppo	Rpleas	Amasked	CS_A	1pleas	distractor1	CONbeforeEVA	acq_US_unple_masked	acq1_masked	1	8	0	0	300	300	0	0	555	46	0	1	0	0	0	1	blank2r.bmp	0	1	+	0	2	B2r.bmp	492	1	blank2r.bmp	786	1	DHJF	786	1	blank2r.bmp	866	3	engstirnig	866	0	0	0	0	0	0	0	0	0	0	0	0	0	0	0	0	0	0	0	0	0	0	0	0	0	0	0	0	0	0	0	0	0
011119	09:59:48	10:02:11	140514	5.0.10.0	4_exp_AWA_CON_EVA_AMP	63	Rpleas_acq	Oppo	Rpleas	Amasked	CS_A	1pleas	distractor1	CONbeforeEVA	acq_new_unple_masked	acq1_masked	1	9	0	0	300	300	0	0	653	46	0	1	0	0	0	1	blank2r.bmp	0	1	+	0	1	B1r.bmp	492	1	blank2r.bmp	786	7	C3r.bmp	786	1	blank2r.bmp	866	2	gemein	866	0	0	0	0	0	0	0	0	0	0	0	0	0	0	0	0	0	0	0	0	0	0	0	0	0	0	0	0	0	0	0	0	0
011119	09:59:48	10:02:13	142579	5.0.10.0	4_exp_AWA_CON_EVA_AMP	63	Rpleas_acq	Oppo	Rpleas	Amasked	CS_A	1pleas	distractor1	CONbeforeEVA	acq_US_pleas_masked	acq1_masked	1	10	0	0	300	300	0	0	590	50	0	1	0	0	0	1	blank2r.bmp	0	1	+	0	6	C2r.bmp	492	1	blank2r.bmp	786	1	CPLW	786	1	blank2r.bmp	866	3	engagiert	866	0	0	0	0	0	0	0	0	0	0	0	0	0	0	0	0	0	0	0	0	0	0	0	0	0	0	0	0	0	0	0	0	0
011119	09:59:48	10:02:15	144698	5.0.10.0	4_exp_AWA_CON_EVA_AMP	63	Rpleas_acq	Oppo	Rpleas	Amasked	CS_A	1pleas	distractor1	CONbeforeEVA	acq_new_pleas_masked	acq1_masked	1	11	0	0	300	300	0	0	651	50	0	1	0	0	0	1	blank2r.bmp	0	1	+	0	8	C4r.bmp	492	1	blank2r.bmp	786	4	B4r.bmp	786	1	blank2r.bmp	866	5	vertrauen	866	0	0	0	0	0	0	0	0	0	0	0	0	0	0	0	0	0	0	0	0	0	0	0	0	0	0	0	0	0	0	0	0	0
011119	09:59:48	10:02:17	146804	5.0.10.0	4_exp_AWA_CON_EVA_AMP	63	Rpleas_acq	Oppo	Rpleas	Amasked	CS_A	1pleas	distractor1	CONbeforeEVA	acq_new_pleas_masked	acq1_masked	1	12	0	0	300	300	0	0	626	50	0	1	0	0	0	1	blank2r.bmp	0	1	+	0	3	B3r.bmp	492	1	blank2r.bmp	786	2	B2r.bmp	786	1	blank2r.bmp	866	4	anregung	866	0	0	0	0	0	0	0	0	0	0	0	0	0	0	0	0	0	0	0	0	0	0	0	0	0	0	0	0	0	0	0	0	0
011119	09:59:48	10:02:19	148803	5.0.10.0	4_exp_AWA_CON_EVA_AMP	63	Rpleas_acq	Oppo	Rpleas	Amasked	CS_A	1pleas	distractor1	CONbeforeEVA	acq_US_unple_masked	acq1_masked	1	13	0	0	300	300	0	0	507	46	0	1	0	0	0	1	blank2r.bmp	0	1	+	0	4	B4r.bmp	492	1	blank2r.bmp	786	1	DHJF	786	1	blank2r.bmp	866	6	bange	866	0	0	0	0	0	0	0	0	0	0	0	0	0	0	0	0	0	0	0	0	0	0	0	0	0	0	0	0	0	0	0	0	0
011119	09:59:48	10:02:21	150962	5.0.10.0	4_exp_AWA_CON_EVA_AMP	63	Rpleas_acq	Oppo	Rpleas	Amasked	CS_A	1pleas	distractor1	CONbeforeEVA	acq_US_unple_masked	acq1_masked	1	14	0	0	300	300	0	0	680	46	0	1	0	0	0	1	blank2r.bmp	0	1	+	0	2	B2r.bmp	492	1	blank2r.bmp	786	1	DHJF	786	1	blank2r.bmp	866	5	töten	866	0	0	0	0	0	0	0	0	0	0	0	0	0	0	0	0	0	0	0	0	0	0	0	0	0	0	0	0	0	0	0	0	0
011119	09:59:48	10:02:23	152948	5.0.10.0	4_exp_AWA_CON_EVA_AMP	63	Rpleas_acq	Oppo	Rpleas	Amasked	CS_A	1pleas	distractor1	CONbeforeEVA	acq_new_unple_masked	acq1_masked	1	15	0	0	300	300	0	0	507	46	0	1	0	0	0	1	blank2r.bmp	0	1	+	0	7	C3r.bmp	492	1	blank2r.bmp	786	6	C2r.bmp	786	1	blank2r.bmp	866	4	ausrottung	866	0	0	0	0	0	0	0	0	0	0	0	0	0	0	0	0	0	0	0	0	0	0	0	0	0	0	0	0	0	0	0	0	0
011119	09:59:48	10:02:25	154921	5.0.10.0	4_exp_AWA_CON_EVA_AMP	63	Rpleas_acq	Oppo	Rpleas	Amasked	CS_A	1pleas	distractor1	CONbeforeEVA	acq_new_unple_masked	acq1_masked	1	16	0	0	300	300	0	0	488	46	0	1	0	0	0	1	blank2r.bmp	0	1	+	0	5	C1r.bmp	492	1	blank2r.bmp	786	8	C4r.bmp	786	1	blank2r.bmp	866	1	sterben	866	0	0	0	0	0	0	0	0	0	0	0	0	0	0	0	0	0	0	0	0	0	0	0	0	0	0	0	0	0	0	0	0	0
011119	09:59:48	10:02:27	156947	5.0.10.0	4_exp_AWA_CON_EVA_AMP	63	Rpleas_acq	Oppo	Rpleas	Amasked	CS_A	1pleas	distractor1	CONbeforeEVA	acq_new_pleas_masked	acq1_masked	1	17	0	0	300	300	0	0	534	50	0	1	0	0	0	1	blank2r.bmp	0	1	+	0	1	B1r.bmp	492	1	blank2r.bmp	786	8	C4r.bmp	786	1	blank2r.bmp	866	3	gütig	866	0	0	0	0	0	0	0	0	0	0	0	0	0	0	0	0	0	0	0	0	0	0	0	0	0	0	0	0	0	0	0	0	0
011119	09:59:48	10:02:29	158986	5.0.10.0	4_exp_AWA_CON_EVA_AMP	63	Rpleas_acq	Oppo	Rpleas	Amasked	CS_A	1pleas	distractor1	CONbeforeEVA	acq_US_pleas_masked	acq1_masked	1	18	0	0	300	300	0	0	567	50	0	1	0	0	0	1	blank2r.bmp	0	1	+	0	8	C4r.bmp	492	1	blank2r.bmp	786	1	CPLW	786	1	blank2r.bmp	866	1	gesittet	866	0	0	0	0	0	0	0	0	0	0	0	0	0	0	0	0	0	0	0	0	0	0	0	0	0	0	0	0	0	0	0	0	0
011119	09:59:48	10:02:32	161331	5.0.10.0	4_exp_AWA_CON_EVA_AMP	63	Rpleas_acq	Oppo	Rpleas	Amasked	CS_A	1pleas	distractor1	CONbeforeEVA	acq_new_unple_masked	acq1_masked	1	19	0	0	300	300	0	0	853	46	0	1	0	0	0	1	blank2r.bmp	0	1	+	0	7	C3r.bmp	492	1	blank2r.bmp	786	4	B4r.bmp	786	1	blank2r.bmp	866	3	gierig	866	0	0	0	0	0	0	0	0	0	0	0	0	0	0	0	0	0	0	0	0	0	0	0	0	0	0	0	0	0	0	0	0	0
011119	09:59:48	10:02:34	163344	5.0.10.0	4_exp_AWA_CON_EVA_AMP	63	Rpleas_acq	Oppo	Rpleas	Amasked	CS_A	1pleas	distractor1	CONbeforeEVA	acq_new_pleas_masked	acq1_masked	1	20	0	0	300	300	0	0	532	50	0	1	0	0	0	1	blank2r.bmp	0	1	+	0	5	C1r.bmp	492	1	blank2r.bmp	786	1	B1r.bmp	786	1	blank2r.bmp	866	6	kreativ	866	0	0	0	0	0	0	0	0	0	0	0	0	0	0	0	0	0	0	0	0	0	0	0	0	0	0	0	0	0	0	0	0	0
011119	09:59:48	10:02:36	165370	5.0.10.0	4_exp_AWA_CON_EVA_AMP	63	Rpleas_acq	Oppo	Rpleas	Amasked	CS_A	1pleas	distractor1	CONbeforeEVA	acq_US_pleas_masked	acq1_masked	1	21	0	0	300	300	0	0	552	50	0	1	0	0	0	1	blank2r.bmp	0	1	+	0	4	B4r.bmp	492	1	blank2r.bmp	786	1	CPLW	786	1	blank2r.bmp	866	5	träumen	866	0	0	0	0	0	0	0	0	0	0	0	0	0	0	0	0	0	0	0	0	0	0	0	0	0	0	0	0	0	0	0	0	0
011119	09:59:48	10:02:38	167436	5.0.10.0	4_exp_AWA_CON_EVA_AMP	63	Rpleas_acq	Oppo	Rpleas	Amasked	CS_A	1pleas	distractor1	CONbeforeEVA	acq_US_unple_masked	acq1_masked	1	22	0	0	300	300	0	0	594	46	0	1	0	0	0	1	blank2r.bmp	0	1	+	0	3	B3r.bmp	492	1	blank2r.bmp	786	1	DHJF	786	1	blank2r.bmp	866	1	geizig	866	0	0	0	0	0	0	0	0	0	0	0	0	0	0	0	0	0	0	0	0	0	0	0	0	0	0	0	0	0	0	0	0	0
011119	09:59:48	10:02:40	169488	5.0.10.0	4_exp_AWA_CON_EVA_AMP	63	Rpleas_acq	Oppo	Rpleas	Amasked	CS_A	1pleas	distractor1	CONbeforeEVA	acq_US_pleas_masked	acq1_masked	1	23	0	0	300	300	0	0	566	50	0	1	0	0	0	1	blank2r.bmp	0	1	+	0	6	C2r.bmp	492	1	blank2r.bmp	786	1	CPLW	786	1	blank2r.bmp	866	2	kuss	866	0	0	0	0	0	0	0	0	0	0	0	0	0	0	0	0	0	0	0	0	0	0	0	0	0	0	0	0	0	0	0	0	0
011119	09:59:48	10:02:42	171474	5.0.10.0	4_exp_AWA_CON_EVA_AMP	63	Rpleas_acq	Oppo	Rpleas	Amasked	CS_A	1pleas	distractor1	CONbeforeEVA	acq_new_pleas_masked	acq1_masked	1	24	0	0	300	300	0	0	517	50	0	1	0	0	0	1	blank2r.bmp	0	1	+	0	2	B2r.bmp	492	1	blank2r.bmp	786	5	C1r.bmp	786	1	blank2r.bmp	866	1	sonnig	866	0	0	0	0	0	0	0	0	0	0	0	0	0	0	0	0	0	0	0	0	0	0	0	0	0	0	0	0	0	0	0	0	0
011119	09:59:48	10:02:44	173473	5.0.10.0	4_exp_AWA_CON_EVA_AMP	63	Rpleas_acq	Oppo	Rpleas	Amasked	CS_A	1pleas	distractor1	CONbeforeEVA	acq_US_unple_masked	acq1_masked	1	25	0	0	300	300	0	0	510	46	0	1	0	0	0	1	blank2r.bmp	0	1	+	0	5	C1r.bmp	492	1	blank2r.bmp	786	1	DHJF	786	1	blank2r.bmp	866	6	bange	866	0	0	0	0	0	0	0	0	0	0	0	0	0	0	0	0	0	0	0	0	0	0	0	0	0	0	0	0	0	0	0	0	0
011119	09:59:48	10:02:46	175632	5.0.10.0	4_exp_AWA_CON_EVA_AMP	63	Rpleas_acq	Oppo	Rpleas	Amasked	CS_A	1pleas	distractor1	CONbeforeEVA	acq_new_unple_masked	acq1_masked	1	26	0	0	300	300	0	0	691	46	0	1	0	0	0	1	blank2r.bmp	0	1	+	0	2	B2r.bmp	492	1	blank2r.bmp	786	7	C3r.bmp	786	1	blank2r.bmp	866	5	versagen	866	0	0	0	0	0	0	0	0	0	0	0	0	0	0	0	0	0	0	0	0	0	0	0	0	0	0	0	0	0	0	0	0	0
011119	09:59:48	10:02:48	177711	5.0.10.0	4_exp_AWA_CON_EVA_AMP	63	Rpleas_acq	Oppo	Rpleas	Amasked	CS_A	1pleas	distractor1	CONbeforeEVA	acq_new_unple_masked	acq1_masked	1	27	0	0	300	300	0	0	586	46	0	1	0	0	0	1	blank2r.bmp	0	1	+	0	1	B1r.bmp	492	1	blank2r.bmp	786	3	B3r.bmp	786	1	blank2r.bmp	866	3	gierig	866	0	0	0	0	0	0	0	0	0	0	0	0	0	0	0	0	0	0	0	0	0	0	0	0	0	0	0	0	0	0	0	0	0
011119	09:59:48	10:02:50	179737	5.0.10.0	4_exp_AWA_CON_EVA_AMP	63	Rpleas_acq	Oppo	Rpleas	Amasked	CS_A	1pleas	distractor1	CONbeforeEVA	acq_US_unple_masked	acq1_masked	1	28	0	0	300	300	0	0	557	46	0	1	0	0	0	1	blank2r.bmp	0	1	+	0	4	B4r.bmp	492	1	blank2r.bmp	786	1	DHJF	786	1	blank2r.bmp	866	3	engstirnig	866	0	0	0	0	0	0	0	0	0	0	0	0	0	0	0	0	0	0	0	0	0	0	0	0	0	0	0	0	0	0	0	0	0
011119	09:59:48	10:02:52	181763	5.0.10.0	4_exp_AWA_CON_EVA_AMP	63	Rpleas_acq	Oppo	Rpleas	Amasked	CS_A	1pleas	distractor1	CONbeforeEVA	acq_US_unple_masked	acq1_masked	1	29	0	0	300	300	0	0	526	46	0	1	0	0	0	1	blank2r.bmp	0	1	+	0	7	C3r.bmp	492	1	blank2r.bmp	786	1	DHJF	786	1	blank2r.bmp	866	4	verbissen	866	0	0	0	0	0	0	0	0	0	0	0	0	0	0	0	0	0	0	0	0	0	0	0	0	0	0	0	0	0	0	0	0	0
011119	09:59:48	10:02:54	183722	5.0.10.0	4_exp_AWA_CON_EVA_AMP	63	Rpleas_acq	Oppo	Rpleas	Amasked	CS_A	1pleas	distractor1	CONbeforeEVA	acq_new_unple_masked	acq1_masked	1	30	0	0	300	300	0	0	474	46	0	1	0	0	0	1	blank2r.bmp	0	1	+	0	8	C4r.bmp	492	1	blank2r.bmp	786	2	B2r.bmp	786	1	blank2r.bmp	866	1	sterben	866	0	0	0	0	0	0	0	0	0	0	0	0	0	0	0	0	0	0	0	0	0	0	0	0	0	0	0	0	0	0	0	0	0
011119	09:59:48	10:02:56	185681	5.0.10.0	4_exp_AWA_CON_EVA_AMP	63	Rpleas_acq	Oppo	Rpleas	Amasked	CS_A	1pleas	distractor1	CONbeforeEVA	acq_new_pleas_masked	acq1_masked	1	31	0	0	300	300	0	0	472	50	0	1	0	0	0	1	blank2r.bmp	0	1	+	0	3	B3r.bmp	492	1	blank2r.bmp	786	6	C2r.bmp	786	1	blank2r.bmp	866	1	sonnig	866	0	0	0	0	0	0	0	0	0	0	0	0	0	0	0	0	0	0	0	0	0	0	0	0	0	0	0	0	0	0	0	0	0
011119	09:59:48	10:02:58	187787	5.0.10.0	4_exp_AWA_CON_EVA_AMP	63	Rpleas_acq	Oppo	Rpleas	Amasked	CS_A	1pleas	distractor1	CONbeforeEVA	acq_new_pleas_masked	acq1_masked	1	32	0	0	300	300	0	0	635	50	0	1	0	0	0	1	blank2r.bmp	0	1	+	0	6	C2r.bmp	492	1	blank2r.bmp	786	5	C1r.bmp	786	1	blank2r.bmp	866	4	anregung	866	0	0	0	0	0	0	0	0	0	0	0	0	0	0	0	0	0	0	0	0	0	0	0	0	0	0	0	0	0	0	0	0	0
011119	09:59:48	10:03:00	189813	5.0.10.0	4_exp_AWA_CON_EVA_AMP	63	Rpleas_acq	Oppo	Rpleas	Amasked	CS_A	1pleas	distractor1	CONbeforeEVA	acq_new_pleas_masked	acq1_masked	1	33	0	0	300	300	0	0	549	50	0	1	0	0	0	1	blank2r.bmp	0	1	+	0	2	B2r.bmp	492	1	blank2r.bmp	786	3	B3r.bmp	786	1	blank2r.bmp	866	3	gütig	866	0	0	0	0	0	0	0	0	0	0	0	0	0	0	0	0	0	0	0	0	0	0	0	0	0	0	0	0	0	0	0	0	0
011119	09:59:48	10:03:02	191932	5.0.10.0	4_exp_AWA_CON_EVA_AMP	63	Rpleas_acq	Oppo	Rpleas	Amasked	CS_A	1pleas	distractor1	CONbeforeEVA	acq_US_pleas_masked	acq1_masked	1	34	0	0	300	300	0	0	626	50	0	1	0	0	0	1	blank2r.bmp	0	1	+	0	4	B4r.bmp	492	1	blank2r.bmp	786	1	CPLW	786	1	blank2r.bmp	866	3	engagiert	866	0	0	0	0	0	0	0	0	0	0	0	0	0	0	0	0	0	0	0	0	0	0	0	0	0	0	0	0	0	0	0	0	0
011119	09:59:48	10:03:05	194024	5.0.10.0	4_exp_AWA_CON_EVA_AMP	63	Rpleas_acq	Oppo	Rpleas	Amasked	CS_A	1pleas	distractor1	CONbeforeEVA	acq_US_pleas_masked	acq1_masked	1	35	0	0	300	300	0	0	609	50	0	1	0	0	0	1	blank2r.bmp	0	1	+	0	1	B1r.bmp	492	1	blank2r.bmp	786	1	CPLW	786	1	blank2r.bmp	866	6	besonnen	866	0	0	0	0	0	0	0	0	0	0	0	0	0	0	0	0	0	0	0	0	0	0	0	0	0	0	0	0	0	0	0	0	0
011119	09:59:48	10:03:06	195944	5.0.10.0	4_exp_AWA_CON_EVA_AMP	63	Rpleas_acq	Oppo	Rpleas	Amasked	CS_A	1pleas	distractor1	CONbeforeEVA	acq_US_pleas_masked	acq1_masked	1	36	0	0	300	300	0	0	431	50	0	1	0	0	0	1	blank2r.bmp	0	1	+	0	8	C4r.bmp	492	1	blank2r.bmp	786	1	CPLW	786	1	blank2r.bmp	866	1	gesittet	866	0	0	0	0	0	0	0	0	0	0	0	0	0	0	0	0	0	0	0	0	0	0	0	0	0	0	0	0	0	0	0	0	0
011119	09:59:48	10:03:55	244163	5.0.10.0	4_exp_AWA_CON_EVA_AMP	63	Rpleas_acq	Oppo	Rpleas	Amasked	CS_A	1pleas	distractor1	CONbeforeEVA	acq_new_unple_masked	acq2_masked	2	1	480	0	300	300	0	0	4016	46	0	1	0	0	0	1	blank2r.bmp	0	1	+	0	6	C2r.bmp	492	1	blank2r.bmp	786	4	B4r.bmp	786	1	blank2r.bmp	866	4	ausrottung	866	1	!	1319	1	!	-1	0	0	0	0	0	0	0	0	0	0	0	0	0	0	0	0	0	0	0	0	0	0	0	0	0	0	0
011119	09:59:48	10:03:57	246589	5.0.10.0	4_exp_AWA_CON_EVA_AMP	63	Rpleas_acq	Oppo	Rpleas	Amasked	CS_A	1pleas	distractor1	CONbeforeEVA	acq_US_pleas_masked	acq2_masked	2	2	480	0	300	300	0	0	632	50	0	1	0	0	0	1	blank2r.bmp	0	1	+	0	5	C1r.bmp	492	1	blank2r.bmp	786	1	CPLW	786	1	blank2r.bmp	866	4	vergnügt	866	1	!	1319	1	!	-1	0	0	0	0	0	0	0	0	0	0	0	0	0	0	0	0	0	0	0	0	0	0	0	0	0	0	0
011119	09:59:48	10:03:59	248855	5.0.10.0	4_exp_AWA_CON_EVA_AMP	63	Rpleas_acq	Oppo	Rpleas	Amasked	CS_A	1pleas	distractor1	CONbeforeEVA	acq_US_pleas_masked	acq2_masked	2	3	480	1	300	300	0	0	455	50	0	1	0	0	0	1	blank2r.bmp	0	1	+	0	3	B3r.bmp	492	1	blank2r.bmp	786	1	CPLW	786	1	blank2r.bmp	866	2	kuss	866	1	!	1319	1	!	1359	0	0	0	0	0	0	0	0	0	0	0	0	0	0	0	0	0	0	0	0	0	0	0	0	0	0	0
011119	09:59:48	10:04:04	253346	5.0.10.0	4_exp_AWA_CON_EVA_AMP	63	Rpleas_acq	Oppo	Rpleas	Amasked	CS_A	1pleas	distractor1	CONbeforeEVA	acq_US_unple_masked	acq2_masked	2	4	480	0	300	300	0	0	2718	46	0	1	0	0	0	1	blank2r.bmp	0	1	+	0	7	C3r.bmp	492	1	blank2r.bmp	786	1	DHJF	786	1	blank2r.bmp	866	2	krise	866	1	!	1319	1	!	-1	0	0	0	0	0	0	0	0	0	0	0	0	0	0	0	0	0	0	0	0	0	0	0	0	0	0	0
011119	09:59:48	10:04:06	255705	5.0.10.0	4_exp_AWA_CON_EVA_AMP	63	Rpleas_acq	Oppo	Rpleas	Amasked	CS_A	1pleas	distractor1	CONbeforeEVA	acq_new_pleas_masked	acq2_masked	2	5	480	0	300	300	0	0	583	50	0	1	0	0	0	1	blank2r.bmp	0	1	+	0	1	B1r.bmp	492	1	blank2r.bmp	786	6	C2r.bmp	786	1	blank2r.bmp	866	5	vertrauen	866	1	!	1319	1	!	-1	0	0	0	0	0	0	0	0	0	0	0	0	0	0	0	0	0	0	0	0	0	0	0	0	0	0	0
011119	09:59:48	10:04:09	258024	5.0.10.0	4_exp_AWA_CON_EVA_AMP	63	Rpleas_acq	Oppo	Rpleas	Amasked	CS_A	1pleas	distractor1	CONbeforeEVA	acq_new_unple_masked	acq2_masked	2	6	480	1	300	300	0	0	515	46	0	1	0	0	0	1	blank2r.bmp	0	1	+	0	5	C1r.bmp	492	1	blank2r.bmp	786	7	C3r.bmp	786	1	blank2r.bmp	866	6	krank	866	1	!	1319	1	!	1412	0	0	0	0	0	0	0	0	0	0	0	0	0	0	0	0	0	0	0	0	0	0	0	0	0	0	0
011119	09:59:48	10:04:11	260436	5.0.10.0	4_exp_AWA_CON_EVA_AMP	63	Rpleas_acq	Oppo	Rpleas	Amasked	CS_A	1pleas	distractor1	CONbeforeEVA	acq_US_unple_masked	acq2_masked	2	7	480	0	300	300	0	0	650	46	0	1	0	0	0	1	blank2r.bmp	0	1	+	0	8	C4r.bmp	492	1	blank2r.bmp	786	1	DHJF	786	1	blank2r.bmp	866	1	geizig	866	1	!	1319	1	!	-1	0	0	0	0	0	0	0	0	0	0	0	0	0	0	0	0	0	0	0	0	0	0	0	0	0	0	0
011119	09:59:48	10:04:13	262702	5.0.10.0	4_exp_AWA_CON_EVA_AMP	63	Rpleas_acq	Oppo	Rpleas	Amasked	CS_A	1pleas	distractor1	CONbeforeEVA	acq_new_pleas_masked	acq2_masked	2	8	480	1	300	300	0	0	459	50	0	1	0	0	0	1	blank2r.bmp	0	1	+	0	4	B4r.bmp	492	1	blank2r.bmp	786	8	C4r.bmp	786	1	blank2r.bmp	866	6	kreativ	866	1	!	1319	1	!	1359	0	0	0	0	0	0	0	0	0	0	0	0	0	0	0	0	0	0	0	0	0	0	0	0	0	0	0
011119	09:59:48	10:04:15	264995	5.0.10.0	4_exp_AWA_CON_EVA_AMP	63	Rpleas_acq	Oppo	Rpleas	Amasked	CS_A	1pleas	distractor1	CONbeforeEVA	acq_new_unple_masked	acq2_masked	2	9	480	1	300	300	0	0	499	46	0	1	0	0	0	1	blank2r.bmp	0	1	+	0	2	B2r.bmp	492	1	blank2r.bmp	786	1	B1r.bmp	786	1	blank2r.bmp	866	2	gemein	866	1	!	1319	1	!	1399	0	0	0	0	0	0	0	0	0	0	0	0	0	0	0	0	0	0	0	0	0	0	0	0	0	0	0
011119	09:59:48	10:04:18	267327	5.0.10.0	4_exp_AWA_CON_EVA_AMP	63	Rpleas_acq	Oppo	Rpleas	Amasked	CS_A	1pleas	distractor1	CONbeforeEVA	acq_US_pleas_masked	acq2_masked	2	10	480	0	300	300	0	0	568	50	0	1	0	0	0	1	blank2r.bmp	0	1	+	0	7	C3r.bmp	492	1	blank2r.bmp	786	1	CPLW	786	1	blank2r.bmp	866	5	träumen	866	1	!	1319	1	!	-1	0	0	0	0	0	0	0	0	0	0	0	0	0	0	0	0	0	0	0	0	0	0	0	0	0	0	0
011119	09:59:48	10:04:20	269619	5.0.10.0	4_exp_AWA_CON_EVA_AMP	63	Rpleas_acq	Oppo	Rpleas	Amasked	CS_A	1pleas	distractor1	CONbeforeEVA	acq_US_unple_masked	acq2_masked	2	11	480	1	300	300	0	0	483	46	0	1	0	0	0	1	blank2r.bmp	0	1	+	0	3	B3r.bmp	492	1	blank2r.bmp	786	1	DHJF	786	1	blank2r.bmp	866	5	töten	866	1	!	1319	1	!	1386	0	0	0	0	0	0	0	0	0	0	0	0	0	0	0	0	0	0	0	0	0	0	0	0	0	0	0
011119	09:59:48	10:04:22	271765	5.0.10.0	4_exp_AWA_CON_EVA_AMP	63	Rpleas_acq	Oppo	Rpleas	Amasked	CS_A	1pleas	distractor1	CONbeforeEVA	acq_new_pleas_masked	acq2_masked	2	12	480	0	300	300	0	0	378	50	0	1	0	0	0	1	blank2r.bmp	0	1	+	0	6	C2r.bmp	492	1	blank2r.bmp	786	2	B2r.bmp	786	1	blank2r.bmp	866	2	genießen	866	1	!	-1	1	!	-1	0	0	0	0	0	0	0	0	0	0	0	0	0	0	0	0	0	0	0	0	0	0	0	0	0	0	0
011119	09:59:48	10:04:25	274244	5.0.10.0	4_exp_AWA_CON_EVA_AMP	63	Rpleas_acq	Oppo	Rpleas	Amasked	CS_A	1pleas	distractor1	CONbeforeEVA	acq_new_pleas_masked	acq2_masked	2	13	480	1	300	300	0	0	453	46	0	0	0	0	0	1	blank2r.bmp	0	1	+	0	7	C3r.bmp	492	1	blank2r.bmp	786	3	B3r.bmp	786	1	blank2r.bmp	866	5	vertrauen	866	1	FEHLER	1679	1	!	1319	1	!	1359	0	0	0	0	0	0	0	0	0	0	0	0	0	0	0	0	0	0	0	0	0	0	0	0
011119	09:59:48	10:04:27	276336	5.0.10.0	4_exp_AWA_CON_EVA_AMP	63	Rpleas_acq	Oppo	Rpleas	Amasked	CS_A	1pleas	distractor1	CONbeforeEVA	acq_new_pleas_masked	acq2_masked	2	14	480	1	300	300	0	0	506	50	0	1	0	0	0	1	blank2r.bmp	0	1	+	0	4	B4r.bmp	492	1	blank2r.bmp	786	5	C1r.bmp	786	1	blank2r.bmp	866	6	kreativ	866	1	!	1319	1	!	1412	0	0	0	0	0	0	0	0	0	0	0	0	0	0	0	0	0	0	0	0	0	0	0	0	0	0	0
011119	09:59:48	10:04:29	278775	5.0.10.0	4_exp_AWA_CON_EVA_AMP	63	Rpleas_acq	Oppo	Rpleas	Amasked	CS_A	1pleas	distractor1	CONbeforeEVA	acq_US_pleas_masked	acq2_masked	2	15	480	1	300	300	0	0	436	46	0	0	0	0	0	1	blank2r.bmp	0	1	+	0	8	C4r.bmp	492	1	blank2r.bmp	786	1	CPLW	786	1	blank2r.bmp	866	3	engagiert	866	1	FEHLER	1652	1	!	1319	1	!	1332	0	0	0	0	0	0	0	0	0	0	0	0	0	0	0	0	0	0	0	0	0	0	0	0
011119	09:59:48	10:04:31	280881	5.0.10.0	4_exp_AWA_CON_EVA_AMP	63	Rpleas_acq	Oppo	Rpleas	Amasked	CS_A	1pleas	distractor1	CONbeforeEVA	acq_new_unple_masked	acq2_masked	2	16	480	1	300	300	0	0	529	46	0	1	0	0	0	1	blank2r.bmp	0	1	+	0	6	C2r.bmp	492	1	blank2r.bmp	786	7	C3r.bmp	786	1	blank2r.bmp	866	6	krank	866	1	!	1319	1	!	1426	0	0	0	0	0	0	0	0	0	0	0	0	0	0	0	0	0	0	0	0	0	0	0	0	0	0	0
011119	09:59:48	10:04:34	283387	5.0.10.0	4_exp_AWA_CON_EVA_AMP	63	Rpleas_acq	Oppo	Rpleas	Amasked	CS_A	1pleas	distractor1	CONbeforeEVA	acq_US_pleas_masked	acq2_masked	2	17	480	1	300	300	0	0	494	46	0	0	0	0	0	1	blank2r.bmp	0	1	+	0	3	B3r.bmp	492	1	blank2r.bmp	786	1	CPLW	786	1	blank2r.bmp	866	1	gesittet	866	1	FEHLER	1719	1	!	1319	1	!	1399	0	0	0	0	0	0	0	0	0	0	0	0	0	0	0	0	0	0	0	0	0	0	0	0
011119	09:59:48	10:04:36	285493	5.0.10.0	4_exp_AWA_CON_EVA_AMP	63	Rpleas_acq	Oppo	Rpleas	Amasked	CS_A	1pleas	distractor1	CONbeforeEVA	acq_new_unple_masked	acq2_masked	2	18	480	1	300	300	0	0	529	46	0	1	0	0	0	1	blank2r.bmp	0	1	+	0	2	B2r.bmp	492	1	blank2r.bmp	786	8	C4r.bmp	786	1	blank2r.bmp	866	4	ausrottung	866	1	!	1319	1	!	1426	0	0	0	0	0	0	0	0	0	0	0	0	0	0	0	0	0	0	0	0	0	0	0	0	0	0	0
011119	09:59:48	10:04:38	287598	5.0.10.0	4_exp_AWA_CON_EVA_AMP	63	Rpleas_acq	Oppo	Rpleas	Amasked	CS_A	1pleas	distractor1	CONbeforeEVA	acq_new_pleas_masked	acq2_masked	2	19	480	0	300	300	0	0	339	50	0	1	0	0	0	1	blank2r.bmp	0	1	+	0	1	B1r.bmp	492	1	blank2r.bmp	786	6	C2r.bmp	786	1	blank2r.bmp	866	2	genießen	866	1	!	-1	1	!	-1	0	0	0	0	0	0	0	0	0	0	0	0	0	0	0	0	0	0	0	0	0	0	0	0	0	0	0
011119	09:59:48	10:04:41	290077	5.0.10.0	4_exp_AWA_CON_EVA_AMP	63	Rpleas_acq	Oppo	Rpleas	Amasked	CS_A	1pleas	distractor1	CONbeforeEVA	acq_US_unple_masked	acq2_masked	2	20	480	1	300	300	0	0	453	50	0	0	0	0	0	1	blank2r.bmp	0	1	+	0	5	C1r.bmp	492	1	blank2r.bmp	786	1	DHJF	786	1	blank2r.bmp	866	1	geizig	866	1	FEHLER	1679	1	!	1319	1	!	1359	0	0	0	0	0	0	0	0	0	0	0	0	0	0	0	0	0	0	0	0	0	0	0	0
011119	09:59:48	10:04:43	292196	5.0.10.0	4_exp_AWA_CON_EVA_AMP	63	Rpleas_acq	Oppo	Rpleas	Amasked	CS_A	1pleas	distractor1	CONbeforeEVA	acq_US_unple_masked	acq2_masked	2	21	480	1	300	300	0	0	544	46	0	1	0	0	0	1	blank2r.bmp	0	1	+	0	3	B3r.bmp	492	1	blank2r.bmp	786	1	DHJF	786	1	blank2r.bmp	866	6	bange	866	1	!	1319	1	!	1439	0	0	0	0	0	0	0	0	0	0	0	0	0	0	0	0	0	0	0	0	0	0	0	0	0	0	0
011119	09:59:48	10:04:45	294422	5.0.10.0	4_exp_AWA_CON_EVA_AMP	63	Rpleas_acq	Oppo	Rpleas	Amasked	CS_A	1pleas	distractor1	CONbeforeEVA	acq_US_unple_masked	acq2_masked	2	22	480	1	300	300	0	0	426	46	0	1	0	0	0	1	blank2r.bmp	0	1	+	0	5	C1r.bmp	492	1	blank2r.bmp	786	1	DHJF	786	1	blank2r.bmp	866	5	töten	866	1	!	1319	1	!	1332	0	0	0	0	0	0	0	0	0	0	0	0	0	0	0	0	0	0	0	0	0	0	0	0	0	0	0
011119	09:59:48	10:04:47	296675	5.0.10.0	4_exp_AWA_CON_EVA_AMP	63	Rpleas_acq	Oppo	Rpleas	Amasked	CS_A	1pleas	distractor1	CONbeforeEVA	acq_new_unple_masked	acq2_masked	2	23	480	1	300	300	0	0	457	46	0	1	0	0	0	1	blank2r.bmp	0	1	+	0	1	B1r.bmp	492	1	blank2r.bmp	786	2	B2r.bmp	786	1	blank2r.bmp	866	1	sterben	866	1	!	1319	1	!	1359	0	0	0	0	0	0	0	0	0	0	0	0	0	0	0	0	0	0	0	0	0	0	0	0	0	0	0
011119	09:59:48	10:04:49	298940	5.0.10.0	4_exp_AWA_CON_EVA_AMP	63	Rpleas_acq	Oppo	Rpleas	Amasked	CS_A	1pleas	distractor1	CONbeforeEVA	acq_US_pleas_masked	acq2_masked	2	24	480	1	300	300	0	0	469	50	0	1	0	0	0	1	blank2r.bmp	0	1	+	0	2	B2r.bmp	492	1	blank2r.bmp	786	1	CPLW	786	1	blank2r.bmp	866	6	besonnen	866	1	!	1319	1	!	1372	0	0	0	0	0	0	0	0	0	0	0	0	0	0	0	0	0	0	0	0	0	0	0	0	0	0	0
011119	09:59:48	10:04:52	301273	5.0.10.0	4_exp_AWA_CON_EVA_AMP	63	Rpleas_acq	Oppo	Rpleas	Amasked	CS_A	1pleas	distractor1	CONbeforeEVA	acq_US_unple_masked	acq2_masked	2	25	480	0	300	300	0	0	561	46	0	1	0	0	0	1	blank2r.bmp	0	1	+	0	4	B4r.bmp	492	1	blank2r.bmp	786	1	DHJF	786	1	blank2r.bmp	866	3	engstirnig	866	1	!	1319	1	!	-1	0	0	0	0	0	0	0	0	0	0	0	0	0	0	0	0	0	0	0	0	0	0	0	0	0	0	0
011119	09:59:48	10:04:54	303565	5.0.10.0	4_exp_AWA_CON_EVA_AMP	63	Rpleas_acq	Oppo	Rpleas	Amasked	CS_A	1pleas	distractor1	CONbeforeEVA	acq_US_unple_masked	acq2_masked	2	26	480	1	300	300	0	0	481	46	0	1	0	0	0	1	blank2r.bmp	0	1	+	0	8	C4r.bmp	492	1	blank2r.bmp	786	1	DHJF	786	1	blank2r.bmp	866	2	krise	866	1	!	1319	1	!	1386	0	0	0	0	0	0	0	0	0	0	0	0	0	0	0	0	0	0	0	0	0	0	0	0	0	0	0
011119	09:59:48	10:04:58	307830	5.0.10.0	4_exp_AWA_CON_EVA_AMP	63	Rpleas_acq	Oppo	Rpleas	Amasked	CS_A	1pleas	distractor1	CONbeforeEVA	acq_new_pleas_masked	acq2_masked	2	27	480	0	300	300	0	0	2260	46	0	0	0	0	0	1	blank2r.bmp	0	1	+	0	7	C3r.bmp	492	1	blank2r.bmp	786	4	B4r.bmp	786	1	blank2r.bmp	866	3	gütig	866	1	FEHLER	3465	1	!	1319	1	!	-1	0	0	0	0	0	0	0	0	0	0	0	0	0	0	0	0	0	0	0	0	0	0	0	0
011119	09:59:48	10:05:00	309856	5.0.10.0	4_exp_AWA_CON_EVA_AMP	63	Rpleas_acq	Oppo	Rpleas	Amasked	CS_A	1pleas	distractor1	CONbeforeEVA	acq_US_unple_masked	acq2_masked	2	28	480	1	300	300	0	0	443	46	0	1	0	0	0	1	blank2r.bmp	0	1	+	0	6	C2r.bmp	492	1	blank2r.bmp	786	1	DHJF	786	1	blank2r.bmp	866	4	verbissen	866	1	!	1319	1	!	1346	0	0	0	0	0	0	0	0	0	0	0	0	0	0	0	0	0	0	0	0	0	0	0	0	0	0	0
011119	09:59:48	10:05:03	312335	5.0.10.0	4_exp_AWA_CON_EVA_AMP	63	Rpleas_acq	Oppo	Rpleas	Amasked	CS_A	1pleas	distractor1	CONbeforeEVA	acq_new_pleas_masked	acq2_masked	2	29	480	1	300	300	0	0	467	46	0	0	0	0	0	1	blank2r.bmp	0	1	+	0	5	C1r.bmp	492	1	blank2r.bmp	786	1	B1r.bmp	786	1	blank2r.bmp	866	4	anregung	866	1	FEHLER	1692	1	!	1319	1	!	1372	0	0	0	0	0	0	0	0	0	0	0	0	0	0	0	0	0	0	0	0	0	0	0	0
011119	09:59:48	10:05:06	315267	5.0.10.0	4_exp_AWA_CON_EVA_AMP	63	Rpleas_acq	Oppo	Rpleas	Amasked	CS_A	1pleas	distractor1	CONbeforeEVA	acq_new_unple_masked	acq2_masked	2	30	480	0	300	300	0	0	1372	46	0	1	0	0	0	1	blank2r.bmp	0	1	+	0	7	C3r.bmp	492	1	blank2r.bmp	786	1	B1r.bmp	786	1	blank2r.bmp	866	5	versagen	866	1	!	1319	1	!	-1	0	0	0	0	0	0	0	0	0	0	0	0	0	0	0	0	0	0	0	0	0	0	0	0	0	0	0
011119	09:59:48	10:05:08	317559	5.0.10.0	4_exp_AWA_CON_EVA_AMP	63	Rpleas_acq	Oppo	Rpleas	Amasked	CS_A	1pleas	distractor1	CONbeforeEVA	acq_new_unple_masked	acq2_masked	2	31	480	1	300	300	0	0	467	46	0	1	0	0	0	1	blank2r.bmp	0	1	+	0	3	B3r.bmp	492	1	blank2r.bmp	786	4	B4r.bmp	786	1	blank2r.bmp	866	2	gemein	866	1	!	1319	1	!	1372	0	0	0	0	0	0	0	0	0	0	0	0	0	0	0	0	0	0	0	0	0	0	0	0	0	0	0
011119	09:59:48	10:05:10	319812	5.0.10.0	4_exp_AWA_CON_EVA_AMP	63	Rpleas_acq	Oppo	Rpleas	Amasked	CS_A	1pleas	distractor1	CONbeforeEVA	acq_US_pleas_masked	acq2_masked	2	32	480	1	300	300	0	0	441	50	0	1	0	0	0	1	blank2r.bmp	0	1	+	0	4	B4r.bmp	492	1	blank2r.bmp	786	1	CPLW	786	1	blank2r.bmp	866	4	vergnügt	866	1	!	1319	1	!	1346	0	0	0	0	0	0	0	0	0	0	0	0	0	0	0	0	0	0	0	0	0	0	0	0	0	0	0
011119	09:59:48	10:05:13	322104	5.0.10.0	4_exp_AWA_CON_EVA_AMP	63	Rpleas_acq	Oppo	Rpleas	Amasked	CS_A	1pleas	distractor1	CONbeforeEVA	acq_new_unple_masked	acq2_masked	2	33	480	1	300	300	0	0	501	46	0	1	0	0	0	1	blank2r.bmp	0	1	+	0	2	B2r.bmp	492	1	blank2r.bmp	786	3	B3r.bmp	786	1	blank2r.bmp	866	3	gierig	866	1	!	1319	1	!	1399	0	0	0	0	0	0	0	0	0	0	0	0	0	0	0	0	0	0	0	0	0	0	0	0	0	0	0
011119	09:59:48	10:05:15	324210	5.0.10.0	4_exp_AWA_CON_EVA_AMP	63	Rpleas_acq	Oppo	Rpleas	Amasked	CS_A	1pleas	distractor1	CONbeforeEVA	acq_US_pleas_masked	acq2_masked	2	34	480	0	300	300	0	0	332	50	0	1	0	0	0	1	blank2r.bmp	0	1	+	0	1	B1r.bmp	492	1	blank2r.bmp	786	1	CPLW	786	1	blank2r.bmp	866	2	kuss	866	1	!	-1	1	!	-1	0	0	0	0	0	0	0	0	0	0	0	0	0	0	0	0	0	0	0	0	0	0	0	0	0	0	0
011119	09:59:48	10:05:17	326555	5.0.10.0	4_exp_AWA_CON_EVA_AMP	63	Rpleas_acq	Oppo	Rpleas	Amasked	CS_A	1pleas	distractor1	CONbeforeEVA	acq_new_pleas_masked	acq2_masked	2	35	480	1	300	300	0	0	539	50	0	1	0	0	0	1	blank2r.bmp	0	1	+	0	6	C2r.bmp	492	1	blank2r.bmp	786	5	C1r.bmp	786	1	blank2r.bmp	866	1	sonnig	866	1	!	1319	1	!	1439	0	0	0	0	0	0	0	0	0	0	0	0	0	0	0	0	0	0	0	0	0	0	0	0	0	0	0
011119	09:59:48	10:05:19	328781	5.0.10.0	4_exp_AWA_CON_EVA_AMP	63	Rpleas_acq	Oppo	Rpleas	Amasked	CS_A	1pleas	distractor1	CONbeforeEVA	acq_US_pleas_masked	acq2_masked	2	36	480	1	300	300	0	0	431	50	0	1	0	0	0	1	blank2r.bmp	0	1	+	0	8	C4r.bmp	492	1	blank2r.bmp	786	1	CPLW	786	1	blank2r.bmp	866	5	träumen	866	1	!	1319	1	!	1332	0	0	0	0	0	0	0	0	0	0	0	0	0	0	0	0	0	0	0	0	0	0	0	0	0	0	0
011119	09:59:48	10:05:44	353744	5.0.10.0	4_exp_AWA_CON_EVA_AMP	63	Rpleas_acq	Oppo	Rpleas	Amasked	CS_A	1pleas	distractor1	CONbeforeEVA	acq_US_unple_masked	acq3_masked	3	1	453	0	300	300	0	0	549	46	0	1	0	0	0	1	blank2r.bmp	0	1	+	0	5	C1r.bmp	492	1	blank2r.bmp	786	1	DHJF	786	1	blank2r.bmp	866	4	verbissen	866	1	!	1292	1	!	-1	0	0	0	0	0	0	0	0	0	0	0	0	0	0	0	0	0	0	0	0	0	0	0	0	0	0	0
011119	09:59:48	10:05:46	355823	5.0.10.0	4_exp_AWA_CON_EVA_AMP	63	Rpleas_acq	Oppo	Rpleas	Amasked	CS_A	1pleas	distractor1	CONbeforeEVA	acq_US_pleas_masked	acq3_masked	3	2	453	0	300	300	0	0	303	50	0	1	0	0	0	1	blank2r.bmp	0	1	+	0	2	B2r.bmp	492	1	blank2r.bmp	786	1	CPLW	786	1	blank2r.bmp	866	4	vergnügt	866	1	!	-1	1	!	-1	0	0	0	0	0	0	0	0	0	0	0	0	0	0	0	0	0	0	0	0	0	0	0	0	0	0	0
011119	09:59:48	10:05:49	358209	5.0.10.0	4_exp_AWA_CON_EVA_AMP	63	Rpleas_acq	Oppo	Rpleas	Amasked	CS_A	1pleas	distractor1	CONbeforeEVA	acq_US_pleas_masked	acq3_masked	3	3	453	0	300	300	0	0	603	50	0	1	0	0	0	1	blank2r.bmp	0	1	+	0	8	C4r.bmp	492	1	blank2r.bmp	786	1	CPLW	786	1	blank2r.bmp	866	5	träumen	866	1	!	1292	1	!	-1	0	0	0	0	0	0	0	0	0	0	0	0	0	0	0	0	0	0	0	0	0	0	0	0	0	0	0
011119	09:59:48	10:05:51	360421	5.0.10.0	4_exp_AWA_CON_EVA_AMP	63	Rpleas_acq	Oppo	Rpleas	Amasked	CS_A	1pleas	distractor1	CONbeforeEVA	acq_US_unple_masked	acq3_masked	3	4	453	1	300	300	0	0	399	46	0	1	0	0	0	1	blank2r.bmp	0	1	+	0	4	B4r.bmp	492	1	blank2r.bmp	786	1	DHJF	786	1	blank2r.bmp	866	6	bange	866	1	!	1292	1	!	1306	0	0	0	0	0	0	0	0	0	0	0	0	0	0	0	0	0	0	0	0	0	0	0	0	0	0	0
011119	09:59:48	10:05:54	363646	5.0.10.0	4_exp_AWA_CON_EVA_AMP	63	Rpleas_acq	Oppo	Rpleas	Amasked	CS_A	1pleas	distractor1	CONbeforeEVA	acq_US_pleas_masked	acq3_masked	3	5	453	0	300	300	0	0	1452	50	0	1	0	0	0	1	blank2r.bmp	0	1	+	0	3	B3r.bmp	492	1	blank2r.bmp	786	1	CPLW	786	1	blank2r.bmp	866	1	gesittet	866	1	!	1292	1	!	-1	0	0	0	0	0	0	0	0	0	0	0	0	0	0	0	0	0	0	0	0	0	0	0	0	0	0	0
011119	09:59:48	10:05:56	365966	5.0.10.0	4_exp_AWA_CON_EVA_AMP	63	Rpleas_acq	Oppo	Rpleas	Amasked	CS_A	1pleas	distractor1	CONbeforeEVA	acq_US_pleas_masked	acq3_masked	3	6	453	0	300	300	0	0	545	50	0	1	0	0	0	1	blank2r.bmp	0	1	+	0	6	C2r.bmp	492	1	blank2r.bmp	786	1	CPLW	786	1	blank2r.bmp	866	2	kuss	866	1	!	1292	1	!	-1	0	0	0	0	0	0	0	0	0	0	0	0	0	0	0	0	0	0	0	0	0	0	0	0	0	0	0
011119	09:59:48	10:05:59	368511	5.0.10.0	4_exp_AWA_CON_EVA_AMP	63	Rpleas_acq	Oppo	Rpleas	Amasked	CS_A	1pleas	distractor1	CONbeforeEVA	acq_US_pleas_masked	acq3_masked	3	7	453	0	300	300	0	0	532	46	0	0	0	0	0	1	blank2r.bmp	0	1	+	0	7	C3r.bmp	492	1	blank2r.bmp	786	1	CPLW	786	1	blank2r.bmp	866	3	engagiert	866	1	FEHLER	1745	1	!	1292	1	!	-1	0	0	0	0	0	0	0	0	0	0	0	0	0	0	0	0	0	0	0	0	0	0	0	0
011119	09:59:48	10:06:01	370777	5.0.10.0	4_exp_AWA_CON_EVA_AMP	63	Rpleas_acq	Oppo	Rpleas	Amasked	CS_A	1pleas	distractor1	CONbeforeEVA	acq_US_unple_masked	acq3_masked	3	8	453	0	300	300	0	0	717	46	0	1	0	0	0	1	blank2r.bmp	0	1	+	0	1	B1r.bmp	492	1	blank2r.bmp	786	1	DHJF	786	1	blank2r.bmp	866	1	geizig	866	1	!	1292	1	!	-1	0	0	0	0	0	0	0	0	0	0	0	0	0	0	0	0	0	0	0	0	0	0	0	0	0	0	0
011119	09:59:48	10:06:04	373043	5.0.10.0	4_exp_AWA_CON_EVA_AMP	63	Rpleas_acq	Oppo	Rpleas	Amasked	CS_A	1pleas	distractor1	CONbeforeEVA	acq_US_unple_masked	acq3_masked	3	9	453	1	300	300	0	0	462	46	0	1	0	0	0	1	blank2r.bmp	0	1	+	0	4	B4r.bmp	492	1	blank2r.bmp	786	1	DHJF	786	1	blank2r.bmp	866	3	engstirnig	866	1	!	1292	1	!	1359	0	0	0	0	0	0	0	0	0	0	0	0	0	0	0	0	0	0	0	0	0	0	0	0	0	0	0
011119	09:59:48	10:06:06	375348	5.0.10.0	4_exp_AWA_CON_EVA_AMP	63	Rpleas_acq	Oppo	Rpleas	Amasked	CS_A	1pleas	distractor1	CONbeforeEVA	acq_US_pleas_masked	acq3_masked	3	10	453	0	300	300	0	0	532	50	0	1	0	0	0	1	blank2r.bmp	0	1	+	0	3	B3r.bmp	492	1	blank2r.bmp	786	1	CPLW	786	1	blank2r.bmp	866	6	besonnen	866	1	!	1292	1	!	-1	0	0	0	0	0	0	0	0	0	0	0	0	0	0	0	0	0	0	0	0	0	0	0	0	0	0	0
011119	09:59:48	10:06:08	377521	5.0.10.0	4_exp_AWA_CON_EVA_AMP	63	Rpleas_acq	Oppo	Rpleas	Amasked	CS_A	1pleas	distractor1	CONbeforeEVA	acq_US_unple_masked	acq3_masked	3	11	453	0	300	300	0	0	385	46	0	1	0	0	0	1	blank2r.bmp	0	1	+	0	2	B2r.bmp	492	1	blank2r.bmp	786	1	DHJF	786	1	blank2r.bmp	866	5	töten	866	1	!	-1	1	!	-1	0	0	0	0	0	0	0	0	0	0	0	0	0	0	0	0	0	0	0	0	0	0	0	0	0	0	0
011119	09:59:48	10:06:10	379840	5.0.10.0	4_exp_AWA_CON_EVA_AMP	63	Rpleas_acq	Oppo	Rpleas	Amasked	CS_A	1pleas	distractor1	CONbeforeEVA	acq_US_unple_masked	acq3_masked	3	12	453	1	300	300	0	0	511	46	0	1	0	0	0	1	blank2r.bmp	0	1	+	0	1	B1r.bmp	492	1	blank2r.bmp	786	1	DHJF	786	1	blank2r.bmp	866	2	krise	866	1	!	1292	1	!	1412	0	0	0	0	0	0	0	0	0	0	0	0	0	0	0	0	0	0	0	0	0	0	0	0	0	0	0
011119	09:59:48	10:06:13	382185	5.0.10.0	4_exp_AWA_CON_EVA_AMP	63	Rpleas_acq	Oppo	Rpleas	Amasked	CS_A	1pleas	distractor1	CONbeforeEVA	acq_US_pleas_masked	acq3_masked	3	13	453	0	300	300	0	0	574	50	0	1	0	0	0	1	blank2r.bmp	0	1	+	0	5	C1r.bmp	492	1	blank2r.bmp	786	1	CPLW	786	1	blank2r.bmp	866	2	kuss	866	1	!	1292	1	!	-1	0	0	0	0	0	0	0	0	0	0	0	0	0	0	0	0	0	0	0	0	0	0	0	0	0	0	0
011119	09:59:48	10:06:15	384238	5.0.10.0	4_exp_AWA_CON_EVA_AMP	63	Rpleas_acq	Oppo	Rpleas	Amasked	CS_A	1pleas	distractor1	CONbeforeEVA	acq_US_unple_masked	acq3_masked	3	14	453	0	300	300	0	0	277	46	0	1	0	0	0	1	blank2r.bmp	0	1	+	0	8	C4r.bmp	492	1	blank2r.bmp	786	1	DHJF	786	1	blank2r.bmp	866	6	bange	866	1	!	-1	1	!	-1	0	0	0	0	0	0	0	0	0	0	0	0	0	0	0	0	0	0	0	0	0	0	0	0	0	0	0
011119	09:59:48	10:06:17	386450	5.0.10.0	4_exp_AWA_CON_EVA_AMP	63	Rpleas_acq	Oppo	Rpleas	Amasked	CS_A	1pleas	distractor1	CONbeforeEVA	acq_US_pleas_masked	acq3_masked	3	15	453	1	300	300	0	0	408	50	0	1	0	0	0	1	blank2r.bmp	0	1	+	0	6	C2r.bmp	492	1	blank2r.bmp	786	1	CPLW	786	1	blank2r.bmp	866	6	besonnen	866	1	!	1292	1	!	1306	0	0	0	0	0	0	0	0	0	0	0	0	0	0	0	0	0	0	0	0	0	0	0	0	0	0	0
011119	09:59:48	10:06:19	388649	5.0.10.0	4_exp_AWA_CON_EVA_AMP	63	Rpleas_acq	Oppo	Rpleas	Amasked	CS_A	1pleas	distractor1	CONbeforeEVA	acq_US_unple_masked	acq3_masked	3	16	453	1	300	300	0	0	399	46	0	1	0	0	0	1	blank2r.bmp	0	1	+	0	7	C3r.bmp	492	1	blank2r.bmp	786	1	DHJF	786	1	blank2r.bmp	866	5	töten	866	1	!	1292	1	!	1306	0	0	0	0	0	0	0	0	0	0	0	0	0	0	0	0	0	0	0	0	0	0	0	0	0	0	0
011119	09:59:48	10:06:21	390808	5.0.10.0	4_exp_AWA_CON_EVA_AMP	63	Rpleas_acq	Oppo	Rpleas	Amasked	CS_A	1pleas	distractor1	CONbeforeEVA	acq_US_unple_masked	acq3_masked	3	17	453	0	300	300	0	0	381	46	0	1	0	0	0	1	blank2r.bmp	0	1	+	0	3	B3r.bmp	492	1	blank2r.bmp	786	1	DHJF	786	1	blank2r.bmp	866	4	verbissen	866	1	!	-1	1	!	-1	0	0	0	0	0	0	0	0	0	0	0	0	0	0	0	0	0	0	0	0	0	0	0	0	0	0	0
011119	09:59:48	10:06:25	394074	5.0.10.0	4_exp_AWA_CON_EVA_AMP	63	Rpleas_acq	Oppo	Rpleas	Amasked	CS_A	1pleas	distractor1	CONbeforeEVA	acq_US_pleas_masked	acq3_masked	3	18	453	0	300	300	0	0	1479	50	0	1	0	0	0	1	blank2r.bmp	0	1	+	0	6	C2r.bmp	492	1	blank2r.bmp	786	1	CPLW	786	1	blank2r.bmp	866	1	gesittet	866	1	!	1292	1	!	-1	0	0	0	0	0	0	0	0	0	0	0	0	0	0	0	0	0	0	0	0	0	0	0	0	0	0	0
011119	09:59:48	10:06:27	396339	5.0.10.0	4_exp_AWA_CON_EVA_AMP	63	Rpleas_acq	Oppo	Rpleas	Amasked	CS_A	1pleas	distractor1	CONbeforeEVA	acq_US_unple_masked	acq3_masked	3	19	453	1	300	300	0	0	456	46	0	1	0	0	0	1	blank2r.bmp	0	1	+	0	4	B4r.bmp	492	1	blank2r.bmp	786	1	DHJF	786	1	blank2r.bmp	866	2	krise	866	1	!	1292	1	!	1359	0	0	0	0	0	0	0	0	0	0	0	0	0	0	0	0	0	0	0	0	0	0	0	0	0	0	0
011119	09:59:48	10:06:29	398712	5.0.10.0	4_exp_AWA_CON_EVA_AMP	63	Rpleas_acq	Oppo	Rpleas	Amasked	CS_A	1pleas	distractor1	CONbeforeEVA	acq_US_pleas_masked	acq3_masked	3	20	453	0	300	300	0	0	587	50	0	1	0	0	0	1	blank2r.bmp	0	1	+	0	2	B2r.bmp	492	1	blank2r.bmp	786	1	CPLW	786	1	blank2r.bmp	866	3	engagiert	866	1	!	1292	1	!	-1	0	0	0	0	0	0	0	0	0	0	0	0	0	0	0	0	0	0	0	0	0	0	0	0	0	0	0
011119	09:59:48	10:06:32	401044	5.0.10.0	4_exp_AWA_CON_EVA_AMP	63	Rpleas_acq	Oppo	Rpleas	Amasked	CS_A	1pleas	distractor1	CONbeforeEVA	acq_US_unple_masked	acq3_masked	3	21	453	1	300	300	0	0	511	46	0	1	0	0	0	1	blank2r.bmp	0	1	+	0	7	C3r.bmp	492	1	blank2r.bmp	786	1	DHJF	786	1	blank2r.bmp	866	3	engstirnig	866	1	!	1292	1	!	1412	0	0	0	0	0	0	0	0	0	0	0	0	0	0	0	0	0	0	0	0	0	0	0	0	0	0	0
011119	09:59:48	10:06:34	403270	5.0.10.0	4_exp_AWA_CON_EVA_AMP	63	Rpleas_acq	Oppo	Rpleas	Amasked	CS_A	1pleas	distractor1	CONbeforeEVA	acq_US_unple_masked	acq3_masked	3	22	453	1	300	300	0	0	437	46	0	1	0	0	0	1	blank2r.bmp	0	1	+	0	8	C4r.bmp	492	1	blank2r.bmp	786	1	DHJF	786	1	blank2r.bmp	866	1	geizig	866	1	!	1292	1	!	1332	0	0	0	0	0	0	0	0	0	0	0	0	0	0	0	0	0	0	0	0	0	0	0	0	0	0	0
011119	09:59:48	10:06:36	405682	5.0.10.0	4_exp_AWA_CON_EVA_AMP	63	Rpleas_acq	Oppo	Rpleas	Amasked	CS_A	1pleas	distractor1	CONbeforeEVA	acq_US_pleas_masked	acq3_masked	3	23	453	1	300	300	0	0	412	46	0	0	0	0	0	1	blank2r.bmp	0	1	+	0	5	C1r.bmp	492	1	blank2r.bmp	786	1	CPLW	786	1	blank2r.bmp	866	5	träumen	866	1	FEHLER	1625	1	!	1292	1	!	1306	0	0	0	0	0	0	0	0	0	0	0	0	0	0	0	0	0	0	0	0	0	0	0	0
011119	09:59:48	10:06:38	407775	5.0.10.0	4_exp_AWA_CON_EVA_AMP	63	Rpleas_acq	Oppo	Rpleas	Amasked	CS_A	1pleas	distractor1	CONbeforeEVA	acq_US_pleas_masked	acq3_masked	3	24	453	1	300	300	0	0	514	50	0	1	0	0	0	1	blank2r.bmp	0	1	+	0	1	B1r.bmp	492	1	blank2r.bmp	786	1	CPLW	786	1	blank2r.bmp	866	4	vergnügt	866	1	!	1292	1	!	1412	0	0	0	0	0	0	0	0	0	0	0	0	0	0	0	0	0	0	0	0	0	0	0	0	0	0	0
011119	09:59:48	10:06:41	410054	5.0.10.0	4_exp_AWA_CON_EVA_AMP	63	Rpleas_acq	Oppo	Rpleas	Amasked	CS_A	1pleas	distractor1	CONbeforeEVA	acq_US_unple_masked	acq3_masked	3	25	453	1	300	300	0	0	476	46	0	1	0	0	0	1	blank2r.bmp	0	1	+	0	5	C1r.bmp	492	1	blank2r.bmp	786	1	DHJF	786	1	blank2r.bmp	866	6	bange	866	1	!	1292	1	!	1372	0	0	0	0	0	0	0	0	0	0	0	0	0	0	0	0	0	0	0	0	0	0	0	0	0	0	0
011119	09:59:48	10:06:43	412359	5.0.10.0	4_exp_AWA_CON_EVA_AMP	63	Rpleas_acq	Oppo	Rpleas	Amasked	CS_A	1pleas	distractor1	CONbeforeEVA	acq_US_pleas_masked	acq3_masked	3	26	453	0	300	300	0	0	532	50	0	1	0	0	0	1	blank2r.bmp	0	1	+	0	7	C3r.bmp	492	1	blank2r.bmp	786	1	CPLW	786	1	blank2r.bmp	866	6	besonnen	866	1	!	1292	1	!	-1	0	0	0	0	0	0	0	0	0	0	0	0	0	0	0	0	0	0	0	0	0	0	0	0	0	0	0
011119	09:59:48	10:06:45	414852	5.0.10.0	4_exp_AWA_CON_EVA_AMP	63	Rpleas_acq	Oppo	Rpleas	Amasked	CS_A	1pleas	distractor1	CONbeforeEVA	acq_US_pleas_masked	acq3_masked	3	27	453	1	300	300	0	0	466	46	0	0	0	0	0	1	blank2r.bmp	0	1	+	0	2	B2r.bmp	492	1	blank2r.bmp	786	1	CPLW	786	1	blank2r.bmp	866	1	gesittet	866	1	FEHLER	1692	1	!	1292	1	!	1372	0	0	0	0	0	0	0	0	0	0	0	0	0	0	0	0	0	0	0	0	0	0	0	0
011119	09:59:48	10:06:47	416851	5.0.10.0	4_exp_AWA_CON_EVA_AMP	63	Rpleas_acq	Oppo	Rpleas	Amasked	CS_A	1pleas	distractor1	CONbeforeEVA	acq_US_unple_masked	acq3_masked	3	28	453	1	300	300	0	0	400	46	0	1	0	0	0	1	blank2r.bmp	0	1	+	0	1	B1r.bmp	492	1	blank2r.bmp	786	1	DHJF	786	1	blank2r.bmp	866	5	töten	866	1	!	1292	1	!	1306	0	0	0	0	0	0	0	0	0	0	0	0	0	0	0	0	0	0	0	0	0	0	0	0	0	0	0
011119	09:59:48	10:06:50	419263	5.0.10.0	4_exp_AWA_CON_EVA_AMP	63	Rpleas_acq	Oppo	Rpleas	Amasked	CS_A	1pleas	distractor1	CONbeforeEVA	acq_US_pleas_masked	acq3_masked	3	29	453	1	300	300	0	0	401	46	0	0	0	0	0	1	blank2r.bmp	0	1	+	0	3	B3r.bmp	492	1	blank2r.bmp	786	1	CPLW	786	1	blank2r.bmp	866	4	vergnügt	866	1	FEHLER	1625	1	!	1292	1	!	1306	0	0	0	0	0	0	0	0	0	0	0	0	0	0	0	0	0	0	0	0	0	0	0	0
011119	09:59:48	10:06:52	421502	5.0.10.0	4_exp_AWA_CON_EVA_AMP	63	Rpleas_acq	Oppo	Rpleas	Amasked	CS_A	1pleas	distractor1	CONbeforeEVA	acq_US_pleas_masked	acq3_masked	3	30	453	1	300	300	0	0	441	46	0	0	0	0	0	1	blank2r.bmp	0	1	+	0	8	C4r.bmp	492	1	blank2r.bmp	786	1	CPLW	786	1	blank2r.bmp	866	3	engagiert	866	1	FEHLER	1665	1	!	1292	1	!	1346	0	0	0	0	0	0	0	0	0	0	0	0	0	0	0	0	0	0	0	0	0	0	0	0
011119	09:59:48	10:06:54	423488	5.0.10.0	4_exp_AWA_CON_EVA_AMP	63	Rpleas_acq	Oppo	Rpleas	Amasked	CS_A	1pleas	distractor1	CONbeforeEVA	acq_US_pleas_masked	acq3_masked	3	31	453	1	300	300	0	0	401	50	0	1	0	0	0	1	blank2r.bmp	0	1	+	0	4	B4r.bmp	492	1	blank2r.bmp	786	1	CPLW	786	1	blank2r.bmp	866	2	kuss	866	1	!	1292	1	!	1306	0	0	0	0	0	0	0	0	0	0	0	0	0	0	0	0	0	0	0	0	0	0	0	0	0	0	0
011119	09:59:48	10:06:56	425807	5.0.10.0	4_exp_AWA_CON_EVA_AMP	63	Rpleas_acq	Oppo	Rpleas	Amasked	CS_A	1pleas	distractor1	CONbeforeEVA	acq_US_unple_masked	acq3_masked	3	32	453	0	300	300	0	0	555	46	0	1	0	0	0	1	blank2r.bmp	0	1	+	0	6	C2r.bmp	492	1	blank2r.bmp	786	1	DHJF	786	1	blank2r.bmp	866	1	geizig	866	1	!	1292	1	!	-1	0	0	0	0	0	0	0	0	0	0	0	0	0	0	0	0	0	0	0	0	0	0	0	0	0	0	0
011119	09:59:48	10:06:58	427966	5.0.10.0	4_exp_AWA_CON_EVA_AMP	63	Rpleas_acq	Oppo	Rpleas	Amasked	CS_A	1pleas	distractor1	CONbeforeEVA	acq_US_pleas_masked	acq3_masked	3	33	453	0	300	300	0	0	373	50	0	1	0	0	0	1	blank2r.bmp	0	1	+	0	2	B2r.bmp	492	1	blank2r.bmp	786	1	CPLW	786	1	blank2r.bmp	866	5	träumen	866	1	!	-1	1	!	-1	0	0	0	0	0	0	0	0	0	0	0	0	0	0	0	0	0	0	0	0	0	0	0	0	0	0	0
011119	09:59:48	10:07:01	430245	5.0.10.0	4_exp_AWA_CON_EVA_AMP	63	Rpleas_acq	Oppo	Rpleas	Amasked	CS_A	1pleas	distractor1	CONbeforeEVA	acq_US_unple_masked	acq3_masked	3	34	453	1	300	300	0	0	471	46	0	1	0	0	0	1	blank2r.bmp	0	1	+	0	4	B4r.bmp	492	1	blank2r.bmp	786	1	DHJF	786	1	blank2r.bmp	866	4	verbissen	866	1	!	1292	1	!	1372	0	0	0	0	0	0	0	0	0	0	0	0	0	0	0	0	0	0	0	0	0	0	0	0	0	0	0
011119	09:59:48	10:07:03	432618	5.0.10.0	4_exp_AWA_CON_EVA_AMP	63	Rpleas_acq	Oppo	Rpleas	Amasked	CS_A	1pleas	distractor1	CONbeforeEVA	acq_US_unple_masked	acq3_masked	3	35	453	0	300	300	0	0	376	50	0	0	0	0	0	1	blank2r.bmp	0	1	+	0	6	C2r.bmp	492	1	blank2r.bmp	786	1	DHJF	786	1	blank2r.bmp	866	2	krise	866	1	FEHLER	1586	1	!	-1	1	!	-1	0	0	0	0	0	0	0	0	0	0	0	0	0	0	0	0	0	0	0	0	0	0	0	0
011119	09:59:48	10:07:05	434723	5.0.10.0	4_exp_AWA_CON_EVA_AMP	63	Rpleas_acq	Oppo	Rpleas	Amasked	CS_A	1pleas	distractor1	CONbeforeEVA	acq_US_unple_masked	acq3_masked	3	36	453	0	300	300	0	0	540	46	0	1	0	0	0	1	blank2r.bmp	0	1	+	0	5	C1r.bmp	492	1	blank2r.bmp	786	1	DHJF	786	1	blank2r.bmp	866	3	engstirnig	866	1	!	1292	1	!	-1	0	0	0	0	0	0	0	0	0	0	0	0	0	0	0	0	0	0	0	0	0	0	0	0	0	0	0
011119	09:59:48	10:07:19	448664	5.0.10.0	4_exp_AWA_CON_EVA_AMP	63	Rpleas_acq	Oppo	Rpleas	Amasked	CS_A	1pleas	distractor1	CONbeforeEVA	acq_US_pleas_masked	acq45_masked	4	1	400	1	300	300	0	0	433	50	0	1	0	0	0	1	blank2r.bmp	0	1	+	0	1	B1r.bmp	492	1	blank2r.bmp	786	1	CPLW	786	1	blank2r.bmp	866	5	träumen	866	1	!	1239	1	!	1332	0	0	0	0	0	0	0	0	0	0	0	0	0	0	0	0	0	0	0	0	0	0	0	0	0	0	0
011119	09:59:48	10:07:21	450917	5.0.10.0	4_exp_AWA_CON_EVA_AMP	63	Rpleas_acq	Oppo	Rpleas	Amasked	CS_A	1pleas	distractor1	CONbeforeEVA	acq_US_pleas_masked	acq45_masked	4	2	400	1	300	300	0	0	459	46	0	0	0	0	0	1	blank2r.bmp	0	1	+	0	3	B3r.bmp	492	1	blank2r.bmp	786	1	CPLW	786	1	blank2r.bmp	866	3	engagiert	866	1	!	1239	1	!	1359	0	0	0	0	0	0	0	0	0	0	0	0	0	0	0	0	0	0	0	0	0	0	0	0	0	0	0
011119	09:59:48	10:07:24	453156	5.0.10.0	4_exp_AWA_CON_EVA_AMP	63	Rpleas_acq	Oppo	Rpleas	Amasked	CS_A	1pleas	distractor1	CONbeforeEVA	acq_US_unple_masked	acq45_masked	4	3	400	1	300	300	0	0	441	46	0	1	0	0	0	1	blank2r.bmp	0	1	+	0	8	C4r.bmp	492	1	blank2r.bmp	786	1	DHJF	786	1	blank2r.bmp	866	3	engstirnig	866	1	!	1239	1	!	1346	0	0	0	0	0	0	0	0	0	0	0	0	0	0	0	0	0	0	0	0	0	0	0	0	0	0	0
011119	09:59:48	10:07:26	455301	5.0.10.0	4_exp_AWA_CON_EVA_AMP	63	Rpleas_acq	Oppo	Rpleas	Amasked	CS_A	1pleas	distractor1	CONbeforeEVA	acq_US_pleas_masked	acq45_masked	4	4	400	1	300	300	0	0	346	50	0	1	0	0	0	1	blank2r.bmp	0	1	+	0	7	C3r.bmp	492	1	blank2r.bmp	786	1	CPLW	786	1	blank2r.bmp	866	4	vergnügt	866	1	!	1239	1	!	1252	0	0	0	0	0	0	0	0	0	0	0	0	0	0	0	0	0	0	0	0	0	0	0	0	0	0	0
011119	09:59:48	10:07:29	458673	5.0.10.0	4_exp_AWA_CON_EVA_AMP	63	Rpleas_acq	Oppo	Rpleas	Amasked	CS_A	1pleas	distractor1	CONbeforeEVA	acq_US_unple_masked	acq45_masked	4	5	400	0	300	300	0	0	1606	46	0	1	0	0	0	1	blank2r.bmp	0	1	+	0	1	B1r.bmp	492	1	blank2r.bmp	786	1	DHJF	786	1	blank2r.bmp	866	1	geizig	866	1	!	1239	1	!	-1	0	0	0	0	0	0	0	0	0	0	0	0	0	0	0	0	0	0	0	0	0	0	0	0	0	0	0
011119	09:59:48	10:07:31	460966	5.0.10.0	4_exp_AWA_CON_EVA_AMP	63	Rpleas_acq	Oppo	Rpleas	Amasked	CS_A	1pleas	distractor1	CONbeforeEVA	acq_US_unple_masked	acq45_masked	4	6	400	0	300	300	0	0	506	46	0	1	0	0	0	1	blank2r.bmp	0	1	+	0	5	C1r.bmp	492	1	blank2r.bmp	786	1	DHJF	786	1	blank2r.bmp	866	5	töten	866	1	!	1239	1	!	-1	0	0	0	0	0	0	0	0	0	0	0	0	0	0	0	0	0	0	0	0	0	0	0	0	0	0	0
011119	09:59:48	10:07:34	463205	5.0.10.0	4_exp_AWA_CON_EVA_AMP	63	Rpleas_acq	Oppo	Rpleas	Amasked	CS_A	1pleas	distractor1	CONbeforeEVA	acq_US_pleas_masked	acq45_masked	4	7	400	1	300	300	0	0	437	50	0	1	0	0	0	1	blank2r.bmp	0	1	+	0	7	C3r.bmp	492	1	blank2r.bmp	786	1	CPLW	786	1	blank2r.bmp	866	1	gesittet	866	1	!	1239	1	!	1332	0	0	0	0	0	0	0	0	0	0	0	0	0	0	0	0	0	0	0	0	0	0	0	0	0	0	0
011119	09:59:48	10:07:36	465390	5.0.10.0	4_exp_AWA_CON_EVA_AMP	63	Rpleas_acq	Oppo	Rpleas	Amasked	CS_A	1pleas	distractor1	CONbeforeEVA	acq_US_pleas_masked	acq45_masked	4	8	400	1	300	300	0	0	395	50	0	1	0	0	0	1	blank2r.bmp	0	1	+	0	6	C2r.bmp	492	1	blank2r.bmp	786	1	CPLW	786	1	blank2r.bmp	866	2	kuss	866	1	!	1239	1	!	1292	0	0	0	0	0	0	0	0	0	0	0	0	0	0	0	0	0	0	0	0	0	0	0	0	0	0	0
011119	09:59:48	10:07:38	467643	5.0.10.0	4_exp_AWA_CON_EVA_AMP	63	Rpleas_acq	Oppo	Rpleas	Amasked	CS_A	1pleas	distractor1	CONbeforeEVA	acq_US_pleas_masked	acq45_masked	4	9	400	0	300	300	0	0	479	50	0	1	0	0	0	1	blank2r.bmp	0	1	+	0	4	B4r.bmp	492	1	blank2r.bmp	786	1	CPLW	786	1	blank2r.bmp	866	6	besonnen	866	1	!	1239	1	!	-1	0	0	0	0	0	0	0	0	0	0	0	0	0	0	0	0	0	0	0	0	0	0	0	0	0	0	0
011119	09:59:48	10:07:40	469909	5.0.10.0	4_exp_AWA_CON_EVA_AMP	63	Rpleas_acq	Oppo	Rpleas	Amasked	CS_A	1pleas	distractor1	CONbeforeEVA	acq_US_unple_masked	acq45_masked	4	10	400	1	300	300	0	0	451	46	0	1	0	0	0	1	blank2r.bmp	0	1	+	0	3	B3r.bmp	492	1	blank2r.bmp	786	1	DHJF	786	1	blank2r.bmp	866	4	verbissen	866	1	!	1239	1	!	1359	0	0	0	0	0	0	0	0	0	0	0	0	0	0	0	0	0	0	0	0	0	0	0	0	0	0	0
011119	09:59:48	10:07:43	472014	5.0.10.0	4_exp_AWA_CON_EVA_AMP	63	Rpleas_acq	Oppo	Rpleas	Amasked	CS_A	1pleas	distractor1	CONbeforeEVA	acq_US_unple_masked	acq45_masked	4	11	400	0	300	300	0	0	329	46	0	1	0	0	0	1	blank2r.bmp	0	1	+	0	8	C4r.bmp	492	1	blank2r.bmp	786	1	DHJF	786	1	blank2r.bmp	866	2	krise	866	1	!	-1	1	!	-1	0	0	0	0	0	0	0	0	0	0	0	0	0	0	0	0	0	0	0	0	0	0	0	0	0	0	0
011119	09:59:48	10:07:45	474107	5.0.10.0	4_exp_AWA_CON_EVA_AMP	63	Rpleas_acq	Oppo	Rpleas	Amasked	CS_A	1pleas	distractor1	CONbeforeEVA	acq_US_pleas_masked	acq45_masked	4	12	400	0	300	300	0	0	316	50	0	1	0	0	0	1	blank2r.bmp	0	1	+	0	2	B2r.bmp	492	1	blank2r.bmp	786	1	CPLW	786	1	blank2r.bmp	866	6	besonnen	866	1	!	-1	1	!	-1	0	0	0	0	0	0	0	0	0	0	0	0	0	0	0	0	0	0	0	0	0	0	0	0	0	0	0
011119	09:59:48	10:07:47	476386	5.0.10.0	4_exp_AWA_CON_EVA_AMP	63	Rpleas_acq	Oppo	Rpleas	Amasked	CS_A	1pleas	distractor1	CONbeforeEVA	acq_US_unple_masked	acq45_masked	4	13	400	0	300	300	0	0	483	46	0	1	0	0	0	1	blank2r.bmp	0	1	+	0	2	B2r.bmp	492	1	blank2r.bmp	786	1	DHJF	786	1	blank2r.bmp	866	6	bange	866	1	!	1239	1	!	-1	0	0	0	0	0	0	0	0	0	0	0	0	0	0	0	0	0	0	0	0	0	0	0	0	0	0	0
011119	09:59:48	10:07:49	478638	5.0.10.0	4_exp_AWA_CON_EVA_AMP	63	Rpleas_acq	Oppo	Rpleas	Amasked	CS_A	1pleas	distractor1	CONbeforeEVA	acq_US_unple_masked	acq45_masked	4	14	400	1	300	300	0	0	443	50	0	0	0	0	0	1	blank2r.bmp	0	1	+	0	6	C2r.bmp	492	1	blank2r.bmp	786	1	DHJF	786	1	blank2r.bmp	866	4	verbissen	866	1	!	1239	1	!	1346	0	0	0	0	0	0	0	0	0	0	0	0	0	0	0	0	0	0	0	0	0	0	0	0	0	0	0
011119	09:59:48	10:07:51	480917	5.0.10.0	4_exp_AWA_CON_EVA_AMP	63	Rpleas_acq	Oppo	Rpleas	Amasked	CS_A	1pleas	distractor1	CONbeforeEVA	acq_US_pleas_masked	acq45_masked	4	15	400	0	300	300	0	0	517	50	0	1	0	0	0	1	blank2r.bmp	0	1	+	0	4	B4r.bmp	492	1	blank2r.bmp	786	1	CPLW	786	1	blank2r.bmp	866	3	engagiert	866	1	!	1239	1	!	-1	0	0	0	0	0	0	0	0	0	0	0	0	0	0	0	0	0	0	0	0	0	0	0	0	0	0	0
011119	09:59:48	10:07:54	483130	5.0.10.0	4_exp_AWA_CON_EVA_AMP	63	Rpleas_acq	Oppo	Rpleas	Amasked	CS_A	1pleas	distractor1	CONbeforeEVA	acq_US_pleas_masked	acq45_masked	4	16	400	1	300	300	0	0	409	50	0	1	0	0	0	1	blank2r.bmp	0	1	+	0	3	B3r.bmp	492	1	blank2r.bmp	786	1	CPLW	786	1	blank2r.bmp	866	2	kuss	866	1	!	1239	1	!	1306	0	0	0	0	0	0	0	0	0	0	0	0	0	0	0	0	0	0	0	0	0	0	0	0	0	0	0
011119	09:59:48	10:07:56	485409	5.0.10.0	4_exp_AWA_CON_EVA_AMP	63	Rpleas_acq	Oppo	Rpleas	Amasked	CS_A	1pleas	distractor1	CONbeforeEVA	acq_US_unple_masked	acq45_masked	4	17	400	0	300	300	0	0	508	46	0	1	0	0	0	1	blank2r.bmp	0	1	+	0	5	C1r.bmp	492	1	blank2r.bmp	786	1	DHJF	786	1	blank2r.bmp	866	3	engstirnig	866	1	!	1239	1	!	-1	0	0	0	0	0	0	0	0	0	0	0	0	0	0	0	0	0	0	0	0	0	0	0	0	0	0	0
011119	09:59:48	10:07:58	487514	5.0.10.0	4_exp_AWA_CON_EVA_AMP	63	Rpleas_acq	Oppo	Rpleas	Amasked	CS_A	1pleas	distractor1	CONbeforeEVA	acq_US_unple_masked	acq45_masked	4	18	400	0	300	300	0	0	326	50	0	0	0	0	0	1	blank2r.bmp	0	1	+	0	7	C3r.bmp	492	1	blank2r.bmp	786	1	DHJF	786	1	blank2r.bmp	866	5	töten	866	1	!	-1	1	!	-1	0	0	0	0	0	0	0	0	0	0	0	0	0	0	0	0	0	0	0	0	0	0	0	0	0	0	0
011119	09:59:48	10:08:00	489727	5.0.10.0	4_exp_AWA_CON_EVA_AMP	63	Rpleas_acq	Oppo	Rpleas	Amasked	CS_A	1pleas	distractor1	CONbeforeEVA	acq_US_unple_masked	acq45_masked	4	19	400	1	300	300	0	0	404	50	0	0	0	0	0	1	blank2r.bmp	0	1	+	0	8	C4r.bmp	492	1	blank2r.bmp	786	1	DHJF	786	1	blank2r.bmp	866	1	geizig	866	1	!	1239	1	!	1306	0	0	0	0	0	0	0	0	0	0	0	0	0	0	0	0	0	0	0	0	0	0	0	0	0	0	0
011119	09:59:48	10:08:02	491899	5.0.10.0	4_exp_AWA_CON_EVA_AMP	63	Rpleas_acq	Oppo	Rpleas	Amasked	CS_A	1pleas	distractor1	CONbeforeEVA	acq_US_pleas_masked	acq45_masked	4	20	400	1	300	300	0	0	385	50	0	1	0	0	0	1	blank2r.bmp	0	1	+	0	1	B1r.bmp	492	1	blank2r.bmp	786	1	CPLW	786	1	blank2r.bmp	866	1	gesittet	866	1	!	1239	1	!	1279	0	0	0	0	0	0	0	0	0	0	0	0	0	0	0	0	0	0	0	0	0	0	0	0	0	0	0
011119	09:59:48	10:08:05	494072	5.0.10.0	4_exp_AWA_CON_EVA_AMP	63	Rpleas_acq	Oppo	Rpleas	Amasked	CS_A	1pleas	distractor1	CONbeforeEVA	acq_US_unple_masked	acq45_masked	4	21	400	1	300	300	0	0	378	50	0	0	0	0	0	1	blank2r.bmp	0	1	+	0	7	C3r.bmp	492	1	blank2r.bmp	786	1	DHJF	786	1	blank2r.bmp	866	2	krise	866	1	!	1239	1	!	1279	0	0	0	0	0	0	0	0	0	0	0	0	0	0	0	0	0	0	0	0	0	0	0	0	0	0	0
011119	09:59:48	10:08:07	496284	5.0.10.0	4_exp_AWA_CON_EVA_AMP	63	Rpleas_acq	Oppo	Rpleas	Amasked	CS_A	1pleas	distractor1	CONbeforeEVA	acq_US_unple_masked	acq45_masked	4	22	400	1	300	300	0	0	401	46	0	1	0	0	0	1	blank2r.bmp	0	1	+	0	8	C4r.bmp	492	1	blank2r.bmp	786	1	DHJF	786	1	blank2r.bmp	866	6	bange	866	1	!	1239	1	!	1306	0	0	0	0	0	0	0	0	0	0	0	0	0	0	0	0	0	0	0	0	0	0	0	0	0	0	0
011119	09:59:48	10:08:09	498537	5.0.10.0	4_exp_AWA_CON_EVA_AMP	63	Rpleas_acq	Oppo	Rpleas	Amasked	CS_A	1pleas	distractor1	CONbeforeEVA	acq_US_unple_masked	acq45_masked	4	23	400	0	300	300	0	0	479	50	0	0	0	0	0	1	blank2r.bmp	0	1	+	0	3	B3r.bmp	492	1	blank2r.bmp	786	1	DHJF	786	1	blank2r.bmp	866	2	krise	866	1	!	1239	1	!	-1	0	0	0	0	0	0	0	0	0	0	0	0	0	0	0	0	0	0	0	0	0	0	0	0	0	0	0
011119	09:59:48	10:08:11	500829	5.0.10.0	4_exp_AWA_CON_EVA_AMP	63	Rpleas_acq	Oppo	Rpleas	Amasked	CS_A	1pleas	distractor1	CONbeforeEVA	acq_US_unple_masked	acq45_masked	4	24	400	0	300	300	0	0	497	46	0	1	0	0	0	1	blank2r.bmp	0	1	+	0	4	B4r.bmp	492	1	blank2r.bmp	786	1	DHJF	786	1	blank2r.bmp	866	6	bange	866	1	!	1239	1	!	-1	0	0	0	0	0	0	0	0	0	0	0	0	0	0	0	0	0	0	0	0	0	0	0	0	0	0	0
011119	09:59:48	10:08:14	503135	5.0.10.0	4_exp_AWA_CON_EVA_AMP	63	Rpleas_acq	Oppo	Rpleas	Amasked	CS_A	1pleas	distractor1	CONbeforeEVA	acq_US_pleas_masked	acq45_masked	4	25	400	0	300	300	0	0	509	50	0	1	0	0	0	1	blank2r.bmp	0	1	+	0	6	C2r.bmp	492	1	blank2r.bmp	786	1	CPLW	786	1	blank2r.bmp	866	5	träumen	866	1	!	1239	1	!	-1	0	0	0	0	0	0	0	0	0	0	0	0	0	0	0	0	0	0	0	0	0	0	0	0	0	0	0
011119	09:59:48	10:08:16	505400	5.0.10.0	4_exp_AWA_CON_EVA_AMP	63	Rpleas_acq	Oppo	Rpleas	Amasked	CS_A	1pleas	distractor1	CONbeforeEVA	acq_US_pleas_masked	acq45_masked	4	26	400	1	300	300	0	0	452	50	0	1	0	0	0	1	blank2r.bmp	0	1	+	0	2	B2r.bmp	492	1	blank2r.bmp	786	1	CPLW	786	1	blank2r.bmp	866	4	vergnügt	866	1	!	1239	1	!	1359	0	0	0	0	0	0	0	0	0	0	0	0	0	0	0	0	0	0	0	0	0	0	0	0	0	0	0
011119	09:59:48	10:08:18	507639	5.0.10.0	4_exp_AWA_CON_EVA_AMP	63	Rpleas_acq	Oppo	Rpleas	Amasked	CS_A	1pleas	distractor1	CONbeforeEVA	acq_US_pleas_masked	acq45_masked	4	27	400	1	300	300	0	0	439	50	0	1	0	0	0	1	blank2r.bmp	0	1	+	0	1	B1r.bmp	492	1	blank2r.bmp	786	1	CPLW	786	1	blank2r.bmp	866	1	gesittet	866	1	!	1239	1	!	1346	0	0	0	0	0	0	0	0	0	0	0	0	0	0	0	0	0	0	0	0	0	0	0	0	0	0	0
011119	09:59:48	10:08:20	509732	5.0.10.0	4_exp_AWA_CON_EVA_AMP	63	Rpleas_acq	Oppo	Rpleas	Amasked	CS_A	1pleas	distractor1	CONbeforeEVA	acq_US_pleas_masked	acq45_masked	4	28	400	0	300	300	0	0	321	50	0	1	0	0	0	1	blank2r.bmp	0	1	+	0	5	C1r.bmp	492	1	blank2r.bmp	786	1	CPLW	786	1	blank2r.bmp	866	2	kuss	866	1	!	-1	1	!	-1	0	0	0	0	0	0	0	0	0	0	0	0	0	0	0	0	0	0	0	0	0	0	0	0	0	0	0
011119	09:59:48	10:08:22	511971	5.0.10.0	4_exp_AWA_CON_EVA_AMP	63	Rpleas_acq	Oppo	Rpleas	Amasked	CS_A	1pleas	distractor1	CONbeforeEVA	acq_US_pleas_masked	acq45_masked	4	29	400	1	300	300	0	0	436	50	0	1	0	0	0	1	blank2r.bmp	0	1	+	0	2	B2r.bmp	492	1	blank2r.bmp	786	1	CPLW	786	1	blank2r.bmp	866	3	engagiert	866	1	!	1239	1	!	1332	0	0	0	0	0	0	0	0	0	0	0	0	0	0	0	0	0	0	0	0	0	0	0	0	0	0	0
011119	09:59:48	10:08:25	514130	5.0.10.0	4_exp_AWA_CON_EVA_AMP	63	Rpleas_acq	Oppo	Rpleas	Amasked	CS_A	1pleas	distractor1	CONbeforeEVA	acq_US_pleas_masked	acq45_masked	4	30	400	1	300	300	0	0	362	50	0	1	0	0	0	1	blank2r.bmp	0	1	+	0	5	C1r.bmp	492	1	blank2r.bmp	786	1	CPLW	786	1	blank2r.bmp	866	5	träumen	866	1	!	1239	1	!	1266	0	0	0	0	0	0	0	0	0	0	0	0	0	0	0	0	0	0	0	0	0	0	0	0	0	0	0
011119	09:59:48	10:08:27	516382	5.0.10.0	4_exp_AWA_CON_EVA_AMP	63	Rpleas_acq	Oppo	Rpleas	Amasked	CS_A	1pleas	distractor1	CONbeforeEVA	acq_US_unple_masked	acq45_masked	4	31	400	1	300	300	0	0	463	46	0	1	0	0	0	1	blank2r.bmp	0	1	+	0	3	B3r.bmp	492	1	blank2r.bmp	786	1	DHJF	786	1	blank2r.bmp	866	5	töten	866	1	!	1239	1	!	1359	0	0	0	0	0	0	0	0	0	0	0	0	0	0	0	0	0	0	0	0	0	0	0	0	0	0	0
011119	09:59:48	10:08:29	518741	5.0.10.0	4_exp_AWA_CON_EVA_AMP	63	Rpleas_acq	Oppo	Rpleas	Amasked	CS_A	1pleas	distractor1	CONbeforeEVA	acq_US_unple_masked	acq45_masked	4	32	400	0	300	300	0	0	589	46	0	1	0	0	0	1	blank2r.bmp	0	1	+	0	7	C3r.bmp	492	1	blank2r.bmp	786	1	DHJF	786	1	blank2r.bmp	866	1	geizig	866	1	!	1239	1	!	-1	0	0	0	0	0	0	0	0	0	0	0	0	0	0	0	0	0	0	0	0	0	0	0	0	0	0	0
011119	09:59:48	10:08:31	520954	5.0.10.0	4_exp_AWA_CON_EVA_AMP	63	Rpleas_acq	Oppo	Rpleas	Amasked	CS_A	1pleas	distractor1	CONbeforeEVA	acq_US_unple_masked	acq45_masked	4	33	400	1	300	300	0	0	410	46	0	1	0	0	0	1	blank2r.bmp	0	1	+	0	4	B4r.bmp	492	1	blank2r.bmp	786	1	DHJF	786	1	blank2r.bmp	866	3	engstirnig	866	1	!	1239	1	!	1306	0	0	0	0	0	0	0	0	0	0	0	0	0	0	0	0	0	0	0	0	0	0	0	0	0	0	0
011119	09:59:48	10:08:34	523193	5.0.10.0	4_exp_AWA_CON_EVA_AMP	63	Rpleas_acq	Oppo	Rpleas	Amasked	CS_A	1pleas	distractor1	CONbeforeEVA	acq_US_unple_masked	acq45_masked	4	34	400	1	300	300	0	0	447	46	0	1	0	0	0	1	blank2r.bmp	0	1	+	0	8	C4r.bmp	492	1	blank2r.bmp	786	1	DHJF	786	1	blank2r.bmp	866	4	verbissen	866	1	!	1239	1	!	1346	0	0	0	0	0	0	0	0	0	0	0	0	0	0	0	0	0	0	0	0	0	0	0	0	0	0	0
011119	09:59:48	10:08:36	525618	5.0.10.0	4_exp_AWA_CON_EVA_AMP	63	Rpleas_acq	Oppo	Rpleas	Amasked	CS_A	1pleas	distractor1	CONbeforeEVA	acq_US_pleas_masked	acq45_masked	4	35	400	0	300	300	0	0	662	50	0	1	0	0	0	1	blank2r.bmp	0	1	+	0	1	B1r.bmp	492	1	blank2r.bmp	786	1	CPLW	786	1	blank2r.bmp	866	4	vergnügt	866	1	!	1239	1	!	-1	0	0	0	0	0	0	0	0	0	0	0	0	0	0	0	0	0	0	0	0	0	0	0	0	0	0	0
011119	09:59:48	10:08:38	527871	5.0.10.0	4_exp_AWA_CON_EVA_AMP	63	Rpleas_acq	Oppo	Rpleas	Amasked	CS_A	1pleas	distractor1	CONbeforeEVA	acq_US_pleas_masked	acq45_masked	4	36	400	1	300	300	0	0	427	50	0	1	0	0	0	1	blank2r.bmp	0	1	+	0	6	C2r.bmp	492	1	blank2r.bmp	786	1	CPLW	786	1	blank2r.bmp	866	6	besonnen	866	1	!	1239	1	!	1332	0	0	0	0	0	0	0	0	0	0	0	0	0	0	0	0	0	0	0	0	0	0	0	0	0	0	0
011119	09:59:48	10:08:51	540372	5.0.10.0	4_exp_AWA_CON_EVA_AMP	63	Rpleas_acq	Oppo	Rpleas	Amasked	CS_A	1pleas	distractor1	CONbeforeEVA	acq_US_pleas_masked	acq45_masked	5	1	400	0	300	300	0	0	1173	50	0	1	0	0	0	1	blank2r.bmp	0	1	+	0	7	C3r.bmp	492	1	blank2r.bmp	786	1	CPLW	786	1	blank2r.bmp	866	6	besonnen	866	1	!	1239	1	!	-1	0	0	0	0	0	0	0	0	0	0	0	0	0	0	0	0	0	0	0	0	0	0	0	0	0	0	0
011119	09:59:48	10:08:53	542638	5.0.10.0	4_exp_AWA_CON_EVA_AMP	63	Rpleas_acq	Oppo	Rpleas	Amasked	CS_A	1pleas	distractor1	CONbeforeEVA	acq_US_unple_masked	acq45_masked	5	2	400	1	300	300	0	0	455	46	0	1	0	0	0	1	blank2r.bmp	0	1	+	0	3	B3r.bmp	492	1	blank2r.bmp	786	1	DHJF	786	1	blank2r.bmp	866	4	verbissen	866	1	!	1239	1	!	1359	0	0	0	0	0	0	0	0	0	0	0	0	0	0	0	0	0	0	0	0	0	0	0	0	0	0	0
011119	09:59:48	10:08:55	544784	5.0.10.0	4_exp_AWA_CON_EVA_AMP	63	Rpleas_acq	Oppo	Rpleas	Amasked	CS_A	1pleas	distractor1	CONbeforeEVA	acq_US_unple_masked	acq45_masked	5	3	400	1	300	300	0	0	357	46	0	1	0	0	0	1	blank2r.bmp	0	1	+	0	2	B2r.bmp	492	1	blank2r.bmp	786	1	DHJF	786	1	blank2r.bmp	866	3	engstirnig	866	1	!	1239	1	!	1252	0	0	0	0	0	0	0	0	0	0	0	0	0	0	0	0	0	0	0	0	0	0	0	0	0	0	0
011119	09:59:48	10:08:58	547023	5.0.10.0	4_exp_AWA_CON_EVA_AMP	63	Rpleas_acq	Oppo	Rpleas	Amasked	CS_A	1pleas	distractor1	CONbeforeEVA	acq_US_pleas_masked	acq45_masked	5	4	400	1	300	300	0	0	448	50	0	1	0	0	0	1	blank2r.bmp	0	1	+	0	5	C1r.bmp	492	1	blank2r.bmp	786	1	CPLW	786	1	blank2r.bmp	866	5	träumen	866	1	!	1239	1	!	1346	0	0	0	0	0	0	0	0	0	0	0	0	0	0	0	0	0	0	0	0	0	0	0	0	0	0	0
011119	09:59:48	10:09:00	549222	5.0.10.0	4_exp_AWA_CON_EVA_AMP	63	Rpleas_acq	Oppo	Rpleas	Amasked	CS_A	1pleas	distractor1	CONbeforeEVA	acq_US_unple_masked	acq45_masked	5	5	400	1	300	300	0	0	401	46	0	1	0	0	0	1	blank2r.bmp	0	1	+	0	8	C4r.bmp	492	1	blank2r.bmp	786	1	DHJF	786	1	blank2r.bmp	866	6	bange	866	1	!	1239	1	!	1306	0	0	0	0	0	0	0	0	0	0	0	0	0	0	0	0	0	0	0	0	0	0	0	0	0	0	0
011119	09:59:48	10:09:02	551488	5.0.10.0	4_exp_AWA_CON_EVA_AMP	63	Rpleas_acq	Oppo	Rpleas	Amasked	CS_A	1pleas	distractor1	CONbeforeEVA	acq_US_unple_masked	acq45_masked	5	6	400	0	300	300	0	0	492	46	0	1	0	0	0	1	blank2r.bmp	0	1	+	0	6	C2r.bmp	492	1	blank2r.bmp	786	1	DHJF	786	1	blank2r.bmp	866	5	töten	866	1	!	1239	1	!	-1	0	0	0	0	0	0	0	0	0	0	0	0	0	0	0	0	0	0	0	0	0	0	0	0	0	0	0
011119	09:59:48	10:09:04	553567	5.0.10.0	4_exp_AWA_CON_EVA_AMP	63	Rpleas_acq	Oppo	Rpleas	Amasked	CS_A	1pleas	distractor1	CONbeforeEVA	acq_US_unple_masked	acq45_masked	5	7	400	0	300	300	0	0	295	50	0	0	0	0	0	1	blank2r.bmp	0	1	+	0	1	B1r.bmp	492	1	blank2r.bmp	786	1	DHJF	786	1	blank2r.bmp	866	1	geizig	866	1	!	-1	1	!	-1	0	0	0	0	0	0	0	0	0	0	0	0	0	0	0	0	0	0	0	0	0	0	0	0	0	0	0
011119	09:59:48	10:09:06	555633	5.0.10.0	4_exp_AWA_CON_EVA_AMP	63	Rpleas_acq	Oppo	Rpleas	Amasked	CS_A	1pleas	distractor1	CONbeforeEVA	acq_US_pleas_masked	acq45_masked	5	8	400	0	300	300	0	0	284	50	0	1	0	0	0	1	blank2r.bmp	0	1	+	0	4	B4r.bmp	492	1	blank2r.bmp	786	1	CPLW	786	1	blank2r.bmp	866	1	gesittet	866	1	!	-1	1	!	-1	0	0	0	0	0	0	0	0	0	0	0	0	0	0	0	0	0	0	0	0	0	0	0	0	0	0	0
011119	09:59:48	10:09:08	557885	5.0.10.0	4_exp_AWA_CON_EVA_AMP	63	Rpleas_acq	Oppo	Rpleas	Amasked	CS_A	1pleas	distractor1	CONbeforeEVA	acq_US_pleas_masked	acq45_masked	5	9	400	1	300	300	0	0	430	46	0	0	0	0	0	1	blank2r.bmp	0	1	+	0	8	C4r.bmp	492	1	blank2r.bmp	786	1	CPLW	786	1	blank2r.bmp	866	2	kuss	866	1	!	1239	1	!	1332	0	0	0	0	0	0	0	0	0	0	0	0	0	0	0	0	0	0	0	0	0	0	0	0	0	0	0
011119	09:59:48	10:09:10	559951	5.0.10.0	4_exp_AWA_CON_EVA_AMP	63	Rpleas_acq	Oppo	Rpleas	Amasked	CS_A	1pleas	distractor1	CONbeforeEVA	acq_US_unple_masked	acq45_masked	5	10	400	0	300	300	0	0	299	46	0	1	0	0	0	1	blank2r.bmp	0	1	+	0	2	B2r.bmp	492	1	blank2r.bmp	786	1	DHJF	786	1	blank2r.bmp	866	2	krise	866	1	!	-1	1	!	-1	0	0	0	0	0	0	0	0	0	0	0	0	0	0	0	0	0	0	0	0	0	0	0	0	0	0	0
011119	09:59:48	10:09:13	562136	5.0.10.0	4_exp_AWA_CON_EVA_AMP	63	Rpleas_acq	Oppo	Rpleas	Amasked	CS_A	1pleas	distractor1	CONbeforeEVA	acq_US_pleas_masked	acq45_masked	5	11	400	1	300	300	0	0	382	46	0	0	0	0	0	1	blank2r.bmp	0	1	+	0	5	C1r.bmp	492	1	blank2r.bmp	786	1	CPLW	786	1	blank2r.bmp	866	3	engagiert	866	1	!	1239	1	!	1279	0	0	0	0	0	0	0	0	0	0	0	0	0	0	0	0	0	0	0	0	0	0	0	0	0	0	0
011119	09:59:48	10:09:15	564336	5.0.10.0	4_exp_AWA_CON_EVA_AMP	63	Rpleas_acq	Oppo	Rpleas	Amasked	CS_A	1pleas	distractor1	CONbeforeEVA	acq_US_pleas_masked	acq45_masked	5	12	400	1	300	300	0	0	408	50	0	1	0	0	0	1	blank2r.bmp	0	1	+	0	4	B4r.bmp	492	1	blank2r.bmp	786	1	CPLW	786	1	blank2r.bmp	866	4	vergnügt	866	1	!	1239	1	!	1306	0	0	0	0	0	0	0	0	0	0	0	0	0	0	0	0	0	0	0	0	0	0	0	0	0	0	0
011119	09:59:48	10:09:17	566575	5.0.10.0	4_exp_AWA_CON_EVA_AMP	63	Rpleas_acq	Oppo	Rpleas	Amasked	CS_A	1pleas	distractor1	CONbeforeEVA	acq_US_unple_masked	acq45_masked	5	13	400	1	300	300	0	0	440	46	0	1	0	0	0	1	blank2r.bmp	0	1	+	0	7	C3r.bmp	492	1	blank2r.bmp	786	1	DHJF	786	1	blank2r.bmp	866	1	geizig	866	1	!	1239	1	!	1346	0	0	0	0	0	0	0	0	0	0	0	0	0	0	0	0	0	0	0	0	0	0	0	0	0	0	0
011119	09:59:48	10:09:19	568827	5.0.10.0	4_exp_AWA_CON_EVA_AMP	63	Rpleas_acq	Oppo	Rpleas	Amasked	CS_A	1pleas	distractor1	CONbeforeEVA	acq_US_pleas_masked	acq45_masked	5	14	400	1	300	300	0	0	459	50	0	1	0	0	0	1	blank2r.bmp	0	1	+	0	1	B1r.bmp	492	1	blank2r.bmp	786	1	CPLW	786	1	blank2r.bmp	866	6	besonnen	866	1	!	1239	1	!	1359	0	0	0	0	0	0	0	0	0	0	0	0	0	0	0	0	0	0	0	0	0	0	0	0	0	0	0
011119	09:59:48	10:09:22	571093	5.0.10.0	4_exp_AWA_CON_EVA_AMP	63	Rpleas_acq	Oppo	Rpleas	Amasked	CS_A	1pleas	distractor1	CONbeforeEVA	acq_US_pleas_masked	acq45_masked	5	15	400	1	300	300	0	0	460	50	0	1	0	0	0	1	blank2r.bmp	0	1	+	0	3	B3r.bmp	492	1	blank2r.bmp	786	1	CPLW	786	1	blank2r.bmp	866	4	vergnügt	866	1	!	1239	1	!	1359	0	0	0	0	0	0	0	0	0	0	0	0	0	0	0	0	0	0	0	0	0	0	0	0	0	0	0
011119	09:59:48	10:09:24	573358	5.0.10.0	4_exp_AWA_CON_EVA_AMP	63	Rpleas_acq	Oppo	Rpleas	Amasked	CS_A	1pleas	distractor1	CONbeforeEVA	acq_US_unple_masked	acq45_masked	5	16	400	1	300	300	0	0	466	46	0	1	0	0	0	1	blank2r.bmp	0	1	+	0	6	C2r.bmp	492	1	blank2r.bmp	786	1	DHJF	786	1	blank2r.bmp	866	4	verbissen	866	1	!	1239	1	!	1372	0	0	0	0	0	0	0	0	0	0	0	0	0	0	0	0	0	0	0	0	0	0	0	0	0	0	0
011119	09:59:48	10:09:26	575544	5.0.10.0	4_exp_AWA_CON_EVA_AMP	63	Rpleas_acq	Oppo	Rpleas	Amasked	CS_A	1pleas	distractor1	CONbeforeEVA	acq_US_unple_masked	acq45_masked	5	17	400	1	300	300	0	0	388	50	0	0	0	0	0	1	blank2r.bmp	0	1	+	0	7	C3r.bmp	492	1	blank2r.bmp	786	1	DHJF	786	1	blank2r.bmp	866	3	engstirnig	866	1	!	1239	1	!	1292	0	0	0	0	0	0	0	0	0	0	0	0	0	0	0	0	0	0	0	0	0	0	0	0	0	0	0
011119	09:59:48	10:09:28	577717	5.0.10.0	4_exp_AWA_CON_EVA_AMP	63	Rpleas_acq	Oppo	Rpleas	Amasked	CS_A	1pleas	distractor1	CONbeforeEVA	acq_US_pleas_masked	acq45_masked	5	18	400	1	300	300	0	0	377	50	0	1	0	0	0	1	blank2r.bmp	0	1	+	0	8	C4r.bmp	492	1	blank2r.bmp	786	1	CPLW	786	1	blank2r.bmp	866	2	kuss	866	1	!	1239	1	!	1279	0	0	0	0	0	0	0	0	0	0	0	0	0	0	0	0	0	0	0	0	0	0	0	0	0	0	0
011119	09:59:48	10:09:30	579889	5.0.10.0	4_exp_AWA_CON_EVA_AMP	63	Rpleas_acq	Oppo	Rpleas	Amasked	CS_A	1pleas	distractor1	CONbeforeEVA	acq_US_pleas_masked	acq45_masked	5	19	400	1	300	300	0	0	365	50	0	1	0	0	0	1	blank2r.bmp	0	1	+	0	4	B4r.bmp	492	1	blank2r.bmp	786	1	CPLW	786	1	blank2r.bmp	866	3	engagiert	866	1	!	1239	1	!	1266	0	0	0	0	0	0	0	0	0	0	0	0	0	0	0	0	0	0	0	0	0	0	0	0	0	0	0
011119	09:59:48	10:09:32	581981	5.0.10.0	4_exp_AWA_CON_EVA_AMP	63	Rpleas_acq	Oppo	Rpleas	Amasked	CS_A	1pleas	distractor1	CONbeforeEVA	acq_US_unple_masked	acq45_masked	5	20	400	0	300	300	0	0	318	46	0	1	0	0	0	1	blank2r.bmp	0	1	+	0	1	B1r.bmp	492	1	blank2r.bmp	786	1	DHJF	786	1	blank2r.bmp	866	5	töten	866	1	!	-1	1	!	-1	0	0	0	0	0	0	0	0	0	0	0	0	0	0	0	0	0	0	0	0	0	0	0	0	0	0	0
011119	09:59:48	10:09:35	584247	5.0.10.0	4_exp_AWA_CON_EVA_AMP	63	Rpleas_acq	Oppo	Rpleas	Amasked	CS_A	1pleas	distractor1	CONbeforeEVA	acq_US_unple_masked	acq45_masked	5	21	400	0	300	300	0	0	479	46	0	1	0	0	0	1	blank2r.bmp	0	1	+	0	6	C2r.bmp	492	1	blank2r.bmp	786	1	DHJF	786	1	blank2r.bmp	866	2	krise	866	1	!	1239	1	!	-1	0	0	0	0	0	0	0	0	0	0	0	0	0	0	0	0	0	0	0	0	0	0	0	0	0	0	0
011119	09:59:48	10:09:37	586513	5.0.10.0	4_exp_AWA_CON_EVA_AMP	63	Rpleas_acq	Oppo	Rpleas	Amasked	CS_A	1pleas	distractor1	CONbeforeEVA	acq_US_pleas_masked	acq45_masked	5	22	400	0	300	300	0	0	486	50	0	1	0	0	0	1	blank2r.bmp	0	1	+	0	2	B2r.bmp	492	1	blank2r.bmp	786	1	CPLW	786	1	blank2r.bmp	866	1	gesittet	866	1	!	1239	1	!	-1	0	0	0	0	0	0	0	0	0	0	0	0	0	0	0	0	0	0	0	0	0	0	0	0	0	0	0
011119	09:59:48	10:09:39	588779	5.0.10.0	4_exp_AWA_CON_EVA_AMP	63	Rpleas_acq	Oppo	Rpleas	Amasked	CS_A	1pleas	distractor1	CONbeforeEVA	acq_US_pleas_masked	acq45_masked	5	23	400	0	300	300	0	0	486	50	0	1	0	0	0	1	blank2r.bmp	0	1	+	0	5	C1r.bmp	492	1	blank2r.bmp	786	1	CPLW	786	1	blank2r.bmp	866	5	träumen	866	1	!	1239	1	!	-1	0	0	0	0	0	0	0	0	0	0	0	0	0	0	0	0	0	0	0	0	0	0	0	0	0	0	0
011119	09:59:48	10:09:41	590938	5.0.10.0	4_exp_AWA_CON_EVA_AMP	63	Rpleas_acq	Oppo	Rpleas	Amasked	CS_A	1pleas	distractor1	CONbeforeEVA	acq_US_pleas_masked	acq45_masked	5	24	400	1	300	300	0	0	358	50	0	1	0	0	0	1	blank2r.bmp	0	1	+	0	3	B3r.bmp	492	1	blank2r.bmp	786	1	CPLW	786	1	blank2r.bmp	866	3	engagiert	866	1	!	1239	1	!	1252	0	0	0	0	0	0	0	0	0	0	0	0	0	0	0	0	0	0	0	0	0	0	0	0	0	0	0
011119	09:59:48	10:09:44	593217	5.0.10.0	4_exp_AWA_CON_EVA_AMP	63	Rpleas_acq	Oppo	Rpleas	Amasked	CS_A	1pleas	distractor1	CONbeforeEVA	acq_US_unple_masked	acq45_masked	5	25	400	0	300	300	0	0	517	46	0	1	0	0	0	1	blank2r.bmp	0	1	+	0	8	C4r.bmp	492	1	blank2r.bmp	786	1	DHJF	786	1	blank2r.bmp	866	6	bange	866	1	!	1239	1	!	-1	0	0	0	0	0	0	0	0	0	0	0	0	0	0	0	0	0	0	0	0	0	0	0	0	0	0	0
011119	09:59:48	10:09:46	595416	5.0.10.0	4_exp_AWA_CON_EVA_AMP	63	Rpleas_acq	Oppo	Rpleas	Amasked	CS_A	1pleas	distractor1	CONbeforeEVA	acq_US_pleas_masked	acq45_masked	5	26	400	1	300	300	0	0	390	50	0	1	0	0	0	1	blank2r.bmp	0	1	+	0	4	B4r.bmp	492	1	blank2r.bmp	786	1	CPLW	786	1	blank2r.bmp	866	2	kuss	866	1	!	1239	1	!	1292	0	0	0	0	0	0	0	0	0	0	0	0	0	0	0	0	0	0	0	0	0	0	0	0	0	0	0
011119	09:59:48	10:09:48	597682	5.0.10.0	4_exp_AWA_CON_EVA_AMP	63	Rpleas_acq	Oppo	Rpleas	Amasked	CS_A	1pleas	distractor1	CONbeforeEVA	acq_US_unple_masked	acq45_masked	5	27	400	0	300	300	0	0	493	46	0	1	0	0	0	1	blank2r.bmp	0	1	+	0	5	C1r.bmp	492	1	blank2r.bmp	786	1	DHJF	786	1	blank2r.bmp	866	4	verbissen	866	1	!	1239	1	!	-1	0	0	0	0	0	0	0	0	0	0	0	0	0	0	0	0	0	0	0	0	0	0	0	0	0	0	0
011119	09:59:48	10:09:50	599881	5.0.10.0	4_exp_AWA_CON_EVA_AMP	63	Rpleas_acq	Oppo	Rpleas	Amasked	CS_A	1pleas	distractor1	CONbeforeEVA	acq_US_unple_masked	acq45_masked	5	28	400	1	300	300	0	0	390	46	0	1	0	0	0	1	blank2r.bmp	0	1	+	0	3	B3r.bmp	492	1	blank2r.bmp	786	1	DHJF	786	1	blank2r.bmp	866	3	engstirnig	866	1	!	1239	1	!	1292	0	0	0	0	0	0	0	0	0	0	0	0	0	0	0	0	0	0	0	0	0	0	0	0	0	0	0
011119	09:59:48	10:09:53	602106	5.0.10.0	4_exp_AWA_CON_EVA_AMP	63	Rpleas_acq	Oppo	Rpleas	Amasked	CS_A	1pleas	distractor1	CONbeforeEVA	acq_US_pleas_masked	acq45_masked	5	29	400	1	300	300	0	0	432	50	0	1	0	0	0	1	blank2r.bmp	0	1	+	0	6	C2r.bmp	492	1	blank2r.bmp	786	1	CPLW	786	1	blank2r.bmp	866	5	träumen	866	1	!	1239	1	!	1332	0	0	0	0	0	0	0	0	0	0	0	0	0	0	0	0	0	0	0	0	0	0	0	0	0	0	0
011119	09:59:48	10:09:55	604265	5.0.10.0	4_exp_AWA_CON_EVA_AMP	63	Rpleas_acq	Oppo	Rpleas	Amasked	CS_A	1pleas	distractor1	CONbeforeEVA	acq_US_unple_masked	acq45_masked	5	30	400	1	300	300	0	0	366	50	0	0	0	0	0	1	blank2r.bmp	0	1	+	0	7	C3r.bmp	492	1	blank2r.bmp	786	1	DHJF	786	1	blank2r.bmp	866	6	bange	866	1	!	1239	1	!	1266	0	0	0	0	0	0	0	0	0	0	0	0	0	0	0	0	0	0	0	0	0	0	0	0	0	0	0
011119	09:59:48	10:09:57	606438	5.0.10.0	4_exp_AWA_CON_EVA_AMP	63	Rpleas_acq	Oppo	Rpleas	Amasked	CS_A	1pleas	distractor1	CONbeforeEVA	acq_US_unple_masked	acq45_masked	5	31	400	1	300	300	0	0	382	50	0	0	0	0	0	1	blank2r.bmp	0	1	+	0	2	B2r.bmp	492	1	blank2r.bmp	786	1	DHJF	786	1	blank2r.bmp	866	2	krise	866	1	!	1239	1	!	1279	0	0	0	0	0	0	0	0	0	0	0	0	0	0	0	0	0	0	0	0	0	0	0	0	0	0	0
011119	09:59:48	10:09:59	608704	5.0.10.0	4_exp_AWA_CON_EVA_AMP	63	Rpleas_acq	Oppo	Rpleas	Amasked	CS_A	1pleas	distractor1	CONbeforeEVA	acq_US_pleas_masked	acq45_masked	5	32	400	1	300	300	0	0	455	50	0	1	0	0	0	1	blank2r.bmp	0	1	+	0	1	B1r.bmp	492	1	blank2r.bmp	786	1	CPLW	786	1	blank2r.bmp	866	1	gesittet	866	1	!	1239	1	!	1359	0	0	0	0	0	0	0	0	0	0	0	0	0	0	0	0	0	0	0	0	0	0	0	0	0	0	0
011119	09:59:48	10:10:01	610876	5.0.10.0	4_exp_AWA_CON_EVA_AMP	63	Rpleas_acq	Oppo	Rpleas	Amasked	CS_A	1pleas	distractor1	CONbeforeEVA	acq_US_pleas_masked	acq45_masked	5	33	400	1	300	300	0	0	385	50	0	1	0	0	0	1	blank2r.bmp	0	1	+	0	1	B1r.bmp	492	1	blank2r.bmp	786	1	CPLW	786	1	blank2r.bmp	866	6	besonnen	866	1	!	1239	1	!	1279	0	0	0	0	0	0	0	0	0	0	0	0	0	0	0	0	0	0	0	0	0	0	0	0	0	0	0
011119	09:59:48	10:10:04	613075	5.0.10.0	4_exp_AWA_CON_EVA_AMP	63	Rpleas_acq	Oppo	Rpleas	Amasked	CS_A	1pleas	distractor1	CONbeforeEVA	acq_US_unple_masked	acq45_masked	5	34	400	1	300	300	0	0	411	46	0	1	0	0	0	1	blank2r.bmp	0	1	+	0	2	B2r.bmp	492	1	blank2r.bmp	786	1	DHJF	786	1	blank2r.bmp	866	5	töten	866	1	!	1239	1	!	1306	0	0	0	0	0	0	0	0	0	0	0	0	0	0	0	0	0	0	0	0	0	0	0	0	0	0	0
011119	09:59:48	10:10:06	615341	5.0.10.0	4_exp_AWA_CON_EVA_AMP	63	Rpleas_acq	Oppo	Rpleas	Amasked	CS_A	1pleas	distractor1	CONbeforeEVA	acq_US_pleas_masked	acq45_masked	5	35	400	0	300	300	0	0	494	46	0	0	0	0	0	1	blank2r.bmp	0	1	+	0	5	C1r.bmp	492	1	blank2r.bmp	786	1	CPLW	786	1	blank2r.bmp	866	4	vergnügt	866	1	!	1239	1	!	-1	0	0	0	0	0	0	0	0	0	0	0	0	0	0	0	0	0	0	0	0	0	0	0	0	0	0	0
011119	09:59:48	10:10:08	617607	5.0.10.0	4_exp_AWA_CON_EVA_AMP	63	Rpleas_acq	Oppo	Rpleas	Amasked	CS_A	1pleas	distractor1	CONbeforeEVA	acq_US_unple_masked	acq45_masked	5	36	400	0	300	300	0	0	479	46	0	1	0	0	0	1	blank2r.bmp	0	1	+	0	8	C4r.bmp	492	1	blank2r.bmp	786	1	DHJF	786	1	blank2r.bmp	866	1	geizig	866	1	!	1239	1	!	-1	0	0	0	0	0	0	0	0	0	0	0	0	0	0	0	0	0	0	0	0	0	0	0	0	0	0	0
011119	09:59:48	10:12:17	746579	5.0.10.0	4_exp_AWA_CON_EVA_AMP	63	Rpleas_acq	Oppo	Lpleas	Amasked	CS_A	1pleas	distractor1	CONbeforeEVA	cond_US_unple_123_masked_CS1	condtest_masked_1	8	1	400	0	300	300	0	0	499	50	0	1	0	0	0	1	blank2r.bmp	0	1	+	0	4	B4r.bmp	492	1	blank2r.bmp	786	1	CPLW	786	1	blank2r.bmp	866	1	geizig	866	1	!	1239	1	!	-1	0	0	0	0	0	0	0	0	0	0	0	0	0	0	0	0	0	0	0	0	0	0	0	0	0	0	0
011119	09:59:48	10:12:19	748778	5.0.10.0	4_exp_AWA_CON_EVA_AMP	63	Rpleas_acq	Oppo	Lpleas	Amasked	CS_A	1pleas	distractor1	CONbeforeEVA	cond_new_pleas_456_masked_CS2	condtest_masked_1	8	2	400	1	300	300	0	0	389	50	0	0	0	0	0	1	blank2r.bmp	0	1	+	0	7	C3r.bmp	492	1	blank2r.bmp	786	1	DHJF	786	1	blank2r.bmp	866	1	anregung	866	1	!	1239	1	!	1292	0	0	0	0	0	0	0	0	0	0	0	0	0	0	0	0	0	0	0	0	0	0	0	0	0	0	0
011119	09:59:48	10:12:22	751017	5.0.10.0	4_exp_AWA_CON_EVA_AMP	63	Rpleas_acq	Oppo	Lpleas	Amasked	CS_A	1pleas	distractor1	CONbeforeEVA	cond_new_pleas_456_masked_CS1	condtest_masked_1	8	3	400	1	300	300	0	0	440	46	0	1	0	0	0	1	blank2r.bmp	0	1	+	0	6	C2r.bmp	492	1	blank2r.bmp	786	1	CPLW	786	1	blank2r.bmp	866	3	kreativ	866	1	!	1239	1	!	1346	0	0	0	0	0	0	0	0	0	0	0	0	0	0	0	0	0	0	0	0	0	0	0	0	0	0	0
011119	09:59:48	10:12:24	753190	5.0.10.0	4_exp_AWA_CON_EVA_AMP	63	Rpleas_acq	Oppo	Lpleas	Amasked	CS_A	1pleas	distractor1	CONbeforeEVA	cond_new_unple_456_masked_CS1	condtest_masked_1	8	4	400	1	300	300	0	0	368	50	0	1	0	0	0	1	blank2r.bmp	0	1	+	0	3	B3r.bmp	492	1	blank2r.bmp	786	1	CPLW	786	1	blank2r.bmp	866	1	ausrottung	866	1	!	1239	1	!	1266	0	0	0	0	0	0	0	0	0	0	0	0	0	0	0	0	0	0	0	0	0	0	0	0	0	0	0
011119	09:59:48	10:12:26	755415	5.0.10.0	4_exp_AWA_CON_EVA_AMP	63	Rpleas_acq	Oppo	Lpleas	Amasked	CS_A	1pleas	distractor1	CONbeforeEVA	cond_new_unple_456_masked_CS2	condtest_masked_1	8	5	400	1	300	300	0	0	435	46	0	0	0	0	0	1	blank2r.bmp	0	1	+	0	1	B1r.bmp	492	1	blank2r.bmp	786	1	DHJF	786	1	blank2r.bmp	866	3	krank	866	1	!	1239	1	!	1332	0	0	0	0	0	0	0	0	0	0	0	0	0	0	0	0	0	0	0	0	0	0	0	0	0	0	0
011119	09:59:48	10:12:28	757788	5.0.10.0	4_exp_AWA_CON_EVA_AMP	63	Rpleas_acq	Oppo	Lpleas	Amasked	CS_A	1pleas	distractor1	CONbeforeEVA	cond_US_unple_123_masked_CS2	condtest_masked_1	8	6	400	0	300	300	0	0	598	50	0	1	0	0	0	1	blank2r.bmp	0	1	+	0	7	C3r.bmp	492	1	blank2r.bmp	786	1	DHJF	786	1	blank2r.bmp	866	3	engstirnig	866	1	!	1239	1	!	-1	0	0	0	0	0	0	0	0	0	0	0	0	0	0	0	0	0	0	0	0	0	0	0	0	0	0	0
011119	09:59:48	10:12:30	759987	5.0.10.0	4_exp_AWA_CON_EVA_AMP	63	Rpleas_acq	Oppo	Lpleas	Amasked	CS_A	1pleas	distractor1	CONbeforeEVA	cond_US_pleas_123_masked_CS2	condtest_masked_1	8	7	400	1	300	300	0	0	389	46	0	1	0	0	0	1	blank2r.bmp	0	1	+	0	8	C4r.bmp	492	1	blank2r.bmp	786	1	DHJF	786	1	blank2r.bmp	866	1	gesittet	866	1	!	1239	1	!	1292	0	0	0	0	0	0	0	0	0	0	0	0	0	0	0	0	0	0	0	0	0	0	0	0	0	0	0
011119	09:59:48	10:12:33	762199	5.0.10.0	4_exp_AWA_CON_EVA_AMP	63	Rpleas_acq	Oppo	Lpleas	Amasked	CS_A	1pleas	distractor1	CONbeforeEVA	cond_US_pleas_123_masked_CS1	condtest_masked_1	8	8	400	1	300	300	0	0	404	46	0	1	0	0	0	1	blank2r.bmp	0	1	+	0	5	C1r.bmp	492	1	blank2r.bmp	786	1	CPLW	786	1	blank2r.bmp	866	2	kuss	866	1	!	1239	1	!	1306	0	0	0	0	0	0	0	0	0	0	0	0	0	0	0	0	0	0	0	0	0	0	0	0	0	0	0
011119	09:59:48	10:12:52	781898	5.0.10.0	4_exp_AWA_CON_EVA_AMP	63	Rpleas_acq	Oppo	Lpleas	Amasked	CS_A	1pleas	distractor1	CONbeforeEVA	cond_US_unple_123_masked_CS1	condtest_masked_2	9	1	400	1	300	300	0	0	464	50	0	1	0	0	0	1	blank2r.bmp	0	1	+	0	4	B4r.bmp	492	1	blank2r.bmp	786	1	CPLW	786	1	blank2r.bmp	866	2	krise	866	1	!	1239	1	!	1359	0	0	0	0	0	0	0	0	0	0	0	0	0	0	0	0	0	0	0	0	0	0	0	0	0	0	0
011119	09:59:48	10:12:55	784097	5.0.10.0	4_exp_AWA_CON_EVA_AMP	63	Rpleas_acq	Oppo	Lpleas	Amasked	CS_A	1pleas	distractor1	CONbeforeEVA	cond_new_pleas_456_masked_CS2	condtest_masked_2	9	2	400	1	300	300	0	0	410	50	0	0	0	0	0	1	blank2r.bmp	0	1	+	0	3	B3r.bmp	492	1	blank2r.bmp	786	1	DHJF	786	1	blank2r.bmp	866	2	vertrauen	866	1	!	1239	1	!	1306	0	0	0	0	0	0	0	0	0	0	0	0	0	0	0	0	0	0	0	0	0	0	0	0	0	0	0
011119	09:59:48	10:12:57	786176	5.0.10.0	4_exp_AWA_CON_EVA_AMP	63	Rpleas_acq	Oppo	Lpleas	Amasked	CS_A	1pleas	distractor1	CONbeforeEVA	cond_new_unple_456_masked_CS2	condtest_masked_2	9	3	400	0	300	300	0	0	307	50	0	1	0	0	0	1	blank2r.bmp	0	1	+	0	6	C2r.bmp	492	1	blank2r.bmp	786	1	DHJF	786	1	blank2r.bmp	866	2	versagen	866	1	!	-1	1	!	-1	0	0	0	0	0	0	0	0	0	0	0	0	0	0	0	0	0	0	0	0	0	0	0	0	0	0	0
011119	09:59:48	10:12:59	788375	5.0.10.0	4_exp_AWA_CON_EVA_AMP	63	Rpleas_acq	Oppo	Lpleas	Amasked	CS_A	1pleas	distractor1	CONbeforeEVA	cond_US_pleas_123_masked_CS1	condtest_masked_2	9	4	400	1	300	300	0	0	393	50	0	0	0	0	0	1	blank2r.bmp	0	1	+	0	2	B2r.bmp	492	1	blank2r.bmp	786	1	CPLW	786	1	blank2r.bmp	866	3	engagiert	866	1	!	1239	1	!	1292	0	0	0	0	0	0	0	0	0	0	0	0	0	0	0	0	0	0	0	0	0	0	0	0	0	0	0
011119	09:59:48	10:13:01	790574	5.0.10.0	4_exp_AWA_CON_EVA_AMP	63	Rpleas_acq	Oppo	Lpleas	Amasked	CS_A	1pleas	distractor1	CONbeforeEVA	cond_new_unple_456_masked_CS2	condtest_masked_2	9	5	400	1	300	300	0	0	401	50	0	1	0	0	0	1	blank2r.bmp	0	1	+	0	1	B1r.bmp	492	1	blank2r.bmp	786	1	DHJF	786	1	blank2r.bmp	866	2	versagen	866	1	!	1239	1	!	1306	0	0	0	0	0	0	0	0	0	0	0	0	0	0	0	0	0	0	0	0	0	0	0	0	0	0	0
011119	09:59:48	10:13:03	792826	5.0.10.0	4_exp_AWA_CON_EVA_AMP	63	Rpleas_acq	Oppo	Lpleas	Amasked	CS_A	1pleas	distractor1	CONbeforeEVA	cond_new_unple_456_masked_CS1	condtest_masked_2	9	6	400	0	300	300	0	0	485	50	0	1	0	0	0	1	blank2r.bmp	0	1	+	0	2	B2r.bmp	492	1	blank2r.bmp	786	1	CPLW	786	1	blank2r.bmp	866	3	krank	866	1	!	1239	1	!	-1	0	0	0	0	0	0	0	0	0	0	0	0	0	0	0	0	0	0	0	0	0	0	0	0	0	0	0
011119	09:59:48	10:13:05	794985	5.0.10.0	4_exp_AWA_CON_EVA_AMP	63	Rpleas_acq	Oppo	Lpleas	Amasked	CS_A	1pleas	distractor1	CONbeforeEVA	cond_US_unple_123_masked_CS2	condtest_masked_2	9	7	400	1	300	300	0	0	354	50	0	1	0	0	0	1	blank2r.bmp	0	1	+	0	5	C1r.bmp	492	1	blank2r.bmp	786	1	DHJF	786	1	blank2r.bmp	866	3	engstirnig	866	1	!	1239	1	!	1252	0	0	0	0	0	0	0	0	0	0	0	0	0	0	0	0	0	0	0	0	0	0	0	0	0	0	0
011119	09:59:48	10:13:08	797184	5.0.10.0	4_exp_AWA_CON_EVA_AMP	63	Rpleas_acq	Oppo	Lpleas	Amasked	CS_A	1pleas	distractor1	CONbeforeEVA	cond_new_pleas_456_masked_CS1	condtest_masked_2	9	8	400	1	300	300	0	0	410	50	0	0	0	0	0	1	blank2r.bmp	0	1	+	0	8	C4r.bmp	492	1	blank2r.bmp	786	1	CPLW	786	1	blank2r.bmp	866	2	vertrauen	866	1	!	1239	1	!	1306	0	0	0	0	0	0	0	0	0	0	0	0	0	0	0	0	0	0	0	0	0	0	0	0	0	0	0
011119	09:59:48	10:13:10	799397	5.0.10.0	4_exp_AWA_CON_EVA_AMP	63	Rpleas_acq	Oppo	Lpleas	Amasked	CS_A	1pleas	distractor1	CONbeforeEVA	cond_new_unple_456_masked_CS2	condtest_masked_2	9	9	400	1	300	300	0	0	423	50	0	1	0	0	0	1	blank2r.bmp	0	1	+	0	6	C2r.bmp	492	1	blank2r.bmp	786	1	DHJF	786	1	blank2r.bmp	866	1	ausrottung	866	1	!	1239	1	!	1319	0	0	0	0	0	0	0	0	0	0	0	0	0	0	0	0	0	0	0	0	0	0	0	0	0	0	0
011119	09:59:48	10:13:12	801636	5.0.10.0	4_exp_AWA_CON_EVA_AMP	63	Rpleas_acq	Oppo	Lpleas	Amasked	CS_A	1pleas	distractor1	CONbeforeEVA	cond_new_unple_456_masked_CS2	condtest_masked_2	9	10	400	1	300	300	0	0	443	50	0	1	0	0	0	1	blank2r.bmp	0	1	+	0	7	C3r.bmp	492	1	blank2r.bmp	786	1	DHJF	786	1	blank2r.bmp	866	3	krank	866	1	!	1239	1	!	1346	0	0	0	0	0	0	0	0	0	0	0	0	0	0	0	0	0	0	0	0	0	0	0	0	0	0	0
011119	09:59:48	10:13:14	803862	5.0.10.0	4_exp_AWA_CON_EVA_AMP	63	Rpleas_acq	Oppo	Lpleas	Amasked	CS_A	1pleas	distractor1	CONbeforeEVA	cond_new_unple_456_masked_CS1	condtest_masked_2	9	11	400	1	300	300	0	0	436	50	0	1	0	0	0	1	blank2r.bmp	0	1	+	0	4	B4r.bmp	492	1	blank2r.bmp	786	1	CPLW	786	1	blank2r.bmp	866	1	ausrottung	866	1	!	1239	1	!	1332	0	0	0	0	0	0	0	0	0	0	0	0	0	0	0	0	0	0	0	0	0	0	0	0	0	0	0
011119	09:59:48	10:13:17	806154	5.0.10.0	4_exp_AWA_CON_EVA_AMP	63	Rpleas_acq	Oppo	Lpleas	Amasked	CS_A	1pleas	distractor1	CONbeforeEVA	cond_US_unple_123_masked_CS2	condtest_masked_2	9	12	400	0	300	300	0	0	527	50	0	1	0	0	0	1	blank2r.bmp	0	1	+	0	3	B3r.bmp	492	1	blank2r.bmp	786	1	DHJF	786	1	blank2r.bmp	866	2	krise	866	1	!	1239	1	!	-1	0	0	0	0	0	0	0	0	0	0	0	0	0	0	0	0	0	0	0	0	0	0	0	0	0	0	0
011119	09:59:48	10:13:19	808326	5.0.10.0	4_exp_AWA_CON_EVA_AMP	63	Rpleas_acq	Oppo	Lpleas	Amasked	CS_A	1pleas	distractor1	CONbeforeEVA	cond_US_pleas_123_masked_CS1	condtest_masked_2	9	13	400	1	300	300	0	0	369	46	0	1	0	0	0	1	blank2r.bmp	0	1	+	0	1	B1r.bmp	492	1	blank2r.bmp	786	1	CPLW	786	1	blank2r.bmp	866	2	kuss	866	1	!	1239	1	!	1266	0	0	0	0	0	0	0	0	0	0	0	0	0	0	0	0	0	0	0	0	0	0	0	0	0	0	0
011119	09:59:48	10:13:21	810552	5.0.10.0	4_exp_AWA_CON_EVA_AMP	63	Rpleas_acq	Oppo	Lpleas	Amasked	CS_A	1pleas	distractor1	CONbeforeEVA	cond_new_pleas_456_masked_CS2	condtest_masked_2	9	14	400	1	300	300	0	0	429	46	0	1	0	0	0	1	blank2r.bmp	0	1	+	0	7	C3r.bmp	492	1	blank2r.bmp	786	1	DHJF	786	1	blank2r.bmp	866	3	kreativ	866	1	!	1239	1	!	1332	0	0	0	0	0	0	0	0	0	0	0	0	0	0	0	0	0	0	0	0	0	0	0	0	0	0	0
011119	09:59:48	10:13:23	812738	5.0.10.0	4_exp_AWA_CON_EVA_AMP	63	Rpleas_acq	Oppo	Lpleas	Amasked	CS_A	1pleas	distractor1	CONbeforeEVA	cond_new_unple_456_masked_CS1	condtest_masked_2	9	15	400	1	300	300	0	0	391	50	0	1	0	0	0	1	blank2r.bmp	0	1	+	0	8	C4r.bmp	492	1	blank2r.bmp	786	1	CPLW	786	1	blank2r.bmp	866	2	versagen	866	1	!	1239	1	!	1292	0	0	0	0	0	0	0	0	0	0	0	0	0	0	0	0	0	0	0	0	0	0	0	0	0	0	0
011119	09:59:48	10:13:25	814977	5.0.10.0	4_exp_AWA_CON_EVA_AMP	63	Rpleas_acq	Oppo	Lpleas	Amasked	CS_A	1pleas	distractor1	CONbeforeEVA	cond_US_pleas_123_masked_CS1	condtest_masked_2	9	16	400	1	300	300	0	0	445	50	0	0	0	0	0	1	blank2r.bmp	0	1	+	0	5	C1r.bmp	492	1	blank2r.bmp	786	1	CPLW	786	1	blank2r.bmp	866	3	engagiert	866	1	!	1239	1	!	1346	0	0	0	0	0	0	0	0	0	0	0	0	0	0	0	0	0	0	0	0	0	0	0	0	0	0	0
011119	09:59:48	10:13:28	817936	5.0.10.0	4_exp_AWA_CON_EVA_AMP	63	Rpleas_acq	Oppo	Lpleas	Amasked	CS_A	1pleas	distractor1	CONbeforeEVA	cond_new_pleas_456_masked_CS1	condtest_masked_2	9	17	400	0	300	300	0	0	1178	46	0	1	0	0	0	1	blank2r.bmp	0	1	+	0	2	B2r.bmp	492	1	blank2r.bmp	786	1	CPLW	786	1	blank2r.bmp	866	1	anregung	866	1	!	1239	1	!	-1	0	0	0	0	0	0	0	0	0	0	0	0	0	0	0	0	0	0	0	0	0	0	0	0	0	0	0
011119	09:59:48	10:13:31	820161	5.0.10.0	4_exp_AWA_CON_EVA_AMP	63	Rpleas_acq	Oppo	Lpleas	Amasked	CS_A	1pleas	distractor1	CONbeforeEVA	cond_US_pleas_123_masked_CS2	condtest_masked_2	9	18	400	1	300	300	0	0	412	50	0	0	0	0	0	1	blank2r.bmp	0	1	+	0	6	C2r.bmp	492	1	blank2r.bmp	786	1	DHJF	786	1	blank2r.bmp	866	1	gesittet	866	1	!	1239	1	!	1319	0	0	0	0	0	0	0	0	0	0	0	0	0	0	0	0	0	0	0	0	0	0	0	0	0	0	0
011119	09:59:48	10:13:33	822587	5.0.10.0	4_exp_AWA_CON_EVA_AMP	63	Rpleas_acq	Oppo	Lpleas	Amasked	CS_A	1pleas	distractor1	CONbeforeEVA	cond_new_pleas_456_masked_CS2	condtest_masked_2	9	19	400	0	300	300	0	0	660	46	0	1	0	0	0	1	blank2r.bmp	0	1	+	0	3	B3r.bmp	492	1	blank2r.bmp	786	1	DHJF	786	1	blank2r.bmp	866	2	vertrauen	866	1	!	1239	1	!	-1	0	0	0	0	0	0	0	0	0	0	0	0	0	0	0	0	0	0	0	0	0	0	0	0	0	0	0
011119	09:59:48	10:13:35	824879	5.0.10.0	4_exp_AWA_CON_EVA_AMP	63	Rpleas_acq	Oppo	Lpleas	Amasked	CS_A	1pleas	distractor1	CONbeforeEVA	cond_US_pleas_123_masked_CS1	condtest_masked_2	9	20	400	0	300	300	0	0	517	46	0	1	0	0	0	1	blank2r.bmp	0	1	+	0	4	B4r.bmp	492	1	blank2r.bmp	786	1	CPLW	786	1	blank2r.bmp	866	3	engagiert	866	1	!	1239	1	!	-1	0	0	0	0	0	0	0	0	0	0	0	0	0	0	0	0	0	0	0	0	0	0	0	0	0	0	0
011119	09:59:48	10:13:38	827145	5.0.10.0	4_exp_AWA_CON_EVA_AMP	63	Rpleas_acq	Oppo	Lpleas	Amasked	CS_A	1pleas	distractor1	CONbeforeEVA	cond_US_unple_123_masked_CS1	condtest_masked_2	9	21	400	1	300	300	0	0	457	50	0	1	0	0	0	1	blank2r.bmp	0	1	+	0	4	B4r.bmp	492	1	blank2r.bmp	786	1	CPLW	786	1	blank2r.bmp	866	1	geizig	866	1	!	1239	1	!	1359	0	0	0	0	0	0	0	0	0	0	0	0	0	0	0	0	0	0	0	0	0	0	0	0	0	0	0
011119	09:59:48	10:13:40	829384	5.0.10.0	4_exp_AWA_CON_EVA_AMP	63	Rpleas_acq	Oppo	Lpleas	Amasked	CS_A	1pleas	distractor1	CONbeforeEVA	cond_new_pleas_456_masked_CS2	condtest_masked_2	9	22	400	1	300	300	0	0	432	50	0	0	0	0	0	1	blank2r.bmp	0	1	+	0	5	C1r.bmp	492	1	blank2r.bmp	786	1	DHJF	786	1	blank2r.bmp	866	1	anregung	866	1	!	1239	1	!	1332	0	0	0	0	0	0	0	0	0	0	0	0	0	0	0	0	0	0	0	0	0	0	0	0	0	0	0
011119	09:59:48	10:13:42	831637	5.0.10.0	4_exp_AWA_CON_EVA_AMP	63	Rpleas_acq	Oppo	Lpleas	Amasked	CS_A	1pleas	distractor1	CONbeforeEVA	cond_new_unple_456_masked_CS1	condtest_masked_2	9	23	400	0	300	300	0	0	486	50	0	1	0	0	0	1	blank2r.bmp	0	1	+	0	1	B1r.bmp	492	1	blank2r.bmp	786	1	CPLW	786	1	blank2r.bmp	866	2	versagen	866	1	!	1239	1	!	-1	0	0	0	0	0	0	0	0	0	0	0	0	0	0	0	0	0	0	0	0	0	0	0	0	0	0	0
011119	09:59:48	10:13:44	833902	5.0.10.0	4_exp_AWA_CON_EVA_AMP	63	Rpleas_acq	Oppo	Lpleas	Amasked	CS_A	1pleas	distractor1	CONbeforeEVA	cond_US_unple_123_masked_CS2	condtest_masked_2	9	24	400	0	300	300	0	0	480	50	0	1	0	0	0	1	blank2r.bmp	0	1	+	0	8	C4r.bmp	492	1	blank2r.bmp	786	1	DHJF	786	1	blank2r.bmp	866	3	engstirnig	866	1	!	1239	1	!	-1	0	0	0	0	0	0	0	0	0	0	0	0	0	0	0	0	0	0	0	0	0	0	0	0	0	0	0
011119	09:59:48	10:13:47	836115	5.0.10.0	4_exp_AWA_CON_EVA_AMP	63	Rpleas_acq	Oppo	Lpleas	Amasked	CS_A	1pleas	distractor1	CONbeforeEVA	cond_new_pleas_456_masked_CS1	condtest_masked_2	9	25	400	1	300	300	0	0	388	46	0	1	0	0	0	1	blank2r.bmp	0	1	+	0	2	B2r.bmp	492	1	blank2r.bmp	786	1	CPLW	786	1	blank2r.bmp	866	3	kreativ	866	1	!	1239	1	!	1292	0	0	0	0	0	0	0	0	0	0	0	0	0	0	0	0	0	0	0	0	0	0	0	0	0	0	0
011119	09:59:48	10:13:49	838287	5.0.10.0	4_exp_AWA_CON_EVA_AMP	63	Rpleas_acq	Oppo	Lpleas	Amasked	CS_A	1pleas	distractor1	CONbeforeEVA	cond_US_pleas_123_masked_CS2	condtest_masked_2	9	26	400	1	300	300	0	0	370	46	0	1	0	0	0	1	blank2r.bmp	0	1	+	0	3	B3r.bmp	492	1	blank2r.bmp	786	1	DHJF	786	1	blank2r.bmp	866	2	kuss	866	1	!	1239	1	!	1266	0	0	0	0	0	0	0	0	0	0	0	0	0	0	0	0	0	0	0	0	0	0	0	0	0	0	0
011119	09:59:48	10:13:51	840580	5.0.10.0	4_exp_AWA_CON_EVA_AMP	63	Rpleas_acq	Oppo	Lpleas	Amasked	CS_A	1pleas	distractor1	CONbeforeEVA	cond_US_unple_123_masked_CS1	condtest_masked_2	9	27	400	0	300	300	0	0	521	50	0	1	0	0	0	1	blank2r.bmp	0	1	+	0	7	C3r.bmp	492	1	blank2r.bmp	786	1	CPLW	786	1	blank2r.bmp	866	2	krise	866	1	!	1239	1	!	-1	0	0	0	0	0	0	0	0	0	0	0	0	0	0	0	0	0	0	0	0	0	0	0	0	0	0	0
011119	09:59:48	10:13:53	842712	5.0.10.0	4_exp_AWA_CON_EVA_AMP	63	Rpleas_acq	Oppo	Lpleas	Amasked	CS_A	1pleas	distractor1	CONbeforeEVA	cond_new_pleas_456_masked_CS1	condtest_masked_2	9	28	400	0	300	300	0	0	332	50	0	0	0	0	0	1	blank2r.bmp	0	1	+	0	6	C2r.bmp	492	1	blank2r.bmp	786	1	CPLW	786	1	blank2r.bmp	866	1	anregung	866	1	!	-1	1	!	-1	0	0	0	0	0	0	0	0	0	0	0	0	0	0	0	0	0	0	0	0	0	0	0	0	0	0	0
011119	09:59:48	10:13:55	844964	5.0.10.0	4_exp_AWA_CON_EVA_AMP	63	Rpleas_acq	Oppo	Lpleas	Amasked	CS_A	1pleas	distractor1	CONbeforeEVA	cond_new_pleas_456_masked_CS1	condtest_masked_2	9	29	400	1	300	300	0	0	444	46	0	1	0	0	0	1	blank2r.bmp	0	1	+	0	6	C2r.bmp	492	1	blank2r.bmp	786	1	CPLW	786	1	blank2r.bmp	866	3	kreativ	866	1	!	1239	1	!	1346	0	0	0	0	0	0	0	0	0	0	0	0	0	0	0	0	0	0	0	0	0	0	0	0	0	0	0
011119	09:59:48	10:13:58	847110	5.0.10.0	4_exp_AWA_CON_EVA_AMP	63	Rpleas_acq	Oppo	Lpleas	Amasked	CS_A	1pleas	distractor1	CONbeforeEVA	cond_US_pleas_123_masked_CS2	condtest_masked_2	9	30	400	1	300	300	0	0	357	50	0	0	0	0	0	1	blank2r.bmp	0	1	+	0	4	B4r.bmp	492	1	blank2r.bmp	786	1	DHJF	786	1	blank2r.bmp	866	1	gesittet	866	1	!	1239	1	!	1252	0	0	0	0	0	0	0	0	0	0	0	0	0	0	0	0	0	0	0	0	0	0	0	0	0	0	0
011119	09:59:48	10:14:00	849363	5.0.10.0	4_exp_AWA_CON_EVA_AMP	63	Rpleas_acq	Oppo	Lpleas	Amasked	CS_A	1pleas	distractor1	CONbeforeEVA	cond_US_pleas_123_masked_CS2	condtest_masked_2	9	31	400	0	300	300	0	0	489	50	0	0	0	0	0	1	blank2r.bmp	0	1	+	0	5	C1r.bmp	492	1	blank2r.bmp	786	1	DHJF	786	1	blank2r.bmp	866	3	engagiert	866	1	!	1239	1	!	-1	0	0	0	0	0	0	0	0	0	0	0	0	0	0	0	0	0	0	0	0	0	0	0	0	0	0	0
011119	09:59:48	10:14:02	851602	5.0.10.0	4_exp_AWA_CON_EVA_AMP	63	Rpleas_acq	Oppo	Lpleas	Amasked	CS_A	1pleas	distractor1	CONbeforeEVA	cond_US_pleas_123_masked_CS1	condtest_masked_2	9	32	400	1	300	300	0	0	419	50	0	0	0	0	0	1	blank2r.bmp	0	1	+	0	7	C3r.bmp	492	1	blank2r.bmp	786	1	CPLW	786	1	blank2r.bmp	866	1	gesittet	866	1	!	1239	1	!	1319	0	0	0	0	0	0	0	0	0	0	0	0	0	0	0	0	0	0	0	0	0	0	0	0	0	0	0
011119	09:59:48	10:14:04	853854	5.0.10.0	4_exp_AWA_CON_EVA_AMP	63	Rpleas_acq	Oppo	Lpleas	Amasked	CS_A	1pleas	distractor1	CONbeforeEVA	cond_new_unple_456_masked_CS1	condtest_masked_2	9	33	400	0	300	300	0	0	483	50	0	1	0	0	0	1	blank2r.bmp	0	1	+	0	1	B1r.bmp	492	1	blank2r.bmp	786	1	CPLW	786	1	blank2r.bmp	866	1	ausrottung	866	1	!	1239	1	!	-1	0	0	0	0	0	0	0	0	0	0	0	0	0	0	0	0	0	0	0	0	0	0	0	0	0	0	0
011119	09:59:48	10:14:07	856133	5.0.10.0	4_exp_AWA_CON_EVA_AMP	63	Rpleas_acq	Oppo	Lpleas	Amasked	CS_A	1pleas	distractor1	CONbeforeEVA	cond_new_unple_456_masked_CS2	condtest_masked_2	9	34	400	0	300	300	0	0	479	50	0	1	0	0	0	1	blank2r.bmp	0	1	+	0	8	C4r.bmp	492	1	blank2r.bmp	786	1	DHJF	786	1	blank2r.bmp	866	3	krank	866	1	!	1239	1	!	-1	0	0	0	0	0	0	0	0	0	0	0	0	0	0	0	0	0	0	0	0	0	0	0	0	0	0	0
011119	09:59:48	10:14:09	858479	5.0.10.0	4_exp_AWA_CON_EVA_AMP	63	Rpleas_acq	Oppo	Lpleas	Amasked	CS_A	1pleas	distractor1	CONbeforeEVA	cond_new_pleas_456_masked_CS2	condtest_masked_2	9	35	400	0	300	300	0	0	547	46	0	1	0	0	0	1	blank2r.bmp	0	1	+	0	3	B3r.bmp	492	1	blank2r.bmp	786	1	DHJF	786	1	blank2r.bmp	866	2	vertrauen	866	1	!	1239	1	!	-1	0	0	0	0	0	0	0	0	0	0	0	0	0	0	0	0	0	0	0	0	0	0	0	0	0	0	0
011119	09:59:48	10:14:11	860731	5.0.10.0	4_exp_AWA_CON_EVA_AMP	63	Rpleas_acq	Oppo	Lpleas	Amasked	CS_A	1pleas	distractor1	CONbeforeEVA	cond_US_unple_123_masked_CS2	condtest_masked_2	9	36	400	1	300	300	0	0	443	50	0	1	0	0	0	1	blank2r.bmp	0	1	+	0	2	B2r.bmp	492	1	blank2r.bmp	786	1	DHJF	786	1	blank2r.bmp	866	1	geizig	866	1	!	1239	1	!	1346	0	0	0	0	0	0	0	0	0	0	0	0	0	0	0	0	0	0	0	0	0	0	0	0	0	0	0
011119	09:59:48	10:14:13	862917	5.0.10.0	4_exp_AWA_CON_EVA_AMP	63	Rpleas_acq	Oppo	Lpleas	Amasked	CS_A	1pleas	distractor1	CONbeforeEVA	cond_US_unple_123_masked_CS1	condtest_masked_2	9	37	400	1	300	300	0	0	378	46	0	0	0	0	0	1	blank2r.bmp	0	1	+	0	2	B2r.bmp	492	1	blank2r.bmp	786	1	CPLW	786	1	blank2r.bmp	866	2	krise	866	1	!	1239	1	!	1279	0	0	0	0	0	0	0	0	0	0	0	0	0	0	0	0	0	0	0	0	0	0	0	0	0	0	0
011119	09:59:48	10:14:16	865276	5.0.10.0	4_exp_AWA_CON_EVA_AMP	63	Rpleas_acq	Oppo	Lpleas	Amasked	CS_A	1pleas	distractor1	CONbeforeEVA	cond_US_unple_123_masked_CS1	condtest_masked_2	9	38	400	0	300	300	0	0	575	50	0	1	0	0	0	1	blank2r.bmp	0	1	+	0	5	C1r.bmp	492	1	blank2r.bmp	786	1	CPLW	786	1	blank2r.bmp	866	1	geizig	866	1	!	1239	1	!	-1	0	0	0	0	0	0	0	0	0	0	0	0	0	0	0	0	0	0	0	0	0	0	0	0	0	0	0
011119	09:59:48	10:14:18	867528	5.0.10.0	4_exp_AWA_CON_EVA_AMP	63	Rpleas_acq	Oppo	Lpleas	Amasked	CS_A	1pleas	distractor1	CONbeforeEVA	cond_US_pleas_123_masked_CS2	condtest_masked_2	9	39	400	1	300	300	0	0	443	46	0	1	0	0	0	1	blank2r.bmp	0	1	+	0	6	C2r.bmp	492	1	blank2r.bmp	786	1	DHJF	786	1	blank2r.bmp	866	2	kuss	866	1	!	1239	1	!	1346	0	0	0	0	0	0	0	0	0	0	0	0	0	0	0	0	0	0	0	0	0	0	0	0	0	0	0
011119	09:59:48	10:14:20	869781	5.0.10.0	4_exp_AWA_CON_EVA_AMP	63	Rpleas_acq	Oppo	Lpleas	Amasked	CS_A	1pleas	distractor1	CONbeforeEVA	cond_US_unple_123_masked_CS2	condtest_masked_2	9	40	400	0	300	300	0	0	491	50	0	1	0	0	0	1	blank2r.bmp	0	1	+	0	4	B4r.bmp	492	1	blank2r.bmp	786	1	DHJF	786	1	blank2r.bmp	866	3	engstirnig	866	1	!	1239	1	!	-1	0	0	0	0	0	0	0	0	0	0	0	0	0	0	0	0	0	0	0	0	0	0	0	0	0	0	0
011119	09:59:48	10:14:46	895210	5.0.10.0	4_exp_AWA_CON_EVA_AMP	63	Rpleas_acq	Oppo	Lpleas	Amasked	CS_A	1pleas	distractor1	CONbeforeEVA	cond_new_unple_123_masked_CS2	condtest_masked_3	10	1	400	1	300	300	0	0	405	50	0	1	0	0	0	1	blank2r.bmp	0	1	+	0	7	C3r.bmp	492	1	blank2r.bmp	786	1	DHJF	786	1	blank2r.bmp	866	1	sterben	866	1	!	1239	1	!	1306	0	0	0	0	0	0	0	0	0	0	0	0	0	0	0	0	0	0	0	0	0	0	0	0	0	0	0
011119	09:59:48	10:14:48	897476	5.0.10.0	4_exp_AWA_CON_EVA_AMP	63	Rpleas_acq	Oppo	Lpleas	Amasked	CS_A	1pleas	distractor1	CONbeforeEVA	cond_new_unple_123_masked_CS1	condtest_masked_3	10	2	400	1	300	300	0	0	466	50	0	1	0	0	0	1	blank2r.bmp	0	1	+	0	3	B3r.bmp	492	1	blank2r.bmp	786	1	CPLW	786	1	blank2r.bmp	866	2	gemein	866	1	!	1239	1	!	1372	0	0	0	0	0	0	0	0	0	0	0	0	0	0	0	0	0	0	0	0	0	0	0	0	0	0	0
011119	09:59:48	10:14:50	899675	5.0.10.0	4_exp_AWA_CON_EVA_AMP	63	Rpleas_acq	Oppo	Lpleas	Amasked	CS_A	1pleas	distractor1	CONbeforeEVA	cond_new_pleas_123_masked_CS2	condtest_masked_3	10	3	400	1	300	300	0	0	409	46	0	1	0	0	0	1	blank2r.bmp	0	1	+	0	1	B1r.bmp	492	1	blank2r.bmp	786	1	DHJF	786	1	blank2r.bmp	866	1	sonnig	866	1	!	1239	1	!	1306	0	0	0	0	0	0	0	0	0	0	0	0	0	0	0	0	0	0	0	0	0	0	0	0	0	0	0
011119	09:59:48	10:14:52	901887	5.0.10.0	4_exp_AWA_CON_EVA_AMP	63	Rpleas_acq	Oppo	Lpleas	Amasked	CS_A	1pleas	distractor1	CONbeforeEVA	cond_new_unple_123_masked_CS2	condtest_masked_3	10	4	400	1	300	300	0	0	416	50	0	1	0	0	0	1	blank2r.bmp	0	1	+	0	8	C4r.bmp	492	1	blank2r.bmp	786	1	DHJF	786	1	blank2r.bmp	866	3	gierig	866	1	!	1239	1	!	1319	0	0	0	0	0	0	0	0	0	0	0	0	0	0	0	0	0	0	0	0	0	0	0	0	0	0	0
011119	09:59:48	10:14:55	904113	5.0.10.0	4_exp_AWA_CON_EVA_AMP	63	Rpleas_acq	Oppo	Lpleas	Amasked	CS_A	1pleas	distractor1	CONbeforeEVA	cond_new_unple_123_masked_CS1	condtest_masked_3	10	5	400	1	300	300	0	0	434	50	0	1	0	0	0	1	blank2r.bmp	0	1	+	0	4	B4r.bmp	492	1	blank2r.bmp	786	1	CPLW	786	1	blank2r.bmp	866	3	gierig	866	1	!	1239	1	!	1332	0	0	0	0	0	0	0	0	0	0	0	0	0	0	0	0	0	0	0	0	0	0	0	0	0	0	0
011119	09:59:48	10:14:57	906405	5.0.10.0	4_exp_AWA_CON_EVA_AMP	63	Rpleas_acq	Oppo	Lpleas	Amasked	CS_A	1pleas	distractor1	CONbeforeEVA	cond_new_pleas_123_masked_CS1	condtest_masked_3	10	6	400	0	300	300	0	0	519	50	0	0	0	0	0	1	blank2r.bmp	0	1	+	0	3	B3r.bmp	492	1	blank2r.bmp	786	1	CPLW	786	1	blank2r.bmp	866	3	gütig	866	1	!	1239	1	!	-1	0	0	0	0	0	0	0	0	0	0	0	0	0	0	0	0	0	0	0	0	0	0	0	0	0	0	0
011119	09:59:48	10:14:59	908644	5.0.10.0	4_exp_AWA_CON_EVA_AMP	63	Rpleas_acq	Oppo	Lpleas	Amasked	CS_A	1pleas	distractor1	CONbeforeEVA	cond_new_unple_123_masked_CS2	condtest_masked_3	10	7	400	1	300	300	0	0	427	50	0	1	0	0	0	1	blank2r.bmp	0	1	+	0	2	B2r.bmp	492	1	blank2r.bmp	786	1	DHJF	786	1	blank2r.bmp	866	1	sterben	866	1	!	1239	1	!	1332	0	0	0	0	0	0	0	0	0	0	0	0	0	0	0	0	0	0	0	0	0	0	0	0	0	0	0
011119	09:59:48	10:15:01	910830	5.0.10.0	4_exp_AWA_CON_EVA_AMP	63	Rpleas_acq	Oppo	Lpleas	Amasked	CS_A	1pleas	distractor1	CONbeforeEVA	cond_US_unple_456_masked_CS2	condtest_masked_3	10	8	400	1	300	300	0	0	392	50	0	1	0	0	0	1	blank2r.bmp	0	1	+	0	8	C4r.bmp	492	1	blank2r.bmp	786	1	DHJF	786	1	blank2r.bmp	866	2	töten	866	1	!	1239	1	!	1292	0	0	0	0	0	0	0	0	0	0	0	0	0	0	0	0	0	0	0	0	0	0	0	0	0	0	0
011119	09:59:48	10:15:04	913069	5.0.10.0	4_exp_AWA_CON_EVA_AMP	63	Rpleas_acq	Oppo	Lpleas	Amasked	CS_A	1pleas	distractor1	CONbeforeEVA	cond_US_unple_456_masked_CS1	condtest_masked_3	10	9	400	1	300	300	0	0	438	50	0	1	0	0	0	1	blank2r.bmp	0	1	+	0	7	C3r.bmp	492	1	blank2r.bmp	786	1	CPLW	786	1	blank2r.bmp	866	3	bange	866	1	!	1239	1	!	1346	0	0	0	0	0	0	0	0	0	0	0	0	0	0	0	0	0	0	0	0	0	0	0	0	0	0	0
011119	09:59:48	10:15:06	915335	5.0.10.0	4_exp_AWA_CON_EVA_AMP	63	Rpleas_acq	Oppo	Lpleas	Amasked	CS_A	1pleas	distractor1	CONbeforeEVA	cond_US_pleas_456_masked_CS2	condtest_masked_3	10	10	400	1	300	300	0	0	457	46	0	1	0	0	0	1	blank2r.bmp	0	1	+	0	6	C2r.bmp	492	1	blank2r.bmp	786	1	DHJF	786	1	blank2r.bmp	866	1	vergnügt	866	1	!	1239	1	!	1359	0	0	0	0	0	0	0	0	0	0	0	0	0	0	0	0	0	0	0	0	0	0	0	0	0	0	0
011119	09:59:48	10:15:10	919426	5.0.10.0	4_exp_AWA_CON_EVA_AMP	63	Rpleas_acq	Oppo	Lpleas	Amasked	CS_A	1pleas	distractor1	CONbeforeEVA	cond_US_pleas_456_masked_CS1	condtest_masked_3	10	11	400	0	300	300	0	0	2320	46	0	1	0	0	0	1	blank2r.bmp	0	1	+	0	1	B1r.bmp	492	1	blank2r.bmp	786	1	CPLW	786	1	blank2r.bmp	866	2	träumen	866	1	!	1239	1	!	-1	0	0	0	0	0	0	0	0	0	0	0	0	0	0	0	0	0	0	0	0	0	0	0	0	0	0	0
011119	09:59:48	10:15:12	921652	5.0.10.0	4_exp_AWA_CON_EVA_AMP	63	Rpleas_acq	Oppo	Lpleas	Amasked	CS_A	1pleas	distractor1	CONbeforeEVA	cond_new_unple_123_masked_CS2	condtest_masked_3	10	12	400	1	300	300	0	0	418	50	0	1	0	0	0	1	blank2r.bmp	0	1	+	0	5	C1r.bmp	492	1	blank2r.bmp	786	1	DHJF	786	1	blank2r.bmp	866	2	gemein	866	1	!	1239	1	!	1319	0	0	0	0	0	0	0	0	0	0	0	0	0	0	0	0	0	0	0	0	0	0	0	0	0	0	0
011119	09:59:48	10:15:14	923878	5.0.10.0	4_exp_AWA_CON_EVA_AMP	63	Rpleas_acq	Oppo	Lpleas	Amasked	CS_A	1pleas	distractor1	CONbeforeEVA	cond_US_unple_456_masked_CS1	condtest_masked_3	10	13	400	1	300	300	0	0	427	50	0	1	0	0	0	1	blank2r.bmp	0	1	+	0	5	C1r.bmp	492	1	blank2r.bmp	786	1	CPLW	786	1	blank2r.bmp	866	1	verbissen	866	1	!	1239	1	!	1332	0	0	0	0	0	0	0	0	0	0	0	0	0	0	0	0	0	0	0	0	0	0	0	0	0	0	0
011119	09:59:48	10:15:17	926170	5.0.10.0	4_exp_AWA_CON_EVA_AMP	63	Rpleas_acq	Oppo	Lpleas	Amasked	CS_A	1pleas	distractor1	CONbeforeEVA	cond_US_pleas_456_masked_CS2	condtest_masked_3	10	14	400	0	300	300	0	0	529	46	0	1	0	0	0	1	blank2r.bmp	0	1	+	0	1	B1r.bmp	492	1	blank2r.bmp	786	1	DHJF	786	1	blank2r.bmp	866	3	besonnen	866	1	!	1239	1	!	-1	0	0	0	0	0	0	0	0	0	0	0	0	0	0	0	0	0	0	0	0	0	0	0	0	0	0	0
011119	09:59:48	10:15:19	928396	5.0.10.0	4_exp_AWA_CON_EVA_AMP	63	Rpleas_acq	Oppo	Lpleas	Amasked	CS_A	1pleas	distractor1	CONbeforeEVA	cond_US_unple_456_masked_CS2	condtest_masked_3	10	15	400	1	300	300	0	0	419	50	0	1	0	0	0	1	blank2r.bmp	0	1	+	0	2	B2r.bmp	492	1	blank2r.bmp	786	1	DHJF	786	1	blank2r.bmp	866	1	verbissen	866	1	!	1239	1	!	1319	0	0	0	0	0	0	0	0	0	0	0	0	0	0	0	0	0	0	0	0	0	0	0	0	0	0	0
011119	09:59:48	10:15:21	930648	5.0.10.0	4_exp_AWA_CON_EVA_AMP	63	Rpleas_acq	Oppo	Lpleas	Amasked	CS_A	1pleas	distractor1	CONbeforeEVA	cond_US_unple_456_masked_CS1	condtest_masked_3	10	16	400	0	300	300	0	0	484	50	0	1	0	0	0	1	blank2r.bmp	0	1	+	0	4	B4r.bmp	492	1	blank2r.bmp	786	1	CPLW	786	1	blank2r.bmp	866	2	töten	866	1	!	1239	1	!	-1	0	0	0	0	0	0	0	0	0	0	0	0	0	0	0	0	0	0	0	0	0	0	0	0	0	0	0
011119	09:59:48	10:15:23	932887	5.0.10.0	4_exp_AWA_CON_EVA_AMP	63	Rpleas_acq	Oppo	Lpleas	Amasked	CS_A	1pleas	distractor1	CONbeforeEVA	cond_US_pleas_456_masked_CS2	condtest_masked_3	10	17	400	1	300	300	0	0	436	46	0	1	0	0	0	1	blank2r.bmp	0	1	+	0	6	C2r.bmp	492	1	blank2r.bmp	786	1	DHJF	786	1	blank2r.bmp	866	3	besonnen	866	1	!	1239	1	!	1332	0	0	0	0	0	0	0	0	0	0	0	0	0	0	0	0	0	0	0	0	0	0	0	0	0	0	0
011119	09:59:48	10:15:26	935140	5.0.10.0	4_exp_AWA_CON_EVA_AMP	63	Rpleas_acq	Oppo	Lpleas	Amasked	CS_A	1pleas	distractor1	CONbeforeEVA	cond_US_unple_456_masked_CS1	condtest_masked_3	10	18	400	0	300	300	0	0	479	50	0	1	0	0	0	1	blank2r.bmp	0	1	+	0	8	C4r.bmp	492	1	blank2r.bmp	786	1	CPLW	786	1	blank2r.bmp	866	3	bange	866	1	!	1239	1	!	-1	0	0	0	0	0	0	0	0	0	0	0	0	0	0	0	0	0	0	0	0	0	0	0	0	0	0	0
011119	09:59:48	10:15:28	937419	5.0.10.0	4_exp_AWA_CON_EVA_AMP	63	Rpleas_acq	Oppo	Lpleas	Amasked	CS_A	1pleas	distractor1	CONbeforeEVA	cond_US_pleas_456_masked_CS2	condtest_masked_3	10	19	400	0	300	300	0	0	497	46	0	1	0	0	0	1	blank2r.bmp	0	1	+	0	7	C3r.bmp	492	1	blank2r.bmp	786	1	DHJF	786	1	blank2r.bmp	866	2	träumen	866	1	!	1239	1	!	-1	0	0	0	0	0	0	0	0	0	0	0	0	0	0	0	0	0	0	0	0	0	0	0	0	0	0	0
011119	09:59:48	10:15:30	939405	5.0.10.0	4_exp_AWA_CON_EVA_AMP	63	Rpleas_acq	Oppo	Lpleas	Amasked	CS_A	1pleas	distractor1	CONbeforeEVA	cond_US_unple_456_masked_CS1	condtest_masked_3	10	20	400	0	300	300	0	0	201	50	0	1	0	0	0	1	blank2r.bmp	0	1	+	0	3	B3r.bmp	492	1	blank2r.bmp	786	1	CPLW	786	1	blank2r.bmp	866	3	bange	866	1	!	-1	1	!	-1	0	0	0	0	0	0	0	0	0	0	0	0	0	0	0	0	0	0	0	0	0	0	0	0	0	0	0
011119	09:59:48	10:15:32	941804	5.0.10.0	4_exp_AWA_CON_EVA_AMP	63	Rpleas_acq	Oppo	Lpleas	Amasked	CS_A	1pleas	distractor1	CONbeforeEVA	cond_new_pleas_123_masked_CS1	condtest_masked_3	10	21	400	0	300	300	0	0	606	46	0	1	0	0	0	1	blank2r.bmp	0	1	+	0	6	C2r.bmp	492	1	blank2r.bmp	786	1	CPLW	786	1	blank2r.bmp	866	2	genießen	866	1	!	1239	1	!	-1	0	0	0	0	0	0	0	0	0	0	0	0	0	0	0	0	0	0	0	0	0	0	0	0	0	0	0
011119	09:59:48	10:15:35	944056	5.0.10.0	4_exp_AWA_CON_EVA_AMP	63	Rpleas_acq	Oppo	Lpleas	Amasked	CS_A	1pleas	distractor1	CONbeforeEVA	cond_new_unple_123_masked_CS2	condtest_masked_3	10	22	400	1	300	300	0	0	445	50	0	1	0	0	0	1	blank2r.bmp	0	1	+	0	3	B3r.bmp	492	1	blank2r.bmp	786	1	DHJF	786	1	blank2r.bmp	866	3	gierig	866	1	!	1239	1	!	1346	0	0	0	0	0	0	0	0	0	0	0	0	0	0	0	0	0	0	0	0	0	0	0	0	0	0	0
011119	09:59:48	10:15:37	946282	5.0.10.0	4_exp_AWA_CON_EVA_AMP	63	Rpleas_acq	Oppo	Lpleas	Amasked	CS_A	1pleas	distractor1	CONbeforeEVA	cond_new_pleas_123_masked_CS1	condtest_masked_3	10	23	400	1	300	300	0	0	426	50	0	0	0	0	0	1	blank2r.bmp	0	1	+	0	4	B4r.bmp	492	1	blank2r.bmp	786	1	CPLW	786	1	blank2r.bmp	866	2	genießen	866	1	!	1239	1	!	1332	0	0	0	0	0	0	0	0	0	0	0	0	0	0	0	0	0	0	0	0	0	0	0	0	0	0	0
011119	09:59:48	10:15:39	948508	5.0.10.0	4_exp_AWA_CON_EVA_AMP	63	Rpleas_acq	Oppo	Lpleas	Amasked	CS_A	1pleas	distractor1	CONbeforeEVA	cond_US_pleas_456_masked_CS1	condtest_masked_3	10	24	400	1	300	300	0	0	423	50	0	0	0	0	0	1	blank2r.bmp	0	1	+	0	8	C4r.bmp	492	1	blank2r.bmp	786	1	CPLW	786	1	blank2r.bmp	866	1	vergnügt	866	1	!	1239	1	!	1319	0	0	0	0	0	0	0	0	0	0	0	0	0	0	0	0	0	0	0	0	0	0	0	0	0	0	0
011119	09:59:48	10:15:41	950787	5.0.10.0	4_exp_AWA_CON_EVA_AMP	63	Rpleas_acq	Oppo	Lpleas	Amasked	CS_A	1pleas	distractor1	CONbeforeEVA	cond_US_unple_456_masked_CS2	condtest_masked_3	10	25	400	0	300	300	0	0	505	50	0	1	0	0	0	1	blank2r.bmp	0	1	+	0	2	B2r.bmp	492	1	blank2r.bmp	786	1	DHJF	786	1	blank2r.bmp	866	2	töten	866	1	!	1239	1	!	-1	0	0	0	0	0	0	0	0	0	0	0	0	0	0	0	0	0	0	0	0	0	0	0	0	0	0	0
011119	09:59:48	10:15:44	953026	5.0.10.0	4_exp_AWA_CON_EVA_AMP	63	Rpleas_acq	Oppo	Lpleas	Amasked	CS_A	1pleas	distractor1	CONbeforeEVA	cond_US_pleas_456_masked_CS1	condtest_masked_3	10	26	400	1	300	300	0	0	437	46	0	1	0	0	0	1	blank2r.bmp	0	1	+	0	7	C3r.bmp	492	1	blank2r.bmp	786	1	CPLW	786	1	blank2r.bmp	866	1	vergnügt	866	1	!	1239	1	!	1332	0	0	0	0	0	0	0	0	0	0	0	0	0	0	0	0	0	0	0	0	0	0	0	0	0	0	0
011119	09:59:48	10:15:46	955078	5.0.10.0	4_exp_AWA_CON_EVA_AMP	63	Rpleas_acq	Oppo	Lpleas	Amasked	CS_A	1pleas	distractor1	CONbeforeEVA	cond_new_pleas_123_masked_CS2	condtest_masked_3	10	27	400	0	300	300	0	0	278	50	0	0	0	0	0	1	blank2r.bmp	0	1	+	0	5	C1r.bmp	492	1	blank2r.bmp	786	1	DHJF	786	1	blank2r.bmp	866	3	gütig	866	1	!	-1	1	!	-1	0	0	0	0	0	0	0	0	0	0	0	0	0	0	0	0	0	0	0	0	0	0	0	0	0	0	0
011119	09:59:48	10:15:48	957264	5.0.10.0	4_exp_AWA_CON_EVA_AMP	63	Rpleas_acq	Oppo	Lpleas	Amasked	CS_A	1pleas	distractor1	CONbeforeEVA	cond_new_pleas_123_masked_CS2	condtest_masked_3	10	28	400	1	300	300	0	0	384	50	0	0	0	0	0	1	blank2r.bmp	0	1	+	0	1	B1r.bmp	492	1	blank2r.bmp	786	1	DHJF	786	1	blank2r.bmp	866	1	sonnig	866	1	!	1239	1	!	1279	0	0	0	0	0	0	0	0	0	0	0	0	0	0	0	0	0	0	0	0	0	0	0	0	0	0	0
011119	09:59:48	10:15:50	959476	5.0.10.0	4_exp_AWA_CON_EVA_AMP	63	Rpleas_acq	Oppo	Lpleas	Amasked	CS_A	1pleas	distractor1	CONbeforeEVA	cond_US_unple_456_masked_CS2	condtest_masked_3	10	29	400	1	300	300	0	0	401	50	0	1	0	0	0	1	blank2r.bmp	0	1	+	0	2	B2r.bmp	492	1	blank2r.bmp	786	1	DHJF	786	1	blank2r.bmp	866	1	verbissen	866	1	!	1239	1	!	1306	0	0	0	0	0	0	0	0	0	0	0	0	0	0	0	0	0	0	0	0	0	0	0	0	0	0	0
011119	09:59:48	10:15:52	961555	5.0.10.0	4_exp_AWA_CON_EVA_AMP	63	Rpleas_acq	Oppo	Lpleas	Amasked	CS_A	1pleas	distractor1	CONbeforeEVA	cond_US_pleas_456_masked_CS2	condtest_masked_3	10	30	400	0	300	300	0	0	314	50	0	0	0	0	0	1	blank2r.bmp	0	1	+	0	5	C1r.bmp	492	1	blank2r.bmp	786	1	DHJF	786	1	blank2r.bmp	866	3	besonnen	866	1	!	-1	1	!	-1	0	0	0	0	0	0	0	0	0	0	0	0	0	0	0	0	0	0	0	0	0	0	0	0	0	0	0
011119	09:59:48	10:15:54	963754	5.0.10.0	4_exp_AWA_CON_EVA_AMP	63	Rpleas_acq	Oppo	Lpleas	Amasked	CS_A	1pleas	distractor1	CONbeforeEVA	cond_new_pleas_123_masked_CS2	condtest_masked_3	10	31	400	1	300	300	0	0	378	50	0	0	0	0	0	1	blank2r.bmp	0	1	+	0	4	B4r.bmp	492	1	blank2r.bmp	786	1	DHJF	786	1	blank2r.bmp	866	2	genießen	866	1	!	1239	1	!	1279	0	0	0	0	0	0	0	0	0	0	0	0	0	0	0	0	0	0	0	0	0	0	0	0	0	0	0
