date	time	script.currenttime	script.elapsedtime	build	script.currentexpt	subject	expressions.LRpleas_acq	expressions.SameOppo	expressions.condition_Lpleas	expressions.ABmasked	expressions.conditionCS_A	expressions.condition_1pleas	expressions.condition_distractor_AMP	expressions.AWACON_AMPEVA_first	trialcode	blockcode	blocknum	trialnum	windowcenter	inwindow	pretrialpause	posttrialpause	trialduration	trialtimeout	latency	response	expressions.correctedscore	correct	values.vis_performance	values.vis_rating_sum	values.vis_rating_mean	stimulusnumber1	stimulusitem1	stimulusonset1	stimulusnumber2	stimulusitem2	stimulusonset2	stimulusnumber3	stimulusitem3	stimulusonset3	stimulusnumber4	stimulusitem4	stimulusonset4	stimulusnumber5	stimulusitem5	stimulusonset5	stimulusnumber6	stimulusitem6	stimulusonset6	stimulusnumber7	stimulusitem7	stimulusonset7	stimulusnumber8	stimulusitem8	stimulusonset8	stimulusnumber9	stimulusitem9	stimulusonset9	stimulusnumber10	stimulusitem10	stimulusonset10	stimulusnumber11	stimulusitem11	stimulusonset11	stimulusnumber12	stimulusitem12	stimulusonset12	stimulusnumber13	stimulusitem13	stimulusonset13	stimulusnumber14	stimulusitem14	stimulusonset14	stimulusnumber15	stimulusitem15	stimulusonset15	stimulusnumber16	stimulusitem16	stimulusonset16	stimulusnumber17	stimulusitem17	stimulusonset17	stimulusnumber18	stimulusitem18	stimulusonset18
011719	16:04:35	16:06:00	84778	5.0.10.0	4_exp_AWA_CON_EVA_AMP	78	Rpleas_acq	Same	Rpleas	Bmasked	CS_B	1pleas	distractor1	CONbeforeEVA	acq_new_unple_masked	acq1_masked	1	1	0	0	300	300	0	0	927	50	0	0	0	0	0	1	blank2r.bmp	0	1	+	0	5	C1r.bmp	492	1	blank2r.bmp	786	4	B4r.bmp	786	1	blank2r.bmp	866	6	rächen	866	1	FEHLER	1825	0	0	0	0	0	0	0	0	0	0	0	0	0	0	0	0	0	0	0	0	0	0	0	0	0	0	0	0	0	0
011719	16:04:35	16:06:02	86790	5.0.10.0	4_exp_AWA_CON_EVA_AMP	78	Rpleas_acq	Same	Rpleas	Bmasked	CS_B	1pleas	distractor1	CONbeforeEVA	acq_new_pleas_masked	acq1_masked	1	2	0	0	300	300	0	0	751	50	0	1	0	0	0	1	blank2r.bmp	0	1	+	0	6	C2r.bmp	492	1	blank2r.bmp	786	7	C3r.bmp	786	1	blank2r.bmp	866	3	treu	866	0	0	0	0	0	0	0	0	0	0	0	0	0	0	0	0	0	0	0	0	0	0	0	0	0	0	0	0	0	0	0	0	0
011719	16:04:35	16:06:05	89096	5.0.10.0	4_exp_AWA_CON_EVA_AMP	78	Rpleas_acq	Same	Rpleas	Bmasked	CS_B	1pleas	distractor1	CONbeforeEVA	acq_US_pleas_masked	acq1_masked	1	3	0	0	300	300	0	0	822	50	0	1	0	0	0	1	blank2r.bmp	0	1	+	0	2	B2r.bmp	492	1	blank2r.bmp	786	1	BMVZ	786	1	blank2r.bmp	866	3	fair	866	0	0	0	0	0	0	0	0	0	0	0	0	0	0	0	0	0	0	0	0	0	0	0	0	0	0	0	0	0	0	0	0	0
011719	16:04:35	16:06:07	91095	5.0.10.0	4_exp_AWA_CON_EVA_AMP	78	Rpleas_acq	Same	Rpleas	Bmasked	CS_B	1pleas	distractor1	CONbeforeEVA	acq_US_unple_masked	acq1_masked	1	4	0	0	300	300	0	0	511	46	0	1	0	0	0	1	blank2r.bmp	0	1	+	0	1	B1r.bmp	492	1	blank2r.bmp	786	1	GKQX	786	1	blank2r.bmp	866	2	hindern	866	0	0	0	0	0	0	0	0	0	0	0	0	0	0	0	0	0	0	0	0	0	0	0	0	0	0	0	0	0	0	0	0	0
011719	16:04:35	16:06:09	93081	5.0.10.0	4_exp_AWA_CON_EVA_AMP	78	Rpleas_acq	Same	Rpleas	Bmasked	CS_B	1pleas	distractor1	CONbeforeEVA	acq_US_unple_masked	acq1_masked	1	5	0	0	300	300	0	0	494	46	0	1	0	0	0	1	blank2r.bmp	0	1	+	0	4	B4r.bmp	492	1	blank2r.bmp	786	1	GKQX	786	1	blank2r.bmp	866	3	faul	866	0	0	0	0	0	0	0	0	0	0	0	0	0	0	0	0	0	0	0	0	0	0	0	0	0	0	0	0	0	0	0	0	0
011719	16:04:35	16:06:11	94974	5.0.10.0	4_exp_AWA_CON_EVA_AMP	78	Rpleas_acq	Same	Rpleas	Bmasked	CS_B	1pleas	distractor1	CONbeforeEVA	acq_US_unple_masked	acq1_masked	1	6	0	0	300	300	0	0	424	46	0	1	0	0	0	1	blank2r.bmp	0	1	+	0	7	C3r.bmp	492	1	blank2r.bmp	786	1	GKQX	786	1	blank2r.bmp	866	5	leiden	866	0	0	0	0	0	0	0	0	0	0	0	0	0	0	0	0	0	0	0	0	0	0	0	0	0	0	0	0	0	0	0	0	0
011719	16:04:35	16:06:13	96986	5.0.10.0	4_exp_AWA_CON_EVA_AMP	78	Rpleas_acq	Same	Rpleas	Bmasked	CS_B	1pleas	distractor1	CONbeforeEVA	acq_new_unple_masked	acq1_masked	1	7	0	0	300	300	0	0	525	46	0	1	0	0	0	1	blank2r.bmp	0	1	+	0	8	C4r.bmp	492	1	blank2r.bmp	786	6	C2r.bmp	786	1	blank2r.bmp	866	4	tyrannisch	866	0	0	0	0	0	0	0	0	0	0	0	0	0	0	0	0	0	0	0	0	0	0	0	0	0	0	0	0	0	0	0	0	0
011719	16:04:35	16:06:15	99118	5.0.10.0	4_exp_AWA_CON_EVA_AMP	78	Rpleas_acq	Same	Rpleas	Bmasked	CS_B	1pleas	distractor1	CONbeforeEVA	acq_new_pleas_masked	acq1_masked	1	8	0	0	300	300	0	0	642	50	0	1	0	0	0	1	blank2r.bmp	0	1	+	0	3	B3r.bmp	492	1	blank2r.bmp	786	1	B1r.bmp	786	1	blank2r.bmp	866	4	tolerant	866	0	0	0	0	0	0	0	0	0	0	0	0	0	0	0	0	0	0	0	0	0	0	0	0	0	0	0	0	0	0	0	0	0
011719	16:04:35	16:06:17	101144	5.0.10.0	4_exp_AWA_CON_EVA_AMP	78	Rpleas_acq	Same	Rpleas	Bmasked	CS_B	1pleas	distractor1	CONbeforeEVA	acq_US_pleas_masked	acq1_masked	1	9	0	0	300	300	0	0	545	50	0	1	0	0	0	1	blank2r.bmp	0	1	+	0	7	C3r.bmp	492	1	blank2r.bmp	786	1	BMVZ	786	1	blank2r.bmp	866	2	helfen	866	0	0	0	0	0	0	0	0	0	0	0	0	0	0	0	0	0	0	0	0	0	0	0	0	0	0	0	0	0	0	0	0	0
011719	16:04:35	16:06:19	103157	5.0.10.0	4_exp_AWA_CON_EVA_AMP	78	Rpleas_acq	Same	Rpleas	Bmasked	CS_B	1pleas	distractor1	CONbeforeEVA	acq_new_unple_masked	acq1_masked	1	10	0	0	300	300	0	0	535	46	0	1	0	0	0	1	blank2r.bmp	0	1	+	0	6	C2r.bmp	492	1	blank2r.bmp	786	8	C4r.bmp	786	1	blank2r.bmp	866	5	schlecht	866	0	0	0	0	0	0	0	0	0	0	0	0	0	0	0	0	0	0	0	0	0	0	0	0	0	0	0	0	0	0	0	0	0
011719	16:04:35	16:06:21	105249	5.0.10.0	4_exp_AWA_CON_EVA_AMP	78	Rpleas_acq	Same	Rpleas	Bmasked	CS_B	1pleas	distractor1	CONbeforeEVA	acq_new_pleas_masked	acq1_masked	1	11	0	0	300	300	0	0	621	50	0	1	0	0	0	1	blank2r.bmp	0	1	+	0	4	B4r.bmp	492	1	blank2r.bmp	786	3	B3r.bmp	786	1	blank2r.bmp	866	1	schlau	866	0	0	0	0	0	0	0	0	0	0	0	0	0	0	0	0	0	0	0	0	0	0	0	0	0	0	0	0	0	0	0	0	0
011719	16:04:35	16:06:23	107288	5.0.10.0	4_exp_AWA_CON_EVA_AMP	78	Rpleas_acq	Same	Rpleas	Bmasked	CS_B	1pleas	distractor1	CONbeforeEVA	acq_US_pleas_masked	acq1_masked	1	12	0	0	300	300	0	0	569	50	0	1	0	0	0	1	blank2r.bmp	0	1	+	0	5	C1r.bmp	492	1	blank2r.bmp	786	1	BMVZ	786	1	blank2r.bmp	866	4	spielen	866	0	0	0	0	0	0	0	0	0	0	0	0	0	0	0	0	0	0	0	0	0	0	0	0	0	0	0	0	0	0	0	0	0
011719	16:04:35	16:06:25	109341	5.0.10.0	4_exp_AWA_CON_EVA_AMP	78	Rpleas_acq	Same	Rpleas	Bmasked	CS_B	1pleas	distractor1	CONbeforeEVA	acq_US_unple_masked	acq1_masked	1	13	0	0	300	300	0	0	568	46	0	1	0	0	0	1	blank2r.bmp	0	1	+	0	3	B3r.bmp	492	1	blank2r.bmp	786	1	GKQX	786	1	blank2r.bmp	866	6	lasch	866	0	0	0	0	0	0	0	0	0	0	0	0	0	0	0	0	0	0	0	0	0	0	0	0	0	0	0	0	0	0	0	0	0
011719	16:04:35	16:06:27	111407	5.0.10.0	4_exp_AWA_CON_EVA_AMP	78	Rpleas_acq	Same	Rpleas	Bmasked	CS_B	1pleas	distractor1	CONbeforeEVA	acq_new_pleas_masked	acq1_masked	1	14	0	0	300	300	0	0	574	50	0	1	0	0	0	1	blank2r.bmp	0	1	+	0	2	B2r.bmp	492	1	blank2r.bmp	786	5	C1r.bmp	786	1	blank2r.bmp	866	2	ehrlich	866	0	0	0	0	0	0	0	0	0	0	0	0	0	0	0	0	0	0	0	0	0	0	0	0	0	0	0	0	0	0	0	0	0
011719	16:04:35	16:06:29	113446	5.0.10.0	4_exp_AWA_CON_EVA_AMP	78	Rpleas_acq	Same	Rpleas	Bmasked	CS_B	1pleas	distractor1	CONbeforeEVA	acq_new_unple_masked	acq1_masked	1	15	0	0	300	300	0	0	550	46	0	1	0	0	0	1	blank2r.bmp	0	1	+	0	1	B1r.bmp	492	1	blank2r.bmp	786	2	B2r.bmp	786	1	blank2r.bmp	866	1	schroff	866	0	0	0	0	0	0	0	0	0	0	0	0	0	0	0	0	0	0	0	0	0	0	0	0	0	0	0	0	0	0	0	0	0
011719	16:04:35	16:06:31	115498	5.0.10.0	4_exp_AWA_CON_EVA_AMP	78	Rpleas_acq	Same	Rpleas	Bmasked	CS_B	1pleas	distractor1	CONbeforeEVA	acq_new_pleas_masked	acq1_masked	1	16	0	0	300	300	0	0	561	50	0	1	0	0	0	1	blank2r.bmp	0	1	+	0	8	C4r.bmp	492	1	blank2r.bmp	786	6	C2r.bmp	786	1	blank2r.bmp	866	5	schön	866	0	0	0	0	0	0	0	0	0	0	0	0	0	0	0	0	0	0	0	0	0	0	0	0	0	0	0	0	0	0	0	0	0
011719	16:04:35	16:06:33	117418	5.0.10.0	4_exp_AWA_CON_EVA_AMP	78	Rpleas_acq	Same	Rpleas	Bmasked	CS_B	1pleas	distractor1	CONbeforeEVA	acq_US_pleas_masked	acq1_masked	1	17	0	0	300	300	0	0	445	50	0	1	0	0	0	1	blank2r.bmp	0	1	+	0	3	B3r.bmp	492	1	blank2r.bmp	786	1	BMVZ	786	1	blank2r.bmp	866	5	lachen	866	0	0	0	0	0	0	0	0	0	0	0	0	0	0	0	0	0	0	0	0	0	0	0	0	0	0	0	0	0	0	0	0	0
011719	16:04:35	16:06:35	119350	5.0.10.0	4_exp_AWA_CON_EVA_AMP	78	Rpleas_acq	Same	Rpleas	Bmasked	CS_B	1pleas	distractor1	CONbeforeEVA	acq_US_pleas_masked	acq1_masked	1	18	0	0	300	300	0	0	453	50	0	1	0	0	0	1	blank2r.bmp	0	1	+	0	4	B4r.bmp	492	1	blank2r.bmp	786	1	BMVZ	786	1	blank2r.bmp	866	1	freundlich	866	0	0	0	0	0	0	0	0	0	0	0	0	0	0	0	0	0	0	0	0	0	0	0	0	0	0	0	0	0	0	0	0	0
011719	16:04:35	16:06:37	121456	5.0.10.0	4_exp_AWA_CON_EVA_AMP	78	Rpleas_acq	Same	Rpleas	Bmasked	CS_B	1pleas	distractor1	CONbeforeEVA	acq_US_unple_masked	acq1_masked	1	19	0	0	300	300	0	0	629	46	0	1	0	0	0	1	blank2r.bmp	0	1	+	0	2	B2r.bmp	492	1	blank2r.bmp	786	1	GKQX	786	1	blank2r.bmp	866	1	fanatisch	866	0	0	0	0	0	0	0	0	0	0	0	0	0	0	0	0	0	0	0	0	0	0	0	0	0	0	0	0	0	0	0	0	0
011719	16:04:35	16:06:39	123415	5.0.10.0	4_exp_AWA_CON_EVA_AMP	78	Rpleas_acq	Same	Rpleas	Bmasked	CS_B	1pleas	distractor1	CONbeforeEVA	acq_US_pleas_masked	acq1_masked	1	20	0	0	300	300	0	0	484	50	0	1	0	0	0	1	blank2r.bmp	0	1	+	0	8	C4r.bmp	492	1	blank2r.bmp	786	1	BMVZ	786	1	blank2r.bmp	866	6	loyal	866	0	0	0	0	0	0	0	0	0	0	0	0	0	0	0	0	0	0	0	0	0	0	0	0	0	0	0	0	0	0	0	0	0
011719	16:04:35	16:06:41	125374	5.0.10.0	4_exp_AWA_CON_EVA_AMP	78	Rpleas_acq	Same	Rpleas	Bmasked	CS_B	1pleas	distractor1	CONbeforeEVA	acq_new_unple_masked	acq1_masked	1	21	0	0	300	300	0	0	468	46	0	1	0	0	0	1	blank2r.bmp	0	1	+	0	1	B1r.bmp	492	1	blank2r.bmp	786	4	B4r.bmp	786	1	blank2r.bmp	866	2	eitel	866	0	0	0	0	0	0	0	0	0	0	0	0	0	0	0	0	0	0	0	0	0	0	0	0	0	0	0	0	0	0	0	0	0
011719	16:04:35	16:06:43	127400	5.0.10.0	4_exp_AWA_CON_EVA_AMP	78	Rpleas_acq	Same	Rpleas	Bmasked	CS_B	1pleas	distractor1	CONbeforeEVA	acq_new_unple_masked	acq1_masked	1	22	0	0	300	300	0	0	551	46	0	1	0	0	0	1	blank2r.bmp	0	1	+	0	7	C3r.bmp	492	1	blank2r.bmp	786	2	B2r.bmp	786	1	blank2r.bmp	866	3	tot	866	0	0	0	0	0	0	0	0	0	0	0	0	0	0	0	0	0	0	0	0	0	0	0	0	0	0	0	0	0	0	0	0	0
011719	16:04:35	16:06:45	129359	5.0.10.0	4_exp_AWA_CON_EVA_AMP	78	Rpleas_acq	Same	Rpleas	Bmasked	CS_B	1pleas	distractor1	CONbeforeEVA	acq_US_unple_masked	acq1_masked	1	23	0	0	300	300	0	0	483	46	0	1	0	0	0	1	blank2r.bmp	0	1	+	0	6	C2r.bmp	492	1	blank2r.bmp	786	1	GKQX	786	1	blank2r.bmp	866	4	strafen	866	0	0	0	0	0	0	0	0	0	0	0	0	0	0	0	0	0	0	0	0	0	0	0	0	0	0	0	0	0	0	0	0	0
011719	16:04:35	16:06:47	131572	5.0.10.0	4_exp_AWA_CON_EVA_AMP	78	Rpleas_acq	Same	Rpleas	Bmasked	CS_B	1pleas	distractor1	CONbeforeEVA	acq_new_pleas_masked	acq1_masked	1	24	0	0	300	300	0	0	515	46	0	0	0	0	0	1	blank2r.bmp	0	1	+	0	5	C1r.bmp	492	1	blank2r.bmp	786	1	B1r.bmp	786	1	blank2r.bmp	866	6	retten	866	1	FEHLER	1412	0	0	0	0	0	0	0	0	0	0	0	0	0	0	0	0	0	0	0	0	0	0	0	0	0	0	0	0	0	0
011719	16:04:35	16:06:49	133478	5.0.10.0	4_exp_AWA_CON_EVA_AMP	78	Rpleas_acq	Same	Rpleas	Bmasked	CS_B	1pleas	distractor1	CONbeforeEVA	acq_new_unple_masked	acq1_masked	1	25	0	0	300	300	0	0	625	46	0	1	0	0	0	1	blank2r.bmp	0	1	+	0	3	B3r.bmp	492	1	blank2r.bmp	786	8	C4r.bmp	786	1	blank2r.bmp	866	1	schroff	866	0	0	0	0	0	0	0	0	0	0	0	0	0	0	0	0	0	0	0	0	0	0	0	0	0	0	0	0	0	0	0	0	0
011719	16:04:35	16:06:51	135384	5.0.10.0	4_exp_AWA_CON_EVA_AMP	78	Rpleas_acq	Same	Rpleas	Bmasked	CS_B	1pleas	distractor1	CONbeforeEVA	acq_new_pleas_masked	acq1_masked	1	26	0	0	300	300	0	0	437	50	0	1	0	0	0	1	blank2r.bmp	0	1	+	0	4	B4r.bmp	492	1	blank2r.bmp	786	7	C3r.bmp	786	1	blank2r.bmp	866	5	schön	866	0	0	0	0	0	0	0	0	0	0	0	0	0	0	0	0	0	0	0	0	0	0	0	0	0	0	0	0	0	0	0	0	0
011719	16:04:35	16:06:53	137383	5.0.10.0	4_exp_AWA_CON_EVA_AMP	78	Rpleas_acq	Same	Rpleas	Bmasked	CS_B	1pleas	distractor1	CONbeforeEVA	acq_new_pleas_masked	acq1_masked	1	27	0	0	300	300	0	0	509	50	0	1	0	0	0	1	blank2r.bmp	0	1	+	0	6	C2r.bmp	492	1	blank2r.bmp	786	3	B3r.bmp	786	1	blank2r.bmp	866	2	ehrlich	866	0	0	0	0	0	0	0	0	0	0	0	0	0	0	0	0	0	0	0	0	0	0	0	0	0	0	0	0	0	0	0	0	0
011719	16:04:35	16:06:55	139302	5.0.10.0	4_exp_AWA_CON_EVA_AMP	78	Rpleas_acq	Same	Rpleas	Bmasked	CS_B	1pleas	distractor1	CONbeforeEVA	acq_US_pleas_masked	acq1_masked	1	28	0	0	300	300	0	0	450	50	0	1	0	0	0	1	blank2r.bmp	0	1	+	0	5	C1r.bmp	492	1	blank2r.bmp	786	1	BMVZ	786	1	blank2r.bmp	866	6	loyal	866	0	0	0	0	0	0	0	0	0	0	0	0	0	0	0	0	0	0	0	0	0	0	0	0	0	0	0	0	0	0	0	0	0
011719	16:04:35	16:06:57	141208	5.0.10.0	4_exp_AWA_CON_EVA_AMP	78	Rpleas_acq	Same	Rpleas	Bmasked	CS_B	1pleas	distractor1	CONbeforeEVA	acq_US_pleas_masked	acq1_masked	1	29	0	0	300	300	0	0	430	50	0	1	0	0	0	1	blank2r.bmp	0	1	+	0	2	B2r.bmp	492	1	blank2r.bmp	786	1	BMVZ	786	1	blank2r.bmp	866	5	lachen	866	0	0	0	0	0	0	0	0	0	0	0	0	0	0	0	0	0	0	0	0	0	0	0	0	0	0	0	0	0	0	0	0	0
011719	16:04:35	16:06:59	143167	5.0.10.0	4_exp_AWA_CON_EVA_AMP	78	Rpleas_acq	Same	Rpleas	Bmasked	CS_B	1pleas	distractor1	CONbeforeEVA	acq_new_pleas_masked	acq1_masked	1	30	0	0	300	300	0	0	484	50	0	1	0	0	0	1	blank2r.bmp	0	1	+	0	8	C4r.bmp	492	1	blank2r.bmp	786	5	C1r.bmp	786	1	blank2r.bmp	866	1	schlau	866	0	0	0	0	0	0	0	0	0	0	0	0	0	0	0	0	0	0	0	0	0	0	0	0	0	0	0	0	0	0	0	0	0
011719	16:04:35	16:07:01	145180	5.0.10.0	4_exp_AWA_CON_EVA_AMP	78	Rpleas_acq	Same	Rpleas	Bmasked	CS_B	1pleas	distractor1	CONbeforeEVA	acq_US_unple_masked	acq1_masked	1	31	0	0	300	300	0	0	519	46	0	1	0	0	0	1	blank2r.bmp	0	1	+	0	1	B1r.bmp	492	1	blank2r.bmp	786	1	GKQX	786	1	blank2r.bmp	866	4	strafen	866	0	0	0	0	0	0	0	0	0	0	0	0	0	0	0	0	0	0	0	0	0	0	0	0	0	0	0	0	0	0	0	0	0
011719	16:04:35	16:07:03	147299	5.0.10.0	4_exp_AWA_CON_EVA_AMP	78	Rpleas_acq	Same	Rpleas	Bmasked	CS_B	1pleas	distractor1	CONbeforeEVA	acq_new_unple_masked	acq1_masked	1	32	0	0	300	300	0	0	628	46	0	1	0	0	0	1	blank2r.bmp	0	1	+	0	7	C3r.bmp	492	1	blank2r.bmp	786	2	B2r.bmp	786	1	blank2r.bmp	866	4	tyrannisch	866	0	0	0	0	0	0	0	0	0	0	0	0	0	0	0	0	0	0	0	0	0	0	0	0	0	0	0	0	0	0	0	0	0
011719	16:04:35	16:07:05	149245	5.0.10.0	4_exp_AWA_CON_EVA_AMP	78	Rpleas_acq	Same	Rpleas	Bmasked	CS_B	1pleas	distractor1	CONbeforeEVA	acq_new_unple_masked	acq1_masked	1	33	0	0	300	300	0	0	456	46	0	1	0	0	0	1	blank2r.bmp	0	1	+	0	6	C2r.bmp	492	1	blank2r.bmp	786	3	B3r.bmp	786	1	blank2r.bmp	866	3	tot	866	0	0	0	0	0	0	0	0	0	0	0	0	0	0	0	0	0	0	0	0	0	0	0	0	0	0	0	0	0	0	0	0	0
011719	16:04:35	16:07:07	151257	5.0.10.0	4_exp_AWA_CON_EVA_AMP	78	Rpleas_acq	Same	Rpleas	Bmasked	CS_B	1pleas	distractor1	CONbeforeEVA	acq_US_unple_masked	acq1_masked	1	34	0	0	300	300	0	0	533	46	0	1	0	0	0	1	blank2r.bmp	0	1	+	0	2	B2r.bmp	492	1	blank2r.bmp	786	1	GKQX	786	1	blank2r.bmp	866	2	hindern	866	0	0	0	0	0	0	0	0	0	0	0	0	0	0	0	0	0	0	0	0	0	0	0	0	0	0	0	0	0	0	0	0	0
011719	16:04:35	16:07:09	153190	5.0.10.0	4_exp_AWA_CON_EVA_AMP	78	Rpleas_acq	Same	Rpleas	Bmasked	CS_B	1pleas	distractor1	CONbeforeEVA	acq_US_unple_masked	acq1_masked	1	35	0	0	300	300	0	0	458	46	0	1	0	0	0	1	blank2r.bmp	0	1	+	0	4	B4r.bmp	492	1	blank2r.bmp	786	1	GKQX	786	1	blank2r.bmp	866	6	lasch	866	0	0	0	0	0	0	0	0	0	0	0	0	0	0	0	0	0	0	0	0	0	0	0	0	0	0	0	0	0	0	0	0	0
011719	16:04:35	16:07:11	155135	5.0.10.0	4_exp_AWA_CON_EVA_AMP	78	Rpleas_acq	Same	Rpleas	Bmasked	CS_B	1pleas	distractor1	CONbeforeEVA	acq_US_pleas_masked	acq1_masked	1	36	0	0	300	300	0	0	469	50	0	1	0	0	0	1	blank2r.bmp	0	1	+	0	8	C4r.bmp	492	1	blank2r.bmp	786	1	BMVZ	786	1	blank2r.bmp	866	2	helfen	866	0	0	0	0	0	0	0	0	0	0	0	0	0	0	0	0	0	0	0	0	0	0	0	0	0	0	0	0	0	0	0	0	0
011719	16:04:35	16:07:38	182791	5.0.10.0	4_exp_AWA_CON_EVA_AMP	78	Rpleas_acq	Same	Rpleas	Bmasked	CS_B	1pleas	distractor1	CONbeforeEVA	acq_US_pleas_masked	acq2_masked	2	1	480	0	300	300	0	0	842	50	0	1	0	0	0	1	blank2r.bmp	0	1	+	0	5	C1r.bmp	492	1	blank2r.bmp	786	1	BMVZ	786	1	blank2r.bmp	866	3	fair	866	1	!	1319	1	!	-1	0	0	0	0	0	0	0	0	0	0	0	0	0	0	0	0	0	0	0	0	0	0	0	0	0	0	0
011719	16:04:35	16:07:41	185230	5.0.10.0	4_exp_AWA_CON_EVA_AMP	78	Rpleas_acq	Same	Rpleas	Bmasked	CS_B	1pleas	distractor1	CONbeforeEVA	acq_new_pleas_masked	acq2_masked	2	2	480	0	300	300	0	0	652	50	0	1	0	0	0	1	blank2r.bmp	0	1	+	0	3	B3r.bmp	492	1	blank2r.bmp	786	1	B1r.bmp	786	1	blank2r.bmp	866	3	treu	866	1	!	1319	1	!	-1	0	0	0	0	0	0	0	0	0	0	0	0	0	0	0	0	0	0	0	0	0	0	0	0	0	0	0
011719	16:04:35	16:07:43	187522	5.0.10.0	4_exp_AWA_CON_EVA_AMP	78	Rpleas_acq	Same	Rpleas	Bmasked	CS_B	1pleas	distractor1	CONbeforeEVA	acq_US_unple_masked	acq2_masked	2	3	480	1	300	300	0	0	479	46	0	1	0	0	0	1	blank2r.bmp	0	1	+	0	7	C3r.bmp	492	1	blank2r.bmp	786	1	GKQX	786	1	blank2r.bmp	866	5	leiden	866	1	!	1319	1	!	1386	0	0	0	0	0	0	0	0	0	0	0	0	0	0	0	0	0	0	0	0	0	0	0	0	0	0	0
011719	16:04:35	16:07:45	189761	5.0.10.0	4_exp_AWA_CON_EVA_AMP	78	Rpleas_acq	Same	Rpleas	Bmasked	CS_B	1pleas	distractor1	CONbeforeEVA	acq_new_unple_masked	acq2_masked	2	4	480	1	300	300	0	0	442	46	0	1	0	0	0	1	blank2r.bmp	0	1	+	0	1	B1r.bmp	492	1	blank2r.bmp	786	8	C4r.bmp	786	1	blank2r.bmp	866	2	eitel	866	1	!	1319	1	!	1346	0	0	0	0	0	0	0	0	0	0	0	0	0	0	0	0	0	0	0	0	0	0	0	0	0	0	0
011719	16:04:35	16:07:48	192147	5.0.10.0	4_exp_AWA_CON_EVA_AMP	78	Rpleas_acq	Same	Rpleas	Bmasked	CS_B	1pleas	distractor1	CONbeforeEVA	acq_US_pleas_masked	acq2_masked	2	5	480	0	300	300	0	0	387	46	0	0	0	0	0	1	blank2r.bmp	0	1	+	0	4	B4r.bmp	492	1	blank2r.bmp	786	1	BMVZ	786	1	blank2r.bmp	866	4	spielen	866	1	FEHLER	1599	1	!	-1	1	!	-1	0	0	0	0	0	0	0	0	0	0	0	0	0	0	0	0	0	0	0	0	0	0	0	0
011719	16:04:35	16:07:50	194333	5.0.10.0	4_exp_AWA_CON_EVA_AMP	78	Rpleas_acq	Same	Rpleas	Bmasked	CS_B	1pleas	distractor1	CONbeforeEVA	acq_new_pleas_masked	acq2_masked	2	6	480	0	300	300	0	0	615	50	0	1	0	0	0	1	blank2r.bmp	0	1	+	0	1	B1r.bmp	492	1	blank2r.bmp	786	5	C1r.bmp	786	1	blank2r.bmp	866	6	retten	866	1	!	1319	1	!	-1	0	0	0	0	0	0	0	0	0	0	0	0	0	0	0	0	0	0	0	0	0	0	0	0	0	0	0
011719	16:04:35	16:07:52	196478	5.0.10.0	4_exp_AWA_CON_EVA_AMP	78	Rpleas_acq	Same	Rpleas	Bmasked	CS_B	1pleas	distractor1	CONbeforeEVA	acq_US_pleas_masked	acq2_masked	2	7	480	0	300	300	0	0	370	50	0	1	0	0	0	1	blank2r.bmp	0	1	+	0	8	C4r.bmp	492	1	blank2r.bmp	786	1	BMVZ	786	1	blank2r.bmp	866	1	freundlich	866	1	!	-1	1	!	-1	0	0	0	0	0	0	0	0	0	0	0	0	0	0	0	0	0	0	0	0	0	0	0	0	0	0	0
011719	16:04:35	16:07:54	198811	5.0.10.0	4_exp_AWA_CON_EVA_AMP	78	Rpleas_acq	Same	Rpleas	Bmasked	CS_B	1pleas	distractor1	CONbeforeEVA	acq_new_unple_masked	acq2_masked	2	8	480	1	300	300	0	0	524	46	0	1	0	0	0	1	blank2r.bmp	0	1	+	0	7	C3r.bmp	492	1	blank2r.bmp	786	4	B4r.bmp	786	1	blank2r.bmp	866	5	schlecht	866	1	!	1319	1	!	1426	0	0	0	0	0	0	0	0	0	0	0	0	0	0	0	0	0	0	0	0	0	0	0	0	0	0	0
011719	16:04:35	16:07:57	201143	5.0.10.0	4_exp_AWA_CON_EVA_AMP	78	Rpleas_acq	Same	Rpleas	Bmasked	CS_B	1pleas	distractor1	CONbeforeEVA	acq_US_unple_masked	acq2_masked	2	9	480	1	300	300	0	0	534	46	0	1	0	0	0	1	blank2r.bmp	0	1	+	0	2	B2r.bmp	492	1	blank2r.bmp	786	1	GKQX	786	1	blank2r.bmp	866	1	fanatisch	866	1	!	1319	1	!	1439	0	0	0	0	0	0	0	0	0	0	0	0	0	0	0	0	0	0	0	0	0	0	0	0	0	0	0
011719	16:04:35	16:07:59	203582	5.0.10.0	4_exp_AWA_CON_EVA_AMP	78	Rpleas_acq	Same	Rpleas	Bmasked	CS_B	1pleas	distractor1	CONbeforeEVA	acq_new_pleas_masked	acq2_masked	2	10	480	0	300	300	0	0	665	50	0	1	0	0	0	1	blank2r.bmp	0	1	+	0	6	C2r.bmp	492	1	blank2r.bmp	786	7	C3r.bmp	786	1	blank2r.bmp	866	4	tolerant	866	1	!	1319	1	!	-1	0	0	0	0	0	0	0	0	0	0	0	0	0	0	0	0	0	0	0	0	0	0	0	0	0	0	0
011719	16:04:35	16:08:01	205848	5.0.10.0	4_exp_AWA_CON_EVA_AMP	78	Rpleas_acq	Same	Rpleas	Bmasked	CS_B	1pleas	distractor1	CONbeforeEVA	acq_US_unple_masked	acq2_masked	2	11	480	1	300	300	0	0	459	46	0	1	0	0	0	1	blank2r.bmp	0	1	+	0	5	C1r.bmp	492	1	blank2r.bmp	786	1	GKQX	786	1	blank2r.bmp	866	3	faul	866	1	!	1319	1	!	1359	0	0	0	0	0	0	0	0	0	0	0	0	0	0	0	0	0	0	0	0	0	0	0	0	0	0	0
011719	16:04:35	16:08:04	208220	5.0.10.0	4_exp_AWA_CON_EVA_AMP	78	Rpleas_acq	Same	Rpleas	Bmasked	CS_B	1pleas	distractor1	CONbeforeEVA	acq_new_unple_masked	acq2_masked	2	12	480	0	300	300	0	0	360	50	0	0	0	0	0	1	blank2r.bmp	0	1	+	0	3	B3r.bmp	492	1	blank2r.bmp	786	6	C2r.bmp	786	1	blank2r.bmp	866	6	rächen	866	1	FEHLER	1572	1	!	-1	1	!	-1	0	0	0	0	0	0	0	0	0	0	0	0	0	0	0	0	0	0	0	0	0	0	0	0
011719	16:04:35	16:08:06	210326	5.0.10.0	4_exp_AWA_CON_EVA_AMP	78	Rpleas_acq	Same	Rpleas	Bmasked	CS_B	1pleas	distractor1	CONbeforeEVA	acq_US_unple_masked	acq2_masked	2	13	480	1	300	300	0	0	524	46	0	1	0	0	0	1	blank2r.bmp	0	1	+	0	4	B4r.bmp	492	1	blank2r.bmp	786	1	GKQX	786	1	blank2r.bmp	866	6	lasch	866	1	!	1319	1	!	1426	0	0	0	0	0	0	0	0	0	0	0	0	0	0	0	0	0	0	0	0	0	0	0	0	0	0	0
011719	16:04:35	16:08:08	212565	5.0.10.0	4_exp_AWA_CON_EVA_AMP	78	Rpleas_acq	Same	Rpleas	Bmasked	CS_B	1pleas	distractor1	CONbeforeEVA	acq_new_unple_masked	acq2_masked	2	14	480	1	300	300	0	0	438	46	0	1	0	0	0	1	blank2r.bmp	0	1	+	0	7	C3r.bmp	492	1	blank2r.bmp	786	5	C1r.bmp	786	1	blank2r.bmp	866	3	tot	866	1	!	1319	1	!	1332	0	0	0	0	0	0	0	0	0	0	0	0	0	0	0	0	0	0	0	0	0	0	0	0	0	0	0
011719	16:04:35	16:08:11	215031	5.0.10.0	4_exp_AWA_CON_EVA_AMP	78	Rpleas_acq	Same	Rpleas	Bmasked	CS_B	1pleas	distractor1	CONbeforeEVA	acq_US_unple_masked	acq2_masked	2	15	480	1	300	300	0	0	465	50	0	0	0	0	0	1	blank2r.bmp	0	1	+	0	2	B2r.bmp	492	1	blank2r.bmp	786	1	GKQX	786	1	blank2r.bmp	866	3	faul	866	1	FEHLER	1679	1	!	1319	1	!	1359	0	0	0	0	0	0	0	0	0	0	0	0	0	0	0	0	0	0	0	0	0	0	0	0
011719	16:04:35	16:08:13	217057	5.0.10.0	4_exp_AWA_CON_EVA_AMP	78	Rpleas_acq	Same	Rpleas	Bmasked	CS_B	1pleas	distractor1	CONbeforeEVA	acq_US_pleas_masked	acq2_masked	2	16	480	1	300	300	0	0	437	50	0	1	0	0	0	1	blank2r.bmp	0	1	+	0	1	B1r.bmp	492	1	blank2r.bmp	786	1	BMVZ	786	1	blank2r.bmp	866	6	loyal	866	1	!	1319	1	!	1332	0	0	0	0	0	0	0	0	0	0	0	0	0	0	0	0	0	0	0	0	0	0	0	0	0	0	0
011719	16:04:35	16:08:15	219282	5.0.10.0	4_exp_AWA_CON_EVA_AMP	78	Rpleas_acq	Same	Rpleas	Bmasked	CS_B	1pleas	distractor1	CONbeforeEVA	acq_US_pleas_masked	acq2_masked	2	17	480	1	300	300	0	0	434	50	0	1	0	0	0	1	blank2r.bmp	0	1	+	0	6	C2r.bmp	492	1	blank2r.bmp	786	1	BMVZ	786	1	blank2r.bmp	866	5	lachen	866	1	!	1319	1	!	1332	0	0	0	0	0	0	0	0	0	0	0	0	0	0	0	0	0	0	0	0	0	0	0	0	0	0	0
011719	16:04:35	16:08:17	221508	5.0.10.0	4_exp_AWA_CON_EVA_AMP	78	Rpleas_acq	Same	Rpleas	Bmasked	CS_B	1pleas	distractor1	CONbeforeEVA	acq_new_pleas_masked	acq2_masked	2	18	480	1	300	300	0	0	433	50	0	1	0	0	0	1	blank2r.bmp	0	1	+	0	3	B3r.bmp	492	1	blank2r.bmp	786	7	C3r.bmp	786	1	blank2r.bmp	866	3	treu	866	1	!	1319	1	!	1332	0	0	0	0	0	0	0	0	0	0	0	0	0	0	0	0	0	0	0	0	0	0	0	0	0	0	0
011719	16:04:35	16:08:19	223734	5.0.10.0	4_exp_AWA_CON_EVA_AMP	78	Rpleas_acq	Same	Rpleas	Bmasked	CS_B	1pleas	distractor1	CONbeforeEVA	acq_US_unple_masked	acq2_masked	2	19	480	1	300	300	0	0	432	46	0	1	0	0	0	1	blank2r.bmp	0	1	+	0	5	C1r.bmp	492	1	blank2r.bmp	786	1	GKQX	786	1	blank2r.bmp	866	5	leiden	866	1	!	1319	1	!	1332	0	0	0	0	0	0	0	0	0	0	0	0	0	0	0	0	0	0	0	0	0	0	0	0	0	0	0
011719	16:04:35	16:08:22	226106	5.0.10.0	4_exp_AWA_CON_EVA_AMP	78	Rpleas_acq	Same	Rpleas	Bmasked	CS_B	1pleas	distractor1	CONbeforeEVA	acq_new_pleas_masked	acq2_masked	2	20	480	0	300	300	0	0	375	46	0	0	0	0	0	1	blank2r.bmp	0	1	+	0	8	C4r.bmp	492	1	blank2r.bmp	786	1	B1r.bmp	786	1	blank2r.bmp	866	2	ehrlich	866	1	FEHLER	1586	1	!	-1	1	!	-1	0	0	0	0	0	0	0	0	0	0	0	0	0	0	0	0	0	0	0	0	0	0	0	0
011719	16:04:35	16:08:24	227999	5.0.10.0	4_exp_AWA_CON_EVA_AMP	78	Rpleas_acq	Same	Rpleas	Bmasked	CS_B	1pleas	distractor1	CONbeforeEVA	acq_US_pleas_masked	acq2_masked	2	21	480	0	300	300	0	0	335	50	0	1	0	0	0	1	blank2r.bmp	0	1	+	0	6	C2r.bmp	492	1	blank2r.bmp	786	1	BMVZ	786	1	blank2r.bmp	866	3	fair	866	1	!	-1	1	!	-1	0	0	0	0	0	0	0	0	0	0	0	0	0	0	0	0	0	0	0	0	0	0	0	0	0	0	0
011719	16:04:35	16:08:26	230305	5.0.10.0	4_exp_AWA_CON_EVA_AMP	78	Rpleas_acq	Same	Rpleas	Bmasked	CS_B	1pleas	distractor1	CONbeforeEVA	acq_new_unple_masked	acq2_masked	2	22	480	1	300	300	0	0	497	46	0	1	0	0	0	1	blank2r.bmp	0	1	+	0	1	B1r.bmp	492	1	blank2r.bmp	786	8	C4r.bmp	786	1	blank2r.bmp	866	1	schroff	866	1	!	1319	1	!	1399	0	0	0	0	0	0	0	0	0	0	0	0	0	0	0	0	0	0	0	0	0	0	0	0	0	0	0
011719	16:04:35	16:08:28	232530	5.0.10.0	4_exp_AWA_CON_EVA_AMP	78	Rpleas_acq	Same	Rpleas	Bmasked	CS_B	1pleas	distractor1	CONbeforeEVA	acq_new_unple_masked	acq2_masked	2	23	480	1	300	300	0	0	427	46	0	1	0	0	0	1	blank2r.bmp	0	1	+	0	5	C1r.bmp	492	1	blank2r.bmp	786	3	B3r.bmp	786	1	blank2r.bmp	866	6	rächen	866	1	!	1319	1	!	1332	0	0	0	0	0	0	0	0	0	0	0	0	0	0	0	0	0	0	0	0	0	0	0	0	0	0	0
011719	16:04:35	16:08:30	234863	5.0.10.0	4_exp_AWA_CON_EVA_AMP	78	Rpleas_acq	Same	Rpleas	Bmasked	CS_B	1pleas	distractor1	CONbeforeEVA	acq_new_pleas_masked	acq2_masked	2	24	480	1	300	300	0	0	536	50	0	1	0	0	0	1	blank2r.bmp	0	1	+	0	3	B3r.bmp	492	1	blank2r.bmp	786	2	B2r.bmp	786	1	blank2r.bmp	866	4	tolerant	866	1	!	1319	1	!	1439	0	0	0	0	0	0	0	0	0	0	0	0	0	0	0	0	0	0	0	0	0	0	0	0	0	0	0
011719	16:04:35	16:08:33	237048	5.0.10.0	4_exp_AWA_CON_EVA_AMP	78	Rpleas_acq	Same	Rpleas	Bmasked	CS_B	1pleas	distractor1	CONbeforeEVA	acq_new_pleas_masked	acq2_masked	2	25	480	0	300	300	0	0	408	50	0	1	0	0	0	1	blank2r.bmp	0	1	+	0	7	C3r.bmp	492	1	blank2r.bmp	786	4	B4r.bmp	786	1	blank2r.bmp	866	5	schön	866	1	!	-1	1	!	-1	0	0	0	0	0	0	0	0	0	0	0	0	0	0	0	0	0	0	0	0	0	0	0	0	0	0	0
011719	16:04:35	16:08:35	239314	5.0.10.0	4_exp_AWA_CON_EVA_AMP	78	Rpleas_acq	Same	Rpleas	Bmasked	CS_B	1pleas	distractor1	CONbeforeEVA	acq_US_unple_masked	acq2_masked	2	26	480	1	300	300	0	0	461	46	0	1	0	0	0	1	blank2r.bmp	0	1	+	0	2	B2r.bmp	492	1	blank2r.bmp	786	1	GKQX	786	1	blank2r.bmp	866	4	strafen	866	1	!	1319	1	!	1359	0	0	0	0	0	0	0	0	0	0	0	0	0	0	0	0	0	0	0	0	0	0	0	0	0	0	0
011719	16:04:35	16:08:37	241553	5.0.10.0	4_exp_AWA_CON_EVA_AMP	78	Rpleas_acq	Same	Rpleas	Bmasked	CS_B	1pleas	distractor1	CONbeforeEVA	acq_new_pleas_masked	acq2_masked	2	27	480	1	300	300	0	0	447	50	0	1	0	0	0	1	blank2r.bmp	0	1	+	0	8	C4r.bmp	492	1	blank2r.bmp	786	6	C2r.bmp	786	1	blank2r.bmp	866	1	schlau	866	1	!	1319	1	!	1346	0	0	0	0	0	0	0	0	0	0	0	0	0	0	0	0	0	0	0	0	0	0	0	0	0	0	0
011719	16:04:35	16:08:39	243779	5.0.10.0	4_exp_AWA_CON_EVA_AMP	78	Rpleas_acq	Same	Rpleas	Bmasked	CS_B	1pleas	distractor1	CONbeforeEVA	acq_US_unple_masked	acq2_masked	2	28	480	1	300	300	0	0	426	46	0	1	0	0	0	1	blank2r.bmp	0	1	+	0	4	B4r.bmp	492	1	blank2r.bmp	786	1	GKQX	786	1	blank2r.bmp	866	2	hindern	866	1	!	1319	1	!	1332	0	0	0	0	0	0	0	0	0	0	0	0	0	0	0	0	0	0	0	0	0	0	0	0	0	0	0
011719	16:04:35	16:08:41	245885	5.0.10.0	4_exp_AWA_CON_EVA_AMP	78	Rpleas_acq	Same	Rpleas	Bmasked	CS_B	1pleas	distractor1	CONbeforeEVA	acq_US_pleas_masked	acq2_masked	2	29	480	0	300	300	0	0	333	50	0	1	0	0	0	1	blank2r.bmp	0	1	+	0	6	C2r.bmp	492	1	blank2r.bmp	786	1	BMVZ	786	1	blank2r.bmp	866	4	spielen	866	1	!	-1	1	!	-1	0	0	0	0	0	0	0	0	0	0	0	0	0	0	0	0	0	0	0	0	0	0	0	0	0	0	0
011719	16:04:35	16:08:44	248124	5.0.10.0	4_exp_AWA_CON_EVA_AMP	78	Rpleas_acq	Same	Rpleas	Bmasked	CS_B	1pleas	distractor1	CONbeforeEVA	acq_new_unple_masked	acq2_masked	2	30	480	1	300	300	0	0	434	46	0	1	0	0	0	1	blank2r.bmp	0	1	+	0	3	B3r.bmp	492	1	blank2r.bmp	786	8	C4r.bmp	786	1	blank2r.bmp	866	2	eitel	866	1	!	1319	1	!	1332	0	0	0	0	0	0	0	0	0	0	0	0	0	0	0	0	0	0	0	0	0	0	0	0	0	0	0
011719	16:04:35	16:08:46	250243	5.0.10.0	4_exp_AWA_CON_EVA_AMP	78	Rpleas_acq	Same	Rpleas	Bmasked	CS_B	1pleas	distractor1	CONbeforeEVA	acq_US_pleas_masked	acq2_masked	2	31	480	0	300	300	0	0	344	50	0	1	0	0	0	1	blank2r.bmp	0	1	+	0	4	B4r.bmp	492	1	blank2r.bmp	786	1	BMVZ	786	1	blank2r.bmp	866	1	freundlich	866	1	!	-1	1	!	-1	0	0	0	0	0	0	0	0	0	0	0	0	0	0	0	0	0	0	0	0	0	0	0	0	0	0	0
011719	16:04:35	16:08:48	252522	5.0.10.0	4_exp_AWA_CON_EVA_AMP	78	Rpleas_acq	Same	Rpleas	Bmasked	CS_B	1pleas	distractor1	CONbeforeEVA	acq_US_unple_masked	acq2_masked	2	32	480	1	300	300	0	0	473	46	0	1	0	0	0	1	blank2r.bmp	0	1	+	0	7	C3r.bmp	492	1	blank2r.bmp	786	1	GKQX	786	1	blank2r.bmp	866	1	fanatisch	866	1	!	1319	1	!	1372	0	0	0	0	0	0	0	0	0	0	0	0	0	0	0	0	0	0	0	0	0	0	0	0	0	0	0
011719	16:04:35	16:08:50	254668	5.0.10.0	4_exp_AWA_CON_EVA_AMP	78	Rpleas_acq	Same	Rpleas	Bmasked	CS_B	1pleas	distractor1	CONbeforeEVA	acq_new_pleas_masked	acq2_masked	2	33	480	0	300	300	0	0	365	50	0	1	0	0	0	1	blank2r.bmp	0	1	+	0	8	C4r.bmp	492	1	blank2r.bmp	786	2	B2r.bmp	786	1	blank2r.bmp	866	6	retten	866	1	!	-1	1	!	-1	0	0	0	0	0	0	0	0	0	0	0	0	0	0	0	0	0	0	0	0	0	0	0	0	0	0	0
011719	16:04:35	16:08:52	256907	5.0.10.0	4_exp_AWA_CON_EVA_AMP	78	Rpleas_acq	Same	Rpleas	Bmasked	CS_B	1pleas	distractor1	CONbeforeEVA	acq_US_pleas_masked	acq2_masked	2	34	480	1	300	300	0	0	426	50	0	1	0	0	0	1	blank2r.bmp	0	1	+	0	5	C1r.bmp	492	1	blank2r.bmp	786	1	BMVZ	786	1	blank2r.bmp	866	2	helfen	866	1	!	1319	1	!	1332	0	0	0	0	0	0	0	0	0	0	0	0	0	0	0	0	0	0	0	0	0	0	0	0	0	0	0
011719	16:04:35	16:08:55	259146	5.0.10.0	4_exp_AWA_CON_EVA_AMP	78	Rpleas_acq	Same	Rpleas	Bmasked	CS_B	1pleas	distractor1	CONbeforeEVA	acq_new_unple_masked	acq2_masked	2	35	480	1	300	300	0	0	426	46	0	1	0	0	0	1	blank2r.bmp	0	1	+	0	2	B2r.bmp	492	1	blank2r.bmp	786	5	C1r.bmp	786	1	blank2r.bmp	866	5	schlecht	866	1	!	1319	1	!	1332	0	0	0	0	0	0	0	0	0	0	0	0	0	0	0	0	0	0	0	0	0	0	0	0	0	0	0
011719	16:04:35	16:08:57	261425	5.0.10.0	4_exp_AWA_CON_EVA_AMP	78	Rpleas_acq	Same	Rpleas	Bmasked	CS_B	1pleas	distractor1	CONbeforeEVA	acq_new_unple_masked	acq2_masked	2	36	480	1	300	300	0	0	488	46	0	1	0	0	0	1	blank2r.bmp	0	1	+	0	1	B1r.bmp	492	1	blank2r.bmp	786	6	C2r.bmp	786	1	blank2r.bmp	866	4	tyrannisch	866	1	!	1319	1	!	1386	0	0	0	0	0	0	0	0	0	0	0	0	0	0	0	0	0	0	0	0	0	0	0	0	0	0	0
011719	16:04:35	16:09:13	277832	5.0.10.0	4_exp_AWA_CON_EVA_AMP	78	Rpleas_acq	Same	Rpleas	Bmasked	CS_B	1pleas	distractor1	CONbeforeEVA	acq_US_unple_masked	acq3_masked	3	1	453	1	300	300	0	0	399	46	0	1	0	0	0	1	blank2r.bmp	0	1	+	0	6	C2r.bmp	492	1	blank2r.bmp	786	1	GKQX	786	1	blank2r.bmp	866	5	leiden	866	1	!	1292	1	!	1306	0	0	0	0	0	0	0	0	0	0	0	0	0	0	0	0	0	0	0	0	0	0	0	0	0	0	0
011719	16:04:35	16:09:16	279951	5.0.10.0	4_exp_AWA_CON_EVA_AMP	78	Rpleas_acq	Same	Rpleas	Bmasked	CS_B	1pleas	distractor1	CONbeforeEVA	acq_US_unple_masked	acq3_masked	3	2	453	0	300	300	0	0	354	46	0	1	0	0	0	1	blank2r.bmp	0	1	+	0	4	B4r.bmp	492	1	blank2r.bmp	786	1	GKQX	786	1	blank2r.bmp	866	4	strafen	866	1	!	-1	1	!	-1	0	0	0	0	0	0	0	0	0	0	0	0	0	0	0	0	0	0	0	0	0	0	0	0	0	0	0
011719	16:04:35	16:09:18	282270	5.0.10.0	4_exp_AWA_CON_EVA_AMP	78	Rpleas_acq	Same	Rpleas	Bmasked	CS_B	1pleas	distractor1	CONbeforeEVA	acq_US_unple_masked	acq3_masked	3	3	453	1	300	300	0	0	504	46	0	1	0	0	0	1	blank2r.bmp	0	1	+	0	2	B2r.bmp	492	1	blank2r.bmp	786	1	GKQX	786	1	blank2r.bmp	866	2	hindern	866	1	!	1292	1	!	1399	0	0	0	0	0	0	0	0	0	0	0	0	0	0	0	0	0	0	0	0	0	0	0	0	0	0	0
011719	16:04:35	16:09:20	284402	5.0.10.0	4_exp_AWA_CON_EVA_AMP	78	Rpleas_acq	Same	Rpleas	Bmasked	CS_B	1pleas	distractor1	CONbeforeEVA	acq_US_pleas_masked	acq3_masked	3	4	453	0	300	300	0	0	358	50	0	1	0	0	0	1	blank2r.bmp	0	1	+	0	7	C3r.bmp	492	1	blank2r.bmp	786	1	BMVZ	786	1	blank2r.bmp	866	4	spielen	866	1	!	-1	1	!	-1	0	0	0	0	0	0	0	0	0	0	0	0	0	0	0	0	0	0	0	0	0	0	0	0	0	0	0
011719	16:04:35	16:09:22	286695	5.0.10.0	4_exp_AWA_CON_EVA_AMP	78	Rpleas_acq	Same	Rpleas	Bmasked	CS_B	1pleas	distractor1	CONbeforeEVA	acq_US_unple_masked	acq3_masked	3	5	453	1	300	300	0	0	479	46	0	1	0	0	0	1	blank2r.bmp	0	1	+	0	1	B1r.bmp	492	1	blank2r.bmp	786	1	GKQX	786	1	blank2r.bmp	866	3	faul	866	1	!	1292	1	!	1386	0	0	0	0	0	0	0	0	0	0	0	0	0	0	0	0	0	0	0	0	0	0	0	0	0	0	0
011719	16:04:35	16:09:25	288947	5.0.10.0	4_exp_AWA_CON_EVA_AMP	78	Rpleas_acq	Same	Rpleas	Bmasked	CS_B	1pleas	distractor1	CONbeforeEVA	acq_US_unple_masked	acq3_masked	3	6	453	1	300	300	0	0	456	46	0	1	0	0	0	1	blank2r.bmp	0	1	+	0	3	B3r.bmp	492	1	blank2r.bmp	786	1	GKQX	786	1	blank2r.bmp	866	6	lasch	866	1	!	1292	1	!	1359	0	0	0	0	0	0	0	0	0	0	0	0	0	0	0	0	0	0	0	0	0	0	0	0	0	0	0
011719	16:04:35	16:09:27	291186	5.0.10.0	4_exp_AWA_CON_EVA_AMP	78	Rpleas_acq	Same	Rpleas	Bmasked	CS_B	1pleas	distractor1	CONbeforeEVA	acq_US_pleas_masked	acq3_masked	3	7	453	1	300	300	0	0	448	50	0	1	0	0	0	1	blank2r.bmp	0	1	+	0	5	C1r.bmp	492	1	blank2r.bmp	786	1	BMVZ	786	1	blank2r.bmp	866	6	loyal	866	1	!	1292	1	!	1346	0	0	0	0	0	0	0	0	0	0	0	0	0	0	0	0	0	0	0	0	0	0	0	0	0	0	0
011719	16:04:35	16:09:29	293465	5.0.10.0	4_exp_AWA_CON_EVA_AMP	78	Rpleas_acq	Same	Rpleas	Bmasked	CS_B	1pleas	distractor1	CONbeforeEVA	acq_US_unple_masked	acq3_masked	3	8	453	1	300	300	0	0	489	46	0	1	0	0	0	1	blank2r.bmp	0	1	+	0	8	C4r.bmp	492	1	blank2r.bmp	786	1	GKQX	786	1	blank2r.bmp	866	1	fanatisch	866	1	!	1292	1	!	1386	0	0	0	0	0	0	0	0	0	0	0	0	0	0	0	0	0	0	0	0	0	0	0	0	0	0	0
011719	16:04:35	16:09:31	295584	5.0.10.0	4_exp_AWA_CON_EVA_AMP	78	Rpleas_acq	Same	Rpleas	Bmasked	CS_B	1pleas	distractor1	CONbeforeEVA	acq_US_pleas_masked	acq3_masked	3	9	453	0	300	300	0	0	356	50	0	1	0	0	0	1	blank2r.bmp	0	1	+	0	7	C3r.bmp	492	1	blank2r.bmp	786	1	BMVZ	786	1	blank2r.bmp	866	5	lachen	866	1	!	-1	1	!	-1	0	0	0	0	0	0	0	0	0	0	0	0	0	0	0	0	0	0	0	0	0	0	0	0	0	0	0
011719	16:04:35	16:09:33	297877	5.0.10.0	4_exp_AWA_CON_EVA_AMP	78	Rpleas_acq	Same	Rpleas	Bmasked	CS_B	1pleas	distractor1	CONbeforeEVA	acq_US_pleas_masked	acq3_masked	3	10	453	1	300	300	0	0	480	50	0	1	0	0	0	1	blank2r.bmp	0	1	+	0	8	C4r.bmp	492	1	blank2r.bmp	786	1	BMVZ	786	1	blank2r.bmp	866	2	helfen	866	1	!	1292	1	!	1386	0	0	0	0	0	0	0	0	0	0	0	0	0	0	0	0	0	0	0	0	0	0	0	0	0	0	0
011719	16:04:35	16:09:36	300089	5.0.10.0	4_exp_AWA_CON_EVA_AMP	78	Rpleas_acq	Same	Rpleas	Bmasked	CS_B	1pleas	distractor1	CONbeforeEVA	acq_US_pleas_masked	acq3_masked	3	11	453	1	300	300	0	0	422	50	0	1	0	0	0	1	blank2r.bmp	0	1	+	0	5	C1r.bmp	492	1	blank2r.bmp	786	1	BMVZ	786	1	blank2r.bmp	866	1	freundlich	866	1	!	1292	1	!	1319	0	0	0	0	0	0	0	0	0	0	0	0	0	0	0	0	0	0	0	0	0	0	0	0	0	0	0
011719	16:04:35	16:09:38	302195	5.0.10.0	4_exp_AWA_CON_EVA_AMP	78	Rpleas_acq	Same	Rpleas	Bmasked	CS_B	1pleas	distractor1	CONbeforeEVA	acq_US_pleas_masked	acq3_masked	3	12	453	0	300	300	0	0	334	50	0	1	0	0	0	1	blank2r.bmp	0	1	+	0	2	B2r.bmp	492	1	blank2r.bmp	786	1	BMVZ	786	1	blank2r.bmp	866	3	fair	866	1	!	-1	1	!	-1	0	0	0	0	0	0	0	0	0	0	0	0	0	0	0	0	0	0	0	0	0	0	0	0	0	0	0
011719	16:04:35	16:09:40	304567	5.0.10.0	4_exp_AWA_CON_EVA_AMP	78	Rpleas_acq	Same	Rpleas	Bmasked	CS_B	1pleas	distractor1	CONbeforeEVA	acq_US_unple_masked	acq3_masked	3	13	453	0	300	300	0	0	349	50	0	0	0	0	0	1	blank2r.bmp	0	1	+	0	6	C2r.bmp	492	1	blank2r.bmp	786	1	GKQX	786	1	blank2r.bmp	866	2	hindern	866	1	FEHLER	1559	1	!	-1	1	!	-1	0	0	0	0	0	0	0	0	0	0	0	0	0	0	0	0	0	0	0	0	0	0	0	0
011719	16:04:35	16:09:42	306487	5.0.10.0	4_exp_AWA_CON_EVA_AMP	78	Rpleas_acq	Same	Rpleas	Bmasked	CS_B	1pleas	distractor1	CONbeforeEVA	acq_US_unple_masked	acq3_masked	3	14	453	0	300	300	0	0	366	46	0	1	0	0	0	1	blank2r.bmp	0	1	+	0	1	B1r.bmp	492	1	blank2r.bmp	786	1	GKQX	786	1	blank2r.bmp	866	5	leiden	866	1	!	-1	1	!	-1	0	0	0	0	0	0	0	0	0	0	0	0	0	0	0	0	0	0	0	0	0	0	0	0	0	0	0
011719	16:04:35	16:09:44	308766	5.0.10.0	4_exp_AWA_CON_EVA_AMP	78	Rpleas_acq	Same	Rpleas	Bmasked	CS_B	1pleas	distractor1	CONbeforeEVA	acq_US_unple_masked	acq3_masked	3	15	453	1	300	300	0	0	454	46	0	1	0	0	0	1	blank2r.bmp	0	1	+	0	4	B4r.bmp	492	1	blank2r.bmp	786	1	GKQX	786	1	blank2r.bmp	866	6	lasch	866	1	!	1292	1	!	1359	0	0	0	0	0	0	0	0	0	0	0	0	0	0	0	0	0	0	0	0	0	0	0	0	0	0	0
011719	16:04:35	16:09:47	310965	5.0.10.0	4_exp_AWA_CON_EVA_AMP	78	Rpleas_acq	Same	Rpleas	Bmasked	CS_B	1pleas	distractor1	CONbeforeEVA	acq_US_pleas_masked	acq3_masked	3	16	453	1	300	300	0	0	399	50	0	1	0	0	0	1	blank2r.bmp	0	1	+	0	3	B3r.bmp	492	1	blank2r.bmp	786	1	BMVZ	786	1	blank2r.bmp	866	2	helfen	866	1	!	1292	1	!	1306	0	0	0	0	0	0	0	0	0	0	0	0	0	0	0	0	0	0	0	0	0	0	0	0	0	0	0
011719	16:04:35	16:09:49	313164	5.0.10.0	4_exp_AWA_CON_EVA_AMP	78	Rpleas_acq	Same	Rpleas	Bmasked	CS_B	1pleas	distractor1	CONbeforeEVA	acq_US_pleas_masked	acq3_masked	3	17	453	1	300	300	0	0	399	50	0	1	0	0	0	1	blank2r.bmp	0	1	+	0	2	B2r.bmp	492	1	blank2r.bmp	786	1	BMVZ	786	1	blank2r.bmp	866	3	fair	866	1	!	1292	1	!	1306	0	0	0	0	0	0	0	0	0	0	0	0	0	0	0	0	0	0	0	0	0	0	0	0	0	0	0
011719	16:04:35	16:09:51	315363	5.0.10.0	4_exp_AWA_CON_EVA_AMP	78	Rpleas_acq	Same	Rpleas	Bmasked	CS_B	1pleas	distractor1	CONbeforeEVA	acq_US_pleas_masked	acq3_masked	3	18	453	1	300	300	0	0	404	50	0	1	0	0	0	1	blank2r.bmp	0	1	+	0	3	B3r.bmp	492	1	blank2r.bmp	786	1	BMVZ	786	1	blank2r.bmp	866	1	freundlich	866	1	!	1292	1	!	1306	0	0	0	0	0	0	0	0	0	0	0	0	0	0	0	0	0	0	0	0	0	0	0	0	0	0	0
011719	16:04:35	16:09:53	317495	5.0.10.0	4_exp_AWA_CON_EVA_AMP	78	Rpleas_acq	Same	Rpleas	Bmasked	CS_B	1pleas	distractor1	CONbeforeEVA	acq_US_pleas_masked	acq3_masked	3	19	453	0	300	300	0	0	361	50	0	1	0	0	0	1	blank2r.bmp	0	1	+	0	5	C1r.bmp	492	1	blank2r.bmp	786	1	BMVZ	786	1	blank2r.bmp	866	4	spielen	866	1	!	-1	1	!	-1	0	0	0	0	0	0	0	0	0	0	0	0	0	0	0	0	0	0	0	0	0	0	0	0	0	0	0
011719	16:04:35	16:09:55	319788	5.0.10.0	4_exp_AWA_CON_EVA_AMP	78	Rpleas_acq	Same	Rpleas	Bmasked	CS_B	1pleas	distractor1	CONbeforeEVA	acq_US_unple_masked	acq3_masked	3	20	453	1	300	300	0	0	491	46	0	1	0	0	0	1	blank2r.bmp	0	1	+	0	8	C4r.bmp	492	1	blank2r.bmp	786	1	GKQX	786	1	blank2r.bmp	866	3	faul	866	1	!	1292	1	!	1386	0	0	0	0	0	0	0	0	0	0	0	0	0	0	0	0	0	0	0	0	0	0	0	0	0	0	0
011719	16:04:35	16:09:58	322120	5.0.10.0	4_exp_AWA_CON_EVA_AMP	78	Rpleas_acq	Same	Rpleas	Bmasked	CS_B	1pleas	distractor1	CONbeforeEVA	acq_US_unple_masked	acq3_masked	3	21	453	0	300	300	0	0	333	50	0	0	0	0	0	1	blank2r.bmp	0	1	+	0	1	B1r.bmp	492	1	blank2r.bmp	786	1	GKQX	786	1	blank2r.bmp	866	1	fanatisch	866	1	FEHLER	1546	1	!	-1	1	!	-1	0	0	0	0	0	0	0	0	0	0	0	0	0	0	0	0	0	0	0	0	0	0	0	0
011719	16:04:35	16:10:00	323999	5.0.10.0	4_exp_AWA_CON_EVA_AMP	78	Rpleas_acq	Same	Rpleas	Bmasked	CS_B	1pleas	distractor1	CONbeforeEVA	acq_US_pleas_masked	acq3_masked	3	22	453	0	300	300	0	0	319	50	0	1	0	0	0	1	blank2r.bmp	0	1	+	0	7	C3r.bmp	492	1	blank2r.bmp	786	1	BMVZ	786	1	blank2r.bmp	866	5	lachen	866	1	!	-1	1	!	-1	0	0	0	0	0	0	0	0	0	0	0	0	0	0	0	0	0	0	0	0	0	0	0	0	0	0	0
011719	16:04:35	16:10:02	326238	5.0.10.0	4_exp_AWA_CON_EVA_AMP	78	Rpleas_acq	Same	Rpleas	Bmasked	CS_B	1pleas	distractor1	CONbeforeEVA	acq_US_unple_masked	acq3_masked	3	23	453	1	300	300	0	0	438	46	0	1	0	0	0	1	blank2r.bmp	0	1	+	0	6	C2r.bmp	492	1	blank2r.bmp	786	1	GKQX	786	1	blank2r.bmp	866	4	strafen	866	1	!	1292	1	!	1332	0	0	0	0	0	0	0	0	0	0	0	0	0	0	0	0	0	0	0	0	0	0	0	0	0	0	0
011719	16:04:35	16:10:04	328438	5.0.10.0	4_exp_AWA_CON_EVA_AMP	78	Rpleas_acq	Same	Rpleas	Bmasked	CS_B	1pleas	distractor1	CONbeforeEVA	acq_US_pleas_masked	acq3_masked	3	24	453	1	300	300	0	0	399	50	0	1	0	0	0	1	blank2r.bmp	0	1	+	0	4	B4r.bmp	492	1	blank2r.bmp	786	1	BMVZ	786	1	blank2r.bmp	866	6	loyal	866	1	!	1292	1	!	1306	0	0	0	0	0	0	0	0	0	0	0	0	0	0	0	0	0	0	0	0	0	0	0	0	0	0	0
011719	16:04:35	16:10:06	330557	5.0.10.0	4_exp_AWA_CON_EVA_AMP	78	Rpleas_acq	Same	Rpleas	Bmasked	CS_B	1pleas	distractor1	CONbeforeEVA	acq_US_pleas_masked	acq3_masked	3	25	453	0	300	300	0	0	355	50	0	1	0	0	0	1	blank2r.bmp	0	1	+	0	2	B2r.bmp	492	1	blank2r.bmp	786	1	BMVZ	786	1	blank2r.bmp	866	1	freundlich	866	1	!	-1	1	!	-1	0	0	0	0	0	0	0	0	0	0	0	0	0	0	0	0	0	0	0	0	0	0	0	0	0	0	0
011719	16:04:35	16:10:08	332782	5.0.10.0	4_exp_AWA_CON_EVA_AMP	78	Rpleas_acq	Same	Rpleas	Bmasked	CS_B	1pleas	distractor1	CONbeforeEVA	acq_US_pleas_masked	acq3_masked	3	26	453	1	300	300	0	0	402	50	0	1	0	0	0	1	blank2r.bmp	0	1	+	0	8	C4r.bmp	492	1	blank2r.bmp	786	1	BMVZ	786	1	blank2r.bmp	866	2	helfen	866	1	!	1292	1	!	1306	0	0	0	0	0	0	0	0	0	0	0	0	0	0	0	0	0	0	0	0	0	0	0	0	0	0	0
011719	16:04:35	16:10:10	334915	5.0.10.0	4_exp_AWA_CON_EVA_AMP	78	Rpleas_acq	Same	Rpleas	Bmasked	CS_B	1pleas	distractor1	CONbeforeEVA	acq_US_unple_masked	acq3_masked	3	27	453	0	300	300	0	0	369	46	0	1	0	0	0	1	blank2r.bmp	0	1	+	0	5	C1r.bmp	492	1	blank2r.bmp	786	1	GKQX	786	1	blank2r.bmp	866	4	strafen	866	1	!	-1	1	!	-1	0	0	0	0	0	0	0	0	0	0	0	0	0	0	0	0	0	0	0	0	0	0	0	0	0	0	0
011719	16:04:35	16:10:13	337167	5.0.10.0	4_exp_AWA_CON_EVA_AMP	78	Rpleas_acq	Same	Rpleas	Bmasked	CS_B	1pleas	distractor1	CONbeforeEVA	acq_US_pleas_masked	acq3_masked	3	28	453	1	300	300	0	0	442	50	0	1	0	0	0	1	blank2r.bmp	0	1	+	0	6	C2r.bmp	492	1	blank2r.bmp	786	1	BMVZ	786	1	blank2r.bmp	866	5	lachen	866	1	!	1292	1	!	1346	0	0	0	0	0	0	0	0	0	0	0	0	0	0	0	0	0	0	0	0	0	0	0	0	0	0	0
011719	16:04:35	16:10:15	339486	5.0.10.0	4_exp_AWA_CON_EVA_AMP	78	Rpleas_acq	Same	Rpleas	Bmasked	CS_B	1pleas	distractor1	CONbeforeEVA	acq_US_unple_masked	acq3_masked	3	29	453	1	300	300	0	0	505	46	0	1	0	0	0	1	blank2r.bmp	0	1	+	0	7	C3r.bmp	492	1	blank2r.bmp	786	1	GKQX	786	1	blank2r.bmp	866	2	hindern	866	1	!	1292	1	!	1412	0	0	0	0	0	0	0	0	0	0	0	0	0	0	0	0	0	0	0	0	0	0	0	0	0	0	0
011719	16:04:35	16:10:17	341699	5.0.10.0	4_exp_AWA_CON_EVA_AMP	78	Rpleas_acq	Same	Rpleas	Bmasked	CS_B	1pleas	distractor1	CONbeforeEVA	acq_US_pleas_masked	acq3_masked	3	30	453	1	300	300	0	0	421	50	0	1	0	0	0	1	blank2r.bmp	0	1	+	0	1	B1r.bmp	492	1	blank2r.bmp	786	1	BMVZ	786	1	blank2r.bmp	866	3	fair	866	1	!	1292	1	!	1319	0	0	0	0	0	0	0	0	0	0	0	0	0	0	0	0	0	0	0	0	0	0	0	0	0	0	0
011719	16:04:35	16:10:20	343951	5.0.10.0	4_exp_AWA_CON_EVA_AMP	78	Rpleas_acq	Same	Rpleas	Bmasked	CS_B	1pleas	distractor1	CONbeforeEVA	acq_US_unple_masked	acq3_masked	3	31	453	1	300	300	0	0	458	46	0	1	0	0	0	1	blank2r.bmp	0	1	+	0	4	B4r.bmp	492	1	blank2r.bmp	786	1	GKQX	786	1	blank2r.bmp	866	5	leiden	866	1	!	1292	1	!	1359	0	0	0	0	0	0	0	0	0	0	0	0	0	0	0	0	0	0	0	0	0	0	0	0	0	0	0
011719	16:04:35	16:10:22	346177	5.0.10.0	4_exp_AWA_CON_EVA_AMP	78	Rpleas_acq	Same	Rpleas	Bmasked	CS_B	1pleas	distractor1	CONbeforeEVA	acq_US_unple_masked	acq3_masked	3	32	453	1	300	300	0	0	429	46	0	1	0	0	0	1	blank2r.bmp	0	1	+	0	3	B3r.bmp	492	1	blank2r.bmp	786	1	GKQX	786	1	blank2r.bmp	866	6	lasch	866	1	!	1292	1	!	1332	0	0	0	0	0	0	0	0	0	0	0	0	0	0	0	0	0	0	0	0	0	0	0	0	0	0	0
011719	16:04:35	16:10:24	348403	5.0.10.0	4_exp_AWA_CON_EVA_AMP	78	Rpleas_acq	Same	Rpleas	Bmasked	CS_B	1pleas	distractor1	CONbeforeEVA	acq_US_unple_masked	acq3_masked	3	33	453	1	300	300	0	0	436	46	0	1	0	0	0	1	blank2r.bmp	0	1	+	0	1	B1r.bmp	492	1	blank2r.bmp	786	1	GKQX	786	1	blank2r.bmp	866	3	faul	866	1	!	1292	1	!	1332	0	0	0	0	0	0	0	0	0	0	0	0	0	0	0	0	0	0	0	0	0	0	0	0	0	0	0
011719	16:04:35	16:10:26	350615	5.0.10.0	4_exp_AWA_CON_EVA_AMP	78	Rpleas_acq	Same	Rpleas	Bmasked	CS_B	1pleas	distractor1	CONbeforeEVA	acq_US_pleas_masked	acq3_masked	3	34	453	1	300	300	0	0	421	50	0	1	0	0	0	1	blank2r.bmp	0	1	+	0	6	C2r.bmp	492	1	blank2r.bmp	786	1	BMVZ	786	1	blank2r.bmp	866	6	loyal	866	1	!	1292	1	!	1319	0	0	0	0	0	0	0	0	0	0	0	0	0	0	0	0	0	0	0	0	0	0	0	0	0	0	0
011719	16:04:35	16:10:28	352908	5.0.10.0	4_exp_AWA_CON_EVA_AMP	78	Rpleas_acq	Same	Rpleas	Bmasked	CS_B	1pleas	distractor1	CONbeforeEVA	acq_US_unple_masked	acq3_masked	3	35	453	1	300	300	0	0	482	46	0	1	0	0	0	1	blank2r.bmp	0	1	+	0	2	B2r.bmp	492	1	blank2r.bmp	786	1	GKQX	786	1	blank2r.bmp	866	1	fanatisch	866	1	!	1292	1	!	1386	0	0	0	0	0	0	0	0	0	0	0	0	0	0	0	0	0	0	0	0	0	0	0	0	0	0	0
011719	16:04:35	16:10:31	355120	5.0.10.0	4_exp_AWA_CON_EVA_AMP	78	Rpleas_acq	Same	Rpleas	Bmasked	CS_B	1pleas	distractor1	CONbeforeEVA	acq_US_pleas_masked	acq3_masked	3	36	453	1	300	300	0	0	400	50	0	1	0	0	0	1	blank2r.bmp	0	1	+	0	3	B3r.bmp	492	1	blank2r.bmp	786	1	BMVZ	786	1	blank2r.bmp	866	4	spielen	866	1	!	1292	1	!	1306	0	0	0	0	0	0	0	0	0	0	0	0	0	0	0	0	0	0	0	0	0	0	0	0	0	0	0
011719	16:04:35	16:10:45	369141	5.0.10.0	4_exp_AWA_CON_EVA_AMP	78	Rpleas_acq	Same	Rpleas	Bmasked	CS_B	1pleas	distractor1	CONbeforeEVA	acq_US_pleas_masked	acq45_masked	4	1	400	1	300	300	0	0	377	50	0	1	0	0	0	1	blank2r.bmp	0	1	+	0	8	C4r.bmp	492	1	blank2r.bmp	786	1	BMVZ	786	1	blank2r.bmp	866	4	spielen	866	1	!	1239	1	!	1279	0	0	0	0	0	0	0	0	0	0	0	0	0	0	0	0	0	0	0	0	0	0	0	0	0	0	0
011719	16:04:35	16:10:47	371233	5.0.10.0	4_exp_AWA_CON_EVA_AMP	78	Rpleas_acq	Same	Rpleas	Bmasked	CS_B	1pleas	distractor1	CONbeforeEVA	acq_US_pleas_masked	acq45_masked	4	2	400	0	300	300	0	0	320	50	0	1	0	0	0	1	blank2r.bmp	0	1	+	0	4	B4r.bmp	492	1	blank2r.bmp	786	1	BMVZ	786	1	blank2r.bmp	866	5	lachen	866	1	!	-1	1	!	-1	0	0	0	0	0	0	0	0	0	0	0	0	0	0	0	0	0	0	0	0	0	0	0	0	0	0	0
011719	16:04:35	16:10:49	373406	5.0.10.0	4_exp_AWA_CON_EVA_AMP	78	Rpleas_acq	Same	Rpleas	Bmasked	CS_B	1pleas	distractor1	CONbeforeEVA	acq_US_pleas_masked	acq45_masked	4	3	400	1	300	300	0	0	362	50	0	1	0	0	0	1	blank2r.bmp	0	1	+	0	7	C3r.bmp	492	1	blank2r.bmp	786	1	BMVZ	786	1	blank2r.bmp	866	6	loyal	866	1	!	1239	1	!	1266	0	0	0	0	0	0	0	0	0	0	0	0	0	0	0	0	0	0	0	0	0	0	0	0	0	0	0
011719	16:04:35	16:10:51	375552	5.0.10.0	4_exp_AWA_CON_EVA_AMP	78	Rpleas_acq	Same	Rpleas	Bmasked	CS_B	1pleas	distractor1	CONbeforeEVA	acq_US_unple_masked	acq45_masked	4	4	400	1	300	300	0	0	346	46	0	1	0	0	0	1	blank2r.bmp	0	1	+	0	5	C1r.bmp	492	1	blank2r.bmp	786	1	GKQX	786	1	blank2r.bmp	866	2	hindern	866	1	!	1239	1	!	1252	0	0	0	0	0	0	0	0	0	0	0	0	0	0	0	0	0	0	0	0	0	0	0	0	0	0	0
011719	16:04:35	16:10:53	377764	5.0.10.0	4_exp_AWA_CON_EVA_AMP	78	Rpleas_acq	Same	Rpleas	Bmasked	CS_B	1pleas	distractor1	CONbeforeEVA	acq_US_unple_masked	acq45_masked	4	5	400	1	300	300	0	0	419	46	0	1	0	0	0	1	blank2r.bmp	0	1	+	0	1	B1r.bmp	492	1	blank2r.bmp	786	1	GKQX	786	1	blank2r.bmp	866	1	fanatisch	866	1	!	1239	1	!	1319	0	0	0	0	0	0	0	0	0	0	0	0	0	0	0	0	0	0	0	0	0	0	0	0	0	0	0
011719	16:04:35	16:10:56	380016	5.0.10.0	4_exp_AWA_CON_EVA_AMP	78	Rpleas_acq	Same	Rpleas	Bmasked	CS_B	1pleas	distractor1	CONbeforeEVA	acq_US_pleas_masked	acq45_masked	4	6	400	1	300	300	0	0	456	46	0	0	0	0	0	1	blank2r.bmp	0	1	+	0	4	B4r.bmp	492	1	blank2r.bmp	786	1	BMVZ	786	1	blank2r.bmp	866	1	freundlich	866	1	!	1239	1	!	1359	0	0	0	0	0	0	0	0	0	0	0	0	0	0	0	0	0	0	0	0	0	0	0	0	0	0	0
011719	16:04:35	16:10:58	382255	5.0.10.0	4_exp_AWA_CON_EVA_AMP	78	Rpleas_acq	Same	Rpleas	Bmasked	CS_B	1pleas	distractor1	CONbeforeEVA	acq_US_unple_masked	acq45_masked	4	7	400	1	300	300	0	0	442	46	0	1	0	0	0	1	blank2r.bmp	0	1	+	0	2	B2r.bmp	492	1	blank2r.bmp	786	1	GKQX	786	1	blank2r.bmp	866	4	strafen	866	1	!	1239	1	!	1346	0	0	0	0	0	0	0	0	0	0	0	0	0	0	0	0	0	0	0	0	0	0	0	0	0	0	0
011719	16:04:35	16:11:00	384335	5.0.10.0	4_exp_AWA_CON_EVA_AMP	78	Rpleas_acq	Same	Rpleas	Bmasked	CS_B	1pleas	distractor1	CONbeforeEVA	acq_US_unple_masked	acq45_masked	4	8	400	0	300	300	0	0	309	50	0	0	0	0	0	1	blank2r.bmp	0	1	+	0	5	C1r.bmp	492	1	blank2r.bmp	786	1	GKQX	786	1	blank2r.bmp	866	5	leiden	866	1	!	-1	1	!	-1	0	0	0	0	0	0	0	0	0	0	0	0	0	0	0	0	0	0	0	0	0	0	0	0	0	0	0
011719	16:04:35	16:11:02	386560	5.0.10.0	4_exp_AWA_CON_EVA_AMP	78	Rpleas_acq	Same	Rpleas	Bmasked	CS_B	1pleas	distractor1	CONbeforeEVA	acq_US_unple_masked	acq45_masked	4	9	400	1	300	300	0	0	412	46	0	1	0	0	0	1	blank2r.bmp	0	1	+	0	8	C4r.bmp	492	1	blank2r.bmp	786	1	GKQX	786	1	blank2r.bmp	866	6	lasch	866	1	!	1239	1	!	1319	0	0	0	0	0	0	0	0	0	0	0	0	0	0	0	0	0	0	0	0	0	0	0	0	0	0	0
011719	16:04:35	16:11:04	388786	5.0.10.0	4_exp_AWA_CON_EVA_AMP	78	Rpleas_acq	Same	Rpleas	Bmasked	CS_B	1pleas	distractor1	CONbeforeEVA	acq_US_pleas_masked	acq45_masked	4	10	400	1	300	300	0	0	427	50	0	1	0	0	0	1	blank2r.bmp	0	1	+	0	3	B3r.bmp	492	1	blank2r.bmp	786	1	BMVZ	786	1	blank2r.bmp	866	3	fair	866	1	!	1239	1	!	1332	0	0	0	0	0	0	0	0	0	0	0	0	0	0	0	0	0	0	0	0	0	0	0	0	0	0	0
011719	16:04:35	16:11:07	390945	5.0.10.0	4_exp_AWA_CON_EVA_AMP	78	Rpleas_acq	Same	Rpleas	Bmasked	CS_B	1pleas	distractor1	CONbeforeEVA	acq_US_unple_masked	acq45_masked	4	11	400	1	300	300	0	0	362	46	0	1	0	0	0	1	blank2r.bmp	0	1	+	0	6	C2r.bmp	492	1	blank2r.bmp	786	1	GKQX	786	1	blank2r.bmp	866	3	faul	866	1	!	1239	1	!	1266	0	0	0	0	0	0	0	0	0	0	0	0	0	0	0	0	0	0	0	0	0	0	0	0	0	0	0
011719	16:04:35	16:11:09	393131	5.0.10.0	4_exp_AWA_CON_EVA_AMP	78	Rpleas_acq	Same	Rpleas	Bmasked	CS_B	1pleas	distractor1	CONbeforeEVA	acq_US_pleas_masked	acq45_masked	4	12	400	1	300	300	0	0	394	46	0	0	0	0	0	1	blank2r.bmp	0	1	+	0	7	C3r.bmp	492	1	blank2r.bmp	786	1	BMVZ	786	1	blank2r.bmp	866	2	helfen	866	1	!	1239	1	!	1292	0	0	0	0	0	0	0	0	0	0	0	0	0	0	0	0	0	0	0	0	0	0	0	0	0	0	0
011719	16:04:35	16:11:11	395317	5.0.10.0	4_exp_AWA_CON_EVA_AMP	78	Rpleas_acq	Same	Rpleas	Bmasked	CS_B	1pleas	distractor1	CONbeforeEVA	acq_US_pleas_masked	acq45_masked	4	13	400	1	300	300	0	0	393	50	0	1	0	0	0	1	blank2r.bmp	0	1	+	0	8	C4r.bmp	492	1	blank2r.bmp	786	1	BMVZ	786	1	blank2r.bmp	866	1	freundlich	866	1	!	1239	1	!	1292	0	0	0	0	0	0	0	0	0	0	0	0	0	0	0	0	0	0	0	0	0	0	0	0	0	0	0
011719	16:04:35	16:11:13	397463	5.0.10.0	4_exp_AWA_CON_EVA_AMP	78	Rpleas_acq	Same	Rpleas	Bmasked	CS_B	1pleas	distractor1	CONbeforeEVA	acq_US_pleas_masked	acq45_masked	4	14	400	1	300	300	0	0	346	50	0	1	0	0	0	1	blank2r.bmp	0	1	+	0	6	C2r.bmp	492	1	blank2r.bmp	786	1	BMVZ	786	1	blank2r.bmp	866	4	spielen	866	1	!	1239	1	!	1252	0	0	0	0	0	0	0	0	0	0	0	0	0	0	0	0	0	0	0	0	0	0	0	0	0	0	0
011719	16:04:35	16:11:15	399675	5.0.10.0	4_exp_AWA_CON_EVA_AMP	78	Rpleas_acq	Same	Rpleas	Bmasked	CS_B	1pleas	distractor1	CONbeforeEVA	acq_US_unple_masked	acq45_masked	4	15	400	1	300	300	0	0	401	46	0	1	0	0	0	1	blank2r.bmp	0	1	+	0	5	C1r.bmp	492	1	blank2r.bmp	786	1	GKQX	786	1	blank2r.bmp	866	3	faul	866	1	!	1239	1	!	1306	0	0	0	0	0	0	0	0	0	0	0	0	0	0	0	0	0	0	0	0	0	0	0	0	0	0	0
011719	16:04:35	16:11:17	401914	5.0.10.0	4_exp_AWA_CON_EVA_AMP	78	Rpleas_acq	Same	Rpleas	Bmasked	CS_B	1pleas	distractor1	CONbeforeEVA	acq_US_unple_masked	acq45_masked	4	16	400	1	300	300	0	0	441	46	0	1	0	0	0	1	blank2r.bmp	0	1	+	0	1	B1r.bmp	492	1	blank2r.bmp	786	1	GKQX	786	1	blank2r.bmp	866	4	strafen	866	1	!	1239	1	!	1346	0	0	0	0	0	0	0	0	0	0	0	0	0	0	0	0	0	0	0	0	0	0	0	0	0	0	0
011719	16:04:35	16:11:20	404166	5.0.10.0	4_exp_AWA_CON_EVA_AMP	78	Rpleas_acq	Same	Rpleas	Bmasked	CS_B	1pleas	distractor1	CONbeforeEVA	acq_US_pleas_masked	acq45_masked	4	17	400	1	300	300	0	0	462	50	0	1	0	0	0	1	blank2r.bmp	0	1	+	0	4	B4r.bmp	492	1	blank2r.bmp	786	1	BMVZ	786	1	blank2r.bmp	866	2	helfen	866	1	!	1239	1	!	1359	0	0	0	0	0	0	0	0	0	0	0	0	0	0	0	0	0	0	0	0	0	0	0	0	0	0	0
011719	16:04:35	16:11:22	406366	5.0.10.0	4_exp_AWA_CON_EVA_AMP	78	Rpleas_acq	Same	Rpleas	Bmasked	CS_B	1pleas	distractor1	CONbeforeEVA	acq_US_unple_masked	acq45_masked	4	18	400	1	300	300	0	0	405	46	0	1	0	0	0	1	blank2r.bmp	0	1	+	0	3	B3r.bmp	492	1	blank2r.bmp	786	1	GKQX	786	1	blank2r.bmp	866	1	fanatisch	866	1	!	1239	1	!	1306	0	0	0	0	0	0	0	0	0	0	0	0	0	0	0	0	0	0	0	0	0	0	0	0	0	0	0
011719	16:04:35	16:11:24	408591	5.0.10.0	4_exp_AWA_CON_EVA_AMP	78	Rpleas_acq	Same	Rpleas	Bmasked	CS_B	1pleas	distractor1	CONbeforeEVA	acq_US_unple_masked	acq45_masked	4	19	400	1	300	300	0	0	433	46	0	1	0	0	0	1	blank2r.bmp	0	1	+	0	7	C3r.bmp	492	1	blank2r.bmp	786	1	GKQX	786	1	blank2r.bmp	866	2	hindern	866	1	!	1239	1	!	1332	0	0	0	0	0	0	0	0	0	0	0	0	0	0	0	0	0	0	0	0	0	0	0	0	0	0	0
011719	16:04:35	16:11:26	410777	5.0.10.0	4_exp_AWA_CON_EVA_AMP	78	Rpleas_acq	Same	Rpleas	Bmasked	CS_B	1pleas	distractor1	CONbeforeEVA	acq_US_pleas_masked	acq45_masked	4	20	400	1	300	300	0	0	386	50	0	1	0	0	0	1	blank2r.bmp	0	1	+	0	2	B2r.bmp	492	1	blank2r.bmp	786	1	BMVZ	786	1	blank2r.bmp	866	3	fair	866	1	!	1239	1	!	1292	0	0	0	0	0	0	0	0	0	0	0	0	0	0	0	0	0	0	0	0	0	0	0	0	0	0	0
011719	16:04:35	16:11:28	412923	5.0.10.0	4_exp_AWA_CON_EVA_AMP	78	Rpleas_acq	Same	Rpleas	Bmasked	CS_B	1pleas	distractor1	CONbeforeEVA	acq_US_pleas_masked	acq45_masked	4	21	400	1	300	300	0	0	347	50	0	1	0	0	0	1	blank2r.bmp	0	1	+	0	6	C2r.bmp	492	1	blank2r.bmp	786	1	BMVZ	786	1	blank2r.bmp	866	5	lachen	866	1	!	1239	1	!	1252	0	0	0	0	0	0	0	0	0	0	0	0	0	0	0	0	0	0	0	0	0	0	0	0	0	0	0
011719	16:04:35	16:11:31	415109	5.0.10.0	4_exp_AWA_CON_EVA_AMP	78	Rpleas_acq	Same	Rpleas	Bmasked	CS_B	1pleas	distractor1	CONbeforeEVA	acq_US_pleas_masked	acq45_masked	4	22	400	1	300	300	0	0	377	50	0	1	0	0	0	1	blank2r.bmp	0	1	+	0	8	C4r.bmp	492	1	blank2r.bmp	786	1	BMVZ	786	1	blank2r.bmp	866	6	loyal	866	1	!	1239	1	!	1279	0	0	0	0	0	0	0	0	0	0	0	0	0	0	0	0	0	0	0	0	0	0	0	0	0	0	0
011719	16:04:35	16:11:33	417281	5.0.10.0	4_exp_AWA_CON_EVA_AMP	78	Rpleas_acq	Same	Rpleas	Bmasked	CS_B	1pleas	distractor1	CONbeforeEVA	acq_US_pleas_masked	acq45_masked	4	23	400	1	300	300	0	0	376	50	0	1	0	0	0	1	blank2r.bmp	0	1	+	0	4	B4r.bmp	492	1	blank2r.bmp	786	1	BMVZ	786	1	blank2r.bmp	866	2	helfen	866	1	!	1239	1	!	1279	0	0	0	0	0	0	0	0	0	0	0	0	0	0	0	0	0	0	0	0	0	0	0	0	0	0	0
011719	16:04:35	16:11:35	419440	5.0.10.0	4_exp_AWA_CON_EVA_AMP	78	Rpleas_acq	Same	Rpleas	Bmasked	CS_B	1pleas	distractor1	CONbeforeEVA	acq_US_unple_masked	acq45_masked	4	24	400	1	300	300	0	0	365	46	0	1	0	0	0	1	blank2r.bmp	0	1	+	0	2	B2r.bmp	492	1	blank2r.bmp	786	1	GKQX	786	1	blank2r.bmp	866	5	leiden	866	1	!	1239	1	!	1266	0	0	0	0	0	0	0	0	0	0	0	0	0	0	0	0	0	0	0	0	0	0	0	0	0	0	0
011719	16:04:35	16:11:37	421533	5.0.10.0	4_exp_AWA_CON_EVA_AMP	78	Rpleas_acq	Same	Rpleas	Bmasked	CS_B	1pleas	distractor1	CONbeforeEVA	acq_US_unple_masked	acq45_masked	4	25	400	0	300	300	0	0	318	46	0	1	0	0	0	1	blank2r.bmp	0	1	+	0	7	C3r.bmp	492	1	blank2r.bmp	786	1	GKQX	786	1	blank2r.bmp	866	6	lasch	866	1	!	-1	1	!	-1	0	0	0	0	0	0	0	0	0	0	0	0	0	0	0	0	0	0	0	0	0	0	0	0	0	0	0
011719	16:04:35	16:11:39	423745	5.0.10.0	4_exp_AWA_CON_EVA_AMP	78	Rpleas_acq	Same	Rpleas	Bmasked	CS_B	1pleas	distractor1	CONbeforeEVA	acq_US_unple_masked	acq45_masked	4	26	400	1	300	300	0	0	403	46	0	1	0	0	0	1	blank2r.bmp	0	1	+	0	3	B3r.bmp	492	1	blank2r.bmp	786	1	GKQX	786	1	blank2r.bmp	866	1	fanatisch	866	1	!	1239	1	!	1306	0	0	0	0	0	0	0	0	0	0	0	0	0	0	0	0	0	0	0	0	0	0	0	0	0	0	0
011719	16:04:35	16:11:41	425824	5.0.10.0	4_exp_AWA_CON_EVA_AMP	78	Rpleas_acq	Same	Rpleas	Bmasked	CS_B	1pleas	distractor1	CONbeforeEVA	acq_US_pleas_masked	acq45_masked	4	27	400	0	300	300	0	0	310	46	0	0	0	0	0	1	blank2r.bmp	0	1	+	0	1	B1r.bmp	492	1	blank2r.bmp	786	1	BMVZ	786	1	blank2r.bmp	866	5	lachen	866	1	!	-1	1	!	-1	0	0	0	0	0	0	0	0	0	0	0	0	0	0	0	0	0	0	0	0	0	0	0	0	0	0	0
011719	16:04:35	16:11:44	427943	5.0.10.0	4_exp_AWA_CON_EVA_AMP	78	Rpleas_acq	Same	Rpleas	Bmasked	CS_B	1pleas	distractor1	CONbeforeEVA	acq_US_pleas_masked	acq45_masked	4	28	400	0	300	300	0	0	325	50	0	1	0	0	0	1	blank2r.bmp	0	1	+	0	5	C1r.bmp	492	1	blank2r.bmp	786	1	BMVZ	786	1	blank2r.bmp	866	6	loyal	866	1	!	-1	1	!	-1	0	0	0	0	0	0	0	0	0	0	0	0	0	0	0	0	0	0	0	0	0	0	0	0	0	0	0
011719	16:04:35	16:11:46	430102	5.0.10.0	4_exp_AWA_CON_EVA_AMP	78	Rpleas_acq	Same	Rpleas	Bmasked	CS_B	1pleas	distractor1	CONbeforeEVA	acq_US_unple_masked	acq45_masked	4	29	400	1	300	300	0	0	346	50	0	0	0	0	0	1	blank2r.bmp	0	1	+	0	8	C4r.bmp	492	1	blank2r.bmp	786	1	GKQX	786	1	blank2r.bmp	866	2	hindern	866	1	!	1239	1	!	1252	0	0	0	0	0	0	0	0	0	0	0	0	0	0	0	0	0	0	0	0	0	0	0	0	0	0	0
011719	16:04:35	16:11:48	432262	5.0.10.0	4_exp_AWA_CON_EVA_AMP	78	Rpleas_acq	Same	Rpleas	Bmasked	CS_B	1pleas	distractor1	CONbeforeEVA	acq_US_unple_masked	acq45_masked	4	30	400	1	300	300	0	0	366	46	0	1	0	0	0	1	blank2r.bmp	0	1	+	0	1	B1r.bmp	492	1	blank2r.bmp	786	1	GKQX	786	1	blank2r.bmp	866	4	strafen	866	1	!	1239	1	!	1266	0	0	0	0	0	0	0	0	0	0	0	0	0	0	0	0	0	0	0	0	0	0	0	0	0	0	0
011719	16:04:35	16:11:50	434341	5.0.10.0	4_exp_AWA_CON_EVA_AMP	78	Rpleas_acq	Same	Rpleas	Bmasked	CS_B	1pleas	distractor1	CONbeforeEVA	acq_US_pleas_masked	acq45_masked	4	31	400	0	300	300	0	0	309	50	0	1	0	0	0	1	blank2r.bmp	0	1	+	0	4	B4r.bmp	492	1	blank2r.bmp	786	1	BMVZ	786	1	blank2r.bmp	866	1	freundlich	866	1	!	-1	1	!	-1	0	0	0	0	0	0	0	0	0	0	0	0	0	0	0	0	0	0	0	0	0	0	0	0	0	0	0
011719	16:04:35	16:11:52	436540	5.0.10.0	4_exp_AWA_CON_EVA_AMP	78	Rpleas_acq	Same	Rpleas	Bmasked	CS_B	1pleas	distractor1	CONbeforeEVA	acq_US_unple_masked	acq45_masked	4	32	400	1	300	300	0	0	392	46	0	1	0	0	0	1	blank2r.bmp	0	1	+	0	7	C3r.bmp	492	1	blank2r.bmp	786	1	GKQX	786	1	blank2r.bmp	866	6	lasch	866	1	!	1239	1	!	1292	0	0	0	0	0	0	0	0	0	0	0	0	0	0	0	0	0	0	0	0	0	0	0	0	0	0	0
011719	16:04:35	16:11:54	438779	5.0.10.0	4_exp_AWA_CON_EVA_AMP	78	Rpleas_acq	Same	Rpleas	Bmasked	CS_B	1pleas	distractor1	CONbeforeEVA	acq_US_unple_masked	acq45_masked	4	33	400	1	300	300	0	0	438	50	0	0	0	0	0	1	blank2r.bmp	0	1	+	0	6	C2r.bmp	492	1	blank2r.bmp	786	1	GKQX	786	1	blank2r.bmp	866	3	faul	866	1	!	1239	1	!	1332	0	0	0	0	0	0	0	0	0	0	0	0	0	0	0	0	0	0	0	0	0	0	0	0	0	0	0
011719	16:04:35	16:11:57	440951	5.0.10.0	4_exp_AWA_CON_EVA_AMP	78	Rpleas_acq	Same	Rpleas	Bmasked	CS_B	1pleas	distractor1	CONbeforeEVA	acq_US_unple_masked	acq45_masked	4	34	400	1	300	300	0	0	372	46	0	1	0	0	0	1	blank2r.bmp	0	1	+	0	3	B3r.bmp	492	1	blank2r.bmp	786	1	GKQX	786	1	blank2r.bmp	866	5	leiden	866	1	!	1239	1	!	1279	0	0	0	0	0	0	0	0	0	0	0	0	0	0	0	0	0	0	0	0	0	0	0	0	0	0	0
011719	16:04:35	16:11:59	443110	5.0.10.0	4_exp_AWA_CON_EVA_AMP	78	Rpleas_acq	Same	Rpleas	Bmasked	CS_B	1pleas	distractor1	CONbeforeEVA	acq_US_pleas_masked	acq45_masked	4	35	400	1	300	300	0	0	371	50	0	1	0	0	0	1	blank2r.bmp	0	1	+	0	2	B2r.bmp	492	1	blank2r.bmp	786	1	BMVZ	786	1	blank2r.bmp	866	4	spielen	866	1	!	1239	1	!	1266	0	0	0	0	0	0	0	0	0	0	0	0	0	0	0	0	0	0	0	0	0	0	0	0	0	0	0
011719	16:04:35	16:12:01	445296	5.0.10.0	4_exp_AWA_CON_EVA_AMP	78	Rpleas_acq	Same	Rpleas	Bmasked	CS_B	1pleas	distractor1	CONbeforeEVA	acq_US_pleas_masked	acq45_masked	4	36	400	1	300	300	0	0	386	50	0	1	0	0	0	1	blank2r.bmp	0	1	+	0	5	C1r.bmp	492	1	blank2r.bmp	786	1	BMVZ	786	1	blank2r.bmp	866	3	fair	866	1	!	1239	1	!	1292	0	0	0	0	0	0	0	0	0	0	0	0	0	0	0	0	0	0	0	0	0	0	0	0	0	0	0
011719	16:04:35	16:12:10	454759	5.0.10.0	4_exp_AWA_CON_EVA_AMP	78	Rpleas_acq	Same	Rpleas	Bmasked	CS_B	1pleas	distractor1	CONbeforeEVA	acq_US_unple_masked	acq45_masked	5	1	400	1	300	300	0	0	443	46	0	1	0	0	0	1	blank2r.bmp	0	1	+	0	2	B2r.bmp	492	1	blank2r.bmp	786	1	GKQX	786	1	blank2r.bmp	866	2	hindern	866	1	!	1239	1	!	1346	0	0	0	0	0	0	0	0	0	0	0	0	0	0	0	0	0	0	0	0	0	0	0	0	0	0	0
011719	16:04:35	16:12:13	457011	5.0.10.0	4_exp_AWA_CON_EVA_AMP	78	Rpleas_acq	Same	Rpleas	Bmasked	CS_B	1pleas	distractor1	CONbeforeEVA	acq_US_unple_masked	acq45_masked	5	2	400	1	300	300	0	0	447	46	0	1	0	0	0	1	blank2r.bmp	0	1	+	0	7	C3r.bmp	492	1	blank2r.bmp	786	1	GKQX	786	1	blank2r.bmp	866	3	faul	866	1	!	1239	1	!	1346	0	0	0	0	0	0	0	0	0	0	0	0	0	0	0	0	0	0	0	0	0	0	0	0	0	0	0
011719	16:04:35	16:12:15	459237	5.0.10.0	4_exp_AWA_CON_EVA_AMP	78	Rpleas_acq	Same	Rpleas	Bmasked	CS_B	1pleas	distractor1	CONbeforeEVA	acq_US_unple_masked	acq45_masked	5	3	400	1	300	300	0	0	435	46	0	1	0	0	0	1	blank2r.bmp	0	1	+	0	4	B4r.bmp	492	1	blank2r.bmp	786	1	GKQX	786	1	blank2r.bmp	866	6	lasch	866	1	!	1239	1	!	1332	0	0	0	0	0	0	0	0	0	0	0	0	0	0	0	0	0	0	0	0	0	0	0	0	0	0	0
011719	16:04:35	16:12:17	461330	5.0.10.0	4_exp_AWA_CON_EVA_AMP	78	Rpleas_acq	Same	Rpleas	Bmasked	CS_B	1pleas	distractor1	CONbeforeEVA	acq_US_pleas_masked	acq45_masked	5	4	400	0	300	300	0	0	313	50	0	1	0	0	0	1	blank2r.bmp	0	1	+	0	5	C1r.bmp	492	1	blank2r.bmp	786	1	BMVZ	786	1	blank2r.bmp	866	4	spielen	866	1	!	-1	1	!	-1	0	0	0	0	0	0	0	0	0	0	0	0	0	0	0	0	0	0	0	0	0	0	0	0	0	0	0
011719	16:04:35	16:12:19	463502	5.0.10.0	4_exp_AWA_CON_EVA_AMP	78	Rpleas_acq	Same	Rpleas	Bmasked	CS_B	1pleas	distractor1	CONbeforeEVA	acq_US_pleas_masked	acq45_masked	5	5	400	1	300	300	0	0	346	50	0	1	0	0	0	1	blank2r.bmp	0	1	+	0	8	C4r.bmp	492	1	blank2r.bmp	786	1	BMVZ	786	1	blank2r.bmp	866	6	loyal	866	1	!	1239	1	!	1252	0	0	0	0	0	0	0	0	0	0	0	0	0	0	0	0	0	0	0	0	0	0	0	0	0	0	0
011719	16:04:35	16:12:21	465661	5.0.10.0	4_exp_AWA_CON_EVA_AMP	78	Rpleas_acq	Same	Rpleas	Bmasked	CS_B	1pleas	distractor1	CONbeforeEVA	acq_US_pleas_masked	acq45_masked	5	6	400	1	300	300	0	0	363	50	0	1	0	0	0	1	blank2r.bmp	0	1	+	0	6	C2r.bmp	492	1	blank2r.bmp	786	1	BMVZ	786	1	blank2r.bmp	866	1	freundlich	866	1	!	1239	1	!	1266	0	0	0	0	0	0	0	0	0	0	0	0	0	0	0	0	0	0	0	0	0	0	0	0	0	0	0
011719	16:04:35	16:12:23	467834	5.0.10.0	4_exp_AWA_CON_EVA_AMP	78	Rpleas_acq	Same	Rpleas	Bmasked	CS_B	1pleas	distractor1	CONbeforeEVA	acq_US_unple_masked	acq45_masked	5	7	400	1	300	300	0	0	374	46	0	1	0	0	0	1	blank2r.bmp	0	1	+	0	1	B1r.bmp	492	1	blank2r.bmp	786	1	GKQX	786	1	blank2r.bmp	866	4	strafen	866	1	!	1239	1	!	1279	0	0	0	0	0	0	0	0	0	0	0	0	0	0	0	0	0	0	0	0	0	0	0	0	0	0	0
011719	16:04:35	16:12:26	470059	5.0.10.0	4_exp_AWA_CON_EVA_AMP	78	Rpleas_acq	Same	Rpleas	Bmasked	CS_B	1pleas	distractor1	CONbeforeEVA	acq_US_pleas_masked	acq45_masked	5	8	400	1	300	300	0	0	412	50	0	1	0	0	0	1	blank2r.bmp	0	1	+	0	3	B3r.bmp	492	1	blank2r.bmp	786	1	BMVZ	786	1	blank2r.bmp	866	5	lachen	866	1	!	1239	1	!	1319	0	0	0	0	0	0	0	0	0	0	0	0	0	0	0	0	0	0	0	0	0	0	0	0	0	0	0
011719	16:04:35	16:12:28	472245	5.0.10.0	4_exp_AWA_CON_EVA_AMP	78	Rpleas_acq	Same	Rpleas	Bmasked	CS_B	1pleas	distractor1	CONbeforeEVA	acq_US_pleas_masked	acq45_masked	5	9	400	1	300	300	0	0	392	46	0	0	0	0	0	1	blank2r.bmp	0	1	+	0	8	C4r.bmp	492	1	blank2r.bmp	786	1	BMVZ	786	1	blank2r.bmp	866	2	helfen	866	1	!	1239	1	!	1292	0	0	0	0	0	0	0	0	0	0	0	0	0	0	0	0	0	0	0	0	0	0	0	0	0	0	0
011719	16:04:35	16:12:30	474458	5.0.10.0	4_exp_AWA_CON_EVA_AMP	78	Rpleas_acq	Same	Rpleas	Bmasked	CS_B	1pleas	distractor1	CONbeforeEVA	acq_US_unple_masked	acq45_masked	5	10	400	1	300	300	0	0	424	46	0	1	0	0	0	1	blank2r.bmp	0	1	+	0	6	C2r.bmp	492	1	blank2r.bmp	786	1	GKQX	786	1	blank2r.bmp	866	1	fanatisch	866	1	!	1239	1	!	1319	0	0	0	0	0	0	0	0	0	0	0	0	0	0	0	0	0	0	0	0	0	0	0	0	0	0	0
011719	16:04:35	16:12:32	476697	5.0.10.0	4_exp_AWA_CON_EVA_AMP	78	Rpleas_acq	Same	Rpleas	Bmasked	CS_B	1pleas	distractor1	CONbeforeEVA	acq_US_unple_masked	acq45_masked	5	11	400	1	300	300	0	0	441	46	0	1	0	0	0	1	blank2r.bmp	0	1	+	0	1	B1r.bmp	492	1	blank2r.bmp	786	1	GKQX	786	1	blank2r.bmp	866	5	leiden	866	1	!	1239	1	!	1346	0	0	0	0	0	0	0	0	0	0	0	0	0	0	0	0	0	0	0	0	0	0	0	0	0	0	0
011719	16:04:35	16:12:35	478949	5.0.10.0	4_exp_AWA_CON_EVA_AMP	78	Rpleas_acq	Same	Rpleas	Bmasked	CS_B	1pleas	distractor1	CONbeforeEVA	acq_US_unple_masked	acq45_masked	5	12	400	0	300	300	0	0	479	46	0	1	0	0	0	1	blank2r.bmp	0	1	+	0	2	B2r.bmp	492	1	blank2r.bmp	786	1	GKQX	786	1	blank2r.bmp	866	3	faul	866	1	!	1239	1	!	-1	0	0	0	0	0	0	0	0	0	0	0	0	0	0	0	0	0	0	0	0	0	0	0	0	0	0	0
011719	16:04:35	16:12:37	481121	5.0.10.0	4_exp_AWA_CON_EVA_AMP	78	Rpleas_acq	Same	Rpleas	Bmasked	CS_B	1pleas	distractor1	CONbeforeEVA	acq_US_unple_masked	acq45_masked	5	13	400	1	300	300	0	0	363	46	0	1	0	0	0	1	blank2r.bmp	0	1	+	0	5	C1r.bmp	492	1	blank2r.bmp	786	1	GKQX	786	1	blank2r.bmp	866	2	hindern	866	1	!	1239	1	!	1266	0	0	0	0	0	0	0	0	0	0	0	0	0	0	0	0	0	0	0	0	0	0	0	0	0	0	0
011719	16:04:35	16:12:39	483334	5.0.10.0	4_exp_AWA_CON_EVA_AMP	78	Rpleas_acq	Same	Rpleas	Bmasked	CS_B	1pleas	distractor1	CONbeforeEVA	acq_US_pleas_masked	acq45_masked	5	14	400	1	300	300	0	0	419	50	0	1	0	0	0	1	blank2r.bmp	0	1	+	0	3	B3r.bmp	492	1	blank2r.bmp	786	1	BMVZ	786	1	blank2r.bmp	866	3	fair	866	1	!	1239	1	!	1319	0	0	0	0	0	0	0	0	0	0	0	0	0	0	0	0	0	0	0	0	0	0	0	0	0	0	0
011719	16:04:35	16:12:41	485520	5.0.10.0	4_exp_AWA_CON_EVA_AMP	78	Rpleas_acq	Same	Rpleas	Bmasked	CS_B	1pleas	distractor1	CONbeforeEVA	acq_US_pleas_masked	acq45_masked	5	15	400	1	300	300	0	0	389	46	0	0	0	0	0	1	blank2r.bmp	0	1	+	0	4	B4r.bmp	492	1	blank2r.bmp	786	1	BMVZ	786	1	blank2r.bmp	866	2	helfen	866	1	!	1239	1	!	1292	0	0	0	0	0	0	0	0	0	0	0	0	0	0	0	0	0	0	0	0	0	0	0	0	0	0	0
011719	16:04:35	16:12:43	487745	5.0.10.0	4_exp_AWA_CON_EVA_AMP	78	Rpleas_acq	Same	Rpleas	Bmasked	CS_B	1pleas	distractor1	CONbeforeEVA	acq_US_pleas_masked	acq45_masked	5	16	400	1	300	300	0	0	429	50	0	1	0	0	0	1	blank2r.bmp	0	1	+	0	7	C3r.bmp	492	1	blank2r.bmp	786	1	BMVZ	786	1	blank2r.bmp	866	6	loyal	866	1	!	1239	1	!	1332	0	0	0	0	0	0	0	0	0	0	0	0	0	0	0	0	0	0	0	0	0	0	0	0	0	0	0
011719	16:04:35	16:12:45	489891	5.0.10.0	4_exp_AWA_CON_EVA_AMP	78	Rpleas_acq	Same	Rpleas	Bmasked	CS_B	1pleas	distractor1	CONbeforeEVA	acq_US_pleas_masked	acq45_masked	5	17	400	1	300	300	0	0	346	50	0	1	0	0	0	1	blank2r.bmp	0	1	+	0	3	B3r.bmp	492	1	blank2r.bmp	786	1	BMVZ	786	1	blank2r.bmp	866	4	spielen	866	1	!	1239	1	!	1252	0	0	0	0	0	0	0	0	0	0	0	0	0	0	0	0	0	0	0	0	0	0	0	0	0	0	0
011719	16:04:35	16:12:48	492157	5.0.10.0	4_exp_AWA_CON_EVA_AMP	78	Rpleas_acq	Same	Rpleas	Bmasked	CS_B	1pleas	distractor1	CONbeforeEVA	acq_US_unple_masked	acq45_masked	5	18	400	0	300	300	0	0	479	46	0	1	0	0	0	1	blank2r.bmp	0	1	+	0	2	B2r.bmp	492	1	blank2r.bmp	786	1	GKQX	786	1	blank2r.bmp	866	4	strafen	866	1	!	1239	1	!	-1	0	0	0	0	0	0	0	0	0	0	0	0	0	0	0	0	0	0	0	0	0	0	0	0	0	0	0
011719	16:04:35	16:12:50	494276	5.0.10.0	4_exp_AWA_CON_EVA_AMP	78	Rpleas_acq	Same	Rpleas	Bmasked	CS_B	1pleas	distractor1	CONbeforeEVA	acq_US_pleas_masked	acq45_masked	5	19	400	0	300	300	0	0	333	50	0	1	0	0	0	1	blank2r.bmp	0	1	+	0	5	C1r.bmp	492	1	blank2r.bmp	786	1	BMVZ	786	1	blank2r.bmp	866	3	fair	866	1	!	-1	1	!	-1	0	0	0	0	0	0	0	0	0	0	0	0	0	0	0	0	0	0	0	0	0	0	0	0	0	0	0
011719	16:04:35	16:12:52	496449	5.0.10.0	4_exp_AWA_CON_EVA_AMP	78	Rpleas_acq	Same	Rpleas	Bmasked	CS_B	1pleas	distractor1	CONbeforeEVA	acq_US_unple_masked	acq45_masked	5	20	400	1	300	300	0	0	349	46	0	1	0	0	0	1	blank2r.bmp	0	1	+	0	6	C2r.bmp	492	1	blank2r.bmp	786	1	GKQX	786	1	blank2r.bmp	866	5	leiden	866	1	!	1239	1	!	1252	0	0	0	0	0	0	0	0	0	0	0	0	0	0	0	0	0	0	0	0	0	0	0	0	0	0	0
011719	16:04:35	16:12:54	498594	5.0.10.0	4_exp_AWA_CON_EVA_AMP	78	Rpleas_acq	Same	Rpleas	Bmasked	CS_B	1pleas	distractor1	CONbeforeEVA	acq_US_pleas_masked	acq45_masked	5	21	400	1	300	300	0	0	346	50	0	1	0	0	0	1	blank2r.bmp	0	1	+	0	8	C4r.bmp	492	1	blank2r.bmp	786	1	BMVZ	786	1	blank2r.bmp	866	1	freundlich	866	1	!	1239	1	!	1252	0	0	0	0	0	0	0	0	0	0	0	0	0	0	0	0	0	0	0	0	0	0	0	0	0	0	0
011719	16:04:35	16:12:56	500740	5.0.10.0	4_exp_AWA_CON_EVA_AMP	78	Rpleas_acq	Same	Rpleas	Bmasked	CS_B	1pleas	distractor1	CONbeforeEVA	acq_US_unple_masked	acq45_masked	5	22	400	1	300	300	0	0	346	46	0	1	0	0	0	1	blank2r.bmp	0	1	+	0	1	B1r.bmp	492	1	blank2r.bmp	786	1	GKQX	786	1	blank2r.bmp	866	6	lasch	866	1	!	1239	1	!	1252	0	0	0	0	0	0	0	0	0	0	0	0	0	0	0	0	0	0	0	0	0	0	0	0	0	0	0
011719	16:04:35	16:12:58	502886	5.0.10.0	4_exp_AWA_CON_EVA_AMP	78	Rpleas_acq	Same	Rpleas	Bmasked	CS_B	1pleas	distractor1	CONbeforeEVA	acq_US_unple_masked	acq45_masked	5	23	400	1	300	300	0	0	355	46	0	1	0	0	0	1	blank2r.bmp	0	1	+	0	4	B4r.bmp	492	1	blank2r.bmp	786	1	GKQX	786	1	blank2r.bmp	866	1	fanatisch	866	1	!	1239	1	!	1252	0	0	0	0	0	0	0	0	0	0	0	0	0	0	0	0	0	0	0	0	0	0	0	0	0	0	0
011719	16:04:35	16:13:01	505138	5.0.10.0	4_exp_AWA_CON_EVA_AMP	78	Rpleas_acq	Same	Rpleas	Bmasked	CS_B	1pleas	distractor1	CONbeforeEVA	acq_US_pleas_masked	acq45_masked	5	24	400	1	300	300	0	0	444	50	0	1	0	0	0	1	blank2r.bmp	0	1	+	0	7	C3r.bmp	492	1	blank2r.bmp	786	1	BMVZ	786	1	blank2r.bmp	866	5	lachen	866	1	!	1239	1	!	1346	0	0	0	0	0	0	0	0	0	0	0	0	0	0	0	0	0	0	0	0	0	0	0	0	0	0	0
011719	16:04:35	16:13:03	507324	5.0.10.0	4_exp_AWA_CON_EVA_AMP	78	Rpleas_acq	Same	Rpleas	Bmasked	CS_B	1pleas	distractor1	CONbeforeEVA	acq_US_pleas_masked	acq45_masked	5	25	400	1	300	300	0	0	398	50	0	1	0	0	0	1	blank2r.bmp	0	1	+	0	3	B3r.bmp	492	1	blank2r.bmp	786	1	BMVZ	786	1	blank2r.bmp	866	1	freundlich	866	1	!	1239	1	!	1292	0	0	0	0	0	0	0	0	0	0	0	0	0	0	0	0	0	0	0	0	0	0	0	0	0	0	0
011719	16:04:35	16:13:05	509417	5.0.10.0	4_exp_AWA_CON_EVA_AMP	78	Rpleas_acq	Same	Rpleas	Bmasked	CS_B	1pleas	distractor1	CONbeforeEVA	acq_US_unple_masked	acq45_masked	5	26	400	0	300	300	0	0	329	46	0	1	0	0	0	1	blank2r.bmp	0	1	+	0	7	C3r.bmp	492	1	blank2r.bmp	786	1	GKQX	786	1	blank2r.bmp	866	6	lasch	866	1	!	-1	1	!	-1	0	0	0	0	0	0	0	0	0	0	0	0	0	0	0	0	0	0	0	0	0	0	0	0	0	0	0
011719	16:04:35	16:13:07	511522	5.0.10.0	4_exp_AWA_CON_EVA_AMP	78	Rpleas_acq	Same	Rpleas	Bmasked	CS_B	1pleas	distractor1	CONbeforeEVA	acq_US_unple_masked	acq45_masked	5	27	400	0	300	300	0	0	331	50	0	0	0	0	0	1	blank2r.bmp	0	1	+	0	6	C2r.bmp	492	1	blank2r.bmp	786	1	GKQX	786	1	blank2r.bmp	866	4	strafen	866	1	!	-1	1	!	-1	0	0	0	0	0	0	0	0	0	0	0	0	0	0	0	0	0	0	0	0	0	0	0	0	0	0	0
011719	16:04:35	16:13:09	513775	5.0.10.0	4_exp_AWA_CON_EVA_AMP	78	Rpleas_acq	Same	Rpleas	Bmasked	CS_B	1pleas	distractor1	CONbeforeEVA	acq_US_unple_masked	acq45_masked	5	28	400	1	300	300	0	0	449	46	0	1	0	0	0	1	blank2r.bmp	0	1	+	0	5	C1r.bmp	492	1	blank2r.bmp	786	1	GKQX	786	1	blank2r.bmp	866	3	faul	866	1	!	1239	1	!	1346	0	0	0	0	0	0	0	0	0	0	0	0	0	0	0	0	0	0	0	0	0	0	0	0	0	0	0
011719	16:04:35	16:13:11	515881	5.0.10.0	4_exp_AWA_CON_EVA_AMP	78	Rpleas_acq	Same	Rpleas	Bmasked	CS_B	1pleas	distractor1	CONbeforeEVA	acq_US_pleas_masked	acq45_masked	5	29	400	0	300	300	0	0	320	50	0	1	0	0	0	1	blank2r.bmp	0	1	+	0	2	B2r.bmp	492	1	blank2r.bmp	786	1	BMVZ	786	1	blank2r.bmp	866	3	fair	866	1	!	-1	1	!	-1	0	0	0	0	0	0	0	0	0	0	0	0	0	0	0	0	0	0	0	0	0	0	0	0	0	0	0
011719	16:04:35	16:13:14	517960	5.0.10.0	4_exp_AWA_CON_EVA_AMP	78	Rpleas_acq	Same	Rpleas	Bmasked	CS_B	1pleas	distractor1	CONbeforeEVA	acq_US_pleas_masked	acq45_masked	5	30	400	0	300	300	0	0	301	46	0	0	0	0	0	1	blank2r.bmp	0	1	+	0	4	B4r.bmp	492	1	blank2r.bmp	786	1	BMVZ	786	1	blank2r.bmp	866	5	lachen	866	1	!	-1	1	!	-1	0	0	0	0	0	0	0	0	0	0	0	0	0	0	0	0	0	0	0	0	0	0	0	0	0	0	0
011719	16:04:35	16:13:16	520119	5.0.10.0	4_exp_AWA_CON_EVA_AMP	78	Rpleas_acq	Same	Rpleas	Bmasked	CS_B	1pleas	distractor1	CONbeforeEVA	acq_US_pleas_masked	acq45_masked	5	31	400	1	300	300	0	0	346	50	0	1	0	0	0	1	blank2r.bmp	0	1	+	0	1	B1r.bmp	492	1	blank2r.bmp	786	1	BMVZ	786	1	blank2r.bmp	866	4	spielen	866	1	!	1239	1	!	1252	0	0	0	0	0	0	0	0	0	0	0	0	0	0	0	0	0	0	0	0	0	0	0	0	0	0	0
011719	16:04:35	16:13:18	522331	5.0.10.0	4_exp_AWA_CON_EVA_AMP	78	Rpleas_acq	Same	Rpleas	Bmasked	CS_B	1pleas	distractor1	CONbeforeEVA	acq_US_pleas_masked	acq45_masked	5	32	400	1	300	300	0	0	419	46	0	0	0	0	0	1	blank2r.bmp	0	1	+	0	8	C4r.bmp	492	1	blank2r.bmp	786	1	BMVZ	786	1	blank2r.bmp	866	6	loyal	866	1	!	1239	1	!	1319	0	0	0	0	0	0	0	0	0	0	0	0	0	0	0	0	0	0	0	0	0	0	0	0	0	0	0
011719	16:04:35	16:13:20	524544	5.0.10.0	4_exp_AWA_CON_EVA_AMP	78	Rpleas_acq	Same	Rpleas	Bmasked	CS_B	1pleas	distractor1	CONbeforeEVA	acq_US_unple_masked	acq45_masked	5	33	400	1	300	300	0	0	413	46	0	1	0	0	0	1	blank2r.bmp	0	1	+	0	2	B2r.bmp	492	1	blank2r.bmp	786	1	GKQX	786	1	blank2r.bmp	866	5	leiden	866	1	!	1239	1	!	1319	0	0	0	0	0	0	0	0	0	0	0	0	0	0	0	0	0	0	0	0	0	0	0	0	0	0	0
011719	16:04:35	16:13:22	526823	5.0.10.0	4_exp_AWA_CON_EVA_AMP	78	Rpleas_acq	Same	Rpleas	Bmasked	CS_B	1pleas	distractor1	CONbeforeEVA	acq_US_unple_masked	acq45_masked	5	34	400	0	300	300	0	0	510	46	0	1	0	0	0	1	blank2r.bmp	0	1	+	0	1	B1r.bmp	492	1	blank2r.bmp	786	1	GKQX	786	1	blank2r.bmp	866	1	fanatisch	866	1	!	1239	1	!	-1	0	0	0	0	0	0	0	0	0	0	0	0	0	0	0	0	0	0	0	0	0	0	0	0	0	0	0
011719	16:04:35	16:13:24	528889	5.0.10.0	4_exp_AWA_CON_EVA_AMP	78	Rpleas_acq	Same	Rpleas	Bmasked	CS_B	1pleas	distractor1	CONbeforeEVA	acq_US_pleas_masked	acq45_masked	5	35	400	0	300	300	0	0	290	50	0	1	0	0	0	1	blank2r.bmp	0	1	+	0	6	C2r.bmp	492	1	blank2r.bmp	786	1	BMVZ	786	1	blank2r.bmp	866	2	helfen	866	1	!	-1	1	!	-1	0	0	0	0	0	0	0	0	0	0	0	0	0	0	0	0	0	0	0	0	0	0	0	0	0	0	0
011719	16:04:35	16:13:27	530941	5.0.10.0	4_exp_AWA_CON_EVA_AMP	78	Rpleas_acq	Same	Rpleas	Bmasked	CS_B	1pleas	distractor1	CONbeforeEVA	acq_US_unple_masked	acq45_masked	5	36	400	0	300	300	0	0	269	50	0	0	0	0	0	1	blank2r.bmp	0	1	+	0	7	C3r.bmp	492	1	blank2r.bmp	786	1	GKQX	786	1	blank2r.bmp	866	2	hindern	866	1	!	-1	1	!	-1	0	0	0	0	0	0	0	0	0	0	0	0	0	0	0	0	0	0	0	0	0	0	0	0	0	0	0
011719	16:04:35	16:14:41	605057	5.0.10.0	4_exp_AWA_CON_EVA_AMP	78	Rpleas_acq	Same	Rpleas	Bmasked	CS_B	1pleas	distractor1	CONbeforeEVA	cond_new_pleas_456_masked_CS1	condtest_masked_1	8	1	400	0	300	300	0	0	587	50	0	1	0	0	0	1	blank2r.bmp	0	1	+	0	5	C1r.bmp	492	1	blank2r.bmp	786	1	BMVZ	786	1	blank2r.bmp	866	3	retten	866	1	!	1239	1	!	-1	0	0	0	0	0	0	0	0	0	0	0	0	0	0	0	0	0	0	0	0	0	0	0	0	0	0	0
011719	16:04:35	16:14:43	607296	5.0.10.0	4_exp_AWA_CON_EVA_AMP	78	Rpleas_acq	Same	Rpleas	Bmasked	CS_B	1pleas	distractor1	CONbeforeEVA	cond_US_unple_123_masked_CS2	condtest_masked_1	8	2	400	1	300	300	0	0	434	46	0	1	0	0	0	1	blank2r.bmp	0	1	+	0	4	B4r.bmp	492	1	blank2r.bmp	786	1	GKQX	786	1	blank2r.bmp	866	2	hindern	866	1	!	1239	1	!	1332	0	0	0	0	0	0	0	0	0	0	0	0	0	0	0	0	0	0	0	0	0	0	0	0	0	0	0
011719	16:04:35	16:14:45	609535	5.0.10.0	4_exp_AWA_CON_EVA_AMP	78	Rpleas_acq	Same	Rpleas	Bmasked	CS_B	1pleas	distractor1	CONbeforeEVA	cond_new_unple_456_masked_CS2	condtest_masked_1	8	3	400	1	300	300	0	0	437	46	0	1	0	0	0	1	blank2r.bmp	0	1	+	0	8	C4r.bmp	492	1	blank2r.bmp	786	1	GKQX	786	1	blank2r.bmp	866	3	rächen	866	1	!	1239	1	!	1332	0	0	0	0	0	0	0	0	0	0	0	0	0	0	0	0	0	0	0	0	0	0	0	0	0	0	0
011719	16:04:35	16:14:47	611774	5.0.10.0	4_exp_AWA_CON_EVA_AMP	78	Rpleas_acq	Same	Rpleas	Bmasked	CS_B	1pleas	distractor1	CONbeforeEVA	cond_US_unple_123_masked_CS1	condtest_masked_1	8	4	400	1	300	300	0	0	444	46	0	1	0	0	0	1	blank2r.bmp	0	1	+	0	3	B3r.bmp	492	1	blank2r.bmp	786	1	BMVZ	786	1	blank2r.bmp	866	1	fanatisch	866	1	!	1239	1	!	1346	0	0	0	0	0	0	0	0	0	0	0	0	0	0	0	0	0	0	0	0	0	0	0	0	0	0	0
011719	16:04:35	16:14:49	613867	5.0.10.0	4_exp_AWA_CON_EVA_AMP	78	Rpleas_acq	Same	Rpleas	Bmasked	CS_B	1pleas	distractor1	CONbeforeEVA	cond_new_pleas_456_masked_CS2	condtest_masked_1	8	5	400	0	300	300	0	0	309	46	0	0	0	0	0	1	blank2r.bmp	0	1	+	0	1	B1r.bmp	492	1	blank2r.bmp	786	1	GKQX	786	1	blank2r.bmp	866	1	tolerant	866	1	!	-1	1	!	-1	0	0	0	0	0	0	0	0	0	0	0	0	0	0	0	0	0	0	0	0	0	0	0	0	0	0	0
011719	16:04:35	16:14:52	615946	5.0.10.0	4_exp_AWA_CON_EVA_AMP	78	Rpleas_acq	Same	Rpleas	Bmasked	CS_B	1pleas	distractor1	CONbeforeEVA	cond_new_unple_456_masked_CS1	condtest_masked_1	8	6	400	0	300	300	0	0	281	50	0	0	0	0	0	1	blank2r.bmp	0	1	+	0	2	B2r.bmp	492	1	blank2r.bmp	786	1	BMVZ	786	1	blank2r.bmp	866	2	schlecht	866	1	!	-1	1	!	-1	0	0	0	0	0	0	0	0	0	0	0	0	0	0	0	0	0	0	0	0	0	0	0	0	0	0	0
011719	16:04:35	16:14:54	618065	5.0.10.0	4_exp_AWA_CON_EVA_AMP	78	Rpleas_acq	Same	Rpleas	Bmasked	CS_B	1pleas	distractor1	CONbeforeEVA	cond_US_pleas_123_masked_CS2	condtest_masked_1	8	7	400	0	300	300	0	0	333	50	0	1	0	0	0	1	blank2r.bmp	0	1	+	0	3	B3r.bmp	492	1	blank2r.bmp	786	1	GKQX	786	1	blank2r.bmp	866	3	fair	866	1	!	-1	1	!	-1	0	0	0	0	0	0	0	0	0	0	0	0	0	0	0	0	0	0	0	0	0	0	0	0	0	0	0
011719	16:04:35	16:14:56	620158	5.0.10.0	4_exp_AWA_CON_EVA_AMP	78	Rpleas_acq	Same	Rpleas	Bmasked	CS_B	1pleas	distractor1	CONbeforeEVA	cond_US_pleas_123_masked_CS1	condtest_masked_1	8	8	400	0	300	300	0	0	317	50	0	1	0	0	0	1	blank2r.bmp	0	1	+	0	5	C1r.bmp	492	1	blank2r.bmp	786	1	BMVZ	786	1	blank2r.bmp	866	1	freundlich	866	1	!	-1	1	!	-1	0	0	0	0	0	0	0	0	0	0	0	0	0	0	0	0	0	0	0	0	0	0	0	0	0	0	0
011719	16:04:35	16:15:03	627875	5.0.10.0	4_exp_AWA_CON_EVA_AMP	78	Rpleas_acq	Same	Rpleas	Bmasked	CS_B	1pleas	distractor1	CONbeforeEVA	cond_US_unple_123_masked_CS1	condtest_masked_2	9	1	400	1	300	300	0	0	383	46	0	1	0	0	0	1	blank2r.bmp	0	1	+	0	8	C4r.bmp	492	1	blank2r.bmp	786	1	BMVZ	786	1	blank2r.bmp	866	3	faul	866	1	!	1239	1	!	1279	0	0	0	0	0	0	0	0	0	0	0	0	0	0	0	0	0	0	0	0	0	0	0	0	0	0	0
011719	16:04:35	16:15:06	630127	5.0.10.0	4_exp_AWA_CON_EVA_AMP	78	Rpleas_acq	Same	Rpleas	Bmasked	CS_B	1pleas	distractor1	CONbeforeEVA	cond_new_unple_456_masked_CS2	condtest_masked_2	9	2	400	1	300	300	0	0	462	46	0	1	0	0	0	1	blank2r.bmp	0	1	+	0	6	C2r.bmp	492	1	blank2r.bmp	786	1	GKQX	786	1	blank2r.bmp	866	1	tyrannisch	866	1	!	1239	1	!	1359	0	0	0	0	0	0	0	0	0	0	0	0	0	0	0	0	0	0	0	0	0	0	0	0	0	0	0
011719	16:04:35	16:15:08	632326	5.0.10.0	4_exp_AWA_CON_EVA_AMP	78	Rpleas_acq	Same	Rpleas	Bmasked	CS_B	1pleas	distractor1	CONbeforeEVA	cond_new_pleas_456_masked_CS2	condtest_masked_2	9	3	400	1	300	300	0	0	407	46	0	0	0	0	0	1	blank2r.bmp	0	1	+	0	7	C3r.bmp	492	1	blank2r.bmp	786	1	GKQX	786	1	blank2r.bmp	866	2	schön	866	1	!	1239	1	!	1306	0	0	0	0	0	0	0	0	0	0	0	0	0	0	0	0	0	0	0	0	0	0	0	0	0	0	0
011719	16:04:35	16:15:10	634578	5.0.10.0	4_exp_AWA_CON_EVA_AMP	78	Rpleas_acq	Same	Rpleas	Bmasked	CS_B	1pleas	distractor1	CONbeforeEVA	cond_US_unple_123_masked_CS2	condtest_masked_2	9	4	400	1	300	300	0	0	455	46	0	1	0	0	0	1	blank2r.bmp	0	1	+	0	4	B4r.bmp	492	1	blank2r.bmp	786	1	GKQX	786	1	blank2r.bmp	866	3	faul	866	1	!	1239	1	!	1359	0	0	0	0	0	0	0	0	0	0	0	0	0	0	0	0	0	0	0	0	0	0	0	0	0	0	0
011719	16:04:35	16:15:12	636631	5.0.10.0	4_exp_AWA_CON_EVA_AMP	78	Rpleas_acq	Same	Rpleas	Bmasked	CS_B	1pleas	distractor1	CONbeforeEVA	cond_new_pleas_456_masked_CS2	condtest_masked_2	9	5	400	0	300	300	0	0	283	50	0	1	0	0	0	1	blank2r.bmp	0	1	+	0	2	B2r.bmp	492	1	blank2r.bmp	786	1	GKQX	786	1	blank2r.bmp	866	2	schön	866	1	!	-1	1	!	-1	0	0	0	0	0	0	0	0	0	0	0	0	0	0	0	0	0	0	0	0	0	0	0	0	0	0	0
011719	16:04:35	16:15:14	638843	5.0.10.0	4_exp_AWA_CON_EVA_AMP	78	Rpleas_acq	Same	Rpleas	Bmasked	CS_B	1pleas	distractor1	CONbeforeEVA	cond_new_unple_456_masked_CS2	condtest_masked_2	9	6	400	1	300	300	0	0	404	46	0	1	0	0	0	1	blank2r.bmp	0	1	+	0	1	B1r.bmp	492	1	blank2r.bmp	786	1	GKQX	786	1	blank2r.bmp	866	2	schlecht	866	1	!	1239	1	!	1306	0	0	0	0	0	0	0	0	0	0	0	0	0	0	0	0	0	0	0	0	0	0	0	0	0	0	0
011719	16:04:35	16:15:16	640896	5.0.10.0	4_exp_AWA_CON_EVA_AMP	78	Rpleas_acq	Same	Rpleas	Bmasked	CS_B	1pleas	distractor1	CONbeforeEVA	cond_new_unple_456_masked_CS1	condtest_masked_2	9	7	400	0	300	300	0	0	284	46	0	1	0	0	0	1	blank2r.bmp	0	1	+	0	6	C2r.bmp	492	1	blank2r.bmp	786	1	BMVZ	786	1	blank2r.bmp	866	3	rächen	866	1	!	-1	1	!	-1	0	0	0	0	0	0	0	0	0	0	0	0	0	0	0	0	0	0	0	0	0	0	0	0	0	0	0
011719	16:04:35	16:15:19	643068	5.0.10.0	4_exp_AWA_CON_EVA_AMP	78	Rpleas_acq	Same	Rpleas	Bmasked	CS_B	1pleas	distractor1	CONbeforeEVA	cond_US_pleas_123_masked_CS1	condtest_masked_2	9	8	400	1	300	300	0	0	360	46	0	0	0	0	0	1	blank2r.bmp	0	1	+	0	5	C1r.bmp	492	1	blank2r.bmp	786	1	BMVZ	786	1	blank2r.bmp	866	2	helfen	866	1	!	1239	1	!	1266	0	0	0	0	0	0	0	0	0	0	0	0	0	0	0	0	0	0	0	0	0	0	0	0	0	0	0
011719	16:04:35	16:15:21	645294	5.0.10.0	4_exp_AWA_CON_EVA_AMP	78	Rpleas_acq	Same	Rpleas	Bmasked	CS_B	1pleas	distractor1	CONbeforeEVA	cond_new_unple_456_masked_CS1	condtest_masked_2	9	9	400	1	300	300	0	0	437	46	0	1	0	0	0	1	blank2r.bmp	0	1	+	0	3	B3r.bmp	492	1	blank2r.bmp	786	1	BMVZ	786	1	blank2r.bmp	866	1	tyrannisch	866	1	!	1239	1	!	1332	0	0	0	0	0	0	0	0	0	0	0	0	0	0	0	0	0	0	0	0	0	0	0	0	0	0	0
011719	16:04:35	16:15:23	647480	5.0.10.0	4_exp_AWA_CON_EVA_AMP	78	Rpleas_acq	Same	Rpleas	Bmasked	CS_B	1pleas	distractor1	CONbeforeEVA	cond_US_pleas_123_masked_CS2	condtest_masked_2	9	10	400	1	300	300	0	0	398	50	0	1	0	0	0	1	blank2r.bmp	0	1	+	0	8	C4r.bmp	492	1	blank2r.bmp	786	1	GKQX	786	1	blank2r.bmp	866	1	freundlich	866	1	!	1239	1	!	1292	0	0	0	0	0	0	0	0	0	0	0	0	0	0	0	0	0	0	0	0	0	0	0	0	0	0	0
011719	16:04:35	16:15:25	649666	5.0.10.0	4_exp_AWA_CON_EVA_AMP	78	Rpleas_acq	Same	Rpleas	Bmasked	CS_B	1pleas	distractor1	CONbeforeEVA	cond_US_unple_123_masked_CS2	condtest_masked_2	9	11	400	1	300	300	0	0	391	46	0	1	0	0	0	1	blank2r.bmp	0	1	+	0	4	B4r.bmp	492	1	blank2r.bmp	786	1	GKQX	786	1	blank2r.bmp	866	1	fanatisch	866	1	!	1239	1	!	1292	0	0	0	0	0	0	0	0	0	0	0	0	0	0	0	0	0	0	0	0	0	0	0	0	0	0	0
011719	16:04:35	16:15:27	651825	5.0.10.0	4_exp_AWA_CON_EVA_AMP	78	Rpleas_acq	Same	Rpleas	Bmasked	CS_B	1pleas	distractor1	CONbeforeEVA	cond_US_pleas_123_masked_CS1	condtest_masked_2	9	12	400	1	300	300	0	0	349	50	0	1	0	0	0	1	blank2r.bmp	0	1	+	0	7	C3r.bmp	492	1	blank2r.bmp	786	1	BMVZ	786	1	blank2r.bmp	866	2	helfen	866	1	!	1239	1	!	1252	0	0	0	0	0	0	0	0	0	0	0	0	0	0	0	0	0	0	0	0	0	0	0	0	0	0	0
011719	16:04:35	16:15:30	653970	5.0.10.0	4_exp_AWA_CON_EVA_AMP	78	Rpleas_acq	Same	Rpleas	Bmasked	CS_B	1pleas	distractor1	CONbeforeEVA	cond_US_pleas_123_masked_CS2	condtest_masked_2	9	13	400	1	300	300	0	0	346	50	0	1	0	0	0	1	blank2r.bmp	0	1	+	0	8	C4r.bmp	492	1	blank2r.bmp	786	1	GKQX	786	1	blank2r.bmp	866	3	fair	866	1	!	1239	1	!	1252	0	0	0	0	0	0	0	0	0	0	0	0	0	0	0	0	0	0	0	0	0	0	0	0	0	0	0
011719	16:04:35	16:15:32	656196	5.0.10.0	4_exp_AWA_CON_EVA_AMP	78	Rpleas_acq	Same	Rpleas	Bmasked	CS_B	1pleas	distractor1	CONbeforeEVA	cond_new_pleas_456_masked_CS1	condtest_masked_2	9	14	400	1	300	300	0	0	421	50	0	1	0	0	0	1	blank2r.bmp	0	1	+	0	2	B2r.bmp	492	1	blank2r.bmp	786	1	BMVZ	786	1	blank2r.bmp	866	3	retten	866	1	!	1239	1	!	1319	0	0	0	0	0	0	0	0	0	0	0	0	0	0	0	0	0	0	0	0	0	0	0	0	0	0	0
011719	16:04:35	16:15:34	658382	5.0.10.0	4_exp_AWA_CON_EVA_AMP	78	Rpleas_acq	Same	Rpleas	Bmasked	CS_B	1pleas	distractor1	CONbeforeEVA	cond_new_pleas_456_masked_CS1	condtest_masked_2	9	15	400	1	300	300	0	0	396	50	0	1	0	0	0	1	blank2r.bmp	0	1	+	0	3	B3r.bmp	492	1	blank2r.bmp	786	1	BMVZ	786	1	blank2r.bmp	866	1	tolerant	866	1	!	1239	1	!	1292	0	0	0	0	0	0	0	0	0	0	0	0	0	0	0	0	0	0	0	0	0	0	0	0	0	0	0
011719	16:04:35	16:15:36	660594	5.0.10.0	4_exp_AWA_CON_EVA_AMP	78	Rpleas_acq	Same	Rpleas	Bmasked	CS_B	1pleas	distractor1	CONbeforeEVA	cond_new_unple_456_masked_CS2	condtest_masked_2	9	16	400	1	300	300	0	0	416	46	0	1	0	0	0	1	blank2r.bmp	0	1	+	0	1	B1r.bmp	492	1	blank2r.bmp	786	1	GKQX	786	1	blank2r.bmp	866	2	schlecht	866	1	!	1239	1	!	1319	0	0	0	0	0	0	0	0	0	0	0	0	0	0	0	0	0	0	0	0	0	0	0	0	0	0	0
011719	16:04:35	16:15:38	662674	5.0.10.0	4_exp_AWA_CON_EVA_AMP	78	Rpleas_acq	Same	Rpleas	Bmasked	CS_B	1pleas	distractor1	CONbeforeEVA	cond_US_pleas_123_masked_CS2	condtest_masked_2	9	17	400	0	300	300	0	0	308	50	0	1	0	0	0	1	blank2r.bmp	0	1	+	0	6	C2r.bmp	492	1	blank2r.bmp	786	1	GKQX	786	1	blank2r.bmp	866	1	freundlich	866	1	!	-1	1	!	-1	0	0	0	0	0	0	0	0	0	0	0	0	0	0	0	0	0	0	0	0	0	0	0	0	0	0	0
011719	16:04:35	16:15:40	664779	5.0.10.0	4_exp_AWA_CON_EVA_AMP	78	Rpleas_acq	Same	Rpleas	Bmasked	CS_B	1pleas	distractor1	CONbeforeEVA	cond_new_unple_456_masked_CS1	condtest_masked_2	9	18	400	0	300	300	0	0	321	50	0	0	0	0	0	1	blank2r.bmp	0	1	+	0	5	C1r.bmp	492	1	blank2r.bmp	786	1	BMVZ	786	1	blank2r.bmp	866	3	rächen	866	1	!	-1	1	!	-1	0	0	0	0	0	0	0	0	0	0	0	0	0	0	0	0	0	0	0	0	0	0	0	0	0	0	0
011719	16:04:35	16:15:43	666965	5.0.10.0	4_exp_AWA_CON_EVA_AMP	78	Rpleas_acq	Same	Rpleas	Bmasked	CS_B	1pleas	distractor1	CONbeforeEVA	cond_new_pleas_456_masked_CS2	condtest_masked_2	9	19	400	1	300	300	0	0	380	50	0	1	0	0	0	1	blank2r.bmp	0	1	+	0	7	C3r.bmp	492	1	blank2r.bmp	786	1	GKQX	786	1	blank2r.bmp	866	3	retten	866	1	!	1239	1	!	1279	0	0	0	0	0	0	0	0	0	0	0	0	0	0	0	0	0	0	0	0	0	0	0	0	0	0	0
011719	16:04:35	16:15:45	669071	5.0.10.0	4_exp_AWA_CON_EVA_AMP	78	Rpleas_acq	Same	Rpleas	Bmasked	CS_B	1pleas	distractor1	CONbeforeEVA	cond_new_pleas_456_masked_CS2	condtest_masked_2	9	20	400	0	300	300	0	0	327	50	0	1	0	0	0	1	blank2r.bmp	0	1	+	0	4	B4r.bmp	492	1	blank2r.bmp	786	1	GKQX	786	1	blank2r.bmp	866	2	schön	866	1	!	-1	1	!	-1	0	0	0	0	0	0	0	0	0	0	0	0	0	0	0	0	0	0	0	0	0	0	0	0	0	0	0
011719	16:04:35	16:16:03	687144	5.0.10.0	4_exp_AWA_CON_EVA_AMP	78	Rpleas_acq	Same	Rpleas	Bmasked	CS_B	1pleas	distractor1	CONbeforeEVA	cond_US_unple_123_masked_CS1	condtest_masked_2	9	21	400	0	300	300	0	0	16291	50	0	0	0	0	0	1	blank2r.bmp	0	1	+	0	2	B2r.bmp	492	1	blank2r.bmp	786	1	BMVZ	786	1	blank2r.bmp	866	2	hindern	866	1	!	1239	1	!	-1	0	0	0	0	0	0	0	0	0	0	0	0	0	0	0	0	0	0	0	0	0	0	0	0	0	0	0
011719	16:04:35	16:16:05	689449	5.0.10.0	4_exp_AWA_CON_EVA_AMP	78	Rpleas_acq	Same	Rpleas	Bmasked	CS_B	1pleas	distractor1	CONbeforeEVA	cond_US_pleas_123_masked_CS2	condtest_masked_2	9	22	400	0	300	300	0	0	523	46	0	0	0	0	0	1	blank2r.bmp	0	1	+	0	7	C3r.bmp	492	1	blank2r.bmp	786	1	GKQX	786	1	blank2r.bmp	866	2	helfen	866	1	!	1239	1	!	-1	0	0	0	0	0	0	0	0	0	0	0	0	0	0	0	0	0	0	0	0	0	0	0	0	0	0	0
011719	16:04:35	16:16:07	691475	5.0.10.0	4_exp_AWA_CON_EVA_AMP	78	Rpleas_acq	Same	Rpleas	Bmasked	CS_B	1pleas	distractor1	CONbeforeEVA	cond_US_unple_123_masked_CS2	condtest_masked_2	9	23	400	0	300	300	0	0	238	50	0	0	0	0	0	1	blank2r.bmp	0	1	+	0	8	C4r.bmp	492	1	blank2r.bmp	786	1	GKQX	786	1	blank2r.bmp	866	2	hindern	866	1	!	-1	1	!	-1	0	0	0	0	0	0	0	0	0	0	0	0	0	0	0	0	0	0	0	0	0	0	0	0	0	0	0
011719	16:04:35	16:16:09	693581	5.0.10.0	4_exp_AWA_CON_EVA_AMP	78	Rpleas_acq	Same	Rpleas	Bmasked	CS_B	1pleas	distractor1	CONbeforeEVA	cond_new_unple_456_masked_CS1	condtest_masked_2	9	24	400	0	300	300	0	0	305	50	0	0	0	0	0	1	blank2r.bmp	0	1	+	0	4	B4r.bmp	492	1	blank2r.bmp	786	1	BMVZ	786	1	blank2r.bmp	866	1	tyrannisch	866	1	!	-1	1	!	-1	0	0	0	0	0	0	0	0	0	0	0	0	0	0	0	0	0	0	0	0	0	0	0	0	0	0	0
011719	16:04:35	16:16:11	695673	5.0.10.0	4_exp_AWA_CON_EVA_AMP	78	Rpleas_acq	Same	Rpleas	Bmasked	CS_B	1pleas	distractor1	CONbeforeEVA	cond_new_pleas_456_masked_CS1	condtest_masked_2	9	25	400	0	300	300	0	0	295	50	0	1	0	0	0	1	blank2r.bmp	0	1	+	0	3	B3r.bmp	492	1	blank2r.bmp	786	1	BMVZ	786	1	blank2r.bmp	866	1	tolerant	866	1	!	-1	1	!	-1	0	0	0	0	0	0	0	0	0	0	0	0	0	0	0	0	0	0	0	0	0	0	0	0	0	0	0
011719	16:04:35	16:16:15	699792	5.0.10.0	4_exp_AWA_CON_EVA_AMP	78	Rpleas_acq	Same	Rpleas	Bmasked	CS_B	1pleas	distractor1	CONbeforeEVA	cond_US_unple_123_masked_CS2	condtest_masked_2	9	26	400	0	300	300	0	0	2338	50	0	0	0	0	0	1	blank2r.bmp	0	1	+	0	5	C1r.bmp	492	1	blank2r.bmp	786	1	GKQX	786	1	blank2r.bmp	866	3	faul	866	1	!	1239	1	!	-1	0	0	0	0	0	0	0	0	0	0	0	0	0	0	0	0	0	0	0	0	0	0	0	0	0	0	0
011719	16:04:35	16:16:17	701817	5.0.10.0	4_exp_AWA_CON_EVA_AMP	78	Rpleas_acq	Same	Rpleas	Bmasked	CS_B	1pleas	distractor1	CONbeforeEVA	cond_new_unple_456_masked_CS2	condtest_masked_2	9	27	400	0	300	300	0	0	250	46	0	1	0	0	0	1	blank2r.bmp	0	1	+	0	6	C2r.bmp	492	1	blank2r.bmp	786	1	GKQX	786	1	blank2r.bmp	866	3	rächen	866	1	!	-1	1	!	-1	0	0	0	0	0	0	0	0	0	0	0	0	0	0	0	0	0	0	0	0	0	0	0	0	0	0	0
011719	16:04:35	16:16:19	703857	5.0.10.0	4_exp_AWA_CON_EVA_AMP	78	Rpleas_acq	Same	Rpleas	Bmasked	CS_B	1pleas	distractor1	CONbeforeEVA	cond_new_pleas_456_masked_CS2	condtest_masked_2	9	28	400	0	300	300	0	0	241	50	0	1	0	0	0	1	blank2r.bmp	0	1	+	0	1	B1r.bmp	492	1	blank2r.bmp	786	1	GKQX	786	1	blank2r.bmp	866	3	retten	866	1	!	-1	1	!	-1	0	0	0	0	0	0	0	0	0	0	0	0	0	0	0	0	0	0	0	0	0	0	0	0	0	0	0
011719	16:04:35	16:16:22	706016	5.0.10.0	4_exp_AWA_CON_EVA_AMP	78	Rpleas_acq	Same	Rpleas	Bmasked	CS_B	1pleas	distractor1	CONbeforeEVA	cond_US_unple_123_masked_CS1	condtest_masked_2	9	29	400	1	300	300	0	0	346	46	0	1	0	0	0	1	blank2r.bmp	0	1	+	0	7	C3r.bmp	492	1	blank2r.bmp	786	1	BMVZ	786	1	blank2r.bmp	866	1	fanatisch	866	1	!	1239	1	!	1252	0	0	0	0	0	0	0	0	0	0	0	0	0	0	0	0	0	0	0	0	0	0	0	0	0	0	0
011719	16:04:35	16:16:24	708055	5.0.10.0	4_exp_AWA_CON_EVA_AMP	78	Rpleas_acq	Same	Rpleas	Bmasked	CS_B	1pleas	distractor1	CONbeforeEVA	cond_US_pleas_123_masked_CS1	condtest_masked_2	9	30	400	0	300	300	0	0	272	50	0	1	0	0	0	1	blank2r.bmp	0	1	+	0	1	B1r.bmp	492	1	blank2r.bmp	786	1	BMVZ	786	1	blank2r.bmp	866	3	fair	866	1	!	-1	1	!	-1	0	0	0	0	0	0	0	0	0	0	0	0	0	0	0	0	0	0	0	0	0	0	0	0	0	0	0
011719	16:04:35	16:16:26	710094	5.0.10.0	4_exp_AWA_CON_EVA_AMP	78	Rpleas_acq	Same	Rpleas	Bmasked	CS_B	1pleas	distractor1	CONbeforeEVA	cond_US_unple_123_masked_CS2	condtest_masked_2	9	31	400	0	300	300	0	0	252	46	0	1	0	0	0	1	blank2r.bmp	0	1	+	0	3	B3r.bmp	492	1	blank2r.bmp	786	1	GKQX	786	1	blank2r.bmp	866	3	faul	866	1	!	-1	1	!	-1	0	0	0	0	0	0	0	0	0	0	0	0	0	0	0	0	0	0	0	0	0	0	0	0	0	0	0
011719	16:04:35	16:16:28	712147	5.0.10.0	4_exp_AWA_CON_EVA_AMP	78	Rpleas_acq	Same	Rpleas	Bmasked	CS_B	1pleas	distractor1	CONbeforeEVA	cond_new_pleas_456_masked_CS1	condtest_masked_2	9	32	400	0	300	300	0	0	267	50	0	1	0	0	0	1	blank2r.bmp	0	1	+	0	2	B2r.bmp	492	1	blank2r.bmp	786	1	BMVZ	786	1	blank2r.bmp	866	2	schön	866	1	!	-1	1	!	-1	0	0	0	0	0	0	0	0	0	0	0	0	0	0	0	0	0	0	0	0	0	0	0	0	0	0	0
011719	16:04:35	16:16:30	714172	5.0.10.0	4_exp_AWA_CON_EVA_AMP	78	Rpleas_acq	Same	Rpleas	Bmasked	CS_B	1pleas	distractor1	CONbeforeEVA	cond_US_pleas_123_masked_CS2	condtest_masked_2	9	33	400	0	300	300	0	0	245	46	0	0	0	0	0	1	blank2r.bmp	0	1	+	0	4	B4r.bmp	492	1	blank2r.bmp	786	1	GKQX	786	1	blank2r.bmp	866	2	helfen	866	1	!	-1	1	!	-1	0	0	0	0	0	0	0	0	0	0	0	0	0	0	0	0	0	0	0	0	0	0	0	0	0	0	0
011719	16:04:35	16:16:32	716225	5.0.10.0	4_exp_AWA_CON_EVA_AMP	78	Rpleas_acq	Same	Rpleas	Bmasked	CS_B	1pleas	distractor1	CONbeforeEVA	cond_new_pleas_456_masked_CS1	condtest_masked_2	9	34	400	0	300	300	0	0	258	50	0	1	0	0	0	1	blank2r.bmp	0	1	+	0	5	C1r.bmp	492	1	blank2r.bmp	786	1	BMVZ	786	1	blank2r.bmp	866	1	tolerant	866	1	!	-1	1	!	-1	0	0	0	0	0	0	0	0	0	0	0	0	0	0	0	0	0	0	0	0	0	0	0	0	0	0	0
011719	16:04:35	16:16:34	718317	5.0.10.0	4_exp_AWA_CON_EVA_AMP	78	Rpleas_acq	Same	Rpleas	Bmasked	CS_B	1pleas	distractor1	CONbeforeEVA	cond_US_pleas_123_masked_CS1	condtest_masked_2	9	35	400	0	300	300	0	0	317	50	0	1	0	0	0	1	blank2r.bmp	0	1	+	0	6	C2r.bmp	492	1	blank2r.bmp	786	1	BMVZ	786	1	blank2r.bmp	866	3	fair	866	1	!	-1	1	!	-1	0	0	0	0	0	0	0	0	0	0	0	0	0	0	0	0	0	0	0	0	0	0	0	0	0	0	0
011719	16:04:35	16:16:36	720357	5.0.10.0	4_exp_AWA_CON_EVA_AMP	78	Rpleas_acq	Same	Rpleas	Bmasked	CS_B	1pleas	distractor1	CONbeforeEVA	cond_new_unple_456_masked_CS1	condtest_masked_2	9	36	400	0	300	300	0	0	253	50	0	0	0	0	0	1	blank2r.bmp	0	1	+	0	8	C4r.bmp	492	1	blank2r.bmp	786	1	BMVZ	786	1	blank2r.bmp	866	2	schlecht	866	1	!	-1	1	!	-1	0	0	0	0	0	0	0	0	0	0	0	0	0	0	0	0	0	0	0	0	0	0	0	0	0	0	0
011719	16:04:35	16:16:38	722436	5.0.10.0	4_exp_AWA_CON_EVA_AMP	78	Rpleas_acq	Same	Rpleas	Bmasked	CS_B	1pleas	distractor1	CONbeforeEVA	cond_US_pleas_123_masked_CS1	condtest_masked_2	9	37	400	0	300	300	0	0	292	46	0	0	0	0	0	1	blank2r.bmp	0	1	+	0	5	C1r.bmp	492	1	blank2r.bmp	786	1	BMVZ	786	1	blank2r.bmp	866	1	freundlich	866	1	!	-1	1	!	-1	0	0	0	0	0	0	0	0	0	0	0	0	0	0	0	0	0	0	0	0	0	0	0	0	0	0	0
011719	16:04:35	16:16:40	724528	5.0.10.0	4_exp_AWA_CON_EVA_AMP	78	Rpleas_acq	Same	Rpleas	Bmasked	CS_B	1pleas	distractor1	CONbeforeEVA	cond_US_unple_123_masked_CS1	condtest_masked_2	9	38	400	0	300	300	0	0	315	46	0	1	0	0	0	1	blank2r.bmp	0	1	+	0	6	C2r.bmp	492	1	blank2r.bmp	786	1	BMVZ	786	1	blank2r.bmp	866	1	fanatisch	866	1	!	-1	1	!	-1	0	0	0	0	0	0	0	0	0	0	0	0	0	0	0	0	0	0	0	0	0	0	0	0	0	0	0
011719	16:04:35	16:16:42	726594	5.0.10.0	4_exp_AWA_CON_EVA_AMP	78	Rpleas_acq	Same	Rpleas	Bmasked	CS_B	1pleas	distractor1	CONbeforeEVA	cond_US_unple_123_masked_CS1	condtest_masked_2	9	39	400	0	300	300	0	0	287	50	0	0	0	0	0	1	blank2r.bmp	0	1	+	0	4	B4r.bmp	492	1	blank2r.bmp	786	1	BMVZ	786	1	blank2r.bmp	866	2	hindern	866	1	!	-1	1	!	-1	0	0	0	0	0	0	0	0	0	0	0	0	0	0	0	0	0	0	0	0	0	0	0	0	0	0	0
011719	16:04:35	16:16:44	728820	5.0.10.0	4_exp_AWA_CON_EVA_AMP	78	Rpleas_acq	Same	Rpleas	Bmasked	CS_B	1pleas	distractor1	CONbeforeEVA	cond_new_unple_456_masked_CS2	condtest_masked_2	9	40	400	1	300	300	0	0	413	46	0	1	0	0	0	1	blank2r.bmp	0	1	+	0	7	C3r.bmp	492	1	blank2r.bmp	786	1	GKQX	786	1	blank2r.bmp	866	1	tyrannisch	866	1	!	1239	1	!	1319	0	0	0	0	0	0	0	0	0	0	0	0	0	0	0	0	0	0	0	0	0	0	0	0	0	0	0
011719	16:04:35	16:16:52	736790	5.0.10.0	4_exp_AWA_CON_EVA_AMP	78	Rpleas_acq	Same	Rpleas	Bmasked	CS_B	1pleas	distractor1	CONbeforeEVA	cond_new_pleas_123_masked_CS1	condtest_masked_3	10	1	400	1	300	300	0	0	431	46	0	0	0	0	0	1	blank2r.bmp	0	1	+	0	2	B2r.bmp	492	1	blank2r.bmp	786	1	BMVZ	786	1	blank2r.bmp	866	1	schlau	866	1	!	1239	1	!	1332	0	0	0	0	0	0	0	0	0	0	0	0	0	0	0	0	0	0	0	0	0	0	0	0	0	0	0
011719	16:04:35	16:16:55	739016	5.0.10.0	4_exp_AWA_CON_EVA_AMP	78	Rpleas_acq	Same	Rpleas	Bmasked	CS_B	1pleas	distractor1	CONbeforeEVA	cond_new_unple_123_masked_CS1	condtest_masked_3	10	2	400	1	300	300	0	0	413	50	0	0	0	0	0	1	blank2r.bmp	0	1	+	0	1	B1r.bmp	492	1	blank2r.bmp	786	1	BMVZ	786	1	blank2r.bmp	866	3	tot	866	1	!	1239	1	!	1319	0	0	0	0	0	0	0	0	0	0	0	0	0	0	0	0	0	0	0	0	0	0	0	0	0	0	0
011719	16:04:35	16:16:57	741161	5.0.10.0	4_exp_AWA_CON_EVA_AMP	78	Rpleas_acq	Same	Rpleas	Bmasked	CS_B	1pleas	distractor1	CONbeforeEVA	cond_US_unple_456_masked_CS1	condtest_masked_3	10	3	400	1	300	300	0	0	346	46	0	1	0	0	0	1	blank2r.bmp	0	1	+	0	8	C4r.bmp	492	1	blank2r.bmp	786	1	BMVZ	786	1	blank2r.bmp	866	3	lasch	866	1	!	1239	1	!	1252	0	0	0	0	0	0	0	0	0	0	0	0	0	0	0	0	0	0	0	0	0	0	0	0	0	0	0
011719	16:04:35	16:16:59	743347	5.0.10.0	4_exp_AWA_CON_EVA_AMP	78	Rpleas_acq	Same	Rpleas	Bmasked	CS_B	1pleas	distractor1	CONbeforeEVA	cond_US_pleas_456_masked_CS1	condtest_masked_3	10	4	400	1	300	300	0	0	390	50	0	1	0	0	0	1	blank2r.bmp	0	1	+	0	3	B3r.bmp	492	1	blank2r.bmp	786	1	BMVZ	786	1	blank2r.bmp	866	1	spielen	866	1	!	1239	1	!	1292	0	0	0	0	0	0	0	0	0	0	0	0	0	0	0	0	0	0	0	0	0	0	0	0	0	0	0
011719	16:04:35	16:17:01	745573	5.0.10.0	4_exp_AWA_CON_EVA_AMP	78	Rpleas_acq	Same	Rpleas	Bmasked	CS_B	1pleas	distractor1	CONbeforeEVA	cond_US_unple_456_masked_CS2	condtest_masked_3	10	5	400	1	300	300	0	0	434	46	0	1	0	0	0	1	blank2r.bmp	0	1	+	0	6	C2r.bmp	492	1	blank2r.bmp	786	1	GKQX	786	1	blank2r.bmp	866	2	leiden	866	1	!	1239	1	!	1332	0	0	0	0	0	0	0	0	0	0	0	0	0	0	0	0	0	0	0	0	0	0	0	0	0	0	0
011719	16:04:35	16:17:03	747785	5.0.10.0	4_exp_AWA_CON_EVA_AMP	78	Rpleas_acq	Same	Rpleas	Bmasked	CS_B	1pleas	distractor1	CONbeforeEVA	cond_new_pleas_123_masked_CS1	condtest_masked_3	10	6	400	1	300	300	0	0	400	50	0	1	0	0	0	1	blank2r.bmp	0	1	+	0	2	B2r.bmp	492	1	blank2r.bmp	786	1	BMVZ	786	1	blank2r.bmp	866	3	treu	866	1	!	1239	1	!	1306	0	0	0	0	0	0	0	0	0	0	0	0	0	0	0	0	0	0	0	0	0	0	0	0	0	0	0
011719	16:04:35	16:17:06	749998	5.0.10.0	4_exp_AWA_CON_EVA_AMP	78	Rpleas_acq	Same	Rpleas	Bmasked	CS_B	1pleas	distractor1	CONbeforeEVA	cond_new_unple_123_masked_CS1	condtest_masked_3	10	7	400	1	300	300	0	0	423	46	0	1	0	0	0	1	blank2r.bmp	0	1	+	0	3	B3r.bmp	492	1	blank2r.bmp	786	1	BMVZ	786	1	blank2r.bmp	866	1	schroff	866	1	!	1239	1	!	1319	0	0	0	0	0	0	0	0	0	0	0	0	0	0	0	0	0	0	0	0	0	0	0	0	0	0	0
011719	16:04:35	16:17:08	752237	5.0.10.0	4_exp_AWA_CON_EVA_AMP	78	Rpleas_acq	Same	Rpleas	Bmasked	CS_B	1pleas	distractor1	CONbeforeEVA	cond_new_pleas_123_masked_CS2	condtest_masked_3	10	8	400	1	300	300	0	0	446	50	0	1	0	0	0	1	blank2r.bmp	0	1	+	0	4	B4r.bmp	492	1	blank2r.bmp	786	1	GKQX	786	1	blank2r.bmp	866	2	ehrlich	866	1	!	1239	1	!	1346	0	0	0	0	0	0	0	0	0	0	0	0	0	0	0	0	0	0	0	0	0	0	0	0	0	0	0
011719	16:04:35	16:17:10	754383	5.0.10.0	4_exp_AWA_CON_EVA_AMP	78	Rpleas_acq	Same	Rpleas	Bmasked	CS_B	1pleas	distractor1	CONbeforeEVA	cond_new_unple_123_masked_CS2	condtest_masked_3	10	9	400	1	300	300	0	0	356	50	0	0	0	0	0	1	blank2r.bmp	0	1	+	0	1	B1r.bmp	492	1	blank2r.bmp	786	1	GKQX	786	1	blank2r.bmp	866	2	eitel	866	1	!	1239	1	!	1252	0	0	0	0	0	0	0	0	0	0	0	0	0	0	0	0	0	0	0	0	0	0	0	0	0	0	0
011719	16:04:35	16:17:12	756635	5.0.10.0	4_exp_AWA_CON_EVA_AMP	78	Rpleas_acq	Same	Rpleas	Bmasked	CS_B	1pleas	distractor1	CONbeforeEVA	cond_new_unple_123_masked_CS2	condtest_masked_3	10	10	400	1	300	300	0	0	459	46	0	1	0	0	0	1	blank2r.bmp	0	1	+	0	5	C1r.bmp	492	1	blank2r.bmp	786	1	GKQX	786	1	blank2r.bmp	866	3	tot	866	1	!	1239	1	!	1359	0	0	0	0	0	0	0	0	0	0	0	0	0	0	0	0	0	0	0	0	0	0	0	0	0	0	0
011719	16:04:35	16:17:14	758741	5.0.10.0	4_exp_AWA_CON_EVA_AMP	78	Rpleas_acq	Same	Rpleas	Bmasked	CS_B	1pleas	distractor1	CONbeforeEVA	cond_US_unple_456_masked_CS2	condtest_masked_3	10	11	400	0	300	300	0	0	328	50	0	0	0	0	0	1	blank2r.bmp	0	1	+	0	7	C3r.bmp	492	1	blank2r.bmp	786	1	GKQX	786	1	blank2r.bmp	866	1	strafen	866	1	!	-1	1	!	-1	0	0	0	0	0	0	0	0	0	0	0	0	0	0	0	0	0	0	0	0	0	0	0	0	0	0	0
011719	16:04:35	16:17:16	760833	5.0.10.0	4_exp_AWA_CON_EVA_AMP	78	Rpleas_acq	Same	Rpleas	Bmasked	CS_B	1pleas	distractor1	CONbeforeEVA	cond_new_unple_123_masked_CS1	condtest_masked_3	10	12	400	0	300	300	0	0	314	46	0	1	0	0	0	1	blank2r.bmp	0	1	+	0	8	C4r.bmp	492	1	blank2r.bmp	786	1	BMVZ	786	1	blank2r.bmp	866	1	schroff	866	1	!	-1	1	!	-1	0	0	0	0	0	0	0	0	0	0	0	0	0	0	0	0	0	0	0	0	0	0	0	0	0	0	0
011719	16:04:35	16:17:19	762966	5.0.10.0	4_exp_AWA_CON_EVA_AMP	78	Rpleas_acq	Same	Rpleas	Bmasked	CS_B	1pleas	distractor1	CONbeforeEVA	cond_US_unple_456_masked_CS1	condtest_masked_3	10	13	400	0	300	300	0	0	332	46	0	1	0	0	0	1	blank2r.bmp	0	1	+	0	5	C1r.bmp	492	1	blank2r.bmp	786	1	BMVZ	786	1	blank2r.bmp	866	1	strafen	866	1	!	-1	1	!	-1	0	0	0	0	0	0	0	0	0	0	0	0	0	0	0	0	0	0	0	0	0	0	0	0	0	0	0
011719	16:04:35	16:17:21	765205	5.0.10.0	4_exp_AWA_CON_EVA_AMP	78	Rpleas_acq	Same	Rpleas	Bmasked	CS_B	1pleas	distractor1	CONbeforeEVA	cond_new_unple_123_masked_CS2	condtest_masked_3	10	14	400	1	300	300	0	0	436	46	0	1	0	0	0	1	blank2r.bmp	0	1	+	0	2	B2r.bmp	492	1	blank2r.bmp	786	1	GKQX	786	1	blank2r.bmp	866	2	eitel	866	1	!	1239	1	!	1332	0	0	0	0	0	0	0	0	0	0	0	0	0	0	0	0	0	0	0	0	0	0	0	0	0	0	0
011719	16:04:35	16:17:23	767284	5.0.10.0	4_exp_AWA_CON_EVA_AMP	78	Rpleas_acq	Same	Rpleas	Bmasked	CS_B	1pleas	distractor1	CONbeforeEVA	cond_US_unple_456_masked_CS2	condtest_masked_3	10	15	400	0	300	300	0	0	309	50	0	0	0	0	0	1	blank2r.bmp	0	1	+	0	1	B1r.bmp	492	1	blank2r.bmp	786	1	GKQX	786	1	blank2r.bmp	866	2	leiden	866	1	!	-1	1	!	-1	0	0	0	0	0	0	0	0	0	0	0	0	0	0	0	0	0	0	0	0	0	0	0	0	0	0	0
011719	16:04:35	16:17:25	769563	5.0.10.0	4_exp_AWA_CON_EVA_AMP	78	Rpleas_acq	Same	Rpleas	Bmasked	CS_B	1pleas	distractor1	CONbeforeEVA	cond_new_pleas_123_masked_CS2	condtest_masked_3	10	16	400	1	300	300	0	0	466	50	0	1	0	0	0	1	blank2r.bmp	0	1	+	0	8	C4r.bmp	492	1	blank2r.bmp	786	1	GKQX	786	1	blank2r.bmp	866	2	ehrlich	866	1	!	1239	1	!	1372	0	0	0	0	0	0	0	0	0	0	0	0	0	0	0	0	0	0	0	0	0	0	0	0	0	0	0
011719	16:04:35	16:17:27	771642	5.0.10.0	4_exp_AWA_CON_EVA_AMP	78	Rpleas_acq	Same	Rpleas	Bmasked	CS_B	1pleas	distractor1	CONbeforeEVA	cond_US_pleas_456_masked_CS2	condtest_masked_3	10	17	400	0	300	300	0	0	313	46	0	0	0	0	0	1	blank2r.bmp	0	1	+	0	7	C3r.bmp	492	1	blank2r.bmp	786	1	GKQX	786	1	blank2r.bmp	866	3	loyal	866	1	!	-1	1	!	-1	0	0	0	0	0	0	0	0	0	0	0	0	0	0	0	0	0	0	0	0	0	0	0	0	0	0	0
011719	16:04:35	16:17:29	773855	5.0.10.0	4_exp_AWA_CON_EVA_AMP	78	Rpleas_acq	Same	Rpleas	Bmasked	CS_B	1pleas	distractor1	CONbeforeEVA	cond_new_unple_123_masked_CS2	condtest_masked_3	10	18	400	1	300	300	0	0	389	46	0	1	0	0	0	1	blank2r.bmp	0	1	+	0	4	B4r.bmp	492	1	blank2r.bmp	786	1	GKQX	786	1	blank2r.bmp	866	1	schroff	866	1	!	1239	1	!	1292	0	0	0	0	0	0	0	0	0	0	0	0	0	0	0	0	0	0	0	0	0	0	0	0	0	0	0
011719	16:04:35	16:17:32	776000	5.0.10.0	4_exp_AWA_CON_EVA_AMP	78	Rpleas_acq	Same	Rpleas	Bmasked	CS_B	1pleas	distractor1	CONbeforeEVA	cond_new_unple_123_masked_CS2	condtest_masked_3	10	19	400	1	300	300	0	0	349	46	0	1	0	0	0	1	blank2r.bmp	0	1	+	0	6	C2r.bmp	492	1	blank2r.bmp	786	1	GKQX	786	1	blank2r.bmp	866	2	eitel	866	1	!	1239	1	!	1252	0	0	0	0	0	0	0	0	0	0	0	0	0	0	0	0	0	0	0	0	0	0	0	0	0	0	0
011719	16:04:35	16:17:34	778066	5.0.10.0	4_exp_AWA_CON_EVA_AMP	78	Rpleas_acq	Same	Rpleas	Bmasked	CS_B	1pleas	distractor1	CONbeforeEVA	cond_new_pleas_123_masked_CS2	condtest_masked_3	10	20	400	0	300	300	0	0	294	46	0	0	0	0	0	1	blank2r.bmp	0	1	+	0	3	B3r.bmp	492	1	blank2r.bmp	786	1	GKQX	786	1	blank2r.bmp	866	1	schlau	866	1	!	-1	1	!	-1	0	0	0	0	0	0	0	0	0	0	0	0	0	0	0	0	0	0	0	0	0	0	0	0	0	0	0
011719	16:04:35	16:17:36	780239	5.0.10.0	4_exp_AWA_CON_EVA_AMP	78	Rpleas_acq	Same	Rpleas	Bmasked	CS_B	1pleas	distractor1	CONbeforeEVA	cond_new_pleas_123_masked_CS1	condtest_masked_3	10	21	400	1	300	300	0	0	370	46	0	0	0	0	0	1	blank2r.bmp	0	1	+	0	1	B1r.bmp	492	1	blank2r.bmp	786	1	BMVZ	786	1	blank2r.bmp	866	3	treu	866	1	!	1239	1	!	1266	0	0	0	0	0	0	0	0	0	0	0	0	0	0	0	0	0	0	0	0	0	0	0	0	0	0	0
011719	16:04:35	16:17:38	782424	5.0.10.0	4_exp_AWA_CON_EVA_AMP	78	Rpleas_acq	Same	Rpleas	Bmasked	CS_B	1pleas	distractor1	CONbeforeEVA	cond_US_pleas_456_masked_CS2	condtest_masked_3	10	22	400	1	300	300	0	0	391	50	0	1	0	0	0	1	blank2r.bmp	0	1	+	0	3	B3r.bmp	492	1	blank2r.bmp	786	1	GKQX	786	1	blank2r.bmp	866	2	lachen	866	1	!	1239	1	!	1292	0	0	0	0	0	0	0	0	0	0	0	0	0	0	0	0	0	0	0	0	0	0	0	0	0	0	0
011719	16:04:35	16:17:40	784570	5.0.10.0	4_exp_AWA_CON_EVA_AMP	78	Rpleas_acq	Same	Rpleas	Bmasked	CS_B	1pleas	distractor1	CONbeforeEVA	cond_new_pleas_123_masked_CS1	condtest_masked_3	10	23	400	1	300	300	0	0	346	50	0	1	0	0	0	1	blank2r.bmp	0	1	+	0	6	C2r.bmp	492	1	blank2r.bmp	786	1	BMVZ	786	1	blank2r.bmp	866	3	treu	866	1	!	1239	1	!	1252	0	0	0	0	0	0	0	0	0	0	0	0	0	0	0	0	0	0	0	0	0	0	0	0	0	0	0
011719	16:04:35	16:17:42	786663	5.0.10.0	4_exp_AWA_CON_EVA_AMP	78	Rpleas_acq	Same	Rpleas	Bmasked	CS_B	1pleas	distractor1	CONbeforeEVA	cond_US_pleas_456_masked_CS2	condtest_masked_3	10	24	400	0	300	300	0	0	329	50	0	1	0	0	0	1	blank2r.bmp	0	1	+	0	5	C1r.bmp	492	1	blank2r.bmp	786	1	GKQX	786	1	blank2r.bmp	866	3	loyal	866	1	!	-1	1	!	-1	0	0	0	0	0	0	0	0	0	0	0	0	0	0	0	0	0	0	0	0	0	0	0	0	0	0	0
011719	16:04:35	16:17:44	788742	5.0.10.0	4_exp_AWA_CON_EVA_AMP	78	Rpleas_acq	Same	Rpleas	Bmasked	CS_B	1pleas	distractor1	CONbeforeEVA	cond_US_pleas_456_masked_CS2	condtest_masked_3	10	25	400	0	300	300	0	0	298	50	0	1	0	0	0	1	blank2r.bmp	0	1	+	0	7	C3r.bmp	492	1	blank2r.bmp	786	1	GKQX	786	1	blank2r.bmp	866	1	spielen	866	1	!	-1	1	!	-1	0	0	0	0	0	0	0	0	0	0	0	0	0	0	0	0	0	0	0	0	0	0	0	0	0	0	0
011719	16:04:35	16:17:46	790834	5.0.10.0	4_exp_AWA_CON_EVA_AMP	78	Rpleas_acq	Same	Rpleas	Bmasked	CS_B	1pleas	distractor1	CONbeforeEVA	cond_new_pleas_123_masked_CS2	condtest_masked_3	10	26	400	0	300	300	0	0	302	46	0	0	0	0	0	1	blank2r.bmp	0	1	+	0	8	C4r.bmp	492	1	blank2r.bmp	786	1	GKQX	786	1	blank2r.bmp	866	2	ehrlich	866	1	!	-1	1	!	-1	0	0	0	0	0	0	0	0	0	0	0	0	0	0	0	0	0	0	0	0	0	0	0	0	0	0	0
011719	16:04:35	16:17:49	793140	5.0.10.0	4_exp_AWA_CON_EVA_AMP	78	Rpleas_acq	Same	Rpleas	Bmasked	CS_B	1pleas	distractor1	CONbeforeEVA	cond_US_unple_456_masked_CS2	condtest_masked_3	10	27	400	0	300	300	0	0	519	46	0	1	0	0	0	1	blank2r.bmp	0	1	+	0	4	B4r.bmp	492	1	blank2r.bmp	786	1	GKQX	786	1	blank2r.bmp	866	3	lasch	866	1	!	1239	1	!	-1	0	0	0	0	0	0	0	0	0	0	0	0	0	0	0	0	0	0	0	0	0	0	0	0	0	0	0
011719	16:04:35	16:17:51	795339	5.0.10.0	4_exp_AWA_CON_EVA_AMP	78	Rpleas_acq	Same	Rpleas	Bmasked	CS_B	1pleas	distractor1	CONbeforeEVA	cond_US_unple_456_masked_CS1	condtest_masked_3	10	28	400	1	300	300	0	0	375	46	0	1	0	0	0	1	blank2r.bmp	0	1	+	0	2	B2r.bmp	492	1	blank2r.bmp	786	1	BMVZ	786	1	blank2r.bmp	866	3	lasch	866	1	!	1239	1	!	1279	0	0	0	0	0	0	0	0	0	0	0	0	0	0	0	0	0	0	0	0	0	0	0	0	0	0	0
011719	16:04:35	16:17:53	797445	5.0.10.0	4_exp_AWA_CON_EVA_AMP	78	Rpleas_acq	Same	Rpleas	Bmasked	CS_B	1pleas	distractor1	CONbeforeEVA	cond_new_pleas_123_masked_CS2	condtest_masked_3	10	29	400	0	300	300	0	0	332	46	0	0	0	0	0	1	blank2r.bmp	0	1	+	0	1	B1r.bmp	492	1	blank2r.bmp	786	1	GKQX	786	1	blank2r.bmp	866	1	schlau	866	1	!	-1	1	!	-1	0	0	0	0	0	0	0	0	0	0	0	0	0	0	0	0	0	0	0	0	0	0	0	0	0	0	0
011719	16:04:35	16:17:55	799644	5.0.10.0	4_exp_AWA_CON_EVA_AMP	78	Rpleas_acq	Same	Rpleas	Bmasked	CS_B	1pleas	distractor1	CONbeforeEVA	cond_US_unple_456_masked_CS1	condtest_masked_3	10	30	400	1	300	300	0	0	379	46	0	1	0	0	0	1	blank2r.bmp	0	1	+	0	8	C4r.bmp	492	1	blank2r.bmp	786	1	BMVZ	786	1	blank2r.bmp	866	2	leiden	866	1	!	1239	1	!	1279	0	0	0	0	0	0	0	0	0	0	0	0	0	0	0	0	0	0	0	0	0	0	0	0	0	0	0
011719	16:04:35	16:17:57	801816	5.0.10.0	4_exp_AWA_CON_EVA_AMP	78	Rpleas_acq	Same	Rpleas	Bmasked	CS_B	1pleas	distractor1	CONbeforeEVA	cond_new_pleas_123_masked_CS1	condtest_masked_3	10	31	400	1	300	300	0	0	366	50	0	1	0	0	0	1	blank2r.bmp	0	1	+	0	6	C2r.bmp	492	1	blank2r.bmp	786	1	BMVZ	786	1	blank2r.bmp	866	2	ehrlich	866	1	!	1239	1	!	1266	0	0	0	0	0	0	0	0	0	0	0	0	0	0	0	0	0	0	0	0	0	0	0	0	0	0	0
011719	16:04:35	16:18:00	804015	5.0.10.0	4_exp_AWA_CON_EVA_AMP	78	Rpleas_acq	Same	Rpleas	Bmasked	CS_B	1pleas	distractor1	CONbeforeEVA	cond_new_unple_123_masked_CS1	condtest_masked_3	10	32	400	1	300	300	0	0	401	46	0	1	0	0	0	1	blank2r.bmp	0	1	+	0	2	B2r.bmp	492	1	blank2r.bmp	786	1	BMVZ	786	1	blank2r.bmp	866	3	tot	866	1	!	1239	1	!	1306	0	0	0	0	0	0	0	0	0	0	0	0	0	0	0	0	0	0	0	0	0	0	0	0	0	0	0
