date	time	script.currenttime	script.elapsedtime	build	script.currentexpt	subject	expressions.LRpleas_acq	expressions.SameOppo	expressions.condition_Lpleas	expressions.ABmasked	expressions.conditionCS_A	expressions.condition_1pleas	expressions.condition_distractor_AMP	expressions.AWACON_AMPEVA_first	trialcode	blockcode	blocknum	trialnum	windowcenter	inwindow	pretrialpause	posttrialpause	trialduration	trialtimeout	latency	response	expressions.correctedscore	correct	values.vis_performance	values.vis_rating_sum	values.vis_rating_mean	stimulusnumber1	stimulusitem1	stimulusonset1	stimulusnumber2	stimulusitem2	stimulusonset2	stimulusnumber3	stimulusitem3	stimulusonset3	stimulusnumber4	stimulusitem4	stimulusonset4	stimulusnumber5	stimulusitem5	stimulusonset5	stimulusnumber6	stimulusitem6	stimulusonset6	stimulusnumber7	stimulusitem7	stimulusonset7	stimulusnumber8	stimulusitem8	stimulusonset8	stimulusnumber9	stimulusitem9	stimulusonset9	stimulusnumber10	stimulusitem10	stimulusonset10	stimulusnumber11	stimulusitem11	stimulusonset11	stimulusnumber12	stimulusitem12	stimulusonset12	stimulusnumber13	stimulusitem13	stimulusonset13	stimulusnumber14	stimulusitem14	stimulusonset14	stimulusnumber15	stimulusitem15	stimulusonset15	stimulusnumber16	stimulusitem16	stimulusonset16	stimulusnumber17	stimulusitem17	stimulusonset17	stimulusnumber18	stimulusitem18	stimulusonset18
121918	15:19:38	15:21:45	126121	5.0.10.0	4_exp_EVA_AMP_AWA_CON	34	Rpleas_acq	Same	Rpleas	Bmasked	CS_B	1pleas	distractor2	EVAbeforeCON	acq_new_pleas_masked	acq1_masked	1	1	0	0	300	300	0	0	2447	50	0	1	0	0	0	1	blank2r.bmp	0	1	+	0	7	C3r.bmp	492	1	blank2r.bmp	786	6	C2r.bmp	786	1	blank2r.bmp	866	4	schlau	866	0	0	0	0	0	0	0	0	0	0	0	0	0	0	0	0	0	0	0	0	0	0	0	0	0	0	0	0	0	0	0	0	0
121918	15:19:38	15:21:47	128453	5.0.10.0	4_exp_EVA_AMP_AWA_CON	34	Rpleas_acq	Same	Rpleas	Bmasked	CS_B	1pleas	distractor2	EVAbeforeCON	acq_US_pleas_masked	acq1_masked	1	2	0	0	300	300	0	0	844	50	0	1	0	0	0	1	blank2r.bmp	0	1	+	0	1	B1r.bmp	492	1	blank2r.bmp	786	1	BMVZ	786	1	blank2r.bmp	866	3	lachen	866	0	0	0	0	0	0	0	0	0	0	0	0	0	0	0	0	0	0	0	0	0	0	0	0	0	0	0	0	0	0	0	0	0
121918	15:19:38	15:21:49	130732	5.0.10.0	4_exp_EVA_AMP_AWA_CON	34	Rpleas_acq	Same	Rpleas	Bmasked	CS_B	1pleas	distractor2	EVAbeforeCON	acq_new_unple_masked	acq1_masked	1	3	0	0	300	300	0	0	805	46	0	1	0	0	0	1	blank2r.bmp	0	1	+	0	5	C1r.bmp	492	1	blank2r.bmp	786	4	B4r.bmp	786	1	blank2r.bmp	866	3	strafen	866	0	0	0	0	0	0	0	0	0	0	0	0	0	0	0	0	0	0	0	0	0	0	0	0	0	0	0	0	0	0	0	0	0
121918	15:19:38	15:21:51	132891	5.0.10.0	4_exp_EVA_AMP_AWA_CON	34	Rpleas_acq	Same	Rpleas	Bmasked	CS_B	1pleas	distractor2	EVAbeforeCON	acq_new_unple_masked	acq1_masked	1	4	0	0	300	300	0	0	682	46	0	1	0	0	0	1	blank2r.bmp	0	1	+	0	3	B3r.bmp	492	1	blank2r.bmp	786	5	C1r.bmp	786	1	blank2r.bmp	866	1	tyrannisch	866	0	0	0	0	0	0	0	0	0	0	0	0	0	0	0	0	0	0	0	0	0	0	0	0	0	0	0	0	0	0	0	0	0
121918	15:19:38	15:21:54	135157	5.0.10.0	4_exp_EVA_AMP_AWA_CON	34	Rpleas_acq	Same	Rpleas	Bmasked	CS_B	1pleas	distractor2	EVAbeforeCON	acq_new_unple_masked	acq1_masked	1	5	0	0	300	300	0	0	779	46	0	1	0	0	0	1	blank2r.bmp	0	1	+	0	6	C2r.bmp	492	1	blank2r.bmp	786	1	B1r.bmp	786	1	blank2r.bmp	866	6	faul	866	0	0	0	0	0	0	0	0	0	0	0	0	0	0	0	0	0	0	0	0	0	0	0	0	0	0	0	0	0	0	0	0	0
121918	15:19:38	15:21:56	137623	5.0.10.0	4_exp_EVA_AMP_AWA_CON	34	Rpleas_acq	Same	Rpleas	Bmasked	CS_B	1pleas	distractor2	EVAbeforeCON	acq_US_unple_masked	acq1_masked	1	6	0	0	300	300	0	0	767	50	0	0	0	0	0	1	blank2r.bmp	0	1	+	0	4	B4r.bmp	492	1	blank2r.bmp	786	1	GKQX	786	1	blank2r.bmp	866	5	lasch	866	1	FEHLER	1665	0	0	0	0	0	0	0	0	0	0	0	0	0	0	0	0	0	0	0	0	0	0	0	0	0	0	0	0	0	0
121918	15:19:38	15:21:58	139795	5.0.10.0	4_exp_EVA_AMP_AWA_CON	34	Rpleas_acq	Same	Rpleas	Bmasked	CS_B	1pleas	distractor2	EVAbeforeCON	acq_new_pleas_masked	acq1_masked	1	7	0	0	300	300	0	0	894	50	0	1	0	0	0	1	blank2r.bmp	0	1	+	0	8	C4r.bmp	492	1	blank2r.bmp	786	3	B3r.bmp	786	1	blank2r.bmp	866	6	fair	866	0	0	0	0	0	0	0	0	0	0	0	0	0	0	0	0	0	0	0	0	0	0	0	0	0	0	0	0	0	0	0	0	0
121918	15:19:38	15:22:00	141914	5.0.10.0	4_exp_EVA_AMP_AWA_CON	34	Rpleas_acq	Same	Rpleas	Bmasked	CS_B	1pleas	distractor2	EVAbeforeCON	acq_US_pleas_masked	acq1_masked	1	8	0	0	300	300	0	0	643	50	0	1	0	0	0	1	blank2r.bmp	0	1	+	0	2	B2r.bmp	492	1	blank2r.bmp	786	1	BMVZ	786	1	blank2r.bmp	866	1	ehrlich	866	0	0	0	0	0	0	0	0	0	0	0	0	0	0	0	0	0	0	0	0	0	0	0	0	0	0	0	0	0	0	0	0	0
121918	15:19:38	15:22:03	144100	5.0.10.0	4_exp_EVA_AMP_AWA_CON	34	Rpleas_acq	Same	Rpleas	Bmasked	CS_B	1pleas	distractor2	EVAbeforeCON	acq_US_pleas_masked	acq1_masked	1	9	0	0	300	300	0	0	713	50	0	1	0	0	0	1	blank2r.bmp	0	1	+	0	6	C2r.bmp	492	1	blank2r.bmp	786	1	BMVZ	786	1	blank2r.bmp	866	6	retten	866	0	0	0	0	0	0	0	0	0	0	0	0	0	0	0	0	0	0	0	0	0	0	0	0	0	0	0	0	0	0	0	0	0
121918	15:19:38	15:22:05	146312	5.0.10.0	4_exp_EVA_AMP_AWA_CON	34	Rpleas_acq	Same	Rpleas	Bmasked	CS_B	1pleas	distractor2	EVAbeforeCON	acq_US_unple_masked	acq1_masked	1	10	0	0	300	300	0	0	738	46	0	1	0	0	0	1	blank2r.bmp	0	1	+	0	4	B4r.bmp	492	1	blank2r.bmp	786	1	GKQX	786	1	blank2r.bmp	866	2	schlecht	866	0	0	0	0	0	0	0	0	0	0	0	0	0	0	0	0	0	0	0	0	0	0	0	0	0	0	0	0	0	0	0	0	0
121918	15:19:38	15:22:07	148485	5.0.10.0	4_exp_EVA_AMP_AWA_CON	34	Rpleas_acq	Same	Rpleas	Bmasked	CS_B	1pleas	distractor2	EVAbeforeCON	acq_new_pleas_masked	acq1_masked	1	11	0	0	300	300	0	0	698	50	0	1	0	0	0	1	blank2r.bmp	0	1	+	0	3	B3r.bmp	492	1	blank2r.bmp	786	2	B2r.bmp	786	1	blank2r.bmp	866	5	treu	866	0	0	0	0	0	0	0	0	0	0	0	0	0	0	0	0	0	0	0	0	0	0	0	0	0	0	0	0	0	0	0	0	0
121918	15:19:38	15:22:09	150444	5.0.10.0	4_exp_EVA_AMP_AWA_CON	34	Rpleas_acq	Same	Rpleas	Bmasked	CS_B	1pleas	distractor2	EVAbeforeCON	acq_US_unple_masked	acq1_masked	1	12	0	0	300	300	0	0	483	46	0	1	0	0	0	1	blank2r.bmp	0	1	+	0	1	B1r.bmp	492	1	blank2r.bmp	786	1	GKQX	786	1	blank2r.bmp	866	6	rächen	866	0	0	0	0	0	0	0	0	0	0	0	0	0	0	0	0	0	0	0	0	0	0	0	0	0	0	0	0	0	0	0	0	0
121918	15:19:38	15:22:11	152456	5.0.10.0	4_exp_EVA_AMP_AWA_CON	34	Rpleas_acq	Same	Rpleas	Bmasked	CS_B	1pleas	distractor2	EVAbeforeCON	acq_US_unple_masked	acq1_masked	1	13	0	0	300	300	0	0	530	46	0	1	0	0	0	1	blank2r.bmp	0	1	+	0	5	C1r.bmp	492	1	blank2r.bmp	786	1	GKQX	786	1	blank2r.bmp	866	4	fanatisch	866	0	0	0	0	0	0	0	0	0	0	0	0	0	0	0	0	0	0	0	0	0	0	0	0	0	0	0	0	0	0	0	0	0
121918	15:19:38	15:22:13	154416	5.0.10.0	4_exp_EVA_AMP_AWA_CON	34	Rpleas_acq	Same	Rpleas	Bmasked	CS_B	1pleas	distractor2	EVAbeforeCON	acq_new_unple_masked	acq1_masked	1	14	0	0	300	300	0	0	476	46	0	1	0	0	0	1	blank2r.bmp	0	1	+	0	8	C4r.bmp	492	1	blank2r.bmp	786	7	C3r.bmp	786	1	blank2r.bmp	866	5	tot	866	0	0	0	0	0	0	0	0	0	0	0	0	0	0	0	0	0	0	0	0	0	0	0	0	0	0	0	0	0	0	0	0	0
121918	15:19:38	15:22:15	156335	5.0.10.0	4_exp_EVA_AMP_AWA_CON	34	Rpleas_acq	Same	Rpleas	Bmasked	CS_B	1pleas	distractor2	EVAbeforeCON	acq_US_pleas_masked	acq1_masked	1	15	0	0	300	300	0	0	434	50	0	1	0	0	0	1	blank2r.bmp	0	1	+	0	7	C3r.bmp	492	1	blank2r.bmp	786	1	BMVZ	786	1	blank2r.bmp	866	5	loyal	866	0	0	0	0	0	0	0	0	0	0	0	0	0	0	0	0	0	0	0	0	0	0	0	0	0	0	0	0	0	0	0	0	0
121918	15:19:38	15:22:17	158627	5.0.10.0	4_exp_EVA_AMP_AWA_CON	34	Rpleas_acq	Same	Rpleas	Bmasked	CS_B	1pleas	distractor2	EVAbeforeCON	acq_US_pleas_masked	acq1_masked	1	16	0	0	300	300	0	0	800	50	0	1	0	0	0	1	blank2r.bmp	0	1	+	0	2	B2r.bmp	492	1	blank2r.bmp	786	1	BMVZ	786	1	blank2r.bmp	866	2	schön	866	0	0	0	0	0	0	0	0	0	0	0	0	0	0	0	0	0	0	0	0	0	0	0	0	0	0	0	0	0	0	0	0	0
121918	15:19:38	15:22:19	160773	5.0.10.0	4_exp_EVA_AMP_AWA_CON	34	Rpleas_acq	Same	Rpleas	Bmasked	CS_B	1pleas	distractor2	EVAbeforeCON	acq_new_pleas_masked	acq1_masked	1	17	0	0	300	300	0	0	667	50	0	1	0	0	0	1	blank2r.bmp	0	1	+	0	8	C4r.bmp	492	1	blank2r.bmp	786	8	C4r.bmp	786	1	blank2r.bmp	866	3	spielen	866	0	0	0	0	0	0	0	0	0	0	0	0	0	0	0	0	0	0	0	0	0	0	0	0	0	0	0	0	0	0	0	0	0
121918	15:19:38	15:22:21	162812	5.0.10.0	4_exp_EVA_AMP_AWA_CON	34	Rpleas_acq	Same	Rpleas	Bmasked	CS_B	1pleas	distractor2	EVAbeforeCON	acq_US_pleas_masked	acq1_masked	1	18	0	0	300	300	0	0	553	50	0	1	0	0	0	1	blank2r.bmp	0	1	+	0	1	B1r.bmp	492	1	blank2r.bmp	786	1	BMVZ	786	1	blank2r.bmp	866	4	freundlich	866	0	0	0	0	0	0	0	0	0	0	0	0	0	0	0	0	0	0	0	0	0	0	0	0	0	0	0	0	0	0	0	0	0
121918	15:19:38	15:22:24	165451	5.0.10.0	4_exp_EVA_AMP_AWA_CON	34	Rpleas_acq	Same	Rpleas	Bmasked	CS_B	1pleas	distractor2	EVAbeforeCON	acq_new_unple_masked	acq1_masked	1	19	0	0	300	300	0	0	1151	46	0	1	0	0	0	1	blank2r.bmp	0	1	+	0	3	B3r.bmp	492	1	blank2r.bmp	786	8	C4r.bmp	786	1	blank2r.bmp	866	2	hindern	866	0	0	0	0	0	0	0	0	0	0	0	0	0	0	0	0	0	0	0	0	0	0	0	0	0	0	0	0	0	0	0	0	0
121918	15:19:38	15:22:26	167663	5.0.10.0	4_exp_EVA_AMP_AWA_CON	34	Rpleas_acq	Same	Rpleas	Bmasked	CS_B	1pleas	distractor2	EVAbeforeCON	acq_new_pleas_masked	acq1_masked	1	20	0	0	300	300	0	0	722	50	0	1	0	0	0	1	blank2r.bmp	0	1	+	0	7	C3r.bmp	492	1	blank2r.bmp	786	3	B3r.bmp	786	1	blank2r.bmp	866	2	helfen	866	0	0	0	0	0	0	0	0	0	0	0	0	0	0	0	0	0	0	0	0	0	0	0	0	0	0	0	0	0	0	0	0	0
121918	15:19:38	15:22:30	171355	5.0.10.0	4_exp_EVA_AMP_AWA_CON	34	Rpleas_acq	Same	Rpleas	Bmasked	CS_B	1pleas	distractor2	EVAbeforeCON	acq_US_unple_masked	acq1_masked	1	21	0	0	300	300	0	0	2198	46	0	1	0	0	0	1	blank2r.bmp	0	1	+	0	2	B2r.bmp	492	1	blank2r.bmp	786	1	GKQX	786	1	blank2r.bmp	866	3	leiden	866	0	0	0	0	0	0	0	0	0	0	0	0	0	0	0	0	0	0	0	0	0	0	0	0	0	0	0	0	0	0	0	0	0
121918	15:19:38	15:22:32	173661	5.0.10.0	4_exp_EVA_AMP_AWA_CON	34	Rpleas_acq	Same	Rpleas	Bmasked	CS_B	1pleas	distractor2	EVAbeforeCON	acq_US_unple_masked	acq1_masked	1	22	0	0	300	300	0	0	621	50	0	0	0	0	0	1	blank2r.bmp	0	1	+	0	5	C1r.bmp	492	1	blank2r.bmp	786	1	GKQX	786	1	blank2r.bmp	866	1	eitel	866	1	FEHLER	1519	0	0	0	0	0	0	0	0	0	0	0	0	0	0	0	0	0	0	0	0	0	0	0	0	0	0	0	0	0	0
121918	15:19:38	15:22:34	175873	5.0.10.0	4_exp_EVA_AMP_AWA_CON	34	Rpleas_acq	Same	Rpleas	Bmasked	CS_B	1pleas	distractor2	EVAbeforeCON	acq_new_pleas_masked	acq1_masked	1	23	0	0	300	300	0	0	718	46	0	0	0	0	0	1	blank2r.bmp	0	1	+	0	4	B4r.bmp	492	1	blank2r.bmp	786	6	C2r.bmp	786	1	blank2r.bmp	866	1	tolerant	866	1	FEHLER	1625	0	0	0	0	0	0	0	0	0	0	0	0	0	0	0	0	0	0	0	0	0	0	0	0	0	0	0	0	0	0
121918	15:19:38	15:22:37	178499	5.0.10.0	4_exp_EVA_AMP_AWA_CON	34	Rpleas_acq	Same	Rpleas	Bmasked	CS_B	1pleas	distractor2	EVAbeforeCON	acq_new_unple_masked	acq1_masked	1	24	0	0	300	300	0	0	1359	46	0	1	0	0	0	1	blank2r.bmp	0	1	+	0	6	C2r.bmp	492	1	blank2r.bmp	786	4	B4r.bmp	786	1	blank2r.bmp	866	4	schroff	866	0	0	0	0	0	0	0	0	0	0	0	0	0	0	0	0	0	0	0	0	0	0	0	0	0	0	0	0	0	0	0	0	0
121918	15:19:38	15:22:39	180858	5.0.10.0	4_exp_EVA_AMP_AWA_CON	34	Rpleas_acq	Same	Rpleas	Bmasked	CS_B	1pleas	distractor2	EVAbeforeCON	acq_new_unple_masked	acq1_masked	1	25	0	0	300	300	0	0	887	46	0	1	0	0	0	1	blank2r.bmp	0	1	+	0	2	B2r.bmp	492	1	blank2r.bmp	786	1	B1r.bmp	786	1	blank2r.bmp	866	2	hindern	866	0	0	0	0	0	0	0	0	0	0	0	0	0	0	0	0	0	0	0	0	0	0	0	0	0	0	0	0	0	0	0	0	0
121918	15:19:38	15:22:42	183070	5.0.10.0	4_exp_EVA_AMP_AWA_CON	34	Rpleas_acq	Same	Rpleas	Bmasked	CS_B	1pleas	distractor2	EVAbeforeCON	acq_US_unple_masked	acq1_masked	1	26	0	0	300	300	0	0	510	50	0	0	0	0	0	1	blank2r.bmp	0	1	+	0	6	C2r.bmp	492	1	blank2r.bmp	786	1	GKQX	786	1	blank2r.bmp	866	2	schlecht	866	1	FEHLER	1412	0	0	0	0	0	0	0	0	0	0	0	0	0	0	0	0	0	0	0	0	0	0	0	0	0	0	0	0	0	0
121918	15:19:38	15:22:44	185563	5.0.10.0	4_exp_EVA_AMP_AWA_CON	34	Rpleas_acq	Same	Rpleas	Bmasked	CS_B	1pleas	distractor2	EVAbeforeCON	acq_US_pleas_masked	acq1_masked	1	27	0	0	300	300	0	0	1223	50	0	1	0	0	0	1	blank2r.bmp	0	1	+	0	4	B4r.bmp	492	1	blank2r.bmp	786	1	BMVZ	786	1	blank2r.bmp	866	5	loyal	866	0	0	0	0	0	0	0	0	0	0	0	0	0	0	0	0	0	0	0	0	0	0	0	0	0	0	0	0	0	0	0	0	0
121918	15:19:38	15:22:49	190761	5.0.10.0	4_exp_EVA_AMP_AWA_CON	34	Rpleas_acq	Same	Rpleas	Bmasked	CS_B	1pleas	distractor2	EVAbeforeCON	acq_new_pleas_masked	acq1_masked	1	28	0	0	300	300	0	0	3699	50	0	1	0	0	0	1	blank2r.bmp	0	1	+	0	3	B3r.bmp	492	1	blank2r.bmp	786	2	B2r.bmp	786	1	blank2r.bmp	866	2	helfen	866	0	0	0	0	0	0	0	0	0	0	0	0	0	0	0	0	0	0	0	0	0	0	0	0	0	0	0	0	0	0	0	0	0
121918	15:19:38	15:22:54	195252	5.0.10.0	4_exp_EVA_AMP_AWA_CON	34	Rpleas_acq	Same	Rpleas	Bmasked	CS_B	1pleas	distractor2	EVAbeforeCON	acq_US_unple_masked	acq1_masked	1	29	0	0	300	300	0	0	2809	50	0	0	0	0	0	1	blank2r.bmp	0	1	+	0	1	B1r.bmp	492	1	blank2r.bmp	786	1	GKQX	786	1	blank2r.bmp	866	1	eitel	866	1	FEHLER	3705	0	0	0	0	0	0	0	0	0	0	0	0	0	0	0	0	0	0	0	0	0	0	0	0	0	0	0	0	0	0
121918	15:19:38	15:22:56	197571	5.0.10.0	4_exp_EVA_AMP_AWA_CON	34	Rpleas_acq	Same	Rpleas	Bmasked	CS_B	1pleas	distractor2	EVAbeforeCON	acq_US_pleas_masked	acq1_masked	1	30	0	0	300	300	0	0	1047	50	0	1	0	0	0	1	blank2r.bmp	0	1	+	0	8	C4r.bmp	492	1	blank2r.bmp	786	1	BMVZ	786	1	blank2r.bmp	866	4	freundlich	866	0	0	0	0	0	0	0	0	0	0	0	0	0	0	0	0	0	0	0	0	0	0	0	0	0	0	0	0	0	0	0	0	0
121918	15:19:38	15:22:58	199664	5.0.10.0	4_exp_EVA_AMP_AWA_CON	34	Rpleas_acq	Same	Rpleas	Bmasked	CS_B	1pleas	distractor2	EVAbeforeCON	acq_US_unple_masked	acq1_masked	1	31	0	0	300	300	0	0	602	46	0	1	0	0	0	1	blank2r.bmp	0	1	+	0	5	C1r.bmp	492	1	blank2r.bmp	786	1	GKQX	786	1	blank2r.bmp	866	6	rächen	866	0	0	0	0	0	0	0	0	0	0	0	0	0	0	0	0	0	0	0	0	0	0	0	0	0	0	0	0	0	0	0	0	0
121918	15:19:38	15:23:00	201849	5.0.10.0	4_exp_EVA_AMP_AWA_CON	34	Rpleas_acq	Same	Rpleas	Bmasked	CS_B	1pleas	distractor2	EVAbeforeCON	acq_new_pleas_masked	acq1_masked	1	32	0	0	300	300	0	0	711	50	0	1	0	0	0	1	blank2r.bmp	0	1	+	0	7	C3r.bmp	492	1	blank2r.bmp	786	5	C1r.bmp	786	1	blank2r.bmp	866	6	fair	866	0	0	0	0	0	0	0	0	0	0	0	0	0	0	0	0	0	0	0	0	0	0	0	0	0	0	0	0	0	0	0	0	0
121918	15:19:38	15:23:03	204448	5.0.10.0	4_exp_EVA_AMP_AWA_CON	34	Rpleas_acq	Same	Rpleas	Bmasked	CS_B	1pleas	distractor2	EVAbeforeCON	acq_US_pleas_masked	acq1_masked	1	33	0	0	300	300	0	0	1121	50	0	1	0	0	0	1	blank2r.bmp	0	1	+	0	7	C3r.bmp	492	1	blank2r.bmp	786	1	BMVZ	786	1	blank2r.bmp	866	1	ehrlich	866	0	0	0	0	0	0	0	0	0	0	0	0	0	0	0	0	0	0	0	0	0	0	0	0	0	0	0	0	0	0	0	0	0
121918	15:19:38	15:23:06	207580	5.0.10.0	4_exp_EVA_AMP_AWA_CON	34	Rpleas_acq	Same	Rpleas	Bmasked	CS_B	1pleas	distractor2	EVAbeforeCON	acq_new_pleas_masked	acq1_masked	1	34	0	0	300	300	0	0	1647	50	0	1	0	0	0	1	blank2r.bmp	0	1	+	0	4	B4r.bmp	492	1	blank2r.bmp	786	7	C3r.bmp	786	1	blank2r.bmp	866	5	treu	866	0	0	0	0	0	0	0	0	0	0	0	0	0	0	0	0	0	0	0	0	0	0	0	0	0	0	0	0	0	0	0	0	0
121918	15:19:38	15:23:08	209566	5.0.10.0	4_exp_EVA_AMP_AWA_CON	34	Rpleas_acq	Same	Rpleas	Bmasked	CS_B	1pleas	distractor2	EVAbeforeCON	acq_new_unple_masked	acq1_masked	1	35	0	0	300	300	0	0	492	46	0	1	0	0	0	1	blank2r.bmp	0	1	+	0	8	C4r.bmp	492	1	blank2r.bmp	786	4	B4r.bmp	786	1	blank2r.bmp	866	5	tot	866	0	0	0	0	0	0	0	0	0	0	0	0	0	0	0	0	0	0	0	0	0	0	0	0	0	0	0	0	0	0	0	0	0
121918	15:19:38	15:23:11	212019	5.0.10.0	4_exp_EVA_AMP_AWA_CON	34	Rpleas_acq	Same	Rpleas	Bmasked	CS_B	1pleas	distractor2	EVAbeforeCON	acq_new_unple_masked	acq1_masked	1	36	0	0	300	300	0	0	974	46	0	1	0	0	0	1	blank2r.bmp	0	1	+	0	2	B2r.bmp	492	1	blank2r.bmp	786	5	C1r.bmp	786	1	blank2r.bmp	866	3	strafen	866	0	0	0	0	0	0	0	0	0	0	0	0	0	0	0	0	0	0	0	0	0	0	0	0	0	0	0	0	0	0	0	0	0
121918	15:19:38	15:24:04	265730	5.0.10.0	4_exp_EVA_AMP_AWA_CON	34	Rpleas_acq	Same	Rpleas	Bmasked	CS_B	1pleas	distractor2	EVAbeforeCON	acq_new_unple_masked	acq2_masked	2	1	480	0	300	300	0	0	1000	46	0	1	0	0	0	1	blank2r.bmp	0	1	+	0	6	C2r.bmp	492	1	blank2r.bmp	786	1	B1r.bmp	786	1	blank2r.bmp	866	1	tyrannisch	866	1	!	1319	1	!	-1	0	0	0	0	0	0	0	0	0	0	0	0	0	0	0	0	0	0	0	0	0	0	0	0	0	0	0
121918	15:19:38	15:24:07	268222	5.0.10.0	4_exp_EVA_AMP_AWA_CON	34	Rpleas_acq	Same	Rpleas	Bmasked	CS_B	1pleas	distractor2	EVAbeforeCON	acq_US_unple_masked	acq2_masked	2	2	480	0	300	300	0	0	698	46	0	1	0	0	0	1	blank2r.bmp	0	1	+	0	5	C1r.bmp	492	1	blank2r.bmp	786	1	GKQX	786	1	blank2r.bmp	866	5	lasch	866	1	!	1319	1	!	-1	0	0	0	0	0	0	0	0	0	0	0	0	0	0	0	0	0	0	0	0	0	0	0	0	0	0	0
121918	15:19:38	15:24:09	270888	5.0.10.0	4_exp_EVA_AMP_AWA_CON	34	Rpleas_acq	Same	Rpleas	Bmasked	CS_B	1pleas	distractor2	EVAbeforeCON	acq_US_pleas_masked	acq2_masked	2	3	480	0	300	300	0	0	659	46	0	0	0	0	0	1	blank2r.bmp	0	1	+	0	3	B3r.bmp	492	1	blank2r.bmp	786	1	BMVZ	786	1	blank2r.bmp	866	6	retten	866	1	FEHLER	1865	1	!	1319	1	!	-1	0	0	0	0	0	0	0	0	0	0	0	0	0	0	0	0	0	0	0	0	0	0	0	0
121918	15:19:38	15:24:12	273033	5.0.10.0	4_exp_EVA_AMP_AWA_CON	34	Rpleas_acq	Same	Rpleas	Bmasked	CS_B	1pleas	distractor2	EVAbeforeCON	acq_US_pleas_masked	acq2_masked	2	4	480	0	300	300	0	0	597	50	0	1	0	0	0	1	blank2r.bmp	0	1	+	0	1	B1r.bmp	492	1	blank2r.bmp	786	1	BMVZ	786	1	blank2r.bmp	866	3	lachen	866	1	!	1319	1	!	-1	0	0	0	0	0	0	0	0	0	0	0	0	0	0	0	0	0	0	0	0	0	0	0	0	0	0	0
121918	15:19:38	15:24:14	275579	5.0.10.0	4_exp_EVA_AMP_AWA_CON	34	Rpleas_acq	Same	Rpleas	Bmasked	CS_B	1pleas	distractor2	EVAbeforeCON	acq_US_unple_masked	acq2_masked	2	5	480	0	300	300	0	0	761	46	0	1	0	0	0	1	blank2r.bmp	0	1	+	0	4	B4r.bmp	492	1	blank2r.bmp	786	1	GKQX	786	1	blank2r.bmp	866	4	fanatisch	866	1	!	1319	1	!	-1	0	0	0	0	0	0	0	0	0	0	0	0	0	0	0	0	0	0	0	0	0	0	0	0	0	0	0
121918	15:19:38	15:24:16	277925	5.0.10.0	4_exp_EVA_AMP_AWA_CON	34	Rpleas_acq	Same	Rpleas	Bmasked	CS_B	1pleas	distractor2	EVAbeforeCON	acq_new_unple_masked	acq2_masked	2	6	480	0	300	300	0	0	570	46	0	1	0	0	0	1	blank2r.bmp	0	1	+	0	2	B2r.bmp	492	1	blank2r.bmp	786	6	C2r.bmp	786	1	blank2r.bmp	866	4	schroff	866	1	!	1319	1	!	-1	0	0	0	0	0	0	0	0	0	0	0	0	0	0	0	0	0	0	0	0	0	0	0	0	0	0	0
121918	15:19:38	15:24:19	280657	5.0.10.0	4_exp_EVA_AMP_AWA_CON	34	Rpleas_acq	Same	Rpleas	Bmasked	CS_B	1pleas	distractor2	EVAbeforeCON	acq_new_pleas_masked	acq2_masked	2	7	480	0	300	300	0	0	725	46	0	0	0	0	0	1	blank2r.bmp	0	1	+	0	7	C3r.bmp	492	1	blank2r.bmp	786	3	B3r.bmp	786	1	blank2r.bmp	866	3	spielen	866	1	FEHLER	1932	1	!	1319	1	!	-1	0	0	0	0	0	0	0	0	0	0	0	0	0	0	0	0	0	0	0	0	0	0	0	0
121918	15:19:38	15:24:21	282909	5.0.10.0	4_exp_EVA_AMP_AWA_CON	34	Rpleas_acq	Same	Rpleas	Bmasked	CS_B	1pleas	distractor2	EVAbeforeCON	acq_US_unple_masked	acq2_masked	2	8	480	0	300	300	0	0	701	46	0	1	0	0	0	1	blank2r.bmp	0	1	+	0	5	C1r.bmp	492	1	blank2r.bmp	786	1	GKQX	786	1	blank2r.bmp	866	3	leiden	866	1	!	1319	1	!	-1	0	0	0	0	0	0	0	0	0	0	0	0	0	0	0	0	0	0	0	0	0	0	0	0	0	0	0
121918	15:19:38	15:24:24	285268	5.0.10.0	4_exp_EVA_AMP_AWA_CON	34	Rpleas_acq	Same	Rpleas	Bmasked	CS_B	1pleas	distractor2	EVAbeforeCON	acq_new_unple_masked	acq2_masked	2	9	480	0	300	300	0	0	574	46	0	1	0	0	0	1	blank2r.bmp	0	1	+	0	8	C4r.bmp	492	1	blank2r.bmp	786	7	C3r.bmp	786	1	blank2r.bmp	866	6	faul	866	1	!	1319	1	!	-1	0	0	0	0	0	0	0	0	0	0	0	0	0	0	0	0	0	0	0	0	0	0	0	0	0	0	0
121918	15:19:38	15:24:26	287694	5.0.10.0	4_exp_EVA_AMP_AWA_CON	34	Rpleas_acq	Same	Rpleas	Bmasked	CS_B	1pleas	distractor2	EVAbeforeCON	acq_new_pleas_masked	acq2_masked	2	10	480	0	300	300	0	0	644	50	0	1	0	0	0	1	blank2r.bmp	0	1	+	0	1	B1r.bmp	492	1	blank2r.bmp	786	8	C4r.bmp	786	1	blank2r.bmp	866	1	tolerant	866	1	!	1319	1	!	-1	0	0	0	0	0	0	0	0	0	0	0	0	0	0	0	0	0	0	0	0	0	0	0	0	0	0	0
121918	15:19:38	15:24:29	290106	5.0.10.0	4_exp_EVA_AMP_AWA_CON	34	Rpleas_acq	Same	Rpleas	Bmasked	CS_B	1pleas	distractor2	EVAbeforeCON	acq_new_pleas_masked	acq2_masked	2	11	480	0	300	300	0	0	397	46	0	0	0	0	0	1	blank2r.bmp	0	1	+	0	3	B3r.bmp	492	1	blank2r.bmp	786	2	B2r.bmp	786	1	blank2r.bmp	866	4	schlau	866	1	FEHLER	1599	1	!	-1	1	!	-1	0	0	0	0	0	0	0	0	0	0	0	0	0	0	0	0	0	0	0	0	0	0	0	0
121918	15:19:38	15:24:31	292026	5.0.10.0	4_exp_EVA_AMP_AWA_CON	34	Rpleas_acq	Same	Rpleas	Bmasked	CS_B	1pleas	distractor2	EVAbeforeCON	acq_US_pleas_masked	acq2_masked	2	12	480	0	300	300	0	0	351	50	0	1	0	0	0	1	blank2r.bmp	0	1	+	0	6	C2r.bmp	492	1	blank2r.bmp	786	1	BMVZ	786	1	blank2r.bmp	866	2	schön	866	1	!	-1	1	!	-1	0	0	0	0	0	0	0	0	0	0	0	0	0	0	0	0	0	0	0	0	0	0	0	0	0	0	0
121918	15:19:38	15:24:33	294598	5.0.10.0	4_exp_EVA_AMP_AWA_CON	34	Rpleas_acq	Same	Rpleas	Bmasked	CS_B	1pleas	distractor2	EVAbeforeCON	acq_new_pleas_masked	acq2_masked	2	13	480	0	300	300	0	0	559	46	0	0	0	0	0	1	blank2r.bmp	0	1	+	0	1	B1r.bmp	492	1	blank2r.bmp	786	2	B2r.bmp	786	1	blank2r.bmp	866	5	treu	866	1	FEHLER	1772	1	!	1319	1	!	-1	0	0	0	0	0	0	0	0	0	0	0	0	0	0	0	0	0	0	0	0	0	0	0	0
121918	15:19:38	15:24:35	296957	5.0.10.0	4_exp_EVA_AMP_AWA_CON	34	Rpleas_acq	Same	Rpleas	Bmasked	CS_B	1pleas	distractor2	EVAbeforeCON	acq_US_unple_masked	acq2_masked	2	14	480	0	300	300	0	0	565	50	0	0	0	0	0	1	blank2r.bmp	0	1	+	0	8	C4r.bmp	492	1	blank2r.bmp	786	1	GKQX	786	1	blank2r.bmp	866	2	schlecht	866	1	FEHLER	1772	1	!	1319	1	!	-1	0	0	0	0	0	0	0	0	0	0	0	0	0	0	0	0	0	0	0	0	0	0	0	0
121918	15:19:38	15:24:38	299383	5.0.10.0	4_exp_EVA_AMP_AWA_CON	34	Rpleas_acq	Same	Rpleas	Bmasked	CS_B	1pleas	distractor2	EVAbeforeCON	acq_US_pleas_masked	acq2_masked	2	15	480	0	300	300	0	0	871	50	0	1	0	0	0	1	blank2r.bmp	0	1	+	0	7	C3r.bmp	492	1	blank2r.bmp	786	1	BMVZ	786	1	blank2r.bmp	866	1	ehrlich	866	1	!	1319	1	!	-1	0	0	0	0	0	0	0	0	0	0	0	0	0	0	0	0	0	0	0	0	0	0	0	0	0	0	0
121918	15:19:38	15:24:40	301568	5.0.10.0	4_exp_EVA_AMP_AWA_CON	34	Rpleas_acq	Same	Rpleas	Bmasked	CS_B	1pleas	distractor2	EVAbeforeCON	acq_new_unple_masked	acq2_masked	2	16	480	0	300	300	0	0	405	46	0	1	0	0	0	1	blank2r.bmp	0	1	+	0	3	B3r.bmp	492	1	blank2r.bmp	786	1	B1r.bmp	786	1	blank2r.bmp	866	1	tyrannisch	866	1	!	-1	1	!	-1	0	0	0	0	0	0	0	0	0	0	0	0	0	0	0	0	0	0	0	0	0	0	0	0	0	0	0
121918	15:19:38	15:24:42	303927	5.0.10.0	4_exp_EVA_AMP_AWA_CON	34	Rpleas_acq	Same	Rpleas	Bmasked	CS_B	1pleas	distractor2	EVAbeforeCON	acq_new_pleas_masked	acq2_masked	2	17	480	0	300	300	0	0	585	50	0	1	0	0	0	1	blank2r.bmp	0	1	+	0	4	B4r.bmp	492	1	blank2r.bmp	786	3	B3r.bmp	786	1	blank2r.bmp	866	6	fair	866	1	!	1319	1	!	-1	0	0	0	0	0	0	0	0	0	0	0	0	0	0	0	0	0	0	0	0	0	0	0	0	0	0	0
121918	15:19:38	15:24:45	306819	5.0.10.0	4_exp_EVA_AMP_AWA_CON	34	Rpleas_acq	Same	Rpleas	Bmasked	CS_B	1pleas	distractor2	EVAbeforeCON	acq_US_pleas_masked	acq2_masked	2	18	480	0	300	300	0	0	884	46	0	0	0	0	0	1	blank2r.bmp	0	1	+	0	5	C1r.bmp	492	1	blank2r.bmp	786	1	BMVZ	786	1	blank2r.bmp	866	6	retten	866	1	FEHLER	2092	1	!	1319	1	!	-1	0	0	0	0	0	0	0	0	0	0	0	0	0	0	0	0	0	0	0	0	0	0	0	0
121918	15:19:38	15:24:47	308912	5.0.10.0	4_exp_EVA_AMP_AWA_CON	34	Rpleas_acq	Same	Rpleas	Bmasked	CS_B	1pleas	distractor2	EVAbeforeCON	acq_new_unple_masked	acq2_masked	2	19	480	1	300	300	0	0	514	46	0	1	0	0	0	1	blank2r.bmp	0	1	+	0	6	C2r.bmp	492	1	blank2r.bmp	786	5	C1r.bmp	786	1	blank2r.bmp	866	5	tot	866	1	!	1319	1	!	1412	0	0	0	0	0	0	0	0	0	0	0	0	0	0	0	0	0	0	0	0	0	0	0	0	0	0	0
121918	15:19:38	15:24:50	311031	5.0.10.0	4_exp_EVA_AMP_AWA_CON	34	Rpleas_acq	Same	Rpleas	Bmasked	CS_B	1pleas	distractor2	EVAbeforeCON	acq_new_unple_masked	acq2_masked	2	20	480	0	300	300	0	0	355	46	0	1	0	0	0	1	blank2r.bmp	0	1	+	0	2	B2r.bmp	492	1	blank2r.bmp	786	4	B4r.bmp	786	1	blank2r.bmp	866	3	strafen	866	1	!	-1	1	!	-1	0	0	0	0	0	0	0	0	0	0	0	0	0	0	0	0	0	0	0	0	0	0	0	0	0	0	0
121918	15:19:38	15:24:52	313577	5.0.10.0	4_exp_EVA_AMP_AWA_CON	34	Rpleas_acq	Same	Rpleas	Bmasked	CS_B	1pleas	distractor2	EVAbeforeCON	acq_new_pleas_masked	acq2_masked	2	21	480	1	300	300	0	0	514	46	0	0	0	0	0	1	blank2r.bmp	0	1	+	0	2	B2r.bmp	492	1	blank2r.bmp	786	7	C3r.bmp	786	1	blank2r.bmp	866	2	helfen	866	1	FEHLER	1732	1	!	1319	1	!	1412	0	0	0	0	0	0	0	0	0	0	0	0	0	0	0	0	0	0	0	0	0	0	0	0
121918	15:19:38	15:24:54	315829	5.0.10.0	4_exp_EVA_AMP_AWA_CON	34	Rpleas_acq	Same	Rpleas	Bmasked	CS_B	1pleas	distractor2	EVAbeforeCON	acq_US_pleas_masked	acq2_masked	2	22	480	0	300	300	0	0	691	50	0	1	0	0	0	1	blank2r.bmp	0	1	+	0	7	C3r.bmp	492	1	blank2r.bmp	786	1	BMVZ	786	1	blank2r.bmp	866	5	loyal	866	1	!	1319	1	!	-1	0	0	0	0	0	0	0	0	0	0	0	0	0	0	0	0	0	0	0	0	0	0	0	0	0	0	0
121918	15:19:38	15:24:57	318335	5.0.10.0	4_exp_EVA_AMP_AWA_CON	34	Rpleas_acq	Same	Rpleas	Bmasked	CS_B	1pleas	distractor2	EVAbeforeCON	acq_US_unple_masked	acq2_masked	2	23	480	1	300	300	0	0	484	50	0	0	0	0	0	1	blank2r.bmp	0	1	+	0	1	B1r.bmp	492	1	blank2r.bmp	786	1	GKQX	786	1	blank2r.bmp	866	3	leiden	866	1	FEHLER	1705	1	!	1319	1	!	1386	0	0	0	0	0	0	0	0	0	0	0	0	0	0	0	0	0	0	0	0	0	0	0	0
121918	15:19:38	15:24:59	320574	5.0.10.0	4_exp_EVA_AMP_AWA_CON	34	Rpleas_acq	Same	Rpleas	Bmasked	CS_B	1pleas	distractor2	EVAbeforeCON	acq_US_unple_masked	acq2_masked	2	24	480	0	300	300	0	0	682	46	0	1	0	0	0	1	blank2r.bmp	0	1	+	0	4	B4r.bmp	492	1	blank2r.bmp	786	1	GKQX	786	1	blank2r.bmp	866	6	rächen	866	1	!	1319	1	!	-1	0	0	0	0	0	0	0	0	0	0	0	0	0	0	0	0	0	0	0	0	0	0	0	0	0	0	0
121918	15:19:38	15:25:01	322693	5.0.10.0	4_exp_EVA_AMP_AWA_CON	34	Rpleas_acq	Same	Rpleas	Bmasked	CS_B	1pleas	distractor2	EVAbeforeCON	acq_US_unple_masked	acq2_masked	2	25	480	0	300	300	0	0	333	46	0	1	0	0	0	1	blank2r.bmp	0	1	+	0	5	C1r.bmp	492	1	blank2r.bmp	786	1	GKQX	786	1	blank2r.bmp	866	5	lasch	866	1	!	-1	1	!	-1	0	0	0	0	0	0	0	0	0	0	0	0	0	0	0	0	0	0	0	0	0	0	0	0	0	0	0
121918	15:19:38	15:25:04	325145	5.0.10.0	4_exp_EVA_AMP_AWA_CON	34	Rpleas_acq	Same	Rpleas	Bmasked	CS_B	1pleas	distractor2	EVAbeforeCON	acq_new_pleas_masked	acq2_masked	2	26	480	0	300	300	0	0	672	50	0	1	0	0	0	1	blank2r.bmp	0	1	+	0	8	C4r.bmp	492	1	blank2r.bmp	786	6	C2r.bmp	786	1	blank2r.bmp	866	4	schlau	866	1	!	1319	1	!	-1	0	0	0	0	0	0	0	0	0	0	0	0	0	0	0	0	0	0	0	0	0	0	0	0	0	0	0
121918	15:19:38	15:25:06	327638	5.0.10.0	4_exp_EVA_AMP_AWA_CON	34	Rpleas_acq	Same	Rpleas	Bmasked	CS_B	1pleas	distractor2	EVAbeforeCON	acq_US_unple_masked	acq2_masked	2	27	480	0	300	300	0	0	705	46	0	1	0	0	0	1	blank2r.bmp	0	1	+	0	6	C2r.bmp	492	1	blank2r.bmp	786	1	GKQX	786	1	blank2r.bmp	866	1	eitel	866	1	!	1319	1	!	-1	0	0	0	0	0	0	0	0	0	0	0	0	0	0	0	0	0	0	0	0	0	0	0	0	0	0	0
121918	15:19:38	15:25:08	329930	5.0.10.0	4_exp_EVA_AMP_AWA_CON	34	Rpleas_acq	Same	Rpleas	Bmasked	CS_B	1pleas	distractor2	EVAbeforeCON	acq_new_unple_masked	acq2_masked	2	28	480	1	300	300	0	0	486	46	0	1	0	0	0	1	blank2r.bmp	0	1	+	0	3	B3r.bmp	492	1	blank2r.bmp	786	8	C4r.bmp	786	1	blank2r.bmp	866	6	faul	866	1	!	1319	1	!	1386	0	0	0	0	0	0	0	0	0	0	0	0	0	0	0	0	0	0	0	0	0	0	0	0	0	0	0
121918	15:19:38	15:25:11	332409	5.0.10.0	4_exp_EVA_AMP_AWA_CON	34	Rpleas_acq	Same	Rpleas	Bmasked	CS_B	1pleas	distractor2	EVAbeforeCON	acq_new_unple_masked	acq2_masked	2	29	480	0	300	300	0	0	708	46	0	1	0	0	0	1	blank2r.bmp	0	1	+	0	3	B3r.bmp	492	1	blank2r.bmp	786	1	B1r.bmp	786	1	blank2r.bmp	866	4	schroff	866	1	!	1319	1	!	-1	0	0	0	0	0	0	0	0	0	0	0	0	0	0	0	0	0	0	0	0	0	0	0	0	0	0	0
121918	15:19:38	15:25:13	334821	5.0.10.0	4_exp_EVA_AMP_AWA_CON	34	Rpleas_acq	Same	Rpleas	Bmasked	CS_B	1pleas	distractor2	EVAbeforeCON	acq_US_unple_masked	acq2_masked	2	30	480	0	300	300	0	0	630	46	0	1	0	0	0	1	blank2r.bmp	0	1	+	0	8	C4r.bmp	492	1	blank2r.bmp	786	1	GKQX	786	1	blank2r.bmp	866	4	fanatisch	866	1	!	1319	1	!	-1	0	0	0	0	0	0	0	0	0	0	0	0	0	0	0	0	0	0	0	0	0	0	0	0	0	0	0
121918	15:19:38	15:25:16	337300	5.0.10.0	4_exp_EVA_AMP_AWA_CON	34	Rpleas_acq	Same	Rpleas	Bmasked	CS_B	1pleas	distractor2	EVAbeforeCON	acq_new_unple_masked	acq2_masked	2	31	480	0	300	300	0	0	688	46	0	1	0	0	0	1	blank2r.bmp	0	1	+	0	6	C2r.bmp	492	1	blank2r.bmp	786	7	C3r.bmp	786	1	blank2r.bmp	866	2	hindern	866	1	!	1319	1	!	-1	0	0	0	0	0	0	0	0	0	0	0	0	0	0	0	0	0	0	0	0	0	0	0	0	0	0	0
121918	15:19:38	15:25:18	339619	5.0.10.0	4_exp_EVA_AMP_AWA_CON	34	Rpleas_acq	Same	Rpleas	Bmasked	CS_B	1pleas	distractor2	EVAbeforeCON	acq_US_pleas_masked	acq2_masked	2	32	480	1	300	300	0	0	510	50	0	1	0	0	0	1	blank2r.bmp	0	1	+	0	7	C3r.bmp	492	1	blank2r.bmp	786	1	BMVZ	786	1	blank2r.bmp	866	3	lachen	866	1	!	1319	1	!	1412	0	0	0	0	0	0	0	0	0	0	0	0	0	0	0	0	0	0	0	0	0	0	0	0	0	0	0
121918	15:19:38	15:25:21	342285	5.0.10.0	4_exp_EVA_AMP_AWA_CON	34	Rpleas_acq	Same	Rpleas	Bmasked	CS_B	1pleas	distractor2	EVAbeforeCON	acq_new_pleas_masked	acq2_masked	2	33	480	0	300	300	0	0	670	46	0	0	0	0	0	1	blank2r.bmp	0	1	+	0	4	B4r.bmp	492	1	blank2r.bmp	786	3	B3r.bmp	786	1	blank2r.bmp	866	1	tolerant	866	1	FEHLER	1879	1	!	1319	1	!	-1	0	0	0	0	0	0	0	0	0	0	0	0	0	0	0	0	0	0	0	0	0	0	0	0
121918	15:19:38	15:25:23	344444	5.0.10.0	4_exp_EVA_AMP_AWA_CON	34	Rpleas_acq	Same	Rpleas	Bmasked	CS_B	1pleas	distractor2	EVAbeforeCON	acq_US_pleas_masked	acq2_masked	2	34	480	0	300	300	0	0	604	50	0	1	0	0	0	1	blank2r.bmp	0	1	+	0	1	B1r.bmp	492	1	blank2r.bmp	786	1	BMVZ	786	1	blank2r.bmp	866	2	schön	866	1	!	1319	1	!	-1	0	0	0	0	0	0	0	0	0	0	0	0	0	0	0	0	0	0	0	0	0	0	0	0	0	0	0
121918	15:19:38	15:25:25	346830	5.0.10.0	4_exp_EVA_AMP_AWA_CON	34	Rpleas_acq	Same	Rpleas	Bmasked	CS_B	1pleas	distractor2	EVAbeforeCON	acq_US_pleas_masked	acq2_masked	2	35	480	0	300	300	0	0	602	50	0	1	0	0	0	1	blank2r.bmp	0	1	+	0	2	B2r.bmp	492	1	blank2r.bmp	786	1	BMVZ	786	1	blank2r.bmp	866	4	freundlich	866	1	!	1319	1	!	-1	0	0	0	0	0	0	0	0	0	0	0	0	0	0	0	0	0	0	0	0	0	0	0	0	0	0	0
121918	15:19:38	15:25:28	349069	5.0.10.0	4_exp_EVA_AMP_AWA_CON	34	Rpleas_acq	Same	Rpleas	Bmasked	CS_B	1pleas	distractor2	EVAbeforeCON	acq_new_pleas_masked	acq2_masked	2	36	480	1	300	300	0	0	426	50	0	1	0	0	0	1	blank2r.bmp	0	1	+	0	5	C1r.bmp	492	1	blank2r.bmp	786	4	B4r.bmp	786	1	blank2r.bmp	866	3	spielen	866	1	!	1319	1	!	1332	0	0	0	0	0	0	0	0	0	0	0	0	0	0	0	0	0	0	0	0	0	0	0	0	0	0	0
121918	15:19:38	15:25:54	375058	5.0.10.0	4_exp_EVA_AMP_AWA_CON	34	Rpleas_acq	Same	Rpleas	Bmasked	CS_B	1pleas	distractor2	EVAbeforeCON	acq_US_pleas_masked	acq3_masked	3	1	453	0	300	300	0	0	875	46	0	0	0	0	0	1	blank2r.bmp	0	1	+	0	7	C3r.bmp	492	1	blank2r.bmp	786	1	BMVZ	786	1	blank2r.bmp	866	5	loyal	866	1	FEHLER	2079	1	!	1292	1	!	-1	0	0	0	0	0	0	0	0	0	0	0	0	0	0	0	0	0	0	0	0	0	0	0	0
121918	15:19:38	15:25:56	377097	5.0.10.0	4_exp_EVA_AMP_AWA_CON	34	Rpleas_acq	Same	Rpleas	Bmasked	CS_B	1pleas	distractor2	EVAbeforeCON	acq_US_unple_masked	acq3_masked	3	2	453	0	300	300	0	0	257	50	0	0	0	0	0	1	blank2r.bmp	0	1	+	0	1	B1r.bmp	492	1	blank2r.bmp	786	1	GKQX	786	1	blank2r.bmp	866	5	lasch	866	1	FEHLER	1466	1	!	-1	1	!	-1	0	0	0	0	0	0	0	0	0	0	0	0	0	0	0	0	0	0	0	0	0	0	0	0
121918	15:19:38	15:25:58	379203	5.0.10.0	4_exp_EVA_AMP_AWA_CON	34	Rpleas_acq	Same	Rpleas	Bmasked	CS_B	1pleas	distractor2	EVAbeforeCON	acq_US_unple_masked	acq3_masked	3	3	453	0	300	300	0	0	549	46	0	1	0	0	0	1	blank2r.bmp	0	1	+	0	8	C4r.bmp	492	1	blank2r.bmp	786	1	GKQX	786	1	blank2r.bmp	866	2	schlecht	866	1	!	1292	1	!	-1	0	0	0	0	0	0	0	0	0	0	0	0	0	0	0	0	0	0	0	0	0	0	0	0	0	0	0
121918	15:19:38	15:26:00	381735	5.0.10.0	4_exp_EVA_AMP_AWA_CON	34	Rpleas_acq	Same	Rpleas	Bmasked	CS_B	1pleas	distractor2	EVAbeforeCON	acq_US_unple_masked	acq3_masked	3	4	453	1	300	300	0	0	500	50	0	0	0	0	0	1	blank2r.bmp	0	1	+	0	2	B2r.bmp	492	1	blank2r.bmp	786	1	GKQX	786	1	blank2r.bmp	866	4	fanatisch	866	1	FEHLER	1719	1	!	1292	1	!	1399	0	0	0	0	0	0	0	0	0	0	0	0	0	0	0	0	0	0	0	0	0	0	0	0
121918	15:19:38	15:26:03	384214	5.0.10.0	4_exp_EVA_AMP_AWA_CON	34	Rpleas_acq	Same	Rpleas	Bmasked	CS_B	1pleas	distractor2	EVAbeforeCON	acq_US_unple_masked	acq3_masked	3	5	453	0	300	300	0	0	696	50	0	0	0	0	0	1	blank2r.bmp	0	1	+	0	6	C2r.bmp	492	1	blank2r.bmp	786	1	GKQX	786	1	blank2r.bmp	866	3	leiden	866	1	FEHLER	1905	1	!	1292	1	!	-1	0	0	0	0	0	0	0	0	0	0	0	0	0	0	0	0	0	0	0	0	0	0	0	0
121918	15:19:38	15:26:05	386467	5.0.10.0	4_exp_EVA_AMP_AWA_CON	34	Rpleas_acq	Same	Rpleas	Bmasked	CS_B	1pleas	distractor2	EVAbeforeCON	acq_US_unple_masked	acq3_masked	3	6	453	0	300	300	0	0	694	46	0	1	0	0	0	1	blank2r.bmp	0	1	+	0	5	C1r.bmp	492	1	blank2r.bmp	786	1	GKQX	786	1	blank2r.bmp	866	6	rächen	866	1	!	1292	1	!	-1	0	0	0	0	0	0	0	0	0	0	0	0	0	0	0	0	0	0	0	0	0	0	0	0	0	0	0
121918	15:19:38	15:26:07	388732	5.0.10.0	4_exp_EVA_AMP_AWA_CON	34	Rpleas_acq	Same	Rpleas	Bmasked	CS_B	1pleas	distractor2	EVAbeforeCON	acq_US_pleas_masked	acq3_masked	3	7	453	1	300	300	0	0	453	50	0	1	0	0	0	1	blank2r.bmp	0	1	+	0	4	B4r.bmp	492	1	blank2r.bmp	786	1	BMVZ	786	1	blank2r.bmp	866	4	freundlich	866	1	!	1292	1	!	1359	0	0	0	0	0	0	0	0	0	0	0	0	0	0	0	0	0	0	0	0	0	0	0	0	0	0	0
121918	15:19:38	15:26:09	390945	5.0.10.0	4_exp_EVA_AMP_AWA_CON	34	Rpleas_acq	Same	Rpleas	Bmasked	CS_B	1pleas	distractor2	EVAbeforeCON	acq_US_pleas_masked	acq3_masked	3	8	453	1	300	300	0	0	399	50	0	1	0	0	0	1	blank2r.bmp	0	1	+	0	3	B3r.bmp	492	1	blank2r.bmp	786	1	BMVZ	786	1	blank2r.bmp	866	2	schön	866	1	!	1292	1	!	1306	0	0	0	0	0	0	0	0	0	0	0	0	0	0	0	0	0	0	0	0	0	0	0	0	0	0	0
121918	15:19:38	15:26:12	393397	5.0.10.0	4_exp_EVA_AMP_AWA_CON	34	Rpleas_acq	Same	Rpleas	Bmasked	CS_B	1pleas	distractor2	EVAbeforeCON	acq_US_unple_masked	acq3_masked	3	9	453	1	300	300	0	0	446	50	0	0	0	0	0	1	blank2r.bmp	0	1	+	0	8	C4r.bmp	492	1	blank2r.bmp	786	1	GKQX	786	1	blank2r.bmp	866	1	eitel	866	1	FEHLER	1665	1	!	1292	1	!	1346	0	0	0	0	0	0	0	0	0	0	0	0	0	0	0	0	0	0	0	0	0	0	0	0
121918	15:19:38	15:26:14	395396	5.0.10.0	4_exp_EVA_AMP_AWA_CON	34	Rpleas_acq	Same	Rpleas	Bmasked	CS_B	1pleas	distractor2	EVAbeforeCON	acq_US_pleas_masked	acq3_masked	3	10	453	1	300	300	0	0	418	50	0	1	0	0	0	1	blank2r.bmp	0	1	+	0	6	C2r.bmp	492	1	blank2r.bmp	786	1	BMVZ	786	1	blank2r.bmp	866	1	ehrlich	866	1	!	1292	1	!	1319	0	0	0	0	0	0	0	0	0	0	0	0	0	0	0	0	0	0	0	0	0	0	0	0	0	0	0
121918	15:19:38	15:26:16	397675	5.0.10.0	4_exp_EVA_AMP_AWA_CON	34	Rpleas_acq	Same	Rpleas	Bmasked	CS_B	1pleas	distractor2	EVAbeforeCON	acq_US_pleas_masked	acq3_masked	3	11	453	0	300	300	0	0	286	46	0	0	0	0	0	1	blank2r.bmp	0	1	+	0	3	B3r.bmp	492	1	blank2r.bmp	786	1	BMVZ	786	1	blank2r.bmp	866	6	retten	866	1	FEHLER	1492	1	!	-1	1	!	-1	0	0	0	0	0	0	0	0	0	0	0	0	0	0	0	0	0	0	0	0	0	0	0	0
121918	15:19:38	15:26:18	399581	5.0.10.0	4_exp_EVA_AMP_AWA_CON	34	Rpleas_acq	Same	Rpleas	Bmasked	CS_B	1pleas	distractor2	EVAbeforeCON	acq_US_pleas_masked	acq3_masked	3	12	453	0	300	300	0	0	352	50	0	1	0	0	0	1	blank2r.bmp	0	1	+	0	7	C3r.bmp	492	1	blank2r.bmp	786	1	BMVZ	786	1	blank2r.bmp	866	3	lachen	866	1	!	-1	1	!	-1	0	0	0	0	0	0	0	0	0	0	0	0	0	0	0	0	0	0	0	0	0	0	0	0	0	0	0
121918	15:19:38	15:26:20	401887	5.0.10.0	4_exp_EVA_AMP_AWA_CON	34	Rpleas_acq	Same	Rpleas	Bmasked	CS_B	1pleas	distractor2	EVAbeforeCON	acq_US_pleas_masked	acq3_masked	3	13	453	1	300	300	0	0	500	50	0	1	0	0	0	1	blank2r.bmp	0	1	+	0	1	B1r.bmp	492	1	blank2r.bmp	786	1	BMVZ	786	1	blank2r.bmp	866	4	freundlich	866	1	!	1292	1	!	1399	0	0	0	0	0	0	0	0	0	0	0	0	0	0	0	0	0	0	0	0	0	0	0	0	0	0	0
121918	15:19:38	15:26:22	403979	5.0.10.0	4_exp_EVA_AMP_AWA_CON	34	Rpleas_acq	Same	Rpleas	Bmasked	CS_B	1pleas	distractor2	EVAbeforeCON	acq_US_pleas_masked	acq3_masked	3	14	453	0	300	300	0	0	318	50	0	1	0	0	0	1	blank2r.bmp	0	1	+	0	5	C1r.bmp	492	1	blank2r.bmp	786	1	BMVZ	786	1	blank2r.bmp	866	3	lachen	866	1	!	-1	1	!	-1	0	0	0	0	0	0	0	0	0	0	0	0	0	0	0	0	0	0	0	0	0	0	0	0	0	0	0
121918	15:19:38	15:26:25	406245	5.0.10.0	4_exp_EVA_AMP_AWA_CON	34	Rpleas_acq	Same	Rpleas	Bmasked	CS_B	1pleas	distractor2	EVAbeforeCON	acq_US_pleas_masked	acq3_masked	3	15	453	1	300	300	0	0	461	50	0	1	0	0	0	1	blank2r.bmp	0	1	+	0	2	B2r.bmp	492	1	blank2r.bmp	786	1	BMVZ	786	1	blank2r.bmp	866	1	ehrlich	866	1	!	1292	1	!	1359	0	0	0	0	0	0	0	0	0	0	0	0	0	0	0	0	0	0	0	0	0	0	0	0	0	0	0
121918	15:19:38	15:26:27	408338	5.0.10.0	4_exp_EVA_AMP_AWA_CON	34	Rpleas_acq	Same	Rpleas	Bmasked	CS_B	1pleas	distractor2	EVAbeforeCON	acq_US_pleas_masked	acq3_masked	3	16	453	0	300	300	0	0	330	50	0	1	0	0	0	1	blank2r.bmp	0	1	+	0	4	B4r.bmp	492	1	blank2r.bmp	786	1	BMVZ	786	1	blank2r.bmp	866	2	schön	866	1	!	-1	1	!	-1	0	0	0	0	0	0	0	0	0	0	0	0	0	0	0	0	0	0	0	0	0	0	0	0	0	0	0
121918	15:19:38	15:26:29	410777	5.0.10.0	4_exp_EVA_AMP_AWA_CON	34	Rpleas_acq	Same	Rpleas	Bmasked	CS_B	1pleas	distractor2	EVAbeforeCON	acq_US_unple_masked	acq3_masked	3	17	453	1	300	300	0	0	422	50	0	0	0	0	0	1	blank2r.bmp	0	1	+	0	8	C4r.bmp	492	1	blank2r.bmp	786	1	GKQX	786	1	blank2r.bmp	866	4	fanatisch	866	1	FEHLER	1639	1	!	1292	1	!	1319	0	0	0	0	0	0	0	0	0	0	0	0	0	0	0	0	0	0	0	0	0	0	0	0
121918	15:19:38	15:26:32	413016	5.0.10.0	4_exp_EVA_AMP_AWA_CON	34	Rpleas_acq	Same	Rpleas	Bmasked	CS_B	1pleas	distractor2	EVAbeforeCON	acq_US_pleas_masked	acq3_masked	3	18	453	0	300	300	0	0	685	50	0	1	0	0	0	1	blank2r.bmp	0	1	+	0	5	C1r.bmp	492	1	blank2r.bmp	786	1	BMVZ	786	1	blank2r.bmp	866	6	retten	866	1	!	1292	1	!	-1	0	0	0	0	0	0	0	0	0	0	0	0	0	0	0	0	0	0	0	0	0	0	0	0	0	0	0
121918	15:19:38	15:26:34	415108	5.0.10.0	4_exp_EVA_AMP_AWA_CON	34	Rpleas_acq	Same	Rpleas	Bmasked	CS_B	1pleas	distractor2	EVAbeforeCON	acq_US_unple_masked	acq3_masked	3	19	453	0	300	300	0	0	316	46	0	1	0	0	0	1	blank2r.bmp	0	1	+	0	7	C3r.bmp	492	1	blank2r.bmp	786	1	GKQX	786	1	blank2r.bmp	866	2	schlecht	866	1	!	-1	1	!	-1	0	0	0	0	0	0	0	0	0	0	0	0	0	0	0	0	0	0	0	0	0	0	0	0	0	0	0
121918	15:19:38	15:26:36	417840	5.0.10.0	4_exp_EVA_AMP_AWA_CON	34	Rpleas_acq	Same	Rpleas	Bmasked	CS_B	1pleas	distractor2	EVAbeforeCON	acq_US_pleas_masked	acq3_masked	3	20	453	0	300	300	0	0	734	46	0	0	0	0	0	1	blank2r.bmp	0	1	+	0	4	B4r.bmp	492	1	blank2r.bmp	786	1	BMVZ	786	1	blank2r.bmp	866	5	loyal	866	1	FEHLER	1945	1	!	1292	1	!	-1	0	0	0	0	0	0	0	0	0	0	0	0	0	0	0	0	0	0	0	0	0	0	0	0
121918	15:19:38	15:26:39	420186	5.0.10.0	4_exp_EVA_AMP_AWA_CON	34	Rpleas_acq	Same	Rpleas	Bmasked	CS_B	1pleas	distractor2	EVAbeforeCON	acq_US_unple_masked	acq3_masked	3	21	453	0	300	300	0	0	532	50	0	0	0	0	0	1	blank2r.bmp	0	1	+	0	2	B2r.bmp	492	1	blank2r.bmp	786	1	GKQX	786	1	blank2r.bmp	866	1	eitel	866	1	FEHLER	1745	1	!	1292	1	!	-1	0	0	0	0	0	0	0	0	0	0	0	0	0	0	0	0	0	0	0	0	0	0	0	0
121918	15:19:38	15:26:41	422665	5.0.10.0	4_exp_EVA_AMP_AWA_CON	34	Rpleas_acq	Same	Rpleas	Bmasked	CS_B	1pleas	distractor2	EVAbeforeCON	acq_US_unple_masked	acq3_masked	3	22	453	0	300	300	0	0	702	50	0	0	0	0	0	1	blank2r.bmp	0	1	+	0	1	B1r.bmp	492	1	blank2r.bmp	786	1	GKQX	786	1	blank2r.bmp	866	5	lasch	866	1	FEHLER	1905	1	!	1292	1	!	-1	0	0	0	0	0	0	0	0	0	0	0	0	0	0	0	0	0	0	0	0	0	0	0	0
121918	15:19:38	15:26:43	424731	5.0.10.0	4_exp_EVA_AMP_AWA_CON	34	Rpleas_acq	Same	Rpleas	Bmasked	CS_B	1pleas	distractor2	EVAbeforeCON	acq_US_unple_masked	acq3_masked	3	23	453	1	300	300	0	0	491	46	0	1	0	0	0	1	blank2r.bmp	0	1	+	0	3	B3r.bmp	492	1	blank2r.bmp	786	1	GKQX	786	1	blank2r.bmp	866	3	leiden	866	1	!	1292	1	!	1386	0	0	0	0	0	0	0	0	0	0	0	0	0	0	0	0	0	0	0	0	0	0	0	0	0	0	0
121918	15:19:38	15:26:46	426997	5.0.10.0	4_exp_EVA_AMP_AWA_CON	34	Rpleas_acq	Same	Rpleas	Bmasked	CS_B	1pleas	distractor2	EVAbeforeCON	acq_US_unple_masked	acq3_masked	3	24	453	1	300	300	0	0	476	46	0	1	0	0	0	1	blank2r.bmp	0	1	+	0	6	C2r.bmp	492	1	blank2r.bmp	786	1	GKQX	786	1	blank2r.bmp	866	6	rächen	866	1	!	1292	1	!	1372	0	0	0	0	0	0	0	0	0	0	0	0	0	0	0	0	0	0	0	0	0	0	0	0	0	0	0
121918	15:19:38	15:26:48	429462	5.0.10.0	4_exp_EVA_AMP_AWA_CON	34	Rpleas_acq	Same	Rpleas	Bmasked	CS_B	1pleas	distractor2	EVAbeforeCON	acq_US_unple_masked	acq3_masked	3	25	453	1	300	300	0	0	458	50	0	0	0	0	0	1	blank2r.bmp	0	1	+	0	5	C1r.bmp	492	1	blank2r.bmp	786	1	GKQX	786	1	blank2r.bmp	866	1	eitel	866	1	FEHLER	1679	1	!	1292	1	!	1359	0	0	0	0	0	0	0	0	0	0	0	0	0	0	0	0	0	0	0	0	0	0	0	0
121918	15:19:38	15:26:50	431541	5.0.10.0	4_exp_EVA_AMP_AWA_CON	34	Rpleas_acq	Same	Rpleas	Bmasked	CS_B	1pleas	distractor2	EVAbeforeCON	acq_US_unple_masked	acq3_masked	3	26	453	1	300	300	0	0	499	46	0	1	0	0	0	1	blank2r.bmp	0	1	+	0	6	C2r.bmp	492	1	blank2r.bmp	786	1	GKQX	786	1	blank2r.bmp	866	4	fanatisch	866	1	!	1292	1	!	1399	0	0	0	0	0	0	0	0	0	0	0	0	0	0	0	0	0	0	0	0	0	0	0	0	0	0	0
121918	15:19:38	15:26:52	433794	5.0.10.0	4_exp_EVA_AMP_AWA_CON	34	Rpleas_acq	Same	Rpleas	Bmasked	CS_B	1pleas	distractor2	EVAbeforeCON	acq_US_pleas_masked	acq3_masked	3	27	453	1	300	300	0	0	455	50	0	1	0	0	0	1	blank2r.bmp	0	1	+	0	3	B3r.bmp	492	1	blank2r.bmp	786	1	BMVZ	786	1	blank2r.bmp	866	2	schön	866	1	!	1292	1	!	1359	0	0	0	0	0	0	0	0	0	0	0	0	0	0	0	0	0	0	0	0	0	0	0	0	0	0	0
121918	15:19:38	15:26:55	436113	5.0.10.0	4_exp_EVA_AMP_AWA_CON	34	Rpleas_acq	Same	Rpleas	Bmasked	CS_B	1pleas	distractor2	EVAbeforeCON	acq_US_unple_masked	acq3_masked	3	28	453	0	300	300	0	0	558	46	0	1	0	0	0	1	blank2r.bmp	0	1	+	0	2	B2r.bmp	492	1	blank2r.bmp	786	1	GKQX	786	1	blank2r.bmp	866	6	rächen	866	1	!	1292	1	!	-1	0	0	0	0	0	0	0	0	0	0	0	0	0	0	0	0	0	0	0	0	0	0	0	0	0	0	0
121918	15:19:38	15:26:57	438539	5.0.10.0	4_exp_EVA_AMP_AWA_CON	34	Rpleas_acq	Same	Rpleas	Bmasked	CS_B	1pleas	distractor2	EVAbeforeCON	acq_US_pleas_masked	acq3_masked	3	29	453	0	300	300	0	0	626	50	0	1	0	0	0	1	blank2r.bmp	0	1	+	0	1	B1r.bmp	492	1	blank2r.bmp	786	1	BMVZ	786	1	blank2r.bmp	866	4	freundlich	866	1	!	1292	1	!	-1	0	0	0	0	0	0	0	0	0	0	0	0	0	0	0	0	0	0	0	0	0	0	0	0	0	0	0
121918	15:19:38	15:26:59	440844	5.0.10.0	4_exp_EVA_AMP_AWA_CON	34	Rpleas_acq	Same	Rpleas	Bmasked	CS_B	1pleas	distractor2	EVAbeforeCON	acq_US_pleas_masked	acq3_masked	3	30	453	1	300	300	0	0	502	50	0	1	0	0	0	1	blank2r.bmp	0	1	+	0	7	C3r.bmp	492	1	blank2r.bmp	786	1	BMVZ	786	1	blank2r.bmp	866	5	loyal	866	1	!	1292	1	!	1399	0	0	0	0	0	0	0	0	0	0	0	0	0	0	0	0	0	0	0	0	0	0	0	0	0	0	0
121918	15:19:38	15:27:06	447388	5.0.10.0	4_exp_EVA_AMP_AWA_CON	34	Rpleas_acq	Same	Rpleas	Bmasked	CS_B	1pleas	distractor2	EVAbeforeCON	acq_US_pleas_masked	acq3_masked	3	31	453	0	300	300	0	0	4776	50	0	1	0	0	0	1	blank2r.bmp	0	1	+	0	4	B4r.bmp	492	1	blank2r.bmp	786	1	BMVZ	786	1	blank2r.bmp	866	6	retten	866	1	!	1292	1	!	-1	0	0	0	0	0	0	0	0	0	0	0	0	0	0	0	0	0	0	0	0	0	0	0	0	0	0	0
121918	15:19:38	15:27:08	449654	5.0.10.0	4_exp_EVA_AMP_AWA_CON	34	Rpleas_acq	Same	Rpleas	Bmasked	CS_B	1pleas	distractor2	EVAbeforeCON	acq_US_pleas_masked	acq3_masked	3	32	453	1	300	300	0	0	456	50	0	1	0	0	0	1	blank2r.bmp	0	1	+	0	8	C4r.bmp	492	1	blank2r.bmp	786	1	BMVZ	786	1	blank2r.bmp	866	3	lachen	866	1	!	1292	1	!	1359	0	0	0	0	0	0	0	0	0	0	0	0	0	0	0	0	0	0	0	0	0	0	0	0	0	0	0
121918	15:19:38	15:27:10	451986	5.0.10.0	4_exp_EVA_AMP_AWA_CON	34	Rpleas_acq	Same	Rpleas	Bmasked	CS_B	1pleas	distractor2	EVAbeforeCON	acq_US_unple_masked	acq3_masked	3	33	453	0	300	300	0	0	563	46	0	1	0	0	0	1	blank2r.bmp	0	1	+	0	5	C1r.bmp	492	1	blank2r.bmp	786	1	GKQX	786	1	blank2r.bmp	866	3	leiden	866	1	!	1292	1	!	-1	0	0	0	0	0	0	0	0	0	0	0	0	0	0	0	0	0	0	0	0	0	0	0	0	0	0	0
121918	15:19:38	15:27:13	454305	5.0.10.0	4_exp_EVA_AMP_AWA_CON	34	Rpleas_acq	Same	Rpleas	Bmasked	CS_B	1pleas	distractor2	EVAbeforeCON	acq_US_pleas_masked	acq3_masked	3	34	453	0	300	300	0	0	537	50	0	1	0	0	0	1	blank2r.bmp	0	1	+	0	3	B3r.bmp	492	1	blank2r.bmp	786	1	BMVZ	786	1	blank2r.bmp	866	1	ehrlich	866	1	!	1292	1	!	-1	0	0	0	0	0	0	0	0	0	0	0	0	0	0	0	0	0	0	0	0	0	0	0	0	0	0	0
121918	15:19:38	15:27:15	456558	5.0.10.0	4_exp_EVA_AMP_AWA_CON	34	Rpleas_acq	Same	Rpleas	Bmasked	CS_B	1pleas	distractor2	EVAbeforeCON	acq_US_unple_masked	acq3_masked	3	35	453	1	300	300	0	0	441	46	0	1	0	0	0	1	blank2r.bmp	0	1	+	0	6	C2r.bmp	492	1	blank2r.bmp	786	1	GKQX	786	1	blank2r.bmp	866	2	schlecht	866	1	!	1292	1	!	1346	0	0	0	0	0	0	0	0	0	0	0	0	0	0	0	0	0	0	0	0	0	0	0	0	0	0	0
121918	15:19:38	15:27:17	458863	5.0.10.0	4_exp_EVA_AMP_AWA_CON	34	Rpleas_acq	Same	Rpleas	Bmasked	CS_B	1pleas	distractor2	EVAbeforeCON	acq_US_unple_masked	acq3_masked	3	36	453	0	300	300	0	0	536	46	0	1	0	0	0	1	blank2r.bmp	0	1	+	0	4	B4r.bmp	492	1	blank2r.bmp	786	1	GKQX	786	1	blank2r.bmp	866	5	lasch	866	1	!	1292	1	!	-1	0	0	0	0	0	0	0	0	0	0	0	0	0	0	0	0	0	0	0	0	0	0	0	0	0	0	0
121918	15:19:38	15:27:41	482107	5.0.10.0	4_exp_EVA_AMP_AWA_CON	34	Rpleas_acq	Same	Rpleas	Bmasked	CS_B	1pleas	distractor2	EVAbeforeCON	acq_US_pleas_masked	acq45_masked	4	1	400	0	300	300	0	0	1454	50	0	1	0	0	0	1	blank2r.bmp	0	1	+	0	7	C3r.bmp	492	1	blank2r.bmp	786	1	BMVZ	786	1	blank2r.bmp	866	2	schön	866	1	!	1239	1	!	-1	0	0	0	0	0	0	0	0	0	0	0	0	0	0	0	0	0	0	0	0	0	0	0	0	0	0	0
121918	15:19:38	15:27:43	484320	5.0.10.0	4_exp_EVA_AMP_AWA_CON	34	Rpleas_acq	Same	Rpleas	Bmasked	CS_B	1pleas	distractor2	EVAbeforeCON	acq_US_pleas_masked	acq45_masked	4	2	400	1	300	300	0	0	409	46	0	0	0	0	0	1	blank2r.bmp	0	1	+	0	8	C4r.bmp	492	1	blank2r.bmp	786	1	BMVZ	786	1	blank2r.bmp	866	6	retten	866	1	!	1239	1	!	1306	0	0	0	0	0	0	0	0	0	0	0	0	0	0	0	0	0	0	0	0	0	0	0	0	0	0	0
121918	15:19:38	15:27:45	486572	5.0.10.0	4_exp_EVA_AMP_AWA_CON	34	Rpleas_acq	Same	Rpleas	Bmasked	CS_B	1pleas	distractor2	EVAbeforeCON	acq_US_unple_masked	acq45_masked	4	3	400	0	300	300	0	0	486	50	0	0	0	0	0	1	blank2r.bmp	0	1	+	0	1	B1r.bmp	492	1	blank2r.bmp	786	1	GKQX	786	1	blank2r.bmp	866	2	schlecht	866	1	!	1239	1	!	-1	0	0	0	0	0	0	0	0	0	0	0	0	0	0	0	0	0	0	0	0	0	0	0	0	0	0	0
121918	15:19:38	15:27:48	489171	5.0.10.0	4_exp_EVA_AMP_AWA_CON	34	Rpleas_acq	Same	Rpleas	Bmasked	CS_B	1pleas	distractor2	EVAbeforeCON	acq_US_unple_masked	acq45_masked	4	4	400	0	300	300	0	0	812	46	0	1	0	0	0	1	blank2r.bmp	0	1	+	0	2	B2r.bmp	492	1	blank2r.bmp	786	1	GKQX	786	1	blank2r.bmp	866	4	fanatisch	866	1	!	1239	1	!	-1	0	0	0	0	0	0	0	0	0	0	0	0	0	0	0	0	0	0	0	0	0	0	0	0	0	0	0
121918	15:19:38	15:27:50	491517	5.0.10.0	4_exp_EVA_AMP_AWA_CON	34	Rpleas_acq	Same	Rpleas	Bmasked	CS_B	1pleas	distractor2	EVAbeforeCON	acq_US_unple_masked	acq45_masked	4	5	400	0	300	300	0	0	559	46	0	1	0	0	0	1	blank2r.bmp	0	1	+	0	8	C4r.bmp	492	1	blank2r.bmp	786	1	GKQX	786	1	blank2r.bmp	866	3	leiden	866	1	!	1239	1	!	-1	0	0	0	0	0	0	0	0	0	0	0	0	0	0	0	0	0	0	0	0	0	0	0	0	0	0	0
121918	15:19:38	15:27:52	493729	5.0.10.0	4_exp_EVA_AMP_AWA_CON	34	Rpleas_acq	Same	Rpleas	Bmasked	CS_B	1pleas	distractor2	EVAbeforeCON	acq_US_pleas_masked	acq45_masked	4	6	400	1	300	300	0	0	404	50	0	1	0	0	0	1	blank2r.bmp	0	1	+	0	6	C2r.bmp	492	1	blank2r.bmp	786	1	BMVZ	786	1	blank2r.bmp	866	3	lachen	866	1	!	1239	1	!	1306	0	0	0	0	0	0	0	0	0	0	0	0	0	0	0	0	0	0	0	0	0	0	0	0	0	0	0
121918	15:19:38	15:27:54	495995	5.0.10.0	4_exp_EVA_AMP_AWA_CON	34	Rpleas_acq	Same	Rpleas	Bmasked	CS_B	1pleas	distractor2	EVAbeforeCON	acq_US_pleas_masked	acq45_masked	4	7	400	0	300	300	0	0	499	50	0	1	0	0	0	1	blank2r.bmp	0	1	+	0	3	B3r.bmp	492	1	blank2r.bmp	786	1	BMVZ	786	1	blank2r.bmp	866	4	freundlich	866	1	!	1239	1	!	-1	0	0	0	0	0	0	0	0	0	0	0	0	0	0	0	0	0	0	0	0	0	0	0	0	0	0	0
121918	15:19:38	15:27:57	498234	5.0.10.0	4_exp_EVA_AMP_AWA_CON	34	Rpleas_acq	Same	Rpleas	Bmasked	CS_B	1pleas	distractor2	EVAbeforeCON	acq_US_unple_masked	acq45_masked	4	8	400	1	300	300	0	0	426	46	0	1	0	0	0	1	blank2r.bmp	0	1	+	0	4	B4r.bmp	492	1	blank2r.bmp	786	1	GKQX	786	1	blank2r.bmp	866	1	eitel	866	1	!	1239	1	!	1332	0	0	0	0	0	0	0	0	0	0	0	0	0	0	0	0	0	0	0	0	0	0	0	0	0	0	0
121918	15:19:38	15:27:59	500473	5.0.10.0	4_exp_EVA_AMP_AWA_CON	34	Rpleas_acq	Same	Rpleas	Bmasked	CS_B	1pleas	distractor2	EVAbeforeCON	acq_US_unple_masked	acq45_masked	4	9	400	1	300	300	0	0	450	46	0	1	0	0	0	1	blank2r.bmp	0	1	+	0	2	B2r.bmp	492	1	blank2r.bmp	786	1	GKQX	786	1	blank2r.bmp	866	6	rächen	866	1	!	1239	1	!	1346	0	0	0	0	0	0	0	0	0	0	0	0	0	0	0	0	0	0	0	0	0	0	0	0	0	0	0
121918	15:19:38	15:28:01	502699	5.0.10.0	4_exp_EVA_AMP_AWA_CON	34	Rpleas_acq	Same	Rpleas	Bmasked	CS_B	1pleas	distractor2	EVAbeforeCON	acq_US_unple_masked	acq45_masked	4	10	400	1	300	300	0	0	413	50	0	0	0	0	0	1	blank2r.bmp	0	1	+	0	7	C3r.bmp	492	1	blank2r.bmp	786	1	GKQX	786	1	blank2r.bmp	866	5	lasch	866	1	!	1239	1	!	1319	0	0	0	0	0	0	0	0	0	0	0	0	0	0	0	0	0	0	0	0	0	0	0	0	0	0	0
121918	15:19:38	15:28:03	504978	5.0.10.0	4_exp_EVA_AMP_AWA_CON	34	Rpleas_acq	Same	Rpleas	Bmasked	CS_B	1pleas	distractor2	EVAbeforeCON	acq_US_pleas_masked	acq45_masked	4	11	400	0	300	300	0	0	518	50	0	1	0	0	0	1	blank2r.bmp	0	1	+	0	1	B1r.bmp	492	1	blank2r.bmp	786	1	BMVZ	786	1	blank2r.bmp	866	5	loyal	866	1	!	1239	1	!	-1	0	0	0	0	0	0	0	0	0	0	0	0	0	0	0	0	0	0	0	0	0	0	0	0	0	0	0
121918	15:19:38	15:28:06	507230	5.0.10.0	4_exp_EVA_AMP_AWA_CON	34	Rpleas_acq	Same	Rpleas	Bmasked	CS_B	1pleas	distractor2	EVAbeforeCON	acq_US_pleas_masked	acq45_masked	4	12	400	1	300	300	0	0	448	50	0	1	0	0	0	1	blank2r.bmp	0	1	+	0	5	C1r.bmp	492	1	blank2r.bmp	786	1	BMVZ	786	1	blank2r.bmp	866	1	ehrlich	866	1	!	1239	1	!	1346	0	0	0	0	0	0	0	0	0	0	0	0	0	0	0	0	0	0	0	0	0	0	0	0	0	0	0
121918	15:19:38	15:28:08	509509	5.0.10.0	4_exp_EVA_AMP_AWA_CON	34	Rpleas_acq	Same	Rpleas	Bmasked	CS_B	1pleas	distractor2	EVAbeforeCON	acq_US_pleas_masked	acq45_masked	4	13	400	0	300	300	0	0	496	50	0	1	0	0	0	1	blank2r.bmp	0	1	+	0	8	C4r.bmp	492	1	blank2r.bmp	786	1	BMVZ	786	1	blank2r.bmp	866	1	ehrlich	866	1	!	1239	1	!	-1	0	0	0	0	0	0	0	0	0	0	0	0	0	0	0	0	0	0	0	0	0	0	0	0	0	0	0
121918	15:19:38	15:28:10	511788	5.0.10.0	4_exp_EVA_AMP_AWA_CON	34	Rpleas_acq	Same	Rpleas	Bmasked	CS_B	1pleas	distractor2	EVAbeforeCON	acq_US_pleas_masked	acq45_masked	4	14	400	1	300	300	0	0	462	50	0	1	0	0	0	1	blank2r.bmp	0	1	+	0	6	C2r.bmp	492	1	blank2r.bmp	786	1	BMVZ	786	1	blank2r.bmp	866	4	freundlich	866	1	!	1239	1	!	1359	0	0	0	0	0	0	0	0	0	0	0	0	0	0	0	0	0	0	0	0	0	0	0	0	0	0	0
121918	15:19:38	15:28:13	514041	5.0.10.0	4_exp_EVA_AMP_AWA_CON	34	Rpleas_acq	Same	Rpleas	Bmasked	CS_B	1pleas	distractor2	EVAbeforeCON	acq_US_unple_masked	acq45_masked	4	15	400	0	300	300	0	0	489	46	0	1	0	0	0	1	blank2r.bmp	0	1	+	0	2	B2r.bmp	492	1	blank2r.bmp	786	1	GKQX	786	1	blank2r.bmp	866	6	rächen	866	1	!	1239	1	!	-1	0	0	0	0	0	0	0	0	0	0	0	0	0	0	0	0	0	0	0	0	0	0	0	0	0	0	0
121918	15:19:38	15:28:15	516226	5.0.10.0	4_exp_EVA_AMP_AWA_CON	34	Rpleas_acq	Same	Rpleas	Bmasked	CS_B	1pleas	distractor2	EVAbeforeCON	acq_US_pleas_masked	acq45_masked	4	16	400	1	300	300	0	0	385	50	0	1	0	0	0	1	blank2r.bmp	0	1	+	0	7	C3r.bmp	492	1	blank2r.bmp	786	1	BMVZ	786	1	blank2r.bmp	866	6	retten	866	1	!	1239	1	!	1279	0	0	0	0	0	0	0	0	0	0	0	0	0	0	0	0	0	0	0	0	0	0	0	0	0	0	0
121918	15:19:38	15:28:17	518466	5.0.10.0	4_exp_EVA_AMP_AWA_CON	34	Rpleas_acq	Same	Rpleas	Bmasked	CS_B	1pleas	distractor2	EVAbeforeCON	acq_US_unple_masked	acq45_masked	4	17	400	1	300	300	0	0	443	50	0	0	0	0	0	1	blank2r.bmp	0	1	+	0	5	C1r.bmp	492	1	blank2r.bmp	786	1	GKQX	786	1	blank2r.bmp	866	4	fanatisch	866	1	!	1239	1	!	1346	0	0	0	0	0	0	0	0	0	0	0	0	0	0	0	0	0	0	0	0	0	0	0	0	0	0	0
121918	15:19:38	15:28:19	520945	5.0.10.0	4_exp_EVA_AMP_AWA_CON	34	Rpleas_acq	Same	Rpleas	Bmasked	CS_B	1pleas	distractor2	EVAbeforeCON	acq_US_unple_masked	acq45_masked	4	18	400	0	300	300	0	0	716	50	0	0	0	0	0	1	blank2r.bmp	0	1	+	0	4	B4r.bmp	492	1	blank2r.bmp	786	1	GKQX	786	1	blank2r.bmp	866	1	eitel	866	1	!	1239	1	!	-1	0	0	0	0	0	0	0	0	0	0	0	0	0	0	0	0	0	0	0	0	0	0	0	0	0	0	0
121918	15:19:38	15:28:22	523224	5.0.10.0	4_exp_EVA_AMP_AWA_CON	34	Rpleas_acq	Same	Rpleas	Bmasked	CS_B	1pleas	distractor2	EVAbeforeCON	acq_US_unple_masked	acq45_masked	4	19	400	0	300	300	0	0	489	50	0	0	0	0	0	1	blank2r.bmp	0	1	+	0	3	B3r.bmp	492	1	blank2r.bmp	786	1	GKQX	786	1	blank2r.bmp	866	3	leiden	866	1	!	1239	1	!	-1	0	0	0	0	0	0	0	0	0	0	0	0	0	0	0	0	0	0	0	0	0	0	0	0	0	0	0
121918	15:19:38	15:28:24	525942	5.0.10.0	4_exp_EVA_AMP_AWA_CON	34	Rpleas_acq	Same	Rpleas	Bmasked	CS_B	1pleas	distractor2	EVAbeforeCON	acq_US_pleas_masked	acq45_masked	4	20	400	0	300	300	0	0	940	46	0	0	0	0	0	1	blank2r.bmp	0	1	+	0	1	B1r.bmp	492	1	blank2r.bmp	786	1	BMVZ	786	1	blank2r.bmp	866	5	loyal	866	1	!	1239	1	!	-1	0	0	0	0	0	0	0	0	0	0	0	0	0	0	0	0	0	0	0	0	0	0	0	0	0	0	0
121918	15:19:38	15:28:27	528208	5.0.10.0	4_exp_EVA_AMP_AWA_CON	34	Rpleas_acq	Same	Rpleas	Bmasked	CS_B	1pleas	distractor2	EVAbeforeCON	acq_US_pleas_masked	acq45_masked	4	21	400	0	300	300	0	0	490	50	0	1	0	0	0	1	blank2r.bmp	0	1	+	0	4	B4r.bmp	492	1	blank2r.bmp	786	1	BMVZ	786	1	blank2r.bmp	866	3	lachen	866	1	!	1239	1	!	-1	0	0	0	0	0	0	0	0	0	0	0	0	0	0	0	0	0	0	0	0	0	0	0	0	0	0	0
121918	15:19:38	15:28:29	530421	5.0.10.0	4_exp_EVA_AMP_AWA_CON	34	Rpleas_acq	Same	Rpleas	Bmasked	CS_B	1pleas	distractor2	EVAbeforeCON	acq_US_pleas_masked	acq45_masked	4	22	400	1	300	300	0	0	402	50	0	1	0	0	0	1	blank2r.bmp	0	1	+	0	1	B1r.bmp	492	1	blank2r.bmp	786	1	BMVZ	786	1	blank2r.bmp	866	2	schön	866	1	!	1239	1	!	1306	0	0	0	0	0	0	0	0	0	0	0	0	0	0	0	0	0	0	0	0	0	0	0	0	0	0	0
121918	15:19:38	15:28:31	532713	5.0.10.0	4_exp_EVA_AMP_AWA_CON	34	Rpleas_acq	Same	Rpleas	Bmasked	CS_B	1pleas	distractor2	EVAbeforeCON	acq_US_unple_masked	acq45_masked	4	23	400	0	300	300	0	0	525	46	0	1	0	0	0	1	blank2r.bmp	0	1	+	0	7	C3r.bmp	492	1	blank2r.bmp	786	1	GKQX	786	1	blank2r.bmp	866	2	schlecht	866	1	!	1239	1	!	-1	0	0	0	0	0	0	0	0	0	0	0	0	0	0	0	0	0	0	0	0	0	0	0	0	0	0	0
121918	15:19:38	15:28:34	535339	5.0.10.0	4_exp_EVA_AMP_AWA_CON	34	Rpleas_acq	Same	Rpleas	Bmasked	CS_B	1pleas	distractor2	EVAbeforeCON	acq_US_unple_masked	acq45_masked	4	24	400	0	300	300	0	0	838	46	0	1	0	0	0	1	blank2r.bmp	0	1	+	0	8	C4r.bmp	492	1	blank2r.bmp	786	1	GKQX	786	1	blank2r.bmp	866	5	lasch	866	1	!	1239	1	!	-1	0	0	0	0	0	0	0	0	0	0	0	0	0	0	0	0	0	0	0	0	0	0	0	0	0	0	0
121918	15:19:38	15:28:36	537818	5.0.10.0	4_exp_EVA_AMP_AWA_CON	34	Rpleas_acq	Same	Rpleas	Bmasked	CS_B	1pleas	distractor2	EVAbeforeCON	acq_US_unple_masked	acq45_masked	4	25	400	0	300	300	0	0	703	50	0	0	0	0	0	1	blank2r.bmp	0	1	+	0	6	C2r.bmp	492	1	blank2r.bmp	786	1	GKQX	786	1	blank2r.bmp	866	4	fanatisch	866	1	!	1239	1	!	-1	0	0	0	0	0	0	0	0	0	0	0	0	0	0	0	0	0	0	0	0	0	0	0	0	0	0	0
121918	15:19:38	15:28:39	540190	5.0.10.0	4_exp_EVA_AMP_AWA_CON	34	Rpleas_acq	Same	Rpleas	Bmasked	CS_B	1pleas	distractor2	EVAbeforeCON	acq_US_pleas_masked	acq45_masked	4	26	400	0	300	300	0	0	590	46	0	0	0	0	0	1	blank2r.bmp	0	1	+	0	2	B2r.bmp	492	1	blank2r.bmp	786	1	BMVZ	786	1	blank2r.bmp	866	5	loyal	866	1	!	1239	1	!	-1	0	0	0	0	0	0	0	0	0	0	0	0	0	0	0	0	0	0	0	0	0	0	0	0	0	0	0
121918	15:19:38	15:28:41	542509	5.0.10.0	4_exp_EVA_AMP_AWA_CON	34	Rpleas_acq	Same	Rpleas	Bmasked	CS_B	1pleas	distractor2	EVAbeforeCON	acq_US_pleas_masked	acq45_masked	4	27	400	0	300	300	0	0	535	50	0	1	0	0	0	1	blank2r.bmp	0	1	+	0	3	B3r.bmp	492	1	blank2r.bmp	786	1	BMVZ	786	1	blank2r.bmp	866	1	ehrlich	866	1	!	1239	1	!	-1	0	0	0	0	0	0	0	0	0	0	0	0	0	0	0	0	0	0	0	0	0	0	0	0	0	0	0
121918	15:19:38	15:28:43	544948	5.0.10.0	4_exp_EVA_AMP_AWA_CON	34	Rpleas_acq	Same	Rpleas	Bmasked	CS_B	1pleas	distractor2	EVAbeforeCON	acq_US_unple_masked	acq45_masked	4	28	400	0	300	300	0	0	662	46	0	1	0	0	0	1	blank2r.bmp	0	1	+	0	5	C1r.bmp	492	1	blank2r.bmp	786	1	GKQX	786	1	blank2r.bmp	866	3	leiden	866	1	!	1239	1	!	-1	0	0	0	0	0	0	0	0	0	0	0	0	0	0	0	0	0	0	0	0	0	0	0	0	0	0	0
121918	15:19:38	15:28:46	547294	5.0.10.0	4_exp_EVA_AMP_AWA_CON	34	Rpleas_acq	Same	Rpleas	Bmasked	CS_B	1pleas	distractor2	EVAbeforeCON	acq_US_pleas_masked	acq45_masked	4	29	400	0	300	300	0	0	568	50	0	1	0	0	0	1	blank2r.bmp	0	1	+	0	6	C2r.bmp	492	1	blank2r.bmp	786	1	BMVZ	786	1	blank2r.bmp	866	3	lachen	866	1	!	1239	1	!	-1	0	0	0	0	0	0	0	0	0	0	0	0	0	0	0	0	0	0	0	0	0	0	0	0	0	0	0
121918	15:19:38	15:28:48	549546	5.0.10.0	4_exp_EVA_AMP_AWA_CON	34	Rpleas_acq	Same	Rpleas	Bmasked	CS_B	1pleas	distractor2	EVAbeforeCON	acq_US_pleas_masked	acq45_masked	4	30	400	1	300	300	0	0	444	46	0	0	0	0	0	1	blank2r.bmp	0	1	+	0	3	B3r.bmp	492	1	blank2r.bmp	786	1	BMVZ	786	1	blank2r.bmp	866	6	retten	866	1	!	1239	1	!	1346	0	0	0	0	0	0	0	0	0	0	0	0	0	0	0	0	0	0	0	0	0	0	0	0	0	0	0
121918	15:19:38	15:28:51	552345	5.0.10.0	4_exp_EVA_AMP_AWA_CON	34	Rpleas_acq	Same	Rpleas	Bmasked	CS_B	1pleas	distractor2	EVAbeforeCON	acq_US_unple_masked	acq45_masked	4	31	400	0	300	300	0	0	1027	46	0	1	0	0	0	1	blank2r.bmp	0	1	+	0	4	B4r.bmp	492	1	blank2r.bmp	786	1	GKQX	786	1	blank2r.bmp	866	1	eitel	866	1	!	1239	1	!	-1	0	0	0	0	0	0	0	0	0	0	0	0	0	0	0	0	0	0	0	0	0	0	0	0	0	0	0
121918	15:19:38	15:28:53	554611	5.0.10.0	4_exp_EVA_AMP_AWA_CON	34	Rpleas_acq	Same	Rpleas	Bmasked	CS_B	1pleas	distractor2	EVAbeforeCON	acq_US_unple_masked	acq45_masked	4	32	400	0	300	300	0	0	481	50	0	0	0	0	0	1	blank2r.bmp	0	1	+	0	7	C3r.bmp	492	1	blank2r.bmp	786	1	GKQX	786	1	blank2r.bmp	866	2	schlecht	866	1	!	1239	1	!	-1	0	0	0	0	0	0	0	0	0	0	0	0	0	0	0	0	0	0	0	0	0	0	0	0	0	0	0
121918	15:19:38	15:28:56	557276	5.0.10.0	4_exp_EVA_AMP_AWA_CON	34	Rpleas_acq	Same	Rpleas	Bmasked	CS_B	1pleas	distractor2	EVAbeforeCON	acq_US_unple_masked	acq45_masked	4	33	400	0	300	300	0	0	884	46	0	1	0	0	0	1	blank2r.bmp	0	1	+	0	1	B1r.bmp	492	1	blank2r.bmp	786	1	GKQX	786	1	blank2r.bmp	866	5	lasch	866	1	!	1239	1	!	-1	0	0	0	0	0	0	0	0	0	0	0	0	0	0	0	0	0	0	0	0	0	0	0	0	0	0	0
121918	15:19:38	15:28:58	559555	5.0.10.0	4_exp_EVA_AMP_AWA_CON	34	Rpleas_acq	Same	Rpleas	Bmasked	CS_B	1pleas	distractor2	EVAbeforeCON	acq_US_pleas_masked	acq45_masked	4	34	400	0	300	300	0	0	479	50	0	1	0	0	0	1	blank2r.bmp	0	1	+	0	5	C1r.bmp	492	1	blank2r.bmp	786	1	BMVZ	786	1	blank2r.bmp	866	2	schön	866	1	!	1239	1	!	-1	0	0	0	0	0	0	0	0	0	0	0	0	0	0	0	0	0	0	0	0	0	0	0	0	0	0	0
121918	15:19:38	15:29:00	561821	5.0.10.0	4_exp_EVA_AMP_AWA_CON	34	Rpleas_acq	Same	Rpleas	Bmasked	CS_B	1pleas	distractor2	EVAbeforeCON	acq_US_pleas_masked	acq45_masked	4	35	400	0	300	300	0	0	479	50	0	1	0	0	0	1	blank2r.bmp	0	1	+	0	2	B2r.bmp	492	1	blank2r.bmp	786	1	BMVZ	786	1	blank2r.bmp	866	4	freundlich	866	1	!	1239	1	!	-1	0	0	0	0	0	0	0	0	0	0	0	0	0	0	0	0	0	0	0	0	0	0	0	0	0	0	0
121918	15:19:38	15:29:03	564167	5.0.10.0	4_exp_EVA_AMP_AWA_CON	34	Rpleas_acq	Same	Rpleas	Bmasked	CS_B	1pleas	distractor2	EVAbeforeCON	acq_US_unple_masked	acq45_masked	4	36	400	0	300	300	0	0	559	46	0	1	0	0	0	1	blank2r.bmp	0	1	+	0	8	C4r.bmp	492	1	blank2r.bmp	786	1	GKQX	786	1	blank2r.bmp	866	6	rächen	866	1	!	1239	1	!	-1	0	0	0	0	0	0	0	0	0	0	0	0	0	0	0	0	0	0	0	0	0	0	0	0	0	0	0
121918	15:19:38	15:29:24	585851	5.0.10.0	4_exp_EVA_AMP_AWA_CON	34	Rpleas_acq	Same	Rpleas	Bmasked	CS_B	1pleas	distractor2	EVAbeforeCON	acq_US_unple_masked	acq45_masked	5	1	400	0	300	300	0	0	850	46	0	1	0	0	0	1	blank2r.bmp	0	1	+	0	4	B4r.bmp	492	1	blank2r.bmp	786	1	GKQX	786	1	blank2r.bmp	866	6	rächen	866	1	!	1239	1	!	-1	0	0	0	0	0	0	0	0	0	0	0	0	0	0	0	0	0	0	0	0	0	0	0	0	0	0	0
121918	15:19:38	15:29:27	588010	5.0.10.0	4_exp_EVA_AMP_AWA_CON	34	Rpleas_acq	Same	Rpleas	Bmasked	CS_B	1pleas	distractor2	EVAbeforeCON	acq_US_pleas_masked	acq45_masked	5	2	400	1	300	300	0	0	346	50	0	1	0	0	0	1	blank2r.bmp	0	1	+	0	3	B3r.bmp	492	1	blank2r.bmp	786	1	BMVZ	786	1	blank2r.bmp	866	2	schön	866	1	!	1239	1	!	1252	0	0	0	0	0	0	0	0	0	0	0	0	0	0	0	0	0	0	0	0	0	0	0	0	0	0	0
121918	15:19:38	15:29:29	590209	5.0.10.0	4_exp_EVA_AMP_AWA_CON	34	Rpleas_acq	Same	Rpleas	Bmasked	CS_B	1pleas	distractor2	EVAbeforeCON	acq_US_pleas_masked	acq45_masked	5	3	400	1	300	300	0	0	407	50	0	1	0	0	0	1	blank2r.bmp	0	1	+	0	1	B1r.bmp	492	1	blank2r.bmp	786	1	BMVZ	786	1	blank2r.bmp	866	1	ehrlich	866	1	!	1239	1	!	1306	0	0	0	0	0	0	0	0	0	0	0	0	0	0	0	0	0	0	0	0	0	0	0	0	0	0	0
121918	15:19:38	15:29:31	592422	5.0.10.0	4_exp_EVA_AMP_AWA_CON	34	Rpleas_acq	Same	Rpleas	Bmasked	CS_B	1pleas	distractor2	EVAbeforeCON	acq_US_unple_masked	acq45_masked	5	4	400	1	300	300	0	0	419	46	0	1	0	0	0	1	blank2r.bmp	0	1	+	0	2	B2r.bmp	492	1	blank2r.bmp	786	1	GKQX	786	1	blank2r.bmp	866	5	lasch	866	1	!	1239	1	!	1319	0	0	0	0	0	0	0	0	0	0	0	0	0	0	0	0	0	0	0	0	0	0	0	0	0	0	0
121918	15:19:38	15:29:33	594528	5.0.10.0	4_exp_EVA_AMP_AWA_CON	34	Rpleas_acq	Same	Rpleas	Bmasked	CS_B	1pleas	distractor2	EVAbeforeCON	acq_US_unple_masked	acq45_masked	5	5	400	0	300	300	0	0	321	50	0	0	0	0	0	1	blank2r.bmp	0	1	+	0	7	C3r.bmp	492	1	blank2r.bmp	786	1	GKQX	786	1	blank2r.bmp	866	1	eitel	866	1	!	-1	1	!	-1	0	0	0	0	0	0	0	0	0	0	0	0	0	0	0	0	0	0	0	0	0	0	0	0	0	0	0
121918	15:19:38	15:29:35	596967	5.0.10.0	4_exp_EVA_AMP_AWA_CON	34	Rpleas_acq	Same	Rpleas	Bmasked	CS_B	1pleas	distractor2	EVAbeforeCON	acq_US_pleas_masked	acq45_masked	5	6	400	0	300	300	0	0	662	50	0	1	0	0	0	1	blank2r.bmp	0	1	+	0	8	C4r.bmp	492	1	blank2r.bmp	786	1	BMVZ	786	1	blank2r.bmp	866	6	retten	866	1	!	1239	1	!	-1	0	0	0	0	0	0	0	0	0	0	0	0	0	0	0	0	0	0	0	0	0	0	0	0	0	0	0
121918	15:19:38	15:29:38	599299	5.0.10.0	4_exp_EVA_AMP_AWA_CON	34	Rpleas_acq	Same	Rpleas	Bmasked	CS_B	1pleas	distractor2	EVAbeforeCON	acq_US_unple_masked	acq45_masked	5	7	400	0	300	300	0	0	548	46	0	1	0	0	0	1	blank2r.bmp	0	1	+	0	5	C1r.bmp	492	1	blank2r.bmp	786	1	GKQX	786	1	blank2r.bmp	866	2	schlecht	866	1	!	1239	1	!	-1	0	0	0	0	0	0	0	0	0	0	0	0	0	0	0	0	0	0	0	0	0	0	0	0	0	0	0
121918	15:19:38	15:29:40	601458	5.0.10.0	4_exp_EVA_AMP_AWA_CON	34	Rpleas_acq	Same	Rpleas	Bmasked	CS_B	1pleas	distractor2	EVAbeforeCON	acq_US_pleas_masked	acq45_masked	5	8	400	1	300	300	0	0	346	46	0	0	0	0	0	1	blank2r.bmp	0	1	+	0	6	C2r.bmp	492	1	blank2r.bmp	786	1	BMVZ	786	1	blank2r.bmp	866	5	loyal	866	1	!	1239	1	!	1252	0	0	0	0	0	0	0	0	0	0	0	0	0	0	0	0	0	0	0	0	0	0	0	0	0	0	0
121918	15:19:38	15:29:42	603937	5.0.10.0	4_exp_EVA_AMP_AWA_CON	34	Rpleas_acq	Same	Rpleas	Bmasked	CS_B	1pleas	distractor2	EVAbeforeCON	acq_US_unple_masked	acq45_masked	5	9	400	0	300	300	0	0	712	46	0	1	0	0	0	1	blank2r.bmp	0	1	+	0	1	B1r.bmp	492	1	blank2r.bmp	786	1	GKQX	786	1	blank2r.bmp	866	4	fanatisch	866	1	!	1239	1	!	-1	0	0	0	0	0	0	0	0	0	0	0	0	0	0	0	0	0	0	0	0	0	0	0	0	0	0	0
121918	15:19:38	15:29:45	606096	5.0.10.0	4_exp_EVA_AMP_AWA_CON	34	Rpleas_acq	Same	Rpleas	Bmasked	CS_B	1pleas	distractor2	EVAbeforeCON	acq_US_pleas_masked	acq45_masked	5	10	400	1	300	300	0	0	348	50	0	1	0	0	0	1	blank2r.bmp	0	1	+	0	5	C1r.bmp	492	1	blank2r.bmp	786	1	BMVZ	786	1	blank2r.bmp	866	3	lachen	866	1	!	1239	1	!	1252	0	0	0	0	0	0	0	0	0	0	0	0	0	0	0	0	0	0	0	0	0	0	0	0	0	0	0
121918	15:19:38	15:29:47	608349	5.0.10.0	4_exp_EVA_AMP_AWA_CON	34	Rpleas_acq	Same	Rpleas	Bmasked	CS_B	1pleas	distractor2	EVAbeforeCON	acq_US_unple_masked	acq45_masked	5	11	400	1	300	300	0	0	463	46	0	1	0	0	0	1	blank2r.bmp	0	1	+	0	6	C2r.bmp	492	1	blank2r.bmp	786	1	GKQX	786	1	blank2r.bmp	866	3	leiden	866	1	!	1239	1	!	1359	0	0	0	0	0	0	0	0	0	0	0	0	0	0	0	0	0	0	0	0	0	0	0	0	0	0	0
121918	15:19:38	15:29:49	610534	5.0.10.0	4_exp_EVA_AMP_AWA_CON	34	Rpleas_acq	Same	Rpleas	Bmasked	CS_B	1pleas	distractor2	EVAbeforeCON	acq_US_pleas_masked	acq45_masked	5	12	400	1	300	300	0	0	373	50	0	1	0	0	0	1	blank2r.bmp	0	1	+	0	7	C3r.bmp	492	1	blank2r.bmp	786	1	BMVZ	786	1	blank2r.bmp	866	4	freundlich	866	1	!	1239	1	!	1279	0	0	0	0	0	0	0	0	0	0	0	0	0	0	0	0	0	0	0	0	0	0	0	0	0	0	0
121918	15:19:38	15:29:51	612693	5.0.10.0	4_exp_EVA_AMP_AWA_CON	34	Rpleas_acq	Same	Rpleas	Bmasked	CS_B	1pleas	distractor2	EVAbeforeCON	acq_US_pleas_masked	acq45_masked	5	13	400	1	300	300	0	0	364	46	0	0	0	0	0	1	blank2r.bmp	0	1	+	0	4	B4r.bmp	492	1	blank2r.bmp	786	1	BMVZ	786	1	blank2r.bmp	866	1	ehrlich	866	1	!	1239	1	!	1266	0	0	0	0	0	0	0	0	0	0	0	0	0	0	0	0	0	0	0	0	0	0	0	0	0	0	0
121918	15:19:38	15:29:54	615279	5.0.10.0	4_exp_EVA_AMP_AWA_CON	34	Rpleas_acq	Same	Rpleas	Bmasked	CS_B	1pleas	distractor2	EVAbeforeCON	acq_US_pleas_masked	acq45_masked	5	14	400	0	300	300	0	0	814	50	0	1	0	0	0	1	blank2r.bmp	0	1	+	0	2	B2r.bmp	492	1	blank2r.bmp	786	1	BMVZ	786	1	blank2r.bmp	866	4	freundlich	866	1	!	1239	1	!	-1	0	0	0	0	0	0	0	0	0	0	0	0	0	0	0	0	0	0	0	0	0	0	0	0	0	0	0
121918	15:19:38	15:29:56	617598	5.0.10.0	4_exp_EVA_AMP_AWA_CON	34	Rpleas_acq	Same	Rpleas	Bmasked	CS_B	1pleas	distractor2	EVAbeforeCON	acq_US_unple_masked	acq45_masked	5	15	400	0	300	300	0	0	533	46	0	1	0	0	0	1	blank2r.bmp	0	1	+	0	8	C4r.bmp	492	1	blank2r.bmp	786	1	GKQX	786	1	blank2r.bmp	866	6	rächen	866	1	!	1239	1	!	-1	0	0	0	0	0	0	0	0	0	0	0	0	0	0	0	0	0	0	0	0	0	0	0	0	0	0	0
121918	15:19:38	15:29:58	619797	5.0.10.0	4_exp_EVA_AMP_AWA_CON	34	Rpleas_acq	Same	Rpleas	Bmasked	CS_B	1pleas	distractor2	EVAbeforeCON	acq_US_unple_masked	acq45_masked	5	16	400	1	300	300	0	0	386	50	0	0	0	0	0	1	blank2r.bmp	0	1	+	0	3	B3r.bmp	492	1	blank2r.bmp	786	1	GKQX	786	1	blank2r.bmp	866	4	fanatisch	866	1	!	1239	1	!	1292	0	0	0	0	0	0	0	0	0	0	0	0	0	0	0	0	0	0	0	0	0	0	0	0	0	0	0
121918	15:19:38	15:30:01	622090	5.0.10.0	4_exp_EVA_AMP_AWA_CON	34	Rpleas_acq	Same	Rpleas	Bmasked	CS_B	1pleas	distractor2	EVAbeforeCON	acq_US_unple_masked	acq45_masked	5	17	400	0	300	300	0	0	507	46	0	1	0	0	0	1	blank2r.bmp	0	1	+	0	8	C4r.bmp	492	1	blank2r.bmp	786	1	GKQX	786	1	blank2r.bmp	866	5	lasch	866	1	!	1239	1	!	-1	0	0	0	0	0	0	0	0	0	0	0	0	0	0	0	0	0	0	0	0	0	0	0	0	0	0	0
121918	15:19:38	15:30:03	624355	5.0.10.0	4_exp_EVA_AMP_AWA_CON	34	Rpleas_acq	Same	Rpleas	Bmasked	CS_B	1pleas	distractor2	EVAbeforeCON	acq_US_pleas_masked	acq45_masked	5	18	400	0	300	300	0	0	483	46	0	0	0	0	0	1	blank2r.bmp	0	1	+	0	7	C3r.bmp	492	1	blank2r.bmp	786	1	BMVZ	786	1	blank2r.bmp	866	6	retten	866	1	!	1239	1	!	-1	0	0	0	0	0	0	0	0	0	0	0	0	0	0	0	0	0	0	0	0	0	0	0	0	0	0	0
121918	15:19:38	15:30:06	627154	5.0.10.0	4_exp_EVA_AMP_AWA_CON	34	Rpleas_acq	Same	Rpleas	Bmasked	CS_B	1pleas	distractor2	EVAbeforeCON	acq_US_unple_masked	acq45_masked	5	19	400	0	300	300	0	0	1007	46	0	1	0	0	0	1	blank2r.bmp	0	1	+	0	2	B2r.bmp	492	1	blank2r.bmp	786	1	GKQX	786	1	blank2r.bmp	866	2	schlecht	866	1	!	1239	1	!	-1	0	0	0	0	0	0	0	0	0	0	0	0	0	0	0	0	0	0	0	0	0	0	0	0	0	0	0
121918	15:19:38	15:30:08	629500	5.0.10.0	4_exp_EVA_AMP_AWA_CON	34	Rpleas_acq	Same	Rpleas	Bmasked	CS_B	1pleas	distractor2	EVAbeforeCON	acq_US_unple_masked	acq45_masked	5	20	400	0	300	300	0	0	568	46	0	1	0	0	0	1	blank2r.bmp	0	1	+	0	4	B4r.bmp	492	1	blank2r.bmp	786	1	GKQX	786	1	blank2r.bmp	866	1	eitel	866	1	!	1239	1	!	-1	0	0	0	0	0	0	0	0	0	0	0	0	0	0	0	0	0	0	0	0	0	0	0	0	0	0	0
121918	15:19:38	15:30:10	631592	5.0.10.0	4_exp_EVA_AMP_AWA_CON	34	Rpleas_acq	Same	Rpleas	Bmasked	CS_B	1pleas	distractor2	EVAbeforeCON	acq_US_unple_masked	acq45_masked	5	21	400	0	300	300	0	0	311	46	0	1	0	0	0	1	blank2r.bmp	0	1	+	0	3	B3r.bmp	492	1	blank2r.bmp	786	1	GKQX	786	1	blank2r.bmp	866	3	leiden	866	1	!	-1	1	!	-1	0	0	0	0	0	0	0	0	0	0	0	0	0	0	0	0	0	0	0	0	0	0	0	0	0	0	0
121918	15:19:38	15:30:12	633698	5.0.10.0	4_exp_EVA_AMP_AWA_CON	34	Rpleas_acq	Same	Rpleas	Bmasked	CS_B	1pleas	distractor2	EVAbeforeCON	acq_US_unple_masked	acq45_masked	5	22	400	0	300	300	0	0	331	46	0	1	0	0	0	1	blank2r.bmp	0	1	+	0	1	B1r.bmp	492	1	blank2r.bmp	786	1	GKQX	786	1	blank2r.bmp	866	1	eitel	866	1	!	-1	1	!	-1	0	0	0	0	0	0	0	0	0	0	0	0	0	0	0	0	0	0	0	0	0	0	0	0	0	0	0
121918	15:19:38	15:30:14	635937	5.0.10.0	4_exp_EVA_AMP_AWA_CON	34	Rpleas_acq	Same	Rpleas	Bmasked	CS_B	1pleas	distractor2	EVAbeforeCON	acq_US_unple_masked	acq45_masked	5	23	400	1	300	300	0	0	429	46	0	1	0	0	0	1	blank2r.bmp	0	1	+	0	5	C1r.bmp	492	1	blank2r.bmp	786	1	GKQX	786	1	blank2r.bmp	866	2	schlecht	866	1	!	1239	1	!	1332	0	0	0	0	0	0	0	0	0	0	0	0	0	0	0	0	0	0	0	0	0	0	0	0	0	0	0
121918	15:19:38	15:30:17	638163	5.0.10.0	4_exp_EVA_AMP_AWA_CON	34	Rpleas_acq	Same	Rpleas	Bmasked	CS_B	1pleas	distractor2	EVAbeforeCON	acq_US_unple_masked	acq45_masked	5	24	400	1	300	300	0	0	433	50	0	0	0	0	0	1	blank2r.bmp	0	1	+	0	6	C2r.bmp	492	1	blank2r.bmp	786	1	GKQX	786	1	blank2r.bmp	866	5	lasch	866	1	!	1239	1	!	1332	0	0	0	0	0	0	0	0	0	0	0	0	0	0	0	0	0	0	0	0	0	0	0	0	0	0	0
121918	15:19:38	15:30:19	640415	5.0.10.0	4_exp_EVA_AMP_AWA_CON	34	Rpleas_acq	Same	Rpleas	Bmasked	CS_B	1pleas	distractor2	EVAbeforeCON	acq_US_pleas_masked	acq45_masked	5	25	400	1	300	300	0	0	456	50	0	1	0	0	0	1	blank2r.bmp	0	1	+	0	3	B3r.bmp	492	1	blank2r.bmp	786	1	BMVZ	786	1	blank2r.bmp	866	3	lachen	866	1	!	1239	1	!	1359	0	0	0	0	0	0	0	0	0	0	0	0	0	0	0	0	0	0	0	0	0	0	0	0	0	0	0
121918	15:19:38	15:30:21	642721	5.0.10.0	4_exp_EVA_AMP_AWA_CON	34	Rpleas_acq	Same	Rpleas	Bmasked	CS_B	1pleas	distractor2	EVAbeforeCON	acq_US_unple_masked	acq45_masked	5	26	400	0	300	300	0	0	533	46	0	1	0	0	0	1	blank2r.bmp	0	1	+	0	7	C3r.bmp	492	1	blank2r.bmp	786	1	GKQX	786	1	blank2r.bmp	866	3	leiden	866	1	!	1239	1	!	-1	0	0	0	0	0	0	0	0	0	0	0	0	0	0	0	0	0	0	0	0	0	0	0	0	0	0	0
121918	15:19:38	15:30:23	644814	5.0.10.0	4_exp_EVA_AMP_AWA_CON	34	Rpleas_acq	Same	Rpleas	Bmasked	CS_B	1pleas	distractor2	EVAbeforeCON	acq_US_pleas_masked	acq45_masked	5	27	400	0	300	300	0	0	311	50	0	1	0	0	0	1	blank2r.bmp	0	1	+	0	1	B1r.bmp	492	1	blank2r.bmp	786	1	BMVZ	786	1	blank2r.bmp	866	5	loyal	866	1	!	-1	1	!	-1	0	0	0	0	0	0	0	0	0	0	0	0	0	0	0	0	0	0	0	0	0	0	0	0	0	0	0
121918	15:19:38	15:30:26	647026	5.0.10.0	4_exp_EVA_AMP_AWA_CON	34	Rpleas_acq	Same	Rpleas	Bmasked	CS_B	1pleas	distractor2	EVAbeforeCON	acq_US_pleas_masked	acq45_masked	5	28	400	1	300	300	0	0	410	50	0	1	0	0	0	1	blank2r.bmp	0	1	+	0	5	C1r.bmp	492	1	blank2r.bmp	786	1	BMVZ	786	1	blank2r.bmp	866	2	schön	866	1	!	1239	1	!	1306	0	0	0	0	0	0	0	0	0	0	0	0	0	0	0	0	0	0	0	0	0	0	0	0	0	0	0
121918	15:19:38	15:30:28	649225	5.0.10.0	4_exp_EVA_AMP_AWA_CON	34	Rpleas_acq	Same	Rpleas	Bmasked	CS_B	1pleas	distractor2	EVAbeforeCON	acq_US_pleas_masked	acq45_masked	5	29	400	1	300	300	0	0	412	50	0	1	0	0	0	1	blank2r.bmp	0	1	+	0	6	C2r.bmp	492	1	blank2r.bmp	786	1	BMVZ	786	1	blank2r.bmp	866	3	lachen	866	1	!	1239	1	!	1306	0	0	0	0	0	0	0	0	0	0	0	0	0	0	0	0	0	0	0	0	0	0	0	0	0	0	0
121918	15:19:38	15:30:30	651451	5.0.10.0	4_exp_EVA_AMP_AWA_CON	34	Rpleas_acq	Same	Rpleas	Bmasked	CS_B	1pleas	distractor2	EVAbeforeCON	acq_US_unple_masked	acq45_masked	5	30	400	1	300	300	0	0	435	50	0	0	0	0	0	1	blank2r.bmp	0	1	+	0	4	B4r.bmp	492	1	blank2r.bmp	786	1	GKQX	786	1	blank2r.bmp	866	4	fanatisch	866	1	!	1239	1	!	1332	0	0	0	0	0	0	0	0	0	0	0	0	0	0	0	0	0	0	0	0	0	0	0	0	0	0	0
121918	15:19:38	15:30:33	654036	5.0.10.0	4_exp_EVA_AMP_AWA_CON	34	Rpleas_acq	Same	Rpleas	Bmasked	CS_B	1pleas	distractor2	EVAbeforeCON	acq_US_unple_masked	acq45_masked	5	31	400	0	300	300	0	0	799	46	0	1	0	0	0	1	blank2r.bmp	0	1	+	0	8	C4r.bmp	492	1	blank2r.bmp	786	1	GKQX	786	1	blank2r.bmp	866	6	rächen	866	1	!	1239	1	!	-1	0	0	0	0	0	0	0	0	0	0	0	0	0	0	0	0	0	0	0	0	0	0	0	0	0	0	0
121918	15:19:38	15:30:35	656315	5.0.10.0	4_exp_EVA_AMP_AWA_CON	34	Rpleas_acq	Same	Rpleas	Bmasked	CS_B	1pleas	distractor2	EVAbeforeCON	acq_US_pleas_masked	acq45_masked	5	32	400	0	300	300	0	0	492	50	0	1	0	0	0	1	blank2r.bmp	0	1	+	0	2	B2r.bmp	492	1	blank2r.bmp	786	1	BMVZ	786	1	blank2r.bmp	866	2	schön	866	1	!	1239	1	!	-1	0	0	0	0	0	0	0	0	0	0	0	0	0	0	0	0	0	0	0	0	0	0	0	0	0	0	0
121918	15:19:38	15:30:37	658674	5.0.10.0	4_exp_EVA_AMP_AWA_CON	34	Rpleas_acq	Same	Rpleas	Bmasked	CS_B	1pleas	distractor2	EVAbeforeCON	acq_US_pleas_masked	acq45_masked	5	33	400	0	300	300	0	0	577	50	0	1	0	0	0	1	blank2r.bmp	0	1	+	0	2	B2r.bmp	492	1	blank2r.bmp	786	1	BMVZ	786	1	blank2r.bmp	866	4	freundlich	866	1	!	1239	1	!	-1	0	0	0	0	0	0	0	0	0	0	0	0	0	0	0	0	0	0	0	0	0	0	0	0	0	0	0
121918	15:19:38	15:30:39	660940	5.0.10.0	4_exp_EVA_AMP_AWA_CON	34	Rpleas_acq	Same	Rpleas	Bmasked	CS_B	1pleas	distractor2	EVAbeforeCON	acq_US_pleas_masked	acq45_masked	5	34	400	1	300	300	0	0	438	46	0	0	0	0	0	1	blank2r.bmp	0	1	+	0	5	C1r.bmp	492	1	blank2r.bmp	786	1	BMVZ	786	1	blank2r.bmp	866	6	retten	866	1	!	1239	1	!	1346	0	0	0	0	0	0	0	0	0	0	0	0	0	0	0	0	0	0	0	0	0	0	0	0	0	0	0
121918	15:19:38	15:30:42	663259	5.0.10.0	4_exp_EVA_AMP_AWA_CON	34	Rpleas_acq	Same	Rpleas	Bmasked	CS_B	1pleas	distractor2	EVAbeforeCON	acq_US_pleas_masked	acq45_masked	5	35	400	0	300	300	0	0	549	50	0	1	0	0	0	1	blank2r.bmp	0	1	+	0	6	C2r.bmp	492	1	blank2r.bmp	786	1	BMVZ	786	1	blank2r.bmp	866	5	loyal	866	1	!	1239	1	!	-1	0	0	0	0	0	0	0	0	0	0	0	0	0	0	0	0	0	0	0	0	0	0	0	0	0	0	0
121918	15:19:38	15:30:44	665512	5.0.10.0	4_exp_EVA_AMP_AWA_CON	34	Rpleas_acq	Same	Rpleas	Bmasked	CS_B	1pleas	distractor2	EVAbeforeCON	acq_US_pleas_masked	acq45_masked	5	36	400	1	300	300	0	0	441	50	0	1	0	0	0	1	blank2r.bmp	0	1	+	0	3	B3r.bmp	492	1	blank2r.bmp	786	1	BMVZ	786	1	blank2r.bmp	866	1	ehrlich	866	1	!	1239	1	!	1346	0	0	0	0	0	0	0	0	0	0	0	0	0	0	0	0	0	0	0	0	0	0	0	0	0	0	0
121918	15:19:38	15:31:12	693140	5.0.10.0	4_exp_EVA_AMP_AWA_CON	34	Rpleas_acq	Same	Rpleas	Bmasked	CS_B	1pleas	distractor2	EVAbeforeCON	EvalRating_firsttwo	EvalRating_firsttwo	6	1	0	0	300	300	0	0	5527	line	-76,171875	0	0	0	0	1	eraser	0	1	Wie angenehm oder unangenehm finden Sie die  Buchstabenkette WFPH?	0	1	leftborder	0	1	rightborder	0	1	line	0	1	Unangenehm	0	1	Angenehm	0	0	0	0	0	0	0	0	0	0	0	0	0	0	0	0	0	0	0	0	0	0	0	0	0	0	0	0	0	0	0	0	0	0
121918	15:19:38	15:31:22	703456	5.0.10.0	4_exp_EVA_AMP_AWA_CON	34	Rpleas_acq	Same	Rpleas	Bmasked	CS_B	1pleas	distractor2	EVAbeforeCON	EvalRating_lastfour	EvalRating_lastfour	7	1	0	0	300	300	0	0	7855	line	-52,9785156249999928946	0	0	0	0	1	eraser	1	1	Wie angenehm oder unangenehm finden Sie die  Buchstabenkette BMVZ?	1	1	leftborder	1	1	rightborder	1	1	line	1	1	Unangenehm	1	1	Angenehm	1	0	0	0	0	0	0	0	0	0	0	0	0	0	0	0	0	0	0	0	0	0	0	0	0	0	0	0	0	0	0	0	0	0
121918	15:19:38	15:31:24	705855	5.0.10.0	4_exp_EVA_AMP_AWA_CON	34	Rpleas_acq	Same	Rpleas	Bmasked	CS_B	1pleas	distractor2	EVAbeforeCON	blank_screen	EvalRating_lastfour	7	3	0	0	300	300	0	0	0	0	-52,9785156249999928946	0	0	0	0	1	eraser	0	0	0	0	0	0	0	0	0	0	0	0	0	0	0	0	0	0	0	0	0	0	0	0	0	0	0	0	0	0	0	0	0	0	0	0	0	0	0	0	0	0	0	0	0	0	0	0	0	0	0	0
121918	15:19:38	15:31:30	711186	5.0.10.0	4_exp_EVA_AMP_AWA_CON	34	Rpleas_acq	Same	Rpleas	Bmasked	CS_B	1pleas	distractor2	EVAbeforeCON	EvalRating_lastfour	EvalRating_lastfour	7	4	0	0	300	300	0	0	4757	line	-17,822265625	0	0	0	0	1	eraser	0	2	Wie angenehm oder unangenehm finden Sie die  Buchstabenkette GKQX?	0	1	leftborder	0	1	rightborder	0	1	line	0	1	Unangenehm	0	1	Angenehm	0	0	0	0	0	0	0	0	0	0	0	0	0	0	0	0	0	0	0	0	0	0	0	0	0	0	0	0	0	0	0	0	0	0
121918	15:19:38	15:31:32	713572	5.0.10.0	4_exp_EVA_AMP_AWA_CON	34	Rpleas_acq	Same	Rpleas	Bmasked	CS_B	1pleas	distractor2	EVAbeforeCON	blank_screen	EvalRating_lastfour	7	6	0	0	300	300	0	0	0	0	-17,822265625	0	0	0	0	1	eraser	0	0	0	0	0	0	0	0	0	0	0	0	0	0	0	0	0	0	0	0	0	0	0	0	0	0	0	0	0	0	0	0	0	0	0	0	0	0	0	0	0	0	0	0	0	0	0	0	0	0	0	0
121918	15:19:38	15:31:37	718450	5.0.10.0	4_exp_EVA_AMP_AWA_CON	34	Rpleas_acq	Same	Rpleas	Bmasked	CS_B	1pleas	distractor2	EVAbeforeCON	EvalRating_lastfour	EvalRating_lastfour	7	7	0	0	300	300	0	0	4296	line	8,544921875	0	0	0	0	1	eraser	0	3	Wie angenehm oder unangenehm finden Sie die  Buchstabenkette JCRD?	0	1	leftborder	0	1	rightborder	0	1	line	0	1	Unangenehm	0	1	Angenehm	0	0	0	0	0	0	0	0	0	0	0	0	0	0	0	0	0	0	0	0	0	0	0	0	0	0	0	0	0	0	0	0	0	0
121918	15:19:38	15:32:26	767563	5.0.10.0	4_exp_EVA_AMP_AWA_CON	34	Rpleas_acq	Same	Rpleas	Bmasked	CS_B	1pleas	distractor2	EVAbeforeCON	AMP_CSunple	AMP1_masked	8	1	0	0	300	300	0	0	4763	50	8,544921875	0	0	0	0	1	blank2r.bmp	0	1	GKQX	0	1	blank2r.bmp	79	152	pic152.bmp	199	1	whitenoise_No3.bmp	306	0	0	0	0	0	0	0	0	0	0	0	0	0	0	0	0	0	0	0	0	0	0	0	0	0	0	0	0	0	0	0	0	0	0	0	0	0	0	0
121918	15:19:38	15:32:31	772188	5.0.10.0	4_exp_EVA_AMP_AWA_CON	34	Rpleas_acq	Same	Rpleas	Bmasked	CS_B	1pleas	distractor2	EVAbeforeCON	AMP_CSpleas	AMP1_masked	8	2	0	0	300	300	0	0	3704	46	8,544921875	0	0	0	0	1	blank2r.bmp	0	1	BMVZ	0	1	blank2r.bmp	79	74	pic74.bmp	199	1	whitenoise_No3.bmp	306	0	0	0	0	0	0	0	0	0	0	0	0	0	0	0	0	0	0	0	0	0	0	0	0	0	0	0	0	0	0	0	0	0	0	0	0	0	0	0
121918	15:19:38	15:32:33	774200	5.0.10.0	4_exp_EVA_AMP_AWA_CON	34	Rpleas_acq	Same	Rpleas	Bmasked	CS_B	1pleas	distractor2	EVAbeforeCON	AMP_CSpleas	AMP1_masked	8	3	0	0	300	300	0	0	1094	50	8,544921875	1	0	0	0	1	blank2r.bmp	0	1	BMVZ	0	1	blank2r.bmp	79	68	pic68.bmp	199	1	whitenoise_No3.bmp	306	0	0	0	0	0	0	0	0	0	0	0	0	0	0	0	0	0	0	0	0	0	0	0	0	0	0	0	0	0	0	0	0	0	0	0	0	0	0	0
121918	15:19:38	15:32:35	776626	5.0.10.0	4_exp_EVA_AMP_AWA_CON	34	Rpleas_acq	Same	Rpleas	Bmasked	CS_B	1pleas	distractor2	EVAbeforeCON	AMP_CSunple	AMP1_masked	8	4	0	0	300	300	0	0	1513	50	8,544921875	0	0	0	0	1	blank2r.bmp	0	1	GKQX	0	1	blank2r.bmp	79	102	pic102.bmp	199	1	whitenoise_No3.bmp	306	0	0	0	0	0	0	0	0	0	0	0	0	0	0	0	0	0	0	0	0	0	0	0	0	0	0	0	0	0	0	0	0	0	0	0	0	0	0	0
121918	15:19:38	15:32:37	778545	5.0.10.0	4_exp_EVA_AMP_AWA_CON	34	Rpleas_acq	Same	Rpleas	Bmasked	CS_B	1pleas	distractor2	EVAbeforeCON	AMP_CSunple	AMP1_masked	8	5	0	0	300	300	0	0	1000	46	8,544921875	1	0	0	0	1	blank2r.bmp	0	1	GKQX	0	1	blank2r.bmp	79	91	pic91.bmp	199	1	whitenoise_No3.bmp	306	0	0	0	0	0	0	0	0	0	0	0	0	0	0	0	0	0	0	0	0	0	0	0	0	0	0	0	0	0	0	0	0	0	0	0	0	0	0	0
121918	15:19:38	15:32:39	780184	5.0.10.0	4_exp_EVA_AMP_AWA_CON	34	Rpleas_acq	Same	Rpleas	Bmasked	CS_B	1pleas	distractor2	EVAbeforeCON	AMP_CSpleas	AMP1_masked	8	6	0	0	300	300	0	0	725	50	8,544921875	1	0	0	0	1	blank2r.bmp	0	1	BMVZ	0	1	blank2r.bmp	79	62	pic62.bmp	199	1	whitenoise_No3.bmp	306	0	0	0	0	0	0	0	0	0	0	0	0	0	0	0	0	0	0	0	0	0	0	0	0	0	0	0	0	0	0	0	0	0	0	0	0	0	0	0
121918	15:19:38	15:32:41	782130	5.0.10.0	4_exp_EVA_AMP_AWA_CON	34	Rpleas_acq	Same	Rpleas	Bmasked	CS_B	1pleas	distractor2	EVAbeforeCON	AMP_CSpleas	AMP1_masked	8	7	0	0	300	300	0	0	1026	50	8,544921875	1	0	0	0	1	blank2r.bmp	0	1	BMVZ	0	1	blank2r.bmp	79	10	pic10.bmp	199	1	whitenoise_No3.bmp	306	0	0	0	0	0	0	0	0	0	0	0	0	0	0	0	0	0	0	0	0	0	0	0	0	0	0	0	0	0	0	0	0	0	0	0	0	0	0	0
121918	15:19:38	15:32:42	783956	5.0.10.0	4_exp_EVA_AMP_AWA_CON	34	Rpleas_acq	Same	Rpleas	Bmasked	CS_B	1pleas	distractor2	EVAbeforeCON	AMP_distractor	AMP1_masked	8	8	0	0	300	300	0	0	898	50	8,544921875	0	0	0	0	1	blank2r.bmp	0	1	JCRD	0	1	blank2r.bmp	79	27	pic27.bmp	199	1	whitenoise_No3.bmp	306	0	0	0	0	0	0	0	0	0	0	0	0	0	0	0	0	0	0	0	0	0	0	0	0	0	0	0	0	0	0	0	0	0	0	0	0	0	0	0
121918	15:19:38	15:32:44	785662	5.0.10.0	4_exp_EVA_AMP_AWA_CON	34	Rpleas_acq	Same	Rpleas	Bmasked	CS_B	1pleas	distractor2	EVAbeforeCON	AMP_CSunple	AMP1_masked	8	9	0	0	300	300	0	0	784	46	8,544921875	1	0	0	0	1	blank2r.bmp	0	1	GKQX	0	1	blank2r.bmp	79	138	pic138.bmp	199	1	whitenoise_No3.bmp	306	0	0	0	0	0	0	0	0	0	0	0	0	0	0	0	0	0	0	0	0	0	0	0	0	0	0	0	0	0	0	0	0	0	0	0	0	0	0	0
121918	15:19:38	15:32:46	787248	5.0.10.0	4_exp_EVA_AMP_AWA_CON	34	Rpleas_acq	Same	Rpleas	Bmasked	CS_B	1pleas	distractor2	EVAbeforeCON	AMP_CSunple	AMP1_masked	8	10	0	0	300	300	0	0	656	50	8,544921875	0	0	0	0	1	blank2r.bmp	0	1	GKQX	0	1	blank2r.bmp	79	85	pic85.bmp	199	1	whitenoise_No3.bmp	306	0	0	0	0	0	0	0	0	0	0	0	0	0	0	0	0	0	0	0	0	0	0	0	0	0	0	0	0	0	0	0	0	0	0	0	0	0	0	0
121918	15:19:38	15:32:47	788914	5.0.10.0	4_exp_EVA_AMP_AWA_CON	34	Rpleas_acq	Same	Rpleas	Bmasked	CS_B	1pleas	distractor2	EVAbeforeCON	AMP_CSunple	AMP1_masked	8	11	0	0	300	300	0	0	736	50	8,544921875	0	0	0	0	1	blank2r.bmp	0	1	GKQX	0	1	blank2r.bmp	79	59	pic59.bmp	199	1	whitenoise_No3.bmp	306	0	0	0	0	0	0	0	0	0	0	0	0	0	0	0	0	0	0	0	0	0	0	0	0	0	0	0	0	0	0	0	0	0	0	0	0	0	0	0
121918	15:19:38	15:32:49	790847	5.0.10.0	4_exp_EVA_AMP_AWA_CON	34	Rpleas_acq	Same	Rpleas	Bmasked	CS_B	1pleas	distractor2	EVAbeforeCON	AMP_CSpleas	AMP1_masked	8	12	0	0	300	300	0	0	1003	46	8,544921875	0	0	0	0	1	blank2r.bmp	0	1	BMVZ	0	1	blank2r.bmp	79	60	pic60.bmp	199	1	whitenoise_No3.bmp	306	0	0	0	0	0	0	0	0	0	0	0	0	0	0	0	0	0	0	0	0	0	0	0	0	0	0	0	0	0	0	0	0	0	0	0	0	0	0	0
121918	15:19:38	15:32:51	792353	5.0.10.0	4_exp_EVA_AMP_AWA_CON	34	Rpleas_acq	Same	Rpleas	Bmasked	CS_B	1pleas	distractor2	EVAbeforeCON	AMP_CSpleas	AMP1_masked	8	13	0	0	300	300	0	0	578	50	8,544921875	1	0	0	0	1	blank2r.bmp	0	1	BMVZ	0	1	blank2r.bmp	79	84	pic84.bmp	199	1	whitenoise_No3.bmp	306	0	0	0	0	0	0	0	0	0	0	0	0	0	0	0	0	0	0	0	0	0	0	0	0	0	0	0	0	0	0	0	0	0	0	0	0	0	0	0
121918	15:19:38	15:32:53	794405	5.0.10.0	4_exp_EVA_AMP_AWA_CON	34	Rpleas_acq	Same	Rpleas	Bmasked	CS_B	1pleas	distractor2	EVAbeforeCON	AMP_CSunple	AMP1_masked	8	14	0	0	300	300	0	0	1141	50	8,544921875	0	0	0	0	1	blank2r.bmp	0	1	GKQX	0	1	blank2r.bmp	79	46	pic46.bmp	199	1	whitenoise_No3.bmp	306	0	0	0	0	0	0	0	0	0	0	0	0	0	0	0	0	0	0	0	0	0	0	0	0	0	0	0	0	0	0	0	0	0	0	0	0	0	0	0
121918	15:19:38	15:32:54	795911	5.0.10.0	4_exp_EVA_AMP_AWA_CON	34	Rpleas_acq	Same	Rpleas	Bmasked	CS_B	1pleas	distractor2	EVAbeforeCON	AMP_CSpleas	AMP1_masked	8	15	0	0	300	300	0	0	574	46	8,544921875	0	0	0	0	1	blank2r.bmp	0	1	BMVZ	0	1	blank2r.bmp	79	143	pic143.bmp	199	1	whitenoise_No3.bmp	306	0	0	0	0	0	0	0	0	0	0	0	0	0	0	0	0	0	0	0	0	0	0	0	0	0	0	0	0	0	0	0	0	0	0	0	0	0	0	0
121918	15:19:38	15:32:56	797497	5.0.10.0	4_exp_EVA_AMP_AWA_CON	34	Rpleas_acq	Same	Rpleas	Bmasked	CS_B	1pleas	distractor2	EVAbeforeCON	AMP_distractor	AMP1_masked	8	16	0	0	300	300	0	0	672	46	8,544921875	0	0	0	0	1	blank2r.bmp	0	1	JCRD	0	1	blank2r.bmp	79	151	pic151.bmp	199	1	whitenoise_No3.bmp	306	0	0	0	0	0	0	0	0	0	0	0	0	0	0	0	0	0	0	0	0	0	0	0	0	0	0	0	0	0	0	0	0	0	0	0	0	0	0	0
121918	15:19:38	15:32:57	798963	5.0.10.0	4_exp_EVA_AMP_AWA_CON	34	Rpleas_acq	Same	Rpleas	Bmasked	CS_B	1pleas	distractor2	EVAbeforeCON	AMP_CSpleas	AMP1_masked	8	17	0	0	300	300	0	0	543	50	8,544921875	1	0	0	0	1	blank2r.bmp	0	1	BMVZ	0	1	blank2r.bmp	79	54	pic54.bmp	199	1	whitenoise_No3.bmp	306	0	0	0	0	0	0	0	0	0	0	0	0	0	0	0	0	0	0	0	0	0	0	0	0	0	0	0	0	0	0	0	0	0	0	0	0	0	0	0
121918	15:19:38	15:32:59	800683	5.0.10.0	4_exp_EVA_AMP_AWA_CON	34	Rpleas_acq	Same	Rpleas	Bmasked	CS_B	1pleas	distractor2	EVAbeforeCON	AMP_CSunple	AMP1_masked	8	18	0	0	300	300	0	0	788	46	8,544921875	1	0	0	0	1	blank2r.bmp	0	1	GKQX	0	1	blank2r.bmp	79	133	pic133.bmp	199	1	whitenoise_No3.bmp	306	0	0	0	0	0	0	0	0	0	0	0	0	0	0	0	0	0	0	0	0	0	0	0	0	0	0	0	0	0	0	0	0	0	0	0	0	0	0	0
121918	15:19:38	15:33:01	802495	5.0.10.0	4_exp_EVA_AMP_AWA_CON	34	Rpleas_acq	Same	Rpleas	Bmasked	CS_B	1pleas	distractor2	EVAbeforeCON	AMP_distractor	AMP1_masked	8	19	0	0	300	300	0	0	891	46	8,544921875	0	0	0	0	1	blank2r.bmp	0	1	JCRD	0	1	blank2r.bmp	79	125	pic125.bmp	199	1	whitenoise_No3.bmp	306	0	0	0	0	0	0	0	0	0	0	0	0	0	0	0	0	0	0	0	0	0	0	0	0	0	0	0	0	0	0	0	0	0	0	0	0	0	0	0
121918	15:19:38	15:33:02	803975	5.0.10.0	4_exp_EVA_AMP_AWA_CON	34	Rpleas_acq	Same	Rpleas	Bmasked	CS_B	1pleas	distractor2	EVAbeforeCON	AMP_distractor	AMP1_masked	8	20	0	0	300	300	0	0	560	50	8,544921875	0	0	0	0	1	blank2r.bmp	0	1	JCRD	0	1	blank2r.bmp	79	28	pic28.bmp	199	1	whitenoise_No3.bmp	306	0	0	0	0	0	0	0	0	0	0	0	0	0	0	0	0	0	0	0	0	0	0	0	0	0	0	0	0	0	0	0	0	0	0	0	0	0	0	0
121918	15:19:38	15:33:04	805907	5.0.10.0	4_exp_EVA_AMP_AWA_CON	34	Rpleas_acq	Same	Rpleas	Bmasked	CS_B	1pleas	distractor2	EVAbeforeCON	AMP_distractor	AMP1_masked	8	21	0	0	300	300	0	0	1021	46	8,544921875	0	0	0	0	1	blank2r.bmp	0	1	JCRD	0	1	blank2r.bmp	79	43	pic43.bmp	199	1	whitenoise_No3.bmp	306	0	0	0	0	0	0	0	0	0	0	0	0	0	0	0	0	0	0	0	0	0	0	0	0	0	0	0	0	0	0	0	0	0	0	0	0	0	0	0
121918	15:19:38	15:33:06	807906	5.0.10.0	4_exp_EVA_AMP_AWA_CON	34	Rpleas_acq	Same	Rpleas	Bmasked	CS_B	1pleas	distractor2	EVAbeforeCON	AMP_CSunple	AMP1_masked	8	22	0	0	300	300	0	0	1087	50	8,544921875	0	0	0	0	1	blank2r.bmp	0	1	GKQX	0	1	blank2r.bmp	79	116	pic116.bmp	199	1	whitenoise_No3.bmp	306	0	0	0	0	0	0	0	0	0	0	0	0	0	0	0	0	0	0	0	0	0	0	0	0	0	0	0	0	0	0	0	0	0	0	0	0	0	0	0
121918	15:19:38	15:33:09	810079	5.0.10.0	4_exp_EVA_AMP_AWA_CON	34	Rpleas_acq	Same	Rpleas	Bmasked	CS_B	1pleas	distractor2	EVAbeforeCON	AMP_CSunple	AMP1_masked	8	23	0	0	300	300	0	0	1251	46	8,544921875	1	0	0	0	1	blank2r.bmp	0	1	GKQX	0	1	blank2r.bmp	79	135	pic135.bmp	199	1	whitenoise_No3.bmp	306	0	0	0	0	0	0	0	0	0	0	0	0	0	0	0	0	0	0	0	0	0	0	0	0	0	0	0	0	0	0	0	0	0	0	0	0	0	0	0
121918	15:19:38	15:33:10	811691	5.0.10.0	4_exp_EVA_AMP_AWA_CON	34	Rpleas_acq	Same	Rpleas	Bmasked	CS_B	1pleas	distractor2	EVAbeforeCON	AMP_distractor	AMP1_masked	8	24	0	0	300	300	0	0	702	46	8,544921875	0	0	0	0	1	blank2r.bmp	0	1	JCRD	0	1	blank2r.bmp	79	105	pic105.bmp	199	1	whitenoise_No3.bmp	306	0	0	0	0	0	0	0	0	0	0	0	0	0	0	0	0	0	0	0	0	0	0	0	0	0	0	0	0	0	0	0	0	0	0	0	0	0	0	0
121918	15:19:38	15:33:12	813117	5.0.10.0	4_exp_EVA_AMP_AWA_CON	34	Rpleas_acq	Same	Rpleas	Bmasked	CS_B	1pleas	distractor2	EVAbeforeCON	AMP_distractor	AMP1_masked	8	25	0	0	300	300	0	0	495	50	8,544921875	0	0	0	0	1	blank2r.bmp	0	1	JCRD	0	1	blank2r.bmp	79	31	pic31.bmp	199	1	whitenoise_No3.bmp	306	0	0	0	0	0	0	0	0	0	0	0	0	0	0	0	0	0	0	0	0	0	0	0	0	0	0	0	0	0	0	0	0	0	0	0	0	0	0	0
121918	15:19:38	15:33:13	814677	5.0.10.0	4_exp_EVA_AMP_AWA_CON	34	Rpleas_acq	Same	Rpleas	Bmasked	CS_B	1pleas	distractor2	EVAbeforeCON	AMP_distractor	AMP1_masked	8	26	0	0	300	300	0	0	650	50	8,544921875	0	0	0	0	1	blank2r.bmp	0	1	JCRD	0	1	blank2r.bmp	79	146	pic146.bmp	199	1	whitenoise_No3.bmp	306	0	0	0	0	0	0	0	0	0	0	0	0	0	0	0	0	0	0	0	0	0	0	0	0	0	0	0	0	0	0	0	0	0	0	0	0	0	0	0
121918	15:19:38	15:33:15	816156	5.0.10.0	4_exp_EVA_AMP_AWA_CON	34	Rpleas_acq	Same	Rpleas	Bmasked	CS_B	1pleas	distractor2	EVAbeforeCON	AMP_distractor	AMP1_masked	8	27	0	0	300	300	0	0	550	50	8,544921875	0	0	0	0	1	blank2r.bmp	0	1	JCRD	0	1	blank2r.bmp	79	47	pic47.bmp	199	1	whitenoise_No3.bmp	306	0	0	0	0	0	0	0	0	0	0	0	0	0	0	0	0	0	0	0	0	0	0	0	0	0	0	0	0	0	0	0	0	0	0	0	0	0	0	0
121918	15:19:38	15:33:16	817809	5.0.10.0	4_exp_EVA_AMP_AWA_CON	34	Rpleas_acq	Same	Rpleas	Bmasked	CS_B	1pleas	distractor2	EVAbeforeCON	AMP_CSpleas	AMP1_masked	8	28	0	0	300	300	0	0	744	50	8,544921875	1	0	0	0	1	blank2r.bmp	0	1	BMVZ	0	1	blank2r.bmp	79	153	pic153.bmp	199	1	whitenoise_No3.bmp	306	0	0	0	0	0	0	0	0	0	0	0	0	0	0	0	0	0	0	0	0	0	0	0	0	0	0	0	0	0	0	0	0	0	0	0	0	0	0	0
121918	15:19:38	15:33:18	819235	5.0.10.0	4_exp_EVA_AMP_AWA_CON	34	Rpleas_acq	Same	Rpleas	Bmasked	CS_B	1pleas	distractor2	EVAbeforeCON	AMP_distractor	AMP1_masked	8	29	0	0	300	300	0	0	501	46	8,544921875	0	0	0	0	1	blank2r.bmp	0	1	JCRD	0	1	blank2r.bmp	79	97	pic97.bmp	199	1	whitenoise_No3.bmp	306	0	0	0	0	0	0	0	0	0	0	0	0	0	0	0	0	0	0	0	0	0	0	0	0	0	0	0	0	0	0	0	0	0	0	0	0	0	0	0
121918	15:19:38	15:33:19	820781	5.0.10.0	4_exp_EVA_AMP_AWA_CON	34	Rpleas_acq	Same	Rpleas	Bmasked	CS_B	1pleas	distractor2	EVAbeforeCON	AMP_CSunple	AMP1_masked	8	30	0	0	300	300	0	0	618	50	8,544921875	0	0	0	0	1	blank2r.bmp	0	1	GKQX	0	1	blank2r.bmp	79	149	pic149.bmp	199	1	whitenoise_No3.bmp	306	0	0	0	0	0	0	0	0	0	0	0	0	0	0	0	0	0	0	0	0	0	0	0	0	0	0	0	0	0	0	0	0	0	0	0	0	0	0	0
121918	15:19:38	15:33:21	822274	5.0.10.0	4_exp_EVA_AMP_AWA_CON	34	Rpleas_acq	Same	Rpleas	Bmasked	CS_B	1pleas	distractor2	EVAbeforeCON	AMP_CSpleas	AMP1_masked	8	31	0	0	300	300	0	0	571	46	8,544921875	0	0	0	0	1	blank2r.bmp	0	1	BMVZ	0	1	blank2r.bmp	79	120	pic120.bmp	199	1	whitenoise_No3.bmp	306	0	0	0	0	0	0	0	0	0	0	0	0	0	0	0	0	0	0	0	0	0	0	0	0	0	0	0	0	0	0	0	0	0	0	0	0	0	0	0
121918	15:19:38	15:33:23	824006	5.0.10.0	4_exp_EVA_AMP_AWA_CON	34	Rpleas_acq	Same	Rpleas	Bmasked	CS_B	1pleas	distractor2	EVAbeforeCON	AMP_CSpleas	AMP1_masked	8	32	0	0	300	300	0	0	805	50	8,544921875	1	0	0	0	1	blank2r.bmp	0	1	BMVZ	0	1	blank2r.bmp	79	110	pic110.bmp	199	1	whitenoise_No3.bmp	306	0	0	0	0	0	0	0	0	0	0	0	0	0	0	0	0	0	0	0	0	0	0	0	0	0	0	0	0	0	0	0	0	0	0	0	0	0	0	0
121918	15:19:38	15:33:24	825472	5.0.10.0	4_exp_EVA_AMP_AWA_CON	34	Rpleas_acq	Same	Rpleas	Bmasked	CS_B	1pleas	distractor2	EVAbeforeCON	AMP_distractor	AMP1_masked	8	33	0	0	300	300	0	0	558	46	8,544921875	0	0	0	0	1	blank2r.bmp	0	1	JCRD	0	1	blank2r.bmp	79	136	pic136.bmp	199	1	whitenoise_No3.bmp	306	0	0	0	0	0	0	0	0	0	0	0	0	0	0	0	0	0	0	0	0	0	0	0	0	0	0	0	0	0	0	0	0	0	0	0	0	0	0	0
121918	15:19:38	15:33:25	826819	5.0.10.0	4_exp_EVA_AMP_AWA_CON	34	Rpleas_acq	Same	Rpleas	Bmasked	CS_B	1pleas	distractor2	EVAbeforeCON	AMP_CSunple	AMP1_masked	8	34	0	0	300	300	0	0	417	50	8,544921875	0	0	0	0	1	blank2r.bmp	0	1	GKQX	0	1	blank2r.bmp	79	1	pic1.bmp	199	1	whitenoise_No3.bmp	306	0	0	0	0	0	0	0	0	0	0	0	0	0	0	0	0	0	0	0	0	0	0	0	0	0	0	0	0	0	0	0	0	0	0	0	0	0	0	0
121918	15:19:38	15:33:27	828245	5.0.10.0	4_exp_EVA_AMP_AWA_CON	34	Rpleas_acq	Same	Rpleas	Bmasked	CS_B	1pleas	distractor2	EVAbeforeCON	AMP_CSpleas	AMP1_masked	8	35	0	0	300	300	0	0	494	50	8,544921875	1	0	0	0	1	blank2r.bmp	0	1	BMVZ	0	1	blank2r.bmp	79	5	pic5.bmp	199	1	whitenoise_No3.bmp	306	0	0	0	0	0	0	0	0	0	0	0	0	0	0	0	0	0	0	0	0	0	0	0	0	0	0	0	0	0	0	0	0	0	0	0	0	0	0	0
121918	15:19:38	15:33:28	829684	5.0.10.0	4_exp_EVA_AMP_AWA_CON	34	Rpleas_acq	Same	Rpleas	Bmasked	CS_B	1pleas	distractor2	EVAbeforeCON	AMP_distractor	AMP1_masked	8	36	0	0	300	300	0	0	511	50	8,544921875	0	0	0	0	1	blank2r.bmp	0	1	JCRD	0	1	blank2r.bmp	79	99	pic99.bmp	199	1	whitenoise_No3.bmp	306	0	0	0	0	0	0	0	0	0	0	0	0	0	0	0	0	0	0	0	0	0	0	0	0	0	0	0	0	0	0	0	0	0	0	0	0	0	0	0
121918	15:19:38	15:33:30	831203	5.0.10.0	4_exp_EVA_AMP_AWA_CON	34	Rpleas_acq	Same	Rpleas	Bmasked	CS_B	1pleas	distractor2	EVAbeforeCON	AMP_distractor	AMP1_masked	8	37	0	0	300	300	0	0	600	50	8,544921875	0	0	0	0	1	blank2r.bmp	0	1	JCRD	0	1	blank2r.bmp	79	11	pic11.bmp	199	1	whitenoise_No3.bmp	306	0	0	0	0	0	0	0	0	0	0	0	0	0	0	0	0	0	0	0	0	0	0	0	0	0	0	0	0	0	0	0	0	0	0	0	0	0	0	0
121918	15:19:38	15:33:31	832709	5.0.10.0	4_exp_EVA_AMP_AWA_CON	34	Rpleas_acq	Same	Rpleas	Bmasked	CS_B	1pleas	distractor2	EVAbeforeCON	AMP_CSunple	AMP1_masked	8	38	0	0	300	300	0	0	597	50	8,544921875	0	0	0	0	1	blank2r.bmp	0	1	GKQX	0	1	blank2r.bmp	79	77	pic77.bmp	199	1	whitenoise_No3.bmp	306	0	0	0	0	0	0	0	0	0	0	0	0	0	0	0	0	0	0	0	0	0	0	0	0	0	0	0	0	0	0	0	0	0	0	0	0	0	0	0
121918	15:19:38	15:33:33	834042	5.0.10.0	4_exp_EVA_AMP_AWA_CON	34	Rpleas_acq	Same	Rpleas	Bmasked	CS_B	1pleas	distractor2	EVAbeforeCON	AMP_CSpleas	AMP1_masked	8	39	0	0	300	300	0	0	399	46	8,544921875	0	0	0	0	1	blank2r.bmp	0	1	BMVZ	0	1	blank2r.bmp	79	94	pic94.bmp	199	1	whitenoise_No3.bmp	306	0	0	0	0	0	0	0	0	0	0	0	0	0	0	0	0	0	0	0	0	0	0	0	0	0	0	0	0	0	0	0	0	0	0	0	0	0	0	0
121918	15:19:38	15:33:34	835322	5.0.10.0	4_exp_EVA_AMP_AWA_CON	34	Rpleas_acq	Same	Rpleas	Bmasked	CS_B	1pleas	distractor2	EVAbeforeCON	AMP_distractor	AMP1_masked	8	40	0	0	300	300	0	0	367	46	8,544921875	0	0	0	0	1	blank2r.bmp	0	1	JCRD	0	1	blank2r.bmp	79	17	pic17.bmp	199	1	whitenoise_No3.bmp	306	0	0	0	0	0	0	0	0	0	0	0	0	0	0	0	0	0	0	0	0	0	0	0	0	0	0	0	0	0	0	0	0	0	0	0	0	0	0	0
121918	15:19:38	15:33:35	836641	5.0.10.0	4_exp_EVA_AMP_AWA_CON	34	Rpleas_acq	Same	Rpleas	Bmasked	CS_B	1pleas	distractor2	EVAbeforeCON	AMP_CSpleas	AMP1_masked	8	41	0	0	300	300	0	0	398	46	8,544921875	0	0	0	0	1	blank2r.bmp	0	1	BMVZ	0	1	blank2r.bmp	79	121	pic121.bmp	199	1	whitenoise_No3.bmp	306	0	0	0	0	0	0	0	0	0	0	0	0	0	0	0	0	0	0	0	0	0	0	0	0	0	0	0	0	0	0	0	0	0	0	0	0	0	0	0
121918	15:19:38	15:33:37	838081	5.0.10.0	4_exp_EVA_AMP_AWA_CON	34	Rpleas_acq	Same	Rpleas	Bmasked	CS_B	1pleas	distractor2	EVAbeforeCON	AMP_distractor	AMP1_masked	8	42	0	0	300	300	0	0	506	50	8,544921875	0	0	0	0	1	blank2r.bmp	0	1	JCRD	0	1	blank2r.bmp	79	81	pic81.bmp	199	1	whitenoise_No3.bmp	306	0	0	0	0	0	0	0	0	0	0	0	0	0	0	0	0	0	0	0	0	0	0	0	0	0	0	0	0	0	0	0	0	0	0	0	0	0	0	0
121918	15:19:38	15:33:38	839533	5.0.10.0	4_exp_EVA_AMP_AWA_CON	34	Rpleas_acq	Same	Rpleas	Bmasked	CS_B	1pleas	distractor2	EVAbeforeCON	AMP_CSunple	AMP1_masked	8	43	0	0	300	300	0	0	538	50	8,544921875	0	0	0	0	1	blank2r.bmp	0	1	GKQX	0	1	blank2r.bmp	79	52	pic52.bmp	199	1	whitenoise_No3.bmp	306	0	0	0	0	0	0	0	0	0	0	0	0	0	0	0	0	0	0	0	0	0	0	0	0	0	0	0	0	0	0	0	0	0	0	0	0	0	0	0
121918	15:19:38	15:33:39	840946	5.0.10.0	4_exp_EVA_AMP_AWA_CON	34	Rpleas_acq	Same	Rpleas	Bmasked	CS_B	1pleas	distractor2	EVAbeforeCON	AMP_distractor	AMP1_masked	8	44	0	0	300	300	0	0	488	50	8,544921875	0	0	0	0	1	blank2r.bmp	0	1	JCRD	0	1	blank2r.bmp	79	86	pic86.bmp	199	1	whitenoise_No3.bmp	306	0	0	0	0	0	0	0	0	0	0	0	0	0	0	0	0	0	0	0	0	0	0	0	0	0	0	0	0	0	0	0	0	0	0	0	0	0	0	0
121918	15:19:38	15:33:41	842465	5.0.10.0	4_exp_EVA_AMP_AWA_CON	34	Rpleas_acq	Same	Rpleas	Bmasked	CS_B	1pleas	distractor2	EVAbeforeCON	AMP_distractor	AMP1_masked	8	45	0	0	300	300	0	0	600	50	8,544921875	0	0	0	0	1	blank2r.bmp	0	1	JCRD	0	1	blank2r.bmp	79	71	pic71.bmp	199	1	whitenoise_No3.bmp	306	0	0	0	0	0	0	0	0	0	0	0	0	0	0	0	0	0	0	0	0	0	0	0	0	0	0	0	0	0	0	0	0	0	0	0	0	0	0	0
121918	15:19:38	15:33:42	843798	5.0.10.0	4_exp_EVA_AMP_AWA_CON	34	Rpleas_acq	Same	Rpleas	Bmasked	CS_B	1pleas	distractor2	EVAbeforeCON	AMP_CSpleas	AMP1_masked	8	46	0	0	300	300	0	0	424	50	8,544921875	1	0	0	0	1	blank2r.bmp	0	1	BMVZ	0	1	blank2r.bmp	79	21	pic21.bmp	199	1	whitenoise_No3.bmp	306	0	0	0	0	0	0	0	0	0	0	0	0	0	0	0	0	0	0	0	0	0	0	0	0	0	0	0	0	0	0	0	0	0	0	0	0	0	0	0
121918	15:19:38	15:33:44	845198	5.0.10.0	4_exp_EVA_AMP_AWA_CON	34	Rpleas_acq	Same	Rpleas	Bmasked	CS_B	1pleas	distractor2	EVAbeforeCON	AMP_CSpleas	AMP1_masked	8	47	0	0	300	300	0	0	477	50	8,544921875	1	0	0	0	1	blank2r.bmp	0	1	BMVZ	0	1	blank2r.bmp	79	13	pic13.bmp	199	1	whitenoise_No3.bmp	306	0	0	0	0	0	0	0	0	0	0	0	0	0	0	0	0	0	0	0	0	0	0	0	0	0	0	0	0	0	0	0	0	0	0	0	0	0	0	0
121918	15:19:38	15:33:45	846464	5.0.10.0	4_exp_EVA_AMP_AWA_CON	34	Rpleas_acq	Same	Rpleas	Bmasked	CS_B	1pleas	distractor2	EVAbeforeCON	AMP_CSunple	AMP1_masked	8	48	0	0	300	300	0	0	335	46	8,544921875	1	0	0	0	1	blank2r.bmp	0	1	GKQX	0	1	blank2r.bmp	79	98	pic98.bmp	199	1	whitenoise_No3.bmp	306	0	0	0	0	0	0	0	0	0	0	0	0	0	0	0	0	0	0	0	0	0	0	0	0	0	0	0	0	0	0	0	0	0	0	0	0	0	0	0
121918	15:19:38	15:33:46	847730	5.0.10.0	4_exp_EVA_AMP_AWA_CON	34	Rpleas_acq	Same	Rpleas	Bmasked	CS_B	1pleas	distractor2	EVAbeforeCON	AMP_CSunple	AMP1_masked	8	49	0	0	300	300	0	0	338	46	8,544921875	1	0	0	0	1	blank2r.bmp	0	1	GKQX	0	1	blank2r.bmp	79	117	pic117.bmp	199	1	whitenoise_No3.bmp	306	0	0	0	0	0	0	0	0	0	0	0	0	0	0	0	0	0	0	0	0	0	0	0	0	0	0	0	0	0	0	0	0	0	0	0	0	0	0	0
121918	15:19:38	15:33:47	848969	5.0.10.0	4_exp_EVA_AMP_AWA_CON	34	Rpleas_acq	Same	Rpleas	Bmasked	CS_B	1pleas	distractor2	EVAbeforeCON	AMP_CSunple	AMP1_masked	8	50	0	0	300	300	0	0	326	50	8,544921875	0	0	0	0	1	blank2r.bmp	0	1	GKQX	0	1	blank2r.bmp	79	78	pic78.bmp	199	1	whitenoise_No3.bmp	306	0	0	0	0	0	0	0	0	0	0	0	0	0	0	0	0	0	0	0	0	0	0	0	0	0	0	0	0	0	0	0	0	0	0	0	0	0	0	0
121918	15:19:38	15:33:49	850209	5.0.10.0	4_exp_EVA_AMP_AWA_CON	34	Rpleas_acq	Same	Rpleas	Bmasked	CS_B	1pleas	distractor2	EVAbeforeCON	AMP_CSpleas	AMP1_masked	8	51	0	0	300	300	0	0	306	46	8,544921875	0	0	0	0	1	blank2r.bmp	0	1	BMVZ	0	1	blank2r.bmp	79	23	pic23.bmp	199	1	whitenoise_No3.bmp	306	0	0	0	0	0	0	0	0	0	0	0	0	0	0	0	0	0	0	0	0	0	0	0	0	0	0	0	0	0	0	0	0	0	0	0	0	0	0	0
121918	15:19:38	15:33:58	859458	5.0.10.0	4_exp_EVA_AMP_AWA_CON	34	Rpleas_acq	Same	Rpleas	Bmasked	CS_B	1pleas	distractor2	EVAbeforeCON	AMP_CSpleas	AMP23	9	1	0	0	300	300	0	0	904	50	8,544921875	1	0	0	0	1	blank2r.bmp	0	1	BMVZ	0	1	blank2r.bmp	79	37	pic37.bmp	199	1	whitenoise_No3.bmp	306	0	0	0	0	0	0	0	0	0	0	0	0	0	0	0	0	0	0	0	0	0	0	0	0	0	0	0	0	0	0	0	0	0	0	0	0	0	0	0
121918	15:19:38	15:33:59	860858	5.0.10.0	4_exp_EVA_AMP_AWA_CON	34	Rpleas_acq	Same	Rpleas	Bmasked	CS_B	1pleas	distractor2	EVAbeforeCON	AMP_CSpleas	AMP23	9	2	0	0	300	300	0	0	476	46	8,544921875	0	0	0	0	1	blank2r.bmp	0	1	BMVZ	0	1	blank2r.bmp	79	53	pic53.bmp	199	1	whitenoise_No3.bmp	306	0	0	0	0	0	0	0	0	0	0	0	0	0	0	0	0	0	0	0	0	0	0	0	0	0	0	0	0	0	0	0	0	0	0	0	0	0	0	0
121918	15:19:38	15:34:01	862044	5.0.10.0	4_exp_EVA_AMP_AWA_CON	34	Rpleas_acq	Same	Rpleas	Bmasked	CS_B	1pleas	distractor2	EVAbeforeCON	AMP_distractor	AMP23	9	3	0	0	300	300	0	0	264	50	8,544921875	0	0	0	0	1	blank2r.bmp	0	1	JCRD	0	1	blank2r.bmp	79	40	pic40.bmp	199	1	whitenoise_No3.bmp	306	0	0	0	0	0	0	0	0	0	0	0	0	0	0	0	0	0	0	0	0	0	0	0	0	0	0	0	0	0	0	0	0	0	0	0	0	0	0	0
121918	15:19:38	15:34:02	863403	5.0.10.0	4_exp_EVA_AMP_AWA_CON	34	Rpleas_acq	Same	Rpleas	Bmasked	CS_B	1pleas	distractor2	EVAbeforeCON	AMP_distractor	AMP23	9	4	0	0	300	300	0	0	429	46	8,544921875	0	0	0	0	1	blank2r.bmp	0	1	JCRD	0	1	blank2r.bmp	79	118	pic118.bmp	199	1	whitenoise_No3.bmp	306	0	0	0	0	0	0	0	0	0	0	0	0	0	0	0	0	0	0	0	0	0	0	0	0	0	0	0	0	0	0	0	0	0	0	0	0	0	0	0
121918	15:19:38	15:34:03	864496	5.0.10.0	4_exp_EVA_AMP_AWA_CON	34	Rpleas_acq	Same	Rpleas	Bmasked	CS_B	1pleas	distractor2	EVAbeforeCON	AMP_CSunple	AMP23	9	5	0	0	300	300	0	0	170	50	8,544921875	0	0	0	0	1	blank2r.bmp	0	1	GKQX	0	1	blank2r.bmp	79	3	pic3.bmp	199	1	whitenoise_No3.bmp	306	0	0	0	0	0	0	0	0	0	0	0	0	0	0	0	0	0	0	0	0	0	0	0	0	0	0	0	0	0	0	0	0	0	0	0	0	0	0	0
121918	15:19:38	15:34:04	865563	5.0.10.0	4_exp_EVA_AMP_AWA_CON	34	Rpleas_acq	Same	Rpleas	Bmasked	CS_B	1pleas	distractor2	EVAbeforeCON	AMP_distractor	AMP23	9	6	0	0	300	300	0	0	133	50	8,544921875	0	0	0	0	1	blank2r.bmp	0	1	JCRD	0	1	blank2r.bmp	79	38	pic38.bmp	199	1	whitenoise_No3.bmp	306	0	0	0	0	0	0	0	0	0	0	0	0	0	0	0	0	0	0	0	0	0	0	0	0	0	0	0	0	0	0	0	0	0	0	0	0	0	0	0
121918	15:19:38	15:34:05	866562	5.0.10.0	4_exp_EVA_AMP_AWA_CON	34	Rpleas_acq	Same	Rpleas	Bmasked	CS_B	1pleas	distractor2	EVAbeforeCON	AMP_CSpleas	AMP23	9	7	0	0	300	300	0	0	88	46	8,544921875	0	0	0	0	1	blank2r.bmp	0	1	BMVZ	0	1	blank2r.bmp	79	123	pic123.bmp	199	1	whitenoise_No3.bmp	306	0	0	0	0	0	0	0	0	0	0	0	0	0	0	0	0	0	0	0	0	0	0	0	0	0	0	0	0	0	0	0	0	0	0	0	0	0	0	0
121918	15:19:38	15:34:06	867788	5.0.10.0	4_exp_EVA_AMP_AWA_CON	34	Rpleas_acq	Same	Rpleas	Bmasked	CS_B	1pleas	distractor2	EVAbeforeCON	AMP_CSpleas	AMP23	9	8	0	0	300	300	0	0	313	46	8,544921875	0	0	0	0	1	blank2r.bmp	0	1	BMVZ	0	1	blank2r.bmp	79	101	pic101.bmp	199	1	whitenoise_No3.bmp	306	0	0	0	0	0	0	0	0	0	0	0	0	0	0	0	0	0	0	0	0	0	0	0	0	0	0	0	0	0	0	0	0	0	0	0	0	0	0	0
121918	15:19:38	15:34:07	868961	5.0.10.0	4_exp_EVA_AMP_AWA_CON	34	Rpleas_acq	Same	Rpleas	Bmasked	CS_B	1pleas	distractor2	EVAbeforeCON	AMP_distractor	AMP23	9	9	0	0	300	300	0	0	242	46	8,544921875	0	0	0	0	1	blank2r.bmp	0	1	JCRD	0	1	blank2r.bmp	79	64	pic64.bmp	199	1	whitenoise_No3.bmp	306	0	0	0	0	0	0	0	0	0	0	0	0	0	0	0	0	0	0	0	0	0	0	0	0	0	0	0	0	0	0	0	0	0	0	0	0	0	0	0
121918	15:19:38	15:34:09	870054	5.0.10.0	4_exp_EVA_AMP_AWA_CON	34	Rpleas_acq	Same	Rpleas	Bmasked	CS_B	1pleas	distractor2	EVAbeforeCON	AMP_distractor	AMP23	9	10	0	0	300	300	0	0	181	50	8,544921875	0	0	0	0	1	blank2r.bmp	0	1	JCRD	0	1	blank2r.bmp	79	56	pic56.bmp	199	1	whitenoise_No3.bmp	306	0	0	0	0	0	0	0	0	0	0	0	0	0	0	0	0	0	0	0	0	0	0	0	0	0	0	0	0	0	0	0	0	0	0	0	0	0	0	0
121918	15:19:38	15:34:10	871267	5.0.10.0	4_exp_EVA_AMP_AWA_CON	34	Rpleas_acq	Same	Rpleas	Bmasked	CS_B	1pleas	distractor2	EVAbeforeCON	AMP_distractor	AMP23	9	11	0	0	300	300	0	0	299	46	8,544921875	0	0	0	0	1	blank2r.bmp	0	1	JCRD	0	1	blank2r.bmp	79	93	pic93.bmp	199	1	whitenoise_No3.bmp	306	0	0	0	0	0	0	0	0	0	0	0	0	0	0	0	0	0	0	0	0	0	0	0	0	0	0	0	0	0	0	0	0	0	0	0	0	0	0	0
121918	15:19:38	15:34:11	872746	5.0.10.0	4_exp_EVA_AMP_AWA_CON	34	Rpleas_acq	Same	Rpleas	Bmasked	CS_B	1pleas	distractor2	EVAbeforeCON	AMP_distractor	AMP23	9	12	0	0	300	300	0	0	548	50	8,544921875	0	0	0	0	1	blank2r.bmp	0	1	JCRD	0	1	blank2r.bmp	79	32	pic32.bmp	199	1	whitenoise_No3.bmp	306	0	0	0	0	0	0	0	0	0	0	0	0	0	0	0	0	0	0	0	0	0	0	0	0	0	0	0	0	0	0	0	0	0	0	0	0	0	0	0
121918	15:19:38	15:34:13	874079	5.0.10.0	4_exp_EVA_AMP_AWA_CON	34	Rpleas_acq	Same	Rpleas	Bmasked	CS_B	1pleas	distractor2	EVAbeforeCON	AMP_distractor	AMP23	9	13	0	0	300	300	0	0	420	50	8,544921875	0	0	0	0	1	blank2r.bmp	0	1	JCRD	0	1	blank2r.bmp	79	95	pic95.bmp	199	1	whitenoise_No3.bmp	306	0	0	0	0	0	0	0	0	0	0	0	0	0	0	0	0	0	0	0	0	0	0	0	0	0	0	0	0	0	0	0	0	0	0	0	0	0	0	0
121918	15:19:38	15:34:14	875452	5.0.10.0	4_exp_EVA_AMP_AWA_CON	34	Rpleas_acq	Same	Rpleas	Bmasked	CS_B	1pleas	distractor2	EVAbeforeCON	AMP_CSunple	AMP23	9	14	0	0	300	300	0	0	459	46	8,544921875	1	0	0	0	1	blank2r.bmp	0	1	GKQX	0	1	blank2r.bmp	79	92	pic92.bmp	199	1	whitenoise_No3.bmp	306	0	0	0	0	0	0	0	0	0	0	0	0	0	0	0	0	0	0	0	0	0	0	0	0	0	0	0	0	0	0	0	0	0	0	0	0	0	0	0
121918	15:19:38	15:34:15	876691	5.0.10.0	4_exp_EVA_AMP_AWA_CON	34	Rpleas_acq	Same	Rpleas	Bmasked	CS_B	1pleas	distractor2	EVAbeforeCON	AMP_CSunple	AMP23	9	15	0	0	300	300	0	0	323	46	8,544921875	1	0	0	0	1	blank2r.bmp	0	1	GKQX	0	1	blank2r.bmp	79	137	pic137.bmp	199	1	whitenoise_No3.bmp	306	0	0	0	0	0	0	0	0	0	0	0	0	0	0	0	0	0	0	0	0	0	0	0	0	0	0	0	0	0	0	0	0	0	0	0	0	0	0	0
121918	15:19:38	15:34:16	877864	5.0.10.0	4_exp_EVA_AMP_AWA_CON	34	Rpleas_acq	Same	Rpleas	Bmasked	CS_B	1pleas	distractor2	EVAbeforeCON	AMP_distractor	AMP23	9	16	0	0	300	300	0	0	262	50	8,544921875	0	0	0	0	1	blank2r.bmp	0	1	JCRD	0	1	blank2r.bmp	79	80	pic80.bmp	199	1	whitenoise_No3.bmp	306	0	0	0	0	0	0	0	0	0	0	0	0	0	0	0	0	0	0	0	0	0	0	0	0	0	0	0	0	0	0	0	0	0	0	0	0	0	0	0
121918	15:19:38	15:34:17	878997	5.0.10.0	4_exp_EVA_AMP_AWA_CON	34	Rpleas_acq	Same	Rpleas	Bmasked	CS_B	1pleas	distractor2	EVAbeforeCON	AMP_CSpleas	AMP23	9	17	0	0	300	300	0	0	200	50	8,544921875	1	0	0	0	1	blank2r.bmp	0	1	BMVZ	0	1	blank2r.bmp	79	103	pic103.bmp	199	1	whitenoise_No3.bmp	306	0	0	0	0	0	0	0	0	0	0	0	0	0	0	0	0	0	0	0	0	0	0	0	0	0	0	0	0	0	0	0	0	0	0	0	0	0	0	0
121918	15:19:38	15:34:19	880396	5.0.10.0	4_exp_EVA_AMP_AWA_CON	34	Rpleas_acq	Same	Rpleas	Bmasked	CS_B	1pleas	distractor2	EVAbeforeCON	AMP_CSunple	AMP23	9	18	0	0	300	300	0	0	491	50	8,544921875	0	0	0	0	1	blank2r.bmp	0	1	GKQX	0	1	blank2r.bmp	79	128	pic128.bmp	199	1	whitenoise_No3.bmp	306	0	0	0	0	0	0	0	0	0	0	0	0	0	0	0	0	0	0	0	0	0	0	0	0	0	0	0	0	0	0	0	0	0	0	0	0	0	0	0
121918	15:19:38	15:34:20	881876	5.0.10.0	4_exp_EVA_AMP_AWA_CON	34	Rpleas_acq	Same	Rpleas	Bmasked	CS_B	1pleas	distractor2	EVAbeforeCON	AMP_distractor	AMP23	9	19	0	0	300	300	0	0	561	50	8,544921875	0	0	0	0	1	blank2r.bmp	0	1	JCRD	0	1	blank2r.bmp	79	51	pic51.bmp	199	1	whitenoise_No3.bmp	306	0	0	0	0	0	0	0	0	0	0	0	0	0	0	0	0	0	0	0	0	0	0	0	0	0	0	0	0	0	0	0	0	0	0	0	0	0	0	0
121918	15:19:38	15:34:22	883169	5.0.10.0	4_exp_EVA_AMP_AWA_CON	34	Rpleas_acq	Same	Rpleas	Bmasked	CS_B	1pleas	distractor2	EVAbeforeCON	AMP_CSunple	AMP23	9	20	0	0	300	300	0	0	370	46	8,544921875	1	0	0	0	1	blank2r.bmp	0	1	GKQX	0	1	blank2r.bmp	79	127	pic127.bmp	199	1	whitenoise_No3.bmp	306	0	0	0	0	0	0	0	0	0	0	0	0	0	0	0	0	0	0	0	0	0	0	0	0	0	0	0	0	0	0	0	0	0	0	0	0	0	0	0
121918	15:19:38	15:34:23	884475	5.0.10.0	4_exp_EVA_AMP_AWA_CON	34	Rpleas_acq	Same	Rpleas	Bmasked	CS_B	1pleas	distractor2	EVAbeforeCON	AMP_CSpleas	AMP23	9	21	0	0	300	300	0	0	383	46	8,544921875	0	0	0	0	1	blank2r.bmp	0	1	BMVZ	0	1	blank2r.bmp	79	148	pic148.bmp	199	1	whitenoise_No3.bmp	306	0	0	0	0	0	0	0	0	0	0	0	0	0	0	0	0	0	0	0	0	0	0	0	0	0	0	0	0	0	0	0	0	0	0	0	0	0	0	0
121918	15:19:38	15:34:24	885794	5.0.10.0	4_exp_EVA_AMP_AWA_CON	34	Rpleas_acq	Same	Rpleas	Bmasked	CS_B	1pleas	distractor2	EVAbeforeCON	AMP_CSunple	AMP23	9	22	0	0	300	300	0	0	385	50	8,544921875	0	0	0	0	1	blank2r.bmp	0	1	GKQX	0	1	blank2r.bmp	79	75	pic75.bmp	199	1	whitenoise_No3.bmp	306	0	0	0	0	0	0	0	0	0	0	0	0	0	0	0	0	0	0	0	0	0	0	0	0	0	0	0	0	0	0	0	0	0	0	0	0	0	0	0
121918	15:19:38	15:34:26	887060	5.0.10.0	4_exp_EVA_AMP_AWA_CON	34	Rpleas_acq	Same	Rpleas	Bmasked	CS_B	1pleas	distractor2	EVAbeforeCON	AMP_CSunple	AMP23	9	23	0	0	300	300	0	0	355	50	8,544921875	0	0	0	0	1	blank2r.bmp	0	1	GKQX	0	1	blank2r.bmp	79	109	pic109.bmp	199	1	whitenoise_No3.bmp	306	0	0	0	0	0	0	0	0	0	0	0	0	0	0	0	0	0	0	0	0	0	0	0	0	0	0	0	0	0	0	0	0	0	0	0	0	0	0	0
121918	15:19:38	15:34:27	888446	5.0.10.0	4_exp_EVA_AMP_AWA_CON	34	Rpleas_acq	Same	Rpleas	Bmasked	CS_B	1pleas	distractor2	EVAbeforeCON	AMP_CSpleas	AMP23	9	24	0	0	300	300	0	0	473	50	8,544921875	1	0	0	0	1	blank2r.bmp	0	1	BMVZ	0	1	blank2r.bmp	79	9	pic9.bmp	199	1	whitenoise_No3.bmp	306	0	0	0	0	0	0	0	0	0	0	0	0	0	0	0	0	0	0	0	0	0	0	0	0	0	0	0	0	0	0	0	0	0	0	0	0	0	0	0
121918	15:19:38	15:34:28	889753	5.0.10.0	4_exp_EVA_AMP_AWA_CON	34	Rpleas_acq	Same	Rpleas	Bmasked	CS_B	1pleas	distractor2	EVAbeforeCON	AMP_distractor	AMP23	9	25	0	0	300	300	0	0	395	50	8,544921875	0	0	0	0	1	blank2r.bmp	0	1	JCRD	0	1	blank2r.bmp	79	63	pic63.bmp	199	1	whitenoise_No3.bmp	306	0	0	0	0	0	0	0	0	0	0	0	0	0	0	0	0	0	0	0	0	0	0	0	0	0	0	0	0	0	0	0	0	0	0	0	0	0	0	0
121918	15:19:38	15:34:30	891152	5.0.10.0	4_exp_EVA_AMP_AWA_CON	34	Rpleas_acq	Same	Rpleas	Bmasked	CS_B	1pleas	distractor2	EVAbeforeCON	AMP_distractor	AMP23	9	26	0	0	300	300	0	0	467	50	8,544921875	0	0	0	0	1	blank2r.bmp	0	1	JCRD	0	1	blank2r.bmp	79	4	pic4.bmp	199	1	whitenoise_No3.bmp	306	0	0	0	0	0	0	0	0	0	0	0	0	0	0	0	0	0	0	0	0	0	0	0	0	0	0	0	0	0	0	0	0	0	0	0	0	0	0	0
