date	time	script.currenttime	script.elapsedtime	build	script.currentexpt	subject	expressions.LRpleas_acq	expressions.SameOppo	expressions.condition_Lpleas	expressions.ABmasked	expressions.conditionCS_A	expressions.condition_1pleas	expressions.condition_distractor_AMP	expressions.AWACON_AMPEVA_first	trialcode	blockcode	blocknum	trialnum	windowcenter	inwindow	pretrialpause	posttrialpause	trialduration	trialtimeout	latency	response	expressions.correctedscore	correct	values.vis_performance	values.vis_rating_sum	values.vis_rating_mean	stimulusnumber1	stimulusitem1	stimulusonset1	stimulusnumber2	stimulusitem2	stimulusonset2	stimulusnumber3	stimulusitem3	stimulusonset3	stimulusnumber4	stimulusitem4	stimulusonset4	stimulusnumber5	stimulusitem5	stimulusonset5	stimulusnumber6	stimulusitem6	stimulusonset6	stimulusnumber7	stimulusitem7	stimulusonset7	stimulusnumber8	stimulusitem8	stimulusonset8	stimulusnumber9	stimulusitem9	stimulusonset9	stimulusnumber10	stimulusitem10	stimulusonset10	stimulusnumber11	stimulusitem11	stimulusonset11	stimulusnumber12	stimulusitem12	stimulusonset12	stimulusnumber13	stimulusitem13	stimulusonset13	stimulusnumber14	stimulusitem14	stimulusonset14	stimulusnumber15	stimulusitem15	stimulusonset15	stimulusnumber16	stimulusitem16	stimulusonset16	stimulusnumber17	stimulusitem17	stimulusonset17	stimulusnumber18	stimulusitem18	stimulusonset18
121118	13:54:10	13:57:45	214205	5.0.10.0	4_exp_EVA_AMP_AWA_CON	5	Rpleas_acq	Oppo	Rpleas	Bmasked	CS_B	1pleas	distractor1	EVAbeforeCON	acq_US_unple_masked	acq1_masked	1	1	0	0	300	300	0	0	884	46	0	1	0	0	0	1	blank2r.bmp	0	1	+	0	8	C4r.bmp	492	1	blank2r.bmp	786	1	GKQX	786	1	blank2r.bmp	866	5	faul	866	0	0	0	0	0	0	0	0	0	0	0	0	0	0	0	0	0	0	0	0	0	0	0	0	0	0	0	0	0	0	0	0	0
121118	13:54:10	13:57:47	217043	5.0.10.0	4_exp_EVA_AMP_AWA_CON	5	Rpleas_acq	Oppo	Rpleas	Bmasked	CS_B	1pleas	distractor1	EVAbeforeCON	acq_US_pleas_masked	acq1_masked	1	2	0	0	300	300	0	0	1370	50	0	1	0	0	0	1	blank2r.bmp	0	1	+	0	1	B1r.bmp	492	1	blank2r.bmp	786	1	BMVZ	786	1	blank2r.bmp	866	1	treu	866	0	0	0	0	0	0	0	0	0	0	0	0	0	0	0	0	0	0	0	0	0	0	0	0	0	0	0	0	0	0	0	0	0
121118	13:54:10	13:57:50	220042	5.0.10.0	4_exp_EVA_AMP_AWA_CON	5	Rpleas_acq	Oppo	Rpleas	Bmasked	CS_B	1pleas	distractor1	EVAbeforeCON	acq_new_pleas_masked	acq1_masked	1	3	0	0	300	300	0	0	1292	46	0	0	0	0	0	1	blank2r.bmp	0	1	+	0	3	B3r.bmp	492	1	blank2r.bmp	786	7	C3r.bmp	786	1	blank2r.bmp	866	1	schön	866	1	FEHLER	2199	0	0	0	0	0	0	0	0	0	0	0	0	0	0	0	0	0	0	0	0	0	0	0	0	0	0	0	0	0	0
121118	13:54:10	13:57:53	222308	5.0.10.0	4_exp_EVA_AMP_AWA_CON	5	Rpleas_acq	Oppo	Rpleas	Bmasked	CS_B	1pleas	distractor1	EVAbeforeCON	acq_new_pleas_masked	acq1_masked	1	4	0	0	300	300	0	0	1006	50	0	1	0	0	0	1	blank2r.bmp	0	1	+	0	6	C2r.bmp	492	1	blank2r.bmp	786	1	B1r.bmp	786	1	blank2r.bmp	866	5	schlau	866	0	0	0	0	0	0	0	0	0	0	0	0	0	0	0	0	0	0	0	0	0	0	0	0	0	0	0	0	0	0	0	0	0
121118	13:54:10	13:57:55	225120	5.0.10.0	4_exp_EVA_AMP_AWA_CON	5	Rpleas_acq	Oppo	Rpleas	Bmasked	CS_B	1pleas	distractor1	EVAbeforeCON	acq_new_pleas_masked	acq1_masked	1	5	0	0	300	300	0	0	1117	46	0	0	0	0	0	1	blank2r.bmp	0	1	+	0	4	B4r.bmp	492	1	blank2r.bmp	786	6	C2r.bmp	786	1	blank2r.bmp	866	2	retten	866	1	FEHLER	2012	0	0	0	0	0	0	0	0	0	0	0	0	0	0	0	0	0	0	0	0	0	0	0	0	0	0	0	0	0	0
121118	13:54:10	13:57:58	227253	5.0.10.0	4_exp_EVA_AMP_AWA_CON	5	Rpleas_acq	Oppo	Rpleas	Bmasked	CS_B	1pleas	distractor1	EVAbeforeCON	acq_new_unple_masked	acq1_masked	1	6	0	0	300	300	0	0	858	46	0	1	0	0	0	1	blank2r.bmp	0	1	+	0	5	C1r.bmp	492	1	blank2r.bmp	786	8	C4r.bmp	786	1	blank2r.bmp	866	5	schroff	866	0	0	0	0	0	0	0	0	0	0	0	0	0	0	0	0	0	0	0	0	0	0	0	0	0	0	0	0	0	0	0	0	0
121118	13:54:10	13:58:00	229412	5.0.10.0	4_exp_EVA_AMP_AWA_CON	5	Rpleas_acq	Oppo	Rpleas	Bmasked	CS_B	1pleas	distractor1	EVAbeforeCON	acq_US_pleas_masked	acq1_masked	1	7	0	0	300	300	0	0	675	50	0	1	0	0	0	1	blank2r.bmp	0	1	+	0	7	C3r.bmp	492	1	blank2r.bmp	786	1	BMVZ	786	1	blank2r.bmp	866	5	fair	866	0	0	0	0	0	0	0	0	0	0	0	0	0	0	0	0	0	0	0	0	0	0	0	0	0	0	0	0	0	0	0	0	0
121118	13:54:10	13:58:02	231371	5.0.10.0	4_exp_EVA_AMP_AWA_CON	5	Rpleas_acq	Oppo	Rpleas	Bmasked	CS_B	1pleas	distractor1	EVAbeforeCON	acq_US_unple_masked	acq1_masked	1	8	0	0	300	300	0	0	484	46	0	1	0	0	0	1	blank2r.bmp	0	1	+	0	2	B2r.bmp	492	1	blank2r.bmp	786	1	GKQX	786	1	blank2r.bmp	866	2	lasch	866	0	0	0	0	0	0	0	0	0	0	0	0	0	0	0	0	0	0	0	0	0	0	0	0	0	0	0	0	0	0	0	0	0
121118	13:54:10	13:58:04	233370	5.0.10.0	4_exp_EVA_AMP_AWA_CON	5	Rpleas_acq	Oppo	Rpleas	Bmasked	CS_B	1pleas	distractor1	EVAbeforeCON	acq_new_unple_masked	acq1_masked	1	9	0	0	300	300	0	0	517	46	0	1	0	0	0	1	blank2r.bmp	0	1	+	0	3	B3r.bmp	492	1	blank2r.bmp	786	4	B4r.bmp	786	1	blank2r.bmp	866	6	eitel	866	0	0	0	0	0	0	0	0	0	0	0	0	0	0	0	0	0	0	0	0	0	0	0	0	0	0	0	0	0	0	0	0	0
121118	13:54:10	13:58:06	235662	5.0.10.0	4_exp_EVA_AMP_AWA_CON	5	Rpleas_acq	Oppo	Rpleas	Bmasked	CS_B	1pleas	distractor1	EVAbeforeCON	acq_US_pleas_masked	acq1_masked	1	10	0	0	300	300	0	0	804	50	0	1	0	0	0	1	blank2r.bmp	0	1	+	0	7	C3r.bmp	492	1	blank2r.bmp	786	1	BMVZ	786	1	blank2r.bmp	866	2	loyal	866	0	0	0	0	0	0	0	0	0	0	0	0	0	0	0	0	0	0	0	0	0	0	0	0	0	0	0	0	0	0	0	0	0
121118	13:54:10	13:58:08	238075	5.0.10.0	4_exp_EVA_AMP_AWA_CON	5	Rpleas_acq	Oppo	Rpleas	Bmasked	CS_B	1pleas	distractor1	EVAbeforeCON	acq_US_unple_masked	acq1_masked	1	11	0	0	300	300	0	0	927	46	0	1	0	0	0	1	blank2r.bmp	0	1	+	0	2	B2r.bmp	492	1	blank2r.bmp	786	1	GKQX	786	1	blank2r.bmp	866	1	tot	866	0	0	0	0	0	0	0	0	0	0	0	0	0	0	0	0	0	0	0	0	0	0	0	0	0	0	0	0	0	0	0	0	0
121118	13:54:10	13:58:10	240154	5.0.10.0	4_exp_EVA_AMP_AWA_CON	5	Rpleas_acq	Oppo	Rpleas	Bmasked	CS_B	1pleas	distractor1	EVAbeforeCON	acq_new_unple_masked	acq1_masked	1	12	0	0	300	300	0	0	585	46	0	1	0	0	0	1	blank2r.bmp	0	1	+	0	1	B1r.bmp	492	1	blank2r.bmp	786	2	B2r.bmp	786	1	blank2r.bmp	866	1	schlecht	866	0	0	0	0	0	0	0	0	0	0	0	0	0	0	0	0	0	0	0	0	0	0	0	0	0	0	0	0	0	0	0	0	0
121118	13:54:10	13:58:13	242300	5.0.10.0	4_exp_EVA_AMP_AWA_CON	5	Rpleas_acq	Oppo	Rpleas	Bmasked	CS_B	1pleas	distractor1	EVAbeforeCON	acq_new_pleas_masked	acq1_masked	1	13	0	0	300	300	0	0	675	50	0	1	0	0	0	1	blank2r.bmp	0	1	+	0	8	C4r.bmp	492	1	blank2r.bmp	786	3	B3r.bmp	786	1	blank2r.bmp	866	3	lachen	866	0	0	0	0	0	0	0	0	0	0	0	0	0	0	0	0	0	0	0	0	0	0	0	0	0	0	0	0	0	0	0	0	0
121118	13:54:10	13:58:15	244619	5.0.10.0	4_exp_EVA_AMP_AWA_CON	5	Rpleas_acq	Oppo	Rpleas	Bmasked	CS_B	1pleas	distractor1	EVAbeforeCON	acq_new_unple_masked	acq1_masked	1	14	0	0	300	300	0	0	842	46	0	1	0	0	0	1	blank2r.bmp	0	1	+	0	4	B4r.bmp	492	1	blank2r.bmp	786	5	C1r.bmp	786	1	blank2r.bmp	866	3	leiden	866	0	0	0	0	0	0	0	0	0	0	0	0	0	0	0	0	0	0	0	0	0	0	0	0	0	0	0	0	0	0	0	0	0
121118	13:54:10	13:58:17	246845	5.0.10.0	4_exp_EVA_AMP_AWA_CON	5	Rpleas_acq	Oppo	Rpleas	Bmasked	CS_B	1pleas	distractor1	EVAbeforeCON	acq_US_unple_masked	acq1_masked	1	15	0	0	300	300	0	0	741	46	0	1	0	0	0	1	blank2r.bmp	0	1	+	0	6	C2r.bmp	492	1	blank2r.bmp	786	1	GKQX	786	1	blank2r.bmp	866	4	tyrannisch	866	0	0	0	0	0	0	0	0	0	0	0	0	0	0	0	0	0	0	0	0	0	0	0	0	0	0	0	0	0	0	0	0	0
121118	13:54:10	13:58:19	248884	5.0.10.0	4_exp_EVA_AMP_AWA_CON	5	Rpleas_acq	Oppo	Rpleas	Bmasked	CS_B	1pleas	distractor1	EVAbeforeCON	acq_new_unple_masked	acq1_masked	1	16	0	0	300	300	0	0	545	46	0	1	0	0	0	1	blank2r.bmp	0	1	+	0	5	C1r.bmp	492	1	blank2r.bmp	786	4	B4r.bmp	786	1	blank2r.bmp	866	2	rächen	866	0	0	0	0	0	0	0	0	0	0	0	0	0	0	0	0	0	0	0	0	0	0	0	0	0	0	0	0	0	0	0	0	0
121118	13:54:10	13:58:21	250909	5.0.10.0	4_exp_EVA_AMP_AWA_CON	5	Rpleas_acq	Oppo	Rpleas	Bmasked	CS_B	1pleas	distractor1	EVAbeforeCON	acq_US_unple_masked	acq1_masked	1	17	0	0	300	300	0	0	550	46	0	1	0	0	0	1	blank2r.bmp	0	1	+	0	1	B1r.bmp	492	1	blank2r.bmp	786	1	GKQX	786	1	blank2r.bmp	866	6	strafen	866	0	0	0	0	0	0	0	0	0	0	0	0	0	0	0	0	0	0	0	0	0	0	0	0	0	0	0	0	0	0	0	0	0
121118	13:54:10	13:58:23	252962	5.0.10.0	4_exp_EVA_AMP_AWA_CON	5	Rpleas_acq	Oppo	Rpleas	Bmasked	CS_B	1pleas	distractor1	EVAbeforeCON	acq_new_pleas_masked	acq1_masked	1	18	0	0	300	300	0	0	582	50	0	1	0	0	0	1	blank2r.bmp	0	1	+	0	6	C2r.bmp	492	1	blank2r.bmp	786	1	B1r.bmp	786	1	blank2r.bmp	866	4	helfen	866	0	0	0	0	0	0	0	0	0	0	0	0	0	0	0	0	0	0	0	0	0	0	0	0	0	0	0	0	0	0	0	0	0
121118	13:54:10	13:58:25	254921	5.0.10.0	4_exp_EVA_AMP_AWA_CON	5	Rpleas_acq	Oppo	Rpleas	Bmasked	CS_B	1pleas	distractor1	EVAbeforeCON	acq_new_pleas_masked	acq1_masked	1	19	0	0	300	300	0	0	469	50	0	1	0	0	0	1	blank2r.bmp	0	1	+	0	5	C1r.bmp	492	1	blank2r.bmp	786	7	C3r.bmp	786	1	blank2r.bmp	866	6	ehrlich	866	0	0	0	0	0	0	0	0	0	0	0	0	0	0	0	0	0	0	0	0	0	0	0	0	0	0	0	0	0	0	0	0	0
121118	13:54:10	13:58:28	257813	5.0.10.0	4_exp_EVA_AMP_AWA_CON	5	Rpleas_acq	Oppo	Rpleas	Bmasked	CS_B	1pleas	distractor1	EVAbeforeCON	acq_US_unple_masked	acq1_masked	1	20	0	0	300	300	0	0	1206	50	0	0	0	0	0	1	blank2r.bmp	0	1	+	0	4	B4r.bmp	492	1	blank2r.bmp	786	1	GKQX	786	1	blank2r.bmp	866	3	fanatisch	866	1	FEHLER	2105	0	0	0	0	0	0	0	0	0	0	0	0	0	0	0	0	0	0	0	0	0	0	0	0	0	0	0	0	0	0
121118	13:54:10	13:58:30	259812	5.0.10.0	4_exp_EVA_AMP_AWA_CON	5	Rpleas_acq	Oppo	Rpleas	Bmasked	CS_B	1pleas	distractor1	EVAbeforeCON	acq_US_pleas_masked	acq1_masked	1	21	0	0	300	300	0	0	733	50	0	1	0	0	0	1	blank2r.bmp	0	1	+	0	3	B3r.bmp	492	1	blank2r.bmp	786	1	BMVZ	786	1	blank2r.bmp	866	4	tolerant	866	0	0	0	0	0	0	0	0	0	0	0	0	0	0	0	0	0	0	0	0	0	0	0	0	0	0	0	0	0	0	0	0	0
121118	13:54:10	13:58:32	261932	5.0.10.0	4_exp_EVA_AMP_AWA_CON	5	Rpleas_acq	Oppo	Rpleas	Bmasked	CS_B	1pleas	distractor1	EVAbeforeCON	acq_US_pleas_masked	acq1_masked	1	22	0	0	300	300	0	0	625	50	0	1	0	0	0	1	blank2r.bmp	0	1	+	0	2	B2r.bmp	492	1	blank2r.bmp	786	1	BMVZ	786	1	blank2r.bmp	866	3	freundlich	866	0	0	0	0	0	0	0	0	0	0	0	0	0	0	0	0	0	0	0	0	0	0	0	0	0	0	0	0	0	0	0	0	0
121118	13:54:10	13:58:35	264197	5.0.10.0	4_exp_EVA_AMP_AWA_CON	5	Rpleas_acq	Oppo	Rpleas	Bmasked	CS_B	1pleas	distractor1	EVAbeforeCON	acq_new_unple_masked	acq1_masked	1	23	0	0	300	300	0	0	787	46	0	1	0	0	0	1	blank2r.bmp	0	1	+	0	8	C4r.bmp	492	1	blank2r.bmp	786	5	C1r.bmp	786	1	blank2r.bmp	866	4	hindern	866	0	0	0	0	0	0	0	0	0	0	0	0	0	0	0	0	0	0	0	0	0	0	0	0	0	0	0	0	0	0	0	0	0
121118	13:54:10	13:58:37	266356	5.0.10.0	4_exp_EVA_AMP_AWA_CON	5	Rpleas_acq	Oppo	Rpleas	Bmasked	CS_B	1pleas	distractor1	EVAbeforeCON	acq_US_pleas_masked	acq1_masked	1	24	0	0	300	300	0	0	668	50	0	1	0	0	0	1	blank2r.bmp	0	1	+	0	7	C3r.bmp	492	1	blank2r.bmp	786	1	BMVZ	786	1	blank2r.bmp	866	6	spielen	866	0	0	0	0	0	0	0	0	0	0	0	0	0	0	0	0	0	0	0	0	0	0	0	0	0	0	0	0	0	0	0	0	0
121118	13:54:10	13:58:39	268609	5.0.10.0	4_exp_EVA_AMP_AWA_CON	5	Rpleas_acq	Oppo	Rpleas	Bmasked	CS_B	1pleas	distractor1	EVAbeforeCON	acq_US_pleas_masked	acq1_masked	1	25	0	0	300	300	0	0	775	50	0	1	0	0	0	1	blank2r.bmp	0	1	+	0	7	C3r.bmp	492	1	blank2r.bmp	786	1	BMVZ	786	1	blank2r.bmp	866	2	loyal	866	0	0	0	0	0	0	0	0	0	0	0	0	0	0	0	0	0	0	0	0	0	0	0	0	0	0	0	0	0	0	0	0	0
121118	13:54:10	13:58:41	271021	5.0.10.0	4_exp_EVA_AMP_AWA_CON	5	Rpleas_acq	Oppo	Rpleas	Bmasked	CS_B	1pleas	distractor1	EVAbeforeCON	acq_US_pleas_masked	acq1_masked	1	26	0	0	300	300	0	0	919	50	0	1	0	0	0	1	blank2r.bmp	0	1	+	0	5	C1r.bmp	492	1	blank2r.bmp	786	1	BMVZ	786	1	blank2r.bmp	866	5	fair	866	0	0	0	0	0	0	0	0	0	0	0	0	0	0	0	0	0	0	0	0	0	0	0	0	0	0	0	0	0	0	0	0	0
121118	13:54:10	13:58:44	273180	5.0.10.0	4_exp_EVA_AMP_AWA_CON	5	Rpleas_acq	Oppo	Rpleas	Bmasked	CS_B	1pleas	distractor1	EVAbeforeCON	acq_US_unple_masked	acq1_masked	1	27	0	0	300	300	0	0	687	46	0	1	0	0	0	1	blank2r.bmp	0	1	+	0	6	C2r.bmp	492	1	blank2r.bmp	786	1	GKQX	786	1	blank2r.bmp	866	4	tyrannisch	866	0	0	0	0	0	0	0	0	0	0	0	0	0	0	0	0	0	0	0	0	0	0	0	0	0	0	0	0	0	0	0	0	0
121118	13:54:10	13:58:46	275220	5.0.10.0	4_exp_EVA_AMP_AWA_CON	5	Rpleas_acq	Oppo	Rpleas	Bmasked	CS_B	1pleas	distractor1	EVAbeforeCON	acq_US_unple_masked	acq1_masked	1	28	0	0	300	300	0	0	548	46	0	1	0	0	0	1	blank2r.bmp	0	1	+	0	8	C4r.bmp	492	1	blank2r.bmp	786	1	GKQX	786	1	blank2r.bmp	866	6	strafen	866	0	0	0	0	0	0	0	0	0	0	0	0	0	0	0	0	0	0	0	0	0	0	0	0	0	0	0	0	0	0	0	0	0
121118	13:54:10	13:58:48	277472	5.0.10.0	4_exp_EVA_AMP_AWA_CON	5	Rpleas_acq	Oppo	Rpleas	Bmasked	CS_B	1pleas	distractor1	EVAbeforeCON	acq_new_unple_masked	acq1_masked	1	29	0	0	300	300	0	0	778	46	0	1	0	0	0	1	blank2r.bmp	0	1	+	0	3	B3r.bmp	492	1	blank2r.bmp	786	6	C2r.bmp	786	1	blank2r.bmp	866	4	hindern	866	0	0	0	0	0	0	0	0	0	0	0	0	0	0	0	0	0	0	0	0	0	0	0	0	0	0	0	0	0	0	0	0	0
121118	13:54:10	13:58:50	279591	5.0.10.0	4_exp_EVA_AMP_AWA_CON	5	Rpleas_acq	Oppo	Rpleas	Bmasked	CS_B	1pleas	distractor1	EVAbeforeCON	acq_US_unple_masked	acq1_masked	1	30	0	0	300	300	0	0	628	46	0	1	0	0	0	1	blank2r.bmp	0	1	+	0	2	B2r.bmp	492	1	blank2r.bmp	786	1	GKQX	786	1	blank2r.bmp	866	5	faul	866	0	0	0	0	0	0	0	0	0	0	0	0	0	0	0	0	0	0	0	0	0	0	0	0	0	0	0	0	0	0	0	0	0
121118	13:54:10	13:58:52	281644	5.0.10.0	4_exp_EVA_AMP_AWA_CON	5	Rpleas_acq	Oppo	Rpleas	Bmasked	CS_B	1pleas	distractor1	EVAbeforeCON	acq_new_unple_masked	acq1_masked	1	31	0	0	300	300	0	0	568	46	0	1	0	0	0	1	blank2r.bmp	0	1	+	0	4	B4r.bmp	492	1	blank2r.bmp	786	2	B2r.bmp	786	1	blank2r.bmp	866	2	rächen	866	0	0	0	0	0	0	0	0	0	0	0	0	0	0	0	0	0	0	0	0	0	0	0	0	0	0	0	0	0	0	0	0	0
121118	13:54:10	13:58:54	283709	5.0.10.0	4_exp_EVA_AMP_AWA_CON	5	Rpleas_acq	Oppo	Rpleas	Bmasked	CS_B	1pleas	distractor1	EVAbeforeCON	acq_new_pleas_masked	acq1_masked	1	32	0	0	300	300	0	0	581	50	0	1	0	0	0	1	blank2r.bmp	0	1	+	0	1	B1r.bmp	492	1	blank2r.bmp	786	8	C4r.bmp	786	1	blank2r.bmp	866	6	ehrlich	866	0	0	0	0	0	0	0	0	0	0	0	0	0	0	0	0	0	0	0	0	0	0	0	0	0	0	0	0	0	0	0	0	0
121118	13:54:10	13:58:56	285669	5.0.10.0	4_exp_EVA_AMP_AWA_CON	5	Rpleas_acq	Oppo	Rpleas	Bmasked	CS_B	1pleas	distractor1	EVAbeforeCON	acq_US_pleas_masked	acq1_masked	1	33	0	0	300	300	0	0	473	50	0	1	0	0	0	1	blank2r.bmp	0	1	+	0	2	B2r.bmp	492	1	blank2r.bmp	786	1	BMVZ	786	1	blank2r.bmp	866	1	treu	866	0	0	0	0	0	0	0	0	0	0	0	0	0	0	0	0	0	0	0	0	0	0	0	0	0	0	0	0	0	0	0	0	0
121118	13:54:10	13:58:58	287788	5.0.10.0	4_exp_EVA_AMP_AWA_CON	5	Rpleas_acq	Oppo	Rpleas	Bmasked	CS_B	1pleas	distractor1	EVAbeforeCON	acq_new_unple_masked	acq1_masked	1	34	0	0	300	300	0	0	626	46	0	1	0	0	0	1	blank2r.bmp	0	1	+	0	1	B1r.bmp	492	1	blank2r.bmp	786	3	B3r.bmp	786	1	blank2r.bmp	866	3	leiden	866	0	0	0	0	0	0	0	0	0	0	0	0	0	0	0	0	0	0	0	0	0	0	0	0	0	0	0	0	0	0	0	0	0
121118	13:54:10	13:59:00	289880	5.0.10.0	4_exp_EVA_AMP_AWA_CON	5	Rpleas_acq	Oppo	Rpleas	Bmasked	CS_B	1pleas	distractor1	EVAbeforeCON	acq_new_pleas_masked	acq1_masked	1	35	0	0	300	300	0	0	623	50	0	1	0	0	0	1	blank2r.bmp	0	1	+	0	6	C2r.bmp	492	1	blank2r.bmp	786	5	C1r.bmp	786	1	blank2r.bmp	866	3	lachen	866	0	0	0	0	0	0	0	0	0	0	0	0	0	0	0	0	0	0	0	0	0	0	0	0	0	0	0	0	0	0	0	0	0
121118	13:54:10	13:59:02	292026	5.0.10.0	4_exp_EVA_AMP_AWA_CON	5	Rpleas_acq	Oppo	Rpleas	Bmasked	CS_B	1pleas	distractor1	EVAbeforeCON	acq_new_pleas_masked	acq1_masked	1	36	0	0	300	300	0	0	658	50	0	1	0	0	0	1	blank2r.bmp	0	1	+	0	4	B4r.bmp	492	1	blank2r.bmp	786	1	B1r.bmp	786	1	blank2r.bmp	866	2	retten	866	0	0	0	0	0	0	0	0	0	0	0	0	0	0	0	0	0	0	0	0	0	0	0	0	0	0	0	0	0	0	0	0	0
121118	13:54:10	13:59:51	340713	5.0.10.0	4_exp_EVA_AMP_AWA_CON	5	Rpleas_acq	Oppo	Rpleas	Bmasked	CS_B	1pleas	distractor1	EVAbeforeCON	acq_US_pleas_masked	acq2_masked	2	1	480	0	300	300	0	0	7863	50	0	1	0	0	0	1	blank2r.bmp	0	1	+	0	5	C1r.bmp	492	1	blank2r.bmp	786	1	BMVZ	786	1	blank2r.bmp	866	3	freundlich	866	1	!	1319	1	!	-1	0	0	0	0	0	0	0	0	0	0	0	0	0	0	0	0	0	0	0	0	0	0	0	0	0	0	0
121118	13:54:10	13:59:54	343578	5.0.10.0	4_exp_EVA_AMP_AWA_CON	5	Rpleas_acq	Oppo	Rpleas	Bmasked	CS_B	1pleas	distractor1	EVAbeforeCON	acq_new_unple_masked	acq2_masked	2	2	480	0	300	300	0	0	854	50	0	0	0	0	0	1	blank2r.bmp	0	1	+	0	7	C3r.bmp	492	1	blank2r.bmp	786	3	B3r.bmp	786	1	blank2r.bmp	866	6	eitel	866	1	FEHLER	2065	1	!	1319	1	!	-1	0	0	0	0	0	0	0	0	0	0	0	0	0	0	0	0	0	0	0	0	0	0	0	0
121118	13:54:10	13:59:56	345990	5.0.10.0	4_exp_EVA_AMP_AWA_CON	5	Rpleas_acq	Oppo	Rpleas	Bmasked	CS_B	1pleas	distractor1	EVAbeforeCON	acq_new_unple_masked	acq2_masked	2	3	480	0	300	300	0	0	631	50	0	0	0	0	0	1	blank2r.bmp	0	1	+	0	8	C4r.bmp	492	1	blank2r.bmp	786	4	B4r.bmp	786	1	blank2r.bmp	866	1	schlecht	866	1	FEHLER	1839	1	!	1319	1	!	-1	0	0	0	0	0	0	0	0	0	0	0	0	0	0	0	0	0	0	0	0	0	0	0	0
121118	13:54:10	13:59:59	348216	5.0.10.0	4_exp_EVA_AMP_AWA_CON	5	Rpleas_acq	Oppo	Rpleas	Bmasked	CS_B	1pleas	distractor1	EVAbeforeCON	acq_new_unple_masked	acq2_masked	2	4	480	1	300	300	0	0	438	50	0	0	0	0	0	1	blank2r.bmp	0	1	+	0	3	B3r.bmp	492	1	blank2r.bmp	786	7	C3r.bmp	786	1	blank2r.bmp	866	5	schroff	866	1	FEHLER	1652	1	!	1319	1	!	1332	0	0	0	0	0	0	0	0	0	0	0	0	0	0	0	0	0	0	0	0	0	0	0	0
121118	13:54:10	14:00:00	349922	5.0.10.0	4_exp_EVA_AMP_AWA_CON	5	Rpleas_acq	Oppo	Rpleas	Bmasked	CS_B	1pleas	distractor1	EVAbeforeCON	acq_US_pleas_masked	acq2_masked	2	5	480	0	300	300	0	0	155	50	0	1	0	0	0	1	blank2r.bmp	0	1	+	0	7	C3r.bmp	492	1	blank2r.bmp	786	1	BMVZ	786	1	blank2r.bmp	866	6	spielen	866	1	!	-1	1	!	-1	0	0	0	0	0	0	0	0	0	0	0	0	0	0	0	0	0	0	0	0	0	0	0	0	0	0	0
121118	13:54:10	14:00:03	352308	5.0.10.0	4_exp_EVA_AMP_AWA_CON	5	Rpleas_acq	Oppo	Rpleas	Bmasked	CS_B	1pleas	distractor1	EVAbeforeCON	acq_US_unple_masked	acq2_masked	2	6	480	0	300	300	0	0	375	50	0	0	0	0	0	1	blank2r.bmp	0	1	+	0	8	C4r.bmp	492	1	blank2r.bmp	786	1	GKQX	786	1	blank2r.bmp	866	2	lasch	866	1	FEHLER	1586	1	!	-1	1	!	-1	0	0	0	0	0	0	0	0	0	0	0	0	0	0	0	0	0	0	0	0	0	0	0	0
121118	13:54:10	14:00:12	361957	5.0.10.0	4_exp_EVA_AMP_AWA_CON	5	Rpleas_acq	Oppo	Rpleas	Bmasked	CS_B	1pleas	distractor1	EVAbeforeCON	acq_US_pleas_masked	acq2_masked	2	7	480	0	300	300	0	0	8094	50	0	1	0	0	0	1	blank2r.bmp	0	1	+	0	3	B3r.bmp	492	1	blank2r.bmp	786	1	BMVZ	786	1	blank2r.bmp	866	4	tolerant	866	1	!	1319	1	!	-1	0	0	0	0	0	0	0	0	0	0	0	0	0	0	0	0	0	0	0	0	0	0	0	0	0	0	0
121118	13:54:10	14:00:26	376138	5.0.10.0	4_exp_EVA_AMP_AWA_CON	5	Rpleas_acq	Oppo	Rpleas	Bmasked	CS_B	1pleas	distractor1	EVAbeforeCON	acq_US_unple_masked	acq2_masked	2	8	480	0	300	300	0	0	12170	50	0	0	0	0	0	1	blank2r.bmp	0	1	+	0	4	B4r.bmp	492	1	blank2r.bmp	786	1	GKQX	786	1	blank2r.bmp	866	3	fanatisch	866	1	FEHLER	13381	1	!	1319	1	!	-1	0	0	0	0	0	0	0	0	0	0	0	0	0	0	0	0	0	0	0	0	0	0	0	0
121118	13:54:10	14:00:28	377924	5.0.10.0	4_exp_EVA_AMP_AWA_CON	5	Rpleas_acq	Oppo	Rpleas	Bmasked	CS_B	1pleas	distractor1	EVAbeforeCON	acq_new_pleas_masked	acq2_masked	2	9	480	0	300	300	0	0	230	50	0	1	0	0	0	1	blank2r.bmp	0	1	+	0	6	C2r.bmp	492	1	blank2r.bmp	786	2	B2r.bmp	786	1	blank2r.bmp	866	4	helfen	866	1	!	-1	1	!	-1	0	0	0	0	0	0	0	0	0	0	0	0	0	0	0	0	0	0	0	0	0	0	0	0	0	0	0
121118	13:54:10	14:00:31	380310	5.0.10.0	4_exp_EVA_AMP_AWA_CON	5	Rpleas_acq	Oppo	Rpleas	Bmasked	CS_B	1pleas	distractor1	EVAbeforeCON	acq_new_pleas_masked	acq2_masked	2	10	480	0	300	300	0	0	607	50	0	1	0	0	0	1	blank2r.bmp	0	1	+	0	2	B2r.bmp	492	1	blank2r.bmp	786	6	C2r.bmp	786	1	blank2r.bmp	866	5	schlau	866	1	!	1319	1	!	-1	0	0	0	0	0	0	0	0	0	0	0	0	0	0	0	0	0	0	0	0	0	0	0	0	0	0	0
121118	13:54:10	14:01:35	445136	5.0.10.0	4_exp_EVA_AMP_AWA_CON	5	Rpleas_acq	Oppo	Rpleas	Bmasked	CS_B	1pleas	distractor1	EVAbeforeCON	acq_US_unple_masked	acq2_masked	2	11	480	0	300	300	0	0	62809	50	0	0	0	0	0	1	blank2r.bmp	0	1	+	0	1	B1r.bmp	492	1	blank2r.bmp	786	1	GKQX	786	1	blank2r.bmp	866	1	tot	866	1	FEHLER	64013	1	!	1319	1	!	-1	0	0	0	0	0	0	0	0	0	0	0	0	0	0	0	0	0	0	0	0	0	0	0	0
121118	13:54:10	14:01:37	447016	5.0.10.0	4_exp_EVA_AMP_AWA_CON	5	Rpleas_acq	Oppo	Rpleas	Bmasked	CS_B	1pleas	distractor1	EVAbeforeCON	acq_new_pleas_masked	acq2_masked	2	12	480	0	300	300	0	0	331	50	0	1	0	0	0	1	blank2r.bmp	0	1	+	0	5	C1r.bmp	492	1	blank2r.bmp	786	8	C4r.bmp	786	1	blank2r.bmp	866	1	schön	866	1	!	-1	1	!	-1	0	0	0	0	0	0	0	0	0	0	0	0	0	0	0	0	0	0	0	0	0	0	0	0	0	0	0
121118	13:54:10	14:01:39	449121	5.0.10.0	4_exp_EVA_AMP_AWA_CON	5	Rpleas_acq	Oppo	Rpleas	Bmasked	CS_B	1pleas	distractor1	EVAbeforeCON	acq_new_pleas_masked	acq2_masked	2	13	480	0	300	300	0	0	326	50	0	1	0	0	0	1	blank2r.bmp	0	1	+	0	6	C2r.bmp	492	1	blank2r.bmp	786	1	B1r.bmp	786	1	blank2r.bmp	866	6	ehrlich	866	1	!	-1	1	!	-1	0	0	0	0	0	0	0	0	0	0	0	0	0	0	0	0	0	0	0	0	0	0	0	0	0	0	0
121118	13:54:10	14:01:45	455012	5.0.10.0	4_exp_EVA_AMP_AWA_CON	5	Rpleas_acq	Oppo	Rpleas	Bmasked	CS_B	1pleas	distractor1	EVAbeforeCON	acq_US_pleas_masked	acq2_masked	2	14	480	0	300	300	0	0	4111	50	0	1	0	0	0	1	blank2r.bmp	0	1	+	0	3	B3r.bmp	492	1	blank2r.bmp	786	1	BMVZ	786	1	blank2r.bmp	866	2	loyal	866	1	!	1319	1	!	-1	0	0	0	0	0	0	0	0	0	0	0	0	0	0	0	0	0	0	0	0	0	0	0	0	0	0	0
121118	13:54:10	14:01:48	457278	5.0.10.0	4_exp_EVA_AMP_AWA_CON	5	Rpleas_acq	Oppo	Rpleas	Bmasked	CS_B	1pleas	distractor1	EVAbeforeCON	acq_new_unple_masked	acq2_masked	2	15	480	0	300	300	0	0	258	50	0	0	0	0	0	1	blank2r.bmp	0	1	+	0	1	B1r.bmp	492	1	blank2r.bmp	786	6	C2r.bmp	786	1	blank2r.bmp	866	1	schlecht	866	1	FEHLER	1466	1	!	-1	1	!	-1	0	0	0	0	0	0	0	0	0	0	0	0	0	0	0	0	0	0	0	0	0	0	0	0
121118	13:54:10	14:01:50	459424	5.0.10.0	4_exp_EVA_AMP_AWA_CON	5	Rpleas_acq	Oppo	Rpleas	Bmasked	CS_B	1pleas	distractor1	EVAbeforeCON	acq_US_unple_masked	acq2_masked	2	16	480	0	300	300	0	0	365	50	0	0	0	0	0	1	blank2r.bmp	0	1	+	0	4	B4r.bmp	492	1	blank2r.bmp	786	1	GKQX	786	1	blank2r.bmp	866	3	fanatisch	866	1	FEHLER	1572	1	!	-1	1	!	-1	0	0	0	0	0	0	0	0	0	0	0	0	0	0	0	0	0	0	0	0	0	0	0	0
121118	13:54:10	14:01:52	461476	5.0.10.0	4_exp_EVA_AMP_AWA_CON	5	Rpleas_acq	Oppo	Rpleas	Bmasked	CS_B	1pleas	distractor1	EVAbeforeCON	acq_new_unple_masked	acq2_masked	2	17	480	0	300	300	0	0	263	50	0	0	0	0	0	1	blank2r.bmp	0	1	+	0	7	C3r.bmp	492	1	blank2r.bmp	786	4	B4r.bmp	786	1	blank2r.bmp	866	4	hindern	866	1	FEHLER	1466	1	!	-1	1	!	-1	0	0	0	0	0	0	0	0	0	0	0	0	0	0	0	0	0	0	0	0	0	0	0	0
121118	13:54:10	14:01:56	465661	5.0.10.0	4_exp_EVA_AMP_AWA_CON	5	Rpleas_acq	Oppo	Rpleas	Bmasked	CS_B	1pleas	distractor1	EVAbeforeCON	acq_new_pleas_masked	acq2_masked	2	18	480	0	300	300	0	0	2629	50	0	1	0	0	0	1	blank2r.bmp	0	1	+	0	5	C1r.bmp	492	1	blank2r.bmp	786	3	B3r.bmp	786	1	blank2r.bmp	866	3	lachen	866	1	!	1319	1	!	-1	0	0	0	0	0	0	0	0	0	0	0	0	0	0	0	0	0	0	0	0	0	0	0	0	0	0	0
121118	13:54:10	14:01:58	468114	5.0.10.0	4_exp_EVA_AMP_AWA_CON	5	Rpleas_acq	Oppo	Rpleas	Bmasked	CS_B	1pleas	distractor1	EVAbeforeCON	acq_US_unple_masked	acq2_masked	2	19	480	1	300	300	0	0	427	50	0	0	0	0	0	1	blank2r.bmp	0	1	+	0	2	B2r.bmp	492	1	blank2r.bmp	786	1	GKQX	786	1	blank2r.bmp	866	1	tot	866	1	FEHLER	1652	1	!	1319	1	!	1332	0	0	0	0	0	0	0	0	0	0	0	0	0	0	0	0	0	0	0	0	0	0	0	0
121118	13:54:10	14:02:01	470299	5.0.10.0	4_exp_EVA_AMP_AWA_CON	5	Rpleas_acq	Oppo	Rpleas	Bmasked	CS_B	1pleas	distractor1	EVAbeforeCON	acq_new_unple_masked	acq2_masked	2	20	480	0	300	300	0	0	411	50	0	0	0	0	0	1	blank2r.bmp	0	1	+	0	8	C4r.bmp	492	1	blank2r.bmp	786	5	C1r.bmp	786	1	blank2r.bmp	866	3	leiden	866	1	FEHLER	1612	1	!	-1	1	!	-1	0	0	0	0	0	0	0	0	0	0	0	0	0	0	0	0	0	0	0	0	0	0	0	0
121118	13:54:10	14:02:02	472139	5.0.10.0	4_exp_EVA_AMP_AWA_CON	5	Rpleas_acq	Oppo	Rpleas	Bmasked	CS_B	1pleas	distractor1	EVAbeforeCON	acq_new_pleas_masked	acq2_masked	2	21	480	0	300	300	0	0	253	50	0	1	0	0	0	1	blank2r.bmp	0	1	+	0	4	B4r.bmp	492	1	blank2r.bmp	786	7	C3r.bmp	786	1	blank2r.bmp	866	1	schön	866	1	!	-1	1	!	-1	0	0	0	0	0	0	0	0	0	0	0	0	0	0	0	0	0	0	0	0	0	0	0	0	0	0	0
121118	13:54:10	14:02:10	479389	5.0.10.0	4_exp_EVA_AMP_AWA_CON	5	Rpleas_acq	Oppo	Rpleas	Bmasked	CS_B	1pleas	distractor1	EVAbeforeCON	acq_US_pleas_masked	acq2_masked	2	22	480	0	300	300	0	0	5465	50	0	1	0	0	0	1	blank2r.bmp	0	1	+	0	8	C4r.bmp	492	1	blank2r.bmp	786	1	BMVZ	786	1	blank2r.bmp	866	5	fair	866	1	!	1319	1	!	-1	0	0	0	0	0	0	0	0	0	0	0	0	0	0	0	0	0	0	0	0	0	0	0	0	0	0	0
121118	13:54:10	14:02:12	482068	5.0.10.0	4_exp_EVA_AMP_AWA_CON	5	Rpleas_acq	Oppo	Rpleas	Bmasked	CS_B	1pleas	distractor1	EVAbeforeCON	acq_US_unple_masked	acq2_masked	2	23	480	0	300	300	0	0	678	50	0	0	0	0	0	1	blank2r.bmp	0	1	+	0	2	B2r.bmp	492	1	blank2r.bmp	786	1	GKQX	786	1	blank2r.bmp	866	4	tyrannisch	866	1	FEHLER	1879	1	!	1319	1	!	-1	0	0	0	0	0	0	0	0	0	0	0	0	0	0	0	0	0	0	0	0	0	0	0	0
121118	13:54:10	14:02:15	484374	5.0.10.0	4_exp_EVA_AMP_AWA_CON	5	Rpleas_acq	Oppo	Rpleas	Bmasked	CS_B	1pleas	distractor1	EVAbeforeCON	acq_US_pleas_masked	acq2_masked	2	24	480	1	300	300	0	0	508	46	0	0	0	0	0	1	blank2r.bmp	0	1	+	0	5	C1r.bmp	492	1	blank2r.bmp	786	1	BMVZ	786	1	blank2r.bmp	866	3	freundlich	866	1	FEHLER	1732	1	!	1319	1	!	1412	0	0	0	0	0	0	0	0	0	0	0	0	0	0	0	0	0	0	0	0	0	0	0	0
121118	13:54:10	14:02:17	486706	5.0.10.0	4_exp_EVA_AMP_AWA_CON	5	Rpleas_acq	Oppo	Rpleas	Bmasked	CS_B	1pleas	distractor1	EVAbeforeCON	acq_new_unple_masked	acq2_masked	2	25	480	1	300	300	0	0	536	50	0	0	0	0	0	1	blank2r.bmp	0	1	+	0	7	C3r.bmp	492	1	blank2r.bmp	786	8	C4r.bmp	786	1	blank2r.bmp	866	2	rächen	866	1	FEHLER	1759	1	!	1319	1	!	1439	0	0	0	0	0	0	0	0	0	0	0	0	0	0	0	0	0	0	0	0	0	0	0	0
121118	13:54:10	14:02:22	491691	5.0.10.0	4_exp_EVA_AMP_AWA_CON	5	Rpleas_acq	Oppo	Rpleas	Bmasked	CS_B	1pleas	distractor1	EVAbeforeCON	acq_US_pleas_masked	acq2_masked	2	26	480	0	300	300	0	0	3426	50	0	1	0	0	0	1	blank2r.bmp	0	1	+	0	3	B3r.bmp	492	1	blank2r.bmp	786	1	BMVZ	786	1	blank2r.bmp	866	4	tolerant	866	1	!	1319	1	!	-1	0	0	0	0	0	0	0	0	0	0	0	0	0	0	0	0	0	0	0	0	0	0	0	0	0	0	0
121118	13:54:10	14:02:24	493770	5.0.10.0	4_exp_EVA_AMP_AWA_CON	5	Rpleas_acq	Oppo	Rpleas	Bmasked	CS_B	1pleas	distractor1	EVAbeforeCON	acq_US_pleas_masked	acq2_masked	2	27	480	0	300	300	0	0	302	50	0	1	0	0	0	1	blank2r.bmp	0	1	+	0	1	B1r.bmp	492	1	blank2r.bmp	786	1	BMVZ	786	1	blank2r.bmp	866	1	treu	866	1	!	-1	1	!	-1	0	0	0	0	0	0	0	0	0	0	0	0	0	0	0	0	0	0	0	0	0	0	0	0	0	0	0
121118	13:54:10	14:02:27	496395	5.0.10.0	4_exp_EVA_AMP_AWA_CON	5	Rpleas_acq	Oppo	Rpleas	Bmasked	CS_B	1pleas	distractor1	EVAbeforeCON	acq_US_unple_masked	acq2_masked	2	28	480	0	300	300	0	0	624	50	0	0	0	0	0	1	blank2r.bmp	0	1	+	0	6	C2r.bmp	492	1	blank2r.bmp	786	1	GKQX	786	1	blank2r.bmp	866	2	lasch	866	1	FEHLER	1825	1	!	1319	1	!	-1	0	0	0	0	0	0	0	0	0	0	0	0	0	0	0	0	0	0	0	0	0	0	0	0
121118	13:54:10	14:02:29	498554	5.0.10.0	4_exp_EVA_AMP_AWA_CON	5	Rpleas_acq	Oppo	Rpleas	Bmasked	CS_B	1pleas	distractor1	EVAbeforeCON	acq_US_unple_masked	acq2_masked	2	29	480	0	300	300	0	0	359	50	0	0	0	0	0	1	blank2r.bmp	0	1	+	0	4	B4r.bmp	492	1	blank2r.bmp	786	1	GKQX	786	1	blank2r.bmp	866	5	faul	866	1	FEHLER	1572	1	!	-1	1	!	-1	0	0	0	0	0	0	0	0	0	0	0	0	0	0	0	0	0	0	0	0	0	0	0	0
121118	13:54:10	14:02:31	500460	5.0.10.0	4_exp_EVA_AMP_AWA_CON	5	Rpleas_acq	Oppo	Rpleas	Bmasked	CS_B	1pleas	distractor1	EVAbeforeCON	acq_new_pleas_masked	acq2_masked	2	30	480	0	300	300	0	0	358	50	0	1	0	0	0	1	blank2r.bmp	0	1	+	0	2	B2r.bmp	492	1	blank2r.bmp	786	2	B2r.bmp	786	1	blank2r.bmp	866	5	schlau	866	1	!	-1	1	!	-1	0	0	0	0	0	0	0	0	0	0	0	0	0	0	0	0	0	0	0	0	0	0	0	0	0	0	0
121118	13:54:10	14:02:33	502633	5.0.10.0	4_exp_EVA_AMP_AWA_CON	5	Rpleas_acq	Oppo	Rpleas	Bmasked	CS_B	1pleas	distractor1	EVAbeforeCON	acq_new_unple_masked	acq2_masked	2	31	480	0	300	300	0	0	377	46	0	1	0	0	0	1	blank2r.bmp	0	1	+	0	8	C4r.bmp	492	1	blank2r.bmp	786	2	B2r.bmp	786	1	blank2r.bmp	866	6	eitel	866	1	!	-1	1	!	-1	0	0	0	0	0	0	0	0	0	0	0	0	0	0	0	0	0	0	0	0	0	0	0	0	0	0	0
121118	13:54:10	14:02:36	505378	5.0.10.0	4_exp_EVA_AMP_AWA_CON	5	Rpleas_acq	Oppo	Rpleas	Bmasked	CS_B	1pleas	distractor1	EVAbeforeCON	acq_US_pleas_masked	acq2_masked	2	32	480	0	300	300	0	0	738	46	0	0	0	0	0	1	blank2r.bmp	0	1	+	0	6	C2r.bmp	492	1	blank2r.bmp	786	1	BMVZ	786	1	blank2r.bmp	866	6	spielen	866	1	FEHLER	1945	1	!	1319	1	!	-1	0	0	0	0	0	0	0	0	0	0	0	0	0	0	0	0	0	0	0	0	0	0	0	0
121118	13:54:10	14:02:37	507164	5.0.10.0	4_exp_EVA_AMP_AWA_CON	5	Rpleas_acq	Oppo	Rpleas	Bmasked	CS_B	1pleas	distractor1	EVAbeforeCON	acq_new_pleas_masked	acq2_masked	2	33	480	0	300	300	0	0	229	50	0	1	0	0	0	1	blank2r.bmp	0	1	+	0	5	C1r.bmp	492	1	blank2r.bmp	786	6	C2r.bmp	786	1	blank2r.bmp	866	4	helfen	866	1	!	-1	1	!	-1	0	0	0	0	0	0	0	0	0	0	0	0	0	0	0	0	0	0	0	0	0	0	0	0	0	0	0
121118	13:54:10	14:02:39	509123	5.0.10.0	4_exp_EVA_AMP_AWA_CON	5	Rpleas_acq	Oppo	Rpleas	Bmasked	CS_B	1pleas	distractor1	EVAbeforeCON	acq_US_unple_masked	acq2_masked	2	34	480	0	300	300	0	0	181	46	0	1	0	0	0	1	blank2r.bmp	0	1	+	0	1	B1r.bmp	492	1	blank2r.bmp	786	1	GKQX	786	1	blank2r.bmp	866	6	strafen	866	1	!	-1	1	!	-1	0	0	0	0	0	0	0	0	0	0	0	0	0	0	0	0	0	0	0	0	0	0	0	0	0	0	0
121118	13:54:10	14:02:41	511149	5.0.10.0	4_exp_EVA_AMP_AWA_CON	5	Rpleas_acq	Oppo	Rpleas	Bmasked	CS_B	1pleas	distractor1	EVAbeforeCON	acq_new_pleas_masked	acq2_masked	2	35	480	0	300	300	0	0	245	50	0	1	0	0	0	1	blank2r.bmp	0	1	+	0	3	B3r.bmp	492	1	blank2r.bmp	786	1	B1r.bmp	786	1	blank2r.bmp	866	2	retten	866	1	!	-1	1	!	-1	0	0	0	0	0	0	0	0	0	0	0	0	0	0	0	0	0	0	0	0	0	0	0	0	0	0	0
121118	13:54:10	14:02:46	515934	5.0.10.0	4_exp_EVA_AMP_AWA_CON	5	Rpleas_acq	Oppo	Rpleas	Bmasked	CS_B	1pleas	distractor1	EVAbeforeCON	acq_new_unple_masked	acq2_masked	2	36	480	0	300	300	0	0	3001	46	0	1	0	0	0	1	blank2r.bmp	0	1	+	0	7	C3r.bmp	492	1	blank2r.bmp	786	4	B4r.bmp	786	1	blank2r.bmp	866	5	schroff	866	1	!	1319	1	!	-1	0	0	0	0	0	0	0	0	0	0	0	0	0	0	0	0	0	0	0	0	0	0	0	0	0	0	0
121118	13:54:10	14:03:09	538525	5.0.10.0	4_exp_EVA_AMP_AWA_CON	5	Rpleas_acq	Oppo	Rpleas	Bmasked	CS_B	1pleas	distractor1	EVAbeforeCON	acq_US_unple_masked	acq3_masked	3	1	453	1	300	300	0	0	489	46	0	1	0	0	0	1	blank2r.bmp	0	1	+	0	3	B3r.bmp	492	1	blank2r.bmp	786	1	GKQX	786	1	blank2r.bmp	866	6	strafen	866	1	!	1292	1	!	1386	0	0	0	0	0	0	0	0	0	0	0	0	0	0	0	0	0	0	0	0	0	0	0	0	0	0	0
121118	13:54:10	14:03:11	540777	5.0.10.0	4_exp_EVA_AMP_AWA_CON	5	Rpleas_acq	Oppo	Rpleas	Bmasked	CS_B	1pleas	distractor1	EVAbeforeCON	acq_US_pleas_masked	acq3_masked	3	2	453	1	300	300	0	0	460	50	0	1	0	0	0	1	blank2r.bmp	0	1	+	0	1	B1r.bmp	492	1	blank2r.bmp	786	1	BMVZ	786	1	blank2r.bmp	866	3	freundlich	866	1	!	1292	1	!	1359	0	0	0	0	0	0	0	0	0	0	0	0	0	0	0	0	0	0	0	0	0	0	0	0	0	0	0
121118	13:54:10	14:03:13	542870	5.0.10.0	4_exp_EVA_AMP_AWA_CON	5	Rpleas_acq	Oppo	Rpleas	Bmasked	CS_B	1pleas	distractor1	EVAbeforeCON	acq_US_unple_masked	acq3_masked	3	3	453	0	300	300	0	0	319	46	0	1	0	0	0	1	blank2r.bmp	0	1	+	0	5	C1r.bmp	492	1	blank2r.bmp	786	1	GKQX	786	1	blank2r.bmp	866	5	faul	866	1	!	-1	1	!	-1	0	0	0	0	0	0	0	0	0	0	0	0	0	0	0	0	0	0	0	0	0	0	0	0	0	0	0
121118	13:54:10	14:03:15	544935	5.0.10.0	4_exp_EVA_AMP_AWA_CON	5	Rpleas_acq	Oppo	Rpleas	Bmasked	CS_B	1pleas	distractor1	EVAbeforeCON	acq_US_pleas_masked	acq3_masked	3	4	453	0	300	300	0	0	279	50	0	1	0	0	0	1	blank2r.bmp	0	1	+	0	7	C3r.bmp	492	1	blank2r.bmp	786	1	BMVZ	786	1	blank2r.bmp	866	6	spielen	866	1	!	-1	1	!	-1	0	0	0	0	0	0	0	0	0	0	0	0	0	0	0	0	0	0	0	0	0	0	0	0	0	0	0
121118	13:54:10	14:03:20	550067	5.0.10.0	4_exp_EVA_AMP_AWA_CON	5	Rpleas_acq	Oppo	Rpleas	Bmasked	CS_B	1pleas	distractor1	EVAbeforeCON	acq_US_unple_masked	acq3_masked	3	5	453	0	300	300	0	0	3107	50	0	0	0	0	0	1	blank2r.bmp	0	1	+	0	4	B4r.bmp	492	1	blank2r.bmp	786	1	GKQX	786	1	blank2r.bmp	866	3	fanatisch	866	1	FEHLER	4318	1	!	1292	1	!	-1	0	0	0	0	0	0	0	0	0	0	0	0	0	0	0	0	0	0	0	0	0	0	0	0
121118	13:54:10	14:03:22	551853	5.0.10.0	4_exp_EVA_AMP_AWA_CON	5	Rpleas_acq	Oppo	Rpleas	Bmasked	CS_B	1pleas	distractor1	EVAbeforeCON	acq_US_unple_masked	acq3_masked	3	6	453	0	300	300	0	0	234	46	0	1	0	0	0	1	blank2r.bmp	0	1	+	0	6	C2r.bmp	492	1	blank2r.bmp	786	1	GKQX	786	1	blank2r.bmp	866	1	tot	866	1	!	-1	1	!	-1	0	0	0	0	0	0	0	0	0	0	0	0	0	0	0	0	0	0	0	0	0	0	0	0	0	0	0
121118	13:54:10	14:03:24	554145	5.0.10.0	4_exp_EVA_AMP_AWA_CON	5	Rpleas_acq	Oppo	Rpleas	Bmasked	CS_B	1pleas	distractor1	EVAbeforeCON	acq_US_unple_masked	acq3_masked	3	7	453	0	300	300	0	0	282	50	0	0	0	0	0	1	blank2r.bmp	0	1	+	0	8	C4r.bmp	492	1	blank2r.bmp	786	1	GKQX	786	1	blank2r.bmp	866	2	lasch	866	1	FEHLER	1492	1	!	-1	1	!	-1	0	0	0	0	0	0	0	0	0	0	0	0	0	0	0	0	0	0	0	0	0	0	0	0
121118	13:54:10	14:03:26	556117	5.0.10.0	4_exp_EVA_AMP_AWA_CON	5	Rpleas_acq	Oppo	Rpleas	Bmasked	CS_B	1pleas	distractor1	EVAbeforeCON	acq_US_pleas_masked	acq3_masked	3	8	453	0	300	300	0	0	209	46	0	0	0	0	0	1	blank2r.bmp	0	1	+	0	2	B2r.bmp	492	1	blank2r.bmp	786	1	BMVZ	786	1	blank2r.bmp	866	1	treu	866	1	FEHLER	1412	1	!	-1	1	!	-1	0	0	0	0	0	0	0	0	0	0	0	0	0	0	0	0	0	0	0	0	0	0	0	0
121118	13:54:10	14:03:29	558476	5.0.10.0	4_exp_EVA_AMP_AWA_CON	5	Rpleas_acq	Oppo	Rpleas	Bmasked	CS_B	1pleas	distractor1	EVAbeforeCON	acq_US_unple_masked	acq3_masked	3	9	453	0	300	300	0	0	565	50	0	0	0	0	0	1	blank2r.bmp	0	1	+	0	5	C1r.bmp	492	1	blank2r.bmp	786	1	GKQX	786	1	blank2r.bmp	866	4	tyrannisch	866	1	FEHLER	1772	1	!	1292	1	!	-1	0	0	0	0	0	0	0	0	0	0	0	0	0	0	0	0	0	0	0	0	0	0	0	0
121118	13:54:10	14:03:31	560716	5.0.10.0	4_exp_EVA_AMP_AWA_CON	5	Rpleas_acq	Oppo	Rpleas	Bmasked	CS_B	1pleas	distractor1	EVAbeforeCON	acq_US_pleas_masked	acq3_masked	3	10	453	1	300	300	0	0	446	46	0	0	0	0	0	1	blank2r.bmp	0	1	+	0	6	C2r.bmp	492	1	blank2r.bmp	786	1	BMVZ	786	1	blank2r.bmp	866	2	loyal	866	1	FEHLER	1665	1	!	1292	1	!	1346	0	0	0	0	0	0	0	0	0	0	0	0	0	0	0	0	0	0	0	0	0	0	0	0
121118	13:54:10	14:03:33	562848	5.0.10.0	4_exp_EVA_AMP_AWA_CON	5	Rpleas_acq	Oppo	Rpleas	Bmasked	CS_B	1pleas	distractor1	EVAbeforeCON	acq_US_pleas_masked	acq3_masked	3	11	453	0	300	300	0	0	581	50	0	1	0	0	0	1	blank2r.bmp	0	1	+	0	7	C3r.bmp	492	1	blank2r.bmp	786	1	BMVZ	786	1	blank2r.bmp	866	4	tolerant	866	1	!	1292	1	!	-1	0	0	0	0	0	0	0	0	0	0	0	0	0	0	0	0	0	0	0	0	0	0	0	0	0	0	0
121118	13:54:10	14:03:36	565460	5.0.10.0	4_exp_EVA_AMP_AWA_CON	5	Rpleas_acq	Oppo	Rpleas	Bmasked	CS_B	1pleas	distractor1	EVAbeforeCON	acq_US_pleas_masked	acq3_masked	3	12	453	0	300	300	0	0	611	46	0	0	0	0	0	1	blank2r.bmp	0	1	+	0	8	C4r.bmp	492	1	blank2r.bmp	786	1	BMVZ	786	1	blank2r.bmp	866	5	fair	866	1	FEHLER	1812	1	!	1292	1	!	-1	0	0	0	0	0	0	0	0	0	0	0	0	0	0	0	0	0	0	0	0	0	0	0	0
121118	13:54:10	14:03:38	567339	5.0.10.0	4_exp_EVA_AMP_AWA_CON	5	Rpleas_acq	Oppo	Rpleas	Bmasked	CS_B	1pleas	distractor1	EVAbeforeCON	acq_US_unple_masked	acq3_masked	3	13	453	0	300	300	0	0	321	46	0	1	0	0	0	1	blank2r.bmp	0	1	+	0	2	B2r.bmp	492	1	blank2r.bmp	786	1	GKQX	786	1	blank2r.bmp	866	5	faul	866	1	!	-1	1	!	-1	0	0	0	0	0	0	0	0	0	0	0	0	0	0	0	0	0	0	0	0	0	0	0	0	0	0	0
121118	13:54:10	14:03:40	569792	5.0.10.0	4_exp_EVA_AMP_AWA_CON	5	Rpleas_acq	Oppo	Rpleas	Bmasked	CS_B	1pleas	distractor1	EVAbeforeCON	acq_US_unple_masked	acq3_masked	3	14	453	0	300	300	0	0	674	46	0	1	0	0	0	1	blank2r.bmp	0	1	+	0	1	B1r.bmp	492	1	blank2r.bmp	786	1	GKQX	786	1	blank2r.bmp	866	3	fanatisch	866	1	!	1292	1	!	-1	0	0	0	0	0	0	0	0	0	0	0	0	0	0	0	0	0	0	0	0	0	0	0	0	0	0	0
121118	13:54:10	14:03:42	572018	5.0.10.0	4_exp_EVA_AMP_AWA_CON	5	Rpleas_acq	Oppo	Rpleas	Bmasked	CS_B	1pleas	distractor1	EVAbeforeCON	acq_US_pleas_masked	acq3_masked	3	15	453	1	300	300	0	0	421	50	0	1	0	0	0	1	blank2r.bmp	0	1	+	0	3	B3r.bmp	492	1	blank2r.bmp	786	1	BMVZ	786	1	blank2r.bmp	866	3	freundlich	866	1	!	1292	1	!	1319	0	0	0	0	0	0	0	0	0	0	0	0	0	0	0	0	0	0	0	0	0	0	0	0	0	0	0
121118	13:54:10	14:03:45	574656	5.0.10.0	4_exp_EVA_AMP_AWA_CON	5	Rpleas_acq	Oppo	Rpleas	Bmasked	CS_B	1pleas	distractor1	EVAbeforeCON	acq_US_pleas_masked	acq3_masked	3	16	453	0	300	300	0	0	663	46	0	0	0	0	0	1	blank2r.bmp	0	1	+	0	4	B4r.bmp	492	1	blank2r.bmp	786	1	BMVZ	786	1	blank2r.bmp	866	5	fair	866	1	FEHLER	1865	1	!	1292	1	!	-1	0	0	0	0	0	0	0	0	0	0	0	0	0	0	0	0	0	0	0	0	0	0	0	0
121118	13:54:10	14:03:47	577082	5.0.10.0	4_exp_EVA_AMP_AWA_CON	5	Rpleas_acq	Oppo	Rpleas	Bmasked	CS_B	1pleas	distractor1	EVAbeforeCON	acq_US_unple_masked	acq3_masked	3	17	453	0	300	300	0	0	626	50	0	0	0	0	0	1	blank2r.bmp	0	1	+	0	4	B4r.bmp	492	1	blank2r.bmp	786	1	GKQX	786	1	blank2r.bmp	866	2	lasch	866	1	FEHLER	1839	1	!	1292	1	!	-1	0	0	0	0	0	0	0	0	0	0	0	0	0	0	0	0	0	0	0	0	0	0	0	0
121118	13:54:10	14:03:50	579281	5.0.10.0	4_exp_EVA_AMP_AWA_CON	5	Rpleas_acq	Oppo	Rpleas	Bmasked	CS_B	1pleas	distractor1	EVAbeforeCON	acq_US_pleas_masked	acq3_masked	3	18	453	1	300	300	0	0	406	46	0	0	0	0	0	1	blank2r.bmp	0	1	+	0	7	C3r.bmp	492	1	blank2r.bmp	786	1	BMVZ	786	1	blank2r.bmp	866	1	treu	866	1	FEHLER	1625	1	!	1292	1	!	1306	0	0	0	0	0	0	0	0	0	0	0	0	0	0	0	0	0	0	0	0	0	0	0	0
121118	13:54:10	14:03:52	581467	5.0.10.0	4_exp_EVA_AMP_AWA_CON	5	Rpleas_acq	Oppo	Rpleas	Bmasked	CS_B	1pleas	distractor1	EVAbeforeCON	acq_US_pleas_masked	acq3_masked	3	19	453	0	300	300	0	0	626	50	0	1	0	0	0	1	blank2r.bmp	0	1	+	0	5	C1r.bmp	492	1	blank2r.bmp	786	1	BMVZ	786	1	blank2r.bmp	866	4	tolerant	866	1	!	1292	1	!	-1	0	0	0	0	0	0	0	0	0	0	0	0	0	0	0	0	0	0	0	0	0	0	0	0	0	0	0
121118	13:54:10	14:03:54	583959	5.0.10.0	4_exp_EVA_AMP_AWA_CON	5	Rpleas_acq	Oppo	Rpleas	Bmasked	CS_B	1pleas	distractor1	EVAbeforeCON	acq_US_unple_masked	acq3_masked	3	20	453	0	300	300	0	0	705	46	0	1	0	0	0	1	blank2r.bmp	0	1	+	0	1	B1r.bmp	492	1	blank2r.bmp	786	1	GKQX	786	1	blank2r.bmp	866	4	tyrannisch	866	1	!	1292	1	!	-1	0	0	0	0	0	0	0	0	0	0	0	0	0	0	0	0	0	0	0	0	0	0	0	0	0	0	0
121118	13:54:10	14:03:57	586385	5.0.10.0	4_exp_EVA_AMP_AWA_CON	5	Rpleas_acq	Oppo	Rpleas	Bmasked	CS_B	1pleas	distractor1	EVAbeforeCON	acq_US_pleas_masked	acq3_masked	3	21	453	0	300	300	0	0	648	50	0	1	0	0	0	1	blank2r.bmp	0	1	+	0	3	B3r.bmp	492	1	blank2r.bmp	786	1	BMVZ	786	1	blank2r.bmp	866	6	spielen	866	1	!	1292	1	!	-1	0	0	0	0	0	0	0	0	0	0	0	0	0	0	0	0	0	0	0	0	0	0	0	0	0	0	0
121118	13:54:10	14:03:59	588704	5.0.10.0	4_exp_EVA_AMP_AWA_CON	5	Rpleas_acq	Oppo	Rpleas	Bmasked	CS_B	1pleas	distractor1	EVAbeforeCON	acq_US_unple_masked	acq3_masked	3	22	453	0	300	300	0	0	537	46	0	1	0	0	0	1	blank2r.bmp	0	1	+	0	6	C2r.bmp	492	1	blank2r.bmp	786	1	GKQX	786	1	blank2r.bmp	866	1	tot	866	1	!	1292	1	!	-1	0	0	0	0	0	0	0	0	0	0	0	0	0	0	0	0	0	0	0	0	0	0	0	0	0	0	0
121118	13:54:10	14:04:04	593422	5.0.10.0	4_exp_EVA_AMP_AWA_CON	5	Rpleas_acq	Oppo	Rpleas	Bmasked	CS_B	1pleas	distractor1	EVAbeforeCON	acq_US_pleas_masked	acq3_masked	3	23	453	0	300	300	0	0	2930	50	0	1	0	0	0	1	blank2r.bmp	0	1	+	0	2	B2r.bmp	492	1	blank2r.bmp	786	1	BMVZ	786	1	blank2r.bmp	866	2	loyal	866	1	!	1292	1	!	-1	0	0	0	0	0	0	0	0	0	0	0	0	0	0	0	0	0	0	0	0	0	0	0	0	0	0	0
121118	13:54:10	14:04:06	595648	5.0.10.0	4_exp_EVA_AMP_AWA_CON	5	Rpleas_acq	Oppo	Rpleas	Bmasked	CS_B	1pleas	distractor1	EVAbeforeCON	acq_US_unple_masked	acq3_masked	3	24	453	0	300	300	0	0	220	50	0	0	0	0	0	1	blank2r.bmp	0	1	+	0	8	C4r.bmp	492	1	blank2r.bmp	786	1	GKQX	786	1	blank2r.bmp	866	6	strafen	866	1	FEHLER	1426	1	!	-1	1	!	-1	0	0	0	0	0	0	0	0	0	0	0	0	0	0	0	0	0	0	0	0	0	0	0	0
121118	13:54:10	14:04:09	598993	5.0.10.0	4_exp_EVA_AMP_AWA_CON	5	Rpleas_acq	Oppo	Rpleas	Bmasked	CS_B	1pleas	distractor1	EVAbeforeCON	acq_US_pleas_masked	acq3_masked	3	25	453	0	300	300	0	0	1788	50	0	1	0	0	0	1	blank2r.bmp	0	1	+	0	1	B1r.bmp	492	1	blank2r.bmp	786	1	BMVZ	786	1	blank2r.bmp	866	5	fair	866	1	!	1292	1	!	-1	0	0	0	0	0	0	0	0	0	0	0	0	0	0	0	0	0	0	0	0	0	0	0	0	0	0	0
121118	13:54:10	14:04:12	601206	5.0.10.0	4_exp_EVA_AMP_AWA_CON	5	Rpleas_acq	Oppo	Rpleas	Bmasked	CS_B	1pleas	distractor1	EVAbeforeCON	acq_US_unple_masked	acq3_masked	3	26	453	0	300	300	0	0	211	50	0	0	0	0	0	1	blank2r.bmp	0	1	+	0	2	B2r.bmp	492	1	blank2r.bmp	786	1	GKQX	786	1	blank2r.bmp	866	4	tyrannisch	866	1	FEHLER	1412	1	!	-1	1	!	-1	0	0	0	0	0	0	0	0	0	0	0	0	0	0	0	0	0	0	0	0	0	0	0	0
121118	13:54:10	14:04:13	603178	5.0.10.0	4_exp_EVA_AMP_AWA_CON	5	Rpleas_acq	Oppo	Rpleas	Bmasked	CS_B	1pleas	distractor1	EVAbeforeCON	acq_US_pleas_masked	acq3_masked	3	27	453	0	300	300	0	0	194	46	0	0	0	0	0	1	blank2r.bmp	0	1	+	0	6	C2r.bmp	492	1	blank2r.bmp	786	1	BMVZ	786	1	blank2r.bmp	866	2	loyal	866	1	FEHLER	1399	1	!	-1	1	!	-1	0	0	0	0	0	0	0	0	0	0	0	0	0	0	0	0	0	0	0	0	0	0	0	0
121118	13:54:10	14:04:16	605271	5.0.10.0	4_exp_EVA_AMP_AWA_CON	5	Rpleas_acq	Oppo	Rpleas	Bmasked	CS_B	1pleas	distractor1	EVAbeforeCON	acq_US_unple_masked	acq3_masked	3	28	453	0	300	300	0	0	303	50	0	0	0	0	0	1	blank2r.bmp	0	1	+	0	8	C4r.bmp	492	1	blank2r.bmp	786	1	GKQX	786	1	blank2r.bmp	866	6	strafen	866	1	FEHLER	1506	1	!	-1	1	!	-1	0	0	0	0	0	0	0	0	0	0	0	0	0	0	0	0	0	0	0	0	0	0	0	0
121118	13:54:10	14:04:18	607363	5.0.10.0	4_exp_EVA_AMP_AWA_CON	5	Rpleas_acq	Oppo	Rpleas	Bmasked	CS_B	1pleas	distractor1	EVAbeforeCON	acq_US_pleas_masked	acq3_masked	3	29	453	0	300	300	0	0	309	46	0	0	0	0	0	1	blank2r.bmp	0	1	+	0	5	C1r.bmp	492	1	blank2r.bmp	786	1	BMVZ	786	1	blank2r.bmp	866	1	treu	866	1	FEHLER	1519	1	!	-1	1	!	-1	0	0	0	0	0	0	0	0	0	0	0	0	0	0	0	0	0	0	0	0	0	0	0	0
121118	13:54:10	14:04:20	609429	5.0.10.0	4_exp_EVA_AMP_AWA_CON	5	Rpleas_acq	Oppo	Rpleas	Bmasked	CS_B	1pleas	distractor1	EVAbeforeCON	acq_US_unple_masked	acq3_masked	3	30	453	0	300	300	0	0	290	50	0	0	0	0	0	1	blank2r.bmp	0	1	+	0	4	B4r.bmp	492	1	blank2r.bmp	786	1	GKQX	786	1	blank2r.bmp	866	5	faul	866	1	FEHLER	1492	1	!	-1	1	!	-1	0	0	0	0	0	0	0	0	0	0	0	0	0	0	0	0	0	0	0	0	0	0	0	0
121118	13:54:10	14:04:23	612907	5.0.10.0	4_exp_EVA_AMP_AWA_CON	5	Rpleas_acq	Oppo	Rpleas	Bmasked	CS_B	1pleas	distractor1	EVAbeforeCON	acq_US_unple_masked	acq3_masked	3	31	453	0	300	300	0	0	1706	50	0	0	0	0	0	1	blank2r.bmp	0	1	+	0	3	B3r.bmp	492	1	blank2r.bmp	786	1	GKQX	786	1	blank2r.bmp	866	3	fanatisch	866	1	FEHLER	2918	1	!	1292	1	!	-1	0	0	0	0	0	0	0	0	0	0	0	0	0	0	0	0	0	0	0	0	0	0	0	0
121118	13:54:10	14:04:25	614800	5.0.10.0	4_exp_EVA_AMP_AWA_CON	5	Rpleas_acq	Oppo	Rpleas	Bmasked	CS_B	1pleas	distractor1	EVAbeforeCON	acq_US_pleas_masked	acq3_masked	3	32	453	0	300	300	0	0	102	46	0	0	0	0	0	1	blank2r.bmp	0	1	+	0	7	C3r.bmp	492	1	blank2r.bmp	786	1	BMVZ	786	1	blank2r.bmp	866	3	freundlich	866	1	FEHLER	1306	1	!	-1	1	!	-1	0	0	0	0	0	0	0	0	0	0	0	0	0	0	0	0	0	0	0	0	0	0	0	0
121118	13:54:10	14:04:27	616826	5.0.10.0	4_exp_EVA_AMP_AWA_CON	5	Rpleas_acq	Oppo	Rpleas	Bmasked	CS_B	1pleas	distractor1	EVAbeforeCON	acq_US_pleas_masked	acq3_masked	3	33	453	1	300	300	0	0	426	50	0	1	0	0	0	1	blank2r.bmp	0	1	+	0	8	C4r.bmp	492	1	blank2r.bmp	786	1	BMVZ	786	1	blank2r.bmp	866	4	tolerant	866	1	!	1292	1	!	1332	0	0	0	0	0	0	0	0	0	0	0	0	0	0	0	0	0	0	0	0	0	0	0	0	0	0	0
121118	13:54:10	14:04:29	618892	5.0.10.0	4_exp_EVA_AMP_AWA_CON	5	Rpleas_acq	Oppo	Rpleas	Bmasked	CS_B	1pleas	distractor1	EVAbeforeCON	acq_US_pleas_masked	acq3_masked	3	34	453	0	300	300	0	0	293	50	0	1	0	0	0	1	blank2r.bmp	0	1	+	0	5	C1r.bmp	492	1	blank2r.bmp	786	1	BMVZ	786	1	blank2r.bmp	866	6	spielen	866	1	!	-1	1	!	-1	0	0	0	0	0	0	0	0	0	0	0	0	0	0	0	0	0	0	0	0	0	0	0	0	0	0	0
121118	13:54:10	14:04:32	621224	5.0.10.0	4_exp_EVA_AMP_AWA_CON	5	Rpleas_acq	Oppo	Rpleas	Bmasked	CS_B	1pleas	distractor1	EVAbeforeCON	acq_US_unple_masked	acq3_masked	3	35	453	0	300	300	0	0	322	50	0	0	0	0	0	1	blank2r.bmp	0	1	+	0	4	B4r.bmp	492	1	blank2r.bmp	786	1	GKQX	786	1	blank2r.bmp	866	2	lasch	866	1	FEHLER	1532	1	!	-1	1	!	-1	0	0	0	0	0	0	0	0	0	0	0	0	0	0	0	0	0	0	0	0	0	0	0	0
121118	13:54:10	14:04:34	623343	5.0.10.0	4_exp_EVA_AMP_AWA_CON	5	Rpleas_acq	Oppo	Rpleas	Bmasked	CS_B	1pleas	distractor1	EVAbeforeCON	acq_US_unple_masked	acq3_masked	3	36	453	0	300	300	0	0	335	50	0	0	0	0	0	1	blank2r.bmp	0	1	+	0	3	B3r.bmp	492	1	blank2r.bmp	786	1	GKQX	786	1	blank2r.bmp	866	1	tot	866	1	FEHLER	1546	1	!	-1	1	!	-1	0	0	0	0	0	0	0	0	0	0	0	0	0	0	0	0	0	0	0	0	0	0	0	0
121118	13:54:10	14:04:45	634698	5.0.10.0	4_exp_EVA_AMP_AWA_CON	5	Rpleas_acq	Oppo	Rpleas	Bmasked	CS_B	1pleas	distractor1	EVAbeforeCON	acq_US_pleas_masked	acq45_masked	4	1	400	0	300	300	0	0	261	46	0	0	0	0	0	1	blank2r.bmp	0	1	+	0	1	B1r.bmp	492	1	blank2r.bmp	786	1	BMVZ	786	1	blank2r.bmp	866	1	treu	866	1	!	-1	1	!	-1	0	0	0	0	0	0	0	0	0	0	0	0	0	0	0	0	0	0	0	0	0	0	0	0	0	0	0
121118	13:54:10	14:04:47	636751	5.0.10.0	4_exp_EVA_AMP_AWA_CON	5	Rpleas_acq	Oppo	Rpleas	Bmasked	CS_B	1pleas	distractor1	EVAbeforeCON	acq_US_pleas_masked	acq45_masked	4	2	400	0	300	300	0	0	266	50	0	1	0	0	0	1	blank2r.bmp	0	1	+	0	2	B2r.bmp	492	1	blank2r.bmp	786	1	BMVZ	786	1	blank2r.bmp	866	4	tolerant	866	1	!	-1	1	!	-1	0	0	0	0	0	0	0	0	0	0	0	0	0	0	0	0	0	0	0	0	0	0	0	0	0	0	0
121118	13:54:10	14:04:49	638577	5.0.10.0	4_exp_EVA_AMP_AWA_CON	5	Rpleas_acq	Oppo	Rpleas	Bmasked	CS_B	1pleas	distractor1	EVAbeforeCON	acq_US_pleas_masked	acq45_masked	4	3	400	0	300	300	0	0	46	46	0	0	0	0	0	1	blank2r.bmp	0	1	+	0	7	C3r.bmp	492	1	blank2r.bmp	786	1	BMVZ	786	1	blank2r.bmp	866	5	fair	866	1	!	-1	1	!	-1	0	0	0	0	0	0	0	0	0	0	0	0	0	0	0	0	0	0	0	0	0	0	0	0	0	0	0
121118	13:54:10	14:04:51	640509	5.0.10.0	4_exp_EVA_AMP_AWA_CON	5	Rpleas_acq	Oppo	Rpleas	Bmasked	CS_B	1pleas	distractor1	EVAbeforeCON	acq_US_unple_masked	acq45_masked	4	4	400	0	300	300	0	0	154	50	0	0	0	0	0	1	blank2r.bmp	0	1	+	0	6	C2r.bmp	492	1	blank2r.bmp	786	1	GKQX	786	1	blank2r.bmp	866	6	strafen	866	1	!	-1	1	!	-1	0	0	0	0	0	0	0	0	0	0	0	0	0	0	0	0	0	0	0	0	0	0	0	0	0	0	0
121118	13:54:10	14:04:53	642922	5.0.10.0	4_exp_EVA_AMP_AWA_CON	5	Rpleas_acq	Oppo	Rpleas	Bmasked	CS_B	1pleas	distractor1	EVAbeforeCON	acq_US_unple_masked	acq45_masked	4	5	400	0	300	300	0	0	625	46	0	1	0	0	0	1	blank2r.bmp	0	1	+	0	7	C3r.bmp	492	1	blank2r.bmp	786	1	GKQX	786	1	blank2r.bmp	866	1	tot	866	1	!	1239	1	!	-1	0	0	0	0	0	0	0	0	0	0	0	0	0	0	0	0	0	0	0	0	0	0	0	0	0	0	0
121118	13:54:10	14:04:56	645334	5.0.10.0	4_exp_EVA_AMP_AWA_CON	5	Rpleas_acq	Oppo	Rpleas	Bmasked	CS_B	1pleas	distractor1	EVAbeforeCON	acq_US_pleas_masked	acq45_masked	4	6	400	0	300	300	0	0	626	50	0	1	0	0	0	1	blank2r.bmp	0	1	+	0	5	C1r.bmp	492	1	blank2r.bmp	786	1	BMVZ	786	1	blank2r.bmp	866	6	spielen	866	1	!	1239	1	!	-1	0	0	0	0	0	0	0	0	0	0	0	0	0	0	0	0	0	0	0	0	0	0	0	0	0	0	0
121118	13:54:10	14:04:58	647613	5.0.10.0	4_exp_EVA_AMP_AWA_CON	5	Rpleas_acq	Oppo	Rpleas	Bmasked	CS_B	1pleas	distractor1	EVAbeforeCON	acq_US_pleas_masked	acq45_masked	4	7	400	0	300	300	0	0	479	46	0	0	0	0	0	1	blank2r.bmp	0	1	+	0	2	B2r.bmp	492	1	blank2r.bmp	786	1	BMVZ	786	1	blank2r.bmp	866	3	freundlich	866	1	!	1239	1	!	-1	0	0	0	0	0	0	0	0	0	0	0	0	0	0	0	0	0	0	0	0	0	0	0	0	0	0	0
121118	13:54:10	14:05:00	649946	5.0.10.0	4_exp_EVA_AMP_AWA_CON	5	Rpleas_acq	Oppo	Rpleas	Bmasked	CS_B	1pleas	distractor1	EVAbeforeCON	acq_US_pleas_masked	acq45_masked	4	8	400	0	300	300	0	0	533	50	0	1	0	0	0	1	blank2r.bmp	0	1	+	0	8	C4r.bmp	492	1	blank2r.bmp	786	1	BMVZ	786	1	blank2r.bmp	866	2	loyal	866	1	!	1239	1	!	-1	0	0	0	0	0	0	0	0	0	0	0	0	0	0	0	0	0	0	0	0	0	0	0	0	0	0	0
121118	13:54:10	14:05:02	651998	5.0.10.0	4_exp_EVA_AMP_AWA_CON	5	Rpleas_acq	Oppo	Rpleas	Bmasked	CS_B	1pleas	distractor1	EVAbeforeCON	acq_US_unple_masked	acq45_masked	4	9	400	0	300	300	0	0	271	46	0	1	0	0	0	1	blank2r.bmp	0	1	+	0	3	B3r.bmp	492	1	blank2r.bmp	786	1	GKQX	786	1	blank2r.bmp	866	4	tyrannisch	866	1	!	-1	1	!	-1	0	0	0	0	0	0	0	0	0	0	0	0	0	0	0	0	0	0	0	0	0	0	0	0	0	0	0
121118	13:54:10	14:05:04	653944	5.0.10.0	4_exp_EVA_AMP_AWA_CON	5	Rpleas_acq	Oppo	Rpleas	Bmasked	CS_B	1pleas	distractor1	EVAbeforeCON	acq_US_unple_masked	acq45_masked	4	10	400	0	300	300	0	0	160	50	0	0	0	0	0	1	blank2r.bmp	0	1	+	0	6	C2r.bmp	492	1	blank2r.bmp	786	1	GKQX	786	1	blank2r.bmp	866	2	lasch	866	1	!	-1	1	!	-1	0	0	0	0	0	0	0	0	0	0	0	0	0	0	0	0	0	0	0	0	0	0	0	0	0	0	0
121118	13:54:10	14:05:06	655943	5.0.10.0	4_exp_EVA_AMP_AWA_CON	5	Rpleas_acq	Oppo	Rpleas	Bmasked	CS_B	1pleas	distractor1	EVAbeforeCON	acq_US_pleas_masked	acq45_masked	4	11	400	0	300	300	0	0	221	46	0	0	0	0	0	1	blank2r.bmp	0	1	+	0	1	B1r.bmp	492	1	blank2r.bmp	786	1	BMVZ	786	1	blank2r.bmp	866	6	spielen	866	1	!	-1	1	!	-1	0	0	0	0	0	0	0	0	0	0	0	0	0	0	0	0	0	0	0	0	0	0	0	0	0	0	0
121118	13:54:10	14:05:08	657969	5.0.10.0	4_exp_EVA_AMP_AWA_CON	5	Rpleas_acq	Oppo	Rpleas	Bmasked	CS_B	1pleas	distractor1	EVAbeforeCON	acq_US_unple_masked	acq45_masked	4	12	400	0	300	300	0	0	229	50	0	0	0	0	0	1	blank2r.bmp	0	1	+	0	4	B4r.bmp	492	1	blank2r.bmp	786	1	GKQX	786	1	blank2r.bmp	866	3	fanatisch	866	1	!	-1	1	!	-1	0	0	0	0	0	0	0	0	0	0	0	0	0	0	0	0	0	0	0	0	0	0	0	0	0	0	0
121118	13:54:10	14:05:10	659915	5.0.10.0	4_exp_EVA_AMP_AWA_CON	5	Rpleas_acq	Oppo	Rpleas	Bmasked	CS_B	1pleas	distractor1	EVAbeforeCON	acq_US_unple_masked	acq45_masked	4	13	400	0	300	300	0	0	162	46	0	1	0	0	0	1	blank2r.bmp	0	1	+	0	1	B1r.bmp	492	1	blank2r.bmp	786	1	GKQX	786	1	blank2r.bmp	866	5	faul	866	1	!	-1	1	!	-1	0	0	0	0	0	0	0	0	0	0	0	0	0	0	0	0	0	0	0	0	0	0	0	0	0	0	0
121118	13:54:10	14:05:12	661887	5.0.10.0	4_exp_EVA_AMP_AWA_CON	5	Rpleas_acq	Oppo	Rpleas	Bmasked	CS_B	1pleas	distractor1	EVAbeforeCON	acq_US_pleas_masked	acq45_masked	4	14	400	0	300	300	0	0	185	50	0	1	0	0	0	1	blank2r.bmp	0	1	+	0	4	B4r.bmp	492	1	blank2r.bmp	786	1	BMVZ	786	1	blank2r.bmp	866	2	loyal	866	1	!	-1	1	!	-1	0	0	0	0	0	0	0	0	0	0	0	0	0	0	0	0	0	0	0	0	0	0	0	0	0	0	0
121118	13:54:10	14:05:14	663873	5.0.10.0	4_exp_EVA_AMP_AWA_CON	5	Rpleas_acq	Oppo	Rpleas	Bmasked	CS_B	1pleas	distractor1	EVAbeforeCON	acq_US_unple_masked	acq45_masked	4	15	400	0	300	300	0	0	195	46	0	1	0	0	0	1	blank2r.bmp	0	1	+	0	8	C4r.bmp	492	1	blank2r.bmp	786	1	GKQX	786	1	blank2r.bmp	866	6	strafen	866	1	!	-1	1	!	-1	0	0	0	0	0	0	0	0	0	0	0	0	0	0	0	0	0	0	0	0	0	0	0	0	0	0	0
121118	13:54:10	14:05:16	665859	5.0.10.0	4_exp_EVA_AMP_AWA_CON	5	Rpleas_acq	Oppo	Rpleas	Bmasked	CS_B	1pleas	distractor1	EVAbeforeCON	acq_US_unple_masked	acq45_masked	4	16	400	0	300	300	0	0	201	50	0	0	0	0	0	1	blank2r.bmp	0	1	+	0	2	B2r.bmp	492	1	blank2r.bmp	786	1	GKQX	786	1	blank2r.bmp	866	2	lasch	866	1	!	-1	1	!	-1	0	0	0	0	0	0	0	0	0	0	0	0	0	0	0	0	0	0	0	0	0	0	0	0	0	0	0
121118	13:54:10	14:05:18	667832	5.0.10.0	4_exp_EVA_AMP_AWA_CON	5	Rpleas_acq	Oppo	Rpleas	Bmasked	CS_B	1pleas	distractor1	EVAbeforeCON	acq_US_pleas_masked	acq45_masked	4	17	400	0	300	300	0	0	188	46	0	0	0	0	0	1	blank2r.bmp	0	1	+	0	7	C3r.bmp	492	1	blank2r.bmp	786	1	BMVZ	786	1	blank2r.bmp	866	4	tolerant	866	1	!	-1	1	!	-1	0	0	0	0	0	0	0	0	0	0	0	0	0	0	0	0	0	0	0	0	0	0	0	0	0	0	0
121118	13:54:10	14:05:22	671203	5.0.10.0	4_exp_EVA_AMP_AWA_CON	5	Rpleas_acq	Oppo	Rpleas	Bmasked	CS_B	1pleas	distractor1	EVAbeforeCON	acq_US_unple_masked	acq45_masked	4	18	400	0	300	300	0	0	1578	50	0	0	0	0	0	1	blank2r.bmp	0	1	+	0	6	C2r.bmp	492	1	blank2r.bmp	786	1	GKQX	786	1	blank2r.bmp	866	5	faul	866	1	!	1239	1	!	-1	0	0	0	0	0	0	0	0	0	0	0	0	0	0	0	0	0	0	0	0	0	0	0	0	0	0	0
121118	13:54:10	14:05:26	675762	5.0.10.0	4_exp_EVA_AMP_AWA_CON	5	Rpleas_acq	Oppo	Rpleas	Bmasked	CS_B	1pleas	distractor1	EVAbeforeCON	acq_US_unple_masked	acq45_masked	4	19	400	0	300	300	0	0	2779	50	0	0	0	0	0	1	blank2r.bmp	0	1	+	0	3	B3r.bmp	492	1	blank2r.bmp	786	1	GKQX	786	1	blank2r.bmp	866	1	tot	866	1	!	1239	1	!	-1	0	0	0	0	0	0	0	0	0	0	0	0	0	0	0	0	0	0	0	0	0	0	0	0	0	0	0
121118	13:54:10	14:05:30	680027	5.0.10.0	4_exp_EVA_AMP_AWA_CON	5	Rpleas_acq	Oppo	Rpleas	Bmasked	CS_B	1pleas	distractor1	EVAbeforeCON	acq_US_unple_masked	acq45_masked	4	20	400	0	300	300	0	0	2490	50	0	0	0	0	0	1	blank2r.bmp	0	1	+	0	5	C1r.bmp	492	1	blank2r.bmp	786	1	GKQX	786	1	blank2r.bmp	866	4	tyrannisch	866	1	!	1239	1	!	-1	0	0	0	0	0	0	0	0	0	0	0	0	0	0	0	0	0	0	0	0	0	0	0	0	0	0	0
121118	13:54:10	14:05:35	684731	5.0.10.0	4_exp_EVA_AMP_AWA_CON	5	Rpleas_acq	Oppo	Rpleas	Bmasked	CS_B	1pleas	distractor1	EVAbeforeCON	acq_US_unple_masked	acq45_masked	4	21	400	0	300	300	0	0	2924	50	0	0	0	0	0	1	blank2r.bmp	0	1	+	0	6	C2r.bmp	492	1	blank2r.bmp	786	1	GKQX	786	1	blank2r.bmp	866	3	fanatisch	866	1	!	1239	1	!	-1	0	0	0	0	0	0	0	0	0	0	0	0	0	0	0	0	0	0	0	0	0	0	0	0	0	0	0
121118	13:54:10	14:05:37	686677	5.0.10.0	4_exp_EVA_AMP_AWA_CON	5	Rpleas_acq	Oppo	Rpleas	Bmasked	CS_B	1pleas	distractor1	EVAbeforeCON	acq_US_pleas_masked	acq45_masked	4	22	400	0	300	300	0	0	162	50	0	1	0	0	0	1	blank2r.bmp	0	1	+	0	2	B2r.bmp	492	1	blank2r.bmp	786	1	BMVZ	786	1	blank2r.bmp	866	1	treu	866	1	!	-1	1	!	-1	0	0	0	0	0	0	0	0	0	0	0	0	0	0	0	0	0	0	0	0	0	0	0	0	0	0	0
121118	13:54:10	14:05:41	690715	5.0.10.0	4_exp_EVA_AMP_AWA_CON	5	Rpleas_acq	Oppo	Rpleas	Bmasked	CS_B	1pleas	distractor1	EVAbeforeCON	acq_US_pleas_masked	acq45_masked	4	23	400	0	300	300	0	0	2251	50	0	1	0	0	0	1	blank2r.bmp	0	1	+	0	1	B1r.bmp	492	1	blank2r.bmp	786	1	BMVZ	786	1	blank2r.bmp	866	5	fair	866	1	!	1239	1	!	-1	0	0	0	0	0	0	0	0	0	0	0	0	0	0	0	0	0	0	0	0	0	0	0	0	0	0	0
121118	13:54:10	14:05:45	694714	5.0.10.0	4_exp_EVA_AMP_AWA_CON	5	Rpleas_acq	Oppo	Rpleas	Bmasked	CS_B	1pleas	distractor1	EVAbeforeCON	acq_US_pleas_masked	acq45_masked	4	24	400	0	300	300	0	0	2200	50	0	1	0	0	0	1	blank2r.bmp	0	1	+	0	4	B4r.bmp	492	1	blank2r.bmp	786	1	BMVZ	786	1	blank2r.bmp	866	3	freundlich	866	1	!	1239	1	!	-1	0	0	0	0	0	0	0	0	0	0	0	0	0	0	0	0	0	0	0	0	0	0	0	0	0	0	0
121118	13:54:10	14:05:49	698539	5.0.10.0	4_exp_EVA_AMP_AWA_CON	5	Rpleas_acq	Oppo	Rpleas	Bmasked	CS_B	1pleas	distractor1	EVAbeforeCON	acq_US_unple_masked	acq45_masked	4	25	400	0	300	300	0	0	2049	50	0	0	0	0	0	1	blank2r.bmp	0	1	+	0	5	C1r.bmp	492	1	blank2r.bmp	786	1	GKQX	786	1	blank2r.bmp	866	6	strafen	866	1	!	1239	1	!	-1	0	0	0	0	0	0	0	0	0	0	0	0	0	0	0	0	0	0	0	0	0	0	0	0	0	0	0
121118	13:54:10	14:05:54	703324	5.0.10.0	4_exp_EVA_AMP_AWA_CON	5	Rpleas_acq	Oppo	Rpleas	Bmasked	CS_B	1pleas	distractor1	EVAbeforeCON	acq_US_unple_masked	acq45_masked	4	26	400	0	300	300	0	0	3005	50	0	0	0	0	0	1	blank2r.bmp	0	1	+	0	3	B3r.bmp	492	1	blank2r.bmp	786	1	GKQX	786	1	blank2r.bmp	866	3	fanatisch	866	1	!	1239	1	!	-1	0	0	0	0	0	0	0	0	0	0	0	0	0	0	0	0	0	0	0	0	0	0	0	0	0	0	0
121118	13:54:10	14:05:59	709135	5.0.10.0	4_exp_EVA_AMP_AWA_CON	5	Rpleas_acq	Oppo	Rpleas	Bmasked	CS_B	1pleas	distractor1	EVAbeforeCON	acq_US_unple_masked	acq45_masked	4	27	400	0	300	300	0	0	4033	50	0	0	0	0	0	1	blank2r.bmp	0	1	+	0	7	C3r.bmp	492	1	blank2r.bmp	786	1	GKQX	786	1	blank2r.bmp	866	5	faul	866	1	!	1239	1	!	-1	0	0	0	0	0	0	0	0	0	0	0	0	0	0	0	0	0	0	0	0	0	0	0	0	0	0	0
121118	13:54:10	14:06:04	713333	5.0.10.0	4_exp_EVA_AMP_AWA_CON	5	Rpleas_acq	Oppo	Rpleas	Bmasked	CS_B	1pleas	distractor1	EVAbeforeCON	acq_US_pleas_masked	acq45_masked	4	28	400	0	300	300	0	0	2422	50	0	1	0	0	0	1	blank2r.bmp	0	1	+	0	8	C4r.bmp	492	1	blank2r.bmp	786	1	BMVZ	786	1	blank2r.bmp	866	2	loyal	866	1	!	1239	1	!	-1	0	0	0	0	0	0	0	0	0	0	0	0	0	0	0	0	0	0	0	0	0	0	0	0	0	0	0
121118	13:54:10	14:06:06	715532	5.0.10.0	4_exp_EVA_AMP_AWA_CON	5	Rpleas_acq	Oppo	Rpleas	Bmasked	CS_B	1pleas	distractor1	EVAbeforeCON	acq_US_pleas_masked	acq45_masked	4	29	400	1	300	300	0	0	394	50	0	1	0	0	0	1	blank2r.bmp	0	1	+	0	4	B4r.bmp	492	1	blank2r.bmp	786	1	BMVZ	786	1	blank2r.bmp	866	3	freundlich	866	1	!	1239	1	!	1292	0	0	0	0	0	0	0	0	0	0	0	0	0	0	0	0	0	0	0	0	0	0	0	0	0	0	0
121118	13:54:10	14:06:08	717798	5.0.10.0	4_exp_EVA_AMP_AWA_CON	5	Rpleas_acq	Oppo	Rpleas	Bmasked	CS_B	1pleas	distractor1	EVAbeforeCON	acq_US_unple_masked	acq45_masked	4	30	400	0	300	300	0	0	479	50	0	0	0	0	0	1	blank2r.bmp	0	1	+	0	5	C1r.bmp	492	1	blank2r.bmp	786	1	GKQX	786	1	blank2r.bmp	866	1	tot	866	1	!	1239	1	!	-1	0	0	0	0	0	0	0	0	0	0	0	0	0	0	0	0	0	0	0	0	0	0	0	0	0	0	0
121118	13:54:10	14:06:12	722089	5.0.10.0	4_exp_EVA_AMP_AWA_CON	5	Rpleas_acq	Oppo	Rpleas	Bmasked	CS_B	1pleas	distractor1	EVAbeforeCON	acq_US_pleas_masked	acq45_masked	4	31	400	0	300	300	0	0	2496	50	0	1	0	0	0	1	blank2r.bmp	0	1	+	0	6	C2r.bmp	492	1	blank2r.bmp	786	1	BMVZ	786	1	blank2r.bmp	866	6	spielen	866	1	!	1239	1	!	-1	0	0	0	0	0	0	0	0	0	0	0	0	0	0	0	0	0	0	0	0	0	0	0	0	0	0	0
121118	13:54:10	14:06:17	726727	5.0.10.0	4_exp_EVA_AMP_AWA_CON	5	Rpleas_acq	Oppo	Rpleas	Bmasked	CS_B	1pleas	distractor1	EVAbeforeCON	acq_US_unple_masked	acq45_masked	4	32	400	0	300	300	0	0	2854	50	0	0	0	0	0	1	blank2r.bmp	0	1	+	0	7	C3r.bmp	492	1	blank2r.bmp	786	1	GKQX	786	1	blank2r.bmp	866	2	lasch	866	1	!	1239	1	!	-1	0	0	0	0	0	0	0	0	0	0	0	0	0	0	0	0	0	0	0	0	0	0	0	0	0	0	0
121118	13:54:10	14:06:21	730779	5.0.10.0	4_exp_EVA_AMP_AWA_CON	5	Rpleas_acq	Oppo	Rpleas	Bmasked	CS_B	1pleas	distractor1	EVAbeforeCON	acq_US_unple_masked	acq45_masked	4	33	400	0	300	300	0	0	2274	50	0	0	0	0	0	1	blank2r.bmp	0	1	+	0	1	B1r.bmp	492	1	blank2r.bmp	786	1	GKQX	786	1	blank2r.bmp	866	4	tyrannisch	866	1	!	1239	1	!	-1	0	0	0	0	0	0	0	0	0	0	0	0	0	0	0	0	0	0	0	0	0	0	0	0	0	0	0
121118	13:54:10	14:06:27	736883	5.0.10.0	4_exp_EVA_AMP_AWA_CON	5	Rpleas_acq	Oppo	Rpleas	Bmasked	CS_B	1pleas	distractor1	EVAbeforeCON	acq_US_pleas_masked	acq45_masked	4	34	400	0	300	300	0	0	4317	50	0	1	0	0	0	1	blank2r.bmp	0	1	+	0	8	C4r.bmp	492	1	blank2r.bmp	786	1	BMVZ	786	1	blank2r.bmp	866	4	tolerant	866	1	!	1239	1	!	-1	0	0	0	0	0	0	0	0	0	0	0	0	0	0	0	0	0	0	0	0	0	0	0	0	0	0	0
121118	13:54:10	14:06:29	738856	5.0.10.0	4_exp_EVA_AMP_AWA_CON	5	Rpleas_acq	Oppo	Rpleas	Bmasked	CS_B	1pleas	distractor1	EVAbeforeCON	acq_US_pleas_masked	acq45_masked	4	35	400	0	300	300	0	0	193	50	0	1	0	0	0	1	blank2r.bmp	0	1	+	0	3	B3r.bmp	492	1	blank2r.bmp	786	1	BMVZ	786	1	blank2r.bmp	866	1	treu	866	1	!	-1	1	!	-1	0	0	0	0	0	0	0	0	0	0	0	0	0	0	0	0	0	0	0	0	0	0	0	0	0	0	0
121118	13:54:10	14:06:36	745253	5.0.10.0	4_exp_EVA_AMP_AWA_CON	5	Rpleas_acq	Oppo	Rpleas	Bmasked	CS_B	1pleas	distractor1	EVAbeforeCON	acq_US_pleas_masked	acq45_masked	4	36	400	0	300	300	0	0	4603	50	0	1	0	0	0	1	blank2r.bmp	0	1	+	0	2	B2r.bmp	492	1	blank2r.bmp	786	1	BMVZ	786	1	blank2r.bmp	866	5	fair	866	1	!	1239	1	!	-1	0	0	0	0	0	0	0	0	0	0	0	0	0	0	0	0	0	0	0	0	0	0	0	0	0	0	0
121118	13:54:10	14:06:51	761007	5.0.10.0	4_exp_EVA_AMP_AWA_CON	5	Rpleas_acq	Oppo	Rpleas	Bmasked	CS_B	1pleas	distractor1	EVAbeforeCON	acq_US_unple_masked	acq45_masked	5	1	400	1	300	300	0	0	353	50	0	0	0	0	0	1	blank2r.bmp	0	1	+	0	2	B2r.bmp	492	1	blank2r.bmp	786	1	GKQX	786	1	blank2r.bmp	866	6	strafen	866	1	!	1239	1	!	1252	0	0	0	0	0	0	0	0	0	0	0	0	0	0	0	0	0	0	0	0	0	0	0	0	0	0	0
121118	13:54:10	14:06:54	763179	5.0.10.0	4_exp_EVA_AMP_AWA_CON	5	Rpleas_acq	Oppo	Rpleas	Bmasked	CS_B	1pleas	distractor1	EVAbeforeCON	acq_US_pleas_masked	acq45_masked	5	2	400	1	300	300	0	0	361	46	0	0	0	0	0	1	blank2r.bmp	0	1	+	0	8	C4r.bmp	492	1	blank2r.bmp	786	1	BMVZ	786	1	blank2r.bmp	866	3	freundlich	866	1	!	1239	1	!	1266	0	0	0	0	0	0	0	0	0	0	0	0	0	0	0	0	0	0	0	0	0	0	0	0	0	0	0
121118	13:54:10	14:06:55	765165	5.0.10.0	4_exp_EVA_AMP_AWA_CON	5	Rpleas_acq	Oppo	Rpleas	Bmasked	CS_B	1pleas	distractor1	EVAbeforeCON	acq_US_pleas_masked	acq45_masked	5	3	400	0	300	300	0	0	217	50	0	1	0	0	0	1	blank2r.bmp	0	1	+	0	4	B4r.bmp	492	1	blank2r.bmp	786	1	BMVZ	786	1	blank2r.bmp	866	2	loyal	866	1	!	-1	1	!	-1	0	0	0	0	0	0	0	0	0	0	0	0	0	0	0	0	0	0	0	0	0	0	0	0	0	0	0
121118	13:54:10	14:06:57	767097	5.0.10.0	4_exp_EVA_AMP_AWA_CON	5	Rpleas_acq	Oppo	Rpleas	Bmasked	CS_B	1pleas	distractor1	EVAbeforeCON	acq_US_unple_masked	acq45_masked	5	4	400	0	300	300	0	0	148	46	0	1	0	0	0	1	blank2r.bmp	0	1	+	0	6	C2r.bmp	492	1	blank2r.bmp	786	1	GKQX	786	1	blank2r.bmp	866	2	lasch	866	1	!	-1	1	!	-1	0	0	0	0	0	0	0	0	0	0	0	0	0	0	0	0	0	0	0	0	0	0	0	0	0	0	0
121118	13:54:10	14:06:59	769163	5.0.10.0	4_exp_EVA_AMP_AWA_CON	5	Rpleas_acq	Oppo	Rpleas	Bmasked	CS_B	1pleas	distractor1	EVAbeforeCON	acq_US_unple_masked	acq45_masked	5	5	400	0	300	300	0	0	284	46	0	1	0	0	0	1	blank2r.bmp	0	1	+	0	3	B3r.bmp	492	1	blank2r.bmp	786	1	GKQX	786	1	blank2r.bmp	866	3	fanatisch	866	1	!	-1	1	!	-1	0	0	0	0	0	0	0	0	0	0	0	0	0	0	0	0	0	0	0	0	0	0	0	0	0	0	0
121118	13:54:10	14:07:02	771349	5.0.10.0	4_exp_EVA_AMP_AWA_CON	5	Rpleas_acq	Oppo	Rpleas	Bmasked	CS_B	1pleas	distractor1	EVAbeforeCON	acq_US_unple_masked	acq45_masked	5	6	400	1	300	300	0	0	384	46	0	1	0	0	0	1	blank2r.bmp	0	1	+	0	5	C1r.bmp	492	1	blank2r.bmp	786	1	GKQX	786	1	blank2r.bmp	866	5	faul	866	1	!	1239	1	!	1279	0	0	0	0	0	0	0	0	0	0	0	0	0	0	0	0	0	0	0	0	0	0	0	0	0	0	0
121118	13:54:10	14:07:04	773415	5.0.10.0	4_exp_EVA_AMP_AWA_CON	5	Rpleas_acq	Oppo	Rpleas	Bmasked	CS_B	1pleas	distractor1	EVAbeforeCON	acq_US_pleas_masked	acq45_masked	5	7	400	0	300	300	0	0	287	46	0	0	0	0	0	1	blank2r.bmp	0	1	+	0	1	B1r.bmp	492	1	blank2r.bmp	786	1	BMVZ	786	1	blank2r.bmp	866	1	treu	866	1	!	-1	1	!	-1	0	0	0	0	0	0	0	0	0	0	0	0	0	0	0	0	0	0	0	0	0	0	0	0	0	0	0
121118	13:54:10	14:07:06	775574	5.0.10.0	4_exp_EVA_AMP_AWA_CON	5	Rpleas_acq	Oppo	Rpleas	Bmasked	CS_B	1pleas	distractor1	EVAbeforeCON	acq_US_pleas_masked	acq45_masked	5	8	400	1	300	300	0	0	346	46	0	0	0	0	0	1	blank2r.bmp	0	1	+	0	7	C3r.bmp	492	1	blank2r.bmp	786	1	BMVZ	786	1	blank2r.bmp	866	6	spielen	866	1	!	1239	1	!	1252	0	0	0	0	0	0	0	0	0	0	0	0	0	0	0	0	0	0	0	0	0	0	0	0	0	0	0
121118	13:54:10	14:07:08	777506	5.0.10.0	4_exp_EVA_AMP_AWA_CON	5	Rpleas_acq	Oppo	Rpleas	Bmasked	CS_B	1pleas	distractor1	EVAbeforeCON	acq_US_pleas_masked	acq45_masked	5	9	400	0	300	300	0	0	171	50	0	1	0	0	0	1	blank2r.bmp	0	1	+	0	5	C1r.bmp	492	1	blank2r.bmp	786	1	BMVZ	786	1	blank2r.bmp	866	4	tolerant	866	1	!	-1	1	!	-1	0	0	0	0	0	0	0	0	0	0	0	0	0	0	0	0	0	0	0	0	0	0	0	0	0	0	0
121118	13:54:10	14:07:10	779559	5.0.10.0	4_exp_EVA_AMP_AWA_CON	5	Rpleas_acq	Oppo	Rpleas	Bmasked	CS_B	1pleas	distractor1	EVAbeforeCON	acq_US_unple_masked	acq45_masked	5	10	400	0	300	300	0	0	276	50	0	0	0	0	0	1	blank2r.bmp	0	1	+	0	4	B4r.bmp	492	1	blank2r.bmp	786	1	GKQX	786	1	blank2r.bmp	866	1	tot	866	1	!	-1	1	!	-1	0	0	0	0	0	0	0	0	0	0	0	0	0	0	0	0	0	0	0	0	0	0	0	0	0	0	0
121118	13:54:10	14:07:12	781478	5.0.10.0	4_exp_EVA_AMP_AWA_CON	5	Rpleas_acq	Oppo	Rpleas	Bmasked	CS_B	1pleas	distractor1	EVAbeforeCON	acq_US_pleas_masked	acq45_masked	5	11	400	0	300	300	0	0	141	46	0	0	0	0	0	1	blank2r.bmp	0	1	+	0	8	C4r.bmp	492	1	blank2r.bmp	786	1	BMVZ	786	1	blank2r.bmp	866	5	fair	866	1	!	-1	1	!	-1	0	0	0	0	0	0	0	0	0	0	0	0	0	0	0	0	0	0	0	0	0	0	0	0	0	0	0
121118	13:54:10	14:07:15	784890	5.0.10.0	4_exp_EVA_AMP_AWA_CON	5	Rpleas_acq	Oppo	Rpleas	Bmasked	CS_B	1pleas	distractor1	EVAbeforeCON	acq_US_unple_masked	acq45_masked	5	12	400	0	300	300	0	0	1626	46	0	1	0	0	0	1	blank2r.bmp	0	1	+	0	6	C2r.bmp	492	1	blank2r.bmp	786	1	GKQX	786	1	blank2r.bmp	866	4	tyrannisch	866	1	!	1239	1	!	-1	0	0	0	0	0	0	0	0	0	0	0	0	0	0	0	0	0	0	0	0	0	0	0	0	0	0	0
121118	13:54:10	14:07:17	786943	5.0.10.0	4_exp_EVA_AMP_AWA_CON	5	Rpleas_acq	Oppo	Rpleas	Bmasked	CS_B	1pleas	distractor1	EVAbeforeCON	acq_US_unple_masked	acq45_masked	5	13	400	0	300	300	0	0	276	50	0	0	0	0	0	1	blank2r.bmp	0	1	+	0	3	B3r.bmp	492	1	blank2r.bmp	786	1	GKQX	786	1	blank2r.bmp	866	4	tyrannisch	866	1	!	-1	1	!	-1	0	0	0	0	0	0	0	0	0	0	0	0	0	0	0	0	0	0	0	0	0	0	0	0	0	0	0
121118	13:54:10	14:07:19	788902	5.0.10.0	4_exp_EVA_AMP_AWA_CON	5	Rpleas_acq	Oppo	Rpleas	Bmasked	CS_B	1pleas	distractor1	EVAbeforeCON	acq_US_unple_masked	acq45_masked	5	14	400	0	300	300	0	0	178	46	0	1	0	0	0	1	blank2r.bmp	0	1	+	0	7	C3r.bmp	492	1	blank2r.bmp	786	1	GKQX	786	1	blank2r.bmp	866	3	fanatisch	866	1	!	-1	1	!	-1	0	0	0	0	0	0	0	0	0	0	0	0	0	0	0	0	0	0	0	0	0	0	0	0	0	0	0
121118	13:54:10	14:07:21	790901	5.0.10.0	4_exp_EVA_AMP_AWA_CON	5	Rpleas_acq	Oppo	Rpleas	Bmasked	CS_B	1pleas	distractor1	EVAbeforeCON	acq_US_pleas_masked	acq45_masked	5	15	400	0	300	300	0	0	201	50	0	1	0	0	0	1	blank2r.bmp	0	1	+	0	2	B2r.bmp	492	1	blank2r.bmp	786	1	BMVZ	786	1	blank2r.bmp	866	1	treu	866	1	!	-1	1	!	-1	0	0	0	0	0	0	0	0	0	0	0	0	0	0	0	0	0	0	0	0	0	0	0	0	0	0	0
121118	13:54:10	14:07:23	792900	5.0.10.0	4_exp_EVA_AMP_AWA_CON	5	Rpleas_acq	Oppo	Rpleas	Bmasked	CS_B	1pleas	distractor1	EVAbeforeCON	acq_US_unple_masked	acq45_masked	5	16	400	0	300	300	0	0	222	46	0	1	0	0	0	1	blank2r.bmp	0	1	+	0	1	B1r.bmp	492	1	blank2r.bmp	786	1	GKQX	786	1	blank2r.bmp	866	1	tot	866	1	!	-1	1	!	-1	0	0	0	0	0	0	0	0	0	0	0	0	0	0	0	0	0	0	0	0	0	0	0	0	0	0	0
121118	13:54:10	14:07:25	794953	5.0.10.0	4_exp_EVA_AMP_AWA_CON	5	Rpleas_acq	Oppo	Rpleas	Bmasked	CS_B	1pleas	distractor1	EVAbeforeCON	acq_US_pleas_masked	acq45_masked	5	17	400	0	300	300	0	0	266	50	0	1	0	0	0	1	blank2r.bmp	0	1	+	0	2	B2r.bmp	492	1	blank2r.bmp	786	1	BMVZ	786	1	blank2r.bmp	866	2	loyal	866	1	!	-1	1	!	-1	0	0	0	0	0	0	0	0	0	0	0	0	0	0	0	0	0	0	0	0	0	0	0	0	0	0	0
121118	13:54:10	14:07:27	796912	5.0.10.0	4_exp_EVA_AMP_AWA_CON	5	Rpleas_acq	Oppo	Rpleas	Bmasked	CS_B	1pleas	distractor1	EVAbeforeCON	acq_US_pleas_masked	acq45_masked	5	18	400	0	300	300	0	0	182	46	0	0	0	0	0	1	blank2r.bmp	0	1	+	0	1	B1r.bmp	492	1	blank2r.bmp	786	1	BMVZ	786	1	blank2r.bmp	866	4	tolerant	866	1	!	-1	1	!	-1	0	0	0	0	0	0	0	0	0	0	0	0	0	0	0	0	0	0	0	0	0	0	0	0	0	0	0
121118	13:54:10	14:07:29	798858	5.0.10.0	4_exp_EVA_AMP_AWA_CON	5	Rpleas_acq	Oppo	Rpleas	Bmasked	CS_B	1pleas	distractor1	EVAbeforeCON	acq_US_pleas_masked	acq45_masked	5	19	400	0	300	300	0	0	171	50	0	1	0	0	0	1	blank2r.bmp	0	1	+	0	5	C1r.bmp	492	1	blank2r.bmp	786	1	BMVZ	786	1	blank2r.bmp	866	3	freundlich	866	1	!	-1	1	!	-1	0	0	0	0	0	0	0	0	0	0	0	0	0	0	0	0	0	0	0	0	0	0	0	0	0	0	0
121118	13:54:10	14:07:31	800790	5.0.10.0	4_exp_EVA_AMP_AWA_CON	5	Rpleas_acq	Oppo	Rpleas	Bmasked	CS_B	1pleas	distractor1	EVAbeforeCON	acq_US_pleas_masked	acq45_masked	5	20	400	0	300	300	0	0	152	46	0	0	0	0	0	1	blank2r.bmp	0	1	+	0	3	B3r.bmp	492	1	blank2r.bmp	786	1	BMVZ	786	1	blank2r.bmp	866	6	spielen	866	1	!	-1	1	!	-1	0	0	0	0	0	0	0	0	0	0	0	0	0	0	0	0	0	0	0	0	0	0	0	0	0	0	0
121118	13:54:10	14:07:33	802749	5.0.10.0	4_exp_EVA_AMP_AWA_CON	5	Rpleas_acq	Oppo	Rpleas	Bmasked	CS_B	1pleas	distractor1	EVAbeforeCON	acq_US_pleas_masked	acq45_masked	5	21	400	0	300	300	0	0	180	50	0	1	0	0	0	1	blank2r.bmp	0	1	+	0	7	C3r.bmp	492	1	blank2r.bmp	786	1	BMVZ	786	1	blank2r.bmp	866	5	fair	866	1	!	-1	1	!	-1	0	0	0	0	0	0	0	0	0	0	0	0	0	0	0	0	0	0	0	0	0	0	0	0	0	0	0
121118	13:54:10	14:07:35	804669	5.0.10.0	4_exp_EVA_AMP_AWA_CON	5	Rpleas_acq	Oppo	Rpleas	Bmasked	CS_B	1pleas	distractor1	EVAbeforeCON	acq_US_pleas_masked	acq45_masked	5	22	400	0	300	300	0	0	137	46	0	0	0	0	0	1	blank2r.bmp	0	1	+	0	6	C2r.bmp	492	1	blank2r.bmp	786	1	BMVZ	786	1	blank2r.bmp	866	3	freundlich	866	1	!	-1	1	!	-1	0	0	0	0	0	0	0	0	0	0	0	0	0	0	0	0	0	0	0	0	0	0	0	0	0	0	0
121118	13:54:10	14:07:37	806601	5.0.10.0	4_exp_EVA_AMP_AWA_CON	5	Rpleas_acq	Oppo	Rpleas	Bmasked	CS_B	1pleas	distractor1	EVAbeforeCON	acq_US_unple_masked	acq45_masked	5	23	400	0	300	300	0	0	155	50	0	0	0	0	0	1	blank2r.bmp	0	1	+	0	4	B4r.bmp	492	1	blank2r.bmp	786	1	GKQX	786	1	blank2r.bmp	866	5	faul	866	1	!	-1	1	!	-1	0	0	0	0	0	0	0	0	0	0	0	0	0	0	0	0	0	0	0	0	0	0	0	0	0	0	0
121118	13:54:10	14:07:39	808574	5.0.10.0	4_exp_EVA_AMP_AWA_CON	5	Rpleas_acq	Oppo	Rpleas	Bmasked	CS_B	1pleas	distractor1	EVAbeforeCON	acq_US_unple_masked	acq45_masked	5	24	400	0	300	300	0	0	185	46	0	1	0	0	0	1	blank2r.bmp	0	1	+	0	8	C4r.bmp	492	1	blank2r.bmp	786	1	GKQX	786	1	blank2r.bmp	866	2	lasch	866	1	!	-1	1	!	-1	0	0	0	0	0	0	0	0	0	0	0	0	0	0	0	0	0	0	0	0	0	0	0	0	0	0	0
121118	13:54:10	14:07:41	810480	5.0.10.0	4_exp_EVA_AMP_AWA_CON	5	Rpleas_acq	Oppo	Rpleas	Bmasked	CS_B	1pleas	distractor1	EVAbeforeCON	acq_US_unple_masked	acq45_masked	5	25	400	0	300	300	0	0	114	50	0	0	0	0	0	1	blank2r.bmp	0	1	+	0	1	B1r.bmp	492	1	blank2r.bmp	786	1	GKQX	786	1	blank2r.bmp	866	6	strafen	866	1	!	-1	1	!	-1	0	0	0	0	0	0	0	0	0	0	0	0	0	0	0	0	0	0	0	0	0	0	0	0	0	0	0
121118	13:54:10	14:07:43	812385	5.0.10.0	4_exp_EVA_AMP_AWA_CON	5	Rpleas_acq	Oppo	Rpleas	Bmasked	CS_B	1pleas	distractor1	EVAbeforeCON	acq_US_unple_masked	acq45_masked	5	26	400	0	300	300	0	0	130	46	0	1	0	0	0	1	blank2r.bmp	0	1	+	0	8	C4r.bmp	492	1	blank2r.bmp	786	1	GKQX	786	1	blank2r.bmp	866	1	tot	866	1	!	-1	1	!	-1	0	0	0	0	0	0	0	0	0	0	0	0	0	0	0	0	0	0	0	0	0	0	0	0	0	0	0
121118	13:54:10	14:07:45	814278	5.0.10.0	4_exp_EVA_AMP_AWA_CON	5	Rpleas_acq	Oppo	Rpleas	Bmasked	CS_B	1pleas	distractor1	EVAbeforeCON	acq_US_unple_masked	acq45_masked	5	27	400	0	300	300	0	0	106	50	0	0	0	0	0	1	blank2r.bmp	0	1	+	0	7	C3r.bmp	492	1	blank2r.bmp	786	1	GKQX	786	1	blank2r.bmp	866	6	strafen	866	1	!	-1	1	!	-1	0	0	0	0	0	0	0	0	0	0	0	0	0	0	0	0	0	0	0	0	0	0	0	0	0	0	0
121118	13:54:10	14:07:46	816064	5.0.10.0	4_exp_EVA_AMP_AWA_CON	5	Rpleas_acq	Oppo	Rpleas	Bmasked	CS_B	1pleas	distractor1	EVAbeforeCON	acq_US_pleas_masked	acq45_masked	5	28	400	0	300	300	0	0	6	46	0	0	0	0	0	1	blank2r.bmp	0	1	+	0	3	B3r.bmp	492	1	blank2r.bmp	786	1	BMVZ	786	1	blank2r.bmp	866	1	treu	866	1	!	-1	1	!	-1	0	0	0	0	0	0	0	0	0	0	0	0	0	0	0	0	0	0	0	0	0	0	0	0	0	0	0
121118	13:54:10	14:07:48	817997	5.0.10.0	4_exp_EVA_AMP_AWA_CON	5	Rpleas_acq	Oppo	Rpleas	Bmasked	CS_B	1pleas	distractor1	EVAbeforeCON	acq_US_unple_masked	acq45_masked	5	29	400	0	300	300	0	0	154	50	0	0	0	0	0	1	blank2r.bmp	0	1	+	0	6	C2r.bmp	492	1	blank2r.bmp	786	1	GKQX	786	1	blank2r.bmp	866	5	faul	866	1	!	-1	1	!	-1	0	0	0	0	0	0	0	0	0	0	0	0	0	0	0	0	0	0	0	0	0	0	0	0	0	0	0
121118	13:54:10	14:07:50	819916	5.0.10.0	4_exp_EVA_AMP_AWA_CON	5	Rpleas_acq	Oppo	Rpleas	Bmasked	CS_B	1pleas	distractor1	EVAbeforeCON	acq_US_pleas_masked	acq45_masked	5	30	400	0	300	300	0	0	134	46	0	0	0	0	0	1	blank2r.bmp	0	1	+	0	4	B4r.bmp	492	1	blank2r.bmp	786	1	BMVZ	786	1	blank2r.bmp	866	5	fair	866	1	!	-1	1	!	-1	0	0	0	0	0	0	0	0	0	0	0	0	0	0	0	0	0	0	0	0	0	0	0	0	0	0	0
121118	13:54:10	14:07:52	821835	5.0.10.0	4_exp_EVA_AMP_AWA_CON	5	Rpleas_acq	Oppo	Rpleas	Bmasked	CS_B	1pleas	distractor1	EVAbeforeCON	acq_US_unple_masked	acq45_masked	5	31	400	0	300	300	0	0	135	50	0	0	0	0	0	1	blank2r.bmp	0	1	+	0	2	B2r.bmp	492	1	blank2r.bmp	786	1	GKQX	786	1	blank2r.bmp	866	3	fanatisch	866	1	!	-1	1	!	-1	0	0	0	0	0	0	0	0	0	0	0	0	0	0	0	0	0	0	0	0	0	0	0	0	0	0	0
121118	13:54:10	14:07:54	823728	5.0.10.0	4_exp_EVA_AMP_AWA_CON	5	Rpleas_acq	Oppo	Rpleas	Bmasked	CS_B	1pleas	distractor1	EVAbeforeCON	acq_US_unple_masked	acq45_masked	5	32	400	0	300	300	0	0	106	46	0	1	0	0	0	1	blank2r.bmp	0	1	+	0	5	C1r.bmp	492	1	blank2r.bmp	786	1	GKQX	786	1	blank2r.bmp	866	4	tyrannisch	866	1	!	-1	1	!	-1	0	0	0	0	0	0	0	0	0	0	0	0	0	0	0	0	0	0	0	0	0	0	0	0	0	0	0
121118	13:54:10	14:07:56	825647	5.0.10.0	4_exp_EVA_AMP_AWA_CON	5	Rpleas_acq	Oppo	Rpleas	Bmasked	CS_B	1pleas	distractor1	EVAbeforeCON	acq_US_unple_masked	acq45_masked	5	33	400	0	300	300	0	0	137	50	0	0	0	0	0	1	blank2r.bmp	0	1	+	0	6	C2r.bmp	492	1	blank2r.bmp	786	1	GKQX	786	1	blank2r.bmp	866	2	lasch	866	1	!	-1	1	!	-1	0	0	0	0	0	0	0	0	0	0	0	0	0	0	0	0	0	0	0	0	0	0	0	0	0	0	0
121118	13:54:10	14:07:58	827486	5.0.10.0	4_exp_EVA_AMP_AWA_CON	5	Rpleas_acq	Oppo	Rpleas	Bmasked	CS_B	1pleas	distractor1	EVAbeforeCON	acq_US_pleas_masked	acq45_masked	5	34	400	0	300	300	0	0	65	46	0	0	0	0	0	1	blank2r.bmp	0	1	+	0	8	C4r.bmp	492	1	blank2r.bmp	786	1	BMVZ	786	1	blank2r.bmp	866	2	loyal	866	1	!	-1	1	!	-1	0	0	0	0	0	0	0	0	0	0	0	0	0	0	0	0	0	0	0	0	0	0	0	0	0	0	0
121118	13:54:10	14:08:02	831324	5.0.10.0	4_exp_EVA_AMP_AWA_CON	5	Rpleas_acq	Oppo	Rpleas	Bmasked	CS_B	1pleas	distractor1	EVAbeforeCON	acq_US_pleas_masked	acq45_masked	5	35	400	0	300	300	0	0	2053	46	0	0	0	0	0	1	blank2r.bmp	0	1	+	0	1	B1r.bmp	492	1	blank2r.bmp	786	1	BMVZ	786	1	blank2r.bmp	866	6	spielen	866	1	!	1239	1	!	-1	0	0	0	0	0	0	0	0	0	0	0	0	0	0	0	0	0	0	0	0	0	0	0	0	0	0	0
121118	13:54:10	14:08:04	834070	5.0.10.0	4_exp_EVA_AMP_AWA_CON	5	Rpleas_acq	Oppo	Rpleas	Bmasked	CS_B	1pleas	distractor1	EVAbeforeCON	acq_US_pleas_masked	acq45_masked	5	36	400	0	300	300	0	0	965	50	0	1	0	0	0	1	blank2r.bmp	0	1	+	0	2	B2r.bmp	492	1	blank2r.bmp	786	1	BMVZ	786	1	blank2r.bmp	866	4	tolerant	866	1	!	1239	1	!	-1	0	0	0	0	0	0	0	0	0	0	0	0	0	0	0	0	0	0	0	0	0	0	0	0	0	0	0
121118	13:54:10	14:08:38	867496	5.0.10.0	4_exp_EVA_AMP_AWA_CON	5	Rpleas_acq	Oppo	Lpleas	Bmasked	CS_B	1pleas	distractor1	EVAbeforeCON	EvalRating_firsttwo	EvalRating_firsttwo	6	1	0	0	300	300	0	0	28290	line	-92,28515625	0	0	0	0	1	eraser	0	1	Wie angenehm oder unangenehm finden Sie die  Buchstabenkette WFPH?	0	1	leftborder	0	1	rightborder	0	1	line	0	1	Unangenehm	0	1	Angenehm	0	0	0	0	0	0	0	0	0	0	0	0	0	0	0	0	0	0	0	0	0	0	0	0	0	0	0	0	0	0	0	0	0	0
121118	13:54:10	14:08:44	874027	5.0.10.0	4_exp_EVA_AMP_AWA_CON	5	Rpleas_acq	Oppo	Lpleas	Bmasked	CS_B	1pleas	distractor1	EVAbeforeCON	EvalRating_lastfour	EvalRating_lastfour	7	1	0	0	300	300	0	0	4068	line	-87,158203125	0	0	0	0	1	eraser	1	2	Wie angenehm oder unangenehm finden Sie die  Buchstabenkette GKQX?	1	1	leftborder	1	1	rightborder	1	1	line	1	1	Unangenehm	1	1	Angenehm	1	0	0	0	0	0	0	0	0	0	0	0	0	0	0	0	0	0	0	0	0	0	0	0	0	0	0	0	0	0	0	0	0	0
121118	13:54:10	14:08:47	876413	5.0.10.0	4_exp_EVA_AMP_AWA_CON	5	Rpleas_acq	Oppo	Lpleas	Bmasked	CS_B	1pleas	distractor1	EVAbeforeCON	blank_screen	EvalRating_lastfour	7	3	0	0	300	300	0	0	0	0	-87,158203125	0	0	0	0	1	eraser	0	0	0	0	0	0	0	0	0	0	0	0	0	0	0	0	0	0	0	0	0	0	0	0	0	0	0	0	0	0	0	0	0	0	0	0	0	0	0	0	0	0	0	0	0	0	0	0	0	0	0	0
121118	13:54:10	14:08:49	878318	5.0.10.0	4_exp_EVA_AMP_AWA_CON	5	Rpleas_acq	Oppo	Lpleas	Bmasked	CS_B	1pleas	distractor1	EVAbeforeCON	EvalRating_lastfour	EvalRating_lastfour	7	4	0	0	300	300	0	0	1310	line	34,66796875	0	0	0	0	1	eraser	1	1	Wie angenehm oder unangenehm finden Sie die  Buchstabenkette BMVZ?	1	1	leftborder	1	1	rightborder	1	1	line	1	1	Unangenehm	1	1	Angenehm	1	0	0	0	0	0	0	0	0	0	0	0	0	0	0	0	0	0	0	0	0	0	0	0	0	0	0	0	0	0	0	0	0	0
121118	13:54:10	14:08:51	880704	5.0.10.0	4_exp_EVA_AMP_AWA_CON	5	Rpleas_acq	Oppo	Lpleas	Bmasked	CS_B	1pleas	distractor1	EVAbeforeCON	blank_screen	EvalRating_lastfour	7	6	0	0	300	300	0	0	0	0	34,66796875	0	0	0	0	1	eraser	0	0	0	0	0	0	0	0	0	0	0	0	0	0	0	0	0	0	0	0	0	0	0	0	0	0	0	0	0	0	0	0	0	0	0	0	0	0	0	0	0	0	0	0	0	0	0	0	0	0	0	0
121118	13:54:10	14:08:53	882463	5.0.10.0	4_exp_EVA_AMP_AWA_CON	5	Rpleas_acq	Oppo	Lpleas	Bmasked	CS_B	1pleas	distractor1	EVAbeforeCON	EvalRating_lastfour	EvalRating_lastfour	7	7	0	0	300	300	0	0	1166	line	-47,3632812499999928946	0	0	0	0	1	eraser	0	3	Wie angenehm oder unangenehm finden Sie die  Buchstabenkette JCRD?	0	1	leftborder	0	1	rightborder	0	1	line	0	1	Unangenehm	0	1	Angenehm	0	0	0	0	0	0	0	0	0	0	0	0	0	0	0	0	0	0	0	0	0	0	0	0	0	0	0	0	0	0	0	0	0	0
121118	13:54:10	14:09:42	931790	5.0.10.0	4_exp_EVA_AMP_AWA_CON	5	Rpleas_acq	Oppo	Lpleas	Bmasked	CS_B	1pleas	distractor1	EVAbeforeCON	AMP_CSunple	AMP1_masked	8	1	0	0	300	300	0	0	5367	46	-47,3632812499999928946	0	0	0	0	1	blank2r.bmp	0	1	GKQX	0	1	blank2r.bmp	79	117	pic117.bmp	199	1	whitenoise_No3.bmp	306	0	0	0	0	0	0	0	0	0	0	0	0	0	0	0	0	0	0	0	0	0	0	0	0	0	0	0	0	0	0	0	0	0	0	0	0	0	0	0
121118	13:54:10	14:09:44	934096	5.0.10.0	4_exp_EVA_AMP_AWA_CON	5	Rpleas_acq	Oppo	Lpleas	Bmasked	CS_B	1pleas	distractor1	EVAbeforeCON	AMP_distractor	AMP1_masked	8	2	0	0	300	300	0	0	1376	46	-47,3632812499999928946	0	0	0	0	1	blank2r.bmp	0	1	WFPH	0	1	blank2r.bmp	79	63	pic63.bmp	199	1	whitenoise_No3.bmp	306	0	0	0	0	0	0	0	0	0	0	0	0	0	0	0	0	0	0	0	0	0	0	0	0	0	0	0	0	0	0	0	0	0	0	0	0	0	0	0
121118	13:54:10	14:09:46	935375	5.0.10.0	4_exp_EVA_AMP_AWA_CON	5	Rpleas_acq	Oppo	Lpleas	Bmasked	CS_B	1pleas	distractor1	EVAbeforeCON	AMP_distractor	AMP1_masked	8	3	0	0	300	300	0	0	370	50	-47,3632812499999928946	0	0	0	0	1	blank2r.bmp	0	1	WFPH	0	1	blank2r.bmp	79	30	pic30.bmp	199	1	whitenoise_No3.bmp	306	0	0	0	0	0	0	0	0	0	0	0	0	0	0	0	0	0	0	0	0	0	0	0	0	0	0	0	0	0	0	0	0	0	0	0	0	0	0	0
121118	13:54:10	14:09:47	936881	5.0.10.0	4_exp_EVA_AMP_AWA_CON	5	Rpleas_acq	Oppo	Lpleas	Bmasked	CS_B	1pleas	distractor1	EVAbeforeCON	AMP_distractor	AMP1_masked	8	4	0	0	300	300	0	0	579	46	-47,3632812499999928946	0	0	0	0	1	blank2r.bmp	0	1	WFPH	0	1	blank2r.bmp	79	147	pic147.bmp	199	1	whitenoise_No3.bmp	306	0	0	0	0	0	0	0	0	0	0	0	0	0	0	0	0	0	0	0	0	0	0	0	0	0	0	0	0	0	0	0	0	0	0	0	0	0	0	0
121118	13:54:10	14:09:49	938520	5.0.10.0	4_exp_EVA_AMP_AWA_CON	5	Rpleas_acq	Oppo	Lpleas	Bmasked	CS_B	1pleas	distractor1	EVAbeforeCON	AMP_CSpleas	AMP1_masked	8	5	0	0	300	300	0	0	723	46	-47,3632812499999928946	1	0	0	0	1	blank2r.bmp	0	1	BMVZ	0	1	blank2r.bmp	79	76	pic76.bmp	199	1	whitenoise_No3.bmp	306	0	0	0	0	0	0	0	0	0	0	0	0	0	0	0	0	0	0	0	0	0	0	0	0	0	0	0	0	0	0	0	0	0	0	0	0	0	0	0
121118	13:54:10	14:09:50	939733	5.0.10.0	4_exp_EVA_AMP_AWA_CON	5	Rpleas_acq	Oppo	Lpleas	Bmasked	CS_B	1pleas	distractor1	EVAbeforeCON	AMP_CSpleas	AMP1_masked	8	6	0	0	300	300	0	0	297	50	-47,3632812499999928946	0	0	0	0	1	blank2r.bmp	0	1	BMVZ	0	1	blank2r.bmp	79	118	pic118.bmp	199	1	whitenoise_No3.bmp	306	0	0	0	0	0	0	0	0	0	0	0	0	0	0	0	0	0	0	0	0	0	0	0	0	0	0	0	0	0	0	0	0	0	0	0	0	0	0	0
121118	13:54:10	14:09:51	941066	5.0.10.0	4_exp_EVA_AMP_AWA_CON	5	Rpleas_acq	Oppo	Lpleas	Bmasked	CS_B	1pleas	distractor1	EVAbeforeCON	AMP_distractor	AMP1_masked	8	7	0	0	300	300	0	0	411	46	-47,3632812499999928946	0	0	0	0	1	blank2r.bmp	0	1	WFPH	0	1	blank2r.bmp	79	146	pic146.bmp	199	1	whitenoise_No3.bmp	306	0	0	0	0	0	0	0	0	0	0	0	0	0	0	0	0	0	0	0	0	0	0	0	0	0	0	0	0	0	0	0	0	0	0	0	0	0	0	0
121118	13:54:10	14:09:53	942372	5.0.10.0	4_exp_EVA_AMP_AWA_CON	5	Rpleas_acq	Oppo	Lpleas	Bmasked	CS_B	1pleas	distractor1	EVAbeforeCON	AMP_distractor	AMP1_masked	8	8	0	0	300	300	0	0	377	50	-47,3632812499999928946	0	0	0	0	1	blank2r.bmp	0	1	WFPH	0	1	blank2r.bmp	79	82	pic82.bmp	199	1	whitenoise_No3.bmp	306	0	0	0	0	0	0	0	0	0	0	0	0	0	0	0	0	0	0	0	0	0	0	0	0	0	0	0	0	0	0	0	0	0	0	0	0	0	0	0
121118	13:54:10	14:09:54	943625	5.0.10.0	4_exp_EVA_AMP_AWA_CON	5	Rpleas_acq	Oppo	Lpleas	Bmasked	CS_B	1pleas	distractor1	EVAbeforeCON	AMP_CSunple	AMP1_masked	8	9	0	0	300	300	0	0	343	46	-47,3632812499999928946	0	0	0	0	1	blank2r.bmp	0	1	GKQX	0	1	blank2r.bmp	79	27	pic27.bmp	199	1	whitenoise_No3.bmp	306	0	0	0	0	0	0	0	0	0	0	0	0	0	0	0	0	0	0	0	0	0	0	0	0	0	0	0	0	0	0	0	0	0	0	0	0	0	0	0
121118	13:54:10	14:09:55	944824	5.0.10.0	4_exp_EVA_AMP_AWA_CON	5	Rpleas_acq	Oppo	Lpleas	Bmasked	CS_B	1pleas	distractor1	EVAbeforeCON	AMP_CSpleas	AMP1_masked	8	10	0	0	300	300	0	0	268	50	-47,3632812499999928946	0	0	0	0	1	blank2r.bmp	0	1	BMVZ	0	1	blank2r.bmp	79	12	pic12.bmp	199	1	whitenoise_No3.bmp	306	0	0	0	0	0	0	0	0	0	0	0	0	0	0	0	0	0	0	0	0	0	0	0	0	0	0	0	0	0	0	0	0	0	0	0	0	0	0	0
121118	13:54:10	14:09:56	946051	5.0.10.0	4_exp_EVA_AMP_AWA_CON	5	Rpleas_acq	Oppo	Lpleas	Bmasked	CS_B	1pleas	distractor1	EVAbeforeCON	AMP_CSpleas	AMP1_masked	8	11	0	0	300	300	0	0	315	46	-47,3632812499999928946	1	0	0	0	1	blank2r.bmp	0	1	BMVZ	0	1	blank2r.bmp	79	33	pic33.bmp	199	1	whitenoise_No3.bmp	306	0	0	0	0	0	0	0	0	0	0	0	0	0	0	0	0	0	0	0	0	0	0	0	0	0	0	0	0	0	0	0	0	0	0	0	0	0	0	0
121118	13:54:10	14:09:58	947290	5.0.10.0	4_exp_EVA_AMP_AWA_CON	5	Rpleas_acq	Oppo	Lpleas	Bmasked	CS_B	1pleas	distractor1	EVAbeforeCON	AMP_distractor	AMP1_masked	8	12	0	0	300	300	0	0	314	50	-47,3632812499999928946	0	0	0	0	1	blank2r.bmp	0	1	WFPH	0	1	blank2r.bmp	79	99	pic99.bmp	199	1	whitenoise_No3.bmp	306	0	0	0	0	0	0	0	0	0	0	0	0	0	0	0	0	0	0	0	0	0	0	0	0	0	0	0	0	0	0	0	0	0	0	0	0	0	0	0
121118	13:54:10	14:09:59	948530	5.0.10.0	4_exp_EVA_AMP_AWA_CON	5	Rpleas_acq	Oppo	Lpleas	Bmasked	CS_B	1pleas	distractor1	EVAbeforeCON	AMP_CSpleas	AMP1_masked	8	13	0	0	300	300	0	0	330	46	-47,3632812499999928946	1	0	0	0	1	blank2r.bmp	0	1	BMVZ	0	1	blank2r.bmp	79	42	pic42.bmp	199	1	whitenoise_No3.bmp	306	0	0	0	0	0	0	0	0	0	0	0	0	0	0	0	0	0	0	0	0	0	0	0	0	0	0	0	0	0	0	0	0	0	0	0	0	0	0	0
121118	13:54:10	14:10:00	949769	5.0.10.0	4_exp_EVA_AMP_AWA_CON	5	Rpleas_acq	Oppo	Lpleas	Bmasked	CS_B	1pleas	distractor1	EVAbeforeCON	AMP_CSpleas	AMP1_masked	8	14	0	0	300	300	0	0	306	50	-47,3632812499999928946	0	0	0	0	1	blank2r.bmp	0	1	BMVZ	0	1	blank2r.bmp	79	143	pic143.bmp	199	1	whitenoise_No3.bmp	306	0	0	0	0	0	0	0	0	0	0	0	0	0	0	0	0	0	0	0	0	0	0	0	0	0	0	0	0	0	0	0	0	0	0	0	0	0	0	0
121118	13:54:10	14:10:01	950942	5.0.10.0	4_exp_EVA_AMP_AWA_CON	5	Rpleas_acq	Oppo	Lpleas	Bmasked	CS_B	1pleas	distractor1	EVAbeforeCON	AMP_CSunple	AMP1_masked	8	15	0	0	300	300	0	0	265	46	-47,3632812499999928946	0	0	0	0	1	blank2r.bmp	0	1	GKQX	0	1	blank2r.bmp	79	151	pic151.bmp	199	1	whitenoise_No3.bmp	306	0	0	0	0	0	0	0	0	0	0	0	0	0	0	0	0	0	0	0	0	0	0	0	0	0	0	0	0	0	0	0	0	0	0	0	0	0	0	0
121118	13:54:10	14:10:02	952141	5.0.10.0	4_exp_EVA_AMP_AWA_CON	5	Rpleas_acq	Oppo	Lpleas	Bmasked	CS_B	1pleas	distractor1	EVAbeforeCON	AMP_CSpleas	AMP1_masked	8	16	0	0	300	300	0	0	276	50	-47,3632812499999928946	0	0	0	0	1	blank2r.bmp	0	1	BMVZ	0	1	blank2r.bmp	79	74	pic74.bmp	199	1	whitenoise_No3.bmp	306	0	0	0	0	0	0	0	0	0	0	0	0	0	0	0	0	0	0	0	0	0	0	0	0	0	0	0	0	0	0	0	0	0	0	0	0	0	0	0
121118	13:54:10	14:10:04	953328	5.0.10.0	4_exp_EVA_AMP_AWA_CON	5	Rpleas_acq	Oppo	Lpleas	Bmasked	CS_B	1pleas	distractor1	EVAbeforeCON	AMP_CSpleas	AMP1_masked	8	17	0	0	300	300	0	0	262	46	-47,3632812499999928946	1	0	0	0	1	blank2r.bmp	0	1	BMVZ	0	1	blank2r.bmp	79	6	pic6.bmp	199	1	whitenoise_No3.bmp	306	0	0	0	0	0	0	0	0	0	0	0	0	0	0	0	0	0	0	0	0	0	0	0	0	0	0	0	0	0	0	0	0	0	0	0	0	0	0	0
121118	13:54:10	14:10:05	954514	5.0.10.0	4_exp_EVA_AMP_AWA_CON	5	Rpleas_acq	Oppo	Lpleas	Bmasked	CS_B	1pleas	distractor1	EVAbeforeCON	AMP_CSunple	AMP1_masked	8	18	0	0	300	300	0	0	259	50	-47,3632812499999928946	1	0	0	0	1	blank2r.bmp	0	1	GKQX	0	1	blank2r.bmp	79	138	pic138.bmp	199	1	whitenoise_No3.bmp	306	0	0	0	0	0	0	0	0	0	0	0	0	0	0	0	0	0	0	0	0	0	0	0	0	0	0	0	0	0	0	0	0	0	0	0	0	0	0	0
121118	13:54:10	14:10:06	955673	5.0.10.0	4_exp_EVA_AMP_AWA_CON	5	Rpleas_acq	Oppo	Lpleas	Bmasked	CS_B	1pleas	distractor1	EVAbeforeCON	AMP_CSpleas	AMP1_masked	8	19	0	0	300	300	0	0	249	46	-47,3632812499999928946	1	0	0	0	1	blank2r.bmp	0	1	BMVZ	0	1	blank2r.bmp	79	136	pic136.bmp	199	1	whitenoise_No3.bmp	306	0	0	0	0	0	0	0	0	0	0	0	0	0	0	0	0	0	0	0	0	0	0	0	0	0	0	0	0	0	0	0	0	0	0	0	0	0	0	0
121118	13:54:10	14:10:07	956846	5.0.10.0	4_exp_EVA_AMP_AWA_CON	5	Rpleas_acq	Oppo	Lpleas	Bmasked	CS_B	1pleas	distractor1	EVAbeforeCON	AMP_distractor	AMP1_masked	8	20	0	0	300	300	0	0	250	50	-47,3632812499999928946	0	0	0	0	1	blank2r.bmp	0	1	WFPH	0	1	blank2r.bmp	79	15	pic15.bmp	199	1	whitenoise_No3.bmp	306	0	0	0	0	0	0	0	0	0	0	0	0	0	0	0	0	0	0	0	0	0	0	0	0	0	0	0	0	0	0	0	0	0	0	0	0	0	0	0
121118	13:54:10	14:10:08	958019	5.0.10.0	4_exp_EVA_AMP_AWA_CON	5	Rpleas_acq	Oppo	Lpleas	Bmasked	CS_B	1pleas	distractor1	EVAbeforeCON	AMP_CSpleas	AMP1_masked	8	21	0	0	300	300	0	0	240	46	-47,3632812499999928946	1	0	0	0	1	blank2r.bmp	0	1	BMVZ	0	1	blank2r.bmp	79	45	pic45.bmp	199	1	whitenoise_No3.bmp	306	0	0	0	0	0	0	0	0	0	0	0	0	0	0	0	0	0	0	0	0	0	0	0	0	0	0	0	0	0	0	0	0	0	0	0	0	0	0	0
121118	13:54:10	14:10:10	959232	5.0.10.0	4_exp_EVA_AMP_AWA_CON	5	Rpleas_acq	Oppo	Lpleas	Bmasked	CS_B	1pleas	distractor1	EVAbeforeCON	AMP_distractor	AMP1_masked	8	22	0	0	300	300	0	0	294	50	-47,3632812499999928946	0	0	0	0	1	blank2r.bmp	0	1	WFPH	0	1	blank2r.bmp	79	14	pic14.bmp	199	1	whitenoise_No3.bmp	306	0	0	0	0	0	0	0	0	0	0	0	0	0	0	0	0	0	0	0	0	0	0	0	0	0	0	0	0	0	0	0	0	0	0	0	0	0	0	0
121118	13:54:10	14:10:11	960391	5.0.10.0	4_exp_EVA_AMP_AWA_CON	5	Rpleas_acq	Oppo	Lpleas	Bmasked	CS_B	1pleas	distractor1	EVAbeforeCON	AMP_CSunple	AMP1_masked	8	23	0	0	300	300	0	0	236	46	-47,3632812499999928946	0	0	0	0	1	blank2r.bmp	0	1	GKQX	0	1	blank2r.bmp	79	59	pic59.bmp	199	1	whitenoise_No3.bmp	306	0	0	0	0	0	0	0	0	0	0	0	0	0	0	0	0	0	0	0	0	0	0	0	0	0	0	0	0	0	0	0	0	0	0	0	0	0	0	0
121118	13:54:10	14:10:12	961511	5.0.10.0	4_exp_EVA_AMP_AWA_CON	5	Rpleas_acq	Oppo	Lpleas	Bmasked	CS_B	1pleas	distractor1	EVAbeforeCON	AMP_CSunple	AMP1_masked	8	24	0	0	300	300	0	0	207	50	-47,3632812499999928946	1	0	0	0	1	blank2r.bmp	0	1	GKQX	0	1	blank2r.bmp	79	91	pic91.bmp	199	1	whitenoise_No3.bmp	306	0	0	0	0	0	0	0	0	0	0	0	0	0	0	0	0	0	0	0	0	0	0	0	0	0	0	0	0	0	0	0	0	0	0	0	0	0	0	0
121118	13:54:10	14:10:13	962724	5.0.10.0	4_exp_EVA_AMP_AWA_CON	5	Rpleas_acq	Oppo	Lpleas	Bmasked	CS_B	1pleas	distractor1	EVAbeforeCON	AMP_CSpleas	AMP1_masked	8	25	0	0	300	300	0	0	291	46	-47,3632812499999928946	1	0	0	0	1	blank2r.bmp	0	1	BMVZ	0	1	blank2r.bmp	79	142	pic142.bmp	199	1	whitenoise_No3.bmp	306	0	0	0	0	0	0	0	0	0	0	0	0	0	0	0	0	0	0	0	0	0	0	0	0	0	0	0	0	0	0	0	0	0	0	0	0	0	0	0
121118	13:54:10	14:10:14	963803	5.0.10.0	4_exp_EVA_AMP_AWA_CON	5	Rpleas_acq	Oppo	Lpleas	Bmasked	CS_B	1pleas	distractor1	EVAbeforeCON	AMP_CSunple	AMP1_masked	8	26	0	0	300	300	0	0	157	50	-47,3632812499999928946	1	0	0	0	1	blank2r.bmp	0	1	GKQX	0	1	blank2r.bmp	79	112	pic112.bmp	199	1	whitenoise_No3.bmp	306	0	0	0	0	0	0	0	0	0	0	0	0	0	0	0	0	0	0	0	0	0	0	0	0	0	0	0	0	0	0	0	0	0	0	0	0	0	0	0
121118	13:54:10	14:10:15	964870	5.0.10.0	4_exp_EVA_AMP_AWA_CON	5	Rpleas_acq	Oppo	Lpleas	Bmasked	CS_B	1pleas	distractor1	EVAbeforeCON	AMP_CSpleas	AMP1_masked	8	27	0	0	300	300	0	0	134	46	-47,3632812499999928946	1	0	0	0	1	blank2r.bmp	0	1	BMVZ	0	1	blank2r.bmp	79	69	pic69.bmp	199	1	whitenoise_No3.bmp	306	0	0	0	0	0	0	0	0	0	0	0	0	0	0	0	0	0	0	0	0	0	0	0	0	0	0	0	0	0	0	0	0	0	0	0	0	0	0	0
121118	13:54:10	14:10:16	965976	5.0.10.0	4_exp_EVA_AMP_AWA_CON	5	Rpleas_acq	Oppo	Lpleas	Bmasked	CS_B	1pleas	distractor1	EVAbeforeCON	AMP_CSunple	AMP1_masked	8	28	0	0	300	300	0	0	186	50	-47,3632812499999928946	1	0	0	0	1	blank2r.bmp	0	1	GKQX	0	1	blank2r.bmp	79	90	pic90.bmp	199	1	whitenoise_No3.bmp	306	0	0	0	0	0	0	0	0	0	0	0	0	0	0	0	0	0	0	0	0	0	0	0	0	0	0	0	0	0	0	0	0	0	0	0	0	0	0	0
121118	13:54:10	14:10:18	967255	5.0.10.0	4_exp_EVA_AMP_AWA_CON	5	Rpleas_acq	Oppo	Lpleas	Bmasked	CS_B	1pleas	distractor1	EVAbeforeCON	AMP_distractor	AMP1_masked	8	29	0	0	300	300	0	0	359	50	-47,3632812499999928946	0	0	0	0	1	blank2r.bmp	0	1	WFPH	0	1	blank2r.bmp	79	32	pic32.bmp	199	1	whitenoise_No3.bmp	306	0	0	0	0	0	0	0	0	0	0	0	0	0	0	0	0	0	0	0	0	0	0	0	0	0	0	0	0	0	0	0	0	0	0	0	0	0	0	0
121118	13:54:10	14:10:19	968428	5.0.10.0	4_exp_EVA_AMP_AWA_CON	5	Rpleas_acq	Oppo	Lpleas	Bmasked	CS_B	1pleas	distractor1	EVAbeforeCON	AMP_CSunple	AMP1_masked	8	30	0	0	300	300	0	0	259	46	-47,3632812499999928946	0	0	0	0	1	blank2r.bmp	0	1	GKQX	0	1	blank2r.bmp	79	94	pic94.bmp	199	1	whitenoise_No3.bmp	306	0	0	0	0	0	0	0	0	0	0	0	0	0	0	0	0	0	0	0	0	0	0	0	0	0	0	0	0	0	0	0	0	0	0	0	0	0	0	0
121118	13:54:10	14:10:20	969734	5.0.10.0	4_exp_EVA_AMP_AWA_CON	5	Rpleas_acq	Oppo	Lpleas	Bmasked	CS_B	1pleas	distractor1	EVAbeforeCON	AMP_CSunple	AMP1_masked	8	31	0	0	300	300	0	0	386	50	-47,3632812499999928946	1	0	0	0	1	blank2r.bmp	0	1	GKQX	0	1	blank2r.bmp	79	100	pic100.bmp	199	1	whitenoise_No3.bmp	306	0	0	0	0	0	0	0	0	0	0	0	0	0	0	0	0	0	0	0	0	0	0	0	0	0	0	0	0	0	0	0	0	0	0	0	0	0	0	0
121118	13:54:10	14:10:21	971054	5.0.10.0	4_exp_EVA_AMP_AWA_CON	5	Rpleas_acq	Oppo	Lpleas	Bmasked	CS_B	1pleas	distractor1	EVAbeforeCON	AMP_distractor	AMP1_masked	8	32	0	0	300	300	0	0	403	46	-47,3632812499999928946	0	0	0	0	1	blank2r.bmp	0	1	WFPH	0	1	blank2r.bmp	79	66	pic66.bmp	199	1	whitenoise_No3.bmp	306	0	0	0	0	0	0	0	0	0	0	0	0	0	0	0	0	0	0	0	0	0	0	0	0	0	0	0	0	0	0	0	0	0	0	0	0	0	0	0
121118	13:54:10	14:10:23	972187	5.0.10.0	4_exp_EVA_AMP_AWA_CON	5	Rpleas_acq	Oppo	Lpleas	Bmasked	CS_B	1pleas	distractor1	EVAbeforeCON	AMP_CSunple	AMP1_masked	8	33	0	0	300	300	0	0	211	46	-47,3632812499999928946	0	0	0	0	1	blank2r.bmp	0	1	GKQX	0	1	blank2r.bmp	79	137	pic137.bmp	199	1	whitenoise_No3.bmp	306	0	0	0	0	0	0	0	0	0	0	0	0	0	0	0	0	0	0	0	0	0	0	0	0	0	0	0	0	0	0	0	0	0	0	0	0	0	0	0
121118	13:54:10	14:10:24	973386	5.0.10.0	4_exp_EVA_AMP_AWA_CON	5	Rpleas_acq	Oppo	Lpleas	Bmasked	CS_B	1pleas	distractor1	EVAbeforeCON	AMP_CSunple	AMP1_masked	8	34	0	0	300	300	0	0	266	50	-47,3632812499999928946	1	0	0	0	1	blank2r.bmp	0	1	GKQX	0	1	blank2r.bmp	79	122	pic122.bmp	199	1	whitenoise_No3.bmp	306	0	0	0	0	0	0	0	0	0	0	0	0	0	0	0	0	0	0	0	0	0	0	0	0	0	0	0	0	0	0	0	0	0	0	0	0	0	0	0
121118	13:54:10	14:10:25	974586	5.0.10.0	4_exp_EVA_AMP_AWA_CON	5	Rpleas_acq	Oppo	Lpleas	Bmasked	CS_B	1pleas	distractor1	EVAbeforeCON	AMP_distractor	AMP1_masked	8	35	0	0	300	300	0	0	285	46	-47,3632812499999928946	0	0	0	0	1	blank2r.bmp	0	1	WFPH	0	1	blank2r.bmp	79	26	pic26.bmp	199	1	whitenoise_No3.bmp	306	0	0	0	0	0	0	0	0	0	0	0	0	0	0	0	0	0	0	0	0	0	0	0	0	0	0	0	0	0	0	0	0	0	0	0	0	0	0	0
121118	13:54:10	14:10:26	975852	5.0.10.0	4_exp_EVA_AMP_AWA_CON	5	Rpleas_acq	Oppo	Lpleas	Bmasked	CS_B	1pleas	distractor1	EVAbeforeCON	AMP_CSunple	AMP1_masked	8	36	0	0	300	300	0	0	346	50	-47,3632812499999928946	1	0	0	0	1	blank2r.bmp	0	1	GKQX	0	1	blank2r.bmp	79	18	pic18.bmp	199	1	whitenoise_No3.bmp	306	0	0	0	0	0	0	0	0	0	0	0	0	0	0	0	0	0	0	0	0	0	0	0	0	0	0	0	0	0	0	0	0	0	0	0	0	0	0	0
121118	13:54:10	14:10:27	976985	5.0.10.0	4_exp_EVA_AMP_AWA_CON	5	Rpleas_acq	Oppo	Lpleas	Bmasked	CS_B	1pleas	distractor1	EVAbeforeCON	AMP_CSunple	AMP1_masked	8	37	0	0	300	300	0	0	223	46	-47,3632812499999928946	0	0	0	0	1	blank2r.bmp	0	1	GKQX	0	1	blank2r.bmp	79	152	pic152.bmp	199	1	whitenoise_No3.bmp	306	0	0	0	0	0	0	0	0	0	0	0	0	0	0	0	0	0	0	0	0	0	0	0	0	0	0	0	0	0	0	0	0	0	0	0	0	0	0	0
121118	13:54:10	14:10:29	978277	5.0.10.0	4_exp_EVA_AMP_AWA_CON	5	Rpleas_acq	Oppo	Lpleas	Bmasked	CS_B	1pleas	distractor1	EVAbeforeCON	AMP_distractor	AMP1_masked	8	38	0	0	300	300	0	0	363	46	-47,3632812499999928946	0	0	0	0	1	blank2r.bmp	0	1	WFPH	0	1	blank2r.bmp	79	36	pic36.bmp	199	1	whitenoise_No3.bmp	306	0	0	0	0	0	0	0	0	0	0	0	0	0	0	0	0	0	0	0	0	0	0	0	0	0	0	0	0	0	0	0	0	0	0	0	0	0	0	0
121118	13:54:10	14:10:30	979477	5.0.10.0	4_exp_EVA_AMP_AWA_CON	5	Rpleas_acq	Oppo	Lpleas	Bmasked	CS_B	1pleas	distractor1	EVAbeforeCON	AMP_distractor	AMP1_masked	8	39	0	0	300	300	0	0	266	50	-47,3632812499999928946	0	0	0	0	1	blank2r.bmp	0	1	WFPH	0	1	blank2r.bmp	79	73	pic73.bmp	199	1	whitenoise_No3.bmp	306	0	0	0	0	0	0	0	0	0	0	0	0	0	0	0	0	0	0	0	0	0	0	0	0	0	0	0	0	0	0	0	0	0	0	0	0	0	0	0
121118	13:54:10	14:10:31	980823	5.0.10.0	4_exp_EVA_AMP_AWA_CON	5	Rpleas_acq	Oppo	Lpleas	Bmasked	CS_B	1pleas	distractor1	EVAbeforeCON	AMP_distractor	AMP1_masked	8	40	0	0	300	300	0	0	434	50	-47,3632812499999928946	0	0	0	0	1	blank2r.bmp	0	1	WFPH	0	1	blank2r.bmp	79	105	pic105.bmp	199	1	whitenoise_No3.bmp	306	0	0	0	0	0	0	0	0	0	0	0	0	0	0	0	0	0	0	0	0	0	0	0	0	0	0	0	0	0	0	0	0	0	0	0	0	0	0	0
121118	13:54:10	14:10:32	981996	5.0.10.0	4_exp_EVA_AMP_AWA_CON	5	Rpleas_acq	Oppo	Lpleas	Bmasked	CS_B	1pleas	distractor1	EVAbeforeCON	AMP_CSunple	AMP1_masked	8	41	0	0	300	300	0	0	245	46	-47,3632812499999928946	0	0	0	0	1	blank2r.bmp	0	1	GKQX	0	1	blank2r.bmp	79	111	pic111.bmp	199	1	whitenoise_No3.bmp	306	0	0	0	0	0	0	0	0	0	0	0	0	0	0	0	0	0	0	0	0	0	0	0	0	0	0	0	0	0	0	0	0	0	0	0	0	0	0	0
121118	13:54:10	14:10:34	983329	5.0.10.0	4_exp_EVA_AMP_AWA_CON	5	Rpleas_acq	Oppo	Lpleas	Bmasked	CS_B	1pleas	distractor1	EVAbeforeCON	AMP_CSunple	AMP1_masked	8	42	0	0	300	300	0	0	413	50	-47,3632812499999928946	1	0	0	0	1	blank2r.bmp	0	1	GKQX	0	1	blank2r.bmp	79	108	pic108.bmp	199	1	whitenoise_No3.bmp	306	0	0	0	0	0	0	0	0	0	0	0	0	0	0	0	0	0	0	0	0	0	0	0	0	0	0	0	0	0	0	0	0	0	0	0	0	0	0	0
121118	13:54:10	14:10:35	984541	5.0.10.0	4_exp_EVA_AMP_AWA_CON	5	Rpleas_acq	Oppo	Lpleas	Bmasked	CS_B	1pleas	distractor1	EVAbeforeCON	AMP_CSunple	AMP1_masked	8	43	0	0	300	300	0	0	298	50	-47,3632812499999928946	1	0	0	0	1	blank2r.bmp	0	1	GKQX	0	1	blank2r.bmp	79	150	pic150.bmp	199	1	whitenoise_No3.bmp	306	0	0	0	0	0	0	0	0	0	0	0	0	0	0	0	0	0	0	0	0	0	0	0	0	0	0	0	0	0	0	0	0	0	0	0	0	0	0	0
121118	13:54:10	14:10:36	985821	5.0.10.0	4_exp_EVA_AMP_AWA_CON	5	Rpleas_acq	Oppo	Lpleas	Bmasked	CS_B	1pleas	distractor1	EVAbeforeCON	AMP_CSpleas	AMP1_masked	8	44	0	0	300	300	0	0	358	46	-47,3632812499999928946	1	0	0	0	1	blank2r.bmp	0	1	BMVZ	0	1	blank2r.bmp	79	28	pic28.bmp	199	1	whitenoise_No3.bmp	306	0	0	0	0	0	0	0	0	0	0	0	0	0	0	0	0	0	0	0	0	0	0	0	0	0	0	0	0	0	0	0	0	0	0	0	0	0	0	0
121118	13:54:10	14:10:37	987087	5.0.10.0	4_exp_EVA_AMP_AWA_CON	5	Rpleas_acq	Oppo	Lpleas	Bmasked	CS_B	1pleas	distractor1	EVAbeforeCON	AMP_CSpleas	AMP1_masked	8	45	0	0	300	300	0	0	346	50	-47,3632812499999928946	0	0	0	0	1	blank2r.bmp	0	1	BMVZ	0	1	blank2r.bmp	79	8	pic8.bmp	199	1	whitenoise_No3.bmp	306	0	0	0	0	0	0	0	0	0	0	0	0	0	0	0	0	0	0	0	0	0	0	0	0	0	0	0	0	0	0	0	0	0	0	0	0	0	0	0
121118	13:54:10	14:10:39	988313	5.0.10.0	4_exp_EVA_AMP_AWA_CON	5	Rpleas_acq	Oppo	Lpleas	Bmasked	CS_B	1pleas	distractor1	EVAbeforeCON	AMP_distractor	AMP1_masked	8	46	0	0	300	300	0	0	306	46	-47,3632812499999928946	0	0	0	0	1	blank2r.bmp	0	1	WFPH	0	1	blank2r.bmp	79	113	pic113.bmp	199	1	whitenoise_No3.bmp	306	0	0	0	0	0	0	0	0	0	0	0	0	0	0	0	0	0	0	0	0	0	0	0	0	0	0	0	0	0	0	0	0	0	0	0	0	0	0	0
121118	13:54:10	14:10:40	989553	5.0.10.0	4_exp_EVA_AMP_AWA_CON	5	Rpleas_acq	Oppo	Lpleas	Bmasked	CS_B	1pleas	distractor1	EVAbeforeCON	AMP_distractor	AMP1_masked	8	47	0	0	300	300	0	0	315	50	-47,3632812499999928946	0	0	0	0	1	blank2r.bmp	0	1	WFPH	0	1	blank2r.bmp	79	98	pic98.bmp	199	1	whitenoise_No3.bmp	306	0	0	0	0	0	0	0	0	0	0	0	0	0	0	0	0	0	0	0	0	0	0	0	0	0	0	0	0	0	0	0	0	0	0	0	0	0	0	0
121118	13:54:10	14:10:41	990792	5.0.10.0	4_exp_EVA_AMP_AWA_CON	5	Rpleas_acq	Oppo	Lpleas	Bmasked	CS_B	1pleas	distractor1	EVAbeforeCON	AMP_CSpleas	AMP1_masked	8	48	0	0	300	300	0	0	311	46	-47,3632812499999928946	1	0	0	0	1	blank2r.bmp	0	1	BMVZ	0	1	blank2r.bmp	79	95	pic95.bmp	199	1	whitenoise_No3.bmp	306	0	0	0	0	0	0	0	0	0	0	0	0	0	0	0	0	0	0	0	0	0	0	0	0	0	0	0	0	0	0	0	0	0	0	0	0	0	0	0
121118	13:54:10	14:10:42	992005	5.0.10.0	4_exp_EVA_AMP_AWA_CON	5	Rpleas_acq	Oppo	Lpleas	Bmasked	CS_B	1pleas	distractor1	EVAbeforeCON	AMP_CSpleas	AMP1_masked	8	49	0	0	300	300	0	0	289	50	-47,3632812499999928946	0	0	0	0	1	blank2r.bmp	0	1	BMVZ	0	1	blank2r.bmp	79	31	pic31.bmp	199	1	whitenoise_No3.bmp	306	0	0	0	0	0	0	0	0	0	0	0	0	0	0	0	0	0	0	0	0	0	0	0	0	0	0	0	0	0	0	0	0	0	0	0	0	0	0	0
121118	13:54:10	14:10:44	993684	5.0.10.0	4_exp_EVA_AMP_AWA_CON	5	Rpleas_acq	Oppo	Lpleas	Bmasked	CS_B	1pleas	distractor1	EVAbeforeCON	AMP_CSpleas	AMP1_masked	8	50	0	0	300	300	0	0	747	46	-47,3632812499999928946	1	0	0	0	1	blank2r.bmp	0	1	BMVZ	0	1	blank2r.bmp	79	103	pic103.bmp	199	1	whitenoise_No3.bmp	306	0	0	0	0	0	0	0	0	0	0	0	0	0	0	0	0	0	0	0	0	0	0	0	0	0	0	0	0	0	0	0	0	0	0	0	0	0	0	0
121118	13:54:10	14:10:45	994844	5.0.10.0	4_exp_EVA_AMP_AWA_CON	5	Rpleas_acq	Oppo	Lpleas	Bmasked	CS_B	1pleas	distractor1	EVAbeforeCON	AMP_distractor	AMP1_masked	8	51	0	0	300	300	0	0	248	50	-47,3632812499999928946	0	0	0	0	1	blank2r.bmp	0	1	WFPH	0	1	blank2r.bmp	79	2	pic2.bmp	199	1	whitenoise_No3.bmp	306	0	0	0	0	0	0	0	0	0	0	0	0	0	0	0	0	0	0	0	0	0	0	0	0	0	0	0	0	0	0	0	0	0	0	0	0	0	0	0
121118	13:54:10	14:10:49	998629	5.0.10.0	4_exp_EVA_AMP_AWA_CON	5	Rpleas_acq	Oppo	Lpleas	Bmasked	CS_B	1pleas	distractor1	EVAbeforeCON	AMP_distractor	AMP23	9	1	0	0	300	300	0	0	330	46	-47,3632812499999928946	0	0	0	0	1	blank2r.bmp	0	1	WFPH	0	1	blank2r.bmp	79	86	pic86.bmp	199	1	whitenoise_No3.bmp	306	0	0	0	0	0	0	0	0	0	0	0	0	0	0	0	0	0	0	0	0	0	0	0	0	0	0	0	0	0	0	0	0	0	0	0	0	0	0	0
121118	13:54:10	14:10:50	999629	5.0.10.0	4_exp_EVA_AMP_AWA_CON	5	Rpleas_acq	Oppo	Lpleas	Bmasked	CS_B	1pleas	distractor1	EVAbeforeCON	AMP_CSunple	AMP23	9	2	0	0	300	300	0	0	66	50	-47,3632812499999928946	1	0	0	0	1	blank2r.bmp	0	1	GKQX	0	1	blank2r.bmp	79	4	pic4.bmp	199	1	whitenoise_No3.bmp	306	0	0	0	0	0	0	0	0	0	0	0	0	0	0	0	0	0	0	0	0	0	0	0	0	0	0	0	0	0	0	0	0	0	0	0	0	0	0	0
121118	13:54:10	14:10:51	1000761	5.0.10.0	4_exp_EVA_AMP_AWA_CON	5	Rpleas_acq	Oppo	Lpleas	Bmasked	CS_B	1pleas	distractor1	EVAbeforeCON	AMP_CSunple	AMP23	9	3	0	0	300	300	0	0	214	46	-47,3632812499999928946	0	0	0	0	1	blank2r.bmp	0	1	GKQX	0	1	blank2r.bmp	79	70	pic70.bmp	199	1	whitenoise_No3.bmp	306	0	0	0	0	0	0	0	0	0	0	0	0	0	0	0	0	0	0	0	0	0	0	0	0	0	0	0	0	0	0	0	0	0	0	0	0	0	0	0
121118	13:54:10	14:10:52	1001881	5.0.10.0	4_exp_EVA_AMP_AWA_CON	5	Rpleas_acq	Oppo	Lpleas	Bmasked	CS_B	1pleas	distractor1	EVAbeforeCON	AMP_CSunple	AMP23	9	4	0	0	300	300	0	0	195	50	-47,3632812499999928946	1	0	0	0	1	blank2r.bmp	0	1	GKQX	0	1	blank2r.bmp	79	54	pic54.bmp	199	1	whitenoise_No3.bmp	306	0	0	0	0	0	0	0	0	0	0	0	0	0	0	0	0	0	0	0	0	0	0	0	0	0	0	0	0	0	0	0	0	0	0	0	0	0	0	0
121118	13:54:10	14:10:53	1003014	5.0.10.0	4_exp_EVA_AMP_AWA_CON	5	Rpleas_acq	Oppo	Lpleas	Bmasked	CS_B	1pleas	distractor1	EVAbeforeCON	AMP_distractor	AMP23	9	5	0	0	300	300	0	0	210	46	-47,3632812499999928946	0	0	0	0	1	blank2r.bmp	0	1	WFPH	0	1	blank2r.bmp	79	97	pic97.bmp	199	1	whitenoise_No3.bmp	306	0	0	0	0	0	0	0	0	0	0	0	0	0	0	0	0	0	0	0	0	0	0	0	0	0	0	0	0	0	0	0	0	0	0	0	0	0	0	0
121118	13:54:10	14:10:54	1004133	5.0.10.0	4_exp_EVA_AMP_AWA_CON	5	Rpleas_acq	Oppo	Lpleas	Bmasked	CS_B	1pleas	distractor1	EVAbeforeCON	AMP_CSpleas	AMP23	9	6	0	0	300	300	0	0	189	50	-47,3632812499999928946	0	0	0	0	1	blank2r.bmp	0	1	BMVZ	0	1	blank2r.bmp	79	132	pic132.bmp	199	1	whitenoise_No3.bmp	306	0	0	0	0	0	0	0	0	0	0	0	0	0	0	0	0	0	0	0	0	0	0	0	0	0	0	0	0	0	0	0	0	0	0	0	0	0	0	0
121118	13:54:10	14:10:56	1005253	5.0.10.0	4_exp_EVA_AMP_AWA_CON	5	Rpleas_acq	Oppo	Lpleas	Bmasked	CS_B	1pleas	distractor1	EVAbeforeCON	AMP_CSunple	AMP23	9	7	0	0	300	300	0	0	207	46	-47,3632812499999928946	0	0	0	0	1	blank2r.bmp	0	1	GKQX	0	1	blank2r.bmp	79	125	pic125.bmp	199	1	whitenoise_No3.bmp	306	0	0	0	0	0	0	0	0	0	0	0	0	0	0	0	0	0	0	0	0	0	0	0	0	0	0	0	0	0	0	0	0	0	0	0	0	0	0	0
121118	13:54:10	14:10:57	1006412	5.0.10.0	4_exp_EVA_AMP_AWA_CON	5	Rpleas_acq	Oppo	Lpleas	Bmasked	CS_B	1pleas	distractor1	EVAbeforeCON	AMP_distractor	AMP23	9	8	0	0	300	300	0	0	231	50	-47,3632812499999928946	0	0	0	0	1	blank2r.bmp	0	1	WFPH	0	1	blank2r.bmp	79	115	pic115.bmp	199	1	whitenoise_No3.bmp	306	0	0	0	0	0	0	0	0	0	0	0	0	0	0	0	0	0	0	0	0	0	0	0	0	0	0	0	0	0	0	0	0	0	0	0	0	0	0	0
121118	13:54:10	14:10:58	1007545	5.0.10.0	4_exp_EVA_AMP_AWA_CON	5	Rpleas_acq	Oppo	Lpleas	Bmasked	CS_B	1pleas	distractor1	EVAbeforeCON	AMP_distractor	AMP23	9	9	0	0	300	300	0	0	219	46	-47,3632812499999928946	0	0	0	0	1	blank2r.bmp	0	1	WFPH	0	1	blank2r.bmp	79	65	pic65.bmp	199	1	whitenoise_No3.bmp	306	0	0	0	0	0	0	0	0	0	0	0	0	0	0	0	0	0	0	0	0	0	0	0	0	0	0	0	0	0	0	0	0	0	0	0	0	0	0	0
121118	13:54:10	14:10:59	1008678	5.0.10.0	4_exp_EVA_AMP_AWA_CON	5	Rpleas_acq	Oppo	Lpleas	Bmasked	CS_B	1pleas	distractor1	EVAbeforeCON	AMP_CSunple	AMP23	9	10	0	0	300	300	0	0	204	50	-47,3632812499999928946	1	0	0	0	1	blank2r.bmp	0	1	GKQX	0	1	blank2r.bmp	79	116	pic116.bmp	199	1	whitenoise_No3.bmp	306	0	0	0	0	0	0	0	0	0	0	0	0	0	0	0	0	0	0	0	0	0	0	0	0	0	0	0	0	0	0	0	0	0	0	0	0	0	0	0
121118	13:54:10	14:11:00	1009811	5.0.10.0	4_exp_EVA_AMP_AWA_CON	5	Rpleas_acq	Oppo	Lpleas	Bmasked	CS_B	1pleas	distractor1	EVAbeforeCON	AMP_distractor	AMP23	9	11	0	0	300	300	0	0	213	46	-47,3632812499999928946	0	0	0	0	1	blank2r.bmp	0	1	WFPH	0	1	blank2r.bmp	79	139	pic139.bmp	199	1	whitenoise_No3.bmp	306	0	0	0	0	0	0	0	0	0	0	0	0	0	0	0	0	0	0	0	0	0	0	0	0	0	0	0	0	0	0	0	0	0	0	0	0	0	0	0
121118	13:54:10	14:11:01	1010931	5.0.10.0	4_exp_EVA_AMP_AWA_CON	5	Rpleas_acq	Oppo	Lpleas	Bmasked	CS_B	1pleas	distractor1	EVAbeforeCON	AMP_distractor	AMP23	9	12	0	0	300	300	0	0	210	50	-47,3632812499999928946	0	0	0	0	1	blank2r.bmp	0	1	WFPH	0	1	blank2r.bmp	79	149	pic149.bmp	199	1	whitenoise_No3.bmp	306	0	0	0	0	0	0	0	0	0	0	0	0	0	0	0	0	0	0	0	0	0	0	0	0	0	0	0	0	0	0	0	0	0	0	0	0	0	0	0
121118	13:54:10	14:11:03	1012197	5.0.10.0	4_exp_EVA_AMP_AWA_CON	5	Rpleas_acq	Oppo	Lpleas	Bmasked	CS_B	1pleas	distractor1	EVAbeforeCON	AMP_CSunple	AMP23	9	13	0	0	300	300	0	0	337	46	-47,3632812499999928946	0	0	0	0	1	blank2r.bmp	0	1	GKQX	0	1	blank2r.bmp	79	58	pic58.bmp	199	1	whitenoise_No3.bmp	306	0	0	0	0	0	0	0	0	0	0	0	0	0	0	0	0	0	0	0	0	0	0	0	0	0	0	0	0	0	0	0	0	0	0	0	0	0	0	0
121118	13:54:10	14:11:04	1013396	5.0.10.0	4_exp_EVA_AMP_AWA_CON	5	Rpleas_acq	Oppo	Lpleas	Bmasked	CS_B	1pleas	distractor1	EVAbeforeCON	AMP_distractor	AMP23	9	14	0	0	300	300	0	0	269	46	-47,3632812499999928946	0	0	0	0	1	blank2r.bmp	0	1	WFPH	0	1	blank2r.bmp	79	106	pic106.bmp	199	1	whitenoise_No3.bmp	306	0	0	0	0	0	0	0	0	0	0	0	0	0	0	0	0	0	0	0	0	0	0	0	0	0	0	0	0	0	0	0	0	0	0	0	0	0	0	0
121118	13:54:10	14:11:05	1014556	5.0.10.0	4_exp_EVA_AMP_AWA_CON	5	Rpleas_acq	Oppo	Lpleas	Bmasked	CS_B	1pleas	distractor1	EVAbeforeCON	AMP_CSpleas	AMP23	9	15	0	0	300	300	0	0	230	50	-47,3632812499999928946	0	0	0	0	1	blank2r.bmp	0	1	BMVZ	0	1	blank2r.bmp	79	40	pic40.bmp	199	1	whitenoise_No3.bmp	306	0	0	0	0	0	0	0	0	0	0	0	0	0	0	0	0	0	0	0	0	0	0	0	0	0	0	0	0	0	0	0	0	0	0	0	0	0	0	0
121118	13:54:10	14:11:06	1015715	5.0.10.0	4_exp_EVA_AMP_AWA_CON	5	Rpleas_acq	Oppo	Lpleas	Bmasked	CS_B	1pleas	distractor1	EVAbeforeCON	AMP_CSpleas	AMP23	9	16	0	0	300	300	0	0	243	46	-47,3632812499999928946	1	0	0	0	1	blank2r.bmp	0	1	BMVZ	0	1	blank2r.bmp	79	29	pic29.bmp	199	1	whitenoise_No3.bmp	306	0	0	0	0	0	0	0	0	0	0	0	0	0	0	0	0	0	0	0	0	0	0	0	0	0	0	0	0	0	0	0	0	0	0	0	0	0	0	0
121118	13:54:10	14:11:07	1016782	5.0.10.0	4_exp_EVA_AMP_AWA_CON	5	Rpleas_acq	Oppo	Lpleas	Bmasked	CS_B	1pleas	distractor1	EVAbeforeCON	AMP_CSpleas	AMP23	9	17	0	0	300	300	0	0	153	50	-47,3632812499999928946	0	0	0	0	1	blank2r.bmp	0	1	BMVZ	0	1	blank2r.bmp	79	126	pic126.bmp	199	1	whitenoise_No3.bmp	306	0	0	0	0	0	0	0	0	0	0	0	0	0	0	0	0	0	0	0	0	0	0	0	0	0	0	0	0	0	0	0	0	0	0	0	0	0	0	0
121118	13:54:10	14:11:08	1018008	5.0.10.0	4_exp_EVA_AMP_AWA_CON	5	Rpleas_acq	Oppo	Lpleas	Bmasked	CS_B	1pleas	distractor1	EVAbeforeCON	AMP_CSunple	AMP23	9	18	0	0	300	300	0	0	296	46	-47,3632812499999928946	0	0	0	0	1	blank2r.bmp	0	1	GKQX	0	1	blank2r.bmp	79	109	pic109.bmp	199	1	whitenoise_No3.bmp	306	0	0	0	0	0	0	0	0	0	0	0	0	0	0	0	0	0	0	0	0	0	0	0	0	0	0	0	0	0	0	0	0	0	0	0	0	0	0	0
121118	13:54:10	14:11:10	1019261	5.0.10.0	4_exp_EVA_AMP_AWA_CON	5	Rpleas_acq	Oppo	Lpleas	Bmasked	CS_B	1pleas	distractor1	EVAbeforeCON	AMP_distractor	AMP23	9	19	0	0	300	300	0	0	336	50	-47,3632812499999928946	0	0	0	0	1	blank2r.bmp	0	1	WFPH	0	1	blank2r.bmp	79	16	pic16.bmp	199	1	whitenoise_No3.bmp	306	0	0	0	0	0	0	0	0	0	0	0	0	0	0	0	0	0	0	0	0	0	0	0	0	0	0	0	0	0	0	0	0	0	0	0	0	0	0	0
121118	13:54:10	14:11:11	1020487	5.0.10.0	4_exp_EVA_AMP_AWA_CON	5	Rpleas_acq	Oppo	Lpleas	Bmasked	CS_B	1pleas	distractor1	EVAbeforeCON	AMP_distractor	AMP23	9	20	0	0	300	300	0	0	303	46	-47,3632812499999928946	0	0	0	0	1	blank2r.bmp	0	1	WFPH	0	1	blank2r.bmp	79	13	pic13.bmp	199	1	whitenoise_No3.bmp	306	0	0	0	0	0	0	0	0	0	0	0	0	0	0	0	0	0	0	0	0	0	0	0	0	0	0	0	0	0	0	0	0	0	0	0	0	0	0	0
121118	13:54:10	14:11:12	1021700	5.0.10.0	4_exp_EVA_AMP_AWA_CON	5	Rpleas_acq	Oppo	Lpleas	Bmasked	CS_B	1pleas	distractor1	EVAbeforeCON	AMP_CSpleas	AMP23	9	21	0	0	300	300	0	0	287	50	-47,3632812499999928946	0	0	0	0	1	blank2r.bmp	0	1	BMVZ	0	1	blank2r.bmp	79	57	pic57.bmp	199	1	whitenoise_No3.bmp	306	0	0	0	0	0	0	0	0	0	0	0	0	0	0	0	0	0	0	0	0	0	0	0	0	0	0	0	0	0	0	0	0	0	0	0	0	0	0	0
121118	13:54:10	14:11:13	1022912	5.0.10.0	4_exp_EVA_AMP_AWA_CON	5	Rpleas_acq	Oppo	Lpleas	Bmasked	CS_B	1pleas	distractor1	EVAbeforeCON	AMP_distractor	AMP23	9	22	0	0	300	300	0	0	302	46	-47,3632812499999928946	0	0	0	0	1	blank2r.bmp	0	1	WFPH	0	1	blank2r.bmp	79	140	pic140.bmp	199	1	whitenoise_No3.bmp	306	0	0	0	0	0	0	0	0	0	0	0	0	0	0	0	0	0	0	0	0	0	0	0	0	0	0	0	0	0	0	0	0	0	0	0	0	0	0	0
121118	13:54:10	14:11:14	1024112	5.0.10.0	4_exp_EVA_AMP_AWA_CON	5	Rpleas_acq	Oppo	Lpleas	Bmasked	CS_B	1pleas	distractor1	EVAbeforeCON	AMP_CSpleas	AMP23	9	23	0	0	300	300	0	0	270	50	-47,3632812499999928946	0	0	0	0	1	blank2r.bmp	0	1	BMVZ	0	1	blank2r.bmp	79	24	pic24.bmp	199	1	whitenoise_No3.bmp	306	0	0	0	0	0	0	0	0	0	0	0	0	0	0	0	0	0	0	0	0	0	0	0	0	0	0	0	0	0	0	0	0	0	0	0	0	0	0	0
121118	13:54:10	14:11:16	1025298	5.0.10.0	4_exp_EVA_AMP_AWA_CON	5	Rpleas_acq	Oppo	Lpleas	Bmasked	CS_B	1pleas	distractor1	EVAbeforeCON	AMP_CSpleas	AMP23	9	24	0	0	300	300	0	0	261	46	-47,3632812499999928946	1	0	0	0	1	blank2r.bmp	0	1	BMVZ	0	1	blank2r.bmp	79	89	pic89.bmp	199	1	whitenoise_No3.bmp	306	0	0	0	0	0	0	0	0	0	0	0	0	0	0	0	0	0	0	0	0	0	0	0	0	0	0	0	0	0	0	0	0	0	0	0	0	0	0	0
121118	13:54:10	14:11:17	1026471	5.0.10.0	4_exp_EVA_AMP_AWA_CON	5	Rpleas_acq	Oppo	Lpleas	Bmasked	CS_B	1pleas	distractor1	EVAbeforeCON	AMP_CSunple	AMP23	9	25	0	0	300	300	0	0	251	50	-47,3632812499999928946	1	0	0	0	1	blank2r.bmp	0	1	GKQX	0	1	blank2r.bmp	79	84	pic84.bmp	199	1	whitenoise_No3.bmp	306	0	0	0	0	0	0	0	0	0	0	0	0	0	0	0	0	0	0	0	0	0	0	0	0	0	0	0	0	0	0	0	0	0	0	0	0	0	0	0
