date	time	script.currenttime	script.elapsedtime	build	script.currentexpt	subject	expressions.LRpleas_acq	expressions.SameOppo	expressions.condition_Lpleas	expressions.ABmasked	expressions.conditionCS_A	expressions.condition_1pleas	expressions.condition_distractor_AMP	expressions.AWACON_AMPEVA_first	trialcode	blockcode	blocknum	trialnum	windowcenter	inwindow	pretrialpause	posttrialpause	trialduration	trialtimeout	latency	response	expressions.correctedscore	correct	values.vis_performance	values.vis_rating_sum	values.vis_rating_mean	stimulusnumber1	stimulusitem1	stimulusonset1	stimulusnumber2	stimulusitem2	stimulusonset2	stimulusnumber3	stimulusitem3	stimulusonset3	stimulusnumber4	stimulusitem4	stimulusonset4	stimulusnumber5	stimulusitem5	stimulusonset5	stimulusnumber6	stimulusitem6	stimulusonset6	stimulusnumber7	stimulusitem7	stimulusonset7	stimulusnumber8	stimulusitem8	stimulusonset8	stimulusnumber9	stimulusitem9	stimulusonset9	stimulusnumber10	stimulusitem10	stimulusonset10	stimulusnumber11	stimulusitem11	stimulusonset11	stimulusnumber12	stimulusitem12	stimulusonset12	stimulusnumber13	stimulusitem13	stimulusonset13	stimulusnumber14	stimulusitem14	stimulusonset14	stimulusnumber15	stimulusitem15	stimulusonset15	stimulusnumber16	stimulusitem16	stimulusonset16	stimulusnumber17	stimulusitem17	stimulusonset17	stimulusnumber18	stimulusitem18	stimulusonset18
012419	12:08:19	12:10:08	106435	5.0.10.0	4_exp_AMP_EVA_AWA_CON	88	Rpleas_acq	Oppo	Rpleas	Amasked	CS_A	2pleas	distractor2	EVAbeforeCON	acq_US_unple_masked	acq1_masked	1	1	0	0	300	300	0	0	873	46	0	1	0	0	0	1	blank2r.bmp	0	1	+	0	1	B1r.bmp	492	1	blank2r.bmp	786	1	CPLW	786	1	blank2r.bmp	866	6	verbissen	866	0	0	0	0	0	0	0	0	0	0	0	0	0	0	0	0	0	0	0	0	0	0	0	0	0	0	0	0	0	0	0	0	0
012419	12:08:19	12:10:10	108461	5.0.10.0	4_exp_AMP_EVA_AWA_CON	88	Rpleas_acq	Oppo	Rpleas	Amasked	CS_A	2pleas	distractor2	EVAbeforeCON	acq_US_pleas_masked	acq1_masked	1	2	0	0	300	300	0	0	554	50	0	1	0	0	0	1	blank2r.bmp	0	1	+	0	6	C2r.bmp	492	1	blank2r.bmp	786	1	DHJF	786	1	blank2r.bmp	866	6	vergnügt	866	0	0	0	0	0	0	0	0	0	0	0	0	0	0	0	0	0	0	0	0	0	0	0	0	0	0	0	0	0	0	0	0	0
012419	12:08:19	12:10:12	110500	5.0.10.0	4_exp_AMP_EVA_AWA_CON	88	Rpleas_acq	Oppo	Rpleas	Amasked	CS_A	2pleas	distractor2	EVAbeforeCON	acq_US_pleas_masked	acq1_masked	1	3	0	0	300	300	0	0	567	50	0	1	0	0	0	1	blank2r.bmp	0	1	+	0	7	C3r.bmp	492	1	blank2r.bmp	786	1	DHJF	786	1	blank2r.bmp	866	4	kreativ	866	0	0	0	0	0	0	0	0	0	0	0	0	0	0	0	0	0	0	0	0	0	0	0	0	0	0	0	0	0	0	0	0	0
012419	12:08:19	12:10:14	112526	5.0.10.0	4_exp_AMP_EVA_AWA_CON	88	Rpleas_acq	Oppo	Rpleas	Amasked	CS_A	2pleas	distractor2	EVAbeforeCON	acq_new_pleas_masked	acq1_masked	1	4	0	0	300	300	0	0	543	50	0	1	0	0	0	1	blank2r.bmp	0	1	+	0	3	B3r.bmp	492	1	blank2r.bmp	786	6	C2r.bmp	786	1	blank2r.bmp	866	4	träumen	866	0	0	0	0	0	0	0	0	0	0	0	0	0	0	0	0	0	0	0	0	0	0	0	0	0	0	0	0	0	0	0	0	0
012419	12:08:19	12:10:16	114619	5.0.10.0	4_exp_AMP_EVA_AWA_CON	88	Rpleas_acq	Oppo	Rpleas	Amasked	CS_A	2pleas	distractor2	EVAbeforeCON	acq_new_unple_masked	acq1_masked	1	5	0	0	300	300	0	0	609	46	0	1	0	0	0	1	blank2r.bmp	0	1	+	0	8	C4r.bmp	492	1	blank2r.bmp	786	5	C1r.bmp	786	1	blank2r.bmp	866	5	krise	866	0	0	0	0	0	0	0	0	0	0	0	0	0	0	0	0	0	0	0	0	0	0	0	0	0	0	0	0	0	0	0	0	0
012419	12:08:19	12:10:18	116658	5.0.10.0	4_exp_AMP_EVA_AWA_CON	88	Rpleas_acq	Oppo	Rpleas	Amasked	CS_A	2pleas	distractor2	EVAbeforeCON	acq_new_pleas_masked	acq1_masked	1	6	0	0	300	300	0	0	549	50	0	1	0	0	0	1	blank2r.bmp	0	1	+	0	2	B2r.bmp	492	1	blank2r.bmp	786	7	C3r.bmp	786	1	blank2r.bmp	866	1	anregung	866	0	0	0	0	0	0	0	0	0	0	0	0	0	0	0	0	0	0	0	0	0	0	0	0	0	0	0	0	0	0	0	0	0
012419	12:08:19	12:10:20	118724	5.0.10.0	4_exp_AMP_EVA_AWA_CON	88	Rpleas_acq	Oppo	Rpleas	Amasked	CS_A	2pleas	distractor2	EVAbeforeCON	acq_US_unple_masked	acq1_masked	1	7	0	0	300	300	0	0	595	46	0	1	0	0	0	1	blank2r.bmp	0	1	+	0	5	C1r.bmp	492	1	blank2r.bmp	786	1	CPLW	786	1	blank2r.bmp	866	3	gemein	866	0	0	0	0	0	0	0	0	0	0	0	0	0	0	0	0	0	0	0	0	0	0	0	0	0	0	0	0	0	0	0	0	0
012419	12:08:19	12:10:22	120803	5.0.10.0	4_exp_AMP_EVA_AWA_CON	88	Rpleas_acq	Oppo	Rpleas	Amasked	CS_A	2pleas	distractor2	EVAbeforeCON	acq_new_unple_masked	acq1_masked	1	8	0	0	300	300	0	0	589	46	0	1	0	0	0	1	blank2r.bmp	0	1	+	0	4	B4r.bmp	492	1	blank2r.bmp	786	8	C4r.bmp	786	1	blank2r.bmp	866	3	engstirnig	866	0	0	0	0	0	0	0	0	0	0	0	0	0	0	0	0	0	0	0	0	0	0	0	0	0	0	0	0	0	0	0	0	0
012419	12:08:19	12:10:24	122789	5.0.10.0	4_exp_AMP_EVA_AWA_CON	88	Rpleas_acq	Oppo	Rpleas	Amasked	CS_A	2pleas	distractor2	EVAbeforeCON	acq_new_unple_masked	acq1_masked	1	9	0	0	300	300	0	0	507	46	0	1	0	0	0	1	blank2r.bmp	0	1	+	0	1	B1r.bmp	492	1	blank2r.bmp	786	4	B4r.bmp	786	1	blank2r.bmp	866	6	geizig	866	0	0	0	0	0	0	0	0	0	0	0	0	0	0	0	0	0	0	0	0	0	0	0	0	0	0	0	0	0	0	0	0	0
012419	12:08:19	12:10:26	124775	5.0.10.0	4_exp_AMP_EVA_AWA_CON	88	Rpleas_acq	Oppo	Rpleas	Amasked	CS_A	2pleas	distractor2	EVAbeforeCON	acq_US_pleas_masked	acq1_masked	1	10	0	0	300	300	0	0	510	50	0	1	0	0	0	1	blank2r.bmp	0	1	+	0	3	B3r.bmp	492	1	blank2r.bmp	786	1	DHJF	786	1	blank2r.bmp	866	2	gütig	866	0	0	0	0	0	0	0	0	0	0	0	0	0	0	0	0	0	0	0	0	0	0	0	0	0	0	0	0	0	0	0	0	0
012419	12:08:19	12:10:28	126854	5.0.10.0	4_exp_AMP_EVA_AWA_CON	88	Rpleas_acq	Oppo	Rpleas	Amasked	CS_A	2pleas	distractor2	EVAbeforeCON	acq_US_unple_masked	acq1_masked	1	11	0	0	300	300	0	0	594	46	0	1	0	0	0	1	blank2r.bmp	0	1	+	0	5	C1r.bmp	492	1	blank2r.bmp	786	1	CPLW	786	1	blank2r.bmp	866	2	gierig	866	0	0	0	0	0	0	0	0	0	0	0	0	0	0	0	0	0	0	0	0	0	0	0	0	0	0	0	0	0	0	0	0	0
012419	12:08:19	12:10:30	128920	5.0.10.0	4_exp_AMP_EVA_AWA_CON	88	Rpleas_acq	Oppo	Rpleas	Amasked	CS_A	2pleas	distractor2	EVAbeforeCON	acq_new_pleas_masked	acq1_masked	1	12	0	0	300	300	0	0	594	50	0	1	0	0	0	1	blank2r.bmp	0	1	+	0	6	C2r.bmp	492	1	blank2r.bmp	786	2	B2r.bmp	786	1	blank2r.bmp	866	3	engagiert	866	0	0	0	0	0	0	0	0	0	0	0	0	0	0	0	0	0	0	0	0	0	0	0	0	0	0	0	0	0	0	0	0	0
012419	12:08:19	12:10:32	130932	5.0.10.0	4_exp_AMP_EVA_AWA_CON	88	Rpleas_acq	Oppo	Rpleas	Amasked	CS_A	2pleas	distractor2	EVAbeforeCON	acq_new_pleas_masked	acq1_masked	1	13	0	0	300	300	0	0	521	50	0	1	0	0	0	1	blank2r.bmp	0	1	+	0	2	B2r.bmp	492	1	blank2r.bmp	786	1	B1r.bmp	786	1	blank2r.bmp	866	5	kuss	866	0	0	0	0	0	0	0	0	0	0	0	0	0	0	0	0	0	0	0	0	0	0	0	0	0	0	0	0	0	0	0	0	0
012419	12:08:19	12:10:34	132945	5.0.10.0	4_exp_AMP_EVA_AWA_CON	88	Rpleas_acq	Oppo	Rpleas	Amasked	CS_A	2pleas	distractor2	EVAbeforeCON	acq_US_pleas_masked	acq1_masked	1	14	0	0	300	300	0	0	534	50	0	1	0	0	0	1	blank2r.bmp	0	1	+	0	8	C4r.bmp	492	1	blank2r.bmp	786	1	DHJF	786	1	blank2r.bmp	866	1	vertrauen	866	0	0	0	0	0	0	0	0	0	0	0	0	0	0	0	0	0	0	0	0	0	0	0	0	0	0	0	0	0	0	0	0	0
012419	12:08:19	12:10:38	136450	5.0.10.0	4_exp_AMP_EVA_AWA_CON	88	Rpleas_acq	Oppo	Rpleas	Amasked	CS_A	2pleas	distractor2	EVAbeforeCON	acq_new_pleas_masked	acq1_masked	1	15	0	0	300	300	0	0	2033	50	0	1	0	0	0	1	blank2r.bmp	0	1	+	0	4	B4r.bmp	492	1	blank2r.bmp	786	3	B3r.bmp	786	1	blank2r.bmp	866	6	gesittet	866	0	0	0	0	0	0	0	0	0	0	0	0	0	0	0	0	0	0	0	0	0	0	0	0	0	0	0	0	0	0	0	0	0
012419	12:08:19	12:10:40	138489	5.0.10.0	4_exp_AMP_EVA_AWA_CON	88	Rpleas_acq	Oppo	Rpleas	Amasked	CS_A	2pleas	distractor2	EVAbeforeCON	acq_US_unple_masked	acq1_masked	1	16	0	0	300	300	0	0	566	46	0	1	0	0	0	1	blank2r.bmp	0	1	+	0	7	C3r.bmp	492	1	blank2r.bmp	786	1	CPLW	786	1	blank2r.bmp	866	5	sterben	866	0	0	0	0	0	0	0	0	0	0	0	0	0	0	0	0	0	0	0	0	0	0	0	0	0	0	0	0	0	0	0	0	0
012419	12:08:19	12:10:42	140648	5.0.10.0	4_exp_AMP_EVA_AWA_CON	88	Rpleas_acq	Oppo	Rpleas	Amasked	CS_A	2pleas	distractor2	EVAbeforeCON	acq_new_pleas_masked	acq1_masked	1	17	0	0	300	300	0	0	672	50	0	1	0	0	0	1	blank2r.bmp	0	1	+	0	8	C4r.bmp	492	1	blank2r.bmp	786	6	C2r.bmp	786	1	blank2r.bmp	866	2	besonnen	866	0	0	0	0	0	0	0	0	0	0	0	0	0	0	0	0	0	0	0	0	0	0	0	0	0	0	0	0	0	0	0	0	0
012419	12:08:19	12:10:44	142647	5.0.10.0	4_exp_AMP_EVA_AWA_CON	88	Rpleas_acq	Oppo	Rpleas	Amasked	CS_A	2pleas	distractor2	EVAbeforeCON	acq_US_unple_masked	acq1_masked	1	18	0	0	300	300	0	0	527	46	0	1	0	0	0	1	blank2r.bmp	0	1	+	0	5	C1r.bmp	492	1	blank2r.bmp	786	1	CPLW	786	1	blank2r.bmp	866	1	versagen	866	0	0	0	0	0	0	0	0	0	0	0	0	0	0	0	0	0	0	0	0	0	0	0	0	0	0	0	0	0	0	0	0	0
012419	12:08:19	12:10:46	144686	5.0.10.0	4_exp_AMP_EVA_AWA_CON	88	Rpleas_acq	Oppo	Rpleas	Amasked	CS_A	2pleas	distractor2	EVAbeforeCON	acq_new_unple_masked	acq1_masked	1	19	0	0	300	300	0	0	549	46	0	1	0	0	0	1	blank2r.bmp	0	1	+	0	1	B1r.bmp	492	1	blank2r.bmp	786	8	C4r.bmp	786	1	blank2r.bmp	866	1	ausrottung	866	0	0	0	0	0	0	0	0	0	0	0	0	0	0	0	0	0	0	0	0	0	0	0	0	0	0	0	0	0	0	0	0	0
012419	12:08:19	12:10:48	146646	5.0.10.0	4_exp_AMP_EVA_AWA_CON	88	Rpleas_acq	Oppo	Rpleas	Amasked	CS_A	2pleas	distractor2	EVAbeforeCON	acq_US_unple_masked	acq1_masked	1	20	0	0	300	300	0	0	480	46	0	1	0	0	0	1	blank2r.bmp	0	1	+	0	3	B3r.bmp	492	1	blank2r.bmp	786	1	CPLW	786	1	blank2r.bmp	866	4	krank	866	0	0	0	0	0	0	0	0	0	0	0	0	0	0	0	0	0	0	0	0	0	0	0	0	0	0	0	0	0	0	0	0	0
012419	12:08:19	12:10:50	148578	5.0.10.0	4_exp_AMP_EVA_AWA_CON	88	Rpleas_acq	Oppo	Rpleas	Amasked	CS_A	2pleas	distractor2	EVAbeforeCON	acq_new_unple_masked	acq1_masked	1	21	0	0	300	300	0	0	449	46	0	1	0	0	0	1	blank2r.bmp	0	1	+	0	6	C2r.bmp	492	1	blank2r.bmp	786	1	B1r.bmp	786	1	blank2r.bmp	866	4	töten	866	0	0	0	0	0	0	0	0	0	0	0	0	0	0	0	0	0	0	0	0	0	0	0	0	0	0	0	0	0	0	0	0	0
012419	12:08:19	12:10:52	150537	5.0.10.0	4_exp_AMP_EVA_AWA_CON	88	Rpleas_acq	Oppo	Rpleas	Amasked	CS_A	2pleas	distractor2	EVAbeforeCON	acq_US_pleas_masked	acq1_masked	1	22	0	0	300	300	0	0	467	50	0	1	0	0	0	1	blank2r.bmp	0	1	+	0	2	B2r.bmp	492	1	blank2r.bmp	786	1	DHJF	786	1	blank2r.bmp	866	5	sonnig	866	0	0	0	0	0	0	0	0	0	0	0	0	0	0	0	0	0	0	0	0	0	0	0	0	0	0	0	0	0	0	0	0	0
012419	12:08:19	12:10:54	152803	5.0.10.0	4_exp_AMP_EVA_AWA_CON	88	Rpleas_acq	Oppo	Rpleas	Amasked	CS_A	2pleas	distractor2	EVAbeforeCON	acq_new_unple_masked	acq1_masked	1	23	0	0	300	300	0	0	788	46	0	1	0	0	0	1	blank2r.bmp	0	1	+	0	7	C3r.bmp	492	1	blank2r.bmp	786	2	B2r.bmp	786	1	blank2r.bmp	866	2	bange	866	0	0	0	0	0	0	0	0	0	0	0	0	0	0	0	0	0	0	0	0	0	0	0	0	0	0	0	0	0	0	0	0	0
012419	12:08:19	12:10:56	154749	5.0.10.0	4_exp_AMP_EVA_AWA_CON	88	Rpleas_acq	Oppo	Rpleas	Amasked	CS_A	2pleas	distractor2	EVAbeforeCON	acq_US_pleas_masked	acq1_masked	1	24	0	0	300	300	0	0	475	50	0	1	0	0	0	1	blank2r.bmp	0	1	+	0	4	B4r.bmp	492	1	blank2r.bmp	786	1	DHJF	786	1	blank2r.bmp	866	3	genießen	866	0	0	0	0	0	0	0	0	0	0	0	0	0	0	0	0	0	0	0	0	0	0	0	0	0	0	0	0	0	0	0	0	0
012419	12:08:19	12:10:58	156681	5.0.10.0	4_exp_AMP_EVA_AWA_CON	88	Rpleas_acq	Oppo	Rpleas	Amasked	CS_A	2pleas	distractor2	EVAbeforeCON	acq_new_pleas_masked	acq1_masked	1	25	0	0	300	300	0	0	446	50	0	1	0	0	0	1	blank2r.bmp	0	1	+	0	6	C2r.bmp	492	1	blank2r.bmp	786	7	C3r.bmp	786	1	blank2r.bmp	866	4	träumen	866	0	0	0	0	0	0	0	0	0	0	0	0	0	0	0	0	0	0	0	0	0	0	0	0	0	0	0	0	0	0	0	0	0
012419	12:08:19	12:11:00	158774	5.0.10.0	4_exp_AMP_EVA_AWA_CON	88	Rpleas_acq	Oppo	Rpleas	Amasked	CS_A	2pleas	distractor2	EVAbeforeCON	acq_new_unple_masked	acq1_masked	1	26	0	0	300	300	0	0	613	46	0	1	0	0	0	1	blank2r.bmp	0	1	+	0	7	C3r.bmp	492	1	blank2r.bmp	786	3	B3r.bmp	786	1	blank2r.bmp	866	2	bange	866	0	0	0	0	0	0	0	0	0	0	0	0	0	0	0	0	0	0	0	0	0	0	0	0	0	0	0	0	0	0	0	0	0
012419	12:08:19	12:11:02	160733	5.0.10.0	4_exp_AMP_EVA_AWA_CON	88	Rpleas_acq	Oppo	Rpleas	Amasked	CS_A	2pleas	distractor2	EVAbeforeCON	acq_US_unple_masked	acq1_masked	1	27	0	0	300	300	0	0	491	46	0	1	0	0	0	1	blank2r.bmp	0	1	+	0	1	B1r.bmp	492	1	blank2r.bmp	786	1	CPLW	786	1	blank2r.bmp	866	6	verbissen	866	0	0	0	0	0	0	0	0	0	0	0	0	0	0	0	0	0	0	0	0	0	0	0	0	0	0	0	0	0	0	0	0	0
012419	12:08:19	12:11:04	162706	5.0.10.0	4_exp_AMP_EVA_AWA_CON	88	Rpleas_acq	Oppo	Rpleas	Amasked	CS_A	2pleas	distractor2	EVAbeforeCON	acq_US_unple_masked	acq1_masked	1	28	0	0	300	300	0	0	486	46	0	1	0	0	0	1	blank2r.bmp	0	1	+	0	4	B4r.bmp	492	1	blank2r.bmp	786	1	CPLW	786	1	blank2r.bmp	866	3	gemein	866	0	0	0	0	0	0	0	0	0	0	0	0	0	0	0	0	0	0	0	0	0	0	0	0	0	0	0	0	0	0	0	0	0
012419	12:08:19	12:11:06	164665	5.0.10.0	4_exp_AMP_EVA_AWA_CON	88	Rpleas_acq	Oppo	Rpleas	Amasked	CS_A	2pleas	distractor2	EVAbeforeCON	acq_new_unple_masked	acq1_masked	1	29	0	0	300	300	0	0	478	46	0	1	0	0	0	1	blank2r.bmp	0	1	+	0	8	C4r.bmp	492	1	blank2r.bmp	786	4	B4r.bmp	786	1	blank2r.bmp	866	4	töten	866	0	0	0	0	0	0	0	0	0	0	0	0	0	0	0	0	0	0	0	0	0	0	0	0	0	0	0	0	0	0	0	0	0
012419	12:08:19	12:11:08	166731	5.0.10.0	4_exp_AMP_EVA_AWA_CON	88	Rpleas_acq	Oppo	Rpleas	Amasked	CS_A	2pleas	distractor2	EVAbeforeCON	acq_new_pleas_masked	acq1_masked	1	30	0	0	300	300	0	0	590	50	0	1	0	0	0	1	blank2r.bmp	0	1	+	0	3	B3r.bmp	492	1	blank2r.bmp	786	5	C1r.bmp	786	1	blank2r.bmp	866	2	besonnen	866	0	0	0	0	0	0	0	0	0	0	0	0	0	0	0	0	0	0	0	0	0	0	0	0	0	0	0	0	0	0	0	0	0
012419	12:08:19	12:11:10	168717	5.0.10.0	4_exp_AMP_EVA_AWA_CON	88	Rpleas_acq	Oppo	Rpleas	Amasked	CS_A	2pleas	distractor2	EVAbeforeCON	acq_US_pleas_masked	acq1_masked	1	31	0	0	300	300	0	0	510	50	0	1	0	0	0	1	blank2r.bmp	0	1	+	0	5	C1r.bmp	492	1	blank2r.bmp	786	1	DHJF	786	1	blank2r.bmp	866	1	vertrauen	866	0	0	0	0	0	0	0	0	0	0	0	0	0	0	0	0	0	0	0	0	0	0	0	0	0	0	0	0	0	0	0	0	0
012419	12:08:19	12:11:12	170649	5.0.10.0	4_exp_AMP_EVA_AWA_CON	88	Rpleas_acq	Oppo	Rpleas	Amasked	CS_A	2pleas	distractor2	EVAbeforeCON	acq_US_pleas_masked	acq1_masked	1	32	0	0	300	300	0	0	448	50	0	1	0	0	0	1	blank2r.bmp	0	1	+	0	2	B2r.bmp	492	1	blank2r.bmp	786	1	DHJF	786	1	blank2r.bmp	866	5	sonnig	866	0	0	0	0	0	0	0	0	0	0	0	0	0	0	0	0	0	0	0	0	0	0	0	0	0	0	0	0	0	0	0	0	0
012419	12:08:19	12:11:14	172582	5.0.10.0	4_exp_AMP_EVA_AWA_CON	88	Rpleas_acq	Oppo	Rpleas	Amasked	CS_A	2pleas	distractor2	EVAbeforeCON	acq_US_pleas_masked	acq1_masked	1	33	0	0	300	300	0	0	447	50	0	1	0	0	0	1	blank2r.bmp	0	1	+	0	4	B4r.bmp	492	1	blank2r.bmp	786	1	DHJF	786	1	blank2r.bmp	866	6	vergnügt	866	0	0	0	0	0	0	0	0	0	0	0	0	0	0	0	0	0	0	0	0	0	0	0	0	0	0	0	0	0	0	0	0	0
012419	12:08:19	12:11:16	174647	5.0.10.0	4_exp_AMP_EVA_AWA_CON	88	Rpleas_acq	Oppo	Rpleas	Amasked	CS_A	2pleas	distractor2	EVAbeforeCON	acq_new_unple_masked	acq1_masked	1	34	0	0	300	300	0	0	574	46	0	1	0	0	0	1	blank2r.bmp	0	1	+	0	3	B3r.bmp	492	1	blank2r.bmp	786	5	C1r.bmp	786	1	blank2r.bmp	866	6	geizig	866	0	0	0	0	0	0	0	0	0	0	0	0	0	0	0	0	0	0	0	0	0	0	0	0	0	0	0	0	0	0	0	0	0
012419	12:08:19	12:11:18	176727	5.0.10.0	4_exp_AMP_EVA_AWA_CON	88	Rpleas_acq	Oppo	Rpleas	Amasked	CS_A	2pleas	distractor2	EVAbeforeCON	acq_new_pleas_masked	acq1_masked	1	35	0	0	300	300	0	0	586	50	0	1	0	0	0	1	blank2r.bmp	0	1	+	0	1	B1r.bmp	492	1	blank2r.bmp	786	7	C3r.bmp	786	1	blank2r.bmp	866	1	anregung	866	0	0	0	0	0	0	0	0	0	0	0	0	0	0	0	0	0	0	0	0	0	0	0	0	0	0	0	0	0	0	0	0	0
012419	12:08:19	12:11:20	178686	5.0.10.0	4_exp_AMP_EVA_AWA_CON	88	Rpleas_acq	Oppo	Rpleas	Amasked	CS_A	2pleas	distractor2	EVAbeforeCON	acq_US_unple_masked	acq1_masked	1	36	0	0	300	300	0	0	484	46	0	1	0	0	0	1	blank2r.bmp	0	1	+	0	5	C1r.bmp	492	1	blank2r.bmp	786	1	CPLW	786	1	blank2r.bmp	866	2	gierig	866	0	0	0	0	0	0	0	0	0	0	0	0	0	0	0	0	0	0	0	0	0	0	0	0	0	0	0	0	0	0	0	0	0
012419	12:08:19	12:11:54	213018	5.0.10.0	4_exp_AMP_EVA_AWA_CON	88	Rpleas_acq	Oppo	Rpleas	Amasked	CS_A	2pleas	distractor2	EVAbeforeCON	acq_new_pleas_masked	acq2_masked	2	1	480	0	300	300	0	0	819	50	0	1	0	0	0	1	blank2r.bmp	0	1	+	0	2	B2r.bmp	492	1	blank2r.bmp	786	3	B3r.bmp	786	1	blank2r.bmp	866	5	kuss	866	1	!	1319	1	!	-1	0	0	0	0	0	0	0	0	0	0	0	0	0	0	0	0	0	0	0	0	0	0	0	0	0	0	0
012419	12:08:19	12:11:56	215191	5.0.10.0	4_exp_AMP_EVA_AWA_CON	88	Rpleas_acq	Oppo	Rpleas	Amasked	CS_A	2pleas	distractor2	EVAbeforeCON	acq_US_unple_masked	acq2_masked	2	2	480	0	300	300	0	0	388	46	0	1	0	0	0	1	blank2r.bmp	0	1	+	0	7	C3r.bmp	492	1	blank2r.bmp	786	1	CPLW	786	1	blank2r.bmp	866	5	sterben	866	1	!	-1	1	!	-1	0	0	0	0	0	0	0	0	0	0	0	0	0	0	0	0	0	0	0	0	0	0	0	0	0	0	0
012419	12:08:19	12:11:59	217670	5.0.10.0	4_exp_AMP_EVA_AWA_CON	88	Rpleas_acq	Oppo	Rpleas	Amasked	CS_A	2pleas	distractor2	EVAbeforeCON	acq_US_pleas_masked	acq2_masked	2	3	480	1	300	300	0	0	462	46	0	0	0	0	0	1	blank2r.bmp	0	1	+	0	8	C4r.bmp	492	1	blank2r.bmp	786	1	DHJF	786	1	blank2r.bmp	866	4	kreativ	866	1	FEHLER	1679	1	!	1319	1	!	1359	0	0	0	0	0	0	0	0	0	0	0	0	0	0	0	0	0	0	0	0	0	0	0	0
012419	12:08:19	12:12:01	219962	5.0.10.0	4_exp_AMP_EVA_AWA_CON	88	Rpleas_acq	Oppo	Rpleas	Amasked	CS_A	2pleas	distractor2	EVAbeforeCON	acq_US_unple_masked	acq2_masked	2	4	480	0	300	300	0	0	722	46	0	1	0	0	0	1	blank2r.bmp	0	1	+	0	6	C2r.bmp	492	1	blank2r.bmp	786	1	CPLW	786	1	blank2r.bmp	866	1	versagen	866	1	!	1319	1	!	-1	0	0	0	0	0	0	0	0	0	0	0	0	0	0	0	0	0	0	0	0	0	0	0	0	0	0	0
012419	12:08:19	12:12:03	222228	5.0.10.0	4_exp_AMP_EVA_AWA_CON	88	Rpleas_acq	Oppo	Rpleas	Amasked	CS_A	2pleas	distractor2	EVAbeforeCON	acq_US_unple_masked	acq2_masked	2	5	480	1	300	300	0	0	465	46	0	1	0	0	0	1	blank2r.bmp	0	1	+	0	2	B2r.bmp	492	1	blank2r.bmp	786	1	CPLW	786	1	blank2r.bmp	866	4	krank	866	1	!	1319	1	!	1359	0	0	0	0	0	0	0	0	0	0	0	0	0	0	0	0	0	0	0	0	0	0	0	0	0	0	0
012419	12:08:19	12:12:06	224654	5.0.10.0	4_exp_AMP_EVA_AWA_CON	88	Rpleas_acq	Oppo	Rpleas	Amasked	CS_A	2pleas	distractor2	EVAbeforeCON	acq_new_unple_masked	acq2_masked	2	6	480	0	300	300	0	0	657	46	0	1	0	0	0	1	blank2r.bmp	0	1	+	0	1	B1r.bmp	492	1	blank2r.bmp	786	2	B2r.bmp	786	1	blank2r.bmp	866	3	engstirnig	866	1	!	1319	1	!	-1	0	0	0	0	0	0	0	0	0	0	0	0	0	0	0	0	0	0	0	0	0	0	0	0	0	0	0
012419	12:08:19	12:12:08	227199	5.0.10.0	4_exp_AMP_EVA_AWA_CON	88	Rpleas_acq	Oppo	Rpleas	Amasked	CS_A	2pleas	distractor2	EVAbeforeCON	acq_new_pleas_masked	acq2_masked	2	7	480	1	300	300	0	0	522	46	0	0	0	0	0	1	blank2r.bmp	0	1	+	0	7	C3r.bmp	492	1	blank2r.bmp	786	4	B4r.bmp	786	1	blank2r.bmp	866	6	gesittet	866	1	FEHLER	1745	1	!	1319	1	!	1426	0	0	0	0	0	0	0	0	0	0	0	0	0	0	0	0	0	0	0	0	0	0	0	0
012419	12:08:19	12:12:10	229225	5.0.10.0	4_exp_AMP_EVA_AWA_CON	88	Rpleas_acq	Oppo	Rpleas	Amasked	CS_A	2pleas	distractor2	EVAbeforeCON	acq_new_unple_masked	acq2_masked	2	8	480	1	300	300	0	0	442	46	0	1	0	0	0	1	blank2r.bmp	0	1	+	0	4	B4r.bmp	492	1	blank2r.bmp	786	6	C2r.bmp	786	1	blank2r.bmp	866	1	ausrottung	866	1	!	1319	1	!	1346	0	0	0	0	0	0	0	0	0	0	0	0	0	0	0	0	0	0	0	0	0	0	0	0	0	0	0
012419	12:08:19	12:12:13	231491	5.0.10.0	4_exp_AMP_EVA_AWA_CON	88	Rpleas_acq	Oppo	Rpleas	Amasked	CS_A	2pleas	distractor2	EVAbeforeCON	acq_new_unple_masked	acq2_masked	2	9	480	1	300	300	0	0	475	46	0	1	0	0	0	1	blank2r.bmp	0	1	+	0	8	C4r.bmp	492	1	blank2r.bmp	786	1	B1r.bmp	786	1	blank2r.bmp	866	5	krise	866	1	!	1319	1	!	1372	0	0	0	0	0	0	0	0	0	0	0	0	0	0	0	0	0	0	0	0	0	0	0	0	0	0	0
012419	12:08:19	12:12:15	233676	5.0.10.0	4_exp_AMP_EVA_AWA_CON	88	Rpleas_acq	Oppo	Rpleas	Amasked	CS_A	2pleas	distractor2	EVAbeforeCON	acq_US_pleas_masked	acq2_masked	2	10	480	0	300	300	0	0	411	50	0	1	0	0	0	1	blank2r.bmp	0	1	+	0	5	C1r.bmp	492	1	blank2r.bmp	786	1	DHJF	786	1	blank2r.bmp	866	2	gütig	866	1	!	-1	1	!	-1	0	0	0	0	0	0	0	0	0	0	0	0	0	0	0	0	0	0	0	0	0	0	0	0	0	0	0
012419	12:08:19	12:12:17	235929	5.0.10.0	4_exp_AMP_EVA_AWA_CON	88	Rpleas_acq	Oppo	Rpleas	Amasked	CS_A	2pleas	distractor2	EVAbeforeCON	acq_US_pleas_masked	acq2_masked	2	11	480	1	300	300	0	0	440	50	0	1	0	0	0	1	blank2r.bmp	0	1	+	0	3	B3r.bmp	492	1	blank2r.bmp	786	1	DHJF	786	1	blank2r.bmp	866	3	genießen	866	1	!	1319	1	!	1346	0	0	0	0	0	0	0	0	0	0	0	0	0	0	0	0	0	0	0	0	0	0	0	0	0	0	0
012419	12:08:19	12:12:19	238101	5.0.10.0	4_exp_AMP_EVA_AWA_CON	88	Rpleas_acq	Oppo	Rpleas	Amasked	CS_A	2pleas	distractor2	EVAbeforeCON	acq_new_pleas_masked	acq2_masked	2	12	480	0	300	300	0	0	410	50	0	1	0	0	0	1	blank2r.bmp	0	1	+	0	6	C2r.bmp	492	1	blank2r.bmp	786	8	C4r.bmp	786	1	blank2r.bmp	866	3	engagiert	866	1	!	-1	1	!	-1	0	0	0	0	0	0	0	0	0	0	0	0	0	0	0	0	0	0	0	0	0	0	0	0	0	0	0
012419	12:08:19	12:12:22	240514	5.0.10.0	4_exp_AMP_EVA_AWA_CON	88	Rpleas_acq	Oppo	Rpleas	Amasked	CS_A	2pleas	distractor2	EVAbeforeCON	acq_US_pleas_masked	acq2_masked	2	13	480	0	300	300	0	0	627	50	0	1	0	0	0	1	blank2r.bmp	0	1	+	0	1	B1r.bmp	492	1	blank2r.bmp	786	1	DHJF	786	1	blank2r.bmp	866	2	gütig	866	1	!	1319	1	!	-1	0	0	0	0	0	0	0	0	0	0	0	0	0	0	0	0	0	0	0	0	0	0	0	0	0	0	0
012419	12:08:19	12:12:24	242753	5.0.10.0	4_exp_AMP_EVA_AWA_CON	88	Rpleas_acq	Oppo	Rpleas	Amasked	CS_A	2pleas	distractor2	EVAbeforeCON	acq_new_pleas_masked	acq2_masked	2	14	480	1	300	300	0	0	426	50	0	1	0	0	0	1	blank2r.bmp	0	1	+	0	4	B4r.bmp	492	1	blank2r.bmp	786	8	C4r.bmp	786	1	blank2r.bmp	866	3	engagiert	866	1	!	1319	1	!	1332	0	0	0	0	0	0	0	0	0	0	0	0	0	0	0	0	0	0	0	0	0	0	0	0	0	0	0
012419	12:08:19	12:12:26	244885	5.0.10.0	4_exp_AMP_EVA_AWA_CON	88	Rpleas_acq	Oppo	Rpleas	Amasked	CS_A	2pleas	distractor2	EVAbeforeCON	acq_US_pleas_masked	acq2_masked	2	15	480	0	300	300	0	0	363	50	0	1	0	0	0	1	blank2r.bmp	0	1	+	0	3	B3r.bmp	492	1	blank2r.bmp	786	1	DHJF	786	1	blank2r.bmp	866	4	kreativ	866	1	!	-1	1	!	-1	0	0	0	0	0	0	0	0	0	0	0	0	0	0	0	0	0	0	0	0	0	0	0	0	0	0	0
012419	12:08:19	12:12:28	247124	5.0.10.0	4_exp_AMP_EVA_AWA_CON	88	Rpleas_acq	Oppo	Rpleas	Amasked	CS_A	2pleas	distractor2	EVAbeforeCON	acq_new_pleas_masked	acq2_masked	2	16	480	1	300	300	0	0	431	50	0	1	0	0	0	1	blank2r.bmp	0	1	+	0	8	C4r.bmp	492	1	blank2r.bmp	786	3	B3r.bmp	786	1	blank2r.bmp	866	4	träumen	866	1	!	1319	1	!	1332	0	0	0	0	0	0	0	0	0	0	0	0	0	0	0	0	0	0	0	0	0	0	0	0	0	0	0
012419	12:08:19	12:12:31	249470	5.0.10.0	4_exp_AMP_EVA_AWA_CON	88	Rpleas_acq	Oppo	Rpleas	Amasked	CS_A	2pleas	distractor2	EVAbeforeCON	acq_new_unple_masked	acq2_masked	2	17	480	0	300	300	0	0	572	46	0	1	0	0	0	1	blank2r.bmp	0	1	+	0	5	C1r.bmp	492	1	blank2r.bmp	786	6	C2r.bmp	786	1	blank2r.bmp	866	3	engstirnig	866	1	!	1319	1	!	-1	0	0	0	0	0	0	0	0	0	0	0	0	0	0	0	0	0	0	0	0	0	0	0	0	0	0	0
012419	12:08:19	12:12:33	251869	5.0.10.0	4_exp_AMP_EVA_AWA_CON	88	Rpleas_acq	Oppo	Rpleas	Amasked	CS_A	2pleas	distractor2	EVAbeforeCON	acq_US_unple_masked	acq2_masked	2	18	480	0	300	300	0	0	599	46	0	1	0	0	0	1	blank2r.bmp	0	1	+	0	6	C2r.bmp	492	1	blank2r.bmp	786	1	CPLW	786	1	blank2r.bmp	866	3	gemein	866	1	!	1319	1	!	-1	0	0	0	0	0	0	0	0	0	0	0	0	0	0	0	0	0	0	0	0	0	0	0	0	0	0	0
012419	12:08:19	12:12:35	254055	5.0.10.0	4_exp_AMP_EVA_AWA_CON	88	Rpleas_acq	Oppo	Rpleas	Amasked	CS_A	2pleas	distractor2	EVAbeforeCON	acq_US_unple_masked	acq2_masked	2	19	480	0	300	300	0	0	399	46	0	1	0	0	0	1	blank2r.bmp	0	1	+	0	2	B2r.bmp	492	1	blank2r.bmp	786	1	CPLW	786	1	blank2r.bmp	866	4	krank	866	1	!	-1	1	!	-1	0	0	0	0	0	0	0	0	0	0	0	0	0	0	0	0	0	0	0	0	0	0	0	0	0	0	0
012419	12:08:19	12:12:38	256427	5.0.10.0	4_exp_AMP_EVA_AWA_CON	88	Rpleas_acq	Oppo	Rpleas	Amasked	CS_A	2pleas	distractor2	EVAbeforeCON	acq_new_unple_masked	acq2_masked	2	20	480	0	300	300	0	0	612	46	0	1	0	0	0	1	blank2r.bmp	0	1	+	0	7	C3r.bmp	492	1	blank2r.bmp	786	4	B4r.bmp	786	1	blank2r.bmp	866	1	ausrottung	866	1	!	1319	1	!	-1	0	0	0	0	0	0	0	0	0	0	0	0	0	0	0	0	0	0	0	0	0	0	0	0	0	0	0
012419	12:08:19	12:12:40	258586	5.0.10.0	4_exp_AMP_EVA_AWA_CON	88	Rpleas_acq	Oppo	Rpleas	Amasked	CS_A	2pleas	distractor2	EVAbeforeCON	acq_new_unple_masked	acq2_masked	2	21	480	0	300	300	0	0	359	46	0	1	0	0	0	1	blank2r.bmp	0	1	+	0	4	B4r.bmp	492	1	blank2r.bmp	786	1	B1r.bmp	786	1	blank2r.bmp	866	6	geizig	866	1	!	-1	1	!	-1	0	0	0	0	0	0	0	0	0	0	0	0	0	0	0	0	0	0	0	0	0	0	0	0	0	0	0
012419	12:08:19	12:12:42	260865	5.0.10.0	4_exp_AMP_EVA_AWA_CON	88	Rpleas_acq	Oppo	Rpleas	Amasked	CS_A	2pleas	distractor2	EVAbeforeCON	acq_US_unple_masked	acq2_masked	2	22	480	1	300	300	0	0	473	46	0	1	0	0	0	1	blank2r.bmp	0	1	+	0	1	B1r.bmp	492	1	blank2r.bmp	786	1	CPLW	786	1	blank2r.bmp	866	6	verbissen	866	1	!	1319	1	!	1372	0	0	0	0	0	0	0	0	0	0	0	0	0	0	0	0	0	0	0	0	0	0	0	0	0	0	0
012419	12:08:19	12:12:44	263251	5.0.10.0	4_exp_AMP_EVA_AWA_CON	88	Rpleas_acq	Oppo	Rpleas	Amasked	CS_A	2pleas	distractor2	EVAbeforeCON	acq_US_pleas_masked	acq2_masked	2	23	480	0	300	300	0	0	619	50	0	1	0	0	0	1	blank2r.bmp	0	1	+	0	5	C1r.bmp	492	1	blank2r.bmp	786	1	DHJF	786	1	blank2r.bmp	866	5	sonnig	866	1	!	1319	1	!	-1	0	0	0	0	0	0	0	0	0	0	0	0	0	0	0	0	0	0	0	0	0	0	0	0	0	0	0
012419	12:08:19	12:12:46	265397	5.0.10.0	4_exp_AMP_EVA_AWA_CON	88	Rpleas_acq	Oppo	Rpleas	Amasked	CS_A	2pleas	distractor2	EVAbeforeCON	acq_new_pleas_masked	acq2_masked	2	24	480	0	300	300	0	0	363	50	0	1	0	0	0	1	blank2r.bmp	0	1	+	0	3	B3r.bmp	492	1	blank2r.bmp	786	7	C3r.bmp	786	1	blank2r.bmp	866	5	kuss	866	1	!	-1	1	!	-1	0	0	0	0	0	0	0	0	0	0	0	0	0	0	0	0	0	0	0	0	0	0	0	0	0	0	0
012419	12:08:19	12:12:49	267796	5.0.10.0	4_exp_AMP_EVA_AWA_CON	88	Rpleas_acq	Oppo	Rpleas	Amasked	CS_A	2pleas	distractor2	EVAbeforeCON	acq_US_pleas_masked	acq2_masked	2	25	480	0	300	300	0	0	608	50	0	1	0	0	0	1	blank2r.bmp	0	1	+	0	2	B2r.bmp	492	1	blank2r.bmp	786	1	DHJF	786	1	blank2r.bmp	866	6	vergnügt	866	1	!	1319	1	!	-1	0	0	0	0	0	0	0	0	0	0	0	0	0	0	0	0	0	0	0	0	0	0	0	0	0	0	0
012419	12:08:19	12:12:51	270155	5.0.10.0	4_exp_AMP_EVA_AWA_CON	88	Rpleas_acq	Oppo	Rpleas	Amasked	CS_A	2pleas	distractor2	EVAbeforeCON	acq_US_unple_masked	acq2_masked	2	26	480	0	300	300	0	0	577	46	0	1	0	0	0	1	blank2r.bmp	0	1	+	0	6	C2r.bmp	492	1	blank2r.bmp	786	1	CPLW	786	1	blank2r.bmp	866	2	gierig	866	1	!	1319	1	!	-1	0	0	0	0	0	0	0	0	0	0	0	0	0	0	0	0	0	0	0	0	0	0	0	0	0	0	0
012419	12:08:19	12:12:54	272540	5.0.10.0	4_exp_AMP_EVA_AWA_CON	88	Rpleas_acq	Oppo	Rpleas	Amasked	CS_A	2pleas	distractor2	EVAbeforeCON	acq_US_pleas_masked	acq2_masked	2	27	480	0	300	300	0	0	374	46	0	0	0	0	0	1	blank2r.bmp	0	1	+	0	7	C3r.bmp	492	1	blank2r.bmp	786	1	DHJF	786	1	blank2r.bmp	866	1	vertrauen	866	1	FEHLER	1586	1	!	-1	1	!	-1	0	0	0	0	0	0	0	0	0	0	0	0	0	0	0	0	0	0	0	0	0	0	0	0
012419	12:08:19	12:12:56	274833	5.0.10.0	4_exp_AMP_EVA_AWA_CON	88	Rpleas_acq	Oppo	Rpleas	Amasked	CS_A	2pleas	distractor2	EVAbeforeCON	acq_new_pleas_masked	acq2_masked	2	28	480	0	300	300	0	0	729	50	0	1	0	0	0	1	blank2r.bmp	0	1	+	0	8	C4r.bmp	492	1	blank2r.bmp	786	2	B2r.bmp	786	1	blank2r.bmp	866	1	anregung	866	1	!	1319	1	!	-1	0	0	0	0	0	0	0	0	0	0	0	0	0	0	0	0	0	0	0	0	0	0	0	0	0	0	0
012419	12:08:19	12:12:58	277219	5.0.10.0	4_exp_AMP_EVA_AWA_CON	88	Rpleas_acq	Oppo	Rpleas	Amasked	CS_A	2pleas	distractor2	EVAbeforeCON	acq_US_unple_masked	acq2_masked	2	29	480	0	300	300	0	0	600	46	0	1	0	0	0	1	blank2r.bmp	0	1	+	0	5	C1r.bmp	492	1	blank2r.bmp	786	1	CPLW	786	1	blank2r.bmp	866	1	versagen	866	1	!	1319	1	!	-1	0	0	0	0	0	0	0	0	0	0	0	0	0	0	0	0	0	0	0	0	0	0	0	0	0	0	0
012419	12:08:19	12:13:01	279551	5.0.10.0	4_exp_AMP_EVA_AWA_CON	88	Rpleas_acq	Oppo	Rpleas	Amasked	CS_A	2pleas	distractor2	EVAbeforeCON	acq_new_pleas_masked	acq2_masked	2	30	480	1	300	300	0	0	529	50	0	1	0	0	0	1	blank2r.bmp	0	1	+	0	8	C4r.bmp	492	1	blank2r.bmp	786	5	C1r.bmp	786	1	blank2r.bmp	866	2	besonnen	866	1	!	1319	1	!	1426	0	0	0	0	0	0	0	0	0	0	0	0	0	0	0	0	0	0	0	0	0	0	0	0	0	0	0
012419	12:08:19	12:13:03	281897	5.0.10.0	4_exp_AMP_EVA_AWA_CON	88	Rpleas_acq	Oppo	Rpleas	Amasked	CS_A	2pleas	distractor2	EVAbeforeCON	acq_US_unple_masked	acq2_masked	2	31	480	0	300	300	0	0	584	46	0	1	0	0	0	1	blank2r.bmp	0	1	+	0	1	B1r.bmp	492	1	blank2r.bmp	786	1	CPLW	786	1	blank2r.bmp	866	5	sterben	866	1	!	1319	1	!	-1	0	0	0	0	0	0	0	0	0	0	0	0	0	0	0	0	0	0	0	0	0	0	0	0	0	0	0
012419	12:08:19	12:13:05	284189	5.0.10.0	4_exp_AMP_EVA_AWA_CON	88	Rpleas_acq	Oppo	Rpleas	Amasked	CS_A	2pleas	distractor2	EVAbeforeCON	acq_new_unple_masked	acq2_masked	2	32	480	1	300	300	0	0	490	46	0	1	0	0	0	1	blank2r.bmp	0	1	+	0	3	B3r.bmp	492	1	blank2r.bmp	786	8	C4r.bmp	786	1	blank2r.bmp	866	5	krise	866	1	!	1319	1	!	1386	0	0	0	0	0	0	0	0	0	0	0	0	0	0	0	0	0	0	0	0	0	0	0	0	0	0	0
012419	12:08:19	12:13:08	286481	5.0.10.0	4_exp_AMP_EVA_AWA_CON	88	Rpleas_acq	Oppo	Rpleas	Amasked	CS_A	2pleas	distractor2	EVAbeforeCON	acq_new_unple_masked	acq2_masked	2	33	480	1	300	300	0	0	496	46	0	1	0	0	0	1	blank2r.bmp	0	1	+	0	2	B2r.bmp	492	1	blank2r.bmp	786	7	C3r.bmp	786	1	blank2r.bmp	866	2	bange	866	1	!	1319	1	!	1399	0	0	0	0	0	0	0	0	0	0	0	0	0	0	0	0	0	0	0	0	0	0	0	0	0	0	0
012419	12:08:19	12:13:10	288920	5.0.10.0	4_exp_AMP_EVA_AWA_CON	88	Rpleas_acq	Oppo	Rpleas	Amasked	CS_A	2pleas	distractor2	EVAbeforeCON	acq_new_pleas_masked	acq2_masked	2	34	480	1	300	300	0	0	440	46	0	0	0	0	0	1	blank2r.bmp	0	1	+	0	7	C3r.bmp	492	1	blank2r.bmp	786	3	B3r.bmp	786	1	blank2r.bmp	866	6	gesittet	866	1	FEHLER	1665	1	!	1319	1	!	1346	0	0	0	0	0	0	0	0	0	0	0	0	0	0	0	0	0	0	0	0	0	0	0	0
012419	12:08:19	12:13:12	290986	5.0.10.0	4_exp_AMP_EVA_AWA_CON	88	Rpleas_acq	Oppo	Rpleas	Amasked	CS_A	2pleas	distractor2	EVAbeforeCON	acq_new_unple_masked	acq2_masked	2	35	480	1	300	300	0	0	471	46	0	1	0	0	0	1	blank2r.bmp	0	1	+	0	4	B4r.bmp	492	1	blank2r.bmp	786	2	B2r.bmp	786	1	blank2r.bmp	866	4	töten	866	1	!	1319	1	!	1372	0	0	0	0	0	0	0	0	0	0	0	0	0	0	0	0	0	0	0	0	0	0	0	0	0	0	0
012419	12:08:19	12:13:14	293332	5.0.10.0	4_exp_AMP_EVA_AWA_CON	88	Rpleas_acq	Oppo	Rpleas	Amasked	CS_A	2pleas	distractor2	EVAbeforeCON	acq_US_pleas_masked	acq2_masked	2	36	480	0	300	300	0	0	583	50	0	1	0	0	0	1	blank2r.bmp	0	1	+	0	6	C2r.bmp	492	1	blank2r.bmp	786	1	DHJF	786	1	blank2r.bmp	866	3	genießen	866	1	!	1319	1	!	-1	0	0	0	0	0	0	0	0	0	0	0	0	0	0	0	0	0	0	0	0	0	0	0	0	0	0	0
012419	12:08:19	12:13:28	307060	5.0.10.0	4_exp_AMP_EVA_AWA_CON	88	Rpleas_acq	Oppo	Rpleas	Amasked	CS_A	2pleas	distractor2	EVAbeforeCON	acq_US_unple_masked	acq3_masked	3	1	453	1	300	300	0	0	403	46	0	1	0	0	0	1	blank2r.bmp	0	1	+	0	2	B2r.bmp	492	1	blank2r.bmp	786	1	CPLW	786	1	blank2r.bmp	866	6	verbissen	866	1	!	1292	1	!	1306	0	0	0	0	0	0	0	0	0	0	0	0	0	0	0	0	0	0	0	0	0	0	0	0	0	0	0
012419	12:08:19	12:13:30	309192	5.0.10.0	4_exp_AMP_EVA_AWA_CON	88	Rpleas_acq	Oppo	Rpleas	Amasked	CS_A	2pleas	distractor2	EVAbeforeCON	acq_US_pleas_masked	acq3_masked	3	2	453	0	300	300	0	0	367	50	0	1	0	0	0	1	blank2r.bmp	0	1	+	0	4	B4r.bmp	492	1	blank2r.bmp	786	1	DHJF	786	1	blank2r.bmp	866	5	sonnig	866	1	!	-1	1	!	-1	0	0	0	0	0	0	0	0	0	0	0	0	0	0	0	0	0	0	0	0	0	0	0	0	0	0	0
012419	12:08:19	12:13:33	311511	5.0.10.0	4_exp_AMP_EVA_AWA_CON	88	Rpleas_acq	Oppo	Rpleas	Amasked	CS_A	2pleas	distractor2	EVAbeforeCON	acq_US_unple_masked	acq3_masked	3	3	453	0	300	300	0	0	532	46	0	1	0	0	0	1	blank2r.bmp	0	1	+	0	5	C1r.bmp	492	1	blank2r.bmp	786	1	CPLW	786	1	blank2r.bmp	866	4	krank	866	1	!	1292	1	!	-1	0	0	0	0	0	0	0	0	0	0	0	0	0	0	0	0	0	0	0	0	0	0	0	0	0	0	0
012419	12:08:19	12:13:35	313817	5.0.10.0	4_exp_AMP_EVA_AWA_CON	88	Rpleas_acq	Oppo	Rpleas	Amasked	CS_A	2pleas	distractor2	EVAbeforeCON	acq_US_unple_masked	acq3_masked	3	4	453	1	300	300	0	0	483	46	0	1	0	0	0	1	blank2r.bmp	0	1	+	0	7	C3r.bmp	492	1	blank2r.bmp	786	1	CPLW	786	1	blank2r.bmp	866	2	gierig	866	1	!	1292	1	!	1386	0	0	0	0	0	0	0	0	0	0	0	0	0	0	0	0	0	0	0	0	0	0	0	0	0	0	0
012419	12:08:19	12:13:37	316136	5.0.10.0	4_exp_AMP_EVA_AWA_CON	88	Rpleas_acq	Oppo	Rpleas	Amasked	CS_A	2pleas	distractor2	EVAbeforeCON	acq_US_pleas_masked	acq3_masked	3	5	453	0	300	300	0	0	532	50	0	1	0	0	0	1	blank2r.bmp	0	1	+	0	3	B3r.bmp	492	1	blank2r.bmp	786	1	DHJF	786	1	blank2r.bmp	866	1	vertrauen	866	1	!	1292	1	!	-1	0	0	0	0	0	0	0	0	0	0	0	0	0	0	0	0	0	0	0	0	0	0	0	0	0	0	0
012419	12:08:19	12:13:40	318495	5.0.10.0	4_exp_AMP_EVA_AWA_CON	88	Rpleas_acq	Oppo	Rpleas	Amasked	CS_A	2pleas	distractor2	EVAbeforeCON	acq_US_unple_masked	acq3_masked	3	6	453	0	300	300	0	0	579	46	0	1	0	0	0	1	blank2r.bmp	0	1	+	0	1	B1r.bmp	492	1	blank2r.bmp	786	1	CPLW	786	1	blank2r.bmp	866	5	sterben	866	1	!	1292	1	!	-1	0	0	0	0	0	0	0	0	0	0	0	0	0	0	0	0	0	0	0	0	0	0	0	0	0	0	0
012419	12:08:19	12:13:42	320761	5.0.10.0	4_exp_AMP_EVA_AWA_CON	88	Rpleas_acq	Oppo	Rpleas	Amasked	CS_A	2pleas	distractor2	EVAbeforeCON	acq_US_pleas_masked	acq3_masked	3	7	453	1	300	300	0	0	455	50	0	1	0	0	0	1	blank2r.bmp	0	1	+	0	8	C4r.bmp	492	1	blank2r.bmp	786	1	DHJF	786	1	blank2r.bmp	866	4	kreativ	866	1	!	1292	1	!	1359	0	0	0	0	0	0	0	0	0	0	0	0	0	0	0	0	0	0	0	0	0	0	0	0	0	0	0
012419	12:08:19	12:13:44	323000	5.0.10.0	4_exp_AMP_EVA_AWA_CON	88	Rpleas_acq	Oppo	Rpleas	Amasked	CS_A	2pleas	distractor2	EVAbeforeCON	acq_US_pleas_masked	acq3_masked	3	8	453	1	300	300	0	0	450	50	0	1	0	0	0	1	blank2r.bmp	0	1	+	0	6	C2r.bmp	492	1	blank2r.bmp	786	1	DHJF	786	1	blank2r.bmp	866	2	gütig	866	1	!	1292	1	!	1346	0	0	0	0	0	0	0	0	0	0	0	0	0	0	0	0	0	0	0	0	0	0	0	0	0	0	0
012419	12:08:19	12:13:46	325199	5.0.10.0	4_exp_AMP_EVA_AWA_CON	88	Rpleas_acq	Oppo	Rpleas	Amasked	CS_A	2pleas	distractor2	EVAbeforeCON	acq_US_pleas_masked	acq3_masked	3	9	453	1	300	300	0	0	399	50	0	1	0	0	0	1	blank2r.bmp	0	1	+	0	4	B4r.bmp	492	1	blank2r.bmp	786	1	DHJF	786	1	blank2r.bmp	866	3	genießen	866	1	!	1292	1	!	1306	0	0	0	0	0	0	0	0	0	0	0	0	0	0	0	0	0	0	0	0	0	0	0	0	0	0	0
012419	12:08:19	12:13:49	327624	5.0.10.0	4_exp_AMP_EVA_AWA_CON	88	Rpleas_acq	Oppo	Rpleas	Amasked	CS_A	2pleas	distractor2	EVAbeforeCON	acq_US_unple_masked	acq3_masked	3	10	453	1	300	300	0	0	433	50	0	0	0	0	0	1	blank2r.bmp	0	1	+	0	8	C4r.bmp	492	1	blank2r.bmp	786	1	CPLW	786	1	blank2r.bmp	866	3	gemein	866	1	FEHLER	1652	1	!	1292	1	!	1332	0	0	0	0	0	0	0	0	0	0	0	0	0	0	0	0	0	0	0	0	0	0	0	0
012419	12:08:19	12:13:51	329490	5.0.10.0	4_exp_AMP_EVA_AWA_CON	88	Rpleas_acq	Oppo	Rpleas	Amasked	CS_A	2pleas	distractor2	EVAbeforeCON	acq_US_pleas_masked	acq3_masked	3	11	453	0	300	300	0	0	303	50	0	1	0	0	0	1	blank2r.bmp	0	1	+	0	2	B2r.bmp	492	1	blank2r.bmp	786	1	DHJF	786	1	blank2r.bmp	866	6	vergnügt	866	1	!	-1	1	!	-1	0	0	0	0	0	0	0	0	0	0	0	0	0	0	0	0	0	0	0	0	0	0	0	0	0	0	0
012419	12:08:19	12:13:53	331756	5.0.10.0	4_exp_AMP_EVA_AWA_CON	88	Rpleas_acq	Oppo	Rpleas	Amasked	CS_A	2pleas	distractor2	EVAbeforeCON	acq_US_unple_masked	acq3_masked	3	12	453	1	300	300	0	0	465	46	0	1	0	0	0	1	blank2r.bmp	0	1	+	0	1	B1r.bmp	492	1	blank2r.bmp	786	1	CPLW	786	1	blank2r.bmp	866	1	versagen	866	1	!	1292	1	!	1359	0	0	0	0	0	0	0	0	0	0	0	0	0	0	0	0	0	0	0	0	0	0	0	0	0	0	0
012419	12:08:19	12:13:55	333969	5.0.10.0	4_exp_AMP_EVA_AWA_CON	88	Rpleas_acq	Oppo	Rpleas	Amasked	CS_A	2pleas	distractor2	EVAbeforeCON	acq_US_pleas_masked	acq3_masked	3	13	453	1	300	300	0	0	399	50	0	1	0	0	0	1	blank2r.bmp	0	1	+	0	3	B3r.bmp	492	1	blank2r.bmp	786	1	DHJF	786	1	blank2r.bmp	866	3	genießen	866	1	!	1292	1	!	1306	0	0	0	0	0	0	0	0	0	0	0	0	0	0	0	0	0	0	0	0	0	0	0	0	0	0	0
012419	12:08:19	12:13:57	336168	5.0.10.0	4_exp_AMP_EVA_AWA_CON	88	Rpleas_acq	Oppo	Rpleas	Amasked	CS_A	2pleas	distractor2	EVAbeforeCON	acq_US_unple_masked	acq3_masked	3	14	453	1	300	300	0	0	399	46	0	1	0	0	0	1	blank2r.bmp	0	1	+	0	6	C2r.bmp	492	1	blank2r.bmp	786	1	CPLW	786	1	blank2r.bmp	866	6	verbissen	866	1	!	1292	1	!	1306	0	0	0	0	0	0	0	0	0	0	0	0	0	0	0	0	0	0	0	0	0	0	0	0	0	0	0
012419	12:08:19	12:13:59	338260	5.0.10.0	4_exp_AMP_EVA_AWA_CON	88	Rpleas_acq	Oppo	Rpleas	Amasked	CS_A	2pleas	distractor2	EVAbeforeCON	acq_US_pleas_masked	acq3_masked	3	15	453	0	300	300	0	0	321	50	0	1	0	0	0	1	blank2r.bmp	0	1	+	0	7	C3r.bmp	492	1	blank2r.bmp	786	1	DHJF	786	1	blank2r.bmp	866	2	gütig	866	1	!	-1	1	!	-1	0	0	0	0	0	0	0	0	0	0	0	0	0	0	0	0	0	0	0	0	0	0	0	0	0	0	0
012419	12:08:19	12:14:02	340579	5.0.10.0	4_exp_AMP_EVA_AWA_CON	88	Rpleas_acq	Oppo	Rpleas	Amasked	CS_A	2pleas	distractor2	EVAbeforeCON	acq_US_unple_masked	acq3_masked	3	16	453	0	300	300	0	0	532	46	0	1	0	0	0	1	blank2r.bmp	0	1	+	0	5	C1r.bmp	492	1	blank2r.bmp	786	1	CPLW	786	1	blank2r.bmp	866	4	krank	866	1	!	1292	1	!	-1	0	0	0	0	0	0	0	0	0	0	0	0	0	0	0	0	0	0	0	0	0	0	0	0	0	0	0
012419	12:08:19	12:14:04	342712	5.0.10.0	4_exp_AMP_EVA_AWA_CON	88	Rpleas_acq	Oppo	Rpleas	Amasked	CS_A	2pleas	distractor2	EVAbeforeCON	acq_US_unple_masked	acq3_masked	3	17	453	0	300	300	0	0	346	46	0	1	0	0	0	1	blank2r.bmp	0	1	+	0	6	C2r.bmp	492	1	blank2r.bmp	786	1	CPLW	786	1	blank2r.bmp	866	5	sterben	866	1	!	-1	1	!	-1	0	0	0	0	0	0	0	0	0	0	0	0	0	0	0	0	0	0	0	0	0	0	0	0	0	0	0
012419	12:08:19	12:14:06	345017	5.0.10.0	4_exp_AMP_EVA_AWA_CON	88	Rpleas_acq	Oppo	Rpleas	Amasked	CS_A	2pleas	distractor2	EVAbeforeCON	acq_US_pleas_masked	acq3_masked	3	18	453	1	300	300	0	0	493	50	0	1	0	0	0	1	blank2r.bmp	0	1	+	0	3	B3r.bmp	492	1	blank2r.bmp	786	1	DHJF	786	1	blank2r.bmp	866	5	sonnig	866	1	!	1292	1	!	1399	0	0	0	0	0	0	0	0	0	0	0	0	0	0	0	0	0	0	0	0	0	0	0	0	0	0	0
012419	12:08:19	12:14:08	347336	5.0.10.0	4_exp_AMP_EVA_AWA_CON	88	Rpleas_acq	Oppo	Rpleas	Amasked	CS_A	2pleas	distractor2	EVAbeforeCON	acq_US_pleas_masked	acq3_masked	3	19	453	1	300	300	0	0	513	50	0	1	0	0	0	1	blank2r.bmp	0	1	+	0	8	C4r.bmp	492	1	blank2r.bmp	786	1	DHJF	786	1	blank2r.bmp	866	1	vertrauen	866	1	!	1292	1	!	1412	0	0	0	0	0	0	0	0	0	0	0	0	0	0	0	0	0	0	0	0	0	0	0	0	0	0	0
012419	12:08:19	12:14:11	349642	5.0.10.0	4_exp_AMP_EVA_AWA_CON	88	Rpleas_acq	Oppo	Rpleas	Amasked	CS_A	2pleas	distractor2	EVAbeforeCON	acq_US_unple_masked	acq3_masked	3	20	453	0	300	300	0	0	532	46	0	1	0	0	0	1	blank2r.bmp	0	1	+	0	5	C1r.bmp	492	1	blank2r.bmp	786	1	CPLW	786	1	blank2r.bmp	866	2	gierig	866	1	!	1292	1	!	-1	0	0	0	0	0	0	0	0	0	0	0	0	0	0	0	0	0	0	0	0	0	0	0	0	0	0	0
012419	12:08:19	12:14:13	351961	5.0.10.0	4_exp_AMP_EVA_AWA_CON	88	Rpleas_acq	Oppo	Rpleas	Amasked	CS_A	2pleas	distractor2	EVAbeforeCON	acq_US_pleas_masked	acq3_masked	3	21	453	0	300	300	0	0	532	50	0	1	0	0	0	1	blank2r.bmp	0	1	+	0	4	B4r.bmp	492	1	blank2r.bmp	786	1	DHJF	786	1	blank2r.bmp	866	6	vergnügt	866	1	!	1292	1	!	-1	0	0	0	0	0	0	0	0	0	0	0	0	0	0	0	0	0	0	0	0	0	0	0	0	0	0	0
012419	12:08:19	12:14:15	354187	5.0.10.0	4_exp_AMP_EVA_AWA_CON	88	Rpleas_acq	Oppo	Rpleas	Amasked	CS_A	2pleas	distractor2	EVAbeforeCON	acq_US_unple_masked	acq3_masked	3	22	453	1	300	300	0	0	411	46	0	1	0	0	0	1	blank2r.bmp	0	1	+	0	1	B1r.bmp	492	1	blank2r.bmp	786	1	CPLW	786	1	blank2r.bmp	866	3	gemein	866	1	!	1292	1	!	1306	0	0	0	0	0	0	0	0	0	0	0	0	0	0	0	0	0	0	0	0	0	0	0	0	0	0	0
012419	12:08:19	12:14:17	356413	5.0.10.0	4_exp_AMP_EVA_AWA_CON	88	Rpleas_acq	Oppo	Rpleas	Amasked	CS_A	2pleas	distractor2	EVAbeforeCON	acq_US_unple_masked	acq3_masked	3	23	453	0	300	300	0	0	232	50	0	0	0	0	0	1	blank2r.bmp	0	1	+	0	2	B2r.bmp	492	1	blank2r.bmp	786	1	CPLW	786	1	blank2r.bmp	866	1	versagen	866	1	FEHLER	1439	1	!	-1	1	!	-1	0	0	0	0	0	0	0	0	0	0	0	0	0	0	0	0	0	0	0	0	0	0	0	0
012419	12:08:19	12:14:19	358412	5.0.10.0	4_exp_AMP_EVA_AWA_CON	88	Rpleas_acq	Oppo	Rpleas	Amasked	CS_A	2pleas	distractor2	EVAbeforeCON	acq_US_pleas_masked	acq3_masked	3	24	453	1	300	300	0	0	414	50	0	1	0	0	0	1	blank2r.bmp	0	1	+	0	7	C3r.bmp	492	1	blank2r.bmp	786	1	DHJF	786	1	blank2r.bmp	866	4	kreativ	866	1	!	1292	1	!	1319	0	0	0	0	0	0	0	0	0	0	0	0	0	0	0	0	0	0	0	0	0	0	0	0	0	0	0
012419	12:08:19	12:14:22	360518	5.0.10.0	4_exp_AMP_EVA_AWA_CON	88	Rpleas_acq	Oppo	Rpleas	Amasked	CS_A	2pleas	distractor2	EVAbeforeCON	acq_US_unple_masked	acq3_masked	3	25	453	0	300	300	0	0	344	46	0	1	0	0	0	1	blank2r.bmp	0	1	+	0	1	B1r.bmp	492	1	blank2r.bmp	786	1	CPLW	786	1	blank2r.bmp	866	2	gierig	866	1	!	-1	1	!	-1	0	0	0	0	0	0	0	0	0	0	0	0	0	0	0	0	0	0	0	0	0	0	0	0	0	0	0
012419	12:08:19	12:14:24	362663	5.0.10.0	4_exp_AMP_EVA_AWA_CON	88	Rpleas_acq	Oppo	Rpleas	Amasked	CS_A	2pleas	distractor2	EVAbeforeCON	acq_US_unple_masked	acq3_masked	3	26	453	0	300	300	0	0	367	46	0	1	0	0	0	1	blank2r.bmp	0	1	+	0	8	C4r.bmp	492	1	blank2r.bmp	786	1	CPLW	786	1	blank2r.bmp	866	4	krank	866	1	!	-1	1	!	-1	0	0	0	0	0	0	0	0	0	0	0	0	0	0	0	0	0	0	0	0	0	0	0	0	0	0	0
012419	12:08:19	12:14:26	364996	5.0.10.0	4_exp_AMP_EVA_AWA_CON	88	Rpleas_acq	Oppo	Rpleas	Amasked	CS_A	2pleas	distractor2	EVAbeforeCON	acq_US_unple_masked	acq3_masked	3	27	453	1	300	300	0	0	512	46	0	1	0	0	0	1	blank2r.bmp	0	1	+	0	6	C2r.bmp	492	1	blank2r.bmp	786	1	CPLW	786	1	blank2r.bmp	866	6	verbissen	866	1	!	1292	1	!	1412	0	0	0	0	0	0	0	0	0	0	0	0	0	0	0	0	0	0	0	0	0	0	0	0	0	0	0
012419	12:08:19	12:14:28	367328	5.0.10.0	4_exp_AMP_EVA_AWA_CON	88	Rpleas_acq	Oppo	Rpleas	Amasked	CS_A	2pleas	distractor2	EVAbeforeCON	acq_US_unple_masked	acq3_masked	3	28	453	0	300	300	0	0	563	46	0	1	0	0	0	1	blank2r.bmp	0	1	+	0	4	B4r.bmp	492	1	blank2r.bmp	786	1	CPLW	786	1	blank2r.bmp	866	3	gemein	866	1	!	1292	1	!	-1	0	0	0	0	0	0	0	0	0	0	0	0	0	0	0	0	0	0	0	0	0	0	0	0	0	0	0
012419	12:08:19	12:14:31	369607	5.0.10.0	4_exp_AMP_EVA_AWA_CON	88	Rpleas_acq	Oppo	Rpleas	Amasked	CS_A	2pleas	distractor2	EVAbeforeCON	acq_US_pleas_masked	acq3_masked	3	29	453	1	300	300	0	0	476	50	0	1	0	0	0	1	blank2r.bmp	0	1	+	0	3	B3r.bmp	492	1	blank2r.bmp	786	1	DHJF	786	1	blank2r.bmp	866	2	gütig	866	1	!	1292	1	!	1372	0	0	0	0	0	0	0	0	0	0	0	0	0	0	0	0	0	0	0	0	0	0	0	0	0	0	0
012419	12:08:19	12:14:33	371940	5.0.10.0	4_exp_AMP_EVA_AWA_CON	88	Rpleas_acq	Oppo	Rpleas	Amasked	CS_A	2pleas	distractor2	EVAbeforeCON	acq_US_pleas_masked	acq3_masked	3	30	453	0	300	300	0	0	563	50	0	1	0	0	0	1	blank2r.bmp	0	1	+	0	2	B2r.bmp	492	1	blank2r.bmp	786	1	DHJF	786	1	blank2r.bmp	866	6	vergnügt	866	1	!	1292	1	!	-1	0	0	0	0	0	0	0	0	0	0	0	0	0	0	0	0	0	0	0	0	0	0	0	0	0	0	0
012419	12:08:19	12:14:35	374285	5.0.10.0	4_exp_AMP_EVA_AWA_CON	88	Rpleas_acq	Oppo	Rpleas	Amasked	CS_A	2pleas	distractor2	EVAbeforeCON	acq_US_pleas_masked	acq3_masked	3	31	453	0	300	300	0	0	559	50	0	1	0	0	0	1	blank2r.bmp	0	1	+	0	5	C1r.bmp	492	1	blank2r.bmp	786	1	DHJF	786	1	blank2r.bmp	866	5	sonnig	866	1	!	1292	1	!	-1	0	0	0	0	0	0	0	0	0	0	0	0	0	0	0	0	0	0	0	0	0	0	0	0	0	0	0
012419	12:08:19	12:14:38	376418	5.0.10.0	4_exp_AMP_EVA_AWA_CON	88	Rpleas_acq	Oppo	Rpleas	Amasked	CS_A	2pleas	distractor2	EVAbeforeCON	acq_US_unple_masked	acq3_masked	3	32	453	0	300	300	0	0	331	46	0	1	0	0	0	1	blank2r.bmp	0	1	+	0	7	C3r.bmp	492	1	blank2r.bmp	786	1	CPLW	786	1	blank2r.bmp	866	5	sterben	866	1	!	-1	1	!	-1	0	0	0	0	0	0	0	0	0	0	0	0	0	0	0	0	0	0	0	0	0	0	0	0	0	0	0
012419	12:08:19	12:14:40	378563	5.0.10.0	4_exp_AMP_EVA_AWA_CON	88	Rpleas_acq	Oppo	Rpleas	Amasked	CS_A	2pleas	distractor2	EVAbeforeCON	acq_US_pleas_masked	acq3_masked	3	33	453	0	300	300	0	0	366	50	0	1	0	0	0	1	blank2r.bmp	0	1	+	0	8	C4r.bmp	492	1	blank2r.bmp	786	1	DHJF	786	1	blank2r.bmp	866	1	vertrauen	866	1	!	-1	1	!	-1	0	0	0	0	0	0	0	0	0	0	0	0	0	0	0	0	0	0	0	0	0	0	0	0	0	0	0
012419	12:08:19	12:14:42	380949	5.0.10.0	4_exp_AMP_EVA_AWA_CON	88	Rpleas_acq	Oppo	Rpleas	Amasked	CS_A	2pleas	distractor2	EVAbeforeCON	acq_US_unple_masked	acq3_masked	3	34	453	0	300	300	0	0	603	46	0	1	0	0	0	1	blank2r.bmp	0	1	+	0	1	B1r.bmp	492	1	blank2r.bmp	786	1	CPLW	786	1	blank2r.bmp	866	1	versagen	866	1	!	1292	1	!	-1	0	0	0	0	0	0	0	0	0	0	0	0	0	0	0	0	0	0	0	0	0	0	0	0	0	0	0
012419	12:08:19	12:14:44	383215	5.0.10.0	4_exp_AMP_EVA_AWA_CON	88	Rpleas_acq	Oppo	Rpleas	Amasked	CS_A	2pleas	distractor2	EVAbeforeCON	acq_US_pleas_masked	acq3_masked	3	35	453	1	300	300	0	0	455	50	0	1	0	0	0	1	blank2r.bmp	0	1	+	0	3	B3r.bmp	492	1	blank2r.bmp	786	1	DHJF	786	1	blank2r.bmp	866	4	kreativ	866	1	!	1292	1	!	1359	0	0	0	0	0	0	0	0	0	0	0	0	0	0	0	0	0	0	0	0	0	0	0	0	0	0	0
012419	12:08:19	12:14:47	385574	5.0.10.0	4_exp_AMP_EVA_AWA_CON	88	Rpleas_acq	Oppo	Rpleas	Amasked	CS_A	2pleas	distractor2	EVAbeforeCON	acq_US_pleas_masked	acq3_masked	3	36	453	0	300	300	0	0	586	50	0	1	0	0	0	1	blank2r.bmp	0	1	+	0	4	B4r.bmp	492	1	blank2r.bmp	786	1	DHJF	786	1	blank2r.bmp	866	3	genießen	866	1	!	1292	1	!	-1	0	0	0	0	0	0	0	0	0	0	0	0	0	0	0	0	0	0	0	0	0	0	0	0	0	0	0
012419	12:08:19	12:14:58	396583	5.0.10.0	4_exp_AMP_EVA_AWA_CON	88	Rpleas_acq	Oppo	Rpleas	Amasked	CS_A	2pleas	distractor2	EVAbeforeCON	acq_US_unple_masked	acq45_masked	4	1	400	1	300	300	0	0	461	46	0	1	0	0	0	1	blank2r.bmp	0	1	+	0	5	C1r.bmp	492	1	blank2r.bmp	786	1	CPLW	786	1	blank2r.bmp	866	1	versagen	866	1	!	1239	1	!	1359	0	0	0	0	0	0	0	0	0	0	0	0	0	0	0	0	0	0	0	0	0	0	0	0	0	0	0
012419	12:08:19	12:15:00	398795	5.0.10.0	4_exp_AMP_EVA_AWA_CON	88	Rpleas_acq	Oppo	Rpleas	Amasked	CS_A	2pleas	distractor2	EVAbeforeCON	acq_US_unple_masked	acq45_masked	4	2	400	1	300	300	0	0	420	46	0	1	0	0	0	1	blank2r.bmp	0	1	+	0	7	C3r.bmp	492	1	blank2r.bmp	786	1	CPLW	786	1	blank2r.bmp	866	2	gierig	866	1	!	1239	1	!	1319	0	0	0	0	0	0	0	0	0	0	0	0	0	0	0	0	0	0	0	0	0	0	0	0	0	0	0
012419	12:08:19	12:15:02	401008	5.0.10.0	4_exp_AMP_EVA_AWA_CON	88	Rpleas_acq	Oppo	Rpleas	Amasked	CS_A	2pleas	distractor2	EVAbeforeCON	acq_US_pleas_masked	acq45_masked	4	3	400	1	300	300	0	0	414	50	0	1	0	0	0	1	blank2r.bmp	0	1	+	0	6	C2r.bmp	492	1	blank2r.bmp	786	1	DHJF	786	1	blank2r.bmp	866	4	kreativ	866	1	!	1239	1	!	1319	0	0	0	0	0	0	0	0	0	0	0	0	0	0	0	0	0	0	0	0	0	0	0	0	0	0	0
012419	12:08:19	12:15:04	403193	5.0.10.0	4_exp_AMP_EVA_AWA_CON	88	Rpleas_acq	Oppo	Rpleas	Amasked	CS_A	2pleas	distractor2	EVAbeforeCON	acq_US_unple_masked	acq45_masked	4	4	400	1	300	300	0	0	388	46	0	1	0	0	0	1	blank2r.bmp	0	1	+	0	2	B2r.bmp	492	1	blank2r.bmp	786	1	CPLW	786	1	blank2r.bmp	866	6	verbissen	866	1	!	1239	1	!	1292	0	0	0	0	0	0	0	0	0	0	0	0	0	0	0	0	0	0	0	0	0	0	0	0	0	0	0
012419	12:08:19	12:15:06	405392	5.0.10.0	4_exp_AMP_EVA_AWA_CON	88	Rpleas_acq	Oppo	Rpleas	Amasked	CS_A	2pleas	distractor2	EVAbeforeCON	acq_US_pleas_masked	acq45_masked	4	5	400	1	300	300	0	0	408	46	0	0	0	0	0	1	blank2r.bmp	0	1	+	0	7	C3r.bmp	492	1	blank2r.bmp	786	1	DHJF	786	1	blank2r.bmp	866	6	vergnügt	866	1	!	1239	1	!	1306	0	0	0	0	0	0	0	0	0	0	0	0	0	0	0	0	0	0	0	0	0	0	0	0	0	0	0
012419	12:08:19	12:15:09	407632	5.0.10.0	4_exp_AMP_EVA_AWA_CON	88	Rpleas_acq	Oppo	Rpleas	Amasked	CS_A	2pleas	distractor2	EVAbeforeCON	acq_US_unple_masked	acq45_masked	4	6	400	1	300	300	0	0	444	46	0	1	0	0	0	1	blank2r.bmp	0	1	+	0	3	B3r.bmp	492	1	blank2r.bmp	786	1	CPLW	786	1	blank2r.bmp	866	5	sterben	866	1	!	1239	1	!	1346	0	0	0	0	0	0	0	0	0	0	0	0	0	0	0	0	0	0	0	0	0	0	0	0	0	0	0
012419	12:08:19	12:15:11	409711	5.0.10.0	4_exp_AMP_EVA_AWA_CON	88	Rpleas_acq	Oppo	Rpleas	Amasked	CS_A	2pleas	distractor2	EVAbeforeCON	acq_US_pleas_masked	acq45_masked	4	7	400	0	300	300	0	0	314	50	0	1	0	0	0	1	blank2r.bmp	0	1	+	0	5	C1r.bmp	492	1	blank2r.bmp	786	1	DHJF	786	1	blank2r.bmp	866	3	genießen	866	1	!	-1	1	!	-1	0	0	0	0	0	0	0	0	0	0	0	0	0	0	0	0	0	0	0	0	0	0	0	0	0	0	0
012419	12:08:19	12:15:13	411910	5.0.10.0	4_exp_AMP_EVA_AWA_CON	88	Rpleas_acq	Oppo	Rpleas	Amasked	CS_A	2pleas	distractor2	EVAbeforeCON	acq_US_pleas_masked	acq45_masked	4	8	400	1	300	300	0	0	384	50	0	1	0	0	0	1	blank2r.bmp	0	1	+	0	8	C4r.bmp	492	1	blank2r.bmp	786	1	DHJF	786	1	blank2r.bmp	866	5	sonnig	866	1	!	1239	1	!	1279	0	0	0	0	0	0	0	0	0	0	0	0	0	0	0	0	0	0	0	0	0	0	0	0	0	0	0
012419	12:08:19	12:15:15	414069	5.0.10.0	4_exp_AMP_EVA_AWA_CON	88	Rpleas_acq	Oppo	Rpleas	Amasked	CS_A	2pleas	distractor2	EVAbeforeCON	acq_US_unple_masked	acq45_masked	4	9	400	1	300	300	0	0	346	46	0	1	0	0	0	1	blank2r.bmp	0	1	+	0	6	C2r.bmp	492	1	blank2r.bmp	786	1	CPLW	786	1	blank2r.bmp	866	4	krank	866	1	!	1239	1	!	1252	0	0	0	0	0	0	0	0	0	0	0	0	0	0	0	0	0	0	0	0	0	0	0	0	0	0	0
012419	12:08:19	12:15:17	416348	5.0.10.0	4_exp_AMP_EVA_AWA_CON	88	Rpleas_acq	Oppo	Rpleas	Amasked	CS_A	2pleas	distractor2	EVAbeforeCON	acq_US_unple_masked	acq45_masked	4	10	400	0	300	300	0	0	515	46	0	1	0	0	0	1	blank2r.bmp	0	1	+	0	1	B1r.bmp	492	1	blank2r.bmp	786	1	CPLW	786	1	blank2r.bmp	866	3	gemein	866	1	!	1239	1	!	-1	0	0	0	0	0	0	0	0	0	0	0	0	0	0	0	0	0	0	0	0	0	0	0	0	0	0	0
012419	12:08:19	12:15:20	418614	5.0.10.0	4_exp_AMP_EVA_AWA_CON	88	Rpleas_acq	Oppo	Rpleas	Amasked	CS_A	2pleas	distractor2	EVAbeforeCON	acq_US_pleas_masked	acq45_masked	4	11	400	0	300	300	0	0	489	50	0	1	0	0	0	1	blank2r.bmp	0	1	+	0	4	B4r.bmp	492	1	blank2r.bmp	786	1	DHJF	786	1	blank2r.bmp	866	1	vertrauen	866	1	!	1239	1	!	-1	0	0	0	0	0	0	0	0	0	0	0	0	0	0	0	0	0	0	0	0	0	0	0	0	0	0	0
012419	12:08:19	12:15:22	420879	5.0.10.0	4_exp_AMP_EVA_AWA_CON	88	Rpleas_acq	Oppo	Rpleas	Amasked	CS_A	2pleas	distractor2	EVAbeforeCON	acq_US_pleas_masked	acq45_masked	4	12	400	1	300	300	0	0	454	50	0	1	0	0	0	1	blank2r.bmp	0	1	+	0	2	B2r.bmp	492	1	blank2r.bmp	786	1	DHJF	786	1	blank2r.bmp	866	2	gütig	866	1	!	1239	1	!	1359	0	0	0	0	0	0	0	0	0	0	0	0	0	0	0	0	0	0	0	0	0	0	0	0	0	0	0
012419	12:08:19	12:15:24	423145	5.0.10.0	4_exp_AMP_EVA_AWA_CON	88	Rpleas_acq	Oppo	Rpleas	Amasked	CS_A	2pleas	distractor2	EVAbeforeCON	acq_US_unple_masked	acq45_masked	4	13	400	1	300	300	0	0	465	46	0	1	0	0	0	1	blank2r.bmp	0	1	+	0	7	C3r.bmp	492	1	blank2r.bmp	786	1	CPLW	786	1	blank2r.bmp	866	1	versagen	866	1	!	1239	1	!	1359	0	0	0	0	0	0	0	0	0	0	0	0	0	0	0	0	0	0	0	0	0	0	0	0	0	0	0
012419	12:08:19	12:15:26	425398	5.0.10.0	4_exp_AMP_EVA_AWA_CON	88	Rpleas_acq	Oppo	Rpleas	Amasked	CS_A	2pleas	distractor2	EVAbeforeCON	acq_US_pleas_masked	acq45_masked	4	14	400	0	300	300	0	0	485	50	0	1	0	0	0	1	blank2r.bmp	0	1	+	0	2	B2r.bmp	492	1	blank2r.bmp	786	1	DHJF	786	1	blank2r.bmp	866	4	kreativ	866	1	!	1239	1	!	-1	0	0	0	0	0	0	0	0	0	0	0	0	0	0	0	0	0	0	0	0	0	0	0	0	0	0	0
012419	12:08:19	12:15:29	427717	5.0.10.0	4_exp_AMP_EVA_AWA_CON	88	Rpleas_acq	Oppo	Rpleas	Amasked	CS_A	2pleas	distractor2	EVAbeforeCON	acq_US_unple_masked	acq45_masked	4	15	400	0	300	300	0	0	539	46	0	1	0	0	0	1	blank2r.bmp	0	1	+	0	4	B4r.bmp	492	1	blank2r.bmp	786	1	CPLW	786	1	blank2r.bmp	866	3	gemein	866	1	!	1239	1	!	-1	0	0	0	0	0	0	0	0	0	0	0	0	0	0	0	0	0	0	0	0	0	0	0	0	0	0	0
012419	12:08:19	12:15:31	429982	5.0.10.0	4_exp_AMP_EVA_AWA_CON	88	Rpleas_acq	Oppo	Rpleas	Amasked	CS_A	2pleas	distractor2	EVAbeforeCON	acq_US_unple_masked	acq45_masked	4	16	400	0	300	300	0	0	479	46	0	1	0	0	0	1	blank2r.bmp	0	1	+	0	5	C1r.bmp	492	1	blank2r.bmp	786	1	CPLW	786	1	blank2r.bmp	866	6	verbissen	866	1	!	1239	1	!	-1	0	0	0	0	0	0	0	0	0	0	0	0	0	0	0	0	0	0	0	0	0	0	0	0	0	0	0
012419	12:08:19	12:15:33	432088	5.0.10.0	4_exp_AMP_EVA_AWA_CON	88	Rpleas_acq	Oppo	Rpleas	Amasked	CS_A	2pleas	distractor2	EVAbeforeCON	acq_US_pleas_masked	acq45_masked	4	17	400	0	300	300	0	0	329	46	0	0	0	0	0	1	blank2r.bmp	0	1	+	0	6	C2r.bmp	492	1	blank2r.bmp	786	1	DHJF	786	1	blank2r.bmp	866	3	genießen	866	1	!	-1	1	!	-1	0	0	0	0	0	0	0	0	0	0	0	0	0	0	0	0	0	0	0	0	0	0	0	0	0	0	0
012419	12:08:19	12:15:35	434274	5.0.10.0	4_exp_AMP_EVA_AWA_CON	88	Rpleas_acq	Oppo	Rpleas	Amasked	CS_A	2pleas	distractor2	EVAbeforeCON	acq_US_pleas_masked	acq45_masked	4	18	400	1	300	300	0	0	382	50	0	1	0	0	0	1	blank2r.bmp	0	1	+	0	8	C4r.bmp	492	1	blank2r.bmp	786	1	DHJF	786	1	blank2r.bmp	866	1	vertrauen	866	1	!	1239	1	!	1279	0	0	0	0	0	0	0	0	0	0	0	0	0	0	0	0	0	0	0	0	0	0	0	0	0	0	0
012419	12:08:19	12:15:37	436366	5.0.10.0	4_exp_AMP_EVA_AWA_CON	88	Rpleas_acq	Oppo	Rpleas	Amasked	CS_A	2pleas	distractor2	EVAbeforeCON	acq_US_unple_masked	acq45_masked	4	19	400	0	300	300	0	0	327	46	0	1	0	0	0	1	blank2r.bmp	0	1	+	0	3	B3r.bmp	492	1	blank2r.bmp	786	1	CPLW	786	1	blank2r.bmp	866	4	krank	866	1	!	-1	1	!	-1	0	0	0	0	0	0	0	0	0	0	0	0	0	0	0	0	0	0	0	0	0	0	0	0	0	0	0
012419	12:08:19	12:15:40	438525	5.0.10.0	4_exp_AMP_EVA_AWA_CON	88	Rpleas_acq	Oppo	Rpleas	Amasked	CS_A	2pleas	distractor2	EVAbeforeCON	acq_US_unple_masked	acq45_masked	4	20	400	1	300	300	0	0	357	46	0	1	0	0	0	1	blank2r.bmp	0	1	+	0	1	B1r.bmp	492	1	blank2r.bmp	786	1	CPLW	786	1	blank2r.bmp	866	5	sterben	866	1	!	1239	1	!	1252	0	0	0	0	0	0	0	0	0	0	0	0	0	0	0	0	0	0	0	0	0	0	0	0	0	0	0
012419	12:08:19	12:15:42	440685	5.0.10.0	4_exp_AMP_EVA_AWA_CON	88	Rpleas_acq	Oppo	Rpleas	Amasked	CS_A	2pleas	distractor2	EVAbeforeCON	acq_US_pleas_masked	acq45_masked	4	21	400	1	300	300	0	0	371	50	0	1	0	0	0	1	blank2r.bmp	0	1	+	0	2	B2r.bmp	492	1	blank2r.bmp	786	1	DHJF	786	1	blank2r.bmp	866	6	vergnügt	866	1	!	1239	1	!	1266	0	0	0	0	0	0	0	0	0	0	0	0	0	0	0	0	0	0	0	0	0	0	0	0	0	0	0
012419	12:08:19	12:15:44	442937	5.0.10.0	4_exp_AMP_EVA_AWA_CON	88	Rpleas_acq	Oppo	Rpleas	Amasked	CS_A	2pleas	distractor2	EVAbeforeCON	acq_US_pleas_masked	acq45_masked	4	22	400	1	300	300	0	0	454	50	0	1	0	0	0	1	blank2r.bmp	0	1	+	0	5	C1r.bmp	492	1	blank2r.bmp	786	1	DHJF	786	1	blank2r.bmp	866	5	sonnig	866	1	!	1239	1	!	1359	0	0	0	0	0	0	0	0	0	0	0	0	0	0	0	0	0	0	0	0	0	0	0	0	0	0	0
012419	12:08:19	12:15:46	445109	5.0.10.0	4_exp_AMP_EVA_AWA_CON	88	Rpleas_acq	Oppo	Rpleas	Amasked	CS_A	2pleas	distractor2	EVAbeforeCON	acq_US_pleas_masked	acq45_masked	4	23	400	1	300	300	0	0	369	50	0	1	0	0	0	1	blank2r.bmp	0	1	+	0	3	B3r.bmp	492	1	blank2r.bmp	786	1	DHJF	786	1	blank2r.bmp	866	2	gütig	866	1	!	1239	1	!	1266	0	0	0	0	0	0	0	0	0	0	0	0	0	0	0	0	0	0	0	0	0	0	0	0	0	0	0
012419	12:08:19	12:15:48	447175	5.0.10.0	4_exp_AMP_EVA_AWA_CON	88	Rpleas_acq	Oppo	Rpleas	Amasked	CS_A	2pleas	distractor2	EVAbeforeCON	acq_US_unple_masked	acq45_masked	4	24	400	0	300	300	0	0	304	46	0	1	0	0	0	1	blank2r.bmp	0	1	+	0	4	B4r.bmp	492	1	blank2r.bmp	786	1	CPLW	786	1	blank2r.bmp	866	2	gierig	866	1	!	-1	1	!	-1	0	0	0	0	0	0	0	0	0	0	0	0	0	0	0	0	0	0	0	0	0	0	0	0	0	0	0
012419	12:08:19	12:15:51	449441	5.0.10.0	4_exp_AMP_EVA_AWA_CON	88	Rpleas_acq	Oppo	Rpleas	Amasked	CS_A	2pleas	distractor2	EVAbeforeCON	acq_US_unple_masked	acq45_masked	4	25	400	0	300	300	0	0	479	46	0	1	0	0	0	1	blank2r.bmp	0	1	+	0	7	C3r.bmp	492	1	blank2r.bmp	786	1	CPLW	786	1	blank2r.bmp	866	1	versagen	866	1	!	1239	1	!	-1	0	0	0	0	0	0	0	0	0	0	0	0	0	0	0	0	0	0	0	0	0	0	0	0	0	0	0
012419	12:08:19	12:15:53	451627	5.0.10.0	4_exp_AMP_EVA_AWA_CON	88	Rpleas_acq	Oppo	Rpleas	Amasked	CS_A	2pleas	distractor2	EVAbeforeCON	acq_US_pleas_masked	acq45_masked	4	26	400	1	300	300	0	0	379	50	0	1	0	0	0	1	blank2r.bmp	0	1	+	0	8	C4r.bmp	492	1	blank2r.bmp	786	1	DHJF	786	1	blank2r.bmp	866	6	vergnügt	866	1	!	1239	1	!	1279	0	0	0	0	0	0	0	0	0	0	0	0	0	0	0	0	0	0	0	0	0	0	0	0	0	0	0
012419	12:08:19	12:15:58	456611	5.0.10.0	4_exp_AMP_EVA_AWA_CON	88	Rpleas_acq	Oppo	Rpleas	Amasked	CS_A	2pleas	distractor2	EVAbeforeCON	acq_US_pleas_masked	acq45_masked	4	27	400	0	300	300	0	0	3209	50	0	1	0	0	0	1	blank2r.bmp	0	1	+	0	1	B1r.bmp	492	1	blank2r.bmp	786	1	DHJF	786	1	blank2r.bmp	866	1	vertrauen	866	1	!	1239	1	!	-1	0	0	0	0	0	0	0	0	0	0	0	0	0	0	0	0	0	0	0	0	0	0	0	0	0	0	0
012419	12:08:19	12:16:00	458717	5.0.10.0	4_exp_AMP_EVA_AWA_CON	88	Rpleas_acq	Oppo	Rpleas	Amasked	CS_A	2pleas	distractor2	EVAbeforeCON	acq_US_unple_masked	acq45_masked	4	28	400	0	300	300	0	0	328	46	0	1	0	0	0	1	blank2r.bmp	0	1	+	0	6	C2r.bmp	492	1	blank2r.bmp	786	1	CPLW	786	1	blank2r.bmp	866	4	krank	866	1	!	-1	1	!	-1	0	0	0	0	0	0	0	0	0	0	0	0	0	0	0	0	0	0	0	0	0	0	0	0	0	0	0
012419	12:08:19	12:16:02	460903	5.0.10.0	4_exp_AMP_EVA_AWA_CON	88	Rpleas_acq	Oppo	Rpleas	Amasked	CS_A	2pleas	distractor2	EVAbeforeCON	acq_US_unple_masked	acq45_masked	4	29	400	1	300	300	0	0	378	46	0	1	0	0	0	1	blank2r.bmp	0	1	+	0	7	C3r.bmp	492	1	blank2r.bmp	786	1	CPLW	786	1	blank2r.bmp	866	6	verbissen	866	1	!	1239	1	!	1279	0	0	0	0	0	0	0	0	0	0	0	0	0	0	0	0	0	0	0	0	0	0	0	0	0	0	0
012419	12:08:19	12:16:04	463115	5.0.10.0	4_exp_AMP_EVA_AWA_CON	88	Rpleas_acq	Oppo	Rpleas	Amasked	CS_A	2pleas	distractor2	EVAbeforeCON	acq_US_pleas_masked	acq45_masked	4	30	400	1	300	300	0	0	416	50	0	1	0	0	0	1	blank2r.bmp	0	1	+	0	3	B3r.bmp	492	1	blank2r.bmp	786	1	DHJF	786	1	blank2r.bmp	866	3	genießen	866	1	!	1239	1	!	1319	0	0	0	0	0	0	0	0	0	0	0	0	0	0	0	0	0	0	0	0	0	0	0	0	0	0	0
012419	12:08:19	12:16:06	465208	5.0.10.0	4_exp_AMP_EVA_AWA_CON	88	Rpleas_acq	Oppo	Rpleas	Amasked	CS_A	2pleas	distractor2	EVAbeforeCON	acq_US_pleas_masked	acq45_masked	4	31	400	0	300	300	0	0	328	46	0	0	0	0	0	1	blank2r.bmp	0	1	+	0	5	C1r.bmp	492	1	blank2r.bmp	786	1	DHJF	786	1	blank2r.bmp	866	4	kreativ	866	1	!	-1	1	!	-1	0	0	0	0	0	0	0	0	0	0	0	0	0	0	0	0	0	0	0	0	0	0	0	0	0	0	0
012419	12:08:19	12:16:08	467300	5.0.10.0	4_exp_AMP_EVA_AWA_CON	88	Rpleas_acq	Oppo	Rpleas	Amasked	CS_A	2pleas	distractor2	EVAbeforeCON	acq_US_pleas_masked	acq45_masked	4	32	400	0	300	300	0	0	312	46	0	0	0	0	0	1	blank2r.bmp	0	1	+	0	1	B1r.bmp	492	1	blank2r.bmp	786	1	DHJF	786	1	blank2r.bmp	866	2	gütig	866	1	!	-1	1	!	-1	0	0	0	0	0	0	0	0	0	0	0	0	0	0	0	0	0	0	0	0	0	0	0	0	0	0	0
012419	12:08:19	12:16:11	469473	5.0.10.0	4_exp_AMP_EVA_AWA_CON	88	Rpleas_acq	Oppo	Rpleas	Amasked	CS_A	2pleas	distractor2	EVAbeforeCON	acq_US_unple_masked	acq45_masked	4	33	400	1	300	300	0	0	360	46	0	1	0	0	0	1	blank2r.bmp	0	1	+	0	6	C2r.bmp	492	1	blank2r.bmp	786	1	CPLW	786	1	blank2r.bmp	866	5	sterben	866	1	!	1239	1	!	1266	0	0	0	0	0	0	0	0	0	0	0	0	0	0	0	0	0	0	0	0	0	0	0	0	0	0	0
012419	12:08:19	12:16:13	471632	5.0.10.0	4_exp_AMP_EVA_AWA_CON	88	Rpleas_acq	Oppo	Rpleas	Amasked	CS_A	2pleas	distractor2	EVAbeforeCON	acq_US_pleas_masked	acq45_masked	4	34	400	1	300	300	0	0	350	50	0	1	0	0	0	1	blank2r.bmp	0	1	+	0	2	B2r.bmp	492	1	blank2r.bmp	786	1	DHJF	786	1	blank2r.bmp	866	5	sonnig	866	1	!	1239	1	!	1252	0	0	0	0	0	0	0	0	0	0	0	0	0	0	0	0	0	0	0	0	0	0	0	0	0	0	0
012419	12:08:19	12:16:15	473844	5.0.10.0	4_exp_AMP_EVA_AWA_CON	88	Rpleas_acq	Oppo	Rpleas	Amasked	CS_A	2pleas	distractor2	EVAbeforeCON	acq_US_unple_masked	acq45_masked	4	35	400	1	300	300	0	0	414	46	0	1	0	0	0	1	blank2r.bmp	0	1	+	0	4	B4r.bmp	492	1	blank2r.bmp	786	1	CPLW	786	1	blank2r.bmp	866	2	gierig	866	1	!	1239	1	!	1319	0	0	0	0	0	0	0	0	0	0	0	0	0	0	0	0	0	0	0	0	0	0	0	0	0	0	0
012419	12:08:19	12:16:17	476003	5.0.10.0	4_exp_AMP_EVA_AWA_CON	88	Rpleas_acq	Oppo	Rpleas	Amasked	CS_A	2pleas	distractor2	EVAbeforeCON	acq_US_unple_masked	acq45_masked	4	36	400	1	300	300	0	0	361	50	0	0	0	0	0	1	blank2r.bmp	0	1	+	0	8	C4r.bmp	492	1	blank2r.bmp	786	1	CPLW	786	1	blank2r.bmp	866	3	gemein	866	1	!	1239	1	!	1266	0	0	0	0	0	0	0	0	0	0	0	0	0	0	0	0	0	0	0	0	0	0	0	0	0	0	0
012419	12:08:19	12:16:28	487052	5.0.10.0	4_exp_AMP_EVA_AWA_CON	88	Rpleas_acq	Oppo	Rpleas	Amasked	CS_A	2pleas	distractor2	EVAbeforeCON	acq_US_pleas_masked	acq45_masked	5	1	400	1	300	300	0	0	382	50	0	1	0	0	0	1	blank2r.bmp	0	1	+	0	8	C4r.bmp	492	1	blank2r.bmp	786	1	DHJF	786	1	blank2r.bmp	866	3	genießen	866	1	!	1239	1	!	1279	0	0	0	0	0	0	0	0	0	0	0	0	0	0	0	0	0	0	0	0	0	0	0	0	0	0	0
012419	12:08:19	12:16:30	489238	5.0.10.0	4_exp_AMP_EVA_AWA_CON	88	Rpleas_acq	Oppo	Rpleas	Amasked	CS_A	2pleas	distractor2	EVAbeforeCON	acq_US_unple_masked	acq45_masked	5	2	400	1	300	300	0	0	373	46	0	1	0	0	0	1	blank2r.bmp	0	1	+	0	6	C2r.bmp	492	1	blank2r.bmp	786	1	CPLW	786	1	blank2r.bmp	866	6	verbissen	866	1	!	1239	1	!	1279	0	0	0	0	0	0	0	0	0	0	0	0	0	0	0	0	0	0	0	0	0	0	0	0	0	0	0
012419	12:08:19	12:16:32	491410	5.0.10.0	4_exp_AMP_EVA_AWA_CON	88	Rpleas_acq	Oppo	Rpleas	Amasked	CS_A	2pleas	distractor2	EVAbeforeCON	acq_US_unple_masked	acq45_masked	5	3	400	1	300	300	0	0	368	46	0	1	0	0	0	1	blank2r.bmp	0	1	+	0	7	C3r.bmp	492	1	blank2r.bmp	786	1	CPLW	786	1	blank2r.bmp	866	5	sterben	866	1	!	1239	1	!	1266	0	0	0	0	0	0	0	0	0	0	0	0	0	0	0	0	0	0	0	0	0	0	0	0	0	0	0
012419	12:08:19	12:16:35	493489	5.0.10.0	4_exp_AMP_EVA_AWA_CON	88	Rpleas_acq	Oppo	Rpleas	Amasked	CS_A	2pleas	distractor2	EVAbeforeCON	acq_US_pleas_masked	acq45_masked	5	4	400	0	300	300	0	0	305	46	0	0	0	0	0	1	blank2r.bmp	0	1	+	0	5	C1r.bmp	492	1	blank2r.bmp	786	1	DHJF	786	1	blank2r.bmp	866	5	sonnig	866	1	!	-1	1	!	-1	0	0	0	0	0	0	0	0	0	0	0	0	0	0	0	0	0	0	0	0	0	0	0	0	0	0	0
012419	12:08:19	12:16:37	495689	5.0.10.0	4_exp_AMP_EVA_AWA_CON	88	Rpleas_acq	Oppo	Rpleas	Amasked	CS_A	2pleas	distractor2	EVAbeforeCON	acq_US_unple_masked	acq45_masked	5	5	400	1	300	300	0	0	394	46	0	1	0	0	0	1	blank2r.bmp	0	1	+	0	3	B3r.bmp	492	1	blank2r.bmp	786	1	CPLW	786	1	blank2r.bmp	866	2	gierig	866	1	!	1239	1	!	1292	0	0	0	0	0	0	0	0	0	0	0	0	0	0	0	0	0	0	0	0	0	0	0	0	0	0	0
012419	12:08:19	12:16:39	497901	5.0.10.0	4_exp_AMP_EVA_AWA_CON	88	Rpleas_acq	Oppo	Rpleas	Amasked	CS_A	2pleas	distractor2	EVAbeforeCON	acq_US_pleas_masked	acq45_masked	5	6	400	1	300	300	0	0	413	50	0	1	0	0	0	1	blank2r.bmp	0	1	+	0	1	B1r.bmp	492	1	blank2r.bmp	786	1	DHJF	786	1	blank2r.bmp	866	6	vergnügt	866	1	!	1239	1	!	1319	0	0	0	0	0	0	0	0	0	0	0	0	0	0	0	0	0	0	0	0	0	0	0	0	0	0	0
012419	12:08:19	12:16:41	500047	5.0.10.0	4_exp_AMP_EVA_AWA_CON	88	Rpleas_acq	Oppo	Rpleas	Amasked	CS_A	2pleas	distractor2	EVAbeforeCON	acq_US_unple_masked	acq45_masked	5	7	400	1	300	300	0	0	354	46	0	1	0	0	0	1	blank2r.bmp	0	1	+	0	2	B2r.bmp	492	1	blank2r.bmp	786	1	CPLW	786	1	blank2r.bmp	866	4	krank	866	1	!	1239	1	!	1252	0	0	0	0	0	0	0	0	0	0	0	0	0	0	0	0	0	0	0	0	0	0	0	0	0	0	0
012419	12:08:19	12:16:43	502099	5.0.10.0	4_exp_AMP_EVA_AWA_CON	88	Rpleas_acq	Oppo	Rpleas	Amasked	CS_A	2pleas	distractor2	EVAbeforeCON	acq_US_unple_masked	acq45_masked	5	8	400	0	300	300	0	0	285	50	0	0	0	0	0	1	blank2r.bmp	0	1	+	0	4	B4r.bmp	492	1	blank2r.bmp	786	1	CPLW	786	1	blank2r.bmp	866	1	versagen	866	1	!	-1	1	!	-1	0	0	0	0	0	0	0	0	0	0	0	0	0	0	0	0	0	0	0	0	0	0	0	0	0	0	0
012419	12:08:19	12:16:45	504272	5.0.10.0	4_exp_AMP_EVA_AWA_CON	88	Rpleas_acq	Oppo	Rpleas	Amasked	CS_A	2pleas	distractor2	EVAbeforeCON	acq_US_pleas_masked	acq45_masked	5	9	400	1	300	300	0	0	362	50	0	1	0	0	0	1	blank2r.bmp	0	1	+	0	8	C4r.bmp	492	1	blank2r.bmp	786	1	DHJF	786	1	blank2r.bmp	866	4	kreativ	866	1	!	1239	1	!	1266	0	0	0	0	0	0	0	0	0	0	0	0	0	0	0	0	0	0	0	0	0	0	0	0	0	0	0
012419	12:08:19	12:16:48	506418	5.0.10.0	4_exp_AMP_EVA_AWA_CON	88	Rpleas_acq	Oppo	Rpleas	Amasked	CS_A	2pleas	distractor2	EVAbeforeCON	acq_US_unple_masked	acq45_masked	5	10	400	1	300	300	0	0	351	46	0	1	0	0	0	1	blank2r.bmp	0	1	+	0	7	C3r.bmp	492	1	blank2r.bmp	786	1	CPLW	786	1	blank2r.bmp	866	3	gemein	866	1	!	1239	1	!	1252	0	0	0	0	0	0	0	0	0	0	0	0	0	0	0	0	0	0	0	0	0	0	0	0	0	0	0
012419	12:08:19	12:16:50	508630	5.0.10.0	4_exp_AMP_EVA_AWA_CON	88	Rpleas_acq	Oppo	Rpleas	Amasked	CS_A	2pleas	distractor2	EVAbeforeCON	acq_US_unple_masked	acq45_masked	5	11	400	1	300	300	0	0	414	46	0	1	0	0	0	1	blank2r.bmp	0	1	+	0	1	B1r.bmp	492	1	blank2r.bmp	786	1	CPLW	786	1	blank2r.bmp	866	2	gierig	866	1	!	1239	1	!	1319	0	0	0	0	0	0	0	0	0	0	0	0	0	0	0	0	0	0	0	0	0	0	0	0	0	0	0
012419	12:08:19	12:16:52	510869	5.0.10.0	4_exp_AMP_EVA_AWA_CON	88	Rpleas_acq	Oppo	Rpleas	Amasked	CS_A	2pleas	distractor2	EVAbeforeCON	acq_US_unple_masked	acq45_masked	5	12	400	1	300	300	0	0	444	46	0	1	0	0	0	1	blank2r.bmp	0	1	+	0	5	C1r.bmp	492	1	blank2r.bmp	786	1	CPLW	786	1	blank2r.bmp	866	1	versagen	866	1	!	1239	1	!	1346	0	0	0	0	0	0	0	0	0	0	0	0	0	0	0	0	0	0	0	0	0	0	0	0	0	0	0
012419	12:08:19	12:16:54	513015	5.0.10.0	4_exp_AMP_EVA_AWA_CON	88	Rpleas_acq	Oppo	Rpleas	Amasked	CS_A	2pleas	distractor2	EVAbeforeCON	acq_US_pleas_masked	acq45_masked	5	13	400	1	300	300	0	0	354	50	0	1	0	0	0	1	blank2r.bmp	0	1	+	0	4	B4r.bmp	492	1	blank2r.bmp	786	1	DHJF	786	1	blank2r.bmp	866	1	vertrauen	866	1	!	1239	1	!	1252	0	0	0	0	0	0	0	0	0	0	0	0	0	0	0	0	0	0	0	0	0	0	0	0	0	0	0
012419	12:08:19	12:16:56	515201	5.0.10.0	4_exp_AMP_EVA_AWA_CON	88	Rpleas_acq	Oppo	Rpleas	Amasked	CS_A	2pleas	distractor2	EVAbeforeCON	acq_US_pleas_masked	acq45_masked	5	14	400	1	300	300	0	0	398	50	0	1	0	0	0	1	blank2r.bmp	0	1	+	0	6	C2r.bmp	492	1	blank2r.bmp	786	1	DHJF	786	1	blank2r.bmp	866	2	gütig	866	1	!	1239	1	!	1292	0	0	0	0	0	0	0	0	0	0	0	0	0	0	0	0	0	0	0	0	0	0	0	0	0	0	0
012419	12:08:19	12:16:58	517400	5.0.10.0	4_exp_AMP_EVA_AWA_CON	88	Rpleas_acq	Oppo	Rpleas	Amasked	CS_A	2pleas	distractor2	EVAbeforeCON	acq_US_pleas_masked	acq45_masked	5	15	400	1	300	300	0	0	403	50	0	1	0	0	0	1	blank2r.bmp	0	1	+	0	2	B2r.bmp	492	1	blank2r.bmp	786	1	DHJF	786	1	blank2r.bmp	866	6	vergnügt	866	1	!	1239	1	!	1306	0	0	0	0	0	0	0	0	0	0	0	0	0	0	0	0	0	0	0	0	0	0	0	0	0	0	0
012419	12:08:19	12:17:01	519545	5.0.10.0	4_exp_AMP_EVA_AWA_CON	88	Rpleas_acq	Oppo	Rpleas	Amasked	CS_A	2pleas	distractor2	EVAbeforeCON	acq_US_pleas_masked	acq45_masked	5	16	400	1	300	300	0	0	346	50	0	1	0	0	0	1	blank2r.bmp	0	1	+	0	3	B3r.bmp	492	1	blank2r.bmp	786	1	DHJF	786	1	blank2r.bmp	866	4	kreativ	866	1	!	1239	1	!	1252	0	0	0	0	0	0	0	0	0	0	0	0	0	0	0	0	0	0	0	0	0	0	0	0	0	0	0
012419	12:08:19	12:17:03	521705	5.0.10.0	4_exp_AMP_EVA_AWA_CON	88	Rpleas_acq	Oppo	Rpleas	Amasked	CS_A	2pleas	distractor2	EVAbeforeCON	acq_US_pleas_masked	acq45_masked	5	17	400	1	300	300	0	0	371	46	0	0	0	0	0	1	blank2r.bmp	0	1	+	0	3	B3r.bmp	492	1	blank2r.bmp	786	1	DHJF	786	1	blank2r.bmp	866	1	vertrauen	866	1	!	1239	1	!	1266	0	0	0	0	0	0	0	0	0	0	0	0	0	0	0	0	0	0	0	0	0	0	0	0	0	0	0
012419	12:08:19	12:17:05	523850	5.0.10.0	4_exp_AMP_EVA_AWA_CON	88	Rpleas_acq	Oppo	Rpleas	Amasked	CS_A	2pleas	distractor2	EVAbeforeCON	acq_US_unple_masked	acq45_masked	5	18	400	1	300	300	0	0	351	46	0	1	0	0	0	1	blank2r.bmp	0	1	+	0	7	C3r.bmp	492	1	blank2r.bmp	786	1	CPLW	786	1	blank2r.bmp	866	6	verbissen	866	1	!	1239	1	!	1252	0	0	0	0	0	0	0	0	0	0	0	0	0	0	0	0	0	0	0	0	0	0	0	0	0	0	0
012419	12:08:19	12:17:07	525996	5.0.10.0	4_exp_AMP_EVA_AWA_CON	88	Rpleas_acq	Oppo	Rpleas	Amasked	CS_A	2pleas	distractor2	EVAbeforeCON	acq_US_pleas_masked	acq45_masked	5	19	400	1	300	300	0	0	356	50	0	1	0	0	0	1	blank2r.bmp	0	1	+	0	2	B2r.bmp	492	1	blank2r.bmp	786	1	DHJF	786	1	blank2r.bmp	866	5	sonnig	866	1	!	1239	1	!	1252	0	0	0	0	0	0	0	0	0	0	0	0	0	0	0	0	0	0	0	0	0	0	0	0	0	0	0
012419	12:08:19	12:17:09	528142	5.0.10.0	4_exp_AMP_EVA_AWA_CON	88	Rpleas_acq	Oppo	Rpleas	Amasked	CS_A	2pleas	distractor2	EVAbeforeCON	acq_US_unple_masked	acq45_masked	5	20	400	1	300	300	0	0	351	46	0	1	0	0	0	1	blank2r.bmp	0	1	+	0	8	C4r.bmp	492	1	blank2r.bmp	786	1	CPLW	786	1	blank2r.bmp	866	4	krank	866	1	!	1239	1	!	1252	0	0	0	0	0	0	0	0	0	0	0	0	0	0	0	0	0	0	0	0	0	0	0	0	0	0	0
012419	12:08:19	12:17:11	530208	5.0.10.0	4_exp_AMP_EVA_AWA_CON	88	Rpleas_acq	Oppo	Rpleas	Amasked	CS_A	2pleas	distractor2	EVAbeforeCON	acq_US_unple_masked	acq45_masked	5	21	400	0	300	300	0	0	296	50	0	0	0	0	0	1	blank2r.bmp	0	1	+	0	5	C1r.bmp	492	1	blank2r.bmp	786	1	CPLW	786	1	blank2r.bmp	866	3	gemein	866	1	!	-1	1	!	-1	0	0	0	0	0	0	0	0	0	0	0	0	0	0	0	0	0	0	0	0	0	0	0	0	0	0	0
012419	12:08:19	12:17:14	532447	5.0.10.0	4_exp_AMP_EVA_AWA_CON	88	Rpleas_acq	Oppo	Rpleas	Amasked	CS_A	2pleas	distractor2	EVAbeforeCON	acq_US_unple_masked	acq45_masked	5	22	400	1	300	300	0	0	429	46	0	1	0	0	0	1	blank2r.bmp	0	1	+	0	4	B4r.bmp	492	1	blank2r.bmp	786	1	CPLW	786	1	blank2r.bmp	866	5	sterben	866	1	!	1239	1	!	1332	0	0	0	0	0	0	0	0	0	0	0	0	0	0	0	0	0	0	0	0	0	0	0	0	0	0	0
012419	12:08:19	12:17:16	534526	5.0.10.0	4_exp_AMP_EVA_AWA_CON	88	Rpleas_acq	Oppo	Rpleas	Amasked	CS_A	2pleas	distractor2	EVAbeforeCON	acq_US_pleas_masked	acq45_masked	5	23	400	0	300	300	0	0	312	50	0	1	0	0	0	1	blank2r.bmp	0	1	+	0	1	B1r.bmp	492	1	blank2r.bmp	786	1	DHJF	786	1	blank2r.bmp	866	3	genießen	866	1	!	-1	1	!	-1	0	0	0	0	0	0	0	0	0	0	0	0	0	0	0	0	0	0	0	0	0	0	0	0	0	0	0
012419	12:08:19	12:17:18	536632	5.0.10.0	4_exp_AMP_EVA_AWA_CON	88	Rpleas_acq	Oppo	Rpleas	Amasked	CS_A	2pleas	distractor2	EVAbeforeCON	acq_US_unple_masked	acq45_masked	5	24	400	0	300	300	0	0	307	46	0	1	0	0	0	1	blank2r.bmp	0	1	+	0	6	C2r.bmp	492	1	blank2r.bmp	786	1	CPLW	786	1	blank2r.bmp	866	4	krank	866	1	!	-1	1	!	-1	0	0	0	0	0	0	0	0	0	0	0	0	0	0	0	0	0	0	0	0	0	0	0	0	0	0	0
012419	12:08:19	12:17:20	538751	5.0.10.0	4_exp_AMP_EVA_AWA_CON	88	Rpleas_acq	Oppo	Rpleas	Amasked	CS_A	2pleas	distractor2	EVAbeforeCON	acq_US_pleas_masked	acq45_masked	5	25	400	0	300	300	0	0	326	50	0	1	0	0	0	1	blank2r.bmp	0	1	+	0	2	B2r.bmp	492	1	blank2r.bmp	786	1	DHJF	786	1	blank2r.bmp	866	2	gütig	866	1	!	-1	1	!	-1	0	0	0	0	0	0	0	0	0	0	0	0	0	0	0	0	0	0	0	0	0	0	0	0	0	0	0
012419	12:08:19	12:17:22	540937	5.0.10.0	4_exp_AMP_EVA_AWA_CON	88	Rpleas_acq	Oppo	Rpleas	Amasked	CS_A	2pleas	distractor2	EVAbeforeCON	acq_US_unple_masked	acq45_masked	5	26	400	1	300	300	0	0	380	46	0	1	0	0	0	1	blank2r.bmp	0	1	+	0	3	B3r.bmp	492	1	blank2r.bmp	786	1	CPLW	786	1	blank2r.bmp	866	6	verbissen	866	1	!	1239	1	!	1279	0	0	0	0	0	0	0	0	0	0	0	0	0	0	0	0	0	0	0	0	0	0	0	0	0	0	0
012419	12:08:19	12:17:24	542989	5.0.10.0	4_exp_AMP_EVA_AWA_CON	88	Rpleas_acq	Oppo	Rpleas	Amasked	CS_A	2pleas	distractor2	EVAbeforeCON	acq_US_pleas_masked	acq45_masked	5	27	400	0	300	300	0	0	288	50	0	1	0	0	0	1	blank2r.bmp	0	1	+	0	5	C1r.bmp	492	1	blank2r.bmp	786	1	DHJF	786	1	blank2r.bmp	866	4	kreativ	866	1	!	-1	1	!	-1	0	0	0	0	0	0	0	0	0	0	0	0	0	0	0	0	0	0	0	0	0	0	0	0	0	0	0
012419	12:08:19	12:17:26	545282	5.0.10.0	4_exp_AMP_EVA_AWA_CON	88	Rpleas_acq	Oppo	Rpleas	Amasked	CS_A	2pleas	distractor2	EVAbeforeCON	acq_US_unple_masked	acq45_masked	5	28	400	0	300	300	0	0	514	46	0	1	0	0	0	1	blank2r.bmp	0	1	+	0	4	B4r.bmp	492	1	blank2r.bmp	786	1	CPLW	786	1	blank2r.bmp	866	3	gemein	866	1	!	1239	1	!	-1	0	0	0	0	0	0	0	0	0	0	0	0	0	0	0	0	0	0	0	0	0	0	0	0	0	0	0
012419	12:08:19	12:17:29	547467	5.0.10.0	4_exp_AMP_EVA_AWA_CON	88	Rpleas_acq	Oppo	Rpleas	Amasked	CS_A	2pleas	distractor2	EVAbeforeCON	acq_US_pleas_masked	acq45_masked	5	29	400	1	300	300	0	0	380	46	0	0	0	0	0	1	blank2r.bmp	0	1	+	0	1	B1r.bmp	492	1	blank2r.bmp	786	1	DHJF	786	1	blank2r.bmp	866	6	vergnügt	866	1	!	1239	1	!	1279	0	0	0	0	0	0	0	0	0	0	0	0	0	0	0	0	0	0	0	0	0	0	0	0	0	0	0
012419	12:08:19	12:17:31	549720	5.0.10.0	4_exp_AMP_EVA_AWA_CON	88	Rpleas_acq	Oppo	Rpleas	Amasked	CS_A	2pleas	distractor2	EVAbeforeCON	acq_US_pleas_masked	acq45_masked	5	30	400	1	300	300	0	0	457	50	0	1	0	0	0	1	blank2r.bmp	0	1	+	0	7	C3r.bmp	492	1	blank2r.bmp	786	1	DHJF	786	1	blank2r.bmp	866	3	genießen	866	1	!	1239	1	!	1359	0	0	0	0	0	0	0	0	0	0	0	0	0	0	0	0	0	0	0	0	0	0	0	0	0	0	0
012419	12:08:19	12:17:33	551865	5.0.10.0	4_exp_AMP_EVA_AWA_CON	88	Rpleas_acq	Oppo	Rpleas	Amasked	CS_A	2pleas	distractor2	EVAbeforeCON	acq_US_unple_masked	acq45_masked	5	31	400	1	300	300	0	0	346	46	0	1	0	0	0	1	blank2r.bmp	0	1	+	0	6	C2r.bmp	492	1	blank2r.bmp	786	1	CPLW	786	1	blank2r.bmp	866	5	sterben	866	1	!	1239	1	!	1252	0	0	0	0	0	0	0	0	0	0	0	0	0	0	0	0	0	0	0	0	0	0	0	0	0	0	0
012419	12:08:19	12:17:35	554025	5.0.10.0	4_exp_AMP_EVA_AWA_CON	88	Rpleas_acq	Oppo	Rpleas	Amasked	CS_A	2pleas	distractor2	EVAbeforeCON	acq_US_pleas_masked	acq45_masked	5	32	400	1	300	300	0	0	370	50	0	1	0	0	0	1	blank2r.bmp	0	1	+	0	8	C4r.bmp	492	1	blank2r.bmp	786	1	DHJF	786	1	blank2r.bmp	866	1	vertrauen	866	1	!	1239	1	!	1266	0	0	0	0	0	0	0	0	0	0	0	0	0	0	0	0	0	0	0	0	0	0	0	0	0	0	0
012419	12:08:19	12:17:37	556184	5.0.10.0	4_exp_AMP_EVA_AWA_CON	88	Rpleas_acq	Oppo	Rpleas	Amasked	CS_A	2pleas	distractor2	EVAbeforeCON	acq_US_pleas_masked	acq45_masked	5	33	400	1	300	300	0	0	350	46	0	0	0	0	0	1	blank2r.bmp	0	1	+	0	6	C2r.bmp	492	1	blank2r.bmp	786	1	DHJF	786	1	blank2r.bmp	866	5	sonnig	866	1	!	1239	1	!	1252	0	0	0	0	0	0	0	0	0	0	0	0	0	0	0	0	0	0	0	0	0	0	0	0	0	0	0
012419	12:08:19	12:17:39	558329	5.0.10.0	4_exp_AMP_EVA_AWA_CON	88	Rpleas_acq	Oppo	Rpleas	Amasked	CS_A	2pleas	distractor2	EVAbeforeCON	acq_US_unple_masked	acq45_masked	5	34	400	1	300	300	0	0	347	46	0	1	0	0	0	1	blank2r.bmp	0	1	+	0	7	C3r.bmp	492	1	blank2r.bmp	786	1	CPLW	786	1	blank2r.bmp	866	1	versagen	866	1	!	1239	1	!	1252	0	0	0	0	0	0	0	0	0	0	0	0	0	0	0	0	0	0	0	0	0	0	0	0	0	0	0
012419	12:08:19	12:17:42	560595	5.0.10.0	4_exp_AMP_EVA_AWA_CON	88	Rpleas_acq	Oppo	Rpleas	Amasked	CS_A	2pleas	distractor2	EVAbeforeCON	acq_US_unple_masked	acq45_masked	5	35	400	0	300	300	0	0	479	46	0	1	0	0	0	1	blank2r.bmp	0	1	+	0	4	B4r.bmp	492	1	blank2r.bmp	786	1	CPLW	786	1	blank2r.bmp	866	2	gierig	866	1	!	1239	1	!	-1	0	0	0	0	0	0	0	0	0	0	0	0	0	0	0	0	0	0	0	0	0	0	0	0	0	0	0
012419	12:08:19	12:17:44	562754	5.0.10.0	4_exp_AMP_EVA_AWA_CON	88	Rpleas_acq	Oppo	Rpleas	Amasked	CS_A	2pleas	distractor2	EVAbeforeCON	acq_US_pleas_masked	acq45_masked	5	36	400	1	300	300	0	0	346	50	0	1	0	0	0	1	blank2r.bmp	0	1	+	0	2	B2r.bmp	492	1	blank2r.bmp	786	1	DHJF	786	1	blank2r.bmp	866	2	gütig	866	1	!	1239	1	!	1252	0	0	0	0	0	0	0	0	0	0	0	0	0	0	0	0	0	0	0	0	0	0	0	0	0	0	0
012419	12:08:19	12:18:26	605057	5.0.10.0	4_exp_AMP_EVA_AWA_CON	88	Rpleas_acq	Oppo	Lpleas	Amasked	CS_A	2pleas	distractor2	EVAbeforeCON	AMP_CSunple	AMP1_masked	6	1	0	0	300	300	0	0	6629	46	0	0	0	0	0	1	blank2r.bmp	0	1	CPLW	0	1	blank2r.bmp	79	34	pic34.bmp	199	1	whitenoise_No3.bmp	306	0	0	0	0	0	0	0	0	0	0	0	0	0	0	0	0	0	0	0	0	0	0	0	0	0	0	0	0	0	0	0	0	0	0	0	0	0	0	0
012419	12:08:19	12:18:30	608535	5.0.10.0	4_exp_AMP_EVA_AWA_CON	88	Rpleas_acq	Oppo	Lpleas	Amasked	CS_A	2pleas	distractor2	EVAbeforeCON	AMP_CSunple	AMP1_masked	6	2	0	0	300	300	0	0	2563	50	0	1	0	0	0	1	blank2r.bmp	0	1	CPLW	0	1	blank2r.bmp	79	98	pic98.bmp	199	1	whitenoise_No3.bmp	306	0	0	0	0	0	0	0	0	0	0	0	0	0	0	0	0	0	0	0	0	0	0	0	0	0	0	0	0	0	0	0	0	0	0	0	0	0	0	0
012419	12:08:19	12:18:36	614413	5.0.10.0	4_exp_AMP_EVA_AWA_CON	88	Rpleas_acq	Oppo	Lpleas	Amasked	CS_A	2pleas	distractor2	EVAbeforeCON	AMP_CSpleas	AMP1_masked	6	3	0	0	300	300	0	0	4961	50	0	0	0	0	0	1	blank2r.bmp	0	1	DHJF	0	1	blank2r.bmp	79	146	pic146.bmp	199	1	whitenoise_No3.bmp	306	0	0	0	0	0	0	0	0	0	0	0	0	0	0	0	0	0	0	0	0	0	0	0	0	0	0	0	0	0	0	0	0	0	0	0	0	0	0	0
012419	12:08:19	12:18:37	616359	5.0.10.0	4_exp_AMP_EVA_AWA_CON	88	Rpleas_acq	Oppo	Lpleas	Amasked	CS_A	2pleas	distractor2	EVAbeforeCON	AMP_CSunple	AMP1_masked	6	4	0	0	300	300	0	0	1037	50	0	1	0	0	0	1	blank2r.bmp	0	1	CPLW	0	1	blank2r.bmp	79	101	pic101.bmp	199	1	whitenoise_No3.bmp	306	0	0	0	0	0	0	0	0	0	0	0	0	0	0	0	0	0	0	0	0	0	0	0	0	0	0	0	0	0	0	0	0	0	0	0	0	0	0	0
012419	12:08:19	12:18:39	617932	5.0.10.0	4_exp_AMP_EVA_AWA_CON	88	Rpleas_acq	Oppo	Lpleas	Amasked	CS_A	2pleas	distractor2	EVAbeforeCON	AMP_CSpleas	AMP1_masked	6	5	0	0	300	300	0	0	641	46	0	1	0	0	0	1	blank2r.bmp	0	1	DHJF	0	1	blank2r.bmp	79	103	pic103.bmp	199	1	whitenoise_No3.bmp	306	0	0	0	0	0	0	0	0	0	0	0	0	0	0	0	0	0	0	0	0	0	0	0	0	0	0	0	0	0	0	0	0	0	0	0	0	0	0	0
012419	12:08:19	12:18:41	619957	5.0.10.0	4_exp_AMP_EVA_AWA_CON	88	Rpleas_acq	Oppo	Lpleas	Amasked	CS_A	2pleas	distractor2	EVAbeforeCON	AMP_CSpleas	AMP1_masked	6	6	0	0	300	300	0	0	1117	46	0	1	0	0	0	1	blank2r.bmp	0	1	DHJF	0	1	blank2r.bmp	79	46	pic46.bmp	199	1	whitenoise_No3.bmp	306	0	0	0	0	0	0	0	0	0	0	0	0	0	0	0	0	0	0	0	0	0	0	0	0	0	0	0	0	0	0	0	0	0	0	0	0	0	0	0
012419	12:08:19	12:18:43	622396	5.0.10.0	4_exp_AMP_EVA_AWA_CON	88	Rpleas_acq	Oppo	Lpleas	Amasked	CS_A	2pleas	distractor2	EVAbeforeCON	AMP_distractor	AMP1_masked	6	7	0	0	300	300	0	0	1508	46	0	0	0	0	0	1	blank2r.bmp	0	1	QYSB	0	1	blank2r.bmp	79	105	pic105.bmp	199	1	whitenoise_No3.bmp	306	0	0	0	0	0	0	0	0	0	0	0	0	0	0	0	0	0	0	0	0	0	0	0	0	0	0	0	0	0	0	0	0	0	0	0	0	0	0	0
012419	12:08:19	12:18:45	623822	5.0.10.0	4_exp_AMP_EVA_AWA_CON	88	Rpleas_acq	Oppo	Lpleas	Amasked	CS_A	2pleas	distractor2	EVAbeforeCON	AMP_CSpleas	AMP1_masked	6	8	0	0	300	300	0	0	501	50	0	0	0	0	0	1	blank2r.bmp	0	1	DHJF	0	1	blank2r.bmp	79	151	pic151.bmp	199	1	whitenoise_No3.bmp	306	0	0	0	0	0	0	0	0	0	0	0	0	0	0	0	0	0	0	0	0	0	0	0	0	0	0	0	0	0	0	0	0	0	0	0	0	0	0	0
012419	12:08:19	12:18:46	625342	5.0.10.0	4_exp_AMP_EVA_AWA_CON	88	Rpleas_acq	Oppo	Lpleas	Amasked	CS_A	2pleas	distractor2	EVAbeforeCON	AMP_CSunple	AMP1_masked	6	9	0	0	300	300	0	0	606	50	0	1	0	0	0	1	blank2r.bmp	0	1	CPLW	0	1	blank2r.bmp	79	6	pic6.bmp	199	1	whitenoise_No3.bmp	306	0	0	0	0	0	0	0	0	0	0	0	0	0	0	0	0	0	0	0	0	0	0	0	0	0	0	0	0	0	0	0	0	0	0	0	0	0	0	0
012419	12:08:19	12:18:50	628474	5.0.10.0	4_exp_AMP_EVA_AWA_CON	88	Rpleas_acq	Oppo	Lpleas	Amasked	CS_A	2pleas	distractor2	EVAbeforeCON	AMP_CSunple	AMP1_masked	6	10	0	0	300	300	0	0	2198	46	0	0	0	0	0	1	blank2r.bmp	0	1	CPLW	0	1	blank2r.bmp	79	24	pic24.bmp	199	1	whitenoise_No3.bmp	306	0	0	0	0	0	0	0	0	0	0	0	0	0	0	0	0	0	0	0	0	0	0	0	0	0	0	0	0	0	0	0	0	0	0	0	0	0	0	0
012419	12:08:19	12:18:51	630380	5.0.10.0	4_exp_AMP_EVA_AWA_CON	88	Rpleas_acq	Oppo	Lpleas	Amasked	CS_A	2pleas	distractor2	EVAbeforeCON	AMP_CSpleas	AMP1_masked	6	11	0	0	300	300	0	0	993	50	0	0	0	0	0	1	blank2r.bmp	0	1	DHJF	0	1	blank2r.bmp	79	14	pic14.bmp	199	1	whitenoise_No3.bmp	306	0	0	0	0	0	0	0	0	0	0	0	0	0	0	0	0	0	0	0	0	0	0	0	0	0	0	0	0	0	0	0	0	0	0	0	0	0	0	0
012419	12:08:19	12:18:53	631793	5.0.10.0	4_exp_AMP_EVA_AWA_CON	88	Rpleas_acq	Oppo	Lpleas	Amasked	CS_A	2pleas	distractor2	EVAbeforeCON	AMP_CSunple	AMP1_masked	6	12	0	0	300	300	0	0	490	50	0	1	0	0	0	1	blank2r.bmp	0	1	CPLW	0	1	blank2r.bmp	79	76	pic76.bmp	199	1	whitenoise_No3.bmp	306	0	0	0	0	0	0	0	0	0	0	0	0	0	0	0	0	0	0	0	0	0	0	0	0	0	0	0	0	0	0	0	0	0	0	0	0	0	0	0
012419	12:08:19	12:18:54	633112	5.0.10.0	4_exp_AMP_EVA_AWA_CON	88	Rpleas_acq	Oppo	Lpleas	Amasked	CS_A	2pleas	distractor2	EVAbeforeCON	AMP_CSunple	AMP1_masked	6	13	0	0	300	300	0	0	376	50	0	1	0	0	0	1	blank2r.bmp	0	1	CPLW	0	1	blank2r.bmp	79	78	pic78.bmp	199	1	whitenoise_No3.bmp	306	0	0	0	0	0	0	0	0	0	0	0	0	0	0	0	0	0	0	0	0	0	0	0	0	0	0	0	0	0	0	0	0	0	0	0	0	0	0	0
012419	12:08:19	12:18:56	634578	5.0.10.0	4_exp_AMP_EVA_AWA_CON	88	Rpleas_acq	Oppo	Lpleas	Amasked	CS_A	2pleas	distractor2	EVAbeforeCON	AMP_CSunple	AMP1_masked	6	14	0	0	300	300	0	0	542	50	0	1	0	0	0	1	blank2r.bmp	0	1	CPLW	0	1	blank2r.bmp	79	57	pic57.bmp	199	1	whitenoise_No3.bmp	306	0	0	0	0	0	0	0	0	0	0	0	0	0	0	0	0	0	0	0	0	0	0	0	0	0	0	0	0	0	0	0	0	0	0	0	0	0	0	0
012419	12:08:19	12:18:57	636097	5.0.10.0	4_exp_AMP_EVA_AWA_CON	88	Rpleas_acq	Oppo	Lpleas	Amasked	CS_A	2pleas	distractor2	EVAbeforeCON	AMP_distractor	AMP1_masked	6	15	0	0	300	300	0	0	586	46	0	0	0	0	0	1	blank2r.bmp	0	1	QYSB	0	1	blank2r.bmp	79	2	pic2.bmp	199	1	whitenoise_No3.bmp	306	0	0	0	0	0	0	0	0	0	0	0	0	0	0	0	0	0	0	0	0	0	0	0	0	0	0	0	0	0	0	0	0	0	0	0	0	0	0	0
012419	12:08:19	12:18:59	637484	5.0.10.0	4_exp_AMP_EVA_AWA_CON	88	Rpleas_acq	Oppo	Lpleas	Amasked	CS_A	2pleas	distractor2	EVAbeforeCON	AMP_CSpleas	AMP1_masked	6	16	0	0	300	300	0	0	474	46	0	1	0	0	0	1	blank2r.bmp	0	1	DHJF	0	1	blank2r.bmp	79	77	pic77.bmp	199	1	whitenoise_No3.bmp	306	0	0	0	0	0	0	0	0	0	0	0	0	0	0	0	0	0	0	0	0	0	0	0	0	0	0	0	0	0	0	0	0	0	0	0	0	0	0	0
012419	12:08:19	12:19:00	639070	5.0.10.0	4_exp_AMP_EVA_AWA_CON	88	Rpleas_acq	Oppo	Lpleas	Amasked	CS_A	2pleas	distractor2	EVAbeforeCON	AMP_CSpleas	AMP1_masked	6	17	0	0	300	300	0	0	653	50	0	0	0	0	0	1	blank2r.bmp	0	1	DHJF	0	1	blank2r.bmp	79	67	pic67.bmp	199	1	whitenoise_No3.bmp	306	0	0	0	0	0	0	0	0	0	0	0	0	0	0	0	0	0	0	0	0	0	0	0	0	0	0	0	0	0	0	0	0	0	0	0	0	0	0	0
012419	12:08:19	12:19:01	640402	5.0.10.0	4_exp_AMP_EVA_AWA_CON	88	Rpleas_acq	Oppo	Lpleas	Amasked	CS_A	2pleas	distractor2	EVAbeforeCON	AMP_CSpleas	AMP1_masked	6	18	0	0	300	300	0	0	421	50	0	0	0	0	0	1	blank2r.bmp	0	1	DHJF	0	1	blank2r.bmp	79	47	pic47.bmp	199	1	whitenoise_No3.bmp	306	0	0	0	0	0	0	0	0	0	0	0	0	0	0	0	0	0	0	0	0	0	0	0	0	0	0	0	0	0	0	0	0	0	0	0	0	0	0	0
012419	12:08:19	12:19:03	641775	5.0.10.0	4_exp_AMP_EVA_AWA_CON	88	Rpleas_acq	Oppo	Lpleas	Amasked	CS_A	2pleas	distractor2	EVAbeforeCON	AMP_distractor	AMP1_masked	6	19	0	0	300	300	0	0	463	46	0	0	0	0	0	1	blank2r.bmp	0	1	QYSB	0	1	blank2r.bmp	79	104	pic104.bmp	199	1	whitenoise_No3.bmp	306	0	0	0	0	0	0	0	0	0	0	0	0	0	0	0	0	0	0	0	0	0	0	0	0	0	0	0	0	0	0	0	0	0	0	0	0	0	0	0
012419	12:08:19	12:19:04	643308	5.0.10.0	4_exp_AMP_EVA_AWA_CON	88	Rpleas_acq	Oppo	Lpleas	Amasked	CS_A	2pleas	distractor2	EVAbeforeCON	AMP_CSunple	AMP1_masked	6	20	0	0	300	300	0	0	621	50	0	1	0	0	0	1	blank2r.bmp	0	1	CPLW	0	1	blank2r.bmp	79	84	pic84.bmp	199	1	whitenoise_No3.bmp	306	0	0	0	0	0	0	0	0	0	0	0	0	0	0	0	0	0	0	0	0	0	0	0	0	0	0	0	0	0	0	0	0	0	0	0	0	0	0	0
012419	12:08:19	12:19:06	644960	5.0.10.0	4_exp_AMP_EVA_AWA_CON	88	Rpleas_acq	Oppo	Lpleas	Amasked	CS_A	2pleas	distractor2	EVAbeforeCON	AMP_distractor	AMP1_masked	6	21	0	0	300	300	0	0	731	50	0	0	0	0	0	1	blank2r.bmp	0	1	QYSB	0	1	blank2r.bmp	79	43	pic43.bmp	199	1	whitenoise_No3.bmp	306	0	0	0	0	0	0	0	0	0	0	0	0	0	0	0	0	0	0	0	0	0	0	0	0	0	0	0	0	0	0	0	0	0	0	0	0	0	0	0
012419	12:08:19	12:19:08	646906	5.0.10.0	4_exp_AMP_EVA_AWA_CON	88	Rpleas_acq	Oppo	Lpleas	Amasked	CS_A	2pleas	distractor2	EVAbeforeCON	AMP_CSpleas	AMP1_masked	6	22	0	0	300	300	0	0	1020	50	0	0	0	0	0	1	blank2r.bmp	0	1	DHJF	0	1	blank2r.bmp	79	59	pic59.bmp	199	1	whitenoise_No3.bmp	306	0	0	0	0	0	0	0	0	0	0	0	0	0	0	0	0	0	0	0	0	0	0	0	0	0	0	0	0	0	0	0	0	0	0	0	0	0	0	0
012419	12:08:19	12:19:09	648332	5.0.10.0	4_exp_AMP_EVA_AWA_CON	88	Rpleas_acq	Oppo	Lpleas	Amasked	CS_A	2pleas	distractor2	EVAbeforeCON	AMP_CSpleas	AMP1_masked	6	23	0	0	300	300	0	0	503	50	0	0	0	0	0	1	blank2r.bmp	0	1	DHJF	0	1	blank2r.bmp	79	107	pic107.bmp	199	1	whitenoise_No3.bmp	306	0	0	0	0	0	0	0	0	0	0	0	0	0	0	0	0	0	0	0	0	0	0	0	0	0	0	0	0	0	0	0	0	0	0	0	0	0	0	0
012419	12:08:19	12:19:11	649865	5.0.10.0	4_exp_AMP_EVA_AWA_CON	88	Rpleas_acq	Oppo	Lpleas	Amasked	CS_A	2pleas	distractor2	EVAbeforeCON	AMP_CSunple	AMP1_masked	6	24	0	0	300	300	0	0	600	46	0	0	0	0	0	1	blank2r.bmp	0	1	CPLW	0	1	blank2r.bmp	79	82	pic82.bmp	199	1	whitenoise_No3.bmp	306	0	0	0	0	0	0	0	0	0	0	0	0	0	0	0	0	0	0	0	0	0	0	0	0	0	0	0	0	0	0	0	0	0	0	0	0	0	0	0
012419	12:08:19	12:19:13	651544	5.0.10.0	4_exp_AMP_EVA_AWA_CON	88	Rpleas_acq	Oppo	Lpleas	Amasked	CS_A	2pleas	distractor2	EVAbeforeCON	AMP_CSpleas	AMP1_masked	6	25	0	0	300	300	0	0	768	46	0	1	0	0	0	1	blank2r.bmp	0	1	DHJF	0	1	blank2r.bmp	79	13	pic13.bmp	199	1	whitenoise_No3.bmp	306	0	0	0	0	0	0	0	0	0	0	0	0	0	0	0	0	0	0	0	0	0	0	0	0	0	0	0	0	0	0	0	0	0	0	0	0	0	0	0
012419	12:08:19	12:19:14	653050	5.0.10.0	4_exp_AMP_EVA_AWA_CON	88	Rpleas_acq	Oppo	Lpleas	Amasked	CS_A	2pleas	distractor2	EVAbeforeCON	AMP_distractor	AMP1_masked	6	26	0	0	300	300	0	0	580	46	0	0	0	0	0	1	blank2r.bmp	0	1	QYSB	0	1	blank2r.bmp	79	130	pic130.bmp	199	1	whitenoise_No3.bmp	306	0	0	0	0	0	0	0	0	0	0	0	0	0	0	0	0	0	0	0	0	0	0	0	0	0	0	0	0	0	0	0	0	0	0	0	0	0	0	0
012419	12:08:19	12:19:16	654450	5.0.10.0	4_exp_AMP_EVA_AWA_CON	88	Rpleas_acq	Oppo	Lpleas	Amasked	CS_A	2pleas	distractor2	EVAbeforeCON	AMP_distractor	AMP1_masked	6	27	0	0	300	300	0	0	472	46	0	0	0	0	0	1	blank2r.bmp	0	1	QYSB	0	1	blank2r.bmp	79	152	pic152.bmp	199	1	whitenoise_No3.bmp	306	0	0	0	0	0	0	0	0	0	0	0	0	0	0	0	0	0	0	0	0	0	0	0	0	0	0	0	0	0	0	0	0	0	0	0	0	0	0	0
012419	12:08:19	12:19:17	655783	5.0.10.0	4_exp_AMP_EVA_AWA_CON	88	Rpleas_acq	Oppo	Lpleas	Amasked	CS_A	2pleas	distractor2	EVAbeforeCON	AMP_distractor	AMP1_masked	6	28	0	0	300	300	0	0	409	50	0	0	0	0	0	1	blank2r.bmp	0	1	QYSB	0	1	blank2r.bmp	79	62	pic62.bmp	199	1	whitenoise_No3.bmp	306	0	0	0	0	0	0	0	0	0	0	0	0	0	0	0	0	0	0	0	0	0	0	0	0	0	0	0	0	0	0	0	0	0	0	0	0	0	0	0
012419	12:08:19	12:19:19	657729	5.0.10.0	4_exp_AMP_EVA_AWA_CON	88	Rpleas_acq	Oppo	Lpleas	Amasked	CS_A	2pleas	distractor2	EVAbeforeCON	AMP_distractor	AMP1_masked	6	29	0	0	300	300	0	0	1023	50	0	0	0	0	0	1	blank2r.bmp	0	1	QYSB	0	1	blank2r.bmp	79	120	pic120.bmp	199	1	whitenoise_No3.bmp	306	0	0	0	0	0	0	0	0	0	0	0	0	0	0	0	0	0	0	0	0	0	0	0	0	0	0	0	0	0	0	0	0	0	0	0	0	0	0	0
012419	12:08:19	12:19:20	659168	5.0.10.0	4_exp_AMP_EVA_AWA_CON	88	Rpleas_acq	Oppo	Lpleas	Amasked	CS_A	2pleas	distractor2	EVAbeforeCON	AMP_distractor	AMP1_masked	6	30	0	0	300	300	0	0	513	46	0	0	0	0	0	1	blank2r.bmp	0	1	QYSB	0	1	blank2r.bmp	79	97	pic97.bmp	199	1	whitenoise_No3.bmp	306	0	0	0	0	0	0	0	0	0	0	0	0	0	0	0	0	0	0	0	0	0	0	0	0	0	0	0	0	0	0	0	0	0	0	0	0	0	0	0
012419	12:08:19	12:19:22	660527	5.0.10.0	4_exp_AMP_EVA_AWA_CON	88	Rpleas_acq	Oppo	Lpleas	Amasked	CS_A	2pleas	distractor2	EVAbeforeCON	AMP_CSunple	AMP1_masked	6	31	0	0	300	300	0	0	431	46	0	0	0	0	0	1	blank2r.bmp	0	1	CPLW	0	1	blank2r.bmp	79	92	pic92.bmp	199	1	whitenoise_No3.bmp	306	0	0	0	0	0	0	0	0	0	0	0	0	0	0	0	0	0	0	0	0	0	0	0	0	0	0	0	0	0	0	0	0	0	0	0	0	0	0	0
012419	12:08:19	12:19:23	662020	5.0.10.0	4_exp_AMP_EVA_AWA_CON	88	Rpleas_acq	Oppo	Lpleas	Amasked	CS_A	2pleas	distractor2	EVAbeforeCON	AMP_CSunple	AMP1_masked	6	32	0	0	300	300	0	0	580	46	0	0	0	0	0	1	blank2r.bmp	0	1	CPLW	0	1	blank2r.bmp	79	111	pic111.bmp	199	1	whitenoise_No3.bmp	306	0	0	0	0	0	0	0	0	0	0	0	0	0	0	0	0	0	0	0	0	0	0	0	0	0	0	0	0	0	0	0	0	0	0	0	0	0	0	0
012419	12:08:19	12:19:24	663353	5.0.10.0	4_exp_AMP_EVA_AWA_CON	88	Rpleas_acq	Oppo	Lpleas	Amasked	CS_A	2pleas	distractor2	EVAbeforeCON	AMP_CSpleas	AMP1_masked	6	33	0	0	300	300	0	0	406	46	0	1	0	0	0	1	blank2r.bmp	0	1	DHJF	0	1	blank2r.bmp	79	125	pic125.bmp	199	1	whitenoise_No3.bmp	306	0	0	0	0	0	0	0	0	0	0	0	0	0	0	0	0	0	0	0	0	0	0	0	0	0	0	0	0	0	0	0	0	0	0	0	0	0	0	0
012419	12:08:19	12:19:26	664859	5.0.10.0	4_exp_AMP_EVA_AWA_CON	88	Rpleas_acq	Oppo	Lpleas	Amasked	CS_A	2pleas	distractor2	EVAbeforeCON	AMP_CSunple	AMP1_masked	6	34	0	0	300	300	0	0	589	46	0	0	0	0	0	1	blank2r.bmp	0	1	CPLW	0	1	blank2r.bmp	79	3	pic3.bmp	199	1	whitenoise_No3.bmp	306	0	0	0	0	0	0	0	0	0	0	0	0	0	0	0	0	0	0	0	0	0	0	0	0	0	0	0	0	0	0	0	0	0	0	0	0	0	0	0
012419	12:08:19	12:19:28	666432	5.0.10.0	4_exp_AMP_EVA_AWA_CON	88	Rpleas_acq	Oppo	Lpleas	Amasked	CS_A	2pleas	distractor2	EVAbeforeCON	AMP_CSpleas	AMP1_masked	6	35	0	0	300	300	0	0	640	46	0	1	0	0	0	1	blank2r.bmp	0	1	DHJF	0	1	blank2r.bmp	79	37	pic37.bmp	199	1	whitenoise_No3.bmp	306	0	0	0	0	0	0	0	0	0	0	0	0	0	0	0	0	0	0	0	0	0	0	0	0	0	0	0	0	0	0	0	0	0	0	0	0	0	0	0
012419	12:08:19	12:19:29	668164	5.0.10.0	4_exp_AMP_EVA_AWA_CON	88	Rpleas_acq	Oppo	Lpleas	Amasked	CS_A	2pleas	distractor2	EVAbeforeCON	AMP_distractor	AMP1_masked	6	36	0	0	300	300	0	0	821	46	0	0	0	0	0	1	blank2r.bmp	0	1	QYSB	0	1	blank2r.bmp	79	106	pic106.bmp	199	1	whitenoise_No3.bmp	306	0	0	0	0	0	0	0	0	0	0	0	0	0	0	0	0	0	0	0	0	0	0	0	0	0	0	0	0	0	0	0	0	0	0	0	0	0	0	0
012419	12:08:19	12:19:31	669430	5.0.10.0	4_exp_AMP_EVA_AWA_CON	88	Rpleas_acq	Oppo	Lpleas	Amasked	CS_A	2pleas	distractor2	EVAbeforeCON	AMP_distractor	AMP1_masked	6	37	0	0	300	300	0	0	343	50	0	0	0	0	0	1	blank2r.bmp	0	1	QYSB	0	1	blank2r.bmp	79	64	pic64.bmp	199	1	whitenoise_No3.bmp	306	0	0	0	0	0	0	0	0	0	0	0	0	0	0	0	0	0	0	0	0	0	0	0	0	0	0	0	0	0	0	0	0	0	0	0	0	0	0	0
012419	12:08:19	12:19:32	670816	5.0.10.0	4_exp_AMP_EVA_AWA_CON	88	Rpleas_acq	Oppo	Lpleas	Amasked	CS_A	2pleas	distractor2	EVAbeforeCON	AMP_CSpleas	AMP1_masked	6	38	0	0	300	300	0	0	455	50	0	0	0	0	0	1	blank2r.bmp	0	1	DHJF	0	1	blank2r.bmp	79	40	pic40.bmp	199	1	whitenoise_No3.bmp	306	0	0	0	0	0	0	0	0	0	0	0	0	0	0	0	0	0	0	0	0	0	0	0	0	0	0	0	0	0	0	0	0	0	0	0	0	0	0	0
012419	12:08:19	12:19:33	672216	5.0.10.0	4_exp_AMP_EVA_AWA_CON	88	Rpleas_acq	Oppo	Lpleas	Amasked	CS_A	2pleas	distractor2	EVAbeforeCON	AMP_CSpleas	AMP1_masked	6	39	0	0	300	300	0	0	485	50	0	0	0	0	0	1	blank2r.bmp	0	1	DHJF	0	1	blank2r.bmp	79	75	pic75.bmp	199	1	whitenoise_No3.bmp	306	0	0	0	0	0	0	0	0	0	0	0	0	0	0	0	0	0	0	0	0	0	0	0	0	0	0	0	0	0	0	0	0	0	0	0	0	0	0	0
012419	12:08:19	12:19:35	673509	5.0.10.0	4_exp_AMP_EVA_AWA_CON	88	Rpleas_acq	Oppo	Lpleas	Amasked	CS_A	2pleas	distractor2	EVAbeforeCON	AMP_CSpleas	AMP1_masked	6	40	0	0	300	300	0	0	381	50	0	0	0	0	0	1	blank2r.bmp	0	1	DHJF	0	1	blank2r.bmp	79	45	pic45.bmp	199	1	whitenoise_No3.bmp	306	0	0	0	0	0	0	0	0	0	0	0	0	0	0	0	0	0	0	0	0	0	0	0	0	0	0	0	0	0	0	0	0	0	0	0	0	0	0	0
012419	12:08:19	12:19:36	674788	5.0.10.0	4_exp_AMP_EVA_AWA_CON	88	Rpleas_acq	Oppo	Lpleas	Amasked	CS_A	2pleas	distractor2	EVAbeforeCON	AMP_distractor	AMP1_masked	6	41	0	0	300	300	0	0	356	46	0	0	0	0	0	1	blank2r.bmp	0	1	QYSB	0	1	blank2r.bmp	79	91	pic91.bmp	199	1	whitenoise_No3.bmp	306	0	0	0	0	0	0	0	0	0	0	0	0	0	0	0	0	0	0	0	0	0	0	0	0	0	0	0	0	0	0	0	0	0	0	0	0	0	0	0
012419	12:08:19	12:19:37	676228	5.0.10.0	4_exp_AMP_EVA_AWA_CON	88	Rpleas_acq	Oppo	Lpleas	Amasked	CS_A	2pleas	distractor2	EVAbeforeCON	AMP_distractor	AMP1_masked	6	42	0	0	300	300	0	0	505	50	0	0	0	0	0	1	blank2r.bmp	0	1	QYSB	0	1	blank2r.bmp	79	31	pic31.bmp	199	1	whitenoise_No3.bmp	306	0	0	0	0	0	0	0	0	0	0	0	0	0	0	0	0	0	0	0	0	0	0	0	0	0	0	0	0	0	0	0	0	0	0	0	0	0	0	0
012419	12:08:19	12:19:39	678107	5.0.10.0	4_exp_AMP_EVA_AWA_CON	88	Rpleas_acq	Oppo	Lpleas	Amasked	CS_A	2pleas	distractor2	EVAbeforeCON	AMP_distractor	AMP1_masked	6	43	0	0	300	300	0	0	962	50	0	0	0	0	0	1	blank2r.bmp	0	1	QYSB	0	1	blank2r.bmp	79	18	pic18.bmp	199	1	whitenoise_No3.bmp	306	0	0	0	0	0	0	0	0	0	0	0	0	0	0	0	0	0	0	0	0	0	0	0	0	0	0	0	0	0	0	0	0	0	0	0	0	0	0	0
012419	12:08:19	12:19:40	679386	5.0.10.0	4_exp_AMP_EVA_AWA_CON	88	Rpleas_acq	Oppo	Lpleas	Amasked	CS_A	2pleas	distractor2	EVAbeforeCON	AMP_CSunple	AMP1_masked	6	44	0	0	300	300	0	0	360	46	0	0	0	0	0	1	blank2r.bmp	0	1	CPLW	0	1	blank2r.bmp	79	150	pic150.bmp	199	1	whitenoise_No3.bmp	306	0	0	0	0	0	0	0	0	0	0	0	0	0	0	0	0	0	0	0	0	0	0	0	0	0	0	0	0	0	0	0	0	0	0	0	0	0	0	0
012419	12:08:19	12:19:42	681146	5.0.10.0	4_exp_AMP_EVA_AWA_CON	88	Rpleas_acq	Oppo	Lpleas	Amasked	CS_A	2pleas	distractor2	EVAbeforeCON	AMP_CSunple	AMP1_masked	6	45	0	0	300	300	0	0	839	46	0	0	0	0	0	1	blank2r.bmp	0	1	CPLW	0	1	blank2r.bmp	79	109	pic109.bmp	199	1	whitenoise_No3.bmp	306	0	0	0	0	0	0	0	0	0	0	0	0	0	0	0	0	0	0	0	0	0	0	0	0	0	0	0	0	0	0	0	0	0	0	0	0	0	0	0
012419	12:08:19	12:19:44	682438	5.0.10.0	4_exp_AMP_EVA_AWA_CON	88	Rpleas_acq	Oppo	Lpleas	Amasked	CS_A	2pleas	distractor2	EVAbeforeCON	AMP_distractor	AMP1_masked	6	46	0	0	300	300	0	0	384	46	0	0	0	0	0	1	blank2r.bmp	0	1	QYSB	0	1	blank2r.bmp	79	9	pic9.bmp	199	1	whitenoise_No3.bmp	306	0	0	0	0	0	0	0	0	0	0	0	0	0	0	0	0	0	0	0	0	0	0	0	0	0	0	0	0	0	0	0	0	0	0	0	0	0	0	0
012419	12:08:19	12:19:45	683731	5.0.10.0	4_exp_AMP_EVA_AWA_CON	88	Rpleas_acq	Oppo	Lpleas	Amasked	CS_A	2pleas	distractor2	EVAbeforeCON	AMP_CSpleas	AMP1_masked	6	47	0	0	300	300	0	0	363	46	0	1	0	0	0	1	blank2r.bmp	0	1	DHJF	0	1	blank2r.bmp	79	129	pic129.bmp	199	1	whitenoise_No3.bmp	306	0	0	0	0	0	0	0	0	0	0	0	0	0	0	0	0	0	0	0	0	0	0	0	0	0	0	0	0	0	0	0	0	0	0	0	0	0	0	0
012419	12:08:19	12:19:46	685011	5.0.10.0	4_exp_AMP_EVA_AWA_CON	88	Rpleas_acq	Oppo	Lpleas	Amasked	CS_A	2pleas	distractor2	EVAbeforeCON	AMP_CSunple	AMP1_masked	6	48	0	0	300	300	0	0	353	46	0	0	0	0	0	1	blank2r.bmp	0	1	CPLW	0	1	blank2r.bmp	79	90	pic90.bmp	199	1	whitenoise_No3.bmp	306	0	0	0	0	0	0	0	0	0	0	0	0	0	0	0	0	0	0	0	0	0	0	0	0	0	0	0	0	0	0	0	0	0	0	0	0	0	0	0
012419	12:08:19	12:19:48	686637	5.0.10.0	4_exp_AMP_EVA_AWA_CON	88	Rpleas_acq	Oppo	Lpleas	Amasked	CS_A	2pleas	distractor2	EVAbeforeCON	AMP_CSunple	AMP1_masked	6	49	0	0	300	300	0	0	693	46	0	0	0	0	0	1	blank2r.bmp	0	1	CPLW	0	1	blank2r.bmp	79	80	pic80.bmp	199	1	whitenoise_No3.bmp	306	0	0	0	0	0	0	0	0	0	0	0	0	0	0	0	0	0	0	0	0	0	0	0	0	0	0	0	0	0	0	0	0	0	0	0	0	0	0	0
012419	12:08:19	12:19:49	687916	5.0.10.0	4_exp_AMP_EVA_AWA_CON	88	Rpleas_acq	Oppo	Lpleas	Amasked	CS_A	2pleas	distractor2	EVAbeforeCON	AMP_distractor	AMP1_masked	6	50	0	0	300	300	0	0	354	46	0	0	0	0	0	1	blank2r.bmp	0	1	QYSB	0	1	blank2r.bmp	79	128	pic128.bmp	199	1	whitenoise_No3.bmp	306	0	0	0	0	0	0	0	0	0	0	0	0	0	0	0	0	0	0	0	0	0	0	0	0	0	0	0	0	0	0	0	0	0	0	0	0	0	0	0
012419	12:08:19	12:19:51	690382	5.0.10.0	4_exp_AMP_EVA_AWA_CON	88	Rpleas_acq	Oppo	Lpleas	Amasked	CS_A	2pleas	distractor2	EVAbeforeCON	AMP_distractor	AMP1_masked	6	51	0	0	300	300	0	0	1532	46	0	0	0	0	0	1	blank2r.bmp	0	1	QYSB	0	1	blank2r.bmp	79	126	pic126.bmp	199	1	whitenoise_No3.bmp	306	0	0	0	0	0	0	0	0	0	0	0	0	0	0	0	0	0	0	0	0	0	0	0	0	0	0	0	0	0	0	0	0	0	0	0	0	0	0	0
012419	12:08:19	12:20:01	699858	5.0.10.0	4_exp_AMP_EVA_AWA_CON	88	Rpleas_acq	Oppo	Lpleas	Amasked	CS_A	2pleas	distractor2	EVAbeforeCON	AMP_distractor	AMP23	7	1	0	0	300	300	0	0	2457	46	0	0	0	0	0	1	blank2r.bmp	0	1	QYSB	0	1	blank2r.bmp	79	147	pic147.bmp	199	1	whitenoise_No3.bmp	306	0	0	0	0	0	0	0	0	0	0	0	0	0	0	0	0	0	0	0	0	0	0	0	0	0	0	0	0	0	0	0	0	0	0	0	0	0	0	0
012419	12:08:19	12:20:02	701191	5.0.10.0	4_exp_AMP_EVA_AWA_CON	88	Rpleas_acq	Oppo	Lpleas	Amasked	CS_A	2pleas	distractor2	EVAbeforeCON	AMP_CSunple	AMP23	7	2	0	0	300	300	0	0	412	46	0	0	0	0	0	1	blank2r.bmp	0	1	CPLW	0	1	blank2r.bmp	79	135	pic135.bmp	199	1	whitenoise_No3.bmp	306	0	0	0	0	0	0	0	0	0	0	0	0	0	0	0	0	0	0	0	0	0	0	0	0	0	0	0	0	0	0	0	0	0	0	0	0	0	0	0
012419	12:08:19	12:20:05	704229	5.0.10.0	4_exp_AMP_EVA_AWA_CON	88	Rpleas_acq	Oppo	Lpleas	Amasked	CS_A	2pleas	distractor2	EVAbeforeCON	AMP_distractor	AMP23	7	3	0	0	300	300	0	0	2120	50	0	0	0	0	0	1	blank2r.bmp	0	1	QYSB	0	1	blank2r.bmp	79	115	pic115.bmp	199	1	whitenoise_No3.bmp	306	0	0	0	0	0	0	0	0	0	0	0	0	0	0	0	0	0	0	0	0	0	0	0	0	0	0	0	0	0	0	0	0	0	0	0	0	0	0	0
012419	12:08:19	12:20:07	705709	5.0.10.0	4_exp_AMP_EVA_AWA_CON	88	Rpleas_acq	Oppo	Lpleas	Amasked	CS_A	2pleas	distractor2	EVAbeforeCON	AMP_distractor	AMP23	7	4	0	0	300	300	0	0	564	46	0	0	0	0	0	1	blank2r.bmp	0	1	QYSB	0	1	blank2r.bmp	79	145	pic145.bmp	199	1	whitenoise_No3.bmp	306	0	0	0	0	0	0	0	0	0	0	0	0	0	0	0	0	0	0	0	0	0	0	0	0	0	0	0	0	0	0	0	0	0	0	0	0	0	0	0
012419	12:08:19	12:20:09	707828	5.0.10.0	4_exp_AMP_EVA_AWA_CON	88	Rpleas_acq	Oppo	Lpleas	Amasked	CS_A	2pleas	distractor2	EVAbeforeCON	AMP_CSpleas	AMP23	7	5	0	0	300	300	0	0	1203	50	0	0	0	0	0	1	blank2r.bmp	0	1	DHJF	0	1	blank2r.bmp	79	8	pic8.bmp	199	1	whitenoise_No3.bmp	306	0	0	0	0	0	0	0	0	0	0	0	0	0	0	0	0	0	0	0	0	0	0	0	0	0	0	0	0	0	0	0	0	0	0	0	0	0	0	0
012419	12:08:19	12:20:11	709747	5.0.10.0	4_exp_AMP_EVA_AWA_CON	88	Rpleas_acq	Oppo	Lpleas	Amasked	CS_A	2pleas	distractor2	EVAbeforeCON	AMP_distractor	AMP23	7	6	0	0	300	300	0	0	999	50	0	0	0	0	0	1	blank2r.bmp	0	1	QYSB	0	1	blank2r.bmp	79	16	pic16.bmp	199	1	whitenoise_No3.bmp	306	0	0	0	0	0	0	0	0	0	0	0	0	0	0	0	0	0	0	0	0	0	0	0	0	0	0	0	0	0	0	0	0	0	0	0	0	0	0	0
012419	12:08:19	12:20:13	711946	5.0.10.0	4_exp_AMP_EVA_AWA_CON	88	Rpleas_acq	Oppo	Lpleas	Amasked	CS_A	2pleas	distractor2	EVAbeforeCON	AMP_CSpleas	AMP23	7	7	0	0	300	300	0	0	1290	46	0	1	0	0	0	1	blank2r.bmp	0	1	DHJF	0	1	blank2r.bmp	79	142	pic142.bmp	199	1	whitenoise_No3.bmp	306	0	0	0	0	0	0	0	0	0	0	0	0	0	0	0	0	0	0	0	0	0	0	0	0	0	0	0	0	0	0	0	0	0	0	0	0	0	0	0
012419	12:08:19	12:20:15	713412	5.0.10.0	4_exp_AMP_EVA_AWA_CON	88	Rpleas_acq	Oppo	Lpleas	Amasked	CS_A	2pleas	distractor2	EVAbeforeCON	AMP_CSpleas	AMP23	7	8	0	0	300	300	0	0	537	50	0	0	0	0	0	1	blank2r.bmp	0	1	DHJF	0	1	blank2r.bmp	79	55	pic55.bmp	199	1	whitenoise_No3.bmp	306	0	0	0	0	0	0	0	0	0	0	0	0	0	0	0	0	0	0	0	0	0	0	0	0	0	0	0	0	0	0	0	0	0	0	0	0	0	0	0
012419	12:08:19	12:20:16	714772	5.0.10.0	4_exp_AMP_EVA_AWA_CON	88	Rpleas_acq	Oppo	Lpleas	Amasked	CS_A	2pleas	distractor2	EVAbeforeCON	AMP_distractor	AMP23	7	9	0	0	300	300	0	0	440	46	0	0	0	0	0	1	blank2r.bmp	0	1	QYSB	0	1	blank2r.bmp	79	121	pic121.bmp	199	1	whitenoise_No3.bmp	306	0	0	0	0	0	0	0	0	0	0	0	0	0	0	0	0	0	0	0	0	0	0	0	0	0	0	0	0	0	0	0	0	0	0	0	0	0	0	0
012419	12:08:19	12:20:17	716331	5.0.10.0	4_exp_AMP_EVA_AWA_CON	88	Rpleas_acq	Oppo	Lpleas	Amasked	CS_A	2pleas	distractor2	EVAbeforeCON	AMP_CSpleas	AMP23	7	10	0	0	300	300	0	0	639	50	0	0	0	0	0	1	blank2r.bmp	0	1	DHJF	0	1	blank2r.bmp	79	19	pic19.bmp	199	1	whitenoise_No3.bmp	306	0	0	0	0	0	0	0	0	0	0	0	0	0	0	0	0	0	0	0	0	0	0	0	0	0	0	0	0	0	0	0	0	0	0	0	0	0	0	0
012419	12:08:19	12:20:20	718450	5.0.10.0	4_exp_AMP_EVA_AWA_CON	88	Rpleas_acq	Oppo	Lpleas	Amasked	CS_A	2pleas	distractor2	EVAbeforeCON	AMP_CSpleas	AMP23	7	11	0	0	300	300	0	0	1208	50	0	0	0	0	0	1	blank2r.bmp	0	1	DHJF	0	1	blank2r.bmp	79	112	pic112.bmp	199	1	whitenoise_No3.bmp	306	0	0	0	0	0	0	0	0	0	0	0	0	0	0	0	0	0	0	0	0	0	0	0	0	0	0	0	0	0	0	0	0	0	0	0	0	0	0	0
012419	12:08:19	12:20:21	719796	5.0.10.0	4_exp_AMP_EVA_AWA_CON	88	Rpleas_acq	Oppo	Lpleas	Amasked	CS_A	2pleas	distractor2	EVAbeforeCON	AMP_distractor	AMP23	7	12	0	0	300	300	0	0	432	50	0	0	0	0	0	1	blank2r.bmp	0	1	QYSB	0	1	blank2r.bmp	79	72	pic72.bmp	199	1	whitenoise_No3.bmp	306	0	0	0	0	0	0	0	0	0	0	0	0	0	0	0	0	0	0	0	0	0	0	0	0	0	0	0	0	0	0	0	0	0	0	0	0	0	0	0
012419	12:08:19	12:20:22	721356	5.0.10.0	4_exp_AMP_EVA_AWA_CON	88	Rpleas_acq	Oppo	Lpleas	Amasked	CS_A	2pleas	distractor2	EVAbeforeCON	AMP_CSunple	AMP23	7	13	0	0	300	300	0	0	633	50	0	1	0	0	0	1	blank2r.bmp	0	1	CPLW	0	1	blank2r.bmp	79	28	pic28.bmp	199	1	whitenoise_No3.bmp	306	0	0	0	0	0	0	0	0	0	0	0	0	0	0	0	0	0	0	0	0	0	0	0	0	0	0	0	0	0	0	0	0	0	0	0	0	0	0	0
012419	12:08:19	12:20:24	722742	5.0.10.0	4_exp_AMP_EVA_AWA_CON	88	Rpleas_acq	Oppo	Lpleas	Amasked	CS_A	2pleas	distractor2	EVAbeforeCON	AMP_CSunple	AMP23	7	14	0	0	300	300	0	0	458	46	0	0	0	0	0	1	blank2r.bmp	0	1	CPLW	0	1	blank2r.bmp	79	108	pic108.bmp	199	1	whitenoise_No3.bmp	306	0	0	0	0	0	0	0	0	0	0	0	0	0	0	0	0	0	0	0	0	0	0	0	0	0	0	0	0	0	0	0	0	0	0	0	0	0	0	0
012419	12:08:19	12:20:25	724048	5.0.10.0	4_exp_AMP_EVA_AWA_CON	88	Rpleas_acq	Oppo	Lpleas	Amasked	CS_A	2pleas	distractor2	EVAbeforeCON	AMP_distractor	AMP23	7	15	0	0	300	300	0	0	386	46	0	0	0	0	0	1	blank2r.bmp	0	1	QYSB	0	1	blank2r.bmp	79	124	pic124.bmp	199	1	whitenoise_No3.bmp	306	0	0	0	0	0	0	0	0	0	0	0	0	0	0	0	0	0	0	0	0	0	0	0	0	0	0	0	0	0	0	0	0	0	0	0	0	0	0	0
012419	12:08:19	12:20:27	725621	5.0.10.0	4_exp_AMP_EVA_AWA_CON	88	Rpleas_acq	Oppo	Lpleas	Amasked	CS_A	2pleas	distractor2	EVAbeforeCON	AMP_CSunple	AMP23	7	16	0	0	300	300	0	0	648	50	0	1	0	0	0	1	blank2r.bmp	0	1	CPLW	0	1	blank2r.bmp	79	61	pic61.bmp	199	1	whitenoise_No3.bmp	306	0	0	0	0	0	0	0	0	0	0	0	0	0	0	0	0	0	0	0	0	0	0	0	0	0	0	0	0	0	0	0	0	0	0	0	0	0	0	0
012419	12:08:19	12:20:28	727113	5.0.10.0	4_exp_AMP_EVA_AWA_CON	88	Rpleas_acq	Oppo	Lpleas	Amasked	CS_A	2pleas	distractor2	EVAbeforeCON	AMP_CSunple	AMP23	7	17	0	0	300	300	0	0	564	50	0	1	0	0	0	1	blank2r.bmp	0	1	CPLW	0	1	blank2r.bmp	79	44	pic44.bmp	199	1	whitenoise_No3.bmp	306	0	0	0	0	0	0	0	0	0	0	0	0	0	0	0	0	0	0	0	0	0	0	0	0	0	0	0	0	0	0	0	0	0	0	0	0	0	0	0
012419	12:08:19	12:20:30	728619	5.0.10.0	4_exp_AMP_EVA_AWA_CON	88	Rpleas_acq	Oppo	Lpleas	Amasked	CS_A	2pleas	distractor2	EVAbeforeCON	AMP_CSunple	AMP23	7	18	0	0	300	300	0	0	590	50	0	1	0	0	0	1	blank2r.bmp	0	1	CPLW	0	1	blank2r.bmp	79	86	pic86.bmp	199	1	whitenoise_No3.bmp	306	0	0	0	0	0	0	0	0	0	0	0	0	0	0	0	0	0	0	0	0	0	0	0	0	0	0	0	0	0	0	0	0	0	0	0	0	0	0	0
012419	12:08:19	12:20:31	729912	5.0.10.0	4_exp_AMP_EVA_AWA_CON	88	Rpleas_acq	Oppo	Lpleas	Amasked	CS_A	2pleas	distractor2	EVAbeforeCON	AMP_CSpleas	AMP23	7	19	0	0	300	300	0	0	374	46	0	1	0	0	0	1	blank2r.bmp	0	1	DHJF	0	1	blank2r.bmp	79	27	pic27.bmp	199	1	whitenoise_No3.bmp	306	0	0	0	0	0	0	0	0	0	0	0	0	0	0	0	0	0	0	0	0	0	0	0	0	0	0	0	0	0	0	0	0	0	0	0	0	0	0	0
012419	12:08:19	12:20:32	731312	5.0.10.0	4_exp_AMP_EVA_AWA_CON	88	Rpleas_acq	Oppo	Lpleas	Amasked	CS_A	2pleas	distractor2	EVAbeforeCON	AMP_CSunple	AMP23	7	20	0	0	300	300	0	0	467	50	0	1	0	0	0	1	blank2r.bmp	0	1	CPLW	0	1	blank2r.bmp	79	60	pic60.bmp	199	1	whitenoise_No3.bmp	306	0	0	0	0	0	0	0	0	0	0	0	0	0	0	0	0	0	0	0	0	0	0	0	0	0	0	0	0	0	0	0	0	0	0	0	0	0	0	0
012419	12:08:19	12:20:35	733671	5.0.10.0	4_exp_AMP_EVA_AWA_CON	88	Rpleas_acq	Oppo	Lpleas	Amasked	CS_A	2pleas	distractor2	EVAbeforeCON	AMP_CSpleas	AMP23	7	21	0	0	300	300	0	0	1447	46	0	1	0	0	0	1	blank2r.bmp	0	1	DHJF	0	1	blank2r.bmp	79	65	pic65.bmp	199	1	whitenoise_No3.bmp	306	0	0	0	0	0	0	0	0	0	0	0	0	0	0	0	0	0	0	0	0	0	0	0	0	0	0	0	0	0	0	0	0	0	0	0	0	0	0	0
012419	12:08:19	12:20:36	735017	5.0.10.0	4_exp_AMP_EVA_AWA_CON	88	Rpleas_acq	Oppo	Lpleas	Amasked	CS_A	2pleas	distractor2	EVAbeforeCON	AMP_CSpleas	AMP23	7	22	0	0	300	300	0	0	418	46	0	1	0	0	0	1	blank2r.bmp	0	1	DHJF	0	1	blank2r.bmp	79	38	pic38.bmp	199	1	whitenoise_No3.bmp	306	0	0	0	0	0	0	0	0	0	0	0	0	0	0	0	0	0	0	0	0	0	0	0	0	0	0	0	0	0	0	0	0	0	0	0	0	0	0	0
012419	12:08:19	12:20:38	737122	5.0.10.0	4_exp_AMP_EVA_AWA_CON	88	Rpleas_acq	Oppo	Lpleas	Amasked	CS_A	2pleas	distractor2	EVAbeforeCON	AMP_distractor	AMP23	7	23	0	0	300	300	0	0	1188	46	0	0	0	0	0	1	blank2r.bmp	0	1	QYSB	0	1	blank2r.bmp	79	96	pic96.bmp	199	1	whitenoise_No3.bmp	306	0	0	0	0	0	0	0	0	0	0	0	0	0	0	0	0	0	0	0	0	0	0	0	0	0	0	0	0	0	0	0	0	0	0	0	0	0	0	0
012419	12:08:19	12:20:40	738562	5.0.10.0	4_exp_AMP_EVA_AWA_CON	88	Rpleas_acq	Oppo	Lpleas	Amasked	CS_A	2pleas	distractor2	EVAbeforeCON	AMP_CSunple	AMP23	7	24	0	0	300	300	0	0	519	50	0	1	0	0	0	1	blank2r.bmp	0	1	CPLW	0	1	blank2r.bmp	79	52	pic52.bmp	199	1	whitenoise_No3.bmp	306	0	0	0	0	0	0	0	0	0	0	0	0	0	0	0	0	0	0	0	0	0	0	0	0	0	0	0	0	0	0	0	0	0	0	0	0	0	0	0
012419	12:08:19	12:20:41	739895	5.0.10.0	4_exp_AMP_EVA_AWA_CON	88	Rpleas_acq	Oppo	Lpleas	Amasked	CS_A	2pleas	distractor2	EVAbeforeCON	AMP_distractor	AMP23	7	25	0	0	300	300	0	0	424	50	0	0	0	0	0	1	blank2r.bmp	0	1	QYSB	0	1	blank2r.bmp	79	12	pic12.bmp	199	1	whitenoise_No3.bmp	306	0	0	0	0	0	0	0	0	0	0	0	0	0	0	0	0	0	0	0	0	0	0	0	0	0	0	0	0	0	0	0	0	0	0	0	0	0	0	0
012419	12:08:19	12:20:42	741361	5.0.10.0	4_exp_AMP_EVA_AWA_CON	88	Rpleas_acq	Oppo	Lpleas	Amasked	CS_A	2pleas	distractor2	EVAbeforeCON	AMP_CSpleas	AMP23	7	26	0	0	300	300	0	0	536	46	0	1	0	0	0	1	blank2r.bmp	0	1	DHJF	0	1	blank2r.bmp	79	139	pic139.bmp	199	1	whitenoise_No3.bmp	306	0	0	0	0	0	0	0	0	0	0	0	0	0	0	0	0	0	0	0	0	0	0	0	0	0	0	0	0	0	0	0	0	0	0	0	0	0	0	0
012419	12:08:19	12:20:44	742654	5.0.10.0	4_exp_AMP_EVA_AWA_CON	88	Rpleas_acq	Oppo	Lpleas	Amasked	CS_A	2pleas	distractor2	EVAbeforeCON	AMP_CSpleas	AMP23	7	27	0	0	300	300	0	0	370	46	0	1	0	0	0	1	blank2r.bmp	0	1	DHJF	0	1	blank2r.bmp	79	36	pic36.bmp	199	1	whitenoise_No3.bmp	306	0	0	0	0	0	0	0	0	0	0	0	0	0	0	0	0	0	0	0	0	0	0	0	0	0	0	0	0	0	0	0	0	0	0	0	0	0	0	0
012419	12:08:19	12:20:45	744253	5.0.10.0	4_exp_AMP_EVA_AWA_CON	88	Rpleas_acq	Oppo	Lpleas	Amasked	CS_A	2pleas	distractor2	EVAbeforeCON	AMP_CSunple	AMP23	7	28	0	0	300	300	0	0	666	50	0	1	0	0	0	1	blank2r.bmp	0	1	CPLW	0	1	blank2r.bmp	79	66	pic66.bmp	199	1	whitenoise_No3.bmp	306	0	0	0	0	0	0	0	0	0	0	0	0	0	0	0	0	0	0	0	0	0	0	0	0	0	0	0	0	0	0	0	0	0	0	0	0	0	0	0
012419	12:08:19	12:20:47	745439	5.0.10.0	4_exp_AMP_EVA_AWA_CON	88	Rpleas_acq	Oppo	Lpleas	Amasked	CS_A	2pleas	distractor2	EVAbeforeCON	AMP_CSpleas	AMP23	7	29	0	0	300	300	0	0	275	50	0	0	0	0	0	1	blank2r.bmp	0	1	DHJF	0	1	blank2r.bmp	79	71	pic71.bmp	199	1	whitenoise_No3.bmp	306	0	0	0	0	0	0	0	0	0	0	0	0	0	0	0	0	0	0	0	0	0	0	0	0	0	0	0	0	0	0	0	0	0	0	0	0	0	0	0
012419	12:08:19	12:20:48	746825	5.0.10.0	4_exp_AMP_EVA_AWA_CON	88	Rpleas_acq	Oppo	Lpleas	Amasked	CS_A	2pleas	distractor2	EVAbeforeCON	AMP_distractor	AMP23	7	30	0	0	300	300	0	0	461	50	0	0	0	0	0	1	blank2r.bmp	0	1	QYSB	0	1	blank2r.bmp	79	7	pic7.bmp	199	1	whitenoise_No3.bmp	306	0	0	0	0	0	0	0	0	0	0	0	0	0	0	0	0	0	0	0	0	0	0	0	0	0	0	0	0	0	0	0	0	0	0	0	0	0	0	0
012419	12:08:19	12:20:49	748291	5.0.10.0	4_exp_AMP_EVA_AWA_CON	88	Rpleas_acq	Oppo	Lpleas	Amasked	CS_A	2pleas	distractor2	EVAbeforeCON	AMP_distractor	AMP23	7	31	0	0	300	300	0	0	557	46	0	0	0	0	0	1	blank2r.bmp	0	1	QYSB	0	1	blank2r.bmp	79	54	pic54.bmp	199	1	whitenoise_No3.bmp	306	0	0	0	0	0	0	0	0	0	0	0	0	0	0	0	0	0	0	0	0	0	0	0	0	0	0	0	0	0	0	0	0	0	0	0	0	0	0	0
012419	12:08:19	12:20:51	750117	5.0.10.0	4_exp_AMP_EVA_AWA_CON	88	Rpleas_acq	Oppo	Lpleas	Amasked	CS_A	2pleas	distractor2	EVAbeforeCON	AMP_distractor	AMP23	7	32	0	0	300	300	0	0	916	50	0	0	0	0	0	1	blank2r.bmp	0	1	QYSB	0	1	blank2r.bmp	79	21	pic21.bmp	199	1	whitenoise_No3.bmp	306	0	0	0	0	0	0	0	0	0	0	0	0	0	0	0	0	0	0	0	0	0	0	0	0	0	0	0	0	0	0	0	0	0	0	0	0	0	0	0
012419	12:08:19	12:20:53	751423	5.0.10.0	4_exp_AMP_EVA_AWA_CON	88	Rpleas_acq	Oppo	Lpleas	Amasked	CS_A	2pleas	distractor2	EVAbeforeCON	AMP_distractor	AMP23	7	33	0	0	300	300	0	0	390	46	0	0	0	0	0	1	blank2r.bmp	0	1	QYSB	0	1	blank2r.bmp	79	95	pic95.bmp	199	1	whitenoise_No3.bmp	306	0	0	0	0	0	0	0	0	0	0	0	0	0	0	0	0	0	0	0	0	0	0	0	0	0	0	0	0	0	0	0	0	0	0	0	0	0	0	0
012419	12:08:19	12:20:54	752983	5.0.10.0	4_exp_AMP_EVA_AWA_CON	88	Rpleas_acq	Oppo	Lpleas	Amasked	CS_A	2pleas	distractor2	EVAbeforeCON	AMP_CSpleas	AMP23	7	34	0	0	300	300	0	0	632	46	0	1	0	0	0	1	blank2r.bmp	0	1	DHJF	0	1	blank2r.bmp	79	93	pic93.bmp	199	1	whitenoise_No3.bmp	306	0	0	0	0	0	0	0	0	0	0	0	0	0	0	0	0	0	0	0	0	0	0	0	0	0	0	0	0	0	0	0	0	0	0	0	0	0	0	0
012419	12:08:19	12:20:56	754649	5.0.10.0	4_exp_AMP_EVA_AWA_CON	88	Rpleas_acq	Oppo	Lpleas	Amasked	CS_A	2pleas	distractor2	EVAbeforeCON	AMP_CSpleas	AMP23	7	35	0	0	300	300	0	0	743	46	0	1	0	0	0	1	blank2r.bmp	0	1	DHJF	0	1	blank2r.bmp	79	81	pic81.bmp	199	1	whitenoise_No3.bmp	306	0	0	0	0	0	0	0	0	0	0	0	0	0	0	0	0	0	0	0	0	0	0	0	0	0	0	0	0	0	0	0	0	0	0	0	0	0	0	0
012419	12:08:19	12:20:58	756461	5.0.10.0	4_exp_AMP_EVA_AWA_CON	88	Rpleas_acq	Oppo	Lpleas	Amasked	CS_A	2pleas	distractor2	EVAbeforeCON	AMP_CSpleas	AMP23	7	36	0	0	300	300	0	0	883	46	0	1	0	0	0	1	blank2r.bmp	0	1	DHJF	0	1	blank2r.bmp	79	41	pic41.bmp	199	1	whitenoise_No3.bmp	306	0	0	0	0	0	0	0	0	0	0	0	0	0	0	0	0	0	0	0	0	0	0	0	0	0	0	0	0	0	0	0	0	0	0	0	0	0	0	0
