date	time	script.currenttime	script.elapsedtime	build	script.currentexpt	subject	expressions.LRpleas_acq	expressions.SameOppo	expressions.condition_Lpleas	expressions.ABmasked	expressions.conditionCS_A	expressions.condition_1pleas	expressions.condition_distractor_AMP	expressions.AWACON_AMPEVA_first	trialcode	blockcode	blocknum	trialnum	windowcenter	inwindow	pretrialpause	posttrialpause	trialduration	trialtimeout	latency	response	expressions.correctedscore	correct	values.vis_performance	values.vis_rating_sum	values.vis_rating_mean	stimulusnumber1	stimulusitem1	stimulusonset1	stimulusnumber2	stimulusitem2	stimulusonset2	stimulusnumber3	stimulusitem3	stimulusonset3	stimulusnumber4	stimulusitem4	stimulusonset4	stimulusnumber5	stimulusitem5	stimulusonset5	stimulusnumber6	stimulusitem6	stimulusonset6	stimulusnumber7	stimulusitem7	stimulusonset7	stimulusnumber8	stimulusitem8	stimulusonset8	stimulusnumber9	stimulusitem9	stimulusonset9	stimulusnumber10	stimulusitem10	stimulusonset10	stimulusnumber11	stimulusitem11	stimulusonset11	stimulusnumber12	stimulusitem12	stimulusonset12	stimulusnumber13	stimulusitem13	stimulusonset13	stimulusnumber14	stimulusitem14	stimulusonset14	stimulusnumber15	stimulusitem15	stimulusonset15	stimulusnumber16	stimulusitem16	stimulusonset16	stimulusnumber17	stimulusitem17	stimulusonset17	stimulusnumber18	stimulusitem18	stimulusonset18
121918	13:44:45	13:46:28	102290	5.0.10.0	4_exp_AWA_CON_AMP_EVA	33	Rpleas_acq	Same	Rpleas	Bmasked	CS_B	1pleas	distractor1	CONbeforeEVA	acq_new_unple_masked	acq1_masked	1	1	0	0	300	300	0	0	1635	46	0	1	0	0	0	1	blank2r.bmp	0	1	+	0	2	B2r.bmp	492	1	blank2r.bmp	786	6	C2r.bmp	786	1	blank2r.bmp	866	2	schlecht	866	0	0	0	0	0	0	0	0	0	0	0	0	0	0	0	0	0	0	0	0	0	0	0	0	0	0	0	0	0	0	0	0	0
121918	13:44:45	13:46:31	104716	5.0.10.0	4_exp_AWA_CON_AMP_EVA	33	Rpleas_acq	Same	Rpleas	Bmasked	CS_B	1pleas	distractor1	CONbeforeEVA	acq_US_pleas_masked	acq1_masked	1	2	0	0	300	300	0	0	941	50	0	1	0	0	0	1	blank2r.bmp	0	1	+	0	3	B3r.bmp	492	1	blank2r.bmp	786	1	BMVZ	786	1	blank2r.bmp	866	3	freundlich	866	0	0	0	0	0	0	0	0	0	0	0	0	0	0	0	0	0	0	0	0	0	0	0	0	0	0	0	0	0	0	0	0	0
121918	13:44:45	13:46:34	107662	5.0.10.0	4_exp_AWA_CON_AMP_EVA	33	Rpleas_acq	Same	Rpleas	Bmasked	CS_B	1pleas	distractor1	CONbeforeEVA	acq_new_unple_masked	acq1_masked	1	3	0	0	300	300	0	0	1461	46	0	1	0	0	0	1	blank2r.bmp	0	1	+	0	6	C2r.bmp	492	1	blank2r.bmp	786	1	B1r.bmp	786	1	blank2r.bmp	866	5	lasch	866	0	0	0	0	0	0	0	0	0	0	0	0	0	0	0	0	0	0	0	0	0	0	0	0	0	0	0	0	0	0	0	0	0
121918	13:44:45	13:46:36	110047	5.0.10.0	4_exp_AWA_CON_AMP_EVA	33	Rpleas_acq	Same	Rpleas	Bmasked	CS_B	1pleas	distractor1	CONbeforeEVA	acq_new_pleas_masked	acq1_masked	1	4	0	0	300	300	0	0	895	50	0	1	0	0	0	1	blank2r.bmp	0	1	+	0	4	B4r.bmp	492	1	blank2r.bmp	786	2	B2r.bmp	786	1	blank2r.bmp	866	5	loyal	866	0	0	0	0	0	0	0	0	0	0	0	0	0	0	0	0	0	0	0	0	0	0	0	0	0	0	0	0	0	0	0	0	0
121918	13:44:45	13:46:38	112140	5.0.10.0	4_exp_AWA_CON_AMP_EVA	33	Rpleas_acq	Same	Rpleas	Bmasked	CS_B	1pleas	distractor1	CONbeforeEVA	acq_new_pleas_masked	acq1_masked	1	5	0	0	300	300	0	0	600	50	0	1	0	0	0	1	blank2r.bmp	0	1	+	0	7	C3r.bmp	492	1	blank2r.bmp	786	3	B3r.bmp	786	1	blank2r.bmp	866	6	treu	866	0	0	0	0	0	0	0	0	0	0	0	0	0	0	0	0	0	0	0	0	0	0	0	0	0	0	0	0	0	0	0	0	0
121918	13:44:45	13:46:41	114445	5.0.10.0	4_exp_AWA_CON_AMP_EVA	33	Rpleas_acq	Same	Rpleas	Bmasked	CS_B	1pleas	distractor1	CONbeforeEVA	acq_US_unple_masked	acq1_masked	1	6	0	0	300	300	0	0	614	50	0	0	0	0	0	1	blank2r.bmp	0	1	+	0	1	B1r.bmp	492	1	blank2r.bmp	786	1	GKQX	786	1	blank2r.bmp	866	5	eitel	866	1	FEHLER	1519	0	0	0	0	0	0	0	0	0	0	0	0	0	0	0	0	0	0	0	0	0	0	0	0	0	0	0	0	0	0
121918	13:44:45	13:46:42	116365	5.0.10.0	4_exp_AWA_CON_AMP_EVA	33	Rpleas_acq	Same	Rpleas	Bmasked	CS_B	1pleas	distractor1	CONbeforeEVA	acq_new_unple_masked	acq1_masked	1	7	0	0	300	300	0	0	634	46	0	1	0	0	0	1	blank2r.bmp	0	1	+	0	5	C1r.bmp	492	1	blank2r.bmp	786	7	C3r.bmp	786	1	blank2r.bmp	866	4	schroff	866	0	0	0	0	0	0	0	0	0	0	0	0	0	0	0	0	0	0	0	0	0	0	0	0	0	0	0	0	0	0	0	0	0
121918	13:44:45	13:46:44	118377	5.0.10.0	4_exp_AWA_CON_AMP_EVA	33	Rpleas_acq	Same	Rpleas	Bmasked	CS_B	1pleas	distractor1	CONbeforeEVA	acq_new_pleas_masked	acq1_masked	1	8	0	0	300	300	0	0	518	50	0	1	0	0	0	1	blank2r.bmp	0	1	+	0	8	C4r.bmp	492	1	blank2r.bmp	786	5	C1r.bmp	786	1	blank2r.bmp	866	2	schön	866	0	0	0	0	0	0	0	0	0	0	0	0	0	0	0	0	0	0	0	0	0	0	0	0	0	0	0	0	0	0	0	0	0
121918	13:44:45	13:46:47	120563	5.0.10.0	4_exp_AWA_CON_AMP_EVA	33	Rpleas_acq	Same	Rpleas	Bmasked	CS_B	1pleas	distractor1	CONbeforeEVA	acq_US_unple_masked	acq1_masked	1	9	0	0	300	300	0	0	712	46	0	1	0	0	0	1	blank2r.bmp	0	1	+	0	6	C2r.bmp	492	1	blank2r.bmp	786	1	GKQX	786	1	blank2r.bmp	866	1	tyrannisch	866	0	0	0	0	0	0	0	0	0	0	0	0	0	0	0	0	0	0	0	0	0	0	0	0	0	0	0	0	0	0	0	0	0
121918	13:44:45	13:46:49	122949	5.0.10.0	4_exp_AWA_CON_AMP_EVA	33	Rpleas_acq	Same	Rpleas	Bmasked	CS_B	1pleas	distractor1	CONbeforeEVA	acq_US_pleas_masked	acq1_masked	1	10	0	0	300	300	0	0	899	50	0	1	0	0	0	1	blank2r.bmp	0	1	+	0	2	B2r.bmp	492	1	blank2r.bmp	786	1	BMVZ	786	1	blank2r.bmp	866	1	tolerant	866	0	0	0	0	0	0	0	0	0	0	0	0	0	0	0	0	0	0	0	0	0	0	0	0	0	0	0	0	0	0	0	0	0
121918	13:44:45	13:46:52	125547	5.0.10.0	4_exp_AWA_CON_AMP_EVA	33	Rpleas_acq	Same	Rpleas	Bmasked	CS_B	1pleas	distractor1	CONbeforeEVA	acq_US_unple_masked	acq1_masked	1	11	0	0	300	300	0	0	893	50	0	0	0	0	0	1	blank2r.bmp	0	1	+	0	5	C1r.bmp	492	1	blank2r.bmp	786	1	GKQX	786	1	blank2r.bmp	866	6	rächen	866	1	FEHLER	1799	0	0	0	0	0	0	0	0	0	0	0	0	0	0	0	0	0	0	0	0	0	0	0	0	0	0	0	0	0	0
121918	13:44:45	13:46:54	127906	5.0.10.0	4_exp_AWA_CON_AMP_EVA	33	Rpleas_acq	Same	Rpleas	Bmasked	CS_B	1pleas	distractor1	CONbeforeEVA	acq_US_pleas_masked	acq1_masked	1	12	0	0	300	300	0	0	1102	50	0	1	0	0	0	1	blank2r.bmp	0	1	+	0	1	B1r.bmp	492	1	blank2r.bmp	786	1	BMVZ	786	1	blank2r.bmp	866	2	lachen	866	0	0	0	0	0	0	0	0	0	0	0	0	0	0	0	0	0	0	0	0	0	0	0	0	0	0	0	0	0	0	0	0	0
121918	13:44:45	13:46:56	129852	5.0.10.0	4_exp_AWA_CON_AMP_EVA	33	Rpleas_acq	Same	Rpleas	Bmasked	CS_B	1pleas	distractor1	CONbeforeEVA	acq_new_unple_masked	acq1_masked	1	13	0	0	300	300	0	0	461	46	0	1	0	0	0	1	blank2r.bmp	0	1	+	0	8	C4r.bmp	492	1	blank2r.bmp	786	4	B4r.bmp	786	1	blank2r.bmp	866	1	faul	866	0	0	0	0	0	0	0	0	0	0	0	0	0	0	0	0	0	0	0	0	0	0	0	0	0	0	0	0	0	0	0	0	0
121918	13:44:45	13:46:59	132491	5.0.10.0	4_exp_AWA_CON_AMP_EVA	33	Rpleas_acq	Same	Rpleas	Bmasked	CS_B	1pleas	distractor1	CONbeforeEVA	acq_US_unple_masked	acq1_masked	1	14	0	0	300	300	0	0	1159	46	0	1	0	0	0	1	blank2r.bmp	0	1	+	0	7	C3r.bmp	492	1	blank2r.bmp	786	1	GKQX	786	1	blank2r.bmp	866	3	fanatisch	866	0	0	0	0	0	0	0	0	0	0	0	0	0	0	0	0	0	0	0	0	0	0	0	0	0	0	0	0	0	0	0	0	0
121918	13:44:45	13:47:02	135477	5.0.10.0	4_exp_AWA_CON_AMP_EVA	33	Rpleas_acq	Same	Rpleas	Bmasked	CS_B	1pleas	distractor1	CONbeforeEVA	acq_US_unple_masked	acq1_masked	1	15	0	0	300	300	0	0	1515	46	0	1	0	0	0	1	blank2r.bmp	0	1	+	0	3	B3r.bmp	492	1	blank2r.bmp	786	1	GKQX	786	1	blank2r.bmp	866	4	hindern	866	0	0	0	0	0	0	0	0	0	0	0	0	0	0	0	0	0	0	0	0	0	0	0	0	0	0	0	0	0	0	0	0	0
121918	13:44:45	13:47:05	138782	5.0.10.0	4_exp_AWA_CON_AMP_EVA	33	Rpleas_acq	Same	Rpleas	Bmasked	CS_B	1pleas	distractor1	CONbeforeEVA	acq_US_unple_masked	acq1_masked	1	16	0	0	300	300	0	0	1813	46	0	1	0	0	0	1	blank2r.bmp	0	1	+	0	4	B4r.bmp	492	1	blank2r.bmp	786	1	GKQX	786	1	blank2r.bmp	866	2	leiden	866	0	0	0	0	0	0	0	0	0	0	0	0	0	0	0	0	0	0	0	0	0	0	0	0	0	0	0	0	0	0	0	0	0
121918	13:44:45	13:47:07	140848	5.0.10.0	4_exp_AWA_CON_AMP_EVA	33	Rpleas_acq	Same	Rpleas	Bmasked	CS_B	1pleas	distractor1	CONbeforeEVA	acq_new_pleas_masked	acq1_masked	1	17	0	0	300	300	0	0	594	50	0	1	0	0	0	1	blank2r.bmp	0	1	+	0	8	C4r.bmp	492	1	blank2r.bmp	786	8	C4r.bmp	786	1	blank2r.bmp	866	1	fair	866	0	0	0	0	0	0	0	0	0	0	0	0	0	0	0	0	0	0	0	0	0	0	0	0	0	0	0	0	0	0	0	0	0
121918	13:44:45	13:47:09	142967	5.0.10.0	4_exp_AWA_CON_AMP_EVA	33	Rpleas_acq	Same	Rpleas	Bmasked	CS_B	1pleas	distractor1	CONbeforeEVA	acq_US_pleas_masked	acq1_masked	1	18	0	0	300	300	0	0	650	50	0	1	0	0	0	1	blank2r.bmp	0	1	+	0	7	C3r.bmp	492	1	blank2r.bmp	786	1	BMVZ	786	1	blank2r.bmp	866	6	retten	866	0	0	0	0	0	0	0	0	0	0	0	0	0	0	0	0	0	0	0	0	0	0	0	0	0	0	0	0	0	0	0	0	0
121918	13:44:45	13:47:11	144913	5.0.10.0	4_exp_AWA_CON_AMP_EVA	33	Rpleas_acq	Same	Rpleas	Bmasked	CS_B	1pleas	distractor1	CONbeforeEVA	acq_new_unple_masked	acq1_masked	1	19	0	0	300	300	0	0	452	46	0	1	0	0	0	1	blank2r.bmp	0	1	+	0	4	B4r.bmp	492	1	blank2r.bmp	786	6	C2r.bmp	786	1	blank2r.bmp	866	6	tot	866	0	0	0	0	0	0	0	0	0	0	0	0	0	0	0	0	0	0	0	0	0	0	0	0	0	0	0	0	0	0	0	0	0
121918	13:44:45	13:47:13	147045	5.0.10.0	4_exp_AWA_CON_AMP_EVA	33	Rpleas_acq	Same	Rpleas	Bmasked	CS_B	1pleas	distractor1	CONbeforeEVA	acq_new_pleas_masked	acq1_masked	1	20	0	0	300	300	0	0	661	50	0	1	0	0	0	1	blank2r.bmp	0	1	+	0	1	B1r.bmp	492	1	blank2r.bmp	786	5	C1r.bmp	786	1	blank2r.bmp	866	4	schlau	866	0	0	0	0	0	0	0	0	0	0	0	0	0	0	0	0	0	0	0	0	0	0	0	0	0	0	0	0	0	0	0	0	0
121918	13:44:45	13:47:17	151017	5.0.10.0	4_exp_AWA_CON_AMP_EVA	33	Rpleas_acq	Same	Rpleas	Bmasked	CS_B	1pleas	distractor1	CONbeforeEVA	acq_new_unple_masked	acq1_masked	1	21	0	0	300	300	0	0	2489	46	0	1	0	0	0	1	blank2r.bmp	0	1	+	0	3	B3r.bmp	492	1	blank2r.bmp	786	4	B4r.bmp	786	1	blank2r.bmp	866	3	strafen	866	0	0	0	0	0	0	0	0	0	0	0	0	0	0	0	0	0	0	0	0	0	0	0	0	0	0	0	0	0	0	0	0	0
121918	13:44:45	13:47:19	153029	5.0.10.0	4_exp_AWA_CON_AMP_EVA	33	Rpleas_acq	Same	Rpleas	Bmasked	CS_B	1pleas	distractor1	CONbeforeEVA	acq_US_pleas_masked	acq1_masked	1	22	0	0	300	300	0	0	522	50	0	1	0	0	0	1	blank2r.bmp	0	1	+	0	5	C1r.bmp	492	1	blank2r.bmp	786	1	BMVZ	786	1	blank2r.bmp	866	5	ehrlich	866	0	0	0	0	0	0	0	0	0	0	0	0	0	0	0	0	0	0	0	0	0	0	0	0	0	0	0	0	0	0	0	0	0
121918	13:44:45	13:47:21	155322	5.0.10.0	4_exp_AWA_CON_AMP_EVA	33	Rpleas_acq	Same	Rpleas	Bmasked	CS_B	1pleas	distractor1	CONbeforeEVA	acq_US_pleas_masked	acq1_masked	1	23	0	0	300	300	0	0	809	50	0	1	0	0	0	1	blank2r.bmp	0	1	+	0	2	B2r.bmp	492	1	blank2r.bmp	786	1	BMVZ	786	1	blank2r.bmp	866	4	helfen	866	0	0	0	0	0	0	0	0	0	0	0	0	0	0	0	0	0	0	0	0	0	0	0	0	0	0	0	0	0	0	0	0	0
121918	13:44:45	13:47:24	158254	5.0.10.0	4_exp_AWA_CON_AMP_EVA	33	Rpleas_acq	Same	Rpleas	Bmasked	CS_B	1pleas	distractor1	CONbeforeEVA	acq_new_pleas_masked	acq1_masked	1	24	0	0	300	300	0	0	1439	50	0	1	0	0	0	1	blank2r.bmp	0	1	+	0	6	C2r.bmp	492	1	blank2r.bmp	786	8	C4r.bmp	786	1	blank2r.bmp	866	3	spielen	866	0	0	0	0	0	0	0	0	0	0	0	0	0	0	0	0	0	0	0	0	0	0	0	0	0	0	0	0	0	0	0	0	0
121918	13:44:45	13:47:26	160173	5.0.10.0	4_exp_AWA_CON_AMP_EVA	33	Rpleas_acq	Same	Rpleas	Bmasked	CS_B	1pleas	distractor1	CONbeforeEVA	acq_new_pleas_masked	acq1_masked	1	25	0	0	300	300	0	0	436	50	0	1	0	0	0	1	blank2r.bmp	0	1	+	0	4	B4r.bmp	492	1	blank2r.bmp	786	1	B1r.bmp	786	1	blank2r.bmp	866	3	spielen	866	0	0	0	0	0	0	0	0	0	0	0	0	0	0	0	0	0	0	0	0	0	0	0	0	0	0	0	0	0	0	0	0	0
121918	13:44:45	13:47:28	162172	5.0.10.0	4_exp_AWA_CON_AMP_EVA	33	Rpleas_acq	Same	Rpleas	Bmasked	CS_B	1pleas	distractor1	CONbeforeEVA	acq_new_unple_masked	acq1_masked	1	26	0	0	300	300	0	0	517	46	0	1	0	0	0	1	blank2r.bmp	0	1	+	0	6	C2r.bmp	492	1	blank2r.bmp	786	7	C3r.bmp	786	1	blank2r.bmp	866	3	strafen	866	0	0	0	0	0	0	0	0	0	0	0	0	0	0	0	0	0	0	0	0	0	0	0	0	0	0	0	0	0	0	0	0	0
121918	13:44:45	13:47:30	164132	5.0.10.0	4_exp_AWA_CON_AMP_EVA	33	Rpleas_acq	Same	Rpleas	Bmasked	CS_B	1pleas	distractor1	CONbeforeEVA	acq_US_pleas_masked	acq1_masked	1	27	0	0	300	300	0	0	459	50	0	1	0	0	0	1	blank2r.bmp	0	1	+	0	8	C4r.bmp	492	1	blank2r.bmp	786	1	BMVZ	786	1	blank2r.bmp	866	6	retten	866	0	0	0	0	0	0	0	0	0	0	0	0	0	0	0	0	0	0	0	0	0	0	0	0	0	0	0	0	0	0	0	0	0
121918	13:44:45	13:47:33	166597	5.0.10.0	4_exp_AWA_CON_AMP_EVA	33	Rpleas_acq	Same	Rpleas	Bmasked	CS_B	1pleas	distractor1	CONbeforeEVA	acq_US_unple_masked	acq1_masked	1	28	0	0	300	300	0	0	980	46	0	1	0	0	0	1	blank2r.bmp	0	1	+	0	7	C3r.bmp	492	1	blank2r.bmp	786	1	GKQX	786	1	blank2r.bmp	866	1	tyrannisch	866	0	0	0	0	0	0	0	0	0	0	0	0	0	0	0	0	0	0	0	0	0	0	0	0	0	0	0	0	0	0	0	0	0
121918	13:44:45	13:47:35	169063	5.0.10.0	4_exp_AWA_CON_AMP_EVA	33	Rpleas_acq	Same	Rpleas	Bmasked	CS_B	1pleas	distractor1	CONbeforeEVA	acq_US_pleas_masked	acq1_masked	1	29	0	0	300	300	0	0	984	50	0	1	0	0	0	1	blank2r.bmp	0	1	+	0	1	B1r.bmp	492	1	blank2r.bmp	786	1	BMVZ	786	1	blank2r.bmp	866	3	freundlich	866	0	0	0	0	0	0	0	0	0	0	0	0	0	0	0	0	0	0	0	0	0	0	0	0	0	0	0	0	0	0	0	0	0
121918	13:44:45	13:47:37	171289	5.0.10.0	4_exp_AWA_CON_AMP_EVA	33	Rpleas_acq	Same	Rpleas	Bmasked	CS_B	1pleas	distractor1	CONbeforeEVA	acq_US_pleas_masked	acq1_masked	1	30	0	0	300	300	0	0	528	46	0	0	0	0	0	1	blank2r.bmp	0	1	+	0	3	B3r.bmp	492	1	blank2r.bmp	786	1	BMVZ	786	1	blank2r.bmp	866	1	tolerant	866	1	FEHLER	1426	0	0	0	0	0	0	0	0	0	0	0	0	0	0	0	0	0	0	0	0	0	0	0	0	0	0	0	0	0	0
121918	13:44:45	13:47:39	173101	5.0.10.0	4_exp_AWA_CON_AMP_EVA	33	Rpleas_acq	Same	Rpleas	Bmasked	CS_B	1pleas	distractor1	CONbeforeEVA	acq_new_pleas_masked	acq1_masked	1	31	0	0	300	300	0	0	533	50	0	1	0	0	0	1	blank2r.bmp	0	1	+	0	5	C1r.bmp	492	1	blank2r.bmp	786	2	B2r.bmp	786	1	blank2r.bmp	866	6	treu	866	0	0	0	0	0	0	0	0	0	0	0	0	0	0	0	0	0	0	0	0	0	0	0	0	0	0	0	0	0	0	0	0	0
121918	13:44:45	13:47:41	175300	5.0.10.0	4_exp_AWA_CON_AMP_EVA	33	Rpleas_acq	Same	Rpleas	Bmasked	CS_B	1pleas	distractor1	CONbeforeEVA	acq_new_pleas_masked	acq1_masked	1	32	0	0	300	300	0	0	727	50	0	1	0	0	0	1	blank2r.bmp	0	1	+	0	2	B2r.bmp	492	1	blank2r.bmp	786	3	B3r.bmp	786	1	blank2r.bmp	866	1	fair	866	0	0	0	0	0	0	0	0	0	0	0	0	0	0	0	0	0	0	0	0	0	0	0	0	0	0	0	0	0	0	0	0	0
121918	13:44:45	13:47:43	177246	5.0.10.0	4_exp_AWA_CON_AMP_EVA	33	Rpleas_acq	Same	Rpleas	Bmasked	CS_B	1pleas	distractor1	CONbeforeEVA	acq_new_unple_masked	acq1_masked	1	33	0	0	300	300	0	0	461	46	0	1	0	0	0	1	blank2r.bmp	0	1	+	0	4	B4r.bmp	492	1	blank2r.bmp	786	7	C3r.bmp	786	1	blank2r.bmp	866	2	schlecht	866	0	0	0	0	0	0	0	0	0	0	0	0	0	0	0	0	0	0	0	0	0	0	0	0	0	0	0	0	0	0	0	0	0
121918	13:44:45	13:47:45	179339	5.0.10.0	4_exp_AWA_CON_AMP_EVA	33	Rpleas_acq	Same	Rpleas	Bmasked	CS_B	1pleas	distractor1	CONbeforeEVA	acq_US_unple_masked	acq1_masked	1	34	0	0	300	300	0	0	601	46	0	1	0	0	0	1	blank2r.bmp	0	1	+	0	8	C4r.bmp	492	1	blank2r.bmp	786	1	GKQX	786	1	blank2r.bmp	866	6	rächen	866	0	0	0	0	0	0	0	0	0	0	0	0	0	0	0	0	0	0	0	0	0	0	0	0	0	0	0	0	0	0	0	0	0
121918	13:44:45	13:47:48	181498	5.0.10.0	4_exp_AWA_CON_AMP_EVA	33	Rpleas_acq	Same	Rpleas	Bmasked	CS_B	1pleas	distractor1	CONbeforeEVA	acq_new_unple_masked	acq1_masked	1	35	0	0	300	300	0	0	691	46	0	1	0	0	0	1	blank2r.bmp	0	1	+	0	6	C2r.bmp	492	1	blank2r.bmp	786	1	B1r.bmp	786	1	blank2r.bmp	866	6	tot	866	0	0	0	0	0	0	0	0	0	0	0	0	0	0	0	0	0	0	0	0	0	0	0	0	0	0	0	0	0	0	0	0	0
121918	13:44:45	13:47:50	183710	5.0.10.0	4_exp_AWA_CON_AMP_EVA	33	Rpleas_acq	Same	Rpleas	Bmasked	CS_B	1pleas	distractor1	CONbeforeEVA	acq_US_unple_masked	acq1_masked	1	36	0	0	300	300	0	0	728	46	0	1	0	0	0	1	blank2r.bmp	0	1	+	0	1	B1r.bmp	492	1	blank2r.bmp	786	1	GKQX	786	1	blank2r.bmp	866	3	fanatisch	866	0	0	0	0	0	0	0	0	0	0	0	0	0	0	0	0	0	0	0	0	0	0	0	0	0	0	0	0	0	0	0	0	0
121918	13:44:45	13:48:20	213991	5.0.10.0	4_exp_AWA_CON_AMP_EVA	33	Rpleas_acq	Same	Rpleas	Bmasked	CS_B	1pleas	distractor1	CONbeforeEVA	acq_US_unple_masked	acq2_masked	2	1	480	0	300	300	0	0	1421	46	0	1	0	0	0	1	blank2r.bmp	0	1	+	0	2	B2r.bmp	492	1	blank2r.bmp	786	1	GKQX	786	1	blank2r.bmp	866	2	leiden	866	1	!	1319	1	!	-1	0	0	0	0	0	0	0	0	0	0	0	0	0	0	0	0	0	0	0	0	0	0	0	0	0	0	0
121918	13:44:45	13:48:23	216430	5.0.10.0	4_exp_AWA_CON_AMP_EVA	33	Rpleas_acq	Same	Rpleas	Bmasked	CS_B	1pleas	distractor1	CONbeforeEVA	acq_new_unple_masked	acq2_masked	2	2	480	0	300	300	0	0	655	46	0	1	0	0	0	1	blank2r.bmp	0	1	+	0	3	B3r.bmp	492	1	blank2r.bmp	786	5	C1r.bmp	786	1	blank2r.bmp	866	4	schroff	866	1	!	1319	1	!	-1	0	0	0	0	0	0	0	0	0	0	0	0	0	0	0	0	0	0	0	0	0	0	0	0	0	0	0
121918	13:44:45	13:48:25	218789	5.0.10.0	4_exp_AWA_CON_AMP_EVA	33	Rpleas_acq	Same	Rpleas	Bmasked	CS_B	1pleas	distractor1	CONbeforeEVA	acq_new_pleas_masked	acq2_masked	2	3	480	1	300	300	0	0	546	50	0	1	0	0	0	1	blank2r.bmp	0	1	+	0	5	C1r.bmp	492	1	blank2r.bmp	786	2	B2r.bmp	786	1	blank2r.bmp	866	4	schlau	866	1	!	1319	1	!	1452	0	0	0	0	0	0	0	0	0	0	0	0	0	0	0	0	0	0	0	0	0	0	0	0	0	0	0
121918	13:44:45	13:48:27	221108	5.0.10.0	4_exp_AWA_CON_AMP_EVA	33	Rpleas_acq	Same	Rpleas	Bmasked	CS_B	1pleas	distractor1	CONbeforeEVA	acq_US_pleas_masked	acq2_masked	2	4	480	0	300	300	0	0	321	46	0	0	0	0	0	1	blank2r.bmp	0	1	+	0	7	C3r.bmp	492	1	blank2r.bmp	786	1	BMVZ	786	1	blank2r.bmp	866	4	helfen	866	1	FEHLER	1532	1	!	-1	1	!	-1	0	0	0	0	0	0	0	0	0	0	0	0	0	0	0	0	0	0	0	0	0	0	0	0
121918	13:44:45	13:48:29	223240	5.0.10.0	4_exp_AWA_CON_AMP_EVA	33	Rpleas_acq	Same	Rpleas	Bmasked	CS_B	1pleas	distractor1	CONbeforeEVA	acq_new_unple_masked	acq2_masked	2	5	480	0	300	300	0	0	584	46	0	1	0	0	0	1	blank2r.bmp	0	1	+	0	8	C4r.bmp	492	1	blank2r.bmp	786	4	B4r.bmp	786	1	blank2r.bmp	866	5	lasch	866	1	!	1319	1	!	-1	0	0	0	0	0	0	0	0	0	0	0	0	0	0	0	0	0	0	0	0	0	0	0	0	0	0	0
121918	13:44:45	13:48:32	225413	5.0.10.0	4_exp_AWA_CON_AMP_EVA	33	Rpleas_acq	Same	Rpleas	Bmasked	CS_B	1pleas	distractor1	CONbeforeEVA	acq_US_unple_masked	acq2_masked	2	6	480	0	300	300	0	0	395	46	0	1	0	0	0	1	blank2r.bmp	0	1	+	0	2	B2r.bmp	492	1	blank2r.bmp	786	1	GKQX	786	1	blank2r.bmp	866	4	hindern	866	1	!	-1	1	!	-1	0	0	0	0	0	0	0	0	0	0	0	0	0	0	0	0	0	0	0	0	0	0	0	0	0	0	0
121918	13:44:45	13:48:34	228118	5.0.10.0	4_exp_AWA_CON_AMP_EVA	33	Rpleas_acq	Same	Rpleas	Bmasked	CS_B	1pleas	distractor1	CONbeforeEVA	acq_US_unple_masked	acq2_masked	2	7	480	0	300	300	0	0	683	50	0	0	0	0	0	1	blank2r.bmp	0	1	+	0	4	B4r.bmp	492	1	blank2r.bmp	786	1	GKQX	786	1	blank2r.bmp	866	5	eitel	866	1	FEHLER	1892	1	!	1319	1	!	-1	0	0	0	0	0	0	0	0	0	0	0	0	0	0	0	0	0	0	0	0	0	0	0	0
121918	13:44:45	13:48:36	230131	5.0.10.0	4_exp_AWA_CON_AMP_EVA	33	Rpleas_acq	Same	Rpleas	Bmasked	CS_B	1pleas	distractor1	CONbeforeEVA	acq_US_pleas_masked	acq2_masked	2	8	480	1	300	300	0	0	426	50	0	1	0	0	0	1	blank2r.bmp	0	1	+	0	3	B3r.bmp	492	1	blank2r.bmp	786	1	BMVZ	786	1	blank2r.bmp	866	5	ehrlich	866	1	!	1319	1	!	1332	0	0	0	0	0	0	0	0	0	0	0	0	0	0	0	0	0	0	0	0	0	0	0	0	0	0	0
121918	13:44:45	13:48:39	232450	5.0.10.0	4_exp_AWA_CON_AMP_EVA	33	Rpleas_acq	Same	Rpleas	Bmasked	CS_B	1pleas	distractor1	CONbeforeEVA	acq_US_pleas_masked	acq2_masked	2	9	480	1	300	300	0	0	529	50	0	1	0	0	0	1	blank2r.bmp	0	1	+	0	5	C1r.bmp	492	1	blank2r.bmp	786	1	BMVZ	786	1	blank2r.bmp	866	2	lachen	866	1	!	1319	1	!	1426	0	0	0	0	0	0	0	0	0	0	0	0	0	0	0	0	0	0	0	0	0	0	0	0	0	0	0
121918	13:44:45	13:48:41	234902	5.0.10.0	4_exp_AWA_CON_AMP_EVA	33	Rpleas_acq	Same	Rpleas	Bmasked	CS_B	1pleas	distractor1	CONbeforeEVA	acq_new_pleas_masked	acq2_masked	2	10	480	0	300	300	0	0	678	50	0	1	0	0	0	1	blank2r.bmp	0	1	+	0	1	B1r.bmp	492	1	blank2r.bmp	786	6	C2r.bmp	786	1	blank2r.bmp	866	5	loyal	866	1	!	1319	1	!	-1	0	0	0	0	0	0	0	0	0	0	0	0	0	0	0	0	0	0	0	0	0	0	0	0	0	0	0
121918	13:44:45	13:48:43	237035	5.0.10.0	4_exp_AWA_CON_AMP_EVA	33	Rpleas_acq	Same	Rpleas	Bmasked	CS_B	1pleas	distractor1	CONbeforeEVA	acq_new_unple_masked	acq2_masked	2	11	480	0	300	300	0	0	369	46	0	1	0	0	0	1	blank2r.bmp	0	1	+	0	7	C3r.bmp	492	1	blank2r.bmp	786	3	B3r.bmp	786	1	blank2r.bmp	866	1	faul	866	1	!	-1	1	!	-1	0	0	0	0	0	0	0	0	0	0	0	0	0	0	0	0	0	0	0	0	0	0	0	0	0	0	0
121918	13:44:45	13:48:46	239420	5.0.10.0	4_exp_AWA_CON_AMP_EVA	33	Rpleas_acq	Same	Rpleas	Bmasked	CS_B	1pleas	distractor1	CONbeforeEVA	acq_new_pleas_masked	acq2_masked	2	12	480	0	300	300	0	0	590	50	0	1	0	0	0	1	blank2r.bmp	0	1	+	0	6	C2r.bmp	492	1	blank2r.bmp	786	8	C4r.bmp	786	1	blank2r.bmp	866	2	schön	866	1	!	1319	1	!	-1	0	0	0	0	0	0	0	0	0	0	0	0	0	0	0	0	0	0	0	0	0	0	0	0	0	0	0
121918	13:44:45	13:48:48	241740	5.0.10.0	4_exp_AWA_CON_AMP_EVA	33	Rpleas_acq	Same	Rpleas	Bmasked	CS_B	1pleas	distractor1	CONbeforeEVA	acq_new_pleas_masked	acq2_masked	2	13	480	1	300	300	0	0	515	50	0	1	0	0	0	1	blank2r.bmp	0	1	+	0	1	B1r.bmp	492	1	blank2r.bmp	786	8	C4r.bmp	786	1	blank2r.bmp	866	2	schön	866	1	!	1319	1	!	1412	0	0	0	0	0	0	0	0	0	0	0	0	0	0	0	0	0	0	0	0	0	0	0	0	0	0	0
121918	13:44:45	13:48:50	244112	5.0.10.0	4_exp_AWA_CON_AMP_EVA	33	Rpleas_acq	Same	Rpleas	Bmasked	CS_B	1pleas	distractor1	CONbeforeEVA	acq_new_unple_masked	acq2_masked	2	14	480	0	300	300	0	0	605	46	0	1	0	0	0	1	blank2r.bmp	0	1	+	0	8	C4r.bmp	492	1	blank2r.bmp	786	4	B4r.bmp	786	1	blank2r.bmp	866	2	schlecht	866	1	!	1319	1	!	-1	0	0	0	0	0	0	0	0	0	0	0	0	0	0	0	0	0	0	0	0	0	0	0	0	0	0	0
121918	13:44:45	13:48:52	246284	5.0.10.0	4_exp_AWA_CON_AMP_EVA	33	Rpleas_acq	Same	Rpleas	Bmasked	CS_B	1pleas	distractor1	CONbeforeEVA	acq_new_pleas_masked	acq2_masked	2	15	480	0	300	300	0	0	395	50	0	1	0	0	0	1	blank2r.bmp	0	1	+	0	6	C2r.bmp	492	1	blank2r.bmp	786	2	B2r.bmp	786	1	blank2r.bmp	866	6	treu	866	1	!	-1	1	!	-1	0	0	0	0	0	0	0	0	0	0	0	0	0	0	0	0	0	0	0	0	0	0	0	0	0	0	0
121918	13:44:45	13:48:55	248630	5.0.10.0	4_exp_AWA_CON_AMP_EVA	33	Rpleas_acq	Same	Rpleas	Bmasked	CS_B	1pleas	distractor1	CONbeforeEVA	acq_US_pleas_masked	acq2_masked	2	16	480	0	300	300	0	0	565	50	0	1	0	0	0	1	blank2r.bmp	0	1	+	0	7	C3r.bmp	492	1	blank2r.bmp	786	1	BMVZ	786	1	blank2r.bmp	866	2	lachen	866	1	!	1319	1	!	-1	0	0	0	0	0	0	0	0	0	0	0	0	0	0	0	0	0	0	0	0	0	0	0	0	0	0	0
121918	13:44:45	13:48:57	251029	5.0.10.0	4_exp_AWA_CON_AMP_EVA	33	Rpleas_acq	Same	Rpleas	Bmasked	CS_B	1pleas	distractor1	CONbeforeEVA	acq_US_unple_masked	acq2_masked	2	17	480	0	300	300	0	0	387	50	0	0	0	0	0	1	blank2r.bmp	0	1	+	0	5	C1r.bmp	492	1	blank2r.bmp	786	1	GKQX	786	1	blank2r.bmp	866	6	rächen	866	1	FEHLER	1599	1	!	-1	1	!	-1	0	0	0	0	0	0	0	0	0	0	0	0	0	0	0	0	0	0	0	0	0	0	0	0
121918	13:44:45	13:48:59	253042	5.0.10.0	4_exp_AWA_CON_AMP_EVA	33	Rpleas_acq	Same	Rpleas	Bmasked	CS_B	1pleas	distractor1	CONbeforeEVA	acq_US_unple_masked	acq2_masked	2	18	480	1	300	300	0	0	433	46	0	1	0	0	0	1	blank2r.bmp	0	1	+	0	4	B4r.bmp	492	1	blank2r.bmp	786	1	GKQX	786	1	blank2r.bmp	866	4	hindern	866	1	!	1319	1	!	1332	0	0	0	0	0	0	0	0	0	0	0	0	0	0	0	0	0	0	0	0	0	0	0	0	0	0	0
121918	13:44:45	13:49:01	255214	5.0.10.0	4_exp_AWA_CON_AMP_EVA	33	Rpleas_acq	Same	Rpleas	Bmasked	CS_B	1pleas	distractor1	CONbeforeEVA	acq_US_pleas_masked	acq2_masked	2	19	480	0	300	300	0	0	401	50	0	1	0	0	0	1	blank2r.bmp	0	1	+	0	3	B3r.bmp	492	1	blank2r.bmp	786	1	BMVZ	786	1	blank2r.bmp	866	4	helfen	866	1	!	-1	1	!	-1	0	0	0	0	0	0	0	0	0	0	0	0	0	0	0	0	0	0	0	0	0	0	0	0	0	0	0
121918	13:44:45	13:49:04	257546	5.0.10.0	4_exp_AWA_CON_AMP_EVA	33	Rpleas_acq	Same	Rpleas	Bmasked	CS_B	1pleas	distractor1	CONbeforeEVA	acq_new_unple_masked	acq2_masked	2	20	480	1	300	300	0	0	531	46	0	1	0	0	0	1	blank2r.bmp	0	1	+	0	2	B2r.bmp	492	1	blank2r.bmp	786	1	B1r.bmp	786	1	blank2r.bmp	866	1	faul	866	1	!	1319	1	!	1426	0	0	0	0	0	0	0	0	0	0	0	0	0	0	0	0	0	0	0	0	0	0	0	0	0	0	0
121918	13:44:45	13:49:06	259972	5.0.10.0	4_exp_AWA_CON_AMP_EVA	33	Rpleas_acq	Same	Rpleas	Bmasked	CS_B	1pleas	distractor1	CONbeforeEVA	acq_new_unple_masked	acq2_masked	2	21	480	0	300	300	0	0	643	46	0	1	0	0	0	1	blank2r.bmp	0	1	+	0	4	B4r.bmp	492	1	blank2r.bmp	786	7	C3r.bmp	786	1	blank2r.bmp	866	5	lasch	866	1	!	1319	1	!	-1	0	0	0	0	0	0	0	0	0	0	0	0	0	0	0	0	0	0	0	0	0	0	0	0	0	0	0
121918	13:44:45	13:49:08	262264	5.0.10.0	4_exp_AWA_CON_AMP_EVA	33	Rpleas_acq	Same	Rpleas	Bmasked	CS_B	1pleas	distractor1	CONbeforeEVA	acq_US_unple_masked	acq2_masked	2	22	480	1	300	300	0	0	484	46	0	1	0	0	0	1	blank2r.bmp	0	1	+	0	5	C1r.bmp	492	1	blank2r.bmp	786	1	GKQX	786	1	blank2r.bmp	866	2	leiden	866	1	!	1319	1	!	1386	0	0	0	0	0	0	0	0	0	0	0	0	0	0	0	0	0	0	0	0	0	0	0	0	0	0	0
121918	13:44:45	13:49:11	264557	5.0.10.0	4_exp_AWA_CON_AMP_EVA	33	Rpleas_acq	Same	Rpleas	Bmasked	CS_B	1pleas	distractor1	CONbeforeEVA	acq_US_pleas_masked	acq2_masked	2	23	480	1	300	300	0	0	503	50	0	1	0	0	0	1	blank2r.bmp	0	1	+	0	1	B1r.bmp	492	1	blank2r.bmp	786	1	BMVZ	786	1	blank2r.bmp	866	6	retten	866	1	!	1319	1	!	1399	0	0	0	0	0	0	0	0	0	0	0	0	0	0	0	0	0	0	0	0	0	0	0	0	0	0	0
121918	13:44:45	13:49:13	267049	5.0.10.0	4_exp_AWA_CON_AMP_EVA	33	Rpleas_acq	Same	Rpleas	Bmasked	CS_B	1pleas	distractor1	CONbeforeEVA	acq_new_pleas_masked	acq2_masked	2	24	480	1	300	300	0	0	488	46	0	0	0	0	0	1	blank2r.bmp	0	1	+	0	7	C3r.bmp	492	1	blank2r.bmp	786	3	B3r.bmp	786	1	blank2r.bmp	866	5	loyal	866	1	FEHLER	1705	1	!	1319	1	!	1386	0	0	0	0	0	0	0	0	0	0	0	0	0	0	0	0	0	0	0	0	0	0	0	0
121918	13:44:45	13:49:15	269168	5.0.10.0	4_exp_AWA_CON_AMP_EVA	33	Rpleas_acq	Same	Rpleas	Bmasked	CS_B	1pleas	distractor1	CONbeforeEVA	acq_new_unple_masked	acq2_masked	2	25	480	1	300	300	0	0	532	46	0	1	0	0	0	1	blank2r.bmp	0	1	+	0	2	B2r.bmp	492	1	blank2r.bmp	786	6	C2r.bmp	786	1	blank2r.bmp	866	3	strafen	866	1	!	1319	1	!	1439	0	0	0	0	0	0	0	0	0	0	0	0	0	0	0	0	0	0	0	0	0	0	0	0	0	0	0
121918	13:44:45	13:49:18	271434	5.0.10.0	4_exp_AWA_CON_AMP_EVA	33	Rpleas_acq	Same	Rpleas	Bmasked	CS_B	1pleas	distractor1	CONbeforeEVA	acq_US_pleas_masked	acq2_masked	2	26	480	1	300	300	0	0	458	50	0	1	0	0	0	1	blank2r.bmp	0	1	+	0	8	C4r.bmp	492	1	blank2r.bmp	786	1	BMVZ	786	1	blank2r.bmp	866	3	freundlich	866	1	!	1319	1	!	1359	0	0	0	0	0	0	0	0	0	0	0	0	0	0	0	0	0	0	0	0	0	0	0	0	0	0	0
121918	13:44:45	13:49:20	273740	5.0.10.0	4_exp_AWA_CON_AMP_EVA	33	Rpleas_acq	Same	Rpleas	Bmasked	CS_B	1pleas	distractor1	CONbeforeEVA	acq_US_pleas_masked	acq2_masked	2	27	480	0	300	300	0	0	306	46	0	0	0	0	0	1	blank2r.bmp	0	1	+	0	6	C2r.bmp	492	1	blank2r.bmp	786	1	BMVZ	786	1	blank2r.bmp	866	5	ehrlich	866	1	FEHLER	1519	1	!	-1	1	!	-1	0	0	0	0	0	0	0	0	0	0	0	0	0	0	0	0	0	0	0	0	0	0	0	0
121918	13:44:45	13:49:22	275859	5.0.10.0	4_exp_AWA_CON_AMP_EVA	33	Rpleas_acq	Same	Rpleas	Bmasked	CS_B	1pleas	distractor1	CONbeforeEVA	acq_new_unple_masked	acq2_masked	2	28	480	1	300	300	0	0	534	46	0	1	0	0	0	1	blank2r.bmp	0	1	+	0	3	B3r.bmp	492	1	blank2r.bmp	786	5	C1r.bmp	786	1	blank2r.bmp	866	4	schroff	866	1	!	1319	1	!	1439	0	0	0	0	0	0	0	0	0	0	0	0	0	0	0	0	0	0	0	0	0	0	0	0	0	0	0
121918	13:44:45	13:49:24	278178	5.0.10.0	4_exp_AWA_CON_AMP_EVA	33	Rpleas_acq	Same	Rpleas	Bmasked	CS_B	1pleas	distractor1	CONbeforeEVA	acq_new_unple_masked	acq2_masked	2	29	480	1	300	300	0	0	522	46	0	1	0	0	0	1	blank2r.bmp	0	1	+	0	4	B4r.bmp	492	1	blank2r.bmp	786	3	B3r.bmp	786	1	blank2r.bmp	866	6	tot	866	1	!	1319	1	!	1426	0	0	0	0	0	0	0	0	0	0	0	0	0	0	0	0	0	0	0	0	0	0	0	0	0	0	0
121918	13:44:45	13:49:27	280604	5.0.10.0	4_exp_AWA_CON_AMP_EVA	33	Rpleas_acq	Same	Rpleas	Bmasked	CS_B	1pleas	distractor1	CONbeforeEVA	acq_US_unple_masked	acq2_masked	2	30	480	1	300	300	0	0	426	50	0	0	0	0	0	1	blank2r.bmp	0	1	+	0	2	B2r.bmp	492	1	blank2r.bmp	786	1	GKQX	786	1	blank2r.bmp	866	5	eitel	866	1	FEHLER	1652	1	!	1319	1	!	1332	0	0	0	0	0	0	0	0	0	0	0	0	0	0	0	0	0	0	0	0	0	0	0	0
121918	13:44:45	13:49:29	282709	5.0.10.0	4_exp_AWA_CON_AMP_EVA	33	Rpleas_acq	Same	Rpleas	Bmasked	CS_B	1pleas	distractor1	CONbeforeEVA	acq_new_pleas_masked	acq2_masked	2	31	480	1	300	300	0	0	516	50	0	1	0	0	0	1	blank2r.bmp	0	1	+	0	1	B1r.bmp	492	1	blank2r.bmp	786	8	C4r.bmp	786	1	blank2r.bmp	866	3	spielen	866	1	!	1319	1	!	1412	0	0	0	0	0	0	0	0	0	0	0	0	0	0	0	0	0	0	0	0	0	0	0	0	0	0	0
121918	13:44:45	13:49:31	285028	5.0.10.0	4_exp_AWA_CON_AMP_EVA	33	Rpleas_acq	Same	Rpleas	Bmasked	CS_B	1pleas	distractor1	CONbeforeEVA	acq_US_unple_masked	acq2_masked	2	32	480	1	300	300	0	0	515	46	0	1	0	0	0	1	blank2r.bmp	0	1	+	0	3	B3r.bmp	492	1	blank2r.bmp	786	1	GKQX	786	1	blank2r.bmp	866	1	tyrannisch	866	1	!	1319	1	!	1412	0	0	0	0	0	0	0	0	0	0	0	0	0	0	0	0	0	0	0	0	0	0	0	0	0	0	0
121918	13:44:45	13:49:33	287387	5.0.10.0	4_exp_AWA_CON_AMP_EVA	33	Rpleas_acq	Same	Rpleas	Bmasked	CS_B	1pleas	distractor1	CONbeforeEVA	acq_US_unple_masked	acq2_masked	2	33	480	0	300	300	0	0	587	46	0	1	0	0	0	1	blank2r.bmp	0	1	+	0	8	C4r.bmp	492	1	blank2r.bmp	786	1	GKQX	786	1	blank2r.bmp	866	3	fanatisch	866	1	!	1319	1	!	-1	0	0	0	0	0	0	0	0	0	0	0	0	0	0	0	0	0	0	0	0	0	0	0	0	0	0	0
121918	13:44:45	13:49:36	289626	5.0.10.0	4_exp_AWA_CON_AMP_EVA	33	Rpleas_acq	Same	Rpleas	Bmasked	CS_B	1pleas	distractor1	CONbeforeEVA	acq_new_pleas_masked	acq2_masked	2	34	480	1	300	300	0	0	438	50	0	1	0	0	0	1	blank2r.bmp	0	1	+	0	6	C2r.bmp	492	1	blank2r.bmp	786	4	B4r.bmp	786	1	blank2r.bmp	866	1	fair	866	1	!	1319	1	!	1332	0	0	0	0	0	0	0	0	0	0	0	0	0	0	0	0	0	0	0	0	0	0	0	0	0	0	0
121918	13:44:45	13:49:38	291985	5.0.10.0	4_exp_AWA_CON_AMP_EVA	33	Rpleas_acq	Same	Rpleas	Bmasked	CS_B	1pleas	distractor1	CONbeforeEVA	acq_new_pleas_masked	acq2_masked	2	35	480	0	300	300	0	0	358	46	0	0	0	0	0	1	blank2r.bmp	0	1	+	0	5	C1r.bmp	492	1	blank2r.bmp	786	6	C2r.bmp	786	1	blank2r.bmp	866	4	schlau	866	1	FEHLER	1572	1	!	-1	1	!	-1	0	0	0	0	0	0	0	0	0	0	0	0	0	0	0	0	0	0	0	0	0	0	0	0
121918	13:44:45	13:49:40	294158	5.0.10.0	4_exp_AWA_CON_AMP_EVA	33	Rpleas_acq	Same	Rpleas	Bmasked	CS_B	1pleas	distractor1	CONbeforeEVA	acq_US_pleas_masked	acq2_masked	2	36	480	0	300	300	0	0	605	50	0	1	0	0	0	1	blank2r.bmp	0	1	+	0	7	C3r.bmp	492	1	blank2r.bmp	786	1	BMVZ	786	1	blank2r.bmp	866	1	tolerant	866	1	!	1319	1	!	-1	0	0	0	0	0	0	0	0	0	0	0	0	0	0	0	0	0	0	0	0	0	0	0	0	0	0	0
121918	13:44:45	13:49:56	310391	5.0.10.0	4_exp_AWA_CON_AMP_EVA	33	Rpleas_acq	Same	Rpleas	Bmasked	CS_B	1pleas	distractor1	CONbeforeEVA	acq_US_pleas_masked	acq3_masked	3	1	453	0	300	300	0	0	569	50	0	1	0	0	0	1	blank2r.bmp	0	1	+	0	8	C4r.bmp	492	1	blank2r.bmp	786	1	BMVZ	786	1	blank2r.bmp	866	5	ehrlich	866	1	!	1292	1	!	-1	0	0	0	0	0	0	0	0	0	0	0	0	0	0	0	0	0	0	0	0	0	0	0	0	0	0	0
121918	13:44:45	13:49:59	312617	5.0.10.0	4_exp_AWA_CON_AMP_EVA	33	Rpleas_acq	Same	Rpleas	Bmasked	CS_B	1pleas	distractor1	CONbeforeEVA	acq_US_pleas_masked	acq3_masked	3	2	453	1	300	300	0	0	421	50	0	1	0	0	0	1	blank2r.bmp	0	1	+	0	5	C1r.bmp	492	1	blank2r.bmp	786	1	BMVZ	786	1	blank2r.bmp	866	2	lachen	866	1	!	1292	1	!	1319	0	0	0	0	0	0	0	0	0	0	0	0	0	0	0	0	0	0	0	0	0	0	0	0	0	0	0
121918	13:44:45	13:50:01	314923	5.0.10.0	4_exp_AWA_CON_AMP_EVA	33	Rpleas_acq	Same	Rpleas	Bmasked	CS_B	1pleas	distractor1	CONbeforeEVA	acq_US_pleas_masked	acq3_masked	3	3	453	0	300	300	0	0	532	50	0	1	0	0	0	1	blank2r.bmp	0	1	+	0	4	B4r.bmp	492	1	blank2r.bmp	786	1	BMVZ	786	1	blank2r.bmp	866	4	helfen	866	1	!	1292	1	!	-1	0	0	0	0	0	0	0	0	0	0	0	0	0	0	0	0	0	0	0	0	0	0	0	0	0	0	0
121918	13:44:45	13:50:03	317202	5.0.10.0	4_exp_AWA_CON_AMP_EVA	33	Rpleas_acq	Same	Rpleas	Bmasked	CS_B	1pleas	distractor1	CONbeforeEVA	acq_US_unple_masked	acq3_masked	3	4	453	1	300	300	0	0	477	46	0	1	0	0	0	1	blank2r.bmp	0	1	+	0	3	B3r.bmp	492	1	blank2r.bmp	786	1	GKQX	786	1	blank2r.bmp	866	6	rächen	866	1	!	1292	1	!	1372	0	0	0	0	0	0	0	0	0	0	0	0	0	0	0	0	0	0	0	0	0	0	0	0	0	0	0
121918	13:44:45	13:50:06	319521	5.0.10.0	4_exp_AWA_CON_AMP_EVA	33	Rpleas_acq	Same	Rpleas	Bmasked	CS_B	1pleas	distractor1	CONbeforeEVA	acq_US_unple_masked	acq3_masked	3	5	453	1	300	300	0	0	518	46	0	1	0	0	0	1	blank2r.bmp	0	1	+	0	1	B1r.bmp	492	1	blank2r.bmp	786	1	GKQX	786	1	blank2r.bmp	866	2	leiden	866	1	!	1292	1	!	1412	0	0	0	0	0	0	0	0	0	0	0	0	0	0	0	0	0	0	0	0	0	0	0	0	0	0	0
121918	13:44:45	13:50:08	321773	5.0.10.0	4_exp_AWA_CON_AMP_EVA	33	Rpleas_acq	Same	Rpleas	Bmasked	CS_B	1pleas	distractor1	CONbeforeEVA	acq_US_unple_masked	acq3_masked	3	6	453	1	300	300	0	0	464	46	0	1	0	0	0	1	blank2r.bmp	0	1	+	0	2	B2r.bmp	492	1	blank2r.bmp	786	1	GKQX	786	1	blank2r.bmp	866	4	hindern	866	1	!	1292	1	!	1359	0	0	0	0	0	0	0	0	0	0	0	0	0	0	0	0	0	0	0	0	0	0	0	0	0	0	0
121918	13:44:45	13:50:10	323919	5.0.10.0	4_exp_AWA_CON_AMP_EVA	33	Rpleas_acq	Same	Rpleas	Bmasked	CS_B	1pleas	distractor1	CONbeforeEVA	acq_US_unple_masked	acq3_masked	3	7	453	0	300	300	0	0	368	46	0	1	0	0	0	1	blank2r.bmp	0	1	+	0	7	C3r.bmp	492	1	blank2r.bmp	786	1	GKQX	786	1	blank2r.bmp	866	3	fanatisch	866	1	!	-1	1	!	-1	0	0	0	0	0	0	0	0	0	0	0	0	0	0	0	0	0	0	0	0	0	0	0	0	0	0	0
121918	13:44:45	13:50:12	326278	5.0.10.0	4_exp_AWA_CON_AMP_EVA	33	Rpleas_acq	Same	Rpleas	Bmasked	CS_B	1pleas	distractor1	CONbeforeEVA	acq_US_unple_masked	acq3_masked	3	8	453	0	300	300	0	0	573	46	0	1	0	0	0	1	blank2r.bmp	0	1	+	0	6	C2r.bmp	492	1	blank2r.bmp	786	1	GKQX	786	1	blank2r.bmp	866	1	tyrannisch	866	1	!	1292	1	!	-1	0	0	0	0	0	0	0	0	0	0	0	0	0	0	0	0	0	0	0	0	0	0	0	0	0	0	0
121918	13:44:45	13:50:14	328384	5.0.10.0	4_exp_AWA_CON_AMP_EVA	33	Rpleas_acq	Same	Rpleas	Bmasked	CS_B	1pleas	distractor1	CONbeforeEVA	acq_US_pleas_masked	acq3_masked	3	9	453	0	300	300	0	0	326	50	0	1	0	0	0	1	blank2r.bmp	0	1	+	0	2	B2r.bmp	492	1	blank2r.bmp	786	1	BMVZ	786	1	blank2r.bmp	866	6	retten	866	1	!	-1	1	!	-1	0	0	0	0	0	0	0	0	0	0	0	0	0	0	0	0	0	0	0	0	0	0	0	0	0	0	0
121918	13:44:45	13:50:17	330956	5.0.10.0	4_exp_AWA_CON_AMP_EVA	33	Rpleas_acq	Same	Rpleas	Bmasked	CS_B	1pleas	distractor1	CONbeforeEVA	acq_US_unple_masked	acq3_masked	3	10	453	0	300	300	0	0	566	50	0	0	0	0	0	1	blank2r.bmp	0	1	+	0	4	B4r.bmp	492	1	blank2r.bmp	786	1	GKQX	786	1	blank2r.bmp	866	5	eitel	866	1	FEHLER	1772	1	!	1292	1	!	-1	0	0	0	0	0	0	0	0	0	0	0	0	0	0	0	0	0	0	0	0	0	0	0	0
121918	13:44:45	13:50:19	333049	5.0.10.0	4_exp_AWA_CON_AMP_EVA	33	Rpleas_acq	Same	Rpleas	Bmasked	CS_B	1pleas	distractor1	CONbeforeEVA	acq_US_pleas_masked	acq3_masked	3	11	453	1	300	300	0	0	499	50	0	1	0	0	0	1	blank2r.bmp	0	1	+	0	8	C4r.bmp	492	1	blank2r.bmp	786	1	BMVZ	786	1	blank2r.bmp	866	1	tolerant	866	1	!	1292	1	!	1399	0	0	0	0	0	0	0	0	0	0	0	0	0	0	0	0	0	0	0	0	0	0	0	0	0	0	0
121918	13:44:45	13:50:21	335368	5.0.10.0	4_exp_AWA_CON_AMP_EVA	33	Rpleas_acq	Same	Rpleas	Bmasked	CS_B	1pleas	distractor1	CONbeforeEVA	acq_US_pleas_masked	acq3_masked	3	12	453	0	300	300	0	0	557	50	0	1	0	0	0	1	blank2r.bmp	0	1	+	0	3	B3r.bmp	492	1	blank2r.bmp	786	1	BMVZ	786	1	blank2r.bmp	866	3	freundlich	866	1	!	1292	1	!	-1	0	0	0	0	0	0	0	0	0	0	0	0	0	0	0	0	0	0	0	0	0	0	0	0	0	0	0
121918	13:44:45	13:50:24	337700	5.0.10.0	4_exp_AWA_CON_AMP_EVA	33	Rpleas_acq	Same	Rpleas	Bmasked	CS_B	1pleas	distractor1	CONbeforeEVA	acq_US_pleas_masked	acq3_masked	3	13	453	0	300	300	0	0	550	50	0	1	0	0	0	1	blank2r.bmp	0	1	+	0	6	C2r.bmp	492	1	blank2r.bmp	786	1	BMVZ	786	1	blank2r.bmp	866	6	retten	866	1	!	1292	1	!	-1	0	0	0	0	0	0	0	0	0	0	0	0	0	0	0	0	0	0	0	0	0	0	0	0	0	0	0
121918	13:44:45	13:50:26	339912	5.0.10.0	4_exp_AWA_CON_AMP_EVA	33	Rpleas_acq	Same	Rpleas	Bmasked	CS_B	1pleas	distractor1	CONbeforeEVA	acq_US_unple_masked	acq3_masked	3	14	453	1	300	300	0	0	410	46	0	1	0	0	0	1	blank2r.bmp	0	1	+	0	7	C3r.bmp	492	1	blank2r.bmp	786	1	GKQX	786	1	blank2r.bmp	866	2	leiden	866	1	!	1292	1	!	1306	0	0	0	0	0	0	0	0	0	0	0	0	0	0	0	0	0	0	0	0	0	0	0	0	0	0	0
121918	13:44:45	13:50:28	342111	5.0.10.0	4_exp_AWA_CON_AMP_EVA	33	Rpleas_acq	Same	Rpleas	Bmasked	CS_B	1pleas	distractor1	CONbeforeEVA	acq_US_pleas_masked	acq3_masked	3	15	453	1	300	300	0	0	411	50	0	1	0	0	0	1	blank2r.bmp	0	1	+	0	1	B1r.bmp	492	1	blank2r.bmp	786	1	BMVZ	786	1	blank2r.bmp	866	2	lachen	866	1	!	1292	1	!	1306	0	0	0	0	0	0	0	0	0	0	0	0	0	0	0	0	0	0	0	0	0	0	0	0	0	0	0
121918	13:44:45	13:50:31	344430	5.0.10.0	4_exp_AWA_CON_AMP_EVA	33	Rpleas_acq	Same	Rpleas	Bmasked	CS_B	1pleas	distractor1	CONbeforeEVA	acq_US_pleas_masked	acq3_masked	3	16	453	0	300	300	0	0	546	50	0	1	0	0	0	1	blank2r.bmp	0	1	+	0	5	C1r.bmp	492	1	blank2r.bmp	786	1	BMVZ	786	1	blank2r.bmp	866	3	freundlich	866	1	!	1292	1	!	-1	0	0	0	0	0	0	0	0	0	0	0	0	0	0	0	0	0	0	0	0	0	0	0	0	0	0	0
121918	13:44:45	13:50:33	346643	5.0.10.0	4_exp_AWA_CON_AMP_EVA	33	Rpleas_acq	Same	Rpleas	Bmasked	CS_B	1pleas	distractor1	CONbeforeEVA	acq_US_pleas_masked	acq3_masked	3	17	453	1	300	300	0	0	399	50	0	1	0	0	0	1	blank2r.bmp	0	1	+	0	5	C1r.bmp	492	1	blank2r.bmp	786	1	BMVZ	786	1	blank2r.bmp	866	4	helfen	866	1	!	1292	1	!	1306	0	0	0	0	0	0	0	0	0	0	0	0	0	0	0	0	0	0	0	0	0	0	0	0	0	0	0
121918	13:44:45	13:50:35	348935	5.0.10.0	4_exp_AWA_CON_AMP_EVA	33	Rpleas_acq	Same	Rpleas	Bmasked	CS_B	1pleas	distractor1	CONbeforeEVA	acq_US_unple_masked	acq3_masked	3	18	453	1	300	300	0	0	493	46	0	1	0	0	0	1	blank2r.bmp	0	1	+	0	8	C4r.bmp	492	1	blank2r.bmp	786	1	GKQX	786	1	blank2r.bmp	866	4	hindern	866	1	!	1292	1	!	1399	0	0	0	0	0	0	0	0	0	0	0	0	0	0	0	0	0	0	0	0	0	0	0	0	0	0	0
121918	13:44:45	13:50:37	351201	5.0.10.0	4_exp_AWA_CON_AMP_EVA	33	Rpleas_acq	Same	Rpleas	Bmasked	CS_B	1pleas	distractor1	CONbeforeEVA	acq_US_unple_masked	acq3_masked	3	19	453	1	300	300	0	0	471	46	0	1	0	0	0	1	blank2r.bmp	0	1	+	0	6	C2r.bmp	492	1	blank2r.bmp	786	1	GKQX	786	1	blank2r.bmp	866	3	fanatisch	866	1	!	1292	1	!	1372	0	0	0	0	0	0	0	0	0	0	0	0	0	0	0	0	0	0	0	0	0	0	0	0	0	0	0
121918	13:44:45	13:50:40	353653	5.0.10.0	4_exp_AWA_CON_AMP_EVA	33	Rpleas_acq	Same	Rpleas	Bmasked	CS_B	1pleas	distractor1	CONbeforeEVA	acq_US_unple_masked	acq3_masked	3	20	453	1	300	300	0	0	448	50	0	0	0	0	0	1	blank2r.bmp	0	1	+	0	1	B1r.bmp	492	1	blank2r.bmp	786	1	GKQX	786	1	blank2r.bmp	866	1	tyrannisch	866	1	FEHLER	1665	1	!	1292	1	!	1346	0	0	0	0	0	0	0	0	0	0	0	0	0	0	0	0	0	0	0	0	0	0	0	0
121918	13:44:45	13:50:42	355799	5.0.10.0	4_exp_AWA_CON_AMP_EVA	33	Rpleas_acq	Same	Rpleas	Bmasked	CS_B	1pleas	distractor1	CONbeforeEVA	acq_US_pleas_masked	acq3_masked	3	21	453	0	300	300	0	0	357	46	0	0	0	0	0	1	blank2r.bmp	0	1	+	0	2	B2r.bmp	492	1	blank2r.bmp	786	1	BMVZ	786	1	blank2r.bmp	866	5	ehrlich	866	1	FEHLER	1559	1	!	-1	1	!	-1	0	0	0	0	0	0	0	0	0	0	0	0	0	0	0	0	0	0	0	0	0	0	0	0
121918	13:44:45	13:50:44	357785	5.0.10.0	4_exp_AWA_CON_AMP_EVA	33	Rpleas_acq	Same	Rpleas	Bmasked	CS_B	1pleas	distractor1	CONbeforeEVA	acq_US_unple_masked	acq3_masked	3	22	453	1	300	300	0	0	405	46	0	1	0	0	0	1	blank2r.bmp	0	1	+	0	3	B3r.bmp	492	1	blank2r.bmp	786	1	GKQX	786	1	blank2r.bmp	866	6	rächen	866	1	!	1292	1	!	1306	0	0	0	0	0	0	0	0	0	0	0	0	0	0	0	0	0	0	0	0	0	0	0	0	0	0	0
121918	13:44:45	13:50:46	359984	5.0.10.0	4_exp_AWA_CON_AMP_EVA	33	Rpleas_acq	Same	Rpleas	Bmasked	CS_B	1pleas	distractor1	CONbeforeEVA	acq_US_unple_masked	acq3_masked	3	23	453	1	300	300	0	0	409	46	0	1	0	0	0	1	blank2r.bmp	0	1	+	0	7	C3r.bmp	492	1	blank2r.bmp	786	1	GKQX	786	1	blank2r.bmp	866	5	eitel	866	1	!	1292	1	!	1306	0	0	0	0	0	0	0	0	0	0	0	0	0	0	0	0	0	0	0	0	0	0	0	0	0	0	0
121918	13:44:45	13:50:48	362063	5.0.10.0	4_exp_AWA_CON_AMP_EVA	33	Rpleas_acq	Same	Rpleas	Bmasked	CS_B	1pleas	distractor1	CONbeforeEVA	acq_US_pleas_masked	acq3_masked	3	24	453	0	300	300	0	0	317	50	0	1	0	0	0	1	blank2r.bmp	0	1	+	0	4	B4r.bmp	492	1	blank2r.bmp	786	1	BMVZ	786	1	blank2r.bmp	866	1	tolerant	866	1	!	-1	1	!	-1	0	0	0	0	0	0	0	0	0	0	0	0	0	0	0	0	0	0	0	0	0	0	0	0	0	0	0
121918	13:44:45	13:50:51	364409	5.0.10.0	4_exp_AWA_CON_AMP_EVA	33	Rpleas_acq	Same	Rpleas	Bmasked	CS_B	1pleas	distractor1	CONbeforeEVA	acq_US_pleas_masked	acq3_masked	3	25	453	0	300	300	0	0	569	50	0	1	0	0	0	1	blank2r.bmp	0	1	+	0	1	B1r.bmp	492	1	blank2r.bmp	786	1	BMVZ	786	1	blank2r.bmp	866	4	helfen	866	1	!	1292	1	!	-1	0	0	0	0	0	0	0	0	0	0	0	0	0	0	0	0	0	0	0	0	0	0	0	0	0	0	0
121918	13:44:45	13:50:53	366728	5.0.10.0	4_exp_AWA_CON_AMP_EVA	33	Rpleas_acq	Same	Rpleas	Bmasked	CS_B	1pleas	distractor1	CONbeforeEVA	acq_US_pleas_masked	acq3_masked	3	26	453	0	300	300	0	0	305	46	0	0	0	0	0	1	blank2r.bmp	0	1	+	0	5	C1r.bmp	492	1	blank2r.bmp	786	1	BMVZ	786	1	blank2r.bmp	866	1	tolerant	866	1	FEHLER	1506	1	!	-1	1	!	-1	0	0	0	0	0	0	0	0	0	0	0	0	0	0	0	0	0	0	0	0	0	0	0	0
121918	13:44:45	13:50:55	368714	5.0.10.0	4_exp_AWA_CON_AMP_EVA	33	Rpleas_acq	Same	Rpleas	Bmasked	CS_B	1pleas	distractor1	CONbeforeEVA	acq_US_pleas_masked	acq3_masked	3	27	453	1	300	300	0	0	399	50	0	1	0	0	0	1	blank2r.bmp	0	1	+	0	7	C3r.bmp	492	1	blank2r.bmp	786	1	BMVZ	786	1	blank2r.bmp	866	3	freundlich	866	1	!	1292	1	!	1306	0	0	0	0	0	0	0	0	0	0	0	0	0	0	0	0	0	0	0	0	0	0	0	0	0	0	0
121918	13:44:45	13:50:57	371046	5.0.10.0	4_exp_AWA_CON_AMP_EVA	33	Rpleas_acq	Same	Rpleas	Bmasked	CS_B	1pleas	distractor1	CONbeforeEVA	acq_US_pleas_masked	acq3_masked	3	28	453	0	300	300	0	0	340	46	0	0	0	0	0	1	blank2r.bmp	0	1	+	0	4	B4r.bmp	492	1	blank2r.bmp	786	1	BMVZ	786	1	blank2r.bmp	866	6	retten	866	1	FEHLER	1546	1	!	-1	1	!	-1	0	0	0	0	0	0	0	0	0	0	0	0	0	0	0	0	0	0	0	0	0	0	0	0
121918	13:44:45	13:50:59	373139	5.0.10.0	4_exp_AWA_CON_AMP_EVA	33	Rpleas_acq	Same	Rpleas	Bmasked	CS_B	1pleas	distractor1	CONbeforeEVA	acq_US_unple_masked	acq3_masked	3	29	453	0	300	300	0	0	292	50	0	0	0	0	0	1	blank2r.bmp	0	1	+	0	6	C2r.bmp	492	1	blank2r.bmp	786	1	GKQX	786	1	blank2r.bmp	866	4	hindern	866	1	FEHLER	1506	1	!	-1	1	!	-1	0	0	0	0	0	0	0	0	0	0	0	0	0	0	0	0	0	0	0	0	0	0	0	0
121918	13:44:45	13:51:01	375178	5.0.10.0	4_exp_AWA_CON_AMP_EVA	33	Rpleas_acq	Same	Rpleas	Bmasked	CS_B	1pleas	distractor1	CONbeforeEVA	acq_US_unple_masked	acq3_masked	3	30	453	1	300	300	0	0	450	46	0	1	0	0	0	1	blank2r.bmp	0	1	+	0	2	B2r.bmp	492	1	blank2r.bmp	786	1	GKQX	786	1	blank2r.bmp	866	2	leiden	866	1	!	1292	1	!	1346	0	0	0	0	0	0	0	0	0	0	0	0	0	0	0	0	0	0	0	0	0	0	0	0	0	0	0
121918	13:44:45	13:51:03	377377	5.0.10.0	4_exp_AWA_CON_AMP_EVA	33	Rpleas_acq	Same	Rpleas	Bmasked	CS_B	1pleas	distractor1	CONbeforeEVA	acq_US_unple_masked	acq3_masked	3	31	453	1	300	300	0	0	399	46	0	1	0	0	0	1	blank2r.bmp	0	1	+	0	8	C4r.bmp	492	1	blank2r.bmp	786	1	GKQX	786	1	blank2r.bmp	866	1	tyrannisch	866	1	!	1292	1	!	1306	0	0	0	0	0	0	0	0	0	0	0	0	0	0	0	0	0	0	0	0	0	0	0	0	0	0	0
121918	13:44:45	13:51:06	379629	5.0.10.0	4_exp_AWA_CON_AMP_EVA	33	Rpleas_acq	Same	Rpleas	Bmasked	CS_B	1pleas	distractor1	CONbeforeEVA	acq_US_unple_masked	acq3_masked	3	32	453	1	300	300	0	0	459	46	0	1	0	0	0	1	blank2r.bmp	0	1	+	0	3	B3r.bmp	492	1	blank2r.bmp	786	1	GKQX	786	1	blank2r.bmp	866	6	rächen	866	1	!	1292	1	!	1359	0	0	0	0	0	0	0	0	0	0	0	0	0	0	0	0	0	0	0	0	0	0	0	0	0	0	0
121918	13:44:45	13:51:08	382042	5.0.10.0	4_exp_AWA_CON_AMP_EVA	33	Rpleas_acq	Same	Rpleas	Bmasked	CS_B	1pleas	distractor1	CONbeforeEVA	acq_US_unple_masked	acq3_masked	3	33	453	1	300	300	0	0	399	50	0	0	0	0	0	1	blank2r.bmp	0	1	+	0	7	C3r.bmp	492	1	blank2r.bmp	786	1	GKQX	786	1	blank2r.bmp	866	5	eitel	866	1	FEHLER	1625	1	!	1292	1	!	1306	0	0	0	0	0	0	0	0	0	0	0	0	0	0	0	0	0	0	0	0	0	0	0	0
121918	13:44:45	13:51:10	384081	5.0.10.0	4_exp_AWA_CON_AMP_EVA	33	Rpleas_acq	Same	Rpleas	Bmasked	CS_B	1pleas	distractor1	CONbeforeEVA	acq_US_unple_masked	acq3_masked	3	34	453	1	300	300	0	0	462	46	0	1	0	0	0	1	blank2r.bmp	0	1	+	0	4	B4r.bmp	492	1	blank2r.bmp	786	1	GKQX	786	1	blank2r.bmp	866	3	fanatisch	866	1	!	1292	1	!	1359	0	0	0	0	0	0	0	0	0	0	0	0	0	0	0	0	0	0	0	0	0	0	0	0	0	0	0
121918	13:44:45	13:51:12	386173	5.0.10.0	4_exp_AWA_CON_AMP_EVA	33	Rpleas_acq	Same	Rpleas	Bmasked	CS_B	1pleas	distractor1	CONbeforeEVA	acq_US_pleas_masked	acq3_masked	3	35	453	0	300	300	0	0	327	50	0	1	0	0	0	1	blank2r.bmp	0	1	+	0	5	C1r.bmp	492	1	blank2r.bmp	786	1	BMVZ	786	1	blank2r.bmp	866	2	lachen	866	1	!	-1	1	!	-1	0	0	0	0	0	0	0	0	0	0	0	0	0	0	0	0	0	0	0	0	0	0	0	0	0	0	0
121918	13:44:45	13:51:15	388399	5.0.10.0	4_exp_AWA_CON_AMP_EVA	33	Rpleas_acq	Same	Rpleas	Bmasked	CS_B	1pleas	distractor1	CONbeforeEVA	acq_US_pleas_masked	acq3_masked	3	36	453	1	300	300	0	0	425	50	0	1	0	0	0	1	blank2r.bmp	0	1	+	0	1	B1r.bmp	492	1	blank2r.bmp	786	1	BMVZ	786	1	blank2r.bmp	866	5	ehrlich	866	1	!	1292	1	!	1319	0	0	0	0	0	0	0	0	0	0	0	0	0	0	0	0	0	0	0	0	0	0	0	0	0	0	0
121918	13:44:45	13:51:31	404592	5.0.10.0	4_exp_AWA_CON_AMP_EVA	33	Rpleas_acq	Same	Rpleas	Bmasked	CS_B	1pleas	distractor1	CONbeforeEVA	acq_US_unple_masked	acq45_masked	4	1	400	1	300	300	0	0	352	46	0	1	0	0	0	1	blank2r.bmp	0	1	+	0	2	B2r.bmp	492	1	blank2r.bmp	786	1	GKQX	786	1	blank2r.bmp	866	3	fanatisch	866	1	!	1239	1	!	1252	0	0	0	0	0	0	0	0	0	0	0	0	0	0	0	0	0	0	0	0	0	0	0	0	0	0	0
121918	13:44:45	13:51:33	406791	5.0.10.0	4_exp_AWA_CON_AMP_EVA	33	Rpleas_acq	Same	Rpleas	Bmasked	CS_B	1pleas	distractor1	CONbeforeEVA	acq_US_pleas_masked	acq45_masked	4	2	400	1	300	300	0	0	388	46	0	0	0	0	0	1	blank2r.bmp	0	1	+	0	3	B3r.bmp	492	1	blank2r.bmp	786	1	BMVZ	786	1	blank2r.bmp	866	2	lachen	866	1	!	1239	1	!	1292	0	0	0	0	0	0	0	0	0	0	0	0	0	0	0	0	0	0	0	0	0	0	0	0	0	0	0
121918	13:44:45	13:51:35	408964	5.0.10.0	4_exp_AWA_CON_AMP_EVA	33	Rpleas_acq	Same	Rpleas	Bmasked	CS_B	1pleas	distractor1	CONbeforeEVA	acq_US_pleas_masked	acq45_masked	4	3	400	1	300	300	0	0	359	46	0	0	0	0	0	1	blank2r.bmp	0	1	+	0	6	C2r.bmp	492	1	blank2r.bmp	786	1	BMVZ	786	1	blank2r.bmp	866	3	freundlich	866	1	!	1239	1	!	1266	0	0	0	0	0	0	0	0	0	0	0	0	0	0	0	0	0	0	0	0	0	0	0	0	0	0	0
121918	13:44:45	13:51:37	411110	5.0.10.0	4_exp_AWA_CON_AMP_EVA	33	Rpleas_acq	Same	Rpleas	Bmasked	CS_B	1pleas	distractor1	CONbeforeEVA	acq_US_pleas_masked	acq45_masked	4	4	400	1	300	300	0	0	353	50	0	1	0	0	0	1	blank2r.bmp	0	1	+	0	8	C4r.bmp	492	1	blank2r.bmp	786	1	BMVZ	786	1	blank2r.bmp	866	5	ehrlich	866	1	!	1239	1	!	1252	0	0	0	0	0	0	0	0	0	0	0	0	0	0	0	0	0	0	0	0	0	0	0	0	0	0	0
121918	13:44:45	13:51:39	413295	5.0.10.0	4_exp_AWA_CON_AMP_EVA	33	Rpleas_acq	Same	Rpleas	Bmasked	CS_B	1pleas	distractor1	CONbeforeEVA	acq_US_unple_masked	acq45_masked	4	5	400	1	300	300	0	0	394	46	0	1	0	0	0	1	blank2r.bmp	0	1	+	0	6	C2r.bmp	492	1	blank2r.bmp	786	1	GKQX	786	1	blank2r.bmp	866	4	hindern	866	1	!	1239	1	!	1292	0	0	0	0	0	0	0	0	0	0	0	0	0	0	0	0	0	0	0	0	0	0	0	0	0	0	0
121918	13:44:45	13:51:42	415468	5.0.10.0	4_exp_AWA_CON_AMP_EVA	33	Rpleas_acq	Same	Rpleas	Bmasked	CS_B	1pleas	distractor1	CONbeforeEVA	acq_US_pleas_masked	acq45_masked	4	6	400	1	300	300	0	0	372	50	0	1	0	0	0	1	blank2r.bmp	0	1	+	0	3	B3r.bmp	492	1	blank2r.bmp	786	1	BMVZ	786	1	blank2r.bmp	866	6	retten	866	1	!	1239	1	!	1266	0	0	0	0	0	0	0	0	0	0	0	0	0	0	0	0	0	0	0	0	0	0	0	0	0	0	0
121918	13:44:45	13:51:44	417747	5.0.10.0	4_exp_AWA_CON_AMP_EVA	33	Rpleas_acq	Same	Rpleas	Bmasked	CS_B	1pleas	distractor1	CONbeforeEVA	acq_US_unple_masked	acq45_masked	4	7	400	0	300	300	0	0	516	46	0	1	0	0	0	1	blank2r.bmp	0	1	+	0	5	C1r.bmp	492	1	blank2r.bmp	786	1	GKQX	786	1	blank2r.bmp	866	5	eitel	866	1	!	1239	1	!	-1	0	0	0	0	0	0	0	0	0	0	0	0	0	0	0	0	0	0	0	0	0	0	0	0	0	0	0
121918	13:44:45	13:51:46	420039	5.0.10.0	4_exp_AWA_CON_AMP_EVA	33	Rpleas_acq	Same	Rpleas	Bmasked	CS_B	1pleas	distractor1	CONbeforeEVA	acq_US_unple_masked	acq45_masked	4	8	400	0	300	300	0	0	516	46	0	1	0	0	0	1	blank2r.bmp	0	1	+	0	8	C4r.bmp	492	1	blank2r.bmp	786	1	GKQX	786	1	blank2r.bmp	866	1	tyrannisch	866	1	!	1239	1	!	-1	0	0	0	0	0	0	0	0	0	0	0	0	0	0	0	0	0	0	0	0	0	0	0	0	0	0	0
121918	13:44:45	13:51:48	422238	5.0.10.0	4_exp_AWA_CON_AMP_EVA	33	Rpleas_acq	Same	Rpleas	Bmasked	CS_B	1pleas	distractor1	CONbeforeEVA	acq_US_unple_masked	acq45_masked	4	9	400	1	300	300	0	0	385	50	0	0	0	0	0	1	blank2r.bmp	0	1	+	0	4	B4r.bmp	492	1	blank2r.bmp	786	1	GKQX	786	1	blank2r.bmp	866	6	rächen	866	1	!	1239	1	!	1279	0	0	0	0	0	0	0	0	0	0	0	0	0	0	0	0	0	0	0	0	0	0	0	0	0	0	0
121918	13:44:45	13:51:51	424491	5.0.10.0	4_exp_AWA_CON_AMP_EVA	33	Rpleas_acq	Same	Rpleas	Bmasked	CS_B	1pleas	distractor1	CONbeforeEVA	acq_US_unple_masked	acq45_masked	4	10	400	1	300	300	0	0	453	46	0	1	0	0	0	1	blank2r.bmp	0	1	+	0	1	B1r.bmp	492	1	blank2r.bmp	786	1	GKQX	786	1	blank2r.bmp	866	2	leiden	866	1	!	1239	1	!	1359	0	0	0	0	0	0	0	0	0	0	0	0	0	0	0	0	0	0	0	0	0	0	0	0	0	0	0
121918	13:44:45	13:51:53	426743	5.0.10.0	4_exp_AWA_CON_AMP_EVA	33	Rpleas_acq	Same	Rpleas	Bmasked	CS_B	1pleas	distractor1	CONbeforeEVA	acq_US_unple_masked	acq45_masked	4	11	400	0	300	300	0	0	479	46	0	1	0	0	0	1	blank2r.bmp	0	1	+	0	2	B2r.bmp	492	1	blank2r.bmp	786	1	GKQX	786	1	blank2r.bmp	866	6	rächen	866	1	!	1239	1	!	-1	0	0	0	0	0	0	0	0	0	0	0	0	0	0	0	0	0	0	0	0	0	0	0	0	0	0	0
121918	13:44:45	13:51:55	428902	5.0.10.0	4_exp_AWA_CON_AMP_EVA	33	Rpleas_acq	Same	Rpleas	Bmasked	CS_B	1pleas	distractor1	CONbeforeEVA	acq_US_pleas_masked	acq45_masked	4	12	400	1	300	300	0	0	346	46	0	0	0	0	0	1	blank2r.bmp	0	1	+	0	7	C3r.bmp	492	1	blank2r.bmp	786	1	BMVZ	786	1	blank2r.bmp	866	4	helfen	866	1	!	1239	1	!	1252	0	0	0	0	0	0	0	0	0	0	0	0	0	0	0	0	0	0	0	0	0	0	0	0	0	0	0
121918	13:44:45	13:51:57	431128	5.0.10.0	4_exp_AWA_CON_AMP_EVA	33	Rpleas_acq	Same	Rpleas	Bmasked	CS_B	1pleas	distractor1	CONbeforeEVA	acq_US_pleas_masked	acq45_masked	4	13	400	1	300	300	0	0	432	50	0	1	0	0	0	1	blank2r.bmp	0	1	+	0	1	B1r.bmp	492	1	blank2r.bmp	786	1	BMVZ	786	1	blank2r.bmp	866	1	tolerant	866	1	!	1239	1	!	1332	0	0	0	0	0	0	0	0	0	0	0	0	0	0	0	0	0	0	0	0	0	0	0	0	0	0	0
121918	13:44:45	13:51:59	433247	5.0.10.0	4_exp_AWA_CON_AMP_EVA	33	Rpleas_acq	Same	Rpleas	Bmasked	CS_B	1pleas	distractor1	CONbeforeEVA	acq_US_pleas_masked	acq45_masked	4	14	400	0	300	300	0	0	333	50	0	1	0	0	0	1	blank2r.bmp	0	1	+	0	7	C3r.bmp	492	1	blank2r.bmp	786	1	BMVZ	786	1	blank2r.bmp	866	6	retten	866	1	!	-1	1	!	-1	0	0	0	0	0	0	0	0	0	0	0	0	0	0	0	0	0	0	0	0	0	0	0	0	0	0	0
121918	13:44:45	13:52:02	435513	5.0.10.0	4_exp_AWA_CON_AMP_EVA	33	Rpleas_acq	Same	Rpleas	Bmasked	CS_B	1pleas	distractor1	CONbeforeEVA	acq_US_unple_masked	acq45_masked	4	15	400	0	300	300	0	0	491	46	0	1	0	0	0	1	blank2r.bmp	0	1	+	0	3	B3r.bmp	492	1	blank2r.bmp	786	1	GKQX	786	1	blank2r.bmp	866	3	fanatisch	866	1	!	1239	1	!	-1	0	0	0	0	0	0	0	0	0	0	0	0	0	0	0	0	0	0	0	0	0	0	0	0	0	0	0
121918	13:44:45	13:52:04	437685	5.0.10.0	4_exp_AWA_CON_AMP_EVA	33	Rpleas_acq	Same	Rpleas	Bmasked	CS_B	1pleas	distractor1	CONbeforeEVA	acq_US_pleas_masked	acq45_masked	4	16	400	1	300	300	0	0	353	50	0	1	0	0	0	1	blank2r.bmp	0	1	+	0	2	B2r.bmp	492	1	blank2r.bmp	786	1	BMVZ	786	1	blank2r.bmp	866	1	tolerant	866	1	!	1239	1	!	1252	0	0	0	0	0	0	0	0	0	0	0	0	0	0	0	0	0	0	0	0	0	0	0	0	0	0	0
121918	13:44:45	13:52:06	439871	5.0.10.0	4_exp_AWA_CON_AMP_EVA	33	Rpleas_acq	Same	Rpleas	Bmasked	CS_B	1pleas	distractor1	CONbeforeEVA	acq_US_unple_masked	acq45_masked	4	17	400	1	300	300	0	0	389	46	0	1	0	0	0	1	blank2r.bmp	0	1	+	0	6	C2r.bmp	492	1	blank2r.bmp	786	1	GKQX	786	1	blank2r.bmp	866	2	leiden	866	1	!	1239	1	!	1292	0	0	0	0	0	0	0	0	0	0	0	0	0	0	0	0	0	0	0	0	0	0	0	0	0	0	0
121918	13:44:45	13:52:08	442150	5.0.10.0	4_exp_AWA_CON_AMP_EVA	33	Rpleas_acq	Same	Rpleas	Bmasked	CS_B	1pleas	distractor1	CONbeforeEVA	acq_US_pleas_masked	acq45_masked	4	18	400	0	300	300	0	0	506	50	0	1	0	0	0	1	blank2r.bmp	0	1	+	0	5	C1r.bmp	492	1	blank2r.bmp	786	1	BMVZ	786	1	blank2r.bmp	866	4	helfen	866	1	!	1239	1	!	-1	0	0	0	0	0	0	0	0	0	0	0	0	0	0	0	0	0	0	0	0	0	0	0	0	0	0	0
121918	13:44:45	13:52:11	444403	5.0.10.0	4_exp_AWA_CON_AMP_EVA	33	Rpleas_acq	Same	Rpleas	Bmasked	CS_B	1pleas	distractor1	CONbeforeEVA	acq_US_unple_masked	acq45_masked	4	19	400	1	300	300	0	0	443	46	0	1	0	0	0	1	blank2r.bmp	0	1	+	0	8	C4r.bmp	492	1	blank2r.bmp	786	1	GKQX	786	1	blank2r.bmp	866	1	tyrannisch	866	1	!	1239	1	!	1346	0	0	0	0	0	0	0	0	0	0	0	0	0	0	0	0	0	0	0	0	0	0	0	0	0	0	0
121918	13:44:45	13:52:13	446615	5.0.10.0	4_exp_AWA_CON_AMP_EVA	33	Rpleas_acq	Same	Rpleas	Bmasked	CS_B	1pleas	distractor1	CONbeforeEVA	acq_US_unple_masked	acq45_masked	4	20	400	1	300	300	0	0	399	50	0	0	0	0	0	1	blank2r.bmp	0	1	+	0	4	B4r.bmp	492	1	blank2r.bmp	786	1	GKQX	786	1	blank2r.bmp	866	5	eitel	866	1	!	1239	1	!	1306	0	0	0	0	0	0	0	0	0	0	0	0	0	0	0	0	0	0	0	0	0	0	0	0	0	0	0
121918	13:44:45	13:52:15	448841	5.0.10.0	4_exp_AWA_CON_AMP_EVA	33	Rpleas_acq	Same	Rpleas	Bmasked	CS_B	1pleas	distractor1	CONbeforeEVA	acq_US_unple_masked	acq45_masked	4	21	400	1	300	300	0	0	436	46	0	1	0	0	0	1	blank2r.bmp	0	1	+	0	6	C2r.bmp	492	1	blank2r.bmp	786	1	GKQX	786	1	blank2r.bmp	866	4	hindern	866	1	!	1239	1	!	1332	0	0	0	0	0	0	0	0	0	0	0	0	0	0	0	0	0	0	0	0	0	0	0	0	0	0	0
121918	13:44:45	13:52:17	450987	5.0.10.0	4_exp_AWA_CON_AMP_EVA	33	Rpleas_acq	Same	Rpleas	Bmasked	CS_B	1pleas	distractor1	CONbeforeEVA	acq_US_pleas_masked	acq45_masked	4	22	400	1	300	300	0	0	346	50	0	1	0	0	0	1	blank2r.bmp	0	1	+	0	8	C4r.bmp	492	1	blank2r.bmp	786	1	BMVZ	786	1	blank2r.bmp	866	3	freundlich	866	1	!	1239	1	!	1252	0	0	0	0	0	0	0	0	0	0	0	0	0	0	0	0	0	0	0	0	0	0	0	0	0	0	0
121918	13:44:45	13:52:19	453252	5.0.10.0	4_exp_AWA_CON_AMP_EVA	33	Rpleas_acq	Same	Rpleas	Bmasked	CS_B	1pleas	distractor1	CONbeforeEVA	acq_US_unple_masked	acq45_masked	4	23	400	0	300	300	0	0	486	50	0	0	0	0	0	1	blank2r.bmp	0	1	+	0	5	C1r.bmp	492	1	blank2r.bmp	786	1	GKQX	786	1	blank2r.bmp	866	1	tyrannisch	866	1	!	1239	1	!	-1	0	0	0	0	0	0	0	0	0	0	0	0	0	0	0	0	0	0	0	0	0	0	0	0	0	0	0
121918	13:44:45	13:52:22	455491	5.0.10.0	4_exp_AWA_CON_AMP_EVA	33	Rpleas_acq	Same	Rpleas	Bmasked	CS_B	1pleas	distractor1	CONbeforeEVA	acq_US_unple_masked	acq45_masked	4	24	400	1	300	300	0	0	433	46	0	1	0	0	0	1	blank2r.bmp	0	1	+	0	3	B3r.bmp	492	1	blank2r.bmp	786	1	GKQX	786	1	blank2r.bmp	866	2	leiden	866	1	!	1239	1	!	1332	0	0	0	0	0	0	0	0	0	0	0	0	0	0	0	0	0	0	0	0	0	0	0	0	0	0	0
121918	13:44:45	13:52:24	457717	5.0.10.0	4_exp_AWA_CON_AMP_EVA	33	Rpleas_acq	Same	Rpleas	Bmasked	CS_B	1pleas	distractor1	CONbeforeEVA	acq_US_pleas_masked	acq45_masked	4	25	400	1	300	300	0	0	429	50	0	1	0	0	0	1	blank2r.bmp	0	1	+	0	4	B4r.bmp	492	1	blank2r.bmp	786	1	BMVZ	786	1	blank2r.bmp	866	5	ehrlich	866	1	!	1239	1	!	1332	0	0	0	0	0	0	0	0	0	0	0	0	0	0	0	0	0	0	0	0	0	0	0	0	0	0	0
121918	13:44:45	13:52:26	459983	5.0.10.0	4_exp_AWA_CON_AMP_EVA	33	Rpleas_acq	Same	Rpleas	Bmasked	CS_B	1pleas	distractor1	CONbeforeEVA	acq_US_pleas_masked	acq45_masked	4	26	400	0	300	300	0	0	498	46	0	0	0	0	0	1	blank2r.bmp	0	1	+	0	7	C3r.bmp	492	1	blank2r.bmp	786	1	BMVZ	786	1	blank2r.bmp	866	2	lachen	866	1	!	1239	1	!	-1	0	0	0	0	0	0	0	0	0	0	0	0	0	0	0	0	0	0	0	0	0	0	0	0	0	0	0
121918	13:44:45	13:52:28	462169	5.0.10.0	4_exp_AWA_CON_AMP_EVA	33	Rpleas_acq	Same	Rpleas	Bmasked	CS_B	1pleas	distractor1	CONbeforeEVA	acq_US_unple_masked	acq45_masked	4	27	400	1	300	300	0	0	375	46	0	1	0	0	0	1	blank2r.bmp	0	1	+	0	1	B1r.bmp	492	1	blank2r.bmp	786	1	GKQX	786	1	blank2r.bmp	866	4	hindern	866	1	!	1239	1	!	1279	0	0	0	0	0	0	0	0	0	0	0	0	0	0	0	0	0	0	0	0	0	0	0	0	0	0	0
121918	13:44:45	13:52:30	464381	5.0.10.0	4_exp_AWA_CON_AMP_EVA	33	Rpleas_acq	Same	Rpleas	Bmasked	CS_B	1pleas	distractor1	CONbeforeEVA	acq_US_pleas_masked	acq45_masked	4	28	400	1	300	300	0	0	417	50	0	1	0	0	0	1	blank2r.bmp	0	1	+	0	2	B2r.bmp	492	1	blank2r.bmp	786	1	BMVZ	786	1	blank2r.bmp	866	3	freundlich	866	1	!	1239	1	!	1319	0	0	0	0	0	0	0	0	0	0	0	0	0	0	0	0	0	0	0	0	0	0	0	0	0	0	0
121918	13:44:45	13:52:33	466647	5.0.10.0	4_exp_AWA_CON_AMP_EVA	33	Rpleas_acq	Same	Rpleas	Bmasked	CS_B	1pleas	distractor1	CONbeforeEVA	acq_US_pleas_masked	acq45_masked	4	29	400	0	300	300	0	0	492	46	0	0	0	0	0	1	blank2r.bmp	0	1	+	0	6	C2r.bmp	492	1	blank2r.bmp	786	1	BMVZ	786	1	blank2r.bmp	866	6	retten	866	1	!	1239	1	!	-1	0	0	0	0	0	0	0	0	0	0	0	0	0	0	0	0	0	0	0	0	0	0	0	0	0	0	0
121918	13:44:45	13:52:35	468846	5.0.10.0	4_exp_AWA_CON_AMP_EVA	33	Rpleas_acq	Same	Rpleas	Bmasked	CS_B	1pleas	distractor1	CONbeforeEVA	acq_US_pleas_masked	acq45_masked	4	30	400	1	300	300	0	0	396	50	0	1	0	0	0	1	blank2r.bmp	0	1	+	0	1	B1r.bmp	492	1	blank2r.bmp	786	1	BMVZ	786	1	blank2r.bmp	866	4	helfen	866	1	!	1239	1	!	1292	0	0	0	0	0	0	0	0	0	0	0	0	0	0	0	0	0	0	0	0	0	0	0	0	0	0	0
121918	13:44:45	13:52:37	471018	5.0.10.0	4_exp_AWA_CON_AMP_EVA	33	Rpleas_acq	Same	Rpleas	Bmasked	CS_B	1pleas	distractor1	CONbeforeEVA	acq_US_pleas_masked	acq45_masked	4	31	400	1	300	300	0	0	385	46	0	0	0	0	0	1	blank2r.bmp	0	1	+	0	2	B2r.bmp	492	1	blank2r.bmp	786	1	BMVZ	786	1	blank2r.bmp	866	1	tolerant	866	1	!	1239	1	!	1279	0	0	0	0	0	0	0	0	0	0	0	0	0	0	0	0	0	0	0	0	0	0	0	0	0	0	0
121918	13:44:45	13:52:42	475990	5.0.10.0	4_exp_AWA_CON_AMP_EVA	33	Rpleas_acq	Same	Rpleas	Bmasked	CS_B	1pleas	distractor1	CONbeforeEVA	acq_US_unple_masked	acq45_masked	4	32	400	0	300	300	0	0	3200	46	0	1	0	0	0	1	blank2r.bmp	0	1	+	0	8	C4r.bmp	492	1	blank2r.bmp	786	1	GKQX	786	1	blank2r.bmp	866	5	eitel	866	1	!	1239	1	!	-1	0	0	0	0	0	0	0	0	0	0	0	0	0	0	0	0	0	0	0	0	0	0	0	0	0	0	0
121918	13:44:45	13:52:44	478255	5.0.10.0	4_exp_AWA_CON_AMP_EVA	33	Rpleas_acq	Same	Rpleas	Bmasked	CS_B	1pleas	distractor1	CONbeforeEVA	acq_US_unple_masked	acq45_masked	4	33	400	0	300	300	0	0	479	46	0	1	0	0	0	1	blank2r.bmp	0	1	+	0	4	B4r.bmp	492	1	blank2r.bmp	786	1	GKQX	786	1	blank2r.bmp	866	3	fanatisch	866	1	!	1239	1	!	-1	0	0	0	0	0	0	0	0	0	0	0	0	0	0	0	0	0	0	0	0	0	0	0	0	0	0	0
121918	13:44:45	13:52:47	480521	5.0.10.0	4_exp_AWA_CON_AMP_EVA	33	Rpleas_acq	Same	Rpleas	Bmasked	CS_B	1pleas	distractor1	CONbeforeEVA	acq_US_pleas_masked	acq45_masked	4	34	400	0	300	300	0	0	479	50	0	1	0	0	0	1	blank2r.bmp	0	1	+	0	3	B3r.bmp	492	1	blank2r.bmp	786	1	BMVZ	786	1	blank2r.bmp	866	5	ehrlich	866	1	!	1239	1	!	-1	0	0	0	0	0	0	0	0	0	0	0	0	0	0	0	0	0	0	0	0	0	0	0	0	0	0	0
121918	13:44:45	13:52:49	482827	5.0.10.0	4_exp_AWA_CON_AMP_EVA	33	Rpleas_acq	Same	Rpleas	Bmasked	CS_B	1pleas	distractor1	CONbeforeEVA	acq_US_pleas_masked	acq45_masked	4	35	400	0	300	300	0	0	523	46	0	0	0	0	0	1	blank2r.bmp	0	1	+	0	5	C1r.bmp	492	1	blank2r.bmp	786	1	BMVZ	786	1	blank2r.bmp	866	2	lachen	866	1	!	1239	1	!	-1	0	0	0	0	0	0	0	0	0	0	0	0	0	0	0	0	0	0	0	0	0	0	0	0	0	0	0
121918	13:44:45	13:52:52	485772	5.0.10.0	4_exp_AWA_CON_AMP_EVA	33	Rpleas_acq	Same	Rpleas	Bmasked	CS_B	1pleas	distractor1	CONbeforeEVA	acq_US_unple_masked	acq45_masked	4	36	400	0	300	300	0	0	1171	46	0	1	0	0	0	1	blank2r.bmp	0	1	+	0	7	C3r.bmp	492	1	blank2r.bmp	786	1	GKQX	786	1	blank2r.bmp	866	6	rächen	866	1	!	1239	1	!	-1	0	0	0	0	0	0	0	0	0	0	0	0	0	0	0	0	0	0	0	0	0	0	0	0	0	0	0
121918	13:44:45	13:53:05	499007	5.0.10.0	4_exp_AWA_CON_AMP_EVA	33	Rpleas_acq	Same	Rpleas	Bmasked	CS_B	1pleas	distractor1	CONbeforeEVA	acq_US_pleas_masked	acq45_masked	5	1	400	0	300	300	0	0	290	50	0	1	0	0	0	1	blank2r.bmp	0	1	+	0	6	C2r.bmp	492	1	blank2r.bmp	786	1	BMVZ	786	1	blank2r.bmp	866	2	lachen	866	1	!	-1	1	!	-1	0	0	0	0	0	0	0	0	0	0	0	0	0	0	0	0	0	0	0	0	0	0	0	0	0	0	0
121918	13:44:45	13:53:07	501219	5.0.10.0	4_exp_AWA_CON_AMP_EVA	33	Rpleas_acq	Same	Rpleas	Bmasked	CS_B	1pleas	distractor1	CONbeforeEVA	acq_US_pleas_masked	acq45_masked	5	2	400	1	300	300	0	0	406	50	0	1	0	0	0	1	blank2r.bmp	0	1	+	0	3	B3r.bmp	492	1	blank2r.bmp	786	1	BMVZ	786	1	blank2r.bmp	866	4	helfen	866	1	!	1239	1	!	1306	0	0	0	0	0	0	0	0	0	0	0	0	0	0	0	0	0	0	0	0	0	0	0	0	0	0	0
121918	13:44:45	13:53:10	503525	5.0.10.0	4_exp_AWA_CON_AMP_EVA	33	Rpleas_acq	Same	Rpleas	Bmasked	CS_B	1pleas	distractor1	CONbeforeEVA	acq_US_pleas_masked	acq45_masked	5	3	400	0	300	300	0	0	535	50	0	1	0	0	0	1	blank2r.bmp	0	1	+	0	5	C1r.bmp	492	1	blank2r.bmp	786	1	BMVZ	786	1	blank2r.bmp	866	3	freundlich	866	1	!	1239	1	!	-1	0	0	0	0	0	0	0	0	0	0	0	0	0	0	0	0	0	0	0	0	0	0	0	0	0	0	0
121918	13:44:45	13:53:12	505844	5.0.10.0	4_exp_AWA_CON_AMP_EVA	33	Rpleas_acq	Same	Rpleas	Bmasked	CS_B	1pleas	distractor1	CONbeforeEVA	acq_US_unple_masked	acq45_masked	5	4	400	0	300	300	0	0	535	46	0	1	0	0	0	1	blank2r.bmp	0	1	+	0	4	B4r.bmp	492	1	blank2r.bmp	786	1	GKQX	786	1	blank2r.bmp	866	4	hindern	866	1	!	1239	1	!	-1	0	0	0	0	0	0	0	0	0	0	0	0	0	0	0	0	0	0	0	0	0	0	0	0	0	0	0
121918	13:44:45	13:53:14	508123	5.0.10.0	4_exp_AWA_CON_AMP_EVA	33	Rpleas_acq	Same	Rpleas	Bmasked	CS_B	1pleas	distractor1	CONbeforeEVA	acq_US_pleas_masked	acq45_masked	5	5	400	0	300	300	0	0	503	50	0	1	0	0	0	1	blank2r.bmp	0	1	+	0	2	B2r.bmp	492	1	blank2r.bmp	786	1	BMVZ	786	1	blank2r.bmp	866	5	ehrlich	866	1	!	1239	1	!	-1	0	0	0	0	0	0	0	0	0	0	0	0	0	0	0	0	0	0	0	0	0	0	0	0	0	0	0
121918	13:44:45	13:53:16	510202	5.0.10.0	4_exp_AWA_CON_AMP_EVA	33	Rpleas_acq	Same	Rpleas	Bmasked	CS_B	1pleas	distractor1	CONbeforeEVA	acq_US_unple_masked	acq45_masked	5	6	400	0	300	300	0	0	301	46	0	1	0	0	0	1	blank2r.bmp	0	1	+	0	1	B1r.bmp	492	1	blank2r.bmp	786	1	GKQX	786	1	blank2r.bmp	866	5	eitel	866	1	!	-1	1	!	-1	0	0	0	0	0	0	0	0	0	0	0	0	0	0	0	0	0	0	0	0	0	0	0	0	0	0	0
121918	13:44:45	13:53:19	512441	5.0.10.0	4_exp_AWA_CON_AMP_EVA	33	Rpleas_acq	Same	Rpleas	Bmasked	CS_B	1pleas	distractor1	CONbeforeEVA	acq_US_unple_masked	acq45_masked	5	7	400	1	300	300	0	0	431	46	0	1	0	0	0	1	blank2r.bmp	0	1	+	0	8	C4r.bmp	492	1	blank2r.bmp	786	1	GKQX	786	1	blank2r.bmp	866	1	tyrannisch	866	1	!	1239	1	!	1332	0	0	0	0	0	0	0	0	0	0	0	0	0	0	0	0	0	0	0	0	0	0	0	0	0	0	0
121918	13:44:45	13:53:21	514694	5.0.10.0	4_exp_AWA_CON_AMP_EVA	33	Rpleas_acq	Same	Rpleas	Bmasked	CS_B	1pleas	distractor1	CONbeforeEVA	acq_US_unple_masked	acq45_masked	5	8	400	0	300	300	0	0	479	46	0	1	0	0	0	1	blank2r.bmp	0	1	+	0	7	C3r.bmp	492	1	blank2r.bmp	786	1	GKQX	786	1	blank2r.bmp	866	6	rächen	866	1	!	1239	1	!	-1	0	0	0	0	0	0	0	0	0	0	0	0	0	0	0	0	0	0	0	0	0	0	0	0	0	0	0
121918	13:44:45	13:53:23	516879	5.0.10.0	4_exp_AWA_CON_AMP_EVA	33	Rpleas_acq	Same	Rpleas	Bmasked	CS_B	1pleas	distractor1	CONbeforeEVA	acq_US_unple_masked	acq45_masked	5	9	400	1	300	300	0	0	374	50	0	0	0	0	0	1	blank2r.bmp	0	1	+	0	6	C2r.bmp	492	1	blank2r.bmp	786	1	GKQX	786	1	blank2r.bmp	866	3	fanatisch	866	1	!	1239	1	!	1279	0	0	0	0	0	0	0	0	0	0	0	0	0	0	0	0	0	0	0	0	0	0	0	0	0	0	0
121918	13:44:45	13:53:25	519158	5.0.10.0	4_exp_AWA_CON_AMP_EVA	33	Rpleas_acq	Same	Rpleas	Bmasked	CS_B	1pleas	distractor1	CONbeforeEVA	acq_US_pleas_masked	acq45_masked	5	10	400	0	300	300	0	0	501	50	0	1	0	0	0	1	blank2r.bmp	0	1	+	0	1	B1r.bmp	492	1	blank2r.bmp	786	1	BMVZ	786	1	blank2r.bmp	866	1	tolerant	866	1	!	1239	1	!	-1	0	0	0	0	0	0	0	0	0	0	0	0	0	0	0	0	0	0	0	0	0	0	0	0	0	0	0
121918	13:44:45	13:53:28	521411	5.0.10.0	4_exp_AWA_CON_AMP_EVA	33	Rpleas_acq	Same	Rpleas	Bmasked	CS_B	1pleas	distractor1	CONbeforeEVA	acq_US_unple_masked	acq45_masked	5	11	400	1	300	300	0	0	442	46	0	1	0	0	0	1	blank2r.bmp	0	1	+	0	3	B3r.bmp	492	1	blank2r.bmp	786	1	GKQX	786	1	blank2r.bmp	866	2	leiden	866	1	!	1239	1	!	1346	0	0	0	0	0	0	0	0	0	0	0	0	0	0	0	0	0	0	0	0	0	0	0	0	0	0	0
121918	13:44:45	13:53:30	523623	5.0.10.0	4_exp_AWA_CON_AMP_EVA	33	Rpleas_acq	Same	Rpleas	Bmasked	CS_B	1pleas	distractor1	CONbeforeEVA	acq_US_pleas_masked	acq45_masked	5	12	400	1	300	300	0	0	414	50	0	1	0	0	0	1	blank2r.bmp	0	1	+	0	8	C4r.bmp	492	1	blank2r.bmp	786	1	BMVZ	786	1	blank2r.bmp	866	6	retten	866	1	!	1239	1	!	1319	0	0	0	0	0	0	0	0	0	0	0	0	0	0	0	0	0	0	0	0	0	0	0	0	0	0	0
121918	13:44:45	13:53:32	525849	5.0.10.0	4_exp_AWA_CON_AMP_EVA	33	Rpleas_acq	Same	Rpleas	Bmasked	CS_B	1pleas	distractor1	CONbeforeEVA	acq_US_unple_masked	acq45_masked	5	13	400	1	300	300	0	0	429	46	0	1	0	0	0	1	blank2r.bmp	0	1	+	0	5	C1r.bmp	492	1	blank2r.bmp	786	1	GKQX	786	1	blank2r.bmp	866	4	hindern	866	1	!	1239	1	!	1332	0	0	0	0	0	0	0	0	0	0	0	0	0	0	0	0	0	0	0	0	0	0	0	0	0	0	0
121918	13:44:45	13:53:34	528048	5.0.10.0	4_exp_AWA_CON_AMP_EVA	33	Rpleas_acq	Same	Rpleas	Bmasked	CS_B	1pleas	distractor1	CONbeforeEVA	acq_US_pleas_masked	acq45_masked	5	14	400	1	300	300	0	0	394	50	0	1	0	0	0	1	blank2r.bmp	0	1	+	0	4	B4r.bmp	492	1	blank2r.bmp	786	1	BMVZ	786	1	blank2r.bmp	866	4	helfen	866	1	!	1239	1	!	1292	0	0	0	0	0	0	0	0	0	0	0	0	0	0	0	0	0	0	0	0	0	0	0	0	0	0	0
121918	13:44:45	13:53:36	530367	5.0.10.0	4_exp_AWA_CON_AMP_EVA	33	Rpleas_acq	Same	Rpleas	Bmasked	CS_B	1pleas	distractor1	CONbeforeEVA	acq_US_unple_masked	acq45_masked	5	15	400	0	300	300	0	0	536	46	0	1	0	0	0	1	blank2r.bmp	0	1	+	0	2	B2r.bmp	492	1	blank2r.bmp	786	1	GKQX	786	1	blank2r.bmp	866	1	tyrannisch	866	1	!	1239	1	!	-1	0	0	0	0	0	0	0	0	0	0	0	0	0	0	0	0	0	0	0	0	0	0	0	0	0	0	0
121918	13:44:45	13:53:39	532700	5.0.10.0	4_exp_AWA_CON_AMP_EVA	33	Rpleas_acq	Same	Rpleas	Bmasked	CS_B	1pleas	distractor1	CONbeforeEVA	acq_US_unple_masked	acq45_masked	5	16	400	0	300	300	0	0	557	46	0	1	0	0	0	1	blank2r.bmp	0	1	+	0	7	C3r.bmp	492	1	blank2r.bmp	786	1	GKQX	786	1	blank2r.bmp	866	5	eitel	866	1	!	1239	1	!	-1	0	0	0	0	0	0	0	0	0	0	0	0	0	0	0	0	0	0	0	0	0	0	0	0	0	0	0
121918	13:44:45	13:53:41	534819	5.0.10.0	4_exp_AWA_CON_AMP_EVA	33	Rpleas_acq	Same	Rpleas	Bmasked	CS_B	1pleas	distractor1	CONbeforeEVA	acq_US_pleas_masked	acq45_masked	5	17	400	0	300	300	0	0	331	50	0	1	0	0	0	1	blank2r.bmp	0	1	+	0	1	B1r.bmp	492	1	blank2r.bmp	786	1	BMVZ	786	1	blank2r.bmp	866	3	freundlich	866	1	!	-1	1	!	-1	0	0	0	0	0	0	0	0	0	0	0	0	0	0	0	0	0	0	0	0	0	0	0	0	0	0	0
121918	13:44:45	13:53:43	536898	5.0.10.0	4_exp_AWA_CON_AMP_EVA	33	Rpleas_acq	Same	Rpleas	Bmasked	CS_B	1pleas	distractor1	CONbeforeEVA	acq_US_pleas_masked	acq45_masked	5	18	400	0	300	300	0	0	292	46	0	0	0	0	0	1	blank2r.bmp	0	1	+	0	4	B4r.bmp	492	1	blank2r.bmp	786	1	BMVZ	786	1	blank2r.bmp	866	6	retten	866	1	!	-1	1	!	-1	0	0	0	0	0	0	0	0	0	0	0	0	0	0	0	0	0	0	0	0	0	0	0	0	0	0	0
121918	13:44:45	13:53:45	539070	5.0.10.0	4_exp_AWA_CON_AMP_EVA	33	Rpleas_acq	Same	Rpleas	Bmasked	CS_B	1pleas	distractor1	CONbeforeEVA	acq_US_pleas_masked	acq45_masked	5	19	400	1	300	300	0	0	346	50	0	1	0	0	0	1	blank2r.bmp	0	1	+	0	8	C4r.bmp	492	1	blank2r.bmp	786	1	BMVZ	786	1	blank2r.bmp	866	2	lachen	866	1	!	1239	1	!	1252	0	0	0	0	0	0	0	0	0	0	0	0	0	0	0	0	0	0	0	0	0	0	0	0	0	0	0
121918	13:44:45	13:53:47	541296	5.0.10.0	4_exp_AWA_CON_AMP_EVA	33	Rpleas_acq	Same	Rpleas	Bmasked	CS_B	1pleas	distractor1	CONbeforeEVA	acq_US_unple_masked	acq45_masked	5	20	400	1	300	300	0	0	435	46	0	1	0	0	0	1	blank2r.bmp	0	1	+	0	3	B3r.bmp	492	1	blank2r.bmp	786	1	GKQX	786	1	blank2r.bmp	866	3	fanatisch	866	1	!	1239	1	!	1332	0	0	0	0	0	0	0	0	0	0	0	0	0	0	0	0	0	0	0	0	0	0	0	0	0	0	0
121918	13:44:45	13:53:50	543575	5.0.10.0	4_exp_AWA_CON_AMP_EVA	33	Rpleas_acq	Same	Rpleas	Bmasked	CS_B	1pleas	distractor1	CONbeforeEVA	acq_US_pleas_masked	acq45_masked	5	21	400	0	300	300	0	0	518	50	0	1	0	0	0	1	blank2r.bmp	0	1	+	0	5	C1r.bmp	492	1	blank2r.bmp	786	1	BMVZ	786	1	blank2r.bmp	866	1	tolerant	866	1	!	1239	1	!	-1	0	0	0	0	0	0	0	0	0	0	0	0	0	0	0	0	0	0	0	0	0	0	0	0	0	0	0
121918	13:44:45	13:53:52	545747	5.0.10.0	4_exp_AWA_CON_AMP_EVA	33	Rpleas_acq	Same	Rpleas	Bmasked	CS_B	1pleas	distractor1	CONbeforeEVA	acq_US_unple_masked	acq45_masked	5	22	400	1	300	300	0	0	369	46	0	1	0	0	0	1	blank2r.bmp	0	1	+	0	7	C3r.bmp	492	1	blank2r.bmp	786	1	GKQX	786	1	blank2r.bmp	866	6	rächen	866	1	!	1239	1	!	1266	0	0	0	0	0	0	0	0	0	0	0	0	0	0	0	0	0	0	0	0	0	0	0	0	0	0	0
121918	13:44:45	13:53:54	547893	5.0.10.0	4_exp_AWA_CON_AMP_EVA	33	Rpleas_acq	Same	Rpleas	Bmasked	CS_B	1pleas	distractor1	CONbeforeEVA	acq_US_pleas_masked	acq45_masked	5	23	400	1	300	300	0	0	346	50	0	1	0	0	0	1	blank2r.bmp	0	1	+	0	2	B2r.bmp	492	1	blank2r.bmp	786	1	BMVZ	786	1	blank2r.bmp	866	5	ehrlich	866	1	!	1239	1	!	1252	0	0	0	0	0	0	0	0	0	0	0	0	0	0	0	0	0	0	0	0	0	0	0	0	0	0	0
121918	13:44:45	13:53:56	550092	5.0.10.0	4_exp_AWA_CON_AMP_EVA	33	Rpleas_acq	Same	Rpleas	Bmasked	CS_B	1pleas	distractor1	CONbeforeEVA	acq_US_unple_masked	acq45_masked	5	24	400	1	300	300	0	0	385	46	0	1	0	0	0	1	blank2r.bmp	0	1	+	0	6	C2r.bmp	492	1	blank2r.bmp	786	1	GKQX	786	1	blank2r.bmp	866	2	leiden	866	1	!	1239	1	!	1292	0	0	0	0	0	0	0	0	0	0	0	0	0	0	0	0	0	0	0	0	0	0	0	0	0	0	0
121918	13:44:45	13:53:59	552438	5.0.10.0	4_exp_AWA_CON_AMP_EVA	33	Rpleas_acq	Same	Rpleas	Bmasked	CS_B	1pleas	distractor1	CONbeforeEVA	acq_US_pleas_masked	acq45_masked	5	25	400	0	300	300	0	0	570	50	0	1	0	0	0	1	blank2r.bmp	0	1	+	0	4	B4r.bmp	492	1	blank2r.bmp	786	1	BMVZ	786	1	blank2r.bmp	866	4	helfen	866	1	!	1239	1	!	-1	0	0	0	0	0	0	0	0	0	0	0	0	0	0	0	0	0	0	0	0	0	0	0	0	0	0	0
121918	13:44:45	13:54:01	554610	5.0.10.0	4_exp_AWA_CON_AMP_EVA	33	Rpleas_acq	Same	Rpleas	Bmasked	CS_B	1pleas	distractor1	CONbeforeEVA	acq_US_pleas_masked	acq45_masked	5	26	400	1	300	300	0	0	372	50	0	1	0	0	0	1	blank2r.bmp	0	1	+	0	5	C1r.bmp	492	1	blank2r.bmp	786	1	BMVZ	786	1	blank2r.bmp	866	3	freundlich	866	1	!	1239	1	!	1266	0	0	0	0	0	0	0	0	0	0	0	0	0	0	0	0	0	0	0	0	0	0	0	0	0	0	0
121918	13:44:45	13:54:03	556783	5.0.10.0	4_exp_AWA_CON_AMP_EVA	33	Rpleas_acq	Same	Rpleas	Bmasked	CS_B	1pleas	distractor1	CONbeforeEVA	acq_US_pleas_masked	acq45_masked	5	27	400	1	300	300	0	0	383	50	0	1	0	0	0	1	blank2r.bmp	0	1	+	0	2	B2r.bmp	492	1	blank2r.bmp	786	1	BMVZ	786	1	blank2r.bmp	866	5	ehrlich	866	1	!	1239	1	!	1279	0	0	0	0	0	0	0	0	0	0	0	0	0	0	0	0	0	0	0	0	0	0	0	0	0	0	0
121918	13:44:45	13:54:05	558875	5.0.10.0	4_exp_AWA_CON_AMP_EVA	33	Rpleas_acq	Same	Rpleas	Bmasked	CS_B	1pleas	distractor1	CONbeforeEVA	acq_US_unple_masked	acq45_masked	5	28	400	0	300	300	0	0	324	46	0	1	0	0	0	1	blank2r.bmp	0	1	+	0	1	B1r.bmp	492	1	blank2r.bmp	786	1	GKQX	786	1	blank2r.bmp	866	1	tyrannisch	866	1	!	-1	1	!	-1	0	0	0	0	0	0	0	0	0	0	0	0	0	0	0	0	0	0	0	0	0	0	0	0	0	0	0
121918	13:44:45	13:54:07	561061	5.0.10.0	4_exp_AWA_CON_AMP_EVA	33	Rpleas_acq	Same	Rpleas	Bmasked	CS_B	1pleas	distractor1	CONbeforeEVA	acq_US_unple_masked	acq45_masked	5	29	400	1	300	300	0	0	383	50	0	0	0	0	0	1	blank2r.bmp	0	1	+	0	3	B3r.bmp	492	1	blank2r.bmp	786	1	GKQX	786	1	blank2r.bmp	866	4	hindern	866	1	!	1239	1	!	1279	0	0	0	0	0	0	0	0	0	0	0	0	0	0	0	0	0	0	0	0	0	0	0	0	0	0	0
121918	13:44:45	13:54:09	563314	5.0.10.0	4_exp_AWA_CON_AMP_EVA	33	Rpleas_acq	Same	Rpleas	Bmasked	CS_B	1pleas	distractor1	CONbeforeEVA	acq_US_unple_masked	acq45_masked	5	30	400	0	300	300	0	0	485	46	0	1	0	0	0	1	blank2r.bmp	0	1	+	0	7	C3r.bmp	492	1	blank2r.bmp	786	1	GKQX	786	1	blank2r.bmp	866	3	fanatisch	866	1	!	1239	1	!	-1	0	0	0	0	0	0	0	0	0	0	0	0	0	0	0	0	0	0	0	0	0	0	0	0	0	0	0
121918	13:44:45	13:54:12	565579	5.0.10.0	4_exp_AWA_CON_AMP_EVA	33	Rpleas_acq	Same	Rpleas	Bmasked	CS_B	1pleas	distractor1	CONbeforeEVA	acq_US_pleas_masked	acq45_masked	5	31	400	1	300	300	0	0	457	50	0	1	0	0	0	1	blank2r.bmp	0	1	+	0	8	C4r.bmp	492	1	blank2r.bmp	786	1	BMVZ	786	1	blank2r.bmp	866	6	retten	866	1	!	1239	1	!	1359	0	0	0	0	0	0	0	0	0	0	0	0	0	0	0	0	0	0	0	0	0	0	0	0	0	0	0
121918	13:44:45	13:54:14	567725	5.0.10.0	4_exp_AWA_CON_AMP_EVA	33	Rpleas_acq	Same	Rpleas	Bmasked	CS_B	1pleas	distractor1	CONbeforeEVA	acq_US_unple_masked	acq45_masked	5	32	400	1	300	300	0	0	353	46	0	1	0	0	0	1	blank2r.bmp	0	1	+	0	6	C2r.bmp	492	1	blank2r.bmp	786	1	GKQX	786	1	blank2r.bmp	866	2	leiden	866	1	!	1239	1	!	1252	0	0	0	0	0	0	0	0	0	0	0	0	0	0	0	0	0	0	0	0	0	0	0	0	0	0	0
121918	13:44:45	13:54:16	569937	5.0.10.0	4_exp_AWA_CON_AMP_EVA	33	Rpleas_acq	Same	Rpleas	Bmasked	CS_B	1pleas	distractor1	CONbeforeEVA	acq_US_pleas_masked	acq45_masked	5	33	400	1	300	300	0	0	416	46	0	0	0	0	0	1	blank2r.bmp	0	1	+	0	1	B1r.bmp	492	1	blank2r.bmp	786	1	BMVZ	786	1	blank2r.bmp	866	1	tolerant	866	1	!	1239	1	!	1319	0	0	0	0	0	0	0	0	0	0	0	0	0	0	0	0	0	0	0	0	0	0	0	0	0	0	0
121918	13:44:45	13:54:18	572163	5.0.10.0	4_exp_AWA_CON_AMP_EVA	33	Rpleas_acq	Same	Rpleas	Bmasked	CS_B	1pleas	distractor1	CONbeforeEVA	acq_US_unple_masked	acq45_masked	5	34	400	1	300	300	0	0	436	50	0	0	0	0	0	1	blank2r.bmp	0	1	+	0	2	B2r.bmp	492	1	blank2r.bmp	786	1	GKQX	786	1	blank2r.bmp	866	5	eitel	866	1	!	1239	1	!	1332	0	0	0	0	0	0	0	0	0	0	0	0	0	0	0	0	0	0	0	0	0	0	0	0	0	0	0
121918	13:44:45	13:54:20	574349	5.0.10.0	4_exp_AWA_CON_AMP_EVA	33	Rpleas_acq	Same	Rpleas	Bmasked	CS_B	1pleas	distractor1	CONbeforeEVA	acq_US_unple_masked	acq45_masked	5	35	400	1	300	300	0	0	388	50	0	0	0	0	0	1	blank2r.bmp	0	1	+	0	5	C1r.bmp	492	1	blank2r.bmp	786	1	GKQX	786	1	blank2r.bmp	866	6	rächen	866	1	!	1239	1	!	1292	0	0	0	0	0	0	0	0	0	0	0	0	0	0	0	0	0	0	0	0	0	0	0	0	0	0	0
121918	13:44:45	13:54:23	576548	5.0.10.0	4_exp_AWA_CON_AMP_EVA	33	Rpleas_acq	Same	Rpleas	Bmasked	CS_B	1pleas	distractor1	CONbeforeEVA	acq_US_pleas_masked	acq45_masked	5	36	400	1	300	300	0	0	395	50	0	1	0	0	0	1	blank2r.bmp	0	1	+	0	4	B4r.bmp	492	1	blank2r.bmp	786	1	BMVZ	786	1	blank2r.bmp	866	2	lachen	866	1	!	1239	1	!	1292	0	0	0	0	0	0	0	0	0	0	0	0	0	0	0	0	0	0	0	0	0	0	0	0	0	0	0
121918	13:44:45	13:55:38	651877	5.0.10.0	4_exp_AWA_CON_AMP_EVA	33	Rpleas_acq	Same	Rpleas	Bmasked	CS_B	1pleas	distractor1	CONbeforeEVA	cond_new_pleas_456_masked_CS2	condtest_masked_1	8	1	400	1	300	300	0	0	442	46	0	0	0	0	0	1	blank2r.bmp	0	1	+	0	8	C4r.bmp	492	1	blank2r.bmp	786	1	GKQX	786	1	blank2r.bmp	866	1	schlau	866	1	!	1239	1	!	1346	0	0	0	0	0	0	0	0	0	0	0	0	0	0	0	0	0	0	0	0	0	0	0	0	0	0	0
121918	13:44:45	13:55:40	654049	5.0.10.0	4_exp_AWA_CON_AMP_EVA	33	Rpleas_acq	Same	Rpleas	Bmasked	CS_B	1pleas	distractor1	CONbeforeEVA	cond_US_unple_123_masked_CS2	condtest_masked_1	8	2	400	1	300	300	0	0	377	46	0	1	0	0	0	1	blank2r.bmp	0	1	+	0	7	C3r.bmp	492	1	blank2r.bmp	786	1	GKQX	786	1	blank2r.bmp	866	1	tyrannisch	866	1	!	1239	1	!	1279	0	0	0	0	0	0	0	0	0	0	0	0	0	0	0	0	0	0	0	0	0	0	0	0	0	0	0
121918	13:44:45	13:55:42	656222	5.0.10.0	4_exp_AWA_CON_AMP_EVA	33	Rpleas_acq	Same	Rpleas	Bmasked	CS_B	1pleas	distractor1	CONbeforeEVA	cond_US_pleas_123_masked_CS2	condtest_masked_1	8	3	400	1	300	300	0	0	372	50	0	1	0	0	0	1	blank2r.bmp	0	1	+	0	3	B3r.bmp	492	1	blank2r.bmp	786	1	GKQX	786	1	blank2r.bmp	866	3	freundlich	866	1	!	1239	1	!	1266	0	0	0	0	0	0	0	0	0	0	0	0	0	0	0	0	0	0	0	0	0	0	0	0	0	0	0
121918	13:44:45	13:55:44	658261	5.0.10.0	4_exp_AWA_CON_AMP_EVA	33	Rpleas_acq	Same	Rpleas	Bmasked	CS_B	1pleas	distractor1	CONbeforeEVA	cond_US_unple_123_masked_CS1	condtest_masked_1	8	4	400	0	300	300	0	0	266	46	0	1	0	0	0	1	blank2r.bmp	0	1	+	0	6	C2r.bmp	492	1	blank2r.bmp	786	1	BMVZ	786	1	blank2r.bmp	866	2	leiden	866	1	!	-1	1	!	-1	0	0	0	0	0	0	0	0	0	0	0	0	0	0	0	0	0	0	0	0	0	0	0	0	0	0	0
121918	13:44:45	13:55:47	660487	5.0.10.0	4_exp_AWA_CON_AMP_EVA	33	Rpleas_acq	Same	Rpleas	Bmasked	CS_B	1pleas	distractor1	CONbeforeEVA	cond_new_pleas_456_masked_CS1	condtest_masked_1	8	5	400	1	300	300	0	0	421	50	0	1	0	0	0	1	blank2r.bmp	0	1	+	0	8	C4r.bmp	492	1	blank2r.bmp	786	1	BMVZ	786	1	blank2r.bmp	866	3	treu	866	1	!	1239	1	!	1319	0	0	0	0	0	0	0	0	0	0	0	0	0	0	0	0	0	0	0	0	0	0	0	0	0	0	0
121918	13:44:45	13:55:49	662726	5.0.10.0	4_exp_AWA_CON_AMP_EVA	33	Rpleas_acq	Same	Rpleas	Bmasked	CS_B	1pleas	distractor1	CONbeforeEVA	cond_new_unple_456_masked_CS1	condtest_masked_1	8	6	400	1	300	300	0	0	441	50	0	0	0	0	0	1	blank2r.bmp	0	1	+	0	2	B2r.bmp	492	1	blank2r.bmp	786	1	BMVZ	786	1	blank2r.bmp	866	3	tot	866	1	!	1239	1	!	1346	0	0	0	0	0	0	0	0	0	0	0	0	0	0	0	0	0	0	0	0	0	0	0	0	0	0	0
121918	13:44:45	13:55:51	664952	5.0.10.0	4_exp_AWA_CON_AMP_EVA	33	Rpleas_acq	Same	Rpleas	Bmasked	CS_B	1pleas	distractor1	CONbeforeEVA	cond_new_unple_456_masked_CS2	condtest_masked_1	8	7	400	1	300	300	0	0	438	46	0	1	0	0	0	1	blank2r.bmp	0	1	+	0	3	B3r.bmp	492	1	blank2r.bmp	786	1	GKQX	786	1	blank2r.bmp	866	1	schroff	866	1	!	1239	1	!	1332	0	0	0	0	0	0	0	0	0	0	0	0	0	0	0	0	0	0	0	0	0	0	0	0	0	0	0
121918	13:44:45	13:55:53	667311	5.0.10.0	4_exp_AWA_CON_AMP_EVA	33	Rpleas_acq	Same	Rpleas	Bmasked	CS_B	1pleas	distractor1	CONbeforeEVA	cond_US_pleas_123_masked_CS1	condtest_masked_1	8	8	400	0	300	300	0	0	586	50	0	1	0	0	0	1	blank2r.bmp	0	1	+	0	5	C1r.bmp	492	1	blank2r.bmp	786	1	BMVZ	786	1	blank2r.bmp	866	1	tolerant	866	1	!	1239	1	!	-1	0	0	0	0	0	0	0	0	0	0	0	0	0	0	0	0	0	0	0	0	0	0	0	0	0	0	0
121918	13:44:45	13:56:04	677906	5.0.10.0	4_exp_AWA_CON_AMP_EVA	33	Rpleas_acq	Same	Rpleas	Bmasked	CS_B	1pleas	distractor1	CONbeforeEVA	cond_new_pleas_456_masked_CS1	condtest_masked_2	9	1	400	0	300	300	0	0	479	46	0	0	0	0	0	1	blank2r.bmp	0	1	+	0	1	B1r.bmp	492	1	blank2r.bmp	786	1	BMVZ	786	1	blank2r.bmp	866	2	loyal	866	1	!	1239	1	!	-1	0	0	0	0	0	0	0	0	0	0	0	0	0	0	0	0	0	0	0	0	0	0	0	0	0	0	0
121918	13:44:45	13:56:06	680119	5.0.10.0	4_exp_AWA_CON_AMP_EVA	33	Rpleas_acq	Same	Rpleas	Bmasked	CS_B	1pleas	distractor1	CONbeforeEVA	cond_US_pleas_123_masked_CS2	condtest_masked_2	9	2	400	1	300	300	0	0	408	46	0	0	0	0	0	1	blank2r.bmp	0	1	+	0	7	C3r.bmp	492	1	blank2r.bmp	786	1	GKQX	786	1	blank2r.bmp	866	2	lachen	866	1	!	1239	1	!	1306	0	0	0	0	0	0	0	0	0	0	0	0	0	0	0	0	0	0	0	0	0	0	0	0	0	0	0
121918	13:44:45	13:56:08	682304	5.0.10.0	4_exp_AWA_CON_AMP_EVA	33	Rpleas_acq	Same	Rpleas	Bmasked	CS_B	1pleas	distractor1	CONbeforeEVA	cond_new_unple_456_masked_CS1	condtest_masked_2	9	3	400	1	300	300	0	0	392	46	0	1	0	0	0	1	blank2r.bmp	0	1	+	0	6	C2r.bmp	492	1	blank2r.bmp	786	1	BMVZ	786	1	blank2r.bmp	866	2	lasch	866	1	!	1239	1	!	1292	0	0	0	0	0	0	0	0	0	0	0	0	0	0	0	0	0	0	0	0	0	0	0	0	0	0	0
121918	13:44:45	13:56:11	684530	5.0.10.0	4_exp_AWA_CON_AMP_EVA	33	Rpleas_acq	Same	Rpleas	Bmasked	CS_B	1pleas	distractor1	CONbeforeEVA	cond_US_pleas_123_masked_CS1	condtest_masked_2	9	4	400	1	300	300	0	0	427	50	0	1	0	0	0	1	blank2r.bmp	0	1	+	0	4	B4r.bmp	492	1	blank2r.bmp	786	1	BMVZ	786	1	blank2r.bmp	866	2	lachen	866	1	!	1239	1	!	1332	0	0	0	0	0	0	0	0	0	0	0	0	0	0	0	0	0	0	0	0	0	0	0	0	0	0	0
121918	13:44:45	13:56:13	686703	5.0.10.0	4_exp_AWA_CON_AMP_EVA	33	Rpleas_acq	Same	Rpleas	Bmasked	CS_B	1pleas	distractor1	CONbeforeEVA	cond_new_pleas_456_masked_CS1	condtest_masked_2	9	5	400	1	300	300	0	0	360	46	0	0	0	0	0	1	blank2r.bmp	0	1	+	0	8	C4r.bmp	492	1	blank2r.bmp	786	1	BMVZ	786	1	blank2r.bmp	866	3	treu	866	1	!	1239	1	!	1266	0	0	0	0	0	0	0	0	0	0	0	0	0	0	0	0	0	0	0	0	0	0	0	0	0	0	0
121918	13:44:45	13:56:15	689008	5.0.10.0	4_exp_AWA_CON_AMP_EVA	33	Rpleas_acq	Same	Rpleas	Bmasked	CS_B	1pleas	distractor1	CONbeforeEVA	cond_new_unple_456_masked_CS1	condtest_masked_2	9	6	400	0	300	300	0	0	533	50	0	0	0	0	0	1	blank2r.bmp	0	1	+	0	5	C1r.bmp	492	1	blank2r.bmp	786	1	BMVZ	786	1	blank2r.bmp	866	2	lasch	866	1	!	1239	1	!	-1	0	0	0	0	0	0	0	0	0	0	0	0	0	0	0	0	0	0	0	0	0	0	0	0	0	0	0
121918	13:44:45	13:56:17	691221	5.0.10.0	4_exp_AWA_CON_AMP_EVA	33	Rpleas_acq	Same	Rpleas	Bmasked	CS_B	1pleas	distractor1	CONbeforeEVA	cond_new_pleas_456_masked_CS1	condtest_masked_2	9	7	400	1	300	300	0	0	403	50	0	1	0	0	0	1	blank2r.bmp	0	1	+	0	2	B2r.bmp	492	1	blank2r.bmp	786	1	BMVZ	786	1	blank2r.bmp	866	2	loyal	866	1	!	1239	1	!	1306	0	0	0	0	0	0	0	0	0	0	0	0	0	0	0	0	0	0	0	0	0	0	0	0	0	0	0
121918	13:44:45	13:56:20	693473	5.0.10.0	4_exp_AWA_CON_AMP_EVA	33	Rpleas_acq	Same	Rpleas	Bmasked	CS_B	1pleas	distractor1	CONbeforeEVA	cond_US_unple_123_masked_CS2	condtest_masked_2	9	8	400	1	300	300	0	0	459	46	0	1	0	0	0	1	blank2r.bmp	0	1	+	0	7	C3r.bmp	492	1	blank2r.bmp	786	1	GKQX	786	1	blank2r.bmp	866	3	fanatisch	866	1	!	1239	1	!	1359	0	0	0	0	0	0	0	0	0	0	0	0	0	0	0	0	0	0	0	0	0	0	0	0	0	0	0
121918	13:44:45	13:56:22	695659	5.0.10.0	4_exp_AWA_CON_AMP_EVA	33	Rpleas_acq	Same	Rpleas	Bmasked	CS_B	1pleas	distractor1	CONbeforeEVA	cond_US_unple_123_masked_CS1	condtest_masked_2	9	9	400	1	300	300	0	0	396	46	0	1	0	0	0	1	blank2r.bmp	0	1	+	0	1	B1r.bmp	492	1	blank2r.bmp	786	1	BMVZ	786	1	blank2r.bmp	866	3	fanatisch	866	1	!	1239	1	!	1292	0	0	0	0	0	0	0	0	0	0	0	0	0	0	0	0	0	0	0	0	0	0	0	0	0	0	0
121918	13:44:45	13:56:24	697871	5.0.10.0	4_exp_AWA_CON_AMP_EVA	33	Rpleas_acq	Same	Rpleas	Bmasked	CS_B	1pleas	distractor1	CONbeforeEVA	cond_US_pleas_123_masked_CS1	condtest_masked_2	9	10	400	1	300	300	0	0	423	50	0	1	0	0	0	1	blank2r.bmp	0	1	+	0	3	B3r.bmp	492	1	blank2r.bmp	786	1	BMVZ	786	1	blank2r.bmp	866	1	tolerant	866	1	!	1239	1	!	1319	0	0	0	0	0	0	0	0	0	0	0	0	0	0	0	0	0	0	0	0	0	0	0	0	0	0	0
121918	13:44:45	13:56:26	700124	5.0.10.0	4_exp_AWA_CON_AMP_EVA	33	Rpleas_acq	Same	Rpleas	Bmasked	CS_B	1pleas	distractor1	CONbeforeEVA	cond_US_pleas_123_masked_CS2	condtest_masked_2	9	11	400	1	300	300	0	0	455	50	0	1	0	0	0	1	blank2r.bmp	0	1	+	0	4	B4r.bmp	492	1	blank2r.bmp	786	1	GKQX	786	1	blank2r.bmp	866	3	freundlich	866	1	!	1239	1	!	1359	0	0	0	0	0	0	0	0	0	0	0	0	0	0	0	0	0	0	0	0	0	0	0	0	0	0	0
121918	13:44:45	13:56:28	702336	5.0.10.0	4_exp_AWA_CON_AMP_EVA	33	Rpleas_acq	Same	Rpleas	Bmasked	CS_B	1pleas	distractor1	CONbeforeEVA	cond_US_pleas_123_masked_CS2	condtest_masked_2	9	12	400	1	300	300	0	0	413	50	0	1	0	0	0	1	blank2r.bmp	0	1	+	0	6	C2r.bmp	492	1	blank2r.bmp	786	1	GKQX	786	1	blank2r.bmp	866	3	freundlich	866	1	!	1239	1	!	1319	0	0	0	0	0	0	0	0	0	0	0	0	0	0	0	0	0	0	0	0	0	0	0	0	0	0	0
121918	13:44:45	13:56:31	704629	5.0.10.0	4_exp_AWA_CON_AMP_EVA	33	Rpleas_acq	Same	Rpleas	Bmasked	CS_B	1pleas	distractor1	CONbeforeEVA	cond_US_unple_123_masked_CS2	condtest_masked_2	9	13	400	0	300	300	0	0	524	50	0	0	0	0	0	1	blank2r.bmp	0	1	+	0	3	B3r.bmp	492	1	blank2r.bmp	786	1	GKQX	786	1	blank2r.bmp	866	1	tyrannisch	866	1	!	1239	1	!	-1	0	0	0	0	0	0	0	0	0	0	0	0	0	0	0	0	0	0	0	0	0	0	0	0	0	0	0
121918	13:44:45	13:56:33	706721	5.0.10.0	4_exp_AWA_CON_AMP_EVA	33	Rpleas_acq	Same	Rpleas	Bmasked	CS_B	1pleas	distractor1	CONbeforeEVA	cond_new_unple_456_masked_CS2	condtest_masked_2	9	14	400	0	300	300	0	0	313	46	0	1	0	0	0	1	blank2r.bmp	0	1	+	0	6	C2r.bmp	492	1	blank2r.bmp	786	1	GKQX	786	1	blank2r.bmp	866	1	schroff	866	1	!	-1	1	!	-1	0	0	0	0	0	0	0	0	0	0	0	0	0	0	0	0	0	0	0	0	0	0	0	0	0	0	0
121918	13:44:45	13:56:35	709013	5.0.10.0	4_exp_AWA_CON_AMP_EVA	33	Rpleas_acq	Same	Rpleas	Bmasked	CS_B	1pleas	distractor1	CONbeforeEVA	cond_new_pleas_456_masked_CS2	condtest_masked_2	9	15	400	0	300	300	0	0	511	50	0	1	0	0	0	1	blank2r.bmp	0	1	+	0	4	B4r.bmp	492	1	blank2r.bmp	786	1	GKQX	786	1	blank2r.bmp	866	1	schlau	866	1	!	1239	1	!	-1	0	0	0	0	0	0	0	0	0	0	0	0	0	0	0	0	0	0	0	0	0	0	0	0	0	0	0
121918	13:44:45	13:56:37	711173	5.0.10.0	4_exp_AWA_CON_AMP_EVA	33	Rpleas_acq	Same	Rpleas	Bmasked	CS_B	1pleas	distractor1	CONbeforeEVA	cond_new_pleas_456_masked_CS2	condtest_masked_2	9	16	400	1	300	300	0	0	352	46	0	0	0	0	0	1	blank2r.bmp	0	1	+	0	2	B2r.bmp	492	1	blank2r.bmp	786	1	GKQX	786	1	blank2r.bmp	866	2	loyal	866	1	!	1239	1	!	1252	0	0	0	0	0	0	0	0	0	0	0	0	0	0	0	0	0	0	0	0	0	0	0	0	0	0	0
121918	13:44:45	13:56:39	713265	5.0.10.0	4_exp_AWA_CON_AMP_EVA	33	Rpleas_acq	Same	Rpleas	Bmasked	CS_B	1pleas	distractor1	CONbeforeEVA	cond_US_pleas_123_masked_CS2	condtest_masked_2	9	17	400	0	300	300	0	0	328	50	0	1	0	0	0	1	blank2r.bmp	0	1	+	0	7	C3r.bmp	492	1	blank2r.bmp	786	1	GKQX	786	1	blank2r.bmp	866	1	tolerant	866	1	!	-1	1	!	-1	0	0	0	0	0	0	0	0	0	0	0	0	0	0	0	0	0	0	0	0	0	0	0	0	0	0	0
121918	13:44:45	13:56:41	715371	5.0.10.0	4_exp_AWA_CON_AMP_EVA	33	Rpleas_acq	Same	Rpleas	Bmasked	CS_B	1pleas	distractor1	CONbeforeEVA	cond_new_unple_456_masked_CS2	condtest_masked_2	9	18	400	0	300	300	0	0	321	46	0	1	0	0	0	1	blank2r.bmp	0	1	+	0	5	C1r.bmp	492	1	blank2r.bmp	786	1	GKQX	786	1	blank2r.bmp	866	3	tot	866	1	!	-1	1	!	-1	0	0	0	0	0	0	0	0	0	0	0	0	0	0	0	0	0	0	0	0	0	0	0	0	0	0	0
121918	13:44:45	13:56:44	717570	5.0.10.0	4_exp_AWA_CON_AMP_EVA	33	Rpleas_acq	Same	Rpleas	Bmasked	CS_B	1pleas	distractor1	CONbeforeEVA	cond_new_unple_456_masked_CS2	condtest_masked_2	9	19	400	1	300	300	0	0	391	46	0	1	0	0	0	1	blank2r.bmp	0	1	+	0	8	C4r.bmp	492	1	blank2r.bmp	786	1	GKQX	786	1	blank2r.bmp	866	2	lasch	866	1	!	1239	1	!	1292	0	0	0	0	0	0	0	0	0	0	0	0	0	0	0	0	0	0	0	0	0	0	0	0	0	0	0
121918	13:44:45	13:56:46	719742	5.0.10.0	4_exp_AWA_CON_AMP_EVA	33	Rpleas_acq	Same	Rpleas	Bmasked	CS_B	1pleas	distractor1	CONbeforeEVA	cond_US_unple_123_masked_CS1	condtest_masked_2	9	20	400	1	300	300	0	0	377	50	0	0	0	0	0	1	blank2r.bmp	0	1	+	0	1	B1r.bmp	492	1	blank2r.bmp	786	1	BMVZ	786	1	blank2r.bmp	866	2	leiden	866	1	!	1239	1	!	1279	0	0	0	0	0	0	0	0	0	0	0	0	0	0	0	0	0	0	0	0	0	0	0	0	0	0	0
121918	13:44:45	13:56:48	721995	5.0.10.0	4_exp_AWA_CON_AMP_EVA	33	Rpleas_acq	Same	Rpleas	Bmasked	CS_B	1pleas	distractor1	CONbeforeEVA	cond_US_unple_123_masked_CS2	condtest_masked_2	9	21	400	1	300	300	0	0	464	46	0	1	0	0	0	1	blank2r.bmp	0	1	+	0	5	C1r.bmp	492	1	blank2r.bmp	786	1	GKQX	786	1	blank2r.bmp	866	1	tyrannisch	866	1	!	1239	1	!	1359	0	0	0	0	0	0	0	0	0	0	0	0	0	0	0	0	0	0	0	0	0	0	0	0	0	0	0
121918	13:44:45	13:56:50	724141	5.0.10.0	4_exp_AWA_CON_AMP_EVA	33	Rpleas_acq	Same	Rpleas	Bmasked	CS_B	1pleas	distractor1	CONbeforeEVA	cond_new_pleas_456_masked_CS2	condtest_masked_2	9	22	400	1	300	300	0	0	353	46	0	0	0	0	0	1	blank2r.bmp	0	1	+	0	1	B1r.bmp	492	1	blank2r.bmp	786	1	GKQX	786	1	blank2r.bmp	866	1	schlau	866	1	!	1239	1	!	1252	0	0	0	0	0	0	0	0	0	0	0	0	0	0	0	0	0	0	0	0	0	0	0	0	0	0	0
121918	13:44:45	13:56:52	726380	5.0.10.0	4_exp_AWA_CON_AMP_EVA	33	Rpleas_acq	Same	Rpleas	Bmasked	CS_B	1pleas	distractor1	CONbeforeEVA	cond_US_pleas_123_masked_CS1	condtest_masked_2	9	23	400	1	300	300	0	0	434	50	0	1	0	0	0	1	blank2r.bmp	0	1	+	0	3	B3r.bmp	492	1	blank2r.bmp	786	1	BMVZ	786	1	blank2r.bmp	866	2	lachen	866	1	!	1239	1	!	1332	0	0	0	0	0	0	0	0	0	0	0	0	0	0	0	0	0	0	0	0	0	0	0	0	0	0	0
121918	13:44:45	13:56:55	728605	5.0.10.0	4_exp_AWA_CON_AMP_EVA	33	Rpleas_acq	Same	Rpleas	Bmasked	CS_B	1pleas	distractor1	CONbeforeEVA	cond_new_pleas_456_masked_CS1	condtest_masked_2	9	24	400	1	300	300	0	0	431	50	0	1	0	0	0	1	blank2r.bmp	0	1	+	0	4	B4r.bmp	492	1	blank2r.bmp	786	1	BMVZ	786	1	blank2r.bmp	866	3	treu	866	1	!	1239	1	!	1332	0	0	0	0	0	0	0	0	0	0	0	0	0	0	0	0	0	0	0	0	0	0	0	0	0	0	0
121918	13:44:45	13:56:57	730658	5.0.10.0	4_exp_AWA_CON_AMP_EVA	33	Rpleas_acq	Same	Rpleas	Bmasked	CS_B	1pleas	distractor1	CONbeforeEVA	cond_US_unple_123_masked_CS2	condtest_masked_2	9	25	400	0	300	300	0	0	286	46	0	1	0	0	0	1	blank2r.bmp	0	1	+	0	8	C4r.bmp	492	1	blank2r.bmp	786	1	GKQX	786	1	blank2r.bmp	866	2	leiden	866	1	!	-1	1	!	-1	0	0	0	0	0	0	0	0	0	0	0	0	0	0	0	0	0	0	0	0	0	0	0	0	0	0	0
121918	13:44:45	13:56:59	732884	5.0.10.0	4_exp_AWA_CON_AMP_EVA	33	Rpleas_acq	Same	Rpleas	Bmasked	CS_B	1pleas	distractor1	CONbeforeEVA	cond_new_unple_456_masked_CS1	condtest_masked_2	9	26	400	1	300	300	0	0	415	46	0	1	0	0	0	1	blank2r.bmp	0	1	+	0	7	C3r.bmp	492	1	blank2r.bmp	786	1	BMVZ	786	1	blank2r.bmp	866	1	schroff	866	1	!	1239	1	!	1319	0	0	0	0	0	0	0	0	0	0	0	0	0	0	0	0	0	0	0	0	0	0	0	0	0	0	0
121918	13:44:45	13:57:01	735149	5.0.10.0	4_exp_AWA_CON_AMP_EVA	33	Rpleas_acq	Same	Rpleas	Bmasked	CS_B	1pleas	distractor1	CONbeforeEVA	cond_US_unple_123_masked_CS2	condtest_masked_2	9	27	400	0	300	300	0	0	497	46	0	1	0	0	0	1	blank2r.bmp	0	1	+	0	6	C2r.bmp	492	1	blank2r.bmp	786	1	GKQX	786	1	blank2r.bmp	866	3	fanatisch	866	1	!	1239	1	!	-1	0	0	0	0	0	0	0	0	0	0	0	0	0	0	0	0	0	0	0	0	0	0	0	0	0	0	0
121918	13:44:45	13:57:04	737468	5.0.10.0	4_exp_AWA_CON_AMP_EVA	33	Rpleas_acq	Same	Rpleas	Bmasked	CS_B	1pleas	distractor1	CONbeforeEVA	cond_new_pleas_456_masked_CS1	condtest_masked_2	9	28	400	0	300	300	0	0	540	50	0	1	0	0	0	1	blank2r.bmp	0	1	+	0	2	B2r.bmp	492	1	blank2r.bmp	786	1	BMVZ	786	1	blank2r.bmp	866	2	loyal	866	1	!	1239	1	!	-1	0	0	0	0	0	0	0	0	0	0	0	0	0	0	0	0	0	0	0	0	0	0	0	0	0	0	0
121918	13:44:45	13:57:06	739441	5.0.10.0	4_exp_AWA_CON_AMP_EVA	33	Rpleas_acq	Same	Rpleas	Bmasked	CS_B	1pleas	distractor1	CONbeforeEVA	cond_US_unple_123_masked_CS1	condtest_masked_2	9	29	400	0	300	300	0	0	196	46	0	1	0	0	0	1	blank2r.bmp	0	1	+	0	5	C1r.bmp	492	1	blank2r.bmp	786	1	BMVZ	786	1	blank2r.bmp	866	2	leiden	866	1	!	-1	1	!	-1	0	0	0	0	0	0	0	0	0	0	0	0	0	0	0	0	0	0	0	0	0	0	0	0	0	0	0
121918	13:44:45	13:57:08	741600	5.0.10.0	4_exp_AWA_CON_AMP_EVA	33	Rpleas_acq	Same	Rpleas	Bmasked	CS_B	1pleas	distractor1	CONbeforeEVA	cond_US_unple_123_masked_CS1	condtest_masked_2	9	30	400	1	300	300	0	0	351	46	0	1	0	0	0	1	blank2r.bmp	0	1	+	0	7	C3r.bmp	492	1	blank2r.bmp	786	1	BMVZ	786	1	blank2r.bmp	866	3	fanatisch	866	1	!	1239	1	!	1252	0	0	0	0	0	0	0	0	0	0	0	0	0	0	0	0	0	0	0	0	0	0	0	0	0	0	0
121918	13:44:45	13:57:10	743799	5.0.10.0	4_exp_AWA_CON_AMP_EVA	33	Rpleas_acq	Same	Rpleas	Bmasked	CS_B	1pleas	distractor1	CONbeforeEVA	cond_new_unple_456_masked_CS1	condtest_masked_2	9	31	400	1	300	300	0	0	408	46	0	1	0	0	0	1	blank2r.bmp	0	1	+	0	4	B4r.bmp	492	1	blank2r.bmp	786	1	BMVZ	786	1	blank2r.bmp	866	3	tot	866	1	!	1239	1	!	1306	0	0	0	0	0	0	0	0	0	0	0	0	0	0	0	0	0	0	0	0	0	0	0	0	0	0	0
121918	13:44:45	13:57:12	745985	5.0.10.0	4_exp_AWA_CON_AMP_EVA	33	Rpleas_acq	Same	Rpleas	Bmasked	CS_B	1pleas	distractor1	CONbeforeEVA	cond_new_unple_456_masked_CS1	condtest_masked_2	9	32	400	1	300	300	0	0	393	46	0	1	0	0	0	1	blank2r.bmp	0	1	+	0	3	B3r.bmp	492	1	blank2r.bmp	786	1	BMVZ	786	1	blank2r.bmp	866	1	schroff	866	1	!	1239	1	!	1292	0	0	0	0	0	0	0	0	0	0	0	0	0	0	0	0	0	0	0	0	0	0	0	0	0	0	0
121918	13:44:45	13:57:14	748224	5.0.10.0	4_exp_AWA_CON_AMP_EVA	33	Rpleas_acq	Same	Rpleas	Bmasked	CS_B	1pleas	distractor1	CONbeforeEVA	cond_US_unple_123_masked_CS1	condtest_masked_2	9	33	400	1	300	300	0	0	446	46	0	1	0	0	0	1	blank2r.bmp	0	1	+	0	6	C2r.bmp	492	1	blank2r.bmp	786	1	BMVZ	786	1	blank2r.bmp	866	1	tyrannisch	866	1	!	1239	1	!	1346	0	0	0	0	0	0	0	0	0	0	0	0	0	0	0	0	0	0	0	0	0	0	0	0	0	0	0
121918	13:44:45	13:57:17	750476	5.0.10.0	4_exp_AWA_CON_AMP_EVA	33	Rpleas_acq	Same	Rpleas	Bmasked	CS_B	1pleas	distractor1	CONbeforeEVA	cond_US_pleas_123_masked_CS2	condtest_masked_2	9	34	400	0	300	300	0	0	489	50	0	1	0	0	0	1	blank2r.bmp	0	1	+	0	1	B1r.bmp	492	1	blank2r.bmp	786	1	GKQX	786	1	blank2r.bmp	866	1	tolerant	866	1	!	1239	1	!	-1	0	0	0	0	0	0	0	0	0	0	0	0	0	0	0	0	0	0	0	0	0	0	0	0	0	0	0
121918	13:44:45	13:57:19	752675	5.0.10.0	4_exp_AWA_CON_AMP_EVA	33	Rpleas_acq	Same	Rpleas	Bmasked	CS_B	1pleas	distractor1	CONbeforeEVA	cond_new_pleas_456_masked_CS2	condtest_masked_2	9	35	400	1	300	300	0	0	394	50	0	1	0	0	0	1	blank2r.bmp	0	1	+	0	2	B2r.bmp	492	1	blank2r.bmp	786	1	GKQX	786	1	blank2r.bmp	866	1	schlau	866	1	!	1239	1	!	1292	0	0	0	0	0	0	0	0	0	0	0	0	0	0	0	0	0	0	0	0	0	0	0	0	0	0	0
121918	13:44:45	13:57:21	754848	5.0.10.0	4_exp_AWA_CON_AMP_EVA	33	Rpleas_acq	Same	Rpleas	Bmasked	CS_B	1pleas	distractor1	CONbeforeEVA	cond_US_pleas_123_masked_CS1	condtest_masked_2	9	36	400	1	300	300	0	0	381	50	0	1	0	0	0	1	blank2r.bmp	0	1	+	0	8	C4r.bmp	492	1	blank2r.bmp	786	1	BMVZ	786	1	blank2r.bmp	866	2	lachen	866	1	!	1239	1	!	1279	0	0	0	0	0	0	0	0	0	0	0	0	0	0	0	0	0	0	0	0	0	0	0	0	0	0	0
121918	13:44:45	13:57:23	757100	5.0.10.0	4_exp_AWA_CON_AMP_EVA	33	Rpleas_acq	Same	Rpleas	Bmasked	CS_B	1pleas	distractor1	CONbeforeEVA	cond_new_pleas_456_masked_CS2	condtest_masked_2	9	37	400	0	300	300	0	0	481	50	0	1	0	0	0	1	blank2r.bmp	0	1	+	0	2	B2r.bmp	492	1	blank2r.bmp	786	1	GKQX	786	1	blank2r.bmp	866	3	treu	866	1	!	1239	1	!	-1	0	0	0	0	0	0	0	0	0	0	0	0	0	0	0	0	0	0	0	0	0	0	0	0	0	0	0
121918	13:44:45	13:57:25	759259	5.0.10.0	4_exp_AWA_CON_AMP_EVA	33	Rpleas_acq	Same	Rpleas	Bmasked	CS_B	1pleas	distractor1	CONbeforeEVA	cond_new_unple_456_masked_CS2	condtest_masked_2	9	38	400	1	300	300	0	0	346	46	0	1	0	0	0	1	blank2r.bmp	0	1	+	0	4	B4r.bmp	492	1	blank2r.bmp	786	1	GKQX	786	1	blank2r.bmp	866	2	lasch	866	1	!	1239	1	!	1252	0	0	0	0	0	0	0	0	0	0	0	0	0	0	0	0	0	0	0	0	0	0	0	0	0	0	0
121918	13:44:45	13:57:28	761432	5.0.10.0	4_exp_AWA_CON_AMP_EVA	33	Rpleas_acq	Same	Rpleas	Bmasked	CS_B	1pleas	distractor1	CONbeforeEVA	cond_new_unple_456_masked_CS2	condtest_masked_2	9	39	400	1	300	300	0	0	381	46	0	1	0	0	0	1	blank2r.bmp	0	1	+	0	8	C4r.bmp	492	1	blank2r.bmp	786	1	GKQX	786	1	blank2r.bmp	866	3	tot	866	1	!	1239	1	!	1279	0	0	0	0	0	0	0	0	0	0	0	0	0	0	0	0	0	0	0	0	0	0	0	0	0	0	0
121918	13:44:45	13:57:30	763591	5.0.10.0	4_exp_AWA_CON_AMP_EVA	33	Rpleas_acq	Same	Rpleas	Bmasked	CS_B	1pleas	distractor1	CONbeforeEVA	cond_US_pleas_123_masked_CS1	condtest_masked_2	9	40	400	1	300	300	0	0	360	50	0	1	0	0	0	1	blank2r.bmp	0	1	+	0	1	B1r.bmp	492	1	blank2r.bmp	786	1	BMVZ	786	1	blank2r.bmp	866	3	freundlich	866	1	!	1239	1	!	1266	0	0	0	0	0	0	0	0	0	0	0	0	0	0	0	0	0	0	0	0	0	0	0	0	0	0	0
121918	13:44:45	13:57:44	777852	5.0.10.0	4_exp_AWA_CON_AMP_EVA	33	Rpleas_acq	Same	Rpleas	Bmasked	CS_B	1pleas	distractor1	CONbeforeEVA	cond_US_unple_456_masked_CS1	condtest_masked_3	10	1	400	0	300	300	0	0	832	46	0	1	0	0	0	1	blank2r.bmp	0	1	+	0	3	B3r.bmp	492	1	blank2r.bmp	786	1	BMVZ	786	1	blank2r.bmp	866	3	rächen	866	1	!	1239	1	!	-1	0	0	0	0	0	0	0	0	0	0	0	0	0	0	0	0	0	0	0	0	0	0	0	0	0	0	0
121918	13:44:45	13:57:46	780051	5.0.10.0	4_exp_AWA_CON_AMP_EVA	33	Rpleas_acq	Same	Rpleas	Bmasked	CS_B	1pleas	distractor1	CONbeforeEVA	cond_US_pleas_456_masked_CS1	condtest_masked_3	10	2	400	1	300	300	0	0	402	50	0	1	0	0	0	1	blank2r.bmp	0	1	+	0	5	C1r.bmp	492	1	blank2r.bmp	786	1	BMVZ	786	1	blank2r.bmp	866	2	ehrlich	866	1	!	1239	1	!	1306	0	0	0	0	0	0	0	0	0	0	0	0	0	0	0	0	0	0	0	0	0	0	0	0	0	0	0
121918	13:44:45	13:57:48	782237	5.0.10.0	4_exp_AWA_CON_AMP_EVA	33	Rpleas_acq	Same	Rpleas	Bmasked	CS_B	1pleas	distractor1	CONbeforeEVA	cond_US_pleas_456_masked_CS1	condtest_masked_3	10	3	400	1	300	300	0	0	374	46	0	0	0	0	0	1	blank2r.bmp	0	1	+	0	6	C2r.bmp	492	1	blank2r.bmp	786	1	BMVZ	786	1	blank2r.bmp	866	1	helfen	866	1	!	1239	1	!	1279	0	0	0	0	0	0	0	0	0	0	0	0	0	0	0	0	0	0	0	0	0	0	0	0	0	0	0
121918	13:44:45	13:57:51	784476	5.0.10.0	4_exp_AWA_CON_AMP_EVA	33	Rpleas_acq	Same	Rpleas	Bmasked	CS_B	1pleas	distractor1	CONbeforeEVA	cond_US_pleas_456_masked_CS2	condtest_masked_3	10	4	400	1	300	300	0	0	440	50	0	1	0	0	0	1	blank2r.bmp	0	1	+	0	7	C3r.bmp	492	1	blank2r.bmp	786	1	GKQX	786	1	blank2r.bmp	866	3	retten	866	1	!	1239	1	!	1346	0	0	0	0	0	0	0	0	0	0	0	0	0	0	0	0	0	0	0	0	0	0	0	0	0	0	0
121918	13:44:45	13:57:53	786635	5.0.10.0	4_exp_AWA_CON_AMP_EVA	33	Rpleas_acq	Same	Rpleas	Bmasked	CS_B	1pleas	distractor1	CONbeforeEVA	cond_US_pleas_456_masked_CS2	condtest_masked_3	10	5	400	1	300	300	0	0	365	50	0	1	0	0	0	1	blank2r.bmp	0	1	+	0	5	C1r.bmp	492	1	blank2r.bmp	786	1	GKQX	786	1	blank2r.bmp	866	1	helfen	866	1	!	1239	1	!	1266	0	0	0	0	0	0	0	0	0	0	0	0	0	0	0	0	0	0	0	0	0	0	0	0	0	0	0
121918	13:44:45	13:57:55	788900	5.0.10.0	4_exp_AWA_CON_AMP_EVA	33	Rpleas_acq	Same	Rpleas	Bmasked	CS_B	1pleas	distractor1	CONbeforeEVA	cond_new_unple_123_masked_CS1	condtest_masked_3	10	6	400	0	300	300	0	0	493	46	0	1	0	0	0	1	blank2r.bmp	0	1	+	0	8	C4r.bmp	492	1	blank2r.bmp	786	1	BMVZ	786	1	blank2r.bmp	866	3	strafen	866	1	!	1239	1	!	-1	0	0	0	0	0	0	0	0	0	0	0	0	0	0	0	0	0	0	0	0	0	0	0	0	0	0	0
121918	13:44:45	13:57:57	791126	5.0.10.0	4_exp_AWA_CON_AMP_EVA	33	Rpleas_acq	Same	Rpleas	Bmasked	CS_B	1pleas	distractor1	CONbeforeEVA	cond_new_unple_123_masked_CS2	condtest_masked_3	10	7	400	1	300	300	0	0	414	46	0	1	0	0	0	1	blank2r.bmp	0	1	+	0	3	B3r.bmp	492	1	blank2r.bmp	786	1	GKQX	786	1	blank2r.bmp	866	2	schlecht	866	1	!	1239	1	!	1319	0	0	0	0	0	0	0	0	0	0	0	0	0	0	0	0	0	0	0	0	0	0	0	0	0	0	0
121918	13:44:45	13:57:59	793379	5.0.10.0	4_exp_AWA_CON_AMP_EVA	33	Rpleas_acq	Same	Rpleas	Bmasked	CS_B	1pleas	distractor1	CONbeforeEVA	cond_US_pleas_456_masked_CS2	condtest_masked_3	10	8	400	1	300	300	0	0	442	50	0	1	0	0	0	1	blank2r.bmp	0	1	+	0	6	C2r.bmp	492	1	blank2r.bmp	786	1	GKQX	786	1	blank2r.bmp	866	3	retten	866	1	!	1239	1	!	1346	0	0	0	0	0	0	0	0	0	0	0	0	0	0	0	0	0	0	0	0	0	0	0	0	0	0	0
121918	13:44:45	13:58:02	795564	5.0.10.0	4_exp_AWA_CON_AMP_EVA	33	Rpleas_acq	Same	Rpleas	Bmasked	CS_B	1pleas	distractor1	CONbeforeEVA	cond_US_pleas_456_masked_CS2	condtest_masked_3	10	9	400	1	300	300	0	0	387	50	0	1	0	0	0	1	blank2r.bmp	0	1	+	0	7	C3r.bmp	492	1	blank2r.bmp	786	1	GKQX	786	1	blank2r.bmp	866	2	ehrlich	866	1	!	1239	1	!	1292	0	0	0	0	0	0	0	0	0	0	0	0	0	0	0	0	0	0	0	0	0	0	0	0	0	0	0
121918	13:44:45	13:58:04	797817	5.0.10.0	4_exp_AWA_CON_AMP_EVA	33	Rpleas_acq	Same	Rpleas	Bmasked	CS_B	1pleas	distractor1	CONbeforeEVA	cond_US_unple_456_masked_CS1	condtest_masked_3	10	10	400	0	300	300	0	0	480	46	0	1	0	0	0	1	blank2r.bmp	0	1	+	0	1	B1r.bmp	492	1	blank2r.bmp	786	1	BMVZ	786	1	blank2r.bmp	866	1	hindern	866	1	!	1239	1	!	-1	0	0	0	0	0	0	0	0	0	0	0	0	0	0	0	0	0	0	0	0	0	0	0	0	0	0	0
121918	13:44:45	13:58:06	800029	5.0.10.0	4_exp_AWA_CON_AMP_EVA	33	Rpleas_acq	Same	Rpleas	Bmasked	CS_B	1pleas	distractor1	CONbeforeEVA	cond_new_unple_123_masked_CS2	condtest_masked_3	10	11	400	1	300	300	0	0	409	50	0	0	0	0	0	1	blank2r.bmp	0	1	+	0	4	B4r.bmp	492	1	blank2r.bmp	786	1	GKQX	786	1	blank2r.bmp	866	1	faul	866	1	!	1239	1	!	1306	0	0	0	0	0	0	0	0	0	0	0	0	0	0	0	0	0	0	0	0	0	0	0	0	0	0	0
121918	13:44:45	13:58:08	802215	5.0.10.0	4_exp_AWA_CON_AMP_EVA	33	Rpleas_acq	Same	Rpleas	Bmasked	CS_B	1pleas	distractor1	CONbeforeEVA	cond_new_unple_123_masked_CS1	condtest_masked_3	10	12	400	1	300	300	0	0	392	46	0	1	0	0	0	1	blank2r.bmp	0	1	+	0	2	B2r.bmp	492	1	blank2r.bmp	786	1	BMVZ	786	1	blank2r.bmp	866	3	strafen	866	1	!	1239	1	!	1292	0	0	0	0	0	0	0	0	0	0	0	0	0	0	0	0	0	0	0	0	0	0	0	0	0	0	0
121918	13:44:45	13:58:10	804374	5.0.10.0	4_exp_AWA_CON_AMP_EVA	33	Rpleas_acq	Same	Rpleas	Bmasked	CS_B	1pleas	distractor1	CONbeforeEVA	cond_US_unple_456_masked_CS2	condtest_masked_3	10	13	400	1	300	300	0	0	363	46	0	1	0	0	0	1	blank2r.bmp	0	1	+	0	5	C1r.bmp	492	1	blank2r.bmp	786	1	GKQX	786	1	blank2r.bmp	866	2	eitel	866	1	!	1239	1	!	1266	0	0	0	0	0	0	0	0	0	0	0	0	0	0	0	0	0	0	0	0	0	0	0	0	0	0	0
121918	13:44:45	13:58:12	806240	5.0.10.0	4_exp_AWA_CON_AMP_EVA	33	Rpleas_acq	Same	Rpleas	Bmasked	CS_B	1pleas	distractor1	CONbeforeEVA	cond_US_unple_456_masked_CS2	condtest_masked_3	10	14	400	0	300	300	0	0	97	50	0	0	0	0	0	1	blank2r.bmp	0	1	+	0	7	C3r.bmp	492	1	blank2r.bmp	786	1	GKQX	786	1	blank2r.bmp	866	3	rächen	866	1	!	-1	1	!	-1	0	0	0	0	0	0	0	0	0	0	0	0	0	0	0	0	0	0	0	0	0	0	0	0	0	0	0
121918	13:44:45	13:58:17	810945	5.0.10.0	4_exp_AWA_CON_AMP_EVA	33	Rpleas_acq	Same	Rpleas	Bmasked	CS_B	1pleas	distractor1	CONbeforeEVA	cond_new_pleas_123_masked_CS1	condtest_masked_3	10	15	400	0	300	300	0	0	2921	46	0	0	0	0	0	1	blank2r.bmp	0	1	+	0	8	C4r.bmp	492	1	blank2r.bmp	786	1	BMVZ	786	1	blank2r.bmp	866	3	spielen	866	1	!	1239	1	!	-1	0	0	0	0	0	0	0	0	0	0	0	0	0	0	0	0	0	0	0	0	0	0	0	0	0	0	0
121918	13:44:45	13:58:19	813011	5.0.10.0	4_exp_AWA_CON_AMP_EVA	33	Rpleas_acq	Same	Rpleas	Bmasked	CS_B	1pleas	distractor1	CONbeforeEVA	cond_new_pleas_123_masked_CS2	condtest_masked_3	10	16	400	0	300	300	0	0	287	50	0	1	0	0	0	1	blank2r.bmp	0	1	+	0	2	B2r.bmp	492	1	blank2r.bmp	786	1	GKQX	786	1	blank2r.bmp	866	2	schön	866	1	!	-1	1	!	-1	0	0	0	0	0	0	0	0	0	0	0	0	0	0	0	0	0	0	0	0	0	0	0	0	0	0	0
121918	13:44:45	13:58:21	815263	5.0.10.0	4_exp_AWA_CON_AMP_EVA	33	Rpleas_acq	Same	Rpleas	Bmasked	CS_B	1pleas	distractor1	CONbeforeEVA	cond_new_pleas_123_masked_CS1	condtest_masked_3	10	17	400	1	300	300	0	0	442	50	0	1	0	0	0	1	blank2r.bmp	0	1	+	0	6	C2r.bmp	492	1	blank2r.bmp	786	1	BMVZ	786	1	blank2r.bmp	866	1	fair	866	1	!	1239	1	!	1346	0	0	0	0	0	0	0	0	0	0	0	0	0	0	0	0	0	0	0	0	0	0	0	0	0	0	0
121918	13:44:45	13:58:24	817462	5.0.10.0	4_exp_AWA_CON_AMP_EVA	33	Rpleas_acq	Same	Rpleas	Bmasked	CS_B	1pleas	distractor1	CONbeforeEVA	cond_US_unple_456_masked_CS2	condtest_masked_3	10	18	400	1	300	300	0	0	408	46	0	1	0	0	0	1	blank2r.bmp	0	1	+	0	1	B1r.bmp	492	1	blank2r.bmp	786	1	GKQX	786	1	blank2r.bmp	866	1	hindern	866	1	!	1239	1	!	1306	0	0	0	0	0	0	0	0	0	0	0	0	0	0	0	0	0	0	0	0	0	0	0	0	0	0	0
121918	13:44:45	13:58:26	819674	5.0.10.0	4_exp_AWA_CON_AMP_EVA	33	Rpleas_acq	Same	Rpleas	Bmasked	CS_B	1pleas	distractor1	CONbeforeEVA	cond_new_pleas_123_masked_CS1	condtest_masked_3	10	19	400	1	300	300	0	0	412	50	0	1	0	0	0	1	blank2r.bmp	0	1	+	0	4	B4r.bmp	492	1	blank2r.bmp	786	1	BMVZ	786	1	blank2r.bmp	866	2	schön	866	1	!	1239	1	!	1319	0	0	0	0	0	0	0	0	0	0	0	0	0	0	0	0	0	0	0	0	0	0	0	0	0	0	0
121918	13:44:45	13:58:28	821900	5.0.10.0	4_exp_AWA_CON_AMP_EVA	33	Rpleas_acq	Same	Rpleas	Bmasked	CS_B	1pleas	distractor1	CONbeforeEVA	cond_US_pleas_456_masked_CS1	condtest_masked_3	10	20	400	1	300	300	0	0	422	46	0	0	0	0	0	1	blank2r.bmp	0	1	+	0	3	B3r.bmp	492	1	blank2r.bmp	786	1	BMVZ	786	1	blank2r.bmp	866	3	retten	866	1	!	1239	1	!	1319	0	0	0	0	0	0	0	0	0	0	0	0	0	0	0	0	0	0	0	0	0	0	0	0	0	0	0
121918	13:44:45	13:58:30	824153	5.0.10.0	4_exp_AWA_CON_AMP_EVA	33	Rpleas_acq	Same	Rpleas	Bmasked	CS_B	1pleas	distractor1	CONbeforeEVA	cond_US_unple_456_masked_CS1	condtest_masked_3	10	21	400	0	300	300	0	0	479	46	0	1	0	0	0	1	blank2r.bmp	0	1	+	0	2	B2r.bmp	492	1	blank2r.bmp	786	1	BMVZ	786	1	blank2r.bmp	866	2	eitel	866	1	!	1239	1	!	-1	0	0	0	0	0	0	0	0	0	0	0	0	0	0	0	0	0	0	0	0	0	0	0	0	0	0	0
121918	13:44:45	13:58:32	826352	5.0.10.0	4_exp_AWA_CON_AMP_EVA	33	Rpleas_acq	Same	Rpleas	Bmasked	CS_B	1pleas	distractor1	CONbeforeEVA	cond_new_unple_123_masked_CS2	condtest_masked_3	10	22	400	1	300	300	0	0	382	50	0	0	0	0	0	1	blank2r.bmp	0	1	+	0	4	B4r.bmp	492	1	blank2r.bmp	786	1	GKQX	786	1	blank2r.bmp	866	1	faul	866	1	!	1239	1	!	1279	0	0	0	0	0	0	0	0	0	0	0	0	0	0	0	0	0	0	0	0	0	0	0	0	0	0	0
121918	13:44:45	13:58:35	828511	5.0.10.0	4_exp_AWA_CON_AMP_EVA	33	Rpleas_acq	Same	Rpleas	Bmasked	CS_B	1pleas	distractor1	CONbeforeEVA	cond_new_pleas_123_masked_CS2	condtest_masked_3	10	23	400	1	300	300	0	0	346	46	0	0	0	0	0	1	blank2r.bmp	0	1	+	0	1	B1r.bmp	492	1	blank2r.bmp	786	1	GKQX	786	1	blank2r.bmp	866	3	spielen	866	1	!	1239	1	!	1252	0	0	0	0	0	0	0	0	0	0	0	0	0	0	0	0	0	0	0	0	0	0	0	0	0	0	0
121918	13:44:45	13:58:37	830497	5.0.10.0	4_exp_AWA_CON_AMP_EVA	33	Rpleas_acq	Same	Rpleas	Bmasked	CS_B	1pleas	distractor1	CONbeforeEVA	cond_new_pleas_123_masked_CS1	condtest_masked_3	10	24	400	0	300	300	0	0	224	50	0	1	0	0	0	1	blank2r.bmp	0	1	+	0	5	C1r.bmp	492	1	blank2r.bmp	786	1	BMVZ	786	1	blank2r.bmp	866	1	fair	866	1	!	-1	1	!	-1	0	0	0	0	0	0	0	0	0	0	0	0	0	0	0	0	0	0	0	0	0	0	0	0	0	0	0
121918	13:44:45	13:58:39	832722	5.0.10.0	4_exp_AWA_CON_AMP_EVA	33	Rpleas_acq	Same	Rpleas	Bmasked	CS_B	1pleas	distractor1	CONbeforeEVA	cond_new_unple_123_masked_CS2	condtest_masked_3	10	25	400	1	300	300	0	0	415	50	0	0	0	0	0	1	blank2r.bmp	0	1	+	0	3	B3r.bmp	492	1	blank2r.bmp	786	1	GKQX	786	1	blank2r.bmp	866	2	schlecht	866	1	!	1239	1	!	1319	0	0	0	0	0	0	0	0	0	0	0	0	0	0	0	0	0	0	0	0	0	0	0	0	0	0	0
121918	13:44:45	13:58:41	834615	5.0.10.0	4_exp_AWA_CON_AMP_EVA	33	Rpleas_acq	Same	Rpleas	Bmasked	CS_B	1pleas	distractor1	CONbeforeEVA	cond_US_unple_456_masked_CS1	condtest_masked_3	10	26	400	0	300	300	0	0	118	46	0	1	0	0	0	1	blank2r.bmp	0	1	+	0	8	C4r.bmp	492	1	blank2r.bmp	786	1	BMVZ	786	1	blank2r.bmp	866	2	eitel	866	1	!	-1	1	!	-1	0	0	0	0	0	0	0	0	0	0	0	0	0	0	0	0	0	0	0	0	0	0	0	0	0	0	0
121918	13:44:45	13:58:43	836881	5.0.10.0	4_exp_AWA_CON_AMP_EVA	33	Rpleas_acq	Same	Rpleas	Bmasked	CS_B	1pleas	distractor1	CONbeforeEVA	cond_US_unple_456_masked_CS1	condtest_masked_3	10	27	400	0	300	300	0	0	479	46	0	1	0	0	0	1	blank2r.bmp	0	1	+	0	6	C2r.bmp	492	1	blank2r.bmp	786	1	BMVZ	786	1	blank2r.bmp	866	1	hindern	866	1	!	1239	1	!	-1	0	0	0	0	0	0	0	0	0	0	0	0	0	0	0	0	0	0	0	0	0	0	0	0	0	0	0
121918	13:44:45	13:58:45	838973	5.0.10.0	4_exp_AWA_CON_AMP_EVA	33	Rpleas_acq	Same	Rpleas	Bmasked	CS_B	1pleas	distractor1	CONbeforeEVA	cond_new_pleas_123_masked_CS1	condtest_masked_3	10	28	400	0	300	300	0	0	306	50	0	1	0	0	0	1	blank2r.bmp	0	1	+	0	7	C3r.bmp	492	1	blank2r.bmp	786	1	BMVZ	786	1	blank2r.bmp	866	2	schön	866	1	!	-1	1	!	-1	0	0	0	0	0	0	0	0	0	0	0	0	0	0	0	0	0	0	0	0	0	0	0	0	0	0	0
121918	13:44:45	13:58:47	841252	5.0.10.0	4_exp_AWA_CON_AMP_EVA	33	Rpleas_acq	Same	Rpleas	Bmasked	CS_B	1pleas	distractor1	CONbeforeEVA	cond_new_unple_123_masked_CS2	condtest_masked_3	10	29	400	0	300	300	0	0	479	46	0	1	0	0	0	1	blank2r.bmp	0	1	+	0	2	B2r.bmp	492	1	blank2r.bmp	786	1	GKQX	786	1	blank2r.bmp	866	2	schlecht	866	1	!	1239	1	!	-1	0	0	0	0	0	0	0	0	0	0	0	0	0	0	0	0	0	0	0	0	0	0	0	0	0	0	0
121918	13:44:45	13:58:50	843958	5.0.10.0	4_exp_AWA_CON_AMP_EVA	33	Rpleas_acq	Same	Rpleas	Bmasked	CS_B	1pleas	distractor1	CONbeforeEVA	cond_US_unple_456_masked_CS1	condtest_masked_3	10	30	400	0	300	300	0	0	921	46	0	1	0	0	0	1	blank2r.bmp	0	1	+	0	4	B4r.bmp	492	1	blank2r.bmp	786	1	BMVZ	786	1	blank2r.bmp	866	3	rächen	866	1	!	1239	1	!	-1	0	0	0	0	0	0	0	0	0	0	0	0	0	0	0	0	0	0	0	0	0	0	0	0	0	0	0
121918	13:44:45	13:58:52	846144	5.0.10.0	4_exp_AWA_CON_AMP_EVA	33	Rpleas_acq	Same	Rpleas	Bmasked	CS_B	1pleas	distractor1	CONbeforeEVA	cond_new_pleas_123_masked_CS2	condtest_masked_3	10	31	400	1	300	300	0	0	376	50	0	1	0	0	0	1	blank2r.bmp	0	1	+	0	3	B3r.bmp	492	1	blank2r.bmp	786	1	GKQX	786	1	blank2r.bmp	866	1	fair	866	1	!	1239	1	!	1279	0	0	0	0	0	0	0	0	0	0	0	0	0	0	0	0	0	0	0	0	0	0	0	0	0	0	0
