date	time	script.currenttime	script.elapsedtime	build	script.currentexpt	subject	expressions.LRpleas_acq	expressions.SameOppo	expressions.condition_Lpleas	expressions.ABmasked	expressions.conditionCS_A	expressions.condition_1pleas	expressions.condition_distractor_AMP	expressions.AWACON_AMPEVA_first	trialcode	blockcode	blocknum	trialnum	windowcenter	inwindow	pretrialpause	posttrialpause	trialduration	trialtimeout	latency	response	expressions.correctedscore	correct	values.vis_performance	values.vis_rating_sum	values.vis_rating_mean	stimulusnumber1	stimulusitem1	stimulusonset1	stimulusnumber2	stimulusitem2	stimulusonset2	stimulusnumber3	stimulusitem3	stimulusonset3	stimulusnumber4	stimulusitem4	stimulusonset4	stimulusnumber5	stimulusitem5	stimulusonset5	stimulusnumber6	stimulusitem6	stimulusonset6	stimulusnumber7	stimulusitem7	stimulusonset7	stimulusnumber8	stimulusitem8	stimulusonset8	stimulusnumber9	stimulusitem9	stimulusonset9	stimulusnumber10	stimulusitem10	stimulusonset10	stimulusnumber11	stimulusitem11	stimulusonset11	stimulusnumber12	stimulusitem12	stimulusonset12	stimulusnumber13	stimulusitem13	stimulusonset13	stimulusnumber14	stimulusitem14	stimulusonset14	stimulusnumber15	stimulusitem15	stimulusonset15	stimulusnumber16	stimulusitem16	stimulusonset16	stimulusnumber17	stimulusitem17	stimulusonset17	stimulusnumber18	stimulusitem18	stimulusonset18
011019	13:24:51	13:27:53	181205	5.0.10.0	4_exp_AWA_CON_AMP_EVA	57	Rpleas_acq	Same	Rpleas	Bmasked	CS_B	1pleas	distractor1	CONbeforeEVA	acq_new_unple_masked	acq1_masked	1	1	0	0	300	300	0	0	857	46	0	1	0	0	0	1	blank2r.bmp	0	1	+	0	8	C4r.bmp	492	1	blank2r.bmp	786	2	B2r.bmp	786	1	blank2r.bmp	866	2	tot	866	0	0	0	0	0	0	0	0	0	0	0	0	0	0	0	0	0	0	0	0	0	0	0	0	0	0	0	0	0	0	0	0	0
011019	13:24:51	13:27:55	183177	5.0.10.0	4_exp_AWA_CON_AMP_EVA	57	Rpleas_acq	Same	Rpleas	Bmasked	CS_B	1pleas	distractor1	CONbeforeEVA	acq_new_unple_masked	acq1_masked	1	2	0	0	300	300	0	0	487	46	0	1	0	0	0	1	blank2r.bmp	0	1	+	0	2	B2r.bmp	492	1	blank2r.bmp	786	3	B3r.bmp	786	1	blank2r.bmp	866	4	leiden	866	0	0	0	0	0	0	0	0	0	0	0	0	0	0	0	0	0	0	0	0	0	0	0	0	0	0	0	0	0	0	0	0	0
011019	13:24:51	13:27:57	185336	5.0.10.0	4_exp_AWA_CON_AMP_EVA	57	Rpleas_acq	Same	Rpleas	Bmasked	CS_B	1pleas	distractor1	CONbeforeEVA	acq_new_pleas_masked	acq1_masked	1	3	0	0	300	300	0	0	469	46	0	0	0	0	0	1	blank2r.bmp	0	1	+	0	7	C3r.bmp	492	1	blank2r.bmp	786	8	C4r.bmp	786	1	blank2r.bmp	866	2	treu	866	1	FEHLER	1372	0	0	0	0	0	0	0	0	0	0	0	0	0	0	0	0	0	0	0	0	0	0	0	0	0	0	0	0	0	0
011019	13:24:51	13:27:59	187096	5.0.10.0	4_exp_AWA_CON_AMP_EVA	57	Rpleas_acq	Same	Rpleas	Bmasked	CS_B	1pleas	distractor1	CONbeforeEVA	acq_new_pleas_masked	acq1_masked	1	4	0	0	300	300	0	0	503	50	0	1	0	0	0	1	blank2r.bmp	0	1	+	0	4	B4r.bmp	492	1	blank2r.bmp	786	7	C3r.bmp	786	1	blank2r.bmp	866	5	retten	866	0	0	0	0	0	0	0	0	0	0	0	0	0	0	0	0	0	0	0	0	0	0	0	0	0	0	0	0	0	0	0	0	0
011019	13:24:51	13:28:01	189135	5.0.10.0	4_exp_AWA_CON_AMP_EVA	57	Rpleas_acq	Same	Rpleas	Bmasked	CS_B	1pleas	distractor1	CONbeforeEVA	acq_US_unple_masked	acq1_masked	1	5	0	0	300	300	0	0	548	46	0	1	0	0	0	1	blank2r.bmp	0	1	+	0	3	B3r.bmp	492	1	blank2r.bmp	786	1	GKQX	786	1	blank2r.bmp	866	5	tyrannisch	866	0	0	0	0	0	0	0	0	0	0	0	0	0	0	0	0	0	0	0	0	0	0	0	0	0	0	0	0	0	0	0	0	0
011019	13:24:51	13:28:04	191480	5.0.10.0	4_exp_AWA_CON_AMP_EVA	57	Rpleas_acq	Same	Rpleas	Bmasked	CS_B	1pleas	distractor1	CONbeforeEVA	acq_US_unple_masked	acq1_masked	1	6	0	0	300	300	0	0	657	50	0	0	0	0	0	1	blank2r.bmp	0	1	+	0	1	B1r.bmp	492	1	blank2r.bmp	786	1	GKQX	786	1	blank2r.bmp	866	4	fanatisch	866	1	FEHLER	1559	0	0	0	0	0	0	0	0	0	0	0	0	0	0	0	0	0	0	0	0	0	0	0	0	0	0	0	0	0	0
011019	13:24:51	13:28:05	193306	5.0.10.0	4_exp_AWA_CON_AMP_EVA	57	Rpleas_acq	Same	Rpleas	Bmasked	CS_B	1pleas	distractor1	CONbeforeEVA	acq_US_pleas_masked	acq1_masked	1	7	0	0	300	300	0	0	552	50	0	1	0	0	0	1	blank2r.bmp	0	1	+	0	5	C1r.bmp	492	1	blank2r.bmp	786	1	BMVZ	786	1	blank2r.bmp	866	3	schön	866	0	0	0	0	0	0	0	0	0	0	0	0	0	0	0	0	0	0	0	0	0	0	0	0	0	0	0	0	0	0	0	0	0
011019	13:24:51	13:28:08	195519	5.0.10.0	4_exp_AWA_CON_AMP_EVA	57	Rpleas_acq	Same	Rpleas	Bmasked	CS_B	1pleas	distractor1	CONbeforeEVA	acq_US_pleas_masked	acq1_masked	1	8	0	0	300	300	0	0	720	50	0	1	0	0	0	1	blank2r.bmp	0	1	+	0	6	C2r.bmp	492	1	blank2r.bmp	786	1	BMVZ	786	1	blank2r.bmp	866	1	ehrlich	866	0	0	0	0	0	0	0	0	0	0	0	0	0	0	0	0	0	0	0	0	0	0	0	0	0	0	0	0	0	0	0	0	0
011019	13:24:51	13:28:10	197558	5.0.10.0	4_exp_AWA_CON_AMP_EVA	57	Rpleas_acq	Same	Rpleas	Bmasked	CS_B	1pleas	distractor1	CONbeforeEVA	acq_US_pleas_masked	acq1_masked	1	9	0	0	300	300	0	0	568	50	0	1	0	0	0	1	blank2r.bmp	0	1	+	0	3	B3r.bmp	492	1	blank2r.bmp	786	1	BMVZ	786	1	blank2r.bmp	866	4	freundlich	866	0	0	0	0	0	0	0	0	0	0	0	0	0	0	0	0	0	0	0	0	0	0	0	0	0	0	0	0	0	0	0	0	0
011019	13:24:51	13:28:12	199517	5.0.10.0	4_exp_AWA_CON_AMP_EVA	57	Rpleas_acq	Same	Rpleas	Bmasked	CS_B	1pleas	distractor1	CONbeforeEVA	acq_new_pleas_masked	acq1_masked	1	10	0	0	300	300	0	0	481	50	0	1	0	0	0	1	blank2r.bmp	0	1	+	0	8	C4r.bmp	492	1	blank2r.bmp	786	5	C1r.bmp	786	1	blank2r.bmp	866	3	loyal	866	0	0	0	0	0	0	0	0	0	0	0	0	0	0	0	0	0	0	0	0	0	0	0	0	0	0	0	0	0	0	0	0	0
011019	13:24:51	13:28:14	201716	5.0.10.0	4_exp_AWA_CON_AMP_EVA	57	Rpleas_acq	Same	Rpleas	Bmasked	CS_B	1pleas	distractor1	CONbeforeEVA	acq_new_unple_masked	acq1_masked	1	11	0	0	300	300	0	0	715	46	0	1	0	0	0	1	blank2r.bmp	0	1	+	0	5	C1r.bmp	492	1	blank2r.bmp	786	1	B1r.bmp	786	1	blank2r.bmp	866	3	lasch	866	0	0	0	0	0	0	0	0	0	0	0	0	0	0	0	0	0	0	0	0	0	0	0	0	0	0	0	0	0	0	0	0	0
011019	13:24:51	13:28:16	203835	5.0.10.0	4_exp_AWA_CON_AMP_EVA	57	Rpleas_acq	Same	Rpleas	Bmasked	CS_B	1pleas	distractor1	CONbeforeEVA	acq_US_unple_masked	acq1_masked	1	12	0	0	300	300	0	0	631	46	0	1	0	0	0	1	blank2r.bmp	0	1	+	0	6	C2r.bmp	492	1	blank2r.bmp	786	1	GKQX	786	1	blank2r.bmp	866	6	faul	866	0	0	0	0	0	0	0	0	0	0	0	0	0	0	0	0	0	0	0	0	0	0	0	0	0	0	0	0	0	0	0	0	0
011019	13:24:51	13:28:18	206141	5.0.10.0	4_exp_AWA_CON_AMP_EVA	57	Rpleas_acq	Same	Rpleas	Bmasked	CS_B	1pleas	distractor1	CONbeforeEVA	acq_US_unple_masked	acq1_masked	1	13	0	0	300	300	0	0	821	46	0	1	0	0	0	1	blank2r.bmp	0	1	+	0	2	B2r.bmp	492	1	blank2r.bmp	786	1	GKQX	786	1	blank2r.bmp	866	1	eitel	866	0	0	0	0	0	0	0	0	0	0	0	0	0	0	0	0	0	0	0	0	0	0	0	0	0	0	0	0	0	0	0	0	0
011019	13:24:51	13:28:20	208233	5.0.10.0	4_exp_AWA_CON_AMP_EVA	57	Rpleas_acq	Same	Rpleas	Bmasked	CS_B	1pleas	distractor1	CONbeforeEVA	acq_new_unple_masked	acq1_masked	1	14	0	0	300	300	0	0	601	46	0	1	0	0	0	1	blank2r.bmp	0	1	+	0	4	B4r.bmp	492	1	blank2r.bmp	786	6	C2r.bmp	786	1	blank2r.bmp	866	5	rächen	866	0	0	0	0	0	0	0	0	0	0	0	0	0	0	0	0	0	0	0	0	0	0	0	0	0	0	0	0	0	0	0	0	0
011019	13:24:51	13:28:22	210233	5.0.10.0	4_exp_AWA_CON_AMP_EVA	57	Rpleas_acq	Same	Rpleas	Bmasked	CS_B	1pleas	distractor1	CONbeforeEVA	acq_US_unple_masked	acq1_masked	1	15	0	0	300	300	0	0	529	46	0	1	0	0	0	1	blank2r.bmp	0	1	+	0	7	C3r.bmp	492	1	blank2r.bmp	786	1	GKQX	786	1	blank2r.bmp	866	3	schlecht	866	0	0	0	0	0	0	0	0	0	0	0	0	0	0	0	0	0	0	0	0	0	0	0	0	0	0	0	0	0	0	0	0	0
011019	13:24:51	13:28:25	212365	5.0.10.0	4_exp_AWA_CON_AMP_EVA	57	Rpleas_acq	Same	Rpleas	Bmasked	CS_B	1pleas	distractor1	CONbeforeEVA	acq_new_pleas_masked	acq1_masked	1	16	0	0	300	300	0	0	639	50	0	1	0	0	0	1	blank2r.bmp	0	1	+	0	1	B1r.bmp	492	1	blank2r.bmp	786	4	B4r.bmp	786	1	blank2r.bmp	866	1	helfen	866	0	0	0	0	0	0	0	0	0	0	0	0	0	0	0	0	0	0	0	0	0	0	0	0	0	0	0	0	0	0	0	0	0
011019	13:24:51	13:28:27	214404	5.0.10.0	4_exp_AWA_CON_AMP_EVA	57	Rpleas_acq	Same	Rpleas	Bmasked	CS_B	1pleas	distractor1	CONbeforeEVA	acq_US_pleas_masked	acq1_masked	1	17	0	0	300	300	0	0	570	50	0	1	0	0	0	1	blank2r.bmp	0	1	+	0	6	C2r.bmp	492	1	blank2r.bmp	786	1	BMVZ	786	1	blank2r.bmp	866	2	spielen	866	0	0	0	0	0	0	0	0	0	0	0	0	0	0	0	0	0	0	0	0	0	0	0	0	0	0	0	0	0	0	0	0	0
011019	13:24:51	13:28:29	216497	5.0.10.0	4_exp_AWA_CON_AMP_EVA	57	Rpleas_acq	Same	Rpleas	Bmasked	CS_B	1pleas	distractor1	CONbeforeEVA	acq_new_unple_masked	acq1_masked	1	18	0	0	300	300	0	0	612	46	0	1	0	0	0	1	blank2r.bmp	0	1	+	0	2	B2r.bmp	492	1	blank2r.bmp	786	1	B1r.bmp	786	1	blank2r.bmp	866	6	schroff	866	0	0	0	0	0	0	0	0	0	0	0	0	0	0	0	0	0	0	0	0	0	0	0	0	0	0	0	0	0	0	0	0	0
011019	13:24:51	13:28:31	218576	5.0.10.0	4_exp_AWA_CON_AMP_EVA	57	Rpleas_acq	Same	Rpleas	Bmasked	CS_B	1pleas	distractor1	CONbeforeEVA	acq_new_pleas_masked	acq1_masked	1	19	0	0	300	300	0	0	609	50	0	1	0	0	0	1	blank2r.bmp	0	1	+	0	4	B4r.bmp	492	1	blank2r.bmp	786	3	B3r.bmp	786	1	blank2r.bmp	866	4	lachen	866	0	0	0	0	0	0	0	0	0	0	0	0	0	0	0	0	0	0	0	0	0	0	0	0	0	0	0	0	0	0	0	0	0
011019	13:24:51	13:28:33	220828	5.0.10.0	4_exp_AWA_CON_AMP_EVA	57	Rpleas_acq	Same	Rpleas	Bmasked	CS_B	1pleas	distractor1	CONbeforeEVA	acq_US_pleas_masked	acq1_masked	1	20	0	0	300	300	0	0	765	50	0	1	0	0	0	1	blank2r.bmp	0	1	+	0	8	C4r.bmp	492	1	blank2r.bmp	786	1	BMVZ	786	1	blank2r.bmp	866	5	tolerant	866	0	0	0	0	0	0	0	0	0	0	0	0	0	0	0	0	0	0	0	0	0	0	0	0	0	0	0	0	0	0	0	0	0
011019	13:24:51	13:28:35	222854	5.0.10.0	4_exp_AWA_CON_AMP_EVA	57	Rpleas_acq	Same	Rpleas	Bmasked	CS_B	1pleas	distractor1	CONbeforeEVA	acq_US_pleas_masked	acq1_masked	1	21	0	0	300	300	0	0	544	50	0	1	0	0	0	1	blank2r.bmp	0	1	+	0	1	B1r.bmp	492	1	blank2r.bmp	786	1	BMVZ	786	1	blank2r.bmp	866	6	fair	866	0	0	0	0	0	0	0	0	0	0	0	0	0	0	0	0	0	0	0	0	0	0	0	0	0	0	0	0	0	0	0	0	0
011019	13:24:51	13:28:37	224920	5.0.10.0	4_exp_AWA_CON_AMP_EVA	57	Rpleas_acq	Same	Rpleas	Bmasked	CS_B	1pleas	distractor1	CONbeforeEVA	acq_new_pleas_masked	acq1_masked	1	22	0	0	300	300	0	0	579	50	0	1	0	0	0	1	blank2r.bmp	0	1	+	0	7	C3r.bmp	492	1	blank2r.bmp	786	8	C4r.bmp	786	1	blank2r.bmp	866	6	schlau	866	0	0	0	0	0	0	0	0	0	0	0	0	0	0	0	0	0	0	0	0	0	0	0	0	0	0	0	0	0	0	0	0	0
011019	13:24:51	13:28:39	226906	5.0.10.0	4_exp_AWA_CON_AMP_EVA	57	Rpleas_acq	Same	Rpleas	Bmasked	CS_B	1pleas	distractor1	CONbeforeEVA	acq_US_unple_masked	acq1_masked	1	23	0	0	300	300	0	0	507	46	0	1	0	0	0	1	blank2r.bmp	0	1	+	0	3	B3r.bmp	492	1	blank2r.bmp	786	1	GKQX	786	1	blank2r.bmp	866	2	strafen	866	0	0	0	0	0	0	0	0	0	0	0	0	0	0	0	0	0	0	0	0	0	0	0	0	0	0	0	0	0	0	0	0	0
011019	13:24:51	13:28:41	229185	5.0.10.0	4_exp_AWA_CON_AMP_EVA	57	Rpleas_acq	Same	Rpleas	Bmasked	CS_B	1pleas	distractor1	CONbeforeEVA	acq_new_unple_masked	acq1_masked	1	24	0	0	300	300	0	0	804	46	0	1	0	0	0	1	blank2r.bmp	0	1	+	0	5	C1r.bmp	492	1	blank2r.bmp	786	6	C2r.bmp	786	1	blank2r.bmp	866	1	hindern	866	0	0	0	0	0	0	0	0	0	0	0	0	0	0	0	0	0	0	0	0	0	0	0	0	0	0	0	0	0	0	0	0	0
011019	13:24:51	13:28:44	231477	5.0.10.0	4_exp_AWA_CON_AMP_EVA	57	Rpleas_acq	Same	Rpleas	Bmasked	CS_B	1pleas	distractor1	CONbeforeEVA	acq_US_unple_masked	acq1_masked	1	25	0	0	300	300	0	0	798	46	0	1	0	0	0	1	blank2r.bmp	0	1	+	0	7	C3r.bmp	492	1	blank2r.bmp	786	1	GKQX	786	1	blank2r.bmp	866	4	fanatisch	866	0	0	0	0	0	0	0	0	0	0	0	0	0	0	0	0	0	0	0	0	0	0	0	0	0	0	0	0	0	0	0	0	0
011019	13:24:51	13:28:46	233530	5.0.10.0	4_exp_AWA_CON_AMP_EVA	57	Rpleas_acq	Same	Rpleas	Bmasked	CS_B	1pleas	distractor1	CONbeforeEVA	acq_US_unple_masked	acq1_masked	1	26	0	0	300	300	0	0	578	46	0	1	0	0	0	1	blank2r.bmp	0	1	+	0	3	B3r.bmp	492	1	blank2r.bmp	786	1	GKQX	786	1	blank2r.bmp	866	5	tyrannisch	866	0	0	0	0	0	0	0	0	0	0	0	0	0	0	0	0	0	0	0	0	0	0	0	0	0	0	0	0	0	0	0	0	0
011019	13:24:51	13:28:48	235609	5.0.10.0	4_exp_AWA_CON_AMP_EVA	57	Rpleas_acq	Same	Rpleas	Bmasked	CS_B	1pleas	distractor1	CONbeforeEVA	acq_new_pleas_masked	acq1_masked	1	27	0	0	300	300	0	0	602	50	0	1	0	0	0	1	blank2r.bmp	0	1	+	0	1	B1r.bmp	492	1	blank2r.bmp	786	4	B4r.bmp	786	1	blank2r.bmp	866	6	schlau	866	0	0	0	0	0	0	0	0	0	0	0	0	0	0	0	0	0	0	0	0	0	0	0	0	0	0	0	0	0	0	0	0	0
011019	13:24:51	13:28:50	237581	5.0.10.0	4_exp_AWA_CON_AMP_EVA	57	Rpleas_acq	Same	Rpleas	Bmasked	CS_B	1pleas	distractor1	CONbeforeEVA	acq_new_pleas_masked	acq1_masked	1	28	0	0	300	300	0	0	498	50	0	1	0	0	0	1	blank2r.bmp	0	1	+	0	6	C2r.bmp	492	1	blank2r.bmp	786	2	B2r.bmp	786	1	blank2r.bmp	866	4	lachen	866	0	0	0	0	0	0	0	0	0	0	0	0	0	0	0	0	0	0	0	0	0	0	0	0	0	0	0	0	0	0	0	0	0
011019	13:24:51	13:28:52	239634	5.0.10.0	4_exp_AWA_CON_AMP_EVA	57	Rpleas_acq	Same	Rpleas	Bmasked	CS_B	1pleas	distractor1	CONbeforeEVA	acq_new_pleas_masked	acq1_masked	1	29	0	0	300	300	0	0	570	50	0	1	0	0	0	1	blank2r.bmp	0	1	+	0	4	B4r.bmp	492	1	blank2r.bmp	786	5	C1r.bmp	786	1	blank2r.bmp	866	3	loyal	866	0	0	0	0	0	0	0	0	0	0	0	0	0	0	0	0	0	0	0	0	0	0	0	0	0	0	0	0	0	0	0	0	0
011019	13:24:51	13:28:54	241646	5.0.10.0	4_exp_AWA_CON_AMP_EVA	57	Rpleas_acq	Same	Rpleas	Bmasked	CS_B	1pleas	distractor1	CONbeforeEVA	acq_new_unple_masked	acq1_masked	1	30	0	0	300	300	0	0	524	46	0	1	0	0	0	1	blank2r.bmp	0	1	+	0	2	B2r.bmp	492	1	blank2r.bmp	786	7	C3r.bmp	786	1	blank2r.bmp	866	4	leiden	866	0	0	0	0	0	0	0	0	0	0	0	0	0	0	0	0	0	0	0	0	0	0	0	0	0	0	0	0	0	0	0	0	0
011019	13:24:51	13:28:56	243726	5.0.10.0	4_exp_AWA_CON_AMP_EVA	57	Rpleas_acq	Same	Rpleas	Bmasked	CS_B	1pleas	distractor1	CONbeforeEVA	acq_US_pleas_masked	acq1_masked	1	31	0	0	300	300	0	0	609	50	0	1	0	0	0	1	blank2r.bmp	0	1	+	0	8	C4r.bmp	492	1	blank2r.bmp	786	1	BMVZ	786	1	blank2r.bmp	866	5	tolerant	866	0	0	0	0	0	0	0	0	0	0	0	0	0	0	0	0	0	0	0	0	0	0	0	0	0	0	0	0	0	0	0	0	0
011019	13:24:51	13:28:58	245925	5.0.10.0	4_exp_AWA_CON_AMP_EVA	57	Rpleas_acq	Same	Rpleas	Bmasked	CS_B	1pleas	distractor1	CONbeforeEVA	acq_new_unple_masked	acq1_masked	1	32	0	0	300	300	0	0	710	46	0	1	0	0	0	1	blank2r.bmp	0	1	+	0	5	C1r.bmp	492	1	blank2r.bmp	786	4	B4r.bmp	786	1	blank2r.bmp	866	5	rächen	866	0	0	0	0	0	0	0	0	0	0	0	0	0	0	0	0	0	0	0	0	0	0	0	0	0	0	0	0	0	0	0	0	0
011019	13:24:51	13:29:00	248004	5.0.10.0	4_exp_AWA_CON_AMP_EVA	57	Rpleas_acq	Same	Rpleas	Bmasked	CS_B	1pleas	distractor1	CONbeforeEVA	acq_US_pleas_masked	acq1_masked	1	33	0	0	300	300	0	0	585	50	0	1	0	0	0	1	blank2r.bmp	0	1	+	0	1	B1r.bmp	492	1	blank2r.bmp	786	1	BMVZ	786	1	blank2r.bmp	866	4	freundlich	866	0	0	0	0	0	0	0	0	0	0	0	0	0	0	0	0	0	0	0	0	0	0	0	0	0	0	0	0	0	0	0	0	0
011019	13:24:51	13:29:02	249923	5.0.10.0	4_exp_AWA_CON_AMP_EVA	57	Rpleas_acq	Same	Rpleas	Bmasked	CS_B	1pleas	distractor1	CONbeforeEVA	acq_US_pleas_masked	acq1_masked	1	34	0	0	300	300	0	0	431	50	0	1	0	0	0	1	blank2r.bmp	0	1	+	0	2	B2r.bmp	492	1	blank2r.bmp	786	1	BMVZ	786	1	blank2r.bmp	866	3	schön	866	0	0	0	0	0	0	0	0	0	0	0	0	0	0	0	0	0	0	0	0	0	0	0	0	0	0	0	0	0	0	0	0	0
011019	13:24:51	13:29:04	251882	5.0.10.0	4_exp_AWA_CON_AMP_EVA	57	Rpleas_acq	Same	Rpleas	Bmasked	CS_B	1pleas	distractor1	CONbeforeEVA	acq_US_unple_masked	acq1_masked	1	35	0	0	300	300	0	0	467	46	0	1	0	0	0	1	blank2r.bmp	0	1	+	0	6	C2r.bmp	492	1	blank2r.bmp	786	1	GKQX	786	1	blank2r.bmp	866	6	faul	866	0	0	0	0	0	0	0	0	0	0	0	0	0	0	0	0	0	0	0	0	0	0	0	0	0	0	0	0	0	0	0	0	0
011019	13:24:51	13:29:06	253868	5.0.10.0	4_exp_AWA_CON_AMP_EVA	57	Rpleas_acq	Same	Rpleas	Bmasked	CS_B	1pleas	distractor1	CONbeforeEVA	acq_new_unple_masked	acq1_masked	1	36	0	0	300	300	0	0	506	46	0	1	0	0	0	1	blank2r.bmp	0	1	+	0	7	C3r.bmp	492	1	blank2r.bmp	786	1	B1r.bmp	786	1	blank2r.bmp	866	1	hindern	866	0	0	0	0	0	0	0	0	0	0	0	0	0	0	0	0	0	0	0	0	0	0	0	0	0	0	0	0	0	0	0	0	0
011019	13:24:51	13:30:42	349402	5.0.10.0	4_exp_AWA_CON_AMP_EVA	57	Rpleas_acq	Same	Rpleas	Bmasked	CS_B	1pleas	distractor1	CONbeforeEVA	acq_US_unple_masked	acq2_masked	2	1	480	0	300	300	0	0	40953	46	0	1	0	0	0	1	blank2r.bmp	0	1	+	0	3	B3r.bmp	492	1	blank2r.bmp	786	1	GKQX	786	1	blank2r.bmp	866	1	eitel	866	1	!	1319	1	!	-1	0	0	0	0	0	0	0	0	0	0	0	0	0	0	0	0	0	0	0	0	0	0	0	0	0	0	0
011019	13:24:51	13:30:44	352134	5.0.10.0	4_exp_AWA_CON_AMP_EVA	57	Rpleas_acq	Same	Rpleas	Bmasked	CS_B	1pleas	distractor1	CONbeforeEVA	acq_US_pleas_masked	acq2_masked	2	2	480	0	300	300	0	0	946	50	0	1	0	0	0	1	blank2r.bmp	0	1	+	0	5	C1r.bmp	492	1	blank2r.bmp	786	1	BMVZ	786	1	blank2r.bmp	866	6	fair	866	1	!	1319	1	!	-1	0	0	0	0	0	0	0	0	0	0	0	0	0	0	0	0	0	0	0	0	0	0	0	0	0	0	0
011019	13:24:51	13:30:46	354280	5.0.10.0	4_exp_AWA_CON_AMP_EVA	57	Rpleas_acq	Same	Rpleas	Bmasked	CS_B	1pleas	distractor1	CONbeforeEVA	acq_US_unple_masked	acq2_masked	2	3	480	0	300	300	0	0	369	46	0	1	0	0	0	1	blank2r.bmp	0	1	+	0	8	C4r.bmp	492	1	blank2r.bmp	786	1	GKQX	786	1	blank2r.bmp	866	2	strafen	866	1	!	-1	1	!	-1	0	0	0	0	0	0	0	0	0	0	0	0	0	0	0	0	0	0	0	0	0	0	0	0	0	0	0
011019	13:24:51	13:30:49	357092	5.0.10.0	4_exp_AWA_CON_AMP_EVA	57	Rpleas_acq	Same	Rpleas	Bmasked	CS_B	1pleas	distractor1	CONbeforeEVA	acq_new_unple_masked	acq2_masked	2	4	480	0	300	300	0	0	1025	46	0	1	0	0	0	1	blank2r.bmp	0	1	+	0	4	B4r.bmp	492	1	blank2r.bmp	786	7	C3r.bmp	786	1	blank2r.bmp	866	6	schroff	866	1	!	1319	1	!	-1	0	0	0	0	0	0	0	0	0	0	0	0	0	0	0	0	0	0	0	0	0	0	0	0	0	0	0
011019	13:24:51	13:30:52	359438	5.0.10.0	4_exp_AWA_CON_AMP_EVA	57	Rpleas_acq	Same	Rpleas	Bmasked	CS_B	1pleas	distractor1	CONbeforeEVA	acq_new_pleas_masked	acq2_masked	2	5	480	1	300	300	0	0	539	50	0	1	0	0	0	1	blank2r.bmp	0	1	+	0	5	C1r.bmp	492	1	blank2r.bmp	786	2	B2r.bmp	786	1	blank2r.bmp	866	1	helfen	866	1	!	1319	1	!	1439	0	0	0	0	0	0	0	0	0	0	0	0	0	0	0	0	0	0	0	0	0	0	0	0	0	0	0
011019	13:24:51	13:30:54	361837	5.0.10.0	4_exp_AWA_CON_AMP_EVA	57	Rpleas_acq	Same	Rpleas	Bmasked	CS_B	1pleas	distractor1	CONbeforeEVA	acq_US_unple_masked	acq2_masked	2	6	480	0	300	300	0	0	629	46	0	1	0	0	0	1	blank2r.bmp	0	1	+	0	1	B1r.bmp	492	1	blank2r.bmp	786	1	GKQX	786	1	blank2r.bmp	866	3	schlecht	866	1	!	1319	1	!	-1	0	0	0	0	0	0	0	0	0	0	0	0	0	0	0	0	0	0	0	0	0	0	0	0	0	0	0
011019	13:24:51	13:30:56	364209	5.0.10.0	4_exp_AWA_CON_AMP_EVA	57	Rpleas_acq	Same	Rpleas	Bmasked	CS_B	1pleas	distractor1	CONbeforeEVA	acq_new_unple_masked	acq2_masked	2	7	480	0	300	300	0	0	598	46	0	1	0	0	0	1	blank2r.bmp	0	1	+	0	6	C2r.bmp	492	1	blank2r.bmp	786	3	B3r.bmp	786	1	blank2r.bmp	866	3	lasch	866	1	!	1319	1	!	-1	0	0	0	0	0	0	0	0	0	0	0	0	0	0	0	0	0	0	0	0	0	0	0	0	0	0	0
011019	13:24:51	13:30:59	366595	5.0.10.0	4_exp_AWA_CON_AMP_EVA	57	Rpleas_acq	Same	Rpleas	Bmasked	CS_B	1pleas	distractor1	CONbeforeEVA	acq_US_pleas_masked	acq2_masked	2	8	480	0	300	300	0	0	587	50	0	1	0	0	0	1	blank2r.bmp	0	1	+	0	2	B2r.bmp	492	1	blank2r.bmp	786	1	BMVZ	786	1	blank2r.bmp	866	2	spielen	866	1	!	1319	1	!	-1	0	0	0	0	0	0	0	0	0	0	0	0	0	0	0	0	0	0	0	0	0	0	0	0	0	0	0
011019	13:24:51	13:31:01	368941	5.0.10.0	4_exp_AWA_CON_AMP_EVA	57	Rpleas_acq	Same	Rpleas	Bmasked	CS_B	1pleas	distractor1	CONbeforeEVA	acq_new_pleas_masked	acq2_masked	2	9	480	0	300	300	0	0	569	50	0	1	0	0	0	1	blank2r.bmp	0	1	+	0	8	C4r.bmp	492	1	blank2r.bmp	786	5	C1r.bmp	786	1	blank2r.bmp	866	5	retten	866	1	!	1319	1	!	-1	0	0	0	0	0	0	0	0	0	0	0	0	0	0	0	0	0	0	0	0	0	0	0	0	0	0	0
011019	13:24:51	13:31:03	371260	5.0.10.0	4_exp_AWA_CON_AMP_EVA	57	Rpleas_acq	Same	Rpleas	Bmasked	CS_B	1pleas	distractor1	CONbeforeEVA	acq_US_pleas_masked	acq2_masked	2	10	480	0	300	300	0	0	307	46	0	0	0	0	0	1	blank2r.bmp	0	1	+	0	7	C3r.bmp	492	1	blank2r.bmp	786	1	BMVZ	786	1	blank2r.bmp	866	1	ehrlich	866	1	FEHLER	1519	1	!	-1	1	!	-1	0	0	0	0	0	0	0	0	0	0	0	0	0	0	0	0	0	0	0	0	0	0	0	0
011019	13:24:51	13:31:05	373272	5.0.10.0	4_exp_AWA_CON_AMP_EVA	57	Rpleas_acq	Same	Rpleas	Bmasked	CS_B	1pleas	distractor1	CONbeforeEVA	acq_new_pleas_masked	acq2_masked	2	11	480	1	300	300	0	0	432	50	0	1	0	0	0	1	blank2r.bmp	0	1	+	0	3	B3r.bmp	492	1	blank2r.bmp	786	6	C2r.bmp	786	1	blank2r.bmp	866	2	treu	866	1	!	1319	1	!	1332	0	0	0	0	0	0	0	0	0	0	0	0	0	0	0	0	0	0	0	0	0	0	0	0	0	0	0
011019	13:24:51	13:31:08	375538	5.0.10.0	4_exp_AWA_CON_AMP_EVA	57	Rpleas_acq	Same	Rpleas	Bmasked	CS_B	1pleas	distractor1	CONbeforeEVA	acq_new_unple_masked	acq2_masked	2	12	480	1	300	300	0	0	453	46	0	1	0	0	0	1	blank2r.bmp	0	1	+	0	4	B4r.bmp	492	1	blank2r.bmp	786	8	C4r.bmp	786	1	blank2r.bmp	866	2	tot	866	1	!	1319	1	!	1359	0	0	0	0	0	0	0	0	0	0	0	0	0	0	0	0	0	0	0	0	0	0	0	0	0	0	0
011019	13:24:51	13:31:10	377857	5.0.10.0	4_exp_AWA_CON_AMP_EVA	57	Rpleas_acq	Same	Rpleas	Bmasked	CS_B	1pleas	distractor1	CONbeforeEVA	acq_new_unple_masked	acq2_masked	2	13	480	1	300	300	0	0	529	46	0	1	0	0	0	1	blank2r.bmp	0	1	+	0	5	C1r.bmp	492	1	blank2r.bmp	786	8	C4r.bmp	786	1	blank2r.bmp	866	3	lasch	866	1	!	1319	1	!	1426	0	0	0	0	0	0	0	0	0	0	0	0	0	0	0	0	0	0	0	0	0	0	0	0	0	0	0
011019	13:24:51	13:31:12	380216	5.0.10.0	4_exp_AWA_CON_AMP_EVA	57	Rpleas_acq	Same	Rpleas	Bmasked	CS_B	1pleas	distractor1	CONbeforeEVA	acq_new_pleas_masked	acq2_masked	2	14	480	0	300	300	0	0	584	50	0	1	0	0	0	1	blank2r.bmp	0	1	+	0	7	C3r.bmp	492	1	blank2r.bmp	786	4	B4r.bmp	786	1	blank2r.bmp	866	1	helfen	866	1	!	1319	1	!	-1	0	0	0	0	0	0	0	0	0	0	0	0	0	0	0	0	0	0	0	0	0	0	0	0	0	0	0
011019	13:24:51	13:31:15	382682	5.0.10.0	4_exp_AWA_CON_AMP_EVA	57	Rpleas_acq	Same	Rpleas	Bmasked	CS_B	1pleas	distractor1	CONbeforeEVA	acq_new_pleas_masked	acq2_masked	2	15	480	1	300	300	0	0	426	46	0	0	0	0	0	1	blank2r.bmp	0	1	+	0	1	B1r.bmp	492	1	blank2r.bmp	786	3	B3r.bmp	786	1	blank2r.bmp	866	3	loyal	866	1	FEHLER	1652	1	!	1319	1	!	1332	0	0	0	0	0	0	0	0	0	0	0	0	0	0	0	0	0	0	0	0	0	0	0	0
011019	13:24:51	13:31:17	384814	5.0.10.0	4_exp_AWA_CON_AMP_EVA	57	Rpleas_acq	Same	Rpleas	Bmasked	CS_B	1pleas	distractor1	CONbeforeEVA	acq_US_unple_masked	acq2_masked	2	16	480	0	300	300	0	0	345	50	0	0	0	0	0	1	blank2r.bmp	0	1	+	0	4	B4r.bmp	492	1	blank2r.bmp	786	1	GKQX	786	1	blank2r.bmp	866	2	strafen	866	1	FEHLER	1559	1	!	-1	1	!	-1	0	0	0	0	0	0	0	0	0	0	0	0	0	0	0	0	0	0	0	0	0	0	0	0
011019	13:24:51	13:31:19	386880	5.0.10.0	4_exp_AWA_CON_AMP_EVA	57	Rpleas_acq	Same	Rpleas	Bmasked	CS_B	1pleas	distractor1	CONbeforeEVA	acq_US_pleas_masked	acq2_masked	2	17	480	1	300	300	0	0	480	50	0	1	0	0	0	1	blank2r.bmp	0	1	+	0	6	C2r.bmp	492	1	blank2r.bmp	786	1	BMVZ	786	1	blank2r.bmp	866	5	tolerant	866	1	!	1319	1	!	1386	0	0	0	0	0	0	0	0	0	0	0	0	0	0	0	0	0	0	0	0	0	0	0	0	0	0	0
011019	13:24:51	13:31:21	389132	5.0.10.0	4_exp_AWA_CON_AMP_EVA	57	Rpleas_acq	Same	Rpleas	Bmasked	CS_B	1pleas	distractor1	CONbeforeEVA	acq_US_unple_masked	acq2_masked	2	18	480	1	300	300	0	0	462	46	0	1	0	0	0	1	blank2r.bmp	0	1	+	0	8	C4r.bmp	492	1	blank2r.bmp	786	1	GKQX	786	1	blank2r.bmp	866	1	eitel	866	1	!	1319	1	!	1359	0	0	0	0	0	0	0	0	0	0	0	0	0	0	0	0	0	0	0	0	0	0	0	0	0	0	0
011019	13:24:51	13:31:24	391438	5.0.10.0	4_exp_AWA_CON_AMP_EVA	57	Rpleas_acq	Same	Rpleas	Bmasked	CS_B	1pleas	distractor1	CONbeforeEVA	acq_new_unple_masked	acq2_masked	2	19	480	1	300	300	0	0	506	46	0	1	0	0	0	1	blank2r.bmp	0	1	+	0	3	B3r.bmp	492	1	blank2r.bmp	786	1	B1r.bmp	786	1	blank2r.bmp	866	4	leiden	866	1	!	1319	1	!	1412	0	0	0	0	0	0	0	0	0	0	0	0	0	0	0	0	0	0	0	0	0	0	0	0	0	0	0
011019	13:24:51	13:31:26	393744	5.0.10.0	4_exp_AWA_CON_AMP_EVA	57	Rpleas_acq	Same	Rpleas	Bmasked	CS_B	1pleas	distractor1	CONbeforeEVA	acq_US_pleas_masked	acq2_masked	2	20	480	1	300	300	0	0	512	50	0	1	0	0	0	1	blank2r.bmp	0	1	+	0	2	B2r.bmp	492	1	blank2r.bmp	786	1	BMVZ	786	1	blank2r.bmp	866	4	freundlich	866	1	!	1319	1	!	1412	0	0	0	0	0	0	0	0	0	0	0	0	0	0	0	0	0	0	0	0	0	0	0	0	0	0	0
011019	13:24:51	13:31:28	396156	5.0.10.0	4_exp_AWA_CON_AMP_EVA	57	Rpleas_acq	Same	Rpleas	Bmasked	CS_B	1pleas	distractor1	CONbeforeEVA	acq_US_pleas_masked	acq2_masked	2	21	480	0	300	300	0	0	411	46	0	0	0	0	0	1	blank2r.bmp	0	1	+	0	5	C1r.bmp	492	1	blank2r.bmp	786	1	BMVZ	786	1	blank2r.bmp	866	1	ehrlich	866	1	FEHLER	1625	1	!	-1	1	!	-1	0	0	0	0	0	0	0	0	0	0	0	0	0	0	0	0	0	0	0	0	0	0	0	0
011019	13:24:51	13:31:30	398275	5.0.10.0	4_exp_AWA_CON_AMP_EVA	57	Rpleas_acq	Same	Rpleas	Bmasked	CS_B	1pleas	distractor1	CONbeforeEVA	acq_new_unple_masked	acq2_masked	2	22	480	1	300	300	0	0	532	46	0	1	0	0	0	1	blank2r.bmp	0	1	+	0	4	B4r.bmp	492	1	blank2r.bmp	786	2	B2r.bmp	786	1	blank2r.bmp	866	5	rächen	866	1	!	1319	1	!	1439	0	0	0	0	0	0	0	0	0	0	0	0	0	0	0	0	0	0	0	0	0	0	0	0	0	0	0
011019	13:24:51	13:31:33	400621	5.0.10.0	4_exp_AWA_CON_AMP_EVA	57	Rpleas_acq	Same	Rpleas	Bmasked	CS_B	1pleas	distractor1	CONbeforeEVA	acq_US_unple_masked	acq2_masked	2	23	480	0	300	300	0	0	583	46	0	1	0	0	0	1	blank2r.bmp	0	1	+	0	3	B3r.bmp	492	1	blank2r.bmp	786	1	GKQX	786	1	blank2r.bmp	866	5	tyrannisch	866	1	!	1319	1	!	-1	0	0	0	0	0	0	0	0	0	0	0	0	0	0	0	0	0	0	0	0	0	0	0	0	0	0	0
011019	13:24:51	13:31:35	402953	5.0.10.0	4_exp_AWA_CON_AMP_EVA	57	Rpleas_acq	Same	Rpleas	Bmasked	CS_B	1pleas	distractor1	CONbeforeEVA	acq_new_pleas_masked	acq2_masked	2	24	480	1	300	300	0	0	509	50	0	1	0	0	0	1	blank2r.bmp	0	1	+	0	7	C3r.bmp	492	1	blank2r.bmp	786	5	C1r.bmp	786	1	blank2r.bmp	866	4	lachen	866	1	!	1319	1	!	1412	0	0	0	0	0	0	0	0	0	0	0	0	0	0	0	0	0	0	0	0	0	0	0	0	0	0	0
011019	13:24:51	13:31:37	405339	5.0.10.0	4_exp_AWA_CON_AMP_EVA	57	Rpleas_acq	Same	Rpleas	Bmasked	CS_B	1pleas	distractor1	CONbeforeEVA	acq_new_pleas_masked	acq2_masked	2	25	480	0	300	300	0	0	388	46	0	0	0	0	0	1	blank2r.bmp	0	1	+	0	8	C4r.bmp	492	1	blank2r.bmp	786	7	C3r.bmp	786	1	blank2r.bmp	866	5	retten	866	1	FEHLER	1599	1	!	-1	1	!	-1	0	0	0	0	0	0	0	0	0	0	0	0	0	0	0	0	0	0	0	0	0	0	0	0
011019	13:24:51	13:31:41	408391	5.0.10.0	4_exp_AWA_CON_AMP_EVA	57	Rpleas_acq	Same	Rpleas	Bmasked	CS_B	1pleas	distractor1	CONbeforeEVA	acq_US_pleas_masked	acq2_masked	2	26	480	0	300	300	0	0	1482	50	0	1	0	0	0	1	blank2r.bmp	0	1	+	0	1	B1r.bmp	492	1	blank2r.bmp	786	1	BMVZ	786	1	blank2r.bmp	866	6	fair	866	1	!	1319	1	!	-1	0	0	0	0	0	0	0	0	0	0	0	0	0	0	0	0	0	0	0	0	0	0	0	0	0	0	0
011019	13:24:51	13:31:43	410737	5.0.10.0	4_exp_AWA_CON_AMP_EVA	57	Rpleas_acq	Same	Rpleas	Bmasked	CS_B	1pleas	distractor1	CONbeforeEVA	acq_new_pleas_masked	acq2_masked	2	27	480	0	300	300	0	0	559	50	0	1	0	0	0	1	blank2r.bmp	0	1	+	0	2	B2r.bmp	492	1	blank2r.bmp	786	6	C2r.bmp	786	1	blank2r.bmp	866	6	schlau	866	1	!	1319	1	!	-1	0	0	0	0	0	0	0	0	0	0	0	0	0	0	0	0	0	0	0	0	0	0	0	0	0	0	0
011019	13:24:51	13:31:45	413109	5.0.10.0	4_exp_AWA_CON_AMP_EVA	57	Rpleas_acq	Same	Rpleas	Bmasked	CS_B	1pleas	distractor1	CONbeforeEVA	acq_US_unple_masked	acq2_masked	2	28	480	0	300	300	0	0	597	46	0	1	0	0	0	1	blank2r.bmp	0	1	+	0	6	C2r.bmp	492	1	blank2r.bmp	786	1	GKQX	786	1	blank2r.bmp	866	3	schlecht	866	1	!	1319	1	!	-1	0	0	0	0	0	0	0	0	0	0	0	0	0	0	0	0	0	0	0	0	0	0	0	0	0	0	0
011019	13:24:51	13:31:47	415348	5.0.10.0	4_exp_AWA_CON_AMP_EVA	57	Rpleas_acq	Same	Rpleas	Bmasked	CS_B	1pleas	distractor1	CONbeforeEVA	acq_new_pleas_masked	acq2_masked	2	29	480	1	300	300	0	0	438	50	0	1	0	0	0	1	blank2r.bmp	0	1	+	0	5	C1r.bmp	492	1	blank2r.bmp	786	6	C2r.bmp	786	1	blank2r.bmp	866	2	treu	866	1	!	1319	1	!	1332	0	0	0	0	0	0	0	0	0	0	0	0	0	0	0	0	0	0	0	0	0	0	0	0	0	0	0
011019	13:24:51	13:31:50	417587	5.0.10.0	4_exp_AWA_CON_AMP_EVA	57	Rpleas_acq	Same	Rpleas	Bmasked	CS_B	1pleas	distractor1	CONbeforeEVA	acq_US_unple_masked	acq2_masked	2	30	480	1	300	300	0	0	449	46	0	1	0	0	0	1	blank2r.bmp	0	1	+	0	6	C2r.bmp	492	1	blank2r.bmp	786	1	GKQX	786	1	blank2r.bmp	866	6	faul	866	1	!	1319	1	!	1346	0	0	0	0	0	0	0	0	0	0	0	0	0	0	0	0	0	0	0	0	0	0	0	0	0	0	0
011019	13:24:51	13:31:52	419853	5.0.10.0	4_exp_AWA_CON_AMP_EVA	57	Rpleas_acq	Same	Rpleas	Bmasked	CS_B	1pleas	distractor1	CONbeforeEVA	acq_US_unple_masked	acq2_masked	2	31	480	1	300	300	0	0	466	46	0	1	0	0	0	1	blank2r.bmp	0	1	+	0	2	B2r.bmp	492	1	blank2r.bmp	786	1	GKQX	786	1	blank2r.bmp	866	4	fanatisch	866	1	!	1319	1	!	1372	0	0	0	0	0	0	0	0	0	0	0	0	0	0	0	0	0	0	0	0	0	0	0	0	0	0	0
011019	13:24:51	13:31:55	422359	5.0.10.0	4_exp_AWA_CON_AMP_EVA	57	Rpleas_acq	Same	Rpleas	Bmasked	CS_B	1pleas	distractor1	CONbeforeEVA	acq_new_unple_masked	acq2_masked	2	32	480	1	300	300	0	0	490	50	0	0	0	0	0	1	blank2r.bmp	0	1	+	0	7	C3r.bmp	492	1	blank2r.bmp	786	2	B2r.bmp	786	1	blank2r.bmp	866	2	tot	866	1	FEHLER	1705	1	!	1319	1	!	1386	0	0	0	0	0	0	0	0	0	0	0	0	0	0	0	0	0	0	0	0	0	0	0	0
011019	13:24:51	13:31:57	424464	5.0.10.0	4_exp_AWA_CON_AMP_EVA	57	Rpleas_acq	Same	Rpleas	Bmasked	CS_B	1pleas	distractor1	CONbeforeEVA	acq_new_unple_masked	acq2_masked	2	33	480	1	300	300	0	0	507	46	0	1	0	0	0	1	blank2r.bmp	0	1	+	0	3	B3r.bmp	492	1	blank2r.bmp	786	4	B4r.bmp	786	1	blank2r.bmp	866	1	hindern	866	1	!	1319	1	!	1412	0	0	0	0	0	0	0	0	0	0	0	0	0	0	0	0	0	0	0	0	0	0	0	0	0	0	0
011019	13:24:51	13:31:59	426903	5.0.10.0	4_exp_AWA_CON_AMP_EVA	57	Rpleas_acq	Same	Rpleas	Bmasked	CS_B	1pleas	distractor1	CONbeforeEVA	acq_US_pleas_masked	acq2_masked	2	34	480	1	300	300	0	0	444	46	0	0	0	0	0	1	blank2r.bmp	0	1	+	0	1	B1r.bmp	492	1	blank2r.bmp	786	1	BMVZ	786	1	blank2r.bmp	866	2	spielen	866	1	FEHLER	1665	1	!	1319	1	!	1346	0	0	0	0	0	0	0	0	0	0	0	0	0	0	0	0	0	0	0	0	0	0	0	0
011019	13:24:51	13:32:01	428983	5.0.10.0	4_exp_AWA_CON_AMP_EVA	57	Rpleas_acq	Same	Rpleas	Bmasked	CS_B	1pleas	distractor1	CONbeforeEVA	acq_new_unple_masked	acq2_masked	2	35	480	1	300	300	0	0	482	46	0	1	0	0	0	1	blank2r.bmp	0	1	+	0	4	B4r.bmp	492	1	blank2r.bmp	786	8	C4r.bmp	786	1	blank2r.bmp	866	6	schroff	866	1	!	1319	1	!	1386	0	0	0	0	0	0	0	0	0	0	0	0	0	0	0	0	0	0	0	0	0	0	0	0	0	0	0
011019	13:24:51	13:32:03	431222	5.0.10.0	4_exp_AWA_CON_AMP_EVA	57	Rpleas_acq	Same	Rpleas	Bmasked	CS_B	1pleas	distractor1	CONbeforeEVA	acq_US_pleas_masked	acq2_masked	2	36	480	1	300	300	0	0	451	50	0	1	0	0	0	1	blank2r.bmp	0	1	+	0	8	C4r.bmp	492	1	blank2r.bmp	786	1	BMVZ	786	1	blank2r.bmp	866	3	schön	866	1	!	1319	1	!	1346	0	0	0	0	0	0	0	0	0	0	0	0	0	0	0	0	0	0	0	0	0	0	0	0	0	0	0
011019	13:24:51	13:32:31	459117	5.0.10.0	4_exp_AWA_CON_AMP_EVA	57	Rpleas_acq	Same	Rpleas	Bmasked	CS_B	1pleas	distractor1	CONbeforeEVA	acq_US_pleas_masked	acq3_masked	3	1	453	0	300	300	0	0	558	50	0	1	0	0	0	1	blank2r.bmp	0	1	+	0	6	C2r.bmp	492	1	blank2r.bmp	786	1	BMVZ	786	1	blank2r.bmp	866	4	freundlich	866	1	!	1292	1	!	-1	0	0	0	0	0	0	0	0	0	0	0	0	0	0	0	0	0	0	0	0	0	0	0	0	0	0	0
011019	13:24:51	13:32:34	461542	5.0.10.0	4_exp_AWA_CON_AMP_EVA	57	Rpleas_acq	Same	Rpleas	Bmasked	CS_B	1pleas	distractor1	CONbeforeEVA	acq_US_unple_masked	acq3_masked	3	2	453	1	300	300	0	0	415	50	0	0	0	0	0	1	blank2r.bmp	0	1	+	0	5	C1r.bmp	492	1	blank2r.bmp	786	1	GKQX	786	1	blank2r.bmp	866	1	eitel	866	1	FEHLER	1639	1	!	1292	1	!	1319	0	0	0	0	0	0	0	0	0	0	0	0	0	0	0	0	0	0	0	0	0	0	0	0
011019	13:24:51	13:32:36	463542	5.0.10.0	4_exp_AWA_CON_AMP_EVA	57	Rpleas_acq	Same	Rpleas	Bmasked	CS_B	1pleas	distractor1	CONbeforeEVA	acq_US_pleas_masked	acq3_masked	3	3	453	1	300	300	0	0	404	50	0	1	0	0	0	1	blank2r.bmp	0	1	+	0	8	C4r.bmp	492	1	blank2r.bmp	786	1	BMVZ	786	1	blank2r.bmp	866	2	spielen	866	1	!	1292	1	!	1306	0	0	0	0	0	0	0	0	0	0	0	0	0	0	0	0	0	0	0	0	0	0	0	0	0	0	0
011019	13:24:51	13:32:38	465914	5.0.10.0	4_exp_AWA_CON_AMP_EVA	57	Rpleas_acq	Same	Rpleas	Bmasked	CS_B	1pleas	distractor1	CONbeforeEVA	acq_US_pleas_masked	acq3_masked	3	4	453	0	300	300	0	0	380	46	0	0	0	0	0	1	blank2r.bmp	0	1	+	0	7	C3r.bmp	492	1	blank2r.bmp	786	1	BMVZ	786	1	blank2r.bmp	866	6	fair	866	1	FEHLER	1586	1	!	-1	1	!	-1	0	0	0	0	0	0	0	0	0	0	0	0	0	0	0	0	0	0	0	0	0	0	0	0
011019	13:24:51	13:32:40	468140	5.0.10.0	4_exp_AWA_CON_AMP_EVA	57	Rpleas_acq	Same	Rpleas	Bmasked	CS_B	1pleas	distractor1	CONbeforeEVA	acq_US_unple_masked	acq3_masked	3	5	453	1	300	300	0	0	416	50	0	0	0	0	0	1	blank2r.bmp	0	1	+	0	2	B2r.bmp	492	1	blank2r.bmp	786	1	GKQX	786	1	blank2r.bmp	866	6	faul	866	1	FEHLER	1639	1	!	1292	1	!	1319	0	0	0	0	0	0	0	0	0	0	0	0	0	0	0	0	0	0	0	0	0	0	0	0
011019	13:24:51	13:32:42	470339	5.0.10.0	4_exp_AWA_CON_AMP_EVA	57	Rpleas_acq	Same	Rpleas	Bmasked	CS_B	1pleas	distractor1	CONbeforeEVA	acq_US_unple_masked	acq3_masked	3	6	453	1	300	300	0	0	409	50	0	0	0	0	0	1	blank2r.bmp	0	1	+	0	4	B4r.bmp	492	1	blank2r.bmp	786	1	GKQX	786	1	blank2r.bmp	866	3	schlecht	866	1	FEHLER	1625	1	!	1292	1	!	1306	0	0	0	0	0	0	0	0	0	0	0	0	0	0	0	0	0	0	0	0	0	0	0	0
011019	13:24:51	13:32:44	472338	5.0.10.0	4_exp_AWA_CON_AMP_EVA	57	Rpleas_acq	Same	Rpleas	Bmasked	CS_B	1pleas	distractor1	CONbeforeEVA	acq_US_pleas_masked	acq3_masked	3	7	453	1	300	300	0	0	414	50	0	1	0	0	0	1	blank2r.bmp	0	1	+	0	1	B1r.bmp	492	1	blank2r.bmp	786	1	BMVZ	786	1	blank2r.bmp	866	1	ehrlich	866	1	!	1292	1	!	1319	0	0	0	0	0	0	0	0	0	0	0	0	0	0	0	0	0	0	0	0	0	0	0	0	0	0	0
011019	13:24:51	13:32:47	474764	5.0.10.0	4_exp_AWA_CON_AMP_EVA	57	Rpleas_acq	Same	Rpleas	Bmasked	CS_B	1pleas	distractor1	CONbeforeEVA	acq_US_unple_masked	acq3_masked	3	8	453	1	300	300	0	0	422	50	0	0	0	0	0	1	blank2r.bmp	0	1	+	0	3	B3r.bmp	492	1	blank2r.bmp	786	1	GKQX	786	1	blank2r.bmp	866	4	fanatisch	866	1	FEHLER	1639	1	!	1292	1	!	1319	0	0	0	0	0	0	0	0	0	0	0	0	0	0	0	0	0	0	0	0	0	0	0	0
011019	13:24:51	13:32:49	476696	5.0.10.0	4_exp_AWA_CON_AMP_EVA	57	Rpleas_acq	Same	Rpleas	Bmasked	CS_B	1pleas	distractor1	CONbeforeEVA	acq_US_pleas_masked	acq3_masked	3	9	453	0	300	300	0	0	382	50	0	1	0	0	0	1	blank2r.bmp	0	1	+	0	3	B3r.bmp	492	1	blank2r.bmp	786	1	BMVZ	786	1	blank2r.bmp	866	3	schön	866	1	!	-1	1	!	-1	0	0	0	0	0	0	0	0	0	0	0	0	0	0	0	0	0	0	0	0	0	0	0	0	0	0	0
011019	13:24:51	13:32:51	479082	5.0.10.0	4_exp_AWA_CON_AMP_EVA	57	Rpleas_acq	Same	Rpleas	Bmasked	CS_B	1pleas	distractor1	CONbeforeEVA	acq_US_unple_masked	acq3_masked	3	10	453	0	300	300	0	0	601	46	0	1	0	0	0	1	blank2r.bmp	0	1	+	0	1	B1r.bmp	492	1	blank2r.bmp	786	1	GKQX	786	1	blank2r.bmp	866	5	tyrannisch	866	1	!	1292	1	!	-1	0	0	0	0	0	0	0	0	0	0	0	0	0	0	0	0	0	0	0	0	0	0	0	0	0	0	0
011019	13:24:51	13:32:54	481441	5.0.10.0	4_exp_AWA_CON_AMP_EVA	57	Rpleas_acq	Same	Rpleas	Bmasked	CS_B	1pleas	distractor1	CONbeforeEVA	acq_US_pleas_masked	acq3_masked	3	11	453	0	300	300	0	0	353	46	0	0	0	0	0	1	blank2r.bmp	0	1	+	0	7	C3r.bmp	492	1	blank2r.bmp	786	1	BMVZ	786	1	blank2r.bmp	866	5	tolerant	866	1	FEHLER	1559	1	!	-1	1	!	-1	0	0	0	0	0	0	0	0	0	0	0	0	0	0	0	0	0	0	0	0	0	0	0	0
011019	13:24:51	13:32:56	483520	5.0.10.0	4_exp_AWA_CON_AMP_EVA	57	Rpleas_acq	Same	Rpleas	Bmasked	CS_B	1pleas	distractor1	CONbeforeEVA	acq_US_unple_masked	acq3_masked	3	12	453	1	300	300	0	0	504	46	0	1	0	0	0	1	blank2r.bmp	0	1	+	0	8	C4r.bmp	492	1	blank2r.bmp	786	1	GKQX	786	1	blank2r.bmp	866	2	strafen	866	1	!	1292	1	!	1399	0	0	0	0	0	0	0	0	0	0	0	0	0	0	0	0	0	0	0	0	0	0	0	0	0	0	0
011019	13:24:51	13:32:58	485759	5.0.10.0	4_exp_AWA_CON_AMP_EVA	57	Rpleas_acq	Same	Rpleas	Bmasked	CS_B	1pleas	distractor1	CONbeforeEVA	acq_US_pleas_masked	acq3_masked	3	13	453	1	300	300	0	0	448	50	0	1	0	0	0	1	blank2r.bmp	0	1	+	0	4	B4r.bmp	492	1	blank2r.bmp	786	1	BMVZ	786	1	blank2r.bmp	866	5	tolerant	866	1	!	1292	1	!	1346	0	0	0	0	0	0	0	0	0	0	0	0	0	0	0	0	0	0	0	0	0	0	0	0	0	0	0
011019	13:24:51	13:33:00	487972	5.0.10.0	4_exp_AWA_CON_AMP_EVA	57	Rpleas_acq	Same	Rpleas	Bmasked	CS_B	1pleas	distractor1	CONbeforeEVA	acq_US_pleas_masked	acq3_masked	3	14	453	1	300	300	0	0	421	50	0	1	0	0	0	1	blank2r.bmp	0	1	+	0	2	B2r.bmp	492	1	blank2r.bmp	786	1	BMVZ	786	1	blank2r.bmp	866	2	spielen	866	1	!	1292	1	!	1319	0	0	0	0	0	0	0	0	0	0	0	0	0	0	0	0	0	0	0	0	0	0	0	0	0	0	0
011019	13:24:51	13:33:02	490237	5.0.10.0	4_exp_AWA_CON_AMP_EVA	57	Rpleas_acq	Same	Rpleas	Bmasked	CS_B	1pleas	distractor1	CONbeforeEVA	acq_US_unple_masked	acq3_masked	3	15	453	1	300	300	0	0	474	46	0	1	0	0	0	1	blank2r.bmp	0	1	+	0	5	C1r.bmp	492	1	blank2r.bmp	786	1	GKQX	786	1	blank2r.bmp	866	5	tyrannisch	866	1	!	1292	1	!	1372	0	0	0	0	0	0	0	0	0	0	0	0	0	0	0	0	0	0	0	0	0	0	0	0	0	0	0
011019	13:24:51	13:33:04	492356	5.0.10.0	4_exp_AWA_CON_AMP_EVA	57	Rpleas_acq	Same	Rpleas	Bmasked	CS_B	1pleas	distractor1	CONbeforeEVA	acq_US_pleas_masked	acq3_masked	3	16	453	0	300	300	0	0	356	50	0	1	0	0	0	1	blank2r.bmp	0	1	+	0	6	C2r.bmp	492	1	blank2r.bmp	786	1	BMVZ	786	1	blank2r.bmp	866	4	freundlich	866	1	!	-1	1	!	-1	0	0	0	0	0	0	0	0	0	0	0	0	0	0	0	0	0	0	0	0	0	0	0	0	0	0	0
011019	13:24:51	13:33:07	494675	5.0.10.0	4_exp_AWA_CON_AMP_EVA	57	Rpleas_acq	Same	Rpleas	Bmasked	CS_B	1pleas	distractor1	CONbeforeEVA	acq_US_pleas_masked	acq3_masked	3	17	453	0	300	300	0	0	317	46	0	0	0	0	0	1	blank2r.bmp	0	1	+	0	6	C2r.bmp	492	1	blank2r.bmp	786	1	BMVZ	786	1	blank2r.bmp	866	6	fair	866	1	FEHLER	1519	1	!	-1	1	!	-1	0	0	0	0	0	0	0	0	0	0	0	0	0	0	0	0	0	0	0	0	0	0	0	0
011019	13:24:51	13:33:09	496795	5.0.10.0	4_exp_AWA_CON_AMP_EVA	57	Rpleas_acq	Same	Rpleas	Bmasked	CS_B	1pleas	distractor1	CONbeforeEVA	acq_US_unple_masked	acq3_masked	3	18	453	0	300	300	0	0	569	46	0	1	0	0	0	1	blank2r.bmp	0	1	+	0	5	C1r.bmp	492	1	blank2r.bmp	786	1	GKQX	786	1	blank2r.bmp	866	4	fanatisch	866	1	!	1292	1	!	-1	0	0	0	0	0	0	0	0	0	0	0	0	0	0	0	0	0	0	0	0	0	0	0	0	0	0	0
011019	13:24:51	13:33:11	498914	5.0.10.0	4_exp_AWA_CON_AMP_EVA	57	Rpleas_acq	Same	Rpleas	Bmasked	CS_B	1pleas	distractor1	CONbeforeEVA	acq_US_pleas_masked	acq3_masked	3	19	453	0	300	300	0	0	322	50	0	1	0	0	0	1	blank2r.bmp	0	1	+	0	1	B1r.bmp	492	1	blank2r.bmp	786	1	BMVZ	786	1	blank2r.bmp	866	1	ehrlich	866	1	!	-1	1	!	-1	0	0	0	0	0	0	0	0	0	0	0	0	0	0	0	0	0	0	0	0	0	0	0	0	0	0	0
011019	13:24:51	13:33:14	501366	5.0.10.0	4_exp_AWA_CON_AMP_EVA	57	Rpleas_acq	Same	Rpleas	Bmasked	CS_B	1pleas	distractor1	CONbeforeEVA	acq_US_unple_masked	acq3_masked	3	20	453	1	300	300	0	0	438	50	0	0	0	0	0	1	blank2r.bmp	0	1	+	0	8	C4r.bmp	492	1	blank2r.bmp	786	1	GKQX	786	1	blank2r.bmp	866	1	eitel	866	1	FEHLER	1652	1	!	1292	1	!	1332	0	0	0	0	0	0	0	0	0	0	0	0	0	0	0	0	0	0	0	0	0	0	0	0
011019	13:24:51	13:33:16	503419	5.0.10.0	4_exp_AWA_CON_AMP_EVA	57	Rpleas_acq	Same	Rpleas	Bmasked	CS_B	1pleas	distractor1	CONbeforeEVA	acq_US_unple_masked	acq3_masked	3	21	453	1	300	300	0	0	469	46	0	1	0	0	0	1	blank2r.bmp	0	1	+	0	4	B4r.bmp	492	1	blank2r.bmp	786	1	GKQX	786	1	blank2r.bmp	866	6	faul	866	1	!	1292	1	!	1372	0	0	0	0	0	0	0	0	0	0	0	0	0	0	0	0	0	0	0	0	0	0	0	0	0	0	0
011019	13:24:51	13:33:18	505964	5.0.10.0	4_exp_AWA_CON_AMP_EVA	57	Rpleas_acq	Same	Rpleas	Bmasked	CS_B	1pleas	distractor1	CONbeforeEVA	acq_US_unple_masked	acq3_masked	3	22	453	0	300	300	0	0	546	50	0	0	0	0	0	1	blank2r.bmp	0	1	+	0	3	B3r.bmp	492	1	blank2r.bmp	786	1	GKQX	786	1	blank2r.bmp	866	3	schlecht	866	1	FEHLER	1759	1	!	1292	1	!	-1	0	0	0	0	0	0	0	0	0	0	0	0	0	0	0	0	0	0	0	0	0	0	0	0
011019	13:24:51	13:33:20	507990	5.0.10.0	4_exp_AWA_CON_AMP_EVA	57	Rpleas_acq	Same	Rpleas	Bmasked	CS_B	1pleas	distractor1	CONbeforeEVA	acq_US_pleas_masked	acq3_masked	3	23	453	1	300	300	0	0	447	50	0	1	0	0	0	1	blank2r.bmp	0	1	+	0	7	C3r.bmp	492	1	blank2r.bmp	786	1	BMVZ	786	1	blank2r.bmp	866	3	schön	866	1	!	1292	1	!	1346	0	0	0	0	0	0	0	0	0	0	0	0	0	0	0	0	0	0	0	0	0	0	0	0	0	0	0
011019	13:24:51	13:33:23	510522	5.0.10.0	4_exp_AWA_CON_AMP_EVA	57	Rpleas_acq	Same	Rpleas	Bmasked	CS_B	1pleas	distractor1	CONbeforeEVA	acq_US_unple_masked	acq3_masked	3	24	453	0	300	300	0	0	532	50	0	0	0	0	0	1	blank2r.bmp	0	1	+	0	2	B2r.bmp	492	1	blank2r.bmp	786	1	GKQX	786	1	blank2r.bmp	866	2	strafen	866	1	FEHLER	1745	1	!	1292	1	!	-1	0	0	0	0	0	0	0	0	0	0	0	0	0	0	0	0	0	0	0	0	0	0	0	0
011019	13:24:51	13:33:25	512601	5.0.10.0	4_exp_AWA_CON_AMP_EVA	57	Rpleas_acq	Same	Rpleas	Bmasked	CS_B	1pleas	distractor1	CONbeforeEVA	acq_US_pleas_masked	acq3_masked	3	25	453	1	300	300	0	0	493	50	0	1	0	0	0	1	blank2r.bmp	0	1	+	0	2	B2r.bmp	492	1	blank2r.bmp	786	1	BMVZ	786	1	blank2r.bmp	866	1	ehrlich	866	1	!	1292	1	!	1399	0	0	0	0	0	0	0	0	0	0	0	0	0	0	0	0	0	0	0	0	0	0	0	0	0	0	0
011019	13:24:51	13:33:27	514880	5.0.10.0	4_exp_AWA_CON_AMP_EVA	57	Rpleas_acq	Same	Rpleas	Bmasked	CS_B	1pleas	distractor1	CONbeforeEVA	acq_US_unple_masked	acq3_masked	3	26	453	1	300	300	0	0	478	46	0	1	0	0	0	1	blank2r.bmp	0	1	+	0	3	B3r.bmp	492	1	blank2r.bmp	786	1	GKQX	786	1	blank2r.bmp	866	3	schlecht	866	1	!	1292	1	!	1386	0	0	0	0	0	0	0	0	0	0	0	0	0	0	0	0	0	0	0	0	0	0	0	0	0	0	0
011019	13:24:51	13:33:30	517386	5.0.10.0	4_exp_AWA_CON_AMP_EVA	57	Rpleas_acq	Same	Rpleas	Bmasked	CS_B	1pleas	distractor1	CONbeforeEVA	acq_US_unple_masked	acq3_masked	3	27	453	1	300	300	0	0	495	50	0	0	0	0	0	1	blank2r.bmp	0	1	+	0	7	C3r.bmp	492	1	blank2r.bmp	786	1	GKQX	786	1	blank2r.bmp	866	4	fanatisch	866	1	FEHLER	1719	1	!	1292	1	!	1399	0	0	0	0	0	0	0	0	0	0	0	0	0	0	0	0	0	0	0	0	0	0	0	0
011019	13:24:51	13:33:32	519412	5.0.10.0	4_exp_AWA_CON_AMP_EVA	57	Rpleas_acq	Same	Rpleas	Bmasked	CS_B	1pleas	distractor1	CONbeforeEVA	acq_US_pleas_masked	acq3_masked	3	28	453	1	300	300	0	0	444	50	0	1	0	0	0	1	blank2r.bmp	0	1	+	0	5	C1r.bmp	492	1	blank2r.bmp	786	1	BMVZ	786	1	blank2r.bmp	866	6	fair	866	1	!	1292	1	!	1346	0	0	0	0	0	0	0	0	0	0	0	0	0	0	0	0	0	0	0	0	0	0	0	0	0	0	0
011019	13:24:51	13:33:34	521731	5.0.10.0	4_exp_AWA_CON_AMP_EVA	57	Rpleas_acq	Same	Rpleas	Bmasked	CS_B	1pleas	distractor1	CONbeforeEVA	acq_US_pleas_masked	acq3_masked	3	29	453	0	300	300	0	0	544	50	0	1	0	0	0	1	blank2r.bmp	0	1	+	0	4	B4r.bmp	492	1	blank2r.bmp	786	1	BMVZ	786	1	blank2r.bmp	866	4	freundlich	866	1	!	1292	1	!	-1	0	0	0	0	0	0	0	0	0	0	0	0	0	0	0	0	0	0	0	0	0	0	0	0	0	0	0
011019	13:24:51	13:33:36	523943	5.0.10.0	4_exp_AWA_CON_AMP_EVA	57	Rpleas_acq	Same	Rpleas	Bmasked	CS_B	1pleas	distractor1	CONbeforeEVA	acq_US_unple_masked	acq3_masked	3	30	453	1	300	300	0	0	400	46	0	1	0	0	0	1	blank2r.bmp	0	1	+	0	1	B1r.bmp	492	1	blank2r.bmp	786	1	GKQX	786	1	blank2r.bmp	866	2	strafen	866	1	!	1292	1	!	1306	0	0	0	0	0	0	0	0	0	0	0	0	0	0	0	0	0	0	0	0	0	0	0	0	0	0	0
011019	13:24:51	13:33:39	526422	5.0.10.0	4_exp_AWA_CON_AMP_EVA	57	Rpleas_acq	Same	Rpleas	Bmasked	CS_B	1pleas	distractor1	CONbeforeEVA	acq_US_pleas_masked	acq3_masked	3	31	453	1	300	300	0	0	477	46	0	0	0	0	0	1	blank2r.bmp	0	1	+	0	8	C4r.bmp	492	1	blank2r.bmp	786	1	BMVZ	786	1	blank2r.bmp	866	5	tolerant	866	1	FEHLER	1692	1	!	1292	1	!	1372	0	0	0	0	0	0	0	0	0	0	0	0	0	0	0	0	0	0	0	0	0	0	0	0
011019	13:24:51	13:33:41	528622	5.0.10.0	4_exp_AWA_CON_AMP_EVA	57	Rpleas_acq	Same	Rpleas	Bmasked	CS_B	1pleas	distractor1	CONbeforeEVA	acq_US_pleas_masked	acq3_masked	3	32	453	1	300	300	0	0	399	46	0	0	0	0	0	1	blank2r.bmp	0	1	+	0	6	C2r.bmp	492	1	blank2r.bmp	786	1	BMVZ	786	1	blank2r.bmp	866	3	schön	866	1	FEHLER	1625	1	!	1292	1	!	1306	0	0	0	0	0	0	0	0	0	0	0	0	0	0	0	0	0	0	0	0	0	0	0	0
011019	13:24:51	13:33:43	530634	5.0.10.0	4_exp_AWA_CON_AMP_EVA	57	Rpleas_acq	Same	Rpleas	Bmasked	CS_B	1pleas	distractor1	CONbeforeEVA	acq_US_unple_masked	acq3_masked	3	33	453	1	300	300	0	0	435	46	0	1	0	0	0	1	blank2r.bmp	0	1	+	0	7	C3r.bmp	492	1	blank2r.bmp	786	1	GKQX	786	1	blank2r.bmp	866	6	faul	866	1	!	1292	1	!	1332	0	0	0	0	0	0	0	0	0	0	0	0	0	0	0	0	0	0	0	0	0	0	0	0	0	0	0
011019	13:24:51	13:33:45	532900	5.0.10.0	4_exp_AWA_CON_AMP_EVA	57	Rpleas_acq	Same	Rpleas	Bmasked	CS_B	1pleas	distractor1	CONbeforeEVA	acq_US_unple_masked	acq3_masked	3	34	453	1	300	300	0	0	473	46	0	1	0	0	0	1	blank2r.bmp	0	1	+	0	3	B3r.bmp	492	1	blank2r.bmp	786	1	GKQX	786	1	blank2r.bmp	866	5	tyrannisch	866	1	!	1292	1	!	1372	0	0	0	0	0	0	0	0	0	0	0	0	0	0	0	0	0	0	0	0	0	0	0	0	0	0	0
011019	13:24:51	13:33:47	535112	5.0.10.0	4_exp_AWA_CON_AMP_EVA	57	Rpleas_acq	Same	Rpleas	Bmasked	CS_B	1pleas	distractor1	CONbeforeEVA	acq_US_pleas_masked	acq3_masked	3	35	453	1	300	300	0	0	421	50	0	1	0	0	0	1	blank2r.bmp	0	1	+	0	8	C4r.bmp	492	1	blank2r.bmp	786	1	BMVZ	786	1	blank2r.bmp	866	2	spielen	866	1	!	1292	1	!	1319	0	0	0	0	0	0	0	0	0	0	0	0	0	0	0	0	0	0	0	0	0	0	0	0	0	0	0
011019	13:24:51	13:33:50	537351	5.0.10.0	4_exp_AWA_CON_AMP_EVA	57	Rpleas_acq	Same	Rpleas	Bmasked	CS_B	1pleas	distractor1	CONbeforeEVA	acq_US_unple_masked	acq3_masked	3	36	453	1	300	300	0	0	440	46	0	1	0	0	0	1	blank2r.bmp	0	1	+	0	1	B1r.bmp	492	1	blank2r.bmp	786	1	GKQX	786	1	blank2r.bmp	866	1	eitel	866	1	!	1292	1	!	1346	0	0	0	0	0	0	0	0	0	0	0	0	0	0	0	0	0	0	0	0	0	0	0	0	0	0	0
011019	13:24:51	13:34:10	558036	5.0.10.0	4_exp_AWA_CON_AMP_EVA	57	Rpleas_acq	Same	Rpleas	Bmasked	CS_B	1pleas	distractor1	CONbeforeEVA	acq_US_pleas_masked	acq45_masked	4	1	400	1	300	300	0	0	437	50	0	1	0	0	0	1	blank2r.bmp	0	1	+	0	2	B2r.bmp	492	1	blank2r.bmp	786	1	BMVZ	786	1	blank2r.bmp	866	2	spielen	866	1	!	1239	1	!	1332	0	0	0	0	0	0	0	0	0	0	0	0	0	0	0	0	0	0	0	0	0	0	0	0	0	0	0
011019	13:24:51	13:34:12	560235	5.0.10.0	4_exp_AWA_CON_AMP_EVA	57	Rpleas_acq	Same	Rpleas	Bmasked	CS_B	1pleas	distractor1	CONbeforeEVA	acq_US_unple_masked	acq45_masked	4	2	400	1	300	300	0	0	389	46	0	1	0	0	0	1	blank2r.bmp	0	1	+	0	4	B4r.bmp	492	1	blank2r.bmp	786	1	GKQX	786	1	blank2r.bmp	866	3	schlecht	866	1	!	1239	1	!	1292	0	0	0	0	0	0	0	0	0	0	0	0	0	0	0	0	0	0	0	0	0	0	0	0	0	0	0
011019	13:24:51	13:34:15	562408	5.0.10.0	4_exp_AWA_CON_AMP_EVA	57	Rpleas_acq	Same	Rpleas	Bmasked	CS_B	1pleas	distractor1	CONbeforeEVA	acq_US_unple_masked	acq45_masked	4	3	400	1	300	300	0	0	359	50	0	0	0	0	0	1	blank2r.bmp	0	1	+	0	6	C2r.bmp	492	1	blank2r.bmp	786	1	GKQX	786	1	blank2r.bmp	866	1	eitel	866	1	!	1239	1	!	1266	0	0	0	0	0	0	0	0	0	0	0	0	0	0	0	0	0	0	0	0	0	0	0	0	0	0	0
011019	13:24:51	13:34:17	564607	5.0.10.0	4_exp_AWA_CON_AMP_EVA	57	Rpleas_acq	Same	Rpleas	Bmasked	CS_B	1pleas	distractor1	CONbeforeEVA	acq_US_pleas_masked	acq45_masked	4	4	400	1	300	300	0	0	399	50	0	1	0	0	0	1	blank2r.bmp	0	1	+	0	5	C1r.bmp	492	1	blank2r.bmp	786	1	BMVZ	786	1	blank2r.bmp	866	1	ehrlich	866	1	!	1239	1	!	1306	0	0	0	0	0	0	0	0	0	0	0	0	0	0	0	0	0	0	0	0	0	0	0	0	0	0	0
011019	13:24:51	13:34:19	566766	5.0.10.0	4_exp_AWA_CON_AMP_EVA	57	Rpleas_acq	Same	Rpleas	Bmasked	CS_B	1pleas	distractor1	CONbeforeEVA	acq_US_unple_masked	acq45_masked	4	5	400	1	300	300	0	0	371	46	0	1	0	0	0	1	blank2r.bmp	0	1	+	0	1	B1r.bmp	492	1	blank2r.bmp	786	1	GKQX	786	1	blank2r.bmp	866	5	tyrannisch	866	1	!	1239	1	!	1266	0	0	0	0	0	0	0	0	0	0	0	0	0	0	0	0	0	0	0	0	0	0	0	0	0	0	0
011019	13:24:51	13:34:21	568965	5.0.10.0	4_exp_AWA_CON_AMP_EVA	57	Rpleas_acq	Same	Rpleas	Bmasked	CS_B	1pleas	distractor1	CONbeforeEVA	acq_US_pleas_masked	acq45_masked	4	6	400	1	300	300	0	0	409	50	0	1	0	0	0	1	blank2r.bmp	0	1	+	0	2	B2r.bmp	492	1	blank2r.bmp	786	1	BMVZ	786	1	blank2r.bmp	866	5	tolerant	866	1	!	1239	1	!	1306	0	0	0	0	0	0	0	0	0	0	0	0	0	0	0	0	0	0	0	0	0	0	0	0	0	0	0
011019	13:24:51	13:34:23	571217	5.0.10.0	4_exp_AWA_CON_AMP_EVA	57	Rpleas_acq	Same	Rpleas	Bmasked	CS_B	1pleas	distractor1	CONbeforeEVA	acq_US_unple_masked	acq45_masked	4	7	400	1	300	300	0	0	456	50	0	0	0	0	0	1	blank2r.bmp	0	1	+	0	8	C4r.bmp	492	1	blank2r.bmp	786	1	GKQX	786	1	blank2r.bmp	866	2	strafen	866	1	!	1239	1	!	1359	0	0	0	0	0	0	0	0	0	0	0	0	0	0	0	0	0	0	0	0	0	0	0	0	0	0	0
011019	13:24:51	13:34:26	573443	5.0.10.0	4_exp_AWA_CON_AMP_EVA	57	Rpleas_acq	Same	Rpleas	Bmasked	CS_B	1pleas	distractor1	CONbeforeEVA	acq_US_pleas_masked	acq45_masked	4	8	400	1	300	300	0	0	416	46	0	0	0	0	0	1	blank2r.bmp	0	1	+	0	5	C1r.bmp	492	1	blank2r.bmp	786	1	BMVZ	786	1	blank2r.bmp	866	6	fair	866	1	!	1239	1	!	1319	0	0	0	0	0	0	0	0	0	0	0	0	0	0	0	0	0	0	0	0	0	0	0	0	0	0	0
011019	13:24:51	13:34:28	575669	5.0.10.0	4_exp_AWA_CON_AMP_EVA	57	Rpleas_acq	Same	Rpleas	Bmasked	CS_B	1pleas	distractor1	CONbeforeEVA	acq_US_pleas_masked	acq45_masked	4	9	400	1	300	300	0	0	427	50	0	1	0	0	0	1	blank2r.bmp	0	1	+	0	4	B4r.bmp	492	1	blank2r.bmp	786	1	BMVZ	786	1	blank2r.bmp	866	4	freundlich	866	1	!	1239	1	!	1332	0	0	0	0	0	0	0	0	0	0	0	0	0	0	0	0	0	0	0	0	0	0	0	0	0	0	0
011019	13:24:51	13:34:30	577921	5.0.10.0	4_exp_AWA_CON_AMP_EVA	57	Rpleas_acq	Same	Rpleas	Bmasked	CS_B	1pleas	distractor1	CONbeforeEVA	acq_US_unple_masked	acq45_masked	4	10	400	0	300	300	0	0	487	46	0	1	0	0	0	1	blank2r.bmp	0	1	+	0	3	B3r.bmp	492	1	blank2r.bmp	786	1	GKQX	786	1	blank2r.bmp	866	4	fanatisch	866	1	!	1239	1	!	-1	0	0	0	0	0	0	0	0	0	0	0	0	0	0	0	0	0	0	0	0	0	0	0	0	0	0	0
011019	13:24:51	13:34:32	580094	5.0.10.0	4_exp_AWA_CON_AMP_EVA	57	Rpleas_acq	Same	Rpleas	Bmasked	CS_B	1pleas	distractor1	CONbeforeEVA	acq_US_unple_masked	acq45_masked	4	11	400	1	300	300	0	0	366	46	0	1	0	0	0	1	blank2r.bmp	0	1	+	0	6	C2r.bmp	492	1	blank2r.bmp	786	1	GKQX	786	1	blank2r.bmp	866	6	faul	866	1	!	1239	1	!	1266	0	0	0	0	0	0	0	0	0	0	0	0	0	0	0	0	0	0	0	0	0	0	0	0	0	0	0
011019	13:24:51	13:34:34	582173	5.0.10.0	4_exp_AWA_CON_AMP_EVA	57	Rpleas_acq	Same	Rpleas	Bmasked	CS_B	1pleas	distractor1	CONbeforeEVA	acq_US_pleas_masked	acq45_masked	4	12	400	0	300	300	0	0	316	50	0	1	0	0	0	1	blank2r.bmp	0	1	+	0	7	C3r.bmp	492	1	blank2r.bmp	786	1	BMVZ	786	1	blank2r.bmp	866	3	schön	866	1	!	-1	1	!	-1	0	0	0	0	0	0	0	0	0	0	0	0	0	0	0	0	0	0	0	0	0	0	0	0	0	0	0
011019	13:24:51	13:34:36	584265	5.0.10.0	4_exp_AWA_CON_AMP_EVA	57	Rpleas_acq	Same	Rpleas	Bmasked	CS_B	1pleas	distractor1	CONbeforeEVA	acq_US_unple_masked	acq45_masked	4	13	400	0	300	300	0	0	303	46	0	1	0	0	0	1	blank2r.bmp	0	1	+	0	2	B2r.bmp	492	1	blank2r.bmp	786	1	GKQX	786	1	blank2r.bmp	866	4	fanatisch	866	1	!	-1	1	!	-1	0	0	0	0	0	0	0	0	0	0	0	0	0	0	0	0	0	0	0	0	0	0	0	0	0	0	0
011019	13:24:51	13:34:38	586344	5.0.10.0	4_exp_AWA_CON_AMP_EVA	57	Rpleas_acq	Same	Rpleas	Bmasked	CS_B	1pleas	distractor1	CONbeforeEVA	acq_US_pleas_masked	acq45_masked	4	14	400	0	300	300	0	0	298	50	0	1	0	0	0	1	blank2r.bmp	0	1	+	0	7	C3r.bmp	492	1	blank2r.bmp	786	1	BMVZ	786	1	blank2r.bmp	866	4	freundlich	866	1	!	-1	1	!	-1	0	0	0	0	0	0	0	0	0	0	0	0	0	0	0	0	0	0	0	0	0	0	0	0	0	0	0
011019	13:24:51	13:34:41	588557	5.0.10.0	4_exp_AWA_CON_AMP_EVA	57	Rpleas_acq	Same	Rpleas	Bmasked	CS_B	1pleas	distractor1	CONbeforeEVA	acq_US_pleas_masked	acq45_masked	4	15	400	1	300	300	0	0	399	46	0	0	0	0	0	1	blank2r.bmp	0	1	+	0	6	C2r.bmp	492	1	blank2r.bmp	786	1	BMVZ	786	1	blank2r.bmp	866	5	tolerant	866	1	!	1239	1	!	1306	0	0	0	0	0	0	0	0	0	0	0	0	0	0	0	0	0	0	0	0	0	0	0	0	0	0	0
011019	13:24:51	13:34:43	590756	5.0.10.0	4_exp_AWA_CON_AMP_EVA	57	Rpleas_acq	Same	Rpleas	Bmasked	CS_B	1pleas	distractor1	CONbeforeEVA	acq_US_unple_masked	acq45_masked	4	16	400	1	300	300	0	0	407	46	0	1	0	0	0	1	blank2r.bmp	0	1	+	0	5	C1r.bmp	492	1	blank2r.bmp	786	1	GKQX	786	1	blank2r.bmp	866	5	tyrannisch	866	1	!	1239	1	!	1306	0	0	0	0	0	0	0	0	0	0	0	0	0	0	0	0	0	0	0	0	0	0	0	0	0	0	0
011019	13:24:51	13:34:45	593008	5.0.10.0	4_exp_AWA_CON_AMP_EVA	57	Rpleas_acq	Same	Rpleas	Bmasked	CS_B	1pleas	distractor1	CONbeforeEVA	acq_US_pleas_masked	acq45_masked	4	17	400	0	300	300	0	0	479	50	0	1	0	0	0	1	blank2r.bmp	0	1	+	0	4	B4r.bmp	492	1	blank2r.bmp	786	1	BMVZ	786	1	blank2r.bmp	866	2	spielen	866	1	!	1239	1	!	-1	0	0	0	0	0	0	0	0	0	0	0	0	0	0	0	0	0	0	0	0	0	0	0	0	0	0	0
011019	13:24:51	13:34:47	595181	5.0.10.0	4_exp_AWA_CON_AMP_EVA	57	Rpleas_acq	Same	Rpleas	Bmasked	CS_B	1pleas	distractor1	CONbeforeEVA	acq_US_unple_masked	acq45_masked	4	18	400	1	300	300	0	0	372	46	0	1	0	0	0	1	blank2r.bmp	0	1	+	0	1	B1r.bmp	492	1	blank2r.bmp	786	1	GKQX	786	1	blank2r.bmp	866	1	eitel	866	1	!	1239	1	!	1266	0	0	0	0	0	0	0	0	0	0	0	0	0	0	0	0	0	0	0	0	0	0	0	0	0	0	0
011019	13:24:51	13:34:49	597340	5.0.10.0	4_exp_AWA_CON_AMP_EVA	57	Rpleas_acq	Same	Rpleas	Bmasked	CS_B	1pleas	distractor1	CONbeforeEVA	acq_US_pleas_masked	acq45_masked	4	19	400	1	300	300	0	0	346	50	0	1	0	0	0	1	blank2r.bmp	0	1	+	0	3	B3r.bmp	492	1	blank2r.bmp	786	1	BMVZ	786	1	blank2r.bmp	866	1	ehrlich	866	1	!	1239	1	!	1252	0	0	0	0	0	0	0	0	0	0	0	0	0	0	0	0	0	0	0	0	0	0	0	0	0	0	0
011019	13:24:51	13:34:52	599592	5.0.10.0	4_exp_AWA_CON_AMP_EVA	57	Rpleas_acq	Same	Rpleas	Bmasked	CS_B	1pleas	distractor1	CONbeforeEVA	acq_US_unple_masked	acq45_masked	4	20	400	0	300	300	0	0	479	46	0	1	0	0	0	1	blank2r.bmp	0	1	+	0	8	C4r.bmp	492	1	blank2r.bmp	786	1	GKQX	786	1	blank2r.bmp	866	2	strafen	866	1	!	1239	1	!	-1	0	0	0	0	0	0	0	0	0	0	0	0	0	0	0	0	0	0	0	0	0	0	0	0	0	0	0
011019	13:24:51	13:34:54	601791	5.0.10.0	4_exp_AWA_CON_AMP_EVA	57	Rpleas_acq	Same	Rpleas	Bmasked	CS_B	1pleas	distractor1	CONbeforeEVA	acq_US_unple_masked	acq45_masked	4	21	400	1	300	300	0	0	390	50	0	0	0	0	0	1	blank2r.bmp	0	1	+	0	3	B3r.bmp	492	1	blank2r.bmp	786	1	GKQX	786	1	blank2r.bmp	866	6	faul	866	1	!	1239	1	!	1292	0	0	0	0	0	0	0	0	0	0	0	0	0	0	0	0	0	0	0	0	0	0	0	0	0	0	0
011019	13:24:51	13:34:56	604044	5.0.10.0	4_exp_AWA_CON_AMP_EVA	57	Rpleas_acq	Same	Rpleas	Bmasked	CS_B	1pleas	distractor1	CONbeforeEVA	acq_US_pleas_masked	acq45_masked	4	22	400	0	300	300	0	0	486	50	0	1	0	0	0	1	blank2r.bmp	0	1	+	0	6	C2r.bmp	492	1	blank2r.bmp	786	1	BMVZ	786	1	blank2r.bmp	866	6	fair	866	1	!	1239	1	!	-1	0	0	0	0	0	0	0	0	0	0	0	0	0	0	0	0	0	0	0	0	0	0	0	0	0	0	0
011019	13:24:51	13:34:58	606256	5.0.10.0	4_exp_AWA_CON_AMP_EVA	57	Rpleas_acq	Same	Rpleas	Bmasked	CS_B	1pleas	distractor1	CONbeforeEVA	acq_US_unple_masked	acq45_masked	4	23	400	1	300	300	0	0	394	46	0	1	0	0	0	1	blank2r.bmp	0	1	+	0	5	C1r.bmp	492	1	blank2r.bmp	786	1	GKQX	786	1	blank2r.bmp	866	3	schlecht	866	1	!	1239	1	!	1292	0	0	0	0	0	0	0	0	0	0	0	0	0	0	0	0	0	0	0	0	0	0	0	0	0	0	0
011019	13:24:51	13:35:01	608415	5.0.10.0	4_exp_AWA_CON_AMP_EVA	57	Rpleas_acq	Same	Rpleas	Bmasked	CS_B	1pleas	distractor1	CONbeforeEVA	acq_US_unple_masked	acq45_masked	4	24	400	1	300	300	0	0	354	50	0	0	0	0	0	1	blank2r.bmp	0	1	+	0	8	C4r.bmp	492	1	blank2r.bmp	786	1	GKQX	786	1	blank2r.bmp	866	1	eitel	866	1	!	1239	1	!	1252	0	0	0	0	0	0	0	0	0	0	0	0	0	0	0	0	0	0	0	0	0	0	0	0	0	0	0
011019	13:24:51	13:35:03	610614	5.0.10.0	4_exp_AWA_CON_AMP_EVA	57	Rpleas_acq	Same	Rpleas	Bmasked	CS_B	1pleas	distractor1	CONbeforeEVA	acq_US_unple_masked	acq45_masked	4	25	400	1	300	300	0	0	408	46	0	1	0	0	0	1	blank2r.bmp	0	1	+	0	4	B4r.bmp	492	1	blank2r.bmp	786	1	GKQX	786	1	blank2r.bmp	866	5	tyrannisch	866	1	!	1239	1	!	1306	0	0	0	0	0	0	0	0	0	0	0	0	0	0	0	0	0	0	0	0	0	0	0	0	0	0	0
011019	13:24:51	13:35:05	612827	5.0.10.0	4_exp_AWA_CON_AMP_EVA	57	Rpleas_acq	Same	Rpleas	Bmasked	CS_B	1pleas	distractor1	CONbeforeEVA	acq_US_pleas_masked	acq45_masked	4	26	400	1	300	300	0	0	414	50	0	1	0	0	0	1	blank2r.bmp	0	1	+	0	1	B1r.bmp	492	1	blank2r.bmp	786	1	BMVZ	786	1	blank2r.bmp	866	3	schön	866	1	!	1239	1	!	1319	0	0	0	0	0	0	0	0	0	0	0	0	0	0	0	0	0	0	0	0	0	0	0	0	0	0	0
011019	13:24:51	13:35:07	615013	5.0.10.0	4_exp_AWA_CON_AMP_EVA	57	Rpleas_acq	Same	Rpleas	Bmasked	CS_B	1pleas	distractor1	CONbeforeEVA	acq_US_pleas_masked	acq45_masked	4	27	400	1	300	300	0	0	389	46	0	0	0	0	0	1	blank2r.bmp	0	1	+	0	2	B2r.bmp	492	1	blank2r.bmp	786	1	BMVZ	786	1	blank2r.bmp	866	5	tolerant	866	1	!	1239	1	!	1292	0	0	0	0	0	0	0	0	0	0	0	0	0	0	0	0	0	0	0	0	0	0	0	0	0	0	0
011019	13:24:51	13:35:09	617212	5.0.10.0	4_exp_AWA_CON_AMP_EVA	57	Rpleas_acq	Same	Rpleas	Bmasked	CS_B	1pleas	distractor1	CONbeforeEVA	acq_US_unple_masked	acq45_masked	4	28	400	1	300	300	0	0	409	50	0	0	0	0	0	1	blank2r.bmp	0	1	+	0	7	C3r.bmp	492	1	blank2r.bmp	786	1	GKQX	786	1	blank2r.bmp	866	4	fanatisch	866	1	!	1239	1	!	1306	0	0	0	0	0	0	0	0	0	0	0	0	0	0	0	0	0	0	0	0	0	0	0	0	0	0	0
011019	13:24:51	13:35:12	619397	5.0.10.0	4_exp_AWA_CON_AMP_EVA	57	Rpleas_acq	Same	Rpleas	Bmasked	CS_B	1pleas	distractor1	CONbeforeEVA	acq_US_pleas_masked	acq45_masked	4	29	400	1	300	300	0	0	386	50	0	1	0	0	0	1	blank2r.bmp	0	1	+	0	2	B2r.bmp	492	1	blank2r.bmp	786	1	BMVZ	786	1	blank2r.bmp	866	2	spielen	866	1	!	1239	1	!	1292	0	0	0	0	0	0	0	0	0	0	0	0	0	0	0	0	0	0	0	0	0	0	0	0	0	0	0
011019	13:24:51	13:35:14	621623	5.0.10.0	4_exp_AWA_CON_AMP_EVA	57	Rpleas_acq	Same	Rpleas	Bmasked	CS_B	1pleas	distractor1	CONbeforeEVA	acq_US_pleas_masked	acq45_masked	4	30	400	1	300	300	0	0	432	46	0	0	0	0	0	1	blank2r.bmp	0	1	+	0	7	C3r.bmp	492	1	blank2r.bmp	786	1	BMVZ	786	1	blank2r.bmp	866	1	ehrlich	866	1	!	1239	1	!	1332	0	0	0	0	0	0	0	0	0	0	0	0	0	0	0	0	0	0	0	0	0	0	0	0	0	0	0
011019	13:24:51	13:35:16	623836	5.0.10.0	4_exp_AWA_CON_AMP_EVA	57	Rpleas_acq	Same	Rpleas	Bmasked	CS_B	1pleas	distractor1	CONbeforeEVA	acq_US_unple_masked	acq45_masked	4	31	400	1	300	300	0	0	412	50	0	0	0	0	0	1	blank2r.bmp	0	1	+	0	4	B4r.bmp	492	1	blank2r.bmp	786	1	GKQX	786	1	blank2r.bmp	866	6	faul	866	1	!	1239	1	!	1319	0	0	0	0	0	0	0	0	0	0	0	0	0	0	0	0	0	0	0	0	0	0	0	0	0	0	0
011019	13:24:51	13:35:18	625981	5.0.10.0	4_exp_AWA_CON_AMP_EVA	57	Rpleas_acq	Same	Rpleas	Bmasked	CS_B	1pleas	distractor1	CONbeforeEVA	acq_US_unple_masked	acq45_masked	4	32	400	1	300	300	0	0	358	46	0	1	0	0	0	1	blank2r.bmp	0	1	+	0	5	C1r.bmp	492	1	blank2r.bmp	786	1	GKQX	786	1	blank2r.bmp	866	3	schlecht	866	1	!	1239	1	!	1252	0	0	0	0	0	0	0	0	0	0	0	0	0	0	0	0	0	0	0	0	0	0	0	0	0	0	0
011019	13:24:51	13:35:20	628154	5.0.10.0	4_exp_AWA_CON_AMP_EVA	57	Rpleas_acq	Same	Rpleas	Bmasked	CS_B	1pleas	distractor1	CONbeforeEVA	acq_US_pleas_masked	acq45_masked	4	33	400	1	300	300	0	0	375	50	0	1	0	0	0	1	blank2r.bmp	0	1	+	0	3	B3r.bmp	492	1	blank2r.bmp	786	1	BMVZ	786	1	blank2r.bmp	866	3	schön	866	1	!	1239	1	!	1279	0	0	0	0	0	0	0	0	0	0	0	0	0	0	0	0	0	0	0	0	0	0	0	0	0	0	0
011019	13:24:51	13:35:23	630420	5.0.10.0	4_exp_AWA_CON_AMP_EVA	57	Rpleas_acq	Same	Rpleas	Bmasked	CS_B	1pleas	distractor1	CONbeforeEVA	acq_US_pleas_masked	acq45_masked	4	34	400	0	300	300	0	0	499	50	0	1	0	0	0	1	blank2r.bmp	0	1	+	0	6	C2r.bmp	492	1	blank2r.bmp	786	1	BMVZ	786	1	blank2r.bmp	866	4	freundlich	866	1	!	1239	1	!	-1	0	0	0	0	0	0	0	0	0	0	0	0	0	0	0	0	0	0	0	0	0	0	0	0	0	0	0
011019	13:24:51	13:35:25	632605	5.0.10.0	4_exp_AWA_CON_AMP_EVA	57	Rpleas_acq	Same	Rpleas	Bmasked	CS_B	1pleas	distractor1	CONbeforeEVA	acq_US_pleas_masked	acq45_masked	4	35	400	1	300	300	0	0	379	50	0	1	0	0	0	1	blank2r.bmp	0	1	+	0	1	B1r.bmp	492	1	blank2r.bmp	786	1	BMVZ	786	1	blank2r.bmp	866	6	fair	866	1	!	1239	1	!	1279	0	0	0	0	0	0	0	0	0	0	0	0	0	0	0	0	0	0	0	0	0	0	0	0	0	0	0
011019	13:24:51	13:35:27	634858	5.0.10.0	4_exp_AWA_CON_AMP_EVA	57	Rpleas_acq	Same	Rpleas	Bmasked	CS_B	1pleas	distractor1	CONbeforeEVA	acq_US_unple_masked	acq45_masked	4	36	400	1	300	300	0	0	459	46	0	1	0	0	0	1	blank2r.bmp	0	1	+	0	8	C4r.bmp	492	1	blank2r.bmp	786	1	GKQX	786	1	blank2r.bmp	866	2	strafen	866	1	!	1239	1	!	1359	0	0	0	0	0	0	0	0	0	0	0	0	0	0	0	0	0	0	0	0	0	0	0	0	0	0	0
011019	13:24:51	13:35:41	649065	5.0.10.0	4_exp_AWA_CON_AMP_EVA	57	Rpleas_acq	Same	Rpleas	Bmasked	CS_B	1pleas	distractor1	CONbeforeEVA	acq_US_unple_masked	acq45_masked	5	1	400	1	300	300	0	0	453	46	0	1	0	0	0	1	blank2r.bmp	0	1	+	0	7	C3r.bmp	492	1	blank2r.bmp	786	1	GKQX	786	1	blank2r.bmp	866	5	tyrannisch	866	1	!	1239	1	!	1359	0	0	0	0	0	0	0	0	0	0	0	0	0	0	0	0	0	0	0	0	0	0	0	0	0	0	0
011019	13:24:51	13:35:43	651264	5.0.10.0	4_exp_AWA_CON_AMP_EVA	57	Rpleas_acq	Same	Rpleas	Bmasked	CS_B	1pleas	distractor1	CONbeforeEVA	acq_US_unple_masked	acq45_masked	5	2	400	1	300	300	0	0	410	46	0	1	0	0	0	1	blank2r.bmp	0	1	+	0	3	B3r.bmp	492	1	blank2r.bmp	786	1	GKQX	786	1	blank2r.bmp	866	6	faul	866	1	!	1239	1	!	1306	0	0	0	0	0	0	0	0	0	0	0	0	0	0	0	0	0	0	0	0	0	0	0	0	0	0	0
011019	13:24:51	13:35:46	653423	5.0.10.0	4_exp_AWA_CON_AMP_EVA	57	Rpleas_acq	Same	Rpleas	Bmasked	CS_B	1pleas	distractor1	CONbeforeEVA	acq_US_pleas_masked	acq45_masked	5	3	400	1	300	300	0	0	361	50	0	1	0	0	0	1	blank2r.bmp	0	1	+	0	4	B4r.bmp	492	1	blank2r.bmp	786	1	BMVZ	786	1	blank2r.bmp	866	3	schön	866	1	!	1239	1	!	1266	0	0	0	0	0	0	0	0	0	0	0	0	0	0	0	0	0	0	0	0	0	0	0	0	0	0	0
011019	13:24:51	13:35:48	655596	5.0.10.0	4_exp_AWA_CON_AMP_EVA	57	Rpleas_acq	Same	Rpleas	Bmasked	CS_B	1pleas	distractor1	CONbeforeEVA	acq_US_pleas_masked	acq45_masked	5	4	400	1	300	300	0	0	378	50	0	1	0	0	0	1	blank2r.bmp	0	1	+	0	8	C4r.bmp	492	1	blank2r.bmp	786	1	BMVZ	786	1	blank2r.bmp	866	5	tolerant	866	1	!	1239	1	!	1279	0	0	0	0	0	0	0	0	0	0	0	0	0	0	0	0	0	0	0	0	0	0	0	0	0	0	0
011019	13:24:51	13:35:50	657768	5.0.10.0	4_exp_AWA_CON_AMP_EVA	57	Rpleas_acq	Same	Rpleas	Bmasked	CS_B	1pleas	distractor1	CONbeforeEVA	acq_US_unple_masked	acq45_masked	5	5	400	1	300	300	0	0	378	46	0	1	0	0	0	1	blank2r.bmp	0	1	+	0	2	B2r.bmp	492	1	blank2r.bmp	786	1	GKQX	786	1	blank2r.bmp	866	4	fanatisch	866	1	!	1239	1	!	1279	0	0	0	0	0	0	0	0	0	0	0	0	0	0	0	0	0	0	0	0	0	0	0	0	0	0	0
011019	13:24:51	13:35:52	659954	5.0.10.0	4_exp_AWA_CON_AMP_EVA	57	Rpleas_acq	Same	Rpleas	Bmasked	CS_B	1pleas	distractor1	CONbeforeEVA	acq_US_unple_masked	acq45_masked	5	6	400	1	300	300	0	0	393	46	0	1	0	0	0	1	blank2r.bmp	0	1	+	0	6	C2r.bmp	492	1	blank2r.bmp	786	1	GKQX	786	1	blank2r.bmp	866	1	eitel	866	1	!	1239	1	!	1292	0	0	0	0	0	0	0	0	0	0	0	0	0	0	0	0	0	0	0	0	0	0	0	0	0	0	0
011019	13:24:51	13:35:54	662140	5.0.10.0	4_exp_AWA_CON_AMP_EVA	57	Rpleas_acq	Same	Rpleas	Bmasked	CS_B	1pleas	distractor1	CONbeforeEVA	acq_US_unple_masked	acq45_masked	5	7	400	1	300	300	0	0	393	50	0	0	0	0	0	1	blank2r.bmp	0	1	+	0	1	B1r.bmp	492	1	blank2r.bmp	786	1	GKQX	786	1	blank2r.bmp	866	2	strafen	866	1	!	1239	1	!	1292	0	0	0	0	0	0	0	0	0	0	0	0	0	0	0	0	0	0	0	0	0	0	0	0	0	0	0
011019	13:24:51	13:35:56	664339	5.0.10.0	4_exp_AWA_CON_AMP_EVA	57	Rpleas_acq	Same	Rpleas	Bmasked	CS_B	1pleas	distractor1	CONbeforeEVA	acq_US_pleas_masked	acq45_masked	5	8	400	1	300	300	0	0	407	50	0	1	0	0	0	1	blank2r.bmp	0	1	+	0	5	C1r.bmp	492	1	blank2r.bmp	786	1	BMVZ	786	1	blank2r.bmp	866	1	ehrlich	866	1	!	1239	1	!	1306	0	0	0	0	0	0	0	0	0	0	0	0	0	0	0	0	0	0	0	0	0	0	0	0	0	0	0
011019	13:24:51	13:35:59	666591	5.0.10.0	4_exp_AWA_CON_AMP_EVA	57	Rpleas_acq	Same	Rpleas	Bmasked	CS_B	1pleas	distractor1	CONbeforeEVA	acq_US_pleas_masked	acq45_masked	5	9	400	0	300	300	0	0	485	50	0	1	0	0	0	1	blank2r.bmp	0	1	+	0	3	B3r.bmp	492	1	blank2r.bmp	786	1	BMVZ	786	1	blank2r.bmp	866	4	freundlich	866	1	!	1239	1	!	-1	0	0	0	0	0	0	0	0	0	0	0	0	0	0	0	0	0	0	0	0	0	0	0	0	0	0	0
011019	13:24:51	13:36:01	668671	5.0.10.0	4_exp_AWA_CON_AMP_EVA	57	Rpleas_acq	Same	Rpleas	Bmasked	CS_B	1pleas	distractor1	CONbeforeEVA	acq_US_pleas_masked	acq45_masked	5	10	400	0	300	300	0	0	302	46	0	0	0	0	0	1	blank2r.bmp	0	1	+	0	1	B1r.bmp	492	1	blank2r.bmp	786	1	BMVZ	786	1	blank2r.bmp	866	6	fair	866	1	!	-1	1	!	-1	0	0	0	0	0	0	0	0	0	0	0	0	0	0	0	0	0	0	0	0	0	0	0	0	0	0	0
011019	13:24:51	13:36:03	670856	5.0.10.0	4_exp_AWA_CON_AMP_EVA	57	Rpleas_acq	Same	Rpleas	Bmasked	CS_B	1pleas	distractor1	CONbeforeEVA	acq_US_unple_masked	acq45_masked	5	11	400	1	300	300	0	0	377	50	0	0	0	0	0	1	blank2r.bmp	0	1	+	0	2	B2r.bmp	492	1	blank2r.bmp	786	1	GKQX	786	1	blank2r.bmp	866	3	schlecht	866	1	!	1239	1	!	1279	0	0	0	0	0	0	0	0	0	0	0	0	0	0	0	0	0	0	0	0	0	0	0	0	0	0	0
011019	13:24:51	13:36:05	673002	5.0.10.0	4_exp_AWA_CON_AMP_EVA	57	Rpleas_acq	Same	Rpleas	Bmasked	CS_B	1pleas	distractor1	CONbeforeEVA	acq_US_pleas_masked	acq45_masked	5	12	400	1	300	300	0	0	356	50	0	1	0	0	0	1	blank2r.bmp	0	1	+	0	4	B4r.bmp	492	1	blank2r.bmp	786	1	BMVZ	786	1	blank2r.bmp	866	2	spielen	866	1	!	1239	1	!	1252	0	0	0	0	0	0	0	0	0	0	0	0	0	0	0	0	0	0	0	0	0	0	0	0	0	0	0
011019	13:24:51	13:36:07	675201	5.0.10.0	4_exp_AWA_CON_AMP_EVA	57	Rpleas_acq	Same	Rpleas	Bmasked	CS_B	1pleas	distractor1	CONbeforeEVA	acq_US_pleas_masked	acq45_masked	5	13	400	1	300	300	0	0	410	46	0	0	0	0	0	1	blank2r.bmp	0	1	+	0	8	C4r.bmp	492	1	blank2r.bmp	786	1	BMVZ	786	1	blank2r.bmp	866	1	ehrlich	866	1	!	1239	1	!	1306	0	0	0	0	0	0	0	0	0	0	0	0	0	0	0	0	0	0	0	0	0	0	0	0	0	0	0
011019	13:24:51	13:36:10	677360	5.0.10.0	4_exp_AWA_CON_AMP_EVA	57	Rpleas_acq	Same	Rpleas	Bmasked	CS_B	1pleas	distractor1	CONbeforeEVA	acq_US_unple_masked	acq45_masked	5	14	400	1	300	300	0	0	362	46	0	1	0	0	0	1	blank2r.bmp	0	1	+	0	6	C2r.bmp	492	1	blank2r.bmp	786	1	GKQX	786	1	blank2r.bmp	866	3	schlecht	866	1	!	1239	1	!	1266	0	0	0	0	0	0	0	0	0	0	0	0	0	0	0	0	0	0	0	0	0	0	0	0	0	0	0
011019	13:24:51	13:36:12	679559	5.0.10.0	4_exp_AWA_CON_AMP_EVA	57	Rpleas_acq	Same	Rpleas	Bmasked	CS_B	1pleas	distractor1	CONbeforeEVA	acq_US_pleas_masked	acq45_masked	5	15	400	1	300	300	0	0	397	50	0	1	0	0	0	1	blank2r.bmp	0	1	+	0	7	C3r.bmp	492	1	blank2r.bmp	786	1	BMVZ	786	1	blank2r.bmp	866	2	spielen	866	1	!	1239	1	!	1292	0	0	0	0	0	0	0	0	0	0	0	0	0	0	0	0	0	0	0	0	0	0	0	0	0	0	0
011019	13:24:51	13:36:14	682092	5.0.10.0	4_exp_AWA_CON_AMP_EVA	57	Rpleas_acq	Same	Rpleas	Bmasked	CS_B	1pleas	distractor1	CONbeforeEVA	acq_US_pleas_masked	acq45_masked	5	16	400	0	300	300	0	0	755	50	0	1	0	0	0	1	blank2r.bmp	0	1	+	0	5	C1r.bmp	492	1	blank2r.bmp	786	1	BMVZ	786	1	blank2r.bmp	866	3	schön	866	1	!	1239	1	!	-1	0	0	0	0	0	0	0	0	0	0	0	0	0	0	0	0	0	0	0	0	0	0	0	0	0	0	0
011019	13:24:51	13:36:16	684197	5.0.10.0	4_exp_AWA_CON_AMP_EVA	57	Rpleas_acq	Same	Rpleas	Bmasked	CS_B	1pleas	distractor1	CONbeforeEVA	acq_US_unple_masked	acq45_masked	5	17	400	0	300	300	0	0	324	46	0	1	0	0	0	1	blank2r.bmp	0	1	+	0	5	C1r.bmp	492	1	blank2r.bmp	786	1	GKQX	786	1	blank2r.bmp	866	6	faul	866	1	!	-1	1	!	-1	0	0	0	0	0	0	0	0	0	0	0	0	0	0	0	0	0	0	0	0	0	0	0	0	0	0	0
011019	13:24:51	13:36:18	686277	5.0.10.0	4_exp_AWA_CON_AMP_EVA	57	Rpleas_acq	Same	Rpleas	Bmasked	CS_B	1pleas	distractor1	CONbeforeEVA	acq_US_unple_masked	acq45_masked	5	18	400	0	300	300	0	0	299	50	0	0	0	0	0	1	blank2r.bmp	0	1	+	0	2	B2r.bmp	492	1	blank2r.bmp	786	1	GKQX	786	1	blank2r.bmp	866	4	fanatisch	866	1	!	-1	1	!	-1	0	0	0	0	0	0	0	0	0	0	0	0	0	0	0	0	0	0	0	0	0	0	0	0	0	0	0
011019	13:24:51	13:36:21	688476	5.0.10.0	4_exp_AWA_CON_AMP_EVA	57	Rpleas_acq	Same	Rpleas	Bmasked	CS_B	1pleas	distractor1	CONbeforeEVA	acq_US_unple_masked	acq45_masked	5	19	400	1	300	300	0	0	389	46	0	1	0	0	0	1	blank2r.bmp	0	1	+	0	4	B4r.bmp	492	1	blank2r.bmp	786	1	GKQX	786	1	blank2r.bmp	866	5	tyrannisch	866	1	!	1239	1	!	1292	0	0	0	0	0	0	0	0	0	0	0	0	0	0	0	0	0	0	0	0	0	0	0	0	0	0	0
011019	13:24:51	13:36:23	690848	5.0.10.0	4_exp_AWA_CON_AMP_EVA	57	Rpleas_acq	Same	Rpleas	Bmasked	CS_B	1pleas	distractor1	CONbeforeEVA	acq_US_unple_masked	acq45_masked	5	20	400	0	300	300	0	0	599	46	0	1	0	0	0	1	blank2r.bmp	0	1	+	0	7	C3r.bmp	492	1	blank2r.bmp	786	1	GKQX	786	1	blank2r.bmp	866	1	eitel	866	1	!	1239	1	!	-1	0	0	0	0	0	0	0	0	0	0	0	0	0	0	0	0	0	0	0	0	0	0	0	0	0	0	0
011019	13:24:51	13:36:25	693007	5.0.10.0	4_exp_AWA_CON_AMP_EVA	57	Rpleas_acq	Same	Rpleas	Bmasked	CS_B	1pleas	distractor1	CONbeforeEVA	acq_US_unple_masked	acq45_masked	5	21	400	1	300	300	0	0	349	50	0	0	0	0	0	1	blank2r.bmp	0	1	+	0	1	B1r.bmp	492	1	blank2r.bmp	786	1	GKQX	786	1	blank2r.bmp	866	2	strafen	866	1	!	1239	1	!	1252	0	0	0	0	0	0	0	0	0	0	0	0	0	0	0	0	0	0	0	0	0	0	0	0	0	0	0
011019	13:24:51	13:36:27	695206	5.0.10.0	4_exp_AWA_CON_AMP_EVA	57	Rpleas_acq	Same	Rpleas	Bmasked	CS_B	1pleas	distractor1	CONbeforeEVA	acq_US_pleas_masked	acq45_masked	5	22	400	1	300	300	0	0	390	46	0	0	0	0	0	1	blank2r.bmp	0	1	+	0	8	C4r.bmp	492	1	blank2r.bmp	786	1	BMVZ	786	1	blank2r.bmp	866	4	freundlich	866	1	!	1239	1	!	1292	0	0	0	0	0	0	0	0	0	0	0	0	0	0	0	0	0	0	0	0	0	0	0	0	0	0	0
011019	13:24:51	13:36:30	697379	5.0.10.0	4_exp_AWA_CON_AMP_EVA	57	Rpleas_acq	Same	Rpleas	Bmasked	CS_B	1pleas	distractor1	CONbeforeEVA	acq_US_pleas_masked	acq45_masked	5	23	400	1	300	300	0	0	362	46	0	0	0	0	0	1	blank2r.bmp	0	1	+	0	3	B3r.bmp	492	1	blank2r.bmp	786	1	BMVZ	786	1	blank2r.bmp	866	5	tolerant	866	1	!	1239	1	!	1266	0	0	0	0	0	0	0	0	0	0	0	0	0	0	0	0	0	0	0	0	0	0	0	0	0	0	0
011019	13:24:51	13:36:32	699524	5.0.10.0	4_exp_AWA_CON_AMP_EVA	57	Rpleas_acq	Same	Rpleas	Bmasked	CS_B	1pleas	distractor1	CONbeforeEVA	acq_US_pleas_masked	acq45_masked	5	24	400	1	300	300	0	0	346	50	0	1	0	0	0	1	blank2r.bmp	0	1	+	0	6	C2r.bmp	492	1	blank2r.bmp	786	1	BMVZ	786	1	blank2r.bmp	866	6	fair	866	1	!	1239	1	!	1252	0	0	0	0	0	0	0	0	0	0	0	0	0	0	0	0	0	0	0	0	0	0	0	0	0	0	0
011019	13:24:51	13:36:34	701604	5.0.10.0	4_exp_AWA_CON_AMP_EVA	57	Rpleas_acq	Same	Rpleas	Bmasked	CS_B	1pleas	distractor1	CONbeforeEVA	acq_US_pleas_masked	acq45_masked	5	25	400	0	300	300	0	0	306	50	0	1	0	0	0	1	blank2r.bmp	0	1	+	0	2	B2r.bmp	492	1	blank2r.bmp	786	1	BMVZ	786	1	blank2r.bmp	866	6	fair	866	1	!	-1	1	!	-1	0	0	0	0	0	0	0	0	0	0	0	0	0	0	0	0	0	0	0	0	0	0	0	0	0	0	0
011019	13:24:51	13:36:36	703576	5.0.10.0	4_exp_AWA_CON_AMP_EVA	57	Rpleas_acq	Same	Rpleas	Bmasked	CS_B	1pleas	distractor1	CONbeforeEVA	acq_US_unple_masked	acq45_masked	5	26	400	0	300	300	0	0	189	50	0	0	0	0	0	1	blank2r.bmp	0	1	+	0	1	B1r.bmp	492	1	blank2r.bmp	786	1	GKQX	786	1	blank2r.bmp	866	4	fanatisch	866	1	!	-1	1	!	-1	0	0	0	0	0	0	0	0	0	0	0	0	0	0	0	0	0	0	0	0	0	0	0	0	0	0	0
011019	13:24:51	13:36:38	705669	5.0.10.0	4_exp_AWA_CON_AMP_EVA	57	Rpleas_acq	Same	Rpleas	Bmasked	CS_B	1pleas	distractor1	CONbeforeEVA	acq_US_pleas_masked	acq45_masked	5	27	400	0	300	300	0	0	317	50	0	1	0	0	0	1	blank2r.bmp	0	1	+	0	8	C4r.bmp	492	1	blank2r.bmp	786	1	BMVZ	786	1	blank2r.bmp	866	1	ehrlich	866	1	!	-1	1	!	-1	0	0	0	0	0	0	0	0	0	0	0	0	0	0	0	0	0	0	0	0	0	0	0	0	0	0	0
011019	13:24:51	13:36:40	707841	5.0.10.0	4_exp_AWA_CON_AMP_EVA	57	Rpleas_acq	Same	Rpleas	Bmasked	CS_B	1pleas	distractor1	CONbeforeEVA	acq_US_unple_masked	acq45_masked	5	28	400	1	300	300	0	0	361	46	0	1	0	0	0	1	blank2r.bmp	0	1	+	0	7	C3r.bmp	492	1	blank2r.bmp	786	1	GKQX	786	1	blank2r.bmp	866	1	eitel	866	1	!	1239	1	!	1266	0	0	0	0	0	0	0	0	0	0	0	0	0	0	0	0	0	0	0	0	0	0	0	0	0	0	0
011019	13:24:51	13:36:43	710533	5.0.10.0	4_exp_AWA_CON_AMP_EVA	57	Rpleas_acq	Same	Rpleas	Bmasked	CS_B	1pleas	distractor1	CONbeforeEVA	acq_US_unple_masked	acq45_masked	5	29	400	0	300	300	0	0	906	46	0	1	0	0	0	1	blank2r.bmp	0	1	+	0	6	C2r.bmp	492	1	blank2r.bmp	786	1	GKQX	786	1	blank2r.bmp	866	6	faul	866	1	!	1239	1	!	-1	0	0	0	0	0	0	0	0	0	0	0	0	0	0	0	0	0	0	0	0	0	0	0	0	0	0	0
011019	13:24:51	13:36:45	712599	5.0.10.0	4_exp_AWA_CON_AMP_EVA	57	Rpleas_acq	Same	Rpleas	Bmasked	CS_B	1pleas	distractor1	CONbeforeEVA	acq_US_pleas_masked	acq45_masked	5	30	400	0	300	300	0	0	290	50	0	1	0	0	0	1	blank2r.bmp	0	1	+	0	4	B4r.bmp	492	1	blank2r.bmp	786	1	BMVZ	786	1	blank2r.bmp	866	3	schön	866	1	!	-1	1	!	-1	0	0	0	0	0	0	0	0	0	0	0	0	0	0	0	0	0	0	0	0	0	0	0	0	0	0	0
011019	13:24:51	13:36:47	714692	5.0.10.0	4_exp_AWA_CON_AMP_EVA	57	Rpleas_acq	Same	Rpleas	Bmasked	CS_B	1pleas	distractor1	CONbeforeEVA	acq_US_unple_masked	acq45_masked	5	31	400	0	300	300	0	0	317	46	0	1	0	0	0	1	blank2r.bmp	0	1	+	0	5	C1r.bmp	492	1	blank2r.bmp	786	1	GKQX	786	1	blank2r.bmp	866	5	tyrannisch	866	1	!	-1	1	!	-1	0	0	0	0	0	0	0	0	0	0	0	0	0	0	0	0	0	0	0	0	0	0	0	0	0	0	0
011019	13:24:51	13:36:49	716931	5.0.10.0	4_exp_AWA_CON_AMP_EVA	57	Rpleas_acq	Same	Rpleas	Bmasked	CS_B	1pleas	distractor1	CONbeforeEVA	acq_US_pleas_masked	acq45_masked	5	32	400	1	300	300	0	0	432	50	0	1	0	0	0	1	blank2r.bmp	0	1	+	0	3	B3r.bmp	492	1	blank2r.bmp	786	1	BMVZ	786	1	blank2r.bmp	866	2	spielen	866	1	!	1239	1	!	1332	0	0	0	0	0	0	0	0	0	0	0	0	0	0	0	0	0	0	0	0	0	0	0	0	0	0	0
011019	13:24:51	13:36:51	719103	5.0.10.0	4_exp_AWA_CON_AMP_EVA	57	Rpleas_acq	Same	Rpleas	Bmasked	CS_B	1pleas	distractor1	CONbeforeEVA	acq_US_pleas_masked	acq45_masked	5	33	400	1	300	300	0	0	379	46	0	0	0	0	0	1	blank2r.bmp	0	1	+	0	7	C3r.bmp	492	1	blank2r.bmp	786	1	BMVZ	786	1	blank2r.bmp	866	4	freundlich	866	1	!	1239	1	!	1279	0	0	0	0	0	0	0	0	0	0	0	0	0	0	0	0	0	0	0	0	0	0	0	0	0	0	0
011019	13:24:51	13:36:53	721196	5.0.10.0	4_exp_AWA_CON_AMP_EVA	57	Rpleas_acq	Same	Rpleas	Bmasked	CS_B	1pleas	distractor1	CONbeforeEVA	acq_US_unple_masked	acq45_masked	5	34	400	0	300	300	0	0	327	50	0	0	0	0	0	1	blank2r.bmp	0	1	+	0	4	B4r.bmp	492	1	blank2r.bmp	786	1	GKQX	786	1	blank2r.bmp	866	3	schlecht	866	1	!	-1	1	!	-1	0	0	0	0	0	0	0	0	0	0	0	0	0	0	0	0	0	0	0	0	0	0	0	0	0	0	0
011019	13:24:51	13:36:56	723395	5.0.10.0	4_exp_AWA_CON_AMP_EVA	57	Rpleas_acq	Same	Rpleas	Bmasked	CS_B	1pleas	distractor1	CONbeforeEVA	acq_US_unple_masked	acq45_masked	5	35	400	1	300	300	0	0	388	50	0	0	0	0	0	1	blank2r.bmp	0	1	+	0	5	C1r.bmp	492	1	blank2r.bmp	786	1	GKQX	786	1	blank2r.bmp	866	2	strafen	866	1	!	1239	1	!	1292	0	0	0	0	0	0	0	0	0	0	0	0	0	0	0	0	0	0	0	0	0	0	0	0	0	0	0
011019	13:24:51	13:36:58	725500	5.0.10.0	4_exp_AWA_CON_AMP_EVA	57	Rpleas_acq	Same	Rpleas	Bmasked	CS_B	1pleas	distractor1	CONbeforeEVA	acq_US_pleas_masked	acq45_masked	5	36	400	0	300	300	0	0	326	46	0	0	0	0	0	1	blank2r.bmp	0	1	+	0	2	B2r.bmp	492	1	blank2r.bmp	786	1	BMVZ	786	1	blank2r.bmp	866	5	tolerant	866	1	!	-1	1	!	-1	0	0	0	0	0	0	0	0	0	0	0	0	0	0	0	0	0	0	0	0	0	0	0	0	0	0	0
011019	13:24:51	13:38:35	822554	5.0.10.0	4_exp_AWA_CON_AMP_EVA	57	Rpleas_acq	Same	Rpleas	Bmasked	CS_B	1pleas	distractor1	CONbeforeEVA	cond_new_pleas_456_masked_CS2	condtest_masked_1	8	1	400	1	300	300	0	0	393	50	0	1	0	0	0	1	blank2r.bmp	0	1	+	0	6	C2r.bmp	492	1	blank2r.bmp	786	1	GKQX	786	1	blank2r.bmp	866	2	retten	866	1	!	1239	1	!	1292	0	0	0	0	0	0	0	0	0	0	0	0	0	0	0	0	0	0	0	0	0	0	0	0	0	0	0
011019	13:24:51	13:38:37	824793	5.0.10.0	4_exp_AWA_CON_AMP_EVA	57	Rpleas_acq	Same	Rpleas	Bmasked	CS_B	1pleas	distractor1	CONbeforeEVA	cond_new_unple_456_masked_CS1	condtest_masked_1	8	2	400	1	300	300	0	0	441	46	0	1	0	0	0	1	blank2r.bmp	0	1	+	0	3	B3r.bmp	492	1	blank2r.bmp	786	1	BMVZ	786	1	blank2r.bmp	866	1	leiden	866	1	!	1239	1	!	1346	0	0	0	0	0	0	0	0	0	0	0	0	0	0	0	0	0	0	0	0	0	0	0	0	0	0	0
011019	13:24:51	13:38:39	826979	5.0.10.0	4_exp_AWA_CON_AMP_EVA	57	Rpleas_acq	Same	Rpleas	Bmasked	CS_B	1pleas	distractor1	CONbeforeEVA	cond_new_unple_456_masked_CS2	condtest_masked_1	8	3	400	1	300	300	0	0	394	46	0	1	0	0	0	1	blank2r.bmp	0	1	+	0	1	B1r.bmp	492	1	blank2r.bmp	786	1	GKQX	786	1	blank2r.bmp	866	3	schroff	866	1	!	1239	1	!	1292	0	0	0	0	0	0	0	0	0	0	0	0	0	0	0	0	0	0	0	0	0	0	0	0	0	0	0
011019	13:24:51	13:38:41	829151	5.0.10.0	4_exp_AWA_CON_AMP_EVA	57	Rpleas_acq	Same	Rpleas	Bmasked	CS_B	1pleas	distractor1	CONbeforeEVA	cond_US_pleas_123_masked_CS1	condtest_masked_1	8	4	400	1	300	300	0	0	366	50	0	1	0	0	0	1	blank2r.bmp	0	1	+	0	8	C4r.bmp	492	1	blank2r.bmp	786	1	BMVZ	786	1	blank2r.bmp	866	2	spielen	866	1	!	1239	1	!	1266	0	0	0	0	0	0	0	0	0	0	0	0	0	0	0	0	0	0	0	0	0	0	0	0	0	0	0
011019	13:24:51	13:38:44	831377	5.0.10.0	4_exp_AWA_CON_AMP_EVA	57	Rpleas_acq	Same	Rpleas	Bmasked	CS_B	1pleas	distractor1	CONbeforeEVA	cond_US_unple_123_masked_CS2	condtest_masked_1	8	5	400	1	300	300	0	0	435	46	0	1	0	0	0	1	blank2r.bmp	0	1	+	0	1	B1r.bmp	492	1	blank2r.bmp	786	1	GKQX	786	1	blank2r.bmp	866	2	strafen	866	1	!	1239	1	!	1332	0	0	0	0	0	0	0	0	0	0	0	0	0	0	0	0	0	0	0	0	0	0	0	0	0	0	0
011019	13:24:51	13:38:46	833643	5.0.10.0	4_exp_AWA_CON_AMP_EVA	57	Rpleas_acq	Same	Rpleas	Bmasked	CS_B	1pleas	distractor1	CONbeforeEVA	cond_new_pleas_456_masked_CS1	condtest_masked_1	8	6	400	0	300	300	0	0	479	50	0	1	0	0	0	1	blank2r.bmp	0	1	+	0	2	B2r.bmp	492	1	blank2r.bmp	786	1	BMVZ	786	1	blank2r.bmp	866	3	schlau	866	1	!	1239	1	!	-1	0	0	0	0	0	0	0	0	0	0	0	0	0	0	0	0	0	0	0	0	0	0	0	0	0	0	0
011019	13:24:51	13:38:48	835762	5.0.10.0	4_exp_AWA_CON_AMP_EVA	57	Rpleas_acq	Same	Rpleas	Bmasked	CS_B	1pleas	distractor1	CONbeforeEVA	cond_US_pleas_123_masked_CS2	condtest_masked_1	8	7	400	0	300	300	0	0	320	50	0	1	0	0	0	1	blank2r.bmp	0	1	+	0	8	C4r.bmp	492	1	blank2r.bmp	786	1	GKQX	786	1	blank2r.bmp	866	3	schön	866	1	!	-1	1	!	-1	0	0	0	0	0	0	0	0	0	0	0	0	0	0	0	0	0	0	0	0	0	0	0	0	0	0	0
011019	13:24:51	13:38:50	838014	5.0.10.0	4_exp_AWA_CON_AMP_EVA	57	Rpleas_acq	Same	Rpleas	Bmasked	CS_B	1pleas	distractor1	CONbeforeEVA	cond_US_unple_123_masked_CS1	condtest_masked_1	8	8	400	1	300	300	0	0	440	46	0	1	0	0	0	1	blank2r.bmp	0	1	+	0	6	C2r.bmp	492	1	blank2r.bmp	786	1	BMVZ	786	1	blank2r.bmp	866	3	schlecht	866	1	!	1239	1	!	1346	0	0	0	0	0	0	0	0	0	0	0	0	0	0	0	0	0	0	0	0	0	0	0	0	0	0	0
011019	13:24:51	13:39:10	858153	5.0.10.0	4_exp_AWA_CON_AMP_EVA	57	Rpleas_acq	Same	Rpleas	Bmasked	CS_B	1pleas	distractor1	CONbeforeEVA	cond_US_unple_123_masked_CS1	condtest_masked_2	9	1	400	1	300	300	0	0	408	50	0	0	0	0	0	1	blank2r.bmp	0	1	+	0	3	B3r.bmp	492	1	blank2r.bmp	786	1	BMVZ	786	1	blank2r.bmp	866	1	eitel	866	1	!	1239	1	!	1306	0	0	0	0	0	0	0	0	0	0	0	0	0	0	0	0	0	0	0	0	0	0	0	0	0	0	0
011019	13:24:51	13:39:12	860312	5.0.10.0	4_exp_AWA_CON_AMP_EVA	57	Rpleas_acq	Same	Rpleas	Bmasked	CS_B	1pleas	distractor1	CONbeforeEVA	cond_US_unple_123_masked_CS1	condtest_masked_2	9	2	400	1	300	300	0	0	371	50	0	0	0	0	0	1	blank2r.bmp	0	1	+	0	4	B4r.bmp	492	1	blank2r.bmp	786	1	BMVZ	786	1	blank2r.bmp	866	2	strafen	866	1	!	1239	1	!	1266	0	0	0	0	0	0	0	0	0	0	0	0	0	0	0	0	0	0	0	0	0	0	0	0	0	0	0
011019	13:24:51	13:39:15	862497	5.0.10.0	4_exp_AWA_CON_AMP_EVA	57	Rpleas_acq	Same	Rpleas	Bmasked	CS_B	1pleas	distractor1	CONbeforeEVA	cond_new_pleas_456_masked_CS1	condtest_masked_2	9	3	400	1	300	300	0	0	398	50	0	1	0	0	0	1	blank2r.bmp	0	1	+	0	7	C3r.bmp	492	1	blank2r.bmp	786	1	BMVZ	786	1	blank2r.bmp	866	1	lachen	866	1	!	1239	1	!	1292	0	0	0	0	0	0	0	0	0	0	0	0	0	0	0	0	0	0	0	0	0	0	0	0	0	0	0
011019	13:24:51	13:39:17	864723	5.0.10.0	4_exp_AWA_CON_AMP_EVA	57	Rpleas_acq	Same	Rpleas	Bmasked	CS_B	1pleas	distractor1	CONbeforeEVA	cond_US_pleas_123_masked_CS2	condtest_masked_2	9	4	400	1	300	300	0	0	437	50	0	1	0	0	0	1	blank2r.bmp	0	1	+	0	5	C1r.bmp	492	1	blank2r.bmp	786	1	GKQX	786	1	blank2r.bmp	866	1	ehrlich	866	1	!	1239	1	!	1332	0	0	0	0	0	0	0	0	0	0	0	0	0	0	0	0	0	0	0	0	0	0	0	0	0	0	0
011019	13:24:51	13:39:19	866909	5.0.10.0	4_exp_AWA_CON_AMP_EVA	57	Rpleas_acq	Same	Rpleas	Bmasked	CS_B	1pleas	distractor1	CONbeforeEVA	cond_US_pleas_123_masked_CS1	condtest_masked_2	9	5	400	1	300	300	0	0	398	50	0	1	0	0	0	1	blank2r.bmp	0	1	+	0	6	C2r.bmp	492	1	blank2r.bmp	786	1	BMVZ	786	1	blank2r.bmp	866	1	ehrlich	866	1	!	1239	1	!	1292	0	0	0	0	0	0	0	0	0	0	0	0	0	0	0	0	0	0	0	0	0	0	0	0	0	0	0
011019	13:24:51	13:39:21	869108	5.0.10.0	4_exp_AWA_CON_AMP_EVA	57	Rpleas_acq	Same	Rpleas	Bmasked	CS_B	1pleas	distractor1	CONbeforeEVA	cond_US_unple_123_masked_CS2	condtest_masked_2	9	6	400	1	300	300	0	0	406	46	0	1	0	0	0	1	blank2r.bmp	0	1	+	0	4	B4r.bmp	492	1	blank2r.bmp	786	1	GKQX	786	1	blank2r.bmp	866	3	schlecht	866	1	!	1239	1	!	1306	0	0	0	0	0	0	0	0	0	0	0	0	0	0	0	0	0	0	0	0	0	0	0	0	0	0	0
011019	13:24:51	13:39:23	871307	5.0.10.0	4_exp_AWA_CON_AMP_EVA	57	Rpleas_acq	Same	Rpleas	Bmasked	CS_B	1pleas	distractor1	CONbeforeEVA	cond_new_pleas_456_masked_CS1	condtest_masked_2	9	7	400	1	300	300	0	0	408	50	0	1	0	0	0	1	blank2r.bmp	0	1	+	0	5	C1r.bmp	492	1	blank2r.bmp	786	1	BMVZ	786	1	blank2r.bmp	866	1	lachen	866	1	!	1239	1	!	1306	0	0	0	0	0	0	0	0	0	0	0	0	0	0	0	0	0	0	0	0	0	0	0	0	0	0	0
011019	13:24:51	13:39:26	873506	5.0.10.0	4_exp_AWA_CON_AMP_EVA	57	Rpleas_acq	Same	Rpleas	Bmasked	CS_B	1pleas	distractor1	CONbeforeEVA	cond_new_unple_456_masked_CS1	condtest_masked_2	9	8	400	1	300	300	0	0	404	46	0	1	0	0	0	1	blank2r.bmp	0	1	+	0	7	C3r.bmp	492	1	blank2r.bmp	786	1	BMVZ	786	1	blank2r.bmp	866	2	rächen	866	1	!	1239	1	!	1306	0	0	0	0	0	0	0	0	0	0	0	0	0	0	0	0	0	0	0	0	0	0	0	0	0	0	0
011019	13:24:51	13:39:28	875652	5.0.10.0	4_exp_AWA_CON_AMP_EVA	57	Rpleas_acq	Same	Rpleas	Bmasked	CS_B	1pleas	distractor1	CONbeforeEVA	cond_US_pleas_123_masked_CS1	condtest_masked_2	9	9	400	1	300	300	0	0	346	50	0	1	0	0	0	1	blank2r.bmp	0	1	+	0	3	B3r.bmp	492	1	blank2r.bmp	786	1	BMVZ	786	1	blank2r.bmp	866	3	schön	866	1	!	1239	1	!	1252	0	0	0	0	0	0	0	0	0	0	0	0	0	0	0	0	0	0	0	0	0	0	0	0	0	0	0
011019	13:24:51	13:39:30	877878	5.0.10.0	4_exp_AWA_CON_AMP_EVA	57	Rpleas_acq	Same	Rpleas	Bmasked	CS_B	1pleas	distractor1	CONbeforeEVA	cond_US_pleas_123_masked_CS1	condtest_masked_2	9	10	400	1	300	300	0	0	435	50	0	1	0	0	0	1	blank2r.bmp	0	1	+	0	1	B1r.bmp	492	1	blank2r.bmp	786	1	BMVZ	786	1	blank2r.bmp	866	2	spielen	866	1	!	1239	1	!	1332	0	0	0	0	0	0	0	0	0	0	0	0	0	0	0	0	0	0	0	0	0	0	0	0	0	0	0
011019	13:24:51	13:39:32	880023	5.0.10.0	4_exp_AWA_CON_AMP_EVA	57	Rpleas_acq	Same	Rpleas	Bmasked	CS_B	1pleas	distractor1	CONbeforeEVA	cond_US_pleas_123_masked_CS2	condtest_masked_2	9	11	400	1	300	300	0	0	353	50	0	1	0	0	0	1	blank2r.bmp	0	1	+	0	2	B2r.bmp	492	1	blank2r.bmp	786	1	GKQX	786	1	blank2r.bmp	866	3	schön	866	1	!	1239	1	!	1252	0	0	0	0	0	0	0	0	0	0	0	0	0	0	0	0	0	0	0	0	0	0	0	0	0	0	0
011019	13:24:51	13:39:34	882276	5.0.10.0	4_exp_AWA_CON_AMP_EVA	57	Rpleas_acq	Same	Rpleas	Bmasked	CS_B	1pleas	distractor1	CONbeforeEVA	cond_US_pleas_123_masked_CS2	condtest_masked_2	9	12	400	1	300	300	0	0	461	50	0	1	0	0	0	1	blank2r.bmp	0	1	+	0	8	C4r.bmp	492	1	blank2r.bmp	786	1	GKQX	786	1	blank2r.bmp	866	2	spielen	866	1	!	1239	1	!	1359	0	0	0	0	0	0	0	0	0	0	0	0	0	0	0	0	0	0	0	0	0	0	0	0	0	0	0
011019	13:24:51	13:39:37	884448	5.0.10.0	4_exp_AWA_CON_AMP_EVA	57	Rpleas_acq	Same	Rpleas	Bmasked	CS_B	1pleas	distractor1	CONbeforeEVA	cond_US_pleas_123_masked_CS1	condtest_masked_2	9	13	400	1	300	300	0	0	381	50	0	1	0	0	0	1	blank2r.bmp	0	1	+	0	8	C4r.bmp	492	1	blank2r.bmp	786	1	BMVZ	786	1	blank2r.bmp	866	1	ehrlich	866	1	!	1239	1	!	1279	0	0	0	0	0	0	0	0	0	0	0	0	0	0	0	0	0	0	0	0	0	0	0	0	0	0	0
011019	13:24:51	13:39:39	886607	5.0.10.0	4_exp_AWA_CON_AMP_EVA	57	Rpleas_acq	Same	Rpleas	Bmasked	CS_B	1pleas	distractor1	CONbeforeEVA	cond_US_unple_123_masked_CS2	condtest_masked_2	9	14	400	1	300	300	0	0	347	46	0	1	0	0	0	1	blank2r.bmp	0	1	+	0	1	B1r.bmp	492	1	blank2r.bmp	786	1	GKQX	786	1	blank2r.bmp	866	1	eitel	866	1	!	1239	1	!	1252	0	0	0	0	0	0	0	0	0	0	0	0	0	0	0	0	0	0	0	0	0	0	0	0	0	0	0
011019	13:24:51	13:39:41	888793	5.0.10.0	4_exp_AWA_CON_AMP_EVA	57	Rpleas_acq	Same	Rpleas	Bmasked	CS_B	1pleas	distractor1	CONbeforeEVA	cond_US_unple_123_masked_CS2	condtest_masked_2	9	15	400	1	300	300	0	0	391	46	0	1	0	0	0	1	blank2r.bmp	0	1	+	0	2	B2r.bmp	492	1	blank2r.bmp	786	1	GKQX	786	1	blank2r.bmp	866	1	eitel	866	1	!	1239	1	!	1292	0	0	0	0	0	0	0	0	0	0	0	0	0	0	0	0	0	0	0	0	0	0	0	0	0	0	0
011019	13:24:51	13:39:43	890979	5.0.10.0	4_exp_AWA_CON_AMP_EVA	57	Rpleas_acq	Same	Rpleas	Bmasked	CS_B	1pleas	distractor1	CONbeforeEVA	cond_new_unple_456_masked_CS2	condtest_masked_2	9	16	400	1	300	300	0	0	391	46	0	1	0	0	0	1	blank2r.bmp	0	1	+	0	4	B4r.bmp	492	1	blank2r.bmp	786	1	GKQX	786	1	blank2r.bmp	866	2	rächen	866	1	!	1239	1	!	1292	0	0	0	0	0	0	0	0	0	0	0	0	0	0	0	0	0	0	0	0	0	0	0	0	0	0	0
011019	13:24:51	13:39:45	893151	5.0.10.0	4_exp_AWA_CON_AMP_EVA	57	Rpleas_acq	Same	Rpleas	Bmasked	CS_B	1pleas	distractor1	CONbeforeEVA	cond_new_unple_456_masked_CS2	condtest_masked_2	9	17	400	1	300	300	0	0	377	46	0	1	0	0	0	1	blank2r.bmp	0	1	+	0	6	C2r.bmp	492	1	blank2r.bmp	786	1	GKQX	786	1	blank2r.bmp	866	3	schroff	866	1	!	1239	1	!	1279	0	0	0	0	0	0	0	0	0	0	0	0	0	0	0	0	0	0	0	0	0	0	0	0	0	0	0
011019	13:24:51	13:39:47	895337	5.0.10.0	4_exp_AWA_CON_AMP_EVA	57	Rpleas_acq	Same	Rpleas	Bmasked	CS_B	1pleas	distractor1	CONbeforeEVA	cond_new_unple_456_masked_CS2	condtest_masked_2	9	18	400	1	300	300	0	0	396	46	0	1	0	0	0	1	blank2r.bmp	0	1	+	0	5	C1r.bmp	492	1	blank2r.bmp	786	1	GKQX	786	1	blank2r.bmp	866	1	leiden	866	1	!	1239	1	!	1292	0	0	0	0	0	0	0	0	0	0	0	0	0	0	0	0	0	0	0	0	0	0	0	0	0	0	0
011019	13:24:51	13:39:50	897496	5.0.10.0	4_exp_AWA_CON_AMP_EVA	57	Rpleas_acq	Same	Rpleas	Bmasked	CS_B	1pleas	distractor1	CONbeforeEVA	cond_US_unple_123_masked_CS1	condtest_masked_2	9	19	400	1	300	300	0	0	346	46	0	1	0	0	0	1	blank2r.bmp	0	1	+	0	7	C3r.bmp	492	1	blank2r.bmp	786	1	BMVZ	786	1	blank2r.bmp	866	3	schlecht	866	1	!	1239	1	!	1252	0	0	0	0	0	0	0	0	0	0	0	0	0	0	0	0	0	0	0	0	0	0	0	0	0	0	0
011019	13:24:51	13:39:52	899722	5.0.10.0	4_exp_AWA_CON_AMP_EVA	57	Rpleas_acq	Same	Rpleas	Bmasked	CS_B	1pleas	distractor1	CONbeforeEVA	cond_new_pleas_456_masked_CS1	condtest_masked_2	9	20	400	1	300	300	0	0	426	46	0	0	0	0	0	1	blank2r.bmp	0	1	+	0	3	B3r.bmp	492	1	blank2r.bmp	786	1	BMVZ	786	1	blank2r.bmp	866	2	retten	866	1	!	1239	1	!	1332	0	0	0	0	0	0	0	0	0	0	0	0	0	0	0	0	0	0	0	0	0	0	0	0	0	0	0
011019	13:24:51	13:39:54	901948	5.0.10.0	4_exp_AWA_CON_AMP_EVA	57	Rpleas_acq	Same	Rpleas	Bmasked	CS_B	1pleas	distractor1	CONbeforeEVA	cond_US_pleas_123_masked_CS2	condtest_masked_2	9	21	400	1	300	300	0	0	415	46	0	0	0	0	0	1	blank2r.bmp	0	1	+	0	7	C3r.bmp	492	1	blank2r.bmp	786	1	GKQX	786	1	blank2r.bmp	866	1	ehrlich	866	1	!	1239	1	!	1319	0	0	0	0	0	0	0	0	0	0	0	0	0	0	0	0	0	0	0	0	0	0	0	0	0	0	0
011019	13:24:51	13:39:56	904107	5.0.10.0	4_exp_AWA_CON_AMP_EVA	57	Rpleas_acq	Same	Rpleas	Bmasked	CS_B	1pleas	distractor1	CONbeforeEVA	cond_new_pleas_456_masked_CS2	condtest_masked_2	9	22	400	1	300	300	0	0	371	50	0	1	0	0	0	1	blank2r.bmp	0	1	+	0	4	B4r.bmp	492	1	blank2r.bmp	786	1	GKQX	786	1	blank2r.bmp	866	3	schlau	866	1	!	1239	1	!	1266	0	0	0	0	0	0	0	0	0	0	0	0	0	0	0	0	0	0	0	0	0	0	0	0	0	0	0
011019	13:24:51	13:39:58	906346	5.0.10.0	4_exp_AWA_CON_AMP_EVA	57	Rpleas_acq	Same	Rpleas	Bmasked	CS_B	1pleas	distractor1	CONbeforeEVA	cond_US_pleas_123_masked_CS2	condtest_masked_2	9	23	400	1	300	300	0	0	440	50	0	1	0	0	0	1	blank2r.bmp	0	1	+	0	5	C1r.bmp	492	1	blank2r.bmp	786	1	GKQX	786	1	blank2r.bmp	866	3	schön	866	1	!	1239	1	!	1346	0	0	0	0	0	0	0	0	0	0	0	0	0	0	0	0	0	0	0	0	0	0	0	0	0	0	0
011019	13:24:51	13:40:01	908532	5.0.10.0	4_exp_AWA_CON_AMP_EVA	57	Rpleas_acq	Same	Rpleas	Bmasked	CS_B	1pleas	distractor1	CONbeforeEVA	cond_US_unple_123_masked_CS2	condtest_masked_2	9	24	400	1	300	300	0	0	391	46	0	1	0	0	0	1	blank2r.bmp	0	1	+	0	1	B1r.bmp	492	1	blank2r.bmp	786	1	GKQX	786	1	blank2r.bmp	866	2	strafen	866	1	!	1239	1	!	1292	0	0	0	0	0	0	0	0	0	0	0	0	0	0	0	0	0	0	0	0	0	0	0	0	0	0	0
011019	13:24:51	13:40:03	910704	5.0.10.0	4_exp_AWA_CON_AMP_EVA	57	Rpleas_acq	Same	Rpleas	Bmasked	CS_B	1pleas	distractor1	CONbeforeEVA	cond_new_unple_456_masked_CS1	condtest_masked_2	9	25	400	1	300	300	0	0	378	46	0	1	0	0	0	1	blank2r.bmp	0	1	+	0	2	B2r.bmp	492	1	blank2r.bmp	786	1	BMVZ	786	1	blank2r.bmp	866	1	leiden	866	1	!	1239	1	!	1279	0	0	0	0	0	0	0	0	0	0	0	0	0	0	0	0	0	0	0	0	0	0	0	0	0	0	0
011019	13:24:51	13:40:05	912877	5.0.10.0	4_exp_AWA_CON_AMP_EVA	57	Rpleas_acq	Same	Rpleas	Bmasked	CS_B	1pleas	distractor1	CONbeforeEVA	cond_new_unple_456_masked_CS1	condtest_masked_2	9	26	400	1	300	300	0	0	366	46	0	1	0	0	0	1	blank2r.bmp	0	1	+	0	8	C4r.bmp	492	1	blank2r.bmp	786	1	BMVZ	786	1	blank2r.bmp	866	3	schroff	866	1	!	1239	1	!	1266	0	0	0	0	0	0	0	0	0	0	0	0	0	0	0	0	0	0	0	0	0	0	0	0	0	0	0
011019	13:24:51	13:40:07	915129	5.0.10.0	4_exp_AWA_CON_AMP_EVA	57	Rpleas_acq	Same	Rpleas	Bmasked	CS_B	1pleas	distractor1	CONbeforeEVA	cond_new_unple_456_masked_CS2	condtest_masked_2	9	27	400	1	300	300	0	0	464	46	0	1	0	0	0	1	blank2r.bmp	0	1	+	0	6	C2r.bmp	492	1	blank2r.bmp	786	1	GKQX	786	1	blank2r.bmp	866	2	rächen	866	1	!	1239	1	!	1359	0	0	0	0	0	0	0	0	0	0	0	0	0	0	0	0	0	0	0	0	0	0	0	0	0	0	0
011019	13:24:51	13:40:10	917381	5.0.10.0	4_exp_AWA_CON_AMP_EVA	57	Rpleas_acq	Same	Rpleas	Bmasked	CS_B	1pleas	distractor1	CONbeforeEVA	cond_new_unple_456_masked_CS1	condtest_masked_2	9	28	400	1	300	300	0	0	464	46	0	1	0	0	0	1	blank2r.bmp	0	1	+	0	3	B3r.bmp	492	1	blank2r.bmp	786	1	BMVZ	786	1	blank2r.bmp	866	3	schroff	866	1	!	1239	1	!	1359	0	0	0	0	0	0	0	0	0	0	0	0	0	0	0	0	0	0	0	0	0	0	0	0	0	0	0
011019	13:24:51	13:40:12	919634	5.0.10.0	4_exp_AWA_CON_AMP_EVA	57	Rpleas_acq	Same	Rpleas	Bmasked	CS_B	1pleas	distractor1	CONbeforeEVA	cond_US_pleas_123_masked_CS1	condtest_masked_2	9	29	400	1	300	300	0	0	453	50	0	1	0	0	0	1	blank2r.bmp	0	1	+	0	6	C2r.bmp	492	1	blank2r.bmp	786	1	BMVZ	786	1	blank2r.bmp	866	2	spielen	866	1	!	1239	1	!	1359	0	0	0	0	0	0	0	0	0	0	0	0	0	0	0	0	0	0	0	0	0	0	0	0	0	0	0
011019	13:24:51	13:40:14	921886	5.0.10.0	4_exp_AWA_CON_AMP_EVA	57	Rpleas_acq	Same	Rpleas	Bmasked	CS_B	1pleas	distractor1	CONbeforeEVA	cond_new_unple_456_masked_CS2	condtest_masked_2	9	30	400	0	300	300	0	0	479	46	0	1	0	0	0	1	blank2r.bmp	0	1	+	0	7	C3r.bmp	492	1	blank2r.bmp	786	1	GKQX	786	1	blank2r.bmp	866	1	leiden	866	1	!	1239	1	!	-1	0	0	0	0	0	0	0	0	0	0	0	0	0	0	0	0	0	0	0	0	0	0	0	0	0	0	0
011019	13:24:51	13:40:16	924245	5.0.10.0	4_exp_AWA_CON_AMP_EVA	57	Rpleas_acq	Same	Rpleas	Bmasked	CS_B	1pleas	distractor1	CONbeforeEVA	cond_new_unple_456_masked_CS1	condtest_masked_2	9	31	400	0	300	300	0	0	580	46	0	1	0	0	0	1	blank2r.bmp	0	1	+	0	8	C4r.bmp	492	1	blank2r.bmp	786	1	BMVZ	786	1	blank2r.bmp	866	2	rächen	866	1	!	1239	1	!	-1	0	0	0	0	0	0	0	0	0	0	0	0	0	0	0	0	0	0	0	0	0	0	0	0	0	0	0
011019	13:24:51	13:40:19	926364	5.0.10.0	4_exp_AWA_CON_AMP_EVA	57	Rpleas_acq	Same	Rpleas	Bmasked	CS_B	1pleas	distractor1	CONbeforeEVA	cond_new_pleas_456_masked_CS2	condtest_masked_2	9	32	400	0	300	300	0	0	331	46	0	0	0	0	0	1	blank2r.bmp	0	1	+	0	1	B1r.bmp	492	1	blank2r.bmp	786	1	GKQX	786	1	blank2r.bmp	866	2	retten	866	1	!	-1	1	!	-1	0	0	0	0	0	0	0	0	0	0	0	0	0	0	0	0	0	0	0	0	0	0	0	0	0	0	0
011019	13:24:51	13:40:21	928630	5.0.10.0	4_exp_AWA_CON_AMP_EVA	57	Rpleas_acq	Same	Rpleas	Bmasked	CS_B	1pleas	distractor1	CONbeforeEVA	cond_US_unple_123_masked_CS2	condtest_masked_2	9	33	400	0	300	300	0	0	479	50	0	0	0	0	0	1	blank2r.bmp	0	1	+	0	2	B2r.bmp	492	1	blank2r.bmp	786	1	GKQX	786	1	blank2r.bmp	866	1	eitel	866	1	!	1239	1	!	-1	0	0	0	0	0	0	0	0	0	0	0	0	0	0	0	0	0	0	0	0	0	0	0	0	0	0	0
011019	13:24:51	13:40:23	930843	5.0.10.0	4_exp_AWA_CON_AMP_EVA	57	Rpleas_acq	Same	Rpleas	Bmasked	CS_B	1pleas	distractor1	CONbeforeEVA	cond_US_unple_123_masked_CS1	condtest_masked_2	9	34	400	1	300	300	0	0	391	46	0	1	0	0	0	1	blank2r.bmp	0	1	+	0	3	B3r.bmp	492	1	blank2r.bmp	786	1	BMVZ	786	1	blank2r.bmp	866	3	schlecht	866	1	!	1239	1	!	1292	0	0	0	0	0	0	0	0	0	0	0	0	0	0	0	0	0	0	0	0	0	0	0	0	0	0	0
011019	13:24:51	13:40:25	933068	5.0.10.0	4_exp_AWA_CON_AMP_EVA	57	Rpleas_acq	Same	Rpleas	Bmasked	CS_B	1pleas	distractor1	CONbeforeEVA	cond_new_pleas_456_masked_CS2	condtest_masked_2	9	35	400	1	300	300	0	0	417	46	0	0	0	0	0	1	blank2r.bmp	0	1	+	0	4	B4r.bmp	492	1	blank2r.bmp	786	1	GKQX	786	1	blank2r.bmp	866	3	schlau	866	1	!	1239	1	!	1319	0	0	0	0	0	0	0	0	0	0	0	0	0	0	0	0	0	0	0	0	0	0	0	0	0	0	0
011019	13:24:51	13:40:27	935294	5.0.10.0	4_exp_AWA_CON_AMP_EVA	57	Rpleas_acq	Same	Rpleas	Bmasked	CS_B	1pleas	distractor1	CONbeforeEVA	cond_new_pleas_456_masked_CS2	condtest_masked_2	9	36	400	1	300	300	0	0	435	46	0	0	0	0	0	1	blank2r.bmp	0	1	+	0	5	C1r.bmp	492	1	blank2r.bmp	786	1	GKQX	786	1	blank2r.bmp	866	1	lachen	866	1	!	1239	1	!	1332	0	0	0	0	0	0	0	0	0	0	0	0	0	0	0	0	0	0	0	0	0	0	0	0	0	0	0
011019	13:24:51	13:40:30	937506	5.0.10.0	4_exp_AWA_CON_AMP_EVA	57	Rpleas_acq	Same	Rpleas	Bmasked	CS_B	1pleas	distractor1	CONbeforeEVA	cond_new_pleas_456_masked_CS1	condtest_masked_2	9	37	400	1	300	300	0	0	415	50	0	1	0	0	0	1	blank2r.bmp	0	1	+	0	6	C2r.bmp	492	1	blank2r.bmp	786	1	BMVZ	786	1	blank2r.bmp	866	2	retten	866	1	!	1239	1	!	1319	0	0	0	0	0	0	0	0	0	0	0	0	0	0	0	0	0	0	0	0	0	0	0	0	0	0	0
011019	13:24:51	13:40:32	939746	5.0.10.0	4_exp_AWA_CON_AMP_EVA	57	Rpleas_acq	Same	Rpleas	Bmasked	CS_B	1pleas	distractor1	CONbeforeEVA	cond_new_pleas_456_masked_CS2	condtest_masked_2	9	38	400	1	300	300	0	0	440	50	0	1	0	0	0	1	blank2r.bmp	0	1	+	0	5	C1r.bmp	492	1	blank2r.bmp	786	1	GKQX	786	1	blank2r.bmp	866	3	schlau	866	1	!	1239	1	!	1346	0	0	0	0	0	0	0	0	0	0	0	0	0	0	0	0	0	0	0	0	0	0	0	0	0	0	0
011019	13:24:51	13:40:34	941891	5.0.10.0	4_exp_AWA_CON_AMP_EVA	57	Rpleas_acq	Same	Rpleas	Bmasked	CS_B	1pleas	distractor1	CONbeforeEVA	cond_US_unple_123_masked_CS1	condtest_masked_2	9	39	400	1	300	300	0	0	346	46	0	1	0	0	0	1	blank2r.bmp	0	1	+	0	1	B1r.bmp	492	1	blank2r.bmp	786	1	BMVZ	786	1	blank2r.bmp	866	2	strafen	866	1	!	1239	1	!	1252	0	0	0	0	0	0	0	0	0	0	0	0	0	0	0	0	0	0	0	0	0	0	0	0	0	0	0
011019	13:24:51	13:40:36	944144	5.0.10.0	4_exp_AWA_CON_AMP_EVA	57	Rpleas_acq	Same	Rpleas	Bmasked	CS_B	1pleas	distractor1	CONbeforeEVA	cond_new_pleas_456_masked_CS1	condtest_masked_2	9	40	400	0	300	300	0	0	479	50	0	1	0	0	0	1	blank2r.bmp	0	1	+	0	4	B4r.bmp	492	1	blank2r.bmp	786	1	BMVZ	786	1	blank2r.bmp	866	1	lachen	866	1	!	1239	1	!	-1	0	0	0	0	0	0	0	0	0	0	0	0	0	0	0	0	0	0	0	0	0	0	0	0	0	0	0
011019	13:24:51	13:41:03	970546	5.0.10.0	4_exp_AWA_CON_AMP_EVA	57	Rpleas_acq	Same	Rpleas	Bmasked	CS_B	1pleas	distractor1	CONbeforeEVA	cond_US_pleas_456_masked_CS1	condtest_masked_3	10	1	400	1	300	300	0	0	370	50	0	1	0	0	0	1	blank2r.bmp	0	1	+	0	2	B2r.bmp	492	1	blank2r.bmp	786	1	BMVZ	786	1	blank2r.bmp	866	1	freundlich	866	1	!	1239	1	!	1266	0	0	0	0	0	0	0	0	0	0	0	0	0	0	0	0	0	0	0	0	0	0	0	0	0	0	0
011019	13:24:51	13:41:05	972705	5.0.10.0	4_exp_AWA_CON_AMP_EVA	57	Rpleas_acq	Same	Rpleas	Bmasked	CS_B	1pleas	distractor1	CONbeforeEVA	cond_US_unple_456_masked_CS2	condtest_masked_3	10	2	400	1	300	300	0	0	359	50	0	0	0	0	0	1	blank2r.bmp	0	1	+	0	3	B3r.bmp	492	1	blank2r.bmp	786	1	GKQX	786	1	blank2r.bmp	866	3	faul	866	1	!	1239	1	!	1266	0	0	0	0	0	0	0	0	0	0	0	0	0	0	0	0	0	0	0	0	0	0	0	0	0	0	0
011019	13:24:51	13:41:07	974784	5.0.10.0	4_exp_AWA_CON_AMP_EVA	57	Rpleas_acq	Same	Rpleas	Bmasked	CS_B	1pleas	distractor1	CONbeforeEVA	cond_new_unple_123_masked_CS1	condtest_masked_3	10	3	400	0	300	300	0	0	310	46	0	1	0	0	0	1	blank2r.bmp	0	1	+	0	8	C4r.bmp	492	1	blank2r.bmp	786	1	BMVZ	786	1	blank2r.bmp	866	2	tot	866	1	!	-1	1	!	-1	0	0	0	0	0	0	0	0	0	0	0	0	0	0	0	0	0	0	0	0	0	0	0	0	0	0	0
011019	13:24:51	13:41:09	977010	5.0.10.0	4_exp_AWA_CON_AMP_EVA	57	Rpleas_acq	Same	Rpleas	Bmasked	CS_B	1pleas	distractor1	CONbeforeEVA	cond_US_unple_456_masked_CS2	condtest_masked_3	10	4	400	1	300	300	0	0	425	46	0	1	0	0	0	1	blank2r.bmp	0	1	+	0	7	C3r.bmp	492	1	blank2r.bmp	786	1	GKQX	786	1	blank2r.bmp	866	2	tyrannisch	866	1	!	1239	1	!	1319	0	0	0	0	0	0	0	0	0	0	0	0	0	0	0	0	0	0	0	0	0	0	0	0	0	0	0
011019	13:24:51	13:41:11	979196	5.0.10.0	4_exp_AWA_CON_AMP_EVA	57	Rpleas_acq	Same	Rpleas	Bmasked	CS_B	1pleas	distractor1	CONbeforeEVA	cond_new_unple_123_masked_CS2	condtest_masked_3	10	5	400	1	300	300	0	0	395	50	0	0	0	0	0	1	blank2r.bmp	0	1	+	0	1	B1r.bmp	492	1	blank2r.bmp	786	1	GKQX	786	1	blank2r.bmp	866	3	lasch	866	1	!	1239	1	!	1292	0	0	0	0	0	0	0	0	0	0	0	0	0	0	0	0	0	0	0	0	0	0	0	0	0	0	0
011019	13:24:51	13:41:14	981382	5.0.10.0	4_exp_AWA_CON_AMP_EVA	57	Rpleas_acq	Same	Rpleas	Bmasked	CS_B	1pleas	distractor1	CONbeforeEVA	cond_new_pleas_123_masked_CS2	condtest_masked_3	10	6	400	1	300	300	0	0	390	50	0	1	0	0	0	1	blank2r.bmp	0	1	+	0	3	B3r.bmp	492	1	blank2r.bmp	786	1	GKQX	786	1	blank2r.bmp	866	3	loyal	866	1	!	1239	1	!	1292	0	0	0	0	0	0	0	0	0	0	0	0	0	0	0	0	0	0	0	0	0	0	0	0	0	0	0
011019	13:24:51	13:41:16	983621	5.0.10.0	4_exp_AWA_CON_AMP_EVA	57	Rpleas_acq	Same	Rpleas	Bmasked	CS_B	1pleas	distractor1	CONbeforeEVA	cond_new_pleas_123_masked_CS1	condtest_masked_3	10	7	400	1	300	300	0	0	446	46	0	0	0	0	0	1	blank2r.bmp	0	1	+	0	6	C2r.bmp	492	1	blank2r.bmp	786	1	BMVZ	786	1	blank2r.bmp	866	2	treu	866	1	!	1239	1	!	1346	0	0	0	0	0	0	0	0	0	0	0	0	0	0	0	0	0	0	0	0	0	0	0	0	0	0	0
011019	13:24:51	13:41:18	985847	5.0.10.0	4_exp_AWA_CON_AMP_EVA	57	Rpleas_acq	Same	Rpleas	Bmasked	CS_B	1pleas	distractor1	CONbeforeEVA	cond_US_unple_456_masked_CS1	condtest_masked_3	10	8	400	1	300	300	0	0	425	50	0	0	0	0	0	1	blank2r.bmp	0	1	+	0	2	B2r.bmp	492	1	blank2r.bmp	786	1	BMVZ	786	1	blank2r.bmp	866	1	fanatisch	866	1	!	1239	1	!	1332	0	0	0	0	0	0	0	0	0	0	0	0	0	0	0	0	0	0	0	0	0	0	0	0	0	0	0
011019	13:24:51	13:41:20	988112	5.0.10.0	4_exp_AWA_CON_AMP_EVA	57	Rpleas_acq	Same	Rpleas	Bmasked	CS_B	1pleas	distractor1	CONbeforeEVA	cond_new_unple_123_masked_CS1	condtest_masked_3	10	9	400	0	300	300	0	0	479	50	0	0	0	0	0	1	blank2r.bmp	0	1	+	0	5	C1r.bmp	492	1	blank2r.bmp	786	1	BMVZ	786	1	blank2r.bmp	866	1	hindern	866	1	!	1239	1	!	-1	0	0	0	0	0	0	0	0	0	0	0	0	0	0	0	0	0	0	0	0	0	0	0	0	0	0	0
011019	13:24:51	13:41:23	990405	5.0.10.0	4_exp_AWA_CON_AMP_EVA	57	Rpleas_acq	Same	Rpleas	Bmasked	CS_B	1pleas	distractor1	CONbeforeEVA	cond_new_unple_123_masked_CS1	condtest_masked_3	10	10	400	0	300	300	0	0	503	50	0	0	0	0	0	1	blank2r.bmp	0	1	+	0	8	C4r.bmp	492	1	blank2r.bmp	786	1	BMVZ	786	1	blank2r.bmp	866	3	lasch	866	1	!	1239	1	!	-1	0	0	0	0	0	0	0	0	0	0	0	0	0	0	0	0	0	0	0	0	0	0	0	0	0	0	0
011019	13:24:51	13:41:25	992684	5.0.10.0	4_exp_AWA_CON_AMP_EVA	57	Rpleas_acq	Same	Rpleas	Bmasked	CS_B	1pleas	distractor1	CONbeforeEVA	cond_US_unple_456_masked_CS1	condtest_masked_3	10	11	400	0	300	300	0	0	479	46	0	1	0	0	0	1	blank2r.bmp	0	1	+	0	4	B4r.bmp	492	1	blank2r.bmp	786	1	BMVZ	786	1	blank2r.bmp	866	2	tyrannisch	866	1	!	1239	1	!	-1	0	0	0	0	0	0	0	0	0	0	0	0	0	0	0	0	0	0	0	0	0	0	0	0	0	0	0
011019	13:24:51	13:41:27	994896	5.0.10.0	4_exp_AWA_CON_AMP_EVA	57	Rpleas_acq	Same	Rpleas	Bmasked	CS_B	1pleas	distractor1	CONbeforeEVA	cond_US_unple_456_masked_CS2	condtest_masked_3	10	12	400	1	300	300	0	0	391	50	0	0	0	0	0	1	blank2r.bmp	0	1	+	0	7	C3r.bmp	492	1	blank2r.bmp	786	1	GKQX	786	1	blank2r.bmp	866	1	fanatisch	866	1	!	1239	1	!	1292	0	0	0	0	0	0	0	0	0	0	0	0	0	0	0	0	0	0	0	0	0	0	0	0	0	0	0
011019	13:24:51	13:41:29	997055	5.0.10.0	4_exp_AWA_CON_AMP_EVA	57	Rpleas_acq	Same	Rpleas	Bmasked	CS_B	1pleas	distractor1	CONbeforeEVA	cond_new_pleas_123_masked_CS2	condtest_masked_3	10	13	400	1	300	300	0	0	346	46	0	0	0	0	0	1	blank2r.bmp	0	1	+	0	2	B2r.bmp	492	1	blank2r.bmp	786	1	GKQX	786	1	blank2r.bmp	866	1	helfen	866	1	!	1239	1	!	1252	0	0	0	0	0	0	0	0	0	0	0	0	0	0	0	0	0	0	0	0	0	0	0	0	0	0	0
011019	13:24:51	13:41:31	999348	5.0.10.0	4_exp_AWA_CON_AMP_EVA	57	Rpleas_acq	Same	Rpleas	Bmasked	CS_B	1pleas	distractor1	CONbeforeEVA	cond_US_pleas_456_masked_CS2	condtest_masked_3	10	14	400	0	300	300	0	0	521	46	0	0	0	0	0	1	blank2r.bmp	0	1	+	0	4	B4r.bmp	492	1	blank2r.bmp	786	1	GKQX	786	1	blank2r.bmp	866	3	fair	866	1	!	1239	1	!	-1	0	0	0	0	0	0	0	0	0	0	0	0	0	0	0	0	0	0	0	0	0	0	0	0	0	0	0
011019	13:24:51	13:41:34	1001640	5.0.10.0	4_exp_AWA_CON_AMP_EVA	57	Rpleas_acq	Same	Rpleas	Bmasked	CS_B	1pleas	distractor1	CONbeforeEVA	cond_US_unple_456_masked_CS1	condtest_masked_3	10	15	400	0	300	300	0	0	515	46	0	1	0	0	0	1	blank2r.bmp	0	1	+	0	8	C4r.bmp	492	1	blank2r.bmp	786	1	BMVZ	786	1	blank2r.bmp	866	3	faul	866	1	!	1239	1	!	-1	0	0	0	0	0	0	0	0	0	0	0	0	0	0	0	0	0	0	0	0	0	0	0	0	0	0	0
011019	13:24:51	13:41:36	1003919	5.0.10.0	4_exp_AWA_CON_AMP_EVA	57	Rpleas_acq	Same	Rpleas	Bmasked	CS_B	1pleas	distractor1	CONbeforeEVA	cond_US_pleas_456_masked_CS2	condtest_masked_3	10	16	400	0	300	300	0	0	503	50	0	1	0	0	0	1	blank2r.bmp	0	1	+	0	3	B3r.bmp	492	1	blank2r.bmp	786	1	GKQX	786	1	blank2r.bmp	866	2	tolerant	866	1	!	1239	1	!	-1	0	0	0	0	0	0	0	0	0	0	0	0	0	0	0	0	0	0	0	0	0	0	0	0	0	0	0
011019	13:24:51	13:41:38	1006305	5.0.10.0	4_exp_AWA_CON_AMP_EVA	57	Rpleas_acq	Same	Rpleas	Bmasked	CS_B	1pleas	distractor1	CONbeforeEVA	cond_US_pleas_456_masked_CS1	condtest_masked_3	10	17	400	0	300	300	0	0	600	50	0	1	0	0	0	1	blank2r.bmp	0	1	+	0	5	C1r.bmp	492	1	blank2r.bmp	786	1	BMVZ	786	1	blank2r.bmp	866	2	tolerant	866	1	!	1239	1	!	-1	0	0	0	0	0	0	0	0	0	0	0	0	0	0	0	0	0	0	0	0	0	0	0	0	0	0	0
011019	13:24:51	13:41:41	1008544	5.0.10.0	4_exp_AWA_CON_AMP_EVA	57	Rpleas_acq	Same	Rpleas	Bmasked	CS_B	1pleas	distractor1	CONbeforeEVA	cond_US_pleas_456_masked_CS1	condtest_masked_3	10	18	400	1	300	300	0	0	425	46	0	0	0	0	0	1	blank2r.bmp	0	1	+	0	6	C2r.bmp	492	1	blank2r.bmp	786	1	BMVZ	786	1	blank2r.bmp	866	3	fair	866	1	!	1239	1	!	1332	0	0	0	0	0	0	0	0	0	0	0	0	0	0	0	0	0	0	0	0	0	0	0	0	0	0	0
011019	13:24:51	13:41:43	1010596	5.0.10.0	4_exp_AWA_CON_AMP_EVA	57	Rpleas_acq	Same	Rpleas	Bmasked	CS_B	1pleas	distractor1	CONbeforeEVA	cond_US_unple_456_masked_CS2	condtest_masked_3	10	19	400	0	300	300	0	0	268	50	0	0	0	0	0	1	blank2r.bmp	0	1	+	0	1	B1r.bmp	492	1	blank2r.bmp	786	1	GKQX	786	1	blank2r.bmp	866	2	tyrannisch	866	1	!	-1	1	!	-1	0	0	0	0	0	0	0	0	0	0	0	0	0	0	0	0	0	0	0	0	0	0	0	0	0	0	0
011019	13:24:51	13:41:45	1012835	5.0.10.0	4_exp_AWA_CON_AMP_EVA	57	Rpleas_acq	Same	Rpleas	Bmasked	CS_B	1pleas	distractor1	CONbeforeEVA	cond_new_unple_123_masked_CS2	condtest_masked_3	10	20	400	1	300	300	0	0	426	46	0	1	0	0	0	1	blank2r.bmp	0	1	+	0	7	C3r.bmp	492	1	blank2r.bmp	786	1	GKQX	786	1	blank2r.bmp	866	2	tot	866	1	!	1239	1	!	1332	0	0	0	0	0	0	0	0	0	0	0	0	0	0	0	0	0	0	0	0	0	0	0	0	0	0	0
011019	13:24:51	13:41:47	1014995	5.0.10.0	4_exp_AWA_CON_AMP_EVA	57	Rpleas_acq	Same	Rpleas	Bmasked	CS_B	1pleas	distractor1	CONbeforeEVA	cond_new_unple_123_masked_CS2	condtest_masked_3	10	21	400	1	300	300	0	0	346	50	0	0	0	0	0	1	blank2r.bmp	0	1	+	0	3	B3r.bmp	492	1	blank2r.bmp	786	1	GKQX	786	1	blank2r.bmp	866	1	hindern	866	1	!	1239	1	!	1252	0	0	0	0	0	0	0	0	0	0	0	0	0	0	0	0	0	0	0	0	0	0	0	0	0	0	0
011019	13:24:51	13:41:49	1017140	5.0.10.0	4_exp_AWA_CON_AMP_EVA	57	Rpleas_acq	Same	Rpleas	Bmasked	CS_B	1pleas	distractor1	CONbeforeEVA	cond_new_unple_123_masked_CS1	condtest_masked_3	10	22	400	1	300	300	0	0	346	50	0	0	0	0	0	1	blank2r.bmp	0	1	+	0	6	C2r.bmp	492	1	blank2r.bmp	786	1	BMVZ	786	1	blank2r.bmp	866	3	lasch	866	1	!	1239	1	!	1252	0	0	0	0	0	0	0	0	0	0	0	0	0	0	0	0	0	0	0	0	0	0	0	0	0	0	0
011019	13:24:51	13:41:52	1019379	5.0.10.0	4_exp_AWA_CON_AMP_EVA	57	Rpleas_acq	Same	Rpleas	Bmasked	CS_B	1pleas	distractor1	CONbeforeEVA	cond_US_pleas_456_masked_CS2	condtest_masked_3	10	23	400	1	300	300	0	0	426	50	0	1	0	0	0	1	blank2r.bmp	0	1	+	0	1	B1r.bmp	492	1	blank2r.bmp	786	1	GKQX	786	1	blank2r.bmp	866	1	freundlich	866	1	!	1239	1	!	1332	0	0	0	0	0	0	0	0	0	0	0	0	0	0	0	0	0	0	0	0	0	0	0	0	0	0	0
011019	13:24:51	13:41:54	1021592	5.0.10.0	4_exp_AWA_CON_AMP_EVA	57	Rpleas_acq	Same	Rpleas	Bmasked	CS_B	1pleas	distractor1	CONbeforeEVA	cond_new_unple_123_masked_CS2	condtest_masked_3	10	24	400	1	300	300	0	0	419	46	0	1	0	0	0	1	blank2r.bmp	0	1	+	0	2	B2r.bmp	492	1	blank2r.bmp	786	1	GKQX	786	1	blank2r.bmp	866	2	tot	866	1	!	1239	1	!	1319	0	0	0	0	0	0	0	0	0	0	0	0	0	0	0	0	0	0	0	0	0	0	0	0	0	0	0
011019	13:24:51	13:41:56	1023831	5.0.10.0	4_exp_AWA_CON_AMP_EVA	57	Rpleas_acq	Same	Rpleas	Bmasked	CS_B	1pleas	distractor1	CONbeforeEVA	cond_US_unple_456_masked_CS1	condtest_masked_3	10	25	400	1	300	300	0	0	449	50	0	0	0	0	0	1	blank2r.bmp	0	1	+	0	5	C1r.bmp	492	1	blank2r.bmp	786	1	BMVZ	786	1	blank2r.bmp	866	1	fanatisch	866	1	!	1239	1	!	1346	0	0	0	0	0	0	0	0	0	0	0	0	0	0	0	0	0	0	0	0	0	0	0	0	0	0	0
011019	13:24:51	13:41:58	1026070	5.0.10.0	4_exp_AWA_CON_AMP_EVA	57	Rpleas_acq	Same	Rpleas	Bmasked	CS_B	1pleas	distractor1	CONbeforeEVA	cond_new_unple_123_masked_CS2	condtest_masked_3	10	26	400	1	300	300	0	0	446	46	0	1	0	0	0	1	blank2r.bmp	0	1	+	0	8	C4r.bmp	492	1	blank2r.bmp	786	1	GKQX	786	1	blank2r.bmp	866	1	hindern	866	1	!	1239	1	!	1346	0	0	0	0	0	0	0	0	0	0	0	0	0	0	0	0	0	0	0	0	0	0	0	0	0	0	0
011019	13:24:51	13:42:00	1028216	5.0.10.0	4_exp_AWA_CON_AMP_EVA	57	Rpleas_acq	Same	Rpleas	Bmasked	CS_B	1pleas	distractor1	CONbeforeEVA	cond_new_pleas_123_masked_CS1	condtest_masked_3	10	27	400	1	300	300	0	0	357	50	0	1	0	0	0	1	blank2r.bmp	0	1	+	0	4	B4r.bmp	492	1	blank2r.bmp	786	1	BMVZ	786	1	blank2r.bmp	866	1	helfen	866	1	!	1239	1	!	1252	0	0	0	0	0	0	0	0	0	0	0	0	0	0	0	0	0	0	0	0	0	0	0	0	0	0	0
011019	13:24:51	13:42:03	1030468	5.0.10.0	4_exp_AWA_CON_AMP_EVA	57	Rpleas_acq	Same	Rpleas	Bmasked	CS_B	1pleas	distractor1	CONbeforeEVA	cond_US_unple_456_masked_CS1	condtest_masked_3	10	28	400	1	300	300	0	0	459	46	0	1	0	0	0	1	blank2r.bmp	0	1	+	0	7	C3r.bmp	492	1	blank2r.bmp	786	1	BMVZ	786	1	blank2r.bmp	866	3	faul	866	1	!	1239	1	!	1359	0	0	0	0	0	0	0	0	0	0	0	0	0	0	0	0	0	0	0	0	0	0	0	0	0	0	0
011019	13:24:51	13:42:05	1032641	5.0.10.0	4_exp_AWA_CON_AMP_EVA	57	Rpleas_acq	Same	Rpleas	Bmasked	CS_B	1pleas	distractor1	CONbeforeEVA	cond_US_pleas_456_masked_CS1	condtest_masked_3	10	29	400	1	300	300	0	0	377	50	0	1	0	0	0	1	blank2r.bmp	0	1	+	0	4	B4r.bmp	492	1	blank2r.bmp	786	1	BMVZ	786	1	blank2r.bmp	866	1	freundlich	866	1	!	1239	1	!	1279	0	0	0	0	0	0	0	0	0	0	0	0	0	0	0	0	0	0	0	0	0	0	0	0	0	0	0
011019	13:24:51	13:42:07	1034826	5.0.10.0	4_exp_AWA_CON_AMP_EVA	57	Rpleas_acq	Same	Rpleas	Bmasked	CS_B	1pleas	distractor1	CONbeforeEVA	cond_new_pleas_123_masked_CS2	condtest_masked_3	10	30	400	1	300	300	0	0	391	46	0	0	0	0	0	1	blank2r.bmp	0	1	+	0	5	C1r.bmp	492	1	blank2r.bmp	786	1	GKQX	786	1	blank2r.bmp	866	2	treu	866	1	!	1239	1	!	1292	0	0	0	0	0	0	0	0	0	0	0	0	0	0	0	0	0	0	0	0	0	0	0	0	0	0	0
011019	13:24:51	13:42:09	1037079	5.0.10.0	4_exp_AWA_CON_AMP_EVA	57	Rpleas_acq	Same	Rpleas	Bmasked	CS_B	1pleas	distractor1	CONbeforeEVA	cond_US_unple_456_masked_CS1	condtest_masked_3	10	31	400	0	300	300	0	0	491	46	0	1	0	0	0	1	blank2r.bmp	0	1	+	0	3	B3r.bmp	492	1	blank2r.bmp	786	1	BMVZ	786	1	blank2r.bmp	866	2	tyrannisch	866	1	!	1239	1	!	-1	0	0	0	0	0	0	0	0	0	0	0	0	0	0	0	0	0	0	0	0	0	0	0	0	0	0	0
