date	time	script.currenttime	script.elapsedtime	build	script.currentexpt	subject	expressions.LRpleas_acq	expressions.SameOppo	expressions.condition_Lpleas	expressions.ABmasked	expressions.conditionCS_A	expressions.condition_1pleas	expressions.condition_distractor_AMP	expressions.AWACON_AMPEVA_first	trialcode	blockcode	blocknum	trialnum	windowcenter	inwindow	pretrialpause	posttrialpause	trialduration	trialtimeout	latency	response	expressions.correctedscore	correct	values.vis_performance	values.vis_rating_sum	values.vis_rating_mean	stimulusnumber1	stimulusitem1	stimulusonset1	stimulusnumber2	stimulusitem2	stimulusonset2	stimulusnumber3	stimulusitem3	stimulusonset3	stimulusnumber4	stimulusitem4	stimulusonset4	stimulusnumber5	stimulusitem5	stimulusonset5	stimulusnumber6	stimulusitem6	stimulusonset6	stimulusnumber7	stimulusitem7	stimulusonset7	stimulusnumber8	stimulusitem8	stimulusonset8	stimulusnumber9	stimulusitem9	stimulusonset9	stimulusnumber10	stimulusitem10	stimulusonset10	stimulusnumber11	stimulusitem11	stimulusonset11	stimulusnumber12	stimulusitem12	stimulusonset12	stimulusnumber13	stimulusitem13	stimulusonset13	stimulusnumber14	stimulusitem14	stimulusonset14	stimulusnumber15	stimulusitem15	stimulusonset15	stimulusnumber16	stimulusitem16	stimulusonset16	stimulusnumber17	stimulusitem17	stimulusonset17	stimulusnumber18	stimulusitem18	stimulusonset18
010919	14:07:51	14:10:22	149897	5.0.10.0	4_exp_EVA_AMP_AWA_CON	53	Rpleas_acq	Oppo	Rpleas	Bmasked	CS_B	2pleas	distractor2	EVAbeforeCON	acq_US_unple_masked	acq1_masked	1	1	0	0	300	300	0	0	2766	46	0	1	0	0	0	1	blank2r.bmp	0	1	+	0	2	B2r.bmp	492	1	blank2r.bmp	786	1	BMVZ	786	1	blank2r.bmp	866	2	schlecht	866	0	0	0	0	0	0	0	0	0	0	0	0	0	0	0	0	0	0	0	0	0	0	0	0	0	0	0	0	0	0	0	0	0
010919	14:07:51	14:10:26	154162	5.0.10.0	4_exp_EVA_AMP_AWA_CON	53	Rpleas_acq	Oppo	Rpleas	Bmasked	CS_B	2pleas	distractor2	EVAbeforeCON	acq_new_unple_masked	acq1_masked	1	2	0	0	300	300	0	0	2791	46	0	1	0	0	0	1	blank2r.bmp	0	1	+	0	7	C3r.bmp	492	1	blank2r.bmp	786	5	C1r.bmp	786	1	blank2r.bmp	866	1	lasch	866	0	0	0	0	0	0	0	0	0	0	0	0	0	0	0	0	0	0	0	0	0	0	0	0	0	0	0	0	0	0	0	0	0
010919	14:07:51	14:10:28	156401	5.0.10.0	4_exp_EVA_AMP_AWA_CON	53	Rpleas_acq	Oppo	Rpleas	Bmasked	CS_B	2pleas	distractor2	EVAbeforeCON	acq_new_pleas_masked	acq1_masked	1	3	0	0	300	300	0	0	751	50	0	1	0	0	0	1	blank2r.bmp	0	1	+	0	4	B4r.bmp	492	1	blank2r.bmp	786	2	B2r.bmp	786	1	blank2r.bmp	866	5	freundlich	866	0	0	0	0	0	0	0	0	0	0	0	0	0	0	0	0	0	0	0	0	0	0	0	0	0	0	0	0	0	0	0	0	0
010919	14:07:51	14:10:31	159067	5.0.10.0	4_exp_EVA_AMP_AWA_CON	53	Rpleas_acq	Oppo	Rpleas	Bmasked	CS_B	2pleas	distractor2	EVAbeforeCON	acq_new_pleas_masked	acq1_masked	1	4	0	0	300	300	0	0	1191	50	0	1	0	0	0	1	blank2r.bmp	0	1	+	0	3	B3r.bmp	492	1	blank2r.bmp	786	1	B1r.bmp	786	1	blank2r.bmp	866	2	schlau	866	0	0	0	0	0	0	0	0	0	0	0	0	0	0	0	0	0	0	0	0	0	0	0	0	0	0	0	0	0	0	0	0	0
010919	14:07:51	14:10:33	161319	5.0.10.0	4_exp_EVA_AMP_AWA_CON	53	Rpleas_acq	Oppo	Rpleas	Bmasked	CS_B	2pleas	distractor2	EVAbeforeCON	acq_US_unple_masked	acq1_masked	1	5	0	0	300	300	0	0	763	46	0	1	0	0	0	1	blank2r.bmp	0	1	+	0	5	C1r.bmp	492	1	blank2r.bmp	786	1	BMVZ	786	1	blank2r.bmp	866	4	tot	866	0	0	0	0	0	0	0	0	0	0	0	0	0	0	0	0	0	0	0	0	0	0	0	0	0	0	0	0	0	0	0	0	0
010919	14:07:51	14:10:36	164158	5.0.10.0	4_exp_EVA_AMP_AWA_CON	53	Rpleas_acq	Oppo	Rpleas	Bmasked	CS_B	2pleas	distractor2	EVAbeforeCON	acq_US_unple_masked	acq1_masked	1	6	0	0	300	300	0	0	1366	46	0	1	0	0	0	1	blank2r.bmp	0	1	+	0	6	C2r.bmp	492	1	blank2r.bmp	786	1	BMVZ	786	1	blank2r.bmp	866	6	hindern	866	0	0	0	0	0	0	0	0	0	0	0	0	0	0	0	0	0	0	0	0	0	0	0	0	0	0	0	0	0	0	0	0	0
010919	14:07:51	14:10:39	167104	5.0.10.0	4_exp_EVA_AMP_AWA_CON	53	Rpleas_acq	Oppo	Rpleas	Bmasked	CS_B	2pleas	distractor2	EVAbeforeCON	acq_new_unple_masked	acq1_masked	1	7	0	0	300	300	0	0	1465	46	0	1	0	0	0	1	blank2r.bmp	0	1	+	0	1	B1r.bmp	492	1	blank2r.bmp	786	8	C4r.bmp	786	1	blank2r.bmp	866	5	fanatisch	866	0	0	0	0	0	0	0	0	0	0	0	0	0	0	0	0	0	0	0	0	0	0	0	0	0	0	0	0	0	0	0	0	0
010919	14:07:51	14:10:41	169196	5.0.10.0	4_exp_EVA_AMP_AWA_CON	53	Rpleas_acq	Oppo	Rpleas	Bmasked	CS_B	2pleas	distractor2	EVAbeforeCON	acq_US_pleas_masked	acq1_masked	1	8	0	0	300	300	0	0	613	50	0	1	0	0	0	1	blank2r.bmp	0	1	+	0	8	C4r.bmp	492	1	blank2r.bmp	786	1	GKQX	786	1	blank2r.bmp	866	5	spielen	866	0	0	0	0	0	0	0	0	0	0	0	0	0	0	0	0	0	0	0	0	0	0	0	0	0	0	0	0	0	0	0	0	0
010919	14:07:51	14:10:43	171435	5.0.10.0	4_exp_EVA_AMP_AWA_CON	53	Rpleas_acq	Oppo	Rpleas	Bmasked	CS_B	2pleas	distractor2	EVAbeforeCON	acq_new_unple_masked	acq1_masked	1	9	0	0	300	300	0	0	767	46	0	1	0	0	0	1	blank2r.bmp	0	1	+	0	7	C3r.bmp	492	1	blank2r.bmp	786	6	C2r.bmp	786	1	blank2r.bmp	866	4	leiden	866	0	0	0	0	0	0	0	0	0	0	0	0	0	0	0	0	0	0	0	0	0	0	0	0	0	0	0	0	0	0	0	0	0
010919	14:07:51	14:10:46	174088	5.0.10.0	4_exp_EVA_AMP_AWA_CON	53	Rpleas_acq	Oppo	Rpleas	Bmasked	CS_B	2pleas	distractor2	EVAbeforeCON	acq_US_pleas_masked	acq1_masked	1	10	0	0	300	300	0	0	1169	50	0	1	0	0	0	1	blank2r.bmp	0	1	+	0	8	C4r.bmp	492	1	blank2r.bmp	786	1	GKQX	786	1	blank2r.bmp	866	3	retten	866	0	0	0	0	0	0	0	0	0	0	0	0	0	0	0	0	0	0	0	0	0	0	0	0	0	0	0	0	0	0	0	0	0
010919	14:07:51	14:10:48	176513	5.0.10.0	4_exp_EVA_AMP_AWA_CON	53	Rpleas_acq	Oppo	Rpleas	Bmasked	CS_B	2pleas	distractor2	EVAbeforeCON	acq_new_pleas_masked	acq1_masked	1	11	0	0	300	300	0	0	936	50	0	1	0	0	0	1	blank2r.bmp	0	1	+	0	6	C2r.bmp	492	1	blank2r.bmp	786	4	B4r.bmp	786	1	blank2r.bmp	866	6	ehrlich	866	0	0	0	0	0	0	0	0	0	0	0	0	0	0	0	0	0	0	0	0	0	0	0	0	0	0	0	0	0	0	0	0	0
010919	14:07:51	14:10:50	178752	5.0.10.0	4_exp_EVA_AMP_AWA_CON	53	Rpleas_acq	Oppo	Rpleas	Bmasked	CS_B	2pleas	distractor2	EVAbeforeCON	acq_US_pleas_masked	acq1_masked	1	12	0	0	300	300	0	0	759	50	0	1	0	0	0	1	blank2r.bmp	0	1	+	0	5	C1r.bmp	492	1	blank2r.bmp	786	1	GKQX	786	1	blank2r.bmp	866	6	helfen	866	0	0	0	0	0	0	0	0	0	0	0	0	0	0	0	0	0	0	0	0	0	0	0	0	0	0	0	0	0	0	0	0	0
010919	14:07:51	14:10:53	180938	5.0.10.0	4_exp_EVA_AMP_AWA_CON	53	Rpleas_acq	Oppo	Rpleas	Bmasked	CS_B	2pleas	distractor2	EVAbeforeCON	acq_US_pleas_masked	acq1_masked	1	13	0	0	300	300	0	0	715	50	0	1	0	0	0	1	blank2r.bmp	0	1	+	0	2	B2r.bmp	492	1	blank2r.bmp	786	1	GKQX	786	1	blank2r.bmp	866	4	treu	866	0	0	0	0	0	0	0	0	0	0	0	0	0	0	0	0	0	0	0	0	0	0	0	0	0	0	0	0	0	0	0	0	0
010919	14:07:51	14:10:55	183031	5.0.10.0	4_exp_EVA_AMP_AWA_CON	53	Rpleas_acq	Oppo	Rpleas	Bmasked	CS_B	2pleas	distractor2	EVAbeforeCON	acq_US_pleas_masked	acq1_masked	1	14	0	0	300	300	0	0	609	50	0	1	0	0	0	1	blank2r.bmp	0	1	+	0	3	B3r.bmp	492	1	blank2r.bmp	786	1	GKQX	786	1	blank2r.bmp	866	2	schön	866	0	0	0	0	0	0	0	0	0	0	0	0	0	0	0	0	0	0	0	0	0	0	0	0	0	0	0	0	0	0	0	0	0
010919	14:07:51	14:10:57	185190	5.0.10.0	4_exp_EVA_AMP_AWA_CON	53	Rpleas_acq	Oppo	Rpleas	Bmasked	CS_B	2pleas	distractor2	EVAbeforeCON	acq_new_pleas_masked	acq1_masked	1	15	0	0	300	300	0	0	691	50	0	1	0	0	0	1	blank2r.bmp	0	1	+	0	1	B1r.bmp	492	1	blank2r.bmp	786	3	B3r.bmp	786	1	blank2r.bmp	866	1	loyal	866	0	0	0	0	0	0	0	0	0	0	0	0	0	0	0	0	0	0	0	0	0	0	0	0	0	0	0	0	0	0	0	0	0
010919	14:07:51	14:10:59	187295	5.0.10.0	4_exp_EVA_AMP_AWA_CON	53	Rpleas_acq	Oppo	Rpleas	Bmasked	CS_B	2pleas	distractor2	EVAbeforeCON	acq_US_unple_masked	acq1_masked	1	16	0	0	300	300	0	0	614	46	0	1	0	0	0	1	blank2r.bmp	0	1	+	0	4	B4r.bmp	492	1	blank2r.bmp	786	1	BMVZ	786	1	blank2r.bmp	866	3	rächen	866	0	0	0	0	0	0	0	0	0	0	0	0	0	0	0	0	0	0	0	0	0	0	0	0	0	0	0	0	0	0	0	0	0
010919	14:07:51	14:11:01	189401	5.0.10.0	4_exp_EVA_AMP_AWA_CON	53	Rpleas_acq	Oppo	Rpleas	Bmasked	CS_B	2pleas	distractor2	EVAbeforeCON	acq_US_unple_masked	acq1_masked	1	17	0	0	300	300	0	0	627	46	0	1	0	0	0	1	blank2r.bmp	0	1	+	0	1	B1r.bmp	492	1	blank2r.bmp	786	1	BMVZ	786	1	blank2r.bmp	866	5	strafen	866	0	0	0	0	0	0	0	0	0	0	0	0	0	0	0	0	0	0	0	0	0	0	0	0	0	0	0	0	0	0	0	0	0
010919	14:07:51	14:11:03	191494	5.0.10.0	4_exp_EVA_AMP_AWA_CON	53	Rpleas_acq	Oppo	Rpleas	Bmasked	CS_B	2pleas	distractor2	EVAbeforeCON	acq_US_unple_masked	acq1_masked	1	18	0	0	300	300	0	0	616	46	0	1	0	0	0	1	blank2r.bmp	0	1	+	0	4	B4r.bmp	492	1	blank2r.bmp	786	1	BMVZ	786	1	blank2r.bmp	866	1	tyrannisch	866	0	0	0	0	0	0	0	0	0	0	0	0	0	0	0	0	0	0	0	0	0	0	0	0	0	0	0	0	0	0	0	0	0
010919	14:07:51	14:11:05	193706	5.0.10.0	4_exp_EVA_AMP_AWA_CON	53	Rpleas_acq	Oppo	Rpleas	Bmasked	CS_B	2pleas	distractor2	EVAbeforeCON	acq_new_unple_masked	acq1_masked	1	19	0	0	300	300	0	0	740	46	0	1	0	0	0	1	blank2r.bmp	0	1	+	0	7	C3r.bmp	492	1	blank2r.bmp	786	7	C3r.bmp	786	1	blank2r.bmp	866	2	schroff	866	0	0	0	0	0	0	0	0	0	0	0	0	0	0	0	0	0	0	0	0	0	0	0	0	0	0	0	0	0	0	0	0	0
010919	14:07:51	14:11:08	195852	5.0.10.0	4_exp_EVA_AMP_AWA_CON	53	Rpleas_acq	Oppo	Rpleas	Bmasked	CS_B	2pleas	distractor2	EVAbeforeCON	acq_new_unple_masked	acq1_masked	1	20	0	0	300	300	0	0	660	46	0	1	0	0	0	1	blank2r.bmp	0	1	+	0	3	B3r.bmp	492	1	blank2r.bmp	786	4	B4r.bmp	786	1	blank2r.bmp	866	3	faul	866	0	0	0	0	0	0	0	0	0	0	0	0	0	0	0	0	0	0	0	0	0	0	0	0	0	0	0	0	0	0	0	0	0
010919	14:07:51	14:11:10	198118	5.0.10.0	4_exp_EVA_AMP_AWA_CON	53	Rpleas_acq	Oppo	Rpleas	Bmasked	CS_B	2pleas	distractor2	EVAbeforeCON	acq_new_pleas_masked	acq1_masked	1	21	0	0	300	300	0	0	781	50	0	1	0	0	0	1	blank2r.bmp	0	1	+	0	2	B2r.bmp	492	1	blank2r.bmp	786	6	C2r.bmp	786	1	blank2r.bmp	866	4	lachen	866	0	0	0	0	0	0	0	0	0	0	0	0	0	0	0	0	0	0	0	0	0	0	0	0	0	0	0	0	0	0	0	0	0
010919	14:07:51	14:11:14	202489	5.0.10.0	4_exp_EVA_AMP_AWA_CON	53	Rpleas_acq	Oppo	Rpleas	Bmasked	CS_B	2pleas	distractor2	EVAbeforeCON	acq_new_unple_masked	acq1_masked	1	22	0	0	300	300	0	0	2892	46	0	1	0	0	0	1	blank2r.bmp	0	1	+	0	8	C4r.bmp	492	1	blank2r.bmp	786	2	B2r.bmp	786	1	blank2r.bmp	866	6	eitel	866	0	0	0	0	0	0	0	0	0	0	0	0	0	0	0	0	0	0	0	0	0	0	0	0	0	0	0	0	0	0	0	0	0
010919	14:07:51	14:11:17	204941	5.0.10.0	4_exp_EVA_AMP_AWA_CON	53	Rpleas_acq	Oppo	Rpleas	Bmasked	CS_B	2pleas	distractor2	EVAbeforeCON	acq_new_pleas_masked	acq1_masked	1	23	0	0	300	300	0	0	973	50	0	1	0	0	0	1	blank2r.bmp	0	1	+	0	5	C1r.bmp	492	1	blank2r.bmp	786	7	C3r.bmp	786	1	blank2r.bmp	866	3	fair	866	0	0	0	0	0	0	0	0	0	0	0	0	0	0	0	0	0	0	0	0	0	0	0	0	0	0	0	0	0	0	0	0	0
010919	14:07:51	14:11:20	207767	5.0.10.0	4_exp_EVA_AMP_AWA_CON	53	Rpleas_acq	Oppo	Rpleas	Bmasked	CS_B	2pleas	distractor2	EVAbeforeCON	acq_US_pleas_masked	acq1_masked	1	24	0	0	300	300	0	0	1348	50	0	1	0	0	0	1	blank2r.bmp	0	1	+	0	6	C2r.bmp	492	1	blank2r.bmp	786	1	GKQX	786	1	blank2r.bmp	866	1	tolerant	866	0	0	0	0	0	0	0	0	0	0	0	0	0	0	0	0	0	0	0	0	0	0	0	0	0	0	0	0	0	0	0	0	0
010919	14:07:51	14:11:22	210019	5.0.10.0	4_exp_EVA_AMP_AWA_CON	53	Rpleas_acq	Oppo	Rpleas	Bmasked	CS_B	2pleas	distractor2	EVAbeforeCON	acq_new_pleas_masked	acq1_masked	1	25	0	0	300	300	0	0	766	50	0	1	0	0	0	1	blank2r.bmp	0	1	+	0	6	C2r.bmp	492	1	blank2r.bmp	786	3	B3r.bmp	786	1	blank2r.bmp	866	4	lachen	866	0	0	0	0	0	0	0	0	0	0	0	0	0	0	0	0	0	0	0	0	0	0	0	0	0	0	0	0	0	0	0	0	0
010919	14:07:51	14:11:24	212125	5.0.10.0	4_exp_EVA_AMP_AWA_CON	53	Rpleas_acq	Oppo	Rpleas	Bmasked	CS_B	2pleas	distractor2	EVAbeforeCON	acq_new_pleas_masked	acq1_masked	1	26	0	0	300	300	0	0	627	50	0	1	0	0	0	1	blank2r.bmp	0	1	+	0	5	C1r.bmp	492	1	blank2r.bmp	786	1	B1r.bmp	786	1	blank2r.bmp	866	6	ehrlich	866	0	0	0	0	0	0	0	0	0	0	0	0	0	0	0	0	0	0	0	0	0	0	0	0	0	0	0	0	0	0	0	0	0
010919	14:07:51	14:11:26	214138	5.0.10.0	4_exp_EVA_AMP_AWA_CON	53	Rpleas_acq	Oppo	Rpleas	Bmasked	CS_B	2pleas	distractor2	EVAbeforeCON	acq_US_pleas_masked	acq1_masked	1	27	0	0	300	300	0	0	541	50	0	1	0	0	0	1	blank2r.bmp	0	1	+	0	7	C3r.bmp	492	1	blank2r.bmp	786	1	GKQX	786	1	blank2r.bmp	866	2	schön	866	0	0	0	0	0	0	0	0	0	0	0	0	0	0	0	0	0	0	0	0	0	0	0	0	0	0	0	0	0	0	0	0	0
010919	14:07:51	14:11:28	216337	5.0.10.0	4_exp_EVA_AMP_AWA_CON	53	Rpleas_acq	Oppo	Rpleas	Bmasked	CS_B	2pleas	distractor2	EVAbeforeCON	acq_US_pleas_masked	acq1_masked	1	28	0	0	300	300	0	0	723	50	0	1	0	0	0	1	blank2r.bmp	0	1	+	0	2	B2r.bmp	492	1	blank2r.bmp	786	1	GKQX	786	1	blank2r.bmp	866	6	helfen	866	0	0	0	0	0	0	0	0	0	0	0	0	0	0	0	0	0	0	0	0	0	0	0	0	0	0	0	0	0	0	0	0	0
010919	14:07:51	14:11:30	218589	5.0.10.0	4_exp_EVA_AMP_AWA_CON	53	Rpleas_acq	Oppo	Rpleas	Bmasked	CS_B	2pleas	distractor2	EVAbeforeCON	acq_US_unple_masked	acq1_masked	1	29	0	0	300	300	0	0	777	46	0	1	0	0	0	1	blank2r.bmp	0	1	+	0	3	B3r.bmp	492	1	blank2r.bmp	786	1	BMVZ	786	1	blank2r.bmp	866	4	tot	866	0	0	0	0	0	0	0	0	0	0	0	0	0	0	0	0	0	0	0	0	0	0	0	0	0	0	0	0	0	0	0	0	0
010919	14:07:51	14:11:33	220788	5.0.10.0	4_exp_EVA_AMP_AWA_CON	53	Rpleas_acq	Oppo	Rpleas	Bmasked	CS_B	2pleas	distractor2	EVAbeforeCON	acq_US_unple_masked	acq1_masked	1	30	0	0	300	300	0	0	729	46	0	1	0	0	0	1	blank2r.bmp	0	1	+	0	1	B1r.bmp	492	1	blank2r.bmp	786	1	BMVZ	786	1	blank2r.bmp	866	3	rächen	866	0	0	0	0	0	0	0	0	0	0	0	0	0	0	0	0	0	0	0	0	0	0	0	0	0	0	0	0	0	0	0	0	0
010919	14:07:51	14:11:35	223014	5.0.10.0	4_exp_EVA_AMP_AWA_CON	53	Rpleas_acq	Oppo	Rpleas	Bmasked	CS_B	2pleas	distractor2	EVAbeforeCON	acq_new_unple_masked	acq1_masked	1	31	0	0	300	300	0	0	737	46	0	1	0	0	0	1	blank2r.bmp	0	1	+	0	4	B4r.bmp	492	1	blank2r.bmp	786	5	C1r.bmp	786	1	blank2r.bmp	866	4	leiden	866	0	0	0	0	0	0	0	0	0	0	0	0	0	0	0	0	0	0	0	0	0	0	0	0	0	0	0	0	0	0	0	0	0
010919	14:07:51	14:11:37	225226	5.0.10.0	4_exp_EVA_AMP_AWA_CON	53	Rpleas_acq	Oppo	Rpleas	Bmasked	CS_B	2pleas	distractor2	EVAbeforeCON	acq_US_pleas_masked	acq1_masked	1	32	0	0	300	300	0	0	734	50	0	1	0	0	0	1	blank2r.bmp	0	1	+	0	8	C4r.bmp	492	1	blank2r.bmp	786	1	GKQX	786	1	blank2r.bmp	866	1	tolerant	866	0	0	0	0	0	0	0	0	0	0	0	0	0	0	0	0	0	0	0	0	0	0	0	0	0	0	0	0	0	0	0	0	0
010919	14:07:51	14:11:40	228732	5.0.10.0	4_exp_EVA_AMP_AWA_CON	53	Rpleas_acq	Oppo	Rpleas	Bmasked	CS_B	2pleas	distractor2	EVAbeforeCON	acq_new_pleas_masked	acq1_masked	1	33	0	0	300	300	0	0	2014	50	0	1	0	0	0	1	blank2r.bmp	0	1	+	0	7	C3r.bmp	492	1	blank2r.bmp	786	8	C4r.bmp	786	1	blank2r.bmp	866	1	loyal	866	0	0	0	0	0	0	0	0	0	0	0	0	0	0	0	0	0	0	0	0	0	0	0	0	0	0	0	0	0	0	0	0	0
010919	14:07:51	14:11:43	231357	5.0.10.0	4_exp_EVA_AMP_AWA_CON	53	Rpleas_acq	Oppo	Rpleas	Bmasked	CS_B	2pleas	distractor2	EVAbeforeCON	acq_new_unple_masked	acq1_masked	1	34	0	0	300	300	0	0	1155	46	0	1	0	0	0	1	blank2r.bmp	0	1	+	0	4	B4r.bmp	492	1	blank2r.bmp	786	2	B2r.bmp	786	1	blank2r.bmp	866	5	fanatisch	866	0	0	0	0	0	0	0	0	0	0	0	0	0	0	0	0	0	0	0	0	0	0	0	0	0	0	0	0	0	0	0	0	0
010919	14:07:51	14:11:45	233450	5.0.10.0	4_exp_EVA_AMP_AWA_CON	53	Rpleas_acq	Oppo	Rpleas	Bmasked	CS_B	2pleas	distractor2	EVAbeforeCON	acq_new_unple_masked	acq1_masked	1	35	0	0	300	300	0	0	599	46	0	1	0	0	0	1	blank2r.bmp	0	1	+	0	8	C4r.bmp	492	1	blank2r.bmp	786	6	C2r.bmp	786	1	blank2r.bmp	866	3	faul	866	0	0	0	0	0	0	0	0	0	0	0	0	0	0	0	0	0	0	0	0	0	0	0	0	0	0	0	0	0	0	0	0	0
010919	14:07:51	14:11:47	235556	5.0.10.0	4_exp_EVA_AMP_AWA_CON	53	Rpleas_acq	Oppo	Rpleas	Bmasked	CS_B	2pleas	distractor2	EVAbeforeCON	acq_US_unple_masked	acq1_masked	1	36	0	0	300	300	0	0	634	46	0	1	0	0	0	1	blank2r.bmp	0	1	+	0	6	C2r.bmp	492	1	blank2r.bmp	786	1	BMVZ	786	1	blank2r.bmp	866	2	schlecht	866	0	0	0	0	0	0	0	0	0	0	0	0	0	0	0	0	0	0	0	0	0	0	0	0	0	0	0	0	0	0	0	0	0
010919	14:07:51	14:12:57	305713	5.0.10.0	4_exp_EVA_AMP_AWA_CON	53	Rpleas_acq	Oppo	Rpleas	Bmasked	CS_B	2pleas	distractor2	EVAbeforeCON	acq_new_unple_masked	acq2_masked	2	1	480	0	300	300	0	0	4577	46	0	1	0	0	0	1	blank2r.bmp	0	1	+	0	3	B3r.bmp	492	1	blank2r.bmp	786	8	C4r.bmp	786	1	blank2r.bmp	866	1	lasch	866	1	!	1319	1	!	-1	0	0	0	0	0	0	0	0	0	0	0	0	0	0	0	0	0	0	0	0	0	0	0	0	0	0	0
010919	14:07:51	14:13:00	308379	5.0.10.0	4_exp_EVA_AMP_AWA_CON	53	Rpleas_acq	Oppo	Rpleas	Bmasked	CS_B	2pleas	distractor2	EVAbeforeCON	acq_new_pleas_masked	acq2_masked	2	2	480	0	300	300	0	0	890	50	0	1	0	0	0	1	blank2r.bmp	0	1	+	0	2	B2r.bmp	492	1	blank2r.bmp	786	3	B3r.bmp	786	1	blank2r.bmp	866	5	freundlich	866	1	!	1319	1	!	-1	0	0	0	0	0	0	0	0	0	0	0	0	0	0	0	0	0	0	0	0	0	0	0	0	0	0	0
010919	14:07:51	14:13:03	310884	5.0.10.0	4_exp_EVA_AMP_AWA_CON	53	Rpleas_acq	Oppo	Rpleas	Bmasked	CS_B	2pleas	distractor2	EVAbeforeCON	acq_new_unple_masked	acq2_masked	2	3	480	0	300	300	0	0	719	46	0	1	0	0	0	1	blank2r.bmp	0	1	+	0	1	B1r.bmp	492	1	blank2r.bmp	786	7	C3r.bmp	786	1	blank2r.bmp	866	2	schroff	866	1	!	1319	1	!	-1	0	0	0	0	0	0	0	0	0	0	0	0	0	0	0	0	0	0	0	0	0	0	0	0	0	0	0
010919	14:07:51	14:13:05	313257	5.0.10.0	4_exp_EVA_AMP_AWA_CON	53	Rpleas_acq	Oppo	Rpleas	Bmasked	CS_B	2pleas	distractor2	EVAbeforeCON	acq_new_pleas_masked	acq2_masked	2	4	480	0	300	300	0	0	597	50	0	1	0	0	0	1	blank2r.bmp	0	1	+	0	5	C1r.bmp	492	1	blank2r.bmp	786	1	B1r.bmp	786	1	blank2r.bmp	866	2	schlau	866	1	!	1319	1	!	-1	0	0	0	0	0	0	0	0	0	0	0	0	0	0	0	0	0	0	0	0	0	0	0	0	0	0	0
010919	14:07:51	14:13:07	315616	5.0.10.0	4_exp_EVA_AMP_AWA_CON	53	Rpleas_acq	Oppo	Rpleas	Bmasked	CS_B	2pleas	distractor2	EVAbeforeCON	acq_US_pleas_masked	acq2_masked	2	5	480	1	300	300	0	0	539	50	0	1	0	0	0	1	blank2r.bmp	0	1	+	0	1	B1r.bmp	492	1	blank2r.bmp	786	1	GKQX	786	1	blank2r.bmp	866	5	spielen	866	1	!	1319	1	!	1439	0	0	0	0	0	0	0	0	0	0	0	0	0	0	0	0	0	0	0	0	0	0	0	0	0	0	0
010919	14:07:51	14:13:10	317908	5.0.10.0	4_exp_EVA_AMP_AWA_CON	53	Rpleas_acq	Oppo	Rpleas	Bmasked	CS_B	2pleas	distractor2	EVAbeforeCON	acq_US_unple_masked	acq2_masked	2	6	480	1	300	300	0	0	493	46	0	1	0	0	0	1	blank2r.bmp	0	1	+	0	8	C4r.bmp	492	1	blank2r.bmp	786	1	BMVZ	786	1	blank2r.bmp	866	1	tyrannisch	866	1	!	1319	1	!	1399	0	0	0	0	0	0	0	0	0	0	0	0	0	0	0	0	0	0	0	0	0	0	0	0	0	0	0
010919	14:07:51	14:13:12	320387	5.0.10.0	4_exp_EVA_AMP_AWA_CON	53	Rpleas_acq	Oppo	Rpleas	Bmasked	CS_B	2pleas	distractor2	EVAbeforeCON	acq_new_pleas_masked	acq2_masked	2	7	480	1	300	300	0	0	473	46	0	0	0	0	0	1	blank2r.bmp	0	1	+	0	6	C2r.bmp	492	1	blank2r.bmp	786	4	B4r.bmp	786	1	blank2r.bmp	866	3	fair	866	1	FEHLER	1692	1	!	1319	1	!	1372	0	0	0	0	0	0	0	0	0	0	0	0	0	0	0	0	0	0	0	0	0	0	0	0
010919	14:07:51	14:13:14	322493	5.0.10.0	4_exp_EVA_AMP_AWA_CON	53	Rpleas_acq	Oppo	Rpleas	Bmasked	CS_B	2pleas	distractor2	EVAbeforeCON	acq_US_unple_masked	acq2_masked	2	8	480	1	300	300	0	0	527	46	0	1	0	0	0	1	blank2r.bmp	0	1	+	0	5	C1r.bmp	492	1	blank2r.bmp	786	1	BMVZ	786	1	blank2r.bmp	866	6	hindern	866	1	!	1319	1	!	1426	0	0	0	0	0	0	0	0	0	0	0	0	0	0	0	0	0	0	0	0	0	0	0	0	0	0	0
010919	14:07:51	14:13:17	324932	5.0.10.0	4_exp_EVA_AMP_AWA_CON	53	Rpleas_acq	Oppo	Rpleas	Bmasked	CS_B	2pleas	distractor2	EVAbeforeCON	acq_new_unple_masked	acq2_masked	2	9	480	1	300	300	0	0	433	50	0	0	0	0	0	1	blank2r.bmp	0	1	+	0	7	C3r.bmp	492	1	blank2r.bmp	786	5	C1r.bmp	786	1	blank2r.bmp	866	6	eitel	866	1	FEHLER	1652	1	!	1319	1	!	1332	0	0	0	0	0	0	0	0	0	0	0	0	0	0	0	0	0	0	0	0	0	0	0	0
010919	14:07:51	14:13:19	326945	5.0.10.0	4_exp_EVA_AMP_AWA_CON	53	Rpleas_acq	Oppo	Rpleas	Bmasked	CS_B	2pleas	distractor2	EVAbeforeCON	acq_US_unple_masked	acq2_masked	2	10	480	1	300	300	0	0	426	46	0	1	0	0	0	1	blank2r.bmp	0	1	+	0	2	B2r.bmp	492	1	blank2r.bmp	786	1	BMVZ	786	1	blank2r.bmp	866	5	strafen	866	1	!	1319	1	!	1332	0	0	0	0	0	0	0	0	0	0	0	0	0	0	0	0	0	0	0	0	0	0	0	0	0	0	0
010919	14:07:51	14:13:29	336820	5.0.10.0	4_exp_EVA_AMP_AWA_CON	53	Rpleas_acq	Oppo	Rpleas	Bmasked	CS_B	2pleas	distractor2	EVAbeforeCON	acq_US_pleas_masked	acq2_masked	2	11	480	0	300	300	0	0	8113	50	0	1	0	0	0	1	blank2r.bmp	0	1	+	0	3	B3r.bmp	492	1	blank2r.bmp	786	1	GKQX	786	1	blank2r.bmp	866	4	treu	866	1	!	1319	1	!	-1	0	0	0	0	0	0	0	0	0	0	0	0	0	0	0	0	0	0	0	0	0	0	0	0	0	0	0
010919	14:07:51	14:13:31	339166	5.0.10.0	4_exp_EVA_AMP_AWA_CON	53	Rpleas_acq	Oppo	Rpleas	Bmasked	CS_B	2pleas	distractor2	EVAbeforeCON	acq_US_pleas_masked	acq2_masked	2	12	480	0	300	300	0	0	559	50	0	1	0	0	0	1	blank2r.bmp	0	1	+	0	4	B4r.bmp	492	1	blank2r.bmp	786	1	GKQX	786	1	blank2r.bmp	866	3	retten	866	1	!	1319	1	!	-1	0	0	0	0	0	0	0	0	0	0	0	0	0	0	0	0	0	0	0	0	0	0	0	0	0	0	0
010919	14:07:51	14:13:33	341365	5.0.10.0	4_exp_EVA_AMP_AWA_CON	53	Rpleas_acq	Oppo	Rpleas	Bmasked	CS_B	2pleas	distractor2	EVAbeforeCON	acq_US_pleas_masked	acq2_masked	2	13	480	0	300	300	0	0	412	50	0	1	0	0	0	1	blank2r.bmp	0	1	+	0	4	B4r.bmp	492	1	blank2r.bmp	786	1	GKQX	786	1	blank2r.bmp	866	2	schön	866	1	!	-1	1	!	-1	0	0	0	0	0	0	0	0	0	0	0	0	0	0	0	0	0	0	0	0	0	0	0	0	0	0	0
010919	14:07:51	14:13:35	343764	5.0.10.0	4_exp_EVA_AMP_AWA_CON	53	Rpleas_acq	Oppo	Rpleas	Bmasked	CS_B	2pleas	distractor2	EVAbeforeCON	acq_new_unple_masked	acq2_masked	2	14	480	0	300	300	0	0	621	46	0	1	0	0	0	1	blank2r.bmp	0	1	+	0	5	C1r.bmp	492	1	blank2r.bmp	786	6	C2r.bmp	786	1	blank2r.bmp	866	6	eitel	866	1	!	1319	1	!	-1	0	0	0	0	0	0	0	0	0	0	0	0	0	0	0	0	0	0	0	0	0	0	0	0	0	0	0
010919	14:07:51	14:13:38	346323	5.0.10.0	4_exp_EVA_AMP_AWA_CON	53	Rpleas_acq	Oppo	Rpleas	Bmasked	CS_B	2pleas	distractor2	EVAbeforeCON	acq_new_unple_masked	acq2_masked	2	15	480	1	300	300	0	0	538	50	0	0	0	0	0	1	blank2r.bmp	0	1	+	0	7	C3r.bmp	492	1	blank2r.bmp	786	5	C1r.bmp	786	1	blank2r.bmp	866	4	leiden	866	1	FEHLER	1759	1	!	1319	1	!	1439	0	0	0	0	0	0	0	0	0	0	0	0	0	0	0	0	0	0	0	0	0	0	0	0
010919	14:07:51	14:13:40	348416	5.0.10.0	4_exp_EVA_AMP_AWA_CON	53	Rpleas_acq	Oppo	Rpleas	Bmasked	CS_B	2pleas	distractor2	EVAbeforeCON	acq_US_unple_masked	acq2_masked	2	16	480	1	300	300	0	0	503	46	0	1	0	0	0	1	blank2r.bmp	0	1	+	0	8	C4r.bmp	492	1	blank2r.bmp	786	1	BMVZ	786	1	blank2r.bmp	866	2	schlecht	866	1	!	1319	1	!	1399	0	0	0	0	0	0	0	0	0	0	0	0	0	0	0	0	0	0	0	0	0	0	0	0	0	0	0
010919	14:07:51	14:13:44	352534	5.0.10.0	4_exp_EVA_AMP_AWA_CON	53	Rpleas_acq	Oppo	Rpleas	Bmasked	CS_B	2pleas	distractor2	EVAbeforeCON	acq_new_unple_masked	acq2_masked	2	17	480	0	300	300	0	0	2354	46	0	1	0	0	0	1	blank2r.bmp	0	1	+	0	3	B3r.bmp	492	1	blank2r.bmp	786	8	C4r.bmp	786	1	blank2r.bmp	866	5	fanatisch	866	1	!	1319	1	!	-1	0	0	0	0	0	0	0	0	0	0	0	0	0	0	0	0	0	0	0	0	0	0	0	0	0	0	0
010919	14:07:51	14:13:48	356639	5.0.10.0	4_exp_EVA_AMP_AWA_CON	53	Rpleas_acq	Oppo	Rpleas	Bmasked	CS_B	2pleas	distractor2	EVAbeforeCON	acq_new_pleas_masked	acq2_masked	2	18	480	0	300	300	0	0	2321	50	0	1	0	0	0	1	blank2r.bmp	0	1	+	0	2	B2r.bmp	492	1	blank2r.bmp	786	7	C3r.bmp	786	1	blank2r.bmp	866	6	ehrlich	866	1	!	1319	1	!	-1	0	0	0	0	0	0	0	0	0	0	0	0	0	0	0	0	0	0	0	0	0	0	0	0	0	0	0
010919	14:07:51	14:13:51	359318	5.0.10.0	4_exp_EVA_AMP_AWA_CON	53	Rpleas_acq	Oppo	Rpleas	Bmasked	CS_B	2pleas	distractor2	EVAbeforeCON	acq_new_pleas_masked	acq2_masked	2	19	480	0	300	300	0	0	670	46	0	0	0	0	0	1	blank2r.bmp	0	1	+	0	1	B1r.bmp	492	1	blank2r.bmp	786	3	B3r.bmp	786	1	blank2r.bmp	866	2	schlau	866	1	FEHLER	1879	1	!	1319	1	!	-1	0	0	0	0	0	0	0	0	0	0	0	0	0	0	0	0	0	0	0	0	0	0	0	0
010919	14:07:51	14:13:53	361464	5.0.10.0	4_exp_EVA_AMP_AWA_CON	53	Rpleas_acq	Oppo	Rpleas	Bmasked	CS_B	2pleas	distractor2	EVAbeforeCON	acq_US_unple_masked	acq2_masked	2	20	480	0	300	300	0	0	352	50	0	0	0	0	0	1	blank2r.bmp	0	1	+	0	6	C2r.bmp	492	1	blank2r.bmp	786	1	BMVZ	786	1	blank2r.bmp	866	4	tot	866	1	FEHLER	1559	1	!	-1	1	!	-1	0	0	0	0	0	0	0	0	0	0	0	0	0	0	0	0	0	0	0	0	0	0	0	0
010919	14:07:51	14:13:56	363783	5.0.10.0	4_exp_EVA_AMP_AWA_CON	53	Rpleas_acq	Oppo	Rpleas	Bmasked	CS_B	2pleas	distractor2	EVAbeforeCON	acq_US_pleas_masked	acq2_masked	2	21	480	1	300	300	0	0	531	46	0	0	0	0	0	1	blank2r.bmp	0	1	+	0	7	C3r.bmp	492	1	blank2r.bmp	786	1	GKQX	786	1	blank2r.bmp	866	5	spielen	866	1	FEHLER	1745	1	!	1319	1	!	1426	0	0	0	0	0	0	0	0	0	0	0	0	0	0	0	0	0	0	0	0	0	0	0	0
010919	14:07:51	14:13:58	365915	5.0.10.0	4_exp_EVA_AMP_AWA_CON	53	Rpleas_acq	Oppo	Rpleas	Bmasked	CS_B	2pleas	distractor2	EVAbeforeCON	acq_US_unple_masked	acq2_masked	2	22	480	0	300	300	0	0	348	50	0	0	0	0	0	1	blank2r.bmp	0	1	+	0	1	B1r.bmp	492	1	blank2r.bmp	786	1	BMVZ	786	1	blank2r.bmp	866	1	tyrannisch	866	1	FEHLER	1559	1	!	-1	1	!	-1	0	0	0	0	0	0	0	0	0	0	0	0	0	0	0	0	0	0	0	0	0	0	0	0
010919	14:07:51	14:14:00	368248	5.0.10.0	4_exp_EVA_AMP_AWA_CON	53	Rpleas_acq	Oppo	Rpleas	Bmasked	CS_B	2pleas	distractor2	EVAbeforeCON	acq_US_pleas_masked	acq2_masked	2	23	480	1	300	300	0	0	541	46	0	0	0	0	0	1	blank2r.bmp	0	1	+	0	6	C2r.bmp	492	1	blank2r.bmp	786	1	GKQX	786	1	blank2r.bmp	866	6	helfen	866	1	FEHLER	1759	1	!	1319	1	!	1439	0	0	0	0	0	0	0	0	0	0	0	0	0	0	0	0	0	0	0	0	0	0	0	0
010919	14:07:51	14:14:02	370153	5.0.10.0	4_exp_EVA_AMP_AWA_CON	53	Rpleas_acq	Oppo	Rpleas	Bmasked	CS_B	2pleas	distractor2	EVAbeforeCON	acq_new_pleas_masked	acq2_masked	2	24	480	0	300	300	0	0	349	50	0	1	0	0	0	1	blank2r.bmp	0	1	+	0	4	B4r.bmp	492	1	blank2r.bmp	786	2	B2r.bmp	786	1	blank2r.bmp	866	1	loyal	866	1	!	-1	1	!	-1	0	0	0	0	0	0	0	0	0	0	0	0	0	0	0	0	0	0	0	0	0	0	0	0	0	0	0
010919	14:07:51	14:14:07	375445	5.0.10.0	4_exp_EVA_AMP_AWA_CON	53	Rpleas_acq	Oppo	Rpleas	Bmasked	CS_B	2pleas	distractor2	EVAbeforeCON	acq_new_unple_masked	acq2_masked	2	25	480	0	300	300	0	0	3513	46	0	1	0	0	0	1	blank2r.bmp	0	1	+	0	5	C1r.bmp	492	1	blank2r.bmp	786	1	B1r.bmp	786	1	blank2r.bmp	866	2	schroff	866	1	!	1319	1	!	-1	0	0	0	0	0	0	0	0	0	0	0	0	0	0	0	0	0	0	0	0	0	0	0	0	0	0	0
010919	14:07:51	14:14:09	377724	5.0.10.0	4_exp_EVA_AMP_AWA_CON	53	Rpleas_acq	Oppo	Rpleas	Bmasked	CS_B	2pleas	distractor2	EVAbeforeCON	acq_US_unple_masked	acq2_masked	2	26	480	1	300	300	0	0	468	46	0	1	0	0	0	1	blank2r.bmp	0	1	+	0	3	B3r.bmp	492	1	blank2r.bmp	786	1	BMVZ	786	1	blank2r.bmp	866	5	strafen	866	1	!	1319	1	!	1372	0	0	0	0	0	0	0	0	0	0	0	0	0	0	0	0	0	0	0	0	0	0	0	0	0	0	0
010919	14:07:51	14:14:12	380069	5.0.10.0	4_exp_EVA_AMP_AWA_CON	53	Rpleas_acq	Oppo	Rpleas	Bmasked	CS_B	2pleas	distractor2	EVAbeforeCON	acq_new_pleas_masked	acq2_masked	2	27	480	1	300	300	0	0	546	50	0	1	0	0	0	1	blank2r.bmp	0	1	+	0	2	B2r.bmp	492	1	blank2r.bmp	786	4	B4r.bmp	786	1	blank2r.bmp	866	4	lachen	866	1	!	1319	1	!	1452	0	0	0	0	0	0	0	0	0	0	0	0	0	0	0	0	0	0	0	0	0	0	0	0	0	0	0
010919	14:07:51	14:14:14	382455	5.0.10.0	4_exp_EVA_AMP_AWA_CON	53	Rpleas_acq	Oppo	Rpleas	Bmasked	CS_B	2pleas	distractor2	EVAbeforeCON	acq_new_unple_masked	acq2_masked	2	28	480	0	300	300	0	0	603	46	0	1	0	0	0	1	blank2r.bmp	0	1	+	0	8	C4r.bmp	492	1	blank2r.bmp	786	4	B4r.bmp	786	1	blank2r.bmp	866	3	faul	866	1	!	1319	1	!	-1	0	0	0	0	0	0	0	0	0	0	0	0	0	0	0	0	0	0	0	0	0	0	0	0	0	0	0
010919	14:07:51	14:14:16	384601	5.0.10.0	4_exp_EVA_AMP_AWA_CON	53	Rpleas_acq	Oppo	Rpleas	Bmasked	CS_B	2pleas	distractor2	EVAbeforeCON	acq_US_pleas_masked	acq2_masked	2	29	480	0	300	300	0	0	365	50	0	1	0	0	0	1	blank2r.bmp	0	1	+	0	3	B3r.bmp	492	1	blank2r.bmp	786	1	GKQX	786	1	blank2r.bmp	866	1	tolerant	866	1	!	-1	1	!	-1	0	0	0	0	0	0	0	0	0	0	0	0	0	0	0	0	0	0	0	0	0	0	0	0	0	0	0
010919	14:07:51	14:14:19	386946	5.0.10.0	4_exp_EVA_AMP_AWA_CON	53	Rpleas_acq	Oppo	Rpleas	Bmasked	CS_B	2pleas	distractor2	EVAbeforeCON	acq_new_pleas_masked	acq2_masked	2	30	480	0	300	300	0	0	338	46	0	0	0	0	0	1	blank2r.bmp	0	1	+	0	2	B2r.bmp	492	1	blank2r.bmp	786	8	C4r.bmp	786	1	blank2r.bmp	866	5	freundlich	866	1	FEHLER	1546	1	!	-1	1	!	-1	0	0	0	0	0	0	0	0	0	0	0	0	0	0	0	0	0	0	0	0	0	0	0	0
010919	14:07:51	14:14:21	389386	5.0.10.0	4_exp_EVA_AMP_AWA_CON	53	Rpleas_acq	Oppo	Rpleas	Bmasked	CS_B	2pleas	distractor2	EVAbeforeCON	acq_new_pleas_masked	acq2_masked	2	31	480	0	300	300	0	0	652	46	0	0	0	0	0	1	blank2r.bmp	0	1	+	0	1	B1r.bmp	492	1	blank2r.bmp	786	7	C3r.bmp	786	1	blank2r.bmp	866	3	fair	866	1	FEHLER	1865	1	!	1319	1	!	-1	0	0	0	0	0	0	0	0	0	0	0	0	0	0	0	0	0	0	0	0	0	0	0	0
010919	14:07:51	14:14:23	391545	5.0.10.0	4_exp_EVA_AMP_AWA_CON	53	Rpleas_acq	Oppo	Rpleas	Bmasked	CS_B	2pleas	distractor2	EVAbeforeCON	acq_US_pleas_masked	acq2_masked	2	32	480	0	300	300	0	0	600	50	0	1	0	0	0	1	blank2r.bmp	0	1	+	0	6	C2r.bmp	492	1	blank2r.bmp	786	1	GKQX	786	1	blank2r.bmp	866	3	retten	866	1	!	1319	1	!	-1	0	0	0	0	0	0	0	0	0	0	0	0	0	0	0	0	0	0	0	0	0	0	0	0	0	0	0
010919	14:07:51	14:14:28	396489	5.0.10.0	4_exp_EVA_AMP_AWA_CON	53	Rpleas_acq	Oppo	Rpleas	Bmasked	CS_B	2pleas	distractor2	EVAbeforeCON	acq_new_unple_masked	acq2_masked	2	33	480	0	300	300	0	0	3166	46	0	1	0	0	0	1	blank2r.bmp	0	1	+	0	7	C3r.bmp	492	1	blank2r.bmp	786	5	C1r.bmp	786	1	blank2r.bmp	866	1	lasch	866	1	!	1319	1	!	-1	0	0	0	0	0	0	0	0	0	0	0	0	0	0	0	0	0	0	0	0	0	0	0	0	0	0	0
010919	14:07:51	14:14:31	399008	5.0.10.0	4_exp_EVA_AMP_AWA_CON	53	Rpleas_acq	Oppo	Rpleas	Bmasked	CS_B	2pleas	distractor2	EVAbeforeCON	acq_US_unple_masked	acq2_masked	2	34	480	0	300	300	0	0	734	46	0	1	0	0	0	1	blank2r.bmp	0	1	+	0	4	B4r.bmp	492	1	blank2r.bmp	786	1	BMVZ	786	1	blank2r.bmp	866	6	hindern	866	1	!	1319	1	!	-1	0	0	0	0	0	0	0	0	0	0	0	0	0	0	0	0	0	0	0	0	0	0	0	0	0	0	0
010919	14:07:51	14:14:33	401394	5.0.10.0	4_exp_EVA_AMP_AWA_CON	53	Rpleas_acq	Oppo	Rpleas	Bmasked	CS_B	2pleas	distractor2	EVAbeforeCON	acq_US_pleas_masked	acq2_masked	2	35	480	0	300	300	0	0	599	50	0	1	0	0	0	1	blank2r.bmp	0	1	+	0	8	C4r.bmp	492	1	blank2r.bmp	786	1	GKQX	786	1	blank2r.bmp	866	4	treu	866	1	!	1319	1	!	-1	0	0	0	0	0	0	0	0	0	0	0	0	0	0	0	0	0	0	0	0	0	0	0	0	0	0	0
010919	14:07:51	14:14:35	403660	5.0.10.0	4_exp_EVA_AMP_AWA_CON	53	Rpleas_acq	Oppo	Rpleas	Bmasked	CS_B	2pleas	distractor2	EVAbeforeCON	acq_US_unple_masked	acq2_masked	2	36	480	1	300	300	0	0	465	46	0	1	0	0	0	1	blank2r.bmp	0	1	+	0	5	C1r.bmp	492	1	blank2r.bmp	786	1	BMVZ	786	1	blank2r.bmp	866	3	rächen	866	1	!	1319	1	!	1359	0	0	0	0	0	0	0	0	0	0	0	0	0	0	0	0	0	0	0	0	0	0	0	0	0	0	0
010919	14:07:51	14:15:04	432528	5.0.10.0	4_exp_EVA_AMP_AWA_CON	53	Rpleas_acq	Oppo	Rpleas	Bmasked	CS_B	2pleas	distractor2	EVAbeforeCON	acq_US_pleas_masked	acq3_masked	3	1	453	0	300	300	0	0	613	50	0	1	0	0	0	1	blank2r.bmp	0	1	+	0	3	B3r.bmp	492	1	blank2r.bmp	786	1	GKQX	786	1	blank2r.bmp	866	6	helfen	866	1	!	1292	1	!	-1	0	0	0	0	0	0	0	0	0	0	0	0	0	0	0	0	0	0	0	0	0	0	0	0	0	0	0
010919	14:07:51	14:15:06	434740	5.0.10.0	4_exp_EVA_AMP_AWA_CON	53	Rpleas_acq	Oppo	Rpleas	Bmasked	CS_B	2pleas	distractor2	EVAbeforeCON	acq_US_pleas_masked	acq3_masked	3	2	453	1	300	300	0	0	399	50	0	1	0	0	0	1	blank2r.bmp	0	1	+	0	6	C2r.bmp	492	1	blank2r.bmp	786	1	GKQX	786	1	blank2r.bmp	866	4	treu	866	1	!	1292	1	!	1306	0	0	0	0	0	0	0	0	0	0	0	0	0	0	0	0	0	0	0	0	0	0	0	0	0	0	0
010919	14:07:51	14:15:09	437059	5.0.10.0	4_exp_EVA_AMP_AWA_CON	53	Rpleas_acq	Oppo	Rpleas	Bmasked	CS_B	2pleas	distractor2	EVAbeforeCON	acq_US_unple_masked	acq3_masked	3	3	453	0	300	300	0	0	557	46	0	1	0	0	0	1	blank2r.bmp	0	1	+	0	1	B1r.bmp	492	1	blank2r.bmp	786	1	BMVZ	786	1	blank2r.bmp	866	6	hindern	866	1	!	1292	1	!	-1	0	0	0	0	0	0	0	0	0	0	0	0	0	0	0	0	0	0	0	0	0	0	0	0	0	0	0
010919	14:07:51	14:15:11	439551	5.0.10.0	4_exp_EVA_AMP_AWA_CON	53	Rpleas_acq	Oppo	Rpleas	Bmasked	CS_B	2pleas	distractor2	EVAbeforeCON	acq_US_pleas_masked	acq3_masked	3	4	453	1	300	300	0	0	461	46	0	0	0	0	0	1	blank2r.bmp	0	1	+	0	4	B4r.bmp	492	1	blank2r.bmp	786	1	GKQX	786	1	blank2r.bmp	866	2	schön	866	1	FEHLER	1679	1	!	1292	1	!	1359	0	0	0	0	0	0	0	0	0	0	0	0	0	0	0	0	0	0	0	0	0	0	0	0
010919	14:07:51	14:15:13	441751	5.0.10.0	4_exp_EVA_AMP_AWA_CON	53	Rpleas_acq	Oppo	Rpleas	Bmasked	CS_B	2pleas	distractor2	EVAbeforeCON	acq_US_pleas_masked	acq3_masked	3	5	453	0	300	300	0	0	640	50	0	1	0	0	0	1	blank2r.bmp	0	1	+	0	2	B2r.bmp	492	1	blank2r.bmp	786	1	GKQX	786	1	blank2r.bmp	866	5	spielen	866	1	!	1292	1	!	-1	0	0	0	0	0	0	0	0	0	0	0	0	0	0	0	0	0	0	0	0	0	0	0	0	0	0	0
010919	14:07:51	14:15:16	444083	5.0.10.0	4_exp_EVA_AMP_AWA_CON	53	Rpleas_acq	Oppo	Rpleas	Bmasked	CS_B	2pleas	distractor2	EVAbeforeCON	acq_US_unple_masked	acq3_masked	3	6	453	1	300	300	0	0	520	46	0	1	0	0	0	1	blank2r.bmp	0	1	+	0	7	C3r.bmp	492	1	blank2r.bmp	786	1	BMVZ	786	1	blank2r.bmp	866	5	strafen	866	1	!	1292	1	!	1426	0	0	0	0	0	0	0	0	0	0	0	0	0	0	0	0	0	0	0	0	0	0	0	0	0	0	0
010919	14:07:51	14:15:18	446415	5.0.10.0	4_exp_EVA_AMP_AWA_CON	53	Rpleas_acq	Oppo	Rpleas	Bmasked	CS_B	2pleas	distractor2	EVAbeforeCON	acq_US_pleas_masked	acq3_masked	3	7	453	0	300	300	0	0	570	50	0	1	0	0	0	1	blank2r.bmp	0	1	+	0	8	C4r.bmp	492	1	blank2r.bmp	786	1	GKQX	786	1	blank2r.bmp	866	1	tolerant	866	1	!	1292	1	!	-1	0	0	0	0	0	0	0	0	0	0	0	0	0	0	0	0	0	0	0	0	0	0	0	0	0	0	0
010919	14:07:51	14:15:21	448921	5.0.10.0	4_exp_EVA_AMP_AWA_CON	53	Rpleas_acq	Oppo	Rpleas	Bmasked	CS_B	2pleas	distractor2	EVAbeforeCON	acq_US_unple_masked	acq3_masked	3	8	453	1	300	300	0	0	486	50	0	0	0	0	0	1	blank2r.bmp	0	1	+	0	5	C1r.bmp	492	1	blank2r.bmp	786	1	BMVZ	786	1	blank2r.bmp	866	3	rächen	866	1	FEHLER	1705	1	!	1292	1	!	1386	0	0	0	0	0	0	0	0	0	0	0	0	0	0	0	0	0	0	0	0	0	0	0	0
010919	14:07:51	14:15:23	450920	5.0.10.0	4_exp_EVA_AMP_AWA_CON	53	Rpleas_acq	Oppo	Rpleas	Bmasked	CS_B	2pleas	distractor2	EVAbeforeCON	acq_US_unple_masked	acq3_masked	3	9	453	1	300	300	0	0	422	46	0	1	0	0	0	1	blank2r.bmp	0	1	+	0	1	B1r.bmp	492	1	blank2r.bmp	786	1	BMVZ	786	1	blank2r.bmp	866	4	tot	866	1	!	1292	1	!	1319	0	0	0	0	0	0	0	0	0	0	0	0	0	0	0	0	0	0	0	0	0	0	0	0	0	0	0
010919	14:07:51	14:15:25	453319	5.0.10.0	4_exp_EVA_AMP_AWA_CON	53	Rpleas_acq	Oppo	Rpleas	Bmasked	CS_B	2pleas	distractor2	EVAbeforeCON	acq_US_unple_masked	acq3_masked	3	10	453	0	300	300	0	0	629	46	0	1	0	0	0	1	blank2r.bmp	0	1	+	0	8	C4r.bmp	492	1	blank2r.bmp	786	1	BMVZ	786	1	blank2r.bmp	866	1	tyrannisch	866	1	!	1292	1	!	-1	0	0	0	0	0	0	0	0	0	0	0	0	0	0	0	0	0	0	0	0	0	0	0	0	0	0	0
010919	14:07:51	14:15:27	455572	5.0.10.0	4_exp_EVA_AMP_AWA_CON	53	Rpleas_acq	Oppo	Rpleas	Bmasked	CS_B	2pleas	distractor2	EVAbeforeCON	acq_US_unple_masked	acq3_masked	3	11	453	1	300	300	0	0	439	46	0	1	0	0	0	1	blank2r.bmp	0	1	+	0	6	C2r.bmp	492	1	blank2r.bmp	786	1	BMVZ	786	1	blank2r.bmp	866	2	schlecht	866	1	!	1292	1	!	1346	0	0	0	0	0	0	0	0	0	0	0	0	0	0	0	0	0	0	0	0	0	0	0	0	0	0	0
010919	14:07:51	14:15:30	457837	5.0.10.0	4_exp_EVA_AMP_AWA_CON	53	Rpleas_acq	Oppo	Rpleas	Bmasked	CS_B	2pleas	distractor2	EVAbeforeCON	acq_US_pleas_masked	acq3_masked	3	12	453	1	300	300	0	0	467	50	0	1	0	0	0	1	blank2r.bmp	0	1	+	0	7	C3r.bmp	492	1	blank2r.bmp	786	1	GKQX	786	1	blank2r.bmp	866	3	retten	866	1	!	1292	1	!	1372	0	0	0	0	0	0	0	0	0	0	0	0	0	0	0	0	0	0	0	0	0	0	0	0	0	0	0
010919	14:07:51	14:15:33	461209	5.0.10.0	4_exp_EVA_AMP_AWA_CON	53	Rpleas_acq	Oppo	Rpleas	Bmasked	CS_B	2pleas	distractor2	EVAbeforeCON	acq_US_pleas_masked	acq3_masked	3	13	453	0	300	300	0	0	1602	50	0	1	0	0	0	1	blank2r.bmp	0	1	+	0	4	B4r.bmp	492	1	blank2r.bmp	786	1	GKQX	786	1	blank2r.bmp	866	1	tolerant	866	1	!	1292	1	!	-1	0	0	0	0	0	0	0	0	0	0	0	0	0	0	0	0	0	0	0	0	0	0	0	0	0	0	0
010919	14:07:51	14:15:35	463462	5.0.10.0	4_exp_EVA_AMP_AWA_CON	53	Rpleas_acq	Oppo	Rpleas	Bmasked	CS_B	2pleas	distractor2	EVAbeforeCON	acq_US_unple_masked	acq3_masked	3	14	453	1	300	300	0	0	449	46	0	1	0	0	0	1	blank2r.bmp	0	1	+	0	5	C1r.bmp	492	1	blank2r.bmp	786	1	BMVZ	786	1	blank2r.bmp	866	4	tot	866	1	!	1292	1	!	1346	0	0	0	0	0	0	0	0	0	0	0	0	0	0	0	0	0	0	0	0	0	0	0	0	0	0	0
010919	14:07:51	14:15:38	465781	5.0.10.0	4_exp_EVA_AMP_AWA_CON	53	Rpleas_acq	Oppo	Rpleas	Bmasked	CS_B	2pleas	distractor2	EVAbeforeCON	acq_US_unple_masked	acq3_masked	3	15	453	0	300	300	0	0	549	46	0	1	0	0	0	1	blank2r.bmp	0	1	+	0	2	B2r.bmp	492	1	blank2r.bmp	786	1	BMVZ	786	1	blank2r.bmp	866	1	tyrannisch	866	1	!	1292	1	!	-1	0	0	0	0	0	0	0	0	0	0	0	0	0	0	0	0	0	0	0	0	0	0	0	0	0	0	0
010919	14:07:51	14:15:40	468060	5.0.10.0	4_exp_EVA_AMP_AWA_CON	53	Rpleas_acq	Oppo	Rpleas	Bmasked	CS_B	2pleas	distractor2	EVAbeforeCON	acq_US_pleas_masked	acq3_masked	3	16	453	1	300	300	0	0	466	50	0	1	0	0	0	1	blank2r.bmp	0	1	+	0	3	B3r.bmp	492	1	blank2r.bmp	786	1	GKQX	786	1	blank2r.bmp	866	6	helfen	866	1	!	1292	1	!	1372	0	0	0	0	0	0	0	0	0	0	0	0	0	0	0	0	0	0	0	0	0	0	0	0	0	0	0
010919	14:07:51	14:15:42	470379	5.0.10.0	4_exp_EVA_AMP_AWA_CON	53	Rpleas_acq	Oppo	Rpleas	Bmasked	CS_B	2pleas	distractor2	EVAbeforeCON	acq_US_pleas_masked	acq3_masked	3	17	453	0	300	300	0	0	555	50	0	1	0	0	0	1	blank2r.bmp	0	1	+	0	2	B2r.bmp	492	1	blank2r.bmp	786	1	GKQX	786	1	blank2r.bmp	866	4	treu	866	1	!	1292	1	!	-1	0	0	0	0	0	0	0	0	0	0	0	0	0	0	0	0	0	0	0	0	0	0	0	0	0	0	0
010919	14:07:51	14:15:44	472671	5.0.10.0	4_exp_EVA_AMP_AWA_CON	53	Rpleas_acq	Oppo	Rpleas	Bmasked	CS_B	2pleas	distractor2	EVAbeforeCON	acq_US_unple_masked	acq3_masked	3	18	453	1	300	300	0	0	474	46	0	1	0	0	0	1	blank2r.bmp	0	1	+	0	7	C3r.bmp	492	1	blank2r.bmp	786	1	BMVZ	786	1	blank2r.bmp	866	2	schlecht	866	1	!	1292	1	!	1372	0	0	0	0	0	0	0	0	0	0	0	0	0	0	0	0	0	0	0	0	0	0	0	0	0	0	0
010919	14:07:51	14:15:47	475004	5.0.10.0	4_exp_EVA_AMP_AWA_CON	53	Rpleas_acq	Oppo	Rpleas	Bmasked	CS_B	2pleas	distractor2	EVAbeforeCON	acq_US_pleas_masked	acq3_masked	3	19	453	1	300	300	0	0	520	50	0	1	0	0	0	1	blank2r.bmp	0	1	+	0	4	B4r.bmp	492	1	blank2r.bmp	786	1	GKQX	786	1	blank2r.bmp	866	2	schön	866	1	!	1292	1	!	1426	0	0	0	0	0	0	0	0	0	0	0	0	0	0	0	0	0	0	0	0	0	0	0	0	0	0	0
010919	14:07:51	14:15:49	477309	5.0.10.0	4_exp_EVA_AMP_AWA_CON	53	Rpleas_acq	Oppo	Rpleas	Bmasked	CS_B	2pleas	distractor2	EVAbeforeCON	acq_US_unple_masked	acq3_masked	3	20	453	0	300	300	0	0	543	46	0	1	0	0	0	1	blank2r.bmp	0	1	+	0	8	C4r.bmp	492	1	blank2r.bmp	786	1	BMVZ	786	1	blank2r.bmp	866	5	strafen	866	1	!	1292	1	!	-1	0	0	0	0	0	0	0	0	0	0	0	0	0	0	0	0	0	0	0	0	0	0	0	0	0	0	0
010919	14:07:51	14:15:51	479655	5.0.10.0	4_exp_EVA_AMP_AWA_CON	53	Rpleas_acq	Oppo	Rpleas	Bmasked	CS_B	2pleas	distractor2	EVAbeforeCON	acq_US_unple_masked	acq3_masked	3	21	453	0	300	300	0	0	566	46	0	1	0	0	0	1	blank2r.bmp	0	1	+	0	6	C2r.bmp	492	1	blank2r.bmp	786	1	BMVZ	786	1	blank2r.bmp	866	3	rächen	866	1	!	1292	1	!	-1	0	0	0	0	0	0	0	0	0	0	0	0	0	0	0	0	0	0	0	0	0	0	0	0	0	0	0
010919	14:07:51	14:15:54	481961	5.0.10.0	4_exp_EVA_AMP_AWA_CON	53	Rpleas_acq	Oppo	Rpleas	Bmasked	CS_B	2pleas	distractor2	EVAbeforeCON	acq_US_pleas_masked	acq3_masked	3	22	453	1	300	300	0	0	495	50	0	1	0	0	0	1	blank2r.bmp	0	1	+	0	3	B3r.bmp	492	1	blank2r.bmp	786	1	GKQX	786	1	blank2r.bmp	866	5	spielen	866	1	!	1292	1	!	1399	0	0	0	0	0	0	0	0	0	0	0	0	0	0	0	0	0	0	0	0	0	0	0	0	0	0	0
010919	14:07:51	14:15:56	484266	5.0.10.0	4_exp_EVA_AMP_AWA_CON	53	Rpleas_acq	Oppo	Rpleas	Bmasked	CS_B	2pleas	distractor2	EVAbeforeCON	acq_US_pleas_masked	acq3_masked	3	23	453	1	300	300	0	0	511	50	0	1	0	0	0	1	blank2r.bmp	0	1	+	0	1	B1r.bmp	492	1	blank2r.bmp	786	1	GKQX	786	1	blank2r.bmp	866	3	retten	866	1	!	1292	1	!	1412	0	0	0	0	0	0	0	0	0	0	0	0	0	0	0	0	0	0	0	0	0	0	0	0	0	0	0
010919	14:07:51	14:15:58	486519	5.0.10.0	4_exp_EVA_AMP_AWA_CON	53	Rpleas_acq	Oppo	Rpleas	Bmasked	CS_B	2pleas	distractor2	EVAbeforeCON	acq_US_unple_masked	acq3_masked	3	24	453	1	300	300	0	0	461	46	0	1	0	0	0	1	blank2r.bmp	0	1	+	0	5	C1r.bmp	492	1	blank2r.bmp	786	1	BMVZ	786	1	blank2r.bmp	866	6	hindern	866	1	!	1292	1	!	1359	0	0	0	0	0	0	0	0	0	0	0	0	0	0	0	0	0	0	0	0	0	0	0	0	0	0	0
010919	14:07:51	14:16:01	488931	5.0.10.0	4_exp_EVA_AMP_AWA_CON	53	Rpleas_acq	Oppo	Rpleas	Bmasked	CS_B	2pleas	distractor2	EVAbeforeCON	acq_US_pleas_masked	acq3_masked	3	25	453	1	300	300	0	0	399	46	0	0	0	0	0	1	blank2r.bmp	0	1	+	0	5	C1r.bmp	492	1	blank2r.bmp	786	1	GKQX	786	1	blank2r.bmp	866	1	tolerant	866	1	FEHLER	1625	1	!	1292	1	!	1306	0	0	0	0	0	0	0	0	0	0	0	0	0	0	0	0	0	0	0	0	0	0	0	0
010919	14:07:51	14:16:03	491303	5.0.10.0	4_exp_EVA_AMP_AWA_CON	53	Rpleas_acq	Oppo	Rpleas	Bmasked	CS_B	2pleas	distractor2	EVAbeforeCON	acq_US_pleas_masked	acq3_masked	3	26	453	0	300	300	0	0	596	46	0	0	0	0	0	1	blank2r.bmp	0	1	+	0	1	B1r.bmp	492	1	blank2r.bmp	786	1	GKQX	786	1	blank2r.bmp	866	4	treu	866	1	FEHLER	1799	1	!	1292	1	!	-1	0	0	0	0	0	0	0	0	0	0	0	0	0	0	0	0	0	0	0	0	0	0	0	0
010919	14:07:51	14:16:07	495342	5.0.10.0	4_exp_EVA_AMP_AWA_CON	53	Rpleas_acq	Oppo	Rpleas	Bmasked	CS_B	2pleas	distractor2	EVAbeforeCON	acq_US_pleas_masked	acq3_masked	3	27	453	0	300	300	0	0	2484	50	0	1	0	0	0	1	blank2r.bmp	0	1	+	0	4	B4r.bmp	492	1	blank2r.bmp	786	1	GKQX	786	1	blank2r.bmp	866	5	spielen	866	1	!	1292	1	!	-1	0	0	0	0	0	0	0	0	0	0	0	0	0	0	0	0	0	0	0	0	0	0	0	0	0	0	0
010919	14:07:51	14:16:10	497927	5.0.10.0	4_exp_EVA_AMP_AWA_CON	53	Rpleas_acq	Oppo	Rpleas	Bmasked	CS_B	2pleas	distractor2	EVAbeforeCON	acq_US_unple_masked	acq3_masked	3	28	453	0	300	300	0	0	793	46	0	1	0	0	0	1	blank2r.bmp	0	1	+	0	2	B2r.bmp	492	1	blank2r.bmp	786	1	BMVZ	786	1	blank2r.bmp	866	3	rächen	866	1	!	1292	1	!	-1	0	0	0	0	0	0	0	0	0	0	0	0	0	0	0	0	0	0	0	0	0	0	0	0	0	0	0
010919	14:07:51	14:16:12	500526	5.0.10.0	4_exp_EVA_AMP_AWA_CON	53	Rpleas_acq	Oppo	Rpleas	Bmasked	CS_B	2pleas	distractor2	EVAbeforeCON	acq_US_pleas_masked	acq3_masked	3	29	453	0	300	300	0	0	593	46	0	0	0	0	0	1	blank2r.bmp	0	1	+	0	7	C3r.bmp	492	1	blank2r.bmp	786	1	GKQX	786	1	blank2r.bmp	866	6	helfen	866	1	FEHLER	1799	1	!	1292	1	!	-1	0	0	0	0	0	0	0	0	0	0	0	0	0	0	0	0	0	0	0	0	0	0	0	0
010919	14:07:51	14:16:14	502579	5.0.10.0	4_exp_EVA_AMP_AWA_CON	53	Rpleas_acq	Oppo	Rpleas	Bmasked	CS_B	2pleas	distractor2	EVAbeforeCON	acq_US_pleas_masked	acq3_masked	3	30	453	1	300	300	0	0	452	50	0	1	0	0	0	1	blank2r.bmp	0	1	+	0	6	C2r.bmp	492	1	blank2r.bmp	786	1	GKQX	786	1	blank2r.bmp	866	3	retten	866	1	!	1292	1	!	1359	0	0	0	0	0	0	0	0	0	0	0	0	0	0	0	0	0	0	0	0	0	0	0	0	0	0	0
010919	14:07:51	14:16:17	504871	5.0.10.0	4_exp_EVA_AMP_AWA_CON	53	Rpleas_acq	Oppo	Rpleas	Bmasked	CS_B	2pleas	distractor2	EVAbeforeCON	acq_US_unple_masked	acq3_masked	3	31	453	1	300	300	0	0	504	46	0	1	0	0	0	1	blank2r.bmp	0	1	+	0	8	C4r.bmp	492	1	blank2r.bmp	786	1	BMVZ	786	1	blank2r.bmp	866	5	strafen	866	1	!	1292	1	!	1399	0	0	0	0	0	0	0	0	0	0	0	0	0	0	0	0	0	0	0	0	0	0	0	0	0	0	0
010919	14:07:51	14:16:19	507217	5.0.10.0	4_exp_EVA_AMP_AWA_CON	53	Rpleas_acq	Oppo	Rpleas	Bmasked	CS_B	2pleas	distractor2	EVAbeforeCON	acq_US_unple_masked	acq3_masked	3	32	453	0	300	300	0	0	348	50	0	0	0	0	0	1	blank2r.bmp	0	1	+	0	3	B3r.bmp	492	1	blank2r.bmp	786	1	BMVZ	786	1	blank2r.bmp	866	2	schlecht	866	1	FEHLER	1559	1	!	-1	1	!	-1	0	0	0	0	0	0	0	0	0	0	0	0	0	0	0	0	0	0	0	0	0	0	0	0
010919	14:07:51	14:16:21	509269	5.0.10.0	4_exp_EVA_AMP_AWA_CON	53	Rpleas_acq	Oppo	Rpleas	Bmasked	CS_B	2pleas	distractor2	EVAbeforeCON	acq_US_unple_masked	acq3_masked	3	33	453	1	300	300	0	0	473	46	0	1	0	0	0	1	blank2r.bmp	0	1	+	0	8	C4r.bmp	492	1	blank2r.bmp	786	1	BMVZ	786	1	blank2r.bmp	866	1	tyrannisch	866	1	!	1292	1	!	1372	0	0	0	0	0	0	0	0	0	0	0	0	0	0	0	0	0	0	0	0	0	0	0	0	0	0	0
010919	14:07:51	14:16:23	511548	5.0.10.0	4_exp_EVA_AMP_AWA_CON	53	Rpleas_acq	Oppo	Rpleas	Bmasked	CS_B	2pleas	distractor2	EVAbeforeCON	acq_US_pleas_masked	acq3_masked	3	34	453	1	300	300	0	0	476	50	0	1	0	0	0	1	blank2r.bmp	0	1	+	0	7	C3r.bmp	492	1	blank2r.bmp	786	1	GKQX	786	1	blank2r.bmp	866	2	schön	866	1	!	1292	1	!	1372	0	0	0	0	0	0	0	0	0	0	0	0	0	0	0	0	0	0	0	0	0	0	0	0	0	0	0
010919	14:07:51	14:16:26	513854	5.0.10.0	4_exp_EVA_AMP_AWA_CON	53	Rpleas_acq	Oppo	Rpleas	Bmasked	CS_B	2pleas	distractor2	EVAbeforeCON	acq_US_unple_masked	acq3_masked	3	35	453	1	300	300	0	0	509	46	0	1	0	0	0	1	blank2r.bmp	0	1	+	0	6	C2r.bmp	492	1	blank2r.bmp	786	1	BMVZ	786	1	blank2r.bmp	866	4	tot	866	1	!	1292	1	!	1412	0	0	0	0	0	0	0	0	0	0	0	0	0	0	0	0	0	0	0	0	0	0	0	0	0	0	0
010919	14:07:51	14:16:29	517546	5.0.10.0	4_exp_EVA_AMP_AWA_CON	53	Rpleas_acq	Oppo	Rpleas	Bmasked	CS_B	2pleas	distractor2	EVAbeforeCON	acq_US_unple_masked	acq3_masked	3	36	453	0	300	300	0	0	1916	46	0	1	0	0	0	1	blank2r.bmp	0	1	+	0	5	C1r.bmp	492	1	blank2r.bmp	786	1	BMVZ	786	1	blank2r.bmp	866	6	hindern	866	1	!	1292	1	!	-1	0	0	0	0	0	0	0	0	0	0	0	0	0	0	0	0	0	0	0	0	0	0	0	0	0	0	0
010919	14:07:51	14:17:00	548707	5.0.10.0	4_exp_EVA_AMP_AWA_CON	53	Rpleas_acq	Oppo	Rpleas	Bmasked	CS_B	2pleas	distractor2	EVAbeforeCON	acq_US_pleas_masked	acq45_masked	4	1	400	0	300	300	0	0	1185	50	0	1	0	0	0	1	blank2r.bmp	0	1	+	0	2	B2r.bmp	492	1	blank2r.bmp	786	1	GKQX	786	1	blank2r.bmp	866	6	helfen	866	1	!	1239	1	!	-1	0	0	0	0	0	0	0	0	0	0	0	0	0	0	0	0	0	0	0	0	0	0	0	0	0	0	0
010919	14:07:51	14:17:03	551079	5.0.10.0	4_exp_EVA_AMP_AWA_CON	53	Rpleas_acq	Oppo	Rpleas	Bmasked	CS_B	2pleas	distractor2	EVAbeforeCON	acq_US_unple_masked	acq45_masked	4	2	400	0	300	300	0	0	596	46	0	1	0	0	0	1	blank2r.bmp	0	1	+	0	4	B4r.bmp	492	1	blank2r.bmp	786	1	BMVZ	786	1	blank2r.bmp	866	5	strafen	866	1	!	1239	1	!	-1	0	0	0	0	0	0	0	0	0	0	0	0	0	0	0	0	0	0	0	0	0	0	0	0	0	0	0
010919	14:07:51	14:17:05	553425	5.0.10.0	4_exp_EVA_AMP_AWA_CON	53	Rpleas_acq	Oppo	Rpleas	Bmasked	CS_B	2pleas	distractor2	EVAbeforeCON	acq_US_pleas_masked	acq45_masked	4	3	400	0	300	300	0	0	548	46	0	0	0	0	0	1	blank2r.bmp	0	1	+	0	1	B1r.bmp	492	1	blank2r.bmp	786	1	GKQX	786	1	blank2r.bmp	866	3	retten	866	1	!	1239	1	!	-1	0	0	0	0	0	0	0	0	0	0	0	0	0	0	0	0	0	0	0	0	0	0	0	0	0	0	0
010919	14:07:51	14:17:08	555837	5.0.10.0	4_exp_EVA_AMP_AWA_CON	53	Rpleas_acq	Oppo	Rpleas	Bmasked	CS_B	2pleas	distractor2	EVAbeforeCON	acq_US_unple_masked	acq45_masked	4	4	400	0	300	300	0	0	625	46	0	1	0	0	0	1	blank2r.bmp	0	1	+	0	3	B3r.bmp	492	1	blank2r.bmp	786	1	BMVZ	786	1	blank2r.bmp	866	6	hindern	866	1	!	1239	1	!	-1	0	0	0	0	0	0	0	0	0	0	0	0	0	0	0	0	0	0	0	0	0	0	0	0	0	0	0
010919	14:07:51	14:17:10	558183	5.0.10.0	4_exp_EVA_AMP_AWA_CON	53	Rpleas_acq	Oppo	Rpleas	Bmasked	CS_B	2pleas	distractor2	EVAbeforeCON	acq_US_unple_masked	acq45_masked	4	5	400	0	300	300	0	0	558	50	0	0	0	0	0	1	blank2r.bmp	0	1	+	0	6	C2r.bmp	492	1	blank2r.bmp	786	1	BMVZ	786	1	blank2r.bmp	866	1	tyrannisch	866	1	!	1239	1	!	-1	0	0	0	0	0	0	0	0	0	0	0	0	0	0	0	0	0	0	0	0	0	0	0	0	0	0	0
010919	14:07:51	14:17:12	560448	5.0.10.0	4_exp_EVA_AMP_AWA_CON	53	Rpleas_acq	Oppo	Rpleas	Bmasked	CS_B	2pleas	distractor2	EVAbeforeCON	acq_US_unple_masked	acq45_masked	4	6	400	1	300	300	0	0	452	46	0	1	0	0	0	1	blank2r.bmp	0	1	+	0	7	C3r.bmp	492	1	blank2r.bmp	786	1	BMVZ	786	1	blank2r.bmp	866	2	schlecht	866	1	!	1239	1	!	1359	0	0	0	0	0	0	0	0	0	0	0	0	0	0	0	0	0	0	0	0	0	0	0	0	0	0	0
010919	14:07:51	14:17:14	562727	5.0.10.0	4_exp_EVA_AMP_AWA_CON	53	Rpleas_acq	Oppo	Rpleas	Bmasked	CS_B	2pleas	distractor2	EVAbeforeCON	acq_US_unple_masked	acq45_masked	4	7	400	0	300	300	0	0	518	46	0	1	0	0	0	1	blank2r.bmp	0	1	+	0	1	B1r.bmp	492	1	blank2r.bmp	786	1	BMVZ	786	1	blank2r.bmp	866	4	tot	866	1	!	1239	1	!	-1	0	0	0	0	0	0	0	0	0	0	0	0	0	0	0	0	0	0	0	0	0	0	0	0	0	0	0
010919	14:07:51	14:17:17	564926	5.0.10.0	4_exp_EVA_AMP_AWA_CON	53	Rpleas_acq	Oppo	Rpleas	Bmasked	CS_B	2pleas	distractor2	EVAbeforeCON	acq_US_unple_masked	acq45_masked	4	8	400	1	300	300	0	0	387	46	0	1	0	0	0	1	blank2r.bmp	0	1	+	0	5	C1r.bmp	492	1	blank2r.bmp	786	1	BMVZ	786	1	blank2r.bmp	866	3	rächen	866	1	!	1239	1	!	1292	0	0	0	0	0	0	0	0	0	0	0	0	0	0	0	0	0	0	0	0	0	0	0	0	0	0	0
010919	14:07:51	14:17:19	567112	5.0.10.0	4_exp_EVA_AMP_AWA_CON	53	Rpleas_acq	Oppo	Rpleas	Bmasked	CS_B	2pleas	distractor2	EVAbeforeCON	acq_US_unple_masked	acq45_masked	4	9	400	1	300	300	0	0	398	46	0	1	0	0	0	1	blank2r.bmp	0	1	+	0	8	C4r.bmp	492	1	blank2r.bmp	786	1	BMVZ	786	1	blank2r.bmp	866	2	schlecht	866	1	!	1239	1	!	1292	0	0	0	0	0	0	0	0	0	0	0	0	0	0	0	0	0	0	0	0	0	0	0	0	0	0	0
010919	14:07:51	14:17:21	569298	5.0.10.0	4_exp_EVA_AMP_AWA_CON	53	Rpleas_acq	Oppo	Rpleas	Bmasked	CS_B	2pleas	distractor2	EVAbeforeCON	acq_US_pleas_masked	acq45_masked	4	10	400	1	300	300	0	0	374	50	0	1	0	0	0	1	blank2r.bmp	0	1	+	0	3	B3r.bmp	492	1	blank2r.bmp	786	1	GKQX	786	1	blank2r.bmp	866	2	schön	866	1	!	1239	1	!	1279	0	0	0	0	0	0	0	0	0	0	0	0	0	0	0	0	0	0	0	0	0	0	0	0	0	0	0
010919	14:07:51	14:17:23	571510	5.0.10.0	4_exp_EVA_AMP_AWA_CON	53	Rpleas_acq	Oppo	Rpleas	Bmasked	CS_B	2pleas	distractor2	EVAbeforeCON	acq_US_pleas_masked	acq45_masked	4	11	400	1	300	300	0	0	402	46	0	0	0	0	0	1	blank2r.bmp	0	1	+	0	2	B2r.bmp	492	1	blank2r.bmp	786	1	GKQX	786	1	blank2r.bmp	866	4	treu	866	1	!	1239	1	!	1306	0	0	0	0	0	0	0	0	0	0	0	0	0	0	0	0	0	0	0	0	0	0	0	0	0	0	0
010919	14:07:51	14:17:26	573803	5.0.10.0	4_exp_EVA_AMP_AWA_CON	53	Rpleas_acq	Oppo	Rpleas	Bmasked	CS_B	2pleas	distractor2	EVAbeforeCON	acq_US_pleas_masked	acq45_masked	4	12	400	0	300	300	0	0	532	46	0	0	0	0	0	1	blank2r.bmp	0	1	+	0	4	B4r.bmp	492	1	blank2r.bmp	786	1	GKQX	786	1	blank2r.bmp	866	1	tolerant	866	1	!	1239	1	!	-1	0	0	0	0	0	0	0	0	0	0	0	0	0	0	0	0	0	0	0	0	0	0	0	0	0	0	0
010919	14:07:51	14:17:28	576375	5.0.10.0	4_exp_EVA_AMP_AWA_CON	53	Rpleas_acq	Oppo	Rpleas	Bmasked	CS_B	2pleas	distractor2	EVAbeforeCON	acq_US_unple_masked	acq45_masked	4	13	400	0	300	300	0	0	786	46	0	1	0	0	0	1	blank2r.bmp	0	1	+	0	7	C3r.bmp	492	1	blank2r.bmp	786	1	BMVZ	786	1	blank2r.bmp	866	1	tyrannisch	866	1	!	1239	1	!	-1	0	0	0	0	0	0	0	0	0	0	0	0	0	0	0	0	0	0	0	0	0	0	0	0	0	0	0
010919	14:07:51	14:17:30	578641	5.0.10.0	4_exp_EVA_AMP_AWA_CON	53	Rpleas_acq	Oppo	Rpleas	Bmasked	CS_B	2pleas	distractor2	EVAbeforeCON	acq_US_pleas_masked	acq45_masked	4	14	400	0	300	300	0	0	479	50	0	1	0	0	0	1	blank2r.bmp	0	1	+	0	8	C4r.bmp	492	1	blank2r.bmp	786	1	GKQX	786	1	blank2r.bmp	866	5	spielen	866	1	!	1239	1	!	-1	0	0	0	0	0	0	0	0	0	0	0	0	0	0	0	0	0	0	0	0	0	0	0	0	0	0	0
010919	14:07:51	14:17:33	581173	5.0.10.0	4_exp_EVA_AMP_AWA_CON	53	Rpleas_acq	Oppo	Rpleas	Bmasked	CS_B	2pleas	distractor2	EVAbeforeCON	acq_US_pleas_masked	acq45_masked	4	15	400	0	300	300	0	0	748	50	0	1	0	0	0	1	blank2r.bmp	0	1	+	0	3	B3r.bmp	492	1	blank2r.bmp	786	1	GKQX	786	1	blank2r.bmp	866	3	retten	866	1	!	1239	1	!	-1	0	0	0	0	0	0	0	0	0	0	0	0	0	0	0	0	0	0	0	0	0	0	0	0	0	0	0
010919	14:07:51	14:17:35	583412	5.0.10.0	4_exp_EVA_AMP_AWA_CON	53	Rpleas_acq	Oppo	Rpleas	Bmasked	CS_B	2pleas	distractor2	EVAbeforeCON	acq_US_pleas_masked	acq45_masked	4	16	400	1	300	300	0	0	437	50	0	1	0	0	0	1	blank2r.bmp	0	1	+	0	6	C2r.bmp	492	1	blank2r.bmp	786	1	GKQX	786	1	blank2r.bmp	866	4	treu	866	1	!	1239	1	!	1332	0	0	0	0	0	0	0	0	0	0	0	0	0	0	0	0	0	0	0	0	0	0	0	0	0	0	0
010919	14:07:51	14:17:37	585758	5.0.10.0	4_exp_EVA_AMP_AWA_CON	53	Rpleas_acq	Oppo	Rpleas	Bmasked	CS_B	2pleas	distractor2	EVAbeforeCON	acq_US_pleas_masked	acq45_masked	4	17	400	0	300	300	0	0	579	50	0	1	0	0	0	1	blank2r.bmp	0	1	+	0	4	B4r.bmp	492	1	blank2r.bmp	786	1	GKQX	786	1	blank2r.bmp	866	1	tolerant	866	1	!	1239	1	!	-1	0	0	0	0	0	0	0	0	0	0	0	0	0	0	0	0	0	0	0	0	0	0	0	0	0	0	0
010919	14:07:51	14:17:40	588157	5.0.10.0	4_exp_EVA_AMP_AWA_CON	53	Rpleas_acq	Oppo	Rpleas	Bmasked	CS_B	2pleas	distractor2	EVAbeforeCON	acq_US_unple_masked	acq45_masked	4	18	400	0	300	300	0	0	607	46	0	1	0	0	0	1	blank2r.bmp	0	1	+	0	2	B2r.bmp	492	1	blank2r.bmp	786	1	BMVZ	786	1	blank2r.bmp	866	4	tot	866	1	!	1239	1	!	-1	0	0	0	0	0	0	0	0	0	0	0	0	0	0	0	0	0	0	0	0	0	0	0	0	0	0	0
010919	14:07:51	14:17:42	590569	5.0.10.0	4_exp_EVA_AMP_AWA_CON	53	Rpleas_acq	Oppo	Rpleas	Bmasked	CS_B	2pleas	distractor2	EVAbeforeCON	acq_US_pleas_masked	acq45_masked	4	19	400	0	300	300	0	0	625	50	0	1	0	0	0	1	blank2r.bmp	0	1	+	0	1	B1r.bmp	492	1	blank2r.bmp	786	1	GKQX	786	1	blank2r.bmp	866	6	helfen	866	1	!	1239	1	!	-1	0	0	0	0	0	0	0	0	0	0	0	0	0	0	0	0	0	0	0	0	0	0	0	0	0	0	0
010919	14:07:51	14:17:45	593022	5.0.10.0	4_exp_EVA_AMP_AWA_CON	53	Rpleas_acq	Oppo	Rpleas	Bmasked	CS_B	2pleas	distractor2	EVAbeforeCON	acq_US_unple_masked	acq45_masked	4	20	400	0	300	300	0	0	671	46	0	1	0	0	0	1	blank2r.bmp	0	1	+	0	5	C1r.bmp	492	1	blank2r.bmp	786	1	BMVZ	786	1	blank2r.bmp	866	3	rächen	866	1	!	1239	1	!	-1	0	0	0	0	0	0	0	0	0	0	0	0	0	0	0	0	0	0	0	0	0	0	0	0	0	0	0
010919	14:07:51	14:17:47	595394	5.0.10.0	4_exp_EVA_AMP_AWA_CON	53	Rpleas_acq	Oppo	Rpleas	Bmasked	CS_B	2pleas	distractor2	EVAbeforeCON	acq_US_unple_masked	acq45_masked	4	21	400	0	300	300	0	0	590	46	0	1	0	0	0	1	blank2r.bmp	0	1	+	0	3	B3r.bmp	492	1	blank2r.bmp	786	1	BMVZ	786	1	blank2r.bmp	866	5	strafen	866	1	!	1239	1	!	-1	0	0	0	0	0	0	0	0	0	0	0	0	0	0	0	0	0	0	0	0	0	0	0	0	0	0	0
010919	14:07:51	14:17:49	597753	5.0.10.0	4_exp_EVA_AMP_AWA_CON	53	Rpleas_acq	Oppo	Rpleas	Bmasked	CS_B	2pleas	distractor2	EVAbeforeCON	acq_US_unple_masked	acq45_masked	4	22	400	0	300	300	0	0	584	46	0	1	0	0	0	1	blank2r.bmp	0	1	+	0	1	B1r.bmp	492	1	blank2r.bmp	786	1	BMVZ	786	1	blank2r.bmp	866	6	hindern	866	1	!	1239	1	!	-1	0	0	0	0	0	0	0	0	0	0	0	0	0	0	0	0	0	0	0	0	0	0	0	0	0	0	0
010919	14:07:51	14:17:52	600045	5.0.10.0	4_exp_EVA_AMP_AWA_CON	53	Rpleas_acq	Oppo	Rpleas	Bmasked	CS_B	2pleas	distractor2	EVAbeforeCON	acq_US_pleas_masked	acq45_masked	4	23	400	0	300	300	0	0	497	50	0	1	0	0	0	1	blank2r.bmp	0	1	+	0	7	C3r.bmp	492	1	blank2r.bmp	786	1	GKQX	786	1	blank2r.bmp	866	2	schön	866	1	!	1239	1	!	-1	0	0	0	0	0	0	0	0	0	0	0	0	0	0	0	0	0	0	0	0	0	0	0	0	0	0	0
010919	14:07:51	14:17:54	602298	5.0.10.0	4_exp_EVA_AMP_AWA_CON	53	Rpleas_acq	Oppo	Rpleas	Bmasked	CS_B	2pleas	distractor2	EVAbeforeCON	acq_US_unple_masked	acq45_masked	4	24	400	1	300	300	0	0	444	50	0	0	0	0	0	1	blank2r.bmp	0	1	+	0	4	B4r.bmp	492	1	blank2r.bmp	786	1	BMVZ	786	1	blank2r.bmp	866	3	rächen	866	1	!	1239	1	!	1346	0	0	0	0	0	0	0	0	0	0	0	0	0	0	0	0	0	0	0	0	0	0	0	0	0	0	0
010919	14:07:51	14:17:56	604390	5.0.10.0	4_exp_EVA_AMP_AWA_CON	53	Rpleas_acq	Oppo	Rpleas	Bmasked	CS_B	2pleas	distractor2	EVAbeforeCON	acq_US_pleas_masked	acq45_masked	4	25	400	0	300	300	0	0	322	46	0	0	0	0	0	1	blank2r.bmp	0	1	+	0	2	B2r.bmp	492	1	blank2r.bmp	786	1	GKQX	786	1	blank2r.bmp	866	5	spielen	866	1	!	-1	1	!	-1	0	0	0	0	0	0	0	0	0	0	0	0	0	0	0	0	0	0	0	0	0	0	0	0	0	0	0
010919	14:07:51	14:17:58	606736	5.0.10.0	4_exp_EVA_AMP_AWA_CON	53	Rpleas_acq	Oppo	Rpleas	Bmasked	CS_B	2pleas	distractor2	EVAbeforeCON	acq_US_pleas_masked	acq45_masked	4	26	400	0	300	300	0	0	559	50	0	1	0	0	0	1	blank2r.bmp	0	1	+	0	5	C1r.bmp	492	1	blank2r.bmp	786	1	GKQX	786	1	blank2r.bmp	866	4	treu	866	1	!	1239	1	!	-1	0	0	0	0	0	0	0	0	0	0	0	0	0	0	0	0	0	0	0	0	0	0	0	0	0	0	0
010919	14:07:51	14:18:01	609055	5.0.10.0	4_exp_EVA_AMP_AWA_CON	53	Rpleas_acq	Oppo	Rpleas	Bmasked	CS_B	2pleas	distractor2	EVAbeforeCON	acq_US_unple_masked	acq45_masked	4	27	400	0	300	300	0	0	537	46	0	1	0	0	0	1	blank2r.bmp	0	1	+	0	8	C4r.bmp	492	1	blank2r.bmp	786	1	BMVZ	786	1	blank2r.bmp	866	5	strafen	866	1	!	1239	1	!	-1	0	0	0	0	0	0	0	0	0	0	0	0	0	0	0	0	0	0	0	0	0	0	0	0	0	0	0
010919	14:07:51	14:18:04	612107	5.0.10.0	4_exp_EVA_AMP_AWA_CON	53	Rpleas_acq	Oppo	Rpleas	Bmasked	CS_B	2pleas	distractor2	EVAbeforeCON	acq_US_pleas_masked	acq45_masked	4	28	400	0	300	300	0	0	1268	50	0	1	0	0	0	1	blank2r.bmp	0	1	+	0	6	C2r.bmp	492	1	blank2r.bmp	786	1	GKQX	786	1	blank2r.bmp	866	6	helfen	866	1	!	1239	1	!	-1	0	0	0	0	0	0	0	0	0	0	0	0	0	0	0	0	0	0	0	0	0	0	0	0	0	0	0
010919	14:07:51	14:18:06	614466	5.0.10.0	4_exp_EVA_AMP_AWA_CON	53	Rpleas_acq	Oppo	Rpleas	Bmasked	CS_B	2pleas	distractor2	EVAbeforeCON	acq_US_unple_masked	acq45_masked	4	29	400	0	300	300	0	0	575	46	0	1	0	0	0	1	blank2r.bmp	0	1	+	0	8	C4r.bmp	492	1	blank2r.bmp	786	1	BMVZ	786	1	blank2r.bmp	866	1	tyrannisch	866	1	!	1239	1	!	-1	0	0	0	0	0	0	0	0	0	0	0	0	0	0	0	0	0	0	0	0	0	0	0	0	0	0	0
010919	14:07:51	14:18:08	616758	5.0.10.0	4_exp_EVA_AMP_AWA_CON	53	Rpleas_acq	Oppo	Rpleas	Bmasked	CS_B	2pleas	distractor2	EVAbeforeCON	acq_US_pleas_masked	acq45_masked	4	30	400	0	300	300	0	0	511	50	0	1	0	0	0	1	blank2r.bmp	0	1	+	0	4	B4r.bmp	492	1	blank2r.bmp	786	1	GKQX	786	1	blank2r.bmp	866	3	retten	866	1	!	1239	1	!	-1	0	0	0	0	0	0	0	0	0	0	0	0	0	0	0	0	0	0	0	0	0	0	0	0	0	0	0
010919	14:07:51	14:18:11	619064	5.0.10.0	4_exp_EVA_AMP_AWA_CON	53	Rpleas_acq	Oppo	Rpleas	Bmasked	CS_B	2pleas	distractor2	EVAbeforeCON	acq_US_unple_masked	acq45_masked	4	31	400	0	300	300	0	0	525	46	0	1	0	0	0	1	blank2r.bmp	0	1	+	0	1	B1r.bmp	492	1	blank2r.bmp	786	1	BMVZ	786	1	blank2r.bmp	866	4	tot	866	1	!	1239	1	!	-1	0	0	0	0	0	0	0	0	0	0	0	0	0	0	0	0	0	0	0	0	0	0	0	0	0	0	0
010919	14:07:51	14:18:13	621383	5.0.10.0	4_exp_EVA_AMP_AWA_CON	53	Rpleas_acq	Oppo	Rpleas	Bmasked	CS_B	2pleas	distractor2	EVAbeforeCON	acq_US_pleas_masked	acq45_masked	4	32	400	0	300	300	0	0	527	46	0	0	0	0	0	1	blank2r.bmp	0	1	+	0	2	B2r.bmp	492	1	blank2r.bmp	786	1	GKQX	786	1	blank2r.bmp	866	2	schön	866	1	!	1239	1	!	-1	0	0	0	0	0	0	0	0	0	0	0	0	0	0	0	0	0	0	0	0	0	0	0	0	0	0	0
010919	14:07:51	14:18:15	623596	5.0.10.0	4_exp_EVA_AMP_AWA_CON	53	Rpleas_acq	Oppo	Rpleas	Bmasked	CS_B	2pleas	distractor2	EVAbeforeCON	acq_US_pleas_masked	acq45_masked	4	33	400	1	300	300	0	0	407	50	0	1	0	0	0	1	blank2r.bmp	0	1	+	0	7	C3r.bmp	492	1	blank2r.bmp	786	1	GKQX	786	1	blank2r.bmp	866	5	spielen	866	1	!	1239	1	!	1306	0	0	0	0	0	0	0	0	0	0	0	0	0	0	0	0	0	0	0	0	0	0	0	0	0	0	0
010919	14:07:51	14:18:18	626381	5.0.10.0	4_exp_EVA_AMP_AWA_CON	53	Rpleas_acq	Oppo	Rpleas	Bmasked	CS_B	2pleas	distractor2	EVAbeforeCON	acq_US_pleas_masked	acq45_masked	4	34	400	0	300	300	0	0	1012	50	0	1	0	0	0	1	blank2r.bmp	0	1	+	0	6	C2r.bmp	492	1	blank2r.bmp	786	1	GKQX	786	1	blank2r.bmp	866	1	tolerant	866	1	!	1239	1	!	-1	0	0	0	0	0	0	0	0	0	0	0	0	0	0	0	0	0	0	0	0	0	0	0	0	0	0	0
010919	14:07:51	14:18:20	628660	5.0.10.0	4_exp_EVA_AMP_AWA_CON	53	Rpleas_acq	Oppo	Rpleas	Bmasked	CS_B	2pleas	distractor2	EVAbeforeCON	acq_US_unple_masked	acq45_masked	4	35	400	1	300	300	0	0	466	46	0	1	0	0	0	1	blank2r.bmp	0	1	+	0	3	B3r.bmp	492	1	blank2r.bmp	786	1	BMVZ	786	1	blank2r.bmp	866	6	hindern	866	1	!	1239	1	!	1372	0	0	0	0	0	0	0	0	0	0	0	0	0	0	0	0	0	0	0	0	0	0	0	0	0	0	0
010919	14:07:51	14:18:23	630993	5.0.10.0	4_exp_EVA_AMP_AWA_CON	53	Rpleas_acq	Oppo	Rpleas	Bmasked	CS_B	2pleas	distractor2	EVAbeforeCON	acq_US_unple_masked	acq45_masked	4	36	400	0	300	300	0	0	567	46	0	1	0	0	0	1	blank2r.bmp	0	1	+	0	5	C1r.bmp	492	1	blank2r.bmp	786	1	BMVZ	786	1	blank2r.bmp	866	2	schlecht	866	1	!	1239	1	!	-1	0	0	0	0	0	0	0	0	0	0	0	0	0	0	0	0	0	0	0	0	0	0	0	0	0	0	0
010919	14:07:51	14:18:36	644707	5.0.10.0	4_exp_EVA_AMP_AWA_CON	53	Rpleas_acq	Oppo	Rpleas	Bmasked	CS_B	2pleas	distractor2	EVAbeforeCON	acq_US_pleas_masked	acq45_masked	5	1	400	0	300	300	0	0	959	50	0	1	0	0	0	1	blank2r.bmp	0	1	+	0	4	B4r.bmp	492	1	blank2r.bmp	786	1	GKQX	786	1	blank2r.bmp	866	6	helfen	866	1	!	1239	1	!	-1	0	0	0	0	0	0	0	0	0	0	0	0	0	0	0	0	0	0	0	0	0	0	0	0	0	0	0
010919	14:07:51	14:18:39	647013	5.0.10.0	4_exp_EVA_AMP_AWA_CON	53	Rpleas_acq	Oppo	Rpleas	Bmasked	CS_B	2pleas	distractor2	EVAbeforeCON	acq_US_unple_masked	acq45_masked	5	2	400	0	300	300	0	0	524	46	0	1	0	0	0	1	blank2r.bmp	0	1	+	0	7	C3r.bmp	492	1	blank2r.bmp	786	1	BMVZ	786	1	blank2r.bmp	866	3	rächen	866	1	!	1239	1	!	-1	0	0	0	0	0	0	0	0	0	0	0	0	0	0	0	0	0	0	0	0	0	0	0	0	0	0	0
010919	14:07:51	14:18:41	649318	5.0.10.0	4_exp_EVA_AMP_AWA_CON	53	Rpleas_acq	Oppo	Rpleas	Bmasked	CS_B	2pleas	distractor2	EVAbeforeCON	acq_US_unple_masked	acq45_masked	5	3	400	0	300	300	0	0	519	46	0	1	0	0	0	1	blank2r.bmp	0	1	+	0	2	B2r.bmp	492	1	blank2r.bmp	786	1	BMVZ	786	1	blank2r.bmp	866	6	hindern	866	1	!	1239	1	!	-1	0	0	0	0	0	0	0	0	0	0	0	0	0	0	0	0	0	0	0	0	0	0	0	0	0	0	0
010919	14:07:51	14:18:43	651517	5.0.10.0	4_exp_EVA_AMP_AWA_CON	53	Rpleas_acq	Oppo	Rpleas	Bmasked	CS_B	2pleas	distractor2	EVAbeforeCON	acq_US_pleas_masked	acq45_masked	5	4	400	1	300	300	0	0	393	46	0	0	0	0	0	1	blank2r.bmp	0	1	+	0	8	C4r.bmp	492	1	blank2r.bmp	786	1	GKQX	786	1	blank2r.bmp	866	1	tolerant	866	1	!	1239	1	!	1292	0	0	0	0	0	0	0	0	0	0	0	0	0	0	0	0	0	0	0	0	0	0	0	0	0	0	0
010919	14:07:51	14:18:46	653837	5.0.10.0	4_exp_EVA_AMP_AWA_CON	53	Rpleas_acq	Oppo	Rpleas	Bmasked	CS_B	2pleas	distractor2	EVAbeforeCON	acq_US_pleas_masked	acq45_masked	5	5	400	0	300	300	0	0	546	50	0	1	0	0	0	1	blank2r.bmp	0	1	+	0	3	B3r.bmp	492	1	blank2r.bmp	786	1	GKQX	786	1	blank2r.bmp	866	5	spielen	866	1	!	1239	1	!	-1	0	0	0	0	0	0	0	0	0	0	0	0	0	0	0	0	0	0	0	0	0	0	0	0	0	0	0
010919	14:07:51	14:18:48	656116	5.0.10.0	4_exp_EVA_AMP_AWA_CON	53	Rpleas_acq	Oppo	Rpleas	Bmasked	CS_B	2pleas	distractor2	EVAbeforeCON	acq_US_pleas_masked	acq45_masked	5	6	400	0	300	300	0	0	479	50	0	1	0	0	0	1	blank2r.bmp	0	1	+	0	5	C1r.bmp	492	1	blank2r.bmp	786	1	GKQX	786	1	blank2r.bmp	866	4	treu	866	1	!	1239	1	!	-1	0	0	0	0	0	0	0	0	0	0	0	0	0	0	0	0	0	0	0	0	0	0	0	0	0	0	0
010919	14:07:51	14:18:50	658301	5.0.10.0	4_exp_EVA_AMP_AWA_CON	53	Rpleas_acq	Oppo	Rpleas	Bmasked	CS_B	2pleas	distractor2	EVAbeforeCON	acq_US_pleas_masked	acq45_masked	5	7	400	1	300	300	0	0	383	50	0	1	0	0	0	1	blank2r.bmp	0	1	+	0	6	C2r.bmp	492	1	blank2r.bmp	786	1	GKQX	786	1	blank2r.bmp	866	3	retten	866	1	!	1239	1	!	1279	0	0	0	0	0	0	0	0	0	0	0	0	0	0	0	0	0	0	0	0	0	0	0	0	0	0	0
010919	14:07:51	14:18:52	660554	5.0.10.0	4_exp_EVA_AMP_AWA_CON	53	Rpleas_acq	Oppo	Rpleas	Bmasked	CS_B	2pleas	distractor2	EVAbeforeCON	acq_US_unple_masked	acq45_masked	5	8	400	1	300	300	0	0	462	46	0	1	0	0	0	1	blank2r.bmp	0	1	+	0	1	B1r.bmp	492	1	blank2r.bmp	786	1	BMVZ	786	1	blank2r.bmp	866	5	strafen	866	1	!	1239	1	!	1359	0	0	0	0	0	0	0	0	0	0	0	0	0	0	0	0	0	0	0	0	0	0	0	0	0	0	0
010919	14:07:51	14:18:55	662859	5.0.10.0	4_exp_EVA_AMP_AWA_CON	53	Rpleas_acq	Oppo	Rpleas	Bmasked	CS_B	2pleas	distractor2	EVAbeforeCON	acq_US_unple_masked	acq45_masked	5	9	400	0	300	300	0	0	541	46	0	1	0	0	0	1	blank2r.bmp	0	1	+	0	8	C4r.bmp	492	1	blank2r.bmp	786	1	BMVZ	786	1	blank2r.bmp	866	4	tot	866	1	!	1239	1	!	-1	0	0	0	0	0	0	0	0	0	0	0	0	0	0	0	0	0	0	0	0	0	0	0	0	0	0	0
010919	14:07:51	14:18:57	665165	5.0.10.0	4_exp_EVA_AMP_AWA_CON	53	Rpleas_acq	Oppo	Rpleas	Bmasked	CS_B	2pleas	distractor2	EVAbeforeCON	acq_US_unple_masked	acq45_masked	5	10	400	0	300	300	0	0	521	46	0	1	0	0	0	1	blank2r.bmp	0	1	+	0	1	B1r.bmp	492	1	blank2r.bmp	786	1	BMVZ	786	1	blank2r.bmp	866	1	tyrannisch	866	1	!	1239	1	!	-1	0	0	0	0	0	0	0	0	0	0	0	0	0	0	0	0	0	0	0	0	0	0	0	0	0	0	0
010919	14:07:51	14:18:59	667444	5.0.10.0	4_exp_EVA_AMP_AWA_CON	53	Rpleas_acq	Oppo	Rpleas	Bmasked	CS_B	2pleas	distractor2	EVAbeforeCON	acq_US_unple_masked	acq45_masked	5	11	400	0	300	300	0	0	494	46	0	1	0	0	0	1	blank2r.bmp	0	1	+	0	6	C2r.bmp	492	1	blank2r.bmp	786	1	BMVZ	786	1	blank2r.bmp	866	2	schlecht	866	1	!	1239	1	!	-1	0	0	0	0	0	0	0	0	0	0	0	0	0	0	0	0	0	0	0	0	0	0	0	0	0	0	0
010919	14:07:51	14:19:01	669723	5.0.10.0	4_exp_EVA_AMP_AWA_CON	53	Rpleas_acq	Oppo	Rpleas	Bmasked	CS_B	2pleas	distractor2	EVAbeforeCON	acq_US_pleas_masked	acq45_masked	5	12	400	1	300	300	0	0	466	50	0	1	0	0	0	1	blank2r.bmp	0	1	+	0	5	C1r.bmp	492	1	blank2r.bmp	786	1	GKQX	786	1	blank2r.bmp	866	2	schön	866	1	!	1239	1	!	1372	0	0	0	0	0	0	0	0	0	0	0	0	0	0	0	0	0	0	0	0	0	0	0	0	0	0	0
010919	14:07:51	14:19:04	672002	5.0.10.0	4_exp_EVA_AMP_AWA_CON	53	Rpleas_acq	Oppo	Rpleas	Bmasked	CS_B	2pleas	distractor2	EVAbeforeCON	acq_US_pleas_masked	acq45_masked	5	13	400	0	300	300	0	0	517	50	0	1	0	0	0	1	blank2r.bmp	0	1	+	0	3	B3r.bmp	492	1	blank2r.bmp	786	1	GKQX	786	1	blank2r.bmp	866	5	spielen	866	1	!	1239	1	!	-1	0	0	0	0	0	0	0	0	0	0	0	0	0	0	0	0	0	0	0	0	0	0	0	0	0	0	0
010919	14:07:51	14:19:06	674268	5.0.10.0	4_exp_EVA_AMP_AWA_CON	53	Rpleas_acq	Oppo	Rpleas	Bmasked	CS_B	2pleas	distractor2	EVAbeforeCON	acq_US_unple_masked	acq45_masked	5	14	400	1	300	300	0	0	462	46	0	1	0	0	0	1	blank2r.bmp	0	1	+	0	4	B4r.bmp	492	1	blank2r.bmp	786	1	BMVZ	786	1	blank2r.bmp	866	6	hindern	866	1	!	1239	1	!	1359	0	0	0	0	0	0	0	0	0	0	0	0	0	0	0	0	0	0	0	0	0	0	0	0	0	0	0
010919	14:07:51	14:19:08	676534	5.0.10.0	4_exp_EVA_AMP_AWA_CON	53	Rpleas_acq	Oppo	Rpleas	Bmasked	CS_B	2pleas	distractor2	EVAbeforeCON	acq_US_unple_masked	acq45_masked	5	15	400	1	300	300	0	0	457	46	0	1	0	0	0	1	blank2r.bmp	0	1	+	0	2	B2r.bmp	492	1	blank2r.bmp	786	1	BMVZ	786	1	blank2r.bmp	866	3	rächen	866	1	!	1239	1	!	1359	0	0	0	0	0	0	0	0	0	0	0	0	0	0	0	0	0	0	0	0	0	0	0	0	0	0	0
010919	14:07:51	14:19:11	678826	5.0.10.0	4_exp_EVA_AMP_AWA_CON	53	Rpleas_acq	Oppo	Rpleas	Bmasked	CS_B	2pleas	distractor2	EVAbeforeCON	acq_US_pleas_masked	acq45_masked	5	16	400	0	300	300	0	0	524	50	0	1	0	0	0	1	blank2r.bmp	0	1	+	0	7	C3r.bmp	492	1	blank2r.bmp	786	1	GKQX	786	1	blank2r.bmp	866	3	retten	866	1	!	1239	1	!	-1	0	0	0	0	0	0	0	0	0	0	0	0	0	0	0	0	0	0	0	0	0	0	0	0	0	0	0
010919	14:07:51	14:19:13	681225	5.0.10.0	4_exp_EVA_AMP_AWA_CON	53	Rpleas_acq	Oppo	Rpleas	Bmasked	CS_B	2pleas	distractor2	EVAbeforeCON	acq_US_pleas_masked	acq45_masked	5	17	400	0	300	300	0	0	608	50	0	1	0	0	0	1	blank2r.bmp	0	1	+	0	3	B3r.bmp	492	1	blank2r.bmp	786	1	GKQX	786	1	blank2r.bmp	866	1	tolerant	866	1	!	1239	1	!	-1	0	0	0	0	0	0	0	0	0	0	0	0	0	0	0	0	0	0	0	0	0	0	0	0	0	0	0
010919	14:07:51	14:19:15	683491	5.0.10.0	4_exp_EVA_AMP_AWA_CON	53	Rpleas_acq	Oppo	Rpleas	Bmasked	CS_B	2pleas	distractor2	EVAbeforeCON	acq_US_unple_masked	acq45_masked	5	18	400	1	300	300	0	0	453	46	0	1	0	0	0	1	blank2r.bmp	0	1	+	0	8	C4r.bmp	492	1	blank2r.bmp	786	1	BMVZ	786	1	blank2r.bmp	866	4	tot	866	1	!	1239	1	!	1359	0	0	0	0	0	0	0	0	0	0	0	0	0	0	0	0	0	0	0	0	0	0	0	0	0	0	0
010919	14:07:51	14:19:18	685863	5.0.10.0	4_exp_EVA_AMP_AWA_CON	53	Rpleas_acq	Oppo	Rpleas	Bmasked	CS_B	2pleas	distractor2	EVAbeforeCON	acq_US_unple_masked	acq45_masked	5	19	400	0	300	300	0	0	599	46	0	1	0	0	0	1	blank2r.bmp	0	1	+	0	2	B2r.bmp	492	1	blank2r.bmp	786	1	BMVZ	786	1	blank2r.bmp	866	2	schlecht	866	1	!	1239	1	!	-1	0	0	0	0	0	0	0	0	0	0	0	0	0	0	0	0	0	0	0	0	0	0	0	0	0	0	0
010919	14:07:51	14:19:20	688076	5.0.10.0	4_exp_EVA_AMP_AWA_CON	53	Rpleas_acq	Oppo	Rpleas	Bmasked	CS_B	2pleas	distractor2	EVAbeforeCON	acq_US_pleas_masked	acq45_masked	5	20	400	1	300	300	0	0	404	50	0	1	0	0	0	1	blank2r.bmp	0	1	+	0	7	C3r.bmp	492	1	blank2r.bmp	786	1	GKQX	786	1	blank2r.bmp	866	2	schön	866	1	!	1239	1	!	1306	0	0	0	0	0	0	0	0	0	0	0	0	0	0	0	0	0	0	0	0	0	0	0	0	0	0	0
010919	14:07:51	14:19:22	690381	5.0.10.0	4_exp_EVA_AMP_AWA_CON	53	Rpleas_acq	Oppo	Rpleas	Bmasked	CS_B	2pleas	distractor2	EVAbeforeCON	acq_US_unple_masked	acq45_masked	5	21	400	0	300	300	0	0	527	46	0	1	0	0	0	1	blank2r.bmp	0	1	+	0	5	C1r.bmp	492	1	blank2r.bmp	786	1	BMVZ	786	1	blank2r.bmp	866	1	tyrannisch	866	1	!	1239	1	!	-1	0	0	0	0	0	0	0	0	0	0	0	0	0	0	0	0	0	0	0	0	0	0	0	0	0	0	0
010919	14:07:51	14:19:24	692674	5.0.10.0	4_exp_EVA_AMP_AWA_CON	53	Rpleas_acq	Oppo	Rpleas	Bmasked	CS_B	2pleas	distractor2	EVAbeforeCON	acq_US_pleas_masked	acq45_masked	5	22	400	0	300	300	0	0	517	50	0	1	0	0	0	1	blank2r.bmp	0	1	+	0	1	B1r.bmp	492	1	blank2r.bmp	786	1	GKQX	786	1	blank2r.bmp	866	6	helfen	866	1	!	1239	1	!	-1	0	0	0	0	0	0	0	0	0	0	0	0	0	0	0	0	0	0	0	0	0	0	0	0	0	0	0
010919	14:07:51	14:19:27	694926	5.0.10.0	4_exp_EVA_AMP_AWA_CON	53	Rpleas_acq	Oppo	Rpleas	Bmasked	CS_B	2pleas	distractor2	EVAbeforeCON	acq_US_pleas_masked	acq45_masked	5	23	400	1	300	300	0	0	440	46	0	0	0	0	0	1	blank2r.bmp	0	1	+	0	6	C2r.bmp	492	1	blank2r.bmp	786	1	GKQX	786	1	blank2r.bmp	866	4	treu	866	1	!	1239	1	!	1346	0	0	0	0	0	0	0	0	0	0	0	0	0	0	0	0	0	0	0	0	0	0	0	0	0	0	0
010919	14:07:51	14:19:29	697658	5.0.10.0	4_exp_EVA_AMP_AWA_CON	53	Rpleas_acq	Oppo	Rpleas	Bmasked	CS_B	2pleas	distractor2	EVAbeforeCON	acq_US_unple_masked	acq45_masked	5	24	400	0	300	300	0	0	969	46	0	1	0	0	0	1	blank2r.bmp	0	1	+	0	4	B4r.bmp	492	1	blank2r.bmp	786	1	BMVZ	786	1	blank2r.bmp	866	5	strafen	866	1	!	1239	1	!	-1	0	0	0	0	0	0	0	0	0	0	0	0	0	0	0	0	0	0	0	0	0	0	0	0	0	0	0
010919	14:07:51	14:19:32	700031	5.0.10.0	4_exp_EVA_AMP_AWA_CON	53	Rpleas_acq	Oppo	Rpleas	Bmasked	CS_B	2pleas	distractor2	EVAbeforeCON	acq_US_unple_masked	acq45_masked	5	25	400	0	300	300	0	0	594	46	0	1	0	0	0	1	blank2r.bmp	0	1	+	0	5	C1r.bmp	492	1	blank2r.bmp	786	1	BMVZ	786	1	blank2r.bmp	866	1	tyrannisch	866	1	!	1239	1	!	-1	0	0	0	0	0	0	0	0	0	0	0	0	0	0	0	0	0	0	0	0	0	0	0	0	0	0	0
010919	14:07:51	14:19:34	702576	5.0.10.0	4_exp_EVA_AMP_AWA_CON	53	Rpleas_acq	Oppo	Rpleas	Bmasked	CS_B	2pleas	distractor2	EVAbeforeCON	acq_US_pleas_masked	acq45_masked	5	26	400	0	300	300	0	0	762	50	0	1	0	0	0	1	blank2r.bmp	0	1	+	0	3	B3r.bmp	492	1	blank2r.bmp	786	1	GKQX	786	1	blank2r.bmp	866	6	helfen	866	1	!	1239	1	!	-1	0	0	0	0	0	0	0	0	0	0	0	0	0	0	0	0	0	0	0	0	0	0	0	0	0	0	0
010919	14:07:51	14:19:37	705002	5.0.10.0	4_exp_EVA_AMP_AWA_CON	53	Rpleas_acq	Oppo	Rpleas	Bmasked	CS_B	2pleas	distractor2	EVAbeforeCON	acq_US_unple_masked	acq45_masked	5	27	400	0	300	300	0	0	648	46	0	1	0	0	0	1	blank2r.bmp	0	1	+	0	2	B2r.bmp	492	1	blank2r.bmp	786	1	BMVZ	786	1	blank2r.bmp	866	2	schlecht	866	1	!	1239	1	!	-1	0	0	0	0	0	0	0	0	0	0	0	0	0	0	0	0	0	0	0	0	0	0	0	0	0	0	0
010919	14:07:51	14:19:39	707348	5.0.10.0	4_exp_EVA_AMP_AWA_CON	53	Rpleas_acq	Oppo	Rpleas	Bmasked	CS_B	2pleas	distractor2	EVAbeforeCON	acq_US_pleas_masked	acq45_masked	5	28	400	0	300	300	0	0	557	50	0	1	0	0	0	1	blank2r.bmp	0	1	+	0	4	B4r.bmp	492	1	blank2r.bmp	786	1	GKQX	786	1	blank2r.bmp	866	3	retten	866	1	!	1239	1	!	-1	0	0	0	0	0	0	0	0	0	0	0	0	0	0	0	0	0	0	0	0	0	0	0	0	0	0	0
010919	14:07:51	14:19:41	709680	5.0.10.0	4_exp_EVA_AMP_AWA_CON	53	Rpleas_acq	Oppo	Rpleas	Bmasked	CS_B	2pleas	distractor2	EVAbeforeCON	acq_US_pleas_masked	acq45_masked	5	29	400	0	300	300	0	0	547	50	0	1	0	0	0	1	blank2r.bmp	0	1	+	0	8	C4r.bmp	492	1	blank2r.bmp	786	1	GKQX	786	1	blank2r.bmp	866	1	tolerant	866	1	!	1239	1	!	-1	0	0	0	0	0	0	0	0	0	0	0	0	0	0	0	0	0	0	0	0	0	0	0	0	0	0	0
010919	14:07:51	14:19:44	711973	5.0.10.0	4_exp_EVA_AMP_AWA_CON	53	Rpleas_acq	Oppo	Rpleas	Bmasked	CS_B	2pleas	distractor2	EVAbeforeCON	acq_US_unple_masked	acq45_masked	5	30	400	0	300	300	0	0	512	46	0	1	0	0	0	1	blank2r.bmp	0	1	+	0	6	C2r.bmp	492	1	blank2r.bmp	786	1	BMVZ	786	1	blank2r.bmp	866	4	tot	866	1	!	1239	1	!	-1	0	0	0	0	0	0	0	0	0	0	0	0	0	0	0	0	0	0	0	0	0	0	0	0	0	0	0
010919	14:07:51	14:19:46	714265	5.0.10.0	4_exp_EVA_AMP_AWA_CON	53	Rpleas_acq	Oppo	Rpleas	Bmasked	CS_B	2pleas	distractor2	EVAbeforeCON	acq_US_pleas_masked	acq45_masked	5	31	400	0	300	300	0	0	518	50	0	1	0	0	0	1	blank2r.bmp	0	1	+	0	7	C3r.bmp	492	1	blank2r.bmp	786	1	GKQX	786	1	blank2r.bmp	866	5	spielen	866	1	!	1239	1	!	-1	0	0	0	0	0	0	0	0	0	0	0	0	0	0	0	0	0	0	0	0	0	0	0	0	0	0	0
010919	14:07:51	14:19:48	716637	5.0.10.0	4_exp_EVA_AMP_AWA_CON	53	Rpleas_acq	Oppo	Rpleas	Bmasked	CS_B	2pleas	distractor2	EVAbeforeCON	acq_US_pleas_masked	acq45_masked	5	32	400	0	300	300	0	0	596	46	0	0	0	0	0	1	blank2r.bmp	0	1	+	0	1	B1r.bmp	492	1	blank2r.bmp	786	1	GKQX	786	1	blank2r.bmp	866	2	schön	866	1	!	1239	1	!	-1	0	0	0	0	0	0	0	0	0	0	0	0	0	0	0	0	0	0	0	0	0	0	0	0	0	0	0
010919	14:07:51	14:19:51	719130	5.0.10.0	4_exp_EVA_AMP_AWA_CON	53	Rpleas_acq	Oppo	Rpleas	Bmasked	CS_B	2pleas	distractor2	EVAbeforeCON	acq_US_unple_masked	acq45_masked	5	33	400	0	300	300	0	0	714	46	0	1	0	0	0	1	blank2r.bmp	0	1	+	0	8	C4r.bmp	492	1	blank2r.bmp	786	1	BMVZ	786	1	blank2r.bmp	866	5	strafen	866	1	!	1239	1	!	-1	0	0	0	0	0	0	0	0	0	0	0	0	0	0	0	0	0	0	0	0	0	0	0	0	0	0	0
010919	14:07:51	14:19:53	721489	5.0.10.0	4_exp_EVA_AMP_AWA_CON	53	Rpleas_acq	Oppo	Rpleas	Bmasked	CS_B	2pleas	distractor2	EVAbeforeCON	acq_US_unple_masked	acq45_masked	5	34	400	0	300	300	0	0	575	46	0	1	0	0	0	1	blank2r.bmp	0	1	+	0	5	C1r.bmp	492	1	blank2r.bmp	786	1	BMVZ	786	1	blank2r.bmp	866	3	rächen	866	1	!	1239	1	!	-1	0	0	0	0	0	0	0	0	0	0	0	0	0	0	0	0	0	0	0	0	0	0	0	0	0	0	0
010919	14:07:51	14:19:55	723674	5.0.10.0	4_exp_EVA_AMP_AWA_CON	53	Rpleas_acq	Oppo	Rpleas	Bmasked	CS_B	2pleas	distractor2	EVAbeforeCON	acq_US_unple_masked	acq45_masked	5	35	400	1	300	300	0	0	381	46	0	1	0	0	0	1	blank2r.bmp	0	1	+	0	6	C2r.bmp	492	1	blank2r.bmp	786	1	BMVZ	786	1	blank2r.bmp	866	6	hindern	866	1	!	1239	1	!	1279	0	0	0	0	0	0	0	0	0	0	0	0	0	0	0	0	0	0	0	0	0	0	0	0	0	0	0
010919	14:07:51	14:19:58	725900	5.0.10.0	4_exp_EVA_AMP_AWA_CON	53	Rpleas_acq	Oppo	Rpleas	Bmasked	CS_B	2pleas	distractor2	EVAbeforeCON	acq_US_pleas_masked	acq45_masked	5	36	400	1	300	300	0	0	424	46	0	0	0	0	0	1	blank2r.bmp	0	1	+	0	2	B2r.bmp	492	1	blank2r.bmp	786	1	GKQX	786	1	blank2r.bmp	866	4	treu	866	1	!	1239	1	!	1319	0	0	0	0	0	0	0	0	0	0	0	0	0	0	0	0	0	0	0	0	0	0	0	0	0	0	0
010919	14:07:51	14:20:50	777852	5.0.10.0	4_exp_EVA_AMP_AWA_CON	53	Rpleas_acq	Oppo	Lpleas	Bmasked	CS_B	2pleas	distractor2	EVAbeforeCON	EvalRating_firsttwo	EvalRating_firsttwo	6	1	0	0	300	300	0	0	17253	line	-12,451171875	0	0	0	0	1	eraser	1	1	Wie angenehm oder unangenehm finden Sie die  Buchstabenkette WFPH?	1	1	leftborder	1	1	rightborder	1	1	line	1	1	Unangenehm	1	1	Angenehm	1	0	0	0	0	0	0	0	0	0	0	0	0	0	0	0	0	0	0	0	0	0	0	0	0	0	0	0	0	0	0	0	0	0
010919	14:07:51	14:21:04	792006	5.0.10.0	4_exp_EVA_AMP_AWA_CON	53	Rpleas_acq	Oppo	Lpleas	Bmasked	CS_B	2pleas	distractor2	EVAbeforeCON	EvalRating_lastfour	EvalRating_lastfour	7	1	0	0	300	300	0	0	11688	line	-45,6542968749999928946	0	0	0	0	1	eraser	0	1	Wie angenehm oder unangenehm finden Sie die  Buchstabenkette BMVZ?	0	1	leftborder	0	1	rightborder	0	1	line	0	1	Unangenehm	0	1	Angenehm	0	0	0	0	0	0	0	0	0	0	0	0	0	0	0	0	0	0	0	0	0	0	0	0	0	0	0	0	0	0	0	0	0	0
010919	14:07:51	14:21:06	794379	5.0.10.0	4_exp_EVA_AMP_AWA_CON	53	Rpleas_acq	Oppo	Lpleas	Bmasked	CS_B	2pleas	distractor2	EVAbeforeCON	blank_screen	EvalRating_lastfour	7	3	0	0	300	300	0	0	0	0	-45,6542968749999928946	0	0	0	0	1	eraser	0	0	0	0	0	0	0	0	0	0	0	0	0	0	0	0	0	0	0	0	0	0	0	0	0	0	0	0	0	0	0	0	0	0	0	0	0	0	0	0	0	0	0	0	0	0	0	0	0	0	0	0
010919	14:07:51	14:21:09	797404	5.0.10.0	4_exp_EVA_AMP_AWA_CON	53	Rpleas_acq	Oppo	Lpleas	Bmasked	CS_B	2pleas	distractor2	EVAbeforeCON	EvalRating_lastfour	EvalRating_lastfour	7	4	0	0	300	300	0	0	2441	line	-40,5273437499999928946	0	0	0	0	1	eraser	1	2	Wie angenehm oder unangenehm finden Sie die  Buchstabenkette GKQX?	1	1	leftborder	1	1	rightborder	1	1	line	1	1	Unangenehm	1	1	Angenehm	1	0	0	0	0	0	0	0	0	0	0	0	0	0	0	0	0	0	0	0	0	0	0	0	0	0	0	0	0	0	0	0	0	0
010919	14:07:51	14:21:12	799776	5.0.10.0	4_exp_EVA_AMP_AWA_CON	53	Rpleas_acq	Oppo	Lpleas	Bmasked	CS_B	2pleas	distractor2	EVAbeforeCON	blank_screen	EvalRating_lastfour	7	6	0	0	300	300	0	0	0	0	-40,5273437499999928946	0	0	0	0	1	eraser	0	0	0	0	0	0	0	0	0	0	0	0	0	0	0	0	0	0	0	0	0	0	0	0	0	0	0	0	0	0	0	0	0	0	0	0	0	0	0	0	0	0	0	0	0	0	0	0	0	0	0	0
010919	14:07:51	14:21:14	802709	5.0.10.0	4_exp_EVA_AMP_AWA_CON	53	Rpleas_acq	Oppo	Lpleas	Bmasked	CS_B	2pleas	distractor2	EVAbeforeCON	EvalRating_lastfour	EvalRating_lastfour	7	7	0	0	300	300	0	0	2355	line	31,982421875	0	0	0	0	1	eraser	0	3	Wie angenehm oder unangenehm finden Sie die  Buchstabenkette JCRD?	0	1	leftborder	0	1	rightborder	0	1	line	0	1	Unangenehm	0	1	Angenehm	0	0	0	0	0	0	0	0	0	0	0	0	0	0	0	0	0	0	0	0	0	0	0	0	0	0	0	0	0	0	0	0	0	0
010919	14:07:51	14:22:17	865416	5.0.10.0	4_exp_EVA_AMP_AWA_CON	53	Rpleas_acq	Oppo	Lpleas	Bmasked	CS_B	2pleas	distractor2	EVAbeforeCON	AMP_CSpleas	AMP1_masked	8	1	0	0	300	300	0	0	5248	46	31,982421875	1	0	0	0	1	blank2r.bmp	0	1	GKQX	0	1	blank2r.bmp	79	81	pic81.bmp	199	1	whitenoise_No3.bmp	306	0	0	0	0	0	0	0	0	0	0	0	0	0	0	0	0	0	0	0	0	0	0	0	0	0	0	0	0	0	0	0	0	0	0	0	0	0	0	0
010919	14:07:51	14:22:23	871560	5.0.10.0	4_exp_EVA_AMP_AWA_CON	53	Rpleas_acq	Oppo	Lpleas	Bmasked	CS_B	2pleas	distractor2	EVAbeforeCON	AMP_distractor	AMP1_masked	8	2	0	0	300	300	0	0	5234	50	31,982421875	0	0	0	0	1	blank2r.bmp	0	1	JCRD	0	1	blank2r.bmp	79	31	pic31.bmp	199	1	whitenoise_No3.bmp	306	0	0	0	0	0	0	0	0	0	0	0	0	0	0	0	0	0	0	0	0	0	0	0	0	0	0	0	0	0	0	0	0	0	0	0	0	0	0	0
010919	14:07:51	14:22:33	881583	5.0.10.0	4_exp_EVA_AMP_AWA_CON	53	Rpleas_acq	Oppo	Lpleas	Bmasked	CS_B	2pleas	distractor2	EVAbeforeCON	AMP_CSunple	AMP1_masked	8	3	0	0	300	300	0	0	9101	46	31,982421875	0	0	0	0	1	blank2r.bmp	0	1	BMVZ	0	1	blank2r.bmp	79	3	pic3.bmp	199	1	whitenoise_No3.bmp	306	0	0	0	0	0	0	0	0	0	0	0	0	0	0	0	0	0	0	0	0	0	0	0	0	0	0	0	0	0	0	0	0	0	0	0	0	0	0	0
010919	14:07:51	14:22:36	884182	5.0.10.0	4_exp_EVA_AMP_AWA_CON	53	Rpleas_acq	Oppo	Lpleas	Bmasked	CS_B	2pleas	distractor2	EVAbeforeCON	AMP_distractor	AMP1_masked	8	4	0	0	300	300	0	0	1675	50	31,982421875	0	0	0	0	1	blank2r.bmp	0	1	JCRD	0	1	blank2r.bmp	79	96	pic96.bmp	199	1	whitenoise_No3.bmp	306	0	0	0	0	0	0	0	0	0	0	0	0	0	0	0	0	0	0	0	0	0	0	0	0	0	0	0	0	0	0	0	0	0	0	0	0	0	0	0
010919	14:07:51	14:22:38	886274	5.0.10.0	4_exp_EVA_AMP_AWA_CON	53	Rpleas_acq	Oppo	Lpleas	Bmasked	CS_B	2pleas	distractor2	EVAbeforeCON	AMP_CSpleas	AMP1_masked	8	5	0	0	300	300	0	0	1160	46	31,982421875	1	0	0	0	1	blank2r.bmp	0	1	GKQX	0	1	blank2r.bmp	79	123	pic123.bmp	199	1	whitenoise_No3.bmp	306	0	0	0	0	0	0	0	0	0	0	0	0	0	0	0	0	0	0	0	0	0	0	0	0	0	0	0	0	0	0	0	0	0	0	0	0	0	0	0
010919	14:07:51	14:22:41	888806	5.0.10.0	4_exp_EVA_AMP_AWA_CON	53	Rpleas_acq	Oppo	Lpleas	Bmasked	CS_B	2pleas	distractor2	EVAbeforeCON	AMP_CSpleas	AMP1_masked	8	6	0	0	300	300	0	0	1615	50	31,982421875	0	0	0	0	1	blank2r.bmp	0	1	GKQX	0	1	blank2r.bmp	79	71	pic71.bmp	199	1	whitenoise_No3.bmp	306	0	0	0	0	0	0	0	0	0	0	0	0	0	0	0	0	0	0	0	0	0	0	0	0	0	0	0	0	0	0	0	0	0	0	0	0	0	0	0
010919	14:07:51	14:22:42	890686	5.0.10.0	4_exp_EVA_AMP_AWA_CON	53	Rpleas_acq	Oppo	Lpleas	Bmasked	CS_B	2pleas	distractor2	EVAbeforeCON	AMP_CSpleas	AMP1_masked	8	7	0	0	300	300	0	0	962	46	31,982421875	1	0	0	0	1	blank2r.bmp	0	1	GKQX	0	1	blank2r.bmp	79	116	pic116.bmp	199	1	whitenoise_No3.bmp	306	0	0	0	0	0	0	0	0	0	0	0	0	0	0	0	0	0	0	0	0	0	0	0	0	0	0	0	0	0	0	0	0	0	0	0	0	0	0	0
010919	14:07:51	14:22:44	892658	5.0.10.0	4_exp_EVA_AMP_AWA_CON	53	Rpleas_acq	Oppo	Lpleas	Bmasked	CS_B	2pleas	distractor2	EVAbeforeCON	AMP_CSpleas	AMP1_masked	8	8	0	0	300	300	0	0	1044	50	31,982421875	0	0	0	0	1	blank2r.bmp	0	1	GKQX	0	1	blank2r.bmp	79	53	pic53.bmp	199	1	whitenoise_No3.bmp	306	0	0	0	0	0	0	0	0	0	0	0	0	0	0	0	0	0	0	0	0	0	0	0	0	0	0	0	0	0	0	0	0	0	0	0	0	0	0	0
010919	14:07:51	14:22:46	894231	5.0.10.0	4_exp_EVA_AMP_AWA_CON	53	Rpleas_acq	Oppo	Lpleas	Bmasked	CS_B	2pleas	distractor2	EVAbeforeCON	AMP_CSpleas	AMP1_masked	8	9	0	0	300	300	0	0	659	46	31,982421875	1	0	0	0	1	blank2r.bmp	0	1	GKQX	0	1	blank2r.bmp	79	135	pic135.bmp	199	1	whitenoise_No3.bmp	306	0	0	0	0	0	0	0	0	0	0	0	0	0	0	0	0	0	0	0	0	0	0	0	0	0	0	0	0	0	0	0	0	0	0	0	0	0	0	0
010919	14:07:51	14:22:48	896190	5.0.10.0	4_exp_EVA_AMP_AWA_CON	53	Rpleas_acq	Oppo	Lpleas	Bmasked	CS_B	2pleas	distractor2	EVAbeforeCON	AMP_CSpleas	AMP1_masked	8	10	0	0	300	300	0	0	1040	46	31,982421875	1	0	0	0	1	blank2r.bmp	0	1	GKQX	0	1	blank2r.bmp	79	125	pic125.bmp	199	1	whitenoise_No3.bmp	306	0	0	0	0	0	0	0	0	0	0	0	0	0	0	0	0	0	0	0	0	0	0	0	0	0	0	0	0	0	0	0	0	0	0	0	0	0	0	0
010919	14:07:51	14:22:50	898616	5.0.10.0	4_exp_EVA_AMP_AWA_CON	53	Rpleas_acq	Oppo	Lpleas	Bmasked	CS_B	2pleas	distractor2	EVAbeforeCON	AMP_distractor	AMP1_masked	8	11	0	0	300	300	0	0	1498	50	31,982421875	0	0	0	0	1	blank2r.bmp	0	1	JCRD	0	1	blank2r.bmp	79	134	pic134.bmp	199	1	whitenoise_No3.bmp	306	0	0	0	0	0	0	0	0	0	0	0	0	0	0	0	0	0	0	0	0	0	0	0	0	0	0	0	0	0	0	0	0	0	0	0	0	0	0	0
010919	14:07:51	14:22:52	900402	5.0.10.0	4_exp_EVA_AMP_AWA_CON	53	Rpleas_acq	Oppo	Lpleas	Bmasked	CS_B	2pleas	distractor2	EVAbeforeCON	AMP_CSpleas	AMP1_masked	8	12	0	0	300	300	0	0	868	46	31,982421875	1	0	0	0	1	blank2r.bmp	0	1	GKQX	0	1	blank2r.bmp	79	72	pic72.bmp	199	1	whitenoise_No3.bmp	306	0	0	0	0	0	0	0	0	0	0	0	0	0	0	0	0	0	0	0	0	0	0	0	0	0	0	0	0	0	0	0	0	0	0	0	0	0	0	0
010919	14:07:51	14:22:54	902308	5.0.10.0	4_exp_EVA_AMP_AWA_CON	53	Rpleas_acq	Oppo	Lpleas	Bmasked	CS_B	2pleas	distractor2	EVAbeforeCON	AMP_distractor	AMP1_masked	8	13	0	0	300	300	0	0	980	50	31,982421875	0	0	0	0	1	blank2r.bmp	0	1	JCRD	0	1	blank2r.bmp	79	60	pic60.bmp	199	1	whitenoise_No3.bmp	306	0	0	0	0	0	0	0	0	0	0	0	0	0	0	0	0	0	0	0	0	0	0	0	0	0	0	0	0	0	0	0	0	0	0	0	0	0	0	0
010919	14:07:51	14:22:56	903987	5.0.10.0	4_exp_EVA_AMP_AWA_CON	53	Rpleas_acq	Oppo	Lpleas	Bmasked	CS_B	2pleas	distractor2	EVAbeforeCON	AMP_distractor	AMP1_masked	8	14	0	0	300	300	0	0	755	46	31,982421875	0	0	0	0	1	blank2r.bmp	0	1	JCRD	0	1	blank2r.bmp	79	115	pic115.bmp	199	1	whitenoise_No3.bmp	306	0	0	0	0	0	0	0	0	0	0	0	0	0	0	0	0	0	0	0	0	0	0	0	0	0	0	0	0	0	0	0	0	0	0	0	0	0	0	0
010919	14:07:51	14:22:58	905799	5.0.10.0	4_exp_EVA_AMP_AWA_CON	53	Rpleas_acq	Oppo	Lpleas	Bmasked	CS_B	2pleas	distractor2	EVAbeforeCON	AMP_distractor	AMP1_masked	8	15	0	0	300	300	0	0	887	46	31,982421875	0	0	0	0	1	blank2r.bmp	0	1	JCRD	0	1	blank2r.bmp	79	112	pic112.bmp	199	1	whitenoise_No3.bmp	306	0	0	0	0	0	0	0	0	0	0	0	0	0	0	0	0	0	0	0	0	0	0	0	0	0	0	0	0	0	0	0	0	0	0	0	0	0	0	0
010919	14:07:51	14:23:00	907972	5.0.10.0	4_exp_EVA_AMP_AWA_CON	53	Rpleas_acq	Oppo	Lpleas	Bmasked	CS_B	2pleas	distractor2	EVAbeforeCON	AMP_CSpleas	AMP1_masked	8	16	0	0	300	300	0	0	1244	46	31,982421875	1	0	0	0	1	blank2r.bmp	0	1	GKQX	0	1	blank2r.bmp	79	10	pic10.bmp	199	1	whitenoise_No3.bmp	306	0	0	0	0	0	0	0	0	0	0	0	0	0	0	0	0	0	0	0	0	0	0	0	0	0	0	0	0	0	0	0	0	0	0	0	0	0	0	0
010919	14:07:51	14:23:01	909478	5.0.10.0	4_exp_EVA_AMP_AWA_CON	53	Rpleas_acq	Oppo	Lpleas	Bmasked	CS_B	2pleas	distractor2	EVAbeforeCON	AMP_CSunple	AMP1_masked	8	17	0	0	300	300	0	0	581	50	31,982421875	1	0	0	0	1	blank2r.bmp	0	1	BMVZ	0	1	blank2r.bmp	79	20	pic20.bmp	199	1	whitenoise_No3.bmp	306	0	0	0	0	0	0	0	0	0	0	0	0	0	0	0	0	0	0	0	0	0	0	0	0	0	0	0	0	0	0	0	0	0	0	0	0	0	0	0
010919	14:07:51	14:23:03	911317	5.0.10.0	4_exp_EVA_AMP_AWA_CON	53	Rpleas_acq	Oppo	Lpleas	Bmasked	CS_B	2pleas	distractor2	EVAbeforeCON	AMP_CSunple	AMP1_masked	8	18	0	0	300	300	0	0	916	46	31,982421875	0	0	0	0	1	blank2r.bmp	0	1	BMVZ	0	1	blank2r.bmp	79	106	pic106.bmp	199	1	whitenoise_No3.bmp	306	0	0	0	0	0	0	0	0	0	0	0	0	0	0	0	0	0	0	0	0	0	0	0	0	0	0	0	0	0	0	0	0	0	0	0	0	0	0	0
010919	14:07:51	14:23:05	913356	5.0.10.0	4_exp_EVA_AMP_AWA_CON	53	Rpleas_acq	Oppo	Lpleas	Bmasked	CS_B	2pleas	distractor2	EVAbeforeCON	AMP_CSpleas	AMP1_masked	8	19	0	0	300	300	0	0	1108	46	31,982421875	1	0	0	0	1	blank2r.bmp	0	1	GKQX	0	1	blank2r.bmp	79	70	pic70.bmp	199	1	whitenoise_No3.bmp	306	0	0	0	0	0	0	0	0	0	0	0	0	0	0	0	0	0	0	0	0	0	0	0	0	0	0	0	0	0	0	0	0	0	0	0	0	0	0	0
010919	14:07:51	14:23:06	914729	5.0.10.0	4_exp_EVA_AMP_AWA_CON	53	Rpleas_acq	Oppo	Lpleas	Bmasked	CS_B	2pleas	distractor2	EVAbeforeCON	AMP_CSpleas	AMP1_masked	8	20	0	0	300	300	0	0	458	50	31,982421875	0	0	0	0	1	blank2r.bmp	0	1	GKQX	0	1	blank2r.bmp	79	56	pic56.bmp	199	1	whitenoise_No3.bmp	306	0	0	0	0	0	0	0	0	0	0	0	0	0	0	0	0	0	0	0	0	0	0	0	0	0	0	0	0	0	0	0	0	0	0	0	0	0	0	0
010919	14:07:51	14:23:08	915995	5.0.10.0	4_exp_EVA_AMP_AWA_CON	53	Rpleas_acq	Oppo	Lpleas	Bmasked	CS_B	2pleas	distractor2	EVAbeforeCON	AMP_CSunple	AMP1_masked	8	21	0	0	300	300	0	0	346	46	31,982421875	0	0	0	0	1	blank2r.bmp	0	1	BMVZ	0	1	blank2r.bmp	79	111	pic111.bmp	199	1	whitenoise_No3.bmp	306	0	0	0	0	0	0	0	0	0	0	0	0	0	0	0	0	0	0	0	0	0	0	0	0	0	0	0	0	0	0	0	0	0	0	0	0	0	0	0
010919	14:07:51	14:23:09	917381	5.0.10.0	4_exp_EVA_AMP_AWA_CON	53	Rpleas_acq	Oppo	Lpleas	Bmasked	CS_B	2pleas	distractor2	EVAbeforeCON	AMP_CSpleas	AMP1_masked	8	22	0	0	300	300	0	0	472	50	31,982421875	0	0	0	0	1	blank2r.bmp	0	1	GKQX	0	1	blank2r.bmp	79	45	pic45.bmp	199	1	whitenoise_No3.bmp	306	0	0	0	0	0	0	0	0	0	0	0	0	0	0	0	0	0	0	0	0	0	0	0	0	0	0	0	0	0	0	0	0	0	0	0	0	0	0	0
010919	14:07:51	14:23:10	918501	5.0.10.0	4_exp_EVA_AMP_AWA_CON	53	Rpleas_acq	Oppo	Lpleas	Bmasked	CS_B	2pleas	distractor2	EVAbeforeCON	AMP_CSpleas	AMP1_masked	8	23	0	0	300	300	0	0	207	46	31,982421875	1	0	0	0	1	blank2r.bmp	0	1	GKQX	0	1	blank2r.bmp	79	11	pic11.bmp	199	1	whitenoise_No3.bmp	306	0	0	0	0	0	0	0	0	0	0	0	0	0	0	0	0	0	0	0	0	0	0	0	0	0	0	0	0	0	0	0	0	0	0	0	0	0	0	0
010919	14:07:51	14:23:12	919994	5.0.10.0	4_exp_EVA_AMP_AWA_CON	53	Rpleas_acq	Oppo	Lpleas	Bmasked	CS_B	2pleas	distractor2	EVAbeforeCON	AMP_CSunple	AMP1_masked	8	24	0	0	300	300	0	0	561	46	31,982421875	0	0	0	0	1	blank2r.bmp	0	1	BMVZ	0	1	blank2r.bmp	79	148	pic148.bmp	199	1	whitenoise_No3.bmp	306	0	0	0	0	0	0	0	0	0	0	0	0	0	0	0	0	0	0	0	0	0	0	0	0	0	0	0	0	0	0	0	0	0	0	0	0	0	0	0
010919	14:07:51	14:23:13	921500	5.0.10.0	4_exp_EVA_AMP_AWA_CON	53	Rpleas_acq	Oppo	Lpleas	Bmasked	CS_B	2pleas	distractor2	EVAbeforeCON	AMP_CSunple	AMP1_masked	8	25	0	0	300	300	0	0	590	46	31,982421875	0	0	0	0	1	blank2r.bmp	0	1	BMVZ	0	1	blank2r.bmp	79	29	pic29.bmp	199	1	whitenoise_No3.bmp	306	0	0	0	0	0	0	0	0	0	0	0	0	0	0	0	0	0	0	0	0	0	0	0	0	0	0	0	0	0	0	0	0	0	0	0	0	0	0	0
010919	14:07:51	14:23:15	923006	5.0.10.0	4_exp_EVA_AMP_AWA_CON	53	Rpleas_acq	Oppo	Lpleas	Bmasked	CS_B	2pleas	distractor2	EVAbeforeCON	AMP_CSunple	AMP1_masked	8	26	0	0	300	300	0	0	598	46	31,982421875	0	0	0	0	1	blank2r.bmp	0	1	BMVZ	0	1	blank2r.bmp	79	117	pic117.bmp	199	1	whitenoise_No3.bmp	306	0	0	0	0	0	0	0	0	0	0	0	0	0	0	0	0	0	0	0	0	0	0	0	0	0	0	0	0	0	0	0	0	0	0	0	0	0	0	0
010919	14:07:51	14:23:16	924725	5.0.10.0	4_exp_EVA_AMP_AWA_CON	53	Rpleas_acq	Oppo	Lpleas	Bmasked	CS_B	2pleas	distractor2	EVAbeforeCON	AMP_CSunple	AMP1_masked	8	27	0	0	300	300	0	0	788	46	31,982421875	0	0	0	0	1	blank2r.bmp	0	1	BMVZ	0	1	blank2r.bmp	79	97	pic97.bmp	199	1	whitenoise_No3.bmp	306	0	0	0	0	0	0	0	0	0	0	0	0	0	0	0	0	0	0	0	0	0	0	0	0	0	0	0	0	0	0	0	0	0	0	0	0	0	0	0
010919	14:07:51	14:23:18	926458	5.0.10.0	4_exp_EVA_AMP_AWA_CON	53	Rpleas_acq	Oppo	Lpleas	Bmasked	CS_B	2pleas	distractor2	EVAbeforeCON	AMP_distractor	AMP1_masked	8	28	0	0	300	300	0	0	805	46	31,982421875	0	0	0	0	1	blank2r.bmp	0	1	JCRD	0	1	blank2r.bmp	79	8	pic8.bmp	199	1	whitenoise_No3.bmp	306	0	0	0	0	0	0	0	0	0	0	0	0	0	0	0	0	0	0	0	0	0	0	0	0	0	0	0	0	0	0	0	0	0	0	0	0	0	0	0
010919	14:07:51	14:23:20	927937	5.0.10.0	4_exp_EVA_AMP_AWA_CON	53	Rpleas_acq	Oppo	Lpleas	Bmasked	CS_B	2pleas	distractor2	EVAbeforeCON	AMP_distractor	AMP1_masked	8	29	0	0	300	300	0	0	558	50	31,982421875	0	0	0	0	1	blank2r.bmp	0	1	JCRD	0	1	blank2r.bmp	79	73	pic73.bmp	199	1	whitenoise_No3.bmp	306	0	0	0	0	0	0	0	0	0	0	0	0	0	0	0	0	0	0	0	0	0	0	0	0	0	0	0	0	0	0	0	0	0	0	0	0	0	0	0
010919	14:07:51	14:23:21	929243	5.0.10.0	4_exp_EVA_AMP_AWA_CON	53	Rpleas_acq	Oppo	Lpleas	Bmasked	CS_B	2pleas	distractor2	EVAbeforeCON	AMP_distractor	AMP1_masked	8	30	0	0	300	300	0	0	382	46	31,982421875	0	0	0	0	1	blank2r.bmp	0	1	JCRD	0	1	blank2r.bmp	79	146	pic146.bmp	199	1	whitenoise_No3.bmp	306	0	0	0	0	0	0	0	0	0	0	0	0	0	0	0	0	0	0	0	0	0	0	0	0	0	0	0	0	0	0	0	0	0	0	0	0	0	0	0
010919	14:07:51	14:23:24	932322	5.0.10.0	4_exp_EVA_AMP_AWA_CON	53	Rpleas_acq	Oppo	Lpleas	Bmasked	CS_B	2pleas	distractor2	EVAbeforeCON	AMP_distractor	AMP1_masked	8	31	0	0	300	300	0	0	2151	46	31,982421875	0	0	0	0	1	blank2r.bmp	0	1	JCRD	0	1	blank2r.bmp	79	61	pic61.bmp	199	1	whitenoise_No3.bmp	306	0	0	0	0	0	0	0	0	0	0	0	0	0	0	0	0	0	0	0	0	0	0	0	0	0	0	0	0	0	0	0	0	0	0	0	0	0	0	0
010919	14:07:51	14:23:26	933921	5.0.10.0	4_exp_EVA_AMP_AWA_CON	53	Rpleas_acq	Oppo	Lpleas	Bmasked	CS_B	2pleas	distractor2	EVAbeforeCON	AMP_CSunple	AMP1_masked	8	32	0	0	300	300	0	0	671	46	31,982421875	0	0	0	0	1	blank2r.bmp	0	1	BMVZ	0	1	blank2r.bmp	79	122	pic122.bmp	199	1	whitenoise_No3.bmp	306	0	0	0	0	0	0	0	0	0	0	0	0	0	0	0	0	0	0	0	0	0	0	0	0	0	0	0	0	0	0	0	0	0	0	0	0	0	0	0
010919	14:07:51	14:23:27	935307	5.0.10.0	4_exp_EVA_AMP_AWA_CON	53	Rpleas_acq	Oppo	Lpleas	Bmasked	CS_B	2pleas	distractor2	EVAbeforeCON	AMP_distractor	AMP1_masked	8	33	0	0	300	300	0	0	471	50	31,982421875	0	0	0	0	1	blank2r.bmp	0	1	JCRD	0	1	blank2r.bmp	79	49	pic49.bmp	199	1	whitenoise_No3.bmp	306	0	0	0	0	0	0	0	0	0	0	0	0	0	0	0	0	0	0	0	0	0	0	0	0	0	0	0	0	0	0	0	0	0	0	0	0	0	0	0
010919	14:07:51	14:23:28	936493	5.0.10.0	4_exp_EVA_AMP_AWA_CON	53	Rpleas_acq	Oppo	Lpleas	Bmasked	CS_B	2pleas	distractor2	EVAbeforeCON	AMP_CSunple	AMP1_masked	8	34	0	0	300	300	0	0	270	46	31,982421875	0	0	0	0	1	blank2r.bmp	0	1	BMVZ	0	1	blank2r.bmp	79	90	pic90.bmp	199	1	whitenoise_No3.bmp	306	0	0	0	0	0	0	0	0	0	0	0	0	0	0	0	0	0	0	0	0	0	0	0	0	0	0	0	0	0	0	0	0	0	0	0	0	0	0	0
010919	14:07:51	14:23:30	938453	5.0.10.0	4_exp_EVA_AMP_AWA_CON	53	Rpleas_acq	Oppo	Lpleas	Bmasked	CS_B	2pleas	distractor2	EVAbeforeCON	AMP_CSpleas	AMP1_masked	8	35	0	0	300	300	0	0	1042	50	31,982421875	0	0	0	0	1	blank2r.bmp	0	1	GKQX	0	1	blank2r.bmp	79	74	pic74.bmp	199	1	whitenoise_No3.bmp	306	0	0	0	0	0	0	0	0	0	0	0	0	0	0	0	0	0	0	0	0	0	0	0	0	0	0	0	0	0	0	0	0	0	0	0	0	0	0	0
010919	14:07:51	14:23:33	941172	5.0.10.0	4_exp_EVA_AMP_AWA_CON	53	Rpleas_acq	Oppo	Lpleas	Bmasked	CS_B	2pleas	distractor2	EVAbeforeCON	AMP_distractor	AMP1_masked	8	36	0	0	300	300	0	0	1785	46	31,982421875	0	0	0	0	1	blank2r.bmp	0	1	JCRD	0	1	blank2r.bmp	79	78	pic78.bmp	199	1	whitenoise_No3.bmp	306	0	0	0	0	0	0	0	0	0	0	0	0	0	0	0	0	0	0	0	0	0	0	0	0	0	0	0	0	0	0	0	0	0	0	0	0	0	0	0
010919	14:07:51	14:23:34	942691	5.0.10.0	4_exp_EVA_AMP_AWA_CON	53	Rpleas_acq	Oppo	Lpleas	Bmasked	CS_B	2pleas	distractor2	EVAbeforeCON	AMP_CSpleas	AMP1_masked	8	37	0	0	300	300	0	0	599	50	31,982421875	0	0	0	0	1	blank2r.bmp	0	1	GKQX	0	1	blank2r.bmp	79	138	pic138.bmp	199	1	whitenoise_No3.bmp	306	0	0	0	0	0	0	0	0	0	0	0	0	0	0	0	0	0	0	0	0	0	0	0	0	0	0	0	0	0	0	0	0	0	0	0	0	0	0	0
010919	14:07:51	14:23:36	944250	5.0.10.0	4_exp_EVA_AMP_AWA_CON	53	Rpleas_acq	Oppo	Lpleas	Bmasked	CS_B	2pleas	distractor2	EVAbeforeCON	AMP_CSunple	AMP1_masked	8	38	0	0	300	300	0	0	639	46	31,982421875	0	0	0	0	1	blank2r.bmp	0	1	BMVZ	0	1	blank2r.bmp	79	19	pic19.bmp	199	1	whitenoise_No3.bmp	306	0	0	0	0	0	0	0	0	0	0	0	0	0	0	0	0	0	0	0	0	0	0	0	0	0	0	0	0	0	0	0	0	0	0	0	0	0	0	0
010919	14:07:51	14:23:38	945823	5.0.10.0	4_exp_EVA_AMP_AWA_CON	53	Rpleas_acq	Oppo	Lpleas	Bmasked	CS_B	2pleas	distractor2	EVAbeforeCON	AMP_CSunple	AMP1_masked	8	39	0	0	300	300	0	0	653	46	31,982421875	0	0	0	0	1	blank2r.bmp	0	1	BMVZ	0	1	blank2r.bmp	79	105	pic105.bmp	199	1	whitenoise_No3.bmp	306	0	0	0	0	0	0	0	0	0	0	0	0	0	0	0	0	0	0	0	0	0	0	0	0	0	0	0	0	0	0	0	0	0	0	0	0	0	0	0
010919	14:07:51	14:23:39	947489	5.0.10.0	4_exp_EVA_AMP_AWA_CON	53	Rpleas_acq	Oppo	Lpleas	Bmasked	CS_B	2pleas	distractor2	EVAbeforeCON	AMP_CSpleas	AMP1_masked	8	40	0	0	300	300	0	0	748	50	31,982421875	0	0	0	0	1	blank2r.bmp	0	1	GKQX	0	1	blank2r.bmp	79	21	pic21.bmp	199	1	whitenoise_No3.bmp	306	0	0	0	0	0	0	0	0	0	0	0	0	0	0	0	0	0	0	0	0	0	0	0	0	0	0	0	0	0	0	0	0	0	0	0	0	0	0	0
010919	14:07:51	14:23:41	949048	5.0.10.0	4_exp_EVA_AMP_AWA_CON	53	Rpleas_acq	Oppo	Lpleas	Bmasked	CS_B	2pleas	distractor2	EVAbeforeCON	AMP_distractor	AMP1_masked	8	41	0	0	300	300	0	0	645	50	31,982421875	0	0	0	0	1	blank2r.bmp	0	1	JCRD	0	1	blank2r.bmp	79	1	pic1.bmp	199	1	whitenoise_No3.bmp	306	0	0	0	0	0	0	0	0	0	0	0	0	0	0	0	0	0	0	0	0	0	0	0	0	0	0	0	0	0	0	0	0	0	0	0	0	0	0	0
010919	14:07:51	14:23:43	951074	5.0.10.0	4_exp_EVA_AMP_AWA_CON	53	Rpleas_acq	Oppo	Lpleas	Bmasked	CS_B	2pleas	distractor2	EVAbeforeCON	AMP_CSpleas	AMP1_masked	8	42	0	0	300	300	0	0	1107	46	31,982421875	1	0	0	0	1	blank2r.bmp	0	1	GKQX	0	1	blank2r.bmp	79	79	pic79.bmp	199	1	whitenoise_No3.bmp	306	0	0	0	0	0	0	0	0	0	0	0	0	0	0	0	0	0	0	0	0	0	0	0	0	0	0	0	0	0	0	0	0	0	0	0	0	0	0	0
010919	14:07:51	14:23:44	952567	5.0.10.0	4_exp_EVA_AMP_AWA_CON	53	Rpleas_acq	Oppo	Lpleas	Bmasked	CS_B	2pleas	distractor2	EVAbeforeCON	AMP_distractor	AMP1_masked	8	43	0	0	300	300	0	0	560	46	31,982421875	0	0	0	0	1	blank2r.bmp	0	1	JCRD	0	1	blank2r.bmp	79	127	pic127.bmp	199	1	whitenoise_No3.bmp	306	0	0	0	0	0	0	0	0	0	0	0	0	0	0	0	0	0	0	0	0	0	0	0	0	0	0	0	0	0	0	0	0	0	0	0	0	0	0	0
010919	14:07:51	14:23:46	954313	5.0.10.0	4_exp_EVA_AMP_AWA_CON	53	Rpleas_acq	Oppo	Lpleas	Bmasked	CS_B	2pleas	distractor2	EVAbeforeCON	AMP_distractor	AMP1_masked	8	44	0	0	300	300	0	0	834	50	31,982421875	0	0	0	0	1	blank2r.bmp	0	1	JCRD	0	1	blank2r.bmp	79	37	pic37.bmp	199	1	whitenoise_No3.bmp	306	0	0	0	0	0	0	0	0	0	0	0	0	0	0	0	0	0	0	0	0	0	0	0	0	0	0	0	0	0	0	0	0	0	0	0	0	0	0	0
010919	14:07:51	14:23:48	956032	5.0.10.0	4_exp_EVA_AMP_AWA_CON	53	Rpleas_acq	Oppo	Lpleas	Bmasked	CS_B	2pleas	distractor2	EVAbeforeCON	AMP_CSunple	AMP1_masked	8	45	0	0	300	300	0	0	787	46	31,982421875	0	0	0	0	1	blank2r.bmp	0	1	BMVZ	0	1	blank2r.bmp	79	25	pic25.bmp	199	1	whitenoise_No3.bmp	306	0	0	0	0	0	0	0	0	0	0	0	0	0	0	0	0	0	0	0	0	0	0	0	0	0	0	0	0	0	0	0	0	0	0	0	0	0	0	0
010919	14:07:51	14:23:49	957418	5.0.10.0	4_exp_EVA_AMP_AWA_CON	53	Rpleas_acq	Oppo	Lpleas	Bmasked	CS_B	2pleas	distractor2	EVAbeforeCON	AMP_CSunple	AMP1_masked	8	46	0	0	300	300	0	0	460	46	31,982421875	0	0	0	0	1	blank2r.bmp	0	1	BMVZ	0	1	blank2r.bmp	79	131	pic131.bmp	199	1	whitenoise_No3.bmp	306	0	0	0	0	0	0	0	0	0	0	0	0	0	0	0	0	0	0	0	0	0	0	0	0	0	0	0	0	0	0	0	0	0	0	0	0	0	0	0
010919	14:07:51	14:23:51	958778	5.0.10.0	4_exp_EVA_AMP_AWA_CON	53	Rpleas_acq	Oppo	Lpleas	Bmasked	CS_B	2pleas	distractor2	EVAbeforeCON	AMP_distractor	AMP1_masked	8	47	0	0	300	300	0	0	427	46	31,982421875	0	0	0	0	1	blank2r.bmp	0	1	JCRD	0	1	blank2r.bmp	79	66	pic66.bmp	199	1	whitenoise_No3.bmp	306	0	0	0	0	0	0	0	0	0	0	0	0	0	0	0	0	0	0	0	0	0	0	0	0	0	0	0	0	0	0	0	0	0	0	0	0	0	0	0
010919	14:07:51	14:23:52	960057	5.0.10.0	4_exp_EVA_AMP_AWA_CON	53	Rpleas_acq	Oppo	Lpleas	Bmasked	CS_B	2pleas	distractor2	EVAbeforeCON	AMP_distractor	AMP1_masked	8	48	0	0	300	300	0	0	345	50	31,982421875	0	0	0	0	1	blank2r.bmp	0	1	JCRD	0	1	blank2r.bmp	79	140	pic140.bmp	199	1	whitenoise_No3.bmp	306	0	0	0	0	0	0	0	0	0	0	0	0	0	0	0	0	0	0	0	0	0	0	0	0	0	0	0	0	0	0	0	0	0	0	0	0	0	0	0
010919	14:07:51	14:23:54	961816	5.0.10.0	4_exp_EVA_AMP_AWA_CON	53	Rpleas_acq	Oppo	Lpleas	Bmasked	CS_B	2pleas	distractor2	EVAbeforeCON	AMP_CSunple	AMP1_masked	8	49	0	0	300	300	0	0	843	46	31,982421875	0	0	0	0	1	blank2r.bmp	0	1	BMVZ	0	1	blank2r.bmp	79	22	pic22.bmp	199	1	whitenoise_No3.bmp	306	0	0	0	0	0	0	0	0	0	0	0	0	0	0	0	0	0	0	0	0	0	0	0	0	0	0	0	0	0	0	0	0	0	0	0	0	0	0	0
010919	14:07:51	14:23:55	963282	5.0.10.0	4_exp_EVA_AMP_AWA_CON	53	Rpleas_acq	Oppo	Lpleas	Bmasked	CS_B	2pleas	distractor2	EVAbeforeCON	AMP_CSunple	AMP1_masked	8	50	0	0	300	300	0	0	540	46	31,982421875	0	0	0	0	1	blank2r.bmp	0	1	BMVZ	0	1	blank2r.bmp	79	46	pic46.bmp	199	1	whitenoise_No3.bmp	306	0	0	0	0	0	0	0	0	0	0	0	0	0	0	0	0	0	0	0	0	0	0	0	0	0	0	0	0	0	0	0	0	0	0	0	0	0	0	0
010919	14:07:51	14:23:57	965042	5.0.10.0	4_exp_EVA_AMP_AWA_CON	53	Rpleas_acq	Oppo	Lpleas	Bmasked	CS_B	2pleas	distractor2	EVAbeforeCON	AMP_CSunple	AMP1_masked	8	51	0	0	300	300	0	0	826	46	31,982421875	0	0	0	0	1	blank2r.bmp	0	1	BMVZ	0	1	blank2r.bmp	79	26	pic26.bmp	199	1	whitenoise_No3.bmp	306	0	0	0	0	0	0	0	0	0	0	0	0	0	0	0	0	0	0	0	0	0	0	0	0	0	0	0	0	0	0	0	0	0	0	0	0	0	0	0
010919	14:07:51	14:24:12	980729	5.0.10.0	4_exp_EVA_AMP_AWA_CON	53	Rpleas_acq	Oppo	Lpleas	Bmasked	CS_B	2pleas	distractor2	EVAbeforeCON	AMP_CSpleas	AMP23	9	1	0	0	300	300	0	0	497	46	31,982421875	1	0	0	0	1	blank2r.bmp	0	1	GKQX	0	1	blank2r.bmp	79	65	pic65.bmp	199	1	whitenoise_No3.bmp	306	0	0	0	0	0	0	0	0	0	0	0	0	0	0	0	0	0	0	0	0	0	0	0	0	0	0	0	0	0	0	0	0	0	0	0	0	0	0	0
010919	14:07:51	14:24:14	982141	5.0.10.0	4_exp_EVA_AMP_AWA_CON	53	Rpleas_acq	Oppo	Lpleas	Bmasked	CS_B	2pleas	distractor2	EVAbeforeCON	AMP_CSpleas	AMP23	9	2	0	0	300	300	0	0	489	46	31,982421875	1	0	0	0	1	blank2r.bmp	0	1	GKQX	0	1	blank2r.bmp	79	98	pic98.bmp	199	1	whitenoise_No3.bmp	306	0	0	0	0	0	0	0	0	0	0	0	0	0	0	0	0	0	0	0	0	0	0	0	0	0	0	0	0	0	0	0	0	0	0	0	0	0	0	0
010919	14:07:51	14:24:16	983901	5.0.10.0	4_exp_EVA_AMP_AWA_CON	53	Rpleas_acq	Oppo	Lpleas	Bmasked	CS_B	2pleas	distractor2	EVAbeforeCON	AMP_distractor	AMP23	9	3	0	0	300	300	0	0	836	46	31,982421875	0	0	0	0	1	blank2r.bmp	0	1	JCRD	0	1	blank2r.bmp	79	41	pic41.bmp	199	1	whitenoise_No3.bmp	306	0	0	0	0	0	0	0	0	0	0	0	0	0	0	0	0	0	0	0	0	0	0	0	0	0	0	0	0	0	0	0	0	0	0	0	0	0	0	0
010919	14:07:51	14:24:18	986033	5.0.10.0	4_exp_EVA_AMP_AWA_CON	53	Rpleas_acq	Oppo	Lpleas	Bmasked	CS_B	2pleas	distractor2	EVAbeforeCON	AMP_CSpleas	AMP23	9	4	0	0	300	300	0	0	1209	50	31,982421875	0	0	0	0	1	blank2r.bmp	0	1	GKQX	0	1	blank2r.bmp	79	16	pic16.bmp	199	1	whitenoise_No3.bmp	306	0	0	0	0	0	0	0	0	0	0	0	0	0	0	0	0	0	0	0	0	0	0	0	0	0	0	0	0	0	0	0	0	0	0	0	0	0	0	0
010919	14:07:51	14:24:19	987512	5.0.10.0	4_exp_EVA_AMP_AWA_CON	53	Rpleas_acq	Oppo	Lpleas	Bmasked	CS_B	2pleas	distractor2	EVAbeforeCON	AMP_distractor	AMP23	9	5	0	0	300	300	0	0	556	46	31,982421875	0	0	0	0	1	blank2r.bmp	0	1	JCRD	0	1	blank2r.bmp	79	133	pic133.bmp	199	1	whitenoise_No3.bmp	306	0	0	0	0	0	0	0	0	0	0	0	0	0	0	0	0	0	0	0	0	0	0	0	0	0	0	0	0	0	0	0	0	0	0	0	0	0	0	0
010919	14:07:51	14:24:21	988965	5.0.10.0	4_exp_EVA_AMP_AWA_CON	53	Rpleas_acq	Oppo	Lpleas	Bmasked	CS_B	2pleas	distractor2	EVAbeforeCON	AMP_distractor	AMP23	9	6	0	0	300	300	0	0	527	46	31,982421875	0	0	0	0	1	blank2r.bmp	0	1	JCRD	0	1	blank2r.bmp	79	110	pic110.bmp	199	1	whitenoise_No3.bmp	306	0	0	0	0	0	0	0	0	0	0	0	0	0	0	0	0	0	0	0	0	0	0	0	0	0	0	0	0	0	0	0	0	0	0	0	0	0	0	0
010919	14:07:51	14:24:22	990298	5.0.10.0	4_exp_EVA_AMP_AWA_CON	53	Rpleas_acq	Oppo	Lpleas	Bmasked	CS_B	2pleas	distractor2	EVAbeforeCON	AMP_CSunple	AMP23	9	7	0	0	300	300	0	0	400	50	31,982421875	1	0	0	0	1	blank2r.bmp	0	1	BMVZ	0	1	blank2r.bmp	79	142	pic142.bmp	199	1	whitenoise_No3.bmp	306	0	0	0	0	0	0	0	0	0	0	0	0	0	0	0	0	0	0	0	0	0	0	0	0	0	0	0	0	0	0	0	0	0	0	0	0	0	0	0
010919	14:07:51	14:24:24	991777	5.0.10.0	4_exp_EVA_AMP_AWA_CON	53	Rpleas_acq	Oppo	Lpleas	Bmasked	CS_B	2pleas	distractor2	EVAbeforeCON	AMP_CSpleas	AMP23	9	8	0	0	300	300	0	0	571	50	31,982421875	0	0	0	0	1	blank2r.bmp	0	1	GKQX	0	1	blank2r.bmp	79	55	pic55.bmp	199	1	whitenoise_No3.bmp	306	0	0	0	0	0	0	0	0	0	0	0	0	0	0	0	0	0	0	0	0	0	0	0	0	0	0	0	0	0	0	0	0	0	0	0	0	0	0	0
010919	14:07:51	14:24:25	993723	5.0.10.0	4_exp_EVA_AMP_AWA_CON	53	Rpleas_acq	Oppo	Lpleas	Bmasked	CS_B	2pleas	distractor2	EVAbeforeCON	AMP_CSunple	AMP23	9	9	0	0	300	300	0	0	1013	46	31,982421875	0	0	0	0	1	blank2r.bmp	0	1	BMVZ	0	1	blank2r.bmp	79	149	pic149.bmp	199	1	whitenoise_No3.bmp	306	0	0	0	0	0	0	0	0	0	0	0	0	0	0	0	0	0	0	0	0	0	0	0	0	0	0	0	0	0	0	0	0	0	0	0	0	0	0	0
010919	14:07:51	14:24:27	995229	5.0.10.0	4_exp_EVA_AMP_AWA_CON	53	Rpleas_acq	Oppo	Lpleas	Bmasked	CS_B	2pleas	distractor2	EVAbeforeCON	AMP_distractor	AMP23	9	10	0	0	300	300	0	0	583	46	31,982421875	0	0	0	0	1	blank2r.bmp	0	1	JCRD	0	1	blank2r.bmp	79	128	pic128.bmp	199	1	whitenoise_No3.bmp	306	0	0	0	0	0	0	0	0	0	0	0	0	0	0	0	0	0	0	0	0	0	0	0	0	0	0	0	0	0	0	0	0	0	0	0	0	0	0	0
010919	14:07:51	14:24:28	996602	5.0.10.0	4_exp_EVA_AMP_AWA_CON	53	Rpleas_acq	Oppo	Lpleas	Bmasked	CS_B	2pleas	distractor2	EVAbeforeCON	AMP_CSunple	AMP23	9	11	0	0	300	300	0	0	451	46	31,982421875	0	0	0	0	1	blank2r.bmp	0	1	BMVZ	0	1	blank2r.bmp	79	13	pic13.bmp	199	1	whitenoise_No3.bmp	306	0	0	0	0	0	0	0	0	0	0	0	0	0	0	0	0	0	0	0	0	0	0	0	0	0	0	0	0	0	0	0	0	0	0	0	0	0	0	0
010919	14:07:51	14:24:30	998161	5.0.10.0	4_exp_EVA_AMP_AWA_CON	53	Rpleas_acq	Oppo	Lpleas	Bmasked	CS_B	2pleas	distractor2	EVAbeforeCON	AMP_CSpleas	AMP23	9	12	0	0	300	300	0	0	630	46	31,982421875	1	0	0	0	1	blank2r.bmp	0	1	GKQX	0	1	blank2r.bmp	79	40	pic40.bmp	199	1	whitenoise_No3.bmp	306	0	0	0	0	0	0	0	0	0	0	0	0	0	0	0	0	0	0	0	0	0	0	0	0	0	0	0	0	0	0	0	0	0	0	0	0	0	0	0
010919	14:07:51	14:24:32	999961	5.0.10.0	4_exp_EVA_AMP_AWA_CON	53	Rpleas_acq	Oppo	Lpleas	Bmasked	CS_B	2pleas	distractor2	EVAbeforeCON	AMP_distractor	AMP23	9	13	0	0	300	300	0	0	887	46	31,982421875	0	0	0	0	1	blank2r.bmp	0	1	JCRD	0	1	blank2r.bmp	79	152	pic152.bmp	199	1	whitenoise_No3.bmp	306	0	0	0	0	0	0	0	0	0	0	0	0	0	0	0	0	0	0	0	0	0	0	0	0	0	0	0	0	0	0	0	0	0	0	0	0	0	0	0
010919	14:07:51	14:24:34	1002040	5.0.10.0	4_exp_EVA_AMP_AWA_CON	53	Rpleas_acq	Oppo	Lpleas	Bmasked	CS_B	2pleas	distractor2	EVAbeforeCON	AMP_CSunple	AMP23	9	14	0	0	300	300	0	0	1157	50	31,982421875	1	0	0	0	1	blank2r.bmp	0	1	BMVZ	0	1	blank2r.bmp	79	67	pic67.bmp	199	1	whitenoise_No3.bmp	306	0	0	0	0	0	0	0	0	0	0	0	0	0	0	0	0	0	0	0	0	0	0	0	0	0	0	0	0	0	0	0	0	0	0	0	0	0	0	0
010919	14:07:51	14:24:35	1003466	5.0.10.0	4_exp_EVA_AMP_AWA_CON	53	Rpleas_acq	Oppo	Lpleas	Bmasked	CS_B	2pleas	distractor2	EVAbeforeCON	AMP_CSpleas	AMP23	9	15	0	0	300	300	0	0	518	46	31,982421875	1	0	0	0	1	blank2r.bmp	0	1	GKQX	0	1	blank2r.bmp	79	113	pic113.bmp	199	1	whitenoise_No3.bmp	306	0	0	0	0	0	0	0	0	0	0	0	0	0	0	0	0	0	0	0	0	0	0	0	0	0	0	0	0	0	0	0	0	0	0	0	0	0	0	0
010919	14:07:51	14:24:37	1004839	5.0.10.0	4_exp_EVA_AMP_AWA_CON	53	Rpleas_acq	Oppo	Lpleas	Bmasked	CS_B	2pleas	distractor2	EVAbeforeCON	AMP_CSpleas	AMP23	9	16	0	0	300	300	0	0	450	46	31,982421875	1	0	0	0	1	blank2r.bmp	0	1	GKQX	0	1	blank2r.bmp	79	86	pic86.bmp	199	1	whitenoise_No3.bmp	306	0	0	0	0	0	0	0	0	0	0	0	0	0	0	0	0	0	0	0	0	0	0	0	0	0	0	0	0	0	0	0	0	0	0	0	0	0	0	0
010919	14:07:51	14:24:39	1007144	5.0.10.0	4_exp_EVA_AMP_AWA_CON	53	Rpleas_acq	Oppo	Lpleas	Bmasked	CS_B	2pleas	distractor2	EVAbeforeCON	AMP_CSunple	AMP23	9	17	0	0	300	300	0	0	1377	50	31,982421875	1	0	0	0	1	blank2r.bmp	0	1	BMVZ	0	1	blank2r.bmp	79	92	pic92.bmp	199	1	whitenoise_No3.bmp	306	0	0	0	0	0	0	0	0	0	0	0	0	0	0	0	0	0	0	0	0	0	0	0	0	0	0	0	0	0	0	0	0	0	0	0	0	0	0	0
010919	14:07:51	14:24:42	1010450	5.0.10.0	4_exp_EVA_AMP_AWA_CON	53	Rpleas_acq	Oppo	Lpleas	Bmasked	CS_B	2pleas	distractor2	EVAbeforeCON	AMP_CSunple	AMP23	9	18	0	0	300	300	0	0	2391	50	31,982421875	1	0	0	0	1	blank2r.bmp	0	1	BMVZ	0	1	blank2r.bmp	79	144	pic144.bmp	199	1	whitenoise_No3.bmp	306	0	0	0	0	0	0	0	0	0	0	0	0	0	0	0	0	0	0	0	0	0	0	0	0	0	0	0	0	0	0	0	0	0	0	0	0	0	0	0
010919	14:07:51	14:24:44	1012036	5.0.10.0	4_exp_EVA_AMP_AWA_CON	53	Rpleas_acq	Oppo	Lpleas	Bmasked	CS_B	2pleas	distractor2	EVAbeforeCON	AMP_distractor	AMP23	9	19	0	0	300	300	0	0	677	50	31,982421875	0	0	0	0	1	blank2r.bmp	0	1	JCRD	0	1	blank2r.bmp	79	51	pic51.bmp	199	1	whitenoise_No3.bmp	306	0	0	0	0	0	0	0	0	0	0	0	0	0	0	0	0	0	0	0	0	0	0	0	0	0	0	0	0	0	0	0	0	0	0	0	0	0	0	0
010919	14:07:51	14:24:45	1013528	5.0.10.0	4_exp_EVA_AMP_AWA_CON	53	Rpleas_acq	Oppo	Lpleas	Bmasked	CS_B	2pleas	distractor2	EVAbeforeCON	AMP_distractor	AMP23	9	20	0	0	300	300	0	0	570	46	31,982421875	0	0	0	0	1	blank2r.bmp	0	1	JCRD	0	1	blank2r.bmp	79	7	pic7.bmp	199	1	whitenoise_No3.bmp	306	0	0	0	0	0	0	0	0	0	0	0	0	0	0	0	0	0	0	0	0	0	0	0	0	0	0	0	0	0	0	0	0	0	0	0	0	0	0	0
010919	14:07:51	14:24:47	1015101	5.0.10.0	4_exp_EVA_AMP_AWA_CON	53	Rpleas_acq	Oppo	Lpleas	Bmasked	CS_B	2pleas	distractor2	EVAbeforeCON	AMP_distractor	AMP23	9	21	0	0	300	300	0	0	641	50	31,982421875	0	0	0	0	1	blank2r.bmp	0	1	JCRD	0	1	blank2r.bmp	79	50	pic50.bmp	199	1	whitenoise_No3.bmp	306	0	0	0	0	0	0	0	0	0	0	0	0	0	0	0	0	0	0	0	0	0	0	0	0	0	0	0	0	0	0	0	0	0	0	0	0	0	0	0
010919	14:07:51	14:24:49	1017114	5.0.10.0	4_exp_EVA_AMP_AWA_CON	53	Rpleas_acq	Oppo	Lpleas	Bmasked	CS_B	2pleas	distractor2	EVAbeforeCON	AMP_CSunple	AMP23	9	22	0	0	300	300	0	0	1095	50	31,982421875	1	0	0	0	1	blank2r.bmp	0	1	BMVZ	0	1	blank2r.bmp	79	43	pic43.bmp	199	1	whitenoise_No3.bmp	306	0	0	0	0	0	0	0	0	0	0	0	0	0	0	0	0	0	0	0	0	0	0	0	0	0	0	0	0	0	0	0	0	0	0	0	0	0	0	0
010919	14:07:51	14:24:51	1019353	5.0.10.0	4_exp_EVA_AMP_AWA_CON	53	Rpleas_acq	Oppo	Lpleas	Bmasked	CS_B	2pleas	distractor2	EVAbeforeCON	AMP_CSpleas	AMP23	9	23	0	0	300	300	0	0	1318	50	31,982421875	0	0	0	0	1	blank2r.bmp	0	1	GKQX	0	1	blank2r.bmp	79	87	pic87.bmp	199	1	whitenoise_No3.bmp	306	0	0	0	0	0	0	0	0	0	0	0	0	0	0	0	0	0	0	0	0	0	0	0	0	0	0	0	0	0	0	0	0	0	0	0	0	0	0	0
010919	14:07:51	14:24:54	1022018	5.0.10.0	4_exp_EVA_AMP_AWA_CON	53	Rpleas_acq	Oppo	Lpleas	Bmasked	CS_B	2pleas	distractor2	EVAbeforeCON	AMP_distractor	AMP23	9	24	0	0	300	300	0	0	1747	50	31,982421875	0	0	0	0	1	blank2r.bmp	0	1	JCRD	0	1	blank2r.bmp	79	88	pic88.bmp	199	1	whitenoise_No3.bmp	306	0	0	0	0	0	0	0	0	0	0	0	0	0	0	0	0	0	0	0	0	0	0	0	0	0	0	0	0	0	0	0	0	0	0	0	0	0	0	0
010919	14:07:51	14:24:55	1023444	5.0.10.0	4_exp_EVA_AMP_AWA_CON	53	Rpleas_acq	Oppo	Lpleas	Bmasked	CS_B	2pleas	distractor2	EVAbeforeCON	AMP_distractor	AMP23	9	25	0	0	300	300	0	0	509	46	31,982421875	0	0	0	0	1	blank2r.bmp	0	1	JCRD	0	1	blank2r.bmp	79	119	pic119.bmp	199	1	whitenoise_No3.bmp	306	0	0	0	0	0	0	0	0	0	0	0	0	0	0	0	0	0	0	0	0	0	0	0	0	0	0	0	0	0	0	0	0	0	0	0	0	0	0	0
010919	14:07:51	14:24:57	1025017	5.0.10.0	4_exp_EVA_AMP_AWA_CON	53	Rpleas_acq	Oppo	Lpleas	Bmasked	CS_B	2pleas	distractor2	EVAbeforeCON	AMP_CSpleas	AMP23	9	26	0	0	300	300	0	0	654	46	31,982421875	1	0	0	0	1	blank2r.bmp	0	1	GKQX	0	1	blank2r.bmp	79	35	pic35.bmp	199	1	whitenoise_No3.bmp	306	0	0	0	0	0	0	0	0	0	0	0	0	0	0	0	0	0	0	0	0	0	0	0	0	0	0	0	0	0	0	0	0	0	0	0	0	0	0	0
