date	time	script.currenttime	script.elapsedtime	build	script.currentexpt	subject	expressions.LRpleas_acq	expressions.SameOppo	expressions.condition_Lpleas	expressions.ABmasked	expressions.conditionCS_A	expressions.condition_1pleas	expressions.condition_distractor_AMP	expressions.AWACON_AMPEVA_first	trialcode	blockcode	blocknum	trialnum	windowcenter	inwindow	pretrialpause	posttrialpause	trialduration	trialtimeout	latency	response	expressions.correctedscore	correct	values.vis_performance	values.vis_rating_sum	values.vis_rating_mean	stimulusnumber1	stimulusitem1	stimulusonset1	stimulusnumber2	stimulusitem2	stimulusonset2	stimulusnumber3	stimulusitem3	stimulusonset3	stimulusnumber4	stimulusitem4	stimulusonset4	stimulusnumber5	stimulusitem5	stimulusonset5	stimulusnumber6	stimulusitem6	stimulusonset6	stimulusnumber7	stimulusitem7	stimulusonset7	stimulusnumber8	stimulusitem8	stimulusonset8	stimulusnumber9	stimulusitem9	stimulusonset9	stimulusnumber10	stimulusitem10	stimulusonset10	stimulusnumber11	stimulusitem11	stimulusonset11	stimulusnumber12	stimulusitem12	stimulusonset12	stimulusnumber13	stimulusitem13	stimulusonset13	stimulusnumber14	stimulusitem14	stimulusonset14	stimulusnumber15	stimulusitem15	stimulusonset15	stimulusnumber16	stimulusitem16	stimulusonset16	stimulusnumber17	stimulusitem17	stimulusonset17	stimulusnumber18	stimulusitem18	stimulusonset18
040319	11:41:55	11:45:27	210033	5.0.10.0	4_exp_AWA_CON_AMP_EVA	187	Rpleas_acq	Oppo	Rpleas	Amasked	CS_A	2pleas	distractor1	CONbeforeEVA	acq_US_unple_masked	acq1_masked	1	1	0	0	300	300	0	0	1369	46	0	1	0	0	0	1	blank2r.bmp	0	1	+	0	3	B3r.bmp	492	1	blank2r.bmp	786	1	CPLW	786	1	blank2r.bmp	866	4	ausrottung	866	0	0	0	0	0	0	0	0	0	0	0	0	0	0	0	0	0	0	0	0	0	0	0	0	0	0	0	0	0	0	0	0	0
040319	11:41:55	11:45:29	212312	5.0.10.0	4_exp_AWA_CON_AMP_EVA	187	Rpleas_acq	Oppo	Rpleas	Amasked	CS_A	2pleas	distractor1	CONbeforeEVA	acq_US_unple_masked	acq1_masked	1	2	0	0	300	300	0	0	805	46	0	1	0	0	0	1	blank2r.bmp	0	1	+	0	6	C2r.bmp	492	1	blank2r.bmp	786	1	CPLW	786	1	blank2r.bmp	866	6	sterben	866	0	0	0	0	0	0	0	0	0	0	0	0	0	0	0	0	0	0	0	0	0	0	0	0	0	0	0	0	0	0	0	0	0
040319	11:41:55	11:45:32	215150	5.0.10.0	4_exp_AWA_CON_AMP_EVA	187	Rpleas_acq	Oppo	Rpleas	Amasked	CS_A	2pleas	distractor1	CONbeforeEVA	acq_US_unple_masked	acq1_masked	1	3	0	0	300	300	0	0	1369	46	0	1	0	0	0	1	blank2r.bmp	0	1	+	0	8	C4r.bmp	492	1	blank2r.bmp	786	1	CPLW	786	1	blank2r.bmp	866	1	engstirnig	866	0	0	0	0	0	0	0	0	0	0	0	0	0	0	0	0	0	0	0	0	0	0	0	0	0	0	0	0	0	0	0	0	0
040319	11:41:55	11:45:34	217429	5.0.10.0	4_exp_AWA_CON_AMP_EVA	187	Rpleas_acq	Oppo	Rpleas	Amasked	CS_A	2pleas	distractor1	CONbeforeEVA	acq_US_pleas_masked	acq1_masked	1	4	0	0	300	300	0	0	778	50	0	1	0	0	0	1	blank2r.bmp	0	1	+	0	4	B4r.bmp	492	1	blank2r.bmp	786	1	DHJF	786	1	blank2r.bmp	866	5	kreativ	866	0	0	0	0	0	0	0	0	0	0	0	0	0	0	0	0	0	0	0	0	0	0	0	0	0	0	0	0	0	0	0	0	0
040319	11:41:55	11:45:36	219802	5.0.10.0	4_exp_AWA_CON_AMP_EVA	187	Rpleas_acq	Oppo	Rpleas	Amasked	CS_A	2pleas	distractor1	CONbeforeEVA	acq_new_unple_masked	acq1_masked	1	5	0	0	300	300	0	0	894	46	0	1	0	0	0	1	blank2r.bmp	0	1	+	0	2	B2r.bmp	492	1	blank2r.bmp	786	5	C1r.bmp	786	1	blank2r.bmp	866	5	versagen	866	0	0	0	0	0	0	0	0	0	0	0	0	0	0	0	0	0	0	0	0	0	0	0	0	0	0	0	0	0	0	0	0	0
040319	11:41:55	11:45:39	222014	5.0.10.0	4_exp_AWA_CON_AMP_EVA	187	Rpleas_acq	Oppo	Rpleas	Amasked	CS_A	2pleas	distractor1	CONbeforeEVA	acq_new_pleas_masked	acq1_masked	1	6	0	0	300	300	0	0	742	50	0	1	0	0	0	1	blank2r.bmp	0	1	+	0	7	C3r.bmp	492	1	blank2r.bmp	786	8	C4r.bmp	786	1	blank2r.bmp	866	2	gütig	866	0	0	0	0	0	0	0	0	0	0	0	0	0	0	0	0	0	0	0	0	0	0	0	0	0	0	0	0	0	0	0	0	0
040319	11:41:55	11:45:41	224280	5.0.10.0	4_exp_AWA_CON_AMP_EVA	187	Rpleas_acq	Oppo	Rpleas	Amasked	CS_A	2pleas	distractor1	CONbeforeEVA	acq_new_unple_masked	acq1_masked	1	7	0	0	300	300	0	0	795	46	0	1	0	0	0	1	blank2r.bmp	0	1	+	0	1	B1r.bmp	492	1	blank2r.bmp	786	4	B4r.bmp	786	1	blank2r.bmp	866	6	bange	866	0	0	0	0	0	0	0	0	0	0	0	0	0	0	0	0	0	0	0	0	0	0	0	0	0	0	0	0	0	0	0	0	0
040319	11:41:55	11:45:43	226599	5.0.10.0	4_exp_AWA_CON_AMP_EVA	187	Rpleas_acq	Oppo	Rpleas	Amasked	CS_A	2pleas	distractor1	CONbeforeEVA	acq_new_pleas_masked	acq1_masked	1	8	0	0	300	300	0	0	828	50	0	1	0	0	0	1	blank2r.bmp	0	1	+	0	5	C1r.bmp	492	1	blank2r.bmp	786	3	B3r.bmp	786	1	blank2r.bmp	866	5	vertrauen	866	0	0	0	0	0	0	0	0	0	0	0	0	0	0	0	0	0	0	0	0	0	0	0	0	0	0	0	0	0	0	0	0	0
040319	11:41:55	11:45:45	228665	5.0.10.0	4_exp_AWA_CON_AMP_EVA	187	Rpleas_acq	Oppo	Rpleas	Amasked	CS_A	2pleas	distractor1	CONbeforeEVA	acq_new_pleas_masked	acq1_masked	1	9	0	0	300	300	0	0	589	50	0	1	0	0	0	1	blank2r.bmp	0	1	+	0	2	B2r.bmp	492	1	blank2r.bmp	786	7	C3r.bmp	786	1	blank2r.bmp	866	1	kuss	866	0	0	0	0	0	0	0	0	0	0	0	0	0	0	0	0	0	0	0	0	0	0	0	0	0	0	0	0	0	0	0	0	0
040319	11:41:55	11:45:50	233543	5.0.10.0	4_exp_AWA_CON_AMP_EVA	187	Rpleas_acq	Oppo	Rpleas	Amasked	CS_A	2pleas	distractor1	CONbeforeEVA	acq_US_pleas_masked	acq1_masked	1	10	0	0	300	300	0	0	3187	46	0	0	0	0	0	1	blank2r.bmp	0	1	+	0	8	C4r.bmp	492	1	blank2r.bmp	786	1	DHJF	786	1	blank2r.bmp	866	4	anregung	866	1	FEHLER	4091	0	0	0	0	0	0	0	0	0	0	0	0	0	0	0	0	0	0	0	0	0	0	0	0	0	0	0	0	0	0
040319	11:41:55	11:45:52	235635	5.0.10.0	4_exp_AWA_CON_AMP_EVA	187	Rpleas_acq	Oppo	Rpleas	Amasked	CS_A	2pleas	distractor1	CONbeforeEVA	acq_new_unple_masked	acq1_masked	1	11	0	0	300	300	0	0	834	46	0	1	0	0	0	1	blank2r.bmp	0	1	+	0	7	C3r.bmp	492	1	blank2r.bmp	786	6	C2r.bmp	786	1	blank2r.bmp	866	1	krise	866	0	0	0	0	0	0	0	0	0	0	0	0	0	0	0	0	0	0	0	0	0	0	0	0	0	0	0	0	0	0	0	0	0
040319	11:41:55	11:45:54	237754	5.0.10.0	4_exp_AWA_CON_AMP_EVA	187	Rpleas_acq	Oppo	Rpleas	Amasked	CS_A	2pleas	distractor1	CONbeforeEVA	acq_US_pleas_masked	acq1_masked	1	12	0	0	300	300	0	0	640	50	0	1	0	0	0	1	blank2r.bmp	0	1	+	0	5	C1r.bmp	492	1	blank2r.bmp	786	1	DHJF	786	1	blank2r.bmp	866	2	genießen	866	0	0	0	0	0	0	0	0	0	0	0	0	0	0	0	0	0	0	0	0	0	0	0	0	0	0	0	0	0	0	0	0	0
040319	11:41:55	11:45:57	239994	5.0.10.0	4_exp_AWA_CON_AMP_EVA	187	Rpleas_acq	Oppo	Rpleas	Amasked	CS_A	2pleas	distractor1	CONbeforeEVA	acq_new_unple_masked	acq1_masked	1	13	0	0	300	300	0	0	769	46	0	1	0	0	0	1	blank2r.bmp	0	1	+	0	4	B4r.bmp	492	1	blank2r.bmp	786	1	B1r.bmp	786	1	blank2r.bmp	866	3	geizig	866	0	0	0	0	0	0	0	0	0	0	0	0	0	0	0	0	0	0	0	0	0	0	0	0	0	0	0	0	0	0	0	0	0
040319	11:41:55	11:45:59	242299	5.0.10.0	4_exp_AWA_CON_AMP_EVA	187	Rpleas_acq	Oppo	Rpleas	Amasked	CS_A	2pleas	distractor1	CONbeforeEVA	acq_new_unple_masked	acq1_masked	1	14	0	0	300	300	0	0	821	46	0	1	0	0	0	1	blank2r.bmp	0	1	+	0	3	B3r.bmp	492	1	blank2r.bmp	786	2	B2r.bmp	786	1	blank2r.bmp	866	4	verbissen	866	0	0	0	0	0	0	0	0	0	0	0	0	0	0	0	0	0	0	0	0	0	0	0	0	0	0	0	0	0	0	0	0	0
040319	11:41:55	11:46:01	244392	5.0.10.0	4_exp_AWA_CON_AMP_EVA	187	Rpleas_acq	Oppo	Rpleas	Amasked	CS_A	2pleas	distractor1	CONbeforeEVA	acq_US_pleas_masked	acq1_masked	1	15	0	0	300	300	0	0	610	50	0	1	0	0	0	1	blank2r.bmp	0	1	+	0	6	C2r.bmp	492	1	blank2r.bmp	786	1	DHJF	786	1	blank2r.bmp	866	3	träumen	866	0	0	0	0	0	0	0	0	0	0	0	0	0	0	0	0	0	0	0	0	0	0	0	0	0	0	0	0	0	0	0	0	0
040319	11:41:55	11:46:03	246671	5.0.10.0	4_exp_AWA_CON_AMP_EVA	187	Rpleas_acq	Oppo	Rpleas	Amasked	CS_A	2pleas	distractor1	CONbeforeEVA	acq_US_pleas_masked	acq1_masked	1	16	0	0	300	300	0	0	786	50	0	1	0	0	0	1	blank2r.bmp	0	1	+	0	1	B1r.bmp	492	1	blank2r.bmp	786	1	DHJF	786	1	blank2r.bmp	866	1	engagiert	866	0	0	0	0	0	0	0	0	0	0	0	0	0	0	0	0	0	0	0	0	0	0	0	0	0	0	0	0	0	0	0	0	0
040319	11:41:55	11:46:06	249017	5.0.10.0	4_exp_AWA_CON_AMP_EVA	187	Rpleas_acq	Oppo	Rpleas	Amasked	CS_A	2pleas	distractor1	CONbeforeEVA	acq_new_pleas_masked	acq1_masked	1	17	0	0	300	300	0	0	870	50	0	1	0	0	0	1	blank2r.bmp	0	1	+	0	2	B2r.bmp	492	1	blank2r.bmp	786	7	C3r.bmp	786	1	blank2r.bmp	866	4	vergnügt	866	0	0	0	0	0	0	0	0	0	0	0	0	0	0	0	0	0	0	0	0	0	0	0	0	0	0	0	0	0	0	0	0	0
040319	11:41:55	11:46:08	251122	5.0.10.0	4_exp_AWA_CON_AMP_EVA	187	Rpleas_acq	Oppo	Rpleas	Amasked	CS_A	2pleas	distractor1	CONbeforeEVA	acq_new_unple_masked	acq1_masked	1	18	0	0	300	300	0	0	626	46	0	1	0	0	0	1	blank2r.bmp	0	1	+	0	7	C3r.bmp	492	1	blank2r.bmp	786	3	B3r.bmp	786	1	blank2r.bmp	866	2	gierig	866	0	0	0	0	0	0	0	0	0	0	0	0	0	0	0	0	0	0	0	0	0	0	0	0	0	0	0	0	0	0	0	0	0
040319	11:41:55	11:46:10	253161	5.0.10.0	4_exp_AWA_CON_AMP_EVA	187	Rpleas_acq	Oppo	Rpleas	Amasked	CS_A	2pleas	distractor1	CONbeforeEVA	acq_US_unple_masked	acq1_masked	1	19	0	0	300	300	0	0	561	46	0	1	0	0	0	1	blank2r.bmp	0	1	+	0	3	B3r.bmp	492	1	blank2r.bmp	786	1	CPLW	786	1	blank2r.bmp	866	3	töten	866	0	0	0	0	0	0	0	0	0	0	0	0	0	0	0	0	0	0	0	0	0	0	0	0	0	0	0	0	0	0	0	0	0
040319	11:41:55	11:46:12	255827	5.0.10.0	4_exp_AWA_CON_AMP_EVA	187	Rpleas_acq	Oppo	Rpleas	Amasked	CS_A	2pleas	distractor1	CONbeforeEVA	acq_new_pleas_masked	acq1_masked	1	20	0	0	300	300	0	0	1184	50	0	1	0	0	0	1	blank2r.bmp	0	1	+	0	4	B4r.bmp	492	1	blank2r.bmp	786	2	B2r.bmp	786	1	blank2r.bmp	866	3	gesittet	866	0	0	0	0	0	0	0	0	0	0	0	0	0	0	0	0	0	0	0	0	0	0	0	0	0	0	0	0	0	0	0	0	0
040319	11:41:55	11:46:15	257920	5.0.10.0	4_exp_AWA_CON_AMP_EVA	187	Rpleas_acq	Oppo	Rpleas	Amasked	CS_A	2pleas	distractor1	CONbeforeEVA	acq_new_pleas_masked	acq1_masked	1	21	0	0	300	300	0	0	603	50	0	1	0	0	0	1	blank2r.bmp	0	1	+	0	8	C4r.bmp	492	1	blank2r.bmp	786	1	B1r.bmp	786	1	blank2r.bmp	866	6	besonnen	866	0	0	0	0	0	0	0	0	0	0	0	0	0	0	0	0	0	0	0	0	0	0	0	0	0	0	0	0	0	0	0	0	0
040319	11:41:55	11:46:17	259932	5.0.10.0	4_exp_AWA_CON_AMP_EVA	187	Rpleas_acq	Oppo	Rpleas	Amasked	CS_A	2pleas	distractor1	CONbeforeEVA	acq_US_pleas_masked	acq1_masked	1	22	0	0	300	300	0	0	531	50	0	1	0	0	0	1	blank2r.bmp	0	1	+	0	1	B1r.bmp	492	1	blank2r.bmp	786	1	DHJF	786	1	blank2r.bmp	866	6	sonnig	866	0	0	0	0	0	0	0	0	0	0	0	0	0	0	0	0	0	0	0	0	0	0	0	0	0	0	0	0	0	0	0	0	0
040319	11:41:55	11:46:19	261931	5.0.10.0	4_exp_AWA_CON_AMP_EVA	187	Rpleas_acq	Oppo	Rpleas	Amasked	CS_A	2pleas	distractor1	CONbeforeEVA	acq_US_unple_masked	acq1_masked	1	23	0	0	300	300	0	0	510	46	0	1	0	0	0	1	blank2r.bmp	0	1	+	0	5	C1r.bmp	492	1	blank2r.bmp	786	1	CPLW	786	1	blank2r.bmp	866	5	krank	866	0	0	0	0	0	0	0	0	0	0	0	0	0	0	0	0	0	0	0	0	0	0	0	0	0	0	0	0	0	0	0	0	0
040319	11:41:55	11:46:21	264077	5.0.10.0	4_exp_AWA_CON_AMP_EVA	187	Rpleas_acq	Oppo	Rpleas	Amasked	CS_A	2pleas	distractor1	CONbeforeEVA	acq_US_unple_masked	acq1_masked	1	24	0	0	300	300	0	0	657	46	0	1	0	0	0	1	blank2r.bmp	0	1	+	0	6	C2r.bmp	492	1	blank2r.bmp	786	1	CPLW	786	1	blank2r.bmp	866	2	gemein	866	0	0	0	0	0	0	0	0	0	0	0	0	0	0	0	0	0	0	0	0	0	0	0	0	0	0	0	0	0	0	0	0	0
040319	11:41:55	11:46:23	266036	5.0.10.0	4_exp_AWA_CON_AMP_EVA	187	Rpleas_acq	Oppo	Rpleas	Amasked	CS_A	2pleas	distractor1	CONbeforeEVA	acq_new_unple_masked	acq1_masked	1	25	0	0	300	300	0	0	480	46	0	1	0	0	0	1	blank2r.bmp	0	1	+	0	2	B2r.bmp	492	1	blank2r.bmp	786	5	C1r.bmp	786	1	blank2r.bmp	866	5	versagen	866	0	0	0	0	0	0	0	0	0	0	0	0	0	0	0	0	0	0	0	0	0	0	0	0	0	0	0	0	0	0	0	0	0
040319	11:41:55	11:46:25	268009	5.0.10.0	4_exp_AWA_CON_AMP_EVA	187	Rpleas_acq	Oppo	Rpleas	Amasked	CS_A	2pleas	distractor1	CONbeforeEVA	acq_US_unple_masked	acq1_masked	1	26	0	0	300	300	0	0	494	46	0	1	0	0	0	1	blank2r.bmp	0	1	+	0	4	B4r.bmp	492	1	blank2r.bmp	786	1	CPLW	786	1	blank2r.bmp	866	5	krank	866	0	0	0	0	0	0	0	0	0	0	0	0	0	0	0	0	0	0	0	0	0	0	0	0	0	0	0	0	0	0	0	0	0
040319	11:41:55	11:46:27	270194	5.0.10.0	4_exp_AWA_CON_AMP_EVA	187	Rpleas_acq	Oppo	Rpleas	Amasked	CS_A	2pleas	distractor1	CONbeforeEVA	acq_new_pleas_masked	acq1_masked	1	27	0	0	300	300	0	0	710	50	0	1	0	0	0	1	blank2r.bmp	0	1	+	0	3	B3r.bmp	492	1	blank2r.bmp	786	4	B4r.bmp	786	1	blank2r.bmp	866	4	vergnügt	866	0	0	0	0	0	0	0	0	0	0	0	0	0	0	0	0	0	0	0	0	0	0	0	0	0	0	0	0	0	0	0	0	0
040319	11:41:55	11:46:29	272154	5.0.10.0	4_exp_AWA_CON_AMP_EVA	187	Rpleas_acq	Oppo	Rpleas	Amasked	CS_A	2pleas	distractor1	CONbeforeEVA	acq_US_unple_masked	acq1_masked	1	28	0	0	300	300	0	0	469	46	0	1	0	0	0	1	blank2r.bmp	0	1	+	0	7	C3r.bmp	492	1	blank2r.bmp	786	1	CPLW	786	1	blank2r.bmp	866	3	töten	866	0	0	0	0	0	0	0	0	0	0	0	0	0	0	0	0	0	0	0	0	0	0	0	0	0	0	0	0	0	0	0	0	0
040319	11:41:55	11:46:31	274113	5.0.10.0	4_exp_AWA_CON_AMP_EVA	187	Rpleas_acq	Oppo	Rpleas	Amasked	CS_A	2pleas	distractor1	CONbeforeEVA	acq_new_pleas_masked	acq1_masked	1	29	0	0	300	300	0	0	481	50	0	1	0	0	0	1	blank2r.bmp	0	1	+	0	1	B1r.bmp	492	1	blank2r.bmp	786	8	C4r.bmp	786	1	blank2r.bmp	866	6	besonnen	866	0	0	0	0	0	0	0	0	0	0	0	0	0	0	0	0	0	0	0	0	0	0	0	0	0	0	0	0	0	0	0	0	0
040319	11:41:55	11:46:33	276165	5.0.10.0	4_exp_AWA_CON_AMP_EVA	187	Rpleas_acq	Oppo	Rpleas	Amasked	CS_A	2pleas	distractor1	CONbeforeEVA	acq_US_pleas_masked	acq1_masked	1	30	0	0	300	300	0	0	571	50	0	1	0	0	0	1	blank2r.bmp	0	1	+	0	5	C1r.bmp	492	1	blank2r.bmp	786	1	DHJF	786	1	blank2r.bmp	866	2	genießen	866	0	0	0	0	0	0	0	0	0	0	0	0	0	0	0	0	0	0	0	0	0	0	0	0	0	0	0	0	0	0	0	0	0
040319	11:41:55	11:46:35	278125	5.0.10.0	4_exp_AWA_CON_AMP_EVA	187	Rpleas_acq	Oppo	Rpleas	Amasked	CS_A	2pleas	distractor1	CONbeforeEVA	acq_new_unple_masked	acq1_masked	1	31	0	0	300	300	0	0	470	46	0	1	0	0	0	1	blank2r.bmp	0	1	+	0	6	C2r.bmp	492	1	blank2r.bmp	786	6	C2r.bmp	786	1	blank2r.bmp	866	6	bange	866	0	0	0	0	0	0	0	0	0	0	0	0	0	0	0	0	0	0	0	0	0	0	0	0	0	0	0	0	0	0	0	0	0
040319	11:41:55	11:46:37	280084	5.0.10.0	4_exp_AWA_CON_AMP_EVA	187	Rpleas_acq	Oppo	Rpleas	Amasked	CS_A	2pleas	distractor1	CONbeforeEVA	acq_US_pleas_masked	acq1_masked	1	32	0	0	300	300	0	0	472	50	0	1	0	0	0	1	blank2r.bmp	0	1	+	0	8	C4r.bmp	492	1	blank2r.bmp	786	1	DHJF	786	1	blank2r.bmp	866	6	sonnig	866	0	0	0	0	0	0	0	0	0	0	0	0	0	0	0	0	0	0	0	0	0	0	0	0	0	0	0	0	0	0	0	0	0
040319	11:41:55	11:46:39	282123	5.0.10.0	4_exp_AWA_CON_AMP_EVA	187	Rpleas_acq	Oppo	Rpleas	Amasked	CS_A	2pleas	distractor1	CONbeforeEVA	acq_US_pleas_masked	acq1_masked	1	33	0	0	300	300	0	0	557	50	0	1	0	0	0	1	blank2r.bmp	0	1	+	0	6	C2r.bmp	492	1	blank2r.bmp	786	1	DHJF	786	1	blank2r.bmp	866	5	kreativ	866	0	0	0	0	0	0	0	0	0	0	0	0	0	0	0	0	0	0	0	0	0	0	0	0	0	0	0	0	0	0	0	0	0
040319	11:41:55	11:46:41	284109	5.0.10.0	4_exp_AWA_CON_AMP_EVA	187	Rpleas_acq	Oppo	Rpleas	Amasked	CS_A	2pleas	distractor1	CONbeforeEVA	acq_new_pleas_masked	acq1_masked	1	34	0	0	300	300	0	0	493	50	0	1	0	0	0	1	blank2r.bmp	0	1	+	0	4	B4r.bmp	492	1	blank2r.bmp	786	1	B1r.bmp	786	1	blank2r.bmp	866	2	gütig	866	0	0	0	0	0	0	0	0	0	0	0	0	0	0	0	0	0	0	0	0	0	0	0	0	0	0	0	0	0	0	0	0	0
040319	11:41:55	11:46:43	286161	5.0.10.0	4_exp_AWA_CON_AMP_EVA	187	Rpleas_acq	Oppo	Rpleas	Amasked	CS_A	2pleas	distractor1	CONbeforeEVA	acq_new_unple_masked	acq1_masked	1	35	0	0	300	300	0	0	580	46	0	1	0	0	0	1	blank2r.bmp	0	1	+	0	3	B3r.bmp	492	1	blank2r.bmp	786	7	C3r.bmp	786	1	blank2r.bmp	866	1	krise	866	0	0	0	0	0	0	0	0	0	0	0	0	0	0	0	0	0	0	0	0	0	0	0	0	0	0	0	0	0	0	0	0	0
040319	11:41:55	11:46:45	288254	5.0.10.0	4_exp_AWA_CON_AMP_EVA	187	Rpleas_acq	Oppo	Rpleas	Amasked	CS_A	2pleas	distractor1	CONbeforeEVA	acq_US_unple_masked	acq1_masked	1	36	0	0	300	300	0	0	619	46	0	1	0	0	0	1	blank2r.bmp	0	1	+	0	1	B1r.bmp	492	1	blank2r.bmp	786	1	CPLW	786	1	blank2r.bmp	866	6	sterben	866	0	0	0	0	0	0	0	0	0	0	0	0	0	0	0	0	0	0	0	0	0	0	0	0	0	0	0	0	0	0	0	0	0
040319	11:41:55	11:47:41	344710	5.0.10.0	4_exp_AWA_CON_AMP_EVA	187	Rpleas_acq	Oppo	Rpleas	Amasked	CS_A	2pleas	distractor1	CONbeforeEVA	acq_new_unple_masked	acq2_masked	2	1	480	0	300	300	0	0	1473	46	0	1	0	0	0	1	blank2r.bmp	0	1	+	0	7	C3r.bmp	492	1	blank2r.bmp	786	3	B3r.bmp	786	1	blank2r.bmp	866	3	geizig	866	1	!	1319	1	!	-1	0	0	0	0	0	0	0	0	0	0	0	0	0	0	0	0	0	0	0	0	0	0	0	0	0	0	0
040319	11:41:55	11:47:44	347096	5.0.10.0	4_exp_AWA_CON_AMP_EVA	187	Rpleas_acq	Oppo	Rpleas	Amasked	CS_A	2pleas	distractor1	CONbeforeEVA	acq_US_unple_masked	acq2_masked	2	2	480	0	300	300	0	0	605	46	0	1	0	0	0	1	blank2r.bmp	0	1	+	0	2	B2r.bmp	492	1	blank2r.bmp	786	1	CPLW	786	1	blank2r.bmp	866	1	engstirnig	866	1	!	1319	1	!	-1	0	0	0	0	0	0	0	0	0	0	0	0	0	0	0	0	0	0	0	0	0	0	0	0	0	0	0
040319	11:41:55	11:47:46	349508	5.0.10.0	4_exp_AWA_CON_AMP_EVA	187	Rpleas_acq	Oppo	Rpleas	Amasked	CS_A	2pleas	distractor1	CONbeforeEVA	acq_new_unple_masked	acq2_masked	2	3	480	0	300	300	0	0	411	50	0	0	0	0	0	1	blank2r.bmp	0	1	+	0	5	C1r.bmp	492	1	blank2r.bmp	786	4	B4r.bmp	786	1	blank2r.bmp	866	2	gierig	866	1	FEHLER	1612	1	!	-1	1	!	-1	0	0	0	0	0	0	0	0	0	0	0	0	0	0	0	0	0	0	0	0	0	0	0	0
040319	11:41:55	11:47:48	351614	5.0.10.0	4_exp_AWA_CON_AMP_EVA	187	Rpleas_acq	Oppo	Rpleas	Amasked	CS_A	2pleas	distractor1	CONbeforeEVA	acq_new_pleas_masked	acq2_masked	2	4	480	1	300	300	0	0	526	50	0	1	0	0	0	1	blank2r.bmp	0	1	+	0	8	C4r.bmp	492	1	blank2r.bmp	786	5	C1r.bmp	786	1	blank2r.bmp	866	1	kuss	866	1	!	1319	1	!	1426	0	0	0	0	0	0	0	0	0	0	0	0	0	0	0	0	0	0	0	0	0	0	0	0	0	0	0
040319	11:41:55	11:47:51	354306	5.0.10.0	4_exp_AWA_CON_AMP_EVA	187	Rpleas_acq	Oppo	Rpleas	Amasked	CS_A	2pleas	distractor1	CONbeforeEVA	acq_new_pleas_masked	acq2_masked	2	5	480	0	300	300	0	0	696	46	0	0	0	0	0	1	blank2r.bmp	0	1	+	0	4	B4r.bmp	492	1	blank2r.bmp	786	2	B2r.bmp	786	1	blank2r.bmp	866	3	gesittet	866	1	FEHLER	1905	1	!	1319	1	!	-1	0	0	0	0	0	0	0	0	0	0	0	0	0	0	0	0	0	0	0	0	0	0	0	0
040319	11:41:55	11:47:53	356439	5.0.10.0	4_exp_AWA_CON_AMP_EVA	187	Rpleas_acq	Oppo	Rpleas	Amasked	CS_A	2pleas	distractor1	CONbeforeEVA	acq_new_unple_masked	acq2_masked	2	6	480	1	300	300	0	0	535	46	0	1	0	0	0	1	blank2r.bmp	0	1	+	0	5	C1r.bmp	492	1	blank2r.bmp	786	6	C2r.bmp	786	1	blank2r.bmp	866	4	verbissen	866	1	!	1319	1	!	1439	0	0	0	0	0	0	0	0	0	0	0	0	0	0	0	0	0	0	0	0	0	0	0	0	0	0	0
040319	11:41:55	11:47:55	358758	5.0.10.0	4_exp_AWA_CON_AMP_EVA	187	Rpleas_acq	Oppo	Rpleas	Amasked	CS_A	2pleas	distractor1	CONbeforeEVA	acq_US_pleas_masked	acq2_masked	2	7	480	1	300	300	0	0	522	50	0	1	0	0	0	1	blank2r.bmp	0	1	+	0	6	C2r.bmp	492	1	blank2r.bmp	786	1	DHJF	786	1	blank2r.bmp	866	1	engagiert	866	1	!	1319	1	!	1426	0	0	0	0	0	0	0	0	0	0	0	0	0	0	0	0	0	0	0	0	0	0	0	0	0	0	0
040319	11:41:55	11:47:58	361264	5.0.10.0	4_exp_AWA_CON_AMP_EVA	187	Rpleas_acq	Oppo	Rpleas	Amasked	CS_A	2pleas	distractor1	CONbeforeEVA	acq_US_unple_masked	acq2_masked	2	8	480	1	300	300	0	0	486	50	0	0	0	0	0	1	blank2r.bmp	0	1	+	0	2	B2r.bmp	492	1	blank2r.bmp	786	1	CPLW	786	1	blank2r.bmp	866	2	gemein	866	1	FEHLER	1705	1	!	1319	1	!	1386	0	0	0	0	0	0	0	0	0	0	0	0	0	0	0	0	0	0	0	0	0	0	0	0
040319	11:41:55	11:48:00	363223	5.0.10.0	4_exp_AWA_CON_AMP_EVA	187	Rpleas_acq	Oppo	Rpleas	Amasked	CS_A	2pleas	distractor1	CONbeforeEVA	acq_US_pleas_masked	acq2_masked	2	9	480	0	300	300	0	0	406	50	0	1	0	0	0	1	blank2r.bmp	0	1	+	0	7	C3r.bmp	492	1	blank2r.bmp	786	1	DHJF	786	1	blank2r.bmp	866	3	träumen	866	1	!	-1	1	!	-1	0	0	0	0	0	0	0	0	0	0	0	0	0	0	0	0	0	0	0	0	0	0	0	0	0	0	0
040319	11:41:55	11:48:02	365648	5.0.10.0	4_exp_AWA_CON_AMP_EVA	187	Rpleas_acq	Oppo	Rpleas	Amasked	CS_A	2pleas	distractor1	CONbeforeEVA	acq_US_unple_masked	acq2_masked	2	10	480	0	300	300	0	0	635	46	0	1	0	0	0	1	blank2r.bmp	0	1	+	0	3	B3r.bmp	492	1	blank2r.bmp	786	1	CPLW	786	1	blank2r.bmp	866	4	ausrottung	866	1	!	1319	1	!	-1	0	0	0	0	0	0	0	0	0	0	0	0	0	0	0	0	0	0	0	0	0	0	0	0	0	0	0
040319	11:41:55	11:48:05	368167	5.0.10.0	4_exp_AWA_CON_AMP_EVA	187	Rpleas_acq	Oppo	Rpleas	Amasked	CS_A	2pleas	distractor1	CONbeforeEVA	acq_US_pleas_masked	acq2_masked	2	11	480	1	300	300	0	0	510	46	0	0	0	0	0	1	blank2r.bmp	0	1	+	0	8	C4r.bmp	492	1	blank2r.bmp	786	1	DHJF	786	1	blank2r.bmp	866	4	anregung	866	1	FEHLER	1732	1	!	1319	1	!	1412	0	0	0	0	0	0	0	0	0	0	0	0	0	0	0	0	0	0	0	0	0	0	0	0
040319	11:41:55	11:48:07	370247	5.0.10.0	4_exp_AWA_CON_AMP_EVA	187	Rpleas_acq	Oppo	Rpleas	Amasked	CS_A	2pleas	distractor1	CONbeforeEVA	acq_new_pleas_masked	acq2_masked	2	12	480	1	300	300	0	0	480	50	0	1	0	0	0	1	blank2r.bmp	0	1	+	0	1	B1r.bmp	492	1	blank2r.bmp	786	8	C4r.bmp	786	1	blank2r.bmp	866	5	vertrauen	866	1	!	1319	1	!	1386	0	0	0	0	0	0	0	0	0	0	0	0	0	0	0	0	0	0	0	0	0	0	0	0	0	0	0
040319	11:41:55	11:48:09	372672	5.0.10.0	4_exp_AWA_CON_AMP_EVA	187	Rpleas_acq	Oppo	Rpleas	Amasked	CS_A	2pleas	distractor1	CONbeforeEVA	acq_US_unple_masked	acq2_masked	2	13	480	0	300	300	0	0	656	46	0	1	0	0	0	1	blank2r.bmp	0	1	+	0	8	C4r.bmp	492	1	blank2r.bmp	786	1	CPLW	786	1	blank2r.bmp	866	1	engstirnig	866	1	!	1319	1	!	-1	0	0	0	0	0	0	0	0	0	0	0	0	0	0	0	0	0	0	0	0	0	0	0	0	0	0	0
040319	11:41:55	11:48:12	374911	5.0.10.0	4_exp_AWA_CON_AMP_EVA	187	Rpleas_acq	Oppo	Rpleas	Amasked	CS_A	2pleas	distractor1	CONbeforeEVA	acq_US_pleas_masked	acq2_masked	2	14	480	1	300	300	0	0	426	50	0	1	0	0	0	1	blank2r.bmp	0	1	+	0	5	C1r.bmp	492	1	blank2r.bmp	786	1	DHJF	786	1	blank2r.bmp	866	5	kreativ	866	1	!	1319	1	!	1332	0	0	0	0	0	0	0	0	0	0	0	0	0	0	0	0	0	0	0	0	0	0	0	0	0	0	0
040319	11:41:55	11:48:14	377337	5.0.10.0	4_exp_AWA_CON_AMP_EVA	187	Rpleas_acq	Oppo	Rpleas	Amasked	CS_A	2pleas	distractor1	CONbeforeEVA	acq_new_unple_masked	acq2_masked	2	15	480	0	300	300	0	0	663	46	0	1	0	0	0	1	blank2r.bmp	0	1	+	0	6	C2r.bmp	492	1	blank2r.bmp	786	3	B3r.bmp	786	1	blank2r.bmp	866	6	bange	866	1	!	1319	1	!	-1	0	0	0	0	0	0	0	0	0	0	0	0	0	0	0	0	0	0	0	0	0	0	0	0	0	0	0
040319	11:41:55	11:48:16	379683	5.0.10.0	4_exp_AWA_CON_AMP_EVA	187	Rpleas_acq	Oppo	Rpleas	Amasked	CS_A	2pleas	distractor1	CONbeforeEVA	acq_new_pleas_masked	acq2_masked	2	16	480	0	300	300	0	0	570	50	0	1	0	0	0	1	blank2r.bmp	0	1	+	0	7	C3r.bmp	492	1	blank2r.bmp	786	4	B4r.bmp	786	1	blank2r.bmp	866	6	besonnen	866	1	!	1319	1	!	-1	0	0	0	0	0	0	0	0	0	0	0	0	0	0	0	0	0	0	0	0	0	0	0	0	0	0	0
040319	11:41:55	11:48:19	382028	5.0.10.0	4_exp_AWA_CON_AMP_EVA	187	Rpleas_acq	Oppo	Rpleas	Amasked	CS_A	2pleas	distractor1	CONbeforeEVA	acq_new_pleas_masked	acq2_masked	2	17	480	0	300	300	0	0	333	46	0	0	0	0	0	1	blank2r.bmp	0	1	+	0	3	B3r.bmp	492	1	blank2r.bmp	786	6	C2r.bmp	786	1	blank2r.bmp	866	5	vertrauen	866	1	FEHLER	1546	1	!	-1	1	!	-1	0	0	0	0	0	0	0	0	0	0	0	0	0	0	0	0	0	0	0	0	0	0	0	0
040319	11:41:55	11:48:21	384267	5.0.10.0	4_exp_AWA_CON_AMP_EVA	187	Rpleas_acq	Oppo	Rpleas	Amasked	CS_A	2pleas	distractor1	CONbeforeEVA	acq_US_pleas_masked	acq2_masked	2	18	480	1	300	300	0	0	427	46	0	0	0	0	0	1	blank2r.bmp	0	1	+	0	4	B4r.bmp	492	1	blank2r.bmp	786	1	DHJF	786	1	blank2r.bmp	866	4	anregung	866	1	FEHLER	1652	1	!	1319	1	!	1332	0	0	0	0	0	0	0	0	0	0	0	0	0	0	0	0	0	0	0	0	0	0	0	0
040319	11:41:55	11:48:23	386400	5.0.10.0	4_exp_AWA_CON_AMP_EVA	187	Rpleas_acq	Oppo	Rpleas	Amasked	CS_A	2pleas	distractor1	CONbeforeEVA	acq_US_unple_masked	acq2_masked	2	19	480	0	300	300	0	0	348	50	0	0	0	0	0	1	blank2r.bmp	0	1	+	0	1	B1r.bmp	492	1	blank2r.bmp	786	1	CPLW	786	1	blank2r.bmp	866	5	krank	866	1	FEHLER	1559	1	!	-1	1	!	-1	0	0	0	0	0	0	0	0	0	0	0	0	0	0	0	0	0	0	0	0	0	0	0	0
040319	11:41:55	11:48:25	388372	5.0.10.0	4_exp_AWA_CON_AMP_EVA	187	Rpleas_acq	Oppo	Rpleas	Amasked	CS_A	2pleas	distractor1	CONbeforeEVA	acq_US_pleas_masked	acq2_masked	2	20	480	0	300	300	0	0	413	50	0	1	0	0	0	1	blank2r.bmp	0	1	+	0	2	B2r.bmp	492	1	blank2r.bmp	786	1	DHJF	786	1	blank2r.bmp	866	3	träumen	866	1	!	-1	1	!	-1	0	0	0	0	0	0	0	0	0	0	0	0	0	0	0	0	0	0	0	0	0	0	0	0	0	0	0
040319	11:41:55	11:48:27	390745	5.0.10.0	4_exp_AWA_CON_AMP_EVA	187	Rpleas_acq	Oppo	Rpleas	Amasked	CS_A	2pleas	distractor1	CONbeforeEVA	acq_new_pleas_masked	acq2_masked	2	21	480	0	300	300	0	0	586	50	0	1	0	0	0	1	blank2r.bmp	0	1	+	0	7	C3r.bmp	492	1	blank2r.bmp	786	8	C4r.bmp	786	1	blank2r.bmp	866	4	vergnügt	866	1	!	1319	1	!	-1	0	0	0	0	0	0	0	0	0	0	0	0	0	0	0	0	0	0	0	0	0	0	0	0	0	0	0
040319	11:41:55	11:48:30	392931	5.0.10.0	4_exp_AWA_CON_AMP_EVA	187	Rpleas_acq	Oppo	Rpleas	Amasked	CS_A	2pleas	distractor1	CONbeforeEVA	acq_new_unple_masked	acq2_masked	2	22	480	0	300	300	0	0	406	46	0	1	0	0	0	1	blank2r.bmp	0	1	+	0	2	B2r.bmp	492	1	blank2r.bmp	786	7	C3r.bmp	786	1	blank2r.bmp	866	3	geizig	866	1	!	-1	1	!	-1	0	0	0	0	0	0	0	0	0	0	0	0	0	0	0	0	0	0	0	0	0	0	0	0	0	0	0
040319	11:41:55	11:48:32	395396	5.0.10.0	4_exp_AWA_CON_AMP_EVA	187	Rpleas_acq	Oppo	Rpleas	Amasked	CS_A	2pleas	distractor1	CONbeforeEVA	acq_US_unple_masked	acq2_masked	2	23	480	1	300	300	0	0	443	50	0	0	0	0	0	1	blank2r.bmp	0	1	+	0	4	B4r.bmp	492	1	blank2r.bmp	786	1	CPLW	786	1	blank2r.bmp	866	6	sterben	866	1	FEHLER	1665	1	!	1319	1	!	1346	0	0	0	0	0	0	0	0	0	0	0	0	0	0	0	0	0	0	0	0	0	0	0	0
040319	11:41:55	11:48:34	397449	5.0.10.0	4_exp_AWA_CON_AMP_EVA	187	Rpleas_acq	Oppo	Rpleas	Amasked	CS_A	2pleas	distractor1	CONbeforeEVA	acq_new_unple_masked	acq2_masked	2	24	480	1	300	300	0	0	466	46	0	1	0	0	0	1	blank2r.bmp	0	1	+	0	5	C1r.bmp	492	1	blank2r.bmp	786	2	B2r.bmp	786	1	blank2r.bmp	866	1	krise	866	1	!	1319	1	!	1372	0	0	0	0	0	0	0	0	0	0	0	0	0	0	0	0	0	0	0	0	0	0	0	0	0	0	0
040319	11:41:55	11:48:36	399781	5.0.10.0	4_exp_AWA_CON_AMP_EVA	187	Rpleas_acq	Oppo	Rpleas	Amasked	CS_A	2pleas	distractor1	CONbeforeEVA	acq_US_unple_masked	acq2_masked	2	25	480	0	300	300	0	0	333	50	0	0	0	0	0	1	blank2r.bmp	0	1	+	0	3	B3r.bmp	492	1	blank2r.bmp	786	1	CPLW	786	1	blank2r.bmp	866	2	gemein	866	1	FEHLER	1546	1	!	-1	1	!	-1	0	0	0	0	0	0	0	0	0	0	0	0	0	0	0	0	0	0	0	0	0	0	0	0
040319	11:41:55	11:48:38	401820	5.0.10.0	4_exp_AWA_CON_AMP_EVA	187	Rpleas_acq	Oppo	Rpleas	Amasked	CS_A	2pleas	distractor1	CONbeforeEVA	acq_new_unple_masked	acq2_masked	2	26	480	1	300	300	0	0	464	46	0	1	0	0	0	1	blank2r.bmp	0	1	+	0	1	B1r.bmp	492	1	blank2r.bmp	786	5	C1r.bmp	786	1	blank2r.bmp	866	2	gierig	866	1	!	1319	1	!	1359	0	0	0	0	0	0	0	0	0	0	0	0	0	0	0	0	0	0	0	0	0	0	0	0	0	0	0
040319	11:41:55	11:48:41	404286	5.0.10.0	4_exp_AWA_CON_AMP_EVA	187	Rpleas_acq	Oppo	Rpleas	Amasked	CS_A	2pleas	distractor1	CONbeforeEVA	acq_US_pleas_masked	acq2_masked	2	27	480	1	300	300	0	0	457	46	0	0	0	0	0	1	blank2r.bmp	0	1	+	0	6	C2r.bmp	492	1	blank2r.bmp	786	1	DHJF	786	1	blank2r.bmp	866	1	engagiert	866	1	FEHLER	1679	1	!	1319	1	!	1359	0	0	0	0	0	0	0	0	0	0	0	0	0	0	0	0	0	0	0	0	0	0	0	0
040319	11:41:55	11:48:43	406352	5.0.10.0	4_exp_AWA_CON_AMP_EVA	187	Rpleas_acq	Oppo	Rpleas	Amasked	CS_A	2pleas	distractor1	CONbeforeEVA	acq_US_unple_masked	acq2_masked	2	28	480	1	300	300	0	0	482	46	0	1	0	0	0	1	blank2r.bmp	0	1	+	0	8	C4r.bmp	492	1	blank2r.bmp	786	1	CPLW	786	1	blank2r.bmp	866	3	töten	866	1	!	1319	1	!	1386	0	0	0	0	0	0	0	0	0	0	0	0	0	0	0	0	0	0	0	0	0	0	0	0	0	0	0
040319	11:41:55	11:48:45	408631	5.0.10.0	4_exp_AWA_CON_AMP_EVA	187	Rpleas_acq	Oppo	Rpleas	Amasked	CS_A	2pleas	distractor1	CONbeforeEVA	acq_new_unple_masked	acq2_masked	2	29	480	1	300	300	0	0	487	46	0	1	0	0	0	1	blank2r.bmp	0	1	+	0	4	B4r.bmp	492	1	blank2r.bmp	786	1	B1r.bmp	786	1	blank2r.bmp	866	5	versagen	866	1	!	1319	1	!	1386	0	0	0	0	0	0	0	0	0	0	0	0	0	0	0	0	0	0	0	0	0	0	0	0	0	0	0
040319	11:41:55	11:48:48	410976	5.0.10.0	4_exp_AWA_CON_AMP_EVA	187	Rpleas_acq	Oppo	Rpleas	Amasked	CS_A	2pleas	distractor1	CONbeforeEVA	acq_new_unple_masked	acq2_masked	2	30	480	1	300	300	0	0	535	46	0	1	0	0	0	1	blank2r.bmp	0	1	+	0	8	C4r.bmp	492	1	blank2r.bmp	786	6	C2r.bmp	786	1	blank2r.bmp	866	4	verbissen	866	1	!	1319	1	!	1439	0	0	0	0	0	0	0	0	0	0	0	0	0	0	0	0	0	0	0	0	0	0	0	0	0	0	0
040319	11:41:55	11:48:50	413122	5.0.10.0	4_exp_AWA_CON_AMP_EVA	187	Rpleas_acq	Oppo	Rpleas	Amasked	CS_A	2pleas	distractor1	CONbeforeEVA	acq_new_pleas_masked	acq2_masked	2	31	480	0	300	300	0	0	375	50	0	1	0	0	0	1	blank2r.bmp	0	1	+	0	6	C2r.bmp	492	1	blank2r.bmp	786	2	B2r.bmp	786	1	blank2r.bmp	866	2	gütig	866	1	!	-1	1	!	-1	0	0	0	0	0	0	0	0	0	0	0	0	0	0	0	0	0	0	0	0	0	0	0	0	0	0	0
040319	11:41:55	11:48:52	415388	5.0.10.0	4_exp_AWA_CON_AMP_EVA	187	Rpleas_acq	Oppo	Rpleas	Amasked	CS_A	2pleas	distractor1	CONbeforeEVA	acq_US_pleas_masked	acq2_masked	2	32	480	1	300	300	0	0	463	50	0	1	0	0	0	1	blank2r.bmp	0	1	+	0	2	B2r.bmp	492	1	blank2r.bmp	786	1	DHJF	786	1	blank2r.bmp	866	2	genießen	866	1	!	1319	1	!	1359	0	0	0	0	0	0	0	0	0	0	0	0	0	0	0	0	0	0	0	0	0	0	0	0	0	0	0
040319	11:41:55	11:48:54	417734	5.0.10.0	4_exp_AWA_CON_AMP_EVA	187	Rpleas_acq	Oppo	Rpleas	Amasked	CS_A	2pleas	distractor1	CONbeforeEVA	acq_new_pleas_masked	acq2_masked	2	33	480	0	300	300	0	0	570	50	0	1	0	0	0	1	blank2r.bmp	0	1	+	0	3	B3r.bmp	492	1	blank2r.bmp	786	1	B1r.bmp	786	1	blank2r.bmp	866	3	gesittet	866	1	!	1319	1	!	-1	0	0	0	0	0	0	0	0	0	0	0	0	0	0	0	0	0	0	0	0	0	0	0	0	0	0	0
040319	11:41:55	11:48:57	419893	5.0.10.0	4_exp_AWA_CON_AMP_EVA	187	Rpleas_acq	Oppo	Rpleas	Amasked	CS_A	2pleas	distractor1	CONbeforeEVA	acq_new_pleas_masked	acq2_masked	2	34	480	0	300	300	0	0	382	50	0	1	0	0	0	1	blank2r.bmp	0	1	+	0	1	B1r.bmp	492	1	blank2r.bmp	786	8	C4r.bmp	786	1	blank2r.bmp	866	1	kuss	866	1	!	-1	1	!	-1	0	0	0	0	0	0	0	0	0	0	0	0	0	0	0	0	0	0	0	0	0	0	0	0	0	0	0
040319	11:41:55	11:48:59	422025	5.0.10.0	4_exp_AWA_CON_AMP_EVA	187	Rpleas_acq	Oppo	Rpleas	Amasked	CS_A	2pleas	distractor1	CONbeforeEVA	acq_US_unple_masked	acq2_masked	2	35	480	0	300	300	0	0	354	46	0	1	0	0	0	1	blank2r.bmp	0	1	+	0	5	C1r.bmp	492	1	blank2r.bmp	786	1	CPLW	786	1	blank2r.bmp	866	4	ausrottung	866	1	!	-1	1	!	-1	0	0	0	0	0	0	0	0	0	0	0	0	0	0	0	0	0	0	0	0	0	0	0	0	0	0	0
040319	11:41:55	11:49:01	424264	5.0.10.0	4_exp_AWA_CON_AMP_EVA	187	Rpleas_acq	Oppo	Rpleas	Amasked	CS_A	2pleas	distractor1	CONbeforeEVA	acq_US_pleas_masked	acq2_masked	2	36	480	1	300	300	0	0	436	50	0	1	0	0	0	1	blank2r.bmp	0	1	+	0	7	C3r.bmp	492	1	blank2r.bmp	786	1	DHJF	786	1	blank2r.bmp	866	6	sonnig	866	1	!	1319	1	!	1332	0	0	0	0	0	0	0	0	0	0	0	0	0	0	0	0	0	0	0	0	0	0	0	0	0	0	0
040319	11:41:55	11:49:27	450693	5.0.10.0	4_exp_AWA_CON_AMP_EVA	187	Rpleas_acq	Oppo	Rpleas	Amasked	CS_A	2pleas	distractor1	CONbeforeEVA	acq_US_unple_masked	acq3_masked	3	1	453	1	300	300	0	0	411	50	0	0	0	0	0	1	blank2r.bmp	0	1	+	0	8	C4r.bmp	492	1	blank2r.bmp	786	1	CPLW	786	1	blank2r.bmp	866	6	sterben	866	1	FEHLER	1625	1	!	1292	1	!	1306	0	0	0	0	0	0	0	0	0	0	0	0	0	0	0	0	0	0	0	0	0	0	0	0
040319	11:41:55	11:49:29	452679	5.0.10.0	4_exp_AWA_CON_AMP_EVA	187	Rpleas_acq	Oppo	Rpleas	Amasked	CS_A	2pleas	distractor1	CONbeforeEVA	acq_US_pleas_masked	acq3_masked	3	2	453	1	300	300	0	0	401	50	0	1	0	0	0	1	blank2r.bmp	0	1	+	0	5	C1r.bmp	492	1	blank2r.bmp	786	1	DHJF	786	1	blank2r.bmp	866	3	träumen	866	1	!	1292	1	!	1306	0	0	0	0	0	0	0	0	0	0	0	0	0	0	0	0	0	0	0	0	0	0	0	0	0	0	0
040319	11:41:55	11:49:32	454985	5.0.10.0	4_exp_AWA_CON_AMP_EVA	187	Rpleas_acq	Oppo	Rpleas	Amasked	CS_A	2pleas	distractor1	CONbeforeEVA	acq_US_unple_masked	acq3_masked	3	3	453	1	300	300	0	0	506	46	0	1	0	0	0	1	blank2r.bmp	0	1	+	0	2	B2r.bmp	492	1	blank2r.bmp	786	1	CPLW	786	1	blank2r.bmp	866	4	ausrottung	866	1	!	1292	1	!	1412	0	0	0	0	0	0	0	0	0	0	0	0	0	0	0	0	0	0	0	0	0	0	0	0	0	0	0
040319	11:41:55	11:49:34	457131	5.0.10.0	4_exp_AWA_CON_AMP_EVA	187	Rpleas_acq	Oppo	Rpleas	Amasked	CS_A	2pleas	distractor1	CONbeforeEVA	acq_US_pleas_masked	acq3_masked	3	4	453	0	300	300	0	0	379	50	0	1	0	0	0	1	blank2r.bmp	0	1	+	0	3	B3r.bmp	492	1	blank2r.bmp	786	1	DHJF	786	1	blank2r.bmp	866	6	sonnig	866	1	!	-1	1	!	-1	0	0	0	0	0	0	0	0	0	0	0	0	0	0	0	0	0	0	0	0	0	0	0	0	0	0	0
040319	11:41:55	11:49:36	459397	5.0.10.0	4_exp_AWA_CON_AMP_EVA	187	Rpleas_acq	Oppo	Rpleas	Amasked	CS_A	2pleas	distractor1	CONbeforeEVA	acq_US_pleas_masked	acq3_masked	3	5	453	1	300	300	0	0	461	50	0	1	0	0	0	1	blank2r.bmp	0	1	+	0	6	C2r.bmp	492	1	blank2r.bmp	786	1	DHJF	786	1	blank2r.bmp	866	2	genießen	866	1	!	1292	1	!	1359	0	0	0	0	0	0	0	0	0	0	0	0	0	0	0	0	0	0	0	0	0	0	0	0	0	0	0
040319	11:41:55	11:49:38	461676	5.0.10.0	4_exp_AWA_CON_AMP_EVA	187	Rpleas_acq	Oppo	Rpleas	Amasked	CS_A	2pleas	distractor1	CONbeforeEVA	acq_US_unple_masked	acq3_masked	3	6	453	1	300	300	0	0	490	46	0	1	0	0	0	1	blank2r.bmp	0	1	+	0	4	B4r.bmp	492	1	blank2r.bmp	786	1	CPLW	786	1	blank2r.bmp	866	2	gemein	866	1	!	1292	1	!	1386	0	0	0	0	0	0	0	0	0	0	0	0	0	0	0	0	0	0	0	0	0	0	0	0	0	0	0
040319	11:41:55	11:49:41	463915	5.0.10.0	4_exp_AWA_CON_AMP_EVA	187	Rpleas_acq	Oppo	Rpleas	Amasked	CS_A	2pleas	distractor1	CONbeforeEVA	acq_US_unple_masked	acq3_masked	3	7	453	1	300	300	0	0	442	46	0	1	0	0	0	1	blank2r.bmp	0	1	+	0	7	C3r.bmp	492	1	blank2r.bmp	786	1	CPLW	786	1	blank2r.bmp	866	1	engstirnig	866	1	!	1292	1	!	1346	0	0	0	0	0	0	0	0	0	0	0	0	0	0	0	0	0	0	0	0	0	0	0	0	0	0	0
040319	11:41:55	11:49:43	466327	5.0.10.0	4_exp_AWA_CON_AMP_EVA	187	Rpleas_acq	Oppo	Rpleas	Amasked	CS_A	2pleas	distractor1	CONbeforeEVA	acq_US_unple_masked	acq3_masked	3	8	453	1	300	300	0	0	399	50	0	0	0	0	0	1	blank2r.bmp	0	1	+	0	1	B1r.bmp	492	1	blank2r.bmp	786	1	CPLW	786	1	blank2r.bmp	866	5	krank	866	1	FEHLER	1625	1	!	1292	1	!	1306	0	0	0	0	0	0	0	0	0	0	0	0	0	0	0	0	0	0	0	0	0	0	0	0
040319	11:41:55	11:49:45	468233	5.0.10.0	4_exp_AWA_CON_AMP_EVA	187	Rpleas_acq	Oppo	Rpleas	Amasked	CS_A	2pleas	distractor1	CONbeforeEVA	acq_US_pleas_masked	acq3_masked	3	9	453	0	300	300	0	0	355	50	0	1	0	0	0	1	blank2r.bmp	0	1	+	0	3	B3r.bmp	492	1	blank2r.bmp	786	1	DHJF	786	1	blank2r.bmp	866	5	kreativ	866	1	!	-1	1	!	-1	0	0	0	0	0	0	0	0	0	0	0	0	0	0	0	0	0	0	0	0	0	0	0	0	0	0	0
040319	11:41:55	11:49:47	470712	5.0.10.0	4_exp_AWA_CON_AMP_EVA	187	Rpleas_acq	Oppo	Rpleas	Amasked	CS_A	2pleas	distractor1	CONbeforeEVA	acq_US_pleas_masked	acq3_masked	3	10	453	1	300	300	0	0	456	46	0	0	0	0	0	1	blank2r.bmp	0	1	+	0	5	C1r.bmp	492	1	blank2r.bmp	786	1	DHJF	786	1	blank2r.bmp	866	4	anregung	866	1	FEHLER	1679	1	!	1292	1	!	1359	0	0	0	0	0	0	0	0	0	0	0	0	0	0	0	0	0	0	0	0	0	0	0	0
040319	11:41:55	11:49:49	472618	5.0.10.0	4_exp_AWA_CON_AMP_EVA	187	Rpleas_acq	Oppo	Rpleas	Amasked	CS_A	2pleas	distractor1	CONbeforeEVA	acq_US_unple_masked	acq3_masked	3	11	453	0	300	300	0	0	346	46	0	1	0	0	0	1	blank2r.bmp	0	1	+	0	6	C2r.bmp	492	1	blank2r.bmp	786	1	CPLW	786	1	blank2r.bmp	866	3	töten	866	1	!	-1	1	!	-1	0	0	0	0	0	0	0	0	0	0	0	0	0	0	0	0	0	0	0	0	0	0	0	0	0	0	0
040319	11:41:55	11:49:52	474910	5.0.10.0	4_exp_AWA_CON_AMP_EVA	187	Rpleas_acq	Oppo	Rpleas	Amasked	CS_A	2pleas	distractor1	CONbeforeEVA	acq_US_pleas_masked	acq3_masked	3	12	453	1	300	300	0	0	487	50	0	1	0	0	0	1	blank2r.bmp	0	1	+	0	1	B1r.bmp	492	1	blank2r.bmp	786	1	DHJF	786	1	blank2r.bmp	866	1	engagiert	866	1	!	1292	1	!	1386	0	0	0	0	0	0	0	0	0	0	0	0	0	0	0	0	0	0	0	0	0	0	0	0	0	0	0
040319	11:41:55	11:49:54	477163	5.0.10.0	4_exp_AWA_CON_AMP_EVA	187	Rpleas_acq	Oppo	Rpleas	Amasked	CS_A	2pleas	distractor1	CONbeforeEVA	acq_US_pleas_masked	acq3_masked	3	13	453	1	300	300	0	0	458	50	0	1	0	0	0	1	blank2r.bmp	0	1	+	0	7	C3r.bmp	492	1	blank2r.bmp	786	1	DHJF	786	1	blank2r.bmp	866	5	kreativ	866	1	!	1292	1	!	1359	0	0	0	0	0	0	0	0	0	0	0	0	0	0	0	0	0	0	0	0	0	0	0	0	0	0	0
040319	11:41:55	11:49:56	479308	5.0.10.0	4_exp_AWA_CON_AMP_EVA	187	Rpleas_acq	Oppo	Rpleas	Amasked	CS_A	2pleas	distractor1	CONbeforeEVA	acq_US_unple_masked	acq3_masked	3	14	453	0	300	300	0	0	371	46	0	1	0	0	0	1	blank2r.bmp	0	1	+	0	2	B2r.bmp	492	1	blank2r.bmp	786	1	CPLW	786	1	blank2r.bmp	866	6	sterben	866	1	!	-1	1	!	-1	0	0	0	0	0	0	0	0	0	0	0	0	0	0	0	0	0	0	0	0	0	0	0	0	0	0	0
040319	11:41:55	11:49:58	481761	5.0.10.0	4_exp_AWA_CON_AMP_EVA	187	Rpleas_acq	Oppo	Rpleas	Amasked	CS_A	2pleas	distractor1	CONbeforeEVA	acq_US_pleas_masked	acq3_masked	3	15	453	1	300	300	0	0	433	46	0	0	0	0	0	1	blank2r.bmp	0	1	+	0	8	C4r.bmp	492	1	blank2r.bmp	786	1	DHJF	786	1	blank2r.bmp	866	4	anregung	866	1	FEHLER	1652	1	!	1292	1	!	1332	0	0	0	0	0	0	0	0	0	0	0	0	0	0	0	0	0	0	0	0	0	0	0	0
040319	11:41:55	11:50:00	483813	5.0.10.0	4_exp_AWA_CON_AMP_EVA	187	Rpleas_acq	Oppo	Rpleas	Amasked	CS_A	2pleas	distractor1	CONbeforeEVA	acq_US_pleas_masked	acq3_masked	3	16	453	1	300	300	0	0	460	50	0	1	0	0	0	1	blank2r.bmp	0	1	+	0	4	B4r.bmp	492	1	blank2r.bmp	786	1	DHJF	786	1	blank2r.bmp	866	2	genießen	866	1	!	1292	1	!	1359	0	0	0	0	0	0	0	0	0	0	0	0	0	0	0	0	0	0	0	0	0	0	0	0	0	0	0
040319	11:41:55	11:50:03	486026	5.0.10.0	4_exp_AWA_CON_AMP_EVA	187	Rpleas_acq	Oppo	Rpleas	Amasked	CS_A	2pleas	distractor1	CONbeforeEVA	acq_US_pleas_masked	acq3_masked	3	17	453	1	300	300	0	0	418	50	0	1	0	0	0	1	blank2r.bmp	0	1	+	0	4	B4r.bmp	492	1	blank2r.bmp	786	1	DHJF	786	1	blank2r.bmp	866	6	sonnig	866	1	!	1292	1	!	1319	0	0	0	0	0	0	0	0	0	0	0	0	0	0	0	0	0	0	0	0	0	0	0	0	0	0	0
040319	11:41:55	11:50:05	488158	5.0.10.0	4_exp_AWA_CON_AMP_EVA	187	Rpleas_acq	Oppo	Rpleas	Amasked	CS_A	2pleas	distractor1	CONbeforeEVA	acq_US_unple_masked	acq3_masked	3	18	453	0	300	300	0	0	367	46	0	1	0	0	0	1	blank2r.bmp	0	1	+	0	8	C4r.bmp	492	1	blank2r.bmp	786	1	CPLW	786	1	blank2r.bmp	866	4	ausrottung	866	1	!	-1	1	!	-1	0	0	0	0	0	0	0	0	0	0	0	0	0	0	0	0	0	0	0	0	0	0	0	0	0	0	0
040319	11:41:55	11:50:07	490450	5.0.10.0	4_exp_AWA_CON_AMP_EVA	187	Rpleas_acq	Oppo	Rpleas	Amasked	CS_A	2pleas	distractor1	CONbeforeEVA	acq_US_pleas_masked	acq3_masked	3	19	453	1	300	300	0	0	481	50	0	1	0	0	0	1	blank2r.bmp	0	1	+	0	6	C2r.bmp	492	1	blank2r.bmp	786	1	DHJF	786	1	blank2r.bmp	866	1	engagiert	866	1	!	1292	1	!	1386	0	0	0	0	0	0	0	0	0	0	0	0	0	0	0	0	0	0	0	0	0	0	0	0	0	0	0
040319	11:41:55	11:50:09	492570	5.0.10.0	4_exp_AWA_CON_AMP_EVA	187	Rpleas_acq	Oppo	Rpleas	Amasked	CS_A	2pleas	distractor1	CONbeforeEVA	acq_US_unple_masked	acq3_masked	3	20	453	0	300	300	0	0	352	46	0	1	0	0	0	1	blank2r.bmp	0	1	+	0	2	B2r.bmp	492	1	blank2r.bmp	786	1	CPLW	786	1	blank2r.bmp	866	2	gemein	866	1	!	-1	1	!	-1	0	0	0	0	0	0	0	0	0	0	0	0	0	0	0	0	0	0	0	0	0	0	0	0	0	0	0
040319	11:41:55	11:50:11	494809	5.0.10.0	4_exp_AWA_CON_AMP_EVA	187	Rpleas_acq	Oppo	Rpleas	Amasked	CS_A	2pleas	distractor1	CONbeforeEVA	acq_US_pleas_masked	acq3_masked	3	21	453	1	300	300	0	0	438	50	0	1	0	0	0	1	blank2r.bmp	0	1	+	0	5	C1r.bmp	492	1	blank2r.bmp	786	1	DHJF	786	1	blank2r.bmp	866	3	träumen	866	1	!	1292	1	!	1332	0	0	0	0	0	0	0	0	0	0	0	0	0	0	0	0	0	0	0	0	0	0	0	0	0	0	0
040319	11:41:55	11:50:14	497021	5.0.10.0	4_exp_AWA_CON_AMP_EVA	187	Rpleas_acq	Oppo	Rpleas	Amasked	CS_A	2pleas	distractor1	CONbeforeEVA	acq_US_unple_masked	acq3_masked	3	22	453	1	300	300	0	0	421	46	0	1	0	0	0	1	blank2r.bmp	0	1	+	0	7	C3r.bmp	492	1	blank2r.bmp	786	1	CPLW	786	1	blank2r.bmp	866	3	töten	866	1	!	1292	1	!	1319	0	0	0	0	0	0	0	0	0	0	0	0	0	0	0	0	0	0	0	0	0	0	0	0	0	0	0
040319	11:41:55	11:50:16	499447	5.0.10.0	4_exp_AWA_CON_AMP_EVA	187	Rpleas_acq	Oppo	Rpleas	Amasked	CS_A	2pleas	distractor1	CONbeforeEVA	acq_US_unple_masked	acq3_masked	3	23	453	1	300	300	0	0	399	50	0	0	0	0	0	1	blank2r.bmp	0	1	+	0	1	B1r.bmp	492	1	blank2r.bmp	786	1	CPLW	786	1	blank2r.bmp	866	1	engstirnig	866	1	FEHLER	1625	1	!	1292	1	!	1306	0	0	0	0	0	0	0	0	0	0	0	0	0	0	0	0	0	0	0	0	0	0	0	0
040319	11:41:55	11:50:18	501593	5.0.10.0	4_exp_AWA_CON_AMP_EVA	187	Rpleas_acq	Oppo	Rpleas	Amasked	CS_A	2pleas	distractor1	CONbeforeEVA	acq_US_unple_masked	acq3_masked	3	24	453	0	300	300	0	0	363	50	0	0	0	0	0	1	blank2r.bmp	0	1	+	0	3	B3r.bmp	492	1	blank2r.bmp	786	1	CPLW	786	1	blank2r.bmp	866	5	krank	866	1	FEHLER	1572	1	!	-1	1	!	-1	0	0	0	0	0	0	0	0	0	0	0	0	0	0	0	0	0	0	0	0	0	0	0	0
040319	11:41:55	11:50:20	503578	5.0.10.0	4_exp_AWA_CON_AMP_EVA	187	Rpleas_acq	Oppo	Rpleas	Amasked	CS_A	2pleas	distractor1	CONbeforeEVA	acq_US_pleas_masked	acq3_masked	3	25	453	1	300	300	0	0	405	50	0	1	0	0	0	1	blank2r.bmp	0	1	+	0	6	C2r.bmp	492	1	blank2r.bmp	786	1	DHJF	786	1	blank2r.bmp	866	2	genießen	866	1	!	1292	1	!	1306	0	0	0	0	0	0	0	0	0	0	0	0	0	0	0	0	0	0	0	0	0	0	0	0	0	0	0
040319	11:41:55	11:50:22	505804	5.0.10.0	4_exp_AWA_CON_AMP_EVA	187	Rpleas_acq	Oppo	Rpleas	Amasked	CS_A	2pleas	distractor1	CONbeforeEVA	acq_US_pleas_masked	acq3_masked	3	26	453	1	300	300	0	0	433	50	0	1	0	0	0	1	blank2r.bmp	0	1	+	0	3	B3r.bmp	492	1	blank2r.bmp	786	1	DHJF	786	1	blank2r.bmp	866	3	träumen	866	1	!	1292	1	!	1332	0	0	0	0	0	0	0	0	0	0	0	0	0	0	0	0	0	0	0	0	0	0	0	0	0	0	0
040319	11:41:55	11:50:25	508216	5.0.10.0	4_exp_AWA_CON_AMP_EVA	187	Rpleas_acq	Oppo	Rpleas	Amasked	CS_A	2pleas	distractor1	CONbeforeEVA	acq_US_pleas_masked	acq3_masked	3	27	453	1	300	300	0	0	399	46	0	0	0	0	0	1	blank2r.bmp	0	1	+	0	2	B2r.bmp	492	1	blank2r.bmp	786	1	DHJF	786	1	blank2r.bmp	866	4	anregung	866	1	FEHLER	1625	1	!	1292	1	!	1306	0	0	0	0	0	0	0	0	0	0	0	0	0	0	0	0	0	0	0	0	0	0	0	0
040319	11:41:55	11:50:27	510296	5.0.10.0	4_exp_AWA_CON_AMP_EVA	187	Rpleas_acq	Oppo	Rpleas	Amasked	CS_A	2pleas	distractor1	CONbeforeEVA	acq_US_pleas_masked	acq3_masked	3	28	453	1	300	300	0	0	485	50	0	1	0	0	0	1	blank2r.bmp	0	1	+	0	7	C3r.bmp	492	1	blank2r.bmp	786	1	DHJF	786	1	blank2r.bmp	866	1	engagiert	866	1	!	1292	1	!	1386	0	0	0	0	0	0	0	0	0	0	0	0	0	0	0	0	0	0	0	0	0	0	0	0	0	0	0
040319	11:41:55	11:50:29	512441	5.0.10.0	4_exp_AWA_CON_AMP_EVA	187	Rpleas_acq	Oppo	Rpleas	Amasked	CS_A	2pleas	distractor1	CONbeforeEVA	acq_US_unple_masked	acq3_masked	3	29	453	0	300	300	0	0	383	46	0	1	0	0	0	1	blank2r.bmp	0	1	+	0	5	C1r.bmp	492	1	blank2r.bmp	786	1	CPLW	786	1	blank2r.bmp	866	3	töten	866	1	!	-1	1	!	-1	0	0	0	0	0	0	0	0	0	0	0	0	0	0	0	0	0	0	0	0	0	0	0	0	0	0	0
040319	11:41:55	11:50:31	514760	5.0.10.0	4_exp_AWA_CON_AMP_EVA	187	Rpleas_acq	Oppo	Rpleas	Amasked	CS_A	2pleas	distractor1	CONbeforeEVA	acq_US_unple_masked	acq3_masked	3	30	453	0	300	300	0	0	538	46	0	1	0	0	0	1	blank2r.bmp	0	1	+	0	4	B4r.bmp	492	1	blank2r.bmp	786	1	CPLW	786	1	blank2r.bmp	866	1	engstirnig	866	1	!	1292	1	!	-1	0	0	0	0	0	0	0	0	0	0	0	0	0	0	0	0	0	0	0	0	0	0	0	0	0	0	0
040319	11:41:55	11:50:34	516999	5.0.10.0	4_exp_AWA_CON_AMP_EVA	187	Rpleas_acq	Oppo	Rpleas	Amasked	CS_A	2pleas	distractor1	CONbeforeEVA	acq_US_pleas_masked	acq3_masked	3	31	453	1	300	300	0	0	414	50	0	1	0	0	0	1	blank2r.bmp	0	1	+	0	8	C4r.bmp	492	1	blank2r.bmp	786	1	DHJF	786	1	blank2r.bmp	866	5	kreativ	866	1	!	1292	1	!	1319	0	0	0	0	0	0	0	0	0	0	0	0	0	0	0	0	0	0	0	0	0	0	0	0	0	0	0
040319	11:41:55	11:50:36	519305	5.0.10.0	4_exp_AWA_CON_AMP_EVA	187	Rpleas_acq	Oppo	Rpleas	Amasked	CS_A	2pleas	distractor1	CONbeforeEVA	acq_US_unple_masked	acq3_masked	3	32	453	0	300	300	0	0	536	46	0	1	0	0	0	1	blank2r.bmp	0	1	+	0	1	B1r.bmp	492	1	blank2r.bmp	786	1	CPLW	786	1	blank2r.bmp	866	5	krank	866	1	!	1292	1	!	-1	0	0	0	0	0	0	0	0	0	0	0	0	0	0	0	0	0	0	0	0	0	0	0	0	0	0	0
040319	11:41:55	11:50:38	521451	5.0.10.0	4_exp_AWA_CON_AMP_EVA	187	Rpleas_acq	Oppo	Rpleas	Amasked	CS_A	2pleas	distractor1	CONbeforeEVA	acq_US_pleas_masked	acq3_masked	3	33	453	0	300	300	0	0	366	50	0	1	0	0	0	1	blank2r.bmp	0	1	+	0	6	C2r.bmp	492	1	blank2r.bmp	786	1	DHJF	786	1	blank2r.bmp	866	6	sonnig	866	1	!	-1	1	!	-1	0	0	0	0	0	0	0	0	0	0	0	0	0	0	0	0	0	0	0	0	0	0	0	0	0	0	0
040319	11:41:55	11:50:40	523757	5.0.10.0	4_exp_AWA_CON_AMP_EVA	187	Rpleas_acq	Oppo	Rpleas	Amasked	CS_A	2pleas	distractor1	CONbeforeEVA	acq_US_unple_masked	acq3_masked	3	34	453	1	300	300	0	0	493	46	0	1	0	0	0	1	blank2r.bmp	0	1	+	0	3	B3r.bmp	492	1	blank2r.bmp	786	1	CPLW	786	1	blank2r.bmp	866	4	ausrottung	866	1	!	1292	1	!	1399	0	0	0	0	0	0	0	0	0	0	0	0	0	0	0	0	0	0	0	0	0	0	0	0	0	0	0
040319	11:41:55	11:50:43	525996	5.0.10.0	4_exp_AWA_CON_AMP_EVA	187	Rpleas_acq	Oppo	Rpleas	Amasked	CS_A	2pleas	distractor1	CONbeforeEVA	acq_US_unple_masked	acq3_masked	3	35	453	1	300	300	0	0	440	46	0	1	0	0	0	1	blank2r.bmp	0	1	+	0	2	B2r.bmp	492	1	blank2r.bmp	786	1	CPLW	786	1	blank2r.bmp	866	6	sterben	866	1	!	1292	1	!	1346	0	0	0	0	0	0	0	0	0	0	0	0	0	0	0	0	0	0	0	0	0	0	0	0	0	0	0
040319	11:41:55	11:50:45	528368	5.0.10.0	4_exp_AWA_CON_AMP_EVA	187	Rpleas_acq	Oppo	Rpleas	Amasked	CS_A	2pleas	distractor1	CONbeforeEVA	acq_US_unple_masked	acq3_masked	3	36	453	0	300	300	0	0	384	50	0	0	0	0	0	1	blank2r.bmp	0	1	+	0	5	C1r.bmp	492	1	blank2r.bmp	786	1	CPLW	786	1	blank2r.bmp	866	2	gemein	866	1	FEHLER	1586	1	!	-1	1	!	-1	0	0	0	0	0	0	0	0	0	0	0	0	0	0	0	0	0	0	0	0	0	0	0	0
040319	11:41:55	11:51:02	545268	5.0.10.0	4_exp_AWA_CON_AMP_EVA	187	Rpleas_acq	Oppo	Rpleas	Amasked	CS_A	2pleas	distractor1	CONbeforeEVA	acq_US_unple_masked	acq45_masked	4	1	400	0	300	300	0	0	499	46	0	1	0	0	0	1	blank2r.bmp	0	1	+	0	8	C4r.bmp	492	1	blank2r.bmp	786	1	CPLW	786	1	blank2r.bmp	866	5	krank	866	1	!	1239	1	!	-1	0	0	0	0	0	0	0	0	0	0	0	0	0	0	0	0	0	0	0	0	0	0	0	0	0	0	0
040319	11:41:55	11:51:04	547480	5.0.10.0	4_exp_AWA_CON_AMP_EVA	187	Rpleas_acq	Oppo	Rpleas	Amasked	CS_A	2pleas	distractor1	CONbeforeEVA	acq_US_pleas_masked	acq45_masked	4	2	400	1	300	300	0	0	401	50	0	1	0	0	0	1	blank2r.bmp	0	1	+	0	4	B4r.bmp	492	1	blank2r.bmp	786	1	DHJF	786	1	blank2r.bmp	866	3	träumen	866	1	!	1239	1	!	1306	0	0	0	0	0	0	0	0	0	0	0	0	0	0	0	0	0	0	0	0	0	0	0	0	0	0	0
040319	11:41:55	11:51:06	549573	5.0.10.0	4_exp_AWA_CON_AMP_EVA	187	Rpleas_acq	Oppo	Rpleas	Amasked	CS_A	2pleas	distractor1	CONbeforeEVA	acq_US_unple_masked	acq45_masked	4	3	400	0	300	300	0	0	331	50	0	0	0	0	0	1	blank2r.bmp	0	1	+	0	7	C3r.bmp	492	1	blank2r.bmp	786	1	CPLW	786	1	blank2r.bmp	866	2	gemein	866	1	!	-1	1	!	-1	0	0	0	0	0	0	0	0	0	0	0	0	0	0	0	0	0	0	0	0	0	0	0	0	0	0	0
040319	11:41:55	11:51:08	551759	5.0.10.0	4_exp_AWA_CON_AMP_EVA	187	Rpleas_acq	Oppo	Rpleas	Amasked	CS_A	2pleas	distractor1	CONbeforeEVA	acq_US_unple_masked	acq45_masked	4	4	400	1	300	300	0	0	382	46	0	1	0	0	0	1	blank2r.bmp	0	1	+	0	1	B1r.bmp	492	1	blank2r.bmp	786	1	CPLW	786	1	blank2r.bmp	866	3	töten	866	1	!	1239	1	!	1279	0	0	0	0	0	0	0	0	0	0	0	0	0	0	0	0	0	0	0	0	0	0	0	0	0	0	0
040319	11:41:55	11:51:11	553984	5.0.10.0	4_exp_AWA_CON_AMP_EVA	187	Rpleas_acq	Oppo	Rpleas	Amasked	CS_A	2pleas	distractor1	CONbeforeEVA	acq_US_unple_masked	acq45_masked	4	5	400	1	300	300	0	0	436	46	0	1	0	0	0	1	blank2r.bmp	0	1	+	0	7	C3r.bmp	492	1	blank2r.bmp	786	1	CPLW	786	1	blank2r.bmp	866	1	engstirnig	866	1	!	1239	1	!	1332	0	0	0	0	0	0	0	0	0	0	0	0	0	0	0	0	0	0	0	0	0	0	0	0	0	0	0
040319	11:41:55	11:51:13	556237	5.0.10.0	4_exp_AWA_CON_AMP_EVA	187	Rpleas_acq	Oppo	Rpleas	Amasked	CS_A	2pleas	distractor1	CONbeforeEVA	acq_US_pleas_masked	acq45_masked	4	6	400	1	300	300	0	0	453	46	0	0	0	0	0	1	blank2r.bmp	0	1	+	0	6	C2r.bmp	492	1	blank2r.bmp	786	1	DHJF	786	1	blank2r.bmp	866	4	anregung	866	1	!	1239	1	!	1359	0	0	0	0	0	0	0	0	0	0	0	0	0	0	0	0	0	0	0	0	0	0	0	0	0	0	0
040319	11:41:55	11:51:15	558502	5.0.10.0	4_exp_AWA_CON_AMP_EVA	187	Rpleas_acq	Oppo	Rpleas	Amasked	CS_A	2pleas	distractor1	CONbeforeEVA	acq_US_unple_masked	acq45_masked	4	7	400	0	300	300	0	0	499	46	0	1	0	0	0	1	blank2r.bmp	0	1	+	0	3	B3r.bmp	492	1	blank2r.bmp	786	1	CPLW	786	1	blank2r.bmp	866	4	ausrottung	866	1	!	1239	1	!	-1	0	0	0	0	0	0	0	0	0	0	0	0	0	0	0	0	0	0	0	0	0	0	0	0	0	0	0
040319	11:41:55	11:51:17	560795	5.0.10.0	4_exp_AWA_CON_AMP_EVA	187	Rpleas_acq	Oppo	Rpleas	Amasked	CS_A	2pleas	distractor1	CONbeforeEVA	acq_US_unple_masked	acq45_masked	4	8	400	0	300	300	0	0	492	46	0	1	0	0	0	1	blank2r.bmp	0	1	+	0	8	C4r.bmp	492	1	blank2r.bmp	786	1	CPLW	786	1	blank2r.bmp	866	6	sterben	866	1	!	1239	1	!	-1	0	0	0	0	0	0	0	0	0	0	0	0	0	0	0	0	0	0	0	0	0	0	0	0	0	0	0
040319	11:41:55	11:51:19	562847	5.0.10.0	4_exp_AWA_CON_AMP_EVA	187	Rpleas_acq	Oppo	Rpleas	Amasked	CS_A	2pleas	distractor1	CONbeforeEVA	acq_US_pleas_masked	acq45_masked	4	9	400	0	300	300	0	0	260	50	0	1	0	0	0	1	blank2r.bmp	0	1	+	0	4	B4r.bmp	492	1	blank2r.bmp	786	1	DHJF	786	1	blank2r.bmp	866	5	kreativ	866	1	!	-1	1	!	-1	0	0	0	0	0	0	0	0	0	0	0	0	0	0	0	0	0	0	0	0	0	0	0	0	0	0	0
040319	11:41:55	11:51:22	565073	5.0.10.0	4_exp_AWA_CON_AMP_EVA	187	Rpleas_acq	Oppo	Rpleas	Amasked	CS_A	2pleas	distractor1	CONbeforeEVA	acq_US_unple_masked	acq45_masked	4	10	400	1	300	300	0	0	419	46	0	1	0	0	0	1	blank2r.bmp	0	1	+	0	1	B1r.bmp	492	1	blank2r.bmp	786	1	CPLW	786	1	blank2r.bmp	866	1	engstirnig	866	1	!	1239	1	!	1319	0	0	0	0	0	0	0	0	0	0	0	0	0	0	0	0	0	0	0	0	0	0	0	0	0	0	0
040319	11:41:55	11:51:24	567245	5.0.10.0	4_exp_AWA_CON_AMP_EVA	187	Rpleas_acq	Oppo	Rpleas	Amasked	CS_A	2pleas	distractor1	CONbeforeEVA	acq_US_pleas_masked	acq45_masked	4	11	400	1	300	300	0	0	384	50	0	1	0	0	0	1	blank2r.bmp	0	1	+	0	2	B2r.bmp	492	1	blank2r.bmp	786	1	DHJF	786	1	blank2r.bmp	866	2	genießen	866	1	!	1239	1	!	1279	0	0	0	0	0	0	0	0	0	0	0	0	0	0	0	0	0	0	0	0	0	0	0	0	0	0	0
040319	11:41:55	11:51:26	569391	5.0.10.0	4_exp_AWA_CON_AMP_EVA	187	Rpleas_acq	Oppo	Rpleas	Amasked	CS_A	2pleas	distractor1	CONbeforeEVA	acq_US_pleas_masked	acq45_masked	4	12	400	1	300	300	0	0	354	46	0	0	0	0	0	1	blank2r.bmp	0	1	+	0	5	C1r.bmp	492	1	blank2r.bmp	786	1	DHJF	786	1	blank2r.bmp	866	1	engagiert	866	1	!	1239	1	!	1252	0	0	0	0	0	0	0	0	0	0	0	0	0	0	0	0	0	0	0	0	0	0	0	0	0	0	0
040319	11:41:55	11:51:28	571577	5.0.10.0	4_exp_AWA_CON_AMP_EVA	187	Rpleas_acq	Oppo	Rpleas	Amasked	CS_A	2pleas	distractor1	CONbeforeEVA	acq_US_pleas_masked	acq45_masked	4	13	400	1	300	300	0	0	396	50	0	1	0	0	0	1	blank2r.bmp	0	1	+	0	5	C1r.bmp	492	1	blank2r.bmp	786	1	DHJF	786	1	blank2r.bmp	866	6	sonnig	866	1	!	1239	1	!	1292	0	0	0	0	0	0	0	0	0	0	0	0	0	0	0	0	0	0	0	0	0	0	0	0	0	0	0
040319	11:41:55	11:51:30	573763	5.0.10.0	4_exp_AWA_CON_AMP_EVA	187	Rpleas_acq	Oppo	Rpleas	Amasked	CS_A	2pleas	distractor1	CONbeforeEVA	acq_US_pleas_masked	acq45_masked	4	14	400	1	300	300	0	0	395	50	0	1	0	0	0	1	blank2r.bmp	0	1	+	0	6	C2r.bmp	492	1	blank2r.bmp	786	1	DHJF	786	1	blank2r.bmp	866	1	engagiert	866	1	!	1239	1	!	1292	0	0	0	0	0	0	0	0	0	0	0	0	0	0	0	0	0	0	0	0	0	0	0	0	0	0	0
040319	11:41:55	11:51:32	575829	5.0.10.0	4_exp_AWA_CON_AMP_EVA	187	Rpleas_acq	Oppo	Rpleas	Amasked	CS_A	2pleas	distractor1	CONbeforeEVA	acq_US_unple_masked	acq45_masked	4	15	400	0	300	300	0	0	299	46	0	1	0	0	0	1	blank2r.bmp	0	1	+	0	8	C4r.bmp	492	1	blank2r.bmp	786	1	CPLW	786	1	blank2r.bmp	866	6	sterben	866	1	!	-1	1	!	-1	0	0	0	0	0	0	0	0	0	0	0	0	0	0	0	0	0	0	0	0	0	0	0	0	0	0	0
040319	11:41:55	11:51:35	578068	5.0.10.0	4_exp_AWA_CON_AMP_EVA	187	Rpleas_acq	Oppo	Rpleas	Amasked	CS_A	2pleas	distractor1	CONbeforeEVA	acq_US_pleas_masked	acq45_masked	4	16	400	1	300	300	0	0	437	50	0	1	0	0	0	1	blank2r.bmp	0	1	+	0	7	C3r.bmp	492	1	blank2r.bmp	786	1	DHJF	786	1	blank2r.bmp	866	5	kreativ	866	1	!	1239	1	!	1332	0	0	0	0	0	0	0	0	0	0	0	0	0	0	0	0	0	0	0	0	0	0	0	0	0	0	0
040319	11:41:55	11:51:37	580320	5.0.10.0	4_exp_AWA_CON_AMP_EVA	187	Rpleas_acq	Oppo	Rpleas	Amasked	CS_A	2pleas	distractor1	CONbeforeEVA	acq_US_pleas_masked	acq45_masked	4	17	400	1	300	300	0	0	458	50	0	1	0	0	0	1	blank2r.bmp	0	1	+	0	2	B2r.bmp	492	1	blank2r.bmp	786	1	DHJF	786	1	blank2r.bmp	866	4	anregung	866	1	!	1239	1	!	1359	0	0	0	0	0	0	0	0	0	0	0	0	0	0	0	0	0	0	0	0	0	0	0	0	0	0	0
040319	11:41:55	11:51:39	582426	5.0.10.0	4_exp_AWA_CON_AMP_EVA	187	Rpleas_acq	Oppo	Rpleas	Amasked	CS_A	2pleas	distractor1	CONbeforeEVA	acq_US_unple_masked	acq45_masked	4	18	400	0	300	300	0	0	332	50	0	0	0	0	0	1	blank2r.bmp	0	1	+	0	1	B1r.bmp	492	1	blank2r.bmp	786	1	CPLW	786	1	blank2r.bmp	866	5	krank	866	1	!	-1	1	!	-1	0	0	0	0	0	0	0	0	0	0	0	0	0	0	0	0	0	0	0	0	0	0	0	0	0	0	0
040319	11:41:55	11:51:41	584585	5.0.10.0	4_exp_AWA_CON_AMP_EVA	187	Rpleas_acq	Oppo	Rpleas	Amasked	CS_A	2pleas	distractor1	CONbeforeEVA	acq_US_unple_masked	acq45_masked	4	19	400	1	300	300	0	0	346	46	0	1	0	0	0	1	blank2r.bmp	0	1	+	0	3	B3r.bmp	492	1	blank2r.bmp	786	1	CPLW	786	1	blank2r.bmp	866	2	gemein	866	1	!	1239	1	!	1252	0	0	0	0	0	0	0	0	0	0	0	0	0	0	0	0	0	0	0	0	0	0	0	0	0	0	0
040319	11:41:55	11:51:43	586731	5.0.10.0	4_exp_AWA_CON_AMP_EVA	187	Rpleas_acq	Oppo	Rpleas	Amasked	CS_A	2pleas	distractor1	CONbeforeEVA	acq_US_pleas_masked	acq45_masked	4	20	400	1	300	300	0	0	357	50	0	1	0	0	0	1	blank2r.bmp	0	1	+	0	4	B4r.bmp	492	1	blank2r.bmp	786	1	DHJF	786	1	blank2r.bmp	866	3	träumen	866	1	!	1239	1	!	1252	0	0	0	0	0	0	0	0	0	0	0	0	0	0	0	0	0	0	0	0	0	0	0	0	0	0	0
040319	11:41:55	11:51:45	588877	5.0.10.0	4_exp_AWA_CON_AMP_EVA	187	Rpleas_acq	Oppo	Rpleas	Amasked	CS_A	2pleas	distractor1	CONbeforeEVA	acq_US_unple_masked	acq45_masked	4	21	400	1	300	300	0	0	358	46	0	1	0	0	0	1	blank2r.bmp	0	1	+	0	7	C3r.bmp	492	1	blank2r.bmp	786	1	CPLW	786	1	blank2r.bmp	866	4	ausrottung	866	1	!	1239	1	!	1252	0	0	0	0	0	0	0	0	0	0	0	0	0	0	0	0	0	0	0	0	0	0	0	0	0	0	0
040319	11:41:55	11:51:48	591036	5.0.10.0	4_exp_AWA_CON_AMP_EVA	187	Rpleas_acq	Oppo	Rpleas	Amasked	CS_A	2pleas	distractor1	CONbeforeEVA	acq_US_pleas_masked	acq45_masked	4	22	400	1	300	300	0	0	368	50	0	1	0	0	0	1	blank2r.bmp	0	1	+	0	5	C1r.bmp	492	1	blank2r.bmp	786	1	DHJF	786	1	blank2r.bmp	866	6	sonnig	866	1	!	1239	1	!	1266	0	0	0	0	0	0	0	0	0	0	0	0	0	0	0	0	0	0	0	0	0	0	0	0	0	0	0
040319	11:41:55	11:51:50	593181	5.0.10.0	4_exp_AWA_CON_AMP_EVA	187	Rpleas_acq	Oppo	Rpleas	Amasked	CS_A	2pleas	distractor1	CONbeforeEVA	acq_US_unple_masked	acq45_masked	4	23	400	1	300	300	0	0	346	46	0	1	0	0	0	1	blank2r.bmp	0	1	+	0	3	B3r.bmp	492	1	blank2r.bmp	786	1	CPLW	786	1	blank2r.bmp	866	3	töten	866	1	!	1239	1	!	1252	0	0	0	0	0	0	0	0	0	0	0	0	0	0	0	0	0	0	0	0	0	0	0	0	0	0	0
040319	11:41:55	11:51:52	595367	5.0.10.0	4_exp_AWA_CON_AMP_EVA	187	Rpleas_acq	Oppo	Rpleas	Amasked	CS_A	2pleas	distractor1	CONbeforeEVA	acq_US_pleas_masked	acq45_masked	4	24	400	1	300	300	0	0	390	50	0	1	0	0	0	1	blank2r.bmp	0	1	+	0	1	B1r.bmp	492	1	blank2r.bmp	786	1	DHJF	786	1	blank2r.bmp	866	2	genießen	866	1	!	1239	1	!	1292	0	0	0	0	0	0	0	0	0	0	0	0	0	0	0	0	0	0	0	0	0	0	0	0	0	0	0
040319	11:41:55	11:51:54	597566	5.0.10.0	4_exp_AWA_CON_AMP_EVA	187	Rpleas_acq	Oppo	Rpleas	Amasked	CS_A	2pleas	distractor1	CONbeforeEVA	acq_US_pleas_masked	acq45_masked	4	25	400	1	300	300	0	0	410	50	0	1	0	0	0	1	blank2r.bmp	0	1	+	0	6	C2r.bmp	492	1	blank2r.bmp	786	1	DHJF	786	1	blank2r.bmp	866	5	kreativ	866	1	!	1239	1	!	1306	0	0	0	0	0	0	0	0	0	0	0	0	0	0	0	0	0	0	0	0	0	0	0	0	0	0	0
040319	11:41:55	11:51:56	599792	5.0.10.0	4_exp_AWA_CON_AMP_EVA	187	Rpleas_acq	Oppo	Rpleas	Amasked	CS_A	2pleas	distractor1	CONbeforeEVA	acq_US_pleas_masked	acq45_masked	4	26	400	1	300	300	0	0	426	50	0	1	0	0	0	1	blank2r.bmp	0	1	+	0	4	B4r.bmp	492	1	blank2r.bmp	786	1	DHJF	786	1	blank2r.bmp	866	6	sonnig	866	1	!	1239	1	!	1332	0	0	0	0	0	0	0	0	0	0	0	0	0	0	0	0	0	0	0	0	0	0	0	0	0	0	0
040319	11:41:55	11:51:59	601951	5.0.10.0	4_exp_AWA_CON_AMP_EVA	187	Rpleas_acq	Oppo	Rpleas	Amasked	CS_A	2pleas	distractor1	CONbeforeEVA	acq_US_unple_masked	acq45_masked	4	27	400	1	300	300	0	0	346	46	0	1	0	0	0	1	blank2r.bmp	0	1	+	0	2	B2r.bmp	492	1	blank2r.bmp	786	1	CPLW	786	1	blank2r.bmp	866	4	ausrottung	866	1	!	1239	1	!	1252	0	0	0	0	0	0	0	0	0	0	0	0	0	0	0	0	0	0	0	0	0	0	0	0	0	0	0
040319	11:41:55	11:52:01	604177	5.0.10.0	4_exp_AWA_CON_AMP_EVA	187	Rpleas_acq	Oppo	Rpleas	Amasked	CS_A	2pleas	distractor1	CONbeforeEVA	acq_US_pleas_masked	acq45_masked	4	28	400	1	300	300	0	0	425	50	0	1	0	0	0	1	blank2r.bmp	0	1	+	0	8	C4r.bmp	492	1	blank2r.bmp	786	1	DHJF	786	1	blank2r.bmp	866	1	engagiert	866	1	!	1239	1	!	1332	0	0	0	0	0	0	0	0	0	0	0	0	0	0	0	0	0	0	0	0	0	0	0	0	0	0	0
040319	11:41:55	11:52:03	606389	5.0.10.0	4_exp_AWA_CON_AMP_EVA	187	Rpleas_acq	Oppo	Rpleas	Amasked	CS_A	2pleas	distractor1	CONbeforeEVA	acq_US_pleas_masked	acq45_masked	4	29	400	1	300	300	0	0	401	50	0	1	0	0	0	1	blank2r.bmp	0	1	+	0	1	B1r.bmp	492	1	blank2r.bmp	786	1	DHJF	786	1	blank2r.bmp	866	4	anregung	866	1	!	1239	1	!	1306	0	0	0	0	0	0	0	0	0	0	0	0	0	0	0	0	0	0	0	0	0	0	0	0	0	0	0
040319	11:41:55	11:52:05	608588	5.0.10.0	4_exp_AWA_CON_AMP_EVA	187	Rpleas_acq	Oppo	Rpleas	Amasked	CS_A	2pleas	distractor1	CONbeforeEVA	acq_US_unple_masked	acq45_masked	4	30	400	1	300	300	0	0	405	46	0	1	0	0	0	1	blank2r.bmp	0	1	+	0	6	C2r.bmp	492	1	blank2r.bmp	786	1	CPLW	786	1	blank2r.bmp	866	2	gemein	866	1	!	1239	1	!	1306	0	0	0	0	0	0	0	0	0	0	0	0	0	0	0	0	0	0	0	0	0	0	0	0	0	0	0
040319	11:41:55	11:52:07	610841	5.0.10.0	4_exp_AWA_CON_AMP_EVA	187	Rpleas_acq	Oppo	Rpleas	Amasked	CS_A	2pleas	distractor1	CONbeforeEVA	acq_US_unple_masked	acq45_masked	4	31	400	0	300	300	0	0	479	46	0	1	0	0	0	1	blank2r.bmp	0	1	+	0	4	B4r.bmp	492	1	blank2r.bmp	786	1	CPLW	786	1	blank2r.bmp	866	3	töten	866	1	!	1239	1	!	-1	0	0	0	0	0	0	0	0	0	0	0	0	0	0	0	0	0	0	0	0	0	0	0	0	0	0	0
040319	11:41:55	11:52:10	613013	5.0.10.0	4_exp_AWA_CON_AMP_EVA	187	Rpleas_acq	Oppo	Rpleas	Amasked	CS_A	2pleas	distractor1	CONbeforeEVA	acq_US_unple_masked	acq45_masked	4	32	400	1	300	300	0	0	356	50	0	0	0	0	0	1	blank2r.bmp	0	1	+	0	8	C4r.bmp	492	1	blank2r.bmp	786	1	CPLW	786	1	blank2r.bmp	866	6	sterben	866	1	!	1239	1	!	1252	0	0	0	0	0	0	0	0	0	0	0	0	0	0	0	0	0	0	0	0	0	0	0	0	0	0	0
040319	11:41:55	11:52:12	615159	5.0.10.0	4_exp_AWA_CON_AMP_EVA	187	Rpleas_acq	Oppo	Rpleas	Amasked	CS_A	2pleas	distractor1	CONbeforeEVA	acq_US_unple_masked	acq45_masked	4	33	400	1	300	300	0	0	346	50	0	0	0	0	0	1	blank2r.bmp	0	1	+	0	3	B3r.bmp	492	1	blank2r.bmp	786	1	CPLW	786	1	blank2r.bmp	866	5	krank	866	1	!	1239	1	!	1252	0	0	0	0	0	0	0	0	0	0	0	0	0	0	0	0	0	0	0	0	0	0	0	0	0	0	0
040319	11:41:55	11:52:14	617252	5.0.10.0	4_exp_AWA_CON_AMP_EVA	187	Rpleas_acq	Oppo	Rpleas	Amasked	CS_A	2pleas	distractor1	CONbeforeEVA	acq_US_pleas_masked	acq45_masked	4	34	400	0	300	300	0	0	309	50	0	1	0	0	0	1	blank2r.bmp	0	1	+	0	5	C1r.bmp	492	1	blank2r.bmp	786	1	DHJF	786	1	blank2r.bmp	866	2	genießen	866	1	!	-1	1	!	-1	0	0	0	0	0	0	0	0	0	0	0	0	0	0	0	0	0	0	0	0	0	0	0	0	0	0	0
040319	11:41:55	11:52:16	619491	5.0.10.0	4_exp_AWA_CON_AMP_EVA	187	Rpleas_acq	Oppo	Rpleas	Amasked	CS_A	2pleas	distractor1	CONbeforeEVA	acq_US_pleas_masked	acq45_masked	4	35	400	1	300	300	0	0	419	50	0	1	0	0	0	1	blank2r.bmp	0	1	+	0	2	B2r.bmp	492	1	blank2r.bmp	786	1	DHJF	786	1	blank2r.bmp	866	3	träumen	866	1	!	1239	1	!	1319	0	0	0	0	0	0	0	0	0	0	0	0	0	0	0	0	0	0	0	0	0	0	0	0	0	0	0
040319	11:41:55	11:52:18	621636	5.0.10.0	4_exp_AWA_CON_AMP_EVA	187	Rpleas_acq	Oppo	Rpleas	Amasked	CS_A	2pleas	distractor1	CONbeforeEVA	acq_US_unple_masked	acq45_masked	4	36	400	1	300	300	0	0	358	46	0	1	0	0	0	1	blank2r.bmp	0	1	+	0	7	C3r.bmp	492	1	blank2r.bmp	786	1	CPLW	786	1	blank2r.bmp	866	1	engstirnig	866	1	!	1239	1	!	1252	0	0	0	0	0	0	0	0	0	0	0	0	0	0	0	0	0	0	0	0	0	0	0	0	0	0	0
040319	11:41:55	11:52:32	635311	5.0.10.0	4_exp_AWA_CON_AMP_EVA	187	Rpleas_acq	Oppo	Rpleas	Amasked	CS_A	2pleas	distractor1	CONbeforeEVA	acq_US_pleas_masked	acq45_masked	5	1	400	1	300	300	0	0	373	46	0	0	0	0	0	1	blank2r.bmp	0	1	+	0	8	C4r.bmp	492	1	blank2r.bmp	786	1	DHJF	786	1	blank2r.bmp	866	1	engagiert	866	1	!	1239	1	!	1279	0	0	0	0	0	0	0	0	0	0	0	0	0	0	0	0	0	0	0	0	0	0	0	0	0	0	0
040319	11:41:55	11:52:34	637457	5.0.10.0	4_exp_AWA_CON_AMP_EVA	187	Rpleas_acq	Oppo	Rpleas	Amasked	CS_A	2pleas	distractor1	CONbeforeEVA	acq_US_pleas_masked	acq45_masked	5	2	400	1	300	300	0	0	351	46	0	0	0	0	0	1	blank2r.bmp	0	1	+	0	3	B3r.bmp	492	1	blank2r.bmp	786	1	DHJF	786	1	blank2r.bmp	866	3	träumen	866	1	!	1239	1	!	1252	0	0	0	0	0	0	0	0	0	0	0	0	0	0	0	0	0	0	0	0	0	0	0	0	0	0	0
040319	11:41:55	11:52:36	639696	5.0.10.0	4_exp_AWA_CON_AMP_EVA	187	Rpleas_acq	Oppo	Rpleas	Amasked	CS_A	2pleas	distractor1	CONbeforeEVA	acq_US_pleas_masked	acq45_masked	5	3	400	1	300	300	0	0	448	50	0	1	0	0	0	1	blank2r.bmp	0	1	+	0	4	B4r.bmp	492	1	blank2r.bmp	786	1	DHJF	786	1	blank2r.bmp	866	4	anregung	866	1	!	1239	1	!	1346	0	0	0	0	0	0	0	0	0	0	0	0	0	0	0	0	0	0	0	0	0	0	0	0	0	0	0
040319	11:41:55	11:52:39	641895	5.0.10.0	4_exp_AWA_CON_AMP_EVA	187	Rpleas_acq	Oppo	Rpleas	Amasked	CS_A	2pleas	distractor1	CONbeforeEVA	acq_US_unple_masked	acq45_masked	5	4	400	1	300	300	0	0	403	46	0	1	0	0	0	1	blank2r.bmp	0	1	+	0	7	C3r.bmp	492	1	blank2r.bmp	786	1	CPLW	786	1	blank2r.bmp	866	3	töten	866	1	!	1239	1	!	1306	0	0	0	0	0	0	0	0	0	0	0	0	0	0	0	0	0	0	0	0	0	0	0	0	0	0	0
040319	11:41:55	11:52:41	644147	5.0.10.0	4_exp_AWA_CON_AMP_EVA	187	Rpleas_acq	Oppo	Rpleas	Amasked	CS_A	2pleas	distractor1	CONbeforeEVA	acq_US_unple_masked	acq45_masked	5	5	400	1	300	300	0	0	452	46	0	1	0	0	0	1	blank2r.bmp	0	1	+	0	1	B1r.bmp	492	1	blank2r.bmp	786	1	CPLW	786	1	blank2r.bmp	866	1	engstirnig	866	1	!	1239	1	!	1359	0	0	0	0	0	0	0	0	0	0	0	0	0	0	0	0	0	0	0	0	0	0	0	0	0	0	0
040319	11:41:55	11:52:43	646400	5.0.10.0	4_exp_AWA_CON_AMP_EVA	187	Rpleas_acq	Oppo	Rpleas	Amasked	CS_A	2pleas	distractor1	CONbeforeEVA	acq_US_unple_masked	acq45_masked	5	6	400	0	300	300	0	0	484	46	0	1	0	0	0	1	blank2r.bmp	0	1	+	0	5	C1r.bmp	492	1	blank2r.bmp	786	1	CPLW	786	1	blank2r.bmp	866	6	sterben	866	1	!	1239	1	!	-1	0	0	0	0	0	0	0	0	0	0	0	0	0	0	0	0	0	0	0	0	0	0	0	0	0	0	0
040319	11:41:55	11:52:45	648679	5.0.10.0	4_exp_AWA_CON_AMP_EVA	187	Rpleas_acq	Oppo	Rpleas	Amasked	CS_A	2pleas	distractor1	CONbeforeEVA	acq_US_unple_masked	acq45_masked	5	7	400	1	300	300	0	0	466	46	0	1	0	0	0	1	blank2r.bmp	0	1	+	0	6	C2r.bmp	492	1	blank2r.bmp	786	1	CPLW	786	1	blank2r.bmp	866	4	ausrottung	866	1	!	1239	1	!	1372	0	0	0	0	0	0	0	0	0	0	0	0	0	0	0	0	0	0	0	0	0	0	0	0	0	0	0
040319	11:41:55	11:52:47	650824	5.0.10.0	4_exp_AWA_CON_AMP_EVA	187	Rpleas_acq	Oppo	Rpleas	Amasked	CS_A	2pleas	distractor1	CONbeforeEVA	acq_US_pleas_masked	acq45_masked	5	8	400	1	300	300	0	0	353	50	0	1	0	0	0	1	blank2r.bmp	0	1	+	0	2	B2r.bmp	492	1	blank2r.bmp	786	1	DHJF	786	1	blank2r.bmp	866	5	kreativ	866	1	!	1239	1	!	1252	0	0	0	0	0	0	0	0	0	0	0	0	0	0	0	0	0	0	0	0	0	0	0	0	0	0	0
040319	11:41:55	11:52:50	652984	5.0.10.0	4_exp_AWA_CON_AMP_EVA	187	Rpleas_acq	Oppo	Rpleas	Amasked	CS_A	2pleas	distractor1	CONbeforeEVA	acq_US_unple_masked	acq45_masked	5	9	400	1	300	300	0	0	367	50	0	0	0	0	0	1	blank2r.bmp	0	1	+	0	4	B4r.bmp	492	1	blank2r.bmp	786	1	CPLW	786	1	blank2r.bmp	866	5	krank	866	1	!	1239	1	!	1266	0	0	0	0	0	0	0	0	0	0	0	0	0	0	0	0	0	0	0	0	0	0	0	0	0	0	0
040319	11:41:55	11:52:52	655143	5.0.10.0	4_exp_AWA_CON_AMP_EVA	187	Rpleas_acq	Oppo	Rpleas	Amasked	CS_A	2pleas	distractor1	CONbeforeEVA	acq_US_pleas_masked	acq45_masked	5	10	400	1	300	300	0	0	361	46	0	0	0	0	0	1	blank2r.bmp	0	1	+	0	1	B1r.bmp	492	1	blank2r.bmp	786	1	DHJF	786	1	blank2r.bmp	866	2	genießen	866	1	!	1239	1	!	1266	0	0	0	0	0	0	0	0	0	0	0	0	0	0	0	0	0	0	0	0	0	0	0	0	0	0	0
040319	11:41:55	11:52:54	657408	5.0.10.0	4_exp_AWA_CON_AMP_EVA	187	Rpleas_acq	Oppo	Rpleas	Amasked	CS_A	2pleas	distractor1	CONbeforeEVA	acq_US_unple_masked	acq45_masked	5	11	400	0	300	300	0	0	489	46	0	1	0	0	0	1	blank2r.bmp	0	1	+	0	7	C3r.bmp	492	1	blank2r.bmp	786	1	CPLW	786	1	blank2r.bmp	866	2	gemein	866	1	!	1239	1	!	-1	0	0	0	0	0	0	0	0	0	0	0	0	0	0	0	0	0	0	0	0	0	0	0	0	0	0	0
040319	11:41:55	11:52:56	659514	5.0.10.0	4_exp_AWA_CON_AMP_EVA	187	Rpleas_acq	Oppo	Rpleas	Amasked	CS_A	2pleas	distractor1	CONbeforeEVA	acq_US_pleas_masked	acq45_masked	5	12	400	0	300	300	0	0	328	46	0	0	0	0	0	1	blank2r.bmp	0	1	+	0	8	C4r.bmp	492	1	blank2r.bmp	786	1	DHJF	786	1	blank2r.bmp	866	6	sonnig	866	1	!	-1	1	!	-1	0	0	0	0	0	0	0	0	0	0	0	0	0	0	0	0	0	0	0	0	0	0	0	0	0	0	0
040319	11:41:55	11:52:58	661687	5.0.10.0	4_exp_AWA_CON_AMP_EVA	187	Rpleas_acq	Oppo	Rpleas	Amasked	CS_A	2pleas	distractor1	CONbeforeEVA	acq_US_unple_masked	acq45_masked	5	13	400	1	300	300	0	0	359	46	0	1	0	0	0	1	blank2r.bmp	0	1	+	0	3	B3r.bmp	492	1	blank2r.bmp	786	1	CPLW	786	1	blank2r.bmp	866	2	gemein	866	1	!	1239	1	!	1266	0	0	0	0	0	0	0	0	0	0	0	0	0	0	0	0	0	0	0	0	0	0	0	0	0	0	0
040319	11:41:55	11:53:00	663872	5.0.10.0	4_exp_AWA_CON_AMP_EVA	187	Rpleas_acq	Oppo	Rpleas	Amasked	CS_A	2pleas	distractor1	CONbeforeEVA	acq_US_pleas_masked	acq45_masked	5	14	400	1	300	300	0	0	390	50	0	1	0	0	0	1	blank2r.bmp	0	1	+	0	2	B2r.bmp	492	1	blank2r.bmp	786	1	DHJF	786	1	blank2r.bmp	866	5	kreativ	866	1	!	1239	1	!	1292	0	0	0	0	0	0	0	0	0	0	0	0	0	0	0	0	0	0	0	0	0	0	0	0	0	0	0
040319	11:41:55	11:53:03	665965	5.0.10.0	4_exp_AWA_CON_AMP_EVA	187	Rpleas_acq	Oppo	Rpleas	Amasked	CS_A	2pleas	distractor1	CONbeforeEVA	acq_US_unple_masked	acq45_masked	5	15	400	0	300	300	0	0	319	50	0	0	0	0	0	1	blank2r.bmp	0	1	+	0	6	C2r.bmp	492	1	blank2r.bmp	786	1	CPLW	786	1	blank2r.bmp	866	3	töten	866	1	!	-1	1	!	-1	0	0	0	0	0	0	0	0	0	0	0	0	0	0	0	0	0	0	0	0	0	0	0	0	0	0	0
040319	11:41:55	11:53:05	668164	5.0.10.0	4_exp_AWA_CON_AMP_EVA	187	Rpleas_acq	Oppo	Rpleas	Amasked	CS_A	2pleas	distractor1	CONbeforeEVA	acq_US_unple_masked	acq45_masked	5	16	400	1	300	300	0	0	389	50	0	0	0	0	0	1	blank2r.bmp	0	1	+	0	5	C1r.bmp	492	1	blank2r.bmp	786	1	CPLW	786	1	blank2r.bmp	866	6	sterben	866	1	!	1239	1	!	1292	0	0	0	0	0	0	0	0	0	0	0	0	0	0	0	0	0	0	0	0	0	0	0	0	0	0	0
040319	11:41:55	11:53:07	670310	5.0.10.0	4_exp_AWA_CON_AMP_EVA	187	Rpleas_acq	Oppo	Rpleas	Amasked	CS_A	2pleas	distractor1	CONbeforeEVA	acq_US_pleas_masked	acq45_masked	5	17	400	1	300	300	0	0	346	50	0	1	0	0	0	1	blank2r.bmp	0	1	+	0	8	C4r.bmp	492	1	blank2r.bmp	786	1	DHJF	786	1	blank2r.bmp	866	6	sonnig	866	1	!	1239	1	!	1252	0	0	0	0	0	0	0	0	0	0	0	0	0	0	0	0	0	0	0	0	0	0	0	0	0	0	0
040319	11:41:55	11:53:09	672469	5.0.10.0	4_exp_AWA_CON_AMP_EVA	187	Rpleas_acq	Oppo	Rpleas	Amasked	CS_A	2pleas	distractor1	CONbeforeEVA	acq_US_pleas_masked	acq45_masked	5	18	400	1	300	300	0	0	366	46	0	0	0	0	0	1	blank2r.bmp	0	1	+	0	2	B2r.bmp	492	1	blank2r.bmp	786	1	DHJF	786	1	blank2r.bmp	866	3	träumen	866	1	!	1239	1	!	1266	0	0	0	0	0	0	0	0	0	0	0	0	0	0	0	0	0	0	0	0	0	0	0	0	0	0	0
040319	11:41:55	11:53:11	674548	5.0.10.0	4_exp_AWA_CON_AMP_EVA	187	Rpleas_acq	Oppo	Rpleas	Amasked	CS_A	2pleas	distractor1	CONbeforeEVA	acq_US_unple_masked	acq45_masked	5	19	400	0	300	300	0	0	307	46	0	1	0	0	0	1	blank2r.bmp	0	1	+	0	4	B4r.bmp	492	1	blank2r.bmp	786	1	CPLW	786	1	blank2r.bmp	866	4	ausrottung	866	1	!	-1	1	!	-1	0	0	0	0	0	0	0	0	0	0	0	0	0	0	0	0	0	0	0	0	0	0	0	0	0	0	0
040319	11:41:55	11:53:13	676814	5.0.10.0	4_exp_AWA_CON_AMP_EVA	187	Rpleas_acq	Oppo	Rpleas	Amasked	CS_A	2pleas	distractor1	CONbeforeEVA	acq_US_pleas_masked	acq45_masked	5	20	400	0	300	300	0	0	479	50	0	1	0	0	0	1	blank2r.bmp	0	1	+	0	5	C1r.bmp	492	1	blank2r.bmp	786	1	DHJF	786	1	blank2r.bmp	866	1	engagiert	866	1	!	1239	1	!	-1	0	0	0	0	0	0	0	0	0	0	0	0	0	0	0	0	0	0	0	0	0	0	0	0	0	0	0
040319	11:41:55	11:53:16	678906	5.0.10.0	4_exp_AWA_CON_AMP_EVA	187	Rpleas_acq	Oppo	Rpleas	Amasked	CS_A	2pleas	distractor1	CONbeforeEVA	acq_US_unple_masked	acq45_masked	5	21	400	0	300	300	0	0	305	46	0	1	0	0	0	1	blank2r.bmp	0	1	+	0	3	B3r.bmp	492	1	blank2r.bmp	786	1	CPLW	786	1	blank2r.bmp	866	1	engstirnig	866	1	!	-1	1	!	-1	0	0	0	0	0	0	0	0	0	0	0	0	0	0	0	0	0	0	0	0	0	0	0	0	0	0	0
040319	11:41:55	11:53:18	681185	5.0.10.0	4_exp_AWA_CON_AMP_EVA	187	Rpleas_acq	Oppo	Rpleas	Amasked	CS_A	2pleas	distractor1	CONbeforeEVA	acq_US_pleas_masked	acq45_masked	5	22	400	1	300	300	0	0	465	46	0	0	0	0	0	1	blank2r.bmp	0	1	+	0	7	C3r.bmp	492	1	blank2r.bmp	786	1	DHJF	786	1	blank2r.bmp	866	4	anregung	866	1	!	1239	1	!	1372	0	0	0	0	0	0	0	0	0	0	0	0	0	0	0	0	0	0	0	0	0	0	0	0	0	0	0
040319	11:41:55	11:53:20	683251	5.0.10.0	4_exp_AWA_CON_AMP_EVA	187	Rpleas_acq	Oppo	Rpleas	Amasked	CS_A	2pleas	distractor1	CONbeforeEVA	acq_US_pleas_masked	acq45_masked	5	23	400	0	300	300	0	0	302	50	0	1	0	0	0	1	blank2r.bmp	0	1	+	0	1	B1r.bmp	492	1	blank2r.bmp	786	1	DHJF	786	1	blank2r.bmp	866	2	genießen	866	1	!	-1	1	!	-1	0	0	0	0	0	0	0	0	0	0	0	0	0	0	0	0	0	0	0	0	0	0	0	0	0	0	0
040319	11:41:55	11:53:22	685410	5.0.10.0	4_exp_AWA_CON_AMP_EVA	187	Rpleas_acq	Oppo	Rpleas	Amasked	CS_A	2pleas	distractor1	CONbeforeEVA	acq_US_pleas_masked	acq45_masked	5	24	400	1	300	300	0	0	349	50	0	1	0	0	0	1	blank2r.bmp	0	1	+	0	6	C2r.bmp	492	1	blank2r.bmp	786	1	DHJF	786	1	blank2r.bmp	866	2	genießen	866	1	!	1239	1	!	1252	0	0	0	0	0	0	0	0	0	0	0	0	0	0	0	0	0	0	0	0	0	0	0	0	0	0	0
040319	11:41:55	11:53:24	687596	5.0.10.0	4_exp_AWA_CON_AMP_EVA	187	Rpleas_acq	Oppo	Rpleas	Amasked	CS_A	2pleas	distractor1	CONbeforeEVA	acq_US_pleas_masked	acq45_masked	5	25	400	1	300	300	0	0	387	50	0	1	0	0	0	1	blank2r.bmp	0	1	+	0	2	B2r.bmp	492	1	blank2r.bmp	786	1	DHJF	786	1	blank2r.bmp	866	6	sonnig	866	1	!	1239	1	!	1292	0	0	0	0	0	0	0	0	0	0	0	0	0	0	0	0	0	0	0	0	0	0	0	0	0	0	0
040319	11:41:55	11:53:26	689688	5.0.10.0	4_exp_AWA_CON_AMP_EVA	187	Rpleas_acq	Oppo	Rpleas	Amasked	CS_A	2pleas	distractor1	CONbeforeEVA	acq_US_unple_masked	acq45_masked	5	26	400	0	300	300	0	0	330	50	0	0	0	0	0	1	blank2r.bmp	0	1	+	0	6	C2r.bmp	492	1	blank2r.bmp	786	1	CPLW	786	1	blank2r.bmp	866	5	krank	866	1	!	-1	1	!	-1	0	0	0	0	0	0	0	0	0	0	0	0	0	0	0	0	0	0	0	0	0	0	0	0	0	0	0
040319	11:41:55	11:53:28	691888	5.0.10.0	4_exp_AWA_CON_AMP_EVA	187	Rpleas_acq	Oppo	Rpleas	Amasked	CS_A	2pleas	distractor1	CONbeforeEVA	acq_US_pleas_masked	acq45_masked	5	27	400	1	300	300	0	0	389	50	0	1	0	0	0	1	blank2r.bmp	0	1	+	0	4	B4r.bmp	492	1	blank2r.bmp	786	1	DHJF	786	1	blank2r.bmp	866	5	kreativ	866	1	!	1239	1	!	1292	0	0	0	0	0	0	0	0	0	0	0	0	0	0	0	0	0	0	0	0	0	0	0	0	0	0	0
040319	11:41:55	11:53:31	693993	5.0.10.0	4_exp_AWA_CON_AMP_EVA	187	Rpleas_acq	Oppo	Rpleas	Amasked	CS_A	2pleas	distractor1	CONbeforeEVA	acq_US_unple_masked	acq45_masked	5	28	400	0	300	300	0	0	333	46	0	1	0	0	0	1	blank2r.bmp	0	1	+	0	3	B3r.bmp	492	1	blank2r.bmp	786	1	CPLW	786	1	blank2r.bmp	866	6	sterben	866	1	!	-1	1	!	-1	0	0	0	0	0	0	0	0	0	0	0	0	0	0	0	0	0	0	0	0	0	0	0	0	0	0	0
040319	11:41:55	11:53:33	696166	5.0.10.0	4_exp_AWA_CON_AMP_EVA	187	Rpleas_acq	Oppo	Rpleas	Amasked	CS_A	2pleas	distractor1	CONbeforeEVA	acq_US_unple_masked	acq45_masked	5	29	400	1	300	300	0	0	371	46	0	1	0	0	0	1	blank2r.bmp	0	1	+	0	1	B1r.bmp	492	1	blank2r.bmp	786	1	CPLW	786	1	blank2r.bmp	866	3	töten	866	1	!	1239	1	!	1266	0	0	0	0	0	0	0	0	0	0	0	0	0	0	0	0	0	0	0	0	0	0	0	0	0	0	0
040319	11:41:55	11:53:35	698245	5.0.10.0	4_exp_AWA_CON_AMP_EVA	187	Rpleas_acq	Oppo	Rpleas	Amasked	CS_A	2pleas	distractor1	CONbeforeEVA	acq_US_unple_masked	acq45_masked	5	30	400	0	300	300	0	0	309	50	0	0	0	0	0	1	blank2r.bmp	0	1	+	0	5	C1r.bmp	492	1	blank2r.bmp	786	1	CPLW	786	1	blank2r.bmp	866	5	krank	866	1	!	-1	1	!	-1	0	0	0	0	0	0	0	0	0	0	0	0	0	0	0	0	0	0	0	0	0	0	0	0	0	0	0
040319	11:41:55	11:53:37	700431	5.0.10.0	4_exp_AWA_CON_AMP_EVA	187	Rpleas_acq	Oppo	Rpleas	Amasked	CS_A	2pleas	distractor1	CONbeforeEVA	acq_US_unple_masked	acq45_masked	5	31	400	1	300	300	0	0	374	50	0	0	0	0	0	1	blank2r.bmp	0	1	+	0	8	C4r.bmp	492	1	blank2r.bmp	786	1	CPLW	786	1	blank2r.bmp	866	2	gemein	866	1	!	1239	1	!	1279	0	0	0	0	0	0	0	0	0	0	0	0	0	0	0	0	0	0	0	0	0	0	0	0	0	0	0
040319	11:41:55	11:53:39	702590	5.0.10.0	4_exp_AWA_CON_AMP_EVA	187	Rpleas_acq	Oppo	Rpleas	Amasked	CS_A	2pleas	distractor1	CONbeforeEVA	acq_US_unple_masked	acq45_masked	5	32	400	1	300	300	0	0	366	46	0	1	0	0	0	1	blank2r.bmp	0	1	+	0	7	C3r.bmp	492	1	blank2r.bmp	786	1	CPLW	786	1	blank2r.bmp	866	4	ausrottung	866	1	!	1239	1	!	1266	0	0	0	0	0	0	0	0	0	0	0	0	0	0	0	0	0	0	0	0	0	0	0	0	0	0	0
040319	11:41:55	11:53:41	704789	5.0.10.0	4_exp_AWA_CON_AMP_EVA	187	Rpleas_acq	Oppo	Rpleas	Amasked	CS_A	2pleas	distractor1	CONbeforeEVA	acq_US_unple_masked	acq45_masked	5	33	400	1	300	300	0	0	408	46	0	1	0	0	0	1	blank2r.bmp	0	1	+	0	4	B4r.bmp	492	1	blank2r.bmp	786	1	CPLW	786	1	blank2r.bmp	866	1	engstirnig	866	1	!	1239	1	!	1306	0	0	0	0	0	0	0	0	0	0	0	0	0	0	0	0	0	0	0	0	0	0	0	0	0	0	0
040319	11:41:55	11:53:44	706961	5.0.10.0	4_exp_AWA_CON_AMP_EVA	187	Rpleas_acq	Oppo	Rpleas	Amasked	CS_A	2pleas	distractor1	CONbeforeEVA	acq_US_pleas_masked	acq45_masked	5	34	400	1	300	300	0	0	373	46	0	0	0	0	0	1	blank2r.bmp	0	1	+	0	3	B3r.bmp	492	1	blank2r.bmp	786	1	DHJF	786	1	blank2r.bmp	866	3	träumen	866	1	!	1239	1	!	1279	0	0	0	0	0	0	0	0	0	0	0	0	0	0	0	0	0	0	0	0	0	0	0	0	0	0	0
040319	11:41:55	11:53:46	709147	5.0.10.0	4_exp_AWA_CON_AMP_EVA	187	Rpleas_acq	Oppo	Rpleas	Amasked	CS_A	2pleas	distractor1	CONbeforeEVA	acq_US_pleas_masked	acq45_masked	5	35	400	1	300	300	0	0	398	46	0	0	0	0	0	1	blank2r.bmp	0	1	+	0	5	C1r.bmp	492	1	blank2r.bmp	786	1	DHJF	786	1	blank2r.bmp	866	1	engagiert	866	1	!	1239	1	!	1292	0	0	0	0	0	0	0	0	0	0	0	0	0	0	0	0	0	0	0	0	0	0	0	0	0	0	0
040319	11:41:55	11:53:48	711373	5.0.10.0	4_exp_AWA_CON_AMP_EVA	187	Rpleas_acq	Oppo	Rpleas	Amasked	CS_A	2pleas	distractor1	CONbeforeEVA	acq_US_pleas_masked	acq45_masked	5	36	400	1	300	300	0	0	418	50	0	1	0	0	0	1	blank2r.bmp	0	1	+	0	8	C4r.bmp	492	1	blank2r.bmp	786	1	DHJF	786	1	blank2r.bmp	866	4	anregung	866	1	!	1239	1	!	1319	0	0	0	0	0	0	0	0	0	0	0	0	0	0	0	0	0	0	0	0	0	0	0	0	0	0	0
040319	11:41:55	11:58:20	983141	5.0.10.0	4_exp_AWA_CON_AMP_EVA	187	Rpleas_acq	Oppo	Lpleas	Amasked	CS_A	2pleas	distractor1	CONbeforeEVA	cond_new_unple_456_masked_CS1	condtest_masked_1	8	1	400	1	300	300	0	0	453	50	0	1	0	0	0	1	blank2r.bmp	0	1	+	0	7	C3r.bmp	492	1	blank2r.bmp	786	1	CPLW	786	1	blank2r.bmp	866	1	verbissen	866	1	!	1239	1	!	1359	0	0	0	0	0	0	0	0	0	0	0	0	0	0	0	0	0	0	0	0	0	0	0	0	0	0	0
040319	11:41:55	11:58:22	985300	5.0.10.0	4_exp_AWA_CON_AMP_EVA	187	Rpleas_acq	Oppo	Lpleas	Amasked	CS_A	2pleas	distractor1	CONbeforeEVA	cond_new_pleas_456_masked_CS2	condtest_masked_1	8	2	400	1	300	300	0	0	361	46	0	1	0	0	0	1	blank2r.bmp	0	1	+	0	2	B2r.bmp	492	1	blank2r.bmp	786	1	DHJF	786	1	blank2r.bmp	866	3	besonnen	866	1	!	1239	1	!	1266	0	0	0	0	0	0	0	0	0	0	0	0	0	0	0	0	0	0	0	0	0	0	0	0	0	0	0
040319	11:41:55	11:58:24	987459	5.0.10.0	4_exp_AWA_CON_AMP_EVA	187	Rpleas_acq	Oppo	Lpleas	Amasked	CS_A	2pleas	distractor1	CONbeforeEVA	cond_US_pleas_123_masked_CS2	condtest_masked_1	8	3	400	1	300	300	0	0	362	46	0	1	0	0	0	1	blank2r.bmp	0	1	+	0	6	C2r.bmp	492	1	blank2r.bmp	786	1	DHJF	786	1	blank2r.bmp	866	2	genießen	866	1	!	1239	1	!	1266	0	0	0	0	0	0	0	0	0	0	0	0	0	0	0	0	0	0	0	0	0	0	0	0	0	0	0
040319	11:41:55	11:58:26	989658	5.0.10.0	4_exp_AWA_CON_AMP_EVA	187	Rpleas_acq	Oppo	Lpleas	Amasked	CS_A	2pleas	distractor1	CONbeforeEVA	cond_US_pleas_123_masked_CS1	condtest_masked_1	8	4	400	1	300	300	0	0	402	50	0	0	0	0	0	1	blank2r.bmp	0	1	+	0	1	B1r.bmp	492	1	blank2r.bmp	786	1	CPLW	786	1	blank2r.bmp	866	1	engagiert	866	1	!	1239	1	!	1306	0	0	0	0	0	0	0	0	0	0	0	0	0	0	0	0	0	0	0	0	0	0	0	0	0	0	0
040319	11:41:55	11:58:28	991751	5.0.10.0	4_exp_AWA_CON_AMP_EVA	187	Rpleas_acq	Oppo	Lpleas	Amasked	CS_A	2pleas	distractor1	CONbeforeEVA	cond_new_pleas_456_masked_CS1	condtest_masked_1	8	5	400	0	300	300	0	0	319	46	0	1	0	0	0	1	blank2r.bmp	0	1	+	0	5	C1r.bmp	492	1	blank2r.bmp	786	1	CPLW	786	1	blank2r.bmp	866	2	vertrauen	866	1	!	-1	1	!	-1	0	0	0	0	0	0	0	0	0	0	0	0	0	0	0	0	0	0	0	0	0	0	0	0	0	0	0
040319	11:41:55	11:58:31	993937	5.0.10.0	4_exp_AWA_CON_AMP_EVA	187	Rpleas_acq	Oppo	Lpleas	Amasked	CS_A	2pleas	distractor1	CONbeforeEVA	cond_US_unple_123_masked_CS1	condtest_masked_1	8	6	400	1	300	300	0	0	375	50	0	1	0	0	0	1	blank2r.bmp	0	1	+	0	8	C4r.bmp	492	1	blank2r.bmp	786	1	CPLW	786	1	blank2r.bmp	866	1	engstirnig	866	1	!	1239	1	!	1279	0	0	0	0	0	0	0	0	0	0	0	0	0	0	0	0	0	0	0	0	0	0	0	0	0	0	0
040319	11:41:55	11:58:33	996029	5.0.10.0	4_exp_AWA_CON_AMP_EVA	187	Rpleas_acq	Oppo	Lpleas	Amasked	CS_A	2pleas	distractor1	CONbeforeEVA	cond_US_unple_123_masked_CS2	condtest_masked_1	8	7	400	0	300	300	0	0	325	46	0	0	0	0	0	1	blank2r.bmp	0	1	+	0	6	C2r.bmp	492	1	blank2r.bmp	786	1	DHJF	786	1	blank2r.bmp	866	2	gemein	866	1	!	-1	1	!	-1	0	0	0	0	0	0	0	0	0	0	0	0	0	0	0	0	0	0	0	0	0	0	0	0	0	0	0
040319	11:41:55	11:58:35	998335	5.0.10.0	4_exp_AWA_CON_AMP_EVA	187	Rpleas_acq	Oppo	Lpleas	Amasked	CS_A	2pleas	distractor1	CONbeforeEVA	cond_new_unple_456_masked_CS2	condtest_masked_1	8	8	400	0	300	300	0	0	526	46	0	0	0	0	0	1	blank2r.bmp	0	1	+	0	2	B2r.bmp	492	1	blank2r.bmp	786	1	DHJF	786	1	blank2r.bmp	866	3	bange	866	1	!	1239	1	!	-1	0	0	0	0	0	0	0	0	0	0	0	0	0	0	0	0	0	0	0	0	0	0	0	0	0	0	0
040319	11:41:55	11:58:55	1018167	5.0.10.0	4_exp_AWA_CON_AMP_EVA	187	Rpleas_acq	Oppo	Lpleas	Amasked	CS_A	2pleas	distractor1	CONbeforeEVA	cond_new_pleas_456_masked_CS2	condtest_masked_2	9	1	400	0	300	300	0	0	573	46	0	1	0	0	0	1	blank2r.bmp	0	1	+	0	1	B1r.bmp	492	1	blank2r.bmp	786	1	DHJF	786	1	blank2r.bmp	866	1	vergnügt	866	1	!	1239	1	!	-1	0	0	0	0	0	0	0	0	0	0	0	0	0	0	0	0	0	0	0	0	0	0	0	0	0	0	0
040319	11:41:55	11:58:57	1020379	5.0.10.0	4_exp_AWA_CON_AMP_EVA	187	Rpleas_acq	Oppo	Lpleas	Amasked	CS_A	2pleas	distractor1	CONbeforeEVA	cond_new_unple_456_masked_CS2	condtest_masked_2	9	2	400	1	300	300	0	0	402	50	0	1	0	0	0	1	blank2r.bmp	0	1	+	0	7	C3r.bmp	492	1	blank2r.bmp	786	1	DHJF	786	1	blank2r.bmp	866	2	versagen	866	1	!	1239	1	!	1306	0	0	0	0	0	0	0	0	0	0	0	0	0	0	0	0	0	0	0	0	0	0	0	0	0	0	0
040319	11:41:55	11:58:59	1022471	5.0.10.0	4_exp_AWA_CON_AMP_EVA	187	Rpleas_acq	Oppo	Lpleas	Amasked	CS_A	2pleas	distractor1	CONbeforeEVA	cond_new_unple_456_masked_CS1	condtest_masked_2	9	3	400	0	300	300	0	0	328	46	0	0	0	0	0	1	blank2r.bmp	0	1	+	0	3	B3r.bmp	492	1	blank2r.bmp	786	1	CPLW	786	1	blank2r.bmp	866	3	bange	866	1	!	-1	1	!	-1	0	0	0	0	0	0	0	0	0	0	0	0	0	0	0	0	0	0	0	0	0	0	0	0	0	0	0
040319	11:41:55	11:59:01	1024564	5.0.10.0	4_exp_AWA_CON_AMP_EVA	187	Rpleas_acq	Oppo	Lpleas	Amasked	CS_A	2pleas	distractor1	CONbeforeEVA	cond_new_pleas_456_masked_CS2	condtest_masked_2	9	4	400	0	300	300	0	0	308	46	0	1	0	0	0	1	blank2r.bmp	0	1	+	0	4	B4r.bmp	492	1	blank2r.bmp	786	1	DHJF	786	1	blank2r.bmp	866	2	vertrauen	866	1	!	-1	1	!	-1	0	0	0	0	0	0	0	0	0	0	0	0	0	0	0	0	0	0	0	0	0	0	0	0	0	0	0
040319	11:41:55	11:59:03	1026736	5.0.10.0	4_exp_AWA_CON_AMP_EVA	187	Rpleas_acq	Oppo	Lpleas	Amasked	CS_A	2pleas	distractor1	CONbeforeEVA	cond_US_pleas_123_masked_CS1	condtest_masked_2	9	5	400	1	300	300	0	0	346	46	0	1	0	0	0	1	blank2r.bmp	0	1	+	0	4	B4r.bmp	492	1	blank2r.bmp	786	1	CPLW	786	1	blank2r.bmp	866	3	träumen	866	1	!	1239	1	!	1252	0	0	0	0	0	0	0	0	0	0	0	0	0	0	0	0	0	0	0	0	0	0	0	0	0	0	0
040319	11:41:55	11:59:05	1028789	5.0.10.0	4_exp_AWA_CON_AMP_EVA	187	Rpleas_acq	Oppo	Lpleas	Amasked	CS_A	2pleas	distractor1	CONbeforeEVA	cond_US_pleas_123_masked_CS1	condtest_masked_2	9	6	400	0	300	300	0	0	285	46	0	1	0	0	0	1	blank2r.bmp	0	1	+	0	7	C3r.bmp	492	1	blank2r.bmp	786	1	CPLW	786	1	blank2r.bmp	866	3	träumen	866	1	!	-1	1	!	-1	0	0	0	0	0	0	0	0	0	0	0	0	0	0	0	0	0	0	0	0	0	0	0	0	0	0	0
040319	11:41:55	11:59:08	1030881	5.0.10.0	4_exp_AWA_CON_AMP_EVA	187	Rpleas_acq	Oppo	Lpleas	Amasked	CS_A	2pleas	distractor1	CONbeforeEVA	cond_US_pleas_123_masked_CS1	condtest_masked_2	9	7	400	0	300	300	0	0	313	50	0	0	0	0	0	1	blank2r.bmp	0	1	+	0	2	B2r.bmp	492	1	blank2r.bmp	786	1	CPLW	786	1	blank2r.bmp	866	1	engagiert	866	1	!	-1	1	!	-1	0	0	0	0	0	0	0	0	0	0	0	0	0	0	0	0	0	0	0	0	0	0	0	0	0	0	0
040319	11:41:55	11:59:10	1032960	5.0.10.0	4_exp_AWA_CON_AMP_EVA	187	Rpleas_acq	Oppo	Lpleas	Amasked	CS_A	2pleas	distractor1	CONbeforeEVA	cond_new_pleas_456_masked_CS1	condtest_masked_2	9	8	400	0	300	300	0	0	304	50	0	0	0	0	0	1	blank2r.bmp	0	1	+	0	8	C4r.bmp	492	1	blank2r.bmp	786	1	CPLW	786	1	blank2r.bmp	866	1	vergnügt	866	1	!	-1	1	!	-1	0	0	0	0	0	0	0	0	0	0	0	0	0	0	0	0	0	0	0	0	0	0	0	0	0	0	0
040319	11:41:55	11:59:12	1035133	5.0.10.0	4_exp_AWA_CON_AMP_EVA	187	Rpleas_acq	Oppo	Lpleas	Amasked	CS_A	2pleas	distractor1	CONbeforeEVA	cond_US_unple_123_masked_CS1	condtest_masked_2	9	9	400	1	300	300	0	0	360	50	0	1	0	0	0	1	blank2r.bmp	0	1	+	0	5	C1r.bmp	492	1	blank2r.bmp	786	1	CPLW	786	1	blank2r.bmp	866	3	töten	866	1	!	1239	1	!	1266	0	0	0	0	0	0	0	0	0	0	0	0	0	0	0	0	0	0	0	0	0	0	0	0	0	0	0
040319	11:41:55	11:59:14	1037225	5.0.10.0	4_exp_AWA_CON_AMP_EVA	187	Rpleas_acq	Oppo	Lpleas	Amasked	CS_A	2pleas	distractor1	CONbeforeEVA	cond_US_unple_123_masked_CS1	condtest_masked_2	9	10	400	0	300	300	0	0	320	46	0	0	0	0	0	1	blank2r.bmp	0	1	+	0	1	B1r.bmp	492	1	blank2r.bmp	786	1	CPLW	786	1	blank2r.bmp	866	2	gemein	866	1	!	-1	1	!	-1	0	0	0	0	0	0	0	0	0	0	0	0	0	0	0	0	0	0	0	0	0	0	0	0	0	0	0
040319	11:41:55	11:59:16	1039384	5.0.10.0	4_exp_AWA_CON_AMP_EVA	187	Rpleas_acq	Oppo	Lpleas	Amasked	CS_A	2pleas	distractor1	CONbeforeEVA	cond_new_unple_456_masked_CS1	condtest_masked_2	9	11	400	1	300	300	0	0	347	46	0	0	0	0	0	1	blank2r.bmp	0	1	+	0	3	B3r.bmp	492	1	blank2r.bmp	786	1	CPLW	786	1	blank2r.bmp	866	2	versagen	866	1	!	1239	1	!	1252	0	0	0	0	0	0	0	0	0	0	0	0	0	0	0	0	0	0	0	0	0	0	0	0	0	0	0
040319	11:41:55	11:59:18	1041437	5.0.10.0	4_exp_AWA_CON_AMP_EVA	187	Rpleas_acq	Oppo	Lpleas	Amasked	CS_A	2pleas	distractor1	CONbeforeEVA	cond_US_pleas_123_masked_CS1	condtest_masked_2	9	12	400	0	300	300	0	0	290	50	0	0	0	0	0	1	blank2r.bmp	0	1	+	0	6	C2r.bmp	492	1	blank2r.bmp	786	1	CPLW	786	1	blank2r.bmp	866	2	genießen	866	1	!	-1	1	!	-1	0	0	0	0	0	0	0	0	0	0	0	0	0	0	0	0	0	0	0	0	0	0	0	0	0	0	0
040319	11:41:55	11:59:20	1043623	5.0.10.0	4_exp_AWA_CON_AMP_EVA	187	Rpleas_acq	Oppo	Lpleas	Amasked	CS_A	2pleas	distractor1	CONbeforeEVA	cond_new_unple_456_masked_CS1	condtest_masked_2	9	13	400	1	300	300	0	0	378	46	0	0	0	0	0	1	blank2r.bmp	0	1	+	0	3	B3r.bmp	492	1	blank2r.bmp	786	1	CPLW	786	1	blank2r.bmp	866	1	verbissen	866	1	!	1239	1	!	1279	0	0	0	0	0	0	0	0	0	0	0	0	0	0	0	0	0	0	0	0	0	0	0	0	0	0	0
040319	11:41:55	11:59:22	1045808	5.0.10.0	4_exp_AWA_CON_AMP_EVA	187	Rpleas_acq	Oppo	Lpleas	Amasked	CS_A	2pleas	distractor1	CONbeforeEVA	cond_new_pleas_456_masked_CS1	condtest_masked_2	9	14	400	1	300	300	0	0	391	46	0	1	0	0	0	1	blank2r.bmp	0	1	+	0	2	B2r.bmp	492	1	blank2r.bmp	786	1	CPLW	786	1	blank2r.bmp	866	3	besonnen	866	1	!	1239	1	!	1292	0	0	0	0	0	0	0	0	0	0	0	0	0	0	0	0	0	0	0	0	0	0	0	0	0	0	0
040319	11:41:55	11:59:25	1047981	5.0.10.0	4_exp_AWA_CON_AMP_EVA	187	Rpleas_acq	Oppo	Lpleas	Amasked	CS_A	2pleas	distractor1	CONbeforeEVA	cond_US_pleas_123_masked_CS2	condtest_masked_2	9	15	400	1	300	300	0	0	368	46	0	1	0	0	0	1	blank2r.bmp	0	1	+	0	1	B1r.bmp	492	1	blank2r.bmp	786	1	DHJF	786	1	blank2r.bmp	866	3	träumen	866	1	!	1239	1	!	1266	0	0	0	0	0	0	0	0	0	0	0	0	0	0	0	0	0	0	0	0	0	0	0	0	0	0	0
040319	11:41:55	11:59:27	1050127	5.0.10.0	4_exp_AWA_CON_AMP_EVA	187	Rpleas_acq	Oppo	Lpleas	Amasked	CS_A	2pleas	distractor1	CONbeforeEVA	cond_US_pleas_123_masked_CS2	condtest_masked_2	9	16	400	1	300	300	0	0	346	46	0	1	0	0	0	1	blank2r.bmp	0	1	+	0	6	C2r.bmp	492	1	blank2r.bmp	786	1	DHJF	786	1	blank2r.bmp	866	2	genießen	866	1	!	1239	1	!	1252	0	0	0	0	0	0	0	0	0	0	0	0	0	0	0	0	0	0	0	0	0	0	0	0	0	0	0
040319	11:41:55	11:59:29	1052206	5.0.10.0	4_exp_AWA_CON_AMP_EVA	187	Rpleas_acq	Oppo	Lpleas	Amasked	CS_A	2pleas	distractor1	CONbeforeEVA	cond_US_pleas_123_masked_CS1	condtest_masked_2	9	17	400	0	300	300	0	0	317	50	0	0	0	0	0	1	blank2r.bmp	0	1	+	0	4	B4r.bmp	492	1	blank2r.bmp	786	1	CPLW	786	1	blank2r.bmp	866	1	engagiert	866	1	!	-1	1	!	-1	0	0	0	0	0	0	0	0	0	0	0	0	0	0	0	0	0	0	0	0	0	0	0	0	0	0	0
040319	11:41:55	11:59:31	1054365	5.0.10.0	4_exp_AWA_CON_AMP_EVA	187	Rpleas_acq	Oppo	Lpleas	Amasked	CS_A	2pleas	distractor1	CONbeforeEVA	cond_new_unple_456_masked_CS1	condtest_masked_2	9	18	400	1	300	300	0	0	356	46	0	0	0	0	0	1	blank2r.bmp	0	1	+	0	8	C4r.bmp	492	1	blank2r.bmp	786	1	CPLW	786	1	blank2r.bmp	866	3	bange	866	1	!	1239	1	!	1252	0	0	0	0	0	0	0	0	0	0	0	0	0	0	0	0	0	0	0	0	0	0	0	0	0	0	0
040319	11:41:55	11:59:33	1056444	5.0.10.0	4_exp_AWA_CON_AMP_EVA	187	Rpleas_acq	Oppo	Lpleas	Amasked	CS_A	2pleas	distractor1	CONbeforeEVA	cond_US_unple_123_masked_CS2	condtest_masked_2	9	19	400	0	300	300	0	0	316	50	0	1	0	0	0	1	blank2r.bmp	0	1	+	0	5	C1r.bmp	492	1	blank2r.bmp	786	1	DHJF	786	1	blank2r.bmp	866	1	engstirnig	866	1	!	-1	1	!	-1	0	0	0	0	0	0	0	0	0	0	0	0	0	0	0	0	0	0	0	0	0	0	0	0	0	0	0
040319	11:41:55	11:59:35	1058657	5.0.10.0	4_exp_AWA_CON_AMP_EVA	187	Rpleas_acq	Oppo	Lpleas	Amasked	CS_A	2pleas	distractor1	CONbeforeEVA	cond_new_unple_456_masked_CS2	condtest_masked_2	9	20	400	1	300	300	0	0	400	50	0	1	0	0	0	1	blank2r.bmp	0	1	+	0	7	C3r.bmp	492	1	blank2r.bmp	786	1	DHJF	786	1	blank2r.bmp	866	2	versagen	866	1	!	1239	1	!	1306	0	0	0	0	0	0	0	0	0	0	0	0	0	0	0	0	0	0	0	0	0	0	0	0	0	0	0
040319	11:41:55	11:59:37	1060802	5.0.10.0	4_exp_AWA_CON_AMP_EVA	187	Rpleas_acq	Oppo	Lpleas	Amasked	CS_A	2pleas	distractor1	CONbeforeEVA	cond_US_pleas_123_masked_CS2	condtest_masked_2	9	21	400	1	300	300	0	0	346	50	0	0	0	0	0	1	blank2r.bmp	0	1	+	0	5	C1r.bmp	492	1	blank2r.bmp	786	1	DHJF	786	1	blank2r.bmp	866	2	genießen	866	1	!	1239	1	!	1252	0	0	0	0	0	0	0	0	0	0	0	0	0	0	0	0	0	0	0	0	0	0	0	0	0	0	0
040319	11:41:55	11:59:40	1062961	5.0.10.0	4_exp_AWA_CON_AMP_EVA	187	Rpleas_acq	Oppo	Lpleas	Amasked	CS_A	2pleas	distractor1	CONbeforeEVA	cond_US_unple_123_masked_CS1	condtest_masked_2	9	22	400	1	300	300	0	0	346	46	0	0	0	0	0	1	blank2r.bmp	0	1	+	0	4	B4r.bmp	492	1	blank2r.bmp	786	1	CPLW	786	1	blank2r.bmp	866	3	töten	866	1	!	1239	1	!	1252	0	0	0	0	0	0	0	0	0	0	0	0	0	0	0	0	0	0	0	0	0	0	0	0	0	0	0
040319	11:41:55	11:59:42	1065121	5.0.10.0	4_exp_AWA_CON_AMP_EVA	187	Rpleas_acq	Oppo	Lpleas	Amasked	CS_A	2pleas	distractor1	CONbeforeEVA	cond_US_pleas_123_masked_CS2	condtest_masked_2	9	23	400	1	300	300	0	0	364	46	0	1	0	0	0	1	blank2r.bmp	0	1	+	0	2	B2r.bmp	492	1	blank2r.bmp	786	1	DHJF	786	1	blank2r.bmp	866	3	träumen	866	1	!	1239	1	!	1266	0	0	0	0	0	0	0	0	0	0	0	0	0	0	0	0	0	0	0	0	0	0	0	0	0	0	0
040319	11:41:55	11:59:44	1067373	5.0.10.0	4_exp_AWA_CON_AMP_EVA	187	Rpleas_acq	Oppo	Lpleas	Amasked	CS_A	2pleas	distractor1	CONbeforeEVA	cond_new_unple_456_masked_CS2	condtest_masked_2	9	24	400	0	300	300	0	0	479	50	0	1	0	0	0	1	blank2r.bmp	0	1	+	0	3	B3r.bmp	492	1	blank2r.bmp	786	1	DHJF	786	1	blank2r.bmp	866	1	verbissen	866	1	!	1239	1	!	-1	0	0	0	0	0	0	0	0	0	0	0	0	0	0	0	0	0	0	0	0	0	0	0	0	0	0	0
040319	11:41:55	11:59:46	1069612	5.0.10.0	4_exp_AWA_CON_AMP_EVA	187	Rpleas_acq	Oppo	Lpleas	Amasked	CS_A	2pleas	distractor1	CONbeforeEVA	cond_new_pleas_456_masked_CS2	condtest_masked_2	9	25	400	1	300	300	0	0	426	46	0	1	0	0	0	1	blank2r.bmp	0	1	+	0	1	B1r.bmp	492	1	blank2r.bmp	786	1	DHJF	786	1	blank2r.bmp	866	1	vergnügt	866	1	!	1239	1	!	1332	0	0	0	0	0	0	0	0	0	0	0	0	0	0	0	0	0	0	0	0	0	0	0	0	0	0	0
040319	11:41:55	11:59:48	1071811	5.0.10.0	4_exp_AWA_CON_AMP_EVA	187	Rpleas_acq	Oppo	Lpleas	Amasked	CS_A	2pleas	distractor1	CONbeforeEVA	cond_US_pleas_123_masked_CS2	condtest_masked_2	9	26	400	1	300	300	0	0	405	50	0	0	0	0	0	1	blank2r.bmp	0	1	+	0	6	C2r.bmp	492	1	blank2r.bmp	786	1	DHJF	786	1	blank2r.bmp	866	1	engagiert	866	1	!	1239	1	!	1306	0	0	0	0	0	0	0	0	0	0	0	0	0	0	0	0	0	0	0	0	0	0	0	0	0	0	0
040319	11:41:55	11:59:51	1074037	5.0.10.0	4_exp_AWA_CON_AMP_EVA	187	Rpleas_acq	Oppo	Lpleas	Amasked	CS_A	2pleas	distractor1	CONbeforeEVA	cond_new_pleas_456_masked_CS2	condtest_masked_2	9	27	400	1	300	300	0	0	428	46	0	1	0	0	0	1	blank2r.bmp	0	1	+	0	8	C4r.bmp	492	1	blank2r.bmp	786	1	DHJF	786	1	blank2r.bmp	866	2	vertrauen	866	1	!	1239	1	!	1332	0	0	0	0	0	0	0	0	0	0	0	0	0	0	0	0	0	0	0	0	0	0	0	0	0	0	0
040319	11:41:55	11:59:53	1076129	5.0.10.0	4_exp_AWA_CON_AMP_EVA	187	Rpleas_acq	Oppo	Lpleas	Amasked	CS_A	2pleas	distractor1	CONbeforeEVA	cond_US_unple_123_masked_CS2	condtest_masked_2	9	28	400	0	300	300	0	0	328	50	0	1	0	0	0	1	blank2r.bmp	0	1	+	0	7	C3r.bmp	492	1	blank2r.bmp	786	1	DHJF	786	1	blank2r.bmp	866	3	töten	866	1	!	-1	1	!	-1	0	0	0	0	0	0	0	0	0	0	0	0	0	0	0	0	0	0	0	0	0	0	0	0	0	0	0
040319	11:41:55	11:59:55	1078328	5.0.10.0	4_exp_AWA_CON_AMP_EVA	187	Rpleas_acq	Oppo	Lpleas	Amasked	CS_A	2pleas	distractor1	CONbeforeEVA	cond_new_unple_456_masked_CS2	condtest_masked_2	9	29	400	1	300	300	0	0	385	46	0	0	0	0	0	1	blank2r.bmp	0	1	+	0	3	B3r.bmp	492	1	blank2r.bmp	786	1	DHJF	786	1	blank2r.bmp	866	1	verbissen	866	1	!	1239	1	!	1292	0	0	0	0	0	0	0	0	0	0	0	0	0	0	0	0	0	0	0	0	0	0	0	0	0	0	0
040319	11:41:55	11:59:57	1080501	5.0.10.0	4_exp_AWA_CON_AMP_EVA	187	Rpleas_acq	Oppo	Lpleas	Amasked	CS_A	2pleas	distractor1	CONbeforeEVA	cond_new_pleas_456_masked_CS1	condtest_masked_2	9	30	400	1	300	300	0	0	374	46	0	1	0	0	0	1	blank2r.bmp	0	1	+	0	5	C1r.bmp	492	1	blank2r.bmp	786	1	CPLW	786	1	blank2r.bmp	866	3	besonnen	866	1	!	1239	1	!	1279	0	0	0	0	0	0	0	0	0	0	0	0	0	0	0	0	0	0	0	0	0	0	0	0	0	0	0
040319	11:41:55	11:59:59	1082700	5.0.10.0	4_exp_AWA_CON_AMP_EVA	187	Rpleas_acq	Oppo	Lpleas	Amasked	CS_A	2pleas	distractor1	CONbeforeEVA	cond_US_unple_123_masked_CS1	condtest_masked_2	9	31	400	1	300	300	0	0	400	50	0	1	0	0	0	1	blank2r.bmp	0	1	+	0	7	C3r.bmp	492	1	blank2r.bmp	786	1	CPLW	786	1	blank2r.bmp	866	1	engstirnig	866	1	!	1239	1	!	1306	0	0	0	0	0	0	0	0	0	0	0	0	0	0	0	0	0	0	0	0	0	0	0	0	0	0	0
040319	11:41:55	12:00:01	1084859	5.0.10.0	4_exp_AWA_CON_AMP_EVA	187	Rpleas_acq	Oppo	Lpleas	Amasked	CS_A	2pleas	distractor1	CONbeforeEVA	cond_US_unple_123_masked_CS2	condtest_masked_2	9	32	400	1	300	300	0	0	371	46	0	0	0	0	0	1	blank2r.bmp	0	1	+	0	2	B2r.bmp	492	1	blank2r.bmp	786	1	DHJF	786	1	blank2r.bmp	866	2	gemein	866	1	!	1239	1	!	1266	0	0	0	0	0	0	0	0	0	0	0	0	0	0	0	0	0	0	0	0	0	0	0	0	0	0	0
040319	11:41:55	12:00:04	1087005	5.0.10.0	4_exp_AWA_CON_AMP_EVA	187	Rpleas_acq	Oppo	Lpleas	Amasked	CS_A	2pleas	distractor1	CONbeforeEVA	cond_new_unple_456_masked_CS1	condtest_masked_2	9	33	400	1	300	300	0	0	346	46	0	0	0	0	0	1	blank2r.bmp	0	1	+	0	4	B4r.bmp	492	1	blank2r.bmp	786	1	CPLW	786	1	blank2r.bmp	866	2	versagen	866	1	!	1239	1	!	1252	0	0	0	0	0	0	0	0	0	0	0	0	0	0	0	0	0	0	0	0	0	0	0	0	0	0	0
040319	11:41:55	12:00:06	1089151	5.0.10.0	4_exp_AWA_CON_AMP_EVA	187	Rpleas_acq	Oppo	Lpleas	Amasked	CS_A	2pleas	distractor1	CONbeforeEVA	cond_new_pleas_456_masked_CS2	condtest_masked_2	9	34	400	1	300	300	0	0	353	50	0	0	0	0	0	1	blank2r.bmp	0	1	+	0	6	C2r.bmp	492	1	blank2r.bmp	786	1	DHJF	786	1	blank2r.bmp	866	3	besonnen	866	1	!	1239	1	!	1252	0	0	0	0	0	0	0	0	0	0	0	0	0	0	0	0	0	0	0	0	0	0	0	0	0	0	0
040319	11:41:55	12:00:08	1091296	5.0.10.0	4_exp_AWA_CON_AMP_EVA	187	Rpleas_acq	Oppo	Lpleas	Amasked	CS_A	2pleas	distractor1	CONbeforeEVA	cond_US_unple_123_masked_CS1	condtest_masked_2	9	35	400	1	300	300	0	0	346	50	0	1	0	0	0	1	blank2r.bmp	0	1	+	0	8	C4r.bmp	492	1	blank2r.bmp	786	1	CPLW	786	1	blank2r.bmp	866	3	töten	866	1	!	1239	1	!	1252	0	0	0	0	0	0	0	0	0	0	0	0	0	0	0	0	0	0	0	0	0	0	0	0	0	0	0
040319	11:41:55	12:00:10	1093442	5.0.10.0	4_exp_AWA_CON_AMP_EVA	187	Rpleas_acq	Oppo	Lpleas	Amasked	CS_A	2pleas	distractor1	CONbeforeEVA	cond_new_pleas_456_masked_CS1	condtest_masked_2	9	36	400	1	300	300	0	0	346	46	0	1	0	0	0	1	blank2r.bmp	0	1	+	0	1	B1r.bmp	492	1	blank2r.bmp	786	1	CPLW	786	1	blank2r.bmp	866	2	vertrauen	866	1	!	1239	1	!	1252	0	0	0	0	0	0	0	0	0	0	0	0	0	0	0	0	0	0	0	0	0	0	0	0	0	0	0
040319	11:41:55	12:00:12	1095628	5.0.10.0	4_exp_AWA_CON_AMP_EVA	187	Rpleas_acq	Oppo	Lpleas	Amasked	CS_A	2pleas	distractor1	CONbeforeEVA	cond_new_pleas_456_masked_CS1	condtest_masked_2	9	37	400	1	300	300	0	0	389	50	0	0	0	0	0	1	blank2r.bmp	0	1	+	0	2	B2r.bmp	492	1	blank2r.bmp	786	1	CPLW	786	1	blank2r.bmp	866	1	vergnügt	866	1	!	1239	1	!	1292	0	0	0	0	0	0	0	0	0	0	0	0	0	0	0	0	0	0	0	0	0	0	0	0	0	0	0
040319	11:41:55	12:00:14	1097800	5.0.10.0	4_exp_AWA_CON_AMP_EVA	187	Rpleas_acq	Oppo	Lpleas	Amasked	CS_A	2pleas	distractor1	CONbeforeEVA	cond_US_unple_123_masked_CS2	condtest_masked_2	9	38	400	1	300	300	0	0	374	46	0	0	0	0	0	1	blank2r.bmp	0	1	+	0	1	B1r.bmp	492	1	blank2r.bmp	786	1	DHJF	786	1	blank2r.bmp	866	2	gemein	866	1	!	1239	1	!	1279	0	0	0	0	0	0	0	0	0	0	0	0	0	0	0	0	0	0	0	0	0	0	0	0	0	0	0
040319	11:41:55	12:00:17	1099946	5.0.10.0	4_exp_AWA_CON_AMP_EVA	187	Rpleas_acq	Oppo	Lpleas	Amasked	CS_A	2pleas	distractor1	CONbeforeEVA	cond_US_unple_123_masked_CS2	condtest_masked_2	9	39	400	1	300	300	0	0	355	50	0	1	0	0	0	1	blank2r.bmp	0	1	+	0	3	B3r.bmp	492	1	blank2r.bmp	786	1	DHJF	786	1	blank2r.bmp	866	1	engstirnig	866	1	!	1239	1	!	1252	0	0	0	0	0	0	0	0	0	0	0	0	0	0	0	0	0	0	0	0	0	0	0	0	0	0	0
040319	11:41:55	12:00:19	1102132	5.0.10.0	4_exp_AWA_CON_AMP_EVA	187	Rpleas_acq	Oppo	Lpleas	Amasked	CS_A	2pleas	distractor1	CONbeforeEVA	cond_new_unple_456_masked_CS2	condtest_masked_2	9	40	400	1	300	300	0	0	389	50	0	1	0	0	0	1	blank2r.bmp	0	1	+	0	6	C2r.bmp	492	1	blank2r.bmp	786	1	DHJF	786	1	blank2r.bmp	866	3	bange	866	1	!	1239	1	!	1292	0	0	0	0	0	0	0	0	0	0	0	0	0	0	0	0	0	0	0	0	0	0	0	0	0	0	0
040319	11:41:55	12:00:39	1122684	5.0.10.0	4_exp_AWA_CON_AMP_EVA	187	Rpleas_acq	Oppo	Lpleas	Amasked	CS_A	2pleas	distractor1	CONbeforeEVA	cond_new_unple_123_masked_CS2	condtest_masked_3	10	1	400	1	300	300	0	0	448	50	0	1	0	0	0	1	blank2r.bmp	0	1	+	0	5	C1r.bmp	492	1	blank2r.bmp	786	1	DHJF	786	1	blank2r.bmp	866	2	gierig	866	1	!	1239	1	!	1346	0	0	0	0	0	0	0	0	0	0	0	0	0	0	0	0	0	0	0	0	0	0	0	0	0	0	0
040319	11:41:55	12:00:41	1124843	5.0.10.0	4_exp_AWA_CON_AMP_EVA	187	Rpleas_acq	Oppo	Lpleas	Amasked	CS_A	2pleas	distractor1	CONbeforeEVA	cond_US_pleas_456_masked_CS2	condtest_masked_3	10	2	400	1	300	300	0	0	365	50	0	0	0	0	0	1	blank2r.bmp	0	1	+	0	8	C4r.bmp	492	1	blank2r.bmp	786	1	DHJF	786	1	blank2r.bmp	866	2	kreativ	866	1	!	1239	1	!	1266	0	0	0	0	0	0	0	0	0	0	0	0	0	0	0	0	0	0	0	0	0	0	0	0	0	0	0
040319	11:41:55	12:00:44	1127015	5.0.10.0	4_exp_AWA_CON_AMP_EVA	187	Rpleas_acq	Oppo	Lpleas	Amasked	CS_A	2pleas	distractor1	CONbeforeEVA	cond_new_unple_123_masked_CS2	condtest_masked_3	10	3	400	1	300	300	0	0	379	50	0	1	0	0	0	1	blank2r.bmp	0	1	+	0	4	B4r.bmp	492	1	blank2r.bmp	786	1	DHJF	786	1	blank2r.bmp	866	3	geizig	866	1	!	1239	1	!	1279	0	0	0	0	0	0	0	0	0	0	0	0	0	0	0	0	0	0	0	0	0	0	0	0	0	0	0
040319	11:41:55	12:00:46	1129214	5.0.10.0	4_exp_AWA_CON_AMP_EVA	187	Rpleas_acq	Oppo	Lpleas	Amasked	CS_A	2pleas	distractor1	CONbeforeEVA	cond_US_unple_456_masked_CS1	condtest_masked_3	10	4	400	1	300	300	0	0	403	46	0	0	0	0	0	1	blank2r.bmp	0	1	+	0	7	C3r.bmp	492	1	blank2r.bmp	786	1	CPLW	786	1	blank2r.bmp	866	2	krank	866	1	!	1239	1	!	1306	0	0	0	0	0	0	0	0	0	0	0	0	0	0	0	0	0	0	0	0	0	0	0	0	0	0	0
040319	11:41:55	12:00:48	1131400	5.0.10.0	4_exp_AWA_CON_AMP_EVA	187	Rpleas_acq	Oppo	Lpleas	Amasked	CS_A	2pleas	distractor1	CONbeforeEVA	cond_US_unple_456_masked_CS2	condtest_masked_3	10	5	400	1	300	300	0	0	396	50	0	1	0	0	0	1	blank2r.bmp	0	1	+	0	2	B2r.bmp	492	1	blank2r.bmp	786	1	DHJF	786	1	blank2r.bmp	866	3	sterben	866	1	!	1239	1	!	1292	0	0	0	0	0	0	0	0	0	0	0	0	0	0	0	0	0	0	0	0	0	0	0	0	0	0	0
040319	11:41:55	12:00:50	1133546	5.0.10.0	4_exp_AWA_CON_AMP_EVA	187	Rpleas_acq	Oppo	Lpleas	Amasked	CS_A	2pleas	distractor1	CONbeforeEVA	cond_new_pleas_123_masked_CS1	condtest_masked_3	10	6	400	1	300	300	0	0	346	46	0	1	0	0	0	1	blank2r.bmp	0	1	+	0	7	C3r.bmp	492	1	blank2r.bmp	786	1	CPLW	786	1	blank2r.bmp	866	2	gütig	866	1	!	1239	1	!	1252	0	0	0	0	0	0	0	0	0	0	0	0	0	0	0	0	0	0	0	0	0	0	0	0	0	0	0
040319	11:41:55	12:00:52	1135718	5.0.10.0	4_exp_AWA_CON_AMP_EVA	187	Rpleas_acq	Oppo	Lpleas	Amasked	CS_A	2pleas	distractor1	CONbeforeEVA	cond_new_unple_123_masked_CS2	condtest_masked_3	10	7	400	1	300	300	0	0	381	46	0	0	0	0	0	1	blank2r.bmp	0	1	+	0	5	C1r.bmp	492	1	blank2r.bmp	786	1	DHJF	786	1	blank2r.bmp	866	1	krise	866	1	!	1239	1	!	1279	0	0	0	0	0	0	0	0	0	0	0	0	0	0	0	0	0	0	0	0	0	0	0	0	0	0	0
040319	11:41:55	12:00:54	1137824	5.0.10.0	4_exp_AWA_CON_AMP_EVA	187	Rpleas_acq	Oppo	Lpleas	Amasked	CS_A	2pleas	distractor1	CONbeforeEVA	cond_new_unple_123_masked_CS1	condtest_masked_3	10	8	400	0	300	300	0	0	333	46	0	0	0	0	0	1	blank2r.bmp	0	1	+	0	1	B1r.bmp	492	1	blank2r.bmp	786	1	CPLW	786	1	blank2r.bmp	866	3	geizig	866	1	!	-1	1	!	-1	0	0	0	0	0	0	0	0	0	0	0	0	0	0	0	0	0	0	0	0	0	0	0	0	0	0	0
040319	11:41:55	12:00:57	1139930	5.0.10.0	4_exp_AWA_CON_AMP_EVA	187	Rpleas_acq	Oppo	Lpleas	Amasked	CS_A	2pleas	distractor1	CONbeforeEVA	cond_US_unple_456_masked_CS1	condtest_masked_3	10	9	400	0	300	300	0	0	325	46	0	0	0	0	0	1	blank2r.bmp	0	1	+	0	8	C4r.bmp	492	1	blank2r.bmp	786	1	CPLW	786	1	blank2r.bmp	866	1	ausrottung	866	1	!	-1	1	!	-1	0	0	0	0	0	0	0	0	0	0	0	0	0	0	0	0	0	0	0	0	0	0	0	0	0	0	0
040319	11:41:55	12:00:59	1142142	5.0.10.0	4_exp_AWA_CON_AMP_EVA	187	Rpleas_acq	Oppo	Lpleas	Amasked	CS_A	2pleas	distractor1	CONbeforeEVA	cond_US_pleas_456_masked_CS2	condtest_masked_3	10	10	400	1	300	300	0	0	402	46	0	1	0	0	0	1	blank2r.bmp	0	1	+	0	4	B4r.bmp	492	1	blank2r.bmp	786	1	DHJF	786	1	blank2r.bmp	866	3	sonnig	866	1	!	1239	1	!	1306	0	0	0	0	0	0	0	0	0	0	0	0	0	0	0	0	0	0	0	0	0	0	0	0	0	0	0
040319	11:41:55	12:01:01	1144315	5.0.10.0	4_exp_AWA_CON_AMP_EVA	187	Rpleas_acq	Oppo	Lpleas	Amasked	CS_A	2pleas	distractor1	CONbeforeEVA	cond_US_unple_456_masked_CS1	condtest_masked_3	10	11	400	1	300	300	0	0	376	46	0	0	0	0	0	1	blank2r.bmp	0	1	+	0	6	C2r.bmp	492	1	blank2r.bmp	786	1	CPLW	786	1	blank2r.bmp	866	2	krank	866	1	!	1239	1	!	1279	0	0	0	0	0	0	0	0	0	0	0	0	0	0	0	0	0	0	0	0	0	0	0	0	0	0	0
040319	11:41:55	12:01:03	1146540	5.0.10.0	4_exp_AWA_CON_AMP_EVA	187	Rpleas_acq	Oppo	Lpleas	Amasked	CS_A	2pleas	distractor1	CONbeforeEVA	cond_US_pleas_456_masked_CS1	condtest_masked_3	10	12	400	1	300	300	0	0	434	50	0	0	0	0	0	1	blank2r.bmp	0	1	+	0	3	B3r.bmp	492	1	blank2r.bmp	786	1	CPLW	786	1	blank2r.bmp	866	1	anregung	866	1	!	1239	1	!	1332	0	0	0	0	0	0	0	0	0	0	0	0	0	0	0	0	0	0	0	0	0	0	0	0	0	0	0
040319	11:41:55	12:01:05	1148779	5.0.10.0	4_exp_AWA_CON_AMP_EVA	187	Rpleas_acq	Oppo	Lpleas	Amasked	CS_A	2pleas	distractor1	CONbeforeEVA	cond_new_unple_123_masked_CS2	condtest_masked_3	10	13	400	1	300	300	0	0	445	50	0	1	0	0	0	1	blank2r.bmp	0	1	+	0	2	B2r.bmp	492	1	blank2r.bmp	786	1	DHJF	786	1	blank2r.bmp	866	2	gierig	866	1	!	1239	1	!	1346	0	0	0	0	0	0	0	0	0	0	0	0	0	0	0	0	0	0	0	0	0	0	0	0	0	0	0
040319	11:41:55	12:01:07	1150872	5.0.10.0	4_exp_AWA_CON_AMP_EVA	187	Rpleas_acq	Oppo	Lpleas	Amasked	CS_A	2pleas	distractor1	CONbeforeEVA	cond_new_pleas_123_masked_CS2	condtest_masked_3	10	14	400	0	300	300	0	0	322	46	0	1	0	0	0	1	blank2r.bmp	0	1	+	0	5	C1r.bmp	492	1	blank2r.bmp	786	1	DHJF	786	1	blank2r.bmp	866	1	kuss	866	1	!	-1	1	!	-1	0	0	0	0	0	0	0	0	0	0	0	0	0	0	0	0	0	0	0	0	0	0	0	0	0	0	0
040319	11:41:55	12:01:10	1153111	5.0.10.0	4_exp_AWA_CON_AMP_EVA	187	Rpleas_acq	Oppo	Lpleas	Amasked	CS_A	2pleas	distractor1	CONbeforeEVA	cond_new_pleas_123_masked_CS2	condtest_masked_3	10	15	400	1	300	300	0	0	426	50	0	0	0	0	0	1	blank2r.bmp	0	1	+	0	4	B4r.bmp	492	1	blank2r.bmp	786	1	DHJF	786	1	blank2r.bmp	866	3	gesittet	866	1	!	1239	1	!	1332	0	0	0	0	0	0	0	0	0	0	0	0	0	0	0	0	0	0	0	0	0	0	0	0	0	0	0
040319	11:41:55	12:01:12	1155283	5.0.10.0	4_exp_AWA_CON_AMP_EVA	187	Rpleas_acq	Oppo	Lpleas	Amasked	CS_A	2pleas	distractor1	CONbeforeEVA	cond_US_unple_456_masked_CS2	condtest_masked_3	10	16	400	1	300	300	0	0	379	50	0	1	0	0	0	1	blank2r.bmp	0	1	+	0	7	C3r.bmp	492	1	blank2r.bmp	786	1	DHJF	786	1	blank2r.bmp	866	1	ausrottung	866	1	!	1239	1	!	1279	0	0	0	0	0	0	0	0	0	0	0	0	0	0	0	0	0	0	0	0	0	0	0	0	0	0	0
040319	11:41:55	12:01:14	1157443	5.0.10.0	4_exp_AWA_CON_AMP_EVA	187	Rpleas_acq	Oppo	Lpleas	Amasked	CS_A	2pleas	distractor1	CONbeforeEVA	cond_US_pleas_456_masked_CS1	condtest_masked_3	10	17	400	1	300	300	0	0	366	50	0	0	0	0	0	1	blank2r.bmp	0	1	+	0	3	B3r.bmp	492	1	blank2r.bmp	786	1	CPLW	786	1	blank2r.bmp	866	2	kreativ	866	1	!	1239	1	!	1266	0	0	0	0	0	0	0	0	0	0	0	0	0	0	0	0	0	0	0	0	0	0	0	0	0	0	0
040319	11:41:55	12:01:16	1159708	5.0.10.0	4_exp_AWA_CON_AMP_EVA	187	Rpleas_acq	Oppo	Lpleas	Amasked	CS_A	2pleas	distractor1	CONbeforeEVA	cond_new_pleas_123_masked_CS2	condtest_masked_3	10	18	400	0	300	300	0	0	479	46	0	1	0	0	0	1	blank2r.bmp	0	1	+	0	6	C2r.bmp	492	1	blank2r.bmp	786	1	DHJF	786	1	blank2r.bmp	866	1	kuss	866	1	!	1239	1	!	-1	0	0	0	0	0	0	0	0	0	0	0	0	0	0	0	0	0	0	0	0	0	0	0	0	0	0	0
040319	11:41:55	12:01:19	1161907	5.0.10.0	4_exp_AWA_CON_AMP_EVA	187	Rpleas_acq	Oppo	Lpleas	Amasked	CS_A	2pleas	distractor1	CONbeforeEVA	cond_US_pleas_456_masked_CS2	condtest_masked_3	10	19	400	1	300	300	0	0	393	46	0	1	0	0	0	1	blank2r.bmp	0	1	+	0	1	B1r.bmp	492	1	blank2r.bmp	786	1	DHJF	786	1	blank2r.bmp	866	3	sonnig	866	1	!	1239	1	!	1292	0	0	0	0	0	0	0	0	0	0	0	0	0	0	0	0	0	0	0	0	0	0	0	0	0	0	0
040319	11:41:55	12:01:21	1164053	5.0.10.0	4_exp_AWA_CON_AMP_EVA	187	Rpleas_acq	Oppo	Lpleas	Amasked	CS_A	2pleas	distractor1	CONbeforeEVA	cond_new_pleas_123_masked_CS1	condtest_masked_3	10	20	400	1	300	300	0	0	346	50	0	0	0	0	0	1	blank2r.bmp	0	1	+	0	8	C4r.bmp	492	1	blank2r.bmp	786	1	CPLW	786	1	blank2r.bmp	866	3	gesittet	866	1	!	1239	1	!	1252	0	0	0	0	0	0	0	0	0	0	0	0	0	0	0	0	0	0	0	0	0	0	0	0	0	0	0
040319	11:41:55	12:01:23	1166306	5.0.10.0	4_exp_AWA_CON_AMP_EVA	187	Rpleas_acq	Oppo	Lpleas	Amasked	CS_A	2pleas	distractor1	CONbeforeEVA	cond_new_pleas_123_masked_CS2	condtest_masked_3	10	21	400	1	300	300	0	0	458	46	0	1	0	0	0	1	blank2r.bmp	0	1	+	0	2	B2r.bmp	492	1	blank2r.bmp	786	1	DHJF	786	1	blank2r.bmp	866	2	gütig	866	1	!	1239	1	!	1359	0	0	0	0	0	0	0	0	0	0	0	0	0	0	0	0	0	0	0	0	0	0	0	0	0	0	0
040319	11:41:55	12:01:25	1168478	5.0.10.0	4_exp_AWA_CON_AMP_EVA	187	Rpleas_acq	Oppo	Lpleas	Amasked	CS_A	2pleas	distractor1	CONbeforeEVA	cond_new_pleas_123_masked_CS1	condtest_masked_3	10	22	400	1	300	300	0	0	372	46	0	1	0	0	0	1	blank2r.bmp	0	1	+	0	1	B1r.bmp	492	1	blank2r.bmp	786	1	CPLW	786	1	blank2r.bmp	866	1	kuss	866	1	!	1239	1	!	1279	0	0	0	0	0	0	0	0	0	0	0	0	0	0	0	0	0	0	0	0	0	0	0	0	0	0	0
040319	11:41:55	12:01:27	1170624	5.0.10.0	4_exp_AWA_CON_AMP_EVA	187	Rpleas_acq	Oppo	Lpleas	Amasked	CS_A	2pleas	distractor1	CONbeforeEVA	cond_US_unple_456_masked_CS1	condtest_masked_3	10	23	400	1	300	300	0	0	351	50	0	1	0	0	0	1	blank2r.bmp	0	1	+	0	3	B3r.bmp	492	1	blank2r.bmp	786	1	CPLW	786	1	blank2r.bmp	866	3	sterben	866	1	!	1239	1	!	1252	0	0	0	0	0	0	0	0	0	0	0	0	0	0	0	0	0	0	0	0	0	0	0	0	0	0	0
040319	11:41:55	12:01:29	1172783	5.0.10.0	4_exp_AWA_CON_AMP_EVA	187	Rpleas_acq	Oppo	Lpleas	Amasked	CS_A	2pleas	distractor1	CONbeforeEVA	cond_new_pleas_123_masked_CS1	condtest_masked_3	10	24	400	1	300	300	0	0	352	46	0	1	0	0	0	1	blank2r.bmp	0	1	+	0	5	C1r.bmp	492	1	blank2r.bmp	786	1	CPLW	786	1	blank2r.bmp	866	2	gütig	866	1	!	1239	1	!	1252	0	0	0	0	0	0	0	0	0	0	0	0	0	0	0	0	0	0	0	0	0	0	0	0	0	0	0
040319	11:41:55	12:01:32	1174995	5.0.10.0	4_exp_AWA_CON_AMP_EVA	187	Rpleas_acq	Oppo	Lpleas	Amasked	CS_A	2pleas	distractor1	CONbeforeEVA	cond_US_pleas_456_masked_CS1	condtest_masked_3	10	25	400	1	300	300	0	0	416	50	0	0	0	0	0	1	blank2r.bmp	0	1	+	0	7	C3r.bmp	492	1	blank2r.bmp	786	1	CPLW	786	1	blank2r.bmp	866	1	anregung	866	1	!	1239	1	!	1319	0	0	0	0	0	0	0	0	0	0	0	0	0	0	0	0	0	0	0	0	0	0	0	0	0	0	0
040319	11:41:55	12:01:34	1177261	5.0.10.0	4_exp_AWA_CON_AMP_EVA	187	Rpleas_acq	Oppo	Lpleas	Amasked	CS_A	2pleas	distractor1	CONbeforeEVA	cond_US_pleas_456_masked_CS1	condtest_masked_3	10	26	400	0	300	300	0	0	497	46	0	1	0	0	0	1	blank2r.bmp	0	1	+	0	8	C4r.bmp	492	1	blank2r.bmp	786	1	CPLW	786	1	blank2r.bmp	866	1	anregung	866	1	!	1239	1	!	-1	0	0	0	0	0	0	0	0	0	0	0	0	0	0	0	0	0	0	0	0	0	0	0	0	0	0	0
040319	11:41:55	12:01:36	1179434	5.0.10.0	4_exp_AWA_CON_AMP_EVA	187	Rpleas_acq	Oppo	Lpleas	Amasked	CS_A	2pleas	distractor1	CONbeforeEVA	cond_US_pleas_456_masked_CS1	condtest_masked_3	10	27	400	1	300	300	0	0	364	46	0	1	0	0	0	1	blank2r.bmp	0	1	+	0	6	C2r.bmp	492	1	blank2r.bmp	786	1	CPLW	786	1	blank2r.bmp	866	3	sonnig	866	1	!	1239	1	!	1266	0	0	0	0	0	0	0	0	0	0	0	0	0	0	0	0	0	0	0	0	0	0	0	0	0	0	0
040319	11:41:55	12:01:38	1181526	5.0.10.0	4_exp_AWA_CON_AMP_EVA	187	Rpleas_acq	Oppo	Lpleas	Amasked	CS_A	2pleas	distractor1	CONbeforeEVA	cond_new_unple_123_masked_CS1	condtest_masked_3	10	28	400	0	300	300	0	0	320	50	0	1	0	0	0	1	blank2r.bmp	0	1	+	0	4	B4r.bmp	492	1	blank2r.bmp	786	1	CPLW	786	1	blank2r.bmp	866	1	krise	866	1	!	-1	1	!	-1	0	0	0	0	0	0	0	0	0	0	0	0	0	0	0	0	0	0	0	0	0	0	0	0	0	0	0
040319	11:41:55	12:01:40	1183685	5.0.10.0	4_exp_AWA_CON_AMP_EVA	187	Rpleas_acq	Oppo	Lpleas	Amasked	CS_A	2pleas	distractor1	CONbeforeEVA	cond_US_unple_456_masked_CS2	condtest_masked_3	10	29	400	1	300	300	0	0	348	46	0	0	0	0	0	1	blank2r.bmp	0	1	+	0	6	C2r.bmp	492	1	blank2r.bmp	786	1	DHJF	786	1	blank2r.bmp	866	1	ausrottung	866	1	!	1239	1	!	1252	0	0	0	0	0	0	0	0	0	0	0	0	0	0	0	0	0	0	0	0	0	0	0	0	0	0	0
040319	11:41:55	12:01:42	1185831	5.0.10.0	4_exp_AWA_CON_AMP_EVA	187	Rpleas_acq	Oppo	Lpleas	Amasked	CS_A	2pleas	distractor1	CONbeforeEVA	cond_US_pleas_456_masked_CS1	condtest_masked_3	10	30	400	1	300	300	0	0	346	50	0	0	0	0	0	1	blank2r.bmp	0	1	+	0	7	C3r.bmp	492	1	blank2r.bmp	786	1	CPLW	786	1	blank2r.bmp	866	2	kreativ	866	1	!	1239	1	!	1252	0	0	0	0	0	0	0	0	0	0	0	0	0	0	0	0	0	0	0	0	0	0	0	0	0	0	0
