date	time	script.currenttime	script.elapsedtime	build	script.currentexpt	subject	expressions.LRpleas_acq	expressions.SameOppo	expressions.condition_Lpleas	expressions.ABmasked	expressions.conditionCS_A	expressions.condition_1pleas	expressions.condition_distractor_AMP	expressions.AWACON_AMPEVA_first	trialcode	blockcode	blocknum	trialnum	windowcenter	inwindow	pretrialpause	posttrialpause	trialduration	trialtimeout	latency	response	expressions.correctedscore	correct	values.vis_performance	values.vis_rating_sum	values.vis_rating_mean	stimulusnumber1	stimulusitem1	stimulusonset1	stimulusnumber2	stimulusitem2	stimulusonset2	stimulusnumber3	stimulusitem3	stimulusonset3	stimulusnumber4	stimulusitem4	stimulusonset4	stimulusnumber5	stimulusitem5	stimulusonset5	stimulusnumber6	stimulusitem6	stimulusonset6	stimulusnumber7	stimulusitem7	stimulusonset7	stimulusnumber8	stimulusitem8	stimulusonset8	stimulusnumber9	stimulusitem9	stimulusonset9	stimulusnumber10	stimulusitem10	stimulusonset10	stimulusnumber11	stimulusitem11	stimulusonset11	stimulusnumber12	stimulusitem12	stimulusonset12	stimulusnumber13	stimulusitem13	stimulusonset13	stimulusnumber14	stimulusitem14	stimulusonset14	stimulusnumber15	stimulusitem15	stimulusonset15	stimulusnumber16	stimulusitem16	stimulusonset16	stimulusnumber17	stimulusitem17	stimulusonset17	stimulusnumber18	stimulusitem18	stimulusonset18
022719	10:22:04	10:23:37	92601	5.0.10.0	4_exp_AMP_EVA_AWA_CON	140	Rpleas_acq	Same	Rpleas	Amasked	CS_A	2pleas	distractor2	EVAbeforeCON	acq_US_unple_masked	acq1_masked	1	1	0	0	300	300	0	0	2090	46	0	1	0	0	0	1	blank2r.bmp	0	1	+	0	5	C1r.bmp	492	1	blank2r.bmp	786	1	CPLW	786	1	blank2r.bmp	866	1	geizig	866	0	0	0	0	0	0	0	0	0	0	0	0	0	0	0	0	0	0	0	0	0	0	0	0	0	0	0	0	0	0	0	0	0
022719	10:22:04	10:23:39	94787	5.0.10.0	4_exp_AMP_EVA_AWA_CON	140	Rpleas_acq	Same	Rpleas	Amasked	CS_A	2pleas	distractor2	EVAbeforeCON	acq_US_pleas_masked	acq1_masked	1	2	0	0	300	300	0	0	699	50	0	1	0	0	0	1	blank2r.bmp	0	1	+	0	1	B1r.bmp	492	1	blank2r.bmp	786	1	DHJF	786	1	blank2r.bmp	866	5	kuss	866	0	0	0	0	0	0	0	0	0	0	0	0	0	0	0	0	0	0	0	0	0	0	0	0	0	0	0	0	0	0	0	0	0
022719	10:22:04	10:23:42	97093	5.0.10.0	4_exp_AMP_EVA_AWA_CON	140	Rpleas_acq	Same	Rpleas	Amasked	CS_A	2pleas	distractor2	EVAbeforeCON	acq_new_unple_masked	acq1_masked	1	3	0	0	300	300	0	0	814	46	0	1	0	0	0	1	blank2r.bmp	0	1	+	0	4	B4r.bmp	492	1	blank2r.bmp	786	6	C2r.bmp	786	1	blank2r.bmp	866	2	ausrottung	866	0	0	0	0	0	0	0	0	0	0	0	0	0	0	0	0	0	0	0	0	0	0	0	0	0	0	0	0	0	0	0	0	0
022719	10:22:04	10:23:44	99078	5.0.10.0	4_exp_AMP_EVA_AWA_CON	140	Rpleas_acq	Same	Rpleas	Amasked	CS_A	2pleas	distractor2	EVAbeforeCON	acq_new_unple_masked	acq1_masked	1	4	0	0	300	300	0	0	505	46	0	1	0	0	0	1	blank2r.bmp	0	1	+	0	6	C2r.bmp	492	1	blank2r.bmp	786	7	C3r.bmp	786	1	blank2r.bmp	866	6	bange	866	0	0	0	0	0	0	0	0	0	0	0	0	0	0	0	0	0	0	0	0	0	0	0	0	0	0	0	0	0	0	0	0	0
022719	10:22:04	10:23:46	101091	5.0.10.0	4_exp_AMP_EVA_AWA_CON	140	Rpleas_acq	Same	Rpleas	Amasked	CS_A	2pleas	distractor2	EVAbeforeCON	acq_US_pleas_masked	acq1_masked	1	5	0	0	300	300	0	0	522	50	0	1	0	0	0	1	blank2r.bmp	0	1	+	0	8	C4r.bmp	492	1	blank2r.bmp	786	1	DHJF	786	1	blank2r.bmp	866	1	gesittet	866	0	0	0	0	0	0	0	0	0	0	0	0	0	0	0	0	0	0	0	0	0	0	0	0	0	0	0	0	0	0	0	0	0
022719	10:22:04	10:23:48	103064	5.0.10.0	4_exp_AMP_EVA_AWA_CON	140	Rpleas_acq	Same	Rpleas	Amasked	CS_A	2pleas	distractor2	EVAbeforeCON	acq_new_pleas_masked	acq1_masked	1	6	0	0	300	300	0	0	488	50	0	1	0	0	0	1	blank2r.bmp	0	1	+	0	2	B2r.bmp	492	1	blank2r.bmp	786	8	C4r.bmp	786	1	blank2r.bmp	866	6	besonnen	866	0	0	0	0	0	0	0	0	0	0	0	0	0	0	0	0	0	0	0	0	0	0	0	0	0	0	0	0	0	0	0	0	0
022719	10:22:04	10:23:50	105223	5.0.10.0	4_exp_AMP_EVA_AWA_CON	140	Rpleas_acq	Same	Rpleas	Amasked	CS_A	2pleas	distractor2	EVAbeforeCON	acq_US_unple_masked	acq1_masked	1	7	0	0	300	300	0	0	461	50	0	0	0	0	0	1	blank2r.bmp	0	1	+	0	7	C3r.bmp	492	1	blank2r.bmp	786	1	CPLW	786	1	blank2r.bmp	866	3	engstirnig	866	1	FEHLER	1359	0	0	0	0	0	0	0	0	0	0	0	0	0	0	0	0	0	0	0	0	0	0	0	0	0	0	0	0	0	0
022719	10:22:04	10:23:52	107422	5.0.10.0	4_exp_AMP_EVA_AWA_CON	140	Rpleas_acq	Same	Rpleas	Amasked	CS_A	2pleas	distractor2	EVAbeforeCON	acq_US_pleas_masked	acq1_masked	1	8	0	0	300	300	0	0	935	50	0	1	0	0	0	1	blank2r.bmp	0	1	+	0	3	B3r.bmp	492	1	blank2r.bmp	786	1	DHJF	786	1	blank2r.bmp	866	3	engagiert	866	0	0	0	0	0	0	0	0	0	0	0	0	0	0	0	0	0	0	0	0	0	0	0	0	0	0	0	0	0	0	0	0	0
022719	10:22:04	10:23:54	109528	5.0.10.0	4_exp_AMP_EVA_AWA_CON	140	Rpleas_acq	Same	Rpleas	Amasked	CS_A	2pleas	distractor2	EVAbeforeCON	acq_new_pleas_masked	acq1_masked	1	9	0	0	300	300	0	0	619	50	0	1	0	0	0	1	blank2r.bmp	0	1	+	0	7	C3r.bmp	492	1	blank2r.bmp	786	2	B2r.bmp	786	1	blank2r.bmp	866	4	kreativ	866	0	0	0	0	0	0	0	0	0	0	0	0	0	0	0	0	0	0	0	0	0	0	0	0	0	0	0	0	0	0	0	0	0
022719	10:22:04	10:23:56	111460	5.0.10.0	4_exp_AMP_EVA_AWA_CON	140	Rpleas_acq	Same	Rpleas	Amasked	CS_A	2pleas	distractor2	EVAbeforeCON	acq_new_pleas_masked	acq1_masked	1	10	0	0	300	300	0	0	443	50	0	1	0	0	0	1	blank2r.bmp	0	1	+	0	3	B3r.bmp	492	1	blank2r.bmp	786	4	B4r.bmp	786	1	blank2r.bmp	866	1	gütig	866	0	0	0	0	0	0	0	0	0	0	0	0	0	0	0	0	0	0	0	0	0	0	0	0	0	0	0	0	0	0	0	0	0
022719	10:22:04	10:23:58	113633	5.0.10.0	4_exp_AMP_EVA_AWA_CON	140	Rpleas_acq	Same	Rpleas	Amasked	CS_A	2pleas	distractor2	EVAbeforeCON	acq_new_unple_masked	acq1_masked	1	11	0	0	300	300	0	0	685	46	0	1	0	0	0	1	blank2r.bmp	0	1	+	0	8	C4r.bmp	492	1	blank2r.bmp	786	1	B1r.bmp	786	1	blank2r.bmp	866	1	gierig	866	0	0	0	0	0	0	0	0	0	0	0	0	0	0	0	0	0	0	0	0	0	0	0	0	0	0	0	0	0	0	0	0	0
022719	10:22:04	10:24:00	115658	5.0.10.0	4_exp_AMP_EVA_AWA_CON	140	Rpleas_acq	Same	Rpleas	Amasked	CS_A	2pleas	distractor2	EVAbeforeCON	acq_US_unple_masked	acq1_masked	1	12	0	0	300	300	0	0	536	46	0	1	0	0	0	1	blank2r.bmp	0	1	+	0	6	C2r.bmp	492	1	blank2r.bmp	786	1	CPLW	786	1	blank2r.bmp	866	2	versagen	866	0	0	0	0	0	0	0	0	0	0	0	0	0	0	0	0	0	0	0	0	0	0	0	0	0	0	0	0	0	0	0	0	0
022719	10:22:04	10:24:02	117591	5.0.10.0	4_exp_AMP_EVA_AWA_CON	140	Rpleas_acq	Same	Rpleas	Amasked	CS_A	2pleas	distractor2	EVAbeforeCON	acq_US_unple_masked	acq1_masked	1	13	0	0	300	300	0	0	448	46	0	1	0	0	0	1	blank2r.bmp	0	1	+	0	4	B4r.bmp	492	1	blank2r.bmp	786	1	CPLW	786	1	blank2r.bmp	866	6	töten	866	0	0	0	0	0	0	0	0	0	0	0	0	0	0	0	0	0	0	0	0	0	0	0	0	0	0	0	0	0	0	0	0	0
022719	10:22:04	10:24:04	119617	5.0.10.0	4_exp_AMP_EVA_AWA_CON	140	Rpleas_acq	Same	Rpleas	Amasked	CS_A	2pleas	distractor2	EVAbeforeCON	acq_US_pleas_masked	acq1_masked	1	14	0	0	300	300	0	0	542	50	0	1	0	0	0	1	blank2r.bmp	0	1	+	0	2	B2r.bmp	492	1	blank2r.bmp	786	1	DHJF	786	1	blank2r.bmp	866	4	vergnügt	866	0	0	0	0	0	0	0	0	0	0	0	0	0	0	0	0	0	0	0	0	0	0	0	0	0	0	0	0	0	0	0	0	0
022719	10:22:04	10:24:06	121856	5.0.10.0	4_exp_AMP_EVA_AWA_CON	140	Rpleas_acq	Same	Rpleas	Amasked	CS_A	2pleas	distractor2	EVAbeforeCON	acq_new_pleas_masked	acq1_masked	1	15	0	0	300	300	0	0	542	46	0	0	0	0	0	1	blank2r.bmp	0	1	+	0	1	B1r.bmp	492	1	blank2r.bmp	786	5	C1r.bmp	786	1	blank2r.bmp	866	5	sonnig	866	1	FEHLER	1439	0	0	0	0	0	0	0	0	0	0	0	0	0	0	0	0	0	0	0	0	0	0	0	0	0	0	0	0	0	0
022719	10:22:04	10:24:08	123882	5.0.10.0	4_exp_AMP_EVA_AWA_CON	140	Rpleas_acq	Same	Rpleas	Amasked	CS_A	2pleas	distractor2	EVAbeforeCON	acq_US_unple_masked	acq1_masked	1	16	0	0	300	300	0	0	534	50	0	0	0	0	0	1	blank2r.bmp	0	1	+	0	5	C1r.bmp	492	1	blank2r.bmp	786	1	CPLW	786	1	blank2r.bmp	866	4	verbissen	866	1	FEHLER	1439	0	0	0	0	0	0	0	0	0	0	0	0	0	0	0	0	0	0	0	0	0	0	0	0	0	0	0	0	0	0
022719	10:22:04	10:24:10	125868	5.0.10.0	4_exp_AMP_EVA_AWA_CON	140	Rpleas_acq	Same	Rpleas	Amasked	CS_A	2pleas	distractor2	EVAbeforeCON	acq_new_unple_masked	acq1_masked	1	17	0	0	300	300	0	0	730	46	0	1	0	0	0	1	blank2r.bmp	0	1	+	0	7	C3r.bmp	492	1	blank2r.bmp	786	3	B3r.bmp	786	1	blank2r.bmp	866	3	gemein	866	0	0	0	0	0	0	0	0	0	0	0	0	0	0	0	0	0	0	0	0	0	0	0	0	0	0	0	0	0	0	0	0	0
022719	10:22:04	10:24:13	128653	5.0.10.0	4_exp_AMP_EVA_AWA_CON	140	Rpleas_acq	Same	Rpleas	Amasked	CS_A	2pleas	distractor2	EVAbeforeCON	acq_new_unple_masked	acq1_masked	1	18	0	0	300	300	0	0	1281	46	0	1	0	0	0	1	blank2r.bmp	0	1	+	0	2	B2r.bmp	492	1	blank2r.bmp	786	4	B4r.bmp	786	1	blank2r.bmp	866	5	sterben	866	0	0	0	0	0	0	0	0	0	0	0	0	0	0	0	0	0	0	0	0	0	0	0	0	0	0	0	0	0	0	0	0	0
022719	10:22:04	10:24:15	130785	5.0.10.0	4_exp_AMP_EVA_AWA_CON	140	Rpleas_acq	Same	Rpleas	Amasked	CS_A	2pleas	distractor2	EVAbeforeCON	acq_new_pleas_masked	acq1_masked	1	19	0	0	300	300	0	0	641	50	0	1	0	0	0	1	blank2r.bmp	0	1	+	0	1	B1r.bmp	492	1	blank2r.bmp	786	5	C1r.bmp	786	1	blank2r.bmp	866	2	anregung	866	0	0	0	0	0	0	0	0	0	0	0	0	0	0	0	0	0	0	0	0	0	0	0	0	0	0	0	0	0	0	0	0	0
022719	10:22:04	10:24:17	132678	5.0.10.0	4_exp_AMP_EVA_AWA_CON	140	Rpleas_acq	Same	Rpleas	Amasked	CS_A	2pleas	distractor2	EVAbeforeCON	acq_US_unple_masked	acq1_masked	1	20	0	0	300	300	0	0	424	46	0	1	0	0	0	1	blank2r.bmp	0	1	+	0	8	C4r.bmp	492	1	blank2r.bmp	786	1	CPLW	786	1	blank2r.bmp	866	5	krise	866	0	0	0	0	0	0	0	0	0	0	0	0	0	0	0	0	0	0	0	0	0	0	0	0	0	0	0	0	0	0	0	0	0
022719	10:22:04	10:24:19	134757	5.0.10.0	4_exp_AMP_EVA_AWA_CON	140	Rpleas_acq	Same	Rpleas	Amasked	CS_A	2pleas	distractor2	EVAbeforeCON	acq_US_pleas_masked	acq1_masked	1	21	0	0	300	300	0	0	592	50	0	1	0	0	0	1	blank2r.bmp	0	1	+	0	4	B4r.bmp	492	1	blank2r.bmp	786	1	DHJF	786	1	blank2r.bmp	866	6	träumen	866	0	0	0	0	0	0	0	0	0	0	0	0	0	0	0	0	0	0	0	0	0	0	0	0	0	0	0	0	0	0	0	0	0
022719	10:22:04	10:24:21	136890	5.0.10.0	4_exp_AMP_EVA_AWA_CON	140	Rpleas_acq	Same	Rpleas	Amasked	CS_A	2pleas	distractor2	EVAbeforeCON	acq_new_pleas_masked	acq1_masked	1	22	0	0	300	300	0	0	641	50	0	1	0	0	0	1	blank2r.bmp	0	1	+	0	3	B3r.bmp	492	1	blank2r.bmp	786	1	B1r.bmp	786	1	blank2r.bmp	866	3	genießen	866	0	0	0	0	0	0	0	0	0	0	0	0	0	0	0	0	0	0	0	0	0	0	0	0	0	0	0	0	0	0	0	0	0
022719	10:22:04	10:24:24	139462	5.0.10.0	4_exp_AMP_EVA_AWA_CON	140	Rpleas_acq	Same	Rpleas	Amasked	CS_A	2pleas	distractor2	EVAbeforeCON	acq_US_pleas_masked	acq1_masked	1	23	0	0	300	300	0	0	1091	50	0	1	0	0	0	1	blank2r.bmp	0	1	+	0	6	C2r.bmp	492	1	blank2r.bmp	786	1	DHJF	786	1	blank2r.bmp	866	2	vertrauen	866	0	0	0	0	0	0	0	0	0	0	0	0	0	0	0	0	0	0	0	0	0	0	0	0	0	0	0	0	0	0	0	0	0
022719	10:22:04	10:24:26	141434	5.0.10.0	4_exp_AMP_EVA_AWA_CON	140	Rpleas_acq	Same	Rpleas	Amasked	CS_A	2pleas	distractor2	EVAbeforeCON	acq_new_unple_masked	acq1_masked	1	24	0	0	300	300	0	0	496	46	0	1	0	0	0	1	blank2r.bmp	0	1	+	0	5	C1r.bmp	492	1	blank2r.bmp	786	3	B3r.bmp	786	1	blank2r.bmp	866	4	krank	866	0	0	0	0	0	0	0	0	0	0	0	0	0	0	0	0	0	0	0	0	0	0	0	0	0	0	0	0	0	0	0	0	0
022719	10:22:04	10:24:28	143354	5.0.10.0	4_exp_AMP_EVA_AWA_CON	140	Rpleas_acq	Same	Rpleas	Amasked	CS_A	2pleas	distractor2	EVAbeforeCON	acq_US_unple_masked	acq1_masked	1	25	0	0	300	300	0	0	443	46	0	1	0	0	0	1	blank2r.bmp	0	1	+	0	6	C2r.bmp	492	1	blank2r.bmp	786	1	CPLW	786	1	blank2r.bmp	866	5	krise	866	0	0	0	0	0	0	0	0	0	0	0	0	0	0	0	0	0	0	0	0	0	0	0	0	0	0	0	0	0	0	0	0	0
022719	10:22:04	10:24:30	145633	5.0.10.0	4_exp_AMP_EVA_AWA_CON	140	Rpleas_acq	Same	Rpleas	Amasked	CS_A	2pleas	distractor2	EVAbeforeCON	acq_new_pleas_masked	acq1_masked	1	26	0	0	300	300	0	0	805	50	0	1	0	0	0	1	blank2r.bmp	0	1	+	0	2	B2r.bmp	492	1	blank2r.bmp	786	8	C4r.bmp	786	1	blank2r.bmp	866	6	besonnen	866	0	0	0	0	0	0	0	0	0	0	0	0	0	0	0	0	0	0	0	0	0	0	0	0	0	0	0	0	0	0	0	0	0
022719	10:22:04	10:24:32	147818	5.0.10.0	4_exp_AMP_EVA_AWA_CON	140	Rpleas_acq	Same	Rpleas	Amasked	CS_A	2pleas	distractor2	EVAbeforeCON	acq_US_pleas_masked	acq1_masked	1	27	0	0	300	300	0	0	495	46	0	0	0	0	0	1	blank2r.bmp	0	1	+	0	3	B3r.bmp	492	1	blank2r.bmp	786	1	DHJF	786	1	blank2r.bmp	866	2	vertrauen	866	1	FEHLER	1399	0	0	0	0	0	0	0	0	0	0	0	0	0	0	0	0	0	0	0	0	0	0	0	0	0	0	0	0	0	0
022719	10:22:04	10:24:34	149578	5.0.10.0	4_exp_AMP_EVA_AWA_CON	140	Rpleas_acq	Same	Rpleas	Amasked	CS_A	2pleas	distractor2	EVAbeforeCON	acq_new_unple_masked	acq1_masked	1	28	0	0	300	300	0	0	502	46	0	1	0	0	0	1	blank2r.bmp	0	1	+	0	7	C3r.bmp	492	1	blank2r.bmp	786	2	B2r.bmp	786	1	blank2r.bmp	866	6	bange	866	0	0	0	0	0	0	0	0	0	0	0	0	0	0	0	0	0	0	0	0	0	0	0	0	0	0	0	0	0	0	0	0	0
022719	10:22:04	10:24:36	151564	5.0.10.0	4_exp_AMP_EVA_AWA_CON	140	Rpleas_acq	Same	Rpleas	Amasked	CS_A	2pleas	distractor2	EVAbeforeCON	acq_US_unple_masked	acq1_masked	1	29	0	0	300	300	0	0	505	46	0	1	0	0	0	1	blank2r.bmp	0	1	+	0	5	C1r.bmp	492	1	blank2r.bmp	786	1	CPLW	786	1	blank2r.bmp	866	2	versagen	866	0	0	0	0	0	0	0	0	0	0	0	0	0	0	0	0	0	0	0	0	0	0	0	0	0	0	0	0	0	0	0	0	0
022719	10:22:04	10:24:38	153763	5.0.10.0	4_exp_AMP_EVA_AWA_CON	140	Rpleas_acq	Same	Rpleas	Amasked	CS_A	2pleas	distractor2	EVAbeforeCON	acq_new_unple_masked	acq1_masked	1	30	0	0	300	300	0	0	724	46	0	1	0	0	0	1	blank2r.bmp	0	1	+	0	8	C4r.bmp	492	1	blank2r.bmp	786	7	C3r.bmp	786	1	blank2r.bmp	866	3	gemein	866	0	0	0	0	0	0	0	0	0	0	0	0	0	0	0	0	0	0	0	0	0	0	0	0	0	0	0	0	0	0	0	0	0
022719	10:22:04	10:24:40	155869	5.0.10.0	4_exp_AMP_EVA_AWA_CON	140	Rpleas_acq	Same	Rpleas	Amasked	CS_A	2pleas	distractor2	EVAbeforeCON	acq_new_pleas_masked	acq1_masked	1	31	0	0	300	300	0	0	419	46	0	0	0	0	0	1	blank2r.bmp	0	1	+	0	1	B1r.bmp	492	1	blank2r.bmp	786	6	C2r.bmp	786	1	blank2r.bmp	866	3	genießen	866	1	FEHLER	1319	0	0	0	0	0	0	0	0	0	0	0	0	0	0	0	0	0	0	0	0	0	0	0	0	0	0	0	0	0	0
022719	10:22:04	10:24:42	157921	5.0.10.0	4_exp_AMP_EVA_AWA_CON	140	Rpleas_acq	Same	Rpleas	Amasked	CS_A	2pleas	distractor2	EVAbeforeCON	acq_new_pleas_masked	acq1_masked	1	32	0	0	300	300	0	0	779	50	0	1	0	0	0	1	blank2r.bmp	0	1	+	0	4	B4r.bmp	492	1	blank2r.bmp	786	5	C1r.bmp	786	1	blank2r.bmp	866	2	anregung	866	0	0	0	0	0	0	0	0	0	0	0	0	0	0	0	0	0	0	0	0	0	0	0	0	0	0	0	0	0	0	0	0	0
022719	10:22:04	10:24:44	159827	5.0.10.0	4_exp_AMP_EVA_AWA_CON	140	Rpleas_acq	Same	Rpleas	Amasked	CS_A	2pleas	distractor2	EVAbeforeCON	acq_new_unple_masked	acq1_masked	1	33	0	0	300	300	0	0	423	46	0	1	0	0	0	1	blank2r.bmp	0	1	+	0	8	C4r.bmp	492	1	blank2r.bmp	786	7	C3r.bmp	786	1	blank2r.bmp	866	1	gierig	866	0	0	0	0	0	0	0	0	0	0	0	0	0	0	0	0	0	0	0	0	0	0	0	0	0	0	0	0	0	0	0	0	0
022719	10:22:04	10:24:46	161799	5.0.10.0	4_exp_AMP_EVA_AWA_CON	140	Rpleas_acq	Same	Rpleas	Amasked	CS_A	2pleas	distractor2	EVAbeforeCON	acq_US_pleas_masked	acq1_masked	1	34	0	0	300	300	0	0	496	50	0	1	0	0	0	1	blank2r.bmp	0	1	+	0	1	B1r.bmp	492	1	blank2r.bmp	786	1	DHJF	786	1	blank2r.bmp	866	3	engagiert	866	0	0	0	0	0	0	0	0	0	0	0	0	0	0	0	0	0	0	0	0	0	0	0	0	0	0	0	0	0	0	0	0	0
022719	10:22:04	10:24:48	163745	5.0.10.0	4_exp_AMP_EVA_AWA_CON	140	Rpleas_acq	Same	Rpleas	Amasked	CS_A	2pleas	distractor2	EVAbeforeCON	acq_US_unple_masked	acq1_masked	1	35	0	0	300	300	0	0	469	46	0	1	0	0	0	1	blank2r.bmp	0	1	+	0	3	B3r.bmp	492	1	blank2r.bmp	786	1	CPLW	786	1	blank2r.bmp	866	6	töten	866	0	0	0	0	0	0	0	0	0	0	0	0	0	0	0	0	0	0	0	0	0	0	0	0	0	0	0	0	0	0	0	0	0
022719	10:22:04	10:24:50	165664	5.0.10.0	4_exp_AMP_EVA_AWA_CON	140	Rpleas_acq	Same	Rpleas	Amasked	CS_A	2pleas	distractor2	EVAbeforeCON	acq_US_pleas_masked	acq1_masked	1	36	0	0	300	300	0	0	438	50	0	1	0	0	0	1	blank2r.bmp	0	1	+	0	4	B4r.bmp	492	1	blank2r.bmp	786	1	DHJF	786	1	blank2r.bmp	866	4	vergnügt	866	0	0	0	0	0	0	0	0	0	0	0	0	0	0	0	0	0	0	0	0	0	0	0	0	0	0	0	0	0	0	0	0	0
022719	10:22:04	10:25:23	198718	5.0.10.0	4_exp_AMP_EVA_AWA_CON	140	Rpleas_acq	Same	Rpleas	Amasked	CS_A	2pleas	distractor2	EVAbeforeCON	acq_US_unple_masked	acq2_masked	2	1	480	0	300	300	0	0	823	46	0	1	0	0	0	1	blank2r.bmp	0	1	+	0	2	B2r.bmp	492	1	blank2r.bmp	786	1	CPLW	786	1	blank2r.bmp	866	1	geizig	866	1	!	1319	1	!	-1	0	0	0	0	0	0	0	0	0	0	0	0	0	0	0	0	0	0	0	0	0	0	0	0	0	0	0
022719	10:22:04	10:25:26	200983	5.0.10.0	4_exp_AMP_EVA_AWA_CON	140	Rpleas_acq	Same	Rpleas	Amasked	CS_A	2pleas	distractor2	EVAbeforeCON	acq_new_pleas_masked	acq2_masked	2	2	480	1	300	300	0	0	443	50	0	1	0	0	0	1	blank2r.bmp	0	1	+	0	6	C2r.bmp	492	1	blank2r.bmp	786	4	B4r.bmp	786	1	blank2r.bmp	866	5	sonnig	866	1	!	1319	1	!	1346	0	0	0	0	0	0	0	0	0	0	0	0	0	0	0	0	0	0	0	0	0	0	0	0	0	0	0
022719	10:22:04	10:25:28	203262	5.0.10.0	4_exp_AMP_EVA_AWA_CON	140	Rpleas_acq	Same	Rpleas	Amasked	CS_A	2pleas	distractor2	EVAbeforeCON	acq_new_pleas_masked	acq2_masked	2	3	480	1	300	300	0	0	481	50	0	1	0	0	0	1	blank2r.bmp	0	1	+	0	7	C3r.bmp	492	1	blank2r.bmp	786	8	C4r.bmp	786	1	blank2r.bmp	866	1	gütig	866	1	!	1319	1	!	1386	0	0	0	0	0	0	0	0	0	0	0	0	0	0	0	0	0	0	0	0	0	0	0	0	0	0	0
022719	10:22:04	10:25:30	205408	5.0.10.0	4_exp_AMP_EVA_AWA_CON	140	Rpleas_acq	Same	Rpleas	Amasked	CS_A	2pleas	distractor2	EVAbeforeCON	acq_new_pleas_masked	acq2_masked	2	4	480	0	300	300	0	0	380	50	0	1	0	0	0	1	blank2r.bmp	0	1	+	0	5	C1r.bmp	492	1	blank2r.bmp	786	1	B1r.bmp	786	1	blank2r.bmp	866	4	kreativ	866	1	!	-1	1	!	-1	0	0	0	0	0	0	0	0	0	0	0	0	0	0	0	0	0	0	0	0	0	0	0	0	0	0	0
022719	10:22:04	10:25:32	207607	5.0.10.0	4_exp_AMP_EVA_AWA_CON	140	Rpleas_acq	Same	Rpleas	Amasked	CS_A	2pleas	distractor2	EVAbeforeCON	acq_new_unple_masked	acq2_masked	2	5	480	0	300	300	0	0	413	46	0	1	0	0	0	1	blank2r.bmp	0	1	+	0	8	C4r.bmp	492	1	blank2r.bmp	786	3	B3r.bmp	786	1	blank2r.bmp	866	4	krank	866	1	!	-1	1	!	-1	0	0	0	0	0	0	0	0	0	0	0	0	0	0	0	0	0	0	0	0	0	0	0	0	0	0	0
022719	10:22:04	10:25:35	210060	5.0.10.0	4_exp_AMP_EVA_AWA_CON	140	Rpleas_acq	Same	Rpleas	Amasked	CS_A	2pleas	distractor2	EVAbeforeCON	acq_US_pleas_masked	acq2_masked	2	6	480	0	300	300	0	0	675	50	0	1	0	0	0	1	blank2r.bmp	0	1	+	0	5	C1r.bmp	492	1	blank2r.bmp	786	1	DHJF	786	1	blank2r.bmp	866	6	träumen	866	1	!	1319	1	!	-1	0	0	0	0	0	0	0	0	0	0	0	0	0	0	0	0	0	0	0	0	0	0	0	0	0	0	0
022719	10:22:04	10:25:37	212365	5.0.10.0	4_exp_AMP_EVA_AWA_CON	140	Rpleas_acq	Same	Rpleas	Amasked	CS_A	2pleas	distractor2	EVAbeforeCON	acq_new_unple_masked	acq2_masked	2	7	480	1	300	300	0	0	491	46	0	1	0	0	0	1	blank2r.bmp	0	1	+	0	7	C3r.bmp	492	1	blank2r.bmp	786	2	B2r.bmp	786	1	blank2r.bmp	866	2	ausrottung	866	1	!	1319	1	!	1386	0	0	0	0	0	0	0	0	0	0	0	0	0	0	0	0	0	0	0	0	0	0	0	0	0	0	0
022719	10:22:04	10:25:39	214898	5.0.10.0	4_exp_AMP_EVA_AWA_CON	140	Rpleas_acq	Same	Rpleas	Amasked	CS_A	2pleas	distractor2	EVAbeforeCON	acq_US_unple_masked	acq2_masked	2	8	480	1	300	300	0	0	510	50	0	0	0	0	0	1	blank2r.bmp	0	1	+	0	3	B3r.bmp	492	1	blank2r.bmp	786	1	CPLW	786	1	blank2r.bmp	866	4	verbissen	866	1	FEHLER	1732	1	!	1319	1	!	1412	0	0	0	0	0	0	0	0	0	0	0	0	0	0	0	0	0	0	0	0	0	0	0	0
022719	10:22:04	10:25:44	219442	5.0.10.0	4_exp_AMP_EVA_AWA_CON	140	Rpleas_acq	Same	Rpleas	Amasked	CS_A	2pleas	distractor2	EVAbeforeCON	acq_US_unple_masked	acq2_masked	2	9	480	0	300	300	0	0	2992	46	0	1	0	0	0	1	blank2r.bmp	0	1	+	0	4	B4r.bmp	492	1	blank2r.bmp	786	1	CPLW	786	1	blank2r.bmp	866	3	engstirnig	866	1	!	1319	1	!	-1	0	0	0	0	0	0	0	0	0	0	0	0	0	0	0	0	0	0	0	0	0	0	0	0	0	0	0
022719	10:22:04	10:25:46	221708	5.0.10.0	4_exp_AMP_EVA_AWA_CON	140	Rpleas_acq	Same	Rpleas	Amasked	CS_A	2pleas	distractor2	EVAbeforeCON	acq_US_pleas_masked	acq2_masked	2	10	480	1	300	300	0	0	462	50	0	1	0	0	0	1	blank2r.bmp	0	1	+	0	1	B1r.bmp	492	1	blank2r.bmp	786	1	DHJF	786	1	blank2r.bmp	866	5	kuss	866	1	!	1319	1	!	1359	0	0	0	0	0	0	0	0	0	0	0	0	0	0	0	0	0	0	0	0	0	0	0	0	0	0	0
022719	10:22:04	10:25:49	224040	5.0.10.0	4_exp_AMP_EVA_AWA_CON	140	Rpleas_acq	Same	Rpleas	Amasked	CS_A	2pleas	distractor2	EVAbeforeCON	acq_US_pleas_masked	acq2_masked	2	11	480	1	300	300	0	0	545	50	0	1	0	0	0	1	blank2r.bmp	0	1	+	0	2	B2r.bmp	492	1	blank2r.bmp	786	1	DHJF	786	1	blank2r.bmp	866	1	gesittet	866	1	!	1319	1	!	1439	0	0	0	0	0	0	0	0	0	0	0	0	0	0	0	0	0	0	0	0	0	0	0	0	0	0	0
022719	10:22:04	10:25:51	226213	5.0.10.0	4_exp_AMP_EVA_AWA_CON	140	Rpleas_acq	Same	Rpleas	Amasked	CS_A	2pleas	distractor2	EVAbeforeCON	acq_new_unple_masked	acq2_masked	2	12	480	0	300	300	0	0	410	46	0	1	0	0	0	1	blank2r.bmp	0	1	+	0	6	C2r.bmp	492	1	blank2r.bmp	786	6	C2r.bmp	786	1	blank2r.bmp	866	5	sterben	866	1	!	-1	1	!	-1	0	0	0	0	0	0	0	0	0	0	0	0	0	0	0	0	0	0	0	0	0	0	0	0	0	0	0
022719	10:22:04	10:25:53	228479	5.0.10.0	4_exp_AMP_EVA_AWA_CON	140	Rpleas_acq	Same	Rpleas	Amasked	CS_A	2pleas	distractor2	EVAbeforeCON	acq_new_pleas_masked	acq2_masked	2	13	480	1	300	300	0	0	463	50	0	1	0	0	0	1	blank2r.bmp	0	1	+	0	6	C2r.bmp	492	1	blank2r.bmp	786	5	C1r.bmp	786	1	blank2r.bmp	866	2	anregung	866	1	!	1319	1	!	1359	0	0	0	0	0	0	0	0	0	0	0	0	0	0	0	0	0	0	0	0	0	0	0	0	0	0	0
022719	10:22:04	10:25:55	230771	5.0.10.0	4_exp_AMP_EVA_AWA_CON	140	Rpleas_acq	Same	Rpleas	Amasked	CS_A	2pleas	distractor2	EVAbeforeCON	acq_US_pleas_masked	acq2_masked	2	14	480	1	300	300	0	0	493	50	0	1	0	0	0	1	blank2r.bmp	0	1	+	0	7	C3r.bmp	492	1	blank2r.bmp	786	1	DHJF	786	1	blank2r.bmp	866	3	engagiert	866	1	!	1319	1	!	1399	0	0	0	0	0	0	0	0	0	0	0	0	0	0	0	0	0	0	0	0	0	0	0	0	0	0	0
022719	10:22:04	10:25:58	232957	5.0.10.0	4_exp_AMP_EVA_AWA_CON	140	Rpleas_acq	Same	Rpleas	Amasked	CS_A	2pleas	distractor2	EVAbeforeCON	acq_US_unple_masked	acq2_masked	2	15	480	0	300	300	0	0	414	46	0	1	0	0	0	1	blank2r.bmp	0	1	+	0	8	C4r.bmp	492	1	blank2r.bmp	786	1	CPLW	786	1	blank2r.bmp	866	1	geizig	866	1	!	-1	1	!	-1	0	0	0	0	0	0	0	0	0	0	0	0	0	0	0	0	0	0	0	0	0	0	0	0	0	0	0
022719	10:22:04	10:26:00	235316	5.0.10.0	4_exp_AMP_EVA_AWA_CON	140	Rpleas_acq	Same	Rpleas	Amasked	CS_A	2pleas	distractor2	EVAbeforeCON	acq_US_pleas_masked	acq2_masked	2	16	480	0	300	300	0	0	581	50	0	1	0	0	0	1	blank2r.bmp	0	1	+	0	5	C1r.bmp	492	1	blank2r.bmp	786	1	DHJF	786	1	blank2r.bmp	866	6	träumen	866	1	!	1319	1	!	-1	0	0	0	0	0	0	0	0	0	0	0	0	0	0	0	0	0	0	0	0	0	0	0	0	0	0	0
022719	10:22:04	10:26:02	237568	5.0.10.0	4_exp_AMP_EVA_AWA_CON	140	Rpleas_acq	Same	Rpleas	Amasked	CS_A	2pleas	distractor2	EVAbeforeCON	acq_new_unple_masked	acq2_masked	2	17	480	1	300	300	0	0	434	46	0	1	0	0	0	1	blank2r.bmp	0	1	+	0	3	B3r.bmp	492	1	blank2r.bmp	786	2	B2r.bmp	786	1	blank2r.bmp	866	6	bange	866	1	!	1319	1	!	1332	0	0	0	0	0	0	0	0	0	0	0	0	0	0	0	0	0	0	0	0	0	0	0	0	0	0	0
022719	10:22:04	10:26:04	239914	5.0.10.0	4_exp_AMP_EVA_AWA_CON	140	Rpleas_acq	Same	Rpleas	Amasked	CS_A	2pleas	distractor2	EVAbeforeCON	acq_US_unple_masked	acq2_masked	2	18	480	1	300	300	0	0	545	46	0	1	0	0	0	1	blank2r.bmp	0	1	+	0	4	B4r.bmp	492	1	blank2r.bmp	786	1	CPLW	786	1	blank2r.bmp	866	2	versagen	866	1	!	1319	1	!	1452	0	0	0	0	0	0	0	0	0	0	0	0	0	0	0	0	0	0	0	0	0	0	0	0	0	0	0
022719	10:22:04	10:26:07	242060	5.0.10.0	4_exp_AMP_EVA_AWA_CON	140	Rpleas_acq	Same	Rpleas	Amasked	CS_A	2pleas	distractor2	EVAbeforeCON	acq_new_unple_masked	acq2_masked	2	19	480	0	300	300	0	0	364	46	0	1	0	0	0	1	blank2r.bmp	0	1	+	0	2	B2r.bmp	492	1	blank2r.bmp	786	7	C3r.bmp	786	1	blank2r.bmp	866	4	krank	866	1	!	-1	1	!	-1	0	0	0	0	0	0	0	0	0	0	0	0	0	0	0	0	0	0	0	0	0	0	0	0	0	0	0
022719	10:22:04	10:26:09	244445	5.0.10.0	4_exp_AMP_EVA_AWA_CON	140	Rpleas_acq	Same	Rpleas	Amasked	CS_A	2pleas	distractor2	EVAbeforeCON	acq_US_unple_masked	acq2_masked	2	20	480	0	300	300	0	0	604	46	0	1	0	0	0	1	blank2r.bmp	0	1	+	0	1	B1r.bmp	492	1	blank2r.bmp	786	1	CPLW	786	1	blank2r.bmp	866	5	krise	866	1	!	1319	1	!	-1	0	0	0	0	0	0	0	0	0	0	0	0	0	0	0	0	0	0	0	0	0	0	0	0	0	0	0
022719	10:22:04	10:26:11	246685	5.0.10.0	4_exp_AMP_EVA_AWA_CON	140	Rpleas_acq	Same	Rpleas	Amasked	CS_A	2pleas	distractor2	EVAbeforeCON	acq_new_pleas_masked	acq2_masked	2	21	480	1	300	300	0	0	426	50	0	1	0	0	0	1	blank2r.bmp	0	1	+	0	2	B2r.bmp	492	1	blank2r.bmp	786	1	B1r.bmp	786	1	blank2r.bmp	866	6	besonnen	866	1	!	1319	1	!	1332	0	0	0	0	0	0	0	0	0	0	0	0	0	0	0	0	0	0	0	0	0	0	0	0	0	0	0
022719	10:22:04	10:26:14	249243	5.0.10.0	4_exp_AMP_EVA_AWA_CON	140	Rpleas_acq	Same	Rpleas	Amasked	CS_A	2pleas	distractor2	EVAbeforeCON	acq_new_pleas_masked	acq2_masked	2	22	480	0	300	300	0	0	564	46	0	0	0	0	0	1	blank2r.bmp	0	1	+	0	5	C1r.bmp	492	1	blank2r.bmp	786	4	B4r.bmp	786	1	blank2r.bmp	866	4	kreativ	866	1	FEHLER	1772	1	!	1319	1	!	-1	0	0	0	0	0	0	0	0	0	0	0	0	0	0	0	0	0	0	0	0	0	0	0	0
022719	10:22:04	10:26:16	251496	5.0.10.0	4_exp_AMP_EVA_AWA_CON	140	Rpleas_acq	Same	Rpleas	Amasked	CS_A	2pleas	distractor2	EVAbeforeCON	acq_new_unple_masked	acq2_masked	2	23	480	0	300	300	0	0	685	46	0	1	0	0	0	1	blank2r.bmp	0	1	+	0	6	C2r.bmp	492	1	blank2r.bmp	786	8	C4r.bmp	786	1	blank2r.bmp	866	3	gemein	866	1	!	1319	1	!	-1	0	0	0	0	0	0	0	0	0	0	0	0	0	0	0	0	0	0	0	0	0	0	0	0	0	0	0
022719	10:22:04	10:26:18	253868	5.0.10.0	4_exp_AMP_EVA_AWA_CON	140	Rpleas_acq	Same	Rpleas	Amasked	CS_A	2pleas	distractor2	EVAbeforeCON	acq_US_pleas_masked	acq2_masked	2	24	480	0	300	300	0	0	598	50	0	1	0	0	0	1	blank2r.bmp	0	1	+	0	3	B3r.bmp	492	1	blank2r.bmp	786	1	DHJF	786	1	blank2r.bmp	866	4	vergnügt	866	1	!	1319	1	!	-1	0	0	0	0	0	0	0	0	0	0	0	0	0	0	0	0	0	0	0	0	0	0	0	0	0	0	0
022719	10:22:04	10:26:21	256121	5.0.10.0	4_exp_AMP_EVA_AWA_CON	140	Rpleas_acq	Same	Rpleas	Amasked	CS_A	2pleas	distractor2	EVAbeforeCON	acq_new_unple_masked	acq2_masked	2	25	480	1	300	300	0	0	443	46	0	1	0	0	0	1	blank2r.bmp	0	1	+	0	7	C3r.bmp	492	1	blank2r.bmp	786	3	B3r.bmp	786	1	blank2r.bmp	866	1	gierig	866	1	!	1319	1	!	1346	0	0	0	0	0	0	0	0	0	0	0	0	0	0	0	0	0	0	0	0	0	0	0	0	0	0	0
022719	10:22:04	10:26:23	258520	5.0.10.0	4_exp_AMP_EVA_AWA_CON	140	Rpleas_acq	Same	Rpleas	Amasked	CS_A	2pleas	distractor2	EVAbeforeCON	acq_new_pleas_masked	acq2_masked	2	26	480	0	300	300	0	0	625	50	0	1	0	0	0	1	blank2r.bmp	0	1	+	0	4	B4r.bmp	492	1	blank2r.bmp	786	6	C2r.bmp	786	1	blank2r.bmp	866	1	gütig	866	1	!	1319	1	!	-1	0	0	0	0	0	0	0	0	0	0	0	0	0	0	0	0	0	0	0	0	0	0	0	0	0	0	0
022719	10:22:04	10:26:25	260785	5.0.10.0	4_exp_AMP_EVA_AWA_CON	140	Rpleas_acq	Same	Rpleas	Amasked	CS_A	2pleas	distractor2	EVAbeforeCON	acq_new_unple_masked	acq2_masked	2	27	480	1	300	300	0	0	454	46	0	1	0	0	0	1	blank2r.bmp	0	1	+	0	1	B1r.bmp	492	1	blank2r.bmp	786	4	B4r.bmp	786	1	blank2r.bmp	866	2	ausrottung	866	1	!	1319	1	!	1359	0	0	0	0	0	0	0	0	0	0	0	0	0	0	0	0	0	0	0	0	0	0	0	0	0	0	0
022719	10:22:04	10:26:28	263224	5.0.10.0	4_exp_AMP_EVA_AWA_CON	140	Rpleas_acq	Same	Rpleas	Amasked	CS_A	2pleas	distractor2	EVAbeforeCON	acq_US_unple_masked	acq2_masked	2	28	480	1	300	300	0	0	431	50	0	0	0	0	0	1	blank2r.bmp	0	1	+	0	8	C4r.bmp	492	1	blank2r.bmp	786	1	CPLW	786	1	blank2r.bmp	866	3	engstirnig	866	1	FEHLER	1652	1	!	1319	1	!	1332	0	0	0	0	0	0	0	0	0	0	0	0	0	0	0	0	0	0	0	0	0	0	0	0
022719	10:22:04	10:26:30	265170	5.0.10.0	4_exp_AMP_EVA_AWA_CON	140	Rpleas_acq	Same	Rpleas	Amasked	CS_A	2pleas	distractor2	EVAbeforeCON	acq_US_unple_masked	acq2_masked	2	29	480	0	300	300	0	0	391	46	0	1	0	0	0	1	blank2r.bmp	0	1	+	0	7	C3r.bmp	492	1	blank2r.bmp	786	1	CPLW	786	1	blank2r.bmp	866	6	töten	866	1	!	-1	1	!	-1	0	0	0	0	0	0	0	0	0	0	0	0	0	0	0	0	0	0	0	0	0	0	0	0	0	0	0
022719	10:22:04	10:26:32	267556	5.0.10.0	4_exp_AMP_EVA_AWA_CON	140	Rpleas_acq	Same	Rpleas	Amasked	CS_A	2pleas	distractor2	EVAbeforeCON	acq_new_unple_masked	acq2_masked	2	30	480	0	300	300	0	0	601	46	0	1	0	0	0	1	blank2r.bmp	0	1	+	0	1	B1r.bmp	492	1	blank2r.bmp	786	5	C1r.bmp	786	1	blank2r.bmp	866	5	sterben	866	1	!	1319	1	!	-1	0	0	0	0	0	0	0	0	0	0	0	0	0	0	0	0	0	0	0	0	0	0	0	0	0	0	0
022719	10:22:04	10:26:34	269808	5.0.10.0	4_exp_AMP_EVA_AWA_CON	140	Rpleas_acq	Same	Rpleas	Amasked	CS_A	2pleas	distractor2	EVAbeforeCON	acq_new_pleas_masked	acq2_masked	2	31	480	1	300	300	0	0	444	50	0	1	0	0	0	1	blank2r.bmp	0	1	+	0	6	C2r.bmp	492	1	blank2r.bmp	786	8	C4r.bmp	786	1	blank2r.bmp	866	3	genießen	866	1	!	1319	1	!	1346	0	0	0	0	0	0	0	0	0	0	0	0	0	0	0	0	0	0	0	0	0	0	0	0	0	0	0
022719	10:22:04	10:26:37	272141	5.0.10.0	4_exp_AMP_EVA_AWA_CON	140	Rpleas_acq	Same	Rpleas	Amasked	CS_A	2pleas	distractor2	EVAbeforeCON	acq_US_pleas_masked	acq2_masked	2	32	480	0	300	300	0	0	562	50	0	1	0	0	0	1	blank2r.bmp	0	1	+	0	5	C1r.bmp	492	1	blank2r.bmp	786	1	DHJF	786	1	blank2r.bmp	866	5	kuss	866	1	!	1319	1	!	-1	0	0	0	0	0	0	0	0	0	0	0	0	0	0	0	0	0	0	0	0	0	0	0	0	0	0	0
022719	10:22:04	10:26:39	274500	5.0.10.0	4_exp_AMP_EVA_AWA_CON	140	Rpleas_acq	Same	Rpleas	Amasked	CS_A	2pleas	distractor2	EVAbeforeCON	acq_US_unple_masked	acq2_masked	2	33	480	0	300	300	0	0	585	46	0	1	0	0	0	1	blank2r.bmp	0	1	+	0	8	C4r.bmp	492	1	blank2r.bmp	786	1	CPLW	786	1	blank2r.bmp	866	4	verbissen	866	1	!	1319	1	!	-1	0	0	0	0	0	0	0	0	0	0	0	0	0	0	0	0	0	0	0	0	0	0	0	0	0	0	0
022719	10:22:04	10:26:41	276672	5.0.10.0	4_exp_AMP_EVA_AWA_CON	140	Rpleas_acq	Same	Rpleas	Amasked	CS_A	2pleas	distractor2	EVAbeforeCON	acq_US_pleas_masked	acq2_masked	2	34	480	0	300	300	0	0	392	50	0	1	0	0	0	1	blank2r.bmp	0	1	+	0	2	B2r.bmp	492	1	blank2r.bmp	786	1	DHJF	786	1	blank2r.bmp	866	1	gesittet	866	1	!	-1	1	!	-1	0	0	0	0	0	0	0	0	0	0	0	0	0	0	0	0	0	0	0	0	0	0	0	0	0	0	0
022719	10:22:04	10:26:44	279045	5.0.10.0	4_exp_AMP_EVA_AWA_CON	140	Rpleas_acq	Same	Rpleas	Amasked	CS_A	2pleas	distractor2	EVAbeforeCON	acq_US_pleas_masked	acq2_masked	2	35	480	0	300	300	0	0	588	50	0	1	0	0	0	1	blank2r.bmp	0	1	+	0	3	B3r.bmp	492	1	blank2r.bmp	786	1	DHJF	786	1	blank2r.bmp	866	2	vertrauen	866	1	!	1319	1	!	-1	0	0	0	0	0	0	0	0	0	0	0	0	0	0	0	0	0	0	0	0	0	0	0	0	0	0	0
022719	10:22:04	10:26:46	281137	5.0.10.0	4_exp_AMP_EVA_AWA_CON	140	Rpleas_acq	Same	Rpleas	Amasked	CS_A	2pleas	distractor2	EVAbeforeCON	acq_new_pleas_masked	acq2_masked	2	36	480	0	300	300	0	0	314	50	0	1	0	0	0	1	blank2r.bmp	0	1	+	0	4	B4r.bmp	492	1	blank2r.bmp	786	3	B3r.bmp	786	1	blank2r.bmp	866	5	sonnig	866	1	!	-1	1	!	-1	0	0	0	0	0	0	0	0	0	0	0	0	0	0	0	0	0	0	0	0	0	0	0	0	0	0	0
022719	10:22:04	10:27:03	298117	5.0.10.0	4_exp_AMP_EVA_AWA_CON	140	Rpleas_acq	Same	Rpleas	Amasked	CS_A	2pleas	distractor2	EVAbeforeCON	acq_US_pleas_masked	acq3_masked	3	1	453	0	300	300	0	0	535	50	0	1	0	0	0	1	blank2r.bmp	0	1	+	0	7	C3r.bmp	492	1	blank2r.bmp	786	1	DHJF	786	1	blank2r.bmp	866	5	kuss	866	1	!	1292	1	!	-1	0	0	0	0	0	0	0	0	0	0	0	0	0	0	0	0	0	0	0	0	0	0	0	0	0	0	0
022719	10:22:04	10:27:05	300569	5.0.10.0	4_exp_AMP_EVA_AWA_CON	140	Rpleas_acq	Same	Rpleas	Amasked	CS_A	2pleas	distractor2	EVAbeforeCON	acq_US_pleas_masked	acq3_masked	3	2	453	0	300	300	0	0	666	50	0	1	0	0	0	1	blank2r.bmp	0	1	+	0	4	B4r.bmp	492	1	blank2r.bmp	786	1	DHJF	786	1	blank2r.bmp	866	1	gesittet	866	1	!	1292	1	!	-1	0	0	0	0	0	0	0	0	0	0	0	0	0	0	0	0	0	0	0	0	0	0	0	0	0	0	0
022719	10:22:04	10:27:07	302861	5.0.10.0	4_exp_AMP_EVA_AWA_CON	140	Rpleas_acq	Same	Rpleas	Amasked	CS_A	2pleas	distractor2	EVAbeforeCON	acq_US_unple_masked	acq3_masked	3	3	453	0	300	300	0	0	276	50	0	0	0	0	0	1	blank2r.bmp	0	1	+	0	8	C4r.bmp	492	1	blank2r.bmp	786	1	CPLW	786	1	blank2r.bmp	866	3	engstirnig	866	1	FEHLER	1479	1	!	-1	1	!	-1	0	0	0	0	0	0	0	0	0	0	0	0	0	0	0	0	0	0	0	0	0	0	0	0
022719	10:22:04	10:27:12	307886	5.0.10.0	4_exp_AMP_EVA_AWA_CON	140	Rpleas_acq	Same	Rpleas	Amasked	CS_A	2pleas	distractor2	EVAbeforeCON	acq_US_pleas_masked	acq3_masked	3	4	453	0	300	300	0	0	3245	46	0	0	0	0	0	1	blank2r.bmp	0	1	+	0	5	C1r.bmp	492	1	blank2r.bmp	786	1	DHJF	786	1	blank2r.bmp	866	3	engagiert	866	1	FEHLER	4451	1	!	1292	1	!	-1	0	0	0	0	0	0	0	0	0	0	0	0	0	0	0	0	0	0	0	0	0	0	0	0
022719	10:22:04	10:27:14	309899	5.0.10.0	4_exp_AMP_EVA_AWA_CON	140	Rpleas_acq	Same	Rpleas	Amasked	CS_A	2pleas	distractor2	EVAbeforeCON	acq_US_pleas_masked	acq3_masked	3	5	453	1	300	300	0	0	438	50	0	1	0	0	0	1	blank2r.bmp	0	1	+	0	2	B2r.bmp	492	1	blank2r.bmp	786	1	DHJF	786	1	blank2r.bmp	866	6	träumen	866	1	!	1292	1	!	1332	0	0	0	0	0	0	0	0	0	0	0	0	0	0	0	0	0	0	0	0	0	0	0	0	0	0	0
022719	10:22:04	10:27:17	312124	5.0.10.0	4_exp_AMP_EVA_AWA_CON	140	Rpleas_acq	Same	Rpleas	Amasked	CS_A	2pleas	distractor2	EVAbeforeCON	acq_US_pleas_masked	acq3_masked	3	6	453	1	300	300	0	0	431	50	0	1	0	0	0	1	blank2r.bmp	0	1	+	0	1	B1r.bmp	492	1	blank2r.bmp	786	1	DHJF	786	1	blank2r.bmp	866	2	vertrauen	866	1	!	1292	1	!	1332	0	0	0	0	0	0	0	0	0	0	0	0	0	0	0	0	0	0	0	0	0	0	0	0	0	0	0
022719	10:22:04	10:27:19	314403	5.0.10.0	4_exp_AMP_EVA_AWA_CON	140	Rpleas_acq	Same	Rpleas	Amasked	CS_A	2pleas	distractor2	EVAbeforeCON	acq_US_unple_masked	acq3_masked	3	7	453	1	300	300	0	0	485	46	0	1	0	0	0	1	blank2r.bmp	0	1	+	0	3	B3r.bmp	492	1	blank2r.bmp	786	1	CPLW	786	1	blank2r.bmp	866	4	verbissen	866	1	!	1292	1	!	1386	0	0	0	0	0	0	0	0	0	0	0	0	0	0	0	0	0	0	0	0	0	0	0	0	0	0	0
022719	10:22:04	10:27:21	316536	5.0.10.0	4_exp_AMP_EVA_AWA_CON	140	Rpleas_acq	Same	Rpleas	Amasked	CS_A	2pleas	distractor2	EVAbeforeCON	acq_US_unple_masked	acq3_masked	3	8	453	0	300	300	0	0	354	46	0	1	0	0	0	1	blank2r.bmp	0	1	+	0	6	C2r.bmp	492	1	blank2r.bmp	786	1	CPLW	786	1	blank2r.bmp	866	1	geizig	866	1	!	-1	1	!	-1	0	0	0	0	0	0	0	0	0	0	0	0	0	0	0	0	0	0	0	0	0	0	0	0	0	0	0
022719	10:22:04	10:27:23	318921	5.0.10.0	4_exp_AMP_EVA_AWA_CON	140	Rpleas_acq	Same	Rpleas	Amasked	CS_A	2pleas	distractor2	EVAbeforeCON	acq_US_unple_masked	acq3_masked	3	9	453	0	300	300	0	0	600	46	0	1	0	0	0	1	blank2r.bmp	0	1	+	0	5	C1r.bmp	492	1	blank2r.bmp	786	1	CPLW	786	1	blank2r.bmp	866	2	versagen	866	1	!	1292	1	!	-1	0	0	0	0	0	0	0	0	0	0	0	0	0	0	0	0	0	0	0	0	0	0	0	0	0	0	0
022719	10:22:04	10:27:26	321241	5.0.10.0	4_exp_AMP_EVA_AWA_CON	140	Rpleas_acq	Same	Rpleas	Amasked	CS_A	2pleas	distractor2	EVAbeforeCON	acq_US_pleas_masked	acq3_masked	3	10	453	0	300	300	0	0	309	46	0	0	0	0	0	1	blank2r.bmp	0	1	+	0	3	B3r.bmp	492	1	blank2r.bmp	786	1	DHJF	786	1	blank2r.bmp	866	4	vergnügt	866	1	FEHLER	1519	1	!	-1	1	!	-1	0	0	0	0	0	0	0	0	0	0	0	0	0	0	0	0	0	0	0	0	0	0	0	0
022719	10:22:04	10:27:28	323240	5.0.10.0	4_exp_AMP_EVA_AWA_CON	140	Rpleas_acq	Same	Rpleas	Amasked	CS_A	2pleas	distractor2	EVAbeforeCON	acq_US_unple_masked	acq3_masked	3	11	453	1	300	300	0	0	420	46	0	1	0	0	0	1	blank2r.bmp	0	1	+	0	1	B1r.bmp	492	1	blank2r.bmp	786	1	CPLW	786	1	blank2r.bmp	866	5	krise	866	1	!	1292	1	!	1319	0	0	0	0	0	0	0	0	0	0	0	0	0	0	0	0	0	0	0	0	0	0	0	0	0	0	0
022719	10:22:04	10:27:30	325505	5.0.10.0	4_exp_AMP_EVA_AWA_CON	140	Rpleas_acq	Same	Rpleas	Amasked	CS_A	2pleas	distractor2	EVAbeforeCON	acq_US_unple_masked	acq3_masked	3	12	453	1	300	300	0	0	470	46	0	1	0	0	0	1	blank2r.bmp	0	1	+	0	2	B2r.bmp	492	1	blank2r.bmp	786	1	CPLW	786	1	blank2r.bmp	866	6	töten	866	1	!	1292	1	!	1372	0	0	0	0	0	0	0	0	0	0	0	0	0	0	0	0	0	0	0	0	0	0	0	0	0	0	0
022719	10:22:04	10:27:32	327825	5.0.10.0	4_exp_AMP_EVA_AWA_CON	140	Rpleas_acq	Same	Rpleas	Amasked	CS_A	2pleas	distractor2	EVAbeforeCON	acq_US_pleas_masked	acq3_masked	3	13	453	0	300	300	0	0	556	50	0	1	0	0	0	1	blank2r.bmp	0	1	+	0	6	C2r.bmp	492	1	blank2r.bmp	786	1	DHJF	786	1	blank2r.bmp	866	5	kuss	866	1	!	1292	1	!	-1	0	0	0	0	0	0	0	0	0	0	0	0	0	0	0	0	0	0	0	0	0	0	0	0	0	0	0
022719	10:22:04	10:27:35	330104	5.0.10.0	4_exp_AMP_EVA_AWA_CON	140	Rpleas_acq	Same	Rpleas	Amasked	CS_A	2pleas	distractor2	EVAbeforeCON	acq_US_unple_masked	acq3_masked	3	14	453	1	300	300	0	0	475	46	0	1	0	0	0	1	blank2r.bmp	0	1	+	0	4	B4r.bmp	492	1	blank2r.bmp	786	1	CPLW	786	1	blank2r.bmp	866	2	versagen	866	1	!	1292	1	!	1372	0	0	0	0	0	0	0	0	0	0	0	0	0	0	0	0	0	0	0	0	0	0	0	0	0	0	0
022719	10:22:04	10:27:37	332409	5.0.10.0	4_exp_AMP_EVA_AWA_CON	140	Rpleas_acq	Same	Rpleas	Amasked	CS_A	2pleas	distractor2	EVAbeforeCON	acq_US_pleas_masked	acq3_masked	3	15	453	0	300	300	0	0	532	50	0	1	0	0	0	1	blank2r.bmp	0	1	+	0	7	C3r.bmp	492	1	blank2r.bmp	786	1	DHJF	786	1	blank2r.bmp	866	3	engagiert	866	1	!	1292	1	!	-1	0	0	0	0	0	0	0	0	0	0	0	0	0	0	0	0	0	0	0	0	0	0	0	0	0	0	0
022719	10:22:04	10:27:39	334688	5.0.10.0	4_exp_AMP_EVA_AWA_CON	140	Rpleas_acq	Same	Rpleas	Amasked	CS_A	2pleas	distractor2	EVAbeforeCON	acq_US_pleas_masked	acq3_masked	3	16	453	1	300	300	0	0	464	50	0	1	0	0	0	1	blank2r.bmp	0	1	+	0	8	C4r.bmp	492	1	blank2r.bmp	786	1	DHJF	786	1	blank2r.bmp	866	1	gesittet	866	1	!	1292	1	!	1359	0	0	0	0	0	0	0	0	0	0	0	0	0	0	0	0	0	0	0	0	0	0	0	0	0	0	0
022719	10:22:04	10:27:41	336821	5.0.10.0	4_exp_AMP_EVA_AWA_CON	140	Rpleas_acq	Same	Rpleas	Amasked	CS_A	2pleas	distractor2	EVAbeforeCON	acq_US_unple_masked	acq3_masked	3	17	453	0	300	300	0	0	363	46	0	1	0	0	0	1	blank2r.bmp	0	1	+	0	1	B1r.bmp	492	1	blank2r.bmp	786	1	CPLW	786	1	blank2r.bmp	866	3	engstirnig	866	1	!	-1	1	!	-1	0	0	0	0	0	0	0	0	0	0	0	0	0	0	0	0	0	0	0	0	0	0	0	0	0	0	0
022719	10:22:04	10:27:44	339047	5.0.10.0	4_exp_AMP_EVA_AWA_CON	140	Rpleas_acq	Same	Rpleas	Amasked	CS_A	2pleas	distractor2	EVAbeforeCON	acq_US_unple_masked	acq3_masked	3	18	453	1	300	300	0	0	414	46	0	1	0	0	0	1	blank2r.bmp	0	1	+	0	2	B2r.bmp	492	1	blank2r.bmp	786	1	CPLW	786	1	blank2r.bmp	866	6	töten	866	1	!	1292	1	!	1319	0	0	0	0	0	0	0	0	0	0	0	0	0	0	0	0	0	0	0	0	0	0	0	0	0	0	0
022719	10:22:04	10:27:46	341152	5.0.10.0	4_exp_AMP_EVA_AWA_CON	140	Rpleas_acq	Same	Rpleas	Amasked	CS_A	2pleas	distractor2	EVAbeforeCON	acq_US_unple_masked	acq3_masked	3	19	453	0	300	300	0	0	335	46	0	1	0	0	0	1	blank2r.bmp	0	1	+	0	4	B4r.bmp	492	1	blank2r.bmp	786	1	CPLW	786	1	blank2r.bmp	866	4	verbissen	866	1	!	-1	1	!	-1	0	0	0	0	0	0	0	0	0	0	0	0	0	0	0	0	0	0	0	0	0	0	0	0	0	0	0
022719	10:22:04	10:27:48	343418	5.0.10.0	4_exp_AMP_EVA_AWA_CON	140	Rpleas_acq	Same	Rpleas	Amasked	CS_A	2pleas	distractor2	EVAbeforeCON	acq_US_pleas_masked	acq3_masked	3	20	453	1	300	300	0	0	462	50	0	1	0	0	0	1	blank2r.bmp	0	1	+	0	8	C4r.bmp	492	1	blank2r.bmp	786	1	DHJF	786	1	blank2r.bmp	866	4	vergnügt	866	1	!	1292	1	!	1359	0	0	0	0	0	0	0	0	0	0	0	0	0	0	0	0	0	0	0	0	0	0	0	0	0	0	0
022719	10:22:04	10:27:50	345631	5.0.10.0	4_exp_AMP_EVA_AWA_CON	140	Rpleas_acq	Same	Rpleas	Amasked	CS_A	2pleas	distractor2	EVAbeforeCON	acq_US_unple_masked	acq3_masked	3	21	453	1	300	300	0	0	422	46	0	1	0	0	0	1	blank2r.bmp	0	1	+	0	6	C2r.bmp	492	1	blank2r.bmp	786	1	CPLW	786	1	blank2r.bmp	866	5	krise	866	1	!	1292	1	!	1319	0	0	0	0	0	0	0	0	0	0	0	0	0	0	0	0	0	0	0	0	0	0	0	0	0	0	0
022719	10:22:04	10:27:53	347936	5.0.10.0	4_exp_AMP_EVA_AWA_CON	140	Rpleas_acq	Same	Rpleas	Amasked	CS_A	2pleas	distractor2	EVAbeforeCON	acq_US_pleas_masked	acq3_masked	3	22	453	1	300	300	0	0	509	50	0	1	0	0	0	1	blank2r.bmp	0	1	+	0	7	C3r.bmp	492	1	blank2r.bmp	786	1	DHJF	786	1	blank2r.bmp	866	6	träumen	866	1	!	1292	1	!	1412	0	0	0	0	0	0	0	0	0	0	0	0	0	0	0	0	0	0	0	0	0	0	0	0	0	0	0
022719	10:22:04	10:27:55	349989	5.0.10.0	4_exp_AMP_EVA_AWA_CON	140	Rpleas_acq	Same	Rpleas	Amasked	CS_A	2pleas	distractor2	EVAbeforeCON	acq_US_unple_masked	acq3_masked	3	23	453	0	300	300	0	0	283	46	0	1	0	0	0	1	blank2r.bmp	0	1	+	0	5	C1r.bmp	492	1	blank2r.bmp	786	1	CPLW	786	1	blank2r.bmp	866	1	geizig	866	1	!	-1	1	!	-1	0	0	0	0	0	0	0	0	0	0	0	0	0	0	0	0	0	0	0	0	0	0	0	0	0	0	0
022719	10:22:04	10:27:57	352108	5.0.10.0	4_exp_AMP_EVA_AWA_CON	140	Rpleas_acq	Same	Rpleas	Amasked	CS_A	2pleas	distractor2	EVAbeforeCON	acq_US_pleas_masked	acq3_masked	3	24	453	0	300	300	0	0	332	50	0	1	0	0	0	1	blank2r.bmp	0	1	+	0	3	B3r.bmp	492	1	blank2r.bmp	786	1	DHJF	786	1	blank2r.bmp	866	2	vertrauen	866	1	!	-1	1	!	-1	0	0	0	0	0	0	0	0	0	0	0	0	0	0	0	0	0	0	0	0	0	0	0	0	0	0	0
022719	10:22:04	10:27:59	354347	5.0.10.0	4_exp_AMP_EVA_AWA_CON	140	Rpleas_acq	Same	Rpleas	Amasked	CS_A	2pleas	distractor2	EVAbeforeCON	acq_US_pleas_masked	acq3_masked	3	25	453	1	300	300	0	0	428	50	0	1	0	0	0	1	blank2r.bmp	0	1	+	0	6	C2r.bmp	492	1	blank2r.bmp	786	1	DHJF	786	1	blank2r.bmp	866	5	kuss	866	1	!	1292	1	!	1332	0	0	0	0	0	0	0	0	0	0	0	0	0	0	0	0	0	0	0	0	0	0	0	0	0	0	0
022719	10:22:04	10:28:01	356613	5.0.10.0	4_exp_AMP_EVA_AWA_CON	140	Rpleas_acq	Same	Rpleas	Amasked	CS_A	2pleas	distractor2	EVAbeforeCON	acq_US_unple_masked	acq3_masked	3	26	453	1	300	300	0	0	467	46	0	1	0	0	0	1	blank2r.bmp	0	1	+	0	8	C4r.bmp	492	1	blank2r.bmp	786	1	CPLW	786	1	blank2r.bmp	866	3	engstirnig	866	1	!	1292	1	!	1372	0	0	0	0	0	0	0	0	0	0	0	0	0	0	0	0	0	0	0	0	0	0	0	0	0	0	0
022719	10:22:04	10:28:04	359198	5.0.10.0	4_exp_AMP_EVA_AWA_CON	140	Rpleas_acq	Same	Rpleas	Amasked	CS_A	2pleas	distractor2	EVAbeforeCON	acq_US_unple_masked	acq3_masked	3	27	453	0	300	300	0	0	593	50	0	0	0	0	0	1	blank2r.bmp	0	1	+	0	5	C1r.bmp	492	1	blank2r.bmp	786	1	CPLW	786	1	blank2r.bmp	866	1	geizig	866	1	FEHLER	1799	1	!	1292	1	!	-1	0	0	0	0	0	0	0	0	0	0	0	0	0	0	0	0	0	0	0	0	0	0	0	0
022719	10:22:04	10:28:06	361224	5.0.10.0	4_exp_AMP_EVA_AWA_CON	140	Rpleas_acq	Same	Rpleas	Amasked	CS_A	2pleas	distractor2	EVAbeforeCON	acq_US_pleas_masked	acq3_masked	3	28	453	1	300	300	0	0	452	50	0	1	0	0	0	1	blank2r.bmp	0	1	+	0	4	B4r.bmp	492	1	blank2r.bmp	786	1	DHJF	786	1	blank2r.bmp	866	6	träumen	866	1	!	1292	1	!	1346	0	0	0	0	0	0	0	0	0	0	0	0	0	0	0	0	0	0	0	0	0	0	0	0	0	0	0
022719	10:22:04	10:28:08	363477	5.0.10.0	4_exp_AMP_EVA_AWA_CON	140	Rpleas_acq	Same	Rpleas	Amasked	CS_A	2pleas	distractor2	EVAbeforeCON	acq_US_unple_masked	acq3_masked	3	29	453	1	300	300	0	0	457	46	0	1	0	0	0	1	blank2r.bmp	0	1	+	0	1	B1r.bmp	492	1	blank2r.bmp	786	1	CPLW	786	1	blank2r.bmp	866	5	krise	866	1	!	1292	1	!	1359	0	0	0	0	0	0	0	0	0	0	0	0	0	0	0	0	0	0	0	0	0	0	0	0	0	0	0
022719	10:22:04	10:28:10	365916	5.0.10.0	4_exp_AMP_EVA_AWA_CON	140	Rpleas_acq	Same	Rpleas	Amasked	CS_A	2pleas	distractor2	EVAbeforeCON	acq_US_pleas_masked	acq3_masked	3	30	453	0	300	300	0	0	671	50	0	1	0	0	0	1	blank2r.bmp	0	1	+	0	3	B3r.bmp	492	1	blank2r.bmp	786	1	DHJF	786	1	blank2r.bmp	866	2	vertrauen	866	1	!	1292	1	!	-1	0	0	0	0	0	0	0	0	0	0	0	0	0	0	0	0	0	0	0	0	0	0	0	0	0	0	0
022719	10:22:04	10:28:13	368035	5.0.10.0	4_exp_AMP_EVA_AWA_CON	140	Rpleas_acq	Same	Rpleas	Amasked	CS_A	2pleas	distractor2	EVAbeforeCON	acq_US_unple_masked	acq3_masked	3	31	453	0	300	300	0	0	343	46	0	1	0	0	0	1	blank2r.bmp	0	1	+	0	7	C3r.bmp	492	1	blank2r.bmp	786	1	CPLW	786	1	blank2r.bmp	866	6	töten	866	1	!	-1	1	!	-1	0	0	0	0	0	0	0	0	0	0	0	0	0	0	0	0	0	0	0	0	0	0	0	0	0	0	0
022719	10:22:04	10:28:15	370274	5.0.10.0	4_exp_AMP_EVA_AWA_CON	140	Rpleas_acq	Same	Rpleas	Amasked	CS_A	2pleas	distractor2	EVAbeforeCON	acq_US_pleas_masked	acq3_masked	3	32	453	1	300	300	0	0	428	50	0	1	0	0	0	1	blank2r.bmp	0	1	+	0	2	B2r.bmp	492	1	blank2r.bmp	786	1	DHJF	786	1	blank2r.bmp	866	3	engagiert	866	1	!	1292	1	!	1332	0	0	0	0	0	0	0	0	0	0	0	0	0	0	0	0	0	0	0	0	0	0	0	0	0	0	0
022719	10:22:04	10:28:17	372593	5.0.10.0	4_exp_AMP_EVA_AWA_CON	140	Rpleas_acq	Same	Rpleas	Amasked	CS_A	2pleas	distractor2	EVAbeforeCON	acq_US_unple_masked	acq3_masked	3	33	453	0	300	300	0	0	556	46	0	1	0	0	0	1	blank2r.bmp	0	1	+	0	4	B4r.bmp	492	1	blank2r.bmp	786	1	CPLW	786	1	blank2r.bmp	866	2	versagen	866	1	!	1292	1	!	-1	0	0	0	0	0	0	0	0	0	0	0	0	0	0	0	0	0	0	0	0	0	0	0	0	0	0	0
022719	10:22:04	10:28:19	374819	5.0.10.0	4_exp_AMP_EVA_AWA_CON	140	Rpleas_acq	Same	Rpleas	Amasked	CS_A	2pleas	distractor2	EVAbeforeCON	acq_US_pleas_masked	acq3_masked	3	34	453	1	300	300	0	0	400	50	0	1	0	0	0	1	blank2r.bmp	0	1	+	0	7	C3r.bmp	492	1	blank2r.bmp	786	1	DHJF	786	1	blank2r.bmp	866	4	vergnügt	866	1	!	1292	1	!	1306	0	0	0	0	0	0	0	0	0	0	0	0	0	0	0	0	0	0	0	0	0	0	0	0	0	0	0
022719	10:22:04	10:28:22	377164	5.0.10.0	4_exp_AMP_EVA_AWA_CON	140	Rpleas_acq	Same	Rpleas	Amasked	CS_A	2pleas	distractor2	EVAbeforeCON	acq_US_unple_masked	acq3_masked	3	35	453	0	300	300	0	0	584	46	0	1	0	0	0	1	blank2r.bmp	0	1	+	0	5	C1r.bmp	492	1	blank2r.bmp	786	1	CPLW	786	1	blank2r.bmp	866	4	verbissen	866	1	!	1292	1	!	-1	0	0	0	0	0	0	0	0	0	0	0	0	0	0	0	0	0	0	0	0	0	0	0	0	0	0	0
022719	10:22:04	10:28:24	379390	5.0.10.0	4_exp_AMP_EVA_AWA_CON	140	Rpleas_acq	Same	Rpleas	Amasked	CS_A	2pleas	distractor2	EVAbeforeCON	acq_US_pleas_masked	acq3_masked	3	36	453	1	300	300	0	0	399	50	0	1	0	0	0	1	blank2r.bmp	0	1	+	0	3	B3r.bmp	492	1	blank2r.bmp	786	1	DHJF	786	1	blank2r.bmp	866	1	gesittet	866	1	!	1292	1	!	1306	0	0	0	0	0	0	0	0	0	0	0	0	0	0	0	0	0	0	0	0	0	0	0	0	0	0	0
022719	10:22:04	10:28:45	400741	5.0.10.0	4_exp_AMP_EVA_AWA_CON	140	Rpleas_acq	Same	Rpleas	Amasked	CS_A	2pleas	distractor2	EVAbeforeCON	acq_US_unple_masked	acq45_masked	4	1	400	1	300	300	0	0	396	46	0	1	0	0	0	1	blank2r.bmp	0	1	+	0	8	C4r.bmp	492	1	blank2r.bmp	786	1	CPLW	786	1	blank2r.bmp	866	6	töten	866	1	!	1239	1	!	1292	0	0	0	0	0	0	0	0	0	0	0	0	0	0	0	0	0	0	0	0	0	0	0	0	0	0	0
022719	10:22:04	10:28:48	402940	5.0.10.0	4_exp_AMP_EVA_AWA_CON	140	Rpleas_acq	Same	Rpleas	Amasked	CS_A	2pleas	distractor2	EVAbeforeCON	acq_US_unple_masked	acq45_masked	4	2	400	1	300	300	0	0	405	46	0	1	0	0	0	1	blank2r.bmp	0	1	+	0	2	B2r.bmp	492	1	blank2r.bmp	786	1	CPLW	786	1	blank2r.bmp	866	1	geizig	866	1	!	1239	1	!	1306	0	0	0	0	0	0	0	0	0	0	0	0	0	0	0	0	0	0	0	0	0	0	0	0	0	0	0
022719	10:22:04	10:28:50	405100	5.0.10.0	4_exp_AMP_EVA_AWA_CON	140	Rpleas_acq	Same	Rpleas	Amasked	CS_A	2pleas	distractor2	EVAbeforeCON	acq_US_unple_masked	acq45_masked	4	3	400	1	300	300	0	0	369	46	0	1	0	0	0	1	blank2r.bmp	0	1	+	0	1	B1r.bmp	492	1	blank2r.bmp	786	1	CPLW	786	1	blank2r.bmp	866	3	engstirnig	866	1	!	1239	1	!	1266	0	0	0	0	0	0	0	0	0	0	0	0	0	0	0	0	0	0	0	0	0	0	0	0	0	0	0
022719	10:22:04	10:28:52	407312	5.0.10.0	4_exp_AMP_EVA_AWA_CON	140	Rpleas_acq	Same	Rpleas	Amasked	CS_A	2pleas	distractor2	EVAbeforeCON	acq_US_pleas_masked	acq45_masked	4	4	400	1	300	300	0	0	421	50	0	1	0	0	0	1	blank2r.bmp	0	1	+	0	6	C2r.bmp	492	1	blank2r.bmp	786	1	DHJF	786	1	blank2r.bmp	866	6	träumen	866	1	!	1239	1	!	1319	0	0	0	0	0	0	0	0	0	0	0	0	0	0	0	0	0	0	0	0	0	0	0	0	0	0	0
022719	10:22:04	10:28:54	409458	5.0.10.0	4_exp_AMP_EVA_AWA_CON	140	Rpleas_acq	Same	Rpleas	Amasked	CS_A	2pleas	distractor2	EVAbeforeCON	acq_US_unple_masked	acq45_masked	4	5	400	1	300	300	0	0	348	46	0	1	0	0	0	1	blank2r.bmp	0	1	+	0	4	B4r.bmp	492	1	blank2r.bmp	786	1	CPLW	786	1	blank2r.bmp	866	4	verbissen	866	1	!	1239	1	!	1252	0	0	0	0	0	0	0	0	0	0	0	0	0	0	0	0	0	0	0	0	0	0	0	0	0	0	0
022719	10:22:04	10:28:56	411630	5.0.10.0	4_exp_AMP_EVA_AWA_CON	140	Rpleas_acq	Same	Rpleas	Amasked	CS_A	2pleas	distractor2	EVAbeforeCON	acq_US_pleas_masked	acq45_masked	4	6	400	1	300	300	0	0	373	46	0	0	0	0	0	1	blank2r.bmp	0	1	+	0	2	B2r.bmp	492	1	blank2r.bmp	786	1	DHJF	786	1	blank2r.bmp	866	3	engagiert	866	1	!	1239	1	!	1279	0	0	0	0	0	0	0	0	0	0	0	0	0	0	0	0	0	0	0	0	0	0	0	0	0	0	0
022719	10:22:04	10:28:58	413669	5.0.10.0	4_exp_AMP_EVA_AWA_CON	140	Rpleas_acq	Same	Rpleas	Amasked	CS_A	2pleas	distractor2	EVAbeforeCON	acq_US_pleas_masked	acq45_masked	4	7	400	0	300	300	0	0	271	46	0	0	0	0	0	1	blank2r.bmp	0	1	+	0	8	C4r.bmp	492	1	blank2r.bmp	786	1	DHJF	786	1	blank2r.bmp	866	1	gesittet	866	1	!	-1	1	!	-1	0	0	0	0	0	0	0	0	0	0	0	0	0	0	0	0	0	0	0	0	0	0	0	0	0	0	0
022719	10:22:04	10:29:01	415935	5.0.10.0	4_exp_AMP_EVA_AWA_CON	140	Rpleas_acq	Same	Rpleas	Amasked	CS_A	2pleas	distractor2	EVAbeforeCON	acq_US_pleas_masked	acq45_masked	4	8	400	1	300	300	0	0	440	50	0	1	0	0	0	1	blank2r.bmp	0	1	+	0	6	C2r.bmp	492	1	blank2r.bmp	786	1	DHJF	786	1	blank2r.bmp	866	2	vertrauen	866	1	!	1239	1	!	1346	0	0	0	0	0	0	0	0	0	0	0	0	0	0	0	0	0	0	0	0	0	0	0	0	0	0	0
022719	10:22:04	10:29:03	418121	5.0.10.0	4_exp_AMP_EVA_AWA_CON	140	Rpleas_acq	Same	Rpleas	Amasked	CS_A	2pleas	distractor2	EVAbeforeCON	acq_US_unple_masked	acq45_masked	4	9	400	1	300	300	0	0	386	46	0	1	0	0	0	1	blank2r.bmp	0	1	+	0	1	B1r.bmp	492	1	blank2r.bmp	786	1	CPLW	786	1	blank2r.bmp	866	2	versagen	866	1	!	1239	1	!	1292	0	0	0	0	0	0	0	0	0	0	0	0	0	0	0	0	0	0	0	0	0	0	0	0	0	0	0
022719	10:22:04	10:29:05	420346	5.0.10.0	4_exp_AMP_EVA_AWA_CON	140	Rpleas_acq	Same	Rpleas	Amasked	CS_A	2pleas	distractor2	EVAbeforeCON	acq_US_unple_masked	acq45_masked	4	10	400	1	300	300	0	0	428	46	0	1	0	0	0	1	blank2r.bmp	0	1	+	0	7	C3r.bmp	492	1	blank2r.bmp	786	1	CPLW	786	1	blank2r.bmp	866	5	krise	866	1	!	1239	1	!	1332	0	0	0	0	0	0	0	0	0	0	0	0	0	0	0	0	0	0	0	0	0	0	0	0	0	0	0
022719	10:22:04	10:29:07	422519	5.0.10.0	4_exp_AMP_EVA_AWA_CON	140	Rpleas_acq	Same	Rpleas	Amasked	CS_A	2pleas	distractor2	EVAbeforeCON	acq_US_pleas_masked	acq45_masked	4	11	400	1	300	300	0	0	376	46	0	0	0	0	0	1	blank2r.bmp	0	1	+	0	3	B3r.bmp	492	1	blank2r.bmp	786	1	DHJF	786	1	blank2r.bmp	866	5	kuss	866	1	!	1239	1	!	1279	0	0	0	0	0	0	0	0	0	0	0	0	0	0	0	0	0	0	0	0	0	0	0	0	0	0	0
022719	10:22:04	10:29:09	424718	5.0.10.0	4_exp_AMP_EVA_AWA_CON	140	Rpleas_acq	Same	Rpleas	Amasked	CS_A	2pleas	distractor2	EVAbeforeCON	acq_US_pleas_masked	acq45_masked	4	12	400	1	300	300	0	0	402	50	0	1	0	0	0	1	blank2r.bmp	0	1	+	0	5	C1r.bmp	492	1	blank2r.bmp	786	1	DHJF	786	1	blank2r.bmp	866	4	vergnügt	866	1	!	1239	1	!	1306	0	0	0	0	0	0	0	0	0	0	0	0	0	0	0	0	0	0	0	0	0	0	0	0	0	0	0
022719	10:22:04	10:29:11	426810	5.0.10.0	4_exp_AMP_EVA_AWA_CON	140	Rpleas_acq	Same	Rpleas	Amasked	CS_A	2pleas	distractor2	EVAbeforeCON	acq_US_unple_masked	acq45_masked	4	13	400	0	300	300	0	0	320	46	0	1	0	0	0	1	blank2r.bmp	0	1	+	0	7	C3r.bmp	492	1	blank2r.bmp	786	1	CPLW	786	1	blank2r.bmp	866	4	verbissen	866	1	!	-1	1	!	-1	0	0	0	0	0	0	0	0	0	0	0	0	0	0	0	0	0	0	0	0	0	0	0	0	0	0	0
022719	10:22:04	10:29:14	429010	5.0.10.0	4_exp_AMP_EVA_AWA_CON	140	Rpleas_acq	Same	Rpleas	Amasked	CS_A	2pleas	distractor2	EVAbeforeCON	acq_US_pleas_masked	acq45_masked	4	14	400	1	300	300	0	0	387	50	0	1	0	0	0	1	blank2r.bmp	0	1	+	0	5	C1r.bmp	492	1	blank2r.bmp	786	1	DHJF	786	1	blank2r.bmp	866	4	vergnügt	866	1	!	1239	1	!	1292	0	0	0	0	0	0	0	0	0	0	0	0	0	0	0	0	0	0	0	0	0	0	0	0	0	0	0
022719	10:22:04	10:29:16	431249	5.0.10.0	4_exp_AMP_EVA_AWA_CON	140	Rpleas_acq	Same	Rpleas	Amasked	CS_A	2pleas	distractor2	EVAbeforeCON	acq_US_unple_masked	acq45_masked	4	15	400	1	300	300	0	0	443	46	0	1	0	0	0	1	blank2r.bmp	0	1	+	0	2	B2r.bmp	492	1	blank2r.bmp	786	1	CPLW	786	1	blank2r.bmp	866	2	versagen	866	1	!	1239	1	!	1346	0	0	0	0	0	0	0	0	0	0	0	0	0	0	0	0	0	0	0	0	0	0	0	0	0	0	0
022719	10:22:04	10:29:18	433421	5.0.10.0	4_exp_AMP_EVA_AWA_CON	140	Rpleas_acq	Same	Rpleas	Amasked	CS_A	2pleas	distractor2	EVAbeforeCON	acq_US_pleas_masked	acq45_masked	4	16	400	1	300	300	0	0	361	50	0	1	0	0	0	1	blank2r.bmp	0	1	+	0	6	C2r.bmp	492	1	blank2r.bmp	786	1	DHJF	786	1	blank2r.bmp	866	1	gesittet	866	1	!	1239	1	!	1266	0	0	0	0	0	0	0	0	0	0	0	0	0	0	0	0	0	0	0	0	0	0	0	0	0	0	0
022719	10:22:04	10:29:20	435607	5.0.10.0	4_exp_AMP_EVA_AWA_CON	140	Rpleas_acq	Same	Rpleas	Amasked	CS_A	2pleas	distractor2	EVAbeforeCON	acq_US_pleas_masked	acq45_masked	4	17	400	1	300	300	0	0	386	50	0	1	0	0	0	1	blank2r.bmp	0	1	+	0	8	C4r.bmp	492	1	blank2r.bmp	786	1	DHJF	786	1	blank2r.bmp	866	2	vertrauen	866	1	!	1239	1	!	1292	0	0	0	0	0	0	0	0	0	0	0	0	0	0	0	0	0	0	0	0	0	0	0	0	0	0	0
022719	10:22:04	10:29:22	437766	5.0.10.0	4_exp_AMP_EVA_AWA_CON	140	Rpleas_acq	Same	Rpleas	Amasked	CS_A	2pleas	distractor2	EVAbeforeCON	acq_US_unple_masked	acq45_masked	4	18	400	1	300	300	0	0	366	46	0	1	0	0	0	1	blank2r.bmp	0	1	+	0	4	B4r.bmp	492	1	blank2r.bmp	786	1	CPLW	786	1	blank2r.bmp	866	3	engstirnig	866	1	!	1239	1	!	1266	0	0	0	0	0	0	0	0	0	0	0	0	0	0	0	0	0	0	0	0	0	0	0	0	0	0	0
022719	10:22:04	10:29:25	439938	5.0.10.0	4_exp_AMP_EVA_AWA_CON	140	Rpleas_acq	Same	Rpleas	Amasked	CS_A	2pleas	distractor2	EVAbeforeCON	acq_US_pleas_masked	acq45_masked	4	19	400	1	300	300	0	0	375	50	0	1	0	0	0	1	blank2r.bmp	0	1	+	0	1	B1r.bmp	492	1	blank2r.bmp	786	1	DHJF	786	1	blank2r.bmp	866	6	träumen	866	1	!	1239	1	!	1279	0	0	0	0	0	0	0	0	0	0	0	0	0	0	0	0	0	0	0	0	0	0	0	0	0	0	0
022719	10:22:04	10:29:27	442018	5.0.10.0	4_exp_AMP_EVA_AWA_CON	140	Rpleas_acq	Same	Rpleas	Amasked	CS_A	2pleas	distractor2	EVAbeforeCON	acq_US_unple_masked	acq45_masked	4	20	400	0	300	300	0	0	312	46	0	1	0	0	0	1	blank2r.bmp	0	1	+	0	3	B3r.bmp	492	1	blank2r.bmp	786	1	CPLW	786	1	blank2r.bmp	866	6	töten	866	1	!	-1	1	!	-1	0	0	0	0	0	0	0	0	0	0	0	0	0	0	0	0	0	0	0	0	0	0	0	0	0	0	0
022719	10:22:04	10:29:29	444257	5.0.10.0	4_exp_AMP_EVA_AWA_CON	140	Rpleas_acq	Same	Rpleas	Amasked	CS_A	2pleas	distractor2	EVAbeforeCON	acq_US_unple_masked	acq45_masked	4	21	400	1	300	300	0	0	429	46	0	1	0	0	0	1	blank2r.bmp	0	1	+	0	1	B1r.bmp	492	1	blank2r.bmp	786	1	CPLW	786	1	blank2r.bmp	866	1	geizig	866	1	!	1239	1	!	1332	0	0	0	0	0	0	0	0	0	0	0	0	0	0	0	0	0	0	0	0	0	0	0	0	0	0	0
022719	10:22:04	10:29:31	446442	5.0.10.0	4_exp_AMP_EVA_AWA_CON	140	Rpleas_acq	Same	Rpleas	Amasked	CS_A	2pleas	distractor2	EVAbeforeCON	acq_US_unple_masked	acq45_masked	4	22	400	1	300	300	0	0	391	46	0	1	0	0	0	1	blank2r.bmp	0	1	+	0	8	C4r.bmp	492	1	blank2r.bmp	786	1	CPLW	786	1	blank2r.bmp	866	5	krise	866	1	!	1239	1	!	1292	0	0	0	0	0	0	0	0	0	0	0	0	0	0	0	0	0	0	0	0	0	0	0	0	0	0	0
022719	10:22:04	10:29:33	448602	5.0.10.0	4_exp_AMP_EVA_AWA_CON	140	Rpleas_acq	Same	Rpleas	Amasked	CS_A	2pleas	distractor2	EVAbeforeCON	acq_US_unple_masked	acq45_masked	4	23	400	1	300	300	0	0	346	46	0	1	0	0	0	1	blank2r.bmp	0	1	+	0	2	B2r.bmp	492	1	blank2r.bmp	786	1	CPLW	786	1	blank2r.bmp	866	1	geizig	866	1	!	1239	1	!	1252	0	0	0	0	0	0	0	0	0	0	0	0	0	0	0	0	0	0	0	0	0	0	0	0	0	0	0
022719	10:22:04	10:29:35	450854	5.0.10.0	4_exp_AMP_EVA_AWA_CON	140	Rpleas_acq	Same	Rpleas	Amasked	CS_A	2pleas	distractor2	EVAbeforeCON	acq_US_pleas_masked	acq45_masked	4	24	400	0	300	300	0	0	488	50	0	1	0	0	0	1	blank2r.bmp	0	1	+	0	7	C3r.bmp	492	1	blank2r.bmp	786	1	DHJF	786	1	blank2r.bmp	866	3	engagiert	866	1	!	1239	1	!	-1	0	0	0	0	0	0	0	0	0	0	0	0	0	0	0	0	0	0	0	0	0	0	0	0	0	0	0
022719	10:22:04	10:29:38	453080	5.0.10.0	4_exp_AMP_EVA_AWA_CON	140	Rpleas_acq	Same	Rpleas	Amasked	CS_A	2pleas	distractor2	EVAbeforeCON	acq_US_unple_masked	acq45_masked	4	25	400	1	300	300	0	0	423	46	0	1	0	0	0	1	blank2r.bmp	0	1	+	0	4	B4r.bmp	492	1	blank2r.bmp	786	1	CPLW	786	1	blank2r.bmp	866	4	verbissen	866	1	!	1239	1	!	1319	0	0	0	0	0	0	0	0	0	0	0	0	0	0	0	0	0	0	0	0	0	0	0	0	0	0	0
022719	10:22:04	10:29:40	455265	5.0.10.0	4_exp_AMP_EVA_AWA_CON	140	Rpleas_acq	Same	Rpleas	Amasked	CS_A	2pleas	distractor2	EVAbeforeCON	acq_US_unple_masked	acq45_masked	4	26	400	1	300	300	0	0	393	46	0	1	0	0	0	1	blank2r.bmp	0	1	+	0	6	C2r.bmp	492	1	blank2r.bmp	786	1	CPLW	786	1	blank2r.bmp	866	5	krise	866	1	!	1239	1	!	1292	0	0	0	0	0	0	0	0	0	0	0	0	0	0	0	0	0	0	0	0	0	0	0	0	0	0	0
022719	10:22:04	10:29:42	457345	5.0.10.0	4_exp_AMP_EVA_AWA_CON	140	Rpleas_acq	Same	Rpleas	Amasked	CS_A	2pleas	distractor2	EVAbeforeCON	acq_US_pleas_masked	acq45_masked	4	27	400	0	300	300	0	0	309	46	0	0	0	0	0	1	blank2r.bmp	0	1	+	0	5	C1r.bmp	492	1	blank2r.bmp	786	1	DHJF	786	1	blank2r.bmp	866	5	kuss	866	1	!	-1	1	!	-1	0	0	0	0	0	0	0	0	0	0	0	0	0	0	0	0	0	0	0	0	0	0	0	0	0	0	0
022719	10:22:04	10:29:44	459597	5.0.10.0	4_exp_AMP_EVA_AWA_CON	140	Rpleas_acq	Same	Rpleas	Amasked	CS_A	2pleas	distractor2	EVAbeforeCON	acq_US_pleas_masked	acq45_masked	4	28	400	1	300	300	0	0	449	50	0	1	0	0	0	1	blank2r.bmp	0	1	+	0	3	B3r.bmp	492	1	blank2r.bmp	786	1	DHJF	786	1	blank2r.bmp	866	1	gesittet	866	1	!	1239	1	!	1346	0	0	0	0	0	0	0	0	0	0	0	0	0	0	0	0	0	0	0	0	0	0	0	0	0	0	0
022719	10:22:04	10:29:46	461783	5.0.10.0	4_exp_AMP_EVA_AWA_CON	140	Rpleas_acq	Same	Rpleas	Amasked	CS_A	2pleas	distractor2	EVAbeforeCON	acq_US_pleas_masked	acq45_masked	4	29	400	1	300	300	0	0	392	50	0	1	0	0	0	1	blank2r.bmp	0	1	+	0	3	B3r.bmp	492	1	blank2r.bmp	786	1	DHJF	786	1	blank2r.bmp	866	6	träumen	866	1	!	1239	1	!	1292	0	0	0	0	0	0	0	0	0	0	0	0	0	0	0	0	0	0	0	0	0	0	0	0	0	0	0
022719	10:22:04	10:29:49	463929	5.0.10.0	4_exp_AMP_EVA_AWA_CON	140	Rpleas_acq	Same	Rpleas	Amasked	CS_A	2pleas	distractor2	EVAbeforeCON	acq_US_pleas_masked	acq45_masked	4	30	400	1	300	300	0	0	346	50	0	1	0	0	0	1	blank2r.bmp	0	1	+	0	8	C4r.bmp	492	1	blank2r.bmp	786	1	DHJF	786	1	blank2r.bmp	866	4	vergnügt	866	1	!	1239	1	!	1252	0	0	0	0	0	0	0	0	0	0	0	0	0	0	0	0	0	0	0	0	0	0	0	0	0	0	0
022719	10:22:04	10:29:51	466008	5.0.10.0	4_exp_AMP_EVA_AWA_CON	140	Rpleas_acq	Same	Rpleas	Amasked	CS_A	2pleas	distractor2	EVAbeforeCON	acq_US_unple_masked	acq45_masked	4	31	400	0	300	300	0	0	299	50	0	0	0	0	0	1	blank2r.bmp	0	1	+	0	5	C1r.bmp	492	1	blank2r.bmp	786	1	CPLW	786	1	blank2r.bmp	866	2	versagen	866	1	!	-1	1	!	-1	0	0	0	0	0	0	0	0	0	0	0	0	0	0	0	0	0	0	0	0	0	0	0	0	0	0	0
022719	10:22:04	10:29:53	468260	5.0.10.0	4_exp_AMP_EVA_AWA_CON	140	Rpleas_acq	Same	Rpleas	Amasked	CS_A	2pleas	distractor2	EVAbeforeCON	acq_US_pleas_masked	acq45_masked	4	32	400	1	300	300	0	0	436	50	0	1	0	0	0	1	blank2r.bmp	0	1	+	0	2	B2r.bmp	492	1	blank2r.bmp	786	1	DHJF	786	1	blank2r.bmp	866	5	kuss	866	1	!	1239	1	!	1332	0	0	0	0	0	0	0	0	0	0	0	0	0	0	0	0	0	0	0	0	0	0	0	0	0	0	0
022719	10:22:04	10:29:55	470513	5.0.10.0	4_exp_AMP_EVA_AWA_CON	140	Rpleas_acq	Same	Rpleas	Amasked	CS_A	2pleas	distractor2	EVAbeforeCON	acq_US_unple_masked	acq45_masked	4	33	400	0	300	300	0	0	479	46	0	1	0	0	0	1	blank2r.bmp	0	1	+	0	6	C2r.bmp	492	1	blank2r.bmp	786	1	CPLW	786	1	blank2r.bmp	866	6	töten	866	1	!	1239	1	!	-1	0	0	0	0	0	0	0	0	0	0	0	0	0	0	0	0	0	0	0	0	0	0	0	0	0	0	0
022719	10:22:04	10:29:57	472765	5.0.10.0	4_exp_AMP_EVA_AWA_CON	140	Rpleas_acq	Same	Rpleas	Amasked	CS_A	2pleas	distractor2	EVAbeforeCON	acq_US_pleas_masked	acq45_masked	4	34	400	1	300	300	0	0	442	50	0	1	0	0	0	1	blank2r.bmp	0	1	+	0	7	C3r.bmp	492	1	blank2r.bmp	786	1	DHJF	786	1	blank2r.bmp	866	2	vertrauen	866	1	!	1239	1	!	1346	0	0	0	0	0	0	0	0	0	0	0	0	0	0	0	0	0	0	0	0	0	0	0	0	0	0	0
022719	10:22:04	10:30:00	475017	5.0.10.0	4_exp_AMP_EVA_AWA_CON	140	Rpleas_acq	Same	Rpleas	Amasked	CS_A	2pleas	distractor2	EVAbeforeCON	acq_US_unple_masked	acq45_masked	4	35	400	0	300	300	0	0	481	46	0	1	0	0	0	1	blank2r.bmp	0	1	+	0	4	B4r.bmp	492	1	blank2r.bmp	786	1	CPLW	786	1	blank2r.bmp	866	3	engstirnig	866	1	!	1239	1	!	-1	0	0	0	0	0	0	0	0	0	0	0	0	0	0	0	0	0	0	0	0	0	0	0	0	0	0	0
022719	10:22:04	10:30:02	477083	5.0.10.0	4_exp_AMP_EVA_AWA_CON	140	Rpleas_acq	Same	Rpleas	Amasked	CS_A	2pleas	distractor2	EVAbeforeCON	acq_US_pleas_masked	acq45_masked	4	36	400	0	300	300	0	0	285	50	0	1	0	0	0	1	blank2r.bmp	0	1	+	0	1	B1r.bmp	492	1	blank2r.bmp	786	1	DHJF	786	1	blank2r.bmp	866	3	engagiert	866	1	!	-1	1	!	-1	0	0	0	0	0	0	0	0	0	0	0	0	0	0	0	0	0	0	0	0	0	0	0	0	0	0	0
022719	10:22:04	10:30:21	496529	5.0.10.0	4_exp_AMP_EVA_AWA_CON	140	Rpleas_acq	Same	Rpleas	Amasked	CS_A	2pleas	distractor2	EVAbeforeCON	acq_US_pleas_masked	acq45_masked	5	1	400	1	300	300	0	0	440	50	0	1	0	0	0	1	blank2r.bmp	0	1	+	0	3	B3r.bmp	492	1	blank2r.bmp	786	1	DHJF	786	1	blank2r.bmp	866	3	engagiert	866	1	!	1239	1	!	1346	0	0	0	0	0	0	0	0	0	0	0	0	0	0	0	0	0	0	0	0	0	0	0	0	0	0	0
022719	10:22:04	10:30:23	498701	5.0.10.0	4_exp_AMP_EVA_AWA_CON	140	Rpleas_acq	Same	Rpleas	Amasked	CS_A	2pleas	distractor2	EVAbeforeCON	acq_US_unple_masked	acq45_masked	5	2	400	1	300	300	0	0	374	46	0	1	0	0	0	1	blank2r.bmp	0	1	+	0	4	B4r.bmp	492	1	blank2r.bmp	786	1	CPLW	786	1	blank2r.bmp	866	5	krise	866	1	!	1239	1	!	1279	0	0	0	0	0	0	0	0	0	0	0	0	0	0	0	0	0	0	0	0	0	0	0	0	0	0	0
022719	10:22:04	10:30:25	500793	5.0.10.0	4_exp_AMP_EVA_AWA_CON	140	Rpleas_acq	Same	Rpleas	Amasked	CS_A	2pleas	distractor2	EVAbeforeCON	acq_US_unple_masked	acq45_masked	5	3	400	0	300	300	0	0	317	50	0	0	0	0	0	1	blank2r.bmp	0	1	+	0	2	B2r.bmp	492	1	blank2r.bmp	786	1	CPLW	786	1	blank2r.bmp	866	3	engstirnig	866	1	!	-1	1	!	-1	0	0	0	0	0	0	0	0	0	0	0	0	0	0	0	0	0	0	0	0	0	0	0	0	0	0	0
022719	10:22:04	10:30:28	503059	5.0.10.0	4_exp_AMP_EVA_AWA_CON	140	Rpleas_acq	Same	Rpleas	Amasked	CS_A	2pleas	distractor2	EVAbeforeCON	acq_US_unple_masked	acq45_masked	5	4	400	1	300	300	0	0	439	46	0	1	0	0	0	1	blank2r.bmp	0	1	+	0	5	C1r.bmp	492	1	blank2r.bmp	786	1	CPLW	786	1	blank2r.bmp	866	4	verbissen	866	1	!	1239	1	!	1346	0	0	0	0	0	0	0	0	0	0	0	0	0	0	0	0	0	0	0	0	0	0	0	0	0	0	0
022719	10:22:04	10:30:30	505125	5.0.10.0	4_exp_AMP_EVA_AWA_CON	140	Rpleas_acq	Same	Rpleas	Amasked	CS_A	2pleas	distractor2	EVAbeforeCON	acq_US_pleas_masked	acq45_masked	5	5	400	0	300	300	0	0	299	50	0	1	0	0	0	1	blank2r.bmp	0	1	+	0	8	C4r.bmp	492	1	blank2r.bmp	786	1	DHJF	786	1	blank2r.bmp	866	5	kuss	866	1	!	-1	1	!	-1	0	0	0	0	0	0	0	0	0	0	0	0	0	0	0	0	0	0	0	0	0	0	0	0	0	0	0
022719	10:22:04	10:30:32	507377	5.0.10.0	4_exp_AMP_EVA_AWA_CON	140	Rpleas_acq	Same	Rpleas	Amasked	CS_A	2pleas	distractor2	EVAbeforeCON	acq_US_pleas_masked	acq45_masked	5	6	400	1	300	300	0	0	450	50	0	1	0	0	0	1	blank2r.bmp	0	1	+	0	7	C3r.bmp	492	1	blank2r.bmp	786	1	DHJF	786	1	blank2r.bmp	866	4	vergnügt	866	1	!	1239	1	!	1346	0	0	0	0	0	0	0	0	0	0	0	0	0	0	0	0	0	0	0	0	0	0	0	0	0	0	0
022719	10:22:04	10:30:34	509563	5.0.10.0	4_exp_AMP_EVA_AWA_CON	140	Rpleas_acq	Same	Rpleas	Amasked	CS_A	2pleas	distractor2	EVAbeforeCON	acq_US_unple_masked	acq45_masked	5	7	400	1	300	300	0	0	386	46	0	1	0	0	0	1	blank2r.bmp	0	1	+	0	1	B1r.bmp	492	1	blank2r.bmp	786	1	CPLW	786	1	blank2r.bmp	866	1	geizig	866	1	!	1239	1	!	1292	0	0	0	0	0	0	0	0	0	0	0	0	0	0	0	0	0	0	0	0	0	0	0	0	0	0	0
022719	10:22:04	10:30:36	511802	5.0.10.0	4_exp_AMP_EVA_AWA_CON	140	Rpleas_acq	Same	Rpleas	Amasked	CS_A	2pleas	distractor2	EVAbeforeCON	acq_US_unple_masked	acq45_masked	5	8	400	1	300	300	0	0	444	46	0	1	0	0	0	1	blank2r.bmp	0	1	+	0	6	C2r.bmp	492	1	blank2r.bmp	786	1	CPLW	786	1	blank2r.bmp	866	6	töten	866	1	!	1239	1	!	1346	0	0	0	0	0	0	0	0	0	0	0	0	0	0	0	0	0	0	0	0	0	0	0	0	0	0	0
022719	10:22:04	10:30:39	514015	5.0.10.0	4_exp_AMP_EVA_AWA_CON	140	Rpleas_acq	Same	Rpleas	Amasked	CS_A	2pleas	distractor2	EVAbeforeCON	acq_US_pleas_masked	acq45_masked	5	9	400	1	300	300	0	0	421	50	0	1	0	0	0	1	blank2r.bmp	0	1	+	0	8	C4r.bmp	492	1	blank2r.bmp	786	1	DHJF	786	1	blank2r.bmp	866	1	gesittet	866	1	!	1239	1	!	1319	0	0	0	0	0	0	0	0	0	0	0	0	0	0	0	0	0	0	0	0	0	0	0	0	0	0	0
022719	10:22:04	10:30:41	516174	5.0.10.0	4_exp_AMP_EVA_AWA_CON	140	Rpleas_acq	Same	Rpleas	Amasked	CS_A	2pleas	distractor2	EVAbeforeCON	acq_US_pleas_masked	acq45_masked	5	10	400	1	300	300	0	0	366	46	0	0	0	0	0	1	blank2r.bmp	0	1	+	0	5	C1r.bmp	492	1	blank2r.bmp	786	1	DHJF	786	1	blank2r.bmp	866	6	träumen	866	1	!	1239	1	!	1266	0	0	0	0	0	0	0	0	0	0	0	0	0	0	0	0	0	0	0	0	0	0	0	0	0	0	0
022719	10:22:04	10:30:43	518439	5.0.10.0	4_exp_AMP_EVA_AWA_CON	140	Rpleas_acq	Same	Rpleas	Amasked	CS_A	2pleas	distractor2	EVAbeforeCON	acq_US_unple_masked	acq45_masked	5	11	400	1	300	300	0	0	455	50	0	0	0	0	0	1	blank2r.bmp	0	1	+	0	6	C2r.bmp	492	1	blank2r.bmp	786	1	CPLW	786	1	blank2r.bmp	866	2	versagen	866	1	!	1239	1	!	1359	0	0	0	0	0	0	0	0	0	0	0	0	0	0	0	0	0	0	0	0	0	0	0	0	0	0	0
022719	10:22:04	10:30:45	520665	5.0.10.0	4_exp_AMP_EVA_AWA_CON	140	Rpleas_acq	Same	Rpleas	Amasked	CS_A	2pleas	distractor2	EVAbeforeCON	acq_US_unple_masked	acq45_masked	5	12	400	1	300	300	0	0	432	46	0	1	0	0	0	1	blank2r.bmp	0	1	+	0	7	C3r.bmp	492	1	blank2r.bmp	786	1	CPLW	786	1	blank2r.bmp	866	1	geizig	866	1	!	1239	1	!	1332	0	0	0	0	0	0	0	0	0	0	0	0	0	0	0	0	0	0	0	0	0	0	0	0	0	0	0
022719	10:22:04	10:30:47	522878	5.0.10.0	4_exp_AMP_EVA_AWA_CON	140	Rpleas_acq	Same	Rpleas	Amasked	CS_A	2pleas	distractor2	EVAbeforeCON	acq_US_unple_masked	acq45_masked	5	13	400	1	300	300	0	0	408	50	0	0	0	0	0	1	blank2r.bmp	0	1	+	0	1	B1r.bmp	492	1	blank2r.bmp	786	1	CPLW	786	1	blank2r.bmp	866	2	versagen	866	1	!	1239	1	!	1306	0	0	0	0	0	0	0	0	0	0	0	0	0	0	0	0	0	0	0	0	0	0	0	0	0	0	0
022719	10:22:04	10:30:50	525050	5.0.10.0	4_exp_AMP_EVA_AWA_CON	140	Rpleas_acq	Same	Rpleas	Amasked	CS_A	2pleas	distractor2	EVAbeforeCON	acq_US_pleas_masked	acq45_masked	5	14	400	1	300	300	0	0	378	50	0	1	0	0	0	1	blank2r.bmp	0	1	+	0	2	B2r.bmp	492	1	blank2r.bmp	786	1	DHJF	786	1	blank2r.bmp	866	2	vertrauen	866	1	!	1239	1	!	1279	0	0	0	0	0	0	0	0	0	0	0	0	0	0	0	0	0	0	0	0	0	0	0	0	0	0	0
022719	10:22:04	10:30:52	527223	5.0.10.0	4_exp_AMP_EVA_AWA_CON	140	Rpleas_acq	Same	Rpleas	Amasked	CS_A	2pleas	distractor2	EVAbeforeCON	acq_US_pleas_masked	acq45_masked	5	15	400	1	300	300	0	0	360	50	0	1	0	0	0	1	blank2r.bmp	0	1	+	0	3	B3r.bmp	492	1	blank2r.bmp	786	1	DHJF	786	1	blank2r.bmp	866	4	vergnügt	866	1	!	1239	1	!	1266	0	0	0	0	0	0	0	0	0	0	0	0	0	0	0	0	0	0	0	0	0	0	0	0	0	0	0
022719	10:22:04	10:30:54	529275	5.0.10.0	4_exp_AMP_EVA_AWA_CON	140	Rpleas_acq	Same	Rpleas	Amasked	CS_A	2pleas	distractor2	EVAbeforeCON	acq_US_unple_masked	acq45_masked	5	16	400	0	300	300	0	0	286	46	0	1	0	0	0	1	blank2r.bmp	0	1	+	0	4	B4r.bmp	492	1	blank2r.bmp	786	1	CPLW	786	1	blank2r.bmp	866	4	verbissen	866	1	!	-1	1	!	-1	0	0	0	0	0	0	0	0	0	0	0	0	0	0	0	0	0	0	0	0	0	0	0	0	0	0	0
022719	10:22:04	10:30:56	531541	5.0.10.0	4_exp_AMP_EVA_AWA_CON	140	Rpleas_acq	Same	Rpleas	Amasked	CS_A	2pleas	distractor2	EVAbeforeCON	acq_US_pleas_masked	acq45_masked	5	17	400	1	300	300	0	0	464	50	0	1	0	0	0	1	blank2r.bmp	0	1	+	0	2	B2r.bmp	492	1	blank2r.bmp	786	1	DHJF	786	1	blank2r.bmp	866	1	gesittet	866	1	!	1239	1	!	1359	0	0	0	0	0	0	0	0	0	0	0	0	0	0	0	0	0	0	0	0	0	0	0	0	0	0	0
022719	10:22:04	10:30:58	533767	5.0.10.0	4_exp_AMP_EVA_AWA_CON	140	Rpleas_acq	Same	Rpleas	Amasked	CS_A	2pleas	distractor2	EVAbeforeCON	acq_US_pleas_masked	acq45_masked	5	18	400	1	300	300	0	0	437	50	0	1	0	0	0	1	blank2r.bmp	0	1	+	0	4	B4r.bmp	492	1	blank2r.bmp	786	1	DHJF	786	1	blank2r.bmp	866	6	träumen	866	1	!	1239	1	!	1332	0	0	0	0	0	0	0	0	0	0	0	0	0	0	0	0	0	0	0	0	0	0	0	0	0	0	0
022719	10:22:04	10:31:01	535926	5.0.10.0	4_exp_AMP_EVA_AWA_CON	140	Rpleas_acq	Same	Rpleas	Amasked	CS_A	2pleas	distractor2	EVAbeforeCON	acq_US_unple_masked	acq45_masked	5	19	400	1	300	300	0	0	362	46	0	1	0	0	0	1	blank2r.bmp	0	1	+	0	1	B1r.bmp	492	1	blank2r.bmp	786	1	CPLW	786	1	blank2r.bmp	866	3	engstirnig	866	1	!	1239	1	!	1266	0	0	0	0	0	0	0	0	0	0	0	0	0	0	0	0	0	0	0	0	0	0	0	0	0	0	0
022719	10:22:04	10:31:03	538165	5.0.10.0	4_exp_AMP_EVA_AWA_CON	140	Rpleas_acq	Same	Rpleas	Amasked	CS_A	2pleas	distractor2	EVAbeforeCON	acq_US_unple_masked	acq45_masked	5	20	400	1	300	300	0	0	440	46	0	1	0	0	0	1	blank2r.bmp	0	1	+	0	5	C1r.bmp	492	1	blank2r.bmp	786	1	CPLW	786	1	blank2r.bmp	866	5	krise	866	1	!	1239	1	!	1346	0	0	0	0	0	0	0	0	0	0	0	0	0	0	0	0	0	0	0	0	0	0	0	0	0	0	0
022719	10:22:04	10:31:05	540417	5.0.10.0	4_exp_AMP_EVA_AWA_CON	140	Rpleas_acq	Same	Rpleas	Amasked	CS_A	2pleas	distractor2	EVAbeforeCON	acq_US_pleas_masked	acq45_masked	5	21	400	0	300	300	0	0	479	50	0	1	0	0	0	1	blank2r.bmp	0	1	+	0	8	C4r.bmp	492	1	blank2r.bmp	786	1	DHJF	786	1	blank2r.bmp	866	5	kuss	866	1	!	1239	1	!	-1	0	0	0	0	0	0	0	0	0	0	0	0	0	0	0	0	0	0	0	0	0	0	0	0	0	0	0
022719	10:22:04	10:31:07	542630	5.0.10.0	4_exp_AMP_EVA_AWA_CON	140	Rpleas_acq	Same	Rpleas	Amasked	CS_A	2pleas	distractor2	EVAbeforeCON	acq_US_pleas_masked	acq45_masked	5	22	400	1	300	300	0	0	390	46	0	0	0	0	0	1	blank2r.bmp	0	1	+	0	3	B3r.bmp	492	1	blank2r.bmp	786	1	DHJF	786	1	blank2r.bmp	866	3	engagiert	866	1	!	1239	1	!	1292	0	0	0	0	0	0	0	0	0	0	0	0	0	0	0	0	0	0	0	0	0	0	0	0	0	0	0
022719	10:22:04	10:31:09	544895	5.0.10.0	4_exp_AMP_EVA_AWA_CON	140	Rpleas_acq	Same	Rpleas	Amasked	CS_A	2pleas	distractor2	EVAbeforeCON	acq_US_pleas_masked	acq45_masked	5	23	400	1	300	300	0	0	457	50	0	1	0	0	0	1	blank2r.bmp	0	1	+	0	6	C2r.bmp	492	1	blank2r.bmp	786	1	DHJF	786	1	blank2r.bmp	866	2	vertrauen	866	1	!	1239	1	!	1359	0	0	0	0	0	0	0	0	0	0	0	0	0	0	0	0	0	0	0	0	0	0	0	0	0	0	0
022719	10:22:04	10:31:12	547121	5.0.10.0	4_exp_AMP_EVA_AWA_CON	140	Rpleas_acq	Same	Rpleas	Amasked	CS_A	2pleas	distractor2	EVAbeforeCON	acq_US_pleas_masked	acq45_masked	5	24	400	1	300	300	0	0	429	50	0	1	0	0	0	1	blank2r.bmp	0	1	+	0	7	C3r.bmp	492	1	blank2r.bmp	786	1	DHJF	786	1	blank2r.bmp	866	2	vertrauen	866	1	!	1239	1	!	1332	0	0	0	0	0	0	0	0	0	0	0	0	0	0	0	0	0	0	0	0	0	0	0	0	0	0	0
022719	10:22:04	10:31:14	549360	5.0.10.0	4_exp_AMP_EVA_AWA_CON	140	Rpleas_acq	Same	Rpleas	Amasked	CS_A	2pleas	distractor2	EVAbeforeCON	acq_US_pleas_masked	acq45_masked	5	25	400	1	300	300	0	0	443	50	0	1	0	0	0	1	blank2r.bmp	0	1	+	0	1	B1r.bmp	492	1	blank2r.bmp	786	1	DHJF	786	1	blank2r.bmp	866	3	engagiert	866	1	!	1239	1	!	1346	0	0	0	0	0	0	0	0	0	0	0	0	0	0	0	0	0	0	0	0	0	0	0	0	0	0	0
022719	10:22:04	10:31:16	551506	5.0.10.0	4_exp_AMP_EVA_AWA_CON	140	Rpleas_acq	Same	Rpleas	Amasked	CS_A	2pleas	distractor2	EVAbeforeCON	acq_US_pleas_masked	acq45_masked	5	26	400	1	300	300	0	0	346	46	0	0	0	0	0	1	blank2r.bmp	0	1	+	0	3	B3r.bmp	492	1	blank2r.bmp	786	1	DHJF	786	1	blank2r.bmp	866	5	kuss	866	1	!	1239	1	!	1252	0	0	0	0	0	0	0	0	0	0	0	0	0	0	0	0	0	0	0	0	0	0	0	0	0	0	0
022719	10:22:04	10:31:18	553665	5.0.10.0	4_exp_AMP_EVA_AWA_CON	140	Rpleas_acq	Same	Rpleas	Amasked	CS_A	2pleas	distractor2	EVAbeforeCON	acq_US_unple_masked	acq45_masked	5	27	400	1	300	300	0	0	346	46	0	1	0	0	0	1	blank2r.bmp	0	1	+	0	8	C4r.bmp	492	1	blank2r.bmp	786	1	CPLW	786	1	blank2r.bmp	866	6	töten	866	1	!	1239	1	!	1252	0	0	0	0	0	0	0	0	0	0	0	0	0	0	0	0	0	0	0	0	0	0	0	0	0	0	0
022719	10:22:04	10:31:20	555917	5.0.10.0	4_exp_AMP_EVA_AWA_CON	140	Rpleas_acq	Same	Rpleas	Amasked	CS_A	2pleas	distractor2	EVAbeforeCON	acq_US_pleas_masked	acq45_masked	5	28	400	0	300	300	0	0	479	50	0	1	0	0	0	1	blank2r.bmp	0	1	+	0	7	C3r.bmp	492	1	blank2r.bmp	786	1	DHJF	786	1	blank2r.bmp	866	1	gesittet	866	1	!	1239	1	!	-1	0	0	0	0	0	0	0	0	0	0	0	0	0	0	0	0	0	0	0	0	0	0	0	0	0	0	0
022719	10:22:04	10:31:23	558183	5.0.10.0	4_exp_AMP_EVA_AWA_CON	140	Rpleas_acq	Same	Rpleas	Amasked	CS_A	2pleas	distractor2	EVAbeforeCON	acq_US_unple_masked	acq45_masked	5	29	400	0	300	300	0	0	479	46	0	1	0	0	0	1	blank2r.bmp	0	1	+	0	5	C1r.bmp	492	1	blank2r.bmp	786	1	CPLW	786	1	blank2r.bmp	866	2	versagen	866	1	!	1239	1	!	-1	0	0	0	0	0	0	0	0	0	0	0	0	0	0	0	0	0	0	0	0	0	0	0	0	0	0	0
022719	10:22:04	10:31:25	560409	5.0.10.0	4_exp_AMP_EVA_AWA_CON	140	Rpleas_acq	Same	Rpleas	Amasked	CS_A	2pleas	distractor2	EVAbeforeCON	acq_US_unple_masked	acq45_masked	5	30	400	1	300	300	0	0	416	46	0	1	0	0	0	1	blank2r.bmp	0	1	+	0	4	B4r.bmp	492	1	blank2r.bmp	786	1	CPLW	786	1	blank2r.bmp	866	1	geizig	866	1	!	1239	1	!	1319	0	0	0	0	0	0	0	0	0	0	0	0	0	0	0	0	0	0	0	0	0	0	0	0	0	0	0
022719	10:22:04	10:31:27	562661	5.0.10.0	4_exp_AMP_EVA_AWA_CON	140	Rpleas_acq	Same	Rpleas	Amasked	CS_A	2pleas	distractor2	EVAbeforeCON	acq_US_unple_masked	acq45_masked	5	31	400	1	300	300	0	0	458	46	0	1	0	0	0	1	blank2r.bmp	0	1	+	0	2	B2r.bmp	492	1	blank2r.bmp	786	1	CPLW	786	1	blank2r.bmp	866	6	töten	866	1	!	1239	1	!	1359	0	0	0	0	0	0	0	0	0	0	0	0	0	0	0	0	0	0	0	0	0	0	0	0	0	0	0
022719	10:22:04	10:31:30	564940	5.0.10.0	4_exp_AMP_EVA_AWA_CON	140	Rpleas_acq	Same	Rpleas	Amasked	CS_A	2pleas	distractor2	EVAbeforeCON	acq_US_unple_masked	acq45_masked	5	32	400	0	300	300	0	0	494	46	0	1	0	0	0	1	blank2r.bmp	0	1	+	0	6	C2r.bmp	492	1	blank2r.bmp	786	1	CPLW	786	1	blank2r.bmp	866	4	verbissen	866	1	!	1239	1	!	-1	0	0	0	0	0	0	0	0	0	0	0	0	0	0	0	0	0	0	0	0	0	0	0	0	0	0	0
022719	10:22:04	10:31:32	567060	5.0.10.0	4_exp_AMP_EVA_AWA_CON	140	Rpleas_acq	Same	Rpleas	Amasked	CS_A	2pleas	distractor2	EVAbeforeCON	acq_US_unple_masked	acq45_masked	5	33	400	0	300	300	0	0	331	46	0	1	0	0	0	1	blank2r.bmp	0	1	+	0	2	B2r.bmp	492	1	blank2r.bmp	786	1	CPLW	786	1	blank2r.bmp	866	3	engstirnig	866	1	!	-1	1	!	-1	0	0	0	0	0	0	0	0	0	0	0	0	0	0	0	0	0	0	0	0	0	0	0	0	0	0	0
022719	10:22:04	10:31:34	569299	5.0.10.0	4_exp_AMP_EVA_AWA_CON	140	Rpleas_acq	Same	Rpleas	Amasked	CS_A	2pleas	distractor2	EVAbeforeCON	acq_US_unple_masked	acq45_masked	5	34	400	1	300	300	0	0	430	46	0	1	0	0	0	1	blank2r.bmp	0	1	+	0	1	B1r.bmp	492	1	blank2r.bmp	786	1	CPLW	786	1	blank2r.bmp	866	5	krise	866	1	!	1239	1	!	1332	0	0	0	0	0	0	0	0	0	0	0	0	0	0	0	0	0	0	0	0	0	0	0	0	0	0	0
022719	10:22:04	10:31:36	571551	5.0.10.0	4_exp_AMP_EVA_AWA_CON	140	Rpleas_acq	Same	Rpleas	Amasked	CS_A	2pleas	distractor2	EVAbeforeCON	acq_US_pleas_masked	acq45_masked	5	35	400	0	300	300	0	0	482	50	0	1	0	0	0	1	blank2r.bmp	0	1	+	0	3	B3r.bmp	492	1	blank2r.bmp	786	1	DHJF	786	1	blank2r.bmp	866	4	vergnügt	866	1	!	1239	1	!	-1	0	0	0	0	0	0	0	0	0	0	0	0	0	0	0	0	0	0	0	0	0	0	0	0	0	0	0
022719	10:22:04	10:31:38	573657	5.0.10.0	4_exp_AMP_EVA_AWA_CON	140	Rpleas_acq	Same	Rpleas	Amasked	CS_A	2pleas	distractor2	EVAbeforeCON	acq_US_pleas_masked	acq45_masked	5	36	400	0	300	300	0	0	324	50	0	1	0	0	0	1	blank2r.bmp	0	1	+	0	8	C4r.bmp	492	1	blank2r.bmp	786	1	DHJF	786	1	blank2r.bmp	866	6	träumen	866	1	!	-1	1	!	-1	0	0	0	0	0	0	0	0	0	0	0	0	0	0	0	0	0	0	0	0	0	0	0	0	0	0	0
022719	10:22:04	10:32:13	608789	5.0.10.0	4_exp_AMP_EVA_AWA_CON	140	Rpleas_acq	Same	Rpleas	Amasked	CS_A	2pleas	distractor2	EVAbeforeCON	AMP_CSunple	AMP1_masked	6	1	0	0	300	300	0	0	5416	46	0	1	0	0	0	1	blank2r.bmp	0	1	CPLW	0	1	blank2r.bmp	79	15	pic15.bmp	199	1	whitenoise_No3.bmp	306	0	0	0	0	0	0	0	0	0	0	0	0	0	0	0	0	0	0	0	0	0	0	0	0	0	0	0	0	0	0	0	0	0	0	0	0	0	0	0
022719	10:22:04	10:32:17	612601	5.0.10.0	4_exp_AMP_EVA_AWA_CON	140	Rpleas_acq	Same	Rpleas	Amasked	CS_A	2pleas	distractor2	EVAbeforeCON	AMP_CSunple	AMP1_masked	6	2	0	0	300	300	0	0	2886	50	0	0	0	0	0	1	blank2r.bmp	0	1	CPLW	0	1	blank2r.bmp	79	83	pic83.bmp	199	1	whitenoise_No3.bmp	306	0	0	0	0	0	0	0	0	0	0	0	0	0	0	0	0	0	0	0	0	0	0	0	0	0	0	0	0	0	0	0	0	0	0	0	0	0	0	0
022719	10:22:04	10:32:20	614960	5.0.10.0	4_exp_AMP_EVA_AWA_CON	140	Rpleas_acq	Same	Rpleas	Amasked	CS_A	2pleas	distractor2	EVAbeforeCON	AMP_CSpleas	AMP1_masked	6	3	0	0	300	300	0	0	1441	50	0	1	0	0	0	1	blank2r.bmp	0	1	DHJF	0	1	blank2r.bmp	79	12	pic12.bmp	199	1	whitenoise_No3.bmp	306	0	0	0	0	0	0	0	0	0	0	0	0	0	0	0	0	0	0	0	0	0	0	0	0	0	0	0	0	0	0	0	0	0	0	0	0	0	0	0
022719	10:22:04	10:32:23	618772	5.0.10.0	4_exp_AMP_EVA_AWA_CON	140	Rpleas_acq	Same	Rpleas	Amasked	CS_A	2pleas	distractor2	EVAbeforeCON	AMP_CSunple	AMP1_masked	6	4	0	0	300	300	0	0	2901	46	0	1	0	0	0	1	blank2r.bmp	0	1	CPLW	0	1	blank2r.bmp	79	106	pic106.bmp	199	1	whitenoise_No3.bmp	306	0	0	0	0	0	0	0	0	0	0	0	0	0	0	0	0	0	0	0	0	0	0	0	0	0	0	0	0	0	0	0	0	0	0	0	0	0	0	0
022719	10:22:04	10:32:30	624929	5.0.10.0	4_exp_AMP_EVA_AWA_CON	140	Rpleas_acq	Same	Rpleas	Amasked	CS_A	2pleas	distractor2	EVAbeforeCON	AMP_CSunple	AMP1_masked	6	5	0	0	300	300	0	0	5230	50	0	0	0	0	0	1	blank2r.bmp	0	1	CPLW	0	1	blank2r.bmp	79	102	pic102.bmp	199	1	whitenoise_No3.bmp	306	0	0	0	0	0	0	0	0	0	0	0	0	0	0	0	0	0	0	0	0	0	0	0	0	0	0	0	0	0	0	0	0	0	0	0	0	0	0	0
022719	10:22:04	10:32:32	627581	5.0.10.0	4_exp_AMP_EVA_AWA_CON	140	Rpleas_acq	Same	Rpleas	Amasked	CS_A	2pleas	distractor2	EVAbeforeCON	AMP_CSpleas	AMP1_masked	6	6	0	0	300	300	0	0	1729	50	0	1	0	0	0	1	blank2r.bmp	0	1	DHJF	0	1	blank2r.bmp	79	143	pic143.bmp	199	1	whitenoise_No3.bmp	306	0	0	0	0	0	0	0	0	0	0	0	0	0	0	0	0	0	0	0	0	0	0	0	0	0	0	0	0	0	0	0	0	0	0	0	0	0	0	0
022719	10:22:04	10:32:34	629021	5.0.10.0	4_exp_AMP_EVA_AWA_CON	140	Rpleas_acq	Same	Rpleas	Amasked	CS_A	2pleas	distractor2	EVAbeforeCON	AMP_distractor	AMP1_masked	6	7	0	0	300	300	0	0	512	46	0	0	0	0	0	1	blank2r.bmp	0	1	QYSB	0	1	blank2r.bmp	79	137	pic137.bmp	199	1	whitenoise_No3.bmp	306	0	0	0	0	0	0	0	0	0	0	0	0	0	0	0	0	0	0	0	0	0	0	0	0	0	0	0	0	0	0	0	0	0	0	0	0	0	0	0
022719	10:22:04	10:33:28	683585	5.0.10.0	4_exp_AMP_EVA_AWA_CON	140	Rpleas_acq	Same	Rpleas	Amasked	CS_A	2pleas	distractor2	EVAbeforeCON	AMP_CSpleas	AMP1_masked	6	8	0	0	300	300	0	0	53636	46	0	0	0	0	0	1	blank2r.bmp	0	1	DHJF	0	1	blank2r.bmp	79	108	pic108.bmp	199	1	whitenoise_No3.bmp	306	0	0	0	0	0	0	0	0	0	0	0	0	0	0	0	0	0	0	0	0	0	0	0	0	0	0	0	0	0	0	0	0	0	0	0	0	0	0	0
022719	10:22:04	10:33:30	685118	5.0.10.0	4_exp_AMP_EVA_AWA_CON	140	Rpleas_acq	Same	Rpleas	Amasked	CS_A	2pleas	distractor2	EVAbeforeCON	AMP_CSpleas	AMP1_masked	6	9	0	0	300	300	0	0	608	50	0	1	0	0	0	1	blank2r.bmp	0	1	DHJF	0	1	blank2r.bmp	79	19	pic19.bmp	199	1	whitenoise_No3.bmp	306	0	0	0	0	0	0	0	0	0	0	0	0	0	0	0	0	0	0	0	0	0	0	0	0	0	0	0	0	0	0	0	0	0	0	0	0	0	0	0
022719	10:22:04	10:33:31	686570	5.0.10.0	4_exp_AMP_EVA_AWA_CON	140	Rpleas_acq	Same	Rpleas	Amasked	CS_A	2pleas	distractor2	EVAbeforeCON	AMP_CSunple	AMP1_masked	6	10	0	0	300	300	0	0	523	46	0	1	0	0	0	1	blank2r.bmp	0	1	CPLW	0	1	blank2r.bmp	79	28	pic28.bmp	199	1	whitenoise_No3.bmp	306	0	0	0	0	0	0	0	0	0	0	0	0	0	0	0	0	0	0	0	0	0	0	0	0	0	0	0	0	0	0	0	0	0	0	0	0	0	0	0
022719	10:22:04	10:33:32	687823	5.0.10.0	4_exp_AMP_EVA_AWA_CON	140	Rpleas_acq	Same	Rpleas	Amasked	CS_A	2pleas	distractor2	EVAbeforeCON	AMP_CSpleas	AMP1_masked	6	11	0	0	300	300	0	0	329	50	0	1	0	0	0	1	blank2r.bmp	0	1	DHJF	0	1	blank2r.bmp	79	27	pic27.bmp	199	1	whitenoise_No3.bmp	306	0	0	0	0	0	0	0	0	0	0	0	0	0	0	0	0	0	0	0	0	0	0	0	0	0	0	0	0	0	0	0	0	0	0	0	0	0	0	0
022719	10:22:04	10:33:34	689196	5.0.10.0	4_exp_AMP_EVA_AWA_CON	140	Rpleas_acq	Same	Rpleas	Amasked	CS_A	2pleas	distractor2	EVAbeforeCON	AMP_distractor	AMP1_masked	6	12	0	0	300	300	0	0	440	50	0	0	0	0	0	1	blank2r.bmp	0	1	QYSB	0	1	blank2r.bmp	79	71	pic71.bmp	199	1	whitenoise_No3.bmp	306	0	0	0	0	0	0	0	0	0	0	0	0	0	0	0	0	0	0	0	0	0	0	0	0	0	0	0	0	0	0	0	0	0	0	0	0	0	0	0
022719	10:22:04	10:33:35	690529	5.0.10.0	4_exp_AMP_EVA_AWA_CON	140	Rpleas_acq	Same	Rpleas	Amasked	CS_A	2pleas	distractor2	EVAbeforeCON	AMP_distractor	AMP1_masked	6	13	0	0	300	300	0	0	418	50	0	0	0	0	0	1	blank2r.bmp	0	1	QYSB	0	1	blank2r.bmp	79	46	pic46.bmp	199	1	whitenoise_No3.bmp	306	0	0	0	0	0	0	0	0	0	0	0	0	0	0	0	0	0	0	0	0	0	0	0	0	0	0	0	0	0	0	0	0	0	0	0	0	0	0	0
022719	10:22:04	10:33:36	691822	5.0.10.0	4_exp_AMP_EVA_AWA_CON	140	Rpleas_acq	Same	Rpleas	Amasked	CS_A	2pleas	distractor2	EVAbeforeCON	AMP_distractor	AMP1_masked	6	14	0	0	300	300	0	0	370	50	0	0	0	0	0	1	blank2r.bmp	0	1	QYSB	0	1	blank2r.bmp	79	6	pic6.bmp	199	1	whitenoise_No3.bmp	306	0	0	0	0	0	0	0	0	0	0	0	0	0	0	0	0	0	0	0	0	0	0	0	0	0	0	0	0	0	0	0	0	0	0	0	0	0	0	0
022719	10:22:04	10:33:38	693048	5.0.10.0	4_exp_AMP_EVA_AWA_CON	140	Rpleas_acq	Same	Rpleas	Amasked	CS_A	2pleas	distractor2	EVAbeforeCON	AMP_distractor	AMP1_masked	6	15	0	0	300	300	0	0	297	50	0	0	0	0	0	1	blank2r.bmp	0	1	QYSB	0	1	blank2r.bmp	79	115	pic115.bmp	199	1	whitenoise_No3.bmp	306	0	0	0	0	0	0	0	0	0	0	0	0	0	0	0	0	0	0	0	0	0	0	0	0	0	0	0	0	0	0	0	0	0	0	0	0	0	0	0
022719	10:22:04	10:33:39	694247	5.0.10.0	4_exp_AMP_EVA_AWA_CON	140	Rpleas_acq	Same	Rpleas	Amasked	CS_A	2pleas	distractor2	EVAbeforeCON	AMP_CSunple	AMP1_masked	6	16	0	0	300	300	0	0	286	46	0	1	0	0	0	1	blank2r.bmp	0	1	CPLW	0	1	blank2r.bmp	79	41	pic41.bmp	199	1	whitenoise_No3.bmp	306	0	0	0	0	0	0	0	0	0	0	0	0	0	0	0	0	0	0	0	0	0	0	0	0	0	0	0	0	0	0	0	0	0	0	0	0	0	0	0
022719	10:22:04	10:33:40	695367	5.0.10.0	4_exp_AMP_EVA_AWA_CON	140	Rpleas_acq	Same	Rpleas	Amasked	CS_A	2pleas	distractor2	EVAbeforeCON	AMP_CSunple	AMP1_masked	6	17	0	0	300	300	0	0	190	50	0	0	0	0	0	1	blank2r.bmp	0	1	CPLW	0	1	blank2r.bmp	79	95	pic95.bmp	199	1	whitenoise_No3.bmp	306	0	0	0	0	0	0	0	0	0	0	0	0	0	0	0	0	0	0	0	0	0	0	0	0	0	0	0	0	0	0	0	0	0	0	0	0	0	0	0
022719	10:22:04	10:33:41	696486	5.0.10.0	4_exp_AMP_EVA_AWA_CON	140	Rpleas_acq	Same	Rpleas	Amasked	CS_A	2pleas	distractor2	EVAbeforeCON	AMP_distractor	AMP1_masked	6	18	0	0	300	300	0	0	186	46	0	0	0	0	0	1	blank2r.bmp	0	1	QYSB	0	1	blank2r.bmp	79	113	pic113.bmp	199	1	whitenoise_No3.bmp	306	0	0	0	0	0	0	0	0	0	0	0	0	0	0	0	0	0	0	0	0	0	0	0	0	0	0	0	0	0	0	0	0	0	0	0	0	0	0	0
022719	10:22:04	10:33:42	697579	5.0.10.0	4_exp_AMP_EVA_AWA_CON	140	Rpleas_acq	Same	Rpleas	Amasked	CS_A	2pleas	distractor2	EVAbeforeCON	AMP_CSunple	AMP1_masked	6	19	0	0	300	300	0	0	180	46	0	1	0	0	0	1	blank2r.bmp	0	1	CPLW	0	1	blank2r.bmp	79	69	pic69.bmp	199	1	whitenoise_No3.bmp	306	0	0	0	0	0	0	0	0	0	0	0	0	0	0	0	0	0	0	0	0	0	0	0	0	0	0	0	0	0	0	0	0	0	0	0	0	0	0	0
022719	10:22:04	10:33:43	698712	5.0.10.0	4_exp_AMP_EVA_AWA_CON	140	Rpleas_acq	Same	Rpleas	Amasked	CS_A	2pleas	distractor2	EVAbeforeCON	AMP_CSunple	AMP1_masked	6	20	0	0	300	300	0	0	210	50	0	0	0	0	0	1	blank2r.bmp	0	1	CPLW	0	1	blank2r.bmp	79	139	pic139.bmp	199	1	whitenoise_No3.bmp	306	0	0	0	0	0	0	0	0	0	0	0	0	0	0	0	0	0	0	0	0	0	0	0	0	0	0	0	0	0	0	0	0	0	0	0	0	0	0	0
022719	10:22:04	10:33:44	699845	5.0.10.0	4_exp_AMP_EVA_AWA_CON	140	Rpleas_acq	Same	Rpleas	Amasked	CS_A	2pleas	distractor2	EVAbeforeCON	AMP_CSpleas	AMP1_masked	6	21	0	0	300	300	0	0	202	50	0	1	0	0	0	1	blank2r.bmp	0	1	DHJF	0	1	blank2r.bmp	79	130	pic130.bmp	199	1	whitenoise_No3.bmp	306	0	0	0	0	0	0	0	0	0	0	0	0	0	0	0	0	0	0	0	0	0	0	0	0	0	0	0	0	0	0	0	0	0	0	0	0	0	0	0
022719	10:22:04	10:33:46	701591	5.0.10.0	4_exp_AMP_EVA_AWA_CON	140	Rpleas_acq	Same	Rpleas	Amasked	CS_A	2pleas	distractor2	EVAbeforeCON	AMP_CSpleas	AMP1_masked	6	22	0	0	300	300	0	0	812	50	0	1	0	0	0	1	blank2r.bmp	0	1	DHJF	0	1	blank2r.bmp	79	118	pic118.bmp	199	1	whitenoise_No3.bmp	306	0	0	0	0	0	0	0	0	0	0	0	0	0	0	0	0	0	0	0	0	0	0	0	0	0	0	0	0	0	0	0	0	0	0	0	0	0	0	0
022719	10:22:04	10:33:48	702937	5.0.10.0	4_exp_AMP_EVA_AWA_CON	140	Rpleas_acq	Same	Rpleas	Amasked	CS_A	2pleas	distractor2	EVAbeforeCON	AMP_distractor	AMP1_masked	6	23	0	0	300	300	0	0	432	46	0	0	0	0	0	1	blank2r.bmp	0	1	QYSB	0	1	blank2r.bmp	79	75	pic75.bmp	199	1	whitenoise_No3.bmp	306	0	0	0	0	0	0	0	0	0	0	0	0	0	0	0	0	0	0	0	0	0	0	0	0	0	0	0	0	0	0	0	0	0	0	0	0	0	0	0
022719	10:22:04	10:33:49	704536	5.0.10.0	4_exp_AMP_EVA_AWA_CON	140	Rpleas_acq	Same	Rpleas	Amasked	CS_A	2pleas	distractor2	EVAbeforeCON	AMP_CSunple	AMP1_masked	6	24	0	0	300	300	0	0	689	50	0	0	0	0	0	1	blank2r.bmp	0	1	CPLW	0	1	blank2r.bmp	79	91	pic91.bmp	199	1	whitenoise_No3.bmp	306	0	0	0	0	0	0	0	0	0	0	0	0	0	0	0	0	0	0	0	0	0	0	0	0	0	0	0	0	0	0	0	0	0	0	0	0	0	0	0
022719	10:22:04	10:33:52	707202	5.0.10.0	4_exp_AMP_EVA_AWA_CON	140	Rpleas_acq	Same	Rpleas	Amasked	CS_A	2pleas	distractor2	EVAbeforeCON	AMP_distractor	AMP1_masked	6	25	0	0	300	300	0	0	1738	46	0	0	0	0	0	1	blank2r.bmp	0	1	QYSB	0	1	blank2r.bmp	79	30	pic30.bmp	199	1	whitenoise_No3.bmp	306	0	0	0	0	0	0	0	0	0	0	0	0	0	0	0	0	0	0	0	0	0	0	0	0	0	0	0	0	0	0	0	0	0	0	0	0	0	0	0
022719	10:22:04	10:33:53	708641	5.0.10.0	4_exp_AMP_EVA_AWA_CON	140	Rpleas_acq	Same	Rpleas	Amasked	CS_A	2pleas	distractor2	EVAbeforeCON	AMP_CSunple	AMP1_masked	6	26	0	0	300	300	0	0	515	46	0	1	0	0	0	1	blank2r.bmp	0	1	CPLW	0	1	blank2r.bmp	79	131	pic131.bmp	199	1	whitenoise_No3.bmp	306	0	0	0	0	0	0	0	0	0	0	0	0	0	0	0	0	0	0	0	0	0	0	0	0	0	0	0	0	0	0	0	0	0	0	0	0	0	0	0
022719	10:22:04	10:33:55	709961	5.0.10.0	4_exp_AMP_EVA_AWA_CON	140	Rpleas_acq	Same	Rpleas	Amasked	CS_A	2pleas	distractor2	EVAbeforeCON	AMP_distractor	AMP1_masked	6	27	0	0	300	300	0	0	396	46	0	0	0	0	0	1	blank2r.bmp	0	1	QYSB	0	1	blank2r.bmp	79	76	pic76.bmp	199	1	whitenoise_No3.bmp	306	0	0	0	0	0	0	0	0	0	0	0	0	0	0	0	0	0	0	0	0	0	0	0	0	0	0	0	0	0	0	0	0	0	0	0	0	0	0	0
022719	10:22:04	10:33:56	711760	5.0.10.0	4_exp_AMP_EVA_AWA_CON	140	Rpleas_acq	Same	Rpleas	Amasked	CS_A	2pleas	distractor2	EVAbeforeCON	AMP_distractor	AMP1_masked	6	28	0	0	300	300	0	0	872	46	0	0	0	0	0	1	blank2r.bmp	0	1	QYSB	0	1	blank2r.bmp	79	153	pic153.bmp	199	1	whitenoise_No3.bmp	306	0	0	0	0	0	0	0	0	0	0	0	0	0	0	0	0	0	0	0	0	0	0	0	0	0	0	0	0	0	0	0	0	0	0	0	0	0	0	0
022719	10:22:04	10:33:58	713746	5.0.10.0	4_exp_AMP_EVA_AWA_CON	140	Rpleas_acq	Same	Rpleas	Amasked	CS_A	2pleas	distractor2	EVAbeforeCON	AMP_CSpleas	AMP1_masked	6	29	0	0	300	300	0	0	1063	50	0	1	0	0	0	1	blank2r.bmp	0	1	DHJF	0	1	blank2r.bmp	79	17	pic17.bmp	199	1	whitenoise_No3.bmp	306	0	0	0	0	0	0	0	0	0	0	0	0	0	0	0	0	0	0	0	0	0	0	0	0	0	0	0	0	0	0	0	0	0	0	0	0	0	0	0
022719	10:22:04	10:34:00	714945	5.0.10.0	4_exp_AMP_EVA_AWA_CON	140	Rpleas_acq	Same	Rpleas	Amasked	CS_A	2pleas	distractor2	EVAbeforeCON	AMP_CSpleas	AMP1_masked	6	30	0	0	300	300	0	0	274	46	0	0	0	0	0	1	blank2r.bmp	0	1	DHJF	0	1	blank2r.bmp	79	44	pic44.bmp	199	1	whitenoise_No3.bmp	306	0	0	0	0	0	0	0	0	0	0	0	0	0	0	0	0	0	0	0	0	0	0	0	0	0	0	0	0	0	0	0	0	0	0	0	0	0	0	0
022719	10:22:04	10:34:01	715985	5.0.10.0	4_exp_AMP_EVA_AWA_CON	140	Rpleas_acq	Same	Rpleas	Amasked	CS_A	2pleas	distractor2	EVAbeforeCON	AMP_distractor	AMP1_masked	6	31	0	0	300	300	0	0	114	50	0	0	0	0	0	1	blank2r.bmp	0	1	QYSB	0	1	blank2r.bmp	79	13	pic13.bmp	199	1	whitenoise_No3.bmp	306	0	0	0	0	0	0	0	0	0	0	0	0	0	0	0	0	0	0	0	0	0	0	0	0	0	0	0	0	0	0	0	0	0	0	0	0	0	0	0
022719	10:22:04	10:34:02	717384	5.0.10.0	4_exp_AMP_EVA_AWA_CON	140	Rpleas_acq	Same	Rpleas	Amasked	CS_A	2pleas	distractor2	EVAbeforeCON	AMP_distractor	AMP1_masked	6	32	0	0	300	300	0	0	465	46	0	0	0	0	0	1	blank2r.bmp	0	1	QYSB	0	1	blank2r.bmp	79	125	pic125.bmp	199	1	whitenoise_No3.bmp	306	0	0	0	0	0	0	0	0	0	0	0	0	0	0	0	0	0	0	0	0	0	0	0	0	0	0	0	0	0	0	0	0	0	0	0	0	0	0	0
022719	10:22:04	10:34:03	718691	5.0.10.0	4_exp_AMP_EVA_AWA_CON	140	Rpleas_acq	Same	Rpleas	Amasked	CS_A	2pleas	distractor2	EVAbeforeCON	AMP_CSpleas	AMP1_masked	6	33	0	0	300	300	0	0	391	50	0	1	0	0	0	1	blank2r.bmp	0	1	DHJF	0	1	blank2r.bmp	79	120	pic120.bmp	199	1	whitenoise_No3.bmp	306	0	0	0	0	0	0	0	0	0	0	0	0	0	0	0	0	0	0	0	0	0	0	0	0	0	0	0	0	0	0	0	0	0	0	0	0	0	0	0
022719	10:22:04	10:34:05	720303	5.0.10.0	4_exp_AMP_EVA_AWA_CON	140	Rpleas_acq	Same	Rpleas	Amasked	CS_A	2pleas	distractor2	EVAbeforeCON	AMP_CSunple	AMP1_masked	6	34	0	0	300	300	0	0	687	50	0	0	0	0	0	1	blank2r.bmp	0	1	CPLW	0	1	blank2r.bmp	79	74	pic74.bmp	199	1	whitenoise_No3.bmp	306	0	0	0	0	0	0	0	0	0	0	0	0	0	0	0	0	0	0	0	0	0	0	0	0	0	0	0	0	0	0	0	0	0	0	0	0	0	0	0
022719	10:22:04	10:34:06	721529	5.0.10.0	4_exp_AMP_EVA_AWA_CON	140	Rpleas_acq	Same	Rpleas	Amasked	CS_A	2pleas	distractor2	EVAbeforeCON	AMP_CSunple	AMP1_masked	6	35	0	0	300	300	0	0	317	50	0	0	0	0	0	1	blank2r.bmp	0	1	CPLW	0	1	blank2r.bmp	79	107	pic107.bmp	199	1	whitenoise_No3.bmp	306	0	0	0	0	0	0	0	0	0	0	0	0	0	0	0	0	0	0	0	0	0	0	0	0	0	0	0	0	0	0	0	0	0	0	0	0	0	0	0
022719	10:22:04	10:34:08	723142	5.0.10.0	4_exp_AMP_EVA_AWA_CON	140	Rpleas_acq	Same	Rpleas	Amasked	CS_A	2pleas	distractor2	EVAbeforeCON	AMP_CSpleas	AMP1_masked	6	36	0	0	300	300	0	0	685	50	0	1	0	0	0	1	blank2r.bmp	0	1	DHJF	0	1	blank2r.bmp	79	7	pic7.bmp	199	1	whitenoise_No3.bmp	306	0	0	0	0	0	0	0	0	0	0	0	0	0	0	0	0	0	0	0	0	0	0	0	0	0	0	0	0	0	0	0	0	0	0	0	0	0	0	0
022719	10:22:04	10:34:09	724435	5.0.10.0	4_exp_AMP_EVA_AWA_CON	140	Rpleas_acq	Same	Rpleas	Amasked	CS_A	2pleas	distractor2	EVAbeforeCON	AMP_CSunple	AMP1_masked	6	37	0	0	300	300	0	0	381	50	0	0	0	0	0	1	blank2r.bmp	0	1	CPLW	0	1	blank2r.bmp	79	58	pic58.bmp	199	1	whitenoise_No3.bmp	306	0	0	0	0	0	0	0	0	0	0	0	0	0	0	0	0	0	0	0	0	0	0	0	0	0	0	0	0	0	0	0	0	0	0	0	0	0	0	0
022719	10:22:04	10:34:10	725474	5.0.10.0	4_exp_AMP_EVA_AWA_CON	140	Rpleas_acq	Same	Rpleas	Amasked	CS_A	2pleas	distractor2	EVAbeforeCON	AMP_distractor	AMP1_masked	6	38	0	0	300	300	0	0	123	46	0	0	0	0	0	1	blank2r.bmp	0	1	QYSB	0	1	blank2r.bmp	79	39	pic39.bmp	199	1	whitenoise_No3.bmp	306	0	0	0	0	0	0	0	0	0	0	0	0	0	0	0	0	0	0	0	0	0	0	0	0	0	0	0	0	0	0	0	0	0	0	0	0	0	0	0
022719	10:22:04	10:34:11	726421	5.0.10.0	4_exp_AMP_EVA_AWA_CON	140	Rpleas_acq	Same	Rpleas	Amasked	CS_A	2pleas	distractor2	EVAbeforeCON	AMP_CSpleas	AMP1_masked	6	39	0	0	300	300	0	0	17	50	0	1	0	0	0	1	blank2r.bmp	0	1	DHJF	0	1	blank2r.bmp	79	144	pic144.bmp	199	1	whitenoise_No3.bmp	306	0	0	0	0	0	0	0	0	0	0	0	0	0	0	0	0	0	0	0	0	0	0	0	0	0	0	0	0	0	0	0	0	0	0	0	0	0	0	0
022719	10:22:04	10:34:12	727833	5.0.10.0	4_exp_AMP_EVA_AWA_CON	140	Rpleas_acq	Same	Rpleas	Amasked	CS_A	2pleas	distractor2	EVAbeforeCON	AMP_CSunple	AMP1_masked	6	40	0	0	300	300	0	0	503	50	0	0	0	0	0	1	blank2r.bmp	0	1	CPLW	0	1	blank2r.bmp	79	49	pic49.bmp	199	1	whitenoise_No3.bmp	306	0	0	0	0	0	0	0	0	0	0	0	0	0	0	0	0	0	0	0	0	0	0	0	0	0	0	0	0	0	0	0	0	0	0	0	0	0	0	0
022719	10:22:04	10:34:14	729166	5.0.10.0	4_exp_AMP_EVA_AWA_CON	140	Rpleas_acq	Same	Rpleas	Amasked	CS_A	2pleas	distractor2	EVAbeforeCON	AMP_CSpleas	AMP1_masked	6	41	0	0	300	300	0	0	400	46	0	0	0	0	0	1	blank2r.bmp	0	1	DHJF	0	1	blank2r.bmp	79	110	pic110.bmp	199	1	whitenoise_No3.bmp	306	0	0	0	0	0	0	0	0	0	0	0	0	0	0	0	0	0	0	0	0	0	0	0	0	0	0	0	0	0	0	0	0	0	0	0	0	0	0	0
022719	10:22:04	10:34:15	730619	5.0.10.0	4_exp_AMP_EVA_AWA_CON	140	Rpleas_acq	Same	Rpleas	Amasked	CS_A	2pleas	distractor2	EVAbeforeCON	AMP_CSpleas	AMP1_masked	6	42	0	0	300	300	0	0	543	50	0	1	0	0	0	1	blank2r.bmp	0	1	DHJF	0	1	blank2r.bmp	79	132	pic132.bmp	199	1	whitenoise_No3.bmp	306	0	0	0	0	0	0	0	0	0	0	0	0	0	0	0	0	0	0	0	0	0	0	0	0	0	0	0	0	0	0	0	0	0	0	0	0	0	0	0
022719	10:22:04	10:34:16	731645	5.0.10.0	4_exp_AMP_EVA_AWA_CON	140	Rpleas_acq	Same	Rpleas	Amasked	CS_A	2pleas	distractor2	EVAbeforeCON	AMP_CSpleas	AMP1_masked	6	43	0	0	300	300	0	0	99	50	0	1	0	0	0	1	blank2r.bmp	0	1	DHJF	0	1	blank2r.bmp	79	150	pic150.bmp	199	1	whitenoise_No3.bmp	306	0	0	0	0	0	0	0	0	0	0	0	0	0	0	0	0	0	0	0	0	0	0	0	0	0	0	0	0	0	0	0	0	0	0	0	0	0	0	0
022719	10:22:04	10:34:18	733471	5.0.10.0	4_exp_AMP_EVA_AWA_CON	140	Rpleas_acq	Same	Rpleas	Amasked	CS_A	2pleas	distractor2	EVAbeforeCON	AMP_CSpleas	AMP1_masked	6	44	0	0	300	300	0	0	912	46	0	0	0	0	0	1	blank2r.bmp	0	1	DHJF	0	1	blank2r.bmp	79	78	pic78.bmp	199	1	whitenoise_No3.bmp	306	0	0	0	0	0	0	0	0	0	0	0	0	0	0	0	0	0	0	0	0	0	0	0	0	0	0	0	0	0	0	0	0	0	0	0	0	0	0	0
022719	10:22:04	10:34:19	734391	5.0.10.0	4_exp_AMP_EVA_AWA_CON	140	Rpleas_acq	Same	Rpleas	Amasked	CS_A	2pleas	distractor2	EVAbeforeCON	AMP_distractor	AMP1_masked	6	45	0	0	300	300	0	0	1	50	0	0	0	0	0	1	blank2r.bmp	0	1	QYSB	0	1	blank2r.bmp	79	124	pic124.bmp	199	1	whitenoise_No3.bmp	306	0	0	0	0	0	0	0	0	0	0	0	0	0	0	0	0	0	0	0	0	0	0	0	0	0	0	0	0	0	0	0	0	0	0	0	0	0	0	0
022719	10:22:04	10:34:20	735390	5.0.10.0	4_exp_AMP_EVA_AWA_CON	140	Rpleas_acq	Same	Rpleas	Amasked	CS_A	2pleas	distractor2	EVAbeforeCON	AMP_CSpleas	AMP1_masked	6	46	0	0	300	300	0	0	84	46	0	0	0	0	0	1	blank2r.bmp	0	1	DHJF	0	1	blank2r.bmp	79	141	pic141.bmp	199	1	whitenoise_No3.bmp	306	0	0	0	0	0	0	0	0	0	0	0	0	0	0	0	0	0	0	0	0	0	0	0	0	0	0	0	0	0	0	0	0	0	0	0	0	0	0	0
022719	10:22:04	10:34:22	737110	5.0.10.0	4_exp_AMP_EVA_AWA_CON	140	Rpleas_acq	Same	Rpleas	Amasked	CS_A	2pleas	distractor2	EVAbeforeCON	AMP_distractor	AMP1_masked	6	47	0	0	300	300	0	0	798	50	0	0	0	0	0	1	blank2r.bmp	0	1	QYSB	0	1	blank2r.bmp	79	32	pic32.bmp	199	1	whitenoise_No3.bmp	306	0	0	0	0	0	0	0	0	0	0	0	0	0	0	0	0	0	0	0	0	0	0	0	0	0	0	0	0	0	0	0	0	0	0	0	0	0	0	0
022719	10:22:04	10:34:24	739122	5.0.10.0	4_exp_AMP_EVA_AWA_CON	140	Rpleas_acq	Same	Rpleas	Amasked	CS_A	2pleas	distractor2	EVAbeforeCON	AMP_CSunple	AMP1_masked	6	48	0	0	300	300	0	0	1093	46	0	1	0	0	0	1	blank2r.bmp	0	1	CPLW	0	1	blank2r.bmp	79	135	pic135.bmp	199	1	whitenoise_No3.bmp	306	0	0	0	0	0	0	0	0	0	0	0	0	0	0	0	0	0	0	0	0	0	0	0	0	0	0	0	0	0	0	0	0	0	0	0	0	0	0	0
022719	10:22:04	10:34:25	740122	5.0.10.0	4_exp_AMP_EVA_AWA_CON	140	Rpleas_acq	Same	Rpleas	Amasked	CS_A	2pleas	distractor2	EVAbeforeCON	AMP_distractor	AMP1_masked	6	49	0	0	300	300	0	0	86	50	0	0	0	0	0	1	blank2r.bmp	0	1	QYSB	0	1	blank2r.bmp	79	26	pic26.bmp	199	1	whitenoise_No3.bmp	306	0	0	0	0	0	0	0	0	0	0	0	0	0	0	0	0	0	0	0	0	0	0	0	0	0	0	0	0	0	0	0	0	0	0	0	0	0	0	0
022719	10:22:04	10:34:26	741295	5.0.10.0	4_exp_AMP_EVA_AWA_CON	140	Rpleas_acq	Same	Rpleas	Amasked	CS_A	2pleas	distractor2	EVAbeforeCON	AMP_distractor	AMP1_masked	6	50	0	0	300	300	0	0	245	46	0	0	0	0	0	1	blank2r.bmp	0	1	QYSB	0	1	blank2r.bmp	79	51	pic51.bmp	199	1	whitenoise_No3.bmp	306	0	0	0	0	0	0	0	0	0	0	0	0	0	0	0	0	0	0	0	0	0	0	0	0	0	0	0	0	0	0	0	0	0	0	0	0	0	0	0
022719	10:22:04	10:34:28	743027	5.0.10.0	4_exp_AMP_EVA_AWA_CON	140	Rpleas_acq	Same	Rpleas	Amasked	CS_A	2pleas	distractor2	EVAbeforeCON	AMP_CSunple	AMP1_masked	6	51	0	0	300	300	0	0	806	50	0	0	0	0	0	1	blank2r.bmp	0	1	CPLW	0	1	blank2r.bmp	79	129	pic129.bmp	199	1	whitenoise_No3.bmp	306	0	0	0	0	0	0	0	0	0	0	0	0	0	0	0	0	0	0	0	0	0	0	0	0	0	0	0	0	0	0	0	0	0	0	0	0	0	0	0
022719	10:22:04	10:34:35	750264	5.0.10.0	4_exp_AMP_EVA_AWA_CON	140	Rpleas_acq	Same	Rpleas	Amasked	CS_A	2pleas	distractor2	EVAbeforeCON	AMP_CSpleas	AMP23	7	1	0	0	300	300	0	0	883	50	0	1	0	0	0	1	blank2r.bmp	0	1	DHJF	0	1	blank2r.bmp	79	77	pic77.bmp	199	1	whitenoise_No3.bmp	306	0	0	0	0	0	0	0	0	0	0	0	0	0	0	0	0	0	0	0	0	0	0	0	0	0	0	0	0	0	0	0	0	0	0	0	0	0	0	0
022719	10:22:04	10:34:36	751704	5.0.10.0	4_exp_AMP_EVA_AWA_CON	140	Rpleas_acq	Same	Rpleas	Amasked	CS_A	2pleas	distractor2	EVAbeforeCON	AMP_distractor	AMP23	7	2	0	0	300	300	0	0	517	46	0	0	0	0	0	1	blank2r.bmp	0	1	QYSB	0	1	blank2r.bmp	79	117	pic117.bmp	199	1	whitenoise_No3.bmp	306	0	0	0	0	0	0	0	0	0	0	0	0	0	0	0	0	0	0	0	0	0	0	0	0	0	0	0	0	0	0	0	0	0	0	0	0	0	0	0
022719	10:22:04	10:34:38	753610	5.0.10.0	4_exp_AMP_EVA_AWA_CON	140	Rpleas_acq	Same	Rpleas	Amasked	CS_A	2pleas	distractor2	EVAbeforeCON	AMP_CSunple	AMP23	7	3	0	0	300	300	0	0	964	50	0	0	0	0	0	1	blank2r.bmp	0	1	CPLW	0	1	blank2r.bmp	79	22	pic22.bmp	199	1	whitenoise_No3.bmp	306	0	0	0	0	0	0	0	0	0	0	0	0	0	0	0	0	0	0	0	0	0	0	0	0	0	0	0	0	0	0	0	0	0	0	0	0	0	0	0
022719	10:22:04	10:34:40	755129	5.0.10.0	4_exp_AMP_EVA_AWA_CON	140	Rpleas_acq	Same	Rpleas	Amasked	CS_A	2pleas	distractor2	EVAbeforeCON	AMP_distractor	AMP23	7	4	0	0	300	300	0	0	600	46	0	0	0	0	0	1	blank2r.bmp	0	1	QYSB	0	1	blank2r.bmp	79	43	pic43.bmp	199	1	whitenoise_No3.bmp	306	0	0	0	0	0	0	0	0	0	0	0	0	0	0	0	0	0	0	0	0	0	0	0	0	0	0	0	0	0	0	0	0	0	0	0	0	0	0	0
022719	10:22:04	10:34:41	756608	5.0.10.0	4_exp_AMP_EVA_AWA_CON	140	Rpleas_acq	Same	Rpleas	Amasked	CS_A	2pleas	distractor2	EVAbeforeCON	AMP_CSunple	AMP23	7	5	0	0	300	300	0	0	561	46	0	1	0	0	0	1	blank2r.bmp	0	1	CPLW	0	1	blank2r.bmp	79	70	pic70.bmp	199	1	whitenoise_No3.bmp	306	0	0	0	0	0	0	0	0	0	0	0	0	0	0	0	0	0	0	0	0	0	0	0	0	0	0	0	0	0	0	0	0	0	0	0	0	0	0	0
022719	10:22:04	10:34:43	757968	5.0.10.0	4_exp_AMP_EVA_AWA_CON	140	Rpleas_acq	Same	Rpleas	Amasked	CS_A	2pleas	distractor2	EVAbeforeCON	AMP_distractor	AMP23	7	6	0	0	300	300	0	0	447	50	0	0	0	0	0	1	blank2r.bmp	0	1	QYSB	0	1	blank2r.bmp	79	50	pic50.bmp	199	1	whitenoise_No3.bmp	306	0	0	0	0	0	0	0	0	0	0	0	0	0	0	0	0	0	0	0	0	0	0	0	0	0	0	0	0	0	0	0	0	0	0	0	0	0	0	0
022719	10:22:04	10:34:44	759300	5.0.10.0	4_exp_AMP_EVA_AWA_CON	140	Rpleas_acq	Same	Rpleas	Amasked	CS_A	2pleas	distractor2	EVAbeforeCON	AMP_CSpleas	AMP23	7	7	0	0	300	300	0	0	405	46	0	0	0	0	0	1	blank2r.bmp	0	1	DHJF	0	1	blank2r.bmp	79	116	pic116.bmp	199	1	whitenoise_No3.bmp	306	0	0	0	0	0	0	0	0	0	0	0	0	0	0	0	0	0	0	0	0	0	0	0	0	0	0	0	0	0	0	0	0	0	0	0	0	0	0	0
022719	10:22:04	10:34:45	760753	5.0.10.0	4_exp_AMP_EVA_AWA_CON	140	Rpleas_acq	Same	Rpleas	Amasked	CS_A	2pleas	distractor2	EVAbeforeCON	AMP_distractor	AMP23	7	8	0	0	300	300	0	0	542	46	0	0	0	0	0	1	blank2r.bmp	0	1	QYSB	0	1	blank2r.bmp	79	88	pic88.bmp	199	1	whitenoise_No3.bmp	306	0	0	0	0	0	0	0	0	0	0	0	0	0	0	0	0	0	0	0	0	0	0	0	0	0	0	0	0	0	0	0	0	0	0	0	0	0	0	0
022719	10:22:04	10:34:47	762286	5.0.10.0	4_exp_AMP_EVA_AWA_CON	140	Rpleas_acq	Same	Rpleas	Amasked	CS_A	2pleas	distractor2	EVAbeforeCON	AMP_CSpleas	AMP23	7	9	0	0	300	300	0	0	604	46	0	0	0	0	0	1	blank2r.bmp	0	1	DHJF	0	1	blank2r.bmp	79	29	pic29.bmp	199	1	whitenoise_No3.bmp	306	0	0	0	0	0	0	0	0	0	0	0	0	0	0	0	0	0	0	0	0	0	0	0	0	0	0	0	0	0	0	0	0	0	0	0	0	0	0	0
022719	10:22:04	10:34:48	763739	5.0.10.0	4_exp_AMP_EVA_AWA_CON	140	Rpleas_acq	Same	Rpleas	Amasked	CS_A	2pleas	distractor2	EVAbeforeCON	AMP_distractor	AMP23	7	10	0	0	300	300	0	0	543	50	0	0	0	0	0	1	blank2r.bmp	0	1	QYSB	0	1	blank2r.bmp	79	119	pic119.bmp	199	1	whitenoise_No3.bmp	306	0	0	0	0	0	0	0	0	0	0	0	0	0	0	0	0	0	0	0	0	0	0	0	0	0	0	0	0	0	0	0	0	0	0	0	0	0	0	0
022719	10:22:04	10:34:50	764978	5.0.10.0	4_exp_AMP_EVA_AWA_CON	140	Rpleas_acq	Same	Rpleas	Amasked	CS_A	2pleas	distractor2	EVAbeforeCON	AMP_CSpleas	AMP23	7	11	0	0	300	300	0	0	316	50	0	1	0	0	0	1	blank2r.bmp	0	1	DHJF	0	1	blank2r.bmp	79	56	pic56.bmp	199	1	whitenoise_No3.bmp	306	0	0	0	0	0	0	0	0	0	0	0	0	0	0	0	0	0	0	0	0	0	0	0	0	0	0	0	0	0	0	0	0	0	0	0	0	0	0	0
022719	10:22:04	10:34:51	766471	5.0.10.0	4_exp_AMP_EVA_AWA_CON	140	Rpleas_acq	Same	Rpleas	Amasked	CS_A	2pleas	distractor2	EVAbeforeCON	AMP_CSpleas	AMP23	7	12	0	0	300	300	0	0	573	50	0	1	0	0	0	1	blank2r.bmp	0	1	DHJF	0	1	blank2r.bmp	79	60	pic60.bmp	199	1	whitenoise_No3.bmp	306	0	0	0	0	0	0	0	0	0	0	0	0	0	0	0	0	0	0	0	0	0	0	0	0	0	0	0	0	0	0	0	0	0	0	0	0	0	0	0
022719	10:22:04	10:34:52	767657	5.0.10.0	4_exp_AMP_EVA_AWA_CON	140	Rpleas_acq	Same	Rpleas	Amasked	CS_A	2pleas	distractor2	EVAbeforeCON	AMP_CSpleas	AMP23	7	13	0	0	300	300	0	0	268	50	0	1	0	0	0	1	blank2r.bmp	0	1	DHJF	0	1	blank2r.bmp	79	133	pic133.bmp	199	1	whitenoise_No3.bmp	306	0	0	0	0	0	0	0	0	0	0	0	0	0	0	0	0	0	0	0	0	0	0	0	0	0	0	0	0	0	0	0	0	0	0	0	0	0	0	0
022719	10:22:04	10:34:53	768790	5.0.10.0	4_exp_AMP_EVA_AWA_CON	140	Rpleas_acq	Same	Rpleas	Amasked	CS_A	2pleas	distractor2	EVAbeforeCON	AMP_distractor	AMP23	7	14	0	0	300	300	0	0	206	50	0	0	0	0	0	1	blank2r.bmp	0	1	QYSB	0	1	blank2r.bmp	79	36	pic36.bmp	199	1	whitenoise_No3.bmp	306	0	0	0	0	0	0	0	0	0	0	0	0	0	0	0	0	0	0	0	0	0	0	0	0	0	0	0	0	0	0	0	0	0	0	0	0	0	0	0
022719	10:22:04	10:34:55	770149	5.0.10.0	4_exp_AMP_EVA_AWA_CON	140	Rpleas_acq	Same	Rpleas	Amasked	CS_A	2pleas	distractor2	EVAbeforeCON	AMP_CSpleas	AMP23	7	15	0	0	300	300	0	0	451	50	0	1	0	0	0	1	blank2r.bmp	0	1	DHJF	0	1	blank2r.bmp	79	90	pic90.bmp	199	1	whitenoise_No3.bmp	306	0	0	0	0	0	0	0	0	0	0	0	0	0	0	0	0	0	0	0	0	0	0	0	0	0	0	0	0	0	0	0	0	0	0	0	0	0	0	0
022719	10:22:04	10:34:56	771389	5.0.10.0	4_exp_AMP_EVA_AWA_CON	140	Rpleas_acq	Same	Rpleas	Amasked	CS_A	2pleas	distractor2	EVAbeforeCON	AMP_distractor	AMP23	7	16	0	0	300	300	0	0	306	50	0	0	0	0	0	1	blank2r.bmp	0	1	QYSB	0	1	blank2r.bmp	79	100	pic100.bmp	199	1	whitenoise_No3.bmp	306	0	0	0	0	0	0	0	0	0	0	0	0	0	0	0	0	0	0	0	0	0	0	0	0	0	0	0	0	0	0	0	0	0	0	0	0	0	0	0
022719	10:22:04	10:34:57	772762	5.0.10.0	4_exp_AMP_EVA_AWA_CON	140	Rpleas_acq	Same	Rpleas	Amasked	CS_A	2pleas	distractor2	EVAbeforeCON	AMP_CSunple	AMP23	7	17	0	0	300	300	0	0	455	50	0	0	0	0	0	1	blank2r.bmp	0	1	CPLW	0	1	blank2r.bmp	79	147	pic147.bmp	199	1	whitenoise_No3.bmp	306	0	0	0	0	0	0	0	0	0	0	0	0	0	0	0	0	0	0	0	0	0	0	0	0	0	0	0	0	0	0	0	0	0	0	0	0	0	0	0
022719	10:22:04	10:34:59	774001	5.0.10.0	4_exp_AMP_EVA_AWA_CON	140	Rpleas_acq	Same	Rpleas	Amasked	CS_A	2pleas	distractor2	EVAbeforeCON	AMP_CSpleas	AMP23	7	18	0	0	300	300	0	0	327	50	0	1	0	0	0	1	blank2r.bmp	0	1	DHJF	0	1	blank2r.bmp	79	68	pic68.bmp	199	1	whitenoise_No3.bmp	306	0	0	0	0	0	0	0	0	0	0	0	0	0	0	0	0	0	0	0	0	0	0	0	0	0	0	0	0	0	0	0	0	0	0	0	0	0	0	0
022719	10:22:04	10:35:00	775334	5.0.10.0	4_exp_AMP_EVA_AWA_CON	140	Rpleas_acq	Same	Rpleas	Amasked	CS_A	2pleas	distractor2	EVAbeforeCON	AMP_CSpleas	AMP23	7	19	0	0	300	300	0	0	406	50	0	1	0	0	0	1	blank2r.bmp	0	1	DHJF	0	1	blank2r.bmp	79	112	pic112.bmp	199	1	whitenoise_No3.bmp	306	0	0	0	0	0	0	0	0	0	0	0	0	0	0	0	0	0	0	0	0	0	0	0	0	0	0	0	0	0	0	0	0	0	0	0	0	0	0	0
022719	10:22:04	10:35:01	776600	5.0.10.0	4_exp_AMP_EVA_AWA_CON	140	Rpleas_acq	Same	Rpleas	Amasked	CS_A	2pleas	distractor2	EVAbeforeCON	AMP_distractor	AMP23	7	20	0	0	300	300	0	0	344	50	0	0	0	0	0	1	blank2r.bmp	0	1	QYSB	0	1	blank2r.bmp	79	42	pic42.bmp	199	1	whitenoise_No3.bmp	306	0	0	0	0	0	0	0	0	0	0	0	0	0	0	0	0	0	0	0	0	0	0	0	0	0	0	0	0	0	0	0	0	0	0	0	0	0	0	0
022719	10:22:04	10:35:02	777826	5.0.10.0	4_exp_AMP_EVA_AWA_CON	140	Rpleas_acq	Same	Rpleas	Amasked	CS_A	2pleas	distractor2	EVAbeforeCON	AMP_CSunple	AMP23	7	21	0	0	300	300	0	0	311	50	0	0	0	0	0	1	blank2r.bmp	0	1	CPLW	0	1	blank2r.bmp	79	80	pic80.bmp	199	1	whitenoise_No3.bmp	306	0	0	0	0	0	0	0	0	0	0	0	0	0	0	0	0	0	0	0	0	0	0	0	0	0	0	0	0	0	0	0	0	0	0	0	0	0	0	0
022719	10:22:04	10:35:04	779292	5.0.10.0	4_exp_AMP_EVA_AWA_CON	140	Rpleas_acq	Same	Rpleas	Amasked	CS_A	2pleas	distractor2	EVAbeforeCON	AMP_CSunple	AMP23	7	22	0	0	300	300	0	0	531	50	0	0	0	0	0	1	blank2r.bmp	0	1	CPLW	0	1	blank2r.bmp	79	37	pic37.bmp	199	1	whitenoise_No3.bmp	306	0	0	0	0	0	0	0	0	0	0	0	0	0	0	0	0	0	0	0	0	0	0	0	0	0	0	0	0	0	0	0	0	0	0	0	0	0	0	0
022719	10:22:04	10:35:05	780465	5.0.10.0	4_exp_AMP_EVA_AWA_CON	140	Rpleas_acq	Same	Rpleas	Amasked	CS_A	2pleas	distractor2	EVAbeforeCON	AMP_CSunple	AMP23	7	23	0	0	300	300	0	0	264	50	0	0	0	0	0	1	blank2r.bmp	0	1	CPLW	0	1	blank2r.bmp	79	59	pic59.bmp	199	1	whitenoise_No3.bmp	306	0	0	0	0	0	0	0	0	0	0	0	0	0	0	0	0	0	0	0	0	0	0	0	0	0	0	0	0	0	0	0	0	0	0	0	0	0	0	0
022719	10:22:04	10:35:06	781598	5.0.10.0	4_exp_AMP_EVA_AWA_CON	140	Rpleas_acq	Same	Rpleas	Amasked	CS_A	2pleas	distractor2	EVAbeforeCON	AMP_CSpleas	AMP23	7	24	0	0	300	300	0	0	202	50	0	1	0	0	0	1	blank2r.bmp	0	1	DHJF	0	1	blank2r.bmp	79	122	pic122.bmp	199	1	whitenoise_No3.bmp	306	0	0	0	0	0	0	0	0	0	0	0	0	0	0	0	0	0	0	0	0	0	0	0	0	0	0	0	0	0	0	0	0	0	0	0	0	0	0	0
022719	10:22:04	10:35:07	782731	5.0.10.0	4_exp_AMP_EVA_AWA_CON	140	Rpleas_acq	Same	Rpleas	Amasked	CS_A	2pleas	distractor2	EVAbeforeCON	AMP_CSunple	AMP23	7	25	0	0	300	300	0	0	222	50	0	0	0	0	0	1	blank2r.bmp	0	1	CPLW	0	1	blank2r.bmp	79	52	pic52.bmp	199	1	whitenoise_No3.bmp	306	0	0	0	0	0	0	0	0	0	0	0	0	0	0	0	0	0	0	0	0	0	0	0	0	0	0	0	0	0	0	0	0	0	0	0	0	0	0	0
022719	10:22:04	10:35:09	784064	5.0.10.0	4_exp_AMP_EVA_AWA_CON	140	Rpleas_acq	Same	Rpleas	Amasked	CS_A	2pleas	distractor2	EVAbeforeCON	AMP_CSunple	AMP23	7	26	0	0	300	300	0	0	416	50	0	0	0	0	0	1	blank2r.bmp	0	1	CPLW	0	1	blank2r.bmp	79	1	pic1.bmp	199	1	whitenoise_No3.bmp	306	0	0	0	0	0	0	0	0	0	0	0	0	0	0	0	0	0	0	0	0	0	0	0	0	0	0	0	0	0	0	0	0	0	0	0	0	0	0	0
022719	10:22:04	10:35:10	785250	5.0.10.0	4_exp_AMP_EVA_AWA_CON	140	Rpleas_acq	Same	Rpleas	Amasked	CS_A	2pleas	distractor2	EVAbeforeCON	AMP_CSunple	AMP23	7	27	0	0	300	300	0	0	274	50	0	0	0	0	0	1	blank2r.bmp	0	1	CPLW	0	1	blank2r.bmp	79	87	pic87.bmp	199	1	whitenoise_No3.bmp	306	0	0	0	0	0	0	0	0	0	0	0	0	0	0	0	0	0	0	0	0	0	0	0	0	0	0	0	0	0	0	0	0	0	0	0	0	0	0	0
022719	10:22:04	10:35:11	786423	5.0.10.0	4_exp_AMP_EVA_AWA_CON	140	Rpleas_acq	Same	Rpleas	Amasked	CS_A	2pleas	distractor2	EVAbeforeCON	AMP_CSunple	AMP23	7	28	0	0	300	300	0	0	239	50	0	0	0	0	0	1	blank2r.bmp	0	1	CPLW	0	1	blank2r.bmp	79	152	pic152.bmp	199	1	whitenoise_No3.bmp	306	0	0	0	0	0	0	0	0	0	0	0	0	0	0	0	0	0	0	0	0	0	0	0	0	0	0	0	0	0	0	0	0	0	0	0	0	0	0	0
022719	10:22:04	10:35:12	787609	5.0.10.0	4_exp_AMP_EVA_AWA_CON	140	Rpleas_acq	Same	Rpleas	Amasked	CS_A	2pleas	distractor2	EVAbeforeCON	AMP_CSpleas	AMP23	7	29	0	0	300	300	0	0	277	50	0	1	0	0	0	1	blank2r.bmp	0	1	DHJF	0	1	blank2r.bmp	79	94	pic94.bmp	199	1	whitenoise_No3.bmp	306	0	0	0	0	0	0	0	0	0	0	0	0	0	0	0	0	0	0	0	0	0	0	0	0	0	0	0	0	0	0	0	0	0	0	0	0	0	0	0
022719	10:22:04	10:35:13	788888	5.0.10.0	4_exp_AMP_EVA_AWA_CON	140	Rpleas_acq	Same	Rpleas	Amasked	CS_A	2pleas	distractor2	EVAbeforeCON	AMP_distractor	AMP23	7	30	0	0	300	300	0	0	346	50	0	0	0	0	0	1	blank2r.bmp	0	1	QYSB	0	1	blank2r.bmp	79	53	pic53.bmp	199	1	whitenoise_No3.bmp	306	0	0	0	0	0	0	0	0	0	0	0	0	0	0	0	0	0	0	0	0	0	0	0	0	0	0	0	0	0	0	0	0	0	0	0	0	0	0	0
022719	10:22:04	10:35:15	790115	5.0.10.0	4_exp_AMP_EVA_AWA_CON	140	Rpleas_acq	Same	Rpleas	Amasked	CS_A	2pleas	distractor2	EVAbeforeCON	AMP_CSpleas	AMP23	7	31	0	0	300	300	0	0	316	50	0	1	0	0	0	1	blank2r.bmp	0	1	DHJF	0	1	blank2r.bmp	79	5	pic5.bmp	199	1	whitenoise_No3.bmp	306	0	0	0	0	0	0	0	0	0	0	0	0	0	0	0	0	0	0	0	0	0	0	0	0	0	0	0	0	0	0	0	0	0	0	0	0	0	0	0
022719	10:22:04	10:35:16	791327	5.0.10.0	4_exp_AMP_EVA_AWA_CON	140	Rpleas_acq	Same	Rpleas	Amasked	CS_A	2pleas	distractor2	EVAbeforeCON	AMP_distractor	AMP23	7	32	0	0	300	300	0	0	289	50	0	0	0	0	0	1	blank2r.bmp	0	1	QYSB	0	1	blank2r.bmp	79	64	pic64.bmp	199	1	whitenoise_No3.bmp	306	0	0	0	0	0	0	0	0	0	0	0	0	0	0	0	0	0	0	0	0	0	0	0	0	0	0	0	0	0	0	0	0	0	0	0	0	0	0	0
022719	10:22:04	10:35:17	792887	5.0.10.0	4_exp_AMP_EVA_AWA_CON	140	Rpleas_acq	Same	Rpleas	Amasked	CS_A	2pleas	distractor2	EVAbeforeCON	AMP_CSpleas	AMP23	7	33	0	0	300	300	0	0	645	46	0	0	0	0	0	1	blank2r.bmp	0	1	DHJF	0	1	blank2r.bmp	79	145	pic145.bmp	199	1	whitenoise_No3.bmp	306	0	0	0	0	0	0	0	0	0	0	0	0	0	0	0	0	0	0	0	0	0	0	0	0	0	0	0	0	0	0	0	0	0	0	0	0	0	0	0
022719	10:22:04	10:35:19	794566	5.0.10.0	4_exp_AMP_EVA_AWA_CON	140	Rpleas_acq	Same	Rpleas	Amasked	CS_A	2pleas	distractor2	EVAbeforeCON	AMP_distractor	AMP23	7	34	0	0	300	300	0	0	762	50	0	0	0	0	0	1	blank2r.bmp	0	1	QYSB	0	1	blank2r.bmp	79	84	pic84.bmp	199	1	whitenoise_No3.bmp	306	0	0	0	0	0	0	0	0	0	0	0	0	0	0	0	0	0	0	0	0	0	0	0	0	0	0	0	0	0	0	0	0	0	0	0	0	0	0	0
022719	10:22:04	10:35:20	795872	5.0.10.0	4_exp_AMP_EVA_AWA_CON	140	Rpleas_acq	Same	Rpleas	Amasked	CS_A	2pleas	distractor2	EVAbeforeCON	AMP_CSunple	AMP23	7	35	0	0	300	300	0	0	376	50	0	0	0	0	0	1	blank2r.bmp	0	1	CPLW	0	1	blank2r.bmp	79	33	pic33.bmp	199	1	whitenoise_No3.bmp	306	0	0	0	0	0	0	0	0	0	0	0	0	0	0	0	0	0	0	0	0	0	0	0	0	0	0	0	0	0	0	0	0	0	0	0	0	0	0	0
