date	time	script.currenttime	script.elapsedtime	build	script.currentexpt	subject	expressions.LRpleas_acq	expressions.SameOppo	expressions.condition_Lpleas	expressions.ABmasked	expressions.conditionCS_A	expressions.condition_1pleas	expressions.condition_distractor_AMP	expressions.AWACON_AMPEVA_first	trialcode	blockcode	blocknum	trialnum	windowcenter	inwindow	pretrialpause	posttrialpause	trialduration	trialtimeout	latency	response	expressions.correctedscore	correct	values.vis_performance	values.vis_rating_sum	values.vis_rating_mean	stimulusnumber1	stimulusitem1	stimulusonset1	stimulusnumber2	stimulusitem2	stimulusonset2	stimulusnumber3	stimulusitem3	stimulusonset3	stimulusnumber4	stimulusitem4	stimulusonset4	stimulusnumber5	stimulusitem5	stimulusonset5	stimulusnumber6	stimulusitem6	stimulusonset6	stimulusnumber7	stimulusitem7	stimulusonset7	stimulusnumber8	stimulusitem8	stimulusonset8	stimulusnumber9	stimulusitem9	stimulusonset9	stimulusnumber10	stimulusitem10	stimulusonset10	stimulusnumber11	stimulusitem11	stimulusonset11	stimulusnumber12	stimulusitem12	stimulusonset12	stimulusnumber13	stimulusitem13	stimulusonset13	stimulusnumber14	stimulusitem14	stimulusonset14	stimulusnumber15	stimulusitem15	stimulusonset15	stimulusnumber16	stimulusitem16	stimulusonset16	stimulusnumber17	stimulusitem17	stimulusonset17	stimulusnumber18	stimulusitem18	stimulusonset18
032519	11:43:07	11:45:50	162106	5.0.10.0	4_exp_AMP_EVA_AWA_CON	176	Rpleas_acq	Oppo	Rpleas	Amasked	CS_A	2pleas	distractor1	EVAbeforeCON	acq_US_unple_masked	acq1_masked	1	1	0	0	300	300	0	0	1644	46	0	1	0	0	0	1	blank2r.bmp	0	1	+	0	8	C4r.bmp	492	1	blank2r.bmp	786	1	CPLW	786	1	blank2r.bmp	866	6	krise	866	0	0	0	0	0	0	0	0	0	0	0	0	0	0	0	0	0	0	0	0	0	0	0	0	0	0	0	0	0	0	0	0	0
032519	11:43:07	11:45:52	164998	5.0.10.0	4_exp_AMP_EVA_AWA_CON	176	Rpleas_acq	Oppo	Rpleas	Amasked	CS_A	2pleas	distractor1	EVAbeforeCON	acq_new_pleas_masked	acq1_masked	1	2	0	0	300	300	0	0	1401	50	0	1	0	0	0	1	blank2r.bmp	0	1	+	0	2	B2r.bmp	492	1	blank2r.bmp	786	1	B1r.bmp	786	1	blank2r.bmp	866	5	besonnen	866	0	0	0	0	0	0	0	0	0	0	0	0	0	0	0	0	0	0	0	0	0	0	0	0	0	0	0	0	0	0	0	0	0
032519	11:43:07	11:45:56	168037	5.0.10.0	4_exp_AMP_EVA_AWA_CON	176	Rpleas_acq	Oppo	Rpleas	Amasked	CS_A	2pleas	distractor1	EVAbeforeCON	acq_new_pleas_masked	acq1_masked	1	3	0	0	300	300	0	0	1354	46	0	0	0	0	0	1	blank2r.bmp	0	1	+	0	3	B3r.bmp	492	1	blank2r.bmp	786	8	C4r.bmp	786	1	blank2r.bmp	866	2	gesittet	866	1	FEHLER	2252	0	0	0	0	0	0	0	0	0	0	0	0	0	0	0	0	0	0	0	0	0	0	0	0	0	0	0	0	0	0
032519	11:43:07	11:45:58	170982	5.0.10.0	4_exp_AMP_EVA_AWA_CON	176	Rpleas_acq	Oppo	Rpleas	Amasked	CS_A	2pleas	distractor1	EVAbeforeCON	acq_new_unple_masked	acq1_masked	1	4	0	0	300	300	0	0	1456	50	0	0	0	0	0	1	blank2r.bmp	0	1	+	0	1	B1r.bmp	492	1	blank2r.bmp	786	7	C3r.bmp	786	1	blank2r.bmp	866	2	geizig	866	1	FEHLER	2359	0	0	0	0	0	0	0	0	0	0	0	0	0	0	0	0	0	0	0	0	0	0	0	0	0	0	0	0	0	0
032519	11:43:07	11:46:01	174021	5.0.10.0	4_exp_AMP_EVA_AWA_CON	176	Rpleas_acq	Oppo	Rpleas	Amasked	CS_A	2pleas	distractor1	EVAbeforeCON	acq_US_pleas_masked	acq1_masked	1	5	0	0	300	300	0	0	1774	50	0	1	0	0	0	1	blank2r.bmp	0	1	+	0	4	B4r.bmp	492	1	blank2r.bmp	786	1	DHJF	786	1	blank2r.bmp	866	4	genießen	866	0	0	0	0	0	0	0	0	0	0	0	0	0	0	0	0	0	0	0	0	0	0	0	0	0	0	0	0	0	0	0	0	0
032519	11:43:07	11:46:06	178286	5.0.10.0	4_exp_AMP_EVA_AWA_CON	176	Rpleas_acq	Oppo	Rpleas	Amasked	CS_A	2pleas	distractor1	EVAbeforeCON	acq_US_unple_masked	acq1_masked	1	6	0	0	300	300	0	0	2773	46	0	1	0	0	0	1	blank2r.bmp	0	1	+	0	7	C3r.bmp	492	1	blank2r.bmp	786	1	CPLW	786	1	blank2r.bmp	866	5	versagen	866	0	0	0	0	0	0	0	0	0	0	0	0	0	0	0	0	0	0	0	0	0	0	0	0	0	0	0	0	0	0	0	0	0
032519	11:43:07	11:46:08	180698	5.0.10.0	4_exp_AMP_EVA_AWA_CON	176	Rpleas_acq	Oppo	Rpleas	Amasked	CS_A	2pleas	distractor1	EVAbeforeCON	acq_new_unple_masked	acq1_masked	1	7	0	0	300	300	0	0	731	50	0	0	0	0	0	1	blank2r.bmp	0	1	+	0	6	C2r.bmp	492	1	blank2r.bmp	786	2	B2r.bmp	786	1	blank2r.bmp	866	3	gierig	866	1	FEHLER	1626	0	0	0	0	0	0	0	0	0	0	0	0	0	0	0	0	0	0	0	0	0	0	0	0	0	0	0	0	0	0
032519	11:43:07	11:46:11	183457	5.0.10.0	4_exp_AMP_EVA_AWA_CON	176	Rpleas_acq	Oppo	Rpleas	Amasked	CS_A	2pleas	distractor1	EVAbeforeCON	acq_US_unple_masked	acq1_masked	1	8	0	0	300	300	0	0	1470	46	0	1	0	0	0	1	blank2r.bmp	0	1	+	0	5	C1r.bmp	492	1	blank2r.bmp	786	1	CPLW	786	1	blank2r.bmp	866	4	gemein	866	0	0	0	0	0	0	0	0	0	0	0	0	0	0	0	0	0	0	0	0	0	0	0	0	0	0	0	0	0	0	0	0	0
032519	11:43:07	11:46:14	186056	5.0.10.0	4_exp_AMP_EVA_AWA_CON	176	Rpleas_acq	Oppo	Rpleas	Amasked	CS_A	2pleas	distractor1	EVAbeforeCON	acq_US_pleas_masked	acq1_masked	1	9	0	0	300	300	0	0	1111	50	0	1	0	0	0	1	blank2r.bmp	0	1	+	0	8	C4r.bmp	492	1	blank2r.bmp	786	1	DHJF	786	1	blank2r.bmp	866	5	vertrauen	866	0	0	0	0	0	0	0	0	0	0	0	0	0	0	0	0	0	0	0	0	0	0	0	0	0	0	0	0	0	0	0	0	0
032519	11:43:07	11:46:16	188402	5.0.10.0	4_exp_AMP_EVA_AWA_CON	176	Rpleas_acq	Oppo	Rpleas	Amasked	CS_A	2pleas	distractor1	EVAbeforeCON	acq_new_unple_masked	acq1_masked	1	10	0	0	300	300	0	0	866	46	0	1	0	0	0	1	blank2r.bmp	0	1	+	0	6	C2r.bmp	492	1	blank2r.bmp	786	5	C1r.bmp	786	1	blank2r.bmp	866	4	krank	866	0	0	0	0	0	0	0	0	0	0	0	0	0	0	0	0	0	0	0	0	0	0	0	0	0	0	0	0	0	0	0	0	0
032519	11:43:07	11:46:18	190454	5.0.10.0	4_exp_AMP_EVA_AWA_CON	176	Rpleas_acq	Oppo	Rpleas	Amasked	CS_A	2pleas	distractor1	EVAbeforeCON	acq_US_pleas_masked	acq1_masked	1	11	0	0	300	300	0	0	583	50	0	1	0	0	0	1	blank2r.bmp	0	1	+	0	1	B1r.bmp	492	1	blank2r.bmp	786	1	DHJF	786	1	blank2r.bmp	866	1	träumen	866	0	0	0	0	0	0	0	0	0	0	0	0	0	0	0	0	0	0	0	0	0	0	0	0	0	0	0	0	0	0	0	0	0
032519	11:43:07	11:46:20	192573	5.0.10.0	4_exp_AMP_EVA_AWA_CON	176	Rpleas_acq	Oppo	Rpleas	Amasked	CS_A	2pleas	distractor1	EVAbeforeCON	acq_new_pleas_masked	acq1_masked	1	12	0	0	300	300	0	0	648	50	0	1	0	0	0	1	blank2r.bmp	0	1	+	0	2	B2r.bmp	492	1	blank2r.bmp	786	6	C2r.bmp	786	1	blank2r.bmp	866	1	engagiert	866	0	0	0	0	0	0	0	0	0	0	0	0	0	0	0	0	0	0	0	0	0	0	0	0	0	0	0	0	0	0	0	0	0
032519	11:43:07	11:46:22	194812	5.0.10.0	4_exp_AMP_EVA_AWA_CON	176	Rpleas_acq	Oppo	Rpleas	Amasked	CS_A	2pleas	distractor1	EVAbeforeCON	acq_new_pleas_masked	acq1_masked	1	13	0	0	300	300	0	0	751	50	0	1	0	0	0	1	blank2r.bmp	0	1	+	0	3	B3r.bmp	492	1	blank2r.bmp	786	4	B4r.bmp	786	1	blank2r.bmp	866	3	gütig	866	0	0	0	0	0	0	0	0	0	0	0	0	0	0	0	0	0	0	0	0	0	0	0	0	0	0	0	0	0	0	0	0	0
032519	11:43:07	11:46:25	197838	5.0.10.0	4_exp_AMP_EVA_AWA_CON	176	Rpleas_acq	Oppo	Rpleas	Amasked	CS_A	2pleas	distractor1	EVAbeforeCON	acq_US_unple_masked	acq1_masked	1	14	0	0	300	300	0	0	1534	46	0	1	0	0	0	1	blank2r.bmp	0	1	+	0	4	B4r.bmp	492	1	blank2r.bmp	786	1	CPLW	786	1	blank2r.bmp	866	3	ausrottung	866	0	0	0	0	0	0	0	0	0	0	0	0	0	0	0	0	0	0	0	0	0	0	0	0	0	0	0	0	0	0	0	0	0
032519	11:43:07	11:46:27	200010	5.0.10.0	4_exp_AMP_EVA_AWA_CON	176	Rpleas_acq	Oppo	Rpleas	Amasked	CS_A	2pleas	distractor1	EVAbeforeCON	acq_new_unple_masked	acq1_masked	1	15	0	0	300	300	0	0	699	46	0	1	0	0	0	1	blank2r.bmp	0	1	+	0	7	C3r.bmp	492	1	blank2r.bmp	786	3	B3r.bmp	786	1	blank2r.bmp	866	6	sterben	866	0	0	0	0	0	0	0	0	0	0	0	0	0	0	0	0	0	0	0	0	0	0	0	0	0	0	0	0	0	0	0	0	0
032519	11:43:07	11:46:30	202369	5.0.10.0	4_exp_AMP_EVA_AWA_CON	176	Rpleas_acq	Oppo	Rpleas	Amasked	CS_A	2pleas	distractor1	EVAbeforeCON	acq_new_pleas_masked	acq1_masked	1	16	0	0	300	300	0	0	866	50	0	1	0	0	0	1	blank2r.bmp	0	1	+	0	5	C1r.bmp	492	1	blank2r.bmp	786	3	B3r.bmp	786	1	blank2r.bmp	866	4	kreativ	866	0	0	0	0	0	0	0	0	0	0	0	0	0	0	0	0	0	0	0	0	0	0	0	0	0	0	0	0	0	0	0	0	0
032519	11:43:07	11:46:32	204368	5.0.10.0	4_exp_AMP_EVA_AWA_CON	176	Rpleas_acq	Oppo	Rpleas	Amasked	CS_A	2pleas	distractor1	EVAbeforeCON	acq_US_unple_masked	acq1_masked	1	17	0	0	300	300	0	0	516	46	0	1	0	0	0	1	blank2r.bmp	0	1	+	0	2	B2r.bmp	492	1	blank2r.bmp	786	1	CPLW	786	1	blank2r.bmp	866	1	töten	866	0	0	0	0	0	0	0	0	0	0	0	0	0	0	0	0	0	0	0	0	0	0	0	0	0	0	0	0	0	0	0	0	0
032519	11:43:07	11:46:34	206661	5.0.10.0	4_exp_AMP_EVA_AWA_CON	176	Rpleas_acq	Oppo	Rpleas	Amasked	CS_A	2pleas	distractor1	EVAbeforeCON	acq_US_unple_masked	acq1_masked	1	18	0	0	300	300	0	0	820	46	0	1	0	0	0	1	blank2r.bmp	0	1	+	0	3	B3r.bmp	492	1	blank2r.bmp	786	1	CPLW	786	1	blank2r.bmp	866	2	verbissen	866	0	0	0	0	0	0	0	0	0	0	0	0	0	0	0	0	0	0	0	0	0	0	0	0	0	0	0	0	0	0	0	0	0
032519	11:43:07	11:46:36	208807	5.0.10.0	4_exp_AMP_EVA_AWA_CON	176	Rpleas_acq	Oppo	Rpleas	Amasked	CS_A	2pleas	distractor1	EVAbeforeCON	acq_new_pleas_masked	acq1_masked	1	19	0	0	300	300	0	0	664	50	0	1	0	0	0	1	blank2r.bmp	0	1	+	0	8	C4r.bmp	492	1	blank2r.bmp	786	4	B4r.bmp	786	1	blank2r.bmp	866	6	sonnig	866	0	0	0	0	0	0	0	0	0	0	0	0	0	0	0	0	0	0	0	0	0	0	0	0	0	0	0	0	0	0	0	0	0
032519	11:43:07	11:46:38	211019	5.0.10.0	4_exp_AMP_EVA_AWA_CON	176	Rpleas_acq	Oppo	Rpleas	Amasked	CS_A	2pleas	distractor1	EVAbeforeCON	acq_US_pleas_masked	acq1_masked	1	20	0	0	300	300	0	0	736	50	0	1	0	0	0	1	blank2r.bmp	0	1	+	0	6	C2r.bmp	492	1	blank2r.bmp	786	1	DHJF	786	1	blank2r.bmp	866	3	anregung	866	0	0	0	0	0	0	0	0	0	0	0	0	0	0	0	0	0	0	0	0	0	0	0	0	0	0	0	0	0	0	0	0	0
032519	11:43:07	11:46:41	213138	5.0.10.0	4_exp_AMP_EVA_AWA_CON	176	Rpleas_acq	Oppo	Rpleas	Amasked	CS_A	2pleas	distractor1	EVAbeforeCON	acq_US_pleas_masked	acq1_masked	1	21	0	0	300	300	0	0	651	50	0	1	0	0	0	1	blank2r.bmp	0	1	+	0	7	C3r.bmp	492	1	blank2r.bmp	786	1	DHJF	786	1	blank2r.bmp	866	6	kuss	866	0	0	0	0	0	0	0	0	0	0	0	0	0	0	0	0	0	0	0	0	0	0	0	0	0	0	0	0	0	0	0	0	0
032519	11:43:07	11:46:43	215724	5.0.10.0	4_exp_AMP_EVA_AWA_CON	176	Rpleas_acq	Oppo	Rpleas	Amasked	CS_A	2pleas	distractor1	EVAbeforeCON	acq_new_unple_masked	acq1_masked	1	22	0	0	300	300	0	0	1096	46	0	1	0	0	0	1	blank2r.bmp	0	1	+	0	4	B4r.bmp	492	1	blank2r.bmp	786	2	B2r.bmp	786	1	blank2r.bmp	866	1	engstirnig	866	0	0	0	0	0	0	0	0	0	0	0	0	0	0	0	0	0	0	0	0	0	0	0	0	0	0	0	0	0	0	0	0	0
032519	11:43:07	11:46:46	218616	5.0.10.0	4_exp_AMP_EVA_AWA_CON	176	Rpleas_acq	Oppo	Rpleas	Amasked	CS_A	2pleas	distractor1	EVAbeforeCON	acq_new_unple_masked	acq1_masked	1	23	0	0	300	300	0	0	1415	46	0	1	0	0	0	1	blank2r.bmp	0	1	+	0	5	C1r.bmp	492	1	blank2r.bmp	786	7	C3r.bmp	786	1	blank2r.bmp	866	5	bange	866	0	0	0	0	0	0	0	0	0	0	0	0	0	0	0	0	0	0	0	0	0	0	0	0	0	0	0	0	0	0	0	0	0
032519	11:43:07	11:46:48	220828	5.0.10.0	4_exp_AMP_EVA_AWA_CON	176	Rpleas_acq	Oppo	Rpleas	Amasked	CS_A	2pleas	distractor1	EVAbeforeCON	acq_US_pleas_masked	acq1_masked	1	24	0	0	300	300	0	0	735	50	0	1	0	0	0	1	blank2r.bmp	0	1	+	0	1	B1r.bmp	492	1	blank2r.bmp	786	1	DHJF	786	1	blank2r.bmp	866	2	vergnügt	866	0	0	0	0	0	0	0	0	0	0	0	0	0	0	0	0	0	0	0	0	0	0	0	0	0	0	0	0	0	0	0	0	0
032519	11:43:07	11:46:51	223347	5.0.10.0	4_exp_AMP_EVA_AWA_CON	176	Rpleas_acq	Oppo	Rpleas	Amasked	CS_A	2pleas	distractor1	EVAbeforeCON	acq_new_pleas_masked	acq1_masked	1	25	0	0	300	300	0	0	827	46	0	0	0	0	0	1	blank2r.bmp	0	1	+	0	7	C3r.bmp	492	1	blank2r.bmp	786	5	C1r.bmp	786	1	blank2r.bmp	866	2	gesittet	866	1	FEHLER	1732	0	0	0	0	0	0	0	0	0	0	0	0	0	0	0	0	0	0	0	0	0	0	0	0	0	0	0	0	0	0
032519	11:43:07	11:46:55	227146	5.0.10.0	4_exp_AMP_EVA_AWA_CON	176	Rpleas_acq	Oppo	Rpleas	Amasked	CS_A	2pleas	distractor1	EVAbeforeCON	acq_new_unple_masked	acq1_masked	1	26	0	0	300	300	0	0	2532	46	0	1	0	0	0	1	blank2r.bmp	0	1	+	0	5	C1r.bmp	492	1	blank2r.bmp	786	1	B1r.bmp	786	1	blank2r.bmp	866	5	bange	866	0	0	0	0	0	0	0	0	0	0	0	0	0	0	0	0	0	0	0	0	0	0	0	0	0	0	0	0	0	0	0	0	0
032519	11:43:07	11:46:57	229185	5.0.10.0	4_exp_AMP_EVA_AWA_CON	176	Rpleas_acq	Oppo	Rpleas	Amasked	CS_A	2pleas	distractor1	EVAbeforeCON	acq_new_unple_masked	acq1_masked	1	27	0	0	300	300	0	0	561	46	0	1	0	0	0	1	blank2r.bmp	0	1	+	0	3	B3r.bmp	492	1	blank2r.bmp	786	8	C4r.bmp	786	1	blank2r.bmp	866	4	krank	866	0	0	0	0	0	0	0	0	0	0	0	0	0	0	0	0	0	0	0	0	0	0	0	0	0	0	0	0	0	0	0	0	0
032519	11:43:07	11:46:59	231371	5.0.10.0	4_exp_AMP_EVA_AWA_CON	176	Rpleas_acq	Oppo	Rpleas	Amasked	CS_A	2pleas	distractor1	EVAbeforeCON	acq_US_pleas_masked	acq1_masked	1	28	0	0	300	300	0	0	692	50	0	1	0	0	0	1	blank2r.bmp	0	1	+	0	4	B4r.bmp	492	1	blank2r.bmp	786	1	DHJF	786	1	blank2r.bmp	866	3	anregung	866	0	0	0	0	0	0	0	0	0	0	0	0	0	0	0	0	0	0	0	0	0	0	0	0	0	0	0	0	0	0	0	0	0
032519	11:43:07	11:47:01	233503	5.0.10.0	4_exp_AMP_EVA_AWA_CON	176	Rpleas_acq	Oppo	Rpleas	Amasked	CS_A	2pleas	distractor1	EVAbeforeCON	acq_new_unple_masked	acq1_masked	1	29	0	0	300	300	0	0	660	46	0	1	0	0	0	1	blank2r.bmp	0	1	+	0	8	C4r.bmp	492	1	blank2r.bmp	786	6	C2r.bmp	786	1	blank2r.bmp	866	6	sterben	866	0	0	0	0	0	0	0	0	0	0	0	0	0	0	0	0	0	0	0	0	0	0	0	0	0	0	0	0	0	0	0	0	0
032519	11:43:07	11:47:03	235716	5.0.10.0	4_exp_AMP_EVA_AWA_CON	176	Rpleas_acq	Oppo	Rpleas	Amasked	CS_A	2pleas	distractor1	EVAbeforeCON	acq_US_unple_masked	acq1_masked	1	30	0	0	300	300	0	0	724	46	0	1	0	0	0	1	blank2r.bmp	0	1	+	0	1	B1r.bmp	492	1	blank2r.bmp	786	1	CPLW	786	1	blank2r.bmp	866	4	gemein	866	0	0	0	0	0	0	0	0	0	0	0	0	0	0	0	0	0	0	0	0	0	0	0	0	0	0	0	0	0	0	0	0	0
032519	11:43:07	11:47:05	237955	5.0.10.0	4_exp_AMP_EVA_AWA_CON	176	Rpleas_acq	Oppo	Rpleas	Amasked	CS_A	2pleas	distractor1	EVAbeforeCON	acq_new_pleas_masked	acq1_masked	1	31	0	0	300	300	0	0	752	50	0	1	0	0	0	1	blank2r.bmp	0	1	+	0	6	C2r.bmp	492	1	blank2r.bmp	786	8	C4r.bmp	786	1	blank2r.bmp	866	6	sonnig	866	0	0	0	0	0	0	0	0	0	0	0	0	0	0	0	0	0	0	0	0	0	0	0	0	0	0	0	0	0	0	0	0	0
032519	11:43:07	11:47:08	240180	5.0.10.0	4_exp_AMP_EVA_AWA_CON	176	Rpleas_acq	Oppo	Rpleas	Amasked	CS_A	2pleas	distractor1	EVAbeforeCON	acq_US_unple_masked	acq1_masked	1	32	0	0	300	300	0	0	747	46	0	1	0	0	0	1	blank2r.bmp	0	1	+	0	2	B2r.bmp	492	1	blank2r.bmp	786	1	CPLW	786	1	blank2r.bmp	866	3	ausrottung	866	0	0	0	0	0	0	0	0	0	0	0	0	0	0	0	0	0	0	0	0	0	0	0	0	0	0	0	0	0	0	0	0	0
032519	11:43:07	11:47:10	242393	5.0.10.0	4_exp_AMP_EVA_AWA_CON	176	Rpleas_acq	Oppo	Rpleas	Amasked	CS_A	2pleas	distractor1	EVAbeforeCON	acq_US_pleas_masked	acq1_masked	1	33	0	0	300	300	0	0	737	50	0	1	0	0	0	1	blank2r.bmp	0	1	+	0	5	C1r.bmp	492	1	blank2r.bmp	786	1	DHJF	786	1	blank2r.bmp	866	2	vergnügt	866	0	0	0	0	0	0	0	0	0	0	0	0	0	0	0	0	0	0	0	0	0	0	0	0	0	0	0	0	0	0	0	0	0
032519	11:43:07	11:47:12	244552	5.0.10.0	4_exp_AMP_EVA_AWA_CON	176	Rpleas_acq	Oppo	Rpleas	Amasked	CS_A	2pleas	distractor1	EVAbeforeCON	acq_US_unple_masked	acq1_masked	1	34	0	0	300	300	0	0	665	46	0	1	0	0	0	1	blank2r.bmp	0	1	+	0	8	C4r.bmp	492	1	blank2r.bmp	786	1	CPLW	786	1	blank2r.bmp	866	5	versagen	866	0	0	0	0	0	0	0	0	0	0	0	0	0	0	0	0	0	0	0	0	0	0	0	0	0	0	0	0	0	0	0	0	0
032519	11:43:07	11:47:14	246684	5.0.10.0	4_exp_AMP_EVA_AWA_CON	176	Rpleas_acq	Oppo	Rpleas	Amasked	CS_A	2pleas	distractor1	EVAbeforeCON	acq_US_pleas_masked	acq1_masked	1	35	0	0	300	300	0	0	649	50	0	1	0	0	0	1	blank2r.bmp	0	1	+	0	2	B2r.bmp	492	1	blank2r.bmp	786	1	DHJF	786	1	blank2r.bmp	866	5	vertrauen	866	0	0	0	0	0	0	0	0	0	0	0	0	0	0	0	0	0	0	0	0	0	0	0	0	0	0	0	0	0	0	0	0	0
032519	11:43:07	11:47:16	248883	5.0.10.0	4_exp_AMP_EVA_AWA_CON	176	Rpleas_acq	Oppo	Rpleas	Amasked	CS_A	2pleas	distractor1	EVAbeforeCON	acq_new_pleas_masked	acq1_masked	1	36	0	0	300	300	0	0	709	50	0	1	0	0	0	1	blank2r.bmp	0	1	+	0	1	B1r.bmp	492	1	blank2r.bmp	786	6	C2r.bmp	786	1	blank2r.bmp	866	4	kreativ	866	0	0	0	0	0	0	0	0	0	0	0	0	0	0	0	0	0	0	0	0	0	0	0	0	0	0	0	0	0	0	0	0	0
032519	11:43:07	11:48:35	327078	5.0.10.0	4_exp_AMP_EVA_AWA_CON	176	Rpleas_acq	Oppo	Rpleas	Amasked	CS_A	2pleas	distractor1	EVAbeforeCON	acq_new_unple_masked	acq2_masked	2	1	480	0	300	300	0	0	681	50	0	0	0	0	0	1	blank2r.bmp	0	1	+	0	3	B3r.bmp	492	1	blank2r.bmp	786	4	B4r.bmp	786	1	blank2r.bmp	866	3	gierig	866	1	FEHLER	1892	1	!	1319	1	!	-1	0	0	0	0	0	0	0	0	0	0	0	0	0	0	0	0	0	0	0	0	0	0	0	0
032519	11:43:07	11:48:38	330223	5.0.10.0	4_exp_AMP_EVA_AWA_CON	176	Rpleas_acq	Oppo	Rpleas	Amasked	CS_A	2pleas	distractor1	EVAbeforeCON	acq_US_unple_masked	acq2_masked	2	2	480	0	300	300	0	0	1370	50	0	0	0	0	0	1	blank2r.bmp	0	1	+	0	7	C3r.bmp	492	1	blank2r.bmp	786	1	CPLW	786	1	blank2r.bmp	866	6	krise	866	1	FEHLER	2572	1	!	1319	1	!	-1	0	0	0	0	0	0	0	0	0	0	0	0	0	0	0	0	0	0	0	0	0	0	0	0
032519	11:43:07	11:48:41	333249	5.0.10.0	4_exp_AMP_EVA_AWA_CON	176	Rpleas_acq	Oppo	Rpleas	Amasked	CS_A	2pleas	distractor1	EVAbeforeCON	acq_US_pleas_masked	acq2_masked	2	3	480	0	300	300	0	0	1473	50	0	1	0	0	0	1	blank2r.bmp	0	1	+	0	4	B4r.bmp	492	1	blank2r.bmp	786	1	DHJF	786	1	blank2r.bmp	866	6	kuss	866	1	!	1319	1	!	-1	0	0	0	0	0	0	0	0	0	0	0	0	0	0	0	0	0	0	0	0	0	0	0	0	0	0	0
032519	11:43:07	11:48:43	335554	5.0.10.0	4_exp_AMP_EVA_AWA_CON	176	Rpleas_acq	Oppo	Rpleas	Amasked	CS_A	2pleas	distractor1	EVAbeforeCON	acq_new_pleas_masked	acq2_masked	2	4	480	1	300	300	0	0	502	50	0	1	0	0	0	1	blank2r.bmp	0	1	+	0	6	C2r.bmp	492	1	blank2r.bmp	786	2	B2r.bmp	786	1	blank2r.bmp	866	3	gütig	866	1	!	1319	1	!	1399	0	0	0	0	0	0	0	0	0	0	0	0	0	0	0	0	0	0	0	0	0	0	0	0	0	0	0
032519	11:43:07	11:48:45	337833	5.0.10.0	4_exp_AMP_EVA_AWA_CON	176	Rpleas_acq	Oppo	Rpleas	Amasked	CS_A	2pleas	distractor1	EVAbeforeCON	acq_US_pleas_masked	acq2_masked	2	5	480	1	300	300	0	0	484	50	0	1	0	0	0	1	blank2r.bmp	0	1	+	0	4	B4r.bmp	492	1	blank2r.bmp	786	1	DHJF	786	1	blank2r.bmp	866	4	genießen	866	1	!	1319	1	!	1386	0	0	0	0	0	0	0	0	0	0	0	0	0	0	0	0	0	0	0	0	0	0	0	0	0	0	0
032519	11:43:07	11:48:48	340166	5.0.10.0	4_exp_AMP_EVA_AWA_CON	176	Rpleas_acq	Oppo	Rpleas	Amasked	CS_A	2pleas	distractor1	EVAbeforeCON	acq_US_unple_masked	acq2_masked	2	6	480	1	300	300	0	0	537	46	0	1	0	0	0	1	blank2r.bmp	0	1	+	0	1	B1r.bmp	492	1	blank2r.bmp	786	1	CPLW	786	1	blank2r.bmp	866	2	verbissen	866	1	!	1319	1	!	1439	0	0	0	0	0	0	0	0	0	0	0	0	0	0	0	0	0	0	0	0	0	0	0	0	0	0	0
032519	11:43:07	11:48:50	342698	5.0.10.0	4_exp_AMP_EVA_AWA_CON	176	Rpleas_acq	Oppo	Rpleas	Amasked	CS_A	2pleas	distractor1	EVAbeforeCON	acq_new_unple_masked	acq2_masked	2	7	480	1	300	300	0	0	531	50	0	0	0	0	0	1	blank2r.bmp	0	1	+	0	2	B2r.bmp	492	1	blank2r.bmp	786	1	B1r.bmp	786	1	blank2r.bmp	866	2	geizig	866	1	FEHLER	1745	1	!	1319	1	!	1426	0	0	0	0	0	0	0	0	0	0	0	0	0	0	0	0	0	0	0	0	0	0	0	0
032519	11:43:07	11:48:52	344844	5.0.10.0	4_exp_AMP_EVA_AWA_CON	176	Rpleas_acq	Oppo	Rpleas	Amasked	CS_A	2pleas	distractor1	EVAbeforeCON	acq_new_pleas_masked	acq2_masked	2	8	480	0	300	300	0	0	587	50	0	1	0	0	0	1	blank2r.bmp	0	1	+	0	6	C2r.bmp	492	1	blank2r.bmp	786	7	C3r.bmp	786	1	blank2r.bmp	866	1	engagiert	866	1	!	1319	1	!	-1	0	0	0	0	0	0	0	0	0	0	0	0	0	0	0	0	0	0	0	0	0	0	0	0	0	0	0
032519	11:43:07	11:48:55	347150	5.0.10.0	4_exp_AMP_EVA_AWA_CON	176	Rpleas_acq	Oppo	Rpleas	Amasked	CS_A	2pleas	distractor1	EVAbeforeCON	acq_new_pleas_masked	acq2_masked	2	9	480	1	300	300	0	0	481	50	0	1	0	0	0	1	blank2r.bmp	0	1	+	0	8	C4r.bmp	492	1	blank2r.bmp	786	5	C1r.bmp	786	1	blank2r.bmp	866	5	besonnen	866	1	!	1319	1	!	1386	0	0	0	0	0	0	0	0	0	0	0	0	0	0	0	0	0	0	0	0	0	0	0	0	0	0	0
032519	11:43:07	11:48:57	349589	5.0.10.0	4_exp_AMP_EVA_AWA_CON	176	Rpleas_acq	Oppo	Rpleas	Amasked	CS_A	2pleas	distractor1	EVAbeforeCON	acq_US_unple_masked	acq2_masked	2	10	480	1	300	300	0	0	426	50	0	0	0	0	0	1	blank2r.bmp	0	1	+	0	3	B3r.bmp	492	1	blank2r.bmp	786	1	CPLW	786	1	blank2r.bmp	866	1	töten	866	1	FEHLER	1652	1	!	1319	1	!	1332	0	0	0	0	0	0	0	0	0	0	0	0	0	0	0	0	0	0	0	0	0	0	0	0
032519	11:43:07	11:48:59	351841	5.0.10.0	4_exp_AMP_EVA_AWA_CON	176	Rpleas_acq	Oppo	Rpleas	Amasked	CS_A	2pleas	distractor1	EVAbeforeCON	acq_new_unple_masked	acq2_masked	2	11	480	0	300	300	0	0	698	46	0	1	0	0	0	1	blank2r.bmp	0	1	+	0	7	C3r.bmp	492	1	blank2r.bmp	786	3	B3r.bmp	786	1	blank2r.bmp	866	1	engstirnig	866	1	!	1319	1	!	-1	0	0	0	0	0	0	0	0	0	0	0	0	0	0	0	0	0	0	0	0	0	0	0	0	0	0	0
032519	11:43:07	11:49:02	354213	5.0.10.0	4_exp_AMP_EVA_AWA_CON	176	Rpleas_acq	Oppo	Rpleas	Amasked	CS_A	2pleas	distractor1	EVAbeforeCON	acq_US_pleas_masked	acq2_masked	2	12	480	0	300	300	0	0	382	46	0	0	0	0	0	1	blank2r.bmp	0	1	+	0	5	C1r.bmp	492	1	blank2r.bmp	786	1	DHJF	786	1	blank2r.bmp	866	1	träumen	866	1	FEHLER	1586	1	!	-1	1	!	-1	0	0	0	0	0	0	0	0	0	0	0	0	0	0	0	0	0	0	0	0	0	0	0	0
032519	11:43:07	11:49:04	356293	5.0.10.0	4_exp_AMP_EVA_AWA_CON	176	Rpleas_acq	Oppo	Rpleas	Amasked	CS_A	2pleas	distractor1	EVAbeforeCON	acq_US_pleas_masked	acq2_masked	2	13	480	1	300	300	0	0	479	50	0	1	0	0	0	1	blank2r.bmp	0	1	+	0	1	B1r.bmp	492	1	blank2r.bmp	786	1	DHJF	786	1	blank2r.bmp	866	4	genießen	866	1	!	1319	1	!	1386	0	0	0	0	0	0	0	0	0	0	0	0	0	0	0	0	0	0	0	0	0	0	0	0	0	0	0
032519	11:43:07	11:49:06	358558	5.0.10.0	4_exp_AMP_EVA_AWA_CON	176	Rpleas_acq	Oppo	Rpleas	Amasked	CS_A	2pleas	distractor1	EVAbeforeCON	acq_US_unple_masked	acq2_masked	2	14	480	1	300	300	0	0	452	46	0	1	0	0	0	1	blank2r.bmp	0	1	+	0	7	C3r.bmp	492	1	blank2r.bmp	786	1	CPLW	786	1	blank2r.bmp	866	6	krise	866	1	!	1319	1	!	1359	0	0	0	0	0	0	0	0	0	0	0	0	0	0	0	0	0	0	0	0	0	0	0	0	0	0	0
032519	11:43:07	11:49:08	360864	5.0.10.0	4_exp_AMP_EVA_AWA_CON	176	Rpleas_acq	Oppo	Rpleas	Amasked	CS_A	2pleas	distractor1	EVAbeforeCON	acq_new_unple_masked	acq2_masked	2	15	480	1	300	300	0	0	506	46	0	1	0	0	0	1	blank2r.bmp	0	1	+	0	6	C2r.bmp	492	1	blank2r.bmp	786	1	B1r.bmp	786	1	blank2r.bmp	866	6	sterben	866	1	!	1319	1	!	1412	0	0	0	0	0	0	0	0	0	0	0	0	0	0	0	0	0	0	0	0	0	0	0	0	0	0	0
032519	11:43:07	11:49:11	363210	5.0.10.0	4_exp_AMP_EVA_AWA_CON	176	Rpleas_acq	Oppo	Rpleas	Amasked	CS_A	2pleas	distractor1	EVAbeforeCON	acq_US_unple_masked	acq2_masked	2	16	480	0	300	300	0	0	559	46	0	1	0	0	0	1	blank2r.bmp	0	1	+	0	2	B2r.bmp	492	1	blank2r.bmp	786	1	CPLW	786	1	blank2r.bmp	866	5	versagen	866	1	!	1319	1	!	-1	0	0	0	0	0	0	0	0	0	0	0	0	0	0	0	0	0	0	0	0	0	0	0	0	0	0	0
032519	11:43:07	11:49:13	365595	5.0.10.0	4_exp_AMP_EVA_AWA_CON	176	Rpleas_acq	Oppo	Rpleas	Amasked	CS_A	2pleas	distractor1	EVAbeforeCON	acq_US_unple_masked	acq2_masked	2	17	480	0	300	300	0	0	392	50	0	0	0	0	0	1	blank2r.bmp	0	1	+	0	3	B3r.bmp	492	1	blank2r.bmp	786	1	CPLW	786	1	blank2r.bmp	866	3	ausrottung	866	1	FEHLER	1599	1	!	-1	1	!	-1	0	0	0	0	0	0	0	0	0	0	0	0	0	0	0	0	0	0	0	0	0	0	0	0
032519	11:43:07	11:49:15	367568	5.0.10.0	4_exp_AMP_EVA_AWA_CON	176	Rpleas_acq	Oppo	Rpleas	Amasked	CS_A	2pleas	distractor1	EVAbeforeCON	acq_new_pleas_masked	acq2_masked	2	18	480	0	300	300	0	0	410	50	0	1	0	0	0	1	blank2r.bmp	0	1	+	0	5	C1r.bmp	492	1	blank2r.bmp	786	8	C4r.bmp	786	1	blank2r.bmp	866	5	besonnen	866	1	!	-1	1	!	-1	0	0	0	0	0	0	0	0	0	0	0	0	0	0	0	0	0	0	0	0	0	0	0	0	0	0	0
032519	11:43:07	11:49:17	369767	5.0.10.0	4_exp_AMP_EVA_AWA_CON	176	Rpleas_acq	Oppo	Rpleas	Amasked	CS_A	2pleas	distractor1	EVAbeforeCON	acq_new_unple_masked	acq2_masked	2	19	480	0	300	300	0	0	412	46	0	1	0	0	0	1	blank2r.bmp	0	1	+	0	4	B4r.bmp	492	1	blank2r.bmp	786	7	C3r.bmp	786	1	blank2r.bmp	866	4	krank	866	1	!	-1	1	!	-1	0	0	0	0	0	0	0	0	0	0	0	0	0	0	0	0	0	0	0	0	0	0	0	0	0	0	0
032519	11:43:07	11:49:20	372046	5.0.10.0	4_exp_AMP_EVA_AWA_CON	176	Rpleas_acq	Oppo	Rpleas	Amasked	CS_A	2pleas	distractor1	EVAbeforeCON	acq_new_pleas_masked	acq2_masked	2	20	480	1	300	300	0	0	478	50	0	1	0	0	0	1	blank2r.bmp	0	1	+	0	8	C4r.bmp	492	1	blank2r.bmp	786	3	B3r.bmp	786	1	blank2r.bmp	866	1	engagiert	866	1	!	1319	1	!	1372	0	0	0	0	0	0	0	0	0	0	0	0	0	0	0	0	0	0	0	0	0	0	0	0	0	0	0
032519	11:43:07	11:49:22	374312	5.0.10.0	4_exp_AMP_EVA_AWA_CON	176	Rpleas_acq	Oppo	Rpleas	Amasked	CS_A	2pleas	distractor1	EVAbeforeCON	acq_new_pleas_masked	acq2_masked	2	21	480	0	300	300	0	0	274	46	0	0	0	0	0	1	blank2r.bmp	0	1	+	0	4	B4r.bmp	492	1	blank2r.bmp	786	6	C2r.bmp	786	1	blank2r.bmp	866	4	kreativ	866	1	FEHLER	1479	1	!	-1	1	!	-1	0	0	0	0	0	0	0	0	0	0	0	0	0	0	0	0	0	0	0	0	0	0	0	0
032519	11:43:07	11:49:24	376258	5.0.10.0	4_exp_AMP_EVA_AWA_CON	176	Rpleas_acq	Oppo	Rpleas	Amasked	CS_A	2pleas	distractor1	EVAbeforeCON	acq_US_pleas_masked	acq2_masked	2	22	480	0	300	300	0	0	388	50	0	1	0	0	0	1	blank2r.bmp	0	1	+	0	2	B2r.bmp	492	1	blank2r.bmp	786	1	DHJF	786	1	blank2r.bmp	866	5	vertrauen	866	1	!	-1	1	!	-1	0	0	0	0	0	0	0	0	0	0	0	0	0	0	0	0	0	0	0	0	0	0	0	0	0	0	0
032519	11:43:07	11:49:26	378457	5.0.10.0	4_exp_AMP_EVA_AWA_CON	176	Rpleas_acq	Oppo	Rpleas	Amasked	CS_A	2pleas	distractor1	EVAbeforeCON	acq_new_unple_masked	acq2_masked	2	23	480	0	300	300	0	0	412	46	0	1	0	0	0	1	blank2r.bmp	0	1	+	0	7	C3r.bmp	492	1	blank2r.bmp	786	5	C1r.bmp	786	1	blank2r.bmp	866	3	gierig	866	1	!	-1	1	!	-1	0	0	0	0	0	0	0	0	0	0	0	0	0	0	0	0	0	0	0	0	0	0	0	0	0	0	0
032519	11:43:07	11:49:28	380816	5.0.10.0	4_exp_AMP_EVA_AWA_CON	176	Rpleas_acq	Oppo	Rpleas	Amasked	CS_A	2pleas	distractor1	EVAbeforeCON	acq_US_pleas_masked	acq2_masked	2	24	480	0	300	300	0	0	579	50	0	1	0	0	0	1	blank2r.bmp	0	1	+	0	3	B3r.bmp	492	1	blank2r.bmp	786	1	DHJF	786	1	blank2r.bmp	866	6	kuss	866	1	!	1319	1	!	-1	0	0	0	0	0	0	0	0	0	0	0	0	0	0	0	0	0	0	0	0	0	0	0	0	0	0	0
032519	11:43:07	11:49:30	382988	5.0.10.0	4_exp_AMP_EVA_AWA_CON	176	Rpleas_acq	Oppo	Rpleas	Amasked	CS_A	2pleas	distractor1	EVAbeforeCON	acq_new_unple_masked	acq2_masked	2	25	480	0	300	300	0	0	397	46	0	1	0	0	0	1	blank2r.bmp	0	1	+	0	8	C4r.bmp	492	1	blank2r.bmp	786	4	B4r.bmp	786	1	blank2r.bmp	866	1	engstirnig	866	1	!	-1	1	!	-1	0	0	0	0	0	0	0	0	0	0	0	0	0	0	0	0	0	0	0	0	0	0	0	0	0	0	0
032519	11:43:07	11:49:33	385347	5.0.10.0	4_exp_AMP_EVA_AWA_CON	176	Rpleas_acq	Oppo	Rpleas	Amasked	CS_A	2pleas	distractor1	EVAbeforeCON	acq_new_unple_masked	acq2_masked	2	26	480	0	300	300	0	0	346	50	0	0	0	0	0	1	blank2r.bmp	0	1	+	0	1	B1r.bmp	492	1	blank2r.bmp	786	2	B2r.bmp	786	1	blank2r.bmp	866	5	bange	866	1	FEHLER	1559	1	!	-1	1	!	-1	0	0	0	0	0	0	0	0	0	0	0	0	0	0	0	0	0	0	0	0	0	0	0	0
032519	11:43:07	11:49:35	387440	5.0.10.0	4_exp_AMP_EVA_AWA_CON	176	Rpleas_acq	Oppo	Rpleas	Amasked	CS_A	2pleas	distractor1	EVAbeforeCON	acq_US_pleas_masked	acq2_masked	2	27	480	1	300	300	0	0	511	50	0	1	0	0	0	1	blank2r.bmp	0	1	+	0	6	C2r.bmp	492	1	blank2r.bmp	786	1	DHJF	786	1	blank2r.bmp	866	1	träumen	866	1	!	1319	1	!	1412	0	0	0	0	0	0	0	0	0	0	0	0	0	0	0	0	0	0	0	0	0	0	0	0	0	0	0
032519	11:43:07	11:49:37	389945	5.0.10.0	4_exp_AMP_EVA_AWA_CON	176	Rpleas_acq	Oppo	Rpleas	Amasked	CS_A	2pleas	distractor1	EVAbeforeCON	acq_new_unple_masked	acq2_masked	2	28	480	1	300	300	0	0	494	50	0	0	0	0	0	1	blank2r.bmp	0	1	+	0	5	C1r.bmp	492	1	blank2r.bmp	786	4	B4r.bmp	786	1	blank2r.bmp	866	2	geizig	866	1	FEHLER	1719	1	!	1319	1	!	1399	0	0	0	0	0	0	0	0	0	0	0	0	0	0	0	0	0	0	0	0	0	0	0	0
032519	11:43:07	11:49:40	392264	5.0.10.0	4_exp_AMP_EVA_AWA_CON	176	Rpleas_acq	Oppo	Rpleas	Amasked	CS_A	2pleas	distractor1	EVAbeforeCON	acq_new_pleas_masked	acq2_masked	2	29	480	1	300	300	0	0	526	46	0	0	0	0	0	1	blank2r.bmp	0	1	+	0	7	C3r.bmp	492	1	blank2r.bmp	786	5	C1r.bmp	786	1	blank2r.bmp	866	2	gesittet	866	1	FEHLER	1745	1	!	1319	1	!	1426	0	0	0	0	0	0	0	0	0	0	0	0	0	0	0	0	0	0	0	0	0	0	0	0
032519	11:43:07	11:49:42	394330	5.0.10.0	4_exp_AMP_EVA_AWA_CON	176	Rpleas_acq	Oppo	Rpleas	Amasked	CS_A	2pleas	distractor1	EVAbeforeCON	acq_new_pleas_masked	acq2_masked	2	30	480	1	300	300	0	0	486	50	0	1	0	0	0	1	blank2r.bmp	0	1	+	0	6	C2r.bmp	492	1	blank2r.bmp	786	2	B2r.bmp	786	1	blank2r.bmp	866	3	gütig	866	1	!	1319	1	!	1386	0	0	0	0	0	0	0	0	0	0	0	0	0	0	0	0	0	0	0	0	0	0	0	0	0	0	0
032519	11:43:07	11:49:44	396609	5.0.10.0	4_exp_AMP_EVA_AWA_CON	176	Rpleas_acq	Oppo	Rpleas	Amasked	CS_A	2pleas	distractor1	EVAbeforeCON	acq_US_pleas_masked	acq2_masked	2	31	480	1	300	300	0	0	486	50	0	1	0	0	0	1	blank2r.bmp	0	1	+	0	8	C4r.bmp	492	1	blank2r.bmp	786	1	DHJF	786	1	blank2r.bmp	866	2	vergnügt	866	1	!	1319	1	!	1386	0	0	0	0	0	0	0	0	0	0	0	0	0	0	0	0	0	0	0	0	0	0	0	0	0	0	0
032519	11:43:07	11:49:47	399048	5.0.10.0	4_exp_AMP_EVA_AWA_CON	176	Rpleas_acq	Oppo	Rpleas	Amasked	CS_A	2pleas	distractor1	EVAbeforeCON	acq_US_pleas_masked	acq2_masked	2	32	480	1	300	300	0	0	426	46	0	0	0	0	0	1	blank2r.bmp	0	1	+	0	5	C1r.bmp	492	1	blank2r.bmp	786	1	DHJF	786	1	blank2r.bmp	866	3	anregung	866	1	FEHLER	1652	1	!	1319	1	!	1332	0	0	0	0	0	0	0	0	0	0	0	0	0	0	0	0	0	0	0	0	0	0	0	0
032519	11:43:07	11:49:49	401287	5.0.10.0	4_exp_AMP_EVA_AWA_CON	176	Rpleas_acq	Oppo	Rpleas	Amasked	CS_A	2pleas	distractor1	EVAbeforeCON	acq_US_unple_masked	acq2_masked	2	33	480	1	300	300	0	0	435	50	0	0	0	0	0	1	blank2r.bmp	0	1	+	0	3	B3r.bmp	492	1	blank2r.bmp	786	1	CPLW	786	1	blank2r.bmp	866	2	verbissen	866	1	FEHLER	1652	1	!	1319	1	!	1332	0	0	0	0	0	0	0	0	0	0	0	0	0	0	0	0	0	0	0	0	0	0	0	0
032519	11:43:07	11:49:51	403393	5.0.10.0	4_exp_AMP_EVA_AWA_CON	176	Rpleas_acq	Oppo	Rpleas	Amasked	CS_A	2pleas	distractor1	EVAbeforeCON	acq_US_unple_masked	acq2_masked	2	34	480	1	300	300	0	0	525	46	0	1	0	0	0	1	blank2r.bmp	0	1	+	0	1	B1r.bmp	492	1	blank2r.bmp	786	1	CPLW	786	1	blank2r.bmp	866	4	gemein	866	1	!	1319	1	!	1426	0	0	0	0	0	0	0	0	0	0	0	0	0	0	0	0	0	0	0	0	0	0	0	0	0	0	0
032519	11:43:07	11:49:53	405672	5.0.10.0	4_exp_AMP_EVA_AWA_CON	176	Rpleas_acq	Oppo	Rpleas	Amasked	CS_A	2pleas	distractor1	EVAbeforeCON	acq_new_pleas_masked	acq2_masked	2	35	480	1	300	300	0	0	482	50	0	1	0	0	0	1	blank2r.bmp	0	1	+	0	4	B4r.bmp	492	1	blank2r.bmp	786	6	C2r.bmp	786	1	blank2r.bmp	866	6	sonnig	866	1	!	1319	1	!	1386	0	0	0	0	0	0	0	0	0	0	0	0	0	0	0	0	0	0	0	0	0	0	0	0	0	0	0
032519	11:43:07	11:49:55	407805	5.0.10.0	4_exp_AMP_EVA_AWA_CON	176	Rpleas_acq	Oppo	Rpleas	Amasked	CS_A	2pleas	distractor1	EVAbeforeCON	acq_US_unple_masked	acq2_masked	2	36	480	0	300	300	0	0	358	46	0	1	0	0	0	1	blank2r.bmp	0	1	+	0	2	B2r.bmp	492	1	blank2r.bmp	786	1	CPLW	786	1	blank2r.bmp	866	1	töten	866	1	!	-1	1	!	-1	0	0	0	0	0	0	0	0	0	0	0	0	0	0	0	0	0	0	0	0	0	0	0	0	0	0	0
032519	11:43:07	11:50:17	429103	5.0.10.0	4_exp_AMP_EVA_AWA_CON	176	Rpleas_acq	Oppo	Rpleas	Amasked	CS_A	2pleas	distractor1	EVAbeforeCON	acq_US_unple_masked	acq3_masked	3	1	453	1	300	300	0	0	444	46	0	1	0	0	0	1	blank2r.bmp	0	1	+	0	6	C2r.bmp	492	1	blank2r.bmp	786	1	CPLW	786	1	blank2r.bmp	866	1	töten	866	1	!	1292	1	!	1346	0	0	0	0	0	0	0	0	0	0	0	0	0	0	0	0	0	0	0	0	0	0	0	0	0	0	0
032519	11:43:07	11:50:19	431155	5.0.10.0	4_exp_AMP_EVA_AWA_CON	176	Rpleas_acq	Oppo	Rpleas	Amasked	CS_A	2pleas	distractor1	EVAbeforeCON	acq_US_pleas_masked	acq3_masked	3	2	453	0	300	300	0	0	287	50	0	1	0	0	0	1	blank2r.bmp	0	1	+	0	1	B1r.bmp	492	1	blank2r.bmp	786	1	DHJF	786	1	blank2r.bmp	866	6	kuss	866	1	!	-1	1	!	-1	0	0	0	0	0	0	0	0	0	0	0	0	0	0	0	0	0	0	0	0	0	0	0	0	0	0	0
032519	11:43:07	11:50:21	433421	5.0.10.0	4_exp_AMP_EVA_AWA_CON	176	Rpleas_acq	Oppo	Rpleas	Amasked	CS_A	2pleas	distractor1	EVAbeforeCON	acq_US_unple_masked	acq3_masked	3	3	453	1	300	300	0	0	460	46	0	1	0	0	0	1	blank2r.bmp	0	1	+	0	7	C3r.bmp	492	1	blank2r.bmp	786	1	CPLW	786	1	blank2r.bmp	866	5	versagen	866	1	!	1292	1	!	1359	0	0	0	0	0	0	0	0	0	0	0	0	0	0	0	0	0	0	0	0	0	0	0	0	0	0	0
032519	11:43:07	11:50:23	435633	5.0.10.0	4_exp_AMP_EVA_AWA_CON	176	Rpleas_acq	Oppo	Rpleas	Amasked	CS_A	2pleas	distractor1	EVAbeforeCON	acq_US_pleas_masked	acq3_masked	3	4	453	1	300	300	0	0	417	50	0	1	0	0	0	1	blank2r.bmp	0	1	+	0	3	B3r.bmp	492	1	blank2r.bmp	786	1	DHJF	786	1	blank2r.bmp	866	5	vertrauen	866	1	!	1292	1	!	1319	0	0	0	0	0	0	0	0	0	0	0	0	0	0	0	0	0	0	0	0	0	0	0	0	0	0	0
032519	11:43:07	11:50:25	437872	5.0.10.0	4_exp_AMP_EVA_AWA_CON	176	Rpleas_acq	Oppo	Rpleas	Amasked	CS_A	2pleas	distractor1	EVAbeforeCON	acq_US_unple_masked	acq3_masked	3	5	453	1	300	300	0	0	430	46	0	1	0	0	0	1	blank2r.bmp	0	1	+	0	8	C4r.bmp	492	1	blank2r.bmp	786	1	CPLW	786	1	blank2r.bmp	866	3	ausrottung	866	1	!	1292	1	!	1332	0	0	0	0	0	0	0	0	0	0	0	0	0	0	0	0	0	0	0	0	0	0	0	0	0	0	0
032519	11:43:07	11:50:27	439991	5.0.10.0	4_exp_AMP_EVA_AWA_CON	176	Rpleas_acq	Oppo	Rpleas	Amasked	CS_A	2pleas	distractor1	EVAbeforeCON	acq_US_pleas_masked	acq3_masked	3	6	453	0	300	300	0	0	348	50	0	1	0	0	0	1	blank2r.bmp	0	1	+	0	4	B4r.bmp	492	1	blank2r.bmp	786	1	DHJF	786	1	blank2r.bmp	866	4	genießen	866	1	!	-1	1	!	-1	0	0	0	0	0	0	0	0	0	0	0	0	0	0	0	0	0	0	0	0	0	0	0	0	0	0	0
032519	11:43:07	11:50:30	442430	5.0.10.0	4_exp_AMP_EVA_AWA_CON	176	Rpleas_acq	Oppo	Rpleas	Amasked	CS_A	2pleas	distractor1	EVAbeforeCON	acq_US_pleas_masked	acq3_masked	3	7	453	1	300	300	0	0	416	46	0	0	0	0	0	1	blank2r.bmp	0	1	+	0	5	C1r.bmp	492	1	blank2r.bmp	786	1	DHJF	786	1	blank2r.bmp	866	2	vergnügt	866	1	FEHLER	1639	1	!	1292	1	!	1319	0	0	0	0	0	0	0	0	0	0	0	0	0	0	0	0	0	0	0	0	0	0	0	0
032519	11:43:07	11:50:32	444590	5.0.10.0	4_exp_AMP_EVA_AWA_CON	176	Rpleas_acq	Oppo	Rpleas	Amasked	CS_A	2pleas	distractor1	EVAbeforeCON	acq_US_pleas_masked	acq3_masked	3	8	453	0	300	300	0	0	358	46	0	0	0	0	0	1	blank2r.bmp	0	1	+	0	2	B2r.bmp	492	1	blank2r.bmp	786	1	DHJF	786	1	blank2r.bmp	866	3	anregung	866	1	FEHLER	1572	1	!	-1	1	!	-1	0	0	0	0	0	0	0	0	0	0	0	0	0	0	0	0	0	0	0	0	0	0	0	0
032519	11:43:07	11:50:34	446615	5.0.10.0	4_exp_AMP_EVA_AWA_CON	176	Rpleas_acq	Oppo	Rpleas	Amasked	CS_A	2pleas	distractor1	EVAbeforeCON	acq_US_unple_masked	acq3_masked	3	9	453	1	300	300	0	0	451	46	0	1	0	0	0	1	blank2r.bmp	0	1	+	0	2	B2r.bmp	492	1	blank2r.bmp	786	1	CPLW	786	1	blank2r.bmp	866	2	verbissen	866	1	!	1292	1	!	1346	0	0	0	0	0	0	0	0	0	0	0	0	0	0	0	0	0	0	0	0	0	0	0	0	0	0	0
032519	11:43:07	11:50:37	449041	5.0.10.0	4_exp_AMP_EVA_AWA_CON	176	Rpleas_acq	Oppo	Rpleas	Amasked	CS_A	2pleas	distractor1	EVAbeforeCON	acq_US_unple_masked	acq3_masked	3	10	453	1	300	300	0	0	409	50	0	0	0	0	0	1	blank2r.bmp	0	1	+	0	4	B4r.bmp	492	1	blank2r.bmp	786	1	CPLW	786	1	blank2r.bmp	866	6	krise	866	1	FEHLER	1625	1	!	1292	1	!	1306	0	0	0	0	0	0	0	0	0	0	0	0	0	0	0	0	0	0	0	0	0	0	0	0
032519	11:43:07	11:50:39	451254	5.0.10.0	4_exp_AMP_EVA_AWA_CON	176	Rpleas_acq	Oppo	Rpleas	Amasked	CS_A	2pleas	distractor1	EVAbeforeCON	acq_US_pleas_masked	acq3_masked	3	11	453	1	300	300	0	0	415	46	0	0	0	0	0	1	blank2r.bmp	0	1	+	0	1	B1r.bmp	492	1	blank2r.bmp	786	1	DHJF	786	1	blank2r.bmp	866	1	träumen	866	1	FEHLER	1639	1	!	1292	1	!	1319	0	0	0	0	0	0	0	0	0	0	0	0	0	0	0	0	0	0	0	0	0	0	0	0
032519	11:43:07	11:50:41	453279	5.0.10.0	4_exp_AMP_EVA_AWA_CON	176	Rpleas_acq	Oppo	Rpleas	Amasked	CS_A	2pleas	distractor1	EVAbeforeCON	acq_US_unple_masked	acq3_masked	3	12	453	1	300	300	0	0	440	46	0	1	0	0	0	1	blank2r.bmp	0	1	+	0	7	C3r.bmp	492	1	blank2r.bmp	786	1	CPLW	786	1	blank2r.bmp	866	4	gemein	866	1	!	1292	1	!	1346	0	0	0	0	0	0	0	0	0	0	0	0	0	0	0	0	0	0	0	0	0	0	0	0	0	0	0
032519	11:43:07	11:50:43	455585	5.0.10.0	4_exp_AMP_EVA_AWA_CON	176	Rpleas_acq	Oppo	Rpleas	Amasked	CS_A	2pleas	distractor1	EVAbeforeCON	acq_US_unple_masked	acq3_masked	3	13	453	0	300	300	0	0	314	50	0	0	0	0	0	1	blank2r.bmp	0	1	+	0	3	B3r.bmp	492	1	blank2r.bmp	786	1	CPLW	786	1	blank2r.bmp	866	1	töten	866	1	FEHLER	1519	1	!	-1	1	!	-1	0	0	0	0	0	0	0	0	0	0	0	0	0	0	0	0	0	0	0	0	0	0	0	0
032519	11:43:07	11:50:45	457678	5.0.10.0	4_exp_AMP_EVA_AWA_CON	176	Rpleas_acq	Oppo	Rpleas	Amasked	CS_A	2pleas	distractor1	EVAbeforeCON	acq_US_pleas_masked	acq3_masked	3	14	453	1	300	300	0	0	515	50	0	1	0	0	0	1	blank2r.bmp	0	1	+	0	5	C1r.bmp	492	1	blank2r.bmp	786	1	DHJF	786	1	blank2r.bmp	866	2	vergnügt	866	1	!	1292	1	!	1412	0	0	0	0	0	0	0	0	0	0	0	0	0	0	0	0	0	0	0	0	0	0	0	0	0	0	0
032519	11:43:07	11:50:47	459983	5.0.10.0	4_exp_AMP_EVA_AWA_CON	176	Rpleas_acq	Oppo	Rpleas	Amasked	CS_A	2pleas	distractor1	EVAbeforeCON	acq_US_pleas_masked	acq3_masked	3	15	453	1	300	300	0	0	497	50	0	1	0	0	0	1	blank2r.bmp	0	1	+	0	6	C2r.bmp	492	1	blank2r.bmp	786	1	DHJF	786	1	blank2r.bmp	866	3	anregung	866	1	!	1292	1	!	1399	0	0	0	0	0	0	0	0	0	0	0	0	0	0	0	0	0	0	0	0	0	0	0	0	0	0	0
032519	11:43:07	11:50:50	462062	5.0.10.0	4_exp_AMP_EVA_AWA_CON	176	Rpleas_acq	Oppo	Rpleas	Amasked	CS_A	2pleas	distractor1	EVAbeforeCON	acq_US_unple_masked	acq3_masked	3	16	453	0	300	300	0	0	311	46	0	1	0	0	0	1	blank2r.bmp	0	1	+	0	8	C4r.bmp	492	1	blank2r.bmp	786	1	CPLW	786	1	blank2r.bmp	866	5	versagen	866	1	!	-1	1	!	-1	0	0	0	0	0	0	0	0	0	0	0	0	0	0	0	0	0	0	0	0	0	0	0	0	0	0	0
032519	11:43:07	11:50:52	464421	5.0.10.0	4_exp_AMP_EVA_AWA_CON	176	Rpleas_acq	Oppo	Rpleas	Amasked	CS_A	2pleas	distractor1	EVAbeforeCON	acq_US_unple_masked	acq3_masked	3	17	453	0	300	300	0	0	335	50	0	0	0	0	0	1	blank2r.bmp	0	1	+	0	8	C4r.bmp	492	1	blank2r.bmp	786	1	CPLW	786	1	blank2r.bmp	866	2	verbissen	866	1	FEHLER	1546	1	!	-1	1	!	-1	0	0	0	0	0	0	0	0	0	0	0	0	0	0	0	0	0	0	0	0	0	0	0	0
032519	11:43:07	11:50:54	466407	5.0.10.0	4_exp_AMP_EVA_AWA_CON	176	Rpleas_acq	Oppo	Rpleas	Amasked	CS_A	2pleas	distractor1	EVAbeforeCON	acq_US_pleas_masked	acq3_masked	3	18	453	1	300	300	0	0	410	50	0	1	0	0	0	1	blank2r.bmp	0	1	+	0	4	B4r.bmp	492	1	blank2r.bmp	786	1	DHJF	786	1	blank2r.bmp	866	4	genießen	866	1	!	1292	1	!	1306	0	0	0	0	0	0	0	0	0	0	0	0	0	0	0	0	0	0	0	0	0	0	0	0	0	0	0
032519	11:43:07	11:50:56	468660	5.0.10.0	4_exp_AMP_EVA_AWA_CON	176	Rpleas_acq	Oppo	Rpleas	Amasked	CS_A	2pleas	distractor1	EVAbeforeCON	acq_US_unple_masked	acq3_masked	3	19	453	1	300	300	0	0	456	46	0	1	0	0	0	1	blank2r.bmp	0	1	+	0	7	C3r.bmp	492	1	blank2r.bmp	786	1	CPLW	786	1	blank2r.bmp	866	6	krise	866	1	!	1292	1	!	1359	0	0	0	0	0	0	0	0	0	0	0	0	0	0	0	0	0	0	0	0	0	0	0	0	0	0	0
032519	11:43:07	11:50:59	471085	5.0.10.0	4_exp_AMP_EVA_AWA_CON	176	Rpleas_acq	Oppo	Rpleas	Amasked	CS_A	2pleas	distractor1	EVAbeforeCON	acq_US_unple_masked	acq3_masked	3	20	453	1	300	300	0	0	399	50	0	0	0	0	0	1	blank2r.bmp	0	1	+	0	2	B2r.bmp	492	1	blank2r.bmp	786	1	CPLW	786	1	blank2r.bmp	866	4	gemein	866	1	FEHLER	1625	1	!	1292	1	!	1306	0	0	0	0	0	0	0	0	0	0	0	0	0	0	0	0	0	0	0	0	0	0	0	0
032519	11:43:07	11:51:01	473018	5.0.10.0	4_exp_AMP_EVA_AWA_CON	176	Rpleas_acq	Oppo	Rpleas	Amasked	CS_A	2pleas	distractor1	EVAbeforeCON	acq_US_pleas_masked	acq3_masked	3	21	453	0	300	300	0	0	384	50	0	1	0	0	0	1	blank2r.bmp	0	1	+	0	5	C1r.bmp	492	1	blank2r.bmp	786	1	DHJF	786	1	blank2r.bmp	866	1	träumen	866	1	!	-1	1	!	-1	0	0	0	0	0	0	0	0	0	0	0	0	0	0	0	0	0	0	0	0	0	0	0	0	0	0	0
032519	11:43:07	11:51:03	475310	5.0.10.0	4_exp_AMP_EVA_AWA_CON	176	Rpleas_acq	Oppo	Rpleas	Amasked	CS_A	2pleas	distractor1	EVAbeforeCON	acq_US_pleas_masked	acq3_masked	3	22	453	1	300	300	0	0	485	50	0	1	0	0	0	1	blank2r.bmp	0	1	+	0	6	C2r.bmp	492	1	blank2r.bmp	786	1	DHJF	786	1	blank2r.bmp	866	6	kuss	866	1	!	1292	1	!	1386	0	0	0	0	0	0	0	0	0	0	0	0	0	0	0	0	0	0	0	0	0	0	0	0	0	0	0
032519	11:43:07	11:51:05	477563	5.0.10.0	4_exp_AMP_EVA_AWA_CON	176	Rpleas_acq	Oppo	Rpleas	Amasked	CS_A	2pleas	distractor1	EVAbeforeCON	acq_US_unple_masked	acq3_masked	3	23	453	1	300	300	0	0	456	46	0	1	0	0	0	1	blank2r.bmp	0	1	+	0	3	B3r.bmp	492	1	blank2r.bmp	786	1	CPLW	786	1	blank2r.bmp	866	3	ausrottung	866	1	!	1292	1	!	1359	0	0	0	0	0	0	0	0	0	0	0	0	0	0	0	0	0	0	0	0	0	0	0	0	0	0	0
032519	11:43:07	11:51:07	480002	5.0.10.0	4_exp_AMP_EVA_AWA_CON	176	Rpleas_acq	Oppo	Rpleas	Amasked	CS_A	2pleas	distractor1	EVAbeforeCON	acq_US_pleas_masked	acq3_masked	3	24	453	1	300	300	0	0	429	46	0	0	0	0	0	1	blank2r.bmp	0	1	+	0	1	B1r.bmp	492	1	blank2r.bmp	786	1	DHJF	786	1	blank2r.bmp	866	5	vertrauen	866	1	FEHLER	1652	1	!	1292	1	!	1332	0	0	0	0	0	0	0	0	0	0	0	0	0	0	0	0	0	0	0	0	0	0	0	0
032519	11:43:07	11:51:10	482067	5.0.10.0	4_exp_AMP_EVA_AWA_CON	176	Rpleas_acq	Oppo	Rpleas	Amasked	CS_A	2pleas	distractor1	EVAbeforeCON	acq_US_unple_masked	acq3_masked	3	25	453	1	300	300	0	0	482	46	0	1	0	0	0	1	blank2r.bmp	0	1	+	0	4	B4r.bmp	492	1	blank2r.bmp	786	1	CPLW	786	1	blank2r.bmp	866	3	ausrottung	866	1	!	1292	1	!	1386	0	0	0	0	0	0	0	0	0	0	0	0	0	0	0	0	0	0	0	0	0	0	0	0	0	0	0
032519	11:43:07	11:51:12	484333	5.0.10.0	4_exp_AMP_EVA_AWA_CON	176	Rpleas_acq	Oppo	Rpleas	Amasked	CS_A	2pleas	distractor1	EVAbeforeCON	acq_US_pleas_masked	acq3_masked	3	26	453	1	300	300	0	0	472	50	0	1	0	0	0	1	blank2r.bmp	0	1	+	0	3	B3r.bmp	492	1	blank2r.bmp	786	1	DHJF	786	1	blank2r.bmp	866	6	kuss	866	1	!	1292	1	!	1372	0	0	0	0	0	0	0	0	0	0	0	0	0	0	0	0	0	0	0	0	0	0	0	0	0	0	0
032519	11:43:07	11:51:14	486546	5.0.10.0	4_exp_AMP_EVA_AWA_CON	176	Rpleas_acq	Oppo	Rpleas	Amasked	CS_A	2pleas	distractor1	EVAbeforeCON	acq_US_unple_masked	acq3_masked	3	27	453	1	300	300	0	0	420	46	0	1	0	0	0	1	blank2r.bmp	0	1	+	0	1	B1r.bmp	492	1	blank2r.bmp	786	1	CPLW	786	1	blank2r.bmp	866	6	krise	866	1	!	1292	1	!	1319	0	0	0	0	0	0	0	0	0	0	0	0	0	0	0	0	0	0	0	0	0	0	0	0	0	0	0
032519	11:43:07	11:51:16	488998	5.0.10.0	4_exp_AMP_EVA_AWA_CON	176	Rpleas_acq	Oppo	Rpleas	Amasked	CS_A	2pleas	distractor1	EVAbeforeCON	acq_US_unple_masked	acq3_masked	3	28	453	1	300	300	0	0	444	50	0	0	0	0	0	1	blank2r.bmp	0	1	+	0	2	B2r.bmp	492	1	blank2r.bmp	786	1	CPLW	786	1	blank2r.bmp	866	2	verbissen	866	1	FEHLER	1665	1	!	1292	1	!	1346	0	0	0	0	0	0	0	0	0	0	0	0	0	0	0	0	0	0	0	0	0	0	0	0
032519	11:43:07	11:51:19	491037	5.0.10.0	4_exp_AMP_EVA_AWA_CON	176	Rpleas_acq	Oppo	Rpleas	Amasked	CS_A	2pleas	distractor1	EVAbeforeCON	acq_US_pleas_masked	acq3_masked	3	29	453	1	300	300	0	0	452	50	0	1	0	0	0	1	blank2r.bmp	0	1	+	0	8	C4r.bmp	492	1	blank2r.bmp	786	1	DHJF	786	1	blank2r.bmp	866	1	träumen	866	1	!	1292	1	!	1359	0	0	0	0	0	0	0	0	0	0	0	0	0	0	0	0	0	0	0	0	0	0	0	0	0	0	0
032519	11:43:07	11:51:21	493343	5.0.10.0	4_exp_AMP_EVA_AWA_CON	176	Rpleas_acq	Oppo	Rpleas	Amasked	CS_A	2pleas	distractor1	EVAbeforeCON	acq_US_pleas_masked	acq3_masked	3	30	453	0	300	300	0	0	545	50	0	1	0	0	0	1	blank2r.bmp	0	1	+	0	5	C1r.bmp	492	1	blank2r.bmp	786	1	DHJF	786	1	blank2r.bmp	866	5	vertrauen	866	1	!	1292	1	!	-1	0	0	0	0	0	0	0	0	0	0	0	0	0	0	0	0	0	0	0	0	0	0	0	0	0	0	0
032519	11:43:07	11:51:23	495595	5.0.10.0	4_exp_AMP_EVA_AWA_CON	176	Rpleas_acq	Oppo	Rpleas	Amasked	CS_A	2pleas	distractor1	EVAbeforeCON	acq_US_unple_masked	acq3_masked	3	31	453	1	300	300	0	0	442	46	0	1	0	0	0	1	blank2r.bmp	0	1	+	0	7	C3r.bmp	492	1	blank2r.bmp	786	1	CPLW	786	1	blank2r.bmp	866	5	versagen	866	1	!	1292	1	!	1346	0	0	0	0	0	0	0	0	0	0	0	0	0	0	0	0	0	0	0	0	0	0	0	0	0	0	0
032519	11:43:07	11:51:25	497741	5.0.10.0	4_exp_AMP_EVA_AWA_CON	176	Rpleas_acq	Oppo	Rpleas	Amasked	CS_A	2pleas	distractor1	EVAbeforeCON	acq_US_pleas_masked	acq3_masked	3	32	453	0	300	300	0	0	372	50	0	1	0	0	0	1	blank2r.bmp	0	1	+	0	6	C2r.bmp	492	1	blank2r.bmp	786	1	DHJF	786	1	blank2r.bmp	866	3	anregung	866	1	!	-1	1	!	-1	0	0	0	0	0	0	0	0	0	0	0	0	0	0	0	0	0	0	0	0	0	0	0	0	0	0	0
032519	11:43:07	11:51:27	499980	5.0.10.0	4_exp_AMP_EVA_AWA_CON	176	Rpleas_acq	Oppo	Rpleas	Amasked	CS_A	2pleas	distractor1	EVAbeforeCON	acq_US_unple_masked	acq3_masked	3	33	453	1	300	300	0	0	437	46	0	1	0	0	0	1	blank2r.bmp	0	1	+	0	3	B3r.bmp	492	1	blank2r.bmp	786	1	CPLW	786	1	blank2r.bmp	866	1	töten	866	1	!	1292	1	!	1332	0	0	0	0	0	0	0	0	0	0	0	0	0	0	0	0	0	0	0	0	0	0	0	0	0	0	0
032519	11:43:07	11:51:30	502193	5.0.10.0	4_exp_AMP_EVA_AWA_CON	176	Rpleas_acq	Oppo	Rpleas	Amasked	CS_A	2pleas	distractor1	EVAbeforeCON	acq_US_unple_masked	acq3_masked	3	34	453	1	300	300	0	0	420	46	0	1	0	0	0	1	blank2r.bmp	0	1	+	0	6	C2r.bmp	492	1	blank2r.bmp	786	1	CPLW	786	1	blank2r.bmp	866	4	gemein	866	1	!	1292	1	!	1319	0	0	0	0	0	0	0	0	0	0	0	0	0	0	0	0	0	0	0	0	0	0	0	0	0	0	0
032519	11:43:07	11:51:32	504392	5.0.10.0	4_exp_AMP_EVA_AWA_CON	176	Rpleas_acq	Oppo	Rpleas	Amasked	CS_A	2pleas	distractor1	EVAbeforeCON	acq_US_pleas_masked	acq3_masked	3	35	453	1	300	300	0	0	399	50	0	1	0	0	0	1	blank2r.bmp	0	1	+	0	5	C1r.bmp	492	1	blank2r.bmp	786	1	DHJF	786	1	blank2r.bmp	866	2	vergnügt	866	1	!	1292	1	!	1306	0	0	0	0	0	0	0	0	0	0	0	0	0	0	0	0	0	0	0	0	0	0	0	0	0	0	0
032519	11:43:07	11:51:34	506591	5.0.10.0	4_exp_AMP_EVA_AWA_CON	176	Rpleas_acq	Oppo	Rpleas	Amasked	CS_A	2pleas	distractor1	EVAbeforeCON	acq_US_pleas_masked	acq3_masked	3	36	453	1	300	300	0	0	399	50	0	1	0	0	0	1	blank2r.bmp	0	1	+	0	4	B4r.bmp	492	1	blank2r.bmp	786	1	DHJF	786	1	blank2r.bmp	866	4	genießen	866	1	!	1292	1	!	1306	0	0	0	0	0	0	0	0	0	0	0	0	0	0	0	0	0	0	0	0	0	0	0	0	0	0	0
032519	11:43:07	11:51:51	523770	5.0.10.0	4_exp_AMP_EVA_AWA_CON	176	Rpleas_acq	Oppo	Rpleas	Amasked	CS_A	2pleas	distractor1	EVAbeforeCON	acq_US_pleas_masked	acq45_masked	4	1	400	1	300	300	0	0	435	50	0	1	0	0	0	1	blank2r.bmp	0	1	+	0	7	C3r.bmp	492	1	blank2r.bmp	786	1	DHJF	786	1	blank2r.bmp	866	3	anregung	866	1	!	1239	1	!	1332	0	0	0	0	0	0	0	0	0	0	0	0	0	0	0	0	0	0	0	0	0	0	0	0	0	0	0
032519	11:43:07	11:51:53	525849	5.0.10.0	4_exp_AMP_EVA_AWA_CON	176	Rpleas_acq	Oppo	Rpleas	Amasked	CS_A	2pleas	distractor1	EVAbeforeCON	acq_US_pleas_masked	acq45_masked	4	2	400	0	300	300	0	0	318	46	0	0	0	0	0	1	blank2r.bmp	0	1	+	0	8	C4r.bmp	492	1	blank2r.bmp	786	1	DHJF	786	1	blank2r.bmp	866	2	vergnügt	866	1	!	-1	1	!	-1	0	0	0	0	0	0	0	0	0	0	0	0	0	0	0	0	0	0	0	0	0	0	0	0	0	0	0
032519	11:43:07	11:51:56	528062	5.0.10.0	4_exp_AMP_EVA_AWA_CON	176	Rpleas_acq	Oppo	Rpleas	Amasked	CS_A	2pleas	distractor1	EVAbeforeCON	acq_US_pleas_masked	acq45_masked	4	3	400	1	300	300	0	0	392	50	0	1	0	0	0	1	blank2r.bmp	0	1	+	0	2	B2r.bmp	492	1	blank2r.bmp	786	1	DHJF	786	1	blank2r.bmp	866	1	träumen	866	1	!	1239	1	!	1292	0	0	0	0	0	0	0	0	0	0	0	0	0	0	0	0	0	0	0	0	0	0	0	0	0	0	0
032519	11:43:07	11:51:58	530314	5.0.10.0	4_exp_AMP_EVA_AWA_CON	176	Rpleas_acq	Oppo	Rpleas	Amasked	CS_A	2pleas	distractor1	EVAbeforeCON	acq_US_pleas_masked	acq45_masked	4	4	400	1	300	300	0	0	456	50	0	1	0	0	0	1	blank2r.bmp	0	1	+	0	1	B1r.bmp	492	1	blank2r.bmp	786	1	DHJF	786	1	blank2r.bmp	866	4	genießen	866	1	!	1239	1	!	1359	0	0	0	0	0	0	0	0	0	0	0	0	0	0	0	0	0	0	0	0	0	0	0	0	0	0	0
032519	11:43:07	11:52:00	532567	5.0.10.0	4_exp_AMP_EVA_AWA_CON	176	Rpleas_acq	Oppo	Rpleas	Amasked	CS_A	2pleas	distractor1	EVAbeforeCON	acq_US_unple_masked	acq45_masked	4	5	400	0	300	300	0	0	479	46	0	1	0	0	0	1	blank2r.bmp	0	1	+	0	3	B3r.bmp	492	1	blank2r.bmp	786	1	CPLW	786	1	blank2r.bmp	866	4	gemein	866	1	!	1239	1	!	-1	0	0	0	0	0	0	0	0	0	0	0	0	0	0	0	0	0	0	0	0	0	0	0	0	0	0	0
032519	11:43:07	11:52:02	534792	5.0.10.0	4_exp_AMP_EVA_AWA_CON	176	Rpleas_acq	Oppo	Rpleas	Amasked	CS_A	2pleas	distractor1	EVAbeforeCON	acq_US_unple_masked	acq45_masked	4	6	400	1	300	300	0	0	413	50	0	0	0	0	0	1	blank2r.bmp	0	1	+	0	2	B2r.bmp	492	1	blank2r.bmp	786	1	CPLW	786	1	blank2r.bmp	866	2	verbissen	866	1	!	1239	1	!	1319	0	0	0	0	0	0	0	0	0	0	0	0	0	0	0	0	0	0	0	0	0	0	0	0	0	0	0
032519	11:43:07	11:52:05	537045	5.0.10.0	4_exp_AMP_EVA_AWA_CON	176	Rpleas_acq	Oppo	Rpleas	Amasked	CS_A	2pleas	distractor1	EVAbeforeCON	acq_US_unple_masked	acq45_masked	4	7	400	0	300	300	0	0	479	50	0	0	0	0	0	1	blank2r.bmp	0	1	+	0	5	C1r.bmp	492	1	blank2r.bmp	786	1	CPLW	786	1	blank2r.bmp	866	6	krise	866	1	!	1239	1	!	-1	0	0	0	0	0	0	0	0	0	0	0	0	0	0	0	0	0	0	0	0	0	0	0	0	0	0	0
032519	11:43:07	11:52:07	539244	5.0.10.0	4_exp_AMP_EVA_AWA_CON	176	Rpleas_acq	Oppo	Rpleas	Amasked	CS_A	2pleas	distractor1	EVAbeforeCON	acq_US_unple_masked	acq45_masked	4	8	400	1	300	300	0	0	392	46	0	1	0	0	0	1	blank2r.bmp	0	1	+	0	4	B4r.bmp	492	1	blank2r.bmp	786	1	CPLW	786	1	blank2r.bmp	866	1	töten	866	1	!	1239	1	!	1292	0	0	0	0	0	0	0	0	0	0	0	0	0	0	0	0	0	0	0	0	0	0	0	0	0	0	0
032519	11:43:07	11:52:09	541336	5.0.10.0	4_exp_AMP_EVA_AWA_CON	176	Rpleas_acq	Oppo	Rpleas	Amasked	CS_A	2pleas	distractor1	EVAbeforeCON	acq_US_pleas_masked	acq45_masked	4	9	400	0	300	300	0	0	330	50	0	1	0	0	0	1	blank2r.bmp	0	1	+	0	7	C3r.bmp	492	1	blank2r.bmp	786	1	DHJF	786	1	blank2r.bmp	866	6	kuss	866	1	!	-1	1	!	-1	0	0	0	0	0	0	0	0	0	0	0	0	0	0	0	0	0	0	0	0	0	0	0	0	0	0	0
032519	11:43:07	11:52:11	543602	5.0.10.0	4_exp_AMP_EVA_AWA_CON	176	Rpleas_acq	Oppo	Rpleas	Amasked	CS_A	2pleas	distractor1	EVAbeforeCON	acq_US_pleas_masked	acq45_masked	4	10	400	0	300	300	0	0	479	50	0	1	0	0	0	1	blank2r.bmp	0	1	+	0	1	B1r.bmp	492	1	blank2r.bmp	786	1	DHJF	786	1	blank2r.bmp	866	5	vertrauen	866	1	!	1239	1	!	-1	0	0	0	0	0	0	0	0	0	0	0	0	0	0	0	0	0	0	0	0	0	0	0	0	0	0	0
032519	11:43:07	11:52:13	545841	5.0.10.0	4_exp_AMP_EVA_AWA_CON	176	Rpleas_acq	Oppo	Rpleas	Amasked	CS_A	2pleas	distractor1	EVAbeforeCON	acq_US_unple_masked	acq45_masked	4	11	400	1	300	300	0	0	416	46	0	1	0	0	0	1	blank2r.bmp	0	1	+	0	6	C2r.bmp	492	1	blank2r.bmp	786	1	CPLW	786	1	blank2r.bmp	866	3	ausrottung	866	1	!	1239	1	!	1319	0	0	0	0	0	0	0	0	0	0	0	0	0	0	0	0	0	0	0	0	0	0	0	0	0	0	0
032519	11:43:07	11:52:16	548040	5.0.10.0	4_exp_AMP_EVA_AWA_CON	176	Rpleas_acq	Oppo	Rpleas	Amasked	CS_A	2pleas	distractor1	EVAbeforeCON	acq_US_unple_masked	acq45_masked	4	12	400	1	300	300	0	0	410	46	0	1	0	0	0	1	blank2r.bmp	0	1	+	0	8	C4r.bmp	492	1	blank2r.bmp	786	1	CPLW	786	1	blank2r.bmp	866	5	versagen	866	1	!	1239	1	!	1306	0	0	0	0	0	0	0	0	0	0	0	0	0	0	0	0	0	0	0	0	0	0	0	0	0	0	0
032519	11:43:07	11:52:18	550253	5.0.10.0	4_exp_AMP_EVA_AWA_CON	176	Rpleas_acq	Oppo	Rpleas	Amasked	CS_A	2pleas	distractor1	EVAbeforeCON	acq_US_pleas_masked	acq45_masked	4	13	400	1	300	300	0	0	416	50	0	1	0	0	0	1	blank2r.bmp	0	1	+	0	5	C1r.bmp	492	1	blank2r.bmp	786	1	DHJF	786	1	blank2r.bmp	866	1	träumen	866	1	!	1239	1	!	1319	0	0	0	0	0	0	0	0	0	0	0	0	0	0	0	0	0	0	0	0	0	0	0	0	0	0	0
032519	11:43:07	11:52:20	552399	5.0.10.0	4_exp_AMP_EVA_AWA_CON	176	Rpleas_acq	Oppo	Rpleas	Amasked	CS_A	2pleas	distractor1	EVAbeforeCON	acq_US_unple_masked	acq45_masked	4	14	400	1	300	300	0	0	346	46	0	1	0	0	0	1	blank2r.bmp	0	1	+	0	2	B2r.bmp	492	1	blank2r.bmp	786	1	CPLW	786	1	blank2r.bmp	866	5	versagen	866	1	!	1239	1	!	1252	0	0	0	0	0	0	0	0	0	0	0	0	0	0	0	0	0	0	0	0	0	0	0	0	0	0	0
032519	11:43:07	11:52:22	554584	5.0.10.0	4_exp_AMP_EVA_AWA_CON	176	Rpleas_acq	Oppo	Rpleas	Amasked	CS_A	2pleas	distractor1	EVAbeforeCON	acq_US_pleas_masked	acq45_masked	4	15	400	1	300	300	0	0	382	50	0	1	0	0	0	1	blank2r.bmp	0	1	+	0	7	C3r.bmp	492	1	blank2r.bmp	786	1	DHJF	786	1	blank2r.bmp	866	3	anregung	866	1	!	1239	1	!	1279	0	0	0	0	0	0	0	0	0	0	0	0	0	0	0	0	0	0	0	0	0	0	0	0	0	0	0
032519	11:43:07	11:52:24	556810	5.0.10.0	4_exp_AMP_EVA_AWA_CON	176	Rpleas_acq	Oppo	Rpleas	Amasked	CS_A	2pleas	distractor1	EVAbeforeCON	acq_US_pleas_masked	acq45_masked	4	16	400	1	300	300	0	0	420	50	0	1	0	0	0	1	blank2r.bmp	0	1	+	0	1	B1r.bmp	492	1	blank2r.bmp	786	1	DHJF	786	1	blank2r.bmp	866	6	kuss	866	1	!	1239	1	!	1319	0	0	0	0	0	0	0	0	0	0	0	0	0	0	0	0	0	0	0	0	0	0	0	0	0	0	0
032519	11:43:07	11:52:26	559009	5.0.10.0	4_exp_AMP_EVA_AWA_CON	176	Rpleas_acq	Oppo	Rpleas	Amasked	CS_A	2pleas	distractor1	EVAbeforeCON	acq_US_unple_masked	acq45_masked	4	17	400	1	300	300	0	0	402	46	0	1	0	0	0	1	blank2r.bmp	0	1	+	0	4	B4r.bmp	492	1	blank2r.bmp	786	1	CPLW	786	1	blank2r.bmp	866	1	töten	866	1	!	1239	1	!	1306	0	0	0	0	0	0	0	0	0	0	0	0	0	0	0	0	0	0	0	0	0	0	0	0	0	0	0
032519	11:43:07	11:52:29	561248	5.0.10.0	4_exp_AMP_EVA_AWA_CON	176	Rpleas_acq	Oppo	Rpleas	Amasked	CS_A	2pleas	distractor1	EVAbeforeCON	acq_US_unple_masked	acq45_masked	4	18	400	1	300	300	0	0	450	46	0	1	0	0	0	1	blank2r.bmp	0	1	+	0	3	B3r.bmp	492	1	blank2r.bmp	786	1	CPLW	786	1	blank2r.bmp	866	2	verbissen	866	1	!	1239	1	!	1346	0	0	0	0	0	0	0	0	0	0	0	0	0	0	0	0	0	0	0	0	0	0	0	0	0	0	0
032519	11:43:07	11:52:31	563447	5.0.10.0	4_exp_AMP_EVA_AWA_CON	176	Rpleas_acq	Oppo	Rpleas	Amasked	CS_A	2pleas	distractor1	EVAbeforeCON	acq_US_unple_masked	acq45_masked	4	19	400	1	300	300	0	0	411	50	0	0	0	0	0	1	blank2r.bmp	0	1	+	0	8	C4r.bmp	492	1	blank2r.bmp	786	1	CPLW	786	1	blank2r.bmp	866	6	krise	866	1	!	1239	1	!	1306	0	0	0	0	0	0	0	0	0	0	0	0	0	0	0	0	0	0	0	0	0	0	0	0	0	0	0
032519	11:43:07	11:52:33	565700	5.0.10.0	4_exp_AMP_EVA_AWA_CON	176	Rpleas_acq	Oppo	Rpleas	Amasked	CS_A	2pleas	distractor1	EVAbeforeCON	acq_US_unple_masked	acq45_masked	4	20	400	0	300	300	0	0	479	46	0	1	0	0	0	1	blank2r.bmp	0	1	+	0	6	C2r.bmp	492	1	blank2r.bmp	786	1	CPLW	786	1	blank2r.bmp	866	3	ausrottung	866	1	!	1239	1	!	-1	0	0	0	0	0	0	0	0	0	0	0	0	0	0	0	0	0	0	0	0	0	0	0	0	0	0	0
032519	11:43:07	11:52:35	567792	5.0.10.0	4_exp_AMP_EVA_AWA_CON	176	Rpleas_acq	Oppo	Rpleas	Amasked	CS_A	2pleas	distractor1	EVAbeforeCON	acq_US_pleas_masked	acq45_masked	4	21	400	0	300	300	0	0	310	50	0	1	0	0	0	1	blank2r.bmp	0	1	+	0	6	C2r.bmp	492	1	blank2r.bmp	786	1	DHJF	786	1	blank2r.bmp	866	4	genießen	866	1	!	-1	1	!	-1	0	0	0	0	0	0	0	0	0	0	0	0	0	0	0	0	0	0	0	0	0	0	0	0	0	0	0
032519	11:43:07	11:52:37	569871	5.0.10.0	4_exp_AMP_EVA_AWA_CON	176	Rpleas_acq	Oppo	Rpleas	Amasked	CS_A	2pleas	distractor1	EVAbeforeCON	acq_US_pleas_masked	acq45_masked	4	22	400	0	300	300	0	0	293	46	0	0	0	0	0	1	blank2r.bmp	0	1	+	0	8	C4r.bmp	492	1	blank2r.bmp	786	1	DHJF	786	1	blank2r.bmp	866	2	vergnügt	866	1	!	-1	1	!	-1	0	0	0	0	0	0	0	0	0	0	0	0	0	0	0	0	0	0	0	0	0	0	0	0	0	0	0
032519	11:43:07	11:52:40	572057	5.0.10.0	4_exp_AMP_EVA_AWA_CON	176	Rpleas_acq	Oppo	Rpleas	Amasked	CS_A	2pleas	distractor1	EVAbeforeCON	acq_US_unple_masked	acq45_masked	4	23	400	1	300	300	0	0	381	46	0	1	0	0	0	1	blank2r.bmp	0	1	+	0	4	B4r.bmp	492	1	blank2r.bmp	786	1	CPLW	786	1	blank2r.bmp	866	4	gemein	866	1	!	1239	1	!	1279	0	0	0	0	0	0	0	0	0	0	0	0	0	0	0	0	0	0	0	0	0	0	0	0	0	0	0
032519	11:43:07	11:52:42	574216	5.0.10.0	4_exp_AMP_EVA_AWA_CON	176	Rpleas_acq	Oppo	Rpleas	Amasked	CS_A	2pleas	distractor1	EVAbeforeCON	acq_US_pleas_masked	acq45_masked	4	24	400	1	300	300	0	0	361	50	0	1	0	0	0	1	blank2r.bmp	0	1	+	0	2	B2r.bmp	492	1	blank2r.bmp	786	1	DHJF	786	1	blank2r.bmp	866	5	vertrauen	866	1	!	1239	1	!	1266	0	0	0	0	0	0	0	0	0	0	0	0	0	0	0	0	0	0	0	0	0	0	0	0	0	0	0
032519	11:43:07	11:52:44	576469	5.0.10.0	4_exp_AMP_EVA_AWA_CON	176	Rpleas_acq	Oppo	Rpleas	Amasked	CS_A	2pleas	distractor1	EVAbeforeCON	acq_US_pleas_masked	acq45_masked	4	25	400	0	300	300	0	0	488	50	0	1	0	0	0	1	blank2r.bmp	0	1	+	0	7	C3r.bmp	492	1	blank2r.bmp	786	1	DHJF	786	1	blank2r.bmp	866	5	vertrauen	866	1	!	1239	1	!	-1	0	0	0	0	0	0	0	0	0	0	0	0	0	0	0	0	0	0	0	0	0	0	0	0	0	0	0
032519	11:43:07	11:52:46	578494	5.0.10.0	4_exp_AMP_EVA_AWA_CON	176	Rpleas_acq	Oppo	Rpleas	Amasked	CS_A	2pleas	distractor1	EVAbeforeCON	acq_US_unple_masked	acq45_masked	4	26	400	0	300	300	0	0	241	50	0	0	0	0	0	1	blank2r.bmp	0	1	+	0	1	B1r.bmp	492	1	blank2r.bmp	786	1	CPLW	786	1	blank2r.bmp	866	4	gemein	866	1	!	-1	1	!	-1	0	0	0	0	0	0	0	0	0	0	0	0	0	0	0	0	0	0	0	0	0	0	0	0	0	0	0
032519	11:43:07	11:52:48	580600	5.0.10.0	4_exp_AMP_EVA_AWA_CON	176	Rpleas_acq	Oppo	Rpleas	Amasked	CS_A	2pleas	distractor1	EVAbeforeCON	acq_US_pleas_masked	acq45_masked	4	27	400	0	300	300	0	0	322	46	0	0	0	0	0	1	blank2r.bmp	0	1	+	0	5	C1r.bmp	492	1	blank2r.bmp	786	1	DHJF	786	1	blank2r.bmp	866	1	träumen	866	1	!	-1	1	!	-1	0	0	0	0	0	0	0	0	0	0	0	0	0	0	0	0	0	0	0	0	0	0	0	0	0	0	0
032519	11:43:07	11:52:50	582813	5.0.10.0	4_exp_AMP_EVA_AWA_CON	176	Rpleas_acq	Oppo	Rpleas	Amasked	CS_A	2pleas	distractor1	EVAbeforeCON	acq_US_unple_masked	acq45_masked	4	28	400	1	300	300	0	0	406	46	0	1	0	0	0	1	blank2r.bmp	0	1	+	0	3	B3r.bmp	492	1	blank2r.bmp	786	1	CPLW	786	1	blank2r.bmp	866	1	töten	866	1	!	1239	1	!	1306	0	0	0	0	0	0	0	0	0	0	0	0	0	0	0	0	0	0	0	0	0	0	0	0	0	0	0
032519	11:43:07	11:52:53	585158	5.0.10.0	4_exp_AMP_EVA_AWA_CON	176	Rpleas_acq	Oppo	Rpleas	Amasked	CS_A	2pleas	distractor1	EVAbeforeCON	acq_US_pleas_masked	acq45_masked	4	29	400	0	300	300	0	0	583	50	0	1	0	0	0	1	blank2r.bmp	0	1	+	0	3	B3r.bmp	492	1	blank2r.bmp	786	1	DHJF	786	1	blank2r.bmp	866	3	anregung	866	1	!	1239	1	!	-1	0	0	0	0	0	0	0	0	0	0	0	0	0	0	0	0	0	0	0	0	0	0	0	0	0	0	0
032519	11:43:07	11:52:55	587318	5.0.10.0	4_exp_AMP_EVA_AWA_CON	176	Rpleas_acq	Oppo	Rpleas	Amasked	CS_A	2pleas	distractor1	EVAbeforeCON	acq_US_pleas_masked	acq45_masked	4	30	400	1	300	300	0	0	349	50	0	1	0	0	0	1	blank2r.bmp	0	1	+	0	6	C2r.bmp	492	1	blank2r.bmp	786	1	DHJF	786	1	blank2r.bmp	866	6	kuss	866	1	!	1239	1	!	1252	0	0	0	0	0	0	0	0	0	0	0	0	0	0	0	0	0	0	0	0	0	0	0	0	0	0	0
032519	11:43:07	11:52:57	589463	5.0.10.0	4_exp_AMP_EVA_AWA_CON	176	Rpleas_acq	Oppo	Rpleas	Amasked	CS_A	2pleas	distractor1	EVAbeforeCON	acq_US_unple_masked	acq45_masked	4	31	400	1	300	300	0	0	348	46	0	1	0	0	0	1	blank2r.bmp	0	1	+	0	2	B2r.bmp	492	1	blank2r.bmp	786	1	CPLW	786	1	blank2r.bmp	866	6	krise	866	1	!	1239	1	!	1252	0	0	0	0	0	0	0	0	0	0	0	0	0	0	0	0	0	0	0	0	0	0	0	0	0	0	0
032519	11:43:07	11:52:59	591636	5.0.10.0	4_exp_AMP_EVA_AWA_CON	176	Rpleas_acq	Oppo	Rpleas	Amasked	CS_A	2pleas	distractor1	EVAbeforeCON	acq_US_unple_masked	acq45_masked	4	32	400	1	300	300	0	0	365	50	0	0	0	0	0	1	blank2r.bmp	0	1	+	0	8	C4r.bmp	492	1	blank2r.bmp	786	1	CPLW	786	1	blank2r.bmp	866	2	verbissen	866	1	!	1239	1	!	1266	0	0	0	0	0	0	0	0	0	0	0	0	0	0	0	0	0	0	0	0	0	0	0	0	0	0	0
032519	11:43:07	11:53:01	593808	5.0.10.0	4_exp_AMP_EVA_AWA_CON	176	Rpleas_acq	Oppo	Rpleas	Amasked	CS_A	2pleas	distractor1	EVAbeforeCON	acq_US_unple_masked	acq45_masked	4	33	400	1	300	300	0	0	381	46	0	1	0	0	0	1	blank2r.bmp	0	1	+	0	5	C1r.bmp	492	1	blank2r.bmp	786	1	CPLW	786	1	blank2r.bmp	866	3	ausrottung	866	1	!	1239	1	!	1279	0	0	0	0	0	0	0	0	0	0	0	0	0	0	0	0	0	0	0	0	0	0	0	0	0	0	0
032519	11:43:07	11:53:03	595954	5.0.10.0	4_exp_AMP_EVA_AWA_CON	176	Rpleas_acq	Oppo	Rpleas	Amasked	CS_A	2pleas	distractor1	EVAbeforeCON	acq_US_unple_masked	acq45_masked	4	34	400	1	300	300	0	0	349	46	0	1	0	0	0	1	blank2r.bmp	0	1	+	0	1	B1r.bmp	492	1	blank2r.bmp	786	1	CPLW	786	1	blank2r.bmp	866	5	versagen	866	1	!	1239	1	!	1252	0	0	0	0	0	0	0	0	0	0	0	0	0	0	0	0	0	0	0	0	0	0	0	0	0	0	0
032519	11:43:07	11:53:06	598046	5.0.10.0	4_exp_AMP_EVA_AWA_CON	176	Rpleas_acq	Oppo	Rpleas	Amasked	CS_A	2pleas	distractor1	EVAbeforeCON	acq_US_pleas_masked	acq45_masked	4	35	400	0	300	300	0	0	310	46	0	0	0	0	0	1	blank2r.bmp	0	1	+	0	7	C3r.bmp	492	1	blank2r.bmp	786	1	DHJF	786	1	blank2r.bmp	866	4	genießen	866	1	!	-1	1	!	-1	0	0	0	0	0	0	0	0	0	0	0	0	0	0	0	0	0	0	0	0	0	0	0	0	0	0	0
032519	11:43:07	11:53:08	600219	5.0.10.0	4_exp_AMP_EVA_AWA_CON	176	Rpleas_acq	Oppo	Rpleas	Amasked	CS_A	2pleas	distractor1	EVAbeforeCON	acq_US_pleas_masked	acq45_masked	4	36	400	1	300	300	0	0	346	46	0	0	0	0	0	1	blank2r.bmp	0	1	+	0	4	B4r.bmp	492	1	blank2r.bmp	786	1	DHJF	786	1	blank2r.bmp	866	2	vergnügt	866	1	!	1239	1	!	1252	0	0	0	0	0	0	0	0	0	0	0	0	0	0	0	0	0	0	0	0	0	0	0	0	0	0	0
032519	11:43:07	11:53:18	610601	5.0.10.0	4_exp_AMP_EVA_AWA_CON	176	Rpleas_acq	Oppo	Rpleas	Amasked	CS_A	2pleas	distractor1	EVAbeforeCON	acq_US_pleas_masked	acq45_masked	5	1	400	1	300	300	0	0	357	50	0	1	0	0	0	1	blank2r.bmp	0	1	+	0	7	C3r.bmp	492	1	blank2r.bmp	786	1	DHJF	786	1	blank2r.bmp	866	5	vertrauen	866	1	!	1239	1	!	1252	0	0	0	0	0	0	0	0	0	0	0	0	0	0	0	0	0	0	0	0	0	0	0	0	0	0	0
032519	11:43:07	11:53:20	612587	5.0.10.0	4_exp_AMP_EVA_AWA_CON	176	Rpleas_acq	Oppo	Rpleas	Amasked	CS_A	2pleas	distractor1	EVAbeforeCON	acq_US_pleas_masked	acq45_masked	5	2	400	0	300	300	0	0	203	46	0	0	0	0	0	1	blank2r.bmp	0	1	+	0	5	C1r.bmp	492	1	blank2r.bmp	786	1	DHJF	786	1	blank2r.bmp	866	4	genießen	866	1	!	-1	1	!	-1	0	0	0	0	0	0	0	0	0	0	0	0	0	0	0	0	0	0	0	0	0	0	0	0	0	0	0
032519	11:43:07	11:53:22	614800	5.0.10.0	4_exp_AMP_EVA_AWA_CON	176	Rpleas_acq	Oppo	Rpleas	Amasked	CS_A	2pleas	distractor1	EVAbeforeCON	acq_US_unple_masked	acq45_masked	5	3	400	1	300	300	0	0	406	46	0	1	0	0	0	1	blank2r.bmp	0	1	+	0	4	B4r.bmp	492	1	blank2r.bmp	786	1	CPLW	786	1	blank2r.bmp	866	6	krise	866	1	!	1239	1	!	1306	0	0	0	0	0	0	0	0	0	0	0	0	0	0	0	0	0	0	0	0	0	0	0	0	0	0	0
032519	11:43:07	11:53:24	616905	5.0.10.0	4_exp_AMP_EVA_AWA_CON	176	Rpleas_acq	Oppo	Rpleas	Amasked	CS_A	2pleas	distractor1	EVAbeforeCON	acq_US_unple_masked	acq45_masked	5	4	400	0	300	300	0	0	322	50	0	0	0	0	0	1	blank2r.bmp	0	1	+	0	1	B1r.bmp	492	1	blank2r.bmp	786	1	CPLW	786	1	blank2r.bmp	866	2	verbissen	866	1	!	-1	1	!	-1	0	0	0	0	0	0	0	0	0	0	0	0	0	0	0	0	0	0	0	0	0	0	0	0	0	0	0
032519	11:43:07	11:53:27	619144	5.0.10.0	4_exp_AMP_EVA_AWA_CON	176	Rpleas_acq	Oppo	Rpleas	Amasked	CS_A	2pleas	distractor1	EVAbeforeCON	acq_US_unple_masked	acq45_masked	5	5	400	1	300	300	0	0	437	46	0	1	0	0	0	1	blank2r.bmp	0	1	+	0	2	B2r.bmp	492	1	blank2r.bmp	786	1	CPLW	786	1	blank2r.bmp	866	5	versagen	866	1	!	1239	1	!	1332	0	0	0	0	0	0	0	0	0	0	0	0	0	0	0	0	0	0	0	0	0	0	0	0	0	0	0
032519	11:43:07	11:53:29	621344	5.0.10.0	4_exp_AMP_EVA_AWA_CON	176	Rpleas_acq	Oppo	Rpleas	Amasked	CS_A	2pleas	distractor1	EVAbeforeCON	acq_US_unple_masked	acq45_masked	5	6	400	1	300	300	0	0	409	50	0	0	0	0	0	1	blank2r.bmp	0	1	+	0	6	C2r.bmp	492	1	blank2r.bmp	786	1	CPLW	786	1	blank2r.bmp	866	3	ausrottung	866	1	!	1239	1	!	1306	0	0	0	0	0	0	0	0	0	0	0	0	0	0	0	0	0	0	0	0	0	0	0	0	0	0	0
032519	11:43:07	11:53:31	623609	5.0.10.0	4_exp_AMP_EVA_AWA_CON	176	Rpleas_acq	Oppo	Rpleas	Amasked	CS_A	2pleas	distractor1	EVAbeforeCON	acq_US_pleas_masked	acq45_masked	5	7	400	0	300	300	0	0	502	46	0	0	0	0	0	1	blank2r.bmp	0	1	+	0	3	B3r.bmp	492	1	blank2r.bmp	786	1	DHJF	786	1	blank2r.bmp	866	3	anregung	866	1	!	1239	1	!	-1	0	0	0	0	0	0	0	0	0	0	0	0	0	0	0	0	0	0	0	0	0	0	0	0	0	0	0
032519	11:43:07	11:53:33	625808	5.0.10.0	4_exp_AMP_EVA_AWA_CON	176	Rpleas_acq	Oppo	Rpleas	Amasked	CS_A	2pleas	distractor1	EVAbeforeCON	acq_US_pleas_masked	acq45_masked	5	8	400	1	300	300	0	0	394	50	0	1	0	0	0	1	blank2r.bmp	0	1	+	0	8	C4r.bmp	492	1	blank2r.bmp	786	1	DHJF	786	1	blank2r.bmp	866	6	kuss	866	1	!	1239	1	!	1292	0	0	0	0	0	0	0	0	0	0	0	0	0	0	0	0	0	0	0	0	0	0	0	0	0	0	0
032519	11:43:07	11:53:35	627821	5.0.10.0	4_exp_AMP_EVA_AWA_CON	176	Rpleas_acq	Oppo	Rpleas	Amasked	CS_A	2pleas	distractor1	EVAbeforeCON	acq_US_pleas_masked	acq45_masked	5	9	400	0	300	300	0	0	241	46	0	0	0	0	0	1	blank2r.bmp	0	1	+	0	6	C2r.bmp	492	1	blank2r.bmp	786	1	DHJF	786	1	blank2r.bmp	866	1	träumen	866	1	!	-1	1	!	-1	0	0	0	0	0	0	0	0	0	0	0	0	0	0	0	0	0	0	0	0	0	0	0	0	0	0	0
032519	11:43:07	11:53:37	629860	5.0.10.0	4_exp_AMP_EVA_AWA_CON	176	Rpleas_acq	Oppo	Rpleas	Amasked	CS_A	2pleas	distractor1	EVAbeforeCON	acq_US_unple_masked	acq45_masked	5	10	400	0	300	300	0	0	262	46	0	1	0	0	0	1	blank2r.bmp	0	1	+	0	1	B1r.bmp	492	1	blank2r.bmp	786	1	CPLW	786	1	blank2r.bmp	866	4	gemein	866	1	!	-1	1	!	-1	0	0	0	0	0	0	0	0	0	0	0	0	0	0	0	0	0	0	0	0	0	0	0	0	0	0	0
032519	11:43:07	11:53:39	631952	5.0.10.0	4_exp_AMP_EVA_AWA_CON	176	Rpleas_acq	Oppo	Rpleas	Amasked	CS_A	2pleas	distractor1	EVAbeforeCON	acq_US_pleas_masked	acq45_masked	5	11	400	0	300	300	0	0	313	46	0	0	0	0	0	1	blank2r.bmp	0	1	+	0	8	C4r.bmp	492	1	blank2r.bmp	786	1	DHJF	786	1	blank2r.bmp	866	2	vergnügt	866	1	!	-1	1	!	-1	0	0	0	0	0	0	0	0	0	0	0	0	0	0	0	0	0	0	0	0	0	0	0	0	0	0	0
032519	11:43:07	11:53:42	634138	5.0.10.0	4_exp_AMP_EVA_AWA_CON	176	Rpleas_acq	Oppo	Rpleas	Amasked	CS_A	2pleas	distractor1	EVAbeforeCON	acq_US_pleas_masked	acq45_masked	5	12	400	1	300	300	0	0	377	50	0	1	0	0	0	1	blank2r.bmp	0	1	+	0	5	C1r.bmp	492	1	blank2r.bmp	786	1	DHJF	786	1	blank2r.bmp	866	1	träumen	866	1	!	1239	1	!	1279	0	0	0	0	0	0	0	0	0	0	0	0	0	0	0	0	0	0	0	0	0	0	0	0	0	0	0
032519	11:43:07	11:53:44	636204	5.0.10.0	4_exp_AMP_EVA_AWA_CON	176	Rpleas_acq	Oppo	Rpleas	Amasked	CS_A	2pleas	distractor1	EVAbeforeCON	acq_US_unple_masked	acq45_masked	5	13	400	0	300	300	0	0	294	46	0	1	0	0	0	1	blank2r.bmp	0	1	+	0	7	C3r.bmp	492	1	blank2r.bmp	786	1	CPLW	786	1	blank2r.bmp	866	1	töten	866	1	!	-1	1	!	-1	0	0	0	0	0	0	0	0	0	0	0	0	0	0	0	0	0	0	0	0	0	0	0	0	0	0	0
032519	11:43:07	11:53:46	638310	5.0.10.0	4_exp_AMP_EVA_AWA_CON	176	Rpleas_acq	Oppo	Rpleas	Amasked	CS_A	2pleas	distractor1	EVAbeforeCON	acq_US_pleas_masked	acq45_masked	5	14	400	0	300	300	0	0	315	46	0	0	0	0	0	1	blank2r.bmp	0	1	+	0	3	B3r.bmp	492	1	blank2r.bmp	786	1	DHJF	786	1	blank2r.bmp	866	2	vergnügt	866	1	!	-1	1	!	-1	0	0	0	0	0	0	0	0	0	0	0	0	0	0	0	0	0	0	0	0	0	0	0	0	0	0	0
032519	11:43:07	11:53:48	640282	5.0.10.0	4_exp_AMP_EVA_AWA_CON	176	Rpleas_acq	Oppo	Rpleas	Amasked	CS_A	2pleas	distractor1	EVAbeforeCON	acq_US_unple_masked	acq45_masked	5	15	400	0	300	300	0	0	181	46	0	1	0	0	0	1	blank2r.bmp	0	1	+	0	4	B4r.bmp	492	1	blank2r.bmp	786	1	CPLW	786	1	blank2r.bmp	866	1	töten	866	1	!	-1	1	!	-1	0	0	0	0	0	0	0	0	0	0	0	0	0	0	0	0	0	0	0	0	0	0	0	0	0	0	0
032519	11:43:07	11:53:50	642228	5.0.10.0	4_exp_AMP_EVA_AWA_CON	176	Rpleas_acq	Oppo	Rpleas	Amasked	CS_A	2pleas	distractor1	EVAbeforeCON	acq_US_pleas_masked	acq45_masked	5	16	400	0	300	300	0	0	170	46	0	0	0	0	0	1	blank2r.bmp	0	1	+	0	2	B2r.bmp	492	1	blank2r.bmp	786	1	DHJF	786	1	blank2r.bmp	866	6	kuss	866	1	!	-1	1	!	-1	0	0	0	0	0	0	0	0	0	0	0	0	0	0	0	0	0	0	0	0	0	0	0	0	0	0	0
032519	11:43:07	11:53:52	644107	5.0.10.0	4_exp_AMP_EVA_AWA_CON	176	Rpleas_acq	Oppo	Rpleas	Amasked	CS_A	2pleas	distractor1	EVAbeforeCON	acq_US_unple_masked	acq45_masked	5	17	400	0	300	300	0	0	98	46	0	1	0	0	0	1	blank2r.bmp	0	1	+	0	3	B3r.bmp	492	1	blank2r.bmp	786	1	CPLW	786	1	blank2r.bmp	866	6	krise	866	1	!	-1	1	!	-1	0	0	0	0	0	0	0	0	0	0	0	0	0	0	0	0	0	0	0	0	0	0	0	0	0	0	0
032519	11:43:07	11:53:54	646093	5.0.10.0	4_exp_AMP_EVA_AWA_CON	176	Rpleas_acq	Oppo	Rpleas	Amasked	CS_A	2pleas	distractor1	EVAbeforeCON	acq_US_unple_masked	acq45_masked	5	18	400	0	300	300	0	0	200	46	0	1	0	0	0	1	blank2r.bmp	0	1	+	0	6	C2r.bmp	492	1	blank2r.bmp	786	1	CPLW	786	1	blank2r.bmp	866	4	gemein	866	1	!	-1	1	!	-1	0	0	0	0	0	0	0	0	0	0	0	0	0	0	0	0	0	0	0	0	0	0	0	0	0	0	0
032519	11:43:07	11:53:56	648279	5.0.10.0	4_exp_AMP_EVA_AWA_CON	176	Rpleas_acq	Oppo	Rpleas	Amasked	CS_A	2pleas	distractor1	EVAbeforeCON	acq_US_unple_masked	acq45_masked	5	19	400	1	300	300	0	0	361	50	0	0	0	0	0	1	blank2r.bmp	0	1	+	0	8	C4r.bmp	492	1	blank2r.bmp	786	1	CPLW	786	1	blank2r.bmp	866	3	ausrottung	866	1	!	1239	1	!	1266	0	0	0	0	0	0	0	0	0	0	0	0	0	0	0	0	0	0	0	0	0	0	0	0	0	0	0
032519	11:43:07	11:53:58	650345	5.0.10.0	4_exp_AMP_EVA_AWA_CON	176	Rpleas_acq	Oppo	Rpleas	Amasked	CS_A	2pleas	distractor1	EVAbeforeCON	acq_US_pleas_masked	acq45_masked	5	20	400	0	300	300	0	0	305	46	0	0	0	0	0	1	blank2r.bmp	0	1	+	0	4	B4r.bmp	492	1	blank2r.bmp	786	1	DHJF	786	1	blank2r.bmp	866	4	genießen	866	1	!	-1	1	!	-1	0	0	0	0	0	0	0	0	0	0	0	0	0	0	0	0	0	0	0	0	0	0	0	0	0	0	0
032519	11:43:07	11:54:00	652357	5.0.10.0	4_exp_AMP_EVA_AWA_CON	176	Rpleas_acq	Oppo	Rpleas	Amasked	CS_A	2pleas	distractor1	EVAbeforeCON	acq_US_unple_masked	acq45_masked	5	21	400	0	300	300	0	0	231	50	0	0	0	0	0	1	blank2r.bmp	0	1	+	0	5	C1r.bmp	492	1	blank2r.bmp	786	1	CPLW	786	1	blank2r.bmp	866	2	verbissen	866	1	!	-1	1	!	-1	0	0	0	0	0	0	0	0	0	0	0	0	0	0	0	0	0	0	0	0	0	0	0	0	0	0	0
032519	11:43:07	11:54:02	654250	5.0.10.0	4_exp_AMP_EVA_AWA_CON	176	Rpleas_acq	Oppo	Rpleas	Amasked	CS_A	2pleas	distractor1	EVAbeforeCON	acq_US_pleas_masked	acq45_masked	5	22	400	0	300	300	0	0	106	46	0	0	0	0	0	1	blank2r.bmp	0	1	+	0	2	B2r.bmp	492	1	blank2r.bmp	786	1	DHJF	786	1	blank2r.bmp	866	3	anregung	866	1	!	-1	1	!	-1	0	0	0	0	0	0	0	0	0	0	0	0	0	0	0	0	0	0	0	0	0	0	0	0	0	0	0
032519	11:43:07	11:54:04	656502	5.0.10.0	4_exp_AMP_EVA_AWA_CON	176	Rpleas_acq	Oppo	Rpleas	Amasked	CS_A	2pleas	distractor1	EVAbeforeCON	acq_US_pleas_masked	acq45_masked	5	23	400	1	300	300	0	0	439	50	0	1	0	0	0	1	blank2r.bmp	0	1	+	0	1	B1r.bmp	492	1	blank2r.bmp	786	1	DHJF	786	1	blank2r.bmp	866	5	vertrauen	866	1	!	1239	1	!	1346	0	0	0	0	0	0	0	0	0	0	0	0	0	0	0	0	0	0	0	0	0	0	0	0	0	0	0
032519	11:43:07	11:54:06	658515	5.0.10.0	4_exp_AMP_EVA_AWA_CON	176	Rpleas_acq	Oppo	Rpleas	Amasked	CS_A	2pleas	distractor1	EVAbeforeCON	acq_US_pleas_masked	acq45_masked	5	24	400	0	300	300	0	0	242	46	0	0	0	0	0	1	blank2r.bmp	0	1	+	0	7	C3r.bmp	492	1	blank2r.bmp	786	1	DHJF	786	1	blank2r.bmp	866	3	anregung	866	1	!	-1	1	!	-1	0	0	0	0	0	0	0	0	0	0	0	0	0	0	0	0	0	0	0	0	0	0	0	0	0	0	0
032519	11:43:07	11:54:08	660767	5.0.10.0	4_exp_AMP_EVA_AWA_CON	176	Rpleas_acq	Oppo	Rpleas	Amasked	CS_A	2pleas	distractor1	EVAbeforeCON	acq_US_unple_masked	acq45_masked	5	25	400	1	300	300	0	0	451	46	0	1	0	0	0	1	blank2r.bmp	0	1	+	0	5	C1r.bmp	492	1	blank2r.bmp	786	1	CPLW	786	1	blank2r.bmp	866	5	versagen	866	1	!	1239	1	!	1346	0	0	0	0	0	0	0	0	0	0	0	0	0	0	0	0	0	0	0	0	0	0	0	0	0	0	0
032519	11:43:07	11:54:10	662820	5.0.10.0	4_exp_AMP_EVA_AWA_CON	176	Rpleas_acq	Oppo	Rpleas	Amasked	CS_A	2pleas	distractor1	EVAbeforeCON	acq_US_unple_masked	acq45_masked	5	26	400	0	300	300	0	0	283	50	0	0	0	0	0	1	blank2r.bmp	0	1	+	0	3	B3r.bmp	492	1	blank2r.bmp	786	1	CPLW	786	1	blank2r.bmp	866	3	ausrottung	866	1	!	-1	1	!	-1	0	0	0	0	0	0	0	0	0	0	0	0	0	0	0	0	0	0	0	0	0	0	0	0	0	0	0
032519	11:43:07	11:54:12	664992	5.0.10.0	4_exp_AMP_EVA_AWA_CON	176	Rpleas_acq	Oppo	Rpleas	Amasked	CS_A	2pleas	distractor1	EVAbeforeCON	acq_US_unple_masked	acq45_masked	5	27	400	1	300	300	0	0	366	46	0	1	0	0	0	1	blank2r.bmp	0	1	+	0	6	C2r.bmp	492	1	blank2r.bmp	786	1	CPLW	786	1	blank2r.bmp	866	6	krise	866	1	!	1239	1	!	1266	0	0	0	0	0	0	0	0	0	0	0	0	0	0	0	0	0	0	0	0	0	0	0	0	0	0	0
032519	11:43:07	11:54:15	667138	5.0.10.0	4_exp_AMP_EVA_AWA_CON	176	Rpleas_acq	Oppo	Rpleas	Amasked	CS_A	2pleas	distractor1	EVAbeforeCON	acq_US_pleas_masked	acq45_masked	5	28	400	1	300	300	0	0	346	50	0	1	0	0	0	1	blank2r.bmp	0	1	+	0	8	C4r.bmp	492	1	blank2r.bmp	786	1	DHJF	786	1	blank2r.bmp	866	6	kuss	866	1	!	1239	1	!	1252	0	0	0	0	0	0	0	0	0	0	0	0	0	0	0	0	0	0	0	0	0	0	0	0	0	0	0
032519	11:43:07	11:54:17	669337	5.0.10.0	4_exp_AMP_EVA_AWA_CON	176	Rpleas_acq	Oppo	Rpleas	Amasked	CS_A	2pleas	distractor1	EVAbeforeCON	acq_US_unple_masked	acq45_masked	5	29	400	1	300	300	0	0	411	46	0	1	0	0	0	1	blank2r.bmp	0	1	+	0	4	B4r.bmp	492	1	blank2r.bmp	786	1	CPLW	786	1	blank2r.bmp	866	5	versagen	866	1	!	1239	1	!	1306	0	0	0	0	0	0	0	0	0	0	0	0	0	0	0	0	0	0	0	0	0	0	0	0	0	0	0
032519	11:43:07	11:54:19	671443	5.0.10.0	4_exp_AMP_EVA_AWA_CON	176	Rpleas_acq	Oppo	Rpleas	Amasked	CS_A	2pleas	distractor1	EVAbeforeCON	acq_US_pleas_masked	acq45_masked	5	30	400	0	300	300	0	0	329	46	0	0	0	0	0	1	blank2r.bmp	0	1	+	0	7	C3r.bmp	492	1	blank2r.bmp	786	1	DHJF	786	1	blank2r.bmp	866	5	vertrauen	866	1	!	-1	1	!	-1	0	0	0	0	0	0	0	0	0	0	0	0	0	0	0	0	0	0	0	0	0	0	0	0	0	0	0
032519	11:43:07	11:54:21	673509	5.0.10.0	4_exp_AMP_EVA_AWA_CON	176	Rpleas_acq	Oppo	Rpleas	Amasked	CS_A	2pleas	distractor1	EVAbeforeCON	acq_US_pleas_masked	acq45_masked	5	31	400	0	300	300	0	0	274	46	0	0	0	0	0	1	blank2r.bmp	0	1	+	0	1	B1r.bmp	492	1	blank2r.bmp	786	1	DHJF	786	1	blank2r.bmp	866	1	träumen	866	1	!	-1	1	!	-1	0	0	0	0	0	0	0	0	0	0	0	0	0	0	0	0	0	0	0	0	0	0	0	0	0	0	0
032519	11:43:07	11:54:23	675748	5.0.10.0	4_exp_AMP_EVA_AWA_CON	176	Rpleas_acq	Oppo	Rpleas	Amasked	CS_A	2pleas	distractor1	EVAbeforeCON	acq_US_unple_masked	acq45_masked	5	32	400	1	300	300	0	0	438	50	0	0	0	0	0	1	blank2r.bmp	0	1	+	0	2	B2r.bmp	492	1	blank2r.bmp	786	1	CPLW	786	1	blank2r.bmp	866	2	verbissen	866	1	!	1239	1	!	1332	0	0	0	0	0	0	0	0	0	0	0	0	0	0	0	0	0	0	0	0	0	0	0	0	0	0	0
032519	11:43:07	11:54:25	677934	5.0.10.0	4_exp_AMP_EVA_AWA_CON	176	Rpleas_acq	Oppo	Rpleas	Amasked	CS_A	2pleas	distractor1	EVAbeforeCON	acq_US_pleas_masked	acq45_masked	5	33	400	1	300	300	0	0	378	46	0	0	0	0	0	1	blank2r.bmp	0	1	+	0	7	C3r.bmp	492	1	blank2r.bmp	786	1	DHJF	786	1	blank2r.bmp	866	2	vergnügt	866	1	!	1239	1	!	1279	0	0	0	0	0	0	0	0	0	0	0	0	0	0	0	0	0	0	0	0	0	0	0	0	0	0	0
032519	11:43:07	11:54:27	680013	5.0.10.0	4_exp_AMP_EVA_AWA_CON	176	Rpleas_acq	Oppo	Rpleas	Amasked	CS_A	2pleas	distractor1	EVAbeforeCON	acq_US_unple_masked	acq45_masked	5	34	400	0	300	300	0	0	312	46	0	1	0	0	0	1	blank2r.bmp	0	1	+	0	2	B2r.bmp	492	1	blank2r.bmp	786	1	CPLW	786	1	blank2r.bmp	866	1	töten	866	1	!	-1	1	!	-1	0	0	0	0	0	0	0	0	0	0	0	0	0	0	0	0	0	0	0	0	0	0	0	0	0	0	0
032519	11:43:07	11:54:30	682252	5.0.10.0	4_exp_AMP_EVA_AWA_CON	176	Rpleas_acq	Oppo	Rpleas	Amasked	CS_A	2pleas	distractor1	EVAbeforeCON	acq_US_unple_masked	acq45_masked	5	35	400	1	300	300	0	0	427	46	0	1	0	0	0	1	blank2r.bmp	0	1	+	0	1	B1r.bmp	492	1	blank2r.bmp	786	1	CPLW	786	1	blank2r.bmp	866	4	gemein	866	1	!	1239	1	!	1332	0	0	0	0	0	0	0	0	0	0	0	0	0	0	0	0	0	0	0	0	0	0	0	0	0	0	0
032519	11:43:07	11:54:32	684331	5.0.10.0	4_exp_AMP_EVA_AWA_CON	176	Rpleas_acq	Oppo	Rpleas	Amasked	CS_A	2pleas	distractor1	EVAbeforeCON	acq_US_pleas_masked	acq45_masked	5	36	400	0	300	300	0	0	293	46	0	0	0	0	0	1	blank2r.bmp	0	1	+	0	8	C4r.bmp	492	1	blank2r.bmp	786	1	DHJF	786	1	blank2r.bmp	866	4	genießen	866	1	!	-1	1	!	-1	0	0	0	0	0	0	0	0	0	0	0	0	0	0	0	0	0	0	0	0	0	0	0	0	0	0	0
032519	11:43:07	11:55:10	722702	5.0.10.0	4_exp_AMP_EVA_AWA_CON	176	Rpleas_acq	Oppo	Lpleas	Amasked	CS_A	2pleas	distractor1	EVAbeforeCON	AMP_CSpleas	AMP1_masked	6	1	0	0	300	300	0	0	774	46	0	1	0	0	0	1	blank2r.bmp	0	1	DHJF	0	1	blank2r.bmp	79	104	pic104.bmp	199	1	whitenoise_No3.bmp	306	0	0	0	0	0	0	0	0	0	0	0	0	0	0	0	0	0	0	0	0	0	0	0	0	0	0	0	0	0	0	0	0	0	0	0	0	0	0	0
032519	11:43:07	11:55:12	724514	5.0.10.0	4_exp_AMP_EVA_AWA_CON	176	Rpleas_acq	Oppo	Lpleas	Amasked	CS_A	2pleas	distractor1	EVAbeforeCON	AMP_CSunple	AMP1_masked	6	2	0	0	300	300	0	0	882	46	0	0	0	0	0	1	blank2r.bmp	0	1	CPLW	0	1	blank2r.bmp	79	5	pic5.bmp	199	1	whitenoise_No3.bmp	306	0	0	0	0	0	0	0	0	0	0	0	0	0	0	0	0	0	0	0	0	0	0	0	0	0	0	0	0	0	0	0	0	0	0	0	0	0	0	0
032519	11:43:07	11:55:13	725621	5.0.10.0	4_exp_AMP_EVA_AWA_CON	176	Rpleas_acq	Oppo	Lpleas	Amasked	CS_A	2pleas	distractor1	EVAbeforeCON	AMP_distractor	AMP1_masked	6	3	0	0	300	300	0	0	190	50	0	0	0	0	0	1	blank2r.bmp	0	1	ZGXT	0	1	blank2r.bmp	79	84	pic84.bmp	199	1	whitenoise_No3.bmp	306	0	0	0	0	0	0	0	0	0	0	0	0	0	0	0	0	0	0	0	0	0	0	0	0	0	0	0	0	0	0	0	0	0	0	0	0	0	0	0
032519	11:43:07	11:55:14	726860	5.0.10.0	4_exp_AMP_EVA_AWA_CON	176	Rpleas_acq	Oppo	Lpleas	Amasked	CS_A	2pleas	distractor1	EVAbeforeCON	AMP_CSunple	AMP1_masked	6	4	0	0	300	300	0	0	309	46	0	0	0	0	0	1	blank2r.bmp	0	1	CPLW	0	1	blank2r.bmp	79	30	pic30.bmp	199	1	whitenoise_No3.bmp	306	0	0	0	0	0	0	0	0	0	0	0	0	0	0	0	0	0	0	0	0	0	0	0	0	0	0	0	0	0	0	0	0	0	0	0	0	0	0	0
032519	11:43:07	11:55:15	727860	5.0.10.0	4_exp_AMP_EVA_AWA_CON	176	Rpleas_acq	Oppo	Lpleas	Amasked	CS_A	2pleas	distractor1	EVAbeforeCON	AMP_CSunple	AMP1_masked	6	5	0	0	300	300	0	0	79	50	0	1	0	0	0	1	blank2r.bmp	0	1	CPLW	0	1	blank2r.bmp	79	32	pic32.bmp	199	1	whitenoise_No3.bmp	306	0	0	0	0	0	0	0	0	0	0	0	0	0	0	0	0	0	0	0	0	0	0	0	0	0	0	0	0	0	0	0	0	0	0	0	0	0	0	0
032519	11:43:07	11:55:17	729459	5.0.10.0	4_exp_AMP_EVA_AWA_CON	176	Rpleas_acq	Oppo	Lpleas	Amasked	CS_A	2pleas	distractor1	EVAbeforeCON	AMP_distractor	AMP1_masked	6	6	0	0	300	300	0	0	684	46	0	0	0	0	0	1	blank2r.bmp	0	1	ZGXT	0	1	blank2r.bmp	79	31	pic31.bmp	199	1	whitenoise_No3.bmp	306	0	0	0	0	0	0	0	0	0	0	0	0	0	0	0	0	0	0	0	0	0	0	0	0	0	0	0	0	0	0	0	0	0	0	0	0	0	0	0
032519	11:43:07	11:55:18	730685	5.0.10.0	4_exp_AMP_EVA_AWA_CON	176	Rpleas_acq	Oppo	Lpleas	Amasked	CS_A	2pleas	distractor1	EVAbeforeCON	AMP_CSpleas	AMP1_masked	6	7	0	0	300	300	0	0	292	50	0	0	0	0	0	1	blank2r.bmp	0	1	DHJF	0	1	blank2r.bmp	79	143	pic143.bmp	199	1	whitenoise_No3.bmp	306	0	0	0	0	0	0	0	0	0	0	0	0	0	0	0	0	0	0	0	0	0	0	0	0	0	0	0	0	0	0	0	0	0	0	0	0	0	0	0
032519	11:43:07	11:55:19	731858	5.0.10.0	4_exp_AMP_EVA_AWA_CON	176	Rpleas_acq	Oppo	Lpleas	Amasked	CS_A	2pleas	distractor1	EVAbeforeCON	AMP_distractor	AMP1_masked	6	8	0	0	300	300	0	0	256	46	0	0	0	0	0	1	blank2r.bmp	0	1	ZGXT	0	1	blank2r.bmp	79	125	pic125.bmp	199	1	whitenoise_No3.bmp	306	0	0	0	0	0	0	0	0	0	0	0	0	0	0	0	0	0	0	0	0	0	0	0	0	0	0	0	0	0	0	0	0	0	0	0	0	0	0	0
032519	11:43:07	11:55:21	733364	5.0.10.0	4_exp_AMP_EVA_AWA_CON	176	Rpleas_acq	Oppo	Lpleas	Amasked	CS_A	2pleas	distractor1	EVAbeforeCON	AMP_distractor	AMP1_masked	6	9	0	0	300	300	0	0	584	50	0	0	0	0	0	1	blank2r.bmp	0	1	ZGXT	0	1	blank2r.bmp	79	114	pic114.bmp	199	1	whitenoise_No3.bmp	306	0	0	0	0	0	0	0	0	0	0	0	0	0	0	0	0	0	0	0	0	0	0	0	0	0	0	0	0	0	0	0	0	0	0	0	0	0	0	0
032519	11:43:07	11:55:22	734777	5.0.10.0	4_exp_AMP_EVA_AWA_CON	176	Rpleas_acq	Oppo	Lpleas	Amasked	CS_A	2pleas	distractor1	EVAbeforeCON	AMP_CSpleas	AMP1_masked	6	10	0	0	300	300	0	0	487	46	0	1	0	0	0	1	blank2r.bmp	0	1	DHJF	0	1	blank2r.bmp	79	54	pic54.bmp	199	1	whitenoise_No3.bmp	306	0	0	0	0	0	0	0	0	0	0	0	0	0	0	0	0	0	0	0	0	0	0	0	0	0	0	0	0	0	0	0	0	0	0	0	0	0	0	0
032519	11:43:07	11:55:24	736456	5.0.10.0	4_exp_AMP_EVA_AWA_CON	176	Rpleas_acq	Oppo	Lpleas	Amasked	CS_A	2pleas	distractor1	EVAbeforeCON	AMP_CSpleas	AMP1_masked	6	11	0	0	300	300	0	0	748	46	0	1	0	0	0	1	blank2r.bmp	0	1	DHJF	0	1	blank2r.bmp	79	116	pic116.bmp	199	1	whitenoise_No3.bmp	306	0	0	0	0	0	0	0	0	0	0	0	0	0	0	0	0	0	0	0	0	0	0	0	0	0	0	0	0	0	0	0	0	0	0	0	0	0	0	0
032519	11:43:07	11:55:26	738429	5.0.10.0	4_exp_AMP_EVA_AWA_CON	176	Rpleas_acq	Oppo	Lpleas	Amasked	CS_A	2pleas	distractor1	EVAbeforeCON	AMP_distractor	AMP1_masked	6	12	0	0	300	300	0	0	1062	50	0	0	0	0	0	1	blank2r.bmp	0	1	ZGXT	0	1	blank2r.bmp	79	92	pic92.bmp	199	1	whitenoise_No3.bmp	306	0	0	0	0	0	0	0	0	0	0	0	0	0	0	0	0	0	0	0	0	0	0	0	0	0	0	0	0	0	0	0	0	0	0	0	0	0	0	0
032519	11:43:07	11:55:27	740001	5.0.10.0	4_exp_AMP_EVA_AWA_CON	176	Rpleas_acq	Oppo	Lpleas	Amasked	CS_A	2pleas	distractor1	EVAbeforeCON	AMP_distractor	AMP1_masked	6	13	0	0	300	300	0	0	650	46	0	0	0	0	0	1	blank2r.bmp	0	1	ZGXT	0	1	blank2r.bmp	79	15	pic15.bmp	199	1	whitenoise_No3.bmp	306	0	0	0	0	0	0	0	0	0	0	0	0	0	0	0	0	0	0	0	0	0	0	0	0	0	0	0	0	0	0	0	0	0	0	0	0	0	0	0
032519	11:43:07	11:55:30	742054	5.0.10.0	4_exp_AMP_EVA_AWA_CON	176	Rpleas_acq	Oppo	Lpleas	Amasked	CS_A	2pleas	distractor1	EVAbeforeCON	AMP_CSunple	AMP1_masked	6	14	0	0	300	300	0	0	1125	46	0	0	0	0	0	1	blank2r.bmp	0	1	CPLW	0	1	blank2r.bmp	79	80	pic80.bmp	199	1	whitenoise_No3.bmp	306	0	0	0	0	0	0	0	0	0	0	0	0	0	0	0	0	0	0	0	0	0	0	0	0	0	0	0	0	0	0	0	0	0	0	0	0	0	0	0
032519	11:43:07	11:55:31	743413	5.0.10.0	4_exp_AMP_EVA_AWA_CON	176	Rpleas_acq	Oppo	Lpleas	Amasked	CS_A	2pleas	distractor1	EVAbeforeCON	AMP_distractor	AMP1_masked	6	15	0	0	300	300	0	0	443	46	0	0	0	0	0	1	blank2r.bmp	0	1	ZGXT	0	1	blank2r.bmp	79	142	pic142.bmp	199	1	whitenoise_No3.bmp	306	0	0	0	0	0	0	0	0	0	0	0	0	0	0	0	0	0	0	0	0	0	0	0	0	0	0	0	0	0	0	0	0	0	0	0	0	0	0	0
032519	11:43:07	11:55:33	745692	5.0.10.0	4_exp_AMP_EVA_AWA_CON	176	Rpleas_acq	Oppo	Lpleas	Amasked	CS_A	2pleas	distractor1	EVAbeforeCON	AMP_CSpleas	AMP1_masked	6	16	0	0	300	300	0	0	1363	50	0	0	0	0	0	1	blank2r.bmp	0	1	DHJF	0	1	blank2r.bmp	79	129	pic129.bmp	199	1	whitenoise_No3.bmp	306	0	0	0	0	0	0	0	0	0	0	0	0	0	0	0	0	0	0	0	0	0	0	0	0	0	0	0	0	0	0	0	0	0	0	0	0	0	0	0
032519	11:43:07	11:55:35	747158	5.0.10.0	4_exp_AMP_EVA_AWA_CON	176	Rpleas_acq	Oppo	Lpleas	Amasked	CS_A	2pleas	distractor1	EVAbeforeCON	AMP_CSunple	AMP1_masked	6	17	0	0	300	300	0	0	532	46	0	0	0	0	0	1	blank2r.bmp	0	1	CPLW	0	1	blank2r.bmp	79	59	pic59.bmp	199	1	whitenoise_No3.bmp	306	0	0	0	0	0	0	0	0	0	0	0	0	0	0	0	0	0	0	0	0	0	0	0	0	0	0	0	0	0	0	0	0	0	0	0	0	0	0	0
032519	11:43:07	11:55:36	748518	5.0.10.0	4_exp_AMP_EVA_AWA_CON	176	Rpleas_acq	Oppo	Lpleas	Amasked	CS_A	2pleas	distractor1	EVAbeforeCON	AMP_CSunple	AMP1_masked	6	18	0	0	300	300	0	0	450	50	0	1	0	0	0	1	blank2r.bmp	0	1	CPLW	0	1	blank2r.bmp	79	45	pic45.bmp	199	1	whitenoise_No3.bmp	306	0	0	0	0	0	0	0	0	0	0	0	0	0	0	0	0	0	0	0	0	0	0	0	0	0	0	0	0	0	0	0	0	0	0	0	0	0	0	0
032519	11:43:07	11:55:37	749917	5.0.10.0	4_exp_AMP_EVA_AWA_CON	176	Rpleas_acq	Oppo	Lpleas	Amasked	CS_A	2pleas	distractor1	EVAbeforeCON	AMP_CSunple	AMP1_masked	6	19	0	0	300	300	0	0	474	46	0	0	0	0	0	1	blank2r.bmp	0	1	CPLW	0	1	blank2r.bmp	79	112	pic112.bmp	199	1	whitenoise_No3.bmp	306	0	0	0	0	0	0	0	0	0	0	0	0	0	0	0	0	0	0	0	0	0	0	0	0	0	0	0	0	0	0	0	0	0	0	0	0	0	0	0
032519	11:43:07	11:55:39	751477	5.0.10.0	4_exp_AMP_EVA_AWA_CON	176	Rpleas_acq	Oppo	Lpleas	Amasked	CS_A	2pleas	distractor1	EVAbeforeCON	AMP_CSpleas	AMP1_masked	6	20	0	0	300	300	0	0	630	46	0	1	0	0	0	1	blank2r.bmp	0	1	DHJF	0	1	blank2r.bmp	79	44	pic44.bmp	199	1	whitenoise_No3.bmp	306	0	0	0	0	0	0	0	0	0	0	0	0	0	0	0	0	0	0	0	0	0	0	0	0	0	0	0	0	0	0	0	0	0	0	0	0	0	0	0
032519	11:43:07	11:55:40	752983	5.0.10.0	4_exp_AMP_EVA_AWA_CON	176	Rpleas_acq	Oppo	Lpleas	Amasked	CS_A	2pleas	distractor1	EVAbeforeCON	AMP_CSpleas	AMP1_masked	6	21	0	0	300	300	0	0	595	46	0	1	0	0	0	1	blank2r.bmp	0	1	DHJF	0	1	blank2r.bmp	79	28	pic28.bmp	199	1	whitenoise_No3.bmp	306	0	0	0	0	0	0	0	0	0	0	0	0	0	0	0	0	0	0	0	0	0	0	0	0	0	0	0	0	0	0	0	0	0	0	0	0	0	0	0
032519	11:43:07	11:55:42	754729	5.0.10.0	4_exp_AMP_EVA_AWA_CON	176	Rpleas_acq	Oppo	Lpleas	Amasked	CS_A	2pleas	distractor1	EVAbeforeCON	AMP_CSpleas	AMP1_masked	6	22	0	0	300	300	0	0	822	50	0	0	0	0	0	1	blank2r.bmp	0	1	DHJF	0	1	blank2r.bmp	79	14	pic14.bmp	199	1	whitenoise_No3.bmp	306	0	0	0	0	0	0	0	0	0	0	0	0	0	0	0	0	0	0	0	0	0	0	0	0	0	0	0	0	0	0	0	0	0	0	0	0	0	0	0
032519	11:43:07	11:55:43	755848	5.0.10.0	4_exp_AMP_EVA_AWA_CON	176	Rpleas_acq	Oppo	Lpleas	Amasked	CS_A	2pleas	distractor1	EVAbeforeCON	AMP_distractor	AMP1_masked	6	23	0	0	300	300	0	0	196	46	0	0	0	0	0	1	blank2r.bmp	0	1	ZGXT	0	1	blank2r.bmp	79	117	pic117.bmp	199	1	whitenoise_No3.bmp	306	0	0	0	0	0	0	0	0	0	0	0	0	0	0	0	0	0	0	0	0	0	0	0	0	0	0	0	0	0	0	0	0	0	0	0	0	0	0	0
032519	11:43:07	11:55:45	757221	5.0.10.0	4_exp_AMP_EVA_AWA_CON	176	Rpleas_acq	Oppo	Lpleas	Amasked	CS_A	2pleas	distractor1	EVAbeforeCON	AMP_CSpleas	AMP1_masked	6	24	0	0	300	300	0	0	451	46	0	1	0	0	0	1	blank2r.bmp	0	1	DHJF	0	1	blank2r.bmp	79	106	pic106.bmp	199	1	whitenoise_No3.bmp	306	0	0	0	0	0	0	0	0	0	0	0	0	0	0	0	0	0	0	0	0	0	0	0	0	0	0	0	0	0	0	0	0	0	0	0	0	0	0	0
032519	11:43:07	11:55:46	758594	5.0.10.0	4_exp_AMP_EVA_AWA_CON	176	Rpleas_acq	Oppo	Lpleas	Amasked	CS_A	2pleas	distractor1	EVAbeforeCON	AMP_distractor	AMP1_masked	6	25	0	0	300	300	0	0	439	50	0	0	0	0	0	1	blank2r.bmp	0	1	ZGXT	0	1	blank2r.bmp	79	55	pic55.bmp	199	1	whitenoise_No3.bmp	306	0	0	0	0	0	0	0	0	0	0	0	0	0	0	0	0	0	0	0	0	0	0	0	0	0	0	0	0	0	0	0	0	0	0	0	0	0	0	0
032519	11:43:07	11:55:47	759820	5.0.10.0	4_exp_AMP_EVA_AWA_CON	176	Rpleas_acq	Oppo	Lpleas	Amasked	CS_A	2pleas	distractor1	EVAbeforeCON	AMP_distractor	AMP1_masked	6	26	0	0	300	300	0	0	308	46	0	0	0	0	0	1	blank2r.bmp	0	1	ZGXT	0	1	blank2r.bmp	79	6	pic6.bmp	199	1	whitenoise_No3.bmp	306	0	0	0	0	0	0	0	0	0	0	0	0	0	0	0	0	0	0	0	0	0	0	0	0	0	0	0	0	0	0	0	0	0	0	0	0	0	0	0
032519	11:43:07	11:55:48	760859	5.0.10.0	4_exp_AMP_EVA_AWA_CON	176	Rpleas_acq	Oppo	Lpleas	Amasked	CS_A	2pleas	distractor1	EVAbeforeCON	AMP_CSpleas	AMP1_masked	6	27	0	0	300	300	0	0	120	46	0	1	0	0	0	1	blank2r.bmp	0	1	DHJF	0	1	blank2r.bmp	79	127	pic127.bmp	199	1	whitenoise_No3.bmp	306	0	0	0	0	0	0	0	0	0	0	0	0	0	0	0	0	0	0	0	0	0	0	0	0	0	0	0	0	0	0	0	0	0	0	0	0	0	0	0
032519	11:43:07	11:55:50	762072	5.0.10.0	4_exp_AMP_EVA_AWA_CON	176	Rpleas_acq	Oppo	Lpleas	Amasked	CS_A	2pleas	distractor1	EVAbeforeCON	AMP_CSunple	AMP1_masked	6	28	0	0	300	300	0	0	285	50	0	1	0	0	0	1	blank2r.bmp	0	1	CPLW	0	1	blank2r.bmp	79	34	pic34.bmp	199	1	whitenoise_No3.bmp	306	0	0	0	0	0	0	0	0	0	0	0	0	0	0	0	0	0	0	0	0	0	0	0	0	0	0	0	0	0	0	0	0	0	0	0	0	0	0	0
032519	11:43:07	11:55:51	763418	5.0.10.0	4_exp_AMP_EVA_AWA_CON	176	Rpleas_acq	Oppo	Lpleas	Amasked	CS_A	2pleas	distractor1	EVAbeforeCON	AMP_CSunple	AMP1_masked	6	29	0	0	300	300	0	0	416	46	0	0	0	0	0	1	blank2r.bmp	0	1	CPLW	0	1	blank2r.bmp	79	47	pic47.bmp	199	1	whitenoise_No3.bmp	306	0	0	0	0	0	0	0	0	0	0	0	0	0	0	0	0	0	0	0	0	0	0	0	0	0	0	0	0	0	0	0	0	0	0	0	0	0	0	0
032519	11:43:07	11:55:52	764698	5.0.10.0	4_exp_AMP_EVA_AWA_CON	176	Rpleas_acq	Oppo	Lpleas	Amasked	CS_A	2pleas	distractor1	EVAbeforeCON	AMP_CSunple	AMP1_masked	6	30	0	0	300	300	0	0	353	46	0	0	0	0	0	1	blank2r.bmp	0	1	CPLW	0	1	blank2r.bmp	79	126	pic126.bmp	199	1	whitenoise_No3.bmp	306	0	0	0	0	0	0	0	0	0	0	0	0	0	0	0	0	0	0	0	0	0	0	0	0	0	0	0	0	0	0	0	0	0	0	0	0	0	0	0
032519	11:43:07	11:55:53	765964	5.0.10.0	4_exp_AMP_EVA_AWA_CON	176	Rpleas_acq	Oppo	Lpleas	Amasked	CS_A	2pleas	distractor1	EVAbeforeCON	AMP_CSunple	AMP1_masked	6	31	0	0	300	300	0	0	345	46	0	0	0	0	0	1	blank2r.bmp	0	1	CPLW	0	1	blank2r.bmp	79	49	pic49.bmp	199	1	whitenoise_No3.bmp	306	0	0	0	0	0	0	0	0	0	0	0	0	0	0	0	0	0	0	0	0	0	0	0	0	0	0	0	0	0	0	0	0	0	0	0	0	0	0	0
032519	11:43:07	11:55:55	767377	5.0.10.0	4_exp_AMP_EVA_AWA_CON	176	Rpleas_acq	Oppo	Lpleas	Amasked	CS_A	2pleas	distractor1	EVAbeforeCON	AMP_distractor	AMP1_masked	6	32	0	0	300	300	0	0	476	50	0	0	0	0	0	1	blank2r.bmp	0	1	ZGXT	0	1	blank2r.bmp	79	62	pic62.bmp	199	1	whitenoise_No3.bmp	306	0	0	0	0	0	0	0	0	0	0	0	0	0	0	0	0	0	0	0	0	0	0	0	0	0	0	0	0	0	0	0	0	0	0	0	0	0	0	0
032519	11:43:07	11:55:56	768656	5.0.10.0	4_exp_AMP_EVA_AWA_CON	176	Rpleas_acq	Oppo	Lpleas	Amasked	CS_A	2pleas	distractor1	EVAbeforeCON	AMP_CSunple	AMP1_masked	6	33	0	0	300	300	0	0	352	46	0	0	0	0	0	1	blank2r.bmp	0	1	CPLW	0	1	blank2r.bmp	79	66	pic66.bmp	199	1	whitenoise_No3.bmp	306	0	0	0	0	0	0	0	0	0	0	0	0	0	0	0	0	0	0	0	0	0	0	0	0	0	0	0	0	0	0	0	0	0	0	0	0	0	0	0
032519	11:43:07	11:55:58	770056	5.0.10.0	4_exp_AMP_EVA_AWA_CON	176	Rpleas_acq	Oppo	Lpleas	Amasked	CS_A	2pleas	distractor1	EVAbeforeCON	AMP_distractor	AMP1_masked	6	34	0	0	300	300	0	0	473	50	0	0	0	0	0	1	blank2r.bmp	0	1	ZGXT	0	1	blank2r.bmp	79	100	pic100.bmp	199	1	whitenoise_No3.bmp	306	0	0	0	0	0	0	0	0	0	0	0	0	0	0	0	0	0	0	0	0	0	0	0	0	0	0	0	0	0	0	0	0	0	0	0	0	0	0	0
032519	11:43:07	11:55:59	771308	5.0.10.0	4_exp_AMP_EVA_AWA_CON	176	Rpleas_acq	Oppo	Lpleas	Amasked	CS_A	2pleas	distractor1	EVAbeforeCON	AMP_distractor	AMP1_masked	6	35	0	0	300	300	0	0	335	46	0	0	0	0	0	1	blank2r.bmp	0	1	ZGXT	0	1	blank2r.bmp	79	144	pic144.bmp	199	1	whitenoise_No3.bmp	306	0	0	0	0	0	0	0	0	0	0	0	0	0	0	0	0	0	0	0	0	0	0	0	0	0	0	0	0	0	0	0	0	0	0	0	0	0	0	0
032519	11:43:07	11:56:00	772521	5.0.10.0	4_exp_AMP_EVA_AWA_CON	176	Rpleas_acq	Oppo	Lpleas	Amasked	CS_A	2pleas	distractor1	EVAbeforeCON	AMP_CSpleas	AMP1_masked	6	36	0	0	300	300	0	0	279	46	0	1	0	0	0	1	blank2r.bmp	0	1	DHJF	0	1	blank2r.bmp	79	102	pic102.bmp	199	1	whitenoise_No3.bmp	306	0	0	0	0	0	0	0	0	0	0	0	0	0	0	0	0	0	0	0	0	0	0	0	0	0	0	0	0	0	0	0	0	0	0	0	0	0	0	0
032519	11:43:07	11:56:01	773974	5.0.10.0	4_exp_AMP_EVA_AWA_CON	176	Rpleas_acq	Oppo	Lpleas	Amasked	CS_A	2pleas	distractor1	EVAbeforeCON	AMP_CSunple	AMP1_masked	6	37	0	0	300	300	0	0	541	46	0	0	0	0	0	1	blank2r.bmp	0	1	CPLW	0	1	blank2r.bmp	79	71	pic71.bmp	199	1	whitenoise_No3.bmp	306	0	0	0	0	0	0	0	0	0	0	0	0	0	0	0	0	0	0	0	0	0	0	0	0	0	0	0	0	0	0	0	0	0	0	0	0	0	0	0
032519	11:43:07	11:56:03	775600	5.0.10.0	4_exp_AMP_EVA_AWA_CON	176	Rpleas_acq	Oppo	Lpleas	Amasked	CS_A	2pleas	distractor1	EVAbeforeCON	AMP_distractor	AMP1_masked	6	38	0	0	300	300	0	0	704	50	0	0	0	0	0	1	blank2r.bmp	0	1	ZGXT	0	1	blank2r.bmp	79	103	pic103.bmp	199	1	whitenoise_No3.bmp	306	0	0	0	0	0	0	0	0	0	0	0	0	0	0	0	0	0	0	0	0	0	0	0	0	0	0	0	0	0	0	0	0	0	0	0	0	0	0	0
032519	11:43:07	11:56:05	777453	5.0.10.0	4_exp_AMP_EVA_AWA_CON	176	Rpleas_acq	Oppo	Lpleas	Amasked	CS_A	2pleas	distractor1	EVAbeforeCON	AMP_CSunple	AMP1_masked	6	39	0	0	300	300	0	0	923	50	0	1	0	0	0	1	blank2r.bmp	0	1	CPLW	0	1	blank2r.bmp	79	97	pic97.bmp	199	1	whitenoise_No3.bmp	306	0	0	0	0	0	0	0	0	0	0	0	0	0	0	0	0	0	0	0	0	0	0	0	0	0	0	0	0	0	0	0	0	0	0	0	0	0	0	0
032519	11:43:07	11:56:06	778652	5.0.10.0	4_exp_AMP_EVA_AWA_CON	176	Rpleas_acq	Oppo	Lpleas	Amasked	CS_A	2pleas	distractor1	EVAbeforeCON	AMP_CSpleas	AMP1_masked	6	40	0	0	300	300	0	0	288	50	0	0	0	0	0	1	blank2r.bmp	0	1	DHJF	0	1	blank2r.bmp	79	149	pic149.bmp	199	1	whitenoise_No3.bmp	306	0	0	0	0	0	0	0	0	0	0	0	0	0	0	0	0	0	0	0	0	0	0	0	0	0	0	0	0	0	0	0	0	0	0	0	0	0	0	0
032519	11:43:07	11:56:07	779932	5.0.10.0	4_exp_AMP_EVA_AWA_CON	176	Rpleas_acq	Oppo	Lpleas	Amasked	CS_A	2pleas	distractor1	EVAbeforeCON	AMP_CSpleas	AMP1_masked	6	41	0	0	300	300	0	0	357	50	0	0	0	0	0	1	blank2r.bmp	0	1	DHJF	0	1	blank2r.bmp	79	69	pic69.bmp	199	1	whitenoise_No3.bmp	306	0	0	0	0	0	0	0	0	0	0	0	0	0	0	0	0	0	0	0	0	0	0	0	0	0	0	0	0	0	0	0	0	0	0	0	0	0	0	0
032519	11:43:07	11:56:09	781104	5.0.10.0	4_exp_AMP_EVA_AWA_CON	176	Rpleas_acq	Oppo	Lpleas	Amasked	CS_A	2pleas	distractor1	EVAbeforeCON	AMP_CSpleas	AMP1_masked	6	42	0	0	300	300	0	0	250	50	0	0	0	0	0	1	blank2r.bmp	0	1	DHJF	0	1	blank2r.bmp	79	12	pic12.bmp	199	1	whitenoise_No3.bmp	306	0	0	0	0	0	0	0	0	0	0	0	0	0	0	0	0	0	0	0	0	0	0	0	0	0	0	0	0	0	0	0	0	0	0	0	0	0	0	0
032519	11:43:07	11:56:10	782890	5.0.10.0	4_exp_AMP_EVA_AWA_CON	176	Rpleas_acq	Oppo	Lpleas	Amasked	CS_A	2pleas	distractor1	EVAbeforeCON	AMP_CSunple	AMP1_masked	6	43	0	0	300	300	0	0	858	50	0	1	0	0	0	1	blank2r.bmp	0	1	CPLW	0	1	blank2r.bmp	79	20	pic20.bmp	199	1	whitenoise_No3.bmp	306	0	0	0	0	0	0	0	0	0	0	0	0	0	0	0	0	0	0	0	0	0	0	0	0	0	0	0	0	0	0	0	0	0	0	0	0	0	0	0
032519	11:43:07	11:56:12	784743	5.0.10.0	4_exp_AMP_EVA_AWA_CON	176	Rpleas_acq	Oppo	Lpleas	Amasked	CS_A	2pleas	distractor1	EVAbeforeCON	AMP_CSpleas	AMP1_masked	6	44	0	0	300	300	0	0	935	46	0	1	0	0	0	1	blank2r.bmp	0	1	DHJF	0	1	blank2r.bmp	79	9	pic9.bmp	199	1	whitenoise_No3.bmp	306	0	0	0	0	0	0	0	0	0	0	0	0	0	0	0	0	0	0	0	0	0	0	0	0	0	0	0	0	0	0	0	0	0	0	0	0	0	0	0
032519	11:43:07	11:56:13	785929	5.0.10.0	4_exp_AMP_EVA_AWA_CON	176	Rpleas_acq	Oppo	Lpleas	Amasked	CS_A	2pleas	distractor1	EVAbeforeCON	AMP_CSunple	AMP1_masked	6	45	0	0	300	300	0	0	257	50	0	1	0	0	0	1	blank2r.bmp	0	1	CPLW	0	1	blank2r.bmp	79	77	pic77.bmp	199	1	whitenoise_No3.bmp	306	0	0	0	0	0	0	0	0	0	0	0	0	0	0	0	0	0	0	0	0	0	0	0	0	0	0	0	0	0	0	0	0	0	0	0	0	0	0	0
032519	11:43:07	11:56:14	786995	5.0.10.0	4_exp_AMP_EVA_AWA_CON	176	Rpleas_acq	Oppo	Lpleas	Amasked	CS_A	2pleas	distractor1	EVAbeforeCON	AMP_distractor	AMP1_masked	6	46	0	0	300	300	0	0	141	46	0	0	0	0	0	1	blank2r.bmp	0	1	ZGXT	0	1	blank2r.bmp	79	72	pic72.bmp	199	1	whitenoise_No3.bmp	306	0	0	0	0	0	0	0	0	0	0	0	0	0	0	0	0	0	0	0	0	0	0	0	0	0	0	0	0	0	0	0	0	0	0	0	0	0	0	0
032519	11:43:07	11:56:16	788155	5.0.10.0	4_exp_AMP_EVA_AWA_CON	176	Rpleas_acq	Oppo	Lpleas	Amasked	CS_A	2pleas	distractor1	EVAbeforeCON	AMP_distractor	AMP1_masked	6	47	0	0	300	300	0	0	244	50	0	0	0	0	0	1	blank2r.bmp	0	1	ZGXT	0	1	blank2r.bmp	79	29	pic29.bmp	199	1	whitenoise_No3.bmp	306	0	0	0	0	0	0	0	0	0	0	0	0	0	0	0	0	0	0	0	0	0	0	0	0	0	0	0	0	0	0	0	0	0	0	0	0	0	0	0
032519	11:43:07	11:56:17	789194	5.0.10.0	4_exp_AMP_EVA_AWA_CON	176	Rpleas_acq	Oppo	Lpleas	Amasked	CS_A	2pleas	distractor1	EVAbeforeCON	AMP_distractor	AMP1_masked	6	48	0	0	300	300	0	0	115	50	0	0	0	0	0	1	blank2r.bmp	0	1	ZGXT	0	1	blank2r.bmp	79	57	pic57.bmp	199	1	whitenoise_No3.bmp	306	0	0	0	0	0	0	0	0	0	0	0	0	0	0	0	0	0	0	0	0	0	0	0	0	0	0	0	0	0	0	0	0	0	0	0	0	0	0	0
032519	11:43:07	11:56:18	790247	5.0.10.0	4_exp_AMP_EVA_AWA_CON	176	Rpleas_acq	Oppo	Lpleas	Amasked	CS_A	2pleas	distractor1	EVAbeforeCON	AMP_CSpleas	AMP1_masked	6	49	0	0	300	300	0	0	142	46	0	1	0	0	0	1	blank2r.bmp	0	1	DHJF	0	1	blank2r.bmp	79	35	pic35.bmp	199	1	whitenoise_No3.bmp	306	0	0	0	0	0	0	0	0	0	0	0	0	0	0	0	0	0	0	0	0	0	0	0	0	0	0	0	0	0	0	0	0	0	0	0	0	0	0	0
032519	11:43:07	11:56:19	791340	5.0.10.0	4_exp_AMP_EVA_AWA_CON	176	Rpleas_acq	Oppo	Lpleas	Amasked	CS_A	2pleas	distractor1	EVAbeforeCON	AMP_CSunple	AMP1_masked	6	50	0	0	300	300	0	0	168	46	0	0	0	0	0	1	blank2r.bmp	0	1	CPLW	0	1	blank2r.bmp	79	86	pic86.bmp	199	1	whitenoise_No3.bmp	306	0	0	0	0	0	0	0	0	0	0	0	0	0	0	0	0	0	0	0	0	0	0	0	0	0	0	0	0	0	0	0	0	0	0	0	0	0	0	0
032519	11:43:07	11:56:20	792393	5.0.10.0	4_exp_AMP_EVA_AWA_CON	176	Rpleas_acq	Oppo	Lpleas	Amasked	CS_A	2pleas	distractor1	EVAbeforeCON	AMP_CSpleas	AMP1_masked	6	51	0	0	300	300	0	0	131	46	0	1	0	0	0	1	blank2r.bmp	0	1	DHJF	0	1	blank2r.bmp	79	65	pic65.bmp	199	1	whitenoise_No3.bmp	306	0	0	0	0	0	0	0	0	0	0	0	0	0	0	0	0	0	0	0	0	0	0	0	0	0	0	0	0	0	0	0	0	0	0	0	0	0	0	0
032519	11:43:07	11:56:34	806347	5.0.10.0	4_exp_AMP_EVA_AWA_CON	176	Rpleas_acq	Oppo	Lpleas	Amasked	CS_A	2pleas	distractor1	EVAbeforeCON	AMP_CSunple	AMP23	7	1	0	0	300	300	0	0	404	46	0	0	0	0	0	1	blank2r.bmp	0	1	CPLW	0	1	blank2r.bmp	79	27	pic27.bmp	199	1	whitenoise_No3.bmp	306	0	0	0	0	0	0	0	0	0	0	0	0	0	0	0	0	0	0	0	0	0	0	0	0	0	0	0	0	0	0	0	0	0	0	0	0	0	0	0
032519	11:43:07	11:56:38	810066	5.0.10.0	4_exp_AMP_EVA_AWA_CON	176	Rpleas_acq	Oppo	Lpleas	Amasked	CS_A	2pleas	distractor1	EVAbeforeCON	AMP_CSpleas	AMP23	7	2	0	0	300	300	0	0	2793	50	0	0	0	0	0	1	blank2r.bmp	0	1	DHJF	0	1	blank2r.bmp	79	40	pic40.bmp	199	1	whitenoise_No3.bmp	306	0	0	0	0	0	0	0	0	0	0	0	0	0	0	0	0	0	0	0	0	0	0	0	0	0	0	0	0	0	0	0	0	0	0	0	0	0	0	0
032519	11:43:07	11:56:39	811159	5.0.10.0	4_exp_AMP_EVA_AWA_CON	176	Rpleas_acq	Oppo	Lpleas	Amasked	CS_A	2pleas	distractor1	EVAbeforeCON	AMP_CSunple	AMP23	7	3	0	0	300	300	0	0	178	46	0	0	0	0	0	1	blank2r.bmp	0	1	CPLW	0	1	blank2r.bmp	79	137	pic137.bmp	199	1	whitenoise_No3.bmp	306	0	0	0	0	0	0	0	0	0	0	0	0	0	0	0	0	0	0	0	0	0	0	0	0	0	0	0	0	0	0	0	0	0	0	0	0	0	0	0
032519	11:43:07	11:56:40	812185	5.0.10.0	4_exp_AMP_EVA_AWA_CON	176	Rpleas_acq	Oppo	Lpleas	Amasked	CS_A	2pleas	distractor1	EVAbeforeCON	AMP_CSunple	AMP23	7	4	0	0	300	300	0	0	116	50	0	1	0	0	0	1	blank2r.bmp	0	1	CPLW	0	1	blank2r.bmp	79	95	pic95.bmp	199	1	whitenoise_No3.bmp	306	0	0	0	0	0	0	0	0	0	0	0	0	0	0	0	0	0	0	0	0	0	0	0	0	0	0	0	0	0	0	0	0	0	0	0	0	0	0	0
032519	11:43:07	11:56:43	815797	5.0.10.0	4_exp_AMP_EVA_AWA_CON	176	Rpleas_acq	Oppo	Lpleas	Amasked	CS_A	2pleas	distractor1	EVAbeforeCON	AMP_CSunple	AMP23	7	5	0	0	300	300	0	0	2681	46	0	0	0	0	0	1	blank2r.bmp	0	1	CPLW	0	1	blank2r.bmp	79	128	pic128.bmp	199	1	whitenoise_No3.bmp	306	0	0	0	0	0	0	0	0	0	0	0	0	0	0	0	0	0	0	0	0	0	0	0	0	0	0	0	0	0	0	0	0	0	0	0	0	0	0	0
032519	11:43:07	11:56:44	816903	5.0.10.0	4_exp_AMP_EVA_AWA_CON	176	Rpleas_acq	Oppo	Lpleas	Amasked	CS_A	2pleas	distractor1	EVAbeforeCON	AMP_CSpleas	AMP23	7	6	0	0	300	300	0	0	188	50	0	0	0	0	0	1	blank2r.bmp	0	1	DHJF	0	1	blank2r.bmp	79	123	pic123.bmp	199	1	whitenoise_No3.bmp	306	0	0	0	0	0	0	0	0	0	0	0	0	0	0	0	0	0	0	0	0	0	0	0	0	0	0	0	0	0	0	0	0	0	0	0	0	0	0	0
032519	11:43:07	11:56:45	817876	5.0.10.0	4_exp_AMP_EVA_AWA_CON	176	Rpleas_acq	Oppo	Lpleas	Amasked	CS_A	2pleas	distractor1	EVAbeforeCON	AMP_CSunple	AMP23	7	7	0	0	300	300	0	0	53	46	0	0	0	0	0	1	blank2r.bmp	0	1	CPLW	0	1	blank2r.bmp	79	23	pic23.bmp	199	1	whitenoise_No3.bmp	306	0	0	0	0	0	0	0	0	0	0	0	0	0	0	0	0	0	0	0	0	0	0	0	0	0	0	0	0	0	0	0	0	0	0	0	0	0	0	0
032519	11:43:07	11:56:46	818969	5.0.10.0	4_exp_AMP_EVA_AWA_CON	176	Rpleas_acq	Oppo	Lpleas	Amasked	CS_A	2pleas	distractor1	EVAbeforeCON	AMP_CSpleas	AMP23	7	8	0	0	300	300	0	0	181	46	0	1	0	0	0	1	blank2r.bmp	0	1	DHJF	0	1	blank2r.bmp	79	91	pic91.bmp	199	1	whitenoise_No3.bmp	306	0	0	0	0	0	0	0	0	0	0	0	0	0	0	0	0	0	0	0	0	0	0	0	0	0	0	0	0	0	0	0	0	0	0	0	0	0	0	0
032519	11:43:07	11:56:47	819955	5.0.10.0	4_exp_AMP_EVA_AWA_CON	176	Rpleas_acq	Oppo	Lpleas	Amasked	CS_A	2pleas	distractor1	EVAbeforeCON	AMP_CSpleas	AMP23	7	9	0	0	300	300	0	0	58	46	0	1	0	0	0	1	blank2r.bmp	0	1	DHJF	0	1	blank2r.bmp	79	33	pic33.bmp	199	1	whitenoise_No3.bmp	306	0	0	0	0	0	0	0	0	0	0	0	0	0	0	0	0	0	0	0	0	0	0	0	0	0	0	0	0	0	0	0	0	0	0	0	0	0	0	0
032519	11:43:07	11:56:49	821035	5.0.10.0	4_exp_AMP_EVA_AWA_CON	176	Rpleas_acq	Oppo	Lpleas	Amasked	CS_A	2pleas	distractor1	EVAbeforeCON	AMP_CSpleas	AMP23	7	10	0	0	300	300	0	0	163	46	0	1	0	0	0	1	blank2r.bmp	0	1	DHJF	0	1	blank2r.bmp	79	93	pic93.bmp	199	1	whitenoise_No3.bmp	306	0	0	0	0	0	0	0	0	0	0	0	0	0	0	0	0	0	0	0	0	0	0	0	0	0	0	0	0	0	0	0	0	0	0	0	0	0	0	0
032519	11:43:07	11:56:50	822221	5.0.10.0	4_exp_AMP_EVA_AWA_CON	176	Rpleas_acq	Oppo	Lpleas	Amasked	CS_A	2pleas	distractor1	EVAbeforeCON	AMP_distractor	AMP23	7	11	0	0	300	300	0	0	270	50	0	0	0	0	0	1	blank2r.bmp	0	1	ZGXT	0	1	blank2r.bmp	79	8	pic8.bmp	199	1	whitenoise_No3.bmp	306	0	0	0	0	0	0	0	0	0	0	0	0	0	0	0	0	0	0	0	0	0	0	0	0	0	0	0	0	0	0	0	0	0	0	0	0	0	0	0
032519	11:43:07	11:56:51	823314	5.0.10.0	4_exp_AMP_EVA_AWA_CON	176	Rpleas_acq	Oppo	Lpleas	Amasked	CS_A	2pleas	distractor1	EVAbeforeCON	AMP_CSpleas	AMP23	7	12	0	0	300	300	0	0	172	46	0	1	0	0	0	1	blank2r.bmp	0	1	DHJF	0	1	blank2r.bmp	79	10	pic10.bmp	199	1	whitenoise_No3.bmp	306	0	0	0	0	0	0	0	0	0	0	0	0	0	0	0	0	0	0	0	0	0	0	0	0	0	0	0	0	0	0	0	0	0	0	0	0	0	0	0
032519	11:43:07	11:56:52	824380	5.0.10.0	4_exp_AMP_EVA_AWA_CON	176	Rpleas_acq	Oppo	Lpleas	Amasked	CS_A	2pleas	distractor1	EVAbeforeCON	AMP_CSpleas	AMP23	7	13	0	0	300	300	0	0	147	50	0	0	0	0	0	1	blank2r.bmp	0	1	DHJF	0	1	blank2r.bmp	79	130	pic130.bmp	199	1	whitenoise_No3.bmp	306	0	0	0	0	0	0	0	0	0	0	0	0	0	0	0	0	0	0	0	0	0	0	0	0	0	0	0	0	0	0	0	0	0	0	0	0	0	0	0
032519	11:43:07	11:56:53	825553	5.0.10.0	4_exp_AMP_EVA_AWA_CON	176	Rpleas_acq	Oppo	Lpleas	Amasked	CS_A	2pleas	distractor1	EVAbeforeCON	AMP_distractor	AMP23	7	14	0	0	300	300	0	0	252	46	0	0	0	0	0	1	blank2r.bmp	0	1	ZGXT	0	1	blank2r.bmp	79	119	pic119.bmp	199	1	whitenoise_No3.bmp	306	0	0	0	0	0	0	0	0	0	0	0	0	0	0	0	0	0	0	0	0	0	0	0	0	0	0	0	0	0	0	0	0	0	0	0	0	0	0	0
032519	11:43:07	11:56:54	826632	5.0.10.0	4_exp_AMP_EVA_AWA_CON	176	Rpleas_acq	Oppo	Lpleas	Amasked	CS_A	2pleas	distractor1	EVAbeforeCON	AMP_distractor	AMP23	7	15	0	0	300	300	0	0	155	50	0	0	0	0	0	1	blank2r.bmp	0	1	ZGXT	0	1	blank2r.bmp	79	151	pic151.bmp	199	1	whitenoise_No3.bmp	306	0	0	0	0	0	0	0	0	0	0	0	0	0	0	0	0	0	0	0	0	0	0	0	0	0	0	0	0	0	0	0	0	0	0	0	0	0	0	0
032519	11:43:07	11:56:55	827965	5.0.10.0	4_exp_AMP_EVA_AWA_CON	176	Rpleas_acq	Oppo	Lpleas	Amasked	CS_A	2pleas	distractor1	EVAbeforeCON	AMP_CSunple	AMP23	7	16	0	0	300	300	0	0	419	50	0	1	0	0	0	1	blank2r.bmp	0	1	CPLW	0	1	blank2r.bmp	79	148	pic148.bmp	199	1	whitenoise_No3.bmp	306	0	0	0	0	0	0	0	0	0	0	0	0	0	0	0	0	0	0	0	0	0	0	0	0	0	0	0	0	0	0	0	0	0	0	0	0	0	0	0
032519	11:43:07	11:56:57	829365	5.0.10.0	4_exp_AMP_EVA_AWA_CON	176	Rpleas_acq	Oppo	Lpleas	Amasked	CS_A	2pleas	distractor1	EVAbeforeCON	AMP_CSunple	AMP23	7	17	0	0	300	300	0	0	467	50	0	1	0	0	0	1	blank2r.bmp	0	1	CPLW	0	1	blank2r.bmp	79	51	pic51.bmp	199	1	whitenoise_No3.bmp	306	0	0	0	0	0	0	0	0	0	0	0	0	0	0	0	0	0	0	0	0	0	0	0	0	0	0	0	0	0	0	0	0	0	0	0	0	0	0	0
032519	11:43:07	11:56:58	830431	5.0.10.0	4_exp_AMP_EVA_AWA_CON	176	Rpleas_acq	Oppo	Lpleas	Amasked	CS_A	2pleas	distractor1	EVAbeforeCON	AMP_CSunple	AMP23	7	18	0	0	300	300	0	0	155	46	0	0	0	0	0	1	blank2r.bmp	0	1	CPLW	0	1	blank2r.bmp	79	138	pic138.bmp	199	1	whitenoise_No3.bmp	306	0	0	0	0	0	0	0	0	0	0	0	0	0	0	0	0	0	0	0	0	0	0	0	0	0	0	0	0	0	0	0	0	0	0	0	0	0	0	0
032519	11:43:07	11:56:59	831457	5.0.10.0	4_exp_AMP_EVA_AWA_CON	176	Rpleas_acq	Oppo	Lpleas	Amasked	CS_A	2pleas	distractor1	EVAbeforeCON	AMP_CSpleas	AMP23	7	19	0	0	300	300	0	0	100	46	0	1	0	0	0	1	blank2r.bmp	0	1	DHJF	0	1	blank2r.bmp	79	111	pic111.bmp	199	1	whitenoise_No3.bmp	306	0	0	0	0	0	0	0	0	0	0	0	0	0	0	0	0	0	0	0	0	0	0	0	0	0	0	0	0	0	0	0	0	0	0	0	0	0	0	0
032519	11:43:07	11:57:00	832643	5.0.10.0	4_exp_AMP_EVA_AWA_CON	176	Rpleas_acq	Oppo	Lpleas	Amasked	CS_A	2pleas	distractor1	EVAbeforeCON	AMP_CSunple	AMP23	7	20	0	0	300	300	0	0	256	50	0	1	0	0	0	1	blank2r.bmp	0	1	CPLW	0	1	blank2r.bmp	79	22	pic22.bmp	199	1	whitenoise_No3.bmp	306	0	0	0	0	0	0	0	0	0	0	0	0	0	0	0	0	0	0	0	0	0	0	0	0	0	0	0	0	0	0	0	0	0	0	0	0	0	0	0
032519	11:43:07	11:57:02	834043	5.0.10.0	4_exp_AMP_EVA_AWA_CON	176	Rpleas_acq	Oppo	Lpleas	Amasked	CS_A	2pleas	distractor1	EVAbeforeCON	AMP_CSpleas	AMP23	7	21	0	0	300	300	0	0	491	50	0	0	0	0	0	1	blank2r.bmp	0	1	DHJF	0	1	blank2r.bmp	79	73	pic73.bmp	199	1	whitenoise_No3.bmp	306	0	0	0	0	0	0	0	0	0	0	0	0	0	0	0	0	0	0	0	0	0	0	0	0	0	0	0	0	0	0	0	0	0	0	0	0	0	0	0
032519	11:43:07	11:57:03	835602	5.0.10.0	4_exp_AMP_EVA_AWA_CON	176	Rpleas_acq	Oppo	Lpleas	Amasked	CS_A	2pleas	distractor1	EVAbeforeCON	AMP_CSunple	AMP23	7	22	0	0	300	300	0	0	621	50	0	1	0	0	0	1	blank2r.bmp	0	1	CPLW	0	1	blank2r.bmp	79	120	pic120.bmp	199	1	whitenoise_No3.bmp	306	0	0	0	0	0	0	0	0	0	0	0	0	0	0	0	0	0	0	0	0	0	0	0	0	0	0	0	0	0	0	0	0	0	0	0	0	0	0	0
032519	11:43:07	11:57:04	836575	5.0.10.0	4_exp_AMP_EVA_AWA_CON	176	Rpleas_acq	Oppo	Lpleas	Amasked	CS_A	2pleas	distractor1	EVAbeforeCON	AMP_distractor	AMP23	7	23	0	0	300	300	0	0	59	46	0	0	0	0	0	1	blank2r.bmp	0	1	ZGXT	0	1	blank2r.bmp	79	133	pic133.bmp	199	1	whitenoise_No3.bmp	306	0	0	0	0	0	0	0	0	0	0	0	0	0	0	0	0	0	0	0	0	0	0	0	0	0	0	0	0	0	0	0	0	0	0	0	0	0	0	0
032519	11:43:07	11:57:05	837588	5.0.10.0	4_exp_AMP_EVA_AWA_CON	176	Rpleas_acq	Oppo	Lpleas	Amasked	CS_A	2pleas	distractor1	EVAbeforeCON	AMP_distractor	AMP23	7	24	0	0	300	300	0	0	85	46	0	0	0	0	0	1	blank2r.bmp	0	1	ZGXT	0	1	blank2r.bmp	79	74	pic74.bmp	199	1	whitenoise_No3.bmp	306	0	0	0	0	0	0	0	0	0	0	0	0	0	0	0	0	0	0	0	0	0	0	0	0	0	0	0	0	0	0	0	0	0	0	0	0	0	0	0
032519	11:43:07	11:57:07	839734	5.0.10.0	4_exp_AMP_EVA_AWA_CON	176	Rpleas_acq	Oppo	Lpleas	Amasked	CS_A	2pleas	distractor1	EVAbeforeCON	AMP_CSunple	AMP23	7	25	0	0	300	300	0	0	1232	50	0	1	0	0	0	1	blank2r.bmp	0	1	CPLW	0	1	blank2r.bmp	79	99	pic99.bmp	199	1	whitenoise_No3.bmp	306	0	0	0	0	0	0	0	0	0	0	0	0	0	0	0	0	0	0	0	0	0	0	0	0	0	0	0	0	0	0	0	0	0	0	0	0	0	0	0
032519	11:43:07	11:57:08	840880	5.0.10.0	4_exp_AMP_EVA_AWA_CON	176	Rpleas_acq	Oppo	Lpleas	Amasked	CS_A	2pleas	distractor1	EVAbeforeCON	AMP_CSpleas	AMP23	7	26	0	0	300	300	0	0	216	46	0	1	0	0	0	1	blank2r.bmp	0	1	DHJF	0	1	blank2r.bmp	79	46	pic46.bmp	199	1	whitenoise_No3.bmp	306	0	0	0	0	0	0	0	0	0	0	0	0	0	0	0	0	0	0	0	0	0	0	0	0	0	0	0	0	0	0	0	0	0	0	0	0	0	0	0
032519	11:43:07	11:57:10	842732	5.0.10.0	4_exp_AMP_EVA_AWA_CON	176	Rpleas_acq	Oppo	Lpleas	Amasked	CS_A	2pleas	distractor1	EVAbeforeCON	AMP_CSpleas	AMP23	7	27	0	0	300	300	0	0	937	46	0	1	0	0	0	1	blank2r.bmp	0	1	DHJF	0	1	blank2r.bmp	79	19	pic19.bmp	199	1	whitenoise_No3.bmp	306	0	0	0	0	0	0	0	0	0	0	0	0	0	0	0	0	0	0	0	0	0	0	0	0	0	0	0	0	0	0	0	0	0	0	0	0	0	0	0
032519	11:43:07	11:57:12	844225	5.0.10.0	4_exp_AMP_EVA_AWA_CON	176	Rpleas_acq	Oppo	Lpleas	Amasked	CS_A	2pleas	distractor1	EVAbeforeCON	AMP_distractor	AMP23	7	28	0	0	300	300	0	0	578	46	0	0	0	0	0	1	blank2r.bmp	0	1	ZGXT	0	1	blank2r.bmp	79	38	pic38.bmp	199	1	whitenoise_No3.bmp	306	0	0	0	0	0	0	0	0	0	0	0	0	0	0	0	0	0	0	0	0	0	0	0	0	0	0	0	0	0	0	0	0	0	0	0	0	0	0	0
032519	11:43:07	11:57:13	845331	5.0.10.0	4_exp_AMP_EVA_AWA_CON	176	Rpleas_acq	Oppo	Lpleas	Amasked	CS_A	2pleas	distractor1	EVAbeforeCON	AMP_CSunple	AMP23	7	29	0	0	300	300	0	0	175	46	0	0	0	0	0	1	blank2r.bmp	0	1	CPLW	0	1	blank2r.bmp	79	141	pic141.bmp	199	1	whitenoise_No3.bmp	306	0	0	0	0	0	0	0	0	0	0	0	0	0	0	0	0	0	0	0	0	0	0	0	0	0	0	0	0	0	0	0	0	0	0	0	0	0	0	0
032519	11:43:07	11:57:14	846611	5.0.10.0	4_exp_AMP_EVA_AWA_CON	176	Rpleas_acq	Oppo	Lpleas	Amasked	CS_A	2pleas	distractor1	EVAbeforeCON	AMP_CSunple	AMP23	7	30	0	0	300	300	0	0	354	46	0	0	0	0	0	1	blank2r.bmp	0	1	CPLW	0	1	blank2r.bmp	79	24	pic24.bmp	199	1	whitenoise_No3.bmp	306	0	0	0	0	0	0	0	0	0	0	0	0	0	0	0	0	0	0	0	0	0	0	0	0	0	0	0	0	0	0	0	0	0	0	0	0	0	0	0
032519	11:43:07	11:57:15	847717	5.0.10.0	4_exp_AMP_EVA_AWA_CON	176	Rpleas_acq	Oppo	Lpleas	Amasked	CS_A	2pleas	distractor1	EVAbeforeCON	AMP_distractor	AMP23	7	31	0	0	300	300	0	0	177	50	0	0	0	0	0	1	blank2r.bmp	0	1	ZGXT	0	1	blank2r.bmp	79	4	pic4.bmp	199	1	whitenoise_No3.bmp	306	0	0	0	0	0	0	0	0	0	0	0	0	0	0	0	0	0	0	0	0	0	0	0	0	0	0	0	0	0	0	0	0	0	0	0	0	0	0	0
032519	11:43:07	11:57:16	848717	5.0.10.0	4_exp_AMP_EVA_AWA_CON	176	Rpleas_acq	Oppo	Lpleas	Amasked	CS_A	2pleas	distractor1	EVAbeforeCON	AMP_CSunple	AMP23	7	32	0	0	300	300	0	0	77	46	0	0	0	0	0	1	blank2r.bmp	0	1	CPLW	0	1	blank2r.bmp	79	68	pic68.bmp	199	1	whitenoise_No3.bmp	306	0	0	0	0	0	0	0	0	0	0	0	0	0	0	0	0	0	0	0	0	0	0	0	0	0	0	0	0	0	0	0	0	0	0	0	0	0	0	0
032519	11:43:07	11:57:17	849969	5.0.10.0	4_exp_AMP_EVA_AWA_CON	176	Rpleas_acq	Oppo	Lpleas	Amasked	CS_A	2pleas	distractor1	EVAbeforeCON	AMP_distractor	AMP23	7	33	0	0	300	300	0	0	325	50	0	0	0	0	0	1	blank2r.bmp	0	1	ZGXT	0	1	blank2r.bmp	79	39	pic39.bmp	199	1	whitenoise_No3.bmp	306	0	0	0	0	0	0	0	0	0	0	0	0	0	0	0	0	0	0	0	0	0	0	0	0	0	0	0	0	0	0	0	0	0	0	0	0	0	0	0
032519	11:43:07	11:57:19	851569	5.0.10.0	4_exp_AMP_EVA_AWA_CON	176	Rpleas_acq	Oppo	Lpleas	Amasked	CS_A	2pleas	distractor1	EVAbeforeCON	AMP_distractor	AMP23	7	34	0	0	300	300	0	0	685	50	0	0	0	0	0	1	blank2r.bmp	0	1	ZGXT	0	1	blank2r.bmp	79	94	pic94.bmp	199	1	whitenoise_No3.bmp	306	0	0	0	0	0	0	0	0	0	0	0	0	0	0	0	0	0	0	0	0	0	0	0	0	0	0	0	0	0	0	0	0	0	0	0	0	0	0	0
