date	time	script.currenttime	script.elapsedtime	build	script.currentexpt	subject	expressions.LRpleas_acq	expressions.SameOppo	expressions.condition_Lpleas	expressions.ABmasked	expressions.conditionCS_A	expressions.condition_1pleas	expressions.condition_distractor_AMP	expressions.AWACON_AMPEVA_first	trialcode	blockcode	blocknum	trialnum	windowcenter	inwindow	pretrialpause	posttrialpause	trialduration	trialtimeout	latency	response	expressions.correctedscore	correct	values.vis_performance	values.vis_rating_sum	values.vis_rating_mean	stimulusnumber1	stimulusitem1	stimulusonset1	stimulusnumber2	stimulusitem2	stimulusonset2	stimulusnumber3	stimulusitem3	stimulusonset3	stimulusnumber4	stimulusitem4	stimulusonset4	stimulusnumber5	stimulusitem5	stimulusonset5	stimulusnumber6	stimulusitem6	stimulusonset6	stimulusnumber7	stimulusitem7	stimulusonset7	stimulusnumber8	stimulusitem8	stimulusonset8	stimulusnumber9	stimulusitem9	stimulusonset9	stimulusnumber10	stimulusitem10	stimulusonset10	stimulusnumber11	stimulusitem11	stimulusonset11	stimulusnumber12	stimulusitem12	stimulusonset12	stimulusnumber13	stimulusitem13	stimulusonset13	stimulusnumber14	stimulusitem14	stimulusonset14	stimulusnumber15	stimulusitem15	stimulusonset15	stimulusnumber16	stimulusitem16	stimulusonset16	stimulusnumber17	stimulusitem17	stimulusonset17	stimulusnumber18	stimulusitem18	stimulusonset18
121718	13:59:16	14:00:37	80565	5.0.10.0	4_exp_AWA_CON_AMP_EVA	19	Rpleas_acq	Oppo	Rpleas	Bmasked	CS_B	1pleas	distractor2	CONbeforeEVA	acq_new_unple_masked	acq1_masked	1	1	0	0	300	300	0	0	582	46	0	1	0	0	0	1	blank2r.bmp	0	1	+	0	4	B4r.bmp	492	1	blank2r.bmp	786	3	B3r.bmp	786	1	blank2r.bmp	866	4	leiden	866	0	0	0	0	0	0	0	0	0	0	0	0	0	0	0	0	0	0	0	0	0	0	0	0	0	0	0	0	0	0	0	0	0
121718	13:59:16	14:00:39	82431	5.0.10.0	4_exp_AWA_CON_AMP_EVA	19	Rpleas_acq	Oppo	Rpleas	Bmasked	CS_B	2pleas	distractor2	CONbeforeEVA	acq_US_pleas_masked	acq1_masked	1	2	0	0	300	300	0	0	378	50	0	1	0	0	0	1	blank2r.bmp	0	1	+	0	1	B1r.bmp	492	1	blank2r.bmp	786	1	GKQX	786	1	blank2r.bmp	866	5	schön	866	0	0	0	0	0	0	0	0	0	0	0	0	0	0	0	0	0	0	0	0	0	0	0	0	0	0	0	0	0	0	0	0	0
121718	13:59:16	14:00:41	84350	5.0.10.0	4_exp_AWA_CON_AMP_EVA	19	Rpleas_acq	Oppo	Rpleas	Bmasked	CS_B	2pleas	distractor2	CONbeforeEVA	acq_US_unple_masked	acq1_masked	1	3	0	0	300	300	0	0	440	46	0	1	0	0	0	1	blank2r.bmp	0	1	+	0	2	B2r.bmp	492	1	blank2r.bmp	786	1	BMVZ	786	1	blank2r.bmp	866	3	schroff	866	0	0	0	0	0	0	0	0	0	0	0	0	0	0	0	0	0	0	0	0	0	0	0	0	0	0	0	0	0	0	0	0	0
121718	13:59:16	14:00:43	86509	5.0.10.0	4_exp_AWA_CON_AMP_EVA	19	Rpleas_acq	Oppo	Rpleas	Bmasked	CS_B	2pleas	distractor2	CONbeforeEVA	acq_new_pleas_masked	acq1_masked	1	4	0	0	300	300	0	0	475	46	0	0	0	0	0	1	blank2r.bmp	0	1	+	0	7	C3r.bmp	492	1	blank2r.bmp	786	6	C2r.bmp	786	1	blank2r.bmp	866	5	loyal	866	1	FEHLER	1372	0	0	0	0	0	0	0	0	0	0	0	0	0	0	0	0	0	0	0	0	0	0	0	0	0	0	0	0	0	0
121718	13:59:16	14:00:45	88308	5.0.10.0	4_exp_AWA_CON_AMP_EVA	19	Rpleas_acq	Oppo	Rpleas	Bmasked	CS_B	2pleas	distractor2	CONbeforeEVA	acq_US_unple_masked	acq1_masked	1	5	0	0	300	300	0	0	531	46	0	1	0	0	0	1	blank2r.bmp	0	1	+	0	6	C2r.bmp	492	1	blank2r.bmp	786	1	BMVZ	786	1	blank2r.bmp	866	5	schlecht	866	0	0	0	0	0	0	0	0	0	0	0	0	0	0	0	0	0	0	0	0	0	0	0	0	0	0	0	0	0	0	0	0	0
121718	13:59:16	14:00:47	90201	5.0.10.0	4_exp_AWA_CON_AMP_EVA	19	Rpleas_acq	Oppo	Rpleas	Bmasked	CS_B	2pleas	distractor2	CONbeforeEVA	acq_US_pleas_masked	acq1_masked	1	6	0	0	300	300	0	0	402	50	0	1	0	0	0	1	blank2r.bmp	0	1	+	0	3	B3r.bmp	492	1	blank2r.bmp	786	1	GKQX	786	1	blank2r.bmp	866	4	treu	866	0	0	0	0	0	0	0	0	0	0	0	0	0	0	0	0	0	0	0	0	0	0	0	0	0	0	0	0	0	0	0	0	0
121718	13:59:16	14:00:49	92174	5.0.10.0	4_exp_AWA_CON_AMP_EVA	19	Rpleas_acq	Oppo	Rpleas	Bmasked	CS_B	2pleas	distractor2	CONbeforeEVA	acq_new_unple_masked	acq1_masked	1	7	0	0	300	300	0	0	495	46	0	1	0	0	0	1	blank2r.bmp	0	1	+	0	5	C1r.bmp	492	1	blank2r.bmp	786	2	B2r.bmp	786	1	blank2r.bmp	866	6	hindern	866	0	0	0	0	0	0	0	0	0	0	0	0	0	0	0	0	0	0	0	0	0	0	0	0	0	0	0	0	0	0	0	0	0
121718	13:59:16	14:00:51	94133	5.0.10.0	4_exp_AWA_CON_AMP_EVA	19	Rpleas_acq	Oppo	Rpleas	Bmasked	CS_B	2pleas	distractor2	CONbeforeEVA	acq_new_unple_masked	acq1_masked	1	8	0	0	300	300	0	0	468	46	0	1	0	0	0	1	blank2r.bmp	0	1	+	0	8	C4r.bmp	492	1	blank2r.bmp	786	4	B4r.bmp	786	1	blank2r.bmp	866	3	rächen	866	0	0	0	0	0	0	0	0	0	0	0	0	0	0	0	0	0	0	0	0	0	0	0	0	0	0	0	0	0	0	0	0	0
121718	13:59:16	14:00:53	96158	5.0.10.0	4_exp_AWA_CON_AMP_EVA	19	Rpleas_acq	Oppo	Rpleas	Bmasked	CS_B	2pleas	distractor2	CONbeforeEVA	acq_US_unple_masked	acq1_masked	1	9	0	0	300	300	0	0	342	50	0	0	0	0	0	1	blank2r.bmp	0	1	+	0	6	C2r.bmp	492	1	blank2r.bmp	786	1	BMVZ	786	1	blank2r.bmp	866	1	eitel	866	1	FEHLER	1239	0	0	0	0	0	0	0	0	0	0	0	0	0	0	0	0	0	0	0	0	0	0	0	0	0	0	0	0	0	0
121718	13:59:16	14:00:55	97904	5.0.10.0	4_exp_AWA_CON_AMP_EVA	19	Rpleas_acq	Oppo	Rpleas	Bmasked	CS_B	2pleas	distractor2	CONbeforeEVA	acq_new_pleas_masked	acq1_masked	1	10	0	0	300	300	0	0	474	50	0	1	0	0	0	1	blank2r.bmp	0	1	+	0	8	C4r.bmp	492	1	blank2r.bmp	786	1	B1r.bmp	786	1	blank2r.bmp	866	2	spielen	866	0	0	0	0	0	0	0	0	0	0	0	0	0	0	0	0	0	0	0	0	0	0	0	0	0	0	0	0	0	0	0	0	0
121718	13:59:16	14:00:57	100077	5.0.10.0	4_exp_AWA_CON_AMP_EVA	19	Rpleas_acq	Oppo	Rpleas	Bmasked	CS_B	2pleas	distractor2	CONbeforeEVA	acq_new_pleas_masked	acq1_masked	1	11	0	0	300	300	0	0	484	46	0	0	0	0	0	1	blank2r.bmp	0	1	+	0	4	B4r.bmp	492	1	blank2r.bmp	786	7	C3r.bmp	786	1	blank2r.bmp	866	3	retten	866	1	FEHLER	1386	0	0	0	0	0	0	0	0	0	0	0	0	0	0	0	0	0	0	0	0	0	0	0	0	0	0	0	0	0	0
121718	13:59:16	14:00:59	101943	5.0.10.0	4_exp_AWA_CON_AMP_EVA	19	Rpleas_acq	Oppo	Rpleas	Bmasked	CS_B	2pleas	distractor2	CONbeforeEVA	acq_US_pleas_masked	acq1_masked	1	12	0	0	300	300	0	0	597	50	0	1	0	0	0	1	blank2r.bmp	0	1	+	0	1	B1r.bmp	492	1	blank2r.bmp	786	1	GKQX	786	1	blank2r.bmp	866	2	freundlich	866	0	0	0	0	0	0	0	0	0	0	0	0	0	0	0	0	0	0	0	0	0	0	0	0	0	0	0	0	0	0	0	0	0
121718	13:59:16	14:01:01	103969	5.0.10.0	4_exp_AWA_CON_AMP_EVA	19	Rpleas_acq	Oppo	Rpleas	Bmasked	CS_B	2pleas	distractor2	CONbeforeEVA	acq_US_pleas_masked	acq1_masked	1	13	0	0	300	300	0	0	534	50	0	1	0	0	0	1	blank2r.bmp	0	1	+	0	2	B2r.bmp	492	1	blank2r.bmp	786	1	GKQX	786	1	blank2r.bmp	866	1	ehrlich	866	0	0	0	0	0	0	0	0	0	0	0	0	0	0	0	0	0	0	0	0	0	0	0	0	0	0	0	0	0	0	0	0	0
121718	13:59:16	14:01:03	106048	5.0.10.0	4_exp_AWA_CON_AMP_EVA	19	Rpleas_acq	Oppo	Rpleas	Bmasked	CS_B	2pleas	distractor2	CONbeforeEVA	acq_new_unple_masked	acq1_masked	1	14	0	0	300	300	0	0	591	46	0	1	0	0	0	1	blank2r.bmp	0	1	+	0	3	B3r.bmp	492	1	blank2r.bmp	786	5	C1r.bmp	786	1	blank2r.bmp	866	5	lasch	866	0	0	0	0	0	0	0	0	0	0	0	0	0	0	0	0	0	0	0	0	0	0	0	0	0	0	0	0	0	0	0	0	0
121718	13:59:16	14:01:05	107953	5.0.10.0	4_exp_AWA_CON_AMP_EVA	19	Rpleas_acq	Oppo	Rpleas	Bmasked	CS_B	2pleas	distractor2	CONbeforeEVA	acq_US_unple_masked	acq1_masked	1	15	0	0	300	300	0	0	426	46	0	1	0	0	0	1	blank2r.bmp	0	1	+	0	7	C3r.bmp	492	1	blank2r.bmp	786	1	BMVZ	786	1	blank2r.bmp	866	4	tot	866	0	0	0	0	0	0	0	0	0	0	0	0	0	0	0	0	0	0	0	0	0	0	0	0	0	0	0	0	0	0	0	0	0
121718	13:59:16	14:01:07	110046	5.0.10.0	4_exp_AWA_CON_AMP_EVA	19	Rpleas_acq	Oppo	Rpleas	Bmasked	CS_B	2pleas	distractor2	CONbeforeEVA	acq_US_pleas_masked	acq1_masked	1	16	0	0	300	300	0	0	618	50	0	1	0	0	0	1	blank2r.bmp	0	1	+	0	5	C1r.bmp	492	1	blank2r.bmp	786	1	GKQX	786	1	blank2r.bmp	866	6	tolerant	866	0	0	0	0	0	0	0	0	0	0	0	0	0	0	0	0	0	0	0	0	0	0	0	0	0	0	0	0	0	0	0	0	0
121718	13:59:16	14:01:09	112032	5.0.10.0	4_exp_AWA_CON_AMP_EVA	19	Rpleas_acq	Oppo	Rpleas	Bmasked	CS_B	2pleas	distractor2	CONbeforeEVA	acq_new_pleas_masked	acq1_masked	1	17	0	0	300	300	0	0	498	50	0	1	0	0	0	1	blank2r.bmp	0	1	+	0	4	B4r.bmp	492	1	blank2r.bmp	786	8	C4r.bmp	786	1	blank2r.bmp	866	1	fair	866	0	0	0	0	0	0	0	0	0	0	0	0	0	0	0	0	0	0	0	0	0	0	0	0	0	0	0	0	0	0	0	0	0
121718	13:59:16	14:01:11	113911	5.0.10.0	4_exp_AWA_CON_AMP_EVA	19	Rpleas_acq	Oppo	Rpleas	Bmasked	CS_B	2pleas	distractor2	CONbeforeEVA	acq_new_pleas_masked	acq1_masked	1	18	0	0	300	300	0	0	398	50	0	1	0	0	0	1	blank2r.bmp	0	1	+	0	1	B1r.bmp	492	1	blank2r.bmp	786	6	C2r.bmp	786	1	blank2r.bmp	866	4	lachen	866	0	0	0	0	0	0	0	0	0	0	0	0	0	0	0	0	0	0	0	0	0	0	0	0	0	0	0	0	0	0	0	0	0
121718	13:59:16	14:01:13	115857	5.0.10.0	4_exp_AWA_CON_AMP_EVA	19	Rpleas_acq	Oppo	Rpleas	Bmasked	CS_B	2pleas	distractor2	CONbeforeEVA	acq_new_unple_masked	acq1_masked	1	19	0	0	300	300	0	0	463	46	0	1	0	0	0	1	blank2r.bmp	0	1	+	0	7	C3r.bmp	492	1	blank2r.bmp	786	2	B2r.bmp	786	1	blank2r.bmp	866	2	strafen	866	0	0	0	0	0	0	0	0	0	0	0	0	0	0	0	0	0	0	0	0	0	0	0	0	0	0	0	0	0	0	0	0	0
121718	13:59:16	14:01:15	117763	5.0.10.0	4_exp_AWA_CON_AMP_EVA	19	Rpleas_acq	Oppo	Rpleas	Bmasked	CS_B	2pleas	distractor2	CONbeforeEVA	acq_new_unple_masked	acq1_masked	1	20	0	0	300	300	0	0	418	46	0	1	0	0	0	1	blank2r.bmp	0	1	+	0	5	C1r.bmp	492	1	blank2r.bmp	786	7	C3r.bmp	786	1	blank2r.bmp	866	1	faul	866	0	0	0	0	0	0	0	0	0	0	0	0	0	0	0	0	0	0	0	0	0	0	0	0	0	0	0	0	0	0	0	0	0
121718	13:59:16	14:01:17	119669	5.0.10.0	4_exp_AWA_CON_AMP_EVA	19	Rpleas_acq	Oppo	Rpleas	Bmasked	CS_B	2pleas	distractor2	CONbeforeEVA	acq_US_unple_masked	acq1_masked	1	21	0	0	300	300	0	0	426	46	0	1	0	0	0	1	blank2r.bmp	0	1	+	0	2	B2r.bmp	492	1	blank2r.bmp	786	1	BMVZ	786	1	blank2r.bmp	866	6	tyrannisch	866	0	0	0	0	0	0	0	0	0	0	0	0	0	0	0	0	0	0	0	0	0	0	0	0	0	0	0	0	0	0	0	0	0
121718	13:59:16	14:01:18	121574	5.0.10.0	4_exp_AWA_CON_AMP_EVA	19	Rpleas_acq	Oppo	Rpleas	Bmasked	CS_B	2pleas	distractor2	CONbeforeEVA	acq_new_pleas_masked	acq1_masked	1	22	0	0	300	300	0	0	425	50	0	1	0	0	0	1	blank2r.bmp	0	1	+	0	6	C2r.bmp	492	1	blank2r.bmp	786	8	C4r.bmp	786	1	blank2r.bmp	866	6	helfen	866	0	0	0	0	0	0	0	0	0	0	0	0	0	0	0	0	0	0	0	0	0	0	0	0	0	0	0	0	0	0	0	0	0
121718	13:59:16	14:01:21	123654	5.0.10.0	4_exp_AWA_CON_AMP_EVA	19	Rpleas_acq	Oppo	Rpleas	Bmasked	CS_B	2pleas	distractor2	CONbeforeEVA	acq_US_unple_masked	acq1_masked	1	23	0	0	300	300	0	0	387	50	0	0	0	0	0	1	blank2r.bmp	0	1	+	0	3	B3r.bmp	492	1	blank2r.bmp	786	1	BMVZ	786	1	blank2r.bmp	866	2	fanatisch	866	1	FEHLER	1292	0	0	0	0	0	0	0	0	0	0	0	0	0	0	0	0	0	0	0	0	0	0	0	0	0	0	0	0	0	0
121718	13:59:16	14:01:22	125346	5.0.10.0	4_exp_AWA_CON_AMP_EVA	19	Rpleas_acq	Oppo	Rpleas	Bmasked	CS_B	2pleas	distractor2	CONbeforeEVA	acq_US_pleas_masked	acq1_masked	1	24	0	0	300	300	0	0	428	50	0	1	0	0	0	1	blank2r.bmp	0	1	+	0	8	C4r.bmp	492	1	blank2r.bmp	786	1	GKQX	786	1	blank2r.bmp	866	3	schlau	866	0	0	0	0	0	0	0	0	0	0	0	0	0	0	0	0	0	0	0	0	0	0	0	0	0	0	0	0	0	0	0	0	0
121718	13:59:16	14:01:24	127505	5.0.10.0	4_exp_AWA_CON_AMP_EVA	19	Rpleas_acq	Oppo	Rpleas	Bmasked	CS_B	2pleas	distractor2	CONbeforeEVA	acq_US_unple_masked	acq1_masked	1	25	0	0	300	300	0	0	467	50	0	0	0	0	0	1	blank2r.bmp	0	1	+	0	2	B2r.bmp	492	1	blank2r.bmp	786	1	BMVZ	786	1	blank2r.bmp	866	2	fanatisch	866	1	FEHLER	1372	0	0	0	0	0	0	0	0	0	0	0	0	0	0	0	0	0	0	0	0	0	0	0	0	0	0	0	0	0	0
121718	13:59:16	14:01:26	129344	5.0.10.0	4_exp_AWA_CON_AMP_EVA	19	Rpleas_acq	Oppo	Rpleas	Bmasked	CS_B	2pleas	distractor2	CONbeforeEVA	acq_new_unple_masked	acq1_masked	1	26	0	0	300	300	0	0	566	46	0	1	0	0	0	1	blank2r.bmp	0	1	+	0	4	B4r.bmp	492	1	blank2r.bmp	786	5	C1r.bmp	786	1	blank2r.bmp	866	4	leiden	866	0	0	0	0	0	0	0	0	0	0	0	0	0	0	0	0	0	0	0	0	0	0	0	0	0	0	0	0	0	0	0	0	0
121718	13:59:16	14:01:28	131424	5.0.10.0	4_exp_AWA_CON_AMP_EVA	19	Rpleas_acq	Oppo	Rpleas	Bmasked	CS_B	2pleas	distractor2	CONbeforeEVA	acq_new_unple_masked	acq1_masked	1	27	0	0	300	300	0	0	595	46	0	1	0	0	0	1	blank2r.bmp	0	1	+	0	6	C2r.bmp	492	1	blank2r.bmp	786	3	B3r.bmp	786	1	blank2r.bmp	866	6	hindern	866	0	0	0	0	0	0	0	0	0	0	0	0	0	0	0	0	0	0	0	0	0	0	0	0	0	0	0	0	0	0	0	0	0
121718	13:59:16	14:01:30	133409	5.0.10.0	4_exp_AWA_CON_AMP_EVA	19	Rpleas_acq	Oppo	Rpleas	Bmasked	CS_B	2pleas	distractor2	CONbeforeEVA	acq_new_pleas_masked	acq1_masked	1	28	0	0	300	300	0	0	504	50	0	1	0	0	0	1	blank2r.bmp	0	1	+	0	7	C3r.bmp	492	1	blank2r.bmp	786	4	B4r.bmp	786	1	blank2r.bmp	866	5	loyal	866	0	0	0	0	0	0	0	0	0	0	0	0	0	0	0	0	0	0	0	0	0	0	0	0	0	0	0	0	0	0	0	0	0
121718	13:59:16	14:01:32	135329	5.0.10.0	4_exp_AWA_CON_AMP_EVA	19	Rpleas_acq	Oppo	Rpleas	Bmasked	CS_B	2pleas	distractor2	CONbeforeEVA	acq_US_pleas_masked	acq1_masked	1	29	0	0	300	300	0	0	411	50	0	1	0	0	0	1	blank2r.bmp	0	1	+	0	8	C4r.bmp	492	1	blank2r.bmp	786	1	GKQX	786	1	blank2r.bmp	866	5	schön	866	0	0	0	0	0	0	0	0	0	0	0	0	0	0	0	0	0	0	0	0	0	0	0	0	0	0	0	0	0	0	0	0	0
121718	13:59:16	14:01:34	137288	5.0.10.0	4_exp_AWA_CON_AMP_EVA	19	Rpleas_acq	Oppo	Rpleas	Bmasked	CS_B	2pleas	distractor2	CONbeforeEVA	acq_new_unple_masked	acq1_masked	1	30	0	0	300	300	0	0	488	46	0	1	0	0	0	1	blank2r.bmp	0	1	+	0	3	B3r.bmp	492	1	blank2r.bmp	786	1	B1r.bmp	786	1	blank2r.bmp	866	1	faul	866	0	0	0	0	0	0	0	0	0	0	0	0	0	0	0	0	0	0	0	0	0	0	0	0	0	0	0	0	0	0	0	0	0
121718	13:59:16	14:01:36	139180	5.0.10.0	4_exp_AWA_CON_AMP_EVA	19	Rpleas_acq	Oppo	Rpleas	Bmasked	CS_B	2pleas	distractor2	CONbeforeEVA	acq_US_pleas_masked	acq1_masked	1	31	0	0	300	300	0	0	405	50	0	1	0	0	0	1	blank2r.bmp	0	1	+	0	5	C1r.bmp	492	1	blank2r.bmp	786	1	GKQX	786	1	blank2r.bmp	866	1	ehrlich	866	0	0	0	0	0	0	0	0	0	0	0	0	0	0	0	0	0	0	0	0	0	0	0	0	0	0	0	0	0	0	0	0	0
121718	13:59:16	14:01:38	141126	5.0.10.0	4_exp_AWA_CON_AMP_EVA	19	Rpleas_acq	Oppo	Rpleas	Bmasked	CS_B	2pleas	distractor2	CONbeforeEVA	acq_US_pleas_masked	acq1_masked	1	32	0	0	300	300	0	0	468	50	0	1	0	0	0	1	blank2r.bmp	0	1	+	0	1	B1r.bmp	492	1	blank2r.bmp	786	1	GKQX	786	1	blank2r.bmp	866	3	schlau	866	0	0	0	0	0	0	0	0	0	0	0	0	0	0	0	0	0	0	0	0	0	0	0	0	0	0	0	0	0	0	0	0	0
121718	13:59:16	14:01:40	143005	5.0.10.0	4_exp_AWA_CON_AMP_EVA	19	Rpleas_acq	Oppo	Rpleas	Bmasked	CS_B	2pleas	distractor2	CONbeforeEVA	acq_US_unple_masked	acq1_masked	1	33	0	0	300	300	0	0	392	46	0	1	0	0	0	1	blank2r.bmp	0	1	+	0	2	B2r.bmp	492	1	blank2r.bmp	786	1	BMVZ	786	1	blank2r.bmp	866	5	schlecht	866	0	0	0	0	0	0	0	0	0	0	0	0	0	0	0	0	0	0	0	0	0	0	0	0	0	0	0	0	0	0	0	0	0
121718	13:59:16	14:01:42	144911	5.0.10.0	4_exp_AWA_CON_AMP_EVA	19	Rpleas_acq	Oppo	Rpleas	Bmasked	CS_B	2pleas	distractor2	CONbeforeEVA	acq_new_pleas_masked	acq1_masked	1	34	0	0	300	300	0	0	438	50	0	1	0	0	0	1	blank2r.bmp	0	1	+	0	4	B4r.bmp	492	1	blank2r.bmp	786	7	C3r.bmp	786	1	blank2r.bmp	866	1	fair	866	0	0	0	0	0	0	0	0	0	0	0	0	0	0	0	0	0	0	0	0	0	0	0	0	0	0	0	0	0	0	0	0	0
121718	13:59:16	14:01:44	146777	5.0.10.0	4_exp_AWA_CON_AMP_EVA	19	Rpleas_acq	Oppo	Rpleas	Bmasked	CS_B	2pleas	distractor2	CONbeforeEVA	acq_US_unple_masked	acq1_masked	1	35	0	0	300	300	0	0	381	46	0	1	0	0	0	1	blank2r.bmp	0	1	+	0	1	B1r.bmp	492	1	blank2r.bmp	786	1	BMVZ	786	1	blank2r.bmp	866	3	schroff	866	0	0	0	0	0	0	0	0	0	0	0	0	0	0	0	0	0	0	0	0	0	0	0	0	0	0	0	0	0	0	0	0	0
121718	13:59:16	14:01:46	148656	5.0.10.0	4_exp_AWA_CON_AMP_EVA	19	Rpleas_acq	Oppo	Rpleas	Bmasked	CS_B	2pleas	distractor2	CONbeforeEVA	acq_new_pleas_masked	acq1_masked	1	36	0	0	300	300	0	0	391	50	0	1	0	0	0	1	blank2r.bmp	0	1	+	0	5	C1r.bmp	492	1	blank2r.bmp	786	1	B1r.bmp	786	1	blank2r.bmp	866	6	helfen	866	0	0	0	0	0	0	0	0	0	0	0	0	0	0	0	0	0	0	0	0	0	0	0	0	0	0	0	0	0	0	0	0	0
121718	13:59:16	14:02:10	173539	5.0.10.0	4_exp_AWA_CON_AMP_EVA	19	Rpleas_acq	Oppo	Rpleas	Bmasked	CS_B	2pleas	distractor2	CONbeforeEVA	acq_new_pleas_masked	acq2_masked	2	1	480	1	300	300	0	0	482	50	0	1	0	0	0	1	blank2r.bmp	0	1	+	0	3	B3r.bmp	492	1	blank2r.bmp	786	8	C4r.bmp	786	1	blank2r.bmp	866	2	spielen	866	1	!	1319	1	!	1386	0	0	0	0	0	0	0	0	0	0	0	0	0	0	0	0	0	0	0	0	0	0	0	0	0	0	0
121718	13:59:16	14:02:13	175831	5.0.10.0	4_exp_AWA_CON_AMP_EVA	19	Rpleas_acq	Oppo	Rpleas	Bmasked	CS_B	2pleas	distractor2	CONbeforeEVA	acq_US_pleas_masked	acq2_masked	2	2	480	0	300	300	0	0	311	46	0	0	0	0	0	1	blank2r.bmp	0	1	+	0	8	C4r.bmp	492	1	blank2r.bmp	786	1	GKQX	786	1	blank2r.bmp	866	6	tolerant	866	1	FEHLER	1519	1	!	-1	1	!	-1	0	0	0	0	0	0	0	0	0	0	0	0	0	0	0	0	0	0	0	0	0	0	0	0
121718	13:59:16	14:02:15	177804	5.0.10.0	4_exp_AWA_CON_AMP_EVA	19	Rpleas_acq	Oppo	Rpleas	Bmasked	CS_B	2pleas	distractor2	CONbeforeEVA	acq_US_pleas_masked	acq2_masked	2	3	480	0	300	300	0	0	406	50	0	1	0	0	0	1	blank2r.bmp	0	1	+	0	7	C3r.bmp	492	1	blank2r.bmp	786	1	GKQX	786	1	blank2r.bmp	866	2	freundlich	866	1	!	-1	1	!	-1	0	0	0	0	0	0	0	0	0	0	0	0	0	0	0	0	0	0	0	0	0	0	0	0	0	0	0
121718	13:59:16	14:02:17	180190	5.0.10.0	4_exp_AWA_CON_AMP_EVA	19	Rpleas_acq	Oppo	Rpleas	Bmasked	CS_B	2pleas	distractor2	CONbeforeEVA	acq_US_unple_masked	acq2_masked	2	4	480	0	300	300	0	0	606	46	0	1	0	0	0	1	blank2r.bmp	0	1	+	0	6	C2r.bmp	492	1	blank2r.bmp	786	1	BMVZ	786	1	blank2r.bmp	866	4	tot	866	1	!	1319	1	!	-1	0	0	0	0	0	0	0	0	0	0	0	0	0	0	0	0	0	0	0	0	0	0	0	0	0	0	0
121718	13:59:16	14:02:19	182495	5.0.10.0	4_exp_AWA_CON_AMP_EVA	19	Rpleas_acq	Oppo	Rpleas	Bmasked	CS_B	2pleas	distractor2	CONbeforeEVA	acq_new_unple_masked	acq2_masked	2	5	480	0	300	300	0	0	304	50	0	0	0	0	0	1	blank2r.bmp	0	1	+	0	2	B2r.bmp	492	1	blank2r.bmp	786	4	B4r.bmp	786	1	blank2r.bmp	866	3	rächen	866	1	FEHLER	1506	1	!	-1	1	!	-1	0	0	0	0	0	0	0	0	0	0	0	0	0	0	0	0	0	0	0	0	0	0	0	0
121718	13:59:16	14:02:22	184681	5.0.10.0	4_exp_AWA_CON_AMP_EVA	19	Rpleas_acq	Oppo	Rpleas	Bmasked	CS_B	2pleas	distractor2	CONbeforeEVA	acq_new_pleas_masked	acq2_masked	2	6	480	0	300	300	0	0	396	46	0	0	0	0	0	1	blank2r.bmp	0	1	+	0	5	C1r.bmp	492	1	blank2r.bmp	786	2	B2r.bmp	786	1	blank2r.bmp	866	3	retten	866	1	FEHLER	1599	1	!	-1	1	!	-1	0	0	0	0	0	0	0	0	0	0	0	0	0	0	0	0	0	0	0	0	0	0	0	0
121718	13:59:16	14:02:24	186747	5.0.10.0	4_exp_AWA_CON_AMP_EVA	19	Rpleas_acq	Oppo	Rpleas	Bmasked	CS_B	2pleas	distractor2	CONbeforeEVA	acq_US_pleas_masked	acq2_masked	2	7	480	1	300	300	0	0	483	50	0	1	0	0	0	1	blank2r.bmp	0	1	+	0	8	C4r.bmp	492	1	blank2r.bmp	786	1	GKQX	786	1	blank2r.bmp	866	4	treu	866	1	!	1319	1	!	1386	0	0	0	0	0	0	0	0	0	0	0	0	0	0	0	0	0	0	0	0	0	0	0	0	0	0	0
121718	13:59:16	14:02:26	189226	5.0.10.0	4_exp_AWA_CON_AMP_EVA	19	Rpleas_acq	Oppo	Rpleas	Bmasked	CS_B	2pleas	distractor2	CONbeforeEVA	acq_new_unple_masked	acq2_masked	2	8	480	0	300	300	0	0	709	46	0	1	0	0	0	1	blank2r.bmp	0	1	+	0	3	B3r.bmp	492	1	blank2r.bmp	786	6	C2r.bmp	786	1	blank2r.bmp	866	5	lasch	866	1	!	1319	1	!	-1	0	0	0	0	0	0	0	0	0	0	0	0	0	0	0	0	0	0	0	0	0	0	0	0	0	0	0
121718	13:59:16	14:02:28	191585	5.0.10.0	4_exp_AWA_CON_AMP_EVA	19	Rpleas_acq	Oppo	Rpleas	Bmasked	CS_B	2pleas	distractor2	CONbeforeEVA	acq_new_pleas_masked	acq2_masked	2	9	480	0	300	300	0	0	559	50	0	1	0	0	0	1	blank2r.bmp	0	1	+	0	6	C2r.bmp	492	1	blank2r.bmp	786	3	B3r.bmp	786	1	blank2r.bmp	866	4	lachen	866	1	!	1319	1	!	-1	0	0	0	0	0	0	0	0	0	0	0	0	0	0	0	0	0	0	0	0	0	0	0	0	0	0	0
121718	13:59:16	14:02:31	194090	5.0.10.0	4_exp_AWA_CON_AMP_EVA	19	Rpleas_acq	Oppo	Rpleas	Bmasked	CS_B	2pleas	distractor2	CONbeforeEVA	acq_US_unple_masked	acq2_masked	2	10	480	1	300	300	0	0	479	50	0	0	0	0	0	1	blank2r.bmp	0	1	+	0	1	B1r.bmp	492	1	blank2r.bmp	786	1	BMVZ	786	1	blank2r.bmp	866	1	eitel	866	1	FEHLER	1705	1	!	1319	1	!	1386	0	0	0	0	0	0	0	0	0	0	0	0	0	0	0	0	0	0	0	0	0	0	0	0
121718	13:59:16	14:02:33	196209	5.0.10.0	4_exp_AWA_CON_AMP_EVA	19	Rpleas_acq	Oppo	Rpleas	Bmasked	CS_B	2pleas	distractor2	CONbeforeEVA	acq_new_unple_masked	acq2_masked	2	11	480	0	300	300	0	0	559	46	0	1	0	0	0	1	blank2r.bmp	0	1	+	0	7	C3r.bmp	492	1	blank2r.bmp	786	5	C1r.bmp	786	1	blank2r.bmp	866	2	strafen	866	1	!	1319	1	!	-1	0	0	0	0	0	0	0	0	0	0	0	0	0	0	0	0	0	0	0	0	0	0	0	0	0	0	0
121718	13:59:16	14:02:35	198369	5.0.10.0	4_exp_AWA_CON_AMP_EVA	19	Rpleas_acq	Oppo	Rpleas	Bmasked	CS_B	2pleas	distractor2	CONbeforeEVA	acq_US_unple_masked	acq2_masked	2	12	480	0	300	300	0	0	375	46	0	1	0	0	0	1	blank2r.bmp	0	1	+	0	4	B4r.bmp	492	1	blank2r.bmp	786	1	BMVZ	786	1	blank2r.bmp	866	6	tyrannisch	866	1	!	-1	1	!	-1	0	0	0	0	0	0	0	0	0	0	0	0	0	0	0	0	0	0	0	0	0	0	0	0	0	0	0
121718	13:59:16	14:02:38	200714	5.0.10.0	4_exp_AWA_CON_AMP_EVA	19	Rpleas_acq	Oppo	Rpleas	Bmasked	CS_B	2pleas	distractor2	CONbeforeEVA	acq_new_pleas_masked	acq2_masked	2	13	480	0	300	300	0	0	559	50	0	1	0	0	0	1	blank2r.bmp	0	1	+	0	8	C4r.bmp	492	1	blank2r.bmp	786	7	C3r.bmp	786	1	blank2r.bmp	866	3	retten	866	1	!	1319	1	!	-1	0	0	0	0	0	0	0	0	0	0	0	0	0	0	0	0	0	0	0	0	0	0	0	0	0	0	0
121718	13:59:16	14:02:40	202873	5.0.10.0	4_exp_AWA_CON_AMP_EVA	19	Rpleas_acq	Oppo	Rpleas	Bmasked	CS_B	2pleas	distractor2	CONbeforeEVA	acq_US_pleas_masked	acq2_masked	2	14	480	0	300	300	0	0	375	50	0	1	0	0	0	1	blank2r.bmp	0	1	+	0	2	B2r.bmp	492	1	blank2r.bmp	786	1	GKQX	786	1	blank2r.bmp	866	2	freundlich	866	1	!	-1	1	!	-1	0	0	0	0	0	0	0	0	0	0	0	0	0	0	0	0	0	0	0	0	0	0	0	0	0	0	0
121718	13:59:16	14:02:42	205112	5.0.10.0	4_exp_AWA_CON_AMP_EVA	19	Rpleas_acq	Oppo	Rpleas	Bmasked	CS_B	2pleas	distractor2	CONbeforeEVA	acq_new_pleas_masked	acq2_masked	2	15	480	1	300	300	0	0	426	50	0	1	0	0	0	1	blank2r.bmp	0	1	+	0	1	B1r.bmp	492	1	blank2r.bmp	786	2	B2r.bmp	786	1	blank2r.bmp	866	2	spielen	866	1	!	1319	1	!	1332	0	0	0	0	0	0	0	0	0	0	0	0	0	0	0	0	0	0	0	0	0	0	0	0	0	0	0
121718	13:59:16	14:02:44	207285	5.0.10.0	4_exp_AWA_CON_AMP_EVA	19	Rpleas_acq	Oppo	Rpleas	Bmasked	CS_B	2pleas	distractor2	CONbeforeEVA	acq_US_pleas_masked	acq2_masked	2	16	480	0	300	300	0	0	406	50	0	1	0	0	0	1	blank2r.bmp	0	1	+	0	3	B3r.bmp	492	1	blank2r.bmp	786	1	GKQX	786	1	blank2r.bmp	866	5	schön	866	1	!	-1	1	!	-1	0	0	0	0	0	0	0	0	0	0	0	0	0	0	0	0	0	0	0	0	0	0	0	0	0	0	0
121718	13:59:16	14:02:47	209657	5.0.10.0	4_exp_AWA_CON_AMP_EVA	19	Rpleas_acq	Oppo	Rpleas	Bmasked	CS_B	2pleas	distractor2	CONbeforeEVA	acq_new_unple_masked	acq2_masked	2	17	480	0	300	300	0	0	597	46	0	1	0	0	0	1	blank2r.bmp	0	1	+	0	4	B4r.bmp	492	1	blank2r.bmp	786	5	C1r.bmp	786	1	blank2r.bmp	866	2	strafen	866	1	!	1319	1	!	-1	0	0	0	0	0	0	0	0	0	0	0	0	0	0	0	0	0	0	0	0	0	0	0	0	0	0	0
121718	13:59:16	14:02:49	211830	5.0.10.0	4_exp_AWA_CON_AMP_EVA	19	Rpleas_acq	Oppo	Rpleas	Bmasked	CS_B	2pleas	distractor2	CONbeforeEVA	acq_new_pleas_masked	acq2_masked	2	18	480	0	300	300	0	0	386	50	0	1	0	0	0	1	blank2r.bmp	0	1	+	0	7	C3r.bmp	492	1	blank2r.bmp	786	1	B1r.bmp	786	1	blank2r.bmp	866	4	lachen	866	1	!	-1	1	!	-1	0	0	0	0	0	0	0	0	0	0	0	0	0	0	0	0	0	0	0	0	0	0	0	0	0	0	0
121718	13:59:16	14:02:51	214175	5.0.10.0	4_exp_AWA_CON_AMP_EVA	19	Rpleas_acq	Oppo	Rpleas	Bmasked	CS_B	2pleas	distractor2	CONbeforeEVA	acq_US_unple_masked	acq2_masked	2	19	480	1	300	300	0	0	523	46	0	1	0	0	0	1	blank2r.bmp	0	1	+	0	6	C2r.bmp	492	1	blank2r.bmp	786	1	BMVZ	786	1	blank2r.bmp	866	5	schlecht	866	1	!	1319	1	!	1426	0	0	0	0	0	0	0	0	0	0	0	0	0	0	0	0	0	0	0	0	0	0	0	0	0	0	0
121718	13:59:16	14:02:53	216548	5.0.10.0	4_exp_AWA_CON_AMP_EVA	19	Rpleas_acq	Oppo	Rpleas	Bmasked	CS_B	2pleas	distractor2	CONbeforeEVA	acq_US_pleas_masked	acq2_masked	2	20	480	0	300	300	0	0	611	50	0	1	0	0	0	1	blank2r.bmp	0	1	+	0	5	C1r.bmp	492	1	blank2r.bmp	786	1	GKQX	786	1	blank2r.bmp	866	6	tolerant	866	1	!	1319	1	!	-1	0	0	0	0	0	0	0	0	0	0	0	0	0	0	0	0	0	0	0	0	0	0	0	0	0	0	0
121718	13:59:16	14:02:56	218693	5.0.10.0	4_exp_AWA_CON_AMP_EVA	19	Rpleas_acq	Oppo	Rpleas	Bmasked	CS_B	2pleas	distractor2	CONbeforeEVA	acq_US_unple_masked	acq2_masked	2	21	480	0	300	300	0	0	361	46	0	1	0	0	0	1	blank2r.bmp	0	1	+	0	3	B3r.bmp	492	1	blank2r.bmp	786	1	BMVZ	786	1	blank2r.bmp	866	6	tyrannisch	866	1	!	-1	1	!	-1	0	0	0	0	0	0	0	0	0	0	0	0	0	0	0	0	0	0	0	0	0	0	0	0	0	0	0
121718	13:59:16	14:02:58	221106	5.0.10.0	4_exp_AWA_CON_AMP_EVA	19	Rpleas_acq	Oppo	Rpleas	Bmasked	CS_B	2pleas	distractor2	CONbeforeEVA	acq_new_unple_masked	acq2_masked	2	22	480	0	300	300	0	0	619	46	0	1	0	0	0	1	blank2r.bmp	0	1	+	0	7	C3r.bmp	492	1	blank2r.bmp	786	6	C2r.bmp	786	1	blank2r.bmp	866	1	faul	866	1	!	1319	1	!	-1	0	0	0	0	0	0	0	0	0	0	0	0	0	0	0	0	0	0	0	0	0	0	0	0	0	0	0
121718	13:59:16	14:03:00	223371	5.0.10.0	4_exp_AWA_CON_AMP_EVA	19	Rpleas_acq	Oppo	Rpleas	Bmasked	CS_B	2pleas	distractor2	CONbeforeEVA	acq_US_unple_masked	acq2_masked	2	23	480	1	300	300	0	0	455	46	0	1	0	0	0	1	blank2r.bmp	0	1	+	0	2	B2r.bmp	492	1	blank2r.bmp	786	1	BMVZ	786	1	blank2r.bmp	866	3	schroff	866	1	!	1319	1	!	1359	0	0	0	0	0	0	0	0	0	0	0	0	0	0	0	0	0	0	0	0	0	0	0	0	0	0	0
121718	13:59:16	14:03:03	225744	5.0.10.0	4_exp_AWA_CON_AMP_EVA	19	Rpleas_acq	Oppo	Rpleas	Bmasked	CS_B	2pleas	distractor2	CONbeforeEVA	acq_new_unple_masked	acq2_masked	2	24	480	0	300	300	0	0	585	46	0	1	0	0	0	1	blank2r.bmp	0	1	+	0	8	C4r.bmp	492	1	blank2r.bmp	786	3	B3r.bmp	786	1	blank2r.bmp	866	4	leiden	866	1	!	1319	1	!	-1	0	0	0	0	0	0	0	0	0	0	0	0	0	0	0	0	0	0	0	0	0	0	0	0	0	0	0
121718	13:59:16	14:03:05	227916	5.0.10.0	4_exp_AWA_CON_AMP_EVA	19	Rpleas_acq	Oppo	Rpleas	Bmasked	CS_B	2pleas	distractor2	CONbeforeEVA	acq_new_pleas_masked	acq2_masked	2	25	480	0	300	300	0	0	384	50	0	1	0	0	0	1	blank2r.bmp	0	1	+	0	4	B4r.bmp	492	1	blank2r.bmp	786	8	C4r.bmp	786	1	blank2r.bmp	866	1	fair	866	1	!	-1	1	!	-1	0	0	0	0	0	0	0	0	0	0	0	0	0	0	0	0	0	0	0	0	0	0	0	0	0	0	0
121718	13:59:16	14:03:07	230382	5.0.10.0	4_exp_AWA_CON_AMP_EVA	19	Rpleas_acq	Oppo	Rpleas	Bmasked	CS_B	2pleas	distractor2	CONbeforeEVA	acq_US_unple_masked	acq2_masked	2	26	480	1	300	300	0	0	441	50	0	0	0	0	0	1	blank2r.bmp	0	1	+	0	5	C1r.bmp	492	1	blank2r.bmp	786	1	BMVZ	786	1	blank2r.bmp	866	1	eitel	866	1	FEHLER	1665	1	!	1319	1	!	1346	0	0	0	0	0	0	0	0	0	0	0	0	0	0	0	0	0	0	0	0	0	0	0	0
121718	13:59:16	14:03:09	232541	5.0.10.0	4_exp_AWA_CON_AMP_EVA	19	Rpleas_acq	Oppo	Rpleas	Bmasked	CS_B	2pleas	distractor2	CONbeforeEVA	acq_new_pleas_masked	acq2_masked	2	27	480	0	300	300	0	0	601	50	0	1	0	0	0	1	blank2r.bmp	0	1	+	0	6	C2r.bmp	492	1	blank2r.bmp	786	4	B4r.bmp	786	1	blank2r.bmp	866	6	helfen	866	1	!	1319	1	!	-1	0	0	0	0	0	0	0	0	0	0	0	0	0	0	0	0	0	0	0	0	0	0	0	0	0	0	0
121718	13:59:16	14:03:12	234820	5.0.10.0	4_exp_AWA_CON_AMP_EVA	19	Rpleas_acq	Oppo	Rpleas	Bmasked	CS_B	2pleas	distractor2	CONbeforeEVA	acq_new_unple_masked	acq2_masked	2	28	480	1	300	300	0	0	473	46	0	1	0	0	0	1	blank2r.bmp	0	1	+	0	1	B1r.bmp	492	1	blank2r.bmp	786	2	B2r.bmp	786	1	blank2r.bmp	866	6	hindern	866	1	!	1319	1	!	1372	0	0	0	0	0	0	0	0	0	0	0	0	0	0	0	0	0	0	0	0	0	0	0	0	0	0	0
121718	13:59:16	14:03:14	237165	5.0.10.0	4_exp_AWA_CON_AMP_EVA	19	Rpleas_acq	Oppo	Rpleas	Bmasked	CS_B	2pleas	distractor2	CONbeforeEVA	acq_new_unple_masked	acq2_masked	2	29	480	0	300	300	0	0	576	46	0	1	0	0	0	1	blank2r.bmp	0	1	+	0	8	C4r.bmp	492	1	blank2r.bmp	786	6	C2r.bmp	786	1	blank2r.bmp	866	5	lasch	866	1	!	1319	1	!	-1	0	0	0	0	0	0	0	0	0	0	0	0	0	0	0	0	0	0	0	0	0	0	0	0	0	0	0
121718	13:59:16	14:03:16	239458	5.0.10.0	4_exp_AWA_CON_AMP_EVA	19	Rpleas_acq	Oppo	Rpleas	Bmasked	CS_B	2pleas	distractor2	CONbeforeEVA	acq_new_pleas_masked	acq2_masked	2	30	480	1	300	300	0	0	480	50	0	1	0	0	0	1	blank2r.bmp	0	1	+	0	5	C1r.bmp	492	1	blank2r.bmp	786	1	B1r.bmp	786	1	blank2r.bmp	866	5	loyal	866	1	!	1319	1	!	1386	0	0	0	0	0	0	0	0	0	0	0	0	0	0	0	0	0	0	0	0	0	0	0	0	0	0	0
121718	13:59:16	14:03:19	241790	5.0.10.0	4_exp_AWA_CON_AMP_EVA	19	Rpleas_acq	Oppo	Rpleas	Bmasked	CS_B	2pleas	distractor2	CONbeforeEVA	acq_new_unple_masked	acq2_masked	2	31	480	0	300	300	0	0	559	46	0	1	0	0	0	1	blank2r.bmp	0	1	+	0	4	B4r.bmp	492	1	blank2r.bmp	786	5	C1r.bmp	786	1	blank2r.bmp	866	3	rächen	866	1	!	1319	1	!	-1	0	0	0	0	0	0	0	0	0	0	0	0	0	0	0	0	0	0	0	0	0	0	0	0	0	0	0
121718	13:59:16	14:03:21	244242	5.0.10.0	4_exp_AWA_CON_AMP_EVA	19	Rpleas_acq	Oppo	Rpleas	Bmasked	CS_B	2pleas	distractor2	CONbeforeEVA	acq_US_unple_masked	acq2_masked	2	32	480	1	300	300	0	0	451	50	0	0	0	0	0	1	blank2r.bmp	0	1	+	0	2	B2r.bmp	492	1	blank2r.bmp	786	1	BMVZ	786	1	blank2r.bmp	866	2	fanatisch	866	1	FEHLER	1665	1	!	1319	1	!	1346	0	0	0	0	0	0	0	0	0	0	0	0	0	0	0	0	0	0	0	0	0	0	0	0
121718	13:59:16	14:03:23	246282	5.0.10.0	4_exp_AWA_CON_AMP_EVA	19	Rpleas_acq	Oppo	Rpleas	Bmasked	CS_B	2pleas	distractor2	CONbeforeEVA	acq_US_pleas_masked	acq2_masked	2	33	480	1	300	300	0	0	440	50	0	1	0	0	0	1	blank2r.bmp	0	1	+	0	3	B3r.bmp	492	1	blank2r.bmp	786	1	GKQX	786	1	blank2r.bmp	866	1	ehrlich	866	1	!	1319	1	!	1346	0	0	0	0	0	0	0	0	0	0	0	0	0	0	0	0	0	0	0	0	0	0	0	0	0	0	0
121718	13:59:16	14:03:26	248761	5.0.10.0	4_exp_AWA_CON_AMP_EVA	19	Rpleas_acq	Oppo	Rpleas	Bmasked	CS_B	2pleas	distractor2	CONbeforeEVA	acq_US_pleas_masked	acq2_masked	2	34	480	1	300	300	0	0	467	46	0	0	0	0	0	1	blank2r.bmp	0	1	+	0	7	C3r.bmp	492	1	blank2r.bmp	786	1	GKQX	786	1	blank2r.bmp	866	3	schlau	866	1	FEHLER	1692	1	!	1319	1	!	1372	0	0	0	0	0	0	0	0	0	0	0	0	0	0	0	0	0	0	0	0	0	0	0	0
121718	13:59:16	14:03:28	250853	5.0.10.0	4_exp_AWA_CON_AMP_EVA	19	Rpleas_acq	Oppo	Rpleas	Bmasked	CS_B	2pleas	distractor2	CONbeforeEVA	acq_US_unple_masked	acq2_masked	2	35	480	1	300	300	0	0	508	46	0	1	0	0	0	1	blank2r.bmp	0	1	+	0	1	B1r.bmp	492	1	blank2r.bmp	786	1	BMVZ	786	1	blank2r.bmp	866	4	tot	866	1	!	1319	1	!	1412	0	0	0	0	0	0	0	0	0	0	0	0	0	0	0	0	0	0	0	0	0	0	0	0	0	0	0
121718	13:59:16	14:03:30	253039	5.0.10.0	4_exp_AWA_CON_AMP_EVA	19	Rpleas_acq	Oppo	Rpleas	Bmasked	CS_B	2pleas	distractor2	CONbeforeEVA	acq_US_pleas_masked	acq2_masked	2	36	480	0	300	300	0	0	411	50	0	1	0	0	0	1	blank2r.bmp	0	1	+	0	6	C2r.bmp	492	1	blank2r.bmp	786	1	GKQX	786	1	blank2r.bmp	866	4	treu	866	1	!	-1	1	!	-1	0	0	0	0	0	0	0	0	0	0	0	0	0	0	0	0	0	0	0	0	0	0	0	0	0	0	0
121718	13:59:16	14:03:40	263381	5.0.10.0	4_exp_AWA_CON_AMP_EVA	19	Rpleas_acq	Oppo	Rpleas	Bmasked	CS_B	2pleas	distractor2	CONbeforeEVA	acq_US_pleas_masked	acq3_masked	3	1	453	0	300	300	0	0	347	46	0	0	0	0	0	1	blank2r.bmp	0	1	+	0	3	B3r.bmp	492	1	blank2r.bmp	786	1	GKQX	786	1	blank2r.bmp	866	6	tolerant	866	1	FEHLER	1559	1	!	-1	1	!	-1	0	0	0	0	0	0	0	0	0	0	0	0	0	0	0	0	0	0	0	0	0	0	0	0
121718	13:59:16	14:03:42	265553	5.0.10.0	4_exp_AWA_CON_AMP_EVA	19	Rpleas_acq	Oppo	Rpleas	Bmasked	CS_B	2pleas	distractor2	CONbeforeEVA	acq_US_unple_masked	acq3_masked	3	2	453	0	300	300	0	0	624	46	0	1	0	0	0	1	blank2r.bmp	0	1	+	0	8	C4r.bmp	492	1	blank2r.bmp	786	1	BMVZ	786	1	blank2r.bmp	866	6	tyrannisch	866	1	!	1292	1	!	-1	0	0	0	0	0	0	0	0	0	0	0	0	0	0	0	0	0	0	0	0	0	0	0	0	0	0	0
121718	13:59:16	14:03:45	267673	5.0.10.0	4_exp_AWA_CON_AMP_EVA	19	Rpleas_acq	Oppo	Rpleas	Bmasked	CS_B	2pleas	distractor2	CONbeforeEVA	acq_US_pleas_masked	acq3_masked	3	3	453	0	300	300	0	0	343	50	0	1	0	0	0	1	blank2r.bmp	0	1	+	0	2	B2r.bmp	492	1	blank2r.bmp	786	1	GKQX	786	1	blank2r.bmp	866	3	schlau	866	1	!	-1	1	!	-1	0	0	0	0	0	0	0	0	0	0	0	0	0	0	0	0	0	0	0	0	0	0	0	0	0	0	0
121718	13:59:16	14:03:47	270032	5.0.10.0	4_exp_AWA_CON_AMP_EVA	19	Rpleas_acq	Oppo	Rpleas	Bmasked	CS_B	2pleas	distractor2	CONbeforeEVA	acq_US_unple_masked	acq3_masked	3	4	453	0	300	300	0	0	579	46	0	1	0	0	0	1	blank2r.bmp	0	1	+	0	4	B4r.bmp	492	1	blank2r.bmp	786	1	BMVZ	786	1	blank2r.bmp	866	3	schroff	866	1	!	1292	1	!	-1	0	0	0	0	0	0	0	0	0	0	0	0	0	0	0	0	0	0	0	0	0	0	0	0	0	0	0
121718	13:59:16	14:03:49	272257	5.0.10.0	4_exp_AWA_CON_AMP_EVA	19	Rpleas_acq	Oppo	Rpleas	Bmasked	CS_B	2pleas	distractor2	CONbeforeEVA	acq_US_unple_masked	acq3_masked	3	5	453	1	300	300	0	0	403	46	0	1	0	0	0	1	blank2r.bmp	0	1	+	0	6	C2r.bmp	492	1	blank2r.bmp	786	1	BMVZ	786	1	blank2r.bmp	866	4	tot	866	1	!	1292	1	!	1306	0	0	0	0	0	0	0	0	0	0	0	0	0	0	0	0	0	0	0	0	0	0	0	0	0	0	0
121718	13:59:16	14:03:52	274710	5.0.10.0	4_exp_AWA_CON_AMP_EVA	19	Rpleas_acq	Oppo	Rpleas	Bmasked	CS_B	2pleas	distractor2	CONbeforeEVA	acq_US_unple_masked	acq3_masked	3	6	453	1	300	300	0	0	442	50	0	0	0	0	0	1	blank2r.bmp	0	1	+	0	5	C1r.bmp	492	1	blank2r.bmp	786	1	BMVZ	786	1	blank2r.bmp	866	2	fanatisch	866	1	FEHLER	1665	1	!	1292	1	!	1346	0	0	0	0	0	0	0	0	0	0	0	0	0	0	0	0	0	0	0	0	0	0	0	0
121718	13:59:16	14:03:54	276722	5.0.10.0	4_exp_AWA_CON_AMP_EVA	19	Rpleas_acq	Oppo	Rpleas	Bmasked	CS_B	2pleas	distractor2	CONbeforeEVA	acq_US_pleas_masked	acq3_masked	3	7	453	1	300	300	0	0	431	50	0	1	0	0	0	1	blank2r.bmp	0	1	+	0	7	C3r.bmp	492	1	blank2r.bmp	786	1	GKQX	786	1	blank2r.bmp	866	2	freundlich	866	1	!	1292	1	!	1332	0	0	0	0	0	0	0	0	0	0	0	0	0	0	0	0	0	0	0	0	0	0	0	0	0	0	0
121718	13:59:16	14:03:56	278974	5.0.10.0	4_exp_AWA_CON_AMP_EVA	19	Rpleas_acq	Oppo	Rpleas	Bmasked	CS_B	2pleas	distractor2	CONbeforeEVA	acq_US_pleas_masked	acq3_masked	3	8	453	1	300	300	0	0	442	50	0	1	0	0	0	1	blank2r.bmp	0	1	+	0	1	B1r.bmp	492	1	blank2r.bmp	786	1	GKQX	786	1	blank2r.bmp	866	4	treu	866	1	!	1292	1	!	1346	0	0	0	0	0	0	0	0	0	0	0	0	0	0	0	0	0	0	0	0	0	0	0	0	0	0	0
121718	13:59:16	14:03:58	281293	5.0.10.0	4_exp_AWA_CON_AMP_EVA	19	Rpleas_acq	Oppo	Rpleas	Bmasked	CS_B	2pleas	distractor2	CONbeforeEVA	acq_US_unple_masked	acq3_masked	3	9	453	0	300	300	0	0	555	46	0	1	0	0	0	1	blank2r.bmp	0	1	+	0	3	B3r.bmp	492	1	blank2r.bmp	786	1	BMVZ	786	1	blank2r.bmp	866	1	eitel	866	1	!	1292	1	!	-1	0	0	0	0	0	0	0	0	0	0	0	0	0	0	0	0	0	0	0	0	0	0	0	0	0	0	0
121718	13:59:16	14:04:00	283506	5.0.10.0	4_exp_AWA_CON_AMP_EVA	19	Rpleas_acq	Oppo	Rpleas	Bmasked	CS_B	2pleas	distractor2	CONbeforeEVA	acq_US_pleas_masked	acq3_masked	3	10	453	1	300	300	0	0	399	50	0	1	0	0	0	1	blank2r.bmp	0	1	+	0	8	C4r.bmp	492	1	blank2r.bmp	786	1	GKQX	786	1	blank2r.bmp	866	5	schön	866	1	!	1292	1	!	1306	0	0	0	0	0	0	0	0	0	0	0	0	0	0	0	0	0	0	0	0	0	0	0	0	0	0	0
121718	13:59:16	14:04:03	285918	5.0.10.0	4_exp_AWA_CON_AMP_EVA	19	Rpleas_acq	Oppo	Rpleas	Bmasked	CS_B	2pleas	distractor2	CONbeforeEVA	acq_US_pleas_masked	acq3_masked	3	11	453	1	300	300	0	0	411	46	0	0	0	0	0	1	blank2r.bmp	0	1	+	0	2	B2r.bmp	492	1	blank2r.bmp	786	1	GKQX	786	1	blank2r.bmp	866	1	ehrlich	866	1	FEHLER	1625	1	!	1292	1	!	1306	0	0	0	0	0	0	0	0	0	0	0	0	0	0	0	0	0	0	0	0	0	0	0	0
121718	13:59:16	14:04:05	288011	5.0.10.0	4_exp_AWA_CON_AMP_EVA	19	Rpleas_acq	Oppo	Rpleas	Bmasked	CS_B	2pleas	distractor2	CONbeforeEVA	acq_US_unple_masked	acq3_masked	3	12	453	0	300	300	0	0	532	46	0	1	0	0	0	1	blank2r.bmp	0	1	+	0	7	C3r.bmp	492	1	blank2r.bmp	786	1	BMVZ	786	1	blank2r.bmp	866	5	schlecht	866	1	!	1292	1	!	-1	0	0	0	0	0	0	0	0	0	0	0	0	0	0	0	0	0	0	0	0	0	0	0	0	0	0	0
121718	13:59:16	14:04:07	290370	5.0.10.0	4_exp_AWA_CON_AMP_EVA	19	Rpleas_acq	Oppo	Rpleas	Bmasked	CS_B	2pleas	distractor2	CONbeforeEVA	acq_US_unple_masked	acq3_masked	3	13	453	0	300	300	0	0	579	46	0	1	0	0	0	1	blank2r.bmp	0	1	+	0	4	B4r.bmp	492	1	blank2r.bmp	786	1	BMVZ	786	1	blank2r.bmp	866	1	eitel	866	1	!	1292	1	!	-1	0	0	0	0	0	0	0	0	0	0	0	0	0	0	0	0	0	0	0	0	0	0	0	0	0	0	0
121718	13:59:16	14:04:09	292595	5.0.10.0	4_exp_AWA_CON_AMP_EVA	19	Rpleas_acq	Oppo	Rpleas	Bmasked	CS_B	2pleas	distractor2	CONbeforeEVA	acq_US_pleas_masked	acq3_masked	3	14	453	1	300	300	0	0	419	50	0	1	0	0	0	1	blank2r.bmp	0	1	+	0	5	C1r.bmp	492	1	blank2r.bmp	786	1	GKQX	786	1	blank2r.bmp	866	5	schön	866	1	!	1292	1	!	1319	0	0	0	0	0	0	0	0	0	0	0	0	0	0	0	0	0	0	0	0	0	0	0	0	0	0	0
121718	13:59:16	14:04:12	294808	5.0.10.0	4_exp_AWA_CON_AMP_EVA	19	Rpleas_acq	Oppo	Rpleas	Bmasked	CS_B	2pleas	distractor2	CONbeforeEVA	acq_US_pleas_masked	acq3_masked	3	15	453	1	300	300	0	0	422	50	0	1	0	0	0	1	blank2r.bmp	0	1	+	0	1	B1r.bmp	492	1	blank2r.bmp	786	1	GKQX	786	1	blank2r.bmp	866	4	treu	866	1	!	1292	1	!	1319	0	0	0	0	0	0	0	0	0	0	0	0	0	0	0	0	0	0	0	0	0	0	0	0	0	0	0
121718	13:59:16	14:04:14	297073	5.0.10.0	4_exp_AWA_CON_AMP_EVA	19	Rpleas_acq	Oppo	Rpleas	Bmasked	CS_B	2pleas	distractor2	CONbeforeEVA	acq_US_unple_masked	acq3_masked	3	16	453	0	300	300	0	0	280	50	0	0	0	0	0	1	blank2r.bmp	0	1	+	0	6	C2r.bmp	492	1	blank2r.bmp	786	1	BMVZ	786	1	blank2r.bmp	866	4	tot	866	1	FEHLER	1492	1	!	-1	1	!	-1	0	0	0	0	0	0	0	0	0	0	0	0	0	0	0	0	0	0	0	0	0	0	0	0
121718	13:59:16	14:04:16	299073	5.0.10.0	4_exp_AWA_CON_AMP_EVA	19	Rpleas_acq	Oppo	Rpleas	Bmasked	CS_B	2pleas	distractor2	CONbeforeEVA	acq_US_pleas_masked	acq3_masked	3	17	453	1	300	300	0	0	402	50	0	1	0	0	0	1	blank2r.bmp	0	1	+	0	7	C3r.bmp	492	1	blank2r.bmp	786	1	GKQX	786	1	blank2r.bmp	866	2	freundlich	866	1	!	1292	1	!	1306	0	0	0	0	0	0	0	0	0	0	0	0	0	0	0	0	0	0	0	0	0	0	0	0	0	0	0
121718	13:59:16	14:04:18	301325	5.0.10.0	4_exp_AWA_CON_AMP_EVA	19	Rpleas_acq	Oppo	Rpleas	Bmasked	CS_B	2pleas	distractor2	CONbeforeEVA	acq_US_pleas_masked	acq3_masked	3	18	453	1	300	300	0	0	460	50	0	1	0	0	0	1	blank2r.bmp	0	1	+	0	8	C4r.bmp	492	1	blank2r.bmp	786	1	GKQX	786	1	blank2r.bmp	866	1	ehrlich	866	1	!	1292	1	!	1359	0	0	0	0	0	0	0	0	0	0	0	0	0	0	0	0	0	0	0	0	0	0	0	0	0	0	0
121718	13:59:16	14:04:21	303644	5.0.10.0	4_exp_AWA_CON_AMP_EVA	19	Rpleas_acq	Oppo	Rpleas	Bmasked	CS_B	2pleas	distractor2	CONbeforeEVA	acq_US_unple_masked	acq3_masked	3	19	453	0	300	300	0	0	320	50	0	0	0	0	0	1	blank2r.bmp	0	1	+	0	3	B3r.bmp	492	1	blank2r.bmp	786	1	BMVZ	786	1	blank2r.bmp	866	5	schlecht	866	1	FEHLER	1532	1	!	-1	1	!	-1	0	0	0	0	0	0	0	0	0	0	0	0	0	0	0	0	0	0	0	0	0	0	0	0
121718	13:59:16	14:04:23	305883	5.0.10.0	4_exp_AWA_CON_AMP_EVA	19	Rpleas_acq	Oppo	Rpleas	Bmasked	CS_B	2pleas	distractor2	CONbeforeEVA	acq_US_unple_masked	acq3_masked	3	20	453	1	300	300	0	0	448	50	0	0	0	0	0	1	blank2r.bmp	0	1	+	0	6	C2r.bmp	492	1	blank2r.bmp	786	1	BMVZ	786	1	blank2r.bmp	866	2	fanatisch	866	1	FEHLER	1665	1	!	1292	1	!	1346	0	0	0	0	0	0	0	0	0	0	0	0	0	0	0	0	0	0	0	0	0	0	0	0
121718	13:59:16	14:04:25	307949	5.0.10.0	4_exp_AWA_CON_AMP_EVA	19	Rpleas_acq	Oppo	Rpleas	Bmasked	CS_B	2pleas	distractor2	CONbeforeEVA	acq_US_pleas_masked	acq3_masked	3	21	453	0	300	300	0	0	286	46	0	0	0	0	0	1	blank2r.bmp	0	1	+	0	5	C1r.bmp	492	1	blank2r.bmp	786	1	GKQX	786	1	blank2r.bmp	866	6	tolerant	866	1	FEHLER	1492	1	!	-1	1	!	-1	0	0	0	0	0	0	0	0	0	0	0	0	0	0	0	0	0	0	0	0	0	0	0	0
121718	13:59:16	14:04:27	309868	5.0.10.0	4_exp_AWA_CON_AMP_EVA	19	Rpleas_acq	Oppo	Rpleas	Bmasked	CS_B	2pleas	distractor2	CONbeforeEVA	acq_US_pleas_masked	acq3_masked	3	22	453	0	300	300	0	0	348	50	0	1	0	0	0	1	blank2r.bmp	0	1	+	0	1	B1r.bmp	492	1	blank2r.bmp	786	1	GKQX	786	1	blank2r.bmp	866	3	schlau	866	1	!	-1	1	!	-1	0	0	0	0	0	0	0	0	0	0	0	0	0	0	0	0	0	0	0	0	0	0	0	0	0	0	0
121718	13:59:16	14:04:29	312187	5.0.10.0	4_exp_AWA_CON_AMP_EVA	19	Rpleas_acq	Oppo	Rpleas	Bmasked	CS_B	2pleas	distractor2	CONbeforeEVA	acq_US_unple_masked	acq3_masked	3	23	453	0	300	300	0	0	532	46	0	1	0	0	0	1	blank2r.bmp	0	1	+	0	4	B4r.bmp	492	1	blank2r.bmp	786	1	BMVZ	786	1	blank2r.bmp	866	3	schroff	866	1	!	1292	1	!	-1	0	0	0	0	0	0	0	0	0	0	0	0	0	0	0	0	0	0	0	0	0	0	0	0	0	0	0
121718	13:59:16	14:04:31	314399	5.0.10.0	4_exp_AWA_CON_AMP_EVA	19	Rpleas_acq	Oppo	Rpleas	Bmasked	CS_B	2pleas	distractor2	CONbeforeEVA	acq_US_unple_masked	acq3_masked	3	24	453	1	300	300	0	0	409	46	0	1	0	0	0	1	blank2r.bmp	0	1	+	0	2	B2r.bmp	492	1	blank2r.bmp	786	1	BMVZ	786	1	blank2r.bmp	866	6	tyrannisch	866	1	!	1292	1	!	1306	0	0	0	0	0	0	0	0	0	0	0	0	0	0	0	0	0	0	0	0	0	0	0	0	0	0	0
121718	13:59:16	14:04:33	316532	5.0.10.0	4_exp_AWA_CON_AMP_EVA	19	Rpleas_acq	Oppo	Rpleas	Bmasked	CS_B	2pleas	distractor2	CONbeforeEVA	acq_US_pleas_masked	acq3_masked	3	25	453	0	300	300	0	0	361	50	0	1	0	0	0	1	blank2r.bmp	0	1	+	0	7	C3r.bmp	492	1	blank2r.bmp	786	1	GKQX	786	1	blank2r.bmp	866	2	freundlich	866	1	!	-1	1	!	-1	0	0	0	0	0	0	0	0	0	0	0	0	0	0	0	0	0	0	0	0	0	0	0	0	0	0	0
121718	13:59:16	14:04:36	318851	5.0.10.0	4_exp_AWA_CON_AMP_EVA	19	Rpleas_acq	Oppo	Rpleas	Bmasked	CS_B	2pleas	distractor2	CONbeforeEVA	acq_US_unple_masked	acq3_masked	3	26	453	1	300	300	0	0	505	46	0	1	0	0	0	1	blank2r.bmp	0	1	+	0	3	B3r.bmp	492	1	blank2r.bmp	786	1	BMVZ	786	1	blank2r.bmp	866	5	schlecht	866	1	!	1292	1	!	1412	0	0	0	0	0	0	0	0	0	0	0	0	0	0	0	0	0	0	0	0	0	0	0	0	0	0	0
121718	13:59:16	14:04:38	321157	5.0.10.0	4_exp_AWA_CON_AMP_EVA	19	Rpleas_acq	Oppo	Rpleas	Bmasked	CS_B	2pleas	distractor2	CONbeforeEVA	acq_US_unple_masked	acq3_masked	3	27	453	1	300	300	0	0	515	46	0	1	0	0	0	1	blank2r.bmp	0	1	+	0	1	B1r.bmp	492	1	blank2r.bmp	786	1	BMVZ	786	1	blank2r.bmp	866	3	schroff	866	1	!	1292	1	!	1412	0	0	0	0	0	0	0	0	0	0	0	0	0	0	0	0	0	0	0	0	0	0	0	0	0	0	0
121718	13:59:16	14:04:40	323462	5.0.10.0	4_exp_AWA_CON_AMP_EVA	19	Rpleas_acq	Oppo	Rpleas	Bmasked	CS_B	2pleas	distractor2	CONbeforeEVA	acq_US_unple_masked	acq3_masked	3	28	453	0	300	300	0	0	542	46	0	1	0	0	0	1	blank2r.bmp	0	1	+	0	2	B2r.bmp	492	1	blank2r.bmp	786	1	BMVZ	786	1	blank2r.bmp	866	6	tyrannisch	866	1	!	1292	1	!	-1	0	0	0	0	0	0	0	0	0	0	0	0	0	0	0	0	0	0	0	0	0	0	0	0	0	0	0
121718	13:59:16	14:04:43	325688	5.0.10.0	4_exp_AWA_CON_AMP_EVA	19	Rpleas_acq	Oppo	Rpleas	Bmasked	CS_B	2pleas	distractor2	CONbeforeEVA	acq_US_unple_masked	acq3_masked	3	29	453	1	300	300	0	0	402	46	0	1	0	0	0	1	blank2r.bmp	0	1	+	0	5	C1r.bmp	492	1	blank2r.bmp	786	1	BMVZ	786	1	blank2r.bmp	866	4	tot	866	1	!	1292	1	!	1306	0	0	0	0	0	0	0	0	0	0	0	0	0	0	0	0	0	0	0	0	0	0	0	0	0	0	0
121718	13:59:16	14:04:45	328100	5.0.10.0	4_exp_AWA_CON_AMP_EVA	19	Rpleas_acq	Oppo	Rpleas	Bmasked	CS_B	2pleas	distractor2	CONbeforeEVA	acq_US_unple_masked	acq3_masked	3	30	453	1	300	300	0	0	399	50	0	0	0	0	0	1	blank2r.bmp	0	1	+	0	8	C4r.bmp	492	1	blank2r.bmp	786	1	BMVZ	786	1	blank2r.bmp	866	1	eitel	866	1	FEHLER	1625	1	!	1292	1	!	1306	0	0	0	0	0	0	0	0	0	0	0	0	0	0	0	0	0	0	0	0	0	0	0	0
121718	13:59:16	14:04:47	330153	5.0.10.0	4_exp_AWA_CON_AMP_EVA	19	Rpleas_acq	Oppo	Rpleas	Bmasked	CS_B	2pleas	distractor2	CONbeforeEVA	acq_US_pleas_masked	acq3_masked	3	31	453	1	300	300	0	0	472	50	0	1	0	0	0	1	blank2r.bmp	0	1	+	0	6	C2r.bmp	492	1	blank2r.bmp	786	1	GKQX	786	1	blank2r.bmp	866	5	schön	866	1	!	1292	1	!	1372	0	0	0	0	0	0	0	0	0	0	0	0	0	0	0	0	0	0	0	0	0	0	0	0	0	0	0
121718	13:59:16	14:04:49	332272	5.0.10.0	4_exp_AWA_CON_AMP_EVA	19	Rpleas_acq	Oppo	Rpleas	Bmasked	CS_B	2pleas	distractor2	CONbeforeEVA	acq_US_pleas_masked	acq3_masked	3	32	453	0	300	300	0	0	338	50	0	1	0	0	0	1	blank2r.bmp	0	1	+	0	4	B4r.bmp	492	1	blank2r.bmp	786	1	GKQX	786	1	blank2r.bmp	866	3	schlau	866	1	!	-1	1	!	-1	0	0	0	0	0	0	0	0	0	0	0	0	0	0	0	0	0	0	0	0	0	0	0	0	0	0	0
121718	13:59:16	14:04:52	334897	5.0.10.0	4_exp_AWA_CON_AMP_EVA	19	Rpleas_acq	Oppo	Rpleas	Bmasked	CS_B	2pleas	distractor2	CONbeforeEVA	acq_US_unple_masked	acq3_masked	3	33	453	0	300	300	0	0	627	50	0	0	0	0	0	1	blank2r.bmp	0	1	+	0	5	C1r.bmp	492	1	blank2r.bmp	786	1	BMVZ	786	1	blank2r.bmp	866	2	fanatisch	866	1	FEHLER	1839	1	!	1292	1	!	-1	0	0	0	0	0	0	0	0	0	0	0	0	0	0	0	0	0	0	0	0	0	0	0	0
121718	13:59:16	14:04:54	336990	5.0.10.0	4_exp_AWA_CON_AMP_EVA	19	Rpleas_acq	Oppo	Rpleas	Bmasked	CS_B	2pleas	distractor2	CONbeforeEVA	acq_US_pleas_masked	acq3_masked	3	34	453	1	300	300	0	0	500	50	0	1	0	0	0	1	blank2r.bmp	0	1	+	0	6	C2r.bmp	492	1	blank2r.bmp	786	1	GKQX	786	1	blank2r.bmp	866	1	ehrlich	866	1	!	1292	1	!	1399	0	0	0	0	0	0	0	0	0	0	0	0	0	0	0	0	0	0	0	0	0	0	0	0	0	0	0
121718	13:59:16	14:04:56	339309	5.0.10.0	4_exp_AWA_CON_AMP_EVA	19	Rpleas_acq	Oppo	Rpleas	Bmasked	CS_B	2pleas	distractor2	CONbeforeEVA	acq_US_pleas_masked	acq3_masked	3	35	453	0	300	300	0	0	551	50	0	1	0	0	0	1	blank2r.bmp	0	1	+	0	7	C3r.bmp	492	1	blank2r.bmp	786	1	GKQX	786	1	blank2r.bmp	866	6	tolerant	866	1	!	1292	1	!	-1	0	0	0	0	0	0	0	0	0	0	0	0	0	0	0	0	0	0	0	0	0	0	0	0	0	0	0
121718	13:59:16	14:04:58	341521	5.0.10.0	4_exp_AWA_CON_AMP_EVA	19	Rpleas_acq	Oppo	Rpleas	Bmasked	CS_B	2pleas	distractor2	CONbeforeEVA	acq_US_pleas_masked	acq3_masked	3	36	453	1	300	300	0	0	406	50	0	1	0	0	0	1	blank2r.bmp	0	1	+	0	1	B1r.bmp	492	1	blank2r.bmp	786	1	GKQX	786	1	blank2r.bmp	866	4	treu	866	1	!	1292	1	!	1306	0	0	0	0	0	0	0	0	0	0	0	0	0	0	0	0	0	0	0	0	0	0	0	0	0	0	0
121718	13:59:16	14:05:09	352250	5.0.10.0	4_exp_AWA_CON_AMP_EVA	19	Rpleas_acq	Oppo	Rpleas	Bmasked	CS_B	2pleas	distractor2	CONbeforeEVA	acq_US_pleas_masked	acq45_masked	4	1	400	1	300	300	0	0	464	50	0	1	0	0	0	1	blank2r.bmp	0	1	+	0	4	B4r.bmp	492	1	blank2r.bmp	786	1	GKQX	786	1	blank2r.bmp	866	4	treu	866	1	!	1239	1	!	1359	0	0	0	0	0	0	0	0	0	0	0	0	0	0	0	0	0	0	0	0	0	0	0	0	0	0	0
121718	13:59:16	14:05:11	354489	5.0.10.0	4_exp_AWA_CON_AMP_EVA	19	Rpleas_acq	Oppo	Rpleas	Bmasked	CS_B	2pleas	distractor2	CONbeforeEVA	acq_US_unple_masked	acq45_masked	4	2	400	1	300	300	0	0	449	46	0	1	0	0	0	1	blank2r.bmp	0	1	+	0	2	B2r.bmp	492	1	blank2r.bmp	786	1	BMVZ	786	1	blank2r.bmp	866	5	schlecht	866	1	!	1239	1	!	1346	0	0	0	0	0	0	0	0	0	0	0	0	0	0	0	0	0	0	0	0	0	0	0	0	0	0	0
121718	13:59:16	14:05:14	356662	5.0.10.0	4_exp_AWA_CON_AMP_EVA	19	Rpleas_acq	Oppo	Rpleas	Bmasked	CS_B	2pleas	distractor2	CONbeforeEVA	acq_US_unple_masked	acq45_masked	4	3	400	1	300	300	0	0	368	46	0	1	0	0	0	1	blank2r.bmp	0	1	+	0	8	C4r.bmp	492	1	blank2r.bmp	786	1	BMVZ	786	1	blank2r.bmp	866	6	tyrannisch	866	1	!	1239	1	!	1266	0	0	0	0	0	0	0	0	0	0	0	0	0	0	0	0	0	0	0	0	0	0	0	0	0	0	0
121718	13:59:16	14:05:16	358834	5.0.10.0	4_exp_AWA_CON_AMP_EVA	19	Rpleas_acq	Oppo	Rpleas	Bmasked	CS_B	2pleas	distractor2	CONbeforeEVA	acq_US_pleas_masked	acq45_masked	4	4	400	1	300	300	0	0	377	50	0	1	0	0	0	1	blank2r.bmp	0	1	+	0	3	B3r.bmp	492	1	blank2r.bmp	786	1	GKQX	786	1	blank2r.bmp	866	2	freundlich	866	1	!	1239	1	!	1279	0	0	0	0	0	0	0	0	0	0	0	0	0	0	0	0	0	0	0	0	0	0	0	0	0	0	0
121718	13:59:16	14:05:18	361006	5.0.10.0	4_exp_AWA_CON_AMP_EVA	19	Rpleas_acq	Oppo	Rpleas	Bmasked	CS_B	2pleas	distractor2	CONbeforeEVA	acq_US_pleas_masked	acq45_masked	4	5	400	1	300	300	0	0	383	50	0	1	0	0	0	1	blank2r.bmp	0	1	+	0	7	C3r.bmp	492	1	blank2r.bmp	786	1	GKQX	786	1	blank2r.bmp	866	3	schlau	866	1	!	1239	1	!	1279	0	0	0	0	0	0	0	0	0	0	0	0	0	0	0	0	0	0	0	0	0	0	0	0	0	0	0
121718	13:59:16	14:05:20	363165	5.0.10.0	4_exp_AWA_CON_AMP_EVA	19	Rpleas_acq	Oppo	Rpleas	Bmasked	CS_B	2pleas	distractor2	CONbeforeEVA	acq_US_unple_masked	acq45_masked	4	6	400	1	300	300	0	0	360	46	0	1	0	0	0	1	blank2r.bmp	0	1	+	0	2	B2r.bmp	492	1	blank2r.bmp	786	1	BMVZ	786	1	blank2r.bmp	866	4	tot	866	1	!	1239	1	!	1266	0	0	0	0	0	0	0	0	0	0	0	0	0	0	0	0	0	0	0	0	0	0	0	0	0	0	0
121718	13:59:16	14:05:22	365418	5.0.10.0	4_exp_AWA_CON_AMP_EVA	19	Rpleas_acq	Oppo	Rpleas	Bmasked	CS_B	2pleas	distractor2	CONbeforeEVA	acq_US_unple_masked	acq45_masked	4	7	400	0	300	300	0	0	479	46	0	1	0	0	0	1	blank2r.bmp	0	1	+	0	8	C4r.bmp	492	1	blank2r.bmp	786	1	BMVZ	786	1	blank2r.bmp	866	1	eitel	866	1	!	1239	1	!	-1	0	0	0	0	0	0	0	0	0	0	0	0	0	0	0	0	0	0	0	0	0	0	0	0	0	0	0
121718	13:59:16	14:05:25	367617	5.0.10.0	4_exp_AWA_CON_AMP_EVA	19	Rpleas_acq	Oppo	Rpleas	Bmasked	CS_B	2pleas	distractor2	CONbeforeEVA	acq_US_pleas_masked	acq45_masked	4	8	400	1	300	300	0	0	396	50	0	1	0	0	0	1	blank2r.bmp	0	1	+	0	1	B1r.bmp	492	1	blank2r.bmp	786	1	GKQX	786	1	blank2r.bmp	866	5	schön	866	1	!	1239	1	!	1292	0	0	0	0	0	0	0	0	0	0	0	0	0	0	0	0	0	0	0	0	0	0	0	0	0	0	0
121718	13:59:16	14:05:27	369789	5.0.10.0	4_exp_AWA_CON_AMP_EVA	19	Rpleas_acq	Oppo	Rpleas	Bmasked	CS_B	2pleas	distractor2	CONbeforeEVA	acq_US_unple_masked	acq45_masked	4	9	400	1	300	300	0	0	380	46	0	1	0	0	0	1	blank2r.bmp	0	1	+	0	6	C2r.bmp	492	1	blank2r.bmp	786	1	BMVZ	786	1	blank2r.bmp	866	3	schroff	866	1	!	1239	1	!	1279	0	0	0	0	0	0	0	0	0	0	0	0	0	0	0	0	0	0	0	0	0	0	0	0	0	0	0
121718	13:59:16	14:05:29	371975	5.0.10.0	4_exp_AWA_CON_AMP_EVA	19	Rpleas_acq	Oppo	Rpleas	Bmasked	CS_B	2pleas	distractor2	CONbeforeEVA	acq_US_pleas_masked	acq45_masked	4	10	400	1	300	300	0	0	389	50	0	1	0	0	0	1	blank2r.bmp	0	1	+	0	3	B3r.bmp	492	1	blank2r.bmp	786	1	GKQX	786	1	blank2r.bmp	866	1	ehrlich	866	1	!	1239	1	!	1292	0	0	0	0	0	0	0	0	0	0	0	0	0	0	0	0	0	0	0	0	0	0	0	0	0	0	0
121718	13:59:16	14:05:31	374214	5.0.10.0	4_exp_AWA_CON_AMP_EVA	19	Rpleas_acq	Oppo	Rpleas	Bmasked	CS_B	2pleas	distractor2	CONbeforeEVA	acq_US_pleas_masked	acq45_masked	4	11	400	1	300	300	0	0	437	50	0	1	0	0	0	1	blank2r.bmp	0	1	+	0	4	B4r.bmp	492	1	blank2r.bmp	786	1	GKQX	786	1	blank2r.bmp	866	6	tolerant	866	1	!	1239	1	!	1332	0	0	0	0	0	0	0	0	0	0	0	0	0	0	0	0	0	0	0	0	0	0	0	0	0	0	0
121718	13:59:16	14:05:33	376373	5.0.10.0	4_exp_AWA_CON_AMP_EVA	19	Rpleas_acq	Oppo	Rpleas	Bmasked	CS_B	2pleas	distractor2	CONbeforeEVA	acq_US_pleas_masked	acq45_masked	4	12	400	1	300	300	0	0	367	50	0	1	0	0	0	1	blank2r.bmp	0	1	+	0	5	C1r.bmp	492	1	blank2r.bmp	786	1	GKQX	786	1	blank2r.bmp	866	4	treu	866	1	!	1239	1	!	1266	0	0	0	0	0	0	0	0	0	0	0	0	0	0	0	0	0	0	0	0	0	0	0	0	0	0	0
121718	13:59:16	14:05:35	378532	5.0.10.0	4_exp_AWA_CON_AMP_EVA	19	Rpleas_acq	Oppo	Rpleas	Bmasked	CS_B	2pleas	distractor2	CONbeforeEVA	acq_US_unple_masked	acq45_masked	4	13	400	1	300	300	0	0	346	50	0	0	0	0	0	1	blank2r.bmp	0	1	+	0	6	C2r.bmp	492	1	blank2r.bmp	786	1	BMVZ	786	1	blank2r.bmp	866	2	fanatisch	866	1	!	1239	1	!	1252	0	0	0	0	0	0	0	0	0	0	0	0	0	0	0	0	0	0	0	0	0	0	0	0	0	0	0
121718	13:59:16	14:05:38	380678	5.0.10.0	4_exp_AWA_CON_AMP_EVA	19	Rpleas_acq	Oppo	Rpleas	Bmasked	CS_B	2pleas	distractor2	CONbeforeEVA	acq_US_pleas_masked	acq45_masked	4	14	400	1	300	300	0	0	347	50	0	1	0	0	0	1	blank2r.bmp	0	1	+	0	5	C1r.bmp	492	1	blank2r.bmp	786	1	GKQX	786	1	blank2r.bmp	866	3	schlau	866	1	!	1239	1	!	1252	0	0	0	0	0	0	0	0	0	0	0	0	0	0	0	0	0	0	0	0	0	0	0	0	0	0	0
121718	13:59:16	14:05:40	382797	5.0.10.0	4_exp_AWA_CON_AMP_EVA	19	Rpleas_acq	Oppo	Rpleas	Bmasked	CS_B	2pleas	distractor2	CONbeforeEVA	acq_US_unple_masked	acq45_masked	4	15	400	0	300	300	0	0	332	46	0	1	0	0	0	1	blank2r.bmp	0	1	+	0	2	B2r.bmp	492	1	blank2r.bmp	786	1	BMVZ	786	1	blank2r.bmp	866	6	tyrannisch	866	1	!	-1	1	!	-1	0	0	0	0	0	0	0	0	0	0	0	0	0	0	0	0	0	0	0	0	0	0	0	0	0	0	0
121718	13:59:16	14:05:42	385063	5.0.10.0	4_exp_AWA_CON_AMP_EVA	19	Rpleas_acq	Oppo	Rpleas	Bmasked	CS_B	2pleas	distractor2	CONbeforeEVA	acq_US_unple_masked	acq45_masked	4	16	400	1	300	300	0	0	459	46	0	1	0	0	0	1	blank2r.bmp	0	1	+	0	8	C4r.bmp	492	1	blank2r.bmp	786	1	BMVZ	786	1	blank2r.bmp	866	5	schlecht	866	1	!	1239	1	!	1359	0	0	0	0	0	0	0	0	0	0	0	0	0	0	0	0	0	0	0	0	0	0	0	0	0	0	0
121718	13:59:16	14:05:44	387235	5.0.10.0	4_exp_AWA_CON_AMP_EVA	19	Rpleas_acq	Oppo	Rpleas	Bmasked	CS_B	2pleas	distractor2	CONbeforeEVA	acq_US_unple_masked	acq45_masked	4	17	400	1	300	300	0	0	359	50	0	0	0	0	0	1	blank2r.bmp	0	1	+	0	4	B4r.bmp	492	1	blank2r.bmp	786	1	BMVZ	786	1	blank2r.bmp	866	1	eitel	866	1	!	1239	1	!	1266	0	0	0	0	0	0	0	0	0	0	0	0	0	0	0	0	0	0	0	0	0	0	0	0	0	0	0
121718	13:59:16	14:05:46	389381	5.0.10.0	4_exp_AWA_CON_AMP_EVA	19	Rpleas_acq	Oppo	Rpleas	Bmasked	CS_B	2pleas	distractor2	CONbeforeEVA	acq_US_pleas_masked	acq45_masked	4	18	400	1	300	300	0	0	346	50	0	1	0	0	0	1	blank2r.bmp	0	1	+	0	7	C3r.bmp	492	1	blank2r.bmp	786	1	GKQX	786	1	blank2r.bmp	866	2	freundlich	866	1	!	1239	1	!	1252	0	0	0	0	0	0	0	0	0	0	0	0	0	0	0	0	0	0	0	0	0	0	0	0	0	0	0
121718	13:59:16	14:05:48	391433	5.0.10.0	4_exp_AWA_CON_AMP_EVA	19	Rpleas_acq	Oppo	Rpleas	Bmasked	CS_B	2pleas	distractor2	CONbeforeEVA	acq_US_unple_masked	acq45_masked	4	19	400	0	300	300	0	0	281	46	0	1	0	0	0	1	blank2r.bmp	0	1	+	0	3	B3r.bmp	492	1	blank2r.bmp	786	1	BMVZ	786	1	blank2r.bmp	866	2	fanatisch	866	1	!	-1	1	!	-1	0	0	0	0	0	0	0	0	0	0	0	0	0	0	0	0	0	0	0	0	0	0	0	0	0	0	0
121718	13:59:16	14:05:50	393606	5.0.10.0	4_exp_AWA_CON_AMP_EVA	19	Rpleas_acq	Oppo	Rpleas	Bmasked	CS_B	2pleas	distractor2	CONbeforeEVA	acq_US_pleas_masked	acq45_masked	4	20	400	1	300	300	0	0	359	50	0	1	0	0	0	1	blank2r.bmp	0	1	+	0	1	B1r.bmp	492	1	blank2r.bmp	786	1	GKQX	786	1	blank2r.bmp	866	1	ehrlich	866	1	!	1239	1	!	1266	0	0	0	0	0	0	0	0	0	0	0	0	0	0	0	0	0	0	0	0	0	0	0	0	0	0	0
121718	13:59:16	14:05:53	395752	5.0.10.0	4_exp_AWA_CON_AMP_EVA	19	Rpleas_acq	Oppo	Rpleas	Bmasked	CS_B	2pleas	distractor2	CONbeforeEVA	acq_US_pleas_masked	acq45_masked	4	21	400	1	300	300	0	0	346	46	0	0	0	0	0	1	blank2r.bmp	0	1	+	0	2	B2r.bmp	492	1	blank2r.bmp	786	1	GKQX	786	1	blank2r.bmp	866	6	tolerant	866	1	!	1239	1	!	1252	0	0	0	0	0	0	0	0	0	0	0	0	0	0	0	0	0	0	0	0	0	0	0	0	0	0	0
121718	13:59:16	14:05:55	397911	5.0.10.0	4_exp_AWA_CON_AMP_EVA	19	Rpleas_acq	Oppo	Rpleas	Bmasked	CS_B	2pleas	distractor2	CONbeforeEVA	acq_US_unple_masked	acq45_masked	4	22	400	1	300	300	0	0	371	46	0	1	0	0	0	1	blank2r.bmp	0	1	+	0	7	C3r.bmp	492	1	blank2r.bmp	786	1	BMVZ	786	1	blank2r.bmp	866	4	tot	866	1	!	1239	1	!	1266	0	0	0	0	0	0	0	0	0	0	0	0	0	0	0	0	0	0	0	0	0	0	0	0	0	0	0
121718	13:59:16	14:05:57	399990	5.0.10.0	4_exp_AWA_CON_AMP_EVA	19	Rpleas_acq	Oppo	Rpleas	Bmasked	CS_B	2pleas	distractor2	CONbeforeEVA	acq_US_pleas_masked	acq45_masked	4	23	400	0	300	300	0	0	307	46	0	0	0	0	0	1	blank2r.bmp	0	1	+	0	6	C2r.bmp	492	1	blank2r.bmp	786	1	GKQX	786	1	blank2r.bmp	866	5	schön	866	1	!	-1	1	!	-1	0	0	0	0	0	0	0	0	0	0	0	0	0	0	0	0	0	0	0	0	0	0	0	0	0	0	0
121718	13:59:16	14:05:59	402256	5.0.10.0	4_exp_AWA_CON_AMP_EVA	19	Rpleas_acq	Oppo	Rpleas	Bmasked	CS_B	2pleas	distractor2	CONbeforeEVA	acq_US_unple_masked	acq45_masked	4	24	400	0	300	300	0	0	489	46	0	1	0	0	0	1	blank2r.bmp	0	1	+	0	1	B1r.bmp	492	1	blank2r.bmp	786	1	BMVZ	786	1	blank2r.bmp	866	3	schroff	866	1	!	1239	1	!	-1	0	0	0	0	0	0	0	0	0	0	0	0	0	0	0	0	0	0	0	0	0	0	0	0	0	0	0
121718	13:59:16	14:06:01	404508	5.0.10.0	4_exp_AWA_CON_AMP_EVA	19	Rpleas_acq	Oppo	Rpleas	Bmasked	CS_B	2pleas	distractor2	CONbeforeEVA	acq_US_pleas_masked	acq45_masked	4	25	400	1	300	300	0	0	437	50	0	1	0	0	0	1	blank2r.bmp	0	1	+	0	4	B4r.bmp	492	1	blank2r.bmp	786	1	GKQX	786	1	blank2r.bmp	866	4	treu	866	1	!	1239	1	!	1332	0	0	0	0	0	0	0	0	0	0	0	0	0	0	0	0	0	0	0	0	0	0	0	0	0	0	0
121718	13:59:16	14:06:04	406734	5.0.10.0	4_exp_AWA_CON_AMP_EVA	19	Rpleas_acq	Oppo	Rpleas	Bmasked	CS_B	2pleas	distractor2	CONbeforeEVA	acq_US_pleas_masked	acq45_masked	4	26	400	1	300	300	0	0	431	50	0	1	0	0	0	1	blank2r.bmp	0	1	+	0	3	B3r.bmp	492	1	blank2r.bmp	786	1	GKQX	786	1	blank2r.bmp	866	1	ehrlich	866	1	!	1239	1	!	1332	0	0	0	0	0	0	0	0	0	0	0	0	0	0	0	0	0	0	0	0	0	0	0	0	0	0	0
121718	13:59:16	14:06:06	408879	5.0.10.0	4_exp_AWA_CON_AMP_EVA	19	Rpleas_acq	Oppo	Rpleas	Bmasked	CS_B	2pleas	distractor2	CONbeforeEVA	acq_US_unple_masked	acq45_masked	4	27	400	1	300	300	0	0	346	46	0	1	0	0	0	1	blank2r.bmp	0	1	+	0	5	C1r.bmp	492	1	blank2r.bmp	786	1	BMVZ	786	1	blank2r.bmp	866	4	tot	866	1	!	1239	1	!	1252	0	0	0	0	0	0	0	0	0	0	0	0	0	0	0	0	0	0	0	0	0	0	0	0	0	0	0
121718	13:59:16	14:06:08	411212	5.0.10.0	4_exp_AWA_CON_AMP_EVA	19	Rpleas_acq	Oppo	Rpleas	Bmasked	CS_B	2pleas	distractor2	CONbeforeEVA	acq_US_unple_masked	acq45_masked	4	28	400	0	300	300	0	0	567	46	0	1	0	0	0	1	blank2r.bmp	0	1	+	0	8	C4r.bmp	492	1	blank2r.bmp	786	1	BMVZ	786	1	blank2r.bmp	866	1	eitel	866	1	!	1239	1	!	-1	0	0	0	0	0	0	0	0	0	0	0	0	0	0	0	0	0	0	0	0	0	0	0	0	0	0	0
121718	13:59:16	14:06:10	413477	5.0.10.0	4_exp_AWA_CON_AMP_EVA	19	Rpleas_acq	Oppo	Rpleas	Bmasked	CS_B	2pleas	distractor2	CONbeforeEVA	acq_US_unple_masked	acq45_masked	4	29	400	1	300	300	0	0	440	46	0	1	0	0	0	1	blank2r.bmp	0	1	+	0	2	B2r.bmp	492	1	blank2r.bmp	786	1	BMVZ	786	1	blank2r.bmp	866	5	schlecht	866	1	!	1239	1	!	1346	0	0	0	0	0	0	0	0	0	0	0	0	0	0	0	0	0	0	0	0	0	0	0	0	0	0	0
121718	13:59:16	14:06:13	415690	5.0.10.0	4_exp_AWA_CON_AMP_EVA	19	Rpleas_acq	Oppo	Rpleas	Bmasked	CS_B	2pleas	distractor2	CONbeforeEVA	acq_US_unple_masked	acq45_masked	4	30	400	1	300	300	0	0	419	46	0	1	0	0	0	1	blank2r.bmp	0	1	+	0	7	C3r.bmp	492	1	blank2r.bmp	786	1	BMVZ	786	1	blank2r.bmp	866	3	schroff	866	1	!	1239	1	!	1319	0	0	0	0	0	0	0	0	0	0	0	0	0	0	0	0	0	0	0	0	0	0	0	0	0	0	0
121718	13:59:16	14:06:15	417849	5.0.10.0	4_exp_AWA_CON_AMP_EVA	19	Rpleas_acq	Oppo	Rpleas	Bmasked	CS_B	2pleas	distractor2	CONbeforeEVA	acq_US_unple_masked	acq45_masked	4	31	400	1	300	300	0	0	366	46	0	1	0	0	0	1	blank2r.bmp	0	1	+	0	3	B3r.bmp	492	1	blank2r.bmp	786	1	BMVZ	786	1	blank2r.bmp	866	2	fanatisch	866	1	!	1239	1	!	1266	0	0	0	0	0	0	0	0	0	0	0	0	0	0	0	0	0	0	0	0	0	0	0	0	0	0	0
121718	13:59:16	14:06:17	420008	5.0.10.0	4_exp_AWA_CON_AMP_EVA	19	Rpleas_acq	Oppo	Rpleas	Bmasked	CS_B	2pleas	distractor2	CONbeforeEVA	acq_US_pleas_masked	acq45_masked	4	32	400	1	300	300	0	0	359	50	0	1	0	0	0	1	blank2r.bmp	0	1	+	0	5	C1r.bmp	492	1	blank2r.bmp	786	1	GKQX	786	1	blank2r.bmp	866	5	schön	866	1	!	1239	1	!	1266	0	0	0	0	0	0	0	0	0	0	0	0	0	0	0	0	0	0	0	0	0	0	0	0	0	0	0
121718	13:59:16	14:06:19	422220	5.0.10.0	4_exp_AWA_CON_AMP_EVA	19	Rpleas_acq	Oppo	Rpleas	Bmasked	CS_B	2pleas	distractor2	CONbeforeEVA	acq_US_unple_masked	acq45_masked	4	33	400	1	300	300	0	0	408	46	0	1	0	0	0	1	blank2r.bmp	0	1	+	0	8	C4r.bmp	492	1	blank2r.bmp	786	1	BMVZ	786	1	blank2r.bmp	866	6	tyrannisch	866	1	!	1239	1	!	1306	0	0	0	0	0	0	0	0	0	0	0	0	0	0	0	0	0	0	0	0	0	0	0	0	0	0	0
121718	13:59:16	14:06:21	424366	5.0.10.0	4_exp_AWA_CON_AMP_EVA	19	Rpleas_acq	Oppo	Rpleas	Bmasked	CS_B	2pleas	distractor2	CONbeforeEVA	acq_US_pleas_masked	acq45_masked	4	34	400	1	300	300	0	0	346	50	0	1	0	0	0	1	blank2r.bmp	0	1	+	0	1	B1r.bmp	492	1	blank2r.bmp	786	1	GKQX	786	1	blank2r.bmp	866	3	schlau	866	1	!	1239	1	!	1252	0	0	0	0	0	0	0	0	0	0	0	0	0	0	0	0	0	0	0	0	0	0	0	0	0	0	0
121718	13:59:16	14:06:24	426605	5.0.10.0	4_exp_AWA_CON_AMP_EVA	19	Rpleas_acq	Oppo	Rpleas	Bmasked	CS_B	2pleas	distractor2	CONbeforeEVA	acq_US_pleas_masked	acq45_masked	4	35	400	1	300	300	0	0	441	50	0	1	0	0	0	1	blank2r.bmp	0	1	+	0	6	C2r.bmp	492	1	blank2r.bmp	786	1	GKQX	786	1	blank2r.bmp	866	2	freundlich	866	1	!	1239	1	!	1346	0	0	0	0	0	0	0	0	0	0	0	0	0	0	0	0	0	0	0	0	0	0	0	0	0	0	0
121718	13:59:16	14:06:26	428764	5.0.10.0	4_exp_AWA_CON_AMP_EVA	19	Rpleas_acq	Oppo	Rpleas	Bmasked	CS_B	2pleas	distractor2	CONbeforeEVA	acq_US_pleas_masked	acq45_masked	4	36	400	1	300	300	0	0	358	46	0	0	0	0	0	1	blank2r.bmp	0	1	+	0	4	B4r.bmp	492	1	blank2r.bmp	786	1	GKQX	786	1	blank2r.bmp	866	6	tolerant	866	1	!	1239	1	!	1252	0	0	0	0	0	0	0	0	0	0	0	0	0	0	0	0	0	0	0	0	0	0	0	0	0	0	0
121718	13:59:16	14:06:39	441612	5.0.10.0	4_exp_AWA_CON_AMP_EVA	19	Rpleas_acq	Oppo	Rpleas	Bmasked	CS_B	2pleas	distractor2	CONbeforeEVA	acq_US_unple_masked	acq45_masked	5	1	400	1	300	300	0	0	346	50	0	0	0	0	0	1	blank2r.bmp	0	1	+	0	5	C1r.bmp	492	1	blank2r.bmp	786	1	BMVZ	786	1	blank2r.bmp	866	2	fanatisch	866	1	!	1239	1	!	1252	0	0	0	0	0	0	0	0	0	0	0	0	0	0	0	0	0	0	0	0	0	0	0	0	0	0	0
121718	13:59:16	14:06:41	443798	5.0.10.0	4_exp_AWA_CON_AMP_EVA	19	Rpleas_acq	Oppo	Rpleas	Bmasked	CS_B	2pleas	distractor2	CONbeforeEVA	acq_US_unple_masked	acq45_masked	5	2	400	1	300	300	0	0	374	50	0	0	0	0	0	1	blank2r.bmp	0	1	+	0	2	B2r.bmp	492	1	blank2r.bmp	786	1	BMVZ	786	1	blank2r.bmp	866	3	schroff	866	1	!	1239	1	!	1279	0	0	0	0	0	0	0	0	0	0	0	0	0	0	0	0	0	0	0	0	0	0	0	0	0	0	0
121718	13:59:16	14:06:43	445944	5.0.10.0	4_exp_AWA_CON_AMP_EVA	19	Rpleas_acq	Oppo	Rpleas	Bmasked	CS_B	2pleas	distractor2	CONbeforeEVA	acq_US_unple_masked	acq45_masked	5	3	400	1	300	300	0	0	357	50	0	0	0	0	0	1	blank2r.bmp	0	1	+	0	1	B1r.bmp	492	1	blank2r.bmp	786	1	BMVZ	786	1	blank2r.bmp	866	5	schlecht	866	1	!	1239	1	!	1252	0	0	0	0	0	0	0	0	0	0	0	0	0	0	0	0	0	0	0	0	0	0	0	0	0	0	0
121718	13:59:16	14:06:45	448023	5.0.10.0	4_exp_AWA_CON_AMP_EVA	19	Rpleas_acq	Oppo	Rpleas	Bmasked	CS_B	2pleas	distractor2	CONbeforeEVA	acq_US_unple_masked	acq45_masked	5	4	400	0	300	300	0	0	315	46	0	1	0	0	0	1	blank2r.bmp	0	1	+	0	4	B4r.bmp	492	1	blank2r.bmp	786	1	BMVZ	786	1	blank2r.bmp	866	4	tot	866	1	!	-1	1	!	-1	0	0	0	0	0	0	0	0	0	0	0	0	0	0	0	0	0	0	0	0	0	0	0	0	0	0	0
121718	13:59:16	14:06:47	450195	5.0.10.0	4_exp_AWA_CON_AMP_EVA	19	Rpleas_acq	Oppo	Rpleas	Bmasked	CS_B	2pleas	distractor2	CONbeforeEVA	acq_US_pleas_masked	acq45_masked	5	5	400	1	300	300	0	0	359	50	0	1	0	0	0	1	blank2r.bmp	0	1	+	0	8	C4r.bmp	492	1	blank2r.bmp	786	1	GKQX	786	1	blank2r.bmp	866	2	freundlich	866	1	!	1239	1	!	1266	0	0	0	0	0	0	0	0	0	0	0	0	0	0	0	0	0	0	0	0	0	0	0	0	0	0	0
121718	13:59:16	14:06:52	454873	5.0.10.0	4_exp_AWA_CON_AMP_EVA	19	Rpleas_acq	Oppo	Rpleas	Bmasked	CS_B	2pleas	distractor2	CONbeforeEVA	acq_US_pleas_masked	acq45_masked	5	6	400	0	300	300	0	0	2911	46	0	0	0	0	0	1	blank2r.bmp	0	1	+	0	7	C3r.bmp	492	1	blank2r.bmp	786	1	GKQX	786	1	blank2r.bmp	866	6	tolerant	866	1	!	1239	1	!	-1	0	0	0	0	0	0	0	0	0	0	0	0	0	0	0	0	0	0	0	0	0	0	0	0	0	0	0
121718	13:59:16	14:06:54	457099	5.0.10.0	4_exp_AWA_CON_AMP_EVA	19	Rpleas_acq	Oppo	Rpleas	Bmasked	CS_B	2pleas	distractor2	CONbeforeEVA	acq_US_unple_masked	acq45_masked	5	7	400	1	300	300	0	0	422	46	0	1	0	0	0	1	blank2r.bmp	0	1	+	0	6	C2r.bmp	492	1	blank2r.bmp	786	1	BMVZ	786	1	blank2r.bmp	866	1	eitel	866	1	!	1239	1	!	1319	0	0	0	0	0	0	0	0	0	0	0	0	0	0	0	0	0	0	0	0	0	0	0	0	0	0	0
121718	13:59:16	14:06:56	459205	5.0.10.0	4_exp_AWA_CON_AMP_EVA	19	Rpleas_acq	Oppo	Rpleas	Bmasked	CS_B	2pleas	distractor2	CONbeforeEVA	acq_US_unple_masked	acq45_masked	5	8	400	0	300	300	0	0	332	46	0	1	0	0	0	1	blank2r.bmp	0	1	+	0	3	B3r.bmp	492	1	blank2r.bmp	786	1	BMVZ	786	1	blank2r.bmp	866	6	tyrannisch	866	1	!	-1	1	!	-1	0	0	0	0	0	0	0	0	0	0	0	0	0	0	0	0	0	0	0	0	0	0	0	0	0	0	0
121718	13:59:16	14:06:58	461377	5.0.10.0	4_exp_AWA_CON_AMP_EVA	19	Rpleas_acq	Oppo	Rpleas	Bmasked	CS_B	2pleas	distractor2	CONbeforeEVA	acq_US_pleas_masked	acq45_masked	5	9	400	1	300	300	0	0	361	50	0	1	0	0	0	1	blank2r.bmp	0	1	+	0	1	B1r.bmp	492	1	blank2r.bmp	786	1	GKQX	786	1	blank2r.bmp	866	3	schlau	866	1	!	1239	1	!	1266	0	0	0	0	0	0	0	0	0	0	0	0	0	0	0	0	0	0	0	0	0	0	0	0	0	0	0
121718	13:59:16	14:07:00	463563	5.0.10.0	4_exp_AWA_CON_AMP_EVA	19	Rpleas_acq	Oppo	Rpleas	Bmasked	CS_B	2pleas	distractor2	CONbeforeEVA	acq_US_pleas_masked	acq45_masked	5	10	400	1	300	300	0	0	376	50	0	1	0	0	0	1	blank2r.bmp	0	1	+	0	6	C2r.bmp	492	1	blank2r.bmp	786	1	GKQX	786	1	blank2r.bmp	866	5	schön	866	1	!	1239	1	!	1279	0	0	0	0	0	0	0	0	0	0	0	0	0	0	0	0	0	0	0	0	0	0	0	0	0	0	0
121718	13:59:16	14:07:03	465735	5.0.10.0	4_exp_AWA_CON_AMP_EVA	19	Rpleas_acq	Oppo	Rpleas	Bmasked	CS_B	2pleas	distractor2	CONbeforeEVA	acq_US_unple_masked	acq45_masked	5	11	400	1	300	300	0	0	375	46	0	1	0	0	0	1	blank2r.bmp	0	1	+	0	8	C4r.bmp	492	1	blank2r.bmp	786	1	BMVZ	786	1	blank2r.bmp	866	3	schroff	866	1	!	1239	1	!	1279	0	0	0	0	0	0	0	0	0	0	0	0	0	0	0	0	0	0	0	0	0	0	0	0	0	0	0
121718	13:59:16	14:07:05	467881	5.0.10.0	4_exp_AWA_CON_AMP_EVA	19	Rpleas_acq	Oppo	Rpleas	Bmasked	CS_B	2pleas	distractor2	CONbeforeEVA	acq_US_pleas_masked	acq45_masked	5	12	400	1	300	300	0	0	346	46	0	0	0	0	0	1	blank2r.bmp	0	1	+	0	7	C3r.bmp	492	1	blank2r.bmp	786	1	GKQX	786	1	blank2r.bmp	866	1	ehrlich	866	1	!	1239	1	!	1252	0	0	0	0	0	0	0	0	0	0	0	0	0	0	0	0	0	0	0	0	0	0	0	0	0	0	0
121718	13:59:16	14:07:07	470253	5.0.10.0	4_exp_AWA_CON_AMP_EVA	19	Rpleas_acq	Oppo	Rpleas	Bmasked	CS_B	2pleas	distractor2	CONbeforeEVA	acq_US_unple_masked	acq45_masked	5	13	400	0	300	300	0	0	591	46	0	1	0	0	0	1	blank2r.bmp	0	1	+	0	3	B3r.bmp	492	1	blank2r.bmp	786	1	BMVZ	786	1	blank2r.bmp	866	2	fanatisch	866	1	!	1239	1	!	-1	0	0	0	0	0	0	0	0	0	0	0	0	0	0	0	0	0	0	0	0	0	0	0	0	0	0	0
121718	13:59:16	14:07:09	472373	5.0.10.0	4_exp_AWA_CON_AMP_EVA	19	Rpleas_acq	Oppo	Rpleas	Bmasked	CS_B	2pleas	distractor2	CONbeforeEVA	acq_US_pleas_masked	acq45_masked	5	14	400	0	300	300	0	0	332	50	0	1	0	0	0	1	blank2r.bmp	0	1	+	0	5	C1r.bmp	492	1	blank2r.bmp	786	1	GKQX	786	1	blank2r.bmp	866	4	treu	866	1	!	-1	1	!	-1	0	0	0	0	0	0	0	0	0	0	0	0	0	0	0	0	0	0	0	0	0	0	0	0	0	0	0
121718	13:59:16	14:07:12	474638	5.0.10.0	4_exp_AWA_CON_AMP_EVA	19	Rpleas_acq	Oppo	Rpleas	Bmasked	CS_B	2pleas	distractor2	CONbeforeEVA	acq_US_unple_masked	acq45_masked	5	15	400	0	300	300	0	0	479	46	0	1	0	0	0	1	blank2r.bmp	0	1	+	0	4	B4r.bmp	492	1	blank2r.bmp	786	1	BMVZ	786	1	blank2r.bmp	866	6	tyrannisch	866	1	!	1239	1	!	-1	0	0	0	0	0	0	0	0	0	0	0	0	0	0	0	0	0	0	0	0	0	0	0	0	0	0	0
121718	13:59:16	14:07:14	476797	5.0.10.0	4_exp_AWA_CON_AMP_EVA	19	Rpleas_acq	Oppo	Rpleas	Bmasked	CS_B	2pleas	distractor2	CONbeforeEVA	acq_US_pleas_masked	acq45_masked	5	16	400	1	300	300	0	0	346	50	0	1	0	0	0	1	blank2r.bmp	0	1	+	0	2	B2r.bmp	492	1	blank2r.bmp	786	1	GKQX	786	1	blank2r.bmp	866	5	schön	866	1	!	1239	1	!	1252	0	0	0	0	0	0	0	0	0	0	0	0	0	0	0	0	0	0	0	0	0	0	0	0	0	0	0
121718	13:59:16	14:07:16	479036	5.0.10.0	4_exp_AWA_CON_AMP_EVA	19	Rpleas_acq	Oppo	Rpleas	Bmasked	CS_B	2pleas	distractor2	CONbeforeEVA	acq_US_pleas_masked	acq45_masked	5	17	400	1	300	300	0	0	449	50	0	1	0	0	0	1	blank2r.bmp	0	1	+	0	7	C3r.bmp	492	1	blank2r.bmp	786	1	GKQX	786	1	blank2r.bmp	866	2	freundlich	866	1	!	1239	1	!	1346	0	0	0	0	0	0	0	0	0	0	0	0	0	0	0	0	0	0	0	0	0	0	0	0	0	0	0
121718	13:59:16	14:07:18	481195	5.0.10.0	4_exp_AWA_CON_AMP_EVA	19	Rpleas_acq	Oppo	Rpleas	Bmasked	CS_B	2pleas	distractor2	CONbeforeEVA	acq_US_pleas_masked	acq45_masked	5	18	400	1	300	300	0	0	351	50	0	1	0	0	0	1	blank2r.bmp	0	1	+	0	2	B2r.bmp	492	1	blank2r.bmp	786	1	GKQX	786	1	blank2r.bmp	866	4	treu	866	1	!	1239	1	!	1252	0	0	0	0	0	0	0	0	0	0	0	0	0	0	0	0	0	0	0	0	0	0	0	0	0	0	0
121718	13:59:16	14:07:20	483421	5.0.10.0	4_exp_AWA_CON_AMP_EVA	19	Rpleas_acq	Oppo	Rpleas	Bmasked	CS_B	2pleas	distractor2	CONbeforeEVA	acq_US_pleas_masked	acq45_masked	5	19	400	1	300	300	0	0	428	50	0	1	0	0	0	1	blank2r.bmp	0	1	+	0	8	C4r.bmp	492	1	blank2r.bmp	786	1	GKQX	786	1	blank2r.bmp	866	1	ehrlich	866	1	!	1239	1	!	1332	0	0	0	0	0	0	0	0	0	0	0	0	0	0	0	0	0	0	0	0	0	0	0	0	0	0	0
121718	13:59:16	14:07:23	485647	5.0.10.0	4_exp_AWA_CON_AMP_EVA	19	Rpleas_acq	Oppo	Rpleas	Bmasked	CS_B	2pleas	distractor2	CONbeforeEVA	acq_US_pleas_masked	acq45_masked	5	20	400	1	300	300	0	0	422	50	0	1	0	0	0	1	blank2r.bmp	0	1	+	0	5	C1r.bmp	492	1	blank2r.bmp	786	1	GKQX	786	1	blank2r.bmp	866	6	tolerant	866	1	!	1239	1	!	1319	0	0	0	0	0	0	0	0	0	0	0	0	0	0	0	0	0	0	0	0	0	0	0	0	0	0	0
121718	13:59:16	14:07:25	487806	5.0.10.0	4_exp_AWA_CON_AMP_EVA	19	Rpleas_acq	Oppo	Rpleas	Bmasked	CS_B	2pleas	distractor2	CONbeforeEVA	acq_US_unple_masked	acq45_masked	5	21	400	1	300	300	0	0	368	46	0	1	0	0	0	1	blank2r.bmp	0	1	+	0	3	B3r.bmp	492	1	blank2r.bmp	786	1	BMVZ	786	1	blank2r.bmp	866	1	eitel	866	1	!	1239	1	!	1266	0	0	0	0	0	0	0	0	0	0	0	0	0	0	0	0	0	0	0	0	0	0	0	0	0	0	0
121718	13:59:16	14:07:27	489952	5.0.10.0	4_exp_AWA_CON_AMP_EVA	19	Rpleas_acq	Oppo	Rpleas	Bmasked	CS_B	2pleas	distractor2	CONbeforeEVA	acq_US_unple_masked	acq45_masked	5	22	400	1	300	300	0	0	346	46	0	1	0	0	0	1	blank2r.bmp	0	1	+	0	4	B4r.bmp	492	1	blank2r.bmp	786	1	BMVZ	786	1	blank2r.bmp	866	4	tot	866	1	!	1239	1	!	1252	0	0	0	0	0	0	0	0	0	0	0	0	0	0	0	0	0	0	0	0	0	0	0	0	0	0	0
121718	13:59:16	14:07:29	492164	5.0.10.0	4_exp_AWA_CON_AMP_EVA	19	Rpleas_acq	Oppo	Rpleas	Bmasked	CS_B	2pleas	distractor2	CONbeforeEVA	acq_US_unple_masked	acq45_masked	5	23	400	1	300	300	0	0	417	46	0	1	0	0	0	1	blank2r.bmp	0	1	+	0	1	B1r.bmp	492	1	blank2r.bmp	786	1	BMVZ	786	1	blank2r.bmp	866	5	schlecht	866	1	!	1239	1	!	1319	0	0	0	0	0	0	0	0	0	0	0	0	0	0	0	0	0	0	0	0	0	0	0	0	0	0	0
121718	13:59:16	14:07:31	494337	5.0.10.0	4_exp_AWA_CON_AMP_EVA	19	Rpleas_acq	Oppo	Rpleas	Bmasked	CS_B	2pleas	distractor2	CONbeforeEVA	acq_US_unple_masked	acq45_masked	5	24	400	1	300	300	0	0	376	46	0	1	0	0	0	1	blank2r.bmp	0	1	+	0	6	C2r.bmp	492	1	blank2r.bmp	786	1	BMVZ	786	1	blank2r.bmp	866	3	schroff	866	1	!	1239	1	!	1279	0	0	0	0	0	0	0	0	0	0	0	0	0	0	0	0	0	0	0	0	0	0	0	0	0	0	0
121718	13:59:16	14:07:33	496389	5.0.10.0	4_exp_AWA_CON_AMP_EVA	19	Rpleas_acq	Oppo	Rpleas	Bmasked	CS_B	2pleas	distractor2	CONbeforeEVA	acq_US_pleas_masked	acq45_masked	5	25	400	0	300	300	0	0	291	46	0	0	0	0	0	1	blank2r.bmp	0	1	+	0	8	C4r.bmp	492	1	blank2r.bmp	786	1	GKQX	786	1	blank2r.bmp	866	3	schlau	866	1	!	-1	1	!	-1	0	0	0	0	0	0	0	0	0	0	0	0	0	0	0	0	0	0	0	0	0	0	0	0	0	0	0
121718	13:59:16	14:07:35	498575	5.0.10.0	4_exp_AWA_CON_AMP_EVA	19	Rpleas_acq	Oppo	Rpleas	Bmasked	CS_B	2pleas	distractor2	CONbeforeEVA	acq_US_pleas_masked	acq45_masked	5	26	400	1	300	300	0	0	380	50	0	1	0	0	0	1	blank2r.bmp	0	1	+	0	1	B1r.bmp	492	1	blank2r.bmp	786	1	GKQX	786	1	blank2r.bmp	866	4	treu	866	1	!	1239	1	!	1279	0	0	0	0	0	0	0	0	0	0	0	0	0	0	0	0	0	0	0	0	0	0	0	0	0	0	0
121718	13:59:16	14:07:38	500667	5.0.10.0	4_exp_AWA_CON_AMP_EVA	19	Rpleas_acq	Oppo	Rpleas	Bmasked	CS_B	2pleas	distractor2	CONbeforeEVA	acq_US_unple_masked	acq45_masked	5	27	400	0	300	300	0	0	330	46	0	1	0	0	0	1	blank2r.bmp	0	1	+	0	6	C2r.bmp	492	1	blank2r.bmp	786	1	BMVZ	786	1	blank2r.bmp	866	2	fanatisch	866	1	!	-1	1	!	-1	0	0	0	0	0	0	0	0	0	0	0	0	0	0	0	0	0	0	0	0	0	0	0	0	0	0	0
121718	13:59:16	14:07:40	502866	5.0.10.0	4_exp_AWA_CON_AMP_EVA	19	Rpleas_acq	Oppo	Rpleas	Bmasked	CS_B	2pleas	distractor2	CONbeforeEVA	acq_US_pleas_masked	acq45_masked	5	28	400	1	300	300	0	0	393	50	0	1	0	0	0	1	blank2r.bmp	0	1	+	0	3	B3r.bmp	492	1	blank2r.bmp	786	1	GKQX	786	1	blank2r.bmp	866	5	schön	866	1	!	1239	1	!	1292	0	0	0	0	0	0	0	0	0	0	0	0	0	0	0	0	0	0	0	0	0	0	0	0	0	0	0
121718	13:59:16	14:07:42	505092	5.0.10.0	4_exp_AWA_CON_AMP_EVA	19	Rpleas_acq	Oppo	Rpleas	Bmasked	CS_B	2pleas	distractor2	CONbeforeEVA	acq_US_pleas_masked	acq45_masked	5	29	400	1	300	300	0	0	432	50	0	1	0	0	0	1	blank2r.bmp	0	1	+	0	4	B4r.bmp	492	1	blank2r.bmp	786	1	GKQX	786	1	blank2r.bmp	866	6	tolerant	866	1	!	1239	1	!	1332	0	0	0	0	0	0	0	0	0	0	0	0	0	0	0	0	0	0	0	0	0	0	0	0	0	0	0
121718	13:59:16	14:07:44	507238	5.0.10.0	4_exp_AWA_CON_AMP_EVA	19	Rpleas_acq	Oppo	Rpleas	Bmasked	CS_B	2pleas	distractor2	CONbeforeEVA	acq_US_pleas_masked	acq45_masked	5	30	400	1	300	300	0	0	353	50	0	1	0	0	0	1	blank2r.bmp	0	1	+	0	7	C3r.bmp	492	1	blank2r.bmp	786	1	GKQX	786	1	blank2r.bmp	866	3	schlau	866	1	!	1239	1	!	1252	0	0	0	0	0	0	0	0	0	0	0	0	0	0	0	0	0	0	0	0	0	0	0	0	0	0	0
121718	13:59:16	14:07:46	509424	5.0.10.0	4_exp_AWA_CON_AMP_EVA	19	Rpleas_acq	Oppo	Rpleas	Bmasked	CS_B	2pleas	distractor2	CONbeforeEVA	acq_US_unple_masked	acq45_masked	5	31	400	1	300	300	0	0	391	46	0	1	0	0	0	1	blank2r.bmp	0	1	+	0	5	C1r.bmp	492	1	blank2r.bmp	786	1	BMVZ	786	1	blank2r.bmp	866	5	schlecht	866	1	!	1239	1	!	1292	0	0	0	0	0	0	0	0	0	0	0	0	0	0	0	0	0	0	0	0	0	0	0	0	0	0	0
121718	13:59:16	14:07:48	511583	5.0.10.0	4_exp_AWA_CON_AMP_EVA	19	Rpleas_acq	Oppo	Rpleas	Bmasked	CS_B	2pleas	distractor2	CONbeforeEVA	acq_US_pleas_masked	acq45_masked	5	32	400	1	300	300	0	0	363	50	0	1	0	0	0	1	blank2r.bmp	0	1	+	0	2	B2r.bmp	492	1	blank2r.bmp	786	1	GKQX	786	1	blank2r.bmp	866	1	ehrlich	866	1	!	1239	1	!	1266	0	0	0	0	0	0	0	0	0	0	0	0	0	0	0	0	0	0	0	0	0	0	0	0	0	0	0
121718	13:59:16	14:07:51	513768	5.0.10.0	4_exp_AWA_CON_AMP_EVA	19	Rpleas_acq	Oppo	Rpleas	Bmasked	CS_B	2pleas	distractor2	CONbeforeEVA	acq_US_unple_masked	acq45_masked	5	33	400	1	300	300	0	0	395	46	0	1	0	0	0	1	blank2r.bmp	0	1	+	0	7	C3r.bmp	492	1	blank2r.bmp	786	1	BMVZ	786	1	blank2r.bmp	866	1	eitel	866	1	!	1239	1	!	1292	0	0	0	0	0	0	0	0	0	0	0	0	0	0	0	0	0	0	0	0	0	0	0	0	0	0	0
121718	13:59:16	14:07:53	515954	5.0.10.0	4_exp_AWA_CON_AMP_EVA	19	Rpleas_acq	Oppo	Rpleas	Bmasked	CS_B	2pleas	distractor2	CONbeforeEVA	acq_US_unple_masked	acq45_masked	5	34	400	1	300	300	0	0	392	46	0	1	0	0	0	1	blank2r.bmp	0	1	+	0	5	C1r.bmp	492	1	blank2r.bmp	786	1	BMVZ	786	1	blank2r.bmp	866	4	tot	866	1	!	1239	1	!	1292	0	0	0	0	0	0	0	0	0	0	0	0	0	0	0	0	0	0	0	0	0	0	0	0	0	0	0
121718	13:59:16	14:07:55	518193	5.0.10.0	4_exp_AWA_CON_AMP_EVA	19	Rpleas_acq	Oppo	Rpleas	Bmasked	CS_B	2pleas	distractor2	CONbeforeEVA	acq_US_unple_masked	acq45_masked	5	35	400	1	300	300	0	0	446	46	0	1	0	0	0	1	blank2r.bmp	0	1	+	0	2	B2r.bmp	492	1	blank2r.bmp	786	1	BMVZ	786	1	blank2r.bmp	866	6	tyrannisch	866	1	!	1239	1	!	1346	0	0	0	0	0	0	0	0	0	0	0	0	0	0	0	0	0	0	0	0	0	0	0	0	0	0	0
121718	13:59:16	14:07:57	520392	5.0.10.0	4_exp_AWA_CON_AMP_EVA	19	Rpleas_acq	Oppo	Rpleas	Bmasked	CS_B	2pleas	distractor2	CONbeforeEVA	acq_US_pleas_masked	acq45_masked	5	36	400	1	300	300	0	0	391	50	0	1	0	0	0	1	blank2r.bmp	0	1	+	0	1	B1r.bmp	492	1	blank2r.bmp	786	1	GKQX	786	1	blank2r.bmp	866	2	freundlich	866	1	!	1239	1	!	1292	0	0	0	0	0	0	0	0	0	0	0	0	0	0	0	0	0	0	0	0	0	0	0	0	0	0	0
121718	13:59:16	14:08:49	571651	5.0.10.0	4_exp_AWA_CON_AMP_EVA	19	Rpleas_acq	Oppo	Lpleas	Bmasked	CS_B	2pleas	distractor2	CONbeforeEVA	cond_US_pleas_123_masked_CS1	condtest_masked_1	8	1	400	1	300	300	0	0	388	46	0	1	0	0	0	1	blank2r.bmp	0	1	+	0	8	C4r.bmp	492	1	blank2r.bmp	786	1	BMVZ	786	1	blank2r.bmp	866	1	ehrlich	866	1	!	1239	1	!	1292	0	0	0	0	0	0	0	0	0	0	0	0	0	0	0	0	0	0	0	0	0	0	0	0	0	0	0
121718	13:59:16	14:08:51	573743	5.0.10.0	4_exp_AWA_CON_AMP_EVA	19	Rpleas_acq	Oppo	Lpleas	Bmasked	CS_B	2pleas	distractor2	CONbeforeEVA	cond_US_pleas_123_masked_CS2	condtest_masked_1	8	2	400	0	300	300	0	0	323	46	0	1	0	0	0	1	blank2r.bmp	0	1	+	0	6	C2r.bmp	492	1	blank2r.bmp	786	1	GKQX	786	1	blank2r.bmp	866	2	freundlich	866	1	!	-1	1	!	-1	0	0	0	0	0	0	0	0	0	0	0	0	0	0	0	0	0	0	0	0	0	0	0	0	0	0	0
121718	13:59:16	14:08:53	575902	5.0.10.0	4_exp_AWA_CON_AMP_EVA	19	Rpleas_acq	Oppo	Lpleas	Bmasked	CS_B	2pleas	distractor2	CONbeforeEVA	cond_new_pleas_456_masked_CS1	condtest_masked_1	8	3	400	1	300	300	0	0	346	46	0	1	0	0	0	1	blank2r.bmp	0	1	+	0	3	B3r.bmp	492	1	blank2r.bmp	786	1	BMVZ	786	1	blank2r.bmp	866	1	lachen	866	1	!	1239	1	!	1252	0	0	0	0	0	0	0	0	0	0	0	0	0	0	0	0	0	0	0	0	0	0	0	0	0	0	0
121718	13:59:16	14:08:55	578101	5.0.10.0	4_exp_AWA_CON_AMP_EVA	19	Rpleas_acq	Oppo	Lpleas	Bmasked	CS_B	2pleas	distractor2	CONbeforeEVA	cond_US_unple_123_masked_CS2	condtest_masked_1	8	4	400	1	300	300	0	0	399	46	0	0	0	0	0	1	blank2r.bmp	0	1	+	0	4	B4r.bmp	492	1	blank2r.bmp	786	1	GKQX	786	1	blank2r.bmp	866	2	fanatisch	866	1	!	1239	1	!	1306	0	0	0	0	0	0	0	0	0	0	0	0	0	0	0	0	0	0	0	0	0	0	0	0	0	0	0
121718	13:59:16	14:08:57	580274	5.0.10.0	4_exp_AWA_CON_AMP_EVA	19	Rpleas_acq	Oppo	Lpleas	Bmasked	CS_B	2pleas	distractor2	CONbeforeEVA	cond_new_unple_456_masked_CS2	condtest_masked_1	8	5	400	1	300	300	0	0	375	46	0	0	0	0	0	1	blank2r.bmp	0	1	+	0	3	B3r.bmp	492	1	blank2r.bmp	786	1	GKQX	786	1	blank2r.bmp	866	1	leiden	866	1	!	1239	1	!	1279	0	0	0	0	0	0	0	0	0	0	0	0	0	0	0	0	0	0	0	0	0	0	0	0	0	0	0
121718	13:59:16	14:08:59	582486	5.0.10.0	4_exp_AWA_CON_AMP_EVA	19	Rpleas_acq	Oppo	Lpleas	Bmasked	CS_B	2pleas	distractor2	CONbeforeEVA	cond_new_unple_456_masked_CS1	condtest_masked_1	8	6	400	1	300	300	0	0	422	50	0	1	0	0	0	1	blank2r.bmp	0	1	+	0	7	C3r.bmp	492	1	blank2r.bmp	786	1	BMVZ	786	1	blank2r.bmp	866	3	hindern	866	1	!	1239	1	!	1319	0	0	0	0	0	0	0	0	0	0	0	0	0	0	0	0	0	0	0	0	0	0	0	0	0	0	0
121718	13:59:16	14:09:02	584672	5.0.10.0	4_exp_AWA_CON_AMP_EVA	19	Rpleas_acq	Oppo	Lpleas	Bmasked	CS_B	2pleas	distractor2	CONbeforeEVA	cond_new_pleas_456_masked_CS2	condtest_masked_1	8	7	400	1	300	300	0	0	398	46	0	1	0	0	0	1	blank2r.bmp	0	1	+	0	1	B1r.bmp	492	1	blank2r.bmp	786	1	GKQX	786	1	blank2r.bmp	866	3	helfen	866	1	!	1239	1	!	1292	0	0	0	0	0	0	0	0	0	0	0	0	0	0	0	0	0	0	0	0	0	0	0	0	0	0	0
121718	13:59:16	14:09:04	586831	5.0.10.0	4_exp_AWA_CON_AMP_EVA	19	Rpleas_acq	Oppo	Lpleas	Bmasked	CS_B	2pleas	distractor2	CONbeforeEVA	cond_US_unple_123_masked_CS1	condtest_masked_1	8	8	400	1	300	300	0	0	368	50	0	1	0	0	0	1	blank2r.bmp	0	1	+	0	5	C1r.bmp	492	1	blank2r.bmp	786	1	BMVZ	786	1	blank2r.bmp	866	3	schroff	866	1	!	1239	1	!	1266	0	0	0	0	0	0	0	0	0	0	0	0	0	0	0	0	0	0	0	0	0	0	0	0	0	0	0
121718	13:59:16	14:09:12	595440	5.0.10.0	4_exp_AWA_CON_AMP_EVA	19	Rpleas_acq	Oppo	Lpleas	Bmasked	CS_B	2pleas	distractor2	CONbeforeEVA	cond_new_unple_456_masked_CS2	condtest_masked_2	9	1	400	0	300	300	0	0	290	46	0	0	0	0	0	1	blank2r.bmp	0	1	+	0	8	C4r.bmp	492	1	blank2r.bmp	786	1	GKQX	786	1	blank2r.bmp	866	2	lasch	866	1	!	-1	1	!	-1	0	0	0	0	0	0	0	0	0	0	0	0	0	0	0	0	0	0	0	0	0	0	0	0	0	0	0
121718	13:59:16	14:09:15	597666	5.0.10.0	4_exp_AWA_CON_AMP_EVA	19	Rpleas_acq	Oppo	Lpleas	Bmasked	CS_B	2pleas	distractor2	CONbeforeEVA	cond_US_pleas_123_masked_CS2	condtest_masked_2	9	2	400	1	300	300	0	0	414	46	0	1	0	0	0	1	blank2r.bmp	0	1	+	0	4	B4r.bmp	492	1	blank2r.bmp	786	1	GKQX	786	1	blank2r.bmp	866	3	schlau	866	1	!	1239	1	!	1319	0	0	0	0	0	0	0	0	0	0	0	0	0	0	0	0	0	0	0	0	0	0	0	0	0	0	0
121718	13:59:16	14:09:17	599892	5.0.10.0	4_exp_AWA_CON_AMP_EVA	19	Rpleas_acq	Oppo	Lpleas	Bmasked	CS_B	2pleas	distractor2	CONbeforeEVA	cond_new_pleas_456_masked_CS1	condtest_masked_2	9	3	400	1	300	300	0	0	432	46	0	1	0	0	0	1	blank2r.bmp	0	1	+	0	6	C2r.bmp	492	1	blank2r.bmp	786	1	BMVZ	786	1	blank2r.bmp	866	2	loyal	866	1	!	1239	1	!	1332	0	0	0	0	0	0	0	0	0	0	0	0	0	0	0	0	0	0	0	0	0	0	0	0	0	0	0
121718	13:59:16	14:09:19	602131	5.0.10.0	4_exp_AWA_CON_AMP_EVA	19	Rpleas_acq	Oppo	Lpleas	Bmasked	CS_B	2pleas	distractor2	CONbeforeEVA	cond_new_unple_456_masked_CS2	condtest_masked_2	9	4	400	1	300	300	0	0	439	50	0	1	0	0	0	1	blank2r.bmp	0	1	+	0	2	B2r.bmp	492	1	blank2r.bmp	786	1	GKQX	786	1	blank2r.bmp	866	3	hindern	866	1	!	1239	1	!	1346	0	0	0	0	0	0	0	0	0	0	0	0	0	0	0	0	0	0	0	0	0	0	0	0	0	0	0
121718	13:59:16	14:09:21	604330	5.0.10.0	4_exp_AWA_CON_AMP_EVA	19	Rpleas_acq	Oppo	Lpleas	Bmasked	CS_B	2pleas	distractor2	CONbeforeEVA	cond_new_pleas_456_masked_CS1	condtest_masked_2	9	5	400	1	300	300	0	0	410	46	0	1	0	0	0	1	blank2r.bmp	0	1	+	0	4	B4r.bmp	492	1	blank2r.bmp	786	1	BMVZ	786	1	blank2r.bmp	866	1	lachen	866	1	!	1239	1	!	1306	0	0	0	0	0	0	0	0	0	0	0	0	0	0	0	0	0	0	0	0	0	0	0	0	0	0	0
121718	13:59:16	14:09:23	606569	5.0.10.0	4_exp_AWA_CON_AMP_EVA	19	Rpleas_acq	Oppo	Lpleas	Bmasked	CS_B	2pleas	distractor2	CONbeforeEVA	cond_new_pleas_456_masked_CS2	condtest_masked_2	9	6	400	1	300	300	0	0	444	46	0	1	0	0	0	1	blank2r.bmp	0	1	+	0	3	B3r.bmp	492	1	blank2r.bmp	786	1	GKQX	786	1	blank2r.bmp	866	2	loyal	866	1	!	1239	1	!	1346	0	0	0	0	0	0	0	0	0	0	0	0	0	0	0	0	0	0	0	0	0	0	0	0	0	0	0
121718	13:59:16	14:09:26	608768	5.0.10.0	4_exp_AWA_CON_AMP_EVA	19	Rpleas_acq	Oppo	Lpleas	Bmasked	CS_B	2pleas	distractor2	CONbeforeEVA	cond_new_unple_456_masked_CS1	condtest_masked_2	9	7	400	1	300	300	0	0	407	50	0	1	0	0	0	1	blank2r.bmp	0	1	+	0	1	B1r.bmp	492	1	blank2r.bmp	786	1	BMVZ	786	1	blank2r.bmp	866	2	lasch	866	1	!	1239	1	!	1306	0	0	0	0	0	0	0	0	0	0	0	0	0	0	0	0	0	0	0	0	0	0	0	0	0	0	0
121718	13:59:16	14:09:28	610927	5.0.10.0	4_exp_AWA_CON_AMP_EVA	19	Rpleas_acq	Oppo	Lpleas	Bmasked	CS_B	2pleas	distractor2	CONbeforeEVA	cond_new_unple_456_masked_CS1	condtest_masked_2	9	8	400	1	300	300	0	0	364	46	0	0	0	0	0	1	blank2r.bmp	0	1	+	0	8	C4r.bmp	492	1	blank2r.bmp	786	1	BMVZ	786	1	blank2r.bmp	866	1	leiden	866	1	!	1239	1	!	1266	0	0	0	0	0	0	0	0	0	0	0	0	0	0	0	0	0	0	0	0	0	0	0	0	0	0	0
121718	13:59:16	14:09:30	613073	5.0.10.0	4_exp_AWA_CON_AMP_EVA	19	Rpleas_acq	Oppo	Lpleas	Bmasked	CS_B	2pleas	distractor2	CONbeforeEVA	cond_US_unple_123_masked_CS1	condtest_masked_2	9	9	400	1	300	300	0	0	351	50	0	1	0	0	0	1	blank2r.bmp	0	1	+	0	5	C1r.bmp	492	1	blank2r.bmp	786	1	BMVZ	786	1	blank2r.bmp	866	1	eitel	866	1	!	1239	1	!	1252	0	0	0	0	0	0	0	0	0	0	0	0	0	0	0	0	0	0	0	0	0	0	0	0	0	0	0
121718	13:59:16	14:09:32	615232	5.0.10.0	4_exp_AWA_CON_AMP_EVA	19	Rpleas_acq	Oppo	Lpleas	Bmasked	CS_B	2pleas	distractor2	CONbeforeEVA	cond_new_unple_456_masked_CS1	condtest_masked_2	9	10	400	1	300	300	0	0	360	50	0	1	0	0	0	1	blank2r.bmp	0	1	+	0	7	C3r.bmp	492	1	blank2r.bmp	786	1	BMVZ	786	1	blank2r.bmp	866	1	leiden	866	1	!	1239	1	!	1266	0	0	0	0	0	0	0	0	0	0	0	0	0	0	0	0	0	0	0	0	0	0	0	0	0	0	0
121718	13:59:16	14:09:34	617404	5.0.10.0	4_exp_AWA_CON_AMP_EVA	19	Rpleas_acq	Oppo	Lpleas	Bmasked	CS_B	2pleas	distractor2	CONbeforeEVA	cond_US_unple_123_masked_CS2	condtest_masked_2	9	11	400	1	300	300	0	0	385	50	0	1	0	0	0	1	blank2r.bmp	0	1	+	0	2	B2r.bmp	492	1	blank2r.bmp	786	1	GKQX	786	1	blank2r.bmp	866	1	eitel	866	1	!	1239	1	!	1279	0	0	0	0	0	0	0	0	0	0	0	0	0	0	0	0	0	0	0	0	0	0	0	0	0	0	0
121718	13:59:16	14:09:36	619564	5.0.10.0	4_exp_AWA_CON_AMP_EVA	19	Rpleas_acq	Oppo	Lpleas	Bmasked	CS_B	2pleas	distractor2	CONbeforeEVA	cond_US_pleas_123_masked_CS2	condtest_masked_2	9	12	400	1	300	300	0	0	359	46	0	1	0	0	0	1	blank2r.bmp	0	1	+	0	6	C2r.bmp	492	1	blank2r.bmp	786	1	GKQX	786	1	blank2r.bmp	866	2	freundlich	866	1	!	1239	1	!	1266	0	0	0	0	0	0	0	0	0	0	0	0	0	0	0	0	0	0	0	0	0	0	0	0	0	0	0
121718	13:59:16	14:09:39	621709	5.0.10.0	4_exp_AWA_CON_AMP_EVA	19	Rpleas_acq	Oppo	Lpleas	Bmasked	CS_B	2pleas	distractor2	CONbeforeEVA	cond_US_unple_123_masked_CS1	condtest_masked_2	9	13	400	1	300	300	0	0	351	50	0	1	0	0	0	1	blank2r.bmp	0	1	+	0	4	B4r.bmp	492	1	blank2r.bmp	786	1	BMVZ	786	1	blank2r.bmp	866	3	schroff	866	1	!	1239	1	!	1252	0	0	0	0	0	0	0	0	0	0	0	0	0	0	0	0	0	0	0	0	0	0	0	0	0	0	0
121718	13:59:16	14:09:41	623855	5.0.10.0	4_exp_AWA_CON_AMP_EVA	19	Rpleas_acq	Oppo	Lpleas	Bmasked	CS_B	2pleas	distractor2	CONbeforeEVA	cond_US_pleas_123_masked_CS1	condtest_masked_2	9	14	400	1	300	300	0	0	353	46	0	1	0	0	0	1	blank2r.bmp	0	1	+	0	3	B3r.bmp	492	1	blank2r.bmp	786	1	BMVZ	786	1	blank2r.bmp	866	1	ehrlich	866	1	!	1239	1	!	1252	0	0	0	0	0	0	0	0	0	0	0	0	0	0	0	0	0	0	0	0	0	0	0	0	0	0	0
121718	13:59:16	14:09:43	626107	5.0.10.0	4_exp_AWA_CON_AMP_EVA	19	Rpleas_acq	Oppo	Lpleas	Bmasked	CS_B	2pleas	distractor2	CONbeforeEVA	cond_US_pleas_123_masked_CS1	condtest_masked_2	9	15	400	0	300	300	0	0	479	50	0	0	0	0	0	1	blank2r.bmp	0	1	+	0	5	C1r.bmp	492	1	blank2r.bmp	786	1	BMVZ	786	1	blank2r.bmp	866	3	schlau	866	1	!	1239	1	!	-1	0	0	0	0	0	0	0	0	0	0	0	0	0	0	0	0	0	0	0	0	0	0	0	0	0	0	0
121718	13:59:16	14:09:45	628373	5.0.10.0	4_exp_AWA_CON_AMP_EVA	19	Rpleas_acq	Oppo	Lpleas	Bmasked	CS_B	2pleas	distractor2	CONbeforeEVA	cond_new_pleas_456_masked_CS2	condtest_masked_2	9	16	400	0	300	300	0	0	487	46	0	1	0	0	0	1	blank2r.bmp	0	1	+	0	7	C3r.bmp	492	1	blank2r.bmp	786	1	GKQX	786	1	blank2r.bmp	866	3	helfen	866	1	!	1239	1	!	-1	0	0	0	0	0	0	0	0	0	0	0	0	0	0	0	0	0	0	0	0	0	0	0	0	0	0	0
121718	13:59:16	14:09:47	630532	5.0.10.0	4_exp_AWA_CON_AMP_EVA	19	Rpleas_acq	Oppo	Lpleas	Bmasked	CS_B	2pleas	distractor2	CONbeforeEVA	cond_US_pleas_123_masked_CS2	condtest_masked_2	9	17	400	1	300	300	0	0	346	46	0	1	0	0	0	1	blank2r.bmp	0	1	+	0	6	C2r.bmp	492	1	blank2r.bmp	786	1	GKQX	786	1	blank2r.bmp	866	1	ehrlich	866	1	!	1239	1	!	1252	0	0	0	0	0	0	0	0	0	0	0	0	0	0	0	0	0	0	0	0	0	0	0	0	0	0	0
121718	13:59:16	14:09:49	632571	5.0.10.0	4_exp_AWA_CON_AMP_EVA	19	Rpleas_acq	Oppo	Lpleas	Bmasked	CS_B	2pleas	distractor2	CONbeforeEVA	cond_US_pleas_123_masked_CS1	condtest_masked_2	9	18	400	0	300	300	0	0	273	46	0	1	0	0	0	1	blank2r.bmp	0	1	+	0	8	C4r.bmp	492	1	blank2r.bmp	786	1	BMVZ	786	1	blank2r.bmp	866	3	schlau	866	1	!	-1	1	!	-1	0	0	0	0	0	0	0	0	0	0	0	0	0	0	0	0	0	0	0	0	0	0	0	0	0	0	0
121718	13:59:16	14:09:52	634757	5.0.10.0	4_exp_AWA_CON_AMP_EVA	19	Rpleas_acq	Oppo	Lpleas	Bmasked	CS_B	2pleas	distractor2	CONbeforeEVA	cond_US_pleas_123_masked_CS1	condtest_masked_2	9	19	400	1	300	300	0	0	364	46	0	1	0	0	0	1	blank2r.bmp	0	1	+	0	1	B1r.bmp	492	1	blank2r.bmp	786	1	BMVZ	786	1	blank2r.bmp	866	2	freundlich	866	1	!	1239	1	!	1266	0	0	0	0	0	0	0	0	0	0	0	0	0	0	0	0	0	0	0	0	0	0	0	0	0	0	0
121718	13:59:16	14:09:54	636796	5.0.10.0	4_exp_AWA_CON_AMP_EVA	19	Rpleas_acq	Oppo	Lpleas	Bmasked	CS_B	2pleas	distractor2	CONbeforeEVA	cond_new_unple_456_masked_CS2	condtest_masked_2	9	20	400	0	300	300	0	0	267	46	0	0	0	0	0	1	blank2r.bmp	0	1	+	0	2	B2r.bmp	492	1	blank2r.bmp	786	1	GKQX	786	1	blank2r.bmp	866	3	hindern	866	1	!	-1	1	!	-1	0	0	0	0	0	0	0	0	0	0	0	0	0	0	0	0	0	0	0	0	0	0	0	0	0	0	0
121718	13:59:16	14:09:57	639848	5.0.10.0	4_exp_AWA_CON_AMP_EVA	19	Rpleas_acq	Oppo	Lpleas	Bmasked	CS_B	2pleas	distractor2	CONbeforeEVA	cond_new_pleas_456_masked_CS2	condtest_masked_2	9	21	400	0	300	300	0	0	1270	46	0	1	0	0	0	1	blank2r.bmp	0	1	+	0	3	B3r.bmp	492	1	blank2r.bmp	786	1	GKQX	786	1	blank2r.bmp	866	2	loyal	866	1	!	1239	1	!	-1	0	0	0	0	0	0	0	0	0	0	0	0	0	0	0	0	0	0	0	0	0	0	0	0	0	0	0
121718	13:59:16	14:09:59	642021	5.0.10.0	4_exp_AWA_CON_AMP_EVA	19	Rpleas_acq	Oppo	Lpleas	Bmasked	CS_B	2pleas	distractor2	CONbeforeEVA	cond_US_unple_123_masked_CS1	condtest_masked_2	9	22	400	1	300	300	0	0	362	50	0	1	0	0	0	1	blank2r.bmp	0	1	+	0	8	C4r.bmp	492	1	blank2r.bmp	786	1	BMVZ	786	1	blank2r.bmp	866	2	fanatisch	866	1	!	1239	1	!	1266	0	0	0	0	0	0	0	0	0	0	0	0	0	0	0	0	0	0	0	0	0	0	0	0	0	0	0
121718	13:59:16	14:10:01	644166	5.0.10.0	4_exp_AWA_CON_AMP_EVA	19	Rpleas_acq	Oppo	Lpleas	Bmasked	CS_B	2pleas	distractor2	CONbeforeEVA	cond_new_unple_456_masked_CS2	condtest_masked_2	9	23	400	1	300	300	0	0	352	50	0	1	0	0	0	1	blank2r.bmp	0	1	+	0	1	B1r.bmp	492	1	blank2r.bmp	786	1	GKQX	786	1	blank2r.bmp	866	2	lasch	866	1	!	1239	1	!	1252	0	0	0	0	0	0	0	0	0	0	0	0	0	0	0	0	0	0	0	0	0	0	0	0	0	0	0
121718	13:59:16	14:10:03	646406	5.0.10.0	4_exp_AWA_CON_AMP_EVA	19	Rpleas_acq	Oppo	Lpleas	Bmasked	CS_B	2pleas	distractor2	CONbeforeEVA	cond_US_pleas_123_masked_CS1	condtest_masked_2	9	24	400	1	300	300	0	0	440	46	0	1	0	0	0	1	blank2r.bmp	0	1	+	0	4	B4r.bmp	492	1	blank2r.bmp	786	1	BMVZ	786	1	blank2r.bmp	866	3	schlau	866	1	!	1239	1	!	1346	0	0	0	0	0	0	0	0	0	0	0	0	0	0	0	0	0	0	0	0	0	0	0	0	0	0	0
121718	13:59:16	14:10:06	648618	5.0.10.0	4_exp_AWA_CON_AMP_EVA	19	Rpleas_acq	Oppo	Lpleas	Bmasked	CS_B	2pleas	distractor2	CONbeforeEVA	cond_new_pleas_456_masked_CS2	condtest_masked_2	9	25	400	1	300	300	0	0	412	46	0	1	0	0	0	1	blank2r.bmp	0	1	+	0	5	C1r.bmp	492	1	blank2r.bmp	786	1	GKQX	786	1	blank2r.bmp	866	3	helfen	866	1	!	1239	1	!	1319	0	0	0	0	0	0	0	0	0	0	0	0	0	0	0	0	0	0	0	0	0	0	0	0	0	0	0
121718	13:59:16	14:10:08	650764	5.0.10.0	4_exp_AWA_CON_AMP_EVA	19	Rpleas_acq	Oppo	Lpleas	Bmasked	CS_B	2pleas	distractor2	CONbeforeEVA	cond_US_unple_123_masked_CS2	condtest_masked_2	9	26	400	1	300	300	0	0	349	50	0	1	0	0	0	1	blank2r.bmp	0	1	+	0	6	C2r.bmp	492	1	blank2r.bmp	786	1	GKQX	786	1	blank2r.bmp	866	3	schroff	866	1	!	1239	1	!	1252	0	0	0	0	0	0	0	0	0	0	0	0	0	0	0	0	0	0	0	0	0	0	0	0	0	0	0
121718	13:59:16	14:10:10	652936	5.0.10.0	4_exp_AWA_CON_AMP_EVA	19	Rpleas_acq	Oppo	Lpleas	Bmasked	CS_B	2pleas	distractor2	CONbeforeEVA	cond_new_pleas_456_masked_CS1	condtest_masked_2	9	27	400	1	300	300	0	0	378	46	0	1	0	0	0	1	blank2r.bmp	0	1	+	0	2	B2r.bmp	492	1	blank2r.bmp	786	1	BMVZ	786	1	blank2r.bmp	866	1	lachen	866	1	!	1239	1	!	1279	0	0	0	0	0	0	0	0	0	0	0	0	0	0	0	0	0	0	0	0	0	0	0	0	0	0	0
121718	13:59:16	14:10:12	655109	5.0.10.0	4_exp_AWA_CON_AMP_EVA	19	Rpleas_acq	Oppo	Lpleas	Bmasked	CS_B	2pleas	distractor2	CONbeforeEVA	cond_US_pleas_123_masked_CS2	condtest_masked_2	9	28	400	1	300	300	0	0	383	46	0	1	0	0	0	1	blank2r.bmp	0	1	+	0	7	C3r.bmp	492	1	blank2r.bmp	786	1	GKQX	786	1	blank2r.bmp	866	2	freundlich	866	1	!	1239	1	!	1279	0	0	0	0	0	0	0	0	0	0	0	0	0	0	0	0	0	0	0	0	0	0	0	0	0	0	0
121718	13:59:16	14:10:14	657201	5.0.10.0	4_exp_AWA_CON_AMP_EVA	19	Rpleas_acq	Oppo	Lpleas	Bmasked	CS_B	2pleas	distractor2	CONbeforeEVA	cond_new_pleas_456_masked_CS1	condtest_masked_2	9	29	400	0	300	300	0	0	328	46	0	1	0	0	0	1	blank2r.bmp	0	1	+	0	4	B4r.bmp	492	1	blank2r.bmp	786	1	BMVZ	786	1	blank2r.bmp	866	1	lachen	866	1	!	-1	1	!	-1	0	0	0	0	0	0	0	0	0	0	0	0	0	0	0	0	0	0	0	0	0	0	0	0	0	0	0
121718	13:59:16	14:10:16	659453	5.0.10.0	4_exp_AWA_CON_AMP_EVA	19	Rpleas_acq	Oppo	Lpleas	Bmasked	CS_B	2pleas	distractor2	CONbeforeEVA	cond_US_unple_123_masked_CS1	condtest_masked_2	9	30	400	1	300	300	0	0	444	46	0	0	0	0	0	1	blank2r.bmp	0	1	+	0	8	C4r.bmp	492	1	blank2r.bmp	786	1	BMVZ	786	1	blank2r.bmp	866	1	eitel	866	1	!	1239	1	!	1346	0	0	0	0	0	0	0	0	0	0	0	0	0	0	0	0	0	0	0	0	0	0	0	0	0	0	0
121718	13:59:16	14:10:19	661706	5.0.10.0	4_exp_AWA_CON_AMP_EVA	19	Rpleas_acq	Oppo	Lpleas	Bmasked	CS_B	2pleas	distractor2	CONbeforeEVA	cond_US_unple_123_masked_CS2	condtest_masked_2	9	31	400	0	300	300	0	0	479	50	0	1	0	0	0	1	blank2r.bmp	0	1	+	0	6	C2r.bmp	492	1	blank2r.bmp	786	1	GKQX	786	1	blank2r.bmp	866	2	fanatisch	866	1	!	1239	1	!	-1	0	0	0	0	0	0	0	0	0	0	0	0	0	0	0	0	0	0	0	0	0	0	0	0	0	0	0
121718	13:59:16	14:10:21	663878	5.0.10.0	4_exp_AWA_CON_AMP_EVA	19	Rpleas_acq	Oppo	Lpleas	Bmasked	CS_B	2pleas	distractor2	CONbeforeEVA	cond_new_unple_456_masked_CS1	condtest_masked_2	9	32	400	1	300	300	0	0	360	50	0	1	0	0	0	1	blank2r.bmp	0	1	+	0	1	B1r.bmp	492	1	blank2r.bmp	786	1	BMVZ	786	1	blank2r.bmp	866	3	hindern	866	1	!	1239	1	!	1266	0	0	0	0	0	0	0	0	0	0	0	0	0	0	0	0	0	0	0	0	0	0	0	0	0	0	0
121718	13:59:16	14:10:23	666131	5.0.10.0	4_exp_AWA_CON_AMP_EVA	19	Rpleas_acq	Oppo	Lpleas	Bmasked	CS_B	2pleas	distractor2	CONbeforeEVA	cond_new_pleas_456_masked_CS1	condtest_masked_2	9	33	400	1	300	300	0	0	446	46	0	1	0	0	0	1	blank2r.bmp	0	1	+	0	2	B2r.bmp	492	1	blank2r.bmp	786	1	BMVZ	786	1	blank2r.bmp	866	2	loyal	866	1	!	1239	1	!	1346	0	0	0	0	0	0	0	0	0	0	0	0	0	0	0	0	0	0	0	0	0	0	0	0	0	0	0
121718	13:59:16	14:10:25	668276	5.0.10.0	4_exp_AWA_CON_AMP_EVA	19	Rpleas_acq	Oppo	Lpleas	Bmasked	CS_B	2pleas	distractor2	CONbeforeEVA	cond_US_unple_123_masked_CS2	condtest_masked_2	9	34	400	1	300	300	0	0	346	46	0	0	0	0	0	1	blank2r.bmp	0	1	+	0	5	C1r.bmp	492	1	blank2r.bmp	786	1	GKQX	786	1	blank2r.bmp	866	2	fanatisch	866	1	!	1239	1	!	1252	0	0	0	0	0	0	0	0	0	0	0	0	0	0	0	0	0	0	0	0	0	0	0	0	0	0	0
121718	13:59:16	14:10:27	670529	5.0.10.0	4_exp_AWA_CON_AMP_EVA	19	Rpleas_acq	Oppo	Lpleas	Bmasked	CS_B	2pleas	distractor2	CONbeforeEVA	cond_new_unple_456_masked_CS1	condtest_masked_2	9	35	400	0	300	300	0	0	479	46	0	0	0	0	0	1	blank2r.bmp	0	1	+	0	3	B3r.bmp	492	1	blank2r.bmp	786	1	BMVZ	786	1	blank2r.bmp	866	1	leiden	866	1	!	1239	1	!	-1	0	0	0	0	0	0	0	0	0	0	0	0	0	0	0	0	0	0	0	0	0	0	0	0	0	0	0
121718	13:59:16	14:10:30	672714	5.0.10.0	4_exp_AWA_CON_AMP_EVA	19	Rpleas_acq	Oppo	Lpleas	Bmasked	CS_B	2pleas	distractor2	CONbeforeEVA	cond_US_unple_123_masked_CS1	condtest_masked_2	9	36	400	1	300	300	0	0	382	50	0	1	0	0	0	1	blank2r.bmp	0	1	+	0	7	C3r.bmp	492	1	blank2r.bmp	786	1	BMVZ	786	1	blank2r.bmp	866	1	eitel	866	1	!	1239	1	!	1279	0	0	0	0	0	0	0	0	0	0	0	0	0	0	0	0	0	0	0	0	0	0	0	0	0	0	0
121718	13:59:16	14:10:32	675127	5.0.10.0	4_exp_AWA_CON_AMP_EVA	19	Rpleas_acq	Oppo	Lpleas	Bmasked	CS_B	2pleas	distractor2	CONbeforeEVA	cond_new_pleas_456_masked_CS2	condtest_masked_2	9	37	400	0	300	300	0	0	639	46	0	1	0	0	0	1	blank2r.bmp	0	1	+	0	8	C4r.bmp	492	1	blank2r.bmp	786	1	GKQX	786	1	blank2r.bmp	866	3	helfen	866	1	!	1239	1	!	-1	0	0	0	0	0	0	0	0	0	0	0	0	0	0	0	0	0	0	0	0	0	0	0	0	0	0	0
121718	13:59:16	14:10:34	677206	5.0.10.0	4_exp_AWA_CON_AMP_EVA	19	Rpleas_acq	Oppo	Lpleas	Bmasked	CS_B	2pleas	distractor2	CONbeforeEVA	cond_US_unple_123_masked_CS2	condtest_masked_2	9	38	400	0	300	300	0	0	296	50	0	1	0	0	0	1	blank2r.bmp	0	1	+	0	4	B4r.bmp	492	1	blank2r.bmp	786	1	GKQX	786	1	blank2r.bmp	866	3	schroff	866	1	!	-1	1	!	-1	0	0	0	0	0	0	0	0	0	0	0	0	0	0	0	0	0	0	0	0	0	0	0	0	0	0	0
121718	13:59:16	14:10:36	679392	5.0.10.0	4_exp_AWA_CON_AMP_EVA	19	Rpleas_acq	Oppo	Lpleas	Bmasked	CS_B	2pleas	distractor2	CONbeforeEVA	cond_US_pleas_123_masked_CS2	condtest_masked_2	9	39	400	1	300	300	0	0	376	46	0	1	0	0	0	1	blank2r.bmp	0	1	+	0	1	B1r.bmp	492	1	blank2r.bmp	786	1	GKQX	786	1	blank2r.bmp	866	1	ehrlich	866	1	!	1239	1	!	1279	0	0	0	0	0	0	0	0	0	0	0	0	0	0	0	0	0	0	0	0	0	0	0	0	0	0	0
121718	13:59:16	14:10:39	681684	5.0.10.0	4_exp_AWA_CON_AMP_EVA	19	Rpleas_acq	Oppo	Lpleas	Bmasked	CS_B	2pleas	distractor2	CONbeforeEVA	cond_new_unple_456_masked_CS2	condtest_masked_2	9	40	400	0	300	300	0	0	520	50	0	1	0	0	0	1	blank2r.bmp	0	1	+	0	5	C1r.bmp	492	1	blank2r.bmp	786	1	GKQX	786	1	blank2r.bmp	866	2	lasch	866	1	!	1239	1	!	-1	0	0	0	0	0	0	0	0	0	0	0	0	0	0	0	0	0	0	0	0	0	0	0	0	0	0	0
121718	13:59:16	14:10:49	692599	5.0.10.0	4_exp_AWA_CON_AMP_EVA	19	Rpleas_acq	Oppo	Lpleas	Bmasked	CS_B	2pleas	distractor2	CONbeforeEVA	cond_new_pleas_123_masked_CS2	condtest_masked_3	10	1	400	1	300	300	0	0	425	46	0	1	0	0	0	1	blank2r.bmp	0	1	+	0	3	B3r.bmp	492	1	blank2r.bmp	786	1	GKQX	786	1	blank2r.bmp	866	3	retten	866	1	!	1239	1	!	1319	0	0	0	0	0	0	0	0	0	0	0	0	0	0	0	0	0	0	0	0	0	0	0	0	0	0	0
121718	13:59:16	14:10:52	694758	5.0.10.0	4_exp_AWA_CON_AMP_EVA	19	Rpleas_acq	Oppo	Lpleas	Bmasked	CS_B	2pleas	distractor2	CONbeforeEVA	cond_new_unple_123_masked_CS2	condtest_masked_3	10	2	400	1	300	300	0	0	346	50	0	1	0	0	0	1	blank2r.bmp	0	1	+	0	7	C3r.bmp	492	1	blank2r.bmp	786	1	GKQX	786	1	blank2r.bmp	866	2	strafen	866	1	!	1239	1	!	1252	0	0	0	0	0	0	0	0	0	0	0	0	0	0	0	0	0	0	0	0	0	0	0	0	0	0	0
121718	13:59:16	14:10:54	697037	5.0.10.0	4_exp_AWA_CON_AMP_EVA	19	Rpleas_acq	Oppo	Lpleas	Bmasked	CS_B	2pleas	distractor2	CONbeforeEVA	cond_US_unple_456_masked_CS1	condtest_masked_3	10	3	400	0	300	300	0	0	507	50	0	1	0	0	0	1	blank2r.bmp	0	1	+	0	2	B2r.bmp	492	1	blank2r.bmp	786	1	BMVZ	786	1	blank2r.bmp	866	3	tyrannisch	866	1	!	1239	1	!	-1	0	0	0	0	0	0	0	0	0	0	0	0	0	0	0	0	0	0	0	0	0	0	0	0	0	0	0
121718	13:59:16	14:10:56	699223	5.0.10.0	4_exp_AWA_CON_AMP_EVA	19	Rpleas_acq	Oppo	Lpleas	Bmasked	CS_B	2pleas	distractor2	CONbeforeEVA	cond_US_pleas_456_masked_CS2	condtest_masked_3	10	4	400	1	300	300	0	0	384	46	0	1	0	0	0	1	blank2r.bmp	0	1	+	0	6	C2r.bmp	492	1	blank2r.bmp	786	1	GKQX	786	1	blank2r.bmp	866	2	schön	866	1	!	1239	1	!	1279	0	0	0	0	0	0	0	0	0	0	0	0	0	0	0	0	0	0	0	0	0	0	0	0	0	0	0
121718	13:59:16	14:10:58	701476	5.0.10.0	4_exp_AWA_CON_AMP_EVA	19	Rpleas_acq	Oppo	Lpleas	Bmasked	CS_B	2pleas	distractor2	CONbeforeEVA	cond_US_unple_456_masked_CS2	condtest_masked_3	10	5	400	1	300	300	0	0	465	50	0	1	0	0	0	1	blank2r.bmp	0	1	+	0	3	B3r.bmp	492	1	blank2r.bmp	786	1	GKQX	786	1	blank2r.bmp	866	2	schlecht	866	1	!	1239	1	!	1359	0	0	0	0	0	0	0	0	0	0	0	0	0	0	0	0	0	0	0	0	0	0	0	0	0	0	0
121718	13:59:16	14:11:01	703661	5.0.10.0	4_exp_AWA_CON_AMP_EVA	19	Rpleas_acq	Oppo	Lpleas	Bmasked	CS_B	2pleas	distractor2	CONbeforeEVA	cond_new_pleas_123_masked_CS2	condtest_masked_3	10	6	400	1	300	300	0	0	373	46	0	1	0	0	0	1	blank2r.bmp	0	1	+	0	5	C1r.bmp	492	1	blank2r.bmp	786	1	GKQX	786	1	blank2r.bmp	866	2	spielen	866	1	!	1239	1	!	1279	0	0	0	0	0	0	0	0	0	0	0	0	0	0	0	0	0	0	0	0	0	0	0	0	0	0	0
121718	13:59:16	14:11:03	705860	5.0.10.0	4_exp_AWA_CON_AMP_EVA	19	Rpleas_acq	Oppo	Lpleas	Bmasked	CS_B	2pleas	distractor2	CONbeforeEVA	cond_new_pleas_123_masked_CS1	condtest_masked_3	10	7	400	1	300	300	0	0	405	46	0	1	0	0	0	1	blank2r.bmp	0	1	+	0	4	B4r.bmp	492	1	blank2r.bmp	786	1	BMVZ	786	1	blank2r.bmp	866	1	fair	866	1	!	1239	1	!	1306	0	0	0	0	0	0	0	0	0	0	0	0	0	0	0	0	0	0	0	0	0	0	0	0	0	0	0
121718	13:59:16	14:11:05	707926	5.0.10.0	4_exp_AWA_CON_AMP_EVA	19	Rpleas_acq	Oppo	Lpleas	Bmasked	CS_B	2pleas	distractor2	CONbeforeEVA	cond_US_pleas_456_masked_CS1	condtest_masked_3	10	8	400	0	300	300	0	0	292	50	0	0	0	0	0	1	blank2r.bmp	0	1	+	0	2	B2r.bmp	492	1	blank2r.bmp	786	1	BMVZ	786	1	blank2r.bmp	866	1	treu	866	1	!	-1	1	!	-1	0	0	0	0	0	0	0	0	0	0	0	0	0	0	0	0	0	0	0	0	0	0	0	0	0	0	0
121718	13:59:16	14:11:07	710099	5.0.10.0	4_exp_AWA_CON_AMP_EVA	19	Rpleas_acq	Oppo	Lpleas	Bmasked	CS_B	2pleas	distractor2	CONbeforeEVA	cond_US_pleas_456_masked_CS2	condtest_masked_3	10	9	400	1	300	300	0	0	364	46	0	1	0	0	0	1	blank2r.bmp	0	1	+	0	8	C4r.bmp	492	1	blank2r.bmp	786	1	GKQX	786	1	blank2r.bmp	866	3	tolerant	866	1	!	1239	1	!	1266	0	0	0	0	0	0	0	0	0	0	0	0	0	0	0	0	0	0	0	0	0	0	0	0	0	0	0
121718	13:59:16	14:11:09	712191	5.0.10.0	4_exp_AWA_CON_AMP_EVA	19	Rpleas_acq	Oppo	Lpleas	Bmasked	CS_B	2pleas	distractor2	CONbeforeEVA	cond_US_unple_456_masked_CS1	condtest_masked_3	10	10	400	0	300	300	0	0	325	50	0	1	0	0	0	1	blank2r.bmp	0	1	+	0	7	C3r.bmp	492	1	blank2r.bmp	786	1	BMVZ	786	1	blank2r.bmp	866	1	tot	866	1	!	-1	1	!	-1	0	0	0	0	0	0	0	0	0	0	0	0	0	0	0	0	0	0	0	0	0	0	0	0	0	0	0
121718	13:59:16	14:11:11	714483	5.0.10.0	4_exp_AWA_CON_AMP_EVA	19	Rpleas_acq	Oppo	Lpleas	Bmasked	CS_B	2pleas	distractor2	CONbeforeEVA	cond_new_unple_123_masked_CS1	condtest_masked_3	10	11	400	0	300	300	0	0	518	50	0	1	0	0	0	1	blank2r.bmp	0	1	+	0	6	C2r.bmp	492	1	blank2r.bmp	786	1	BMVZ	786	1	blank2r.bmp	866	3	rächen	866	1	!	1239	1	!	-1	0	0	0	0	0	0	0	0	0	0	0	0	0	0	0	0	0	0	0	0	0	0	0	0	0	0	0
121718	13:59:16	14:11:14	716669	5.0.10.0	4_exp_AWA_CON_AMP_EVA	19	Rpleas_acq	Oppo	Lpleas	Bmasked	CS_B	2pleas	distractor2	CONbeforeEVA	cond_new_unple_123_masked_CS2	condtest_masked_3	10	12	400	1	300	300	0	0	384	46	0	0	0	0	0	1	blank2r.bmp	0	1	+	0	1	B1r.bmp	492	1	blank2r.bmp	786	1	GKQX	786	1	blank2r.bmp	866	1	faul	866	1	!	1239	1	!	1279	0	0	0	0	0	0	0	0	0	0	0	0	0	0	0	0	0	0	0	0	0	0	0	0	0	0	0
121718	13:59:16	14:11:16	718868	5.0.10.0	4_exp_AWA_CON_AMP_EVA	19	Rpleas_acq	Oppo	Lpleas	Bmasked	CS_B	2pleas	distractor2	CONbeforeEVA	cond_new_pleas_123_masked_CS2	condtest_masked_3	10	13	400	1	300	300	0	0	387	46	0	1	0	0	0	1	blank2r.bmp	0	1	+	0	1	B1r.bmp	492	1	blank2r.bmp	786	1	GKQX	786	1	blank2r.bmp	866	3	retten	866	1	!	1239	1	!	1292	0	0	0	0	0	0	0	0	0	0	0	0	0	0	0	0	0	0	0	0	0	0	0	0	0	0	0
121718	13:59:16	14:11:18	721041	5.0.10.0	4_exp_AWA_CON_AMP_EVA	19	Rpleas_acq	Oppo	Lpleas	Bmasked	CS_B	2pleas	distractor2	CONbeforeEVA	cond_new_pleas_123_masked_CS1	condtest_masked_3	10	14	400	1	300	300	0	0	371	46	0	1	0	0	0	1	blank2r.bmp	0	1	+	0	8	C4r.bmp	492	1	blank2r.bmp	786	1	BMVZ	786	1	blank2r.bmp	866	2	spielen	866	1	!	1239	1	!	1266	0	0	0	0	0	0	0	0	0	0	0	0	0	0	0	0	0	0	0	0	0	0	0	0	0	0	0
121718	13:59:16	14:11:20	723120	5.0.10.0	4_exp_AWA_CON_AMP_EVA	19	Rpleas_acq	Oppo	Lpleas	Bmasked	CS_B	2pleas	distractor2	CONbeforeEVA	cond_US_pleas_456_masked_CS2	condtest_masked_3	10	15	400	0	300	300	0	0	305	50	0	0	0	0	0	1	blank2r.bmp	0	1	+	0	6	C2r.bmp	492	1	blank2r.bmp	786	1	GKQX	786	1	blank2r.bmp	866	2	schön	866	1	!	-1	1	!	-1	0	0	0	0	0	0	0	0	0	0	0	0	0	0	0	0	0	0	0	0	0	0	0	0	0	0	0
121718	13:59:16	14:11:22	725319	5.0.10.0	4_exp_AWA_CON_AMP_EVA	19	Rpleas_acq	Oppo	Lpleas	Bmasked	CS_B	2pleas	distractor2	CONbeforeEVA	cond_US_pleas_456_masked_CS1	condtest_masked_3	10	16	400	1	300	300	0	0	394	46	0	1	0	0	0	1	blank2r.bmp	0	1	+	0	5	C1r.bmp	492	1	blank2r.bmp	786	1	BMVZ	786	1	blank2r.bmp	866	1	treu	866	1	!	1239	1	!	1292	0	0	0	0	0	0	0	0	0	0	0	0	0	0	0	0	0	0	0	0	0	0	0	0	0	0	0
121718	13:59:16	14:11:24	727478	5.0.10.0	4_exp_AWA_CON_AMP_EVA	19	Rpleas_acq	Oppo	Lpleas	Bmasked	CS_B	2pleas	distractor2	CONbeforeEVA	cond_US_pleas_456_masked_CS2	condtest_masked_3	10	17	400	1	300	300	0	0	360	50	0	0	0	0	0	1	blank2r.bmp	0	1	+	0	2	B2r.bmp	492	1	blank2r.bmp	786	1	GKQX	786	1	blank2r.bmp	866	3	tolerant	866	1	!	1239	1	!	1266	0	0	0	0	0	0	0	0	0	0	0	0	0	0	0	0	0	0	0	0	0	0	0	0	0	0	0
121718	13:59:16	14:11:27	729704	5.0.10.0	4_exp_AWA_CON_AMP_EVA	19	Rpleas_acq	Oppo	Lpleas	Bmasked	CS_B	2pleas	distractor2	CONbeforeEVA	cond_new_pleas_123_masked_CS1	condtest_masked_3	10	18	400	1	300	300	0	0	431	46	0	1	0	0	0	1	blank2r.bmp	0	1	+	0	4	B4r.bmp	492	1	blank2r.bmp	786	1	BMVZ	786	1	blank2r.bmp	866	1	fair	866	1	!	1239	1	!	1332	0	0	0	0	0	0	0	0	0	0	0	0	0	0	0	0	0	0	0	0	0	0	0	0	0	0	0
121718	13:59:16	14:11:29	731863	5.0.10.0	4_exp_AWA_CON_AMP_EVA	19	Rpleas_acq	Oppo	Lpleas	Bmasked	CS_B	2pleas	distractor2	CONbeforeEVA	cond_US_unple_456_masked_CS2	condtest_masked_3	10	19	400	1	300	300	0	0	368	50	0	1	0	0	0	1	blank2r.bmp	0	1	+	0	3	B3r.bmp	492	1	blank2r.bmp	786	1	GKQX	786	1	blank2r.bmp	866	3	tyrannisch	866	1	!	1239	1	!	1266	0	0	0	0	0	0	0	0	0	0	0	0	0	0	0	0	0	0	0	0	0	0	0	0	0	0	0
121718	13:59:16	14:11:31	733955	5.0.10.0	4_exp_AWA_CON_AMP_EVA	19	Rpleas_acq	Oppo	Lpleas	Bmasked	CS_B	2pleas	distractor2	CONbeforeEVA	cond_new_unple_123_masked_CS2	condtest_masked_3	10	20	400	0	300	300	0	0	308	46	0	0	0	0	0	1	blank2r.bmp	0	1	+	0	7	C3r.bmp	492	1	blank2r.bmp	786	1	GKQX	786	1	blank2r.bmp	866	3	rächen	866	1	!	-1	1	!	-1	0	0	0	0	0	0	0	0	0	0	0	0	0	0	0	0	0	0	0	0	0	0	0	0	0	0	0
121718	13:59:16	14:11:33	736181	5.0.10.0	4_exp_AWA_CON_AMP_EVA	19	Rpleas_acq	Oppo	Lpleas	Bmasked	CS_B	2pleas	distractor2	CONbeforeEVA	cond_US_unple_456_masked_CS1	condtest_masked_3	10	21	400	1	300	300	0	0	408	50	0	1	0	0	0	1	blank2r.bmp	0	1	+	0	3	B3r.bmp	492	1	blank2r.bmp	786	1	BMVZ	786	1	blank2r.bmp	866	2	schlecht	866	1	!	1239	1	!	1306	0	0	0	0	0	0	0	0	0	0	0	0	0	0	0	0	0	0	0	0	0	0	0	0	0	0	0
121718	13:59:16	14:11:35	738340	5.0.10.0	4_exp_AWA_CON_AMP_EVA	19	Rpleas_acq	Oppo	Lpleas	Bmasked	CS_B	2pleas	distractor2	CONbeforeEVA	cond_new_unple_123_masked_CS1	condtest_masked_3	10	22	400	1	300	300	0	0	368	50	0	1	0	0	0	1	blank2r.bmp	0	1	+	0	5	C1r.bmp	492	1	blank2r.bmp	786	1	BMVZ	786	1	blank2r.bmp	866	1	faul	866	1	!	1239	1	!	1266	0	0	0	0	0	0	0	0	0	0	0	0	0	0	0	0	0	0	0	0	0	0	0	0	0	0	0
121718	13:59:16	14:11:37	740579	5.0.10.0	4_exp_AWA_CON_AMP_EVA	19	Rpleas_acq	Oppo	Lpleas	Bmasked	CS_B	2pleas	distractor2	CONbeforeEVA	cond_new_unple_123_masked_CS2	condtest_masked_3	10	23	400	1	300	300	0	0	441	50	0	1	0	0	0	1	blank2r.bmp	0	1	+	0	4	B4r.bmp	492	1	blank2r.bmp	786	1	GKQX	786	1	blank2r.bmp	866	2	strafen	866	1	!	1239	1	!	1346	0	0	0	0	0	0	0	0	0	0	0	0	0	0	0	0	0	0	0	0	0	0	0	0	0	0	0
121718	13:59:16	14:11:40	742671	5.0.10.0	4_exp_AWA_CON_AMP_EVA	19	Rpleas_acq	Oppo	Lpleas	Bmasked	CS_B	2pleas	distractor2	CONbeforeEVA	cond_new_pleas_123_masked_CS2	condtest_masked_3	10	24	400	0	300	300	0	0	319	46	0	1	0	0	0	1	blank2r.bmp	0	1	+	0	7	C3r.bmp	492	1	blank2r.bmp	786	1	GKQX	786	1	blank2r.bmp	866	1	fair	866	1	!	-1	1	!	-1	0	0	0	0	0	0	0	0	0	0	0	0	0	0	0	0	0	0	0	0	0	0	0	0	0	0	0
121718	13:59:16	14:11:42	744937	5.0.10.0	4_exp_AWA_CON_AMP_EVA	19	Rpleas_acq	Oppo	Lpleas	Bmasked	CS_B	2pleas	distractor2	CONbeforeEVA	cond_US_unple_456_masked_CS2	condtest_masked_3	10	25	400	0	300	300	0	0	483	50	0	1	0	0	0	1	blank2r.bmp	0	1	+	0	2	B2r.bmp	492	1	blank2r.bmp	786	1	GKQX	786	1	blank2r.bmp	866	1	tot	866	1	!	1239	1	!	-1	0	0	0	0	0	0	0	0	0	0	0	0	0	0	0	0	0	0	0	0	0	0	0	0	0	0	0
121718	13:59:16	14:11:44	747190	5.0.10.0	4_exp_AWA_CON_AMP_EVA	19	Rpleas_acq	Oppo	Lpleas	Bmasked	CS_B	2pleas	distractor2	CONbeforeEVA	cond_US_unple_456_masked_CS1	condtest_masked_3	10	26	400	1	300	300	0	0	433	50	0	1	0	0	0	1	blank2r.bmp	0	1	+	0	1	B1r.bmp	492	1	blank2r.bmp	786	1	BMVZ	786	1	blank2r.bmp	866	1	tot	866	1	!	1239	1	!	1332	0	0	0	0	0	0	0	0	0	0	0	0	0	0	0	0	0	0	0	0	0	0	0	0	0	0	0
121718	13:59:16	14:11:46	749469	5.0.10.0	4_exp_AWA_CON_AMP_EVA	19	Rpleas_acq	Oppo	Lpleas	Bmasked	CS_B	2pleas	distractor2	CONbeforeEVA	cond_US_unple_456_masked_CS2	condtest_masked_3	10	27	400	0	300	300	0	0	513	50	0	1	0	0	0	1	blank2r.bmp	0	1	+	0	6	C2r.bmp	492	1	blank2r.bmp	786	1	GKQX	786	1	blank2r.bmp	866	3	tyrannisch	866	1	!	1239	1	!	-1	0	0	0	0	0	0	0	0	0	0	0	0	0	0	0	0	0	0	0	0	0	0	0	0	0	0	0
121718	13:59:16	14:11:49	751734	5.0.10.0	4_exp_AWA_CON_AMP_EVA	19	Rpleas_acq	Oppo	Lpleas	Bmasked	CS_B	2pleas	distractor2	CONbeforeEVA	cond_new_unple_123_masked_CS2	condtest_masked_3	10	28	400	1	300	300	0	0	457	50	0	1	0	0	0	1	blank2r.bmp	0	1	+	0	8	C4r.bmp	492	1	blank2r.bmp	786	1	GKQX	786	1	blank2r.bmp	866	1	faul	866	1	!	1239	1	!	1359	0	0	0	0	0	0	0	0	0	0	0	0	0	0	0	0	0	0	0	0	0	0	0	0	0	0	0
121718	13:59:16	14:11:51	753907	5.0.10.0	4_exp_AWA_CON_AMP_EVA	19	Rpleas_acq	Oppo	Lpleas	Bmasked	CS_B	2pleas	distractor2	CONbeforeEVA	cond_new_pleas_123_masked_CS2	condtest_masked_3	10	29	400	1	300	300	0	0	384	46	0	1	0	0	0	1	blank2r.bmp	0	1	+	0	3	B3r.bmp	492	1	blank2r.bmp	786	1	GKQX	786	1	blank2r.bmp	866	2	spielen	866	1	!	1239	1	!	1279	0	0	0	0	0	0	0	0	0	0	0	0	0	0	0	0	0	0	0	0	0	0	0	0	0	0	0
121718	13:59:16	14:11:53	756119	5.0.10.0	4_exp_AWA_CON_AMP_EVA	19	Rpleas_acq	Oppo	Lpleas	Bmasked	CS_B	2pleas	distractor2	CONbeforeEVA	cond_new_pleas_123_masked_CS1	condtest_masked_3	10	30	400	1	300	300	0	0	401	50	0	0	0	0	0	1	blank2r.bmp	0	1	+	0	4	B4r.bmp	492	1	blank2r.bmp	786	1	BMVZ	786	1	blank2r.bmp	866	3	retten	866	1	!	1239	1	!	1306	0	0	0	0	0	0	0	0	0	0	0	0	0	0	0	0	0	0	0	0	0	0	0	0	0	0	0
121718	13:59:16	14:11:55	758278	5.0.10.0	4_exp_AWA_CON_AMP_EVA	19	Rpleas_acq	Oppo	Lpleas	Bmasked	CS_B	2pleas	distractor2	CONbeforeEVA	cond_US_pleas_456_masked_CS2	condtest_masked_3	10	31	400	1	300	300	0	0	346	46	0	1	0	0	0	1	blank2r.bmp	0	1	+	0	6	C2r.bmp	492	1	blank2r.bmp	786	1	GKQX	786	1	blank2r.bmp	866	1	treu	866	1	!	1239	1	!	1252	0	0	0	0	0	0	0	0	0	0	0	0	0	0	0	0	0	0	0	0	0	0	0	0	0	0	0
