date	time	script.currenttime	script.elapsedtime	build	script.currentexpt	subject	expressions.LRpleas_acq	expressions.SameOppo	expressions.condition_Lpleas	expressions.ABmasked	expressions.conditionCS_A	expressions.condition_1pleas	expressions.condition_distractor_AMP	expressions.AWACON_AMPEVA_first	trialcode	blockcode	blocknum	trialnum	windowcenter	inwindow	pretrialpause	posttrialpause	trialduration	trialtimeout	latency	response	expressions.correctedscore	correct	values.vis_performance	values.vis_rating_sum	values.vis_rating_mean	stimulusnumber1	stimulusitem1	stimulusonset1	stimulusnumber2	stimulusitem2	stimulusonset2	stimulusnumber3	stimulusitem3	stimulusonset3	stimulusnumber4	stimulusitem4	stimulusonset4	stimulusnumber5	stimulusitem5	stimulusonset5	stimulusnumber6	stimulusitem6	stimulusonset6	stimulusnumber7	stimulusitem7	stimulusonset7	stimulusnumber8	stimulusitem8	stimulusonset8	stimulusnumber9	stimulusitem9	stimulusonset9	stimulusnumber10	stimulusitem10	stimulusonset10	stimulusnumber11	stimulusitem11	stimulusonset11	stimulusnumber12	stimulusitem12	stimulusonset12	stimulusnumber13	stimulusitem13	stimulusonset13	stimulusnumber14	stimulusitem14	stimulusonset14	stimulusnumber15	stimulusitem15	stimulusonset15	stimulusnumber16	stimulusitem16	stimulusonset16	stimulusnumber17	stimulusitem17	stimulusonset17	stimulusnumber18	stimulusitem18	stimulusonset18
121318	14:51:09	14:53:07	115044	5.0.10.0	4_exp_AWA_CON_EVA_AMP	15	Rpleas_acq	Oppo	Rpleas	Amasked	CS_A	1pleas	distractor2	CONbeforeEVA	acq_new_unple_masked	acq1_masked	1	1	0	0	300	300	0	0	1573	46	0	1	0	0	0	1	blank2r.bmp	0	1	+	0	2	B2r.bmp	492	1	blank2r.bmp	786	4	B4r.bmp	786	1	blank2r.bmp	866	1	engstirnig	866	0	0	0	0	0	0	0	0	0	0	0	0	0	0	0	0	0	0	0	0	0	0	0	0	0	0	0	0	0	0	0	0	0
121318	14:51:09	14:53:11	119509	5.0.10.0	4_exp_AWA_CON_EVA_AMP	15	Rpleas_acq	Oppo	Rpleas	Amasked	CS_A	1pleas	distractor2	CONbeforeEVA	acq_US_pleas_masked	acq1_masked	1	2	0	0	300	300	0	0	2980	50	0	1	0	0	0	1	blank2r.bmp	0	1	+	0	8	C4r.bmp	492	1	blank2r.bmp	786	1	CPLW	786	1	blank2r.bmp	866	5	anregung	866	0	0	0	0	0	0	0	0	0	0	0	0	0	0	0	0	0	0	0	0	0	0	0	0	0	0	0	0	0	0	0	0	0
121318	14:51:09	14:53:13	121948	5.0.10.0	4_exp_AWA_CON_EVA_AMP	15	Rpleas_acq	Oppo	Rpleas	Amasked	CS_A	1pleas	distractor2	CONbeforeEVA	acq_US_unple_masked	acq1_masked	1	3	0	0	300	300	0	0	958	46	0	1	0	0	0	1	blank2r.bmp	0	1	+	0	3	B3r.bmp	492	1	blank2r.bmp	786	1	DHJF	786	1	blank2r.bmp	866	5	ausrottung	866	0	0	0	0	0	0	0	0	0	0	0	0	0	0	0	0	0	0	0	0	0	0	0	0	0	0	0	0	0	0	0	0	0
121318	14:51:09	14:53:16	124187	5.0.10.0	4_exp_AWA_CON_EVA_AMP	15	Rpleas_acq	Oppo	Rpleas	Amasked	CS_A	1pleas	distractor2	CONbeforeEVA	acq_US_unple_masked	acq1_masked	1	4	0	0	300	300	0	0	547	50	0	0	0	0	0	1	blank2r.bmp	0	1	+	0	6	C2r.bmp	492	1	blank2r.bmp	786	1	DHJF	786	1	blank2r.bmp	866	2	gemein	866	1	FEHLER	1452	0	0	0	0	0	0	0	0	0	0	0	0	0	0	0	0	0	0	0	0	0	0	0	0	0	0	0	0	0	0
121318	14:51:09	14:53:18	126813	5.0.10.0	4_exp_AWA_CON_EVA_AMP	15	Rpleas_acq	Oppo	Rpleas	Amasked	CS_A	1pleas	distractor2	CONbeforeEVA	acq_US_unple_masked	acq1_masked	1	5	0	0	300	300	0	0	1362	46	0	1	0	0	0	1	blank2r.bmp	0	1	+	0	4	B4r.bmp	492	1	blank2r.bmp	786	1	DHJF	786	1	blank2r.bmp	866	3	sterben	866	0	0	0	0	0	0	0	0	0	0	0	0	0	0	0	0	0	0	0	0	0	0	0	0	0	0	0	0	0	0	0	0	0
121318	14:51:09	14:53:21	129025	5.0.10.0	4_exp_AWA_CON_EVA_AMP	15	Rpleas_acq	Oppo	Rpleas	Amasked	CS_A	1pleas	distractor2	CONbeforeEVA	acq_US_pleas_masked	acq1_masked	1	6	0	0	300	300	0	0	740	50	0	1	0	0	0	1	blank2r.bmp	0	1	+	0	1	B1r.bmp	492	1	blank2r.bmp	786	1	CPLW	786	1	blank2r.bmp	866	4	träumen	866	0	0	0	0	0	0	0	0	0	0	0	0	0	0	0	0	0	0	0	0	0	0	0	0	0	0	0	0	0	0	0	0	0
121318	14:51:09	14:53:23	131464	5.0.10.0	4_exp_AWA_CON_EVA_AMP	15	Rpleas_acq	Oppo	Rpleas	Amasked	CS_A	1pleas	distractor2	CONbeforeEVA	acq_new_pleas_masked	acq1_masked	1	7	0	0	300	300	0	0	968	50	0	1	0	0	0	1	blank2r.bmp	0	1	+	0	7	C3r.bmp	492	1	blank2r.bmp	786	3	B3r.bmp	786	1	blank2r.bmp	866	3	gütig	866	0	0	0	0	0	0	0	0	0	0	0	0	0	0	0	0	0	0	0	0	0	0	0	0	0	0	0	0	0	0	0	0	0
121318	14:51:09	14:53:25	133850	5.0.10.0	4_exp_AWA_CON_EVA_AMP	15	Rpleas_acq	Oppo	Rpleas	Amasked	CS_A	1pleas	distractor2	CONbeforeEVA	acq_new_pleas_masked	acq1_masked	1	8	0	0	300	300	0	0	894	50	0	1	0	0	0	1	blank2r.bmp	0	1	+	0	5	C1r.bmp	492	1	blank2r.bmp	786	8	C4r.bmp	786	1	blank2r.bmp	866	2	besonnen	866	0	0	0	0	0	0	0	0	0	0	0	0	0	0	0	0	0	0	0	0	0	0	0	0	0	0	0	0	0	0	0	0	0
121318	14:51:09	14:53:28	136662	5.0.10.0	4_exp_AWA_CON_EVA_AMP	15	Rpleas_acq	Oppo	Rpleas	Amasked	CS_A	1pleas	distractor2	CONbeforeEVA	acq_new_unple_masked	acq1_masked	1	9	0	0	300	300	0	0	1334	46	0	1	0	0	0	1	blank2r.bmp	0	1	+	0	2	B2r.bmp	492	1	blank2r.bmp	786	5	C1r.bmp	786	1	blank2r.bmp	866	5	krank	866	0	0	0	0	0	0	0	0	0	0	0	0	0	0	0	0	0	0	0	0	0	0	0	0	0	0	0	0	0	0	0	0	0
121318	14:51:09	14:53:31	139194	5.0.10.0	4_exp_AWA_CON_EVA_AMP	15	Rpleas_acq	Oppo	Rpleas	Amasked	CS_A	1pleas	distractor2	CONbeforeEVA	acq_new_unple_masked	acq1_masked	1	10	0	0	300	300	0	0	1038	46	0	1	0	0	0	1	blank2r.bmp	0	1	+	0	3	B3r.bmp	492	1	blank2r.bmp	786	1	B1r.bmp	786	1	blank2r.bmp	866	2	bange	866	0	0	0	0	0	0	0	0	0	0	0	0	0	0	0	0	0	0	0	0	0	0	0	0	0	0	0	0	0	0	0	0	0
121318	14:51:09	14:53:33	141300	5.0.10.0	4_exp_AWA_CON_EVA_AMP	15	Rpleas_acq	Oppo	Rpleas	Amasked	CS_A	1pleas	distractor2	CONbeforeEVA	acq_new_pleas_masked	acq1_masked	1	11	0	0	300	300	0	0	633	50	0	1	0	0	0	1	blank2r.bmp	0	1	+	0	4	B4r.bmp	492	1	blank2r.bmp	786	6	C2r.bmp	786	1	blank2r.bmp	866	5	kreativ	866	0	0	0	0	0	0	0	0	0	0	0	0	0	0	0	0	0	0	0	0	0	0	0	0	0	0	0	0	0	0	0	0	0
121318	14:51:09	14:53:35	143499	5.0.10.0	4_exp_AWA_CON_EVA_AMP	15	Rpleas_acq	Oppo	Rpleas	Amasked	CS_A	1pleas	distractor2	CONbeforeEVA	acq_US_pleas_masked	acq1_masked	1	12	0	0	300	300	0	0	722	50	0	1	0	0	0	1	blank2r.bmp	0	1	+	0	5	C1r.bmp	492	1	blank2r.bmp	786	1	CPLW	786	1	blank2r.bmp	866	6	gesittet	866	0	0	0	0	0	0	0	0	0	0	0	0	0	0	0	0	0	0	0	0	0	0	0	0	0	0	0	0	0	0	0	0	0
121318	14:51:09	14:53:37	145591	5.0.10.0	4_exp_AWA_CON_EVA_AMP	15	Rpleas_acq	Oppo	Rpleas	Amasked	CS_A	1pleas	distractor2	CONbeforeEVA	acq_new_pleas_masked	acq1_masked	1	13	0	0	300	300	0	0	619	50	0	1	0	0	0	1	blank2r.bmp	0	1	+	0	8	C4r.bmp	492	1	blank2r.bmp	786	2	B2r.bmp	786	1	blank2r.bmp	866	4	vergnügt	866	0	0	0	0	0	0	0	0	0	0	0	0	0	0	0	0	0	0	0	0	0	0	0	0	0	0	0	0	0	0	0	0	0
121318	14:51:09	14:53:40	147964	5.0.10.0	4_exp_AWA_CON_EVA_AMP	15	Rpleas_acq	Oppo	Rpleas	Amasked	CS_A	1pleas	distractor2	CONbeforeEVA	acq_US_unple_masked	acq1_masked	1	14	0	0	300	300	0	0	897	46	0	1	0	0	0	1	blank2r.bmp	0	1	+	0	7	C3r.bmp	492	1	blank2r.bmp	786	1	DHJF	786	1	blank2r.bmp	866	6	geizig	866	0	0	0	0	0	0	0	0	0	0	0	0	0	0	0	0	0	0	0	0	0	0	0	0	0	0	0	0	0	0	0	0	0
121318	14:51:09	14:53:42	150309	5.0.10.0	4_exp_AWA_CON_EVA_AMP	15	Rpleas_acq	Oppo	Rpleas	Amasked	CS_A	1pleas	distractor2	CONbeforeEVA	acq_US_pleas_masked	acq1_masked	1	15	0	0	300	300	0	0	866	50	0	1	0	0	0	1	blank2r.bmp	0	1	+	0	1	B1r.bmp	492	1	blank2r.bmp	786	1	CPLW	786	1	blank2r.bmp	866	2	genießen	866	0	0	0	0	0	0	0	0	0	0	0	0	0	0	0	0	0	0	0	0	0	0	0	0	0	0	0	0	0	0	0	0	0
121318	14:51:09	14:53:45	153375	5.0.10.0	4_exp_AWA_CON_EVA_AMP	15	Rpleas_acq	Oppo	Rpleas	Amasked	CS_A	1pleas	distractor2	CONbeforeEVA	acq_new_unple_masked	acq1_masked	1	16	0	0	300	300	0	0	1586	46	0	1	0	0	0	1	blank2r.bmp	0	1	+	0	6	C2r.bmp	492	1	blank2r.bmp	786	7	C3r.bmp	786	1	blank2r.bmp	866	3	gierig	866	0	0	0	0	0	0	0	0	0	0	0	0	0	0	0	0	0	0	0	0	0	0	0	0	0	0	0	0	0	0	0	0	0
121318	14:51:09	14:53:48	156320	5.0.10.0	4_exp_AWA_CON_EVA_AMP	15	Rpleas_acq	Oppo	Rpleas	Amasked	CS_A	1pleas	distractor2	CONbeforeEVA	acq_US_pleas_masked	acq1_masked	1	17	0	0	300	300	0	0	1474	50	0	1	0	0	0	1	blank2r.bmp	0	1	+	0	7	C3r.bmp	492	1	blank2r.bmp	786	1	CPLW	786	1	blank2r.bmp	866	1	vertrauen	866	0	0	0	0	0	0	0	0	0	0	0	0	0	0	0	0	0	0	0	0	0	0	0	0	0	0	0	0	0	0	0	0	0
121318	14:51:09	14:53:50	158932	5.0.10.0	4_exp_AWA_CON_EVA_AMP	15	Rpleas_acq	Oppo	Rpleas	Amasked	CS_A	1pleas	distractor2	CONbeforeEVA	acq_US_pleas_masked	acq1_masked	1	18	0	0	300	300	0	0	1130	50	0	1	0	0	0	1	blank2r.bmp	0	1	+	0	3	B3r.bmp	492	1	blank2r.bmp	786	1	CPLW	786	1	blank2r.bmp	866	3	sonnig	866	0	0	0	0	0	0	0	0	0	0	0	0	0	0	0	0	0	0	0	0	0	0	0	0	0	0	0	0	0	0	0	0	0
121318	14:51:09	14:53:53	161811	5.0.10.0	4_exp_AWA_CON_EVA_AMP	15	Rpleas_acq	Oppo	Rpleas	Amasked	CS_A	1pleas	distractor2	CONbeforeEVA	acq_new_pleas_masked	acq1_masked	1	19	0	0	300	300	0	0	1392	50	0	1	0	0	0	1	blank2r.bmp	0	1	+	0	6	C2r.bmp	492	1	blank2r.bmp	786	7	C3r.bmp	786	1	blank2r.bmp	866	1	engagiert	866	0	0	0	0	0	0	0	0	0	0	0	0	0	0	0	0	0	0	0	0	0	0	0	0	0	0	0	0	0	0	0	0	0
121318	14:51:09	14:53:56	164077	5.0.10.0	4_exp_AWA_CON_EVA_AMP	15	Rpleas_acq	Oppo	Rpleas	Amasked	CS_A	1pleas	distractor2	CONbeforeEVA	acq_new_unple_masked	acq1_masked	1	20	0	0	300	300	0	0	784	46	0	1	0	0	0	1	blank2r.bmp	0	1	+	0	2	B2r.bmp	492	1	blank2r.bmp	786	5	C1r.bmp	786	1	blank2r.bmp	866	6	krise	866	0	0	0	0	0	0	0	0	0	0	0	0	0	0	0	0	0	0	0	0	0	0	0	0	0	0	0	0	0	0	0	0	0
121318	14:51:09	14:53:58	166476	5.0.10.0	4_exp_AWA_CON_EVA_AMP	15	Rpleas_acq	Oppo	Rpleas	Amasked	CS_A	1pleas	distractor2	CONbeforeEVA	acq_US_unple_masked	acq1_masked	1	21	0	0	300	300	0	0	896	46	0	1	0	0	0	1	blank2r.bmp	0	1	+	0	4	B4r.bmp	492	1	blank2r.bmp	786	1	DHJF	786	1	blank2r.bmp	866	4	töten	866	0	0	0	0	0	0	0	0	0	0	0	0	0	0	0	0	0	0	0	0	0	0	0	0	0	0	0	0	0	0	0	0	0
121318	14:51:09	14:54:00	168662	5.0.10.0	4_exp_AWA_CON_EVA_AMP	15	Rpleas_acq	Oppo	Rpleas	Amasked	CS_A	1pleas	distractor2	CONbeforeEVA	acq_new_pleas_masked	acq1_masked	1	22	0	0	300	300	0	0	700	50	0	1	0	0	0	1	blank2r.bmp	0	1	+	0	8	C4r.bmp	492	1	blank2r.bmp	786	1	B1r.bmp	786	1	blank2r.bmp	866	6	kuss	866	0	0	0	0	0	0	0	0	0	0	0	0	0	0	0	0	0	0	0	0	0	0	0	0	0	0	0	0	0	0	0	0	0
121318	14:51:09	14:54:02	170927	5.0.10.0	4_exp_AWA_CON_EVA_AMP	15	Rpleas_acq	Oppo	Rpleas	Amasked	CS_A	1pleas	distractor2	CONbeforeEVA	acq_new_unple_masked	acq1_masked	1	23	0	0	300	300	0	0	788	46	0	1	0	0	0	1	blank2r.bmp	0	1	+	0	5	C1r.bmp	492	1	blank2r.bmp	786	8	C4r.bmp	786	1	blank2r.bmp	866	4	verbissen	866	0	0	0	0	0	0	0	0	0	0	0	0	0	0	0	0	0	0	0	0	0	0	0	0	0	0	0	0	0	0	0	0	0
121318	14:51:09	14:54:05	173460	5.0.10.0	4_exp_AWA_CON_EVA_AMP	15	Rpleas_acq	Oppo	Rpleas	Amasked	CS_A	1pleas	distractor2	CONbeforeEVA	acq_US_unple_masked	acq1_masked	1	24	0	0	300	300	0	0	1054	46	0	1	0	0	0	1	blank2r.bmp	0	1	+	0	1	B1r.bmp	492	1	blank2r.bmp	786	1	DHJF	786	1	blank2r.bmp	866	1	versagen	866	0	0	0	0	0	0	0	0	0	0	0	0	0	0	0	0	0	0	0	0	0	0	0	0	0	0	0	0	0	0	0	0	0
121318	14:51:09	14:54:07	175619	5.0.10.0	4_exp_AWA_CON_EVA_AMP	15	Rpleas_acq	Oppo	Rpleas	Amasked	CS_A	1pleas	distractor2	CONbeforeEVA	acq_new_unple_masked	acq1_masked	1	25	0	0	300	300	0	0	683	46	0	1	0	0	0	1	blank2r.bmp	0	1	+	0	1	B1r.bmp	492	1	blank2r.bmp	786	2	B2r.bmp	786	1	blank2r.bmp	866	3	gierig	866	0	0	0	0	0	0	0	0	0	0	0	0	0	0	0	0	0	0	0	0	0	0	0	0	0	0	0	0	0	0	0	0	0
121318	14:51:09	14:54:09	177751	5.0.10.0	4_exp_AWA_CON_EVA_AMP	15	Rpleas_acq	Oppo	Rpleas	Amasked	CS_A	1pleas	distractor2	CONbeforeEVA	acq_US_pleas_masked	acq1_masked	1	26	0	0	300	300	0	0	639	50	0	1	0	0	0	1	blank2r.bmp	0	1	+	0	5	C1r.bmp	492	1	blank2r.bmp	786	1	CPLW	786	1	blank2r.bmp	866	5	anregung	866	0	0	0	0	0	0	0	0	0	0	0	0	0	0	0	0	0	0	0	0	0	0	0	0	0	0	0	0	0	0	0	0	0
121318	14:51:09	14:54:12	180737	5.0.10.0	4_exp_AWA_CON_EVA_AMP	15	Rpleas_acq	Oppo	Rpleas	Amasked	CS_A	1pleas	distractor2	CONbeforeEVA	acq_new_unple_masked	acq1_masked	1	27	0	0	300	300	0	0	1301	50	0	0	0	0	0	1	blank2r.bmp	0	1	+	0	7	C3r.bmp	492	1	blank2r.bmp	786	3	B3r.bmp	786	1	blank2r.bmp	866	4	verbissen	866	1	FEHLER	2199	0	0	0	0	0	0	0	0	0	0	0	0	0	0	0	0	0	0	0	0	0	0	0	0	0	0	0	0	0	0
121318	14:51:09	14:54:15	183309	5.0.10.0	4_exp_AWA_CON_EVA_AMP	15	Rpleas_acq	Oppo	Rpleas	Amasked	CS_A	1pleas	distractor2	CONbeforeEVA	acq_US_pleas_masked	acq1_masked	1	28	0	0	300	300	0	0	1294	50	0	1	0	0	0	1	blank2r.bmp	0	1	+	0	8	C4r.bmp	492	1	blank2r.bmp	786	1	CPLW	786	1	blank2r.bmp	866	4	träumen	866	0	0	0	0	0	0	0	0	0	0	0	0	0	0	0	0	0	0	0	0	0	0	0	0	0	0	0	0	0	0	0	0	0
121318	14:51:09	14:54:18	186628	5.0.10.0	4_exp_AWA_CON_EVA_AMP	15	Rpleas_acq	Oppo	Rpleas	Amasked	CS_A	1pleas	distractor2	CONbeforeEVA	acq_new_pleas_masked	acq1_masked	1	29	0	0	300	300	0	0	1825	50	0	1	0	0	0	1	blank2r.bmp	0	1	+	0	4	B4r.bmp	492	1	blank2r.bmp	786	6	C2r.bmp	786	1	blank2r.bmp	866	4	vergnügt	866	0	0	0	0	0	0	0	0	0	0	0	0	0	0	0	0	0	0	0	0	0	0	0	0	0	0	0	0	0	0	0	0	0
121318	14:51:09	14:54:21	189813	5.0.10.0	4_exp_AWA_CON_EVA_AMP	15	Rpleas_acq	Oppo	Rpleas	Amasked	CS_A	1pleas	distractor2	CONbeforeEVA	acq_new_pleas_masked	acq1_masked	1	30	0	0	300	300	0	0	1715	50	0	1	0	0	0	1	blank2r.bmp	0	1	+	0	3	B3r.bmp	492	1	blank2r.bmp	786	4	B4r.bmp	786	1	blank2r.bmp	866	3	gütig	866	0	0	0	0	0	0	0	0	0	0	0	0	0	0	0	0	0	0	0	0	0	0	0	0	0	0	0	0	0	0	0	0	0
121318	14:51:09	14:54:24	192945	5.0.10.0	4_exp_AWA_CON_EVA_AMP	15	Rpleas_acq	Oppo	Rpleas	Amasked	CS_A	1pleas	distractor2	CONbeforeEVA	acq_US_pleas_masked	acq1_masked	1	31	0	0	300	300	0	0	1646	50	0	1	0	0	0	1	blank2r.bmp	0	1	+	0	2	B2r.bmp	492	1	blank2r.bmp	786	1	CPLW	786	1	blank2r.bmp	866	6	gesittet	866	0	0	0	0	0	0	0	0	0	0	0	0	0	0	0	0	0	0	0	0	0	0	0	0	0	0	0	0	0	0	0	0	0
121318	14:51:09	14:54:28	196263	5.0.10.0	4_exp_AWA_CON_EVA_AMP	15	Rpleas_acq	Oppo	Rpleas	Amasked	CS_A	1pleas	distractor2	CONbeforeEVA	acq_US_unple_masked	acq1_masked	1	32	0	0	300	300	0	0	1828	46	0	1	0	0	0	1	blank2r.bmp	0	1	+	0	6	C2r.bmp	492	1	blank2r.bmp	786	1	DHJF	786	1	blank2r.bmp	866	6	geizig	866	0	0	0	0	0	0	0	0	0	0	0	0	0	0	0	0	0	0	0	0	0	0	0	0	0	0	0	0	0	0	0	0	0
121318	14:51:09	14:54:31	199116	5.0.10.0	4_exp_AWA_CON_EVA_AMP	15	Rpleas_acq	Oppo	Rpleas	Amasked	CS_A	1pleas	distractor2	CONbeforeEVA	acq_US_unple_masked	acq1_masked	1	33	0	0	300	300	0	0	1166	50	0	0	0	0	0	1	blank2r.bmp	0	1	+	0	2	B2r.bmp	492	1	blank2r.bmp	786	1	DHJF	786	1	blank2r.bmp	866	2	gemein	866	1	FEHLER	2065	0	0	0	0	0	0	0	0	0	0	0	0	0	0	0	0	0	0	0	0	0	0	0	0	0	0	0	0	0	0
121318	14:51:09	14:54:34	202154	5.0.10.0	4_exp_AWA_CON_EVA_AMP	15	Rpleas_acq	Oppo	Rpleas	Amasked	CS_A	1pleas	distractor2	CONbeforeEVA	acq_new_unple_masked	acq1_masked	1	34	0	0	300	300	0	0	1770	46	0	1	0	0	0	1	blank2r.bmp	0	1	+	0	1	B1r.bmp	492	1	blank2r.bmp	786	8	C4r.bmp	786	1	blank2r.bmp	866	5	krank	866	0	0	0	0	0	0	0	0	0	0	0	0	0	0	0	0	0	0	0	0	0	0	0	0	0	0	0	0	0	0	0	0	0
121318	14:51:09	14:54:37	205420	5.0.10.0	4_exp_AWA_CON_EVA_AMP	15	Rpleas_acq	Oppo	Rpleas	Amasked	CS_A	1pleas	distractor2	CONbeforeEVA	acq_new_pleas_masked	acq1_masked	1	35	0	0	300	300	0	0	1776	50	0	1	0	0	0	1	blank2r.bmp	0	1	+	0	5	C1r.bmp	492	1	blank2r.bmp	786	6	C2r.bmp	786	1	blank2r.bmp	866	2	besonnen	866	0	0	0	0	0	0	0	0	0	0	0	0	0	0	0	0	0	0	0	0	0	0	0	0	0	0	0	0	0	0	0	0	0
121318	14:51:09	14:54:40	208258	5.0.10.0	4_exp_AWA_CON_EVA_AMP	15	Rpleas_acq	Oppo	Rpleas	Amasked	CS_A	1pleas	distractor2	CONbeforeEVA	acq_US_unple_masked	acq1_masked	1	36	0	0	300	300	0	0	1359	46	0	1	0	0	0	1	blank2r.bmp	0	1	+	0	7	C3r.bmp	492	1	blank2r.bmp	786	1	DHJF	786	1	blank2r.bmp	866	4	töten	866	0	0	0	0	0	0	0	0	0	0	0	0	0	0	0	0	0	0	0	0	0	0	0	0	0	0	0	0	0	0	0	0	0
121318	14:51:09	14:55:18	246576	5.0.10.0	4_exp_AWA_CON_EVA_AMP	15	Rpleas_acq	Oppo	Rpleas	Amasked	CS_A	1pleas	distractor2	CONbeforeEVA	acq_new_unple_masked	acq2_masked	2	1	480	0	300	300	0	0	799	46	0	1	0	0	0	1	blank2r.bmp	0	1	+	0	8	C4r.bmp	492	1	blank2r.bmp	786	5	C1r.bmp	786	1	blank2r.bmp	866	6	krise	866	1	!	1319	1	!	-1	0	0	0	0	0	0	0	0	0	0	0	0	0	0	0	0	0	0	0	0	0	0	0	0	0	0	0
121318	14:51:09	14:55:24	252733	5.0.10.0	4_exp_AWA_CON_EVA_AMP	15	Rpleas_acq	Oppo	Rpleas	Amasked	CS_A	1pleas	distractor2	CONbeforeEVA	acq_new_unple_masked	acq2_masked	2	2	480	0	300	300	0	0	4381	46	0	1	0	0	0	1	blank2r.bmp	0	1	+	0	4	B4r.bmp	492	1	blank2r.bmp	786	1	B1r.bmp	786	1	blank2r.bmp	866	1	engstirnig	866	1	!	1319	1	!	-1	0	0	0	0	0	0	0	0	0	0	0	0	0	0	0	0	0	0	0	0	0	0	0	0	0	0	0
121318	14:51:09	14:55:27	255319	5.0.10.0	4_exp_AWA_CON_EVA_AMP	15	Rpleas_acq	Oppo	Rpleas	Amasked	CS_A	1pleas	distractor2	CONbeforeEVA	acq_new_unple_masked	acq2_masked	2	3	480	0	300	300	0	0	806	46	0	1	0	0	0	1	blank2r.bmp	0	1	+	0	6	C2r.bmp	492	1	blank2r.bmp	786	2	B2r.bmp	786	1	blank2r.bmp	866	2	bange	866	1	!	1319	1	!	-1	0	0	0	0	0	0	0	0	0	0	0	0	0	0	0	0	0	0	0	0	0	0	0	0	0	0	0
121318	14:51:09	14:55:29	257638	5.0.10.0	4_exp_AWA_CON_EVA_AMP	15	Rpleas_acq	Oppo	Rpleas	Amasked	CS_A	1pleas	distractor2	CONbeforeEVA	acq_new_pleas_masked	acq2_masked	2	4	480	1	300	300	0	0	514	50	0	1	0	0	0	1	blank2r.bmp	0	1	+	0	3	B3r.bmp	492	1	blank2r.bmp	786	4	B4r.bmp	786	1	blank2r.bmp	866	6	kuss	866	1	!	1319	1	!	1412	0	0	0	0	0	0	0	0	0	0	0	0	0	0	0	0	0	0	0	0	0	0	0	0	0	0	0
121318	14:51:09	14:55:31	259917	5.0.10.0	4_exp_AWA_CON_EVA_AMP	15	Rpleas_acq	Oppo	Rpleas	Amasked	CS_A	1pleas	distractor2	CONbeforeEVA	acq_US_pleas_masked	acq2_masked	2	5	480	1	300	300	0	0	483	50	0	1	0	0	0	1	blank2r.bmp	0	1	+	0	3	B3r.bmp	492	1	blank2r.bmp	786	1	CPLW	786	1	blank2r.bmp	866	3	sonnig	866	1	!	1319	1	!	1386	0	0	0	0	0	0	0	0	0	0	0	0	0	0	0	0	0	0	0	0	0	0	0	0	0	0	0
121318	14:51:09	14:55:34	262316	5.0.10.0	4_exp_AWA_CON_EVA_AMP	15	Rpleas_acq	Oppo	Rpleas	Amasked	CS_A	1pleas	distractor2	CONbeforeEVA	acq_new_pleas_masked	acq2_masked	2	6	480	0	300	300	0	0	633	50	0	1	0	0	0	1	blank2r.bmp	0	1	+	0	1	B1r.bmp	492	1	blank2r.bmp	786	3	B3r.bmp	786	1	blank2r.bmp	866	1	engagiert	866	1	!	1319	1	!	-1	0	0	0	0	0	0	0	0	0	0	0	0	0	0	0	0	0	0	0	0	0	0	0	0	0	0	0
121318	14:51:09	14:55:36	264621	5.0.10.0	4_exp_AWA_CON_EVA_AMP	15	Rpleas_acq	Oppo	Rpleas	Amasked	CS_A	1pleas	distractor2	CONbeforeEVA	acq_US_unple_masked	acq2_masked	2	7	480	1	300	300	0	0	492	46	0	1	0	0	0	1	blank2r.bmp	0	1	+	0	6	C2r.bmp	492	1	blank2r.bmp	786	1	DHJF	786	1	blank2r.bmp	866	3	sterben	866	1	!	1319	1	!	1399	0	0	0	0	0	0	0	0	0	0	0	0	0	0	0	0	0	0	0	0	0	0	0	0	0	0	0
121318	14:51:09	14:55:39	267034	5.0.10.0	4_exp_AWA_CON_EVA_AMP	15	Rpleas_acq	Oppo	Rpleas	Amasked	CS_A	1pleas	distractor2	CONbeforeEVA	acq_new_pleas_masked	acq2_masked	2	8	480	0	300	300	0	0	647	50	0	1	0	0	0	1	blank2r.bmp	0	1	+	0	2	B2r.bmp	492	1	blank2r.bmp	786	7	C3r.bmp	786	1	blank2r.bmp	866	5	kreativ	866	1	!	1319	1	!	-1	0	0	0	0	0	0	0	0	0	0	0	0	0	0	0	0	0	0	0	0	0	0	0	0	0	0	0
121318	14:51:09	14:55:41	269366	5.0.10.0	4_exp_AWA_CON_EVA_AMP	15	Rpleas_acq	Oppo	Rpleas	Amasked	CS_A	1pleas	distractor2	CONbeforeEVA	acq_US_pleas_masked	acq2_masked	2	9	480	1	300	300	0	0	524	50	0	1	0	0	0	1	blank2r.bmp	0	1	+	0	5	C1r.bmp	492	1	blank2r.bmp	786	1	CPLW	786	1	blank2r.bmp	866	2	genießen	866	1	!	1319	1	!	1426	0	0	0	0	0	0	0	0	0	0	0	0	0	0	0	0	0	0	0	0	0	0	0	0	0	0	0
121318	14:51:09	14:55:43	271632	5.0.10.0	4_exp_AWA_CON_EVA_AMP	15	Rpleas_acq	Oppo	Rpleas	Amasked	CS_A	1pleas	distractor2	CONbeforeEVA	acq_US_unple_masked	acq2_masked	2	10	480	1	300	300	0	0	476	46	0	1	0	0	0	1	blank2r.bmp	0	1	+	0	4	B4r.bmp	492	1	blank2r.bmp	786	1	DHJF	786	1	blank2r.bmp	866	1	versagen	866	1	!	1319	1	!	1372	0	0	0	0	0	0	0	0	0	0	0	0	0	0	0	0	0	0	0	0	0	0	0	0	0	0	0
121318	14:51:09	14:55:45	273804	5.0.10.0	4_exp_AWA_CON_EVA_AMP	15	Rpleas_acq	Oppo	Rpleas	Amasked	CS_A	1pleas	distractor2	CONbeforeEVA	acq_US_unple_masked	acq2_masked	2	11	480	0	300	300	0	0	408	46	0	1	0	0	0	1	blank2r.bmp	0	1	+	0	8	C4r.bmp	492	1	blank2r.bmp	786	1	DHJF	786	1	blank2r.bmp	866	5	ausrottung	866	1	!	-1	1	!	-1	0	0	0	0	0	0	0	0	0	0	0	0	0	0	0	0	0	0	0	0	0	0	0	0	0	0	0
121318	14:51:09	14:55:48	276376	5.0.10.0	4_exp_AWA_CON_EVA_AMP	15	Rpleas_acq	Oppo	Rpleas	Amasked	CS_A	1pleas	distractor2	CONbeforeEVA	acq_US_pleas_masked	acq2_masked	2	12	480	0	300	300	0	0	585	46	0	0	0	0	0	1	blank2r.bmp	0	1	+	0	7	C3r.bmp	492	1	blank2r.bmp	786	1	CPLW	786	1	blank2r.bmp	866	1	vertrauen	866	1	FEHLER	1785	1	!	1319	1	!	-1	0	0	0	0	0	0	0	0	0	0	0	0	0	0	0	0	0	0	0	0	0	0	0	0
121318	14:51:09	14:55:50	278576	5.0.10.0	4_exp_AWA_CON_EVA_AMP	15	Rpleas_acq	Oppo	Rpleas	Amasked	CS_A	1pleas	distractor2	CONbeforeEVA	acq_US_unple_masked	acq2_masked	2	13	480	0	300	300	0	0	630	46	0	1	0	0	0	1	blank2r.bmp	0	1	+	0	3	B3r.bmp	492	1	blank2r.bmp	786	1	DHJF	786	1	blank2r.bmp	866	1	versagen	866	1	!	1319	1	!	-1	0	0	0	0	0	0	0	0	0	0	0	0	0	0	0	0	0	0	0	0	0	0	0	0	0	0	0
121318	14:51:09	14:55:53	280948	5.0.10.0	4_exp_AWA_CON_EVA_AMP	15	Rpleas_acq	Oppo	Rpleas	Amasked	CS_A	1pleas	distractor2	CONbeforeEVA	acq_US_unple_masked	acq2_masked	2	14	480	0	300	300	0	0	593	46	0	1	0	0	0	1	blank2r.bmp	0	1	+	0	8	C4r.bmp	492	1	blank2r.bmp	786	1	DHJF	786	1	blank2r.bmp	866	2	gemein	866	1	!	1319	1	!	-1	0	0	0	0	0	0	0	0	0	0	0	0	0	0	0	0	0	0	0	0	0	0	0	0	0	0	0
121318	14:51:09	14:55:55	283214	5.0.10.0	4_exp_AWA_CON_EVA_AMP	15	Rpleas_acq	Oppo	Rpleas	Amasked	CS_A	1pleas	distractor2	CONbeforeEVA	acq_new_pleas_masked	acq2_masked	2	15	480	1	300	300	0	0	458	50	0	1	0	0	0	1	blank2r.bmp	0	1	+	0	2	B2r.bmp	492	1	blank2r.bmp	786	8	C4r.bmp	786	1	blank2r.bmp	866	4	vergnügt	866	1	!	1319	1	!	1359	0	0	0	0	0	0	0	0	0	0	0	0	0	0	0	0	0	0	0	0	0	0	0	0	0	0	0
121318	14:51:09	14:55:57	285506	5.0.10.0	4_exp_AWA_CON_EVA_AMP	15	Rpleas_acq	Oppo	Rpleas	Amasked	CS_A	1pleas	distractor2	CONbeforeEVA	acq_US_unple_masked	acq2_masked	2	16	480	1	300	300	0	0	492	46	0	1	0	0	0	1	blank2r.bmp	0	1	+	0	1	B1r.bmp	492	1	blank2r.bmp	786	1	DHJF	786	1	blank2r.bmp	866	3	sterben	866	1	!	1319	1	!	1399	0	0	0	0	0	0	0	0	0	0	0	0	0	0	0	0	0	0	0	0	0	0	0	0	0	0	0
121318	14:51:09	14:55:59	287905	5.0.10.0	4_exp_AWA_CON_EVA_AMP	15	Rpleas_acq	Oppo	Rpleas	Amasked	CS_A	1pleas	distractor2	CONbeforeEVA	acq_US_pleas_masked	acq2_masked	2	17	480	0	300	300	0	0	635	50	0	1	0	0	0	1	blank2r.bmp	0	1	+	0	6	C2r.bmp	492	1	blank2r.bmp	786	1	CPLW	786	1	blank2r.bmp	866	1	vertrauen	866	1	!	1319	1	!	-1	0	0	0	0	0	0	0	0	0	0	0	0	0	0	0	0	0	0	0	0	0	0	0	0	0	0	0
121318	14:51:09	14:56:02	290211	5.0.10.0	4_exp_AWA_CON_EVA_AMP	15	Rpleas_acq	Oppo	Rpleas	Amasked	CS_A	1pleas	distractor2	CONbeforeEVA	acq_new_unple_masked	acq2_masked	2	18	480	1	300	300	0	0	503	46	0	1	0	0	0	1	blank2r.bmp	0	1	+	0	5	C1r.bmp	492	1	blank2r.bmp	786	1	B1r.bmp	786	1	blank2r.bmp	866	6	krise	866	1	!	1319	1	!	1399	0	0	0	0	0	0	0	0	0	0	0	0	0	0	0	0	0	0	0	0	0	0	0	0	0	0	0
121318	14:51:09	14:56:04	292650	5.0.10.0	4_exp_AWA_CON_EVA_AMP	15	Rpleas_acq	Oppo	Rpleas	Amasked	CS_A	1pleas	distractor2	CONbeforeEVA	acq_US_pleas_masked	acq2_masked	2	19	480	0	300	300	0	0	668	50	0	1	0	0	0	1	blank2r.bmp	0	1	+	0	7	C3r.bmp	492	1	blank2r.bmp	786	1	CPLW	786	1	blank2r.bmp	866	5	anregung	866	1	!	1319	1	!	-1	0	0	0	0	0	0	0	0	0	0	0	0	0	0	0	0	0	0	0	0	0	0	0	0	0	0	0
121318	14:51:09	14:56:07	294969	5.0.10.0	4_exp_AWA_CON_EVA_AMP	15	Rpleas_acq	Oppo	Rpleas	Amasked	CS_A	1pleas	distractor2	CONbeforeEVA	acq_new_pleas_masked	acq2_masked	2	20	480	1	300	300	0	0	496	50	0	1	0	0	0	1	blank2r.bmp	0	1	+	0	4	B4r.bmp	492	1	blank2r.bmp	786	6	C2r.bmp	786	1	blank2r.bmp	866	1	engagiert	866	1	!	1319	1	!	1399	0	0	0	0	0	0	0	0	0	0	0	0	0	0	0	0	0	0	0	0	0	0	0	0	0	0	0
121318	14:51:09	14:56:09	297248	5.0.10.0	4_exp_AWA_CON_EVA_AMP	15	Rpleas_acq	Oppo	Rpleas	Amasked	CS_A	1pleas	distractor2	CONbeforeEVA	acq_new_unple_masked	acq2_masked	2	21	480	1	300	300	0	0	485	46	0	1	0	0	0	1	blank2r.bmp	0	1	+	0	8	C4r.bmp	492	1	blank2r.bmp	786	3	B3r.bmp	786	1	blank2r.bmp	866	3	gierig	866	1	!	1319	1	!	1386	0	0	0	0	0	0	0	0	0	0	0	0	0	0	0	0	0	0	0	0	0	0	0	0	0	0	0
121318	14:51:09	14:56:11	299567	5.0.10.0	4_exp_AWA_CON_EVA_AMP	15	Rpleas_acq	Oppo	Rpleas	Amasked	CS_A	1pleas	distractor2	CONbeforeEVA	acq_new_pleas_masked	acq2_masked	2	22	480	1	300	300	0	0	520	50	0	1	0	0	0	1	blank2r.bmp	0	1	+	0	4	B4r.bmp	492	1	blank2r.bmp	786	5	C1r.bmp	786	1	blank2r.bmp	866	5	kreativ	866	1	!	1319	1	!	1426	0	0	0	0	0	0	0	0	0	0	0	0	0	0	0	0	0	0	0	0	0	0	0	0	0	0	0
121318	14:51:09	14:56:13	301819	5.0.10.0	4_exp_AWA_CON_EVA_AMP	15	Rpleas_acq	Oppo	Rpleas	Amasked	CS_A	1pleas	distractor2	CONbeforeEVA	acq_new_unple_masked	acq2_masked	2	23	480	1	300	300	0	0	459	46	0	1	0	0	0	1	blank2r.bmp	0	1	+	0	3	B3r.bmp	492	1	blank2r.bmp	786	7	C3r.bmp	786	1	blank2r.bmp	866	4	verbissen	866	1	!	1319	1	!	1359	0	0	0	0	0	0	0	0	0	0	0	0	0	0	0	0	0	0	0	0	0	0	0	0	0	0	0
121318	14:51:09	14:56:16	304245	5.0.10.0	4_exp_AWA_CON_EVA_AMP	15	Rpleas_acq	Oppo	Rpleas	Amasked	CS_A	1pleas	distractor2	CONbeforeEVA	acq_US_pleas_masked	acq2_masked	2	24	480	0	300	300	0	0	651	50	0	1	0	0	0	1	blank2r.bmp	0	1	+	0	2	B2r.bmp	492	1	blank2r.bmp	786	1	CPLW	786	1	blank2r.bmp	866	3	sonnig	866	1	!	1319	1	!	-1	0	0	0	0	0	0	0	0	0	0	0	0	0	0	0	0	0	0	0	0	0	0	0	0	0	0	0
121318	14:51:09	14:56:18	306604	5.0.10.0	4_exp_AWA_CON_EVA_AMP	15	Rpleas_acq	Oppo	Rpleas	Amasked	CS_A	1pleas	distractor2	CONbeforeEVA	acq_US_pleas_masked	acq2_masked	2	25	480	0	300	300	0	0	580	50	0	1	0	0	0	1	blank2r.bmp	0	1	+	0	7	C3r.bmp	492	1	blank2r.bmp	786	1	CPLW	786	1	blank2r.bmp	866	6	gesittet	866	1	!	1319	1	!	-1	0	0	0	0	0	0	0	0	0	0	0	0	0	0	0	0	0	0	0	0	0	0	0	0	0	0	0
121318	14:51:09	14:56:21	309016	5.0.10.0	4_exp_AWA_CON_EVA_AMP	15	Rpleas_acq	Oppo	Rpleas	Amasked	CS_A	1pleas	distractor2	CONbeforeEVA	acq_new_pleas_masked	acq2_masked	2	26	480	0	300	300	0	0	405	46	0	0	0	0	0	1	blank2r.bmp	0	1	+	0	5	C1r.bmp	492	1	blank2r.bmp	786	2	B2r.bmp	786	1	blank2r.bmp	866	3	gütig	866	1	FEHLER	1612	1	!	-1	1	!	-1	0	0	0	0	0	0	0	0	0	0	0	0	0	0	0	0	0	0	0	0	0	0	0	0
121318	14:51:09	14:56:23	311215	5.0.10.0	4_exp_AWA_CON_EVA_AMP	15	Rpleas_acq	Oppo	Rpleas	Amasked	CS_A	1pleas	distractor2	CONbeforeEVA	acq_new_unple_masked	acq2_masked	2	27	480	0	300	300	0	0	651	46	0	1	0	0	0	1	blank2r.bmp	0	1	+	0	1	B1r.bmp	492	1	blank2r.bmp	786	4	B4r.bmp	786	1	blank2r.bmp	866	2	bange	866	1	!	1319	1	!	-1	0	0	0	0	0	0	0	0	0	0	0	0	0	0	0	0	0	0	0	0	0	0	0	0	0	0	0
121318	14:51:09	14:56:25	313388	5.0.10.0	4_exp_AWA_CON_EVA_AMP	15	Rpleas_acq	Oppo	Rpleas	Amasked	CS_A	1pleas	distractor2	CONbeforeEVA	acq_new_pleas_masked	acq2_masked	2	28	480	0	300	300	0	0	384	50	0	1	0	0	0	1	blank2r.bmp	0	1	+	0	6	C2r.bmp	492	1	blank2r.bmp	786	3	B3r.bmp	786	1	blank2r.bmp	866	2	besonnen	866	1	!	-1	1	!	-1	0	0	0	0	0	0	0	0	0	0	0	0	0	0	0	0	0	0	0	0	0	0	0	0	0	0	0
121318	14:51:09	14:56:27	315680	5.0.10.0	4_exp_AWA_CON_EVA_AMP	15	Rpleas_acq	Oppo	Rpleas	Amasked	CS_A	1pleas	distractor2	CONbeforeEVA	acq_new_pleas_masked	acq2_masked	2	29	480	1	300	300	0	0	479	50	0	1	0	0	0	1	blank2r.bmp	0	1	+	0	4	B4r.bmp	492	1	blank2r.bmp	786	8	C4r.bmp	786	1	blank2r.bmp	866	6	kuss	866	1	!	1319	1	!	1386	0	0	0	0	0	0	0	0	0	0	0	0	0	0	0	0	0	0	0	0	0	0	0	0	0	0	0
121318	14:51:09	14:56:30	318399	5.0.10.0	4_exp_AWA_CON_EVA_AMP	15	Rpleas_acq	Oppo	Rpleas	Amasked	CS_A	1pleas	distractor2	CONbeforeEVA	acq_US_unple_masked	acq2_masked	2	30	480	0	300	300	0	0	718	50	0	0	0	0	0	1	blank2r.bmp	0	1	+	0	1	B1r.bmp	492	1	blank2r.bmp	786	1	DHJF	786	1	blank2r.bmp	866	5	ausrottung	866	1	FEHLER	1932	1	!	1319	1	!	-1	0	0	0	0	0	0	0	0	0	0	0	0	0	0	0	0	0	0	0	0	0	0	0	0
121318	14:51:09	14:56:32	320745	5.0.10.0	4_exp_AWA_CON_EVA_AMP	15	Rpleas_acq	Oppo	Rpleas	Amasked	CS_A	1pleas	distractor2	CONbeforeEVA	acq_US_pleas_masked	acq2_masked	2	31	480	1	300	300	0	0	535	46	0	0	0	0	0	1	blank2r.bmp	0	1	+	0	2	B2r.bmp	492	1	blank2r.bmp	786	1	CPLW	786	1	blank2r.bmp	866	4	träumen	866	1	FEHLER	1759	1	!	1319	1	!	1439	0	0	0	0	0	0	0	0	0	0	0	0	0	0	0	0	0	0	0	0	0	0	0	0
121318	14:51:09	14:56:35	322944	5.0.10.0	4_exp_AWA_CON_EVA_AMP	15	Rpleas_acq	Oppo	Rpleas	Amasked	CS_A	1pleas	distractor2	CONbeforeEVA	acq_new_unple_masked	acq2_masked	2	32	480	0	300	300	0	0	643	46	0	1	0	0	0	1	blank2r.bmp	0	1	+	0	5	C1r.bmp	492	1	blank2r.bmp	786	7	C3r.bmp	786	1	blank2r.bmp	866	5	krank	866	1	!	1319	1	!	-1	0	0	0	0	0	0	0	0	0	0	0	0	0	0	0	0	0	0	0	0	0	0	0	0	0	0	0
121318	14:51:09	14:56:37	325503	5.0.10.0	4_exp_AWA_CON_EVA_AMP	15	Rpleas_acq	Oppo	Rpleas	Amasked	CS_A	1pleas	distractor2	CONbeforeEVA	acq_US_unple_masked	acq2_masked	2	33	480	1	300	300	0	0	535	50	0	0	0	0	0	1	blank2r.bmp	0	1	+	0	3	B3r.bmp	492	1	blank2r.bmp	786	1	DHJF	786	1	blank2r.bmp	866	4	töten	866	1	FEHLER	1759	1	!	1319	1	!	1439	0	0	0	0	0	0	0	0	0	0	0	0	0	0	0	0	0	0	0	0	0	0	0	0
121318	14:51:09	14:56:40	327968	5.0.10.0	4_exp_AWA_CON_EVA_AMP	15	Rpleas_acq	Oppo	Rpleas	Amasked	CS_A	1pleas	distractor2	CONbeforeEVA	acq_new_unple_masked	acq2_masked	2	34	480	0	300	300	0	0	683	50	0	0	0	0	0	1	blank2r.bmp	0	1	+	0	8	C4r.bmp	492	1	blank2r.bmp	786	1	B1r.bmp	786	1	blank2r.bmp	866	1	engstirnig	866	1	FEHLER	1892	1	!	1319	1	!	-1	0	0	0	0	0	0	0	0	0	0	0	0	0	0	0	0	0	0	0	0	0	0	0	0
121318	14:51:09	14:56:42	330447	5.0.10.0	4_exp_AWA_CON_EVA_AMP	15	Rpleas_acq	Oppo	Rpleas	Amasked	CS_A	1pleas	distractor2	CONbeforeEVA	acq_US_unple_masked	acq2_masked	2	35	480	0	300	300	0	0	925	46	0	1	0	0	0	1	blank2r.bmp	0	1	+	0	6	C2r.bmp	492	1	blank2r.bmp	786	1	DHJF	786	1	blank2r.bmp	866	6	geizig	866	1	!	1319	1	!	-1	0	0	0	0	0	0	0	0	0	0	0	0	0	0	0	0	0	0	0	0	0	0	0	0	0	0	0
121318	14:51:09	14:56:44	332766	5.0.10.0	4_exp_AWA_CON_EVA_AMP	15	Rpleas_acq	Oppo	Rpleas	Amasked	CS_A	1pleas	distractor2	CONbeforeEVA	acq_US_pleas_masked	acq2_masked	2	36	480	1	300	300	0	0	509	50	0	1	0	0	0	1	blank2r.bmp	0	1	+	0	7	C3r.bmp	492	1	blank2r.bmp	786	1	CPLW	786	1	blank2r.bmp	866	2	genießen	866	1	!	1319	1	!	1412	0	0	0	0	0	0	0	0	0	0	0	0	0	0	0	0	0	0	0	0	0	0	0	0	0	0	0
121318	14:51:09	14:57:02	350692	5.0.10.0	4_exp_AWA_CON_EVA_AMP	15	Rpleas_acq	Oppo	Rpleas	Amasked	CS_A	1pleas	distractor2	CONbeforeEVA	acq_US_unple_masked	acq3_masked	3	1	453	0	300	300	0	0	923	46	0	1	0	0	0	1	blank2r.bmp	0	1	+	0	2	B2r.bmp	492	1	blank2r.bmp	786	1	DHJF	786	1	blank2r.bmp	866	1	versagen	866	1	!	1292	1	!	-1	0	0	0	0	0	0	0	0	0	0	0	0	0	0	0	0	0	0	0	0	0	0	0	0	0	0	0
121318	14:51:09	14:57:05	353051	5.0.10.0	4_exp_AWA_CON_EVA_AMP	15	Rpleas_acq	Oppo	Rpleas	Amasked	CS_A	1pleas	distractor2	CONbeforeEVA	acq_US_unple_masked	acq3_masked	3	2	453	0	300	300	0	0	574	46	0	1	0	0	0	1	blank2r.bmp	0	1	+	0	6	C2r.bmp	492	1	blank2r.bmp	786	1	DHJF	786	1	blank2r.bmp	866	5	ausrottung	866	1	!	1292	1	!	-1	0	0	0	0	0	0	0	0	0	0	0	0	0	0	0	0	0	0	0	0	0	0	0	0	0	0	0
121318	14:51:09	14:57:07	355530	5.0.10.0	4_exp_AWA_CON_EVA_AMP	15	Rpleas_acq	Oppo	Rpleas	Amasked	CS_A	1pleas	distractor2	CONbeforeEVA	acq_US_unple_masked	acq3_masked	3	3	453	1	300	300	0	0	465	50	0	0	0	0	0	1	blank2r.bmp	0	1	+	0	1	B1r.bmp	492	1	blank2r.bmp	786	1	DHJF	786	1	blank2r.bmp	866	4	töten	866	1	FEHLER	1679	1	!	1292	1	!	1359	0	0	0	0	0	0	0	0	0	0	0	0	0	0	0	0	0	0	0	0	0	0	0	0
121318	14:51:09	14:57:09	357596	5.0.10.0	4_exp_AWA_CON_EVA_AMP	15	Rpleas_acq	Oppo	Rpleas	Amasked	CS_A	1pleas	distractor2	CONbeforeEVA	acq_US_pleas_masked	acq3_masked	3	4	453	1	300	300	0	0	486	50	0	1	0	0	0	1	blank2r.bmp	0	1	+	0	8	C4r.bmp	492	1	blank2r.bmp	786	1	CPLW	786	1	blank2r.bmp	866	3	sonnig	866	1	!	1292	1	!	1386	0	0	0	0	0	0	0	0	0	0	0	0	0	0	0	0	0	0	0	0	0	0	0	0	0	0	0
121318	14:51:09	14:57:12	360061	5.0.10.0	4_exp_AWA_CON_EVA_AMP	15	Rpleas_acq	Oppo	Rpleas	Amasked	CS_A	1pleas	distractor2	CONbeforeEVA	acq_US_pleas_masked	acq3_masked	3	5	453	1	300	300	0	0	456	46	0	0	0	0	0	1	blank2r.bmp	0	1	+	0	7	C3r.bmp	492	1	blank2r.bmp	786	1	CPLW	786	1	blank2r.bmp	866	1	vertrauen	866	1	FEHLER	1679	1	!	1292	1	!	1359	0	0	0	0	0	0	0	0	0	0	0	0	0	0	0	0	0	0	0	0	0	0	0	0
121318	14:51:09	14:57:14	362127	5.0.10.0	4_exp_AWA_CON_EVA_AMP	15	Rpleas_acq	Oppo	Rpleas	Amasked	CS_A	1pleas	distractor2	CONbeforeEVA	acq_US_pleas_masked	acq3_masked	3	6	453	1	300	300	0	0	483	50	0	1	0	0	0	1	blank2r.bmp	0	1	+	0	3	B3r.bmp	492	1	blank2r.bmp	786	1	CPLW	786	1	blank2r.bmp	866	4	träumen	866	1	!	1292	1	!	1386	0	0	0	0	0	0	0	0	0	0	0	0	0	0	0	0	0	0	0	0	0	0	0	0	0	0	0
121318	14:51:09	14:57:16	364393	5.0.10.0	4_exp_AWA_CON_EVA_AMP	15	Rpleas_acq	Oppo	Rpleas	Amasked	CS_A	1pleas	distractor2	CONbeforeEVA	acq_US_unple_masked	acq3_masked	3	7	453	1	300	300	0	0	465	46	0	1	0	0	0	1	blank2r.bmp	0	1	+	0	5	C1r.bmp	492	1	blank2r.bmp	786	1	DHJF	786	1	blank2r.bmp	866	2	gemein	866	1	!	1292	1	!	1372	0	0	0	0	0	0	0	0	0	0	0	0	0	0	0	0	0	0	0	0	0	0	0	0	0	0	0
121318	14:51:09	14:57:18	366925	5.0.10.0	4_exp_AWA_CON_EVA_AMP	15	Rpleas_acq	Oppo	Rpleas	Amasked	CS_A	1pleas	distractor2	CONbeforeEVA	acq_US_pleas_masked	acq3_masked	3	8	453	0	300	300	0	0	746	50	0	1	0	0	0	1	blank2r.bmp	0	1	+	0	4	B4r.bmp	492	1	blank2r.bmp	786	1	CPLW	786	1	blank2r.bmp	866	5	anregung	866	1	!	1292	1	!	-1	0	0	0	0	0	0	0	0	0	0	0	0	0	0	0	0	0	0	0	0	0	0	0	0	0	0	0
121318	14:51:09	14:57:21	369244	5.0.10.0	4_exp_AWA_CON_EVA_AMP	15	Rpleas_acq	Oppo	Rpleas	Amasked	CS_A	1pleas	distractor2	CONbeforeEVA	acq_US_pleas_masked	acq3_masked	3	9	453	0	300	300	0	0	532	50	0	1	0	0	0	1	blank2r.bmp	0	1	+	0	2	B2r.bmp	492	1	blank2r.bmp	786	1	CPLW	786	1	blank2r.bmp	866	2	genießen	866	1	!	1292	1	!	-1	0	0	0	0	0	0	0	0	0	0	0	0	0	0	0	0	0	0	0	0	0	0	0	0	0	0	0
121318	14:51:09	14:57:23	371723	5.0.10.0	4_exp_AWA_CON_EVA_AMP	15	Rpleas_acq	Oppo	Rpleas	Amasked	CS_A	1pleas	distractor2	CONbeforeEVA	acq_US_unple_masked	acq3_masked	3	10	453	1	300	300	0	0	460	50	0	0	0	0	0	1	blank2r.bmp	0	1	+	0	6	C2r.bmp	492	1	blank2r.bmp	786	1	DHJF	786	1	blank2r.bmp	866	6	geizig	866	1	FEHLER	1679	1	!	1292	1	!	1359	0	0	0	0	0	0	0	0	0	0	0	0	0	0	0	0	0	0	0	0	0	0	0	0
121318	14:51:09	14:57:25	373802	5.0.10.0	4_exp_AWA_CON_EVA_AMP	15	Rpleas_acq	Oppo	Rpleas	Amasked	CS_A	1pleas	distractor2	CONbeforeEVA	acq_US_unple_masked	acq3_masked	3	11	453	1	300	300	0	0	504	46	0	1	0	0	0	1	blank2r.bmp	0	1	+	0	4	B4r.bmp	492	1	blank2r.bmp	786	1	DHJF	786	1	blank2r.bmp	866	3	sterben	866	1	!	1292	1	!	1399	0	0	0	0	0	0	0	0	0	0	0	0	0	0	0	0	0	0	0	0	0	0	0	0	0	0	0
121318	14:51:09	14:57:28	376121	5.0.10.0	4_exp_AWA_CON_EVA_AMP	15	Rpleas_acq	Oppo	Rpleas	Amasked	CS_A	1pleas	distractor2	CONbeforeEVA	acq_US_pleas_masked	acq3_masked	3	12	453	0	300	300	0	0	552	50	0	1	0	0	0	1	blank2r.bmp	0	1	+	0	1	B1r.bmp	492	1	blank2r.bmp	786	1	CPLW	786	1	blank2r.bmp	866	6	gesittet	866	1	!	1292	1	!	-1	0	0	0	0	0	0	0	0	0	0	0	0	0	0	0	0	0	0	0	0	0	0	0	0	0	0	0
121318	14:51:09	14:57:30	378360	5.0.10.0	4_exp_AWA_CON_EVA_AMP	15	Rpleas_acq	Oppo	Rpleas	Amasked	CS_A	1pleas	distractor2	CONbeforeEVA	acq_US_unple_masked	acq3_masked	3	13	453	1	300	300	0	0	435	46	0	1	0	0	0	1	blank2r.bmp	0	1	+	0	5	C1r.bmp	492	1	blank2r.bmp	786	1	DHJF	786	1	blank2r.bmp	866	4	töten	866	1	!	1292	1	!	1332	0	0	0	0	0	0	0	0	0	0	0	0	0	0	0	0	0	0	0	0	0	0	0	0	0	0	0
121318	14:51:09	14:57:32	380626	5.0.10.0	4_exp_AWA_CON_EVA_AMP	15	Rpleas_acq	Oppo	Rpleas	Amasked	CS_A	1pleas	distractor2	CONbeforeEVA	acq_US_unple_masked	acq3_masked	3	14	453	1	300	300	0	0	470	46	0	1	0	0	0	1	blank2r.bmp	0	1	+	0	3	B3r.bmp	492	1	blank2r.bmp	786	1	DHJF	786	1	blank2r.bmp	866	2	gemein	866	1	!	1292	1	!	1372	0	0	0	0	0	0	0	0	0	0	0	0	0	0	0	0	0	0	0	0	0	0	0	0	0	0	0
121318	14:51:09	14:57:35	382958	5.0.10.0	4_exp_AWA_CON_EVA_AMP	15	Rpleas_acq	Oppo	Rpleas	Amasked	CS_A	1pleas	distractor2	CONbeforeEVA	acq_US_pleas_masked	acq3_masked	3	15	453	0	300	300	0	0	569	50	0	1	0	0	0	1	blank2r.bmp	0	1	+	0	7	C3r.bmp	492	1	blank2r.bmp	786	1	CPLW	786	1	blank2r.bmp	866	6	gesittet	866	1	!	1292	1	!	-1	0	0	0	0	0	0	0	0	0	0	0	0	0	0	0	0	0	0	0	0	0	0	0	0	0	0	0
121318	14:51:09	14:57:37	385224	5.0.10.0	4_exp_AWA_CON_EVA_AMP	15	Rpleas_acq	Oppo	Rpleas	Amasked	CS_A	1pleas	distractor2	CONbeforeEVA	acq_US_unple_masked	acq3_masked	3	16	453	1	300	300	0	0	443	46	0	1	0	0	0	1	blank2r.bmp	0	1	+	0	8	C4r.bmp	492	1	blank2r.bmp	786	1	DHJF	786	1	blank2r.bmp	866	5	ausrottung	866	1	!	1292	1	!	1346	0	0	0	0	0	0	0	0	0	0	0	0	0	0	0	0	0	0	0	0	0	0	0	0	0	0	0
121318	14:51:09	14:57:39	387583	5.0.10.0	4_exp_AWA_CON_EVA_AMP	15	Rpleas_acq	Oppo	Rpleas	Amasked	CS_A	1pleas	distractor2	CONbeforeEVA	acq_US_unple_masked	acq3_masked	3	17	453	0	300	300	0	0	364	50	0	0	0	0	0	1	blank2r.bmp	0	1	+	0	2	B2r.bmp	492	1	blank2r.bmp	786	1	DHJF	786	1	blank2r.bmp	866	3	sterben	866	1	FEHLER	1572	1	!	-1	1	!	-1	0	0	0	0	0	0	0	0	0	0	0	0	0	0	0	0	0	0	0	0	0	0	0	0
121318	14:51:09	14:57:41	389689	5.0.10.0	4_exp_AWA_CON_EVA_AMP	15	Rpleas_acq	Oppo	Rpleas	Amasked	CS_A	1pleas	distractor2	CONbeforeEVA	acq_US_pleas_masked	acq3_masked	3	18	453	1	300	300	0	0	511	50	0	1	0	0	0	1	blank2r.bmp	0	1	+	0	8	C4r.bmp	492	1	blank2r.bmp	786	1	CPLW	786	1	blank2r.bmp	866	5	anregung	866	1	!	1292	1	!	1412	0	0	0	0	0	0	0	0	0	0	0	0	0	0	0	0	0	0	0	0	0	0	0	0	0	0	0
121318	14:51:09	14:57:44	392101	5.0.10.0	4_exp_AWA_CON_EVA_AMP	15	Rpleas_acq	Oppo	Rpleas	Amasked	CS_A	1pleas	distractor2	CONbeforeEVA	acq_US_pleas_masked	acq3_masked	3	19	453	1	300	300	0	0	399	46	0	0	0	0	0	1	blank2r.bmp	0	1	+	0	5	C1r.bmp	492	1	blank2r.bmp	786	1	CPLW	786	1	blank2r.bmp	866	4	träumen	866	1	FEHLER	1625	1	!	1292	1	!	1306	0	0	0	0	0	0	0	0	0	0	0	0	0	0	0	0	0	0	0	0	0	0	0	0
121318	14:51:09	14:57:46	394340	5.0.10.0	4_exp_AWA_CON_EVA_AMP	15	Rpleas_acq	Oppo	Rpleas	Amasked	CS_A	1pleas	distractor2	CONbeforeEVA	acq_US_pleas_masked	acq3_masked	3	20	453	0	300	300	0	0	688	50	0	1	0	0	0	1	blank2r.bmp	0	1	+	0	6	C2r.bmp	492	1	blank2r.bmp	786	1	CPLW	786	1	blank2r.bmp	866	2	genießen	866	1	!	1292	1	!	-1	0	0	0	0	0	0	0	0	0	0	0	0	0	0	0	0	0	0	0	0	0	0	0	0	0	0	0
121318	14:51:09	14:57:48	396646	5.0.10.0	4_exp_AWA_CON_EVA_AMP	15	Rpleas_acq	Oppo	Rpleas	Amasked	CS_A	1pleas	distractor2	CONbeforeEVA	acq_US_unple_masked	acq3_masked	3	21	453	1	300	300	0	0	492	46	0	1	0	0	0	1	blank2r.bmp	0	1	+	0	7	C3r.bmp	492	1	blank2r.bmp	786	1	DHJF	786	1	blank2r.bmp	866	6	geizig	866	1	!	1292	1	!	1399	0	0	0	0	0	0	0	0	0	0	0	0	0	0	0	0	0	0	0	0	0	0	0	0	0	0	0
121318	14:51:09	14:57:51	399152	5.0.10.0	4_exp_AWA_CON_EVA_AMP	15	Rpleas_acq	Oppo	Rpleas	Amasked	CS_A	1pleas	distractor2	CONbeforeEVA	acq_US_unple_masked	acq3_masked	3	22	453	1	300	300	0	0	501	50	0	0	0	0	0	1	blank2r.bmp	0	1	+	0	3	B3r.bmp	492	1	blank2r.bmp	786	1	DHJF	786	1	blank2r.bmp	866	1	versagen	866	1	FEHLER	1719	1	!	1292	1	!	1399	0	0	0	0	0	0	0	0	0	0	0	0	0	0	0	0	0	0	0	0	0	0	0	0
121318	14:51:09	14:57:53	401177	5.0.10.0	4_exp_AWA_CON_EVA_AMP	15	Rpleas_acq	Oppo	Rpleas	Amasked	CS_A	1pleas	distractor2	CONbeforeEVA	acq_US_pleas_masked	acq3_masked	3	23	453	1	300	300	0	0	444	50	0	1	0	0	0	1	blank2r.bmp	0	1	+	0	4	B4r.bmp	492	1	blank2r.bmp	786	1	CPLW	786	1	blank2r.bmp	866	1	vertrauen	866	1	!	1292	1	!	1346	0	0	0	0	0	0	0	0	0	0	0	0	0	0	0	0	0	0	0	0	0	0	0	0	0	0	0
121318	14:51:09	14:57:55	403430	5.0.10.0	4_exp_AWA_CON_EVA_AMP	15	Rpleas_acq	Oppo	Rpleas	Amasked	CS_A	1pleas	distractor2	CONbeforeEVA	acq_US_pleas_masked	acq3_masked	3	24	453	1	300	300	0	0	451	50	0	1	0	0	0	1	blank2r.bmp	0	1	+	0	1	B1r.bmp	492	1	blank2r.bmp	786	1	CPLW	786	1	blank2r.bmp	866	3	sonnig	866	1	!	1292	1	!	1346	0	0	0	0	0	0	0	0	0	0	0	0	0	0	0	0	0	0	0	0	0	0	0	0	0	0	0
121318	14:51:09	14:57:57	405735	5.0.10.0	4_exp_AWA_CON_EVA_AMP	15	Rpleas_acq	Oppo	Rpleas	Amasked	CS_A	1pleas	distractor2	CONbeforeEVA	acq_US_unple_masked	acq3_masked	3	25	453	1	300	300	0	0	506	46	0	1	0	0	0	1	blank2r.bmp	0	1	+	0	2	B2r.bmp	492	1	blank2r.bmp	786	1	DHJF	786	1	blank2r.bmp	866	4	töten	866	1	!	1292	1	!	1412	0	0	0	0	0	0	0	0	0	0	0	0	0	0	0	0	0	0	0	0	0	0	0	0	0	0	0
121318	14:51:09	14:58:00	408041	5.0.10.0	4_exp_AWA_CON_EVA_AMP	15	Rpleas_acq	Oppo	Rpleas	Amasked	CS_A	1pleas	distractor2	CONbeforeEVA	acq_US_pleas_masked	acq3_masked	3	26	453	0	300	300	0	0	532	50	0	1	0	0	0	1	blank2r.bmp	0	1	+	0	6	C2r.bmp	492	1	blank2r.bmp	786	1	CPLW	786	1	blank2r.bmp	866	6	gesittet	866	1	!	1292	1	!	-1	0	0	0	0	0	0	0	0	0	0	0	0	0	0	0	0	0	0	0	0	0	0	0	0	0	0	0
121318	14:51:09	14:58:02	410254	5.0.10.0	4_exp_AWA_CON_EVA_AMP	15	Rpleas_acq	Oppo	Rpleas	Amasked	CS_A	1pleas	distractor2	CONbeforeEVA	acq_US_pleas_masked	acq3_masked	3	27	453	1	300	300	0	0	399	50	0	1	0	0	0	1	blank2r.bmp	0	1	+	0	7	C3r.bmp	492	1	blank2r.bmp	786	1	CPLW	786	1	blank2r.bmp	866	3	sonnig	866	1	!	1292	1	!	1306	0	0	0	0	0	0	0	0	0	0	0	0	0	0	0	0	0	0	0	0	0	0	0	0	0	0	0
121318	14:51:09	14:58:04	412466	5.0.10.0	4_exp_AWA_CON_EVA_AMP	15	Rpleas_acq	Oppo	Rpleas	Amasked	CS_A	1pleas	distractor2	CONbeforeEVA	acq_US_unple_masked	acq3_masked	3	28	453	1	300	300	0	0	419	46	0	1	0	0	0	1	blank2r.bmp	0	1	+	0	3	B3r.bmp	492	1	blank2r.bmp	786	1	DHJF	786	1	blank2r.bmp	866	3	sterben	866	1	!	1292	1	!	1319	0	0	0	0	0	0	0	0	0	0	0	0	0	0	0	0	0	0	0	0	0	0	0	0	0	0	0
121318	14:51:09	14:58:06	414838	5.0.10.0	4_exp_AWA_CON_EVA_AMP	15	Rpleas_acq	Oppo	Rpleas	Amasked	CS_A	1pleas	distractor2	CONbeforeEVA	acq_US_unple_masked	acq3_masked	3	29	453	0	300	300	0	0	373	50	0	0	0	0	0	1	blank2r.bmp	0	1	+	0	4	B4r.bmp	492	1	blank2r.bmp	786	1	DHJF	786	1	blank2r.bmp	866	1	versagen	866	1	FEHLER	1586	1	!	-1	1	!	-1	0	0	0	0	0	0	0	0	0	0	0	0	0	0	0	0	0	0	0	0	0	0	0	0
121318	14:51:09	14:58:08	416917	5.0.10.0	4_exp_AWA_CON_EVA_AMP	15	Rpleas_acq	Oppo	Rpleas	Amasked	CS_A	1pleas	distractor2	CONbeforeEVA	acq_US_unple_masked	acq3_masked	3	30	453	1	300	300	0	0	496	46	0	1	0	0	0	1	blank2r.bmp	0	1	+	0	1	B1r.bmp	492	1	blank2r.bmp	786	1	DHJF	786	1	blank2r.bmp	866	5	ausrottung	866	1	!	1292	1	!	1399	0	0	0	0	0	0	0	0	0	0	0	0	0	0	0	0	0	0	0	0	0	0	0	0	0	0	0
121318	14:51:09	14:58:11	419490	5.0.10.0	4_exp_AWA_CON_EVA_AMP	15	Rpleas_acq	Oppo	Rpleas	Amasked	CS_A	1pleas	distractor2	CONbeforeEVA	acq_US_unple_masked	acq3_masked	3	31	453	0	300	300	0	0	559	50	0	0	0	0	0	1	blank2r.bmp	0	1	+	0	5	C1r.bmp	492	1	blank2r.bmp	786	1	DHJF	786	1	blank2r.bmp	866	6	geizig	866	1	FEHLER	1772	1	!	1292	1	!	-1	0	0	0	0	0	0	0	0	0	0	0	0	0	0	0	0	0	0	0	0	0	0	0	0
121318	14:51:09	14:58:13	421542	5.0.10.0	4_exp_AWA_CON_EVA_AMP	15	Rpleas_acq	Oppo	Rpleas	Amasked	CS_A	1pleas	distractor2	CONbeforeEVA	acq_US_pleas_masked	acq3_masked	3	32	453	1	300	300	0	0	474	50	0	1	0	0	0	1	blank2r.bmp	0	1	+	0	8	C4r.bmp	492	1	blank2r.bmp	786	1	CPLW	786	1	blank2r.bmp	866	2	genießen	866	1	!	1292	1	!	1372	0	0	0	0	0	0	0	0	0	0	0	0	0	0	0	0	0	0	0	0	0	0	0	0	0	0	0
121318	14:51:09	14:58:15	423928	5.0.10.0	4_exp_AWA_CON_EVA_AMP	15	Rpleas_acq	Oppo	Rpleas	Amasked	CS_A	1pleas	distractor2	CONbeforeEVA	acq_US_pleas_masked	acq3_masked	3	33	453	0	300	300	0	0	619	50	0	1	0	0	0	1	blank2r.bmp	0	1	+	0	7	C3r.bmp	492	1	blank2r.bmp	786	1	CPLW	786	1	blank2r.bmp	866	5	anregung	866	1	!	1292	1	!	-1	0	0	0	0	0	0	0	0	0	0	0	0	0	0	0	0	0	0	0	0	0	0	0	0	0	0	0
121318	14:51:09	14:58:18	426207	5.0.10.0	4_exp_AWA_CON_EVA_AMP	15	Rpleas_acq	Oppo	Rpleas	Amasked	CS_A	1pleas	distractor2	CONbeforeEVA	acq_US_pleas_masked	acq3_masked	3	34	453	1	300	300	0	0	468	50	0	1	0	0	0	1	blank2r.bmp	0	1	+	0	1	B1r.bmp	492	1	blank2r.bmp	786	1	CPLW	786	1	blank2r.bmp	866	4	träumen	866	1	!	1292	1	!	1372	0	0	0	0	0	0	0	0	0	0	0	0	0	0	0	0	0	0	0	0	0	0	0	0	0	0	0
121318	14:51:09	14:58:20	428499	5.0.10.0	4_exp_AWA_CON_EVA_AMP	15	Rpleas_acq	Oppo	Rpleas	Amasked	CS_A	1pleas	distractor2	CONbeforeEVA	acq_US_pleas_masked	acq3_masked	3	35	453	1	300	300	0	0	496	50	0	1	0	0	0	1	blank2r.bmp	0	1	+	0	4	B4r.bmp	492	1	blank2r.bmp	786	1	CPLW	786	1	blank2r.bmp	866	1	vertrauen	866	1	!	1292	1	!	1399	0	0	0	0	0	0	0	0	0	0	0	0	0	0	0	0	0	0	0	0	0	0	0	0	0	0	0
121318	14:51:09	14:58:22	430752	5.0.10.0	4_exp_AWA_CON_EVA_AMP	15	Rpleas_acq	Oppo	Rpleas	Amasked	CS_A	1pleas	distractor2	CONbeforeEVA	acq_US_unple_masked	acq3_masked	3	36	453	1	300	300	0	0	461	46	0	1	0	0	0	1	blank2r.bmp	0	1	+	0	2	B2r.bmp	492	1	blank2r.bmp	786	1	DHJF	786	1	blank2r.bmp	866	2	gemein	866	1	!	1292	1	!	1359	0	0	0	0	0	0	0	0	0	0	0	0	0	0	0	0	0	0	0	0	0	0	0	0	0	0	0
121318	14:51:09	14:58:35	443266	5.0.10.0	4_exp_AWA_CON_EVA_AMP	15	Rpleas_acq	Oppo	Rpleas	Amasked	CS_A	1pleas	distractor2	CONbeforeEVA	acq_US_pleas_masked	acq45_masked	4	1	400	0	300	300	0	0	480	50	0	1	0	0	0	1	blank2r.bmp	0	1	+	0	6	C2r.bmp	492	1	blank2r.bmp	786	1	CPLW	786	1	blank2r.bmp	866	4	träumen	866	1	!	1239	1	!	-1	0	0	0	0	0	0	0	0	0	0	0	0	0	0	0	0	0	0	0	0	0	0	0	0	0	0	0
121318	14:51:09	14:58:37	445585	5.0.10.0	4_exp_AWA_CON_EVA_AMP	15	Rpleas_acq	Oppo	Rpleas	Amasked	CS_A	1pleas	distractor2	CONbeforeEVA	acq_US_pleas_masked	acq45_masked	4	2	400	0	300	300	0	0	530	50	0	1	0	0	0	1	blank2r.bmp	0	1	+	0	8	C4r.bmp	492	1	blank2r.bmp	786	1	CPLW	786	1	blank2r.bmp	866	5	anregung	866	1	!	1239	1	!	-1	0	0	0	0	0	0	0	0	0	0	0	0	0	0	0	0	0	0	0	0	0	0	0	0	0	0	0
121318	14:51:09	14:58:39	447864	5.0.10.0	4_exp_AWA_CON_EVA_AMP	15	Rpleas_acq	Oppo	Rpleas	Amasked	CS_A	1pleas	distractor2	CONbeforeEVA	acq_US_pleas_masked	acq45_masked	4	3	400	0	300	300	0	0	501	50	0	1	0	0	0	1	blank2r.bmp	0	1	+	0	3	B3r.bmp	492	1	blank2r.bmp	786	1	CPLW	786	1	blank2r.bmp	866	6	gesittet	866	1	!	1239	1	!	-1	0	0	0	0	0	0	0	0	0	0	0	0	0	0	0	0	0	0	0	0	0	0	0	0	0	0	0
121318	14:51:09	14:58:42	450117	5.0.10.0	4_exp_AWA_CON_EVA_AMP	15	Rpleas_acq	Oppo	Rpleas	Amasked	CS_A	1pleas	distractor2	CONbeforeEVA	acq_US_unple_masked	acq45_masked	4	4	400	1	300	300	0	0	447	46	0	1	0	0	0	1	blank2r.bmp	0	1	+	0	5	C1r.bmp	492	1	blank2r.bmp	786	1	DHJF	786	1	blank2r.bmp	866	6	geizig	866	1	!	1239	1	!	1346	0	0	0	0	0	0	0	0	0	0	0	0	0	0	0	0	0	0	0	0	0	0	0	0	0	0	0
121318	14:51:09	14:58:44	452343	5.0.10.0	4_exp_AWA_CON_EVA_AMP	15	Rpleas_acq	Oppo	Rpleas	Amasked	CS_A	1pleas	distractor2	CONbeforeEVA	acq_US_unple_masked	acq45_masked	4	5	400	1	300	300	0	0	430	46	0	1	0	0	0	1	blank2r.bmp	0	1	+	0	3	B3r.bmp	492	1	blank2r.bmp	786	1	DHJF	786	1	blank2r.bmp	866	1	versagen	866	1	!	1239	1	!	1332	0	0	0	0	0	0	0	0	0	0	0	0	0	0	0	0	0	0	0	0	0	0	0	0	0	0	0
121318	14:51:09	14:58:46	454555	5.0.10.0	4_exp_AWA_CON_EVA_AMP	15	Rpleas_acq	Oppo	Rpleas	Amasked	CS_A	1pleas	distractor2	CONbeforeEVA	acq_US_unple_masked	acq45_masked	4	6	400	1	300	300	0	0	417	50	0	0	0	0	0	1	blank2r.bmp	0	1	+	0	8	C4r.bmp	492	1	blank2r.bmp	786	1	DHJF	786	1	blank2r.bmp	866	5	ausrottung	866	1	!	1239	1	!	1319	0	0	0	0	0	0	0	0	0	0	0	0	0	0	0	0	0	0	0	0	0	0	0	0	0	0	0
121318	14:51:09	14:58:48	456754	5.0.10.0	4_exp_AWA_CON_EVA_AMP	15	Rpleas_acq	Oppo	Rpleas	Amasked	CS_A	1pleas	distractor2	CONbeforeEVA	acq_US_unple_masked	acq45_masked	4	7	400	1	300	300	0	0	406	46	0	1	0	0	0	1	blank2r.bmp	0	1	+	0	1	B1r.bmp	492	1	blank2r.bmp	786	1	DHJF	786	1	blank2r.bmp	866	3	sterben	866	1	!	1239	1	!	1306	0	0	0	0	0	0	0	0	0	0	0	0	0	0	0	0	0	0	0	0	0	0	0	0	0	0	0
121318	14:51:09	14:58:51	459033	5.0.10.0	4_exp_AWA_CON_EVA_AMP	15	Rpleas_acq	Oppo	Rpleas	Amasked	CS_A	1pleas	distractor2	CONbeforeEVA	acq_US_pleas_masked	acq45_masked	4	8	400	0	300	300	0	0	518	50	0	1	0	0	0	1	blank2r.bmp	0	1	+	0	2	B2r.bmp	492	1	blank2r.bmp	786	1	CPLW	786	1	blank2r.bmp	866	1	vertrauen	866	1	!	1239	1	!	-1	0	0	0	0	0	0	0	0	0	0	0	0	0	0	0	0	0	0	0	0	0	0	0	0	0	0	0
121318	14:51:09	14:58:53	461285	5.0.10.0	4_exp_AWA_CON_EVA_AMP	15	Rpleas_acq	Oppo	Rpleas	Amasked	CS_A	1pleas	distractor2	CONbeforeEVA	acq_US_unple_masked	acq45_masked	4	9	400	1	300	300	0	0	448	46	0	1	0	0	0	1	blank2r.bmp	0	1	+	0	6	C2r.bmp	492	1	blank2r.bmp	786	1	DHJF	786	1	blank2r.bmp	866	4	töten	866	1	!	1239	1	!	1346	0	0	0	0	0	0	0	0	0	0	0	0	0	0	0	0	0	0	0	0	0	0	0	0	0	0	0
121318	14:51:09	14:58:55	463498	5.0.10.0	4_exp_AWA_CON_EVA_AMP	15	Rpleas_acq	Oppo	Rpleas	Amasked	CS_A	1pleas	distractor2	CONbeforeEVA	acq_US_pleas_masked	acq45_masked	4	10	400	1	300	300	0	0	424	50	0	1	0	0	0	1	blank2r.bmp	0	1	+	0	5	C1r.bmp	492	1	blank2r.bmp	786	1	CPLW	786	1	blank2r.bmp	866	2	genießen	866	1	!	1239	1	!	1319	0	0	0	0	0	0	0	0	0	0	0	0	0	0	0	0	0	0	0	0	0	0	0	0	0	0	0
121318	14:51:09	14:58:57	465777	5.0.10.0	4_exp_AWA_CON_EVA_AMP	15	Rpleas_acq	Oppo	Rpleas	Amasked	CS_A	1pleas	distractor2	CONbeforeEVA	acq_US_unple_masked	acq45_masked	4	11	400	0	300	300	0	0	494	46	0	1	0	0	0	1	blank2r.bmp	0	1	+	0	7	C3r.bmp	492	1	blank2r.bmp	786	1	DHJF	786	1	blank2r.bmp	866	2	gemein	866	1	!	1239	1	!	-1	0	0	0	0	0	0	0	0	0	0	0	0	0	0	0	0	0	0	0	0	0	0	0	0	0	0	0
121318	14:51:09	14:59:00	468056	5.0.10.0	4_exp_AWA_CON_EVA_AMP	15	Rpleas_acq	Oppo	Rpleas	Amasked	CS_A	1pleas	distractor2	CONbeforeEVA	acq_US_unple_masked	acq45_masked	4	12	400	0	300	300	0	0	479	46	0	1	0	0	0	1	blank2r.bmp	0	1	+	0	4	B4r.bmp	492	1	blank2r.bmp	786	1	DHJF	786	1	blank2r.bmp	866	1	versagen	866	1	!	1239	1	!	-1	0	0	0	0	0	0	0	0	0	0	0	0	0	0	0	0	0	0	0	0	0	0	0	0	0	0	0
121318	14:51:09	14:59:02	470268	5.0.10.0	4_exp_AWA_CON_EVA_AMP	15	Rpleas_acq	Oppo	Rpleas	Amasked	CS_A	1pleas	distractor2	CONbeforeEVA	acq_US_pleas_masked	acq45_masked	4	13	400	1	300	300	0	0	385	50	0	1	0	0	0	1	blank2r.bmp	0	1	+	0	2	B2r.bmp	492	1	blank2r.bmp	786	1	CPLW	786	1	blank2r.bmp	866	3	sonnig	866	1	!	1239	1	!	1292	0	0	0	0	0	0	0	0	0	0	0	0	0	0	0	0	0	0	0	0	0	0	0	0	0	0	0
121318	14:51:09	14:59:04	472454	5.0.10.0	4_exp_AWA_CON_EVA_AMP	15	Rpleas_acq	Oppo	Rpleas	Amasked	CS_A	1pleas	distractor2	CONbeforeEVA	acq_US_pleas_masked	acq45_masked	4	14	400	1	300	300	0	0	374	50	0	1	0	0	0	1	blank2r.bmp	0	1	+	0	7	C3r.bmp	492	1	blank2r.bmp	786	1	CPLW	786	1	blank2r.bmp	866	3	sonnig	866	1	!	1239	1	!	1279	0	0	0	0	0	0	0	0	0	0	0	0	0	0	0	0	0	0	0	0	0	0	0	0	0	0	0
121318	14:51:09	14:59:06	474667	5.0.10.0	4_exp_AWA_CON_EVA_AMP	15	Rpleas_acq	Oppo	Rpleas	Amasked	CS_A	1pleas	distractor2	CONbeforeEVA	acq_US_pleas_masked	acq45_masked	4	15	400	1	300	300	0	0	424	46	0	0	0	0	0	1	blank2r.bmp	0	1	+	0	8	C4r.bmp	492	1	blank2r.bmp	786	1	CPLW	786	1	blank2r.bmp	866	6	gesittet	866	1	!	1239	1	!	1319	0	0	0	0	0	0	0	0	0	0	0	0	0	0	0	0	0	0	0	0	0	0	0	0	0	0	0
121318	14:51:09	14:59:08	476879	5.0.10.0	4_exp_AWA_CON_EVA_AMP	15	Rpleas_acq	Oppo	Rpleas	Amasked	CS_A	1pleas	distractor2	CONbeforeEVA	acq_US_pleas_masked	acq45_masked	4	16	400	1	300	300	0	0	402	50	0	1	0	0	0	1	blank2r.bmp	0	1	+	0	5	C1r.bmp	492	1	blank2r.bmp	786	1	CPLW	786	1	blank2r.bmp	866	5	anregung	866	1	!	1239	1	!	1306	0	0	0	0	0	0	0	0	0	0	0	0	0	0	0	0	0	0	0	0	0	0	0	0	0	0	0
121318	14:51:09	14:59:11	479145	5.0.10.0	4_exp_AWA_CON_EVA_AMP	15	Rpleas_acq	Oppo	Rpleas	Amasked	CS_A	1pleas	distractor2	CONbeforeEVA	acq_US_unple_masked	acq45_masked	4	17	400	0	300	300	0	0	504	46	0	1	0	0	0	1	blank2r.bmp	0	1	+	0	6	C2r.bmp	492	1	blank2r.bmp	786	1	DHJF	786	1	blank2r.bmp	866	6	geizig	866	1	!	1239	1	!	-1	0	0	0	0	0	0	0	0	0	0	0	0	0	0	0	0	0	0	0	0	0	0	0	0	0	0	0
121318	14:51:09	14:59:13	481330	5.0.10.0	4_exp_AWA_CON_EVA_AMP	15	Rpleas_acq	Oppo	Rpleas	Amasked	CS_A	1pleas	distractor2	CONbeforeEVA	acq_US_unple_masked	acq45_masked	4	18	400	1	300	300	0	0	383	50	0	0	0	0	0	1	blank2r.bmp	0	1	+	0	3	B3r.bmp	492	1	blank2r.bmp	786	1	DHJF	786	1	blank2r.bmp	866	2	gemein	866	1	!	1239	1	!	1279	0	0	0	0	0	0	0	0	0	0	0	0	0	0	0	0	0	0	0	0	0	0	0	0	0	0	0
121318	14:51:09	14:59:15	483583	5.0.10.0	4_exp_AWA_CON_EVA_AMP	15	Rpleas_acq	Oppo	Rpleas	Amasked	CS_A	1pleas	distractor2	CONbeforeEVA	acq_US_unple_masked	acq45_masked	4	19	400	0	300	300	0	0	479	50	0	0	0	0	0	1	blank2r.bmp	0	1	+	0	4	B4r.bmp	492	1	blank2r.bmp	786	1	DHJF	786	1	blank2r.bmp	866	4	töten	866	1	!	1239	1	!	-1	0	0	0	0	0	0	0	0	0	0	0	0	0	0	0	0	0	0	0	0	0	0	0	0	0	0	0
121318	14:51:09	14:59:17	485849	5.0.10.0	4_exp_AWA_CON_EVA_AMP	15	Rpleas_acq	Oppo	Rpleas	Amasked	CS_A	1pleas	distractor2	CONbeforeEVA	acq_US_pleas_masked	acq45_masked	4	20	400	0	300	300	0	0	489	50	0	1	0	0	0	1	blank2r.bmp	0	1	+	0	1	B1r.bmp	492	1	blank2r.bmp	786	1	CPLW	786	1	blank2r.bmp	866	4	träumen	866	1	!	1239	1	!	-1	0	0	0	0	0	0	0	0	0	0	0	0	0	0	0	0	0	0	0	0	0	0	0	0	0	0	0
121318	14:51:09	14:59:20	488168	5.0.10.0	4_exp_AWA_CON_EVA_AMP	15	Rpleas_acq	Oppo	Rpleas	Amasked	CS_A	1pleas	distractor2	CONbeforeEVA	acq_US_pleas_masked	acq45_masked	4	21	400	0	300	300	0	0	536	50	0	1	0	0	0	1	blank2r.bmp	0	1	+	0	4	B4r.bmp	492	1	blank2r.bmp	786	1	CPLW	786	1	blank2r.bmp	866	1	vertrauen	866	1	!	1239	1	!	-1	0	0	0	0	0	0	0	0	0	0	0	0	0	0	0	0	0	0	0	0	0	0	0	0	0	0	0
121318	14:51:09	14:59:22	490327	5.0.10.0	4_exp_AWA_CON_EVA_AMP	15	Rpleas_acq	Oppo	Rpleas	Amasked	CS_A	1pleas	distractor2	CONbeforeEVA	acq_US_pleas_masked	acq45_masked	4	22	400	1	300	300	0	0	349	50	0	1	0	0	0	1	blank2r.bmp	0	1	+	0	2	B2r.bmp	492	1	blank2r.bmp	786	1	CPLW	786	1	blank2r.bmp	866	2	genießen	866	1	!	1239	1	!	1252	0	0	0	0	0	0	0	0	0	0	0	0	0	0	0	0	0	0	0	0	0	0	0	0	0	0	0
121318	14:51:09	14:59:24	492526	5.0.10.0	4_exp_AWA_CON_EVA_AMP	15	Rpleas_acq	Oppo	Rpleas	Amasked	CS_A	1pleas	distractor2	CONbeforeEVA	acq_US_pleas_masked	acq45_masked	4	23	400	1	300	300	0	0	404	50	0	1	0	0	0	1	blank2r.bmp	0	1	+	0	8	C4r.bmp	492	1	blank2r.bmp	786	1	CPLW	786	1	blank2r.bmp	866	4	träumen	866	1	!	1239	1	!	1306	0	0	0	0	0	0	0	0	0	0	0	0	0	0	0	0	0	0	0	0	0	0	0	0	0	0	0
121318	14:51:09	14:59:26	494618	5.0.10.0	4_exp_AWA_CON_EVA_AMP	15	Rpleas_acq	Oppo	Rpleas	Amasked	CS_A	1pleas	distractor2	CONbeforeEVA	acq_US_unple_masked	acq45_masked	4	24	400	0	300	300	0	0	322	46	0	1	0	0	0	1	blank2r.bmp	0	1	+	0	5	C1r.bmp	492	1	blank2r.bmp	786	1	DHJF	786	1	blank2r.bmp	866	3	sterben	866	1	!	-1	1	!	-1	0	0	0	0	0	0	0	0	0	0	0	0	0	0	0	0	0	0	0	0	0	0	0	0	0	0	0
121318	14:51:09	14:59:29	496990	5.0.10.0	4_exp_AWA_CON_EVA_AMP	15	Rpleas_acq	Oppo	Rpleas	Amasked	CS_A	1pleas	distractor2	CONbeforeEVA	acq_US_unple_masked	acq45_masked	4	25	400	0	300	300	0	0	591	46	0	1	0	0	0	1	blank2r.bmp	0	1	+	0	6	C2r.bmp	492	1	blank2r.bmp	786	1	DHJF	786	1	blank2r.bmp	866	5	ausrottung	866	1	!	1239	1	!	-1	0	0	0	0	0	0	0	0	0	0	0	0	0	0	0	0	0	0	0	0	0	0	0	0	0	0	0
121318	14:51:09	14:59:31	499203	5.0.10.0	4_exp_AWA_CON_EVA_AMP	15	Rpleas_acq	Oppo	Rpleas	Amasked	CS_A	1pleas	distractor2	CONbeforeEVA	acq_US_pleas_masked	acq45_masked	4	26	400	1	300	300	0	0	402	50	0	1	0	0	0	1	blank2r.bmp	0	1	+	0	3	B3r.bmp	492	1	blank2r.bmp	786	1	CPLW	786	1	blank2r.bmp	866	1	vertrauen	866	1	!	1239	1	!	1306	0	0	0	0	0	0	0	0	0	0	0	0	0	0	0	0	0	0	0	0	0	0	0	0	0	0	0
121318	14:51:09	14:59:33	501402	5.0.10.0	4_exp_AWA_CON_EVA_AMP	15	Rpleas_acq	Oppo	Rpleas	Amasked	CS_A	1pleas	distractor2	CONbeforeEVA	acq_US_pleas_masked	acq45_masked	4	27	400	1	300	300	0	0	411	50	0	1	0	0	0	1	blank2r.bmp	0	1	+	0	1	B1r.bmp	492	1	blank2r.bmp	786	1	CPLW	786	1	blank2r.bmp	866	3	sonnig	866	1	!	1239	1	!	1306	0	0	0	0	0	0	0	0	0	0	0	0	0	0	0	0	0	0	0	0	0	0	0	0	0	0	0
121318	14:51:09	14:59:35	503628	5.0.10.0	4_exp_AWA_CON_EVA_AMP	15	Rpleas_acq	Oppo	Rpleas	Amasked	CS_A	1pleas	distractor2	CONbeforeEVA	acq_US_unple_masked	acq45_masked	4	28	400	1	300	300	0	0	435	46	0	1	0	0	0	1	blank2r.bmp	0	1	+	0	7	C3r.bmp	492	1	blank2r.bmp	786	1	DHJF	786	1	blank2r.bmp	866	1	versagen	866	1	!	1239	1	!	1332	0	0	0	0	0	0	0	0	0	0	0	0	0	0	0	0	0	0	0	0	0	0	0	0	0	0	0
121318	14:51:09	14:59:37	505800	5.0.10.0	4_exp_AWA_CON_EVA_AMP	15	Rpleas_acq	Oppo	Rpleas	Amasked	CS_A	1pleas	distractor2	CONbeforeEVA	acq_US_pleas_masked	acq45_masked	4	29	400	1	300	300	0	0	373	50	0	1	0	0	0	1	blank2r.bmp	0	1	+	0	5	C1r.bmp	492	1	blank2r.bmp	786	1	CPLW	786	1	blank2r.bmp	866	6	gesittet	866	1	!	1239	1	!	1279	0	0	0	0	0	0	0	0	0	0	0	0	0	0	0	0	0	0	0	0	0	0	0	0	0	0	0
121318	14:51:09	14:59:40	508132	5.0.10.0	4_exp_AWA_CON_EVA_AMP	15	Rpleas_acq	Oppo	Rpleas	Amasked	CS_A	1pleas	distractor2	CONbeforeEVA	acq_US_unple_masked	acq45_masked	4	30	400	0	300	300	0	0	570	46	0	1	0	0	0	1	blank2r.bmp	0	1	+	0	4	B4r.bmp	492	1	blank2r.bmp	786	1	DHJF	786	1	blank2r.bmp	866	6	geizig	866	1	!	1239	1	!	-1	0	0	0	0	0	0	0	0	0	0	0	0	0	0	0	0	0	0	0	0	0	0	0	0	0	0	0
121318	14:51:09	14:59:42	510398	5.0.10.0	4_exp_AWA_CON_EVA_AMP	15	Rpleas_acq	Oppo	Rpleas	Amasked	CS_A	1pleas	distractor2	CONbeforeEVA	acq_US_unple_masked	acq45_masked	4	31	400	1	300	300	0	0	451	46	0	1	0	0	0	1	blank2r.bmp	0	1	+	0	1	B1r.bmp	492	1	blank2r.bmp	786	1	DHJF	786	1	blank2r.bmp	866	3	sterben	866	1	!	1239	1	!	1346	0	0	0	0	0	0	0	0	0	0	0	0	0	0	0	0	0	0	0	0	0	0	0	0	0	0	0
121318	14:51:09	14:59:44	512597	5.0.10.0	4_exp_AWA_CON_EVA_AMP	15	Rpleas_acq	Oppo	Rpleas	Amasked	CS_A	1pleas	distractor2	CONbeforeEVA	acq_US_unple_masked	acq45_masked	4	32	400	1	300	300	0	0	399	50	0	0	0	0	0	1	blank2r.bmp	0	1	+	0	3	B3r.bmp	492	1	blank2r.bmp	786	1	DHJF	786	1	blank2r.bmp	866	5	ausrottung	866	1	!	1239	1	!	1306	0	0	0	0	0	0	0	0	0	0	0	0	0	0	0	0	0	0	0	0	0	0	0	0	0	0	0
121318	14:51:09	14:59:46	514850	5.0.10.0	4_exp_AWA_CON_EVA_AMP	15	Rpleas_acq	Oppo	Rpleas	Amasked	CS_A	1pleas	distractor2	CONbeforeEVA	acq_US_pleas_masked	acq45_masked	4	33	400	1	300	300	0	0	461	46	0	0	0	0	0	1	blank2r.bmp	0	1	+	0	6	C2r.bmp	492	1	blank2r.bmp	786	1	CPLW	786	1	blank2r.bmp	866	5	anregung	866	1	!	1239	1	!	1359	0	0	0	0	0	0	0	0	0	0	0	0	0	0	0	0	0	0	0	0	0	0	0	0	0	0	0
121318	14:51:09	14:59:49	517035	5.0.10.0	4_exp_AWA_CON_EVA_AMP	15	Rpleas_acq	Oppo	Rpleas	Amasked	CS_A	1pleas	distractor2	CONbeforeEVA	acq_US_pleas_masked	acq45_masked	4	34	400	1	300	300	0	0	391	50	0	1	0	0	0	1	blank2r.bmp	0	1	+	0	7	C3r.bmp	492	1	blank2r.bmp	786	1	CPLW	786	1	blank2r.bmp	866	2	genießen	866	1	!	1239	1	!	1292	0	0	0	0	0	0	0	0	0	0	0	0	0	0	0	0	0	0	0	0	0	0	0	0	0	0	0
121318	14:51:09	14:59:51	519248	5.0.10.0	4_exp_AWA_CON_EVA_AMP	15	Rpleas_acq	Oppo	Rpleas	Amasked	CS_A	1pleas	distractor2	CONbeforeEVA	acq_US_unple_masked	acq45_masked	4	35	400	1	300	300	0	0	410	46	0	1	0	0	0	1	blank2r.bmp	0	1	+	0	2	B2r.bmp	492	1	blank2r.bmp	786	1	DHJF	786	1	blank2r.bmp	866	4	töten	866	1	!	1239	1	!	1306	0	0	0	0	0	0	0	0	0	0	0	0	0	0	0	0	0	0	0	0	0	0	0	0	0	0	0
121318	14:51:09	14:59:53	521434	5.0.10.0	4_exp_AWA_CON_EVA_AMP	15	Rpleas_acq	Oppo	Rpleas	Amasked	CS_A	1pleas	distractor2	CONbeforeEVA	acq_US_unple_masked	acq45_masked	4	36	400	1	300	300	0	0	390	50	0	0	0	0	0	1	blank2r.bmp	0	1	+	0	8	C4r.bmp	492	1	blank2r.bmp	786	1	DHJF	786	1	blank2r.bmp	866	2	gemein	866	1	!	1239	1	!	1292	0	0	0	0	0	0	0	0	0	0	0	0	0	0	0	0	0	0	0	0	0	0	0	0	0	0	0
121318	14:51:09	15:00:03	531376	5.0.10.0	4_exp_AWA_CON_EVA_AMP	15	Rpleas_acq	Oppo	Rpleas	Amasked	CS_A	1pleas	distractor2	CONbeforeEVA	acq_US_pleas_masked	acq45_masked	5	1	400	0	300	300	0	0	482	50	0	1	0	0	0	1	blank2r.bmp	0	1	+	0	1	B1r.bmp	492	1	blank2r.bmp	786	1	CPLW	786	1	blank2r.bmp	866	4	träumen	866	1	!	1239	1	!	-1	0	0	0	0	0	0	0	0	0	0	0	0	0	0	0	0	0	0	0	0	0	0	0	0	0	0	0
121318	14:51:09	15:00:05	533588	5.0.10.0	4_exp_AWA_CON_EVA_AMP	15	Rpleas_acq	Oppo	Rpleas	Amasked	CS_A	1pleas	distractor2	CONbeforeEVA	acq_US_unple_masked	acq45_masked	5	2	400	1	300	300	0	0	391	46	0	1	0	0	0	1	blank2r.bmp	0	1	+	0	8	C4r.bmp	492	1	blank2r.bmp	786	1	DHJF	786	1	blank2r.bmp	866	2	gemein	866	1	!	1239	1	!	1292	0	0	0	0	0	0	0	0	0	0	0	0	0	0	0	0	0	0	0	0	0	0	0	0	0	0	0
121318	14:51:09	15:00:07	535788	5.0.10.0	4_exp_AWA_CON_EVA_AMP	15	Rpleas_acq	Oppo	Rpleas	Amasked	CS_A	1pleas	distractor2	CONbeforeEVA	acq_US_unple_masked	acq45_masked	5	3	400	1	300	300	0	0	387	50	0	0	0	0	0	1	blank2r.bmp	0	1	+	0	7	C3r.bmp	492	1	blank2r.bmp	786	1	DHJF	786	1	blank2r.bmp	866	4	töten	866	1	!	1239	1	!	1292	0	0	0	0	0	0	0	0	0	0	0	0	0	0	0	0	0	0	0	0	0	0	0	0	0	0	0
121318	14:51:09	15:00:10	538053	5.0.10.0	4_exp_AWA_CON_EVA_AMP	15	Rpleas_acq	Oppo	Rpleas	Amasked	CS_A	1pleas	distractor2	CONbeforeEVA	acq_US_pleas_masked	acq45_masked	5	4	400	0	300	300	0	0	484	50	0	1	0	0	0	1	blank2r.bmp	0	1	+	0	6	C2r.bmp	492	1	blank2r.bmp	786	1	CPLW	786	1	blank2r.bmp	866	2	genießen	866	1	!	1239	1	!	-1	0	0	0	0	0	0	0	0	0	0	0	0	0	0	0	0	0	0	0	0	0	0	0	0	0	0	0
121318	14:51:09	15:00:12	540399	5.0.10.0	4_exp_AWA_CON_EVA_AMP	15	Rpleas_acq	Oppo	Rpleas	Amasked	CS_A	1pleas	distractor2	CONbeforeEVA	acq_US_pleas_masked	acq45_masked	5	5	400	0	300	300	0	0	550	50	0	1	0	0	0	1	blank2r.bmp	0	1	+	0	2	B2r.bmp	492	1	blank2r.bmp	786	1	CPLW	786	1	blank2r.bmp	866	5	anregung	866	1	!	1239	1	!	-1	0	0	0	0	0	0	0	0	0	0	0	0	0	0	0	0	0	0	0	0	0	0	0	0	0	0	0
121318	14:51:09	15:00:14	542665	5.0.10.0	4_exp_AWA_CON_EVA_AMP	15	Rpleas_acq	Oppo	Rpleas	Amasked	CS_A	1pleas	distractor2	CONbeforeEVA	acq_US_unple_masked	acq45_masked	5	6	400	0	300	300	0	0	479	46	0	1	0	0	0	1	blank2r.bmp	0	1	+	0	4	B4r.bmp	492	1	blank2r.bmp	786	1	DHJF	786	1	blank2r.bmp	866	6	geizig	866	1	!	1239	1	!	-1	0	0	0	0	0	0	0	0	0	0	0	0	0	0	0	0	0	0	0	0	0	0	0	0	0	0	0
121318	14:51:09	15:00:16	544864	5.0.10.0	4_exp_AWA_CON_EVA_AMP	15	Rpleas_acq	Oppo	Rpleas	Amasked	CS_A	1pleas	distractor2	CONbeforeEVA	acq_US_unple_masked	acq45_masked	5	7	400	1	300	300	0	0	385	46	0	1	0	0	0	1	blank2r.bmp	0	1	+	0	5	C1r.bmp	492	1	blank2r.bmp	786	1	DHJF	786	1	blank2r.bmp	866	3	sterben	866	1	!	1239	1	!	1292	0	0	0	0	0	0	0	0	0	0	0	0	0	0	0	0	0	0	0	0	0	0	0	0	0	0	0
121318	14:51:09	15:00:19	547103	5.0.10.0	4_exp_AWA_CON_EVA_AMP	15	Rpleas_acq	Oppo	Rpleas	Amasked	CS_A	1pleas	distractor2	CONbeforeEVA	acq_US_pleas_masked	acq45_masked	5	8	400	1	300	300	0	0	446	50	0	1	0	0	0	1	blank2r.bmp	0	1	+	0	3	B3r.bmp	492	1	blank2r.bmp	786	1	CPLW	786	1	blank2r.bmp	866	3	sonnig	866	1	!	1239	1	!	1346	0	0	0	0	0	0	0	0	0	0	0	0	0	0	0	0	0	0	0	0	0	0	0	0	0	0	0
121318	14:51:09	15:00:21	549329	5.0.10.0	4_exp_AWA_CON_EVA_AMP	15	Rpleas_acq	Oppo	Rpleas	Amasked	CS_A	1pleas	distractor2	CONbeforeEVA	acq_US_unple_masked	acq45_masked	5	9	400	1	300	300	0	0	436	46	0	1	0	0	0	1	blank2r.bmp	0	1	+	0	7	C3r.bmp	492	1	blank2r.bmp	786	1	DHJF	786	1	blank2r.bmp	866	1	versagen	866	1	!	1239	1	!	1332	0	0	0	0	0	0	0	0	0	0	0	0	0	0	0	0	0	0	0	0	0	0	0	0	0	0	0
121318	14:51:09	15:00:23	551514	5.0.10.0	4_exp_AWA_CON_EVA_AMP	15	Rpleas_acq	Oppo	Rpleas	Amasked	CS_A	1pleas	distractor2	CONbeforeEVA	acq_US_pleas_masked	acq45_masked	5	10	400	1	300	300	0	0	380	46	0	0	0	0	0	1	blank2r.bmp	0	1	+	0	5	C1r.bmp	492	1	blank2r.bmp	786	1	CPLW	786	1	blank2r.bmp	866	1	vertrauen	866	1	!	1239	1	!	1279	0	0	0	0	0	0	0	0	0	0	0	0	0	0	0	0	0	0	0	0	0	0	0	0	0	0	0
121318	14:51:09	15:00:25	553887	5.0.10.0	4_exp_AWA_CON_EVA_AMP	15	Rpleas_acq	Oppo	Rpleas	Amasked	CS_A	1pleas	distractor2	CONbeforeEVA	acq_US_pleas_masked	acq45_masked	5	11	400	0	300	300	0	0	606	50	0	1	0	0	0	1	blank2r.bmp	0	1	+	0	1	B1r.bmp	492	1	blank2r.bmp	786	1	CPLW	786	1	blank2r.bmp	866	6	gesittet	866	1	!	1239	1	!	-1	0	0	0	0	0	0	0	0	0	0	0	0	0	0	0	0	0	0	0	0	0	0	0	0	0	0	0
121318	14:51:09	15:00:28	556152	5.0.10.0	4_exp_AWA_CON_EVA_AMP	15	Rpleas_acq	Oppo	Rpleas	Amasked	CS_A	1pleas	distractor2	CONbeforeEVA	acq_US_unple_masked	acq45_masked	5	12	400	1	300	300	0	0	449	46	0	1	0	0	0	1	blank2r.bmp	0	1	+	0	4	B4r.bmp	492	1	blank2r.bmp	786	1	DHJF	786	1	blank2r.bmp	866	5	ausrottung	866	1	!	1239	1	!	1346	0	0	0	0	0	0	0	0	0	0	0	0	0	0	0	0	0	0	0	0	0	0	0	0	0	0	0
121318	14:51:09	15:00:30	558311	5.0.10.0	4_exp_AWA_CON_EVA_AMP	15	Rpleas_acq	Oppo	Rpleas	Amasked	CS_A	1pleas	distractor2	CONbeforeEVA	acq_US_unple_masked	acq45_masked	5	13	400	1	300	300	0	0	365	50	0	0	0	0	0	1	blank2r.bmp	0	1	+	0	2	B2r.bmp	492	1	blank2r.bmp	786	1	DHJF	786	1	blank2r.bmp	866	4	töten	866	1	!	1239	1	!	1266	0	0	0	0	0	0	0	0	0	0	0	0	0	0	0	0	0	0	0	0	0	0	0	0	0	0	0
121318	14:51:09	15:00:32	560510	5.0.10.0	4_exp_AWA_CON_EVA_AMP	15	Rpleas_acq	Oppo	Rpleas	Amasked	CS_A	1pleas	distractor2	CONbeforeEVA	acq_US_pleas_masked	acq45_masked	5	14	400	1	300	300	0	0	399	50	0	1	0	0	0	1	blank2r.bmp	0	1	+	0	6	C2r.bmp	492	1	blank2r.bmp	786	1	CPLW	786	1	blank2r.bmp	866	2	genießen	866	1	!	1239	1	!	1306	0	0	0	0	0	0	0	0	0	0	0	0	0	0	0	0	0	0	0	0	0	0	0	0	0	0	0
121318	14:51:09	15:00:34	562710	5.0.10.0	4_exp_AWA_CON_EVA_AMP	15	Rpleas_acq	Oppo	Rpleas	Amasked	CS_A	1pleas	distractor2	CONbeforeEVA	acq_US_unple_masked	acq45_masked	5	15	400	1	300	300	0	0	400	46	0	1	0	0	0	1	blank2r.bmp	0	1	+	0	3	B3r.bmp	492	1	blank2r.bmp	786	1	DHJF	786	1	blank2r.bmp	866	3	sterben	866	1	!	1239	1	!	1306	0	0	0	0	0	0	0	0	0	0	0	0	0	0	0	0	0	0	0	0	0	0	0	0	0	0	0
121318	14:51:09	15:00:36	564922	5.0.10.0	4_exp_AWA_CON_EVA_AMP	15	Rpleas_acq	Oppo	Rpleas	Amasked	CS_A	1pleas	distractor2	CONbeforeEVA	acq_US_pleas_masked	acq45_masked	5	16	400	1	300	300	0	0	419	50	0	1	0	0	0	1	blank2r.bmp	0	1	+	0	8	C4r.bmp	492	1	blank2r.bmp	786	1	CPLW	786	1	blank2r.bmp	866	4	träumen	866	1	!	1239	1	!	1319	0	0	0	0	0	0	0	0	0	0	0	0	0	0	0	0	0	0	0	0	0	0	0	0	0	0	0
121318	14:51:09	15:00:39	567121	5.0.10.0	4_exp_AWA_CON_EVA_AMP	15	Rpleas_acq	Oppo	Rpleas	Amasked	CS_A	1pleas	distractor2	CONbeforeEVA	acq_US_unple_masked	acq45_masked	5	17	400	1	300	300	0	0	411	46	0	1	0	0	0	1	blank2r.bmp	0	1	+	0	2	B2r.bmp	492	1	blank2r.bmp	786	1	DHJF	786	1	blank2r.bmp	866	1	versagen	866	1	!	1239	1	!	1306	0	0	0	0	0	0	0	0	0	0	0	0	0	0	0	0	0	0	0	0	0	0	0	0	0	0	0
121318	14:51:09	15:00:41	569360	5.0.10.0	4_exp_AWA_CON_EVA_AMP	15	Rpleas_acq	Oppo	Rpleas	Amasked	CS_A	1pleas	distractor2	CONbeforeEVA	acq_US_pleas_masked	acq45_masked	5	18	400	1	300	300	0	0	441	50	0	1	0	0	0	1	blank2r.bmp	0	1	+	0	8	C4r.bmp	492	1	blank2r.bmp	786	1	CPLW	786	1	blank2r.bmp	866	3	sonnig	866	1	!	1239	1	!	1346	0	0	0	0	0	0	0	0	0	0	0	0	0	0	0	0	0	0	0	0	0	0	0	0	0	0	0
121318	14:51:09	15:00:43	571533	5.0.10.0	4_exp_AWA_CON_EVA_AMP	15	Rpleas_acq	Oppo	Rpleas	Amasked	CS_A	1pleas	distractor2	CONbeforeEVA	acq_US_pleas_masked	acq45_masked	5	19	400	1	300	300	0	0	377	46	0	0	0	0	0	1	blank2r.bmp	0	1	+	0	4	B4r.bmp	492	1	blank2r.bmp	786	1	CPLW	786	1	blank2r.bmp	866	6	gesittet	866	1	!	1239	1	!	1279	0	0	0	0	0	0	0	0	0	0	0	0	0	0	0	0	0	0	0	0	0	0	0	0	0	0	0
121318	14:51:09	15:00:45	573745	5.0.10.0	4_exp_AWA_CON_EVA_AMP	15	Rpleas_acq	Oppo	Rpleas	Amasked	CS_A	1pleas	distractor2	CONbeforeEVA	acq_US_pleas_masked	acq45_masked	5	20	400	1	300	300	0	0	415	46	0	0	0	0	0	1	blank2r.bmp	0	1	+	0	3	B3r.bmp	492	1	blank2r.bmp	786	1	CPLW	786	1	blank2r.bmp	866	1	vertrauen	866	1	!	1239	1	!	1319	0	0	0	0	0	0	0	0	0	0	0	0	0	0	0	0	0	0	0	0	0	0	0	0	0	0	0
121318	14:51:09	15:00:48	575997	5.0.10.0	4_exp_AWA_CON_EVA_AMP	15	Rpleas_acq	Oppo	Rpleas	Amasked	CS_A	1pleas	distractor2	CONbeforeEVA	acq_US_pleas_masked	acq45_masked	5	21	400	0	300	300	0	0	490	50	0	1	0	0	0	1	blank2r.bmp	0	1	+	0	5	C1r.bmp	492	1	blank2r.bmp	786	1	CPLW	786	1	blank2r.bmp	866	5	anregung	866	1	!	1239	1	!	-1	0	0	0	0	0	0	0	0	0	0	0	0	0	0	0	0	0	0	0	0	0	0	0	0	0	0	0
121318	14:51:09	15:00:50	578196	5.0.10.0	4_exp_AWA_CON_EVA_AMP	15	Rpleas_acq	Oppo	Rpleas	Amasked	CS_A	1pleas	distractor2	CONbeforeEVA	acq_US_pleas_masked	acq45_masked	5	22	400	1	300	300	0	0	389	50	0	1	0	0	0	1	blank2r.bmp	0	1	+	0	6	C2r.bmp	492	1	blank2r.bmp	786	1	CPLW	786	1	blank2r.bmp	866	2	genießen	866	1	!	1239	1	!	1292	0	0	0	0	0	0	0	0	0	0	0	0	0	0	0	0	0	0	0	0	0	0	0	0	0	0	0
121318	14:51:09	15:00:52	580435	5.0.10.0	4_exp_AWA_CON_EVA_AMP	15	Rpleas_acq	Oppo	Rpleas	Amasked	CS_A	1pleas	distractor2	CONbeforeEVA	acq_US_unple_masked	acq45_masked	5	23	400	1	300	300	0	0	443	46	0	1	0	0	0	1	blank2r.bmp	0	1	+	0	1	B1r.bmp	492	1	blank2r.bmp	786	1	DHJF	786	1	blank2r.bmp	866	6	geizig	866	1	!	1239	1	!	1346	0	0	0	0	0	0	0	0	0	0	0	0	0	0	0	0	0	0	0	0	0	0	0	0	0	0	0
121318	14:51:09	15:00:54	582701	5.0.10.0	4_exp_AWA_CON_EVA_AMP	15	Rpleas_acq	Oppo	Rpleas	Amasked	CS_A	1pleas	distractor2	CONbeforeEVA	acq_US_unple_masked	acq45_masked	5	24	400	0	300	300	0	0	491	46	0	1	0	0	0	1	blank2r.bmp	0	1	+	0	7	C3r.bmp	492	1	blank2r.bmp	786	1	DHJF	786	1	blank2r.bmp	866	2	gemein	866	1	!	1239	1	!	-1	0	0	0	0	0	0	0	0	0	0	0	0	0	0	0	0	0	0	0	0	0	0	0	0	0	0	0
121318	14:51:09	15:00:57	584940	5.0.10.0	4_exp_AWA_CON_EVA_AMP	15	Rpleas_acq	Oppo	Rpleas	Amasked	CS_A	1pleas	distractor2	CONbeforeEVA	acq_US_unple_masked	acq45_masked	5	25	400	1	300	300	0	0	426	46	0	1	0	0	0	1	blank2r.bmp	0	1	+	0	4	B4r.bmp	492	1	blank2r.bmp	786	1	DHJF	786	1	blank2r.bmp	866	5	ausrottung	866	1	!	1239	1	!	1332	0	0	0	0	0	0	0	0	0	0	0	0	0	0	0	0	0	0	0	0	0	0	0	0	0	0	0
121318	14:51:09	15:00:59	587139	5.0.10.0	4_exp_AWA_CON_EVA_AMP	15	Rpleas_acq	Oppo	Rpleas	Amasked	CS_A	1pleas	distractor2	CONbeforeEVA	acq_US_unple_masked	acq45_masked	5	26	400	1	300	300	0	0	402	46	0	1	0	0	0	1	blank2r.bmp	0	1	+	0	3	B3r.bmp	492	1	blank2r.bmp	786	1	DHJF	786	1	blank2r.bmp	866	5	ausrottung	866	1	!	1239	1	!	1306	0	0	0	0	0	0	0	0	0	0	0	0	0	0	0	0	0	0	0	0	0	0	0	0	0	0	0
121318	14:51:09	15:01:01	589365	5.0.10.0	4_exp_AWA_CON_EVA_AMP	15	Rpleas_acq	Oppo	Rpleas	Amasked	CS_A	1pleas	distractor2	CONbeforeEVA	acq_US_unple_masked	acq45_masked	5	27	400	1	300	300	0	0	428	50	0	0	0	0	0	1	blank2r.bmp	0	1	+	0	6	C2r.bmp	492	1	blank2r.bmp	786	1	DHJF	786	1	blank2r.bmp	866	6	geizig	866	1	!	1239	1	!	1332	0	0	0	0	0	0	0	0	0	0	0	0	0	0	0	0	0	0	0	0	0	0	0	0	0	0	0
121318	14:51:09	15:01:03	591577	5.0.10.0	4_exp_AWA_CON_EVA_AMP	15	Rpleas_acq	Oppo	Rpleas	Amasked	CS_A	1pleas	distractor2	CONbeforeEVA	acq_US_pleas_masked	acq45_masked	5	28	400	1	300	300	0	0	413	50	0	1	0	0	0	1	blank2r.bmp	0	1	+	0	2	B2r.bmp	492	1	blank2r.bmp	786	1	CPLW	786	1	blank2r.bmp	866	4	träumen	866	1	!	1239	1	!	1319	0	0	0	0	0	0	0	0	0	0	0	0	0	0	0	0	0	0	0	0	0	0	0	0	0	0	0
121318	14:51:09	15:01:05	593830	5.0.10.0	4_exp_AWA_CON_EVA_AMP	15	Rpleas_acq	Oppo	Rpleas	Amasked	CS_A	1pleas	distractor2	CONbeforeEVA	acq_US_pleas_masked	acq45_masked	5	29	400	0	300	300	0	0	489	50	0	1	0	0	0	1	blank2r.bmp	0	1	+	0	8	C4r.bmp	492	1	blank2r.bmp	786	1	CPLW	786	1	blank2r.bmp	866	5	anregung	866	1	!	1239	1	!	-1	0	0	0	0	0	0	0	0	0	0	0	0	0	0	0	0	0	0	0	0	0	0	0	0	0	0	0
121318	14:51:09	15:01:08	596056	5.0.10.0	4_exp_AWA_CON_EVA_AMP	15	Rpleas_acq	Oppo	Rpleas	Amasked	CS_A	1pleas	distractor2	CONbeforeEVA	acq_US_unple_masked	acq45_masked	5	30	400	1	300	300	0	0	416	46	0	1	0	0	0	1	blank2r.bmp	0	1	+	0	5	C1r.bmp	492	1	blank2r.bmp	786	1	DHJF	786	1	blank2r.bmp	866	1	versagen	866	1	!	1239	1	!	1319	0	0	0	0	0	0	0	0	0	0	0	0	0	0	0	0	0	0	0	0	0	0	0	0	0	0	0
121318	14:51:09	15:01:10	598308	5.0.10.0	4_exp_AWA_CON_EVA_AMP	15	Rpleas_acq	Oppo	Rpleas	Amasked	CS_A	1pleas	distractor2	CONbeforeEVA	acq_US_unple_masked	acq45_masked	5	31	400	1	300	300	0	0	454	46	0	1	0	0	0	1	blank2r.bmp	0	1	+	0	7	C3r.bmp	492	1	blank2r.bmp	786	1	DHJF	786	1	blank2r.bmp	866	3	sterben	866	1	!	1239	1	!	1359	0	0	0	0	0	0	0	0	0	0	0	0	0	0	0	0	0	0	0	0	0	0	0	0	0	0	0
121318	14:51:09	15:01:12	600400	5.0.10.0	4_exp_AWA_CON_EVA_AMP	15	Rpleas_acq	Oppo	Rpleas	Amasked	CS_A	1pleas	distractor2	CONbeforeEVA	acq_US_pleas_masked	acq45_masked	5	32	400	0	300	300	0	0	329	50	0	1	0	0	0	1	blank2r.bmp	0	1	+	0	1	B1r.bmp	492	1	blank2r.bmp	786	1	CPLW	786	1	blank2r.bmp	866	3	sonnig	866	1	!	-1	1	!	-1	0	0	0	0	0	0	0	0	0	0	0	0	0	0	0	0	0	0	0	0	0	0	0	0	0	0	0
121318	14:51:09	15:01:14	602613	5.0.10.0	4_exp_AWA_CON_EVA_AMP	15	Rpleas_acq	Oppo	Rpleas	Amasked	CS_A	1pleas	distractor2	CONbeforeEVA	acq_US_unple_masked	acq45_masked	5	33	400	1	300	300	0	0	404	46	0	1	0	0	0	1	blank2r.bmp	0	1	+	0	3	B3r.bmp	492	1	blank2r.bmp	786	1	DHJF	786	1	blank2r.bmp	866	4	töten	866	1	!	1239	1	!	1306	0	0	0	0	0	0	0	0	0	0	0	0	0	0	0	0	0	0	0	0	0	0	0	0	0	0	0
121318	14:51:09	15:01:16	604852	5.0.10.0	4_exp_AWA_CON_EVA_AMP	15	Rpleas_acq	Oppo	Rpleas	Amasked	CS_A	1pleas	distractor2	CONbeforeEVA	acq_US_pleas_masked	acq45_masked	5	34	400	1	300	300	0	0	448	46	0	0	0	0	0	1	blank2r.bmp	0	1	+	0	1	B1r.bmp	492	1	blank2r.bmp	786	1	CPLW	786	1	blank2r.bmp	866	6	gesittet	866	1	!	1239	1	!	1346	0	0	0	0	0	0	0	0	0	0	0	0	0	0	0	0	0	0	0	0	0	0	0	0	0	0	0
121318	14:51:09	15:01:19	607104	5.0.10.0	4_exp_AWA_CON_EVA_AMP	15	Rpleas_acq	Oppo	Rpleas	Amasked	CS_A	1pleas	distractor2	CONbeforeEVA	acq_US_unple_masked	acq45_masked	5	35	400	0	300	300	0	0	479	46	0	1	0	0	0	1	blank2r.bmp	0	1	+	0	7	C3r.bmp	492	1	blank2r.bmp	786	1	DHJF	786	1	blank2r.bmp	866	2	gemein	866	1	!	1239	1	!	-1	0	0	0	0	0	0	0	0	0	0	0	0	0	0	0	0	0	0	0	0	0	0	0	0	0	0	0
121318	14:51:09	15:01:21	609343	5.0.10.0	4_exp_AWA_CON_EVA_AMP	15	Rpleas_acq	Oppo	Rpleas	Amasked	CS_A	1pleas	distractor2	CONbeforeEVA	acq_US_pleas_masked	acq45_masked	5	36	400	1	300	300	0	0	428	46	0	0	0	0	0	1	blank2r.bmp	0	1	+	0	8	C4r.bmp	492	1	blank2r.bmp	786	1	CPLW	786	1	blank2r.bmp	866	1	vertrauen	866	1	!	1239	1	!	1332	0	0	0	0	0	0	0	0	0	0	0	0	0	0	0	0	0	0	0	0	0	0	0	0	0	0	0
121318	14:51:09	15:02:47	695934	5.0.10.0	4_exp_AWA_CON_EVA_AMP	15	Rpleas_acq	Oppo	Lpleas	Amasked	CS_A	1pleas	distractor2	CONbeforeEVA	cond_US_unple_123_masked_CS2	condtest_masked_1	8	1	400	1	300	300	0	0	409	50	0	1	0	0	0	1	blank2r.bmp	0	1	+	0	2	B2r.bmp	492	1	blank2r.bmp	786	1	DHJF	786	1	blank2r.bmp	866	2	gemein	866	1	!	1239	1	!	1306	0	0	0	0	0	0	0	0	0	0	0	0	0	0	0	0	0	0	0	0	0	0	0	0	0	0	0
121318	14:51:09	15:02:50	698119	5.0.10.0	4_exp_AWA_CON_EVA_AMP	15	Rpleas_acq	Oppo	Lpleas	Amasked	CS_A	1pleas	distractor2	CONbeforeEVA	cond_new_pleas_456_masked_CS2	condtest_masked_1	8	2	400	1	300	300	0	0	387	50	0	0	0	0	0	1	blank2r.bmp	0	1	+	0	5	C1r.bmp	492	1	blank2r.bmp	786	1	DHJF	786	1	blank2r.bmp	866	2	kreativ	866	1	!	1239	1	!	1292	0	0	0	0	0	0	0	0	0	0	0	0	0	0	0	0	0	0	0	0	0	0	0	0	0	0	0
121318	14:51:09	15:02:52	700358	5.0.10.0	4_exp_AWA_CON_EVA_AMP	15	Rpleas_acq	Oppo	Lpleas	Amasked	CS_A	1pleas	distractor2	CONbeforeEVA	cond_new_pleas_456_masked_CS1	condtest_masked_1	8	3	400	1	300	300	0	0	438	50	0	0	0	0	0	1	blank2r.bmp	0	1	+	0	6	C2r.bmp	492	1	blank2r.bmp	786	1	CPLW	786	1	blank2r.bmp	866	3	kuss	866	1	!	1239	1	!	1332	0	0	0	0	0	0	0	0	0	0	0	0	0	0	0	0	0	0	0	0	0	0	0	0	0	0	0
121318	14:51:09	15:02:54	702611	5.0.10.0	4_exp_AWA_CON_EVA_AMP	15	Rpleas_acq	Oppo	Lpleas	Amasked	CS_A	1pleas	distractor2	CONbeforeEVA	cond_new_unple_456_masked_CS2	condtest_masked_1	8	4	400	1	300	300	0	0	463	50	0	1	0	0	0	1	blank2r.bmp	0	1	+	0	4	B4r.bmp	492	1	blank2r.bmp	786	1	DHJF	786	1	blank2r.bmp	866	2	krank	866	1	!	1239	1	!	1359	0	0	0	0	0	0	0	0	0	0	0	0	0	0	0	0	0	0	0	0	0	0	0	0	0	0	0
121318	14:51:09	15:02:56	704890	5.0.10.0	4_exp_AWA_CON_EVA_AMP	15	Rpleas_acq	Oppo	Lpleas	Amasked	CS_A	1pleas	distractor2	CONbeforeEVA	cond_new_unple_456_masked_CS1	condtest_masked_1	8	5	400	0	300	300	0	0	507	46	0	0	0	0	0	1	blank2r.bmp	0	1	+	0	6	C2r.bmp	492	1	blank2r.bmp	786	1	CPLW	786	1	blank2r.bmp	866	1	verbissen	866	1	!	1239	1	!	-1	0	0	0	0	0	0	0	0	0	0	0	0	0	0	0	0	0	0	0	0	0	0	0	0	0	0	0
121318	14:51:09	15:02:59	707116	5.0.10.0	4_exp_AWA_CON_EVA_AMP	15	Rpleas_acq	Oppo	Lpleas	Amasked	CS_A	1pleas	distractor2	CONbeforeEVA	cond_US_unple_123_masked_CS1	condtest_masked_1	8	6	400	1	300	300	0	0	416	50	0	1	0	0	0	1	blank2r.bmp	0	1	+	0	8	C4r.bmp	492	1	blank2r.bmp	786	1	CPLW	786	1	blank2r.bmp	866	3	sterben	866	1	!	1239	1	!	1319	0	0	0	0	0	0	0	0	0	0	0	0	0	0	0	0	0	0	0	0	0	0	0	0	0	0	0
121318	14:51:09	15:03:01	709381	5.0.10.0	4_exp_AWA_CON_EVA_AMP	15	Rpleas_acq	Oppo	Lpleas	Amasked	CS_A	1pleas	distractor2	CONbeforeEVA	cond_US_pleas_123_masked_CS2	condtest_masked_1	8	7	400	0	300	300	0	0	503	46	0	1	0	0	0	1	blank2r.bmp	0	1	+	0	1	B1r.bmp	492	1	blank2r.bmp	786	1	DHJF	786	1	blank2r.bmp	866	1	vertrauen	866	1	!	1239	1	!	-1	0	0	0	0	0	0	0	0	0	0	0	0	0	0	0	0	0	0	0	0	0	0	0	0	0	0	0
121318	14:51:09	15:03:03	711700	5.0.10.0	4_exp_AWA_CON_EVA_AMP	15	Rpleas_acq	Oppo	Lpleas	Amasked	CS_A	1pleas	distractor2	CONbeforeEVA	cond_US_pleas_123_masked_CS1	condtest_masked_1	8	8	400	0	300	300	0	0	537	46	0	1	0	0	0	1	blank2r.bmp	0	1	+	0	3	B3r.bmp	492	1	blank2r.bmp	786	1	CPLW	786	1	blank2r.bmp	866	2	genießen	866	1	!	1239	1	!	-1	0	0	0	0	0	0	0	0	0	0	0	0	0	0	0	0	0	0	0	0	0	0	0	0	0	0	0
121318	14:51:09	15:03:19	727547	5.0.10.0	4_exp_AWA_CON_EVA_AMP	15	Rpleas_acq	Oppo	Lpleas	Amasked	CS_A	1pleas	distractor2	CONbeforeEVA	cond_new_unple_456_masked_CS1	condtest_masked_2	9	1	400	0	300	300	0	0	549	50	0	1	0	0	0	1	blank2r.bmp	0	1	+	0	7	C3r.bmp	492	1	blank2r.bmp	786	1	CPLW	786	1	blank2r.bmp	866	3	krise	866	1	!	1239	1	!	-1	0	0	0	0	0	0	0	0	0	0	0	0	0	0	0	0	0	0	0	0	0	0	0	0	0	0	0
121318	14:51:09	15:03:21	729813	5.0.10.0	4_exp_AWA_CON_EVA_AMP	15	Rpleas_acq	Oppo	Lpleas	Amasked	CS_A	1pleas	distractor2	CONbeforeEVA	cond_new_pleas_456_masked_CS1	condtest_masked_2	9	2	400	0	300	300	0	0	479	46	0	1	0	0	0	1	blank2r.bmp	0	1	+	0	5	C1r.bmp	492	1	blank2r.bmp	786	1	CPLW	786	1	blank2r.bmp	866	1	vergnügt	866	1	!	1239	1	!	-1	0	0	0	0	0	0	0	0	0	0	0	0	0	0	0	0	0	0	0	0	0	0	0	0	0	0	0
121318	14:51:09	15:03:24	732025	5.0.10.0	4_exp_AWA_CON_EVA_AMP	15	Rpleas_acq	Oppo	Lpleas	Amasked	CS_A	1pleas	distractor2	CONbeforeEVA	cond_new_pleas_456_masked_CS2	condtest_masked_2	9	3	400	1	300	300	0	0	405	50	0	0	0	0	0	1	blank2r.bmp	0	1	+	0	4	B4r.bmp	492	1	blank2r.bmp	786	1	DHJF	786	1	blank2r.bmp	866	2	kreativ	866	1	!	1239	1	!	1306	0	0	0	0	0	0	0	0	0	0	0	0	0	0	0	0	0	0	0	0	0	0	0	0	0	0	0
121318	14:51:09	15:03:26	734291	5.0.10.0	4_exp_AWA_CON_EVA_AMP	15	Rpleas_acq	Oppo	Lpleas	Amasked	CS_A	1pleas	distractor2	CONbeforeEVA	cond_US_unple_123_masked_CS2	condtest_masked_2	9	4	400	0	300	300	0	0	497	46	0	0	0	0	0	1	blank2r.bmp	0	1	+	0	2	B2r.bmp	492	1	blank2r.bmp	786	1	DHJF	786	1	blank2r.bmp	866	1	versagen	866	1	!	1239	1	!	-1	0	0	0	0	0	0	0	0	0	0	0	0	0	0	0	0	0	0	0	0	0	0	0	0	0	0	0
121318	14:51:09	15:03:28	736543	5.0.10.0	4_exp_AWA_CON_EVA_AMP	15	Rpleas_acq	Oppo	Lpleas	Amasked	CS_A	1pleas	distractor2	CONbeforeEVA	cond_US_pleas_123_masked_CS2	condtest_masked_2	9	5	400	1	300	300	0	0	451	46	0	1	0	0	0	1	blank2r.bmp	0	1	+	0	3	B3r.bmp	492	1	blank2r.bmp	786	1	DHJF	786	1	blank2r.bmp	866	3	sonnig	866	1	!	1239	1	!	1346	0	0	0	0	0	0	0	0	0	0	0	0	0	0	0	0	0	0	0	0	0	0	0	0	0	0	0
121318	14:51:09	15:03:30	738769	5.0.10.0	4_exp_AWA_CON_EVA_AMP	15	Rpleas_acq	Oppo	Lpleas	Amasked	CS_A	1pleas	distractor2	CONbeforeEVA	cond_new_unple_456_masked_CS1	condtest_masked_2	9	6	400	1	300	300	0	0	415	50	0	1	0	0	0	1	blank2r.bmp	0	1	+	0	1	B1r.bmp	492	1	blank2r.bmp	786	1	CPLW	786	1	blank2r.bmp	866	3	krise	866	1	!	1239	1	!	1319	0	0	0	0	0	0	0	0	0	0	0	0	0	0	0	0	0	0	0	0	0	0	0	0	0	0	0
121318	14:51:09	15:03:33	740941	5.0.10.0	4_exp_AWA_CON_EVA_AMP	15	Rpleas_acq	Oppo	Lpleas	Amasked	CS_A	1pleas	distractor2	CONbeforeEVA	cond_US_pleas_123_masked_CS1	condtest_masked_2	9	7	400	1	300	300	0	0	376	46	0	1	0	0	0	1	blank2r.bmp	0	1	+	0	5	C1r.bmp	492	1	blank2r.bmp	786	1	CPLW	786	1	blank2r.bmp	866	3	sonnig	866	1	!	1239	1	!	1279	0	0	0	0	0	0	0	0	0	0	0	0	0	0	0	0	0	0	0	0	0	0	0	0	0	0	0
121318	14:51:09	15:03:35	743100	5.0.10.0	4_exp_AWA_CON_EVA_AMP	15	Rpleas_acq	Oppo	Lpleas	Amasked	CS_A	1pleas	distractor2	CONbeforeEVA	cond_new_pleas_456_masked_CS2	condtest_masked_2	9	8	400	1	300	300	0	0	346	50	0	0	0	0	0	1	blank2r.bmp	0	1	+	0	7	C3r.bmp	492	1	blank2r.bmp	786	1	DHJF	786	1	blank2r.bmp	866	1	vergnügt	866	1	!	1239	1	!	1252	0	0	0	0	0	0	0	0	0	0	0	0	0	0	0	0	0	0	0	0	0	0	0	0	0	0	0
121318	14:51:09	15:03:37	745286	5.0.10.0	4_exp_AWA_CON_EVA_AMP	15	Rpleas_acq	Oppo	Lpleas	Amasked	CS_A	1pleas	distractor2	CONbeforeEVA	cond_US_unple_123_masked_CS2	condtest_masked_2	9	9	400	1	300	300	0	0	388	50	0	1	0	0	0	1	blank2r.bmp	0	1	+	0	8	C4r.bmp	492	1	blank2r.bmp	786	1	DHJF	786	1	blank2r.bmp	866	2	gemein	866	1	!	1239	1	!	1292	0	0	0	0	0	0	0	0	0	0	0	0	0	0	0	0	0	0	0	0	0	0	0	0	0	0	0
121318	14:51:09	15:03:39	747472	5.0.10.0	4_exp_AWA_CON_EVA_AMP	15	Rpleas_acq	Oppo	Lpleas	Amasked	CS_A	1pleas	distractor2	CONbeforeEVA	cond_US_unple_123_masked_CS2	condtest_masked_2	9	10	400	1	300	300	0	0	398	46	0	0	0	0	0	1	blank2r.bmp	0	1	+	0	6	C2r.bmp	492	1	blank2r.bmp	786	1	DHJF	786	1	blank2r.bmp	866	1	versagen	866	1	!	1239	1	!	1292	0	0	0	0	0	0	0	0	0	0	0	0	0	0	0	0	0	0	0	0	0	0	0	0	0	0	0
121318	14:51:09	15:03:41	749724	5.0.10.0	4_exp_AWA_CON_EVA_AMP	15	Rpleas_acq	Oppo	Lpleas	Amasked	CS_A	1pleas	distractor2	CONbeforeEVA	cond_new_unple_456_masked_CS1	condtest_masked_2	9	11	400	0	300	300	0	0	479	50	0	1	0	0	0	1	blank2r.bmp	0	1	+	0	2	B2r.bmp	492	1	blank2r.bmp	786	1	CPLW	786	1	blank2r.bmp	866	1	verbissen	866	1	!	1239	1	!	-1	0	0	0	0	0	0	0	0	0	0	0	0	0	0	0	0	0	0	0	0	0	0	0	0	0	0	0
121318	14:51:09	15:03:44	752003	5.0.10.0	4_exp_AWA_CON_EVA_AMP	15	Rpleas_acq	Oppo	Lpleas	Amasked	CS_A	1pleas	distractor2	CONbeforeEVA	cond_new_unple_456_masked_CS2	condtest_masked_2	9	12	400	1	300	300	0	0	465	50	0	1	0	0	0	1	blank2r.bmp	0	1	+	0	4	B4r.bmp	492	1	blank2r.bmp	786	1	DHJF	786	1	blank2r.bmp	866	2	krank	866	1	!	1239	1	!	1372	0	0	0	0	0	0	0	0	0	0	0	0	0	0	0	0	0	0	0	0	0	0	0	0	0	0	0
121318	14:51:09	15:03:46	754282	5.0.10.0	4_exp_AWA_CON_EVA_AMP	15	Rpleas_acq	Oppo	Lpleas	Amasked	CS_A	1pleas	distractor2	CONbeforeEVA	cond_new_unple_456_masked_CS2	condtest_masked_2	9	13	400	0	300	300	0	0	501	50	0	1	0	0	0	1	blank2r.bmp	0	1	+	0	3	B3r.bmp	492	1	blank2r.bmp	786	1	DHJF	786	1	blank2r.bmp	866	1	verbissen	866	1	!	1239	1	!	-1	0	0	0	0	0	0	0	0	0	0	0	0	0	0	0	0	0	0	0	0	0	0	0	0	0	0	0
121318	14:51:09	15:03:48	756521	5.0.10.0	4_exp_AWA_CON_EVA_AMP	15	Rpleas_acq	Oppo	Lpleas	Amasked	CS_A	1pleas	distractor2	CONbeforeEVA	cond_US_pleas_123_masked_CS1	condtest_masked_2	9	14	400	1	300	300	0	0	424	50	0	0	0	0	0	1	blank2r.bmp	0	1	+	0	4	B4r.bmp	492	1	blank2r.bmp	786	1	CPLW	786	1	blank2r.bmp	866	1	vertrauen	866	1	!	1239	1	!	1319	0	0	0	0	0	0	0	0	0	0	0	0	0	0	0	0	0	0	0	0	0	0	0	0	0	0	0
121318	14:51:09	15:03:50	758827	5.0.10.0	4_exp_AWA_CON_EVA_AMP	15	Rpleas_acq	Oppo	Lpleas	Amasked	CS_A	1pleas	distractor2	CONbeforeEVA	cond_US_unple_123_masked_CS1	condtest_masked_2	9	15	400	0	300	300	0	0	537	50	0	1	0	0	0	1	blank2r.bmp	0	1	+	0	6	C2r.bmp	492	1	blank2r.bmp	786	1	CPLW	786	1	blank2r.bmp	866	3	sterben	866	1	!	1239	1	!	-1	0	0	0	0	0	0	0	0	0	0	0	0	0	0	0	0	0	0	0	0	0	0	0	0	0	0	0
121318	14:51:09	15:03:53	761040	5.0.10.0	4_exp_AWA_CON_EVA_AMP	15	Rpleas_acq	Oppo	Lpleas	Amasked	CS_A	1pleas	distractor2	CONbeforeEVA	cond_US_unple_123_masked_CS1	condtest_masked_2	9	16	400	1	300	300	0	0	405	50	0	1	0	0	0	1	blank2r.bmp	0	1	+	0	1	B1r.bmp	492	1	blank2r.bmp	786	1	CPLW	786	1	blank2r.bmp	866	3	sterben	866	1	!	1239	1	!	1306	0	0	0	0	0	0	0	0	0	0	0	0	0	0	0	0	0	0	0	0	0	0	0	0	0	0	0
121318	14:51:09	15:03:55	763239	5.0.10.0	4_exp_AWA_CON_EVA_AMP	15	Rpleas_acq	Oppo	Lpleas	Amasked	CS_A	1pleas	distractor2	CONbeforeEVA	cond_new_pleas_456_masked_CS2	condtest_masked_2	9	17	400	1	300	300	0	0	408	46	0	1	0	0	0	1	blank2r.bmp	0	1	+	0	8	C4r.bmp	492	1	blank2r.bmp	786	1	DHJF	786	1	blank2r.bmp	866	3	kuss	866	1	!	1239	1	!	1306	0	0	0	0	0	0	0	0	0	0	0	0	0	0	0	0	0	0	0	0	0	0	0	0	0	0	0
121318	14:51:09	15:03:57	765411	5.0.10.0	4_exp_AWA_CON_EVA_AMP	15	Rpleas_acq	Oppo	Lpleas	Amasked	CS_A	1pleas	distractor2	CONbeforeEVA	cond_new_pleas_456_masked_CS2	condtest_masked_2	9	18	400	1	300	300	0	0	379	46	0	1	0	0	0	1	blank2r.bmp	0	1	+	0	7	C3r.bmp	492	1	blank2r.bmp	786	1	DHJF	786	1	blank2r.bmp	866	2	kreativ	866	1	!	1239	1	!	1279	0	0	0	0	0	0	0	0	0	0	0	0	0	0	0	0	0	0	0	0	0	0	0	0	0	0	0
121318	14:51:09	15:03:59	767663	5.0.10.0	4_exp_AWA_CON_EVA_AMP	15	Rpleas_acq	Oppo	Lpleas	Amasked	CS_A	1pleas	distractor2	CONbeforeEVA	cond_new_unple_456_masked_CS1	condtest_masked_2	9	19	400	0	300	300	0	0	479	50	0	1	0	0	0	1	blank2r.bmp	0	1	+	0	5	C1r.bmp	492	1	blank2r.bmp	786	1	CPLW	786	1	blank2r.bmp	866	3	krise	866	1	!	1239	1	!	-1	0	0	0	0	0	0	0	0	0	0	0	0	0	0	0	0	0	0	0	0	0	0	0	0	0	0	0
121318	14:51:09	15:04:01	769876	5.0.10.0	4_exp_AWA_CON_EVA_AMP	15	Rpleas_acq	Oppo	Lpleas	Amasked	CS_A	1pleas	distractor2	CONbeforeEVA	cond_new_unple_456_masked_CS1	condtest_masked_2	9	20	400	1	300	300	0	0	401	50	0	1	0	0	0	1	blank2r.bmp	0	1	+	0	2	B2r.bmp	492	1	blank2r.bmp	786	1	CPLW	786	1	blank2r.bmp	866	2	krank	866	1	!	1239	1	!	1306	0	0	0	0	0	0	0	0	0	0	0	0	0	0	0	0	0	0	0	0	0	0	0	0	0	0	0
121318	14:51:09	15:04:04	772262	5.0.10.0	4_exp_AWA_CON_EVA_AMP	15	Rpleas_acq	Oppo	Lpleas	Amasked	CS_A	1pleas	distractor2	CONbeforeEVA	cond_US_pleas_123_masked_CS2	condtest_masked_2	9	21	400	0	300	300	0	0	615	46	0	1	0	0	0	1	blank2r.bmp	0	1	+	0	4	B4r.bmp	492	1	blank2r.bmp	786	1	DHJF	786	1	blank2r.bmp	866	2	genießen	866	1	!	1239	1	!	-1	0	0	0	0	0	0	0	0	0	0	0	0	0	0	0	0	0	0	0	0	0	0	0	0	0	0	0
121318	14:51:09	15:04:06	774514	5.0.10.0	4_exp_AWA_CON_EVA_AMP	15	Rpleas_acq	Oppo	Lpleas	Amasked	CS_A	1pleas	distractor2	CONbeforeEVA	cond_US_pleas_123_masked_CS2	condtest_masked_2	9	22	400	1	300	300	0	0	450	46	0	1	0	0	0	1	blank2r.bmp	0	1	+	0	1	B1r.bmp	492	1	blank2r.bmp	786	1	DHJF	786	1	blank2r.bmp	866	3	sonnig	866	1	!	1239	1	!	1346	0	0	0	0	0	0	0	0	0	0	0	0	0	0	0	0	0	0	0	0	0	0	0	0	0	0	0
121318	14:51:09	15:04:08	776740	5.0.10.0	4_exp_AWA_CON_EVA_AMP	15	Rpleas_acq	Oppo	Lpleas	Amasked	CS_A	1pleas	distractor2	CONbeforeEVA	cond_US_unple_123_masked_CS1	condtest_masked_2	9	23	400	1	300	300	0	0	412	50	0	1	0	0	0	1	blank2r.bmp	0	1	+	0	6	C2r.bmp	492	1	blank2r.bmp	786	1	CPLW	786	1	blank2r.bmp	866	2	gemein	866	1	!	1239	1	!	1319	0	0	0	0	0	0	0	0	0	0	0	0	0	0	0	0	0	0	0	0	0	0	0	0	0	0	0
121318	14:51:09	15:04:11	778979	5.0.10.0	4_exp_AWA_CON_EVA_AMP	15	Rpleas_acq	Oppo	Lpleas	Amasked	CS_A	1pleas	distractor2	CONbeforeEVA	cond_new_pleas_456_masked_CS1	condtest_masked_2	9	24	400	1	300	300	0	0	442	50	0	0	0	0	0	1	blank2r.bmp	0	1	+	0	2	B2r.bmp	492	1	blank2r.bmp	786	1	CPLW	786	1	blank2r.bmp	866	1	vergnügt	866	1	!	1239	1	!	1346	0	0	0	0	0	0	0	0	0	0	0	0	0	0	0	0	0	0	0	0	0	0	0	0	0	0	0
121318	14:51:09	15:04:13	781164	5.0.10.0	4_exp_AWA_CON_EVA_AMP	15	Rpleas_acq	Oppo	Lpleas	Amasked	CS_A	1pleas	distractor2	CONbeforeEVA	cond_new_pleas_456_masked_CS1	condtest_masked_2	9	25	400	1	300	300	0	0	398	46	0	1	0	0	0	1	blank2r.bmp	0	1	+	0	7	C3r.bmp	492	1	blank2r.bmp	786	1	CPLW	786	1	blank2r.bmp	866	3	kuss	866	1	!	1239	1	!	1292	0	0	0	0	0	0	0	0	0	0	0	0	0	0	0	0	0	0	0	0	0	0	0	0	0	0	0
121318	14:51:09	15:04:15	783390	5.0.10.0	4_exp_AWA_CON_EVA_AMP	15	Rpleas_acq	Oppo	Lpleas	Amasked	CS_A	1pleas	distractor2	CONbeforeEVA	cond_new_pleas_456_masked_CS1	condtest_masked_2	9	26	400	1	300	300	0	0	438	50	0	0	0	0	0	1	blank2r.bmp	0	1	+	0	8	C4r.bmp	492	1	blank2r.bmp	786	1	CPLW	786	1	blank2r.bmp	866	1	vergnügt	866	1	!	1239	1	!	1332	0	0	0	0	0	0	0	0	0	0	0	0	0	0	0	0	0	0	0	0	0	0	0	0	0	0	0
121318	14:51:09	15:04:17	785616	5.0.10.0	4_exp_AWA_CON_EVA_AMP	15	Rpleas_acq	Oppo	Lpleas	Amasked	CS_A	1pleas	distractor2	CONbeforeEVA	cond_US_pleas_123_masked_CS1	condtest_masked_2	9	27	400	1	300	300	0	0	418	46	0	1	0	0	0	1	blank2r.bmp	0	1	+	0	3	B3r.bmp	492	1	blank2r.bmp	786	1	CPLW	786	1	blank2r.bmp	866	1	vertrauen	866	1	!	1239	1	!	1319	0	0	0	0	0	0	0	0	0	0	0	0	0	0	0	0	0	0	0	0	0	0	0	0	0	0	0
121318	14:51:09	15:04:19	787842	5.0.10.0	4_exp_AWA_CON_EVA_AMP	15	Rpleas_acq	Oppo	Lpleas	Amasked	CS_A	1pleas	distractor2	CONbeforeEVA	cond_new_unple_456_masked_CS2	condtest_masked_2	9	28	400	1	300	300	0	0	438	46	0	0	0	0	0	1	blank2r.bmp	0	1	+	0	5	C1r.bmp	492	1	blank2r.bmp	786	1	DHJF	786	1	blank2r.bmp	866	3	krise	866	1	!	1239	1	!	1332	0	0	0	0	0	0	0	0	0	0	0	0	0	0	0	0	0	0	0	0	0	0	0	0	0	0	0
121318	14:51:09	15:04:22	790094	5.0.10.0	4_exp_AWA_CON_EVA_AMP	15	Rpleas_acq	Oppo	Lpleas	Amasked	CS_A	1pleas	distractor2	CONbeforeEVA	cond_US_pleas_123_masked_CS2	condtest_masked_2	9	29	400	0	300	300	0	0	484	46	0	1	0	0	0	1	blank2r.bmp	0	1	+	0	1	B1r.bmp	492	1	blank2r.bmp	786	1	DHJF	786	1	blank2r.bmp	866	2	genießen	866	1	!	1239	1	!	-1	0	0	0	0	0	0	0	0	0	0	0	0	0	0	0	0	0	0	0	0	0	0	0	0	0	0	0
121318	14:51:09	15:04:24	792186	5.0.10.0	4_exp_AWA_CON_EVA_AMP	15	Rpleas_acq	Oppo	Lpleas	Amasked	CS_A	1pleas	distractor2	CONbeforeEVA	cond_US_unple_123_masked_CS1	condtest_masked_2	9	30	400	0	300	300	0	0	316	50	0	1	0	0	0	1	blank2r.bmp	0	1	+	0	7	C3r.bmp	492	1	blank2r.bmp	786	1	CPLW	786	1	blank2r.bmp	866	1	versagen	866	1	!	-1	1	!	-1	0	0	0	0	0	0	0	0	0	0	0	0	0	0	0	0	0	0	0	0	0	0	0	0	0	0	0
121318	14:51:09	15:04:26	794386	5.0.10.0	4_exp_AWA_CON_EVA_AMP	15	Rpleas_acq	Oppo	Lpleas	Amasked	CS_A	1pleas	distractor2	CONbeforeEVA	cond_US_pleas_123_masked_CS1	condtest_masked_2	9	31	400	1	300	300	0	0	398	46	0	1	0	0	0	1	blank2r.bmp	0	1	+	0	4	B4r.bmp	492	1	blank2r.bmp	786	1	CPLW	786	1	blank2r.bmp	866	3	sonnig	866	1	!	1239	1	!	1292	0	0	0	0	0	0	0	0	0	0	0	0	0	0	0	0	0	0	0	0	0	0	0	0	0	0	0
121318	14:51:09	15:04:28	796585	5.0.10.0	4_exp_AWA_CON_EVA_AMP	15	Rpleas_acq	Oppo	Lpleas	Amasked	CS_A	1pleas	distractor2	CONbeforeEVA	cond_US_pleas_123_masked_CS2	condtest_masked_2	9	32	400	1	300	300	0	0	402	46	0	1	0	0	0	1	blank2r.bmp	0	1	+	0	2	B2r.bmp	492	1	blank2r.bmp	786	1	DHJF	786	1	blank2r.bmp	866	1	vertrauen	866	1	!	1239	1	!	1306	0	0	0	0	0	0	0	0	0	0	0	0	0	0	0	0	0	0	0	0	0	0	0	0	0	0	0
121318	14:51:09	15:04:30	798824	5.0.10.0	4_exp_AWA_CON_EVA_AMP	15	Rpleas_acq	Oppo	Lpleas	Amasked	CS_A	1pleas	distractor2	CONbeforeEVA	cond_US_unple_123_masked_CS2	condtest_masked_2	9	33	400	1	300	300	0	0	447	50	0	1	0	0	0	1	blank2r.bmp	0	1	+	0	3	B3r.bmp	492	1	blank2r.bmp	786	1	DHJF	786	1	blank2r.bmp	866	2	gemein	866	1	!	1239	1	!	1346	0	0	0	0	0	0	0	0	0	0	0	0	0	0	0	0	0	0	0	0	0	0	0	0	0	0	0
121318	14:51:09	15:04:33	801049	5.0.10.0	4_exp_AWA_CON_EVA_AMP	15	Rpleas_acq	Oppo	Lpleas	Amasked	CS_A	1pleas	distractor2	CONbeforeEVA	cond_new_pleas_456_masked_CS1	condtest_masked_2	9	34	400	1	300	300	0	0	438	46	0	1	0	0	0	1	blank2r.bmp	0	1	+	0	8	C4r.bmp	492	1	blank2r.bmp	786	1	CPLW	786	1	blank2r.bmp	866	2	kreativ	866	1	!	1239	1	!	1333	0	0	0	0	0	0	0	0	0	0	0	0	0	0	0	0	0	0	0	0	0	0	0	0	0	0	0
121318	14:51:09	15:04:35	803275	5.0.10.0	4_exp_AWA_CON_EVA_AMP	15	Rpleas_acq	Oppo	Lpleas	Amasked	CS_A	1pleas	distractor2	CONbeforeEVA	cond_US_unple_123_masked_CS2	condtest_masked_2	9	35	400	1	300	300	0	0	415	50	0	1	0	0	0	1	blank2r.bmp	0	1	+	0	6	C2r.bmp	492	1	blank2r.bmp	786	1	DHJF	786	1	blank2r.bmp	866	1	versagen	866	1	!	1239	1	!	1319	0	0	0	0	0	0	0	0	0	0	0	0	0	0	0	0	0	0	0	0	0	0	0	0	0	0	0
121318	14:51:09	15:04:37	805448	5.0.10.0	4_exp_AWA_CON_EVA_AMP	15	Rpleas_acq	Oppo	Lpleas	Amasked	CS_A	1pleas	distractor2	CONbeforeEVA	cond_US_unple_123_masked_CS1	condtest_masked_2	9	36	400	1	300	300	0	0	384	46	0	0	0	0	0	1	blank2r.bmp	0	1	+	0	5	C1r.bmp	492	1	blank2r.bmp	786	1	CPLW	786	1	blank2r.bmp	866	3	sterben	866	1	!	1239	1	!	1279	0	0	0	0	0	0	0	0	0	0	0	0	0	0	0	0	0	0	0	0	0	0	0	0	0	0	0
121318	14:51:09	15:04:39	807687	5.0.10.0	4_exp_AWA_CON_EVA_AMP	15	Rpleas_acq	Oppo	Lpleas	Amasked	CS_A	1pleas	distractor2	CONbeforeEVA	cond_new_pleas_456_masked_CS2	condtest_masked_2	9	37	400	1	300	300	0	0	437	46	0	1	0	0	0	1	blank2r.bmp	0	1	+	0	2	B2r.bmp	492	1	blank2r.bmp	786	1	DHJF	786	1	blank2r.bmp	866	3	kuss	866	1	!	1239	1	!	1332	0	0	0	0	0	0	0	0	0	0	0	0	0	0	0	0	0	0	0	0	0	0	0	0	0	0	0
121318	14:51:09	15:04:41	809832	5.0.10.0	4_exp_AWA_CON_EVA_AMP	15	Rpleas_acq	Oppo	Lpleas	Amasked	CS_A	1pleas	distractor2	CONbeforeEVA	cond_US_pleas_123_masked_CS1	condtest_masked_2	9	38	400	1	300	300	0	0	355	50	0	0	0	0	0	1	blank2r.bmp	0	1	+	0	5	C1r.bmp	492	1	blank2r.bmp	786	1	CPLW	786	1	blank2r.bmp	866	2	genießen	866	1	!	1239	1	!	1252	0	0	0	0	0	0	0	0	0	0	0	0	0	0	0	0	0	0	0	0	0	0	0	0	0	0	0
121318	14:51:09	15:04:44	812058	5.0.10.0	4_exp_AWA_CON_EVA_AMP	15	Rpleas_acq	Oppo	Lpleas	Amasked	CS_A	1pleas	distractor2	CONbeforeEVA	cond_new_unple_456_masked_CS2	condtest_masked_2	9	39	400	1	300	300	0	0	430	50	0	1	0	0	0	1	blank2r.bmp	0	1	+	0	6	C2r.bmp	492	1	blank2r.bmp	786	1	DHJF	786	1	blank2r.bmp	866	1	verbissen	866	1	!	1239	1	!	1332	0	0	0	0	0	0	0	0	0	0	0	0	0	0	0	0	0	0	0	0	0	0	0	0	0	0	0
121318	14:51:09	15:04:46	814351	5.0.10.0	4_exp_AWA_CON_EVA_AMP	15	Rpleas_acq	Oppo	Lpleas	Amasked	CS_A	1pleas	distractor2	CONbeforeEVA	cond_new_unple_456_masked_CS2	condtest_masked_2	9	40	400	0	300	300	0	0	529	50	0	1	0	0	0	1	blank2r.bmp	0	1	+	0	3	B3r.bmp	492	1	blank2r.bmp	786	1	DHJF	786	1	blank2r.bmp	866	2	krank	866	1	!	1239	1	!	-1	0	0	0	0	0	0	0	0	0	0	0	0	0	0	0	0	0	0	0	0	0	0	0	0	0	0	0
121318	14:51:09	15:05:00	828798	5.0.10.0	4_exp_AWA_CON_EVA_AMP	15	Rpleas_acq	Oppo	Lpleas	Amasked	CS_A	1pleas	distractor2	CONbeforeEVA	cond_new_pleas_123_masked_CS1	condtest_masked_3	10	1	400	0	300	300	0	0	602	50	0	0	0	0	0	1	blank2r.bmp	0	1	+	0	7	C3r.bmp	492	1	blank2r.bmp	786	1	CPLW	786	1	blank2r.bmp	866	3	gütig	866	1	!	1239	1	!	-1	0	0	0	0	0	0	0	0	0	0	0	0	0	0	0	0	0	0	0	0	0	0	0	0	0	0	0
121318	14:51:09	15:05:03	831077	5.0.10.0	4_exp_AWA_CON_EVA_AMP	15	Rpleas_acq	Oppo	Lpleas	Amasked	CS_A	1pleas	distractor2	CONbeforeEVA	cond_US_pleas_456_masked_CS1	condtest_masked_3	10	2	400	0	300	300	0	0	498	46	0	1	0	0	0	1	blank2r.bmp	0	1	+	0	8	C4r.bmp	492	1	blank2r.bmp	786	1	CPLW	786	1	blank2r.bmp	866	1	träumen	866	1	!	1239	1	!	-1	0	0	0	0	0	0	0	0	0	0	0	0	0	0	0	0	0	0	0	0	0	0	0	0	0	0	0
121318	14:51:09	15:05:05	833343	5.0.10.0	4_exp_AWA_CON_EVA_AMP	15	Rpleas_acq	Oppo	Lpleas	Amasked	CS_A	1pleas	distractor2	CONbeforeEVA	cond_US_unple_456_masked_CS1	condtest_masked_3	10	3	400	1	300	300	0	0	453	50	0	1	0	0	0	1	blank2r.bmp	0	1	+	0	4	B4r.bmp	492	1	blank2r.bmp	786	1	CPLW	786	1	blank2r.bmp	866	2	ausrottung	866	1	!	1239	1	!	1359	0	0	0	0	0	0	0	0	0	0	0	0	0	0	0	0	0	0	0	0	0	0	0	0	0	0	0
121318	14:51:09	15:05:07	835608	5.0.10.0	4_exp_AWA_CON_EVA_AMP	15	Rpleas_acq	Oppo	Lpleas	Amasked	CS_A	1pleas	distractor2	CONbeforeEVA	cond_new_pleas_123_masked_CS2	condtest_masked_3	10	4	400	0	300	300	0	0	498	46	0	1	0	0	0	1	blank2r.bmp	0	1	+	0	1	B1r.bmp	492	1	blank2r.bmp	786	1	DHJF	786	1	blank2r.bmp	866	2	besonnen	866	1	!	1239	1	!	-1	0	0	0	0	0	0	0	0	0	0	0	0	0	0	0	0	0	0	0	0	0	0	0	0	0	0	0
121318	14:51:09	15:05:09	837874	5.0.10.0	4_exp_AWA_CON_EVA_AMP	15	Rpleas_acq	Oppo	Lpleas	Amasked	CS_A	1pleas	distractor2	CONbeforeEVA	cond_US_unple_456_masked_CS1	condtest_masked_3	10	5	400	1	300	300	0	0	454	50	0	1	0	0	0	1	blank2r.bmp	0	1	+	0	5	C1r.bmp	492	1	blank2r.bmp	786	1	CPLW	786	1	blank2r.bmp	866	1	töten	866	1	!	1239	1	!	1359	0	0	0	0	0	0	0	0	0	0	0	0	0	0	0	0	0	0	0	0	0	0	0	0	0	0	0
121318	14:51:09	15:05:12	840060	5.0.10.0	4_exp_AWA_CON_EVA_AMP	15	Rpleas_acq	Oppo	Lpleas	Amasked	CS_A	1pleas	distractor2	CONbeforeEVA	cond_US_pleas_456_masked_CS2	condtest_masked_3	10	6	400	1	300	300	0	0	394	46	0	1	0	0	0	1	blank2r.bmp	0	1	+	0	8	C4r.bmp	492	1	blank2r.bmp	786	1	DHJF	786	1	blank2r.bmp	866	3	gesittet	866	1	!	1239	1	!	1292	0	0	0	0	0	0	0	0	0	0	0	0	0	0	0	0	0	0	0	0	0	0	0	0	0	0	0
121318	14:51:09	15:05:14	842219	5.0.10.0	4_exp_AWA_CON_EVA_AMP	15	Rpleas_acq	Oppo	Lpleas	Amasked	CS_A	1pleas	distractor2	CONbeforeEVA	cond_new_pleas_123_masked_CS2	condtest_masked_3	10	7	400	1	300	300	0	0	371	46	0	1	0	0	0	1	blank2r.bmp	0	1	+	0	6	C2r.bmp	492	1	blank2r.bmp	786	1	DHJF	786	1	blank2r.bmp	866	1	engagiert	866	1	!	1239	1	!	1266	0	0	0	0	0	0	0	0	0	0	0	0	0	0	0	0	0	0	0	0	0	0	0	0	0	0	0
121318	14:51:09	15:05:16	844365	5.0.10.0	4_exp_AWA_CON_EVA_AMP	15	Rpleas_acq	Oppo	Lpleas	Amasked	CS_A	1pleas	distractor2	CONbeforeEVA	cond_new_pleas_123_masked_CS1	condtest_masked_3	10	8	400	1	300	300	0	0	346	46	0	1	0	0	0	1	blank2r.bmp	0	1	+	0	7	C3r.bmp	492	1	blank2r.bmp	786	1	CPLW	786	1	blank2r.bmp	866	1	engagiert	866	1	!	1239	1	!	1252	0	0	0	0	0	0	0	0	0	0	0	0	0	0	0	0	0	0	0	0	0	0	0	0	0	0	0
121318	14:51:09	15:05:18	846670	5.0.10.0	4_exp_AWA_CON_EVA_AMP	15	Rpleas_acq	Oppo	Lpleas	Amasked	CS_A	1pleas	distractor2	CONbeforeEVA	cond_new_unple_123_masked_CS1	condtest_masked_3	10	9	400	0	300	300	0	0	532	50	0	1	0	0	0	1	blank2r.bmp	0	1	+	0	2	B2r.bmp	492	1	blank2r.bmp	786	1	CPLW	786	1	blank2r.bmp	866	1	engstirnig	866	1	!	1239	1	!	-1	0	0	0	0	0	0	0	0	0	0	0	0	0	0	0	0	0	0	0	0	0	0	0	0	0	0	0
121318	14:51:09	15:05:20	848896	5.0.10.0	4_exp_AWA_CON_EVA_AMP	15	Rpleas_acq	Oppo	Lpleas	Amasked	CS_A	1pleas	distractor2	CONbeforeEVA	cond_US_pleas_456_masked_CS1	condtest_masked_3	10	10	400	1	300	300	0	0	421	46	0	1	0	0	0	1	blank2r.bmp	0	1	+	0	4	B4r.bmp	492	1	blank2r.bmp	786	1	CPLW	786	1	blank2r.bmp	866	2	anregung	866	1	!	1239	1	!	1319	0	0	0	0	0	0	0	0	0	0	0	0	0	0	0	0	0	0	0	0	0	0	0	0	0	0	0
121318	14:51:09	15:05:23	851082	5.0.10.0	4_exp_AWA_CON_EVA_AMP	15	Rpleas_acq	Oppo	Lpleas	Amasked	CS_A	1pleas	distractor2	CONbeforeEVA	cond_new_pleas_123_masked_CS2	condtest_masked_3	10	11	400	1	300	300	0	0	398	50	0	0	0	0	0	1	blank2r.bmp	0	1	+	0	3	B3r.bmp	492	1	blank2r.bmp	786	1	DHJF	786	1	blank2r.bmp	866	2	besonnen	866	1	!	1239	1	!	1292	0	0	0	0	0	0	0	0	0	0	0	0	0	0	0	0	0	0	0	0	0	0	0	0	0	0	0
121318	14:51:09	15:05:25	853427	5.0.10.0	4_exp_AWA_CON_EVA_AMP	15	Rpleas_acq	Oppo	Lpleas	Amasked	CS_A	1pleas	distractor2	CONbeforeEVA	cond_new_unple_123_masked_CS2	condtest_masked_3	10	12	400	0	300	300	0	0	575	50	0	1	0	0	0	1	blank2r.bmp	0	1	+	0	1	B1r.bmp	492	1	blank2r.bmp	786	1	DHJF	786	1	blank2r.bmp	866	3	gierig	866	1	!	1239	1	!	-1	0	0	0	0	0	0	0	0	0	0	0	0	0	0	0	0	0	0	0	0	0	0	0	0	0	0	0
121318	14:51:09	15:05:27	855693	5.0.10.0	4_exp_AWA_CON_EVA_AMP	15	Rpleas_acq	Oppo	Lpleas	Amasked	CS_A	1pleas	distractor2	CONbeforeEVA	cond_new_pleas_123_masked_CS1	condtest_masked_3	10	13	400	0	300	300	0	0	479	46	0	1	0	0	0	1	blank2r.bmp	0	1	+	0	4	B4r.bmp	492	1	blank2r.bmp	786	1	CPLW	786	1	blank2r.bmp	866	3	gütig	866	1	!	1239	1	!	-1	0	0	0	0	0	0	0	0	0	0	0	0	0	0	0	0	0	0	0	0	0	0	0	0	0	0	0
121318	14:51:09	15:05:30	857959	5.0.10.0	4_exp_AWA_CON_EVA_AMP	15	Rpleas_acq	Oppo	Lpleas	Amasked	CS_A	1pleas	distractor2	CONbeforeEVA	cond_new_pleas_123_masked_CS2	condtest_masked_3	10	14	400	1	300	300	0	0	454	46	0	1	0	0	0	1	blank2r.bmp	0	1	+	0	3	B3r.bmp	492	1	blank2r.bmp	786	1	DHJF	786	1	blank2r.bmp	866	3	gütig	866	1	!	1239	1	!	1359	0	0	0	0	0	0	0	0	0	0	0	0	0	0	0	0	0	0	0	0	0	0	0	0	0	0	0
121318	14:51:09	15:05:32	860158	5.0.10.0	4_exp_AWA_CON_EVA_AMP	15	Rpleas_acq	Oppo	Lpleas	Amasked	CS_A	1pleas	distractor2	CONbeforeEVA	cond_new_unple_123_masked_CS2	condtest_masked_3	10	15	400	1	300	300	0	0	399	46	0	0	0	0	0	1	blank2r.bmp	0	1	+	0	6	C2r.bmp	492	1	blank2r.bmp	786	1	DHJF	786	1	blank2r.bmp	866	2	bange	866	1	!	1239	1	!	1306	0	0	0	0	0	0	0	0	0	0	0	0	0	0	0	0	0	0	0	0	0	0	0	0	0	0	0
121318	14:51:09	15:05:34	862410	5.0.10.0	4_exp_AWA_CON_EVA_AMP	15	Rpleas_acq	Oppo	Lpleas	Amasked	CS_A	1pleas	distractor2	CONbeforeEVA	cond_US_pleas_456_masked_CS1	condtest_masked_3	10	16	400	0	300	300	0	0	481	50	0	0	0	0	0	1	blank2r.bmp	0	1	+	0	5	C1r.bmp	492	1	blank2r.bmp	786	1	CPLW	786	1	blank2r.bmp	866	3	gesittet	866	1	!	1239	1	!	-1	0	0	0	0	0	0	0	0	0	0	0	0	0	0	0	0	0	0	0	0	0	0	0	0	0	0	0
121318	14:51:09	15:05:36	864676	5.0.10.0	4_exp_AWA_CON_EVA_AMP	15	Rpleas_acq	Oppo	Lpleas	Amasked	CS_A	1pleas	distractor2	CONbeforeEVA	cond_US_pleas_456_masked_CS1	condtest_masked_3	10	17	400	0	300	300	0	0	479	46	0	1	0	0	0	1	blank2r.bmp	0	1	+	0	1	B1r.bmp	492	1	blank2r.bmp	786	1	CPLW	786	1	blank2r.bmp	866	2	anregung	866	1	!	1239	1	!	-1	0	0	0	0	0	0	0	0	0	0	0	0	0	0	0	0	0	0	0	0	0	0	0	0	0	0	0
121318	14:51:09	15:05:39	867008	5.0.10.0	4_exp_AWA_CON_EVA_AMP	15	Rpleas_acq	Oppo	Lpleas	Amasked	CS_A	1pleas	distractor2	CONbeforeEVA	cond_new_unple_123_masked_CS1	condtest_masked_3	10	18	400	0	300	300	0	0	552	50	0	1	0	0	0	1	blank2r.bmp	0	1	+	0	2	B2r.bmp	492	1	blank2r.bmp	786	1	CPLW	786	1	blank2r.bmp	866	1	engstirnig	866	1	!	1239	1	!	-1	0	0	0	0	0	0	0	0	0	0	0	0	0	0	0	0	0	0	0	0	0	0	0	0	0	0	0
121318	14:51:09	15:05:41	869274	5.0.10.0	4_exp_AWA_CON_EVA_AMP	15	Rpleas_acq	Oppo	Lpleas	Amasked	CS_A	1pleas	distractor2	CONbeforeEVA	cond_new_unple_123_masked_CS1	condtest_masked_3	10	19	400	1	300	300	0	0	462	46	0	0	0	0	0	1	blank2r.bmp	0	1	+	0	7	C3r.bmp	492	1	blank2r.bmp	786	1	CPLW	786	1	blank2r.bmp	866	3	gierig	866	1	!	1239	1	!	1359	0	0	0	0	0	0	0	0	0	0	0	0	0	0	0	0	0	0	0	0	0	0	0	0	0	0	0
121318	14:51:09	15:05:43	871473	5.0.10.0	4_exp_AWA_CON_EVA_AMP	15	Rpleas_acq	Oppo	Lpleas	Amasked	CS_A	1pleas	distractor2	CONbeforeEVA	cond_new_pleas_123_masked_CS1	condtest_masked_3	10	20	400	1	300	300	0	0	399	46	0	1	0	0	0	1	blank2r.bmp	0	1	+	0	8	C4r.bmp	492	1	blank2r.bmp	786	1	CPLW	786	1	blank2r.bmp	866	2	besonnen	866	1	!	1239	1	!	1306	0	0	0	0	0	0	0	0	0	0	0	0	0	0	0	0	0	0	0	0	0	0	0	0	0	0	0
121318	14:51:09	15:05:45	873699	5.0.10.0	4_exp_AWA_CON_EVA_AMP	15	Rpleas_acq	Oppo	Lpleas	Amasked	CS_A	1pleas	distractor2	CONbeforeEVA	cond_US_unple_456_masked_CS2	condtest_masked_3	10	21	400	1	300	300	0	0	431	46	0	0	0	0	0	1	blank2r.bmp	0	1	+	0	3	B3r.bmp	492	1	blank2r.bmp	786	1	DHJF	786	1	blank2r.bmp	866	3	geizig	866	1	!	1239	1	!	1332	0	0	0	0	0	0	0	0	0	0	0	0	0	0	0	0	0	0	0	0	0	0	0	0	0	0	0
121318	14:51:09	15:05:48	875951	5.0.10.0	4_exp_AWA_CON_EVA_AMP	15	Rpleas_acq	Oppo	Lpleas	Amasked	CS_A	1pleas	distractor2	CONbeforeEVA	cond_US_unple_456_masked_CS2	condtest_masked_3	10	22	400	0	300	300	0	0	479	46	0	0	0	0	0	1	blank2r.bmp	0	1	+	0	7	C3r.bmp	492	1	blank2r.bmp	786	1	DHJF	786	1	blank2r.bmp	866	2	ausrottung	866	1	!	1239	1	!	-1	0	0	0	0	0	0	0	0	0	0	0	0	0	0	0	0	0	0	0	0	0	0	0	0	0	0	0
121318	14:51:09	15:05:50	878110	5.0.10.0	4_exp_AWA_CON_EVA_AMP	15	Rpleas_acq	Oppo	Lpleas	Amasked	CS_A	1pleas	distractor2	CONbeforeEVA	cond_US_unple_456_masked_CS1	condtest_masked_3	10	23	400	1	300	300	0	0	358	50	0	1	0	0	0	1	blank2r.bmp	0	1	+	0	1	B1r.bmp	492	1	blank2r.bmp	786	1	CPLW	786	1	blank2r.bmp	866	3	geizig	866	1	!	1239	1	!	1252	0	0	0	0	0	0	0	0	0	0	0	0	0	0	0	0	0	0	0	0	0	0	0	0	0	0	0
121318	14:51:09	15:05:52	880376	5.0.10.0	4_exp_AWA_CON_EVA_AMP	15	Rpleas_acq	Oppo	Lpleas	Amasked	CS_A	1pleas	distractor2	CONbeforeEVA	cond_new_unple_123_masked_CS2	condtest_masked_3	10	24	400	0	300	300	0	0	479	50	0	1	0	0	0	1	blank2r.bmp	0	1	+	0	8	C4r.bmp	492	1	blank2r.bmp	786	1	DHJF	786	1	blank2r.bmp	866	2	bange	866	1	!	1239	1	!	-1	0	0	0	0	0	0	0	0	0	0	0	0	0	0	0	0	0	0	0	0	0	0	0	0	0	0	0
121318	14:51:09	15:05:54	882748	5.0.10.0	4_exp_AWA_CON_EVA_AMP	15	Rpleas_acq	Oppo	Lpleas	Amasked	CS_A	1pleas	distractor2	CONbeforeEVA	cond_new_pleas_123_masked_CS1	condtest_masked_3	10	25	400	0	300	300	0	0	581	46	0	1	0	0	0	1	blank2r.bmp	0	1	+	0	4	B4r.bmp	492	1	blank2r.bmp	786	1	CPLW	786	1	blank2r.bmp	866	1	engagiert	866	1	!	1239	1	!	-1	0	0	0	0	0	0	0	0	0	0	0	0	0	0	0	0	0	0	0	0	0	0	0	0	0	0	0
121318	14:51:09	15:05:56	884854	5.0.10.0	4_exp_AWA_CON_EVA_AMP	15	Rpleas_acq	Oppo	Lpleas	Amasked	CS_A	1pleas	distractor2	CONbeforeEVA	cond_new_unple_123_masked_CS2	condtest_masked_3	10	26	400	0	300	300	0	0	309	50	0	1	0	0	0	1	blank2r.bmp	0	1	+	0	5	C1r.bmp	492	1	blank2r.bmp	786	1	DHJF	786	1	blank2r.bmp	866	2	bange	866	1	!	-1	1	!	-1	0	0	0	0	0	0	0	0	0	0	0	0	0	0	0	0	0	0	0	0	0	0	0	0	0	0	0
121318	14:51:09	15:05:59	887147	5.0.10.0	4_exp_AWA_CON_EVA_AMP	15	Rpleas_acq	Oppo	Lpleas	Amasked	CS_A	1pleas	distractor2	CONbeforeEVA	cond_US_pleas_456_masked_CS1	condtest_masked_3	10	27	400	1	300	300	0	0	466	46	0	1	0	0	0	1	blank2r.bmp	0	1	+	0	6	C2r.bmp	492	1	blank2r.bmp	786	1	CPLW	786	1	blank2r.bmp	866	1	träumen	866	1	!	1239	1	!	1372	0	0	0	0	0	0	0	0	0	0	0	0	0	0	0	0	0	0	0	0	0	0	0	0	0	0	0
121318	14:51:09	15:06:01	889359	5.0.10.0	4_exp_AWA_CON_EVA_AMP	15	Rpleas_acq	Oppo	Lpleas	Amasked	CS_A	1pleas	distractor2	CONbeforeEVA	cond_new_pleas_123_masked_CS2	condtest_masked_3	10	28	400	1	300	300	0	0	415	46	0	1	0	0	0	1	blank2r.bmp	0	1	+	0	2	B2r.bmp	492	1	blank2r.bmp	786	1	DHJF	786	1	blank2r.bmp	866	2	besonnen	866	1	!	1239	1	!	1319	0	0	0	0	0	0	0	0	0	0	0	0	0	0	0	0	0	0	0	0	0	0	0	0	0	0	0
121318	14:51:09	15:06:03	891651	5.0.10.0	4_exp_AWA_CON_EVA_AMP	15	Rpleas_acq	Oppo	Lpleas	Amasked	CS_A	1pleas	distractor2	CONbeforeEVA	cond_new_pleas_123_masked_CS2	condtest_masked_3	10	29	400	0	300	300	0	0	514	50	0	0	0	0	0	1	blank2r.bmp	0	1	+	0	1	B1r.bmp	492	1	blank2r.bmp	786	1	DHJF	786	1	blank2r.bmp	866	3	gütig	866	1	!	1239	1	!	-1	0	0	0	0	0	0	0	0	0	0	0	0	0	0	0	0	0	0	0	0	0	0	0	0	0	0	0
121318	14:51:09	15:06:05	893917	5.0.10.0	4_exp_AWA_CON_EVA_AMP	15	Rpleas_acq	Oppo	Lpleas	Amasked	CS_A	1pleas	distractor2	CONbeforeEVA	cond_new_unple_123_masked_CS2	condtest_masked_3	10	30	400	0	300	300	0	0	488	50	0	1	0	0	0	1	blank2r.bmp	0	1	+	0	6	C2r.bmp	492	1	blank2r.bmp	786	1	DHJF	786	1	blank2r.bmp	866	1	engstirnig	866	1	!	1239	1	!	-1	0	0	0	0	0	0	0	0	0	0	0	0	0	0	0	0	0	0	0	0	0	0	0	0	0	0	0
121318	14:51:09	15:06:08	896156	5.0.10.0	4_exp_AWA_CON_EVA_AMP	15	Rpleas_acq	Oppo	Lpleas	Amasked	CS_A	1pleas	distractor2	CONbeforeEVA	cond_US_unple_456_masked_CS1	condtest_masked_3	10	31	400	1	300	300	0	0	414	46	0	0	0	0	0	1	blank2r.bmp	0	1	+	0	8	C4r.bmp	492	1	blank2r.bmp	786	1	CPLW	786	1	blank2r.bmp	866	1	töten	866	1	!	1239	1	!	1319	0	0	0	0	0	0	0	0	0	0	0	0	0	0	0	0	0	0	0	0	0	0	0	0	0	0	0
