date	time	script.currenttime	script.elapsedtime	build	script.currentexpt	subject	expressions.LRpleas_acq	expressions.SameOppo	expressions.condition_Lpleas	expressions.ABmasked	expressions.conditionCS_A	expressions.condition_1pleas	expressions.condition_distractor_AMP	expressions.AWACON_AMPEVA_first	trialcode	blockcode	blocknum	trialnum	windowcenter	inwindow	pretrialpause	posttrialpause	trialduration	trialtimeout	latency	response	expressions.correctedscore	correct	values.vis_performance	values.vis_rating_sum	values.vis_rating_mean	stimulusnumber1	stimulusitem1	stimulusonset1	stimulusnumber2	stimulusitem2	stimulusonset2	stimulusnumber3	stimulusitem3	stimulusonset3	stimulusnumber4	stimulusitem4	stimulusonset4	stimulusnumber5	stimulusitem5	stimulusonset5	stimulusnumber6	stimulusitem6	stimulusonset6	stimulusnumber7	stimulusitem7	stimulusonset7	stimulusnumber8	stimulusitem8	stimulusonset8	stimulusnumber9	stimulusitem9	stimulusonset9	stimulusnumber10	stimulusitem10	stimulusonset10	stimulusnumber11	stimulusitem11	stimulusonset11	stimulusnumber12	stimulusitem12	stimulusonset12	stimulusnumber13	stimulusitem13	stimulusonset13	stimulusnumber14	stimulusitem14	stimulusonset14	stimulusnumber15	stimulusitem15	stimulusonset15	stimulusnumber16	stimulusitem16	stimulusonset16	stimulusnumber17	stimulusitem17	stimulusonset17	stimulusnumber18	stimulusitem18	stimulusonset18
013019	08:58:40	08:59:44	61947	5.0.10.0	4_exp_EVA_AMP_AWA_CON	98	Rpleas_acq	Same	Rpleas	Bmasked	CS_B	1pleas	distractor2	EVAbeforeCON	acq_new_unple_masked	acq1_masked	1	1	0	0	300	300	0	0	919	46	0	1	0	0	0	1	blank2r.bmp	0	1	+	0	5	C1r.bmp	492	1	blank2r.bmp	786	8	C4r.bmp	786	1	blank2r.bmp	866	2	schlecht	866	0	0	0	0	0	0	0	0	0	0	0	0	0	0	0	0	0	0	0	0	0	0	0	0	0	0	0	0	0	0	0	0	0
013019	08:58:40	08:59:46	63973	5.0.10.0	4_exp_EVA_AMP_AWA_CON	98	Rpleas_acq	Same	Rpleas	Bmasked	CS_B	1pleas	distractor2	EVAbeforeCON	acq_new_unple_masked	acq1_masked	1	2	0	0	300	300	0	0	540	46	0	1	0	0	0	1	blank2r.bmp	0	1	+	0	4	B4r.bmp	492	1	blank2r.bmp	786	7	C3r.bmp	786	1	blank2r.bmp	866	6	hindern	866	0	0	0	0	0	0	0	0	0	0	0	0	0	0	0	0	0	0	0	0	0	0	0	0	0	0	0	0	0	0	0	0	0
013019	08:58:40	08:59:48	65959	5.0.10.0	4_exp_EVA_AMP_AWA_CON	98	Rpleas_acq	Same	Rpleas	Bmasked	CS_B	1pleas	distractor2	EVAbeforeCON	acq_new_pleas_masked	acq1_masked	1	3	0	0	300	300	0	0	510	50	0	1	0	0	0	1	blank2r.bmp	0	1	+	0	6	C2r.bmp	492	1	blank2r.bmp	786	2	B2r.bmp	786	1	blank2r.bmp	866	3	retten	866	0	0	0	0	0	0	0	0	0	0	0	0	0	0	0	0	0	0	0	0	0	0	0	0	0	0	0	0	0	0	0	0	0
013019	08:58:40	08:59:50	67878	5.0.10.0	4_exp_EVA_AMP_AWA_CON	98	Rpleas_acq	Same	Rpleas	Bmasked	CS_B	2pleas	distractor2	EVAbeforeCON	acq_US_unple_masked	acq1_masked	1	4	0	0	300	300	0	0	440	46	0	1	0	0	0	1	blank2r.bmp	0	1	+	0	8	C4r.bmp	492	1	blank2r.bmp	786	1	BMVZ	786	1	blank2r.bmp	866	1	lasch	866	0	0	0	0	0	0	0	0	0	0	0	0	0	0	0	0	0	0	0	0	0	0	0	0	0	0	0	0	0	0	0	0	0
013019	08:58:40	08:59:52	69784	5.0.10.0	4_exp_EVA_AMP_AWA_CON	98	Rpleas_acq	Same	Rpleas	Bmasked	CS_B	2pleas	distractor2	EVAbeforeCON	acq_US_pleas_masked	acq1_masked	1	5	0	0	300	300	0	0	437	50	0	1	0	0	0	1	blank2r.bmp	0	1	+	0	1	B1r.bmp	492	1	blank2r.bmp	786	1	GKQX	786	1	blank2r.bmp	866	5	schlau	866	0	0	0	0	0	0	0	0	0	0	0	0	0	0	0	0	0	0	0	0	0	0	0	0	0	0	0	0	0	0	0	0	0
013019	08:58:40	08:59:54	71796	5.0.10.0	4_exp_EVA_AMP_AWA_CON	98	Rpleas_acq	Same	Rpleas	Bmasked	CS_B	2pleas	distractor2	EVAbeforeCON	acq_new_pleas_masked	acq1_masked	1	6	0	0	300	300	0	0	522	50	0	1	0	0	0	1	blank2r.bmp	0	1	+	0	7	C3r.bmp	492	1	blank2r.bmp	786	5	C1r.bmp	786	1	blank2r.bmp	866	4	ehrlich	866	0	0	0	0	0	0	0	0	0	0	0	0	0	0	0	0	0	0	0	0	0	0	0	0	0	0	0	0	0	0	0	0	0
013019	08:58:40	08:59:56	73835	5.0.10.0	4_exp_EVA_AMP_AWA_CON	98	Rpleas_acq	Same	Rpleas	Bmasked	CS_B	2pleas	distractor2	EVAbeforeCON	acq_US_unple_masked	acq1_masked	1	7	0	0	300	300	0	0	564	46	0	1	0	0	0	1	blank2r.bmp	0	1	+	0	2	B2r.bmp	492	1	blank2r.bmp	786	1	BMVZ	786	1	blank2r.bmp	866	5	schroff	866	0	0	0	0	0	0	0	0	0	0	0	0	0	0	0	0	0	0	0	0	0	0	0	0	0	0	0	0	0	0	0	0	0
013019	08:58:40	08:59:57	75714	5.0.10.0	4_exp_EVA_AMP_AWA_CON	98	Rpleas_acq	Same	Rpleas	Bmasked	CS_B	2pleas	distractor2	EVAbeforeCON	acq_new_pleas_masked	acq1_masked	1	8	0	0	300	300	0	0	411	50	0	1	0	0	0	1	blank2r.bmp	0	1	+	0	3	B3r.bmp	492	1	blank2r.bmp	786	4	B4r.bmp	786	1	blank2r.bmp	866	6	helfen	866	0	0	0	0	0	0	0	0	0	0	0	0	0	0	0	0	0	0	0	0	0	0	0	0	0	0	0	0	0	0	0	0	0
013019	08:58:40	09:00:00	77967	5.0.10.0	4_exp_EVA_AMP_AWA_CON	98	Rpleas_acq	Same	Rpleas	Bmasked	CS_B	2pleas	distractor2	EVAbeforeCON	acq_new_unple_masked	acq1_masked	1	9	0	0	300	300	0	0	552	50	0	0	0	0	0	1	blank2r.bmp	0	1	+	0	2	B2r.bmp	492	1	blank2r.bmp	786	6	C2r.bmp	786	1	blank2r.bmp	866	5	fanatisch	866	1	FEHLER	1452	0	0	0	0	0	0	0	0	0	0	0	0	0	0	0	0	0	0	0	0	0	0	0	0	0	0	0	0	0	0
013019	08:58:40	09:00:01	79726	5.0.10.0	4_exp_EVA_AMP_AWA_CON	98	Rpleas_acq	Same	Rpleas	Bmasked	CS_B	2pleas	distractor2	EVAbeforeCON	acq_US_unple_masked	acq1_masked	1	10	0	0	300	300	0	0	485	46	0	1	0	0	0	1	blank2r.bmp	0	1	+	0	4	B4r.bmp	492	1	blank2r.bmp	786	1	BMVZ	786	1	blank2r.bmp	866	6	tyrannisch	866	0	0	0	0	0	0	0	0	0	0	0	0	0	0	0	0	0	0	0	0	0	0	0	0	0	0	0	0	0	0	0	0	0
013019	08:58:40	09:00:04	81765	5.0.10.0	4_exp_EVA_AMP_AWA_CON	98	Rpleas_acq	Same	Rpleas	Bmasked	CS_B	2pleas	distractor2	EVAbeforeCON	acq_US_pleas_masked	acq1_masked	1	11	0	0	300	300	0	0	548	50	0	1	0	0	0	1	blank2r.bmp	0	1	+	0	8	C4r.bmp	492	1	blank2r.bmp	786	1	GKQX	786	1	blank2r.bmp	866	2	spielen	866	0	0	0	0	0	0	0	0	0	0	0	0	0	0	0	0	0	0	0	0	0	0	0	0	0	0	0	0	0	0	0	0	0
013019	08:58:40	09:00:05	83738	5.0.10.0	4_exp_EVA_AMP_AWA_CON	98	Rpleas_acq	Same	Rpleas	Bmasked	CS_B	2pleas	distractor2	EVAbeforeCON	acq_US_pleas_masked	acq1_masked	1	12	0	0	300	300	0	0	504	50	0	1	0	0	0	1	blank2r.bmp	0	1	+	0	1	B1r.bmp	492	1	blank2r.bmp	786	1	GKQX	786	1	blank2r.bmp	866	6	tolerant	866	0	0	0	0	0	0	0	0	0	0	0	0	0	0	0	0	0	0	0	0	0	0	0	0	0	0	0	0	0	0	0	0	0
013019	08:58:40	09:00:08	85924	5.0.10.0	4_exp_EVA_AMP_AWA_CON	98	Rpleas_acq	Same	Rpleas	Bmasked	CS_B	2pleas	distractor2	EVAbeforeCON	acq_new_unple_masked	acq1_masked	1	13	0	0	300	300	0	0	503	50	0	0	0	0	0	1	blank2r.bmp	0	1	+	0	3	B3r.bmp	492	1	blank2r.bmp	786	1	B1r.bmp	786	1	blank2r.bmp	866	3	rächen	866	1	FEHLER	1399	0	0	0	0	0	0	0	0	0	0	0	0	0	0	0	0	0	0	0	0	0	0	0	0	0	0	0	0	0	0
013019	08:58:40	09:00:09	87643	5.0.10.0	4_exp_EVA_AMP_AWA_CON	98	Rpleas_acq	Same	Rpleas	Bmasked	CS_B	2pleas	distractor2	EVAbeforeCON	acq_new_pleas_masked	acq1_masked	1	14	0	0	300	300	0	0	426	50	0	1	0	0	0	1	blank2r.bmp	27	1	+	27	7	C3r.bmp	492	1	blank2r.bmp	822	3	B3r.bmp	822	1	blank2r.bmp	870	5	freundlich	870	0	0	0	0	0	0	0	0	0	0	0	0	0	0	0	0	0	0	0	0	0	0	0	0	0	0	0	0	0	0	0	0	0
013019	08:58:40	09:00:11	89522	5.0.10.0	4_exp_EVA_AMP_AWA_CON	98	Rpleas_acq	Same	Rpleas	Bmasked	CS_B	2pleas	distractor2	EVAbeforeCON	acq_US_unple_masked	acq1_masked	1	15	0	0	300	300	0	0	386	46	0	1	0	0	0	1	blank2r.bmp	0	1	+	0	6	C2r.bmp	492	1	blank2r.bmp	786	1	BMVZ	786	1	blank2r.bmp	866	3	leiden	866	0	0	0	0	0	0	0	0	0	0	0	0	0	0	0	0	0	0	0	0	0	0	0	0	0	0	0	0	0	0	0	0	0
013019	08:58:40	09:00:13	91441	5.0.10.0	4_exp_EVA_AMP_AWA_CON	98	Rpleas_acq	Same	Rpleas	Bmasked	CS_B	2pleas	distractor2	EVAbeforeCON	acq_new_pleas_masked	acq1_masked	1	16	0	0	300	300	0	0	431	50	0	1	0	0	0	1	blank2r.bmp	0	1	+	0	5	C1r.bmp	492	1	blank2r.bmp	786	1	B1r.bmp	786	1	blank2r.bmp	866	2	schön	866	0	0	0	0	0	0	0	0	0	0	0	0	0	0	0	0	0	0	0	0	0	0	0	0	0	0	0	0	0	0	0	0	0
013019	08:58:40	09:00:15	93401	5.0.10.0	4_exp_EVA_AMP_AWA_CON	98	Rpleas_acq	Same	Rpleas	Bmasked	CS_B	2pleas	distractor2	EVAbeforeCON	acq_new_unple_masked	acq1_masked	1	17	0	0	300	300	0	0	467	46	0	1	0	0	0	1	blank2r.bmp	0	1	+	0	6	C2r.bmp	492	1	blank2r.bmp	786	2	B2r.bmp	786	1	blank2r.bmp	866	1	tot	866	0	0	0	0	0	0	0	0	0	0	0	0	0	0	0	0	0	0	0	0	0	0	0	0	0	0	0	0	0	0	0	0	0
013019	08:58:40	09:00:17	95520	5.0.10.0	4_exp_EVA_AMP_AWA_CON	98	Rpleas_acq	Same	Rpleas	Bmasked	CS_B	2pleas	distractor2	EVAbeforeCON	acq_US_unple_masked	acq1_masked	1	18	0	0	300	300	0	0	431	50	0	0	0	0	0	1	blank2r.bmp	0	1	+	0	3	B3r.bmp	492	1	blank2r.bmp	786	1	BMVZ	786	1	blank2r.bmp	866	2	strafen	866	1	FEHLER	1332	0	0	0	0	0	0	0	0	0	0	0	0	0	0	0	0	0	0	0	0	0	0	0	0	0	0	0	0	0	0
013019	08:58:40	09:00:19	97545	5.0.10.0	4_exp_EVA_AMP_AWA_CON	98	Rpleas_acq	Same	Rpleas	Bmasked	CS_B	2pleas	distractor2	EVAbeforeCON	acq_new_unple_masked	acq1_masked	1	19	0	0	300	300	0	0	533	50	0	0	0	0	0	1	blank2r.bmp	0	1	+	0	2	B2r.bmp	492	1	blank2r.bmp	786	7	C3r.bmp	786	1	blank2r.bmp	866	4	eitel	866	1	FEHLER	1439	0	0	0	0	0	0	0	0	0	0	0	0	0	0	0	0	0	0	0	0	0	0	0	0	0	0	0	0	0	0
013019	08:58:40	09:00:21	99305	5.0.10.0	4_exp_EVA_AMP_AWA_CON	98	Rpleas_acq	Same	Rpleas	Bmasked	CS_B	2pleas	distractor2	EVAbeforeCON	acq_US_pleas_masked	acq1_masked	1	20	0	0	300	300	0	0	500	50	0	1	0	0	0	1	blank2r.bmp	0	1	+	0	4	B4r.bmp	492	1	blank2r.bmp	786	1	GKQX	786	1	blank2r.bmp	866	3	lachen	866	0	0	0	0	0	0	0	0	0	0	0	0	0	0	0	0	0	0	0	0	0	0	0	0	0	0	0	0	0	0	0	0	0
013019	08:58:40	09:00:23	101531	5.0.10.0	4_exp_EVA_AMP_AWA_CON	98	Rpleas_acq	Same	Rpleas	Bmasked	CS_B	2pleas	distractor2	EVAbeforeCON	acq_US_pleas_masked	acq1_masked	1	21	0	0	300	300	0	0	527	46	0	0	0	0	0	1	blank2r.bmp	0	1	+	0	1	B1r.bmp	492	1	blank2r.bmp	786	1	GKQX	786	1	blank2r.bmp	866	1	loyal	866	1	FEHLER	1426	0	0	0	0	0	0	0	0	0	0	0	0	0	0	0	0	0	0	0	0	0	0	0	0	0	0	0	0	0	0
013019	08:58:40	09:00:25	103383	5.0.10.0	4_exp_EVA_AMP_AWA_CON	98	Rpleas_acq	Same	Rpleas	Bmasked	CS_B	2pleas	distractor2	EVAbeforeCON	acq_new_pleas_masked	acq1_masked	1	22	0	0	300	300	0	0	583	50	0	1	0	0	0	1	blank2r.bmp	0	1	+	0	8	C4r.bmp	492	1	blank2r.bmp	786	4	B4r.bmp	786	1	blank2r.bmp	866	1	treu	866	0	0	0	0	0	0	0	0	0	0	0	0	0	0	0	0	0	0	0	0	0	0	0	0	0	0	0	0	0	0	0	0	0
013019	08:58:40	09:00:27	105289	5.0.10.0	4_exp_EVA_AMP_AWA_CON	98	Rpleas_acq	Same	Rpleas	Bmasked	CS_B	2pleas	distractor2	EVAbeforeCON	acq_US_pleas_masked	acq1_masked	1	23	0	0	300	300	0	0	423	50	0	1	0	0	0	1	blank2r.bmp	0	1	+	0	7	C3r.bmp	492	1	blank2r.bmp	786	1	GKQX	786	1	blank2r.bmp	866	4	fair	866	0	0	0	0	0	0	0	0	0	0	0	0	0	0	0	0	0	0	0	0	0	0	0	0	0	0	0	0	0	0	0	0	0
013019	08:58:40	09:00:29	107395	5.0.10.0	4_exp_EVA_AMP_AWA_CON	98	Rpleas_acq	Same	Rpleas	Bmasked	CS_B	2pleas	distractor2	EVAbeforeCON	acq_US_unple_masked	acq1_masked	1	24	0	0	300	300	0	0	619	46	0	1	0	0	0	1	blank2r.bmp	0	1	+	0	5	C1r.bmp	492	1	blank2r.bmp	786	1	BMVZ	786	1	blank2r.bmp	866	4	faul	866	0	0	0	0	0	0	0	0	0	0	0	0	0	0	0	0	0	0	0	0	0	0	0	0	0	0	0	0	0	0	0	0	0
013019	08:58:40	09:00:31	109394	5.0.10.0	4_exp_EVA_AMP_AWA_CON	98	Rpleas_acq	Same	Rpleas	Bmasked	CS_B	2pleas	distractor2	EVAbeforeCON	acq_new_pleas_masked	acq1_masked	1	25	0	0	300	300	0	0	515	50	0	1	0	0	0	1	blank2r.bmp	0	1	+	0	3	B3r.bmp	492	1	blank2r.bmp	786	6	C2r.bmp	786	1	blank2r.bmp	866	3	retten	866	0	0	0	0	0	0	0	0	0	0	0	0	0	0	0	0	0	0	0	0	0	0	0	0	0	0	0	0	0	0	0	0	0
013019	08:58:40	09:00:33	111393	5.0.10.0	4_exp_EVA_AMP_AWA_CON	98	Rpleas_acq	Same	Rpleas	Bmasked	CS_B	2pleas	distractor2	EVAbeforeCON	acq_US_pleas_masked	acq1_masked	1	26	0	0	300	300	0	0	517	50	0	1	0	0	0	1	blank2r.bmp	0	1	+	0	8	C4r.bmp	492	1	blank2r.bmp	786	1	GKQX	786	1	blank2r.bmp	866	6	tolerant	866	0	0	0	0	0	0	0	0	0	0	0	0	0	0	0	0	0	0	0	0	0	0	0	0	0	0	0	0	0	0	0	0	0
013019	08:58:40	09:00:35	113326	5.0.10.0	4_exp_EVA_AMP_AWA_CON	98	Rpleas_acq	Same	Rpleas	Bmasked	CS_B	2pleas	distractor2	EVAbeforeCON	acq_US_unple_masked	acq1_masked	1	27	0	0	300	300	0	0	446	46	0	1	0	0	0	1	blank2r.bmp	0	1	+	0	7	C3r.bmp	492	1	blank2r.bmp	786	1	BMVZ	786	1	blank2r.bmp	866	1	lasch	866	0	0	0	0	0	0	0	0	0	0	0	0	0	0	0	0	0	0	0	0	0	0	0	0	0	0	0	0	0	0	0	0	0
013019	08:58:40	09:00:37	115298	5.0.10.0	4_exp_EVA_AMP_AWA_CON	98	Rpleas_acq	Same	Rpleas	Bmasked	CS_B	2pleas	distractor2	EVAbeforeCON	acq_new_unple_masked	acq1_masked	1	28	0	0	300	300	0	0	483	46	0	1	0	0	0	1	blank2r.bmp	0	1	+	0	2	B2r.bmp	492	1	blank2r.bmp	786	8	C4r.bmp	786	1	blank2r.bmp	866	1	tot	866	0	0	0	0	0	0	0	0	0	0	0	0	0	0	0	0	0	0	0	0	0	0	0	0	0	0	0	0	0	0	0	0	0
013019	08:58:40	09:00:39	117324	5.0.10.0	4_exp_EVA_AMP_AWA_CON	98	Rpleas_acq	Same	Rpleas	Bmasked	CS_B	2pleas	distractor2	EVAbeforeCON	acq_new_unple_masked	acq1_masked	1	29	0	0	300	300	0	0	554	46	0	1	0	0	0	1	blank2r.bmp	0	1	+	0	6	C2r.bmp	492	1	blank2r.bmp	786	5	C1r.bmp	786	1	blank2r.bmp	866	6	hindern	866	0	0	0	0	0	0	0	0	0	0	0	0	0	0	0	0	0	0	0	0	0	0	0	0	0	0	0	0	0	0	0	0	0
013019	08:58:40	09:00:41	119283	5.0.10.0	4_exp_EVA_AMP_AWA_CON	98	Rpleas_acq	Same	Rpleas	Bmasked	CS_B	2pleas	distractor2	EVAbeforeCON	acq_new_unple_masked	acq1_masked	1	30	0	0	300	300	0	0	481	46	0	1	0	0	0	1	blank2r.bmp	0	1	+	0	4	B4r.bmp	492	1	blank2r.bmp	786	3	B3r.bmp	786	1	blank2r.bmp	866	4	eitel	866	0	0	0	0	0	0	0	0	0	0	0	0	0	0	0	0	0	0	0	0	0	0	0	0	0	0	0	0	0	0	0	0	0
013019	08:58:40	09:00:43	121269	5.0.10.0	4_exp_EVA_AMP_AWA_CON	98	Rpleas_acq	Same	Rpleas	Bmasked	CS_B	2pleas	distractor2	EVAbeforeCON	acq_new_pleas_masked	acq1_masked	1	31	0	0	300	300	0	0	514	50	0	1	0	0	0	1	blank2r.bmp	0	1	+	0	5	C1r.bmp	492	1	blank2r.bmp	786	8	C4r.bmp	786	1	blank2r.bmp	866	6	helfen	866	0	0	0	0	0	0	0	0	0	0	0	0	0	0	0	0	0	0	0	0	0	0	0	0	0	0	0	0	0	0	0	0	0
013019	08:58:40	09:00:45	123228	5.0.10.0	4_exp_EVA_AMP_AWA_CON	98	Rpleas_acq	Same	Rpleas	Bmasked	CS_B	2pleas	distractor2	EVAbeforeCON	acq_US_unple_masked	acq1_masked	1	32	0	0	300	300	0	0	467	46	0	1	0	0	0	1	blank2r.bmp	0	1	+	0	1	B1r.bmp	492	1	blank2r.bmp	786	1	BMVZ	786	1	blank2r.bmp	866	5	schroff	866	0	0	0	0	0	0	0	0	0	0	0	0	0	0	0	0	0	0	0	0	0	0	0	0	0	0	0	0	0	0	0	0	0
013019	08:58:40	09:00:47	125134	5.0.10.0	4_exp_EVA_AMP_AWA_CON	98	Rpleas_acq	Same	Rpleas	Bmasked	CS_B	2pleas	distractor2	EVAbeforeCON	acq_US_pleas_masked	acq1_masked	1	33	0	0	300	300	0	0	429	50	0	1	0	0	0	1	blank2r.bmp	0	1	+	0	2	B2r.bmp	492	1	blank2r.bmp	786	1	GKQX	786	1	blank2r.bmp	866	4	fair	866	0	0	0	0	0	0	0	0	0	0	0	0	0	0	0	0	0	0	0	0	0	0	0	0	0	0	0	0	0	0	0	0	0
013019	08:58:40	09:00:49	127200	5.0.10.0	4_exp_EVA_AMP_AWA_CON	98	Rpleas_acq	Same	Rpleas	Bmasked	CS_B	2pleas	distractor2	EVAbeforeCON	acq_US_unple_masked	acq1_masked	1	34	0	0	300	300	0	0	581	46	0	1	0	0	0	1	blank2r.bmp	0	1	+	0	3	B3r.bmp	492	1	blank2r.bmp	786	1	BMVZ	786	1	blank2r.bmp	866	6	tyrannisch	866	0	0	0	0	0	0	0	0	0	0	0	0	0	0	0	0	0	0	0	0	0	0	0	0	0	0	0	0	0	0	0	0	0
013019	08:58:40	09:00:51	129132	5.0.10.0	4_exp_EVA_AMP_AWA_CON	98	Rpleas_acq	Same	Rpleas	Bmasked	CS_B	2pleas	distractor2	EVAbeforeCON	acq_new_pleas_masked	acq1_masked	1	35	0	0	300	300	0	0	454	50	0	1	0	0	0	1	blank2r.bmp	0	1	+	0	1	B1r.bmp	492	1	blank2r.bmp	786	6	C2r.bmp	786	1	blank2r.bmp	866	5	freundlich	866	0	0	0	0	0	0	0	0	0	0	0	0	0	0	0	0	0	0	0	0	0	0	0	0	0	0	0	0	0	0	0	0	0
013019	08:58:40	09:00:53	131118	5.0.10.0	4_exp_EVA_AMP_AWA_CON	98	Rpleas_acq	Same	Rpleas	Bmasked	CS_B	2pleas	distractor2	EVAbeforeCON	acq_US_pleas_masked	acq1_masked	1	36	0	0	300	300	0	0	500	50	0	1	0	0	0	1	blank2r.bmp	0	1	+	0	5	C1r.bmp	492	1	blank2r.bmp	786	1	GKQX	786	1	blank2r.bmp	866	3	lachen	866	0	0	0	0	0	0	0	0	0	0	0	0	0	0	0	0	0	0	0	0	0	0	0	0	0	0	0	0	0	0	0	0	0
013019	08:58:40	09:01:26	164318	5.0.10.0	4_exp_EVA_AMP_AWA_CON	98	Rpleas_acq	Same	Rpleas	Bmasked	CS_B	2pleas	distractor2	EVAbeforeCON	acq_new_pleas_masked	acq2_masked	2	1	480	1	300	300	0	0	517	50	0	1	0	0	0	1	blank2r.bmp	0	1	+	0	8	C4r.bmp	492	1	blank2r.bmp	786	5	C1r.bmp	786	1	blank2r.bmp	866	1	treu	866	1	!	1319	1	!	1412	0	0	0	0	0	0	0	0	0	0	0	0	0	0	0	0	0	0	0	0	0	0	0	0	0	0	0
013019	08:58:40	09:01:28	166570	5.0.10.0	4_exp_EVA_AMP_AWA_CON	98	Rpleas_acq	Same	Rpleas	Bmasked	CS_B	2pleas	distractor2	EVAbeforeCON	acq_new_pleas_masked	acq2_masked	2	2	480	1	300	300	0	0	455	50	0	1	0	0	0	1	blank2r.bmp	0	1	+	0	6	C2r.bmp	492	1	blank2r.bmp	786	2	B2r.bmp	786	1	blank2r.bmp	866	2	schön	866	1	!	1319	1	!	1359	0	0	0	0	0	0	0	0	0	0	0	0	0	0	0	0	0	0	0	0	0	0	0	0	0	0	0
013019	08:58:40	09:01:31	168809	5.0.10.0	4_exp_EVA_AMP_AWA_CON	98	Rpleas_acq	Same	Rpleas	Bmasked	CS_B	2pleas	distractor2	EVAbeforeCON	acq_US_unple_masked	acq2_masked	2	3	480	1	300	300	0	0	435	46	0	1	0	0	0	1	blank2r.bmp	0	1	+	0	4	B4r.bmp	492	1	blank2r.bmp	786	1	BMVZ	786	1	blank2r.bmp	866	3	leiden	866	1	!	1319	1	!	1332	0	0	0	0	0	0	0	0	0	0	0	0	0	0	0	0	0	0	0	0	0	0	0	0	0	0	0
013019	08:58:40	09:01:33	171208	5.0.10.0	4_exp_EVA_AMP_AWA_CON	98	Rpleas_acq	Same	Rpleas	Bmasked	CS_B	2pleas	distractor2	EVAbeforeCON	acq_new_unple_masked	acq2_masked	2	4	480	0	300	300	0	0	406	50	0	0	0	0	0	1	blank2r.bmp	0	1	+	0	7	C3r.bmp	492	1	blank2r.bmp	786	3	B3r.bmp	786	1	blank2r.bmp	866	5	fanatisch	866	1	FEHLER	1612	1	!	-1	1	!	-1	0	0	0	0	0	0	0	0	0	0	0	0	0	0	0	0	0	0	0	0	0	0	0	0
013019	08:58:40	09:01:35	173607	5.0.10.0	4_exp_EVA_AMP_AWA_CON	98	Rpleas_acq	Same	Rpleas	Bmasked	CS_B	2pleas	distractor2	EVAbeforeCON	acq_new_pleas_masked	acq2_masked	2	5	480	0	300	300	0	0	839	50	0	1	0	0	0	1	blank2r.bmp	0	1	+	0	3	B3r.bmp	492	1	blank2r.bmp	786	7	C3r.bmp	786	1	blank2r.bmp	866	4	ehrlich	866	1	!	1319	1	!	-1	0	0	0	0	0	0	0	0	0	0	0	0	0	0	0	0	0	0	0	0	0	0	0	0	0	0	0
013019	08:58:40	09:01:38	176113	5.0.10.0	4_exp_EVA_AMP_AWA_CON	98	Rpleas_acq	Same	Rpleas	Bmasked	CS_B	2pleas	distractor2	EVAbeforeCON	acq_new_unple_masked	acq2_masked	2	6	480	1	300	300	0	0	491	50	0	0	0	0	0	1	blank2r.bmp	0	1	+	0	1	B1r.bmp	492	1	blank2r.bmp	786	4	B4r.bmp	786	1	blank2r.bmp	866	3	rächen	866	1	FEHLER	1705	1	!	1319	1	!	1386	0	0	0	0	0	0	0	0	0	0	0	0	0	0	0	0	0	0	0	0	0	0	0	0
013019	08:58:40	09:01:40	178139	5.0.10.0	4_exp_EVA_AMP_AWA_CON	98	Rpleas_acq	Same	Rpleas	Bmasked	CS_B	2pleas	distractor2	EVAbeforeCON	acq_US_pleas_masked	acq2_masked	2	7	480	1	300	300	0	0	432	50	0	1	0	0	0	1	blank2r.bmp	0	1	+	0	5	C1r.bmp	492	1	blank2r.bmp	786	1	GKQX	786	1	blank2r.bmp	866	2	spielen	866	1	!	1319	1	!	1332	0	0	0	0	0	0	0	0	0	0	0	0	0	0	0	0	0	0	0	0	0	0	0	0	0	0	0
013019	08:58:40	09:01:42	180365	5.0.10.0	4_exp_EVA_AMP_AWA_CON	98	Rpleas_acq	Same	Rpleas	Bmasked	CS_B	2pleas	distractor2	EVAbeforeCON	acq_US_unple_masked	acq2_masked	2	8	480	1	300	300	0	0	426	46	0	1	0	0	0	1	blank2r.bmp	0	1	+	0	7	C3r.bmp	492	1	blank2r.bmp	786	1	BMVZ	786	1	blank2r.bmp	866	2	strafen	866	1	!	1319	1	!	1332	0	0	0	0	0	0	0	0	0	0	0	0	0	0	0	0	0	0	0	0	0	0	0	0	0	0	0
013019	08:58:40	09:01:44	182617	5.0.10.0	4_exp_EVA_AMP_AWA_CON	98	Rpleas_acq	Same	Rpleas	Bmasked	CS_B	2pleas	distractor2	EVAbeforeCON	acq_new_unple_masked	acq2_masked	2	9	480	1	300	300	0	0	461	46	0	1	0	0	0	1	blank2r.bmp	0	1	+	0	2	B2r.bmp	492	1	blank2r.bmp	786	1	B1r.bmp	786	1	blank2r.bmp	866	2	schlecht	866	1	!	1319	1	!	1359	0	0	0	0	0	0	0	0	0	0	0	0	0	0	0	0	0	0	0	0	0	0	0	0	0	0	0
013019	08:58:40	09:01:46	184683	5.0.10.0	4_exp_EVA_AMP_AWA_CON	98	Rpleas_acq	Same	Rpleas	Bmasked	CS_B	2pleas	distractor2	EVAbeforeCON	acq_US_pleas_masked	acq2_masked	2	10	480	0	300	300	0	0	299	50	0	1	0	0	0	1	blank2r.bmp	0	1	+	0	8	C4r.bmp	492	1	blank2r.bmp	786	1	GKQX	786	1	blank2r.bmp	866	5	schlau	866	1	!	-1	1	!	-1	0	0	0	0	0	0	0	0	0	0	0	0	0	0	0	0	0	0	0	0	0	0	0	0	0	0	0
013019	08:58:40	09:01:49	186962	5.0.10.0	4_exp_EVA_AMP_AWA_CON	98	Rpleas_acq	Same	Rpleas	Bmasked	CS_B	2pleas	distractor2	EVAbeforeCON	acq_US_unple_masked	acq2_masked	2	11	480	1	300	300	0	0	470	46	0	1	0	0	0	1	blank2r.bmp	0	1	+	0	4	B4r.bmp	492	1	blank2r.bmp	786	1	BMVZ	786	1	blank2r.bmp	866	4	faul	866	1	!	1319	1	!	1372	0	0	0	0	0	0	0	0	0	0	0	0	0	0	0	0	0	0	0	0	0	0	0	0	0	0	0
013019	08:58:40	09:01:51	189188	5.0.10.0	4_exp_EVA_AMP_AWA_CON	98	Rpleas_acq	Same	Rpleas	Bmasked	CS_B	2pleas	distractor2	EVAbeforeCON	acq_US_pleas_masked	acq2_masked	2	12	480	1	300	300	0	0	431	50	0	1	0	0	0	1	blank2r.bmp	0	1	+	0	6	C2r.bmp	492	1	blank2r.bmp	786	1	GKQX	786	1	blank2r.bmp	866	1	loyal	866	1	!	1319	1	!	1332	0	0	0	0	0	0	0	0	0	0	0	0	0	0	0	0	0	0	0	0	0	0	0	0	0	0	0
013019	08:58:40	09:01:53	191547	5.0.10.0	4_exp_EVA_AMP_AWA_CON	98	Rpleas_acq	Same	Rpleas	Bmasked	CS_B	2pleas	distractor2	EVAbeforeCON	acq_US_pleas_masked	acq2_masked	2	13	480	0	300	300	0	0	369	46	0	0	0	0	0	1	blank2r.bmp	0	1	+	0	3	B3r.bmp	492	1	blank2r.bmp	786	1	GKQX	786	1	blank2r.bmp	866	2	spielen	866	1	FEHLER	1572	1	!	-1	1	!	-1	0	0	0	0	0	0	0	0	0	0	0	0	0	0	0	0	0	0	0	0	0	0	0	0
013019	08:58:40	09:01:55	193599	5.0.10.0	4_exp_EVA_AMP_AWA_CON	98	Rpleas_acq	Same	Rpleas	Bmasked	CS_B	2pleas	distractor2	EVAbeforeCON	acq_US_unple_masked	acq2_masked	2	14	480	1	300	300	0	0	478	46	0	1	0	0	0	1	blank2r.bmp	0	1	+	0	8	C4r.bmp	492	1	blank2r.bmp	786	1	BMVZ	786	1	blank2r.bmp	866	4	faul	866	1	!	1319	1	!	1372	0	0	0	0	0	0	0	0	0	0	0	0	0	0	0	0	0	0	0	0	0	0	0	0	0	0	0
013019	08:58:40	09:01:58	196011	5.0.10.0	4_exp_EVA_AMP_AWA_CON	98	Rpleas_acq	Same	Rpleas	Bmasked	CS_B	2pleas	distractor2	EVAbeforeCON	acq_US_unple_masked	acq2_masked	2	15	480	0	300	300	0	0	640	46	0	1	0	0	0	1	blank2r.bmp	0	1	+	0	4	B4r.bmp	492	1	blank2r.bmp	786	1	BMVZ	786	1	blank2r.bmp	866	1	lasch	866	1	!	1319	1	!	-1	0	0	0	0	0	0	0	0	0	0	0	0	0	0	0	0	0	0	0	0	0	0	0	0	0	0	0
013019	08:58:40	09:02:00	198211	5.0.10.0	4_exp_EVA_AMP_AWA_CON	98	Rpleas_acq	Same	Rpleas	Bmasked	CS_B	2pleas	distractor2	EVAbeforeCON	acq_new_unple_masked	acq2_masked	2	16	480	0	300	300	0	0	401	46	0	1	0	0	0	1	blank2r.bmp	0	1	+	0	2	B2r.bmp	492	1	blank2r.bmp	786	6	C2r.bmp	786	1	blank2r.bmp	866	2	schlecht	866	1	!	-1	1	!	-1	0	0	0	0	0	0	0	0	0	0	0	0	0	0	0	0	0	0	0	0	0	0	0	0	0	0	0
013019	08:58:40	09:02:02	200543	5.0.10.0	4_exp_EVA_AMP_AWA_CON	98	Rpleas_acq	Same	Rpleas	Bmasked	CS_B	2pleas	distractor2	EVAbeforeCON	acq_US_unple_masked	acq2_masked	2	17	480	1	300	300	0	0	510	46	0	1	0	0	0	1	blank2r.bmp	0	1	+	0	5	C1r.bmp	492	1	blank2r.bmp	786	1	BMVZ	786	1	blank2r.bmp	866	2	strafen	866	1	!	1319	1	!	1412	0	0	0	0	0	0	0	0	0	0	0	0	0	0	0	0	0	0	0	0	0	0	0	0	0	0	0
013019	08:58:40	09:02:05	202835	5.0.10.0	4_exp_EVA_AMP_AWA_CON	98	Rpleas_acq	Same	Rpleas	Bmasked	CS_B	2pleas	distractor2	EVAbeforeCON	acq_US_pleas_masked	acq2_masked	2	18	480	1	300	300	0	0	500	50	0	1	0	0	0	1	blank2r.bmp	0	1	+	0	6	C2r.bmp	492	1	blank2r.bmp	786	1	GKQX	786	1	blank2r.bmp	866	4	fair	866	1	!	1319	1	!	1399	0	0	0	0	0	0	0	0	0	0	0	0	0	0	0	0	0	0	0	0	0	0	0	0	0	0	0
013019	08:58:40	09:02:07	205154	5.0.10.0	4_exp_EVA_AMP_AWA_CON	98	Rpleas_acq	Same	Rpleas	Bmasked	CS_B	2pleas	distractor2	EVAbeforeCON	acq_new_unple_masked	acq2_masked	2	19	480	1	300	300	0	0	519	46	0	1	0	0	0	1	blank2r.bmp	0	1	+	0	1	B1r.bmp	492	1	blank2r.bmp	786	7	C3r.bmp	786	1	blank2r.bmp	866	6	hindern	866	1	!	1319	1	!	1426	0	0	0	0	0	0	0	0	0	0	0	0	0	0	0	0	0	0	0	0	0	0	0	0	0	0	0
013019	08:58:40	09:02:09	207380	5.0.10.0	4_exp_EVA_AMP_AWA_CON	98	Rpleas_acq	Same	Rpleas	Bmasked	CS_B	2pleas	distractor2	EVAbeforeCON	acq_new_pleas_masked	acq2_masked	2	20	480	1	300	300	0	0	437	50	0	1	0	0	0	1	blank2r.bmp	0	1	+	0	7	C3r.bmp	492	1	blank2r.bmp	786	2	B2r.bmp	786	1	blank2r.bmp	866	5	freundlich	866	1	!	1319	1	!	1332	0	0	0	0	0	0	0	0	0	0	0	0	0	0	0	0	0	0	0	0	0	0	0	0	0	0	0
013019	08:58:40	09:02:12	209779	5.0.10.0	4_exp_EVA_AMP_AWA_CON	98	Rpleas_acq	Same	Rpleas	Bmasked	CS_B	2pleas	distractor2	EVAbeforeCON	acq_new_pleas_masked	acq2_masked	2	21	480	0	300	300	0	0	397	46	0	0	0	0	0	1	blank2r.bmp	0	1	+	0	6	C2r.bmp	492	1	blank2r.bmp	786	4	B4r.bmp	786	1	blank2r.bmp	866	2	schön	866	1	FEHLER	1599	1	!	-1	1	!	-1	0	0	0	0	0	0	0	0	0	0	0	0	0	0	0	0	0	0	0	0	0	0	0	0
013019	08:58:40	09:02:14	211911	5.0.10.0	4_exp_EVA_AMP_AWA_CON	98	Rpleas_acq	Same	Rpleas	Bmasked	CS_B	2pleas	distractor2	EVAbeforeCON	acq_US_pleas_masked	acq2_masked	2	22	480	0	300	300	0	0	559	50	0	1	0	0	0	1	blank2r.bmp	0	1	+	0	1	B1r.bmp	492	1	blank2r.bmp	786	1	GKQX	786	1	blank2r.bmp	866	6	tolerant	866	1	!	1319	1	!	-1	0	0	0	0	0	0	0	0	0	0	0	0	0	0	0	0	0	0	0	0	0	0	0	0	0	0	0
013019	08:58:40	09:02:16	214284	5.0.10.0	4_exp_EVA_AMP_AWA_CON	98	Rpleas_acq	Same	Rpleas	Bmasked	CS_B	2pleas	distractor2	EVAbeforeCON	acq_new_pleas_masked	acq2_masked	2	23	480	0	300	300	0	0	598	50	0	1	0	0	0	1	blank2r.bmp	0	1	+	0	7	C3r.bmp	492	1	blank2r.bmp	786	1	B1r.bmp	786	1	blank2r.bmp	866	6	helfen	866	1	!	1319	1	!	-1	0	0	0	0	0	0	0	0	0	0	0	0	0	0	0	0	0	0	0	0	0	0	0	0	0	0	0
013019	08:58:40	09:02:18	216430	5.0.10.0	4_exp_EVA_AMP_AWA_CON	98	Rpleas_acq	Same	Rpleas	Bmasked	CS_B	2pleas	distractor2	EVAbeforeCON	acq_new_unple_masked	acq2_masked	2	24	480	0	300	300	0	0	359	46	0	1	0	0	0	1	blank2r.bmp	0	1	+	0	4	B4r.bmp	492	1	blank2r.bmp	786	5	C1r.bmp	786	1	blank2r.bmp	866	4	eitel	866	1	!	-1	1	!	-1	0	0	0	0	0	0	0	0	0	0	0	0	0	0	0	0	0	0	0	0	0	0	0	0	0	0	0
013019	08:58:40	09:02:21	218829	5.0.10.0	4_exp_EVA_AMP_AWA_CON	98	Rpleas_acq	Same	Rpleas	Bmasked	CS_B	2pleas	distractor2	EVAbeforeCON	acq_US_pleas_masked	acq2_masked	2	25	480	0	300	300	0	0	608	50	0	1	0	0	0	1	blank2r.bmp	0	1	+	0	2	B2r.bmp	492	1	blank2r.bmp	786	1	GKQX	786	1	blank2r.bmp	866	3	lachen	866	1	!	1319	1	!	-1	0	0	0	0	0	0	0	0	0	0	0	0	0	0	0	0	0	0	0	0	0	0	0	0	0	0	0
013019	08:58:40	09:02:23	220988	5.0.10.0	4_exp_EVA_AMP_AWA_CON	98	Rpleas_acq	Same	Rpleas	Bmasked	CS_B	2pleas	distractor2	EVAbeforeCON	acq_new_unple_masked	acq2_masked	2	26	480	0	300	300	0	0	382	46	0	1	0	0	0	1	blank2r.bmp	0	1	+	0	5	C1r.bmp	492	1	blank2r.bmp	786	8	C4r.bmp	786	1	blank2r.bmp	866	1	tot	866	1	!	-1	1	!	-1	0	0	0	0	0	0	0	0	0	0	0	0	0	0	0	0	0	0	0	0	0	0	0	0	0	0	0
013019	08:58:40	09:02:25	223400	5.0.10.0	4_exp_EVA_AMP_AWA_CON	98	Rpleas_acq	Same	Rpleas	Bmasked	CS_B	2pleas	distractor2	EVAbeforeCON	acq_US_pleas_masked	acq2_masked	2	27	480	0	300	300	0	0	636	50	0	1	0	0	0	1	blank2r.bmp	0	1	+	0	3	B3r.bmp	492	1	blank2r.bmp	786	1	GKQX	786	1	blank2r.bmp	866	5	schlau	866	1	!	1319	1	!	-1	0	0	0	0	0	0	0	0	0	0	0	0	0	0	0	0	0	0	0	0	0	0	0	0	0	0	0
013019	08:58:40	09:02:28	226026	5.0.10.0	4_exp_EVA_AMP_AWA_CON	98	Rpleas_acq	Same	Rpleas	Bmasked	CS_B	2pleas	distractor2	EVAbeforeCON	acq_new_unple_masked	acq2_masked	2	28	480	0	300	300	0	0	623	50	0	0	0	0	0	1	blank2r.bmp	0	1	+	0	8	C4r.bmp	492	1	blank2r.bmp	786	3	B3r.bmp	786	1	blank2r.bmp	866	5	fanatisch	866	1	FEHLER	1825	1	!	1319	1	!	-1	0	0	0	0	0	0	0	0	0	0	0	0	0	0	0	0	0	0	0	0	0	0	0	0
013019	08:58:40	09:02:30	228291	5.0.10.0	4_exp_EVA_AMP_AWA_CON	98	Rpleas_acq	Same	Rpleas	Bmasked	CS_B	2pleas	distractor2	EVAbeforeCON	acq_new_pleas_masked	acq2_masked	2	29	480	1	300	300	0	0	473	46	0	0	0	0	0	1	blank2r.bmp	0	1	+	0	5	C1r.bmp	492	1	blank2r.bmp	786	6	C2r.bmp	786	1	blank2r.bmp	866	4	ehrlich	866	1	FEHLER	1692	1	!	1319	1	!	1372	0	0	0	0	0	0	0	0	0	0	0	0	0	0	0	0	0	0	0	0	0	0	0	0
013019	08:58:40	09:02:32	230224	5.0.10.0	4_exp_EVA_AMP_AWA_CON	98	Rpleas_acq	Same	Rpleas	Bmasked	CS_B	2pleas	distractor2	EVAbeforeCON	acq_US_pleas_masked	acq2_masked	2	30	480	0	300	300	0	0	384	50	0	1	0	0	0	1	blank2r.bmp	0	1	+	0	1	B1r.bmp	492	1	blank2r.bmp	786	1	GKQX	786	1	blank2r.bmp	866	1	loyal	866	1	!	-1	1	!	-1	0	0	0	0	0	0	0	0	0	0	0	0	0	0	0	0	0	0	0	0	0	0	0	0	0	0	0
013019	08:58:40	09:02:34	232410	5.0.10.0	4_exp_EVA_AMP_AWA_CON	98	Rpleas_acq	Same	Rpleas	Bmasked	CS_B	2pleas	distractor2	EVAbeforeCON	acq_US_unple_masked	acq2_masked	2	31	480	0	300	300	0	0	399	46	0	1	0	0	0	1	blank2r.bmp	0	1	+	0	4	B4r.bmp	492	1	blank2r.bmp	786	1	BMVZ	786	1	blank2r.bmp	866	5	schroff	866	1	!	-1	1	!	-1	0	0	0	0	0	0	0	0	0	0	0	0	0	0	0	0	0	0	0	0	0	0	0	0	0	0	0
013019	08:58:40	09:02:37	234769	5.0.10.0	4_exp_EVA_AMP_AWA_CON	98	Rpleas_acq	Same	Rpleas	Bmasked	CS_B	2pleas	distractor2	EVAbeforeCON	acq_new_pleas_masked	acq2_masked	2	32	480	0	300	300	0	0	573	50	0	1	0	0	0	1	blank2r.bmp	0	1	+	0	3	B3r.bmp	492	1	blank2r.bmp	786	4	B4r.bmp	786	1	blank2r.bmp	866	3	retten	866	1	!	1319	1	!	-1	0	0	0	0	0	0	0	0	0	0	0	0	0	0	0	0	0	0	0	0	0	0	0	0	0	0	0
013019	08:58:40	09:02:39	237181	5.0.10.0	4_exp_EVA_AMP_AWA_CON	98	Rpleas_acq	Same	Rpleas	Bmasked	CS_B	2pleas	distractor2	EVAbeforeCON	acq_US_unple_masked	acq2_masked	2	33	480	0	300	300	0	0	637	46	0	1	0	0	0	1	blank2r.bmp	0	1	+	0	8	C4r.bmp	492	1	blank2r.bmp	786	1	BMVZ	786	1	blank2r.bmp	866	6	tyrannisch	866	1	!	1319	1	!	-1	0	0	0	0	0	0	0	0	0	0	0	0	0	0	0	0	0	0	0	0	0	0	0	0	0	0	0
013019	08:58:40	09:02:41	239274	5.0.10.0	4_exp_EVA_AMP_AWA_CON	98	Rpleas_acq	Same	Rpleas	Bmasked	CS_B	2pleas	distractor2	EVAbeforeCON	acq_new_pleas_masked	acq2_masked	2	34	480	0	300	300	0	0	312	50	0	1	0	0	0	1	blank2r.bmp	0	1	+	0	2	B2r.bmp	492	1	blank2r.bmp	786	7	C3r.bmp	786	1	blank2r.bmp	866	1	treu	866	1	!	-1	1	!	-1	0	0	0	0	0	0	0	0	0	0	0	0	0	0	0	0	0	0	0	0	0	0	0	0	0	0	0
013019	08:58:40	09:02:43	241646	5.0.10.0	4_exp_EVA_AMP_AWA_CON	98	Rpleas_acq	Same	Rpleas	Bmasked	CS_B	2pleas	distractor2	EVAbeforeCON	acq_US_unple_masked	acq2_masked	2	35	480	0	300	300	0	0	364	50	0	0	0	0	0	1	blank2r.bmp	0	1	+	0	6	C2r.bmp	492	1	blank2r.bmp	786	1	BMVZ	786	1	blank2r.bmp	866	3	leiden	866	1	FEHLER	1572	1	!	-1	1	!	-1	0	0	0	0	0	0	0	0	0	0	0	0	0	0	0	0	0	0	0	0	0	0	0	0
013019	08:58:40	09:02:45	243725	5.0.10.0	4_exp_EVA_AMP_AWA_CON	98	Rpleas_acq	Same	Rpleas	Bmasked	CS_B	2pleas	distractor2	EVAbeforeCON	acq_new_unple_masked	acq2_masked	2	36	480	0	300	300	0	0	300	50	0	0	0	0	0	1	blank2r.bmp	0	1	+	0	7	C3r.bmp	492	1	blank2r.bmp	786	8	C4r.bmp	786	1	blank2r.bmp	866	3	rächen	866	1	FEHLER	1506	1	!	-1	1	!	-1	0	0	0	0	0	0	0	0	0	0	0	0	0	0	0	0	0	0	0	0	0	0	0	0
013019	08:58:40	09:02:59	257039	5.0.10.0	4_exp_EVA_AMP_AWA_CON	98	Rpleas_acq	Same	Rpleas	Bmasked	CS_B	2pleas	distractor2	EVAbeforeCON	acq_US_pleas_masked	acq3_masked	3	1	453	1	300	300	0	0	462	50	0	1	0	0	0	1	blank2r.bmp	0	1	+	0	6	C2r.bmp	492	1	blank2r.bmp	786	1	GKQX	786	1	blank2r.bmp	866	1	loyal	866	1	!	1292	1	!	1359	0	0	0	0	0	0	0	0	0	0	0	0	0	0	0	0	0	0	0	0	0	0	0	0	0	0	0
013019	08:58:40	09:03:01	259372	5.0.10.0	4_exp_EVA_AMP_AWA_CON	98	Rpleas_acq	Same	Rpleas	Bmasked	CS_B	2pleas	distractor2	EVAbeforeCON	acq_US_unple_masked	acq3_masked	3	2	453	0	300	300	0	0	561	46	0	1	0	0	0	1	blank2r.bmp	0	1	+	0	5	C1r.bmp	492	1	blank2r.bmp	786	1	BMVZ	786	1	blank2r.bmp	866	5	schroff	866	1	!	1292	1	!	-1	0	0	0	0	0	0	0	0	0	0	0	0	0	0	0	0	0	0	0	0	0	0	0	0	0	0	0
013019	08:58:40	09:03:03	261651	5.0.10.0	4_exp_EVA_AMP_AWA_CON	98	Rpleas_acq	Same	Rpleas	Bmasked	CS_B	2pleas	distractor2	EVAbeforeCON	acq_US_unple_masked	acq3_masked	3	3	453	0	300	300	0	0	276	50	0	0	0	0	0	1	blank2r.bmp	0	1	+	0	2	B2r.bmp	492	1	blank2r.bmp	786	1	BMVZ	786	1	blank2r.bmp	866	2	strafen	866	1	FEHLER	1479	1	!	-1	1	!	-1	0	0	0	0	0	0	0	0	0	0	0	0	0	0	0	0	0	0	0	0	0	0	0	0
013019	08:58:40	09:03:05	263450	5.0.10.0	4_exp_EVA_AMP_AWA_CON	98	Rpleas_acq	Same	Rpleas	Bmasked	CS_B	2pleas	distractor2	EVAbeforeCON	acq_US_pleas_masked	acq3_masked	3	4	453	0	300	300	0	0	239	50	0	1	0	0	0	1	blank2r.bmp	0	1	+	0	4	B4r.bmp	492	1	blank2r.bmp	786	1	GKQX	786	1	blank2r.bmp	866	4	fair	866	1	!	-1	1	!	-1	0	0	0	0	0	0	0	0	0	0	0	0	0	0	0	0	0	0	0	0	0	0	0	0	0	0	0
013019	08:58:40	09:03:08	265863	5.0.10.0	4_exp_EVA_AMP_AWA_CON	98	Rpleas_acq	Same	Rpleas	Bmasked	CS_B	2pleas	distractor2	EVAbeforeCON	acq_US_pleas_masked	acq3_masked	3	5	453	0	300	300	0	0	635	50	0	1	0	0	0	1	blank2r.bmp	0	1	+	0	3	B3r.bmp	492	1	blank2r.bmp	786	1	GKQX	786	1	blank2r.bmp	866	3	lachen	866	1	!	1292	1	!	-1	0	0	0	0	0	0	0	0	0	0	0	0	0	0	0	0	0	0	0	0	0	0	0	0	0	0	0
013019	08:58:40	09:03:10	268182	5.0.10.0	4_exp_EVA_AMP_AWA_CON	98	Rpleas_acq	Same	Rpleas	Bmasked	CS_B	2pleas	distractor2	EVAbeforeCON	acq_US_unple_masked	acq3_masked	3	6	453	0	300	300	0	0	317	50	0	0	0	0	0	1	blank2r.bmp	0	1	+	0	1	B1r.bmp	492	1	blank2r.bmp	786	1	BMVZ	786	1	blank2r.bmp	866	1	lasch	866	1	FEHLER	1519	1	!	-1	1	!	-1	0	0	0	0	0	0	0	0	0	0	0	0	0	0	0	0	0	0	0	0	0	0	0	0
013019	08:58:40	09:03:12	270207	5.0.10.0	4_exp_EVA_AMP_AWA_CON	98	Rpleas_acq	Same	Rpleas	Bmasked	CS_B	2pleas	distractor2	EVAbeforeCON	acq_US_pleas_masked	acq3_masked	3	7	453	1	300	300	0	0	451	50	0	1	0	0	0	1	blank2r.bmp	0	1	+	0	8	C4r.bmp	492	1	blank2r.bmp	786	1	GKQX	786	1	blank2r.bmp	866	2	spielen	866	1	!	1292	1	!	1346	0	0	0	0	0	0	0	0	0	0	0	0	0	0	0	0	0	0	0	0	0	0	0	0	0	0	0
013019	08:58:40	09:03:14	272700	5.0.10.0	4_exp_EVA_AMP_AWA_CON	98	Rpleas_acq	Same	Rpleas	Bmasked	CS_B	2pleas	distractor2	EVAbeforeCON	acq_US_pleas_masked	acq3_masked	3	8	453	1	300	300	0	0	483	46	0	0	0	0	0	1	blank2r.bmp	0	1	+	0	7	C3r.bmp	492	1	blank2r.bmp	786	1	GKQX	786	1	blank2r.bmp	866	5	schlau	866	1	FEHLER	1705	1	!	1292	1	!	1386	0	0	0	0	0	0	0	0	0	0	0	0	0	0	0	0	0	0	0	0	0	0	0	0
013019	08:58:40	09:03:17	274739	5.0.10.0	4_exp_EVA_AMP_AWA_CON	98	Rpleas_acq	Same	Rpleas	Bmasked	CS_B	2pleas	distractor2	EVAbeforeCON	acq_US_unple_masked	acq3_masked	3	9	453	1	300	300	0	0	456	46	0	1	0	0	0	1	blank2r.bmp	0	1	+	0	2	B2r.bmp	492	1	blank2r.bmp	786	1	BMVZ	786	1	blank2r.bmp	866	4	faul	866	1	!	1292	1	!	1359	0	0	0	0	0	0	0	0	0	0	0	0	0	0	0	0	0	0	0	0	0	0	0	0	0	0	0
013019	08:58:40	09:03:19	276858	5.0.10.0	4_exp_EVA_AMP_AWA_CON	98	Rpleas_acq	Same	Rpleas	Bmasked	CS_B	2pleas	distractor2	EVAbeforeCON	acq_US_pleas_masked	acq3_masked	3	10	453	0	300	300	0	0	355	50	0	1	0	0	0	1	blank2r.bmp	0	1	+	0	7	C3r.bmp	492	1	blank2r.bmp	786	1	GKQX	786	1	blank2r.bmp	866	6	tolerant	866	1	!	-1	1	!	-1	0	0	0	0	0	0	0	0	0	0	0	0	0	0	0	0	0	0	0	0	0	0	0	0	0	0	0
013019	08:58:40	09:03:21	279177	5.0.10.0	4_exp_EVA_AMP_AWA_CON	98	Rpleas_acq	Same	Rpleas	Bmasked	CS_B	2pleas	distractor2	EVAbeforeCON	acq_US_unple_masked	acq3_masked	3	11	453	1	300	300	0	0	505	46	0	1	0	0	0	1	blank2r.bmp	0	1	+	0	5	C1r.bmp	492	1	blank2r.bmp	786	1	BMVZ	786	1	blank2r.bmp	866	3	leiden	866	1	!	1292	1	!	1412	0	0	0	0	0	0	0	0	0	0	0	0	0	0	0	0	0	0	0	0	0	0	0	0	0	0	0
013019	08:58:40	09:03:23	281589	5.0.10.0	4_exp_EVA_AMP_AWA_CON	98	Rpleas_acq	Same	Rpleas	Bmasked	CS_B	2pleas	distractor2	EVAbeforeCON	acq_US_unple_masked	acq3_masked	3	12	453	1	300	300	0	0	399	50	0	0	0	0	0	1	blank2r.bmp	0	1	+	0	3	B3r.bmp	492	1	blank2r.bmp	786	1	BMVZ	786	1	blank2r.bmp	866	6	tyrannisch	866	1	FEHLER	1625	1	!	1292	1	!	1306	0	0	0	0	0	0	0	0	0	0	0	0	0	0	0	0	0	0	0	0	0	0	0	0
013019	08:58:40	09:03:25	283602	5.0.10.0	4_exp_EVA_AMP_AWA_CON	98	Rpleas_acq	Same	Rpleas	Bmasked	CS_B	2pleas	distractor2	EVAbeforeCON	acq_US_pleas_masked	acq3_masked	3	13	453	1	300	300	0	0	428	50	0	1	0	0	0	1	blank2r.bmp	0	1	+	0	6	C2r.bmp	492	1	blank2r.bmp	786	1	GKQX	786	1	blank2r.bmp	866	3	lachen	866	1	!	1292	1	!	1332	0	0	0	0	0	0	0	0	0	0	0	0	0	0	0	0	0	0	0	0	0	0	0	0	0	0	0
013019	08:58:40	09:03:28	285921	5.0.10.0	4_exp_EVA_AMP_AWA_CON	98	Rpleas_acq	Same	Rpleas	Bmasked	CS_B	2pleas	distractor2	EVAbeforeCON	acq_US_pleas_masked	acq3_masked	3	14	453	0	300	300	0	0	307	46	0	0	0	0	0	1	blank2r.bmp	0	1	+	0	4	B4r.bmp	492	1	blank2r.bmp	786	1	GKQX	786	1	blank2r.bmp	866	6	tolerant	866	1	FEHLER	1519	1	!	-1	1	!	-1	0	0	0	0	0	0	0	0	0	0	0	0	0	0	0	0	0	0	0	0	0	0	0	0
013019	08:58:40	09:03:30	288040	5.0.10.0	4_exp_EVA_AMP_AWA_CON	98	Rpleas_acq	Same	Rpleas	Bmasked	CS_B	2pleas	distractor2	EVAbeforeCON	acq_US_pleas_masked	acq3_masked	3	15	453	0	300	300	0	0	555	50	0	1	0	0	0	1	blank2r.bmp	0	1	+	0	1	B1r.bmp	492	1	blank2r.bmp	786	1	GKQX	786	1	blank2r.bmp	866	5	schlau	866	1	!	1292	1	!	-1	0	0	0	0	0	0	0	0	0	0	0	0	0	0	0	0	0	0	0	0	0	0	0	0	0	0	0
013019	08:58:40	09:03:32	290252	5.0.10.0	4_exp_EVA_AMP_AWA_CON	98	Rpleas_acq	Same	Rpleas	Bmasked	CS_B	2pleas	distractor2	EVAbeforeCON	acq_US_pleas_masked	acq3_masked	3	16	453	1	300	300	0	0	409	50	0	1	0	0	0	1	blank2r.bmp	0	1	+	0	8	C4r.bmp	492	1	blank2r.bmp	786	1	GKQX	786	1	blank2r.bmp	866	1	loyal	866	1	!	1292	1	!	1306	0	0	0	0	0	0	0	0	0	0	0	0	0	0	0	0	0	0	0	0	0	0	0	0	0	0	0
013019	08:58:40	09:03:34	292598	5.0.10.0	4_exp_EVA_AMP_AWA_CON	98	Rpleas_acq	Same	Rpleas	Bmasked	CS_B	2pleas	distractor2	EVAbeforeCON	acq_US_unple_masked	acq3_masked	3	17	453	0	300	300	0	0	354	50	0	0	0	0	0	1	blank2r.bmp	0	1	+	0	4	B4r.bmp	492	1	blank2r.bmp	786	1	BMVZ	786	1	blank2r.bmp	866	1	lasch	866	1	FEHLER	1559	1	!	-1	1	!	-1	0	0	0	0	0	0	0	0	0	0	0	0	0	0	0	0	0	0	0	0	0	0	0	0
013019	08:58:40	09:03:37	294837	5.0.10.0	4_exp_EVA_AMP_AWA_CON	98	Rpleas_acq	Same	Rpleas	Bmasked	CS_B	2pleas	distractor2	EVAbeforeCON	acq_US_unple_masked	acq3_masked	3	18	453	1	300	300	0	0	437	50	0	0	0	0	0	1	blank2r.bmp	0	1	+	0	3	B3r.bmp	492	1	blank2r.bmp	786	1	BMVZ	786	1	blank2r.bmp	866	3	leiden	866	1	FEHLER	1652	1	!	1292	1	!	1332	0	0	0	0	0	0	0	0	0	0	0	0	0	0	0	0	0	0	0	0	0	0	0	0
013019	08:58:40	09:03:39	296850	5.0.10.0	4_exp_EVA_AMP_AWA_CON	98	Rpleas_acq	Same	Rpleas	Bmasked	CS_B	2pleas	distractor2	EVAbeforeCON	acq_US_pleas_masked	acq3_masked	3	19	453	1	300	300	0	0	437	50	0	1	0	0	0	1	blank2r.bmp	0	1	+	0	1	B1r.bmp	492	1	blank2r.bmp	786	1	GKQX	786	1	blank2r.bmp	866	4	fair	866	1	!	1292	1	!	1332	0	0	0	0	0	0	0	0	0	0	0	0	0	0	0	0	0	0	0	0	0	0	0	0	0	0	0
013019	08:58:40	09:03:41	299102	5.0.10.0	4_exp_EVA_AMP_AWA_CON	98	Rpleas_acq	Same	Rpleas	Bmasked	CS_B	2pleas	distractor2	EVAbeforeCON	acq_US_unple_masked	acq3_masked	3	20	453	1	300	300	0	0	459	46	0	1	0	0	0	1	blank2r.bmp	0	1	+	0	6	C2r.bmp	492	1	blank2r.bmp	786	1	BMVZ	786	1	blank2r.bmp	866	5	schroff	866	1	!	1292	1	!	1359	0	0	0	0	0	0	0	0	0	0	0	0	0	0	0	0	0	0	0	0	0	0	0	0	0	0	0
013019	08:58:40	09:03:43	301355	5.0.10.0	4_exp_EVA_AMP_AWA_CON	98	Rpleas_acq	Same	Rpleas	Bmasked	CS_B	2pleas	distractor2	EVAbeforeCON	acq_US_unple_masked	acq3_masked	3	21	453	1	300	300	0	0	465	46	0	1	0	0	0	1	blank2r.bmp	0	1	+	0	8	C4r.bmp	492	1	blank2r.bmp	786	1	BMVZ	786	1	blank2r.bmp	866	2	strafen	866	1	!	1292	1	!	1359	0	0	0	0	0	0	0	0	0	0	0	0	0	0	0	0	0	0	0	0	0	0	0	0	0	0	0
013019	08:58:40	09:03:45	303634	5.0.10.0	4_exp_EVA_AMP_AWA_CON	98	Rpleas_acq	Same	Rpleas	Bmasked	CS_B	2pleas	distractor2	EVAbeforeCON	acq_US_unple_masked	acq3_masked	3	22	453	1	300	300	0	0	468	46	0	1	0	0	0	1	blank2r.bmp	0	1	+	0	5	C1r.bmp	492	1	blank2r.bmp	786	1	BMVZ	786	1	blank2r.bmp	866	6	tyrannisch	866	1	!	1292	1	!	1372	0	0	0	0	0	0	0	0	0	0	0	0	0	0	0	0	0	0	0	0	0	0	0	0	0	0	0
013019	08:58:40	09:03:48	305766	5.0.10.0	4_exp_EVA_AMP_AWA_CON	98	Rpleas_acq	Same	Rpleas	Bmasked	CS_B	2pleas	distractor2	EVAbeforeCON	acq_US_pleas_masked	acq3_masked	3	23	453	0	300	300	0	0	366	50	0	1	0	0	0	1	blank2r.bmp	0	1	+	0	7	C3r.bmp	492	1	blank2r.bmp	786	1	GKQX	786	1	blank2r.bmp	866	2	spielen	866	1	!	-1	1	!	-1	0	0	0	0	0	0	0	0	0	0	0	0	0	0	0	0	0	0	0	0	0	0	0	0	0	0	0
013019	08:58:40	09:03:50	308058	5.0.10.0	4_exp_EVA_AMP_AWA_CON	98	Rpleas_acq	Same	Rpleas	Bmasked	CS_B	2pleas	distractor2	EVAbeforeCON	acq_US_unple_masked	acq3_masked	3	24	453	1	300	300	0	0	480	46	0	1	0	0	0	1	blank2r.bmp	0	1	+	0	2	B2r.bmp	492	1	blank2r.bmp	786	1	BMVZ	786	1	blank2r.bmp	866	4	faul	866	1	!	1292	1	!	1386	0	0	0	0	0	0	0	0	0	0	0	0	0	0	0	0	0	0	0	0	0	0	0	0	0	0	0
013019	08:58:40	09:03:52	310271	5.0.10.0	4_exp_EVA_AMP_AWA_CON	98	Rpleas_acq	Same	Rpleas	Bmasked	CS_B	2pleas	distractor2	EVAbeforeCON	acq_US_pleas_masked	acq3_masked	3	25	453	1	300	300	0	0	417	50	0	1	0	0	0	1	blank2r.bmp	0	1	+	0	8	C4r.bmp	492	1	blank2r.bmp	786	1	GKQX	786	1	blank2r.bmp	866	3	lachen	866	1	!	1292	1	!	1319	0	0	0	0	0	0	0	0	0	0	0	0	0	0	0	0	0	0	0	0	0	0	0	0	0	0	0
013019	08:58:40	09:03:57	315509	5.0.10.0	4_exp_EVA_AMP_AWA_CON	98	Rpleas_acq	Same	Rpleas	Bmasked	CS_B	2pleas	distractor2	EVAbeforeCON	acq_US_pleas_masked	acq3_masked	3	26	453	0	300	300	0	0	3475	50	0	1	0	0	0	1	blank2r.bmp	0	1	+	0	3	B3r.bmp	492	1	blank2r.bmp	786	1	GKQX	786	1	blank2r.bmp	866	2	spielen	866	1	!	1292	1	!	-1	0	0	0	0	0	0	0	0	0	0	0	0	0	0	0	0	0	0	0	0	0	0	0	0	0	0	0
013019	08:58:40	09:04:00	317828	5.0.10.0	4_exp_EVA_AMP_AWA_CON	98	Rpleas_acq	Same	Rpleas	Bmasked	CS_B	2pleas	distractor2	EVAbeforeCON	acq_US_unple_masked	acq3_masked	3	27	453	1	300	300	0	0	509	46	0	1	0	0	0	1	blank2r.bmp	0	1	+	0	1	B1r.bmp	492	1	blank2r.bmp	786	1	BMVZ	786	1	blank2r.bmp	866	4	faul	866	1	!	1292	1	!	1412	0	0	0	0	0	0	0	0	0	0	0	0	0	0	0	0	0	0	0	0	0	0	0	0	0	0	0
013019	08:58:40	09:04:02	320173	5.0.10.0	4_exp_EVA_AMP_AWA_CON	98	Rpleas_acq	Same	Rpleas	Bmasked	CS_B	2pleas	distractor2	EVAbeforeCON	acq_US_unple_masked	acq3_masked	3	28	453	0	300	300	0	0	570	46	0	1	0	0	0	1	blank2r.bmp	0	1	+	0	7	C3r.bmp	492	1	blank2r.bmp	786	1	BMVZ	786	1	blank2r.bmp	866	1	lasch	866	1	!	1292	1	!	-1	0	0	0	0	0	0	0	0	0	0	0	0	0	0	0	0	0	0	0	0	0	0	0	0	0	0	0
013019	08:58:40	09:04:04	322599	5.0.10.0	4_exp_EVA_AMP_AWA_CON	98	Rpleas_acq	Same	Rpleas	Bmasked	CS_B	2pleas	distractor2	EVAbeforeCON	acq_US_pleas_masked	acq3_masked	3	29	453	1	300	300	0	0	407	46	0	0	0	0	0	1	blank2r.bmp	0	1	+	0	2	B2r.bmp	492	1	blank2r.bmp	786	1	GKQX	786	1	blank2r.bmp	866	6	tolerant	866	1	FEHLER	1625	1	!	1292	1	!	1306	0	0	0	0	0	0	0	0	0	0	0	0	0	0	0	0	0	0	0	0	0	0	0	0
013019	08:58:40	09:04:06	324598	5.0.10.0	4_exp_EVA_AMP_AWA_CON	98	Rpleas_acq	Same	Rpleas	Bmasked	CS_B	2pleas	distractor2	EVAbeforeCON	acq_US_pleas_masked	acq3_masked	3	30	453	1	300	300	0	0	416	50	0	1	0	0	0	1	blank2r.bmp	0	1	+	0	5	C1r.bmp	492	1	blank2r.bmp	786	1	GKQX	786	1	blank2r.bmp	866	5	schlau	866	1	!	1292	1	!	1319	0	0	0	0	0	0	0	0	0	0	0	0	0	0	0	0	0	0	0	0	0	0	0	0	0	0	0
013019	08:58:40	09:04:09	326904	5.0.10.0	4_exp_EVA_AMP_AWA_CON	98	Rpleas_acq	Same	Rpleas	Bmasked	CS_B	2pleas	distractor2	EVAbeforeCON	acq_US_unple_masked	acq3_masked	3	31	453	1	300	300	0	0	495	46	0	1	0	0	0	1	blank2r.bmp	0	1	+	0	4	B4r.bmp	492	1	blank2r.bmp	786	1	BMVZ	786	1	blank2r.bmp	866	5	schroff	866	1	!	1292	1	!	1399	0	0	0	0	0	0	0	0	0	0	0	0	0	0	0	0	0	0	0	0	0	0	0	0	0	0	0
013019	08:58:40	09:04:11	329130	5.0.10.0	4_exp_EVA_AMP_AWA_CON	98	Rpleas_acq	Same	Rpleas	Bmasked	CS_B	2pleas	distractor2	EVAbeforeCON	acq_US_unple_masked	acq3_masked	3	32	453	1	300	300	0	0	427	46	0	1	0	0	0	1	blank2r.bmp	0	1	+	0	6	C2r.bmp	492	1	blank2r.bmp	786	1	BMVZ	786	1	blank2r.bmp	866	2	strafen	866	1	!	1292	1	!	1332	0	0	0	0	0	0	0	0	0	0	0	0	0	0	0	0	0	0	0	0	0	0	0	0	0	0	0
013019	08:58:40	09:04:13	331595	5.0.10.0	4_exp_EVA_AMP_AWA_CON	98	Rpleas_acq	Same	Rpleas	Bmasked	CS_B	2pleas	distractor2	EVAbeforeCON	acq_US_unple_masked	acq3_masked	3	33	453	1	300	300	0	0	456	50	0	0	0	0	0	1	blank2r.bmp	0	1	+	0	6	C2r.bmp	492	1	blank2r.bmp	786	1	BMVZ	786	1	blank2r.bmp	866	3	leiden	866	1	FEHLER	1679	1	!	1292	1	!	1359	0	0	0	0	0	0	0	0	0	0	0	0	0	0	0	0	0	0	0	0	0	0	0	0
013019	08:58:40	09:04:15	333688	5.0.10.0	4_exp_EVA_AMP_AWA_CON	98	Rpleas_acq	Same	Rpleas	Bmasked	CS_B	2pleas	distractor2	EVAbeforeCON	acq_US_unple_masked	acq3_masked	3	34	453	0	300	300	0	0	536	46	0	1	0	0	0	1	blank2r.bmp	0	1	+	0	2	B2r.bmp	492	1	blank2r.bmp	786	1	BMVZ	786	1	blank2r.bmp	866	6	tyrannisch	866	1	!	1292	1	!	-1	0	0	0	0	0	0	0	0	0	0	0	0	0	0	0	0	0	0	0	0	0	0	0	0	0	0	0
013019	08:58:40	09:04:18	335980	5.0.10.0	4_exp_EVA_AMP_AWA_CON	98	Rpleas_acq	Same	Rpleas	Bmasked	CS_B	2pleas	distractor2	EVAbeforeCON	acq_US_pleas_masked	acq3_masked	3	35	453	0	300	300	0	0	287	46	0	0	0	0	0	1	blank2r.bmp	0	1	+	0	5	C1r.bmp	492	1	blank2r.bmp	786	1	GKQX	786	1	blank2r.bmp	866	4	fair	866	1	FEHLER	1492	1	!	-1	1	!	-1	0	0	0	0	0	0	0	0	0	0	0	0	0	0	0	0	0	0	0	0	0	0	0	0
013019	08:58:40	09:04:20	337899	5.0.10.0	4_exp_EVA_AMP_AWA_CON	98	Rpleas_acq	Same	Rpleas	Bmasked	CS_B	2pleas	distractor2	EVAbeforeCON	acq_US_pleas_masked	acq3_masked	3	36	453	0	300	300	0	0	350	50	0	1	0	0	0	1	blank2r.bmp	0	1	+	0	8	C4r.bmp	492	1	blank2r.bmp	786	1	GKQX	786	1	blank2r.bmp	866	1	loyal	866	1	!	-1	1	!	-1	0	0	0	0	0	0	0	0	0	0	0	0	0	0	0	0	0	0	0	0	0	0	0	0	0	0	0
013019	08:58:40	09:04:33	350854	5.0.10.0	4_exp_EVA_AMP_AWA_CON	98	Rpleas_acq	Same	Rpleas	Bmasked	CS_B	2pleas	distractor2	EVAbeforeCON	acq_US_pleas_masked	acq45_masked	4	1	400	1	300	300	0	0	416	50	0	1	0	0	0	1	blank2r.bmp	0	1	+	0	7	C3r.bmp	492	1	blank2r.bmp	786	1	GKQX	786	1	blank2r.bmp	866	1	loyal	866	1	!	1239	1	!	1319	0	0	0	0	0	0	0	0	0	0	0	0	0	0	0	0	0	0	0	0	0	0	0	0	0	0	0
013019	08:58:40	09:04:35	353053	5.0.10.0	4_exp_EVA_AMP_AWA_CON	98	Rpleas_acq	Same	Rpleas	Bmasked	CS_B	2pleas	distractor2	EVAbeforeCON	acq_US_pleas_masked	acq45_masked	4	2	400	1	300	300	0	0	409	50	0	1	0	0	0	1	blank2r.bmp	0	1	+	0	3	B3r.bmp	492	1	blank2r.bmp	786	1	GKQX	786	1	blank2r.bmp	866	5	schlau	866	1	!	1239	1	!	1306	0	0	0	0	0	0	0	0	0	0	0	0	0	0	0	0	0	0	0	0	0	0	0	0	0	0	0
013019	08:58:40	09:04:37	355266	5.0.10.0	4_exp_EVA_AMP_AWA_CON	98	Rpleas_acq	Same	Rpleas	Bmasked	CS_B	2pleas	distractor2	EVAbeforeCON	acq_US_pleas_masked	acq45_masked	4	3	400	1	300	300	0	0	409	50	0	1	0	0	0	1	blank2r.bmp	0	1	+	0	1	B1r.bmp	492	1	blank2r.bmp	786	1	GKQX	786	1	blank2r.bmp	866	2	spielen	866	1	!	1239	1	!	1306	0	0	0	0	0	0	0	0	0	0	0	0	0	0	0	0	0	0	0	0	0	0	0	0	0	0	0
013019	08:58:40	09:04:39	357438	5.0.10.0	4_exp_EVA_AMP_AWA_CON	98	Rpleas_acq	Same	Rpleas	Bmasked	CS_B	2pleas	distractor2	EVAbeforeCON	acq_US_unple_masked	acq45_masked	4	4	400	1	300	300	0	0	385	50	0	0	0	0	0	1	blank2r.bmp	0	1	+	0	4	B4r.bmp	492	1	blank2r.bmp	786	1	BMVZ	786	1	blank2r.bmp	866	4	faul	866	1	!	1239	1	!	1279	0	0	0	0	0	0	0	0	0	0	0	0	0	0	0	0	0	0	0	0	0	0	0	0	0	0	0
013019	08:58:40	09:04:41	359677	5.0.10.0	4_exp_EVA_AMP_AWA_CON	98	Rpleas_acq	Same	Rpleas	Bmasked	CS_B	2pleas	distractor2	EVAbeforeCON	acq_US_pleas_masked	acq45_masked	4	5	400	1	300	300	0	0	439	46	0	0	0	0	0	1	blank2r.bmp	0	1	+	0	2	B2r.bmp	492	1	blank2r.bmp	786	1	GKQX	786	1	blank2r.bmp	866	3	lachen	866	1	!	1239	1	!	1346	0	0	0	0	0	0	0	0	0	0	0	0	0	0	0	0	0	0	0	0	0	0	0	0	0	0	0
013019	08:58:40	09:04:44	361770	5.0.10.0	4_exp_EVA_AMP_AWA_CON	98	Rpleas_acq	Same	Rpleas	Bmasked	CS_B	2pleas	distractor2	EVAbeforeCON	acq_US_unple_masked	acq45_masked	4	6	400	0	300	300	0	0	326	50	0	0	0	0	0	1	blank2r.bmp	0	1	+	0	3	B3r.bmp	492	1	blank2r.bmp	786	1	BMVZ	786	1	blank2r.bmp	866	1	lasch	866	1	!	-1	1	!	-1	0	0	0	0	0	0	0	0	0	0	0	0	0	0	0	0	0	0	0	0	0	0	0	0	0	0	0
013019	08:58:40	09:04:46	363929	5.0.10.0	4_exp_EVA_AMP_AWA_CON	98	Rpleas_acq	Same	Rpleas	Bmasked	CS_B	2pleas	distractor2	EVAbeforeCON	acq_US_pleas_masked	acq45_masked	4	7	400	1	300	300	0	0	346	50	0	1	0	0	0	1	blank2r.bmp	0	1	+	0	6	C2r.bmp	492	1	blank2r.bmp	786	1	GKQX	786	1	blank2r.bmp	866	6	tolerant	866	1	!	1239	1	!	1252	0	0	0	0	0	0	0	0	0	0	0	0	0	0	0	0	0	0	0	0	0	0	0	0	0	0	0
013019	08:58:40	09:04:48	366181	5.0.10.0	4_exp_EVA_AMP_AWA_CON	98	Rpleas_acq	Same	Rpleas	Bmasked	CS_B	2pleas	distractor2	EVAbeforeCON	acq_US_pleas_masked	acq45_masked	4	8	400	0	300	300	0	0	482	50	0	1	0	0	0	1	blank2r.bmp	0	1	+	0	4	B4r.bmp	492	1	blank2r.bmp	786	1	GKQX	786	1	blank2r.bmp	866	4	fair	866	1	!	1239	1	!	-1	0	0	0	0	0	0	0	0	0	0	0	0	0	0	0	0	0	0	0	0	0	0	0	0	0	0	0
013019	08:58:40	09:04:50	368500	5.0.10.0	4_exp_EVA_AMP_AWA_CON	98	Rpleas_acq	Same	Rpleas	Bmasked	CS_B	2pleas	distractor2	EVAbeforeCON	acq_US_unple_masked	acq45_masked	4	9	400	0	300	300	0	0	536	46	0	1	0	0	0	1	blank2r.bmp	0	1	+	0	8	C4r.bmp	492	1	blank2r.bmp	786	1	BMVZ	786	1	blank2r.bmp	866	6	tyrannisch	866	1	!	1239	1	!	-1	0	0	0	0	0	0	0	0	0	0	0	0	0	0	0	0	0	0	0	0	0	0	0	0	0	0	0
013019	08:58:40	09:04:52	370593	5.0.10.0	4_exp_EVA_AMP_AWA_CON	98	Rpleas_acq	Same	Rpleas	Bmasked	CS_B	2pleas	distractor2	EVAbeforeCON	acq_US_unple_masked	acq45_masked	4	10	400	0	300	300	0	0	309	46	0	1	0	0	0	1	blank2r.bmp	0	1	+	0	5	C1r.bmp	492	1	blank2r.bmp	786	1	BMVZ	786	1	blank2r.bmp	866	5	schroff	866	1	!	-1	1	!	-1	0	0	0	0	0	0	0	0	0	0	0	0	0	0	0	0	0	0	0	0	0	0	0	0	0	0	0
013019	08:58:40	09:04:55	372818	5.0.10.0	4_exp_EVA_AMP_AWA_CON	98	Rpleas_acq	Same	Rpleas	Bmasked	CS_B	2pleas	distractor2	EVAbeforeCON	acq_US_unple_masked	acq45_masked	4	11	400	1	300	300	0	0	417	46	0	1	0	0	0	1	blank2r.bmp	0	1	+	0	7	C3r.bmp	492	1	blank2r.bmp	786	1	BMVZ	786	1	blank2r.bmp	866	2	strafen	866	1	!	1239	1	!	1319	0	0	0	0	0	0	0	0	0	0	0	0	0	0	0	0	0	0	0	0	0	0	0	0	0	0	0
013019	08:58:40	09:04:57	374991	5.0.10.0	4_exp_EVA_AMP_AWA_CON	98	Rpleas_acq	Same	Rpleas	Bmasked	CS_B	2pleas	distractor2	EVAbeforeCON	acq_US_pleas_masked	acq45_masked	4	12	400	1	300	300	0	0	363	46	0	0	0	0	0	1	blank2r.bmp	0	1	+	0	1	B1r.bmp	492	1	blank2r.bmp	786	1	GKQX	786	1	blank2r.bmp	866	3	lachen	866	1	!	1239	1	!	1266	0	0	0	0	0	0	0	0	0	0	0	0	0	0	0	0	0	0	0	0	0	0	0	0	0	0	0
013019	08:58:40	09:04:59	377177	5.0.10.0	4_exp_EVA_AMP_AWA_CON	98	Rpleas_acq	Same	Rpleas	Bmasked	CS_B	2pleas	distractor2	EVAbeforeCON	acq_US_unple_masked	acq45_masked	4	13	400	1	300	300	0	0	388	50	0	0	0	0	0	1	blank2r.bmp	0	1	+	0	3	B3r.bmp	492	1	blank2r.bmp	786	1	BMVZ	786	1	blank2r.bmp	866	3	leiden	866	1	!	1239	1	!	1292	0	0	0	0	0	0	0	0	0	0	0	0	0	0	0	0	0	0	0	0	0	0	0	0	0	0	0
013019	08:58:40	09:05:01	379549	5.0.10.0	4_exp_EVA_AMP_AWA_CON	98	Rpleas_acq	Same	Rpleas	Bmasked	CS_B	2pleas	distractor2	EVAbeforeCON	acq_US_pleas_masked	acq45_masked	4	14	400	0	300	300	0	0	609	50	0	1	0	0	0	1	blank2r.bmp	0	1	+	0	7	C3r.bmp	492	1	blank2r.bmp	786	1	GKQX	786	1	blank2r.bmp	866	1	loyal	866	1	!	1239	1	!	-1	0	0	0	0	0	0	0	0	0	0	0	0	0	0	0	0	0	0	0	0	0	0	0	0	0	0	0
013019	08:58:40	09:05:03	381708	5.0.10.0	4_exp_EVA_AMP_AWA_CON	98	Rpleas_acq	Same	Rpleas	Bmasked	CS_B	2pleas	distractor2	EVAbeforeCON	acq_US_unple_masked	acq45_masked	4	15	400	1	300	300	0	0	358	46	0	1	0	0	0	1	blank2r.bmp	0	1	+	0	6	C2r.bmp	492	1	blank2r.bmp	786	1	BMVZ	786	1	blank2r.bmp	866	2	strafen	866	1	!	1239	1	!	1252	0	0	0	0	0	0	0	0	0	0	0	0	0	0	0	0	0	0	0	0	0	0	0	0	0	0	0
013019	08:58:40	09:05:06	383760	5.0.10.0	4_exp_EVA_AMP_AWA_CON	98	Rpleas_acq	Same	Rpleas	Bmasked	CS_B	2pleas	distractor2	EVAbeforeCON	acq_US_unple_masked	acq45_masked	4	16	400	0	300	300	0	0	275	46	0	1	0	0	0	1	blank2r.bmp	0	1	+	0	1	B1r.bmp	492	1	blank2r.bmp	786	1	BMVZ	786	1	blank2r.bmp	866	4	faul	866	1	!	-1	1	!	-1	0	0	0	0	0	0	0	0	0	0	0	0	0	0	0	0	0	0	0	0	0	0	0	0	0	0	0
013019	08:58:40	09:05:08	385786	5.0.10.0	4_exp_EVA_AMP_AWA_CON	98	Rpleas_acq	Same	Rpleas	Bmasked	CS_B	2pleas	distractor2	EVAbeforeCON	acq_US_unple_masked	acq45_masked	4	17	400	0	300	300	0	0	251	50	0	0	0	0	0	1	blank2r.bmp	0	1	+	0	5	C1r.bmp	492	1	blank2r.bmp	786	1	BMVZ	786	1	blank2r.bmp	866	5	schroff	866	1	!	-1	1	!	-1	0	0	0	0	0	0	0	0	0	0	0	0	0	0	0	0	0	0	0	0	0	0	0	0	0	0	0
013019	08:58:40	09:05:10	388052	5.0.10.0	4_exp_EVA_AMP_AWA_CON	98	Rpleas_acq	Same	Rpleas	Bmasked	CS_B	2pleas	distractor2	EVAbeforeCON	acq_US_pleas_masked	acq45_masked	4	18	400	1	300	300	0	0	456	50	0	1	0	0	0	1	blank2r.bmp	0	1	+	0	8	C4r.bmp	492	1	blank2r.bmp	787	1	GKQX	787	1	blank2r.bmp	866	5	schlau	866	1	!	1239	1	!	1359	0	0	0	0	0	0	0	0	0	0	0	0	0	0	0	0	0	0	0	0	0	0	0	0	0	0	0
013019	08:58:40	09:05:12	390304	5.0.10.0	4_exp_EVA_AMP_AWA_CON	98	Rpleas_acq	Same	Rpleas	Bmasked	CS_B	2pleas	distractor2	EVAbeforeCON	acq_US_pleas_masked	acq45_masked	4	19	400	0	300	300	0	0	480	50	0	1	0	0	0	1	blank2r.bmp	0	1	+	0	2	B2r.bmp	492	1	blank2r.bmp	786	1	GKQX	786	1	blank2r.bmp	866	2	spielen	866	1	!	1239	1	!	-1	0	0	0	0	0	0	0	0	0	0	0	0	0	0	0	0	0	0	0	0	0	0	0	0	0	0	0
013019	08:58:40	09:05:14	392504	5.0.10.0	4_exp_EVA_AMP_AWA_CON	98	Rpleas_acq	Same	Rpleas	Bmasked	CS_B	2pleas	distractor2	EVAbeforeCON	acq_US_unple_masked	acq45_masked	4	20	400	1	300	300	0	0	392	46	0	1	0	0	0	1	blank2r.bmp	0	1	+	0	4	B4r.bmp	492	1	blank2r.bmp	786	1	BMVZ	786	1	blank2r.bmp	866	3	leiden	866	1	!	1239	1	!	1292	0	0	0	0	0	0	0	0	0	0	0	0	0	0	0	0	0	0	0	0	0	0	0	0	0	0	0
013019	08:58:40	09:05:16	394663	5.0.10.0	4_exp_EVA_AMP_AWA_CON	98	Rpleas_acq	Same	Rpleas	Bmasked	CS_B	2pleas	distractor2	EVAbeforeCON	acq_US_pleas_masked	acq45_masked	4	21	400	1	300	300	0	0	346	50	0	1	0	0	0	1	blank2r.bmp	0	1	+	0	6	C2r.bmp	492	1	blank2r.bmp	786	1	GKQX	786	1	blank2r.bmp	866	4	fair	866	1	!	1239	1	!	1252	0	0	0	0	0	0	0	0	0	0	0	0	0	0	0	0	0	0	0	0	0	0	0	0	0	0	0
013019	08:58:40	09:05:19	396942	5.0.10.0	4_exp_EVA_AMP_AWA_CON	98	Rpleas_acq	Same	Rpleas	Bmasked	CS_B	2pleas	distractor2	EVAbeforeCON	acq_US_pleas_masked	acq45_masked	4	22	400	0	300	300	0	0	517	50	0	1	0	0	0	1	blank2r.bmp	0	1	+	0	4	B4r.bmp	492	1	blank2r.bmp	786	1	GKQX	786	1	blank2r.bmp	866	6	tolerant	866	1	!	1239	1	!	-1	0	0	0	0	0	0	0	0	0	0	0	0	0	0	0	0	0	0	0	0	0	0	0	0	0	0	0
013019	08:58:40	09:05:21	399034	5.0.10.0	4_exp_EVA_AMP_AWA_CON	98	Rpleas_acq	Same	Rpleas	Bmasked	CS_B	2pleas	distractor2	EVAbeforeCON	acq_US_unple_masked	acq45_masked	4	23	400	0	300	300	0	0	313	46	0	1	0	0	0	1	blank2r.bmp	0	1	+	0	8	C4r.bmp	492	1	blank2r.bmp	786	1	BMVZ	786	1	blank2r.bmp	866	6	tyrannisch	866	1	!	-1	1	!	-1	0	0	0	0	0	0	0	0	0	0	0	0	0	0	0	0	0	0	0	0	0	0	0	0	0	0	0
013019	08:58:40	09:05:23	401300	5.0.10.0	4_exp_EVA_AMP_AWA_CON	98	Rpleas_acq	Same	Rpleas	Bmasked	CS_B	2pleas	distractor2	EVAbeforeCON	acq_US_unple_masked	acq45_masked	4	24	400	1	300	300	0	0	461	46	0	1	0	0	0	1	blank2r.bmp	0	1	+	0	5	C1r.bmp	492	1	blank2r.bmp	786	1	BMVZ	786	1	blank2r.bmp	866	1	lasch	866	1	!	1239	1	!	1359	0	0	0	0	0	0	0	0	0	0	0	0	0	0	0	0	0	0	0	0	0	0	0	0	0	0	0
013019	08:58:40	09:05:25	403632	5.0.10.0	4_exp_EVA_AMP_AWA_CON	98	Rpleas_acq	Same	Rpleas	Bmasked	CS_B	2pleas	distractor2	EVAbeforeCON	acq_US_unple_masked	acq45_masked	4	25	400	0	300	300	0	0	559	46	0	1	0	0	0	1	blank2r.bmp	0	1	+	0	2	B2r.bmp	492	1	blank2r.bmp	786	1	BMVZ	786	1	blank2r.bmp	866	6	tyrannisch	866	1	!	1239	1	!	-1	0	0	0	0	0	0	0	0	0	0	0	0	0	0	0	0	0	0	0	0	0	0	0	0	0	0	0
013019	08:58:40	09:05:28	405845	5.0.10.0	4_exp_EVA_AMP_AWA_CON	98	Rpleas_acq	Same	Rpleas	Bmasked	CS_B	2pleas	distractor2	EVAbeforeCON	acq_US_pleas_masked	acq45_masked	4	26	400	1	300	300	0	0	408	46	0	0	0	0	0	1	blank2r.bmp	0	1	+	0	1	B1r.bmp	492	1	blank2r.bmp	786	1	GKQX	786	1	blank2r.bmp	866	6	tolerant	866	1	!	1239	1	!	1306	0	0	0	0	0	0	0	0	0	0	0	0	0	0	0	0	0	0	0	0	0	0	0	0	0	0	0
013019	08:58:40	09:05:30	408217	5.0.10.0	4_exp_EVA_AMP_AWA_CON	98	Rpleas_acq	Same	Rpleas	Bmasked	CS_B	2pleas	distractor2	EVAbeforeCON	acq_US_pleas_masked	acq45_masked	4	27	400	0	300	300	0	0	604	50	0	1	0	0	0	1	blank2r.bmp	0	1	+	0	7	C3r.bmp	492	1	blank2r.bmp	786	1	GKQX	786	1	blank2r.bmp	866	4	fair	866	1	!	1239	1	!	-1	0	0	0	0	0	0	0	0	0	0	0	0	0	0	0	0	0	0	0	0	0	0	0	0	0	0	0
013019	08:58:40	09:05:32	410443	5.0.10.0	4_exp_EVA_AMP_AWA_CON	98	Rpleas_acq	Same	Rpleas	Bmasked	CS_B	2pleas	distractor2	EVAbeforeCON	acq_US_unple_masked	acq45_masked	4	28	400	1	300	300	0	0	410	46	0	1	0	0	0	1	blank2r.bmp	0	1	+	0	3	B3r.bmp	492	1	blank2r.bmp	786	1	BMVZ	786	1	blank2r.bmp	866	3	leiden	866	1	!	1239	1	!	1306	0	0	0	0	0	0	0	0	0	0	0	0	0	0	0	0	0	0	0	0	0	0	0	0	0	0	0
013019	08:58:40	09:05:34	412695	5.0.10.0	4_exp_EVA_AMP_AWA_CON	98	Rpleas_acq	Same	Rpleas	Bmasked	CS_B	2pleas	distractor2	EVAbeforeCON	acq_US_unple_masked	acq45_masked	4	29	400	1	300	300	0	0	454	46	0	1	0	0	0	1	blank2r.bmp	0	1	+	0	7	C3r.bmp	492	1	blank2r.bmp	786	1	BMVZ	786	1	blank2r.bmp	866	4	faul	866	1	!	1239	1	!	1359	0	0	0	0	0	0	0	0	0	0	0	0	0	0	0	0	0	0	0	0	0	0	0	0	0	0	0
013019	08:58:40	09:05:36	414734	5.0.10.0	4_exp_EVA_AMP_AWA_CON	98	Rpleas_acq	Same	Rpleas	Bmasked	CS_B	2pleas	distractor2	EVAbeforeCON	acq_US_unple_masked	acq45_masked	4	30	400	0	300	300	0	0	269	46	0	1	0	0	0	1	blank2r.bmp	0	1	+	0	5	C1r.bmp	492	1	blank2r.bmp	786	1	BMVZ	786	1	blank2r.bmp	866	1	lasch	866	1	!	-1	1	!	-1	0	0	0	0	0	0	0	0	0	0	0	0	0	0	0	0	0	0	0	0	0	0	0	0	0	0	0
013019	08:58:40	09:05:40	418466	5.0.10.0	4_exp_EVA_AMP_AWA_CON	98	Rpleas_acq	Same	Rpleas	Bmasked	CS_B	2pleas	distractor2	EVAbeforeCON	acq_US_pleas_masked	acq45_masked	4	31	400	0	300	300	0	0	1956	50	0	1	0	0	0	1	blank2r.bmp	0	1	+	0	6	C2r.bmp	492	1	blank2r.bmp	786	1	GKQX	786	1	blank2r.bmp	866	3	lachen	866	1	!	1239	1	!	-1	0	0	0	0	0	0	0	0	0	0	0	0	0	0	0	0	0	0	0	0	0	0	0	0	0	0	0
013019	08:58:40	09:05:42	420705	5.0.10.0	4_exp_EVA_AMP_AWA_CON	98	Rpleas_acq	Same	Rpleas	Bmasked	CS_B	2pleas	distractor2	EVAbeforeCON	acq_US_unple_masked	acq45_masked	4	32	400	1	300	300	0	0	419	46	0	1	0	0	0	1	blank2r.bmp	0	1	+	0	3	B3r.bmp	492	1	blank2r.bmp	786	1	BMVZ	786	1	blank2r.bmp	866	2	strafen	866	1	!	1239	1	!	1319	0	0	0	0	0	0	0	0	0	0	0	0	0	0	0	0	0	0	0	0	0	0	0	0	0	0	0
013019	08:58:40	09:05:45	423024	5.0.10.0	4_exp_EVA_AMP_AWA_CON	98	Rpleas_acq	Same	Rpleas	Bmasked	CS_B	2pleas	distractor2	EVAbeforeCON	acq_US_pleas_masked	acq45_masked	4	33	400	0	300	300	0	0	551	50	0	1	0	0	0	1	blank2r.bmp	0	1	+	0	2	B2r.bmp	492	1	blank2r.bmp	786	1	GKQX	786	1	blank2r.bmp	866	1	loyal	866	1	!	1239	1	!	-1	0	0	0	0	0	0	0	0	0	0	0	0	0	0	0	0	0	0	0	0	0	0	0	0	0	0	0
013019	08:58:40	09:05:47	425117	5.0.10.0	4_exp_EVA_AMP_AWA_CON	98	Rpleas_acq	Same	Rpleas	Bmasked	CS_B	2pleas	distractor2	EVAbeforeCON	acq_US_unple_masked	acq45_masked	4	34	400	0	300	300	0	0	315	46	0	1	0	0	0	1	blank2r.bmp	0	1	+	0	8	C4r.bmp	492	1	blank2r.bmp	786	1	BMVZ	786	1	blank2r.bmp	866	5	schroff	866	1	!	-1	1	!	-1	0	0	0	0	0	0	0	0	0	0	0	0	0	0	0	0	0	0	0	0	0	0	0	0	0	0	0
013019	08:58:40	09:05:49	427369	5.0.10.0	4_exp_EVA_AMP_AWA_CON	98	Rpleas_acq	Same	Rpleas	Bmasked	CS_B	2pleas	distractor2	EVAbeforeCON	acq_US_pleas_masked	acq45_masked	4	35	400	1	300	300	0	0	439	50	0	1	0	0	0	1	blank2r.bmp	0	1	+	0	4	B4r.bmp	492	1	blank2r.bmp	786	1	GKQX	786	1	blank2r.bmp	866	2	spielen	866	1	!	1239	1	!	1346	0	0	0	0	0	0	0	0	0	0	0	0	0	0	0	0	0	0	0	0	0	0	0	0	0	0	0
013019	08:58:40	09:05:51	429728	5.0.10.0	4_exp_EVA_AMP_AWA_CON	98	Rpleas_acq	Same	Rpleas	Bmasked	CS_B	2pleas	distractor2	EVAbeforeCON	acq_US_pleas_masked	acq45_masked	4	36	400	0	300	300	0	0	578	50	0	1	0	0	0	1	blank2r.bmp	0	1	+	0	1	B1r.bmp	492	1	blank2r.bmp	786	1	GKQX	786	1	blank2r.bmp	866	5	schlau	866	1	!	1239	1	!	-1	0	0	0	0	0	0	0	0	0	0	0	0	0	0	0	0	0	0	0	0	0	0	0	0	0	0	0
013019	08:58:40	09:06:08	446535	5.0.10.0	4_exp_EVA_AMP_AWA_CON	98	Rpleas_acq	Same	Rpleas	Bmasked	CS_B	2pleas	distractor2	EVAbeforeCON	acq_US_pleas_masked	acq45_masked	5	1	400	1	300	300	0	0	418	50	0	1	0	0	0	1	blank2r.bmp	0	1	+	0	6	C2r.bmp	492	1	blank2r.bmp	786	1	GKQX	786	1	blank2r.bmp	866	4	fair	866	1	!	1239	1	!	1319	0	0	0	0	0	0	0	0	0	0	0	0	0	0	0	0	0	0	0	0	0	0	0	0	0	0	0
013019	08:58:40	09:06:11	448747	5.0.10.0	4_exp_EVA_AMP_AWA_CON	98	Rpleas_acq	Same	Rpleas	Bmasked	CS_B	2pleas	distractor2	EVAbeforeCON	acq_US_unple_masked	acq45_masked	5	2	400	1	300	300	0	0	421	46	0	1	0	0	0	1	blank2r.bmp	0	1	+	0	3	B3r.bmp	492	1	blank2r.bmp	786	1	BMVZ	786	1	blank2r.bmp	866	5	schroff	866	1	!	1239	1	!	1319	0	0	0	0	0	0	0	0	0	0	0	0	0	0	0	0	0	0	0	0	0	0	0	0	0	0	0
013019	08:58:40	09:06:13	450933	5.0.10.0	4_exp_EVA_AMP_AWA_CON	98	Rpleas_acq	Same	Rpleas	Bmasked	CS_B	2pleas	distractor2	EVAbeforeCON	acq_US_pleas_masked	acq45_masked	5	3	400	1	300	300	0	0	396	50	0	1	0	0	0	1	blank2r.bmp	0	1	+	0	7	C3r.bmp	492	1	blank2r.bmp	786	1	GKQX	786	1	blank2r.bmp	866	3	lachen	866	1	!	1239	1	!	1292	0	0	0	0	0	0	0	0	0	0	0	0	0	0	0	0	0	0	0	0	0	0	0	0	0	0	0
013019	08:58:40	09:06:15	453079	5.0.10.0	4_exp_EVA_AMP_AWA_CON	98	Rpleas_acq	Same	Rpleas	Bmasked	CS_B	2pleas	distractor2	EVAbeforeCON	acq_US_pleas_masked	acq45_masked	5	4	400	1	300	300	0	0	346	46	0	0	0	0	0	1	blank2r.bmp	0	1	+	0	8	C4r.bmp	492	1	blank2r.bmp	786	1	GKQX	786	1	blank2r.bmp	866	1	loyal	866	1	!	1239	1	!	1252	0	0	0	0	0	0	0	0	0	0	0	0	0	0	0	0	0	0	0	0	0	0	0	0	0	0	0
013019	08:58:40	09:06:17	455651	5.0.10.0	4_exp_EVA_AMP_AWA_CON	98	Rpleas_acq	Same	Rpleas	Bmasked	CS_B	2pleas	distractor2	EVAbeforeCON	acq_US_unple_masked	acq45_masked	5	5	400	0	300	300	0	0	798	46	0	1	0	0	0	1	blank2r.bmp	0	1	+	0	1	B1r.bmp	492	1	blank2r.bmp	786	1	BMVZ	786	1	blank2r.bmp	866	2	strafen	866	1	!	1239	1	!	-1	0	0	0	0	0	0	0	0	0	0	0	0	0	0	0	0	0	0	0	0	0	0	0	0	0	0	0
013019	08:58:40	09:06:20	457850	5.0.10.0	4_exp_EVA_AMP_AWA_CON	98	Rpleas_acq	Same	Rpleas	Bmasked	CS_B	2pleas	distractor2	EVAbeforeCON	acq_US_unple_masked	acq45_masked	5	6	400	1	300	300	0	0	395	46	0	1	0	0	0	1	blank2r.bmp	0	1	+	0	2	B2r.bmp	492	1	blank2r.bmp	786	1	BMVZ	786	1	blank2r.bmp	866	4	faul	866	1	!	1239	1	!	1292	0	0	0	0	0	0	0	0	0	0	0	0	0	0	0	0	0	0	0	0	0	0	0	0	0	0	0
013019	08:58:40	09:06:22	460049	5.0.10.0	4_exp_EVA_AMP_AWA_CON	98	Rpleas_acq	Same	Rpleas	Bmasked	CS_B	2pleas	distractor2	EVAbeforeCON	acq_US_pleas_masked	acq45_masked	5	7	400	1	300	300	0	0	405	50	0	1	0	0	0	1	blank2r.bmp	0	1	+	0	4	B4r.bmp	492	1	blank2r.bmp	786	1	GKQX	786	1	blank2r.bmp	866	5	schlau	866	1	!	1239	1	!	1306	0	0	0	0	0	0	0	0	0	0	0	0	0	0	0	0	0	0	0	0	0	0	0	0	0	0	0
013019	08:58:40	09:06:24	462115	5.0.10.0	4_exp_EVA_AMP_AWA_CON	98	Rpleas_acq	Same	Rpleas	Bmasked	CS_B	2pleas	distractor2	EVAbeforeCON	acq_US_unple_masked	acq45_masked	5	8	400	0	300	300	0	0	302	46	0	1	0	0	0	1	blank2r.bmp	0	1	+	0	5	C1r.bmp	492	1	blank2r.bmp	786	1	BMVZ	786	1	blank2r.bmp	866	1	lasch	866	1	!	-1	1	!	-1	0	0	0	0	0	0	0	0	0	0	0	0	0	0	0	0	0	0	0	0	0	0	0	0	0	0	0
013019	08:58:40	09:06:26	464327	5.0.10.0	4_exp_EVA_AMP_AWA_CON	98	Rpleas_acq	Same	Rpleas	Bmasked	CS_B	2pleas	distractor2	EVAbeforeCON	acq_US_pleas_masked	acq45_masked	5	9	400	1	300	300	0	0	400	50	0	1	0	0	0	1	blank2r.bmp	0	1	+	0	1	B1r.bmp	492	1	blank2r.bmp	786	1	GKQX	786	1	blank2r.bmp	866	2	spielen	866	1	!	1239	1	!	1306	0	0	0	0	0	0	0	0	0	0	0	0	0	0	0	0	0	0	0	0	0	0	0	0	0	0	0
013019	08:58:40	09:06:28	466380	5.0.10.0	4_exp_EVA_AMP_AWA_CON	98	Rpleas_acq	Same	Rpleas	Bmasked	CS_B	2pleas	distractor2	EVAbeforeCON	acq_US_pleas_masked	acq45_masked	5	10	400	0	300	300	0	0	265	46	0	0	0	0	0	1	blank2r.bmp	0	1	+	0	4	B4r.bmp	492	1	blank2r.bmp	786	1	GKQX	786	1	blank2r.bmp	866	6	tolerant	866	1	!	-1	1	!	-1	0	0	0	0	0	0	0	0	0	0	0	0	0	0	0	0	0	0	0	0	0	0	0	0	0	0	0
013019	08:58:40	09:06:30	468632	5.0.10.0	4_exp_EVA_AMP_AWA_CON	98	Rpleas_acq	Same	Rpleas	Bmasked	CS_B	2pleas	distractor2	EVAbeforeCON	acq_US_unple_masked	acq45_masked	5	11	400	1	300	300	0	0	444	46	0	1	0	0	0	1	blank2r.bmp	0	1	+	0	8	C4r.bmp	492	1	blank2r.bmp	786	1	BMVZ	786	1	blank2r.bmp	866	3	leiden	866	1	!	1239	1	!	1346	0	0	0	0	0	0	0	0	0	0	0	0	0	0	0	0	0	0	0	0	0	0	0	0	0	0	0
013019	08:58:40	09:06:33	470858	5.0.10.0	4_exp_EVA_AMP_AWA_CON	98	Rpleas_acq	Same	Rpleas	Bmasked	CS_B	2pleas	distractor2	EVAbeforeCON	acq_US_pleas_masked	acq45_masked	5	12	400	1	300	300	0	0	417	50	0	1	0	0	0	1	blank2r.bmp	0	1	+	0	6	C2r.bmp	492	1	blank2r.bmp	786	1	GKQX	786	1	blank2r.bmp	866	3	lachen	866	1	!	1239	1	!	1319	0	0	0	0	0	0	0	0	0	0	0	0	0	0	0	0	0	0	0	0	0	0	0	0	0	0	0
013019	08:58:40	09:06:35	473097	5.0.10.0	4_exp_EVA_AMP_AWA_CON	98	Rpleas_acq	Same	Rpleas	Bmasked	CS_B	2pleas	distractor2	EVAbeforeCON	acq_US_unple_masked	acq45_masked	5	13	400	1	300	300	0	0	451	50	0	0	0	0	0	1	blank2r.bmp	0	1	+	0	2	B2r.bmp	492	1	blank2r.bmp	786	1	BMVZ	786	1	blank2r.bmp	866	6	tyrannisch	866	1	!	1239	1	!	1346	0	0	0	0	0	0	0	0	0	0	0	0	0	0	0	0	0	0	0	0	0	0	0	0	0	0	0
013019	08:58:40	09:06:37	475429	5.0.10.0	4_exp_EVA_AMP_AWA_CON	98	Rpleas_acq	Same	Rpleas	Bmasked	CS_B	2pleas	distractor2	EVAbeforeCON	acq_US_unple_masked	acq45_masked	5	14	400	0	300	300	0	0	563	46	0	1	0	0	0	1	blank2r.bmp	0	1	+	0	3	B3r.bmp	492	1	blank2r.bmp	786	1	BMVZ	786	1	blank2r.bmp	866	6	tyrannisch	866	1	!	1239	1	!	-1	0	0	0	0	0	0	0	0	0	0	0	0	0	0	0	0	0	0	0	0	0	0	0	0	0	0	0
013019	08:58:40	09:06:39	477695	5.0.10.0	4_exp_EVA_AMP_AWA_CON	98	Rpleas_acq	Same	Rpleas	Bmasked	CS_B	2pleas	distractor2	EVAbeforeCON	acq_US_pleas_masked	acq45_masked	5	15	400	0	300	300	0	0	482	50	0	1	0	0	0	1	blank2r.bmp	0	1	+	0	5	C1r.bmp	492	1	blank2r.bmp	786	1	GKQX	786	1	blank2r.bmp	866	1	loyal	866	1	!	1239	1	!	-1	0	0	0	0	0	0	0	0	0	0	0	0	0	0	0	0	0	0	0	0	0	0	0	0	0	0	0
013019	08:58:40	09:06:42	479934	5.0.10.0	4_exp_EVA_AMP_AWA_CON	98	Rpleas_acq	Same	Rpleas	Bmasked	CS_B	2pleas	distractor2	EVAbeforeCON	acq_US_pleas_masked	acq45_masked	5	16	400	1	300	300	0	0	432	50	0	1	0	0	0	1	blank2r.bmp	0	1	+	0	7	C3r.bmp	492	1	blank2r.bmp	786	1	GKQX	786	1	blank2r.bmp	866	2	spielen	866	1	!	1239	1	!	1332	0	0	0	0	0	0	0	0	0	0	0	0	0	0	0	0	0	0	0	0	0	0	0	0	0	0	0
013019	08:58:40	09:06:44	482013	5.0.10.0	4_exp_EVA_AMP_AWA_CON	98	Rpleas_acq	Same	Rpleas	Bmasked	CS_B	2pleas	distractor2	EVAbeforeCON	acq_US_unple_masked	acq45_masked	5	17	400	0	300	300	0	0	308	46	0	1	0	0	0	1	blank2r.bmp	0	1	+	0	7	C3r.bmp	492	1	blank2r.bmp	786	1	BMVZ	786	1	blank2r.bmp	866	2	strafen	866	1	!	-1	1	!	-1	0	0	0	0	0	0	0	0	0	0	0	0	0	0	0	0	0	0	0	0	0	0	0	0	0	0	0
013019	08:58:40	09:06:46	484106	5.0.10.0	4_exp_EVA_AMP_AWA_CON	98	Rpleas_acq	Same	Rpleas	Bmasked	CS_B	2pleas	distractor2	EVAbeforeCON	acq_US_unple_masked	acq45_masked	5	18	400	0	300	300	0	0	316	46	0	1	0	0	0	1	blank2r.bmp	0	1	+	0	6	C2r.bmp	492	1	blank2r.bmp	786	1	BMVZ	786	1	blank2r.bmp	866	1	lasch	866	1	!	-1	1	!	-1	0	0	0	0	0	0	0	0	0	0	0	0	0	0	0	0	0	0	0	0	0	0	0	0	0	0	0
013019	08:58:40	09:06:48	486518	5.0.10.0	4_exp_EVA_AMP_AWA_CON	98	Rpleas_acq	Same	Rpleas	Bmasked	CS_B	2pleas	distractor2	EVAbeforeCON	acq_US_pleas_masked	acq45_masked	5	19	400	0	300	300	0	0	635	46	0	0	0	0	0	1	blank2r.bmp	0	1	+	0	4	B4r.bmp	492	1	blank2r.bmp	786	1	GKQX	786	1	blank2r.bmp	866	4	fair	866	1	!	1239	1	!	-1	0	0	0	0	0	0	0	0	0	0	0	0	0	0	0	0	0	0	0	0	0	0	0	0	0	0	0
013019	08:58:40	09:06:50	488730	5.0.10.0	4_exp_EVA_AMP_AWA_CON	98	Rpleas_acq	Same	Rpleas	Bmasked	CS_B	2pleas	distractor2	EVAbeforeCON	acq_US_unple_masked	acq45_masked	5	20	400	1	300	300	0	0	403	46	0	1	0	0	0	1	blank2r.bmp	0	1	+	0	1	B1r.bmp	492	1	blank2r.bmp	786	1	BMVZ	786	1	blank2r.bmp	866	5	schroff	866	1	!	1239	1	!	1306	0	0	0	0	0	0	0	0	0	0	0	0	0	0	0	0	0	0	0	0	0	0	0	0	0	0	0
013019	08:58:40	09:06:53	490956	5.0.10.0	4_exp_EVA_AMP_AWA_CON	98	Rpleas_acq	Same	Rpleas	Bmasked	CS_B	2pleas	distractor2	EVAbeforeCON	acq_US_unple_masked	acq45_masked	5	21	400	1	300	300	0	0	430	50	0	0	0	0	0	1	blank2r.bmp	0	1	+	0	2	B2r.bmp	492	1	blank2r.bmp	786	1	BMVZ	786	1	blank2r.bmp	866	4	faul	866	1	!	1239	1	!	1332	0	0	0	0	0	0	0	0	0	0	0	0	0	0	0	0	0	0	0	0	0	0	0	0	0	0	0
013019	08:58:40	09:06:55	493289	5.0.10.0	4_exp_EVA_AMP_AWA_CON	98	Rpleas_acq	Same	Rpleas	Bmasked	CS_B	2pleas	distractor2	EVAbeforeCON	acq_US_unple_masked	acq45_masked	5	22	400	0	300	300	0	0	546	46	0	1	0	0	0	1	blank2r.bmp	0	1	+	0	8	C4r.bmp	492	1	blank2r.bmp	786	1	BMVZ	786	1	blank2r.bmp	866	3	leiden	866	1	!	1239	1	!	-1	0	0	0	0	0	0	0	0	0	0	0	0	0	0	0	0	0	0	0	0	0	0	0	0	0	0	0
013019	08:58:40	09:06:57	495581	5.0.10.0	4_exp_EVA_AMP_AWA_CON	98	Rpleas_acq	Same	Rpleas	Bmasked	CS_B	2pleas	distractor2	EVAbeforeCON	acq_US_pleas_masked	acq45_masked	5	23	400	0	300	300	0	0	509	50	0	1	0	0	0	1	blank2r.bmp	0	1	+	0	5	C1r.bmp	492	1	blank2r.bmp	786	1	GKQX	786	1	blank2r.bmp	866	5	schlau	866	1	!	1239	1	!	-1	0	0	0	0	0	0	0	0	0	0	0	0	0	0	0	0	0	0	0	0	0	0	0	0	0	0	0
013019	08:58:40	09:06:59	497673	5.0.10.0	4_exp_EVA_AMP_AWA_CON	98	Rpleas_acq	Same	Rpleas	Bmasked	CS_B	2pleas	distractor2	EVAbeforeCON	acq_US_unple_masked	acq45_masked	5	24	400	0	300	300	0	0	314	46	0	1	0	0	0	1	blank2r.bmp	0	1	+	0	3	B3r.bmp	492	1	blank2r.bmp	786	1	BMVZ	786	1	blank2r.bmp	866	4	faul	866	1	!	-1	1	!	-1	0	0	0	0	0	0	0	0	0	0	0	0	0	0	0	0	0	0	0	0	0	0	0	0	0	0	0
013019	08:58:40	09:07:02	499939	5.0.10.0	4_exp_EVA_AMP_AWA_CON	98	Rpleas_acq	Same	Rpleas	Bmasked	CS_B	2pleas	distractor2	EVAbeforeCON	acq_US_unple_masked	acq45_masked	5	25	400	1	300	300	0	0	456	46	0	1	0	0	0	1	blank2r.bmp	0	1	+	0	1	B1r.bmp	492	1	blank2r.bmp	786	1	BMVZ	786	1	blank2r.bmp	866	6	tyrannisch	866	1	!	1239	1	!	1359	0	0	0	0	0	0	0	0	0	0	0	0	0	0	0	0	0	0	0	0	0	0	0	0	0	0	0
013019	08:58:40	09:07:04	502205	5.0.10.0	4_exp_EVA_AMP_AWA_CON	98	Rpleas_acq	Same	Rpleas	Bmasked	CS_B	2pleas	distractor2	EVAbeforeCON	acq_US_pleas_masked	acq45_masked	5	26	400	0	300	300	0	0	482	50	0	1	0	0	0	1	blank2r.bmp	0	1	+	0	7	C3r.bmp	492	1	blank2r.bmp	786	1	GKQX	786	1	blank2r.bmp	866	6	tolerant	866	1	!	1239	1	!	-1	0	0	0	0	0	0	0	0	0	0	0	0	0	0	0	0	0	0	0	0	0	0	0	0	0	0	0
013019	08:58:40	09:07:06	504377	5.0.10.0	4_exp_EVA_AMP_AWA_CON	98	Rpleas_acq	Same	Rpleas	Bmasked	CS_B	2pleas	distractor2	EVAbeforeCON	acq_US_pleas_masked	acq45_masked	5	27	400	1	300	300	0	0	346	46	0	0	0	0	0	1	blank2r.bmp	0	1	+	0	6	C2r.bmp	492	1	blank2r.bmp	786	1	GKQX	786	1	blank2r.bmp	866	5	schlau	866	1	!	1239	1	!	1252	0	0	0	0	0	0	0	0	0	0	0	0	0	0	0	0	0	0	0	0	0	0	0	0	0	0	0
013019	08:58:40	09:07:08	506630	5.0.10.0	4_exp_EVA_AMP_AWA_CON	98	Rpleas_acq	Same	Rpleas	Bmasked	CS_B	2pleas	distractor2	EVAbeforeCON	acq_US_pleas_masked	acq45_masked	5	28	400	0	300	300	0	0	480	50	0	1	0	0	0	1	blank2r.bmp	0	1	+	0	3	B3r.bmp	492	1	blank2r.bmp	786	1	GKQX	786	1	blank2r.bmp	866	4	fair	866	1	!	1239	1	!	-1	0	0	0	0	0	0	0	0	0	0	0	0	0	0	0	0	0	0	0	0	0	0	0	0	0	0	0
013019	08:58:40	09:07:11	508789	5.0.10.0	4_exp_EVA_AMP_AWA_CON	98	Rpleas_acq	Same	Rpleas	Bmasked	CS_B	2pleas	distractor2	EVAbeforeCON	acq_US_unple_masked	acq45_masked	5	29	400	1	300	300	0	0	346	50	0	0	0	0	0	1	blank2r.bmp	0	1	+	0	2	B2r.bmp	492	1	blank2r.bmp	786	1	BMVZ	786	1	blank2r.bmp	866	3	leiden	866	1	!	1239	1	!	1252	0	0	0	0	0	0	0	0	0	0	0	0	0	0	0	0	0	0	0	0	0	0	0	0	0	0	0
013019	08:58:40	09:07:13	510975	5.0.10.0	4_exp_EVA_AMP_AWA_CON	98	Rpleas_acq	Same	Rpleas	Bmasked	CS_B	2pleas	distractor2	EVAbeforeCON	acq_US_pleas_masked	acq45_masked	5	30	400	1	300	300	0	0	396	50	0	1	0	0	0	1	blank2r.bmp	0	1	+	0	5	C1r.bmp	492	1	blank2r.bmp	786	1	GKQX	786	1	blank2r.bmp	866	2	spielen	866	1	!	1239	1	!	1292	0	0	0	0	0	0	0	0	0	0	0	0	0	0	0	0	0	0	0	0	0	0	0	0	0	0	0
013019	08:58:40	09:07:15	513040	5.0.10.0	4_exp_EVA_AMP_AWA_CON	98	Rpleas_acq	Same	Rpleas	Bmasked	CS_B	2pleas	distractor2	EVAbeforeCON	acq_US_unple_masked	acq45_masked	5	31	400	0	300	300	0	0	297	50	0	0	0	0	0	1	blank2r.bmp	0	1	+	0	8	C4r.bmp	492	1	blank2r.bmp	786	1	BMVZ	786	1	blank2r.bmp	866	2	strafen	866	1	!	-1	1	!	-1	0	0	0	0	0	0	0	0	0	0	0	0	0	0	0	0	0	0	0	0	0	0	0	0	0	0	0
013019	08:58:40	09:07:17	515200	5.0.10.0	4_exp_EVA_AMP_AWA_CON	98	Rpleas_acq	Same	Rpleas	Bmasked	CS_B	2pleas	distractor2	EVAbeforeCON	acq_US_pleas_masked	acq45_masked	5	32	400	1	300	300	0	0	358	50	0	1	0	0	0	1	blank2r.bmp	0	1	+	0	4	B4r.bmp	492	1	blank2r.bmp	786	1	GKQX	786	1	blank2r.bmp	866	6	tolerant	866	1	!	1239	1	!	1252	0	0	0	0	0	0	0	0	0	0	0	0	0	0	0	0	0	0	0	0	0	0	0	0	0	0	0
013019	08:58:40	09:07:19	517439	5.0.10.0	4_exp_EVA_AMP_AWA_CON	98	Rpleas_acq	Same	Rpleas	Bmasked	CS_B	2pleas	distractor2	EVAbeforeCON	acq_US_pleas_masked	acq45_masked	5	33	400	1	300	300	0	0	442	46	0	0	0	0	0	1	blank2r.bmp	0	1	+	0	5	C1r.bmp	492	1	blank2r.bmp	786	1	GKQX	786	1	blank2r.bmp	866	1	loyal	866	1	!	1239	1	!	1346	0	0	0	0	0	0	0	0	0	0	0	0	0	0	0	0	0	0	0	0	0	0	0	0	0	0	0
013019	08:58:40	09:07:21	519638	5.0.10.0	4_exp_EVA_AMP_AWA_CON	98	Rpleas_acq	Same	Rpleas	Bmasked	CS_B	2pleas	distractor2	EVAbeforeCON	acq_US_unple_masked	acq45_masked	5	34	400	1	300	300	0	0	412	46	0	1	0	0	0	1	blank2r.bmp	0	1	+	0	8	C4r.bmp	492	1	blank2r.bmp	786	1	BMVZ	786	1	blank2r.bmp	866	1	lasch	866	1	!	1239	1	!	1306	0	0	0	0	0	0	0	0	0	0	0	0	0	0	0	0	0	0	0	0	0	0	0	0	0	0	0
013019	08:58:40	09:07:24	521784	5.0.10.0	4_exp_EVA_AMP_AWA_CON	98	Rpleas_acq	Same	Rpleas	Bmasked	CS_B	2pleas	distractor2	EVAbeforeCON	acq_US_pleas_masked	acq45_masked	5	35	400	1	300	300	0	0	346	46	0	0	0	0	0	1	blank2r.bmp	0	1	+	0	1	B1r.bmp	492	1	blank2r.bmp	786	1	GKQX	786	1	blank2r.bmp	866	3	lachen	866	1	!	1239	1	!	1252	0	0	0	0	0	0	0	0	0	0	0	0	0	0	0	0	0	0	0	0	0	0	0	0	0	0	0
013019	08:58:40	09:07:28	526608	5.0.10.0	4_exp_EVA_AMP_AWA_CON	98	Rpleas_acq	Same	Rpleas	Bmasked	CS_B	2pleas	distractor2	EVAbeforeCON	acq_US_unple_masked	acq45_masked	5	36	400	0	300	300	0	0	3061	50	0	0	0	0	0	1	blank2r.bmp	0	1	+	0	7	C3r.bmp	492	1	blank2r.bmp	786	1	BMVZ	786	1	blank2r.bmp	866	5	schroff	866	1	!	1239	1	!	-1	0	0	0	0	0	0	0	0	0	0	0	0	0	0	0	0	0	0	0	0	0	0	0	0	0	0	0
013019	08:58:40	09:07:50	547826	5.0.10.0	4_exp_EVA_AMP_AWA_CON	98	Rpleas_acq	Same	Rpleas	Bmasked	CS_B	2pleas	distractor2	EVAbeforeCON	EvalRating_firsttwo	EvalRating_firsttwo	6	1	0	0	300	300	0	0	2786	line	-54,6874999999999928946	0	0	0	0	1	eraser	0	1	Wie angenehm oder unangenehm finden Sie die  Buchstabenkette WFPH?	0	1	leftborder	0	1	rightborder	0	1	line	0	1	Unangenehm	0	1	Angenehm	0	0	0	0	0	0	0	0	0	0	0	0	0	0	0	0	0	0	0	0	0	0	0	0	0	0	0	0	0	0	0	0	0	0
013019	08:58:40	09:07:56	553837	5.0.10.0	4_exp_EVA_AMP_AWA_CON	98	Rpleas_acq	Same	Rpleas	Bmasked	CS_B	2pleas	distractor2	EVAbeforeCON	EvalRating_lastfour	EvalRating_lastfour	7	1	0	0	300	300	0	0	3573	line	-83,740234375	0	0	0	0	1	eraser	0	2	Wie angenehm oder unangenehm finden Sie die  Buchstabenkette GKQX?	0	1	leftborder	0	1	rightborder	0	1	line	0	1	Unangenehm	0	1	Angenehm	0	0	0	0	0	0	0	0	0	0	0	0	0	0	0	0	0	0	0	0	0	0	0	0	0	0	0	0	0	0	0	0	0	0
013019	08:58:40	09:07:58	556223	5.0.10.0	4_exp_EVA_AMP_AWA_CON	98	Rpleas_acq	Same	Rpleas	Bmasked	CS_B	2pleas	distractor2	EVAbeforeCON	blank_screen	EvalRating_lastfour	7	3	0	0	300	300	0	0	0	0	-83,740234375	0	0	0	0	1	eraser	0	0	0	0	0	0	0	0	0	0	0	0	0	0	0	0	0	0	0	0	0	0	0	0	0	0	0	0	0	0	0	0	0	0	0	0	0	0	0	0	0	0	0	0	0	0	0	0	0	0	0	0
013019	08:58:40	09:08:00	558622	5.0.10.0	4_exp_EVA_AMP_AWA_CON	98	Rpleas_acq	Same	Rpleas	Bmasked	CS_B	2pleas	distractor2	EVAbeforeCON	EvalRating_lastfour	EvalRating_lastfour	7	4	0	0	300	300	0	0	1812	line	-2,44140625	0	0	0	0	1	eraser	1	1	Wie angenehm oder unangenehm finden Sie die  Buchstabenkette BMVZ?	1	1	leftborder	1	1	rightborder	1	1	line	1	1	Unangenehm	1	1	Angenehm	1	0	0	0	0	0	0	0	0	0	0	0	0	0	0	0	0	0	0	0	0	0	0	0	0	0	0	0	0	0	0	0	0	0
013019	08:58:40	09:08:03	560994	5.0.10.0	4_exp_EVA_AMP_AWA_CON	98	Rpleas_acq	Same	Rpleas	Bmasked	CS_B	2pleas	distractor2	EVAbeforeCON	blank_screen	EvalRating_lastfour	7	6	0	0	300	300	0	0	0	0	-2,44140625	0	0	0	0	1	eraser	0	0	0	0	0	0	0	0	0	0	0	0	0	0	0	0	0	0	0	0	0	0	0	0	0	0	0	0	0	0	0	0	0	0	0	0	0	0	0	0	0	0	0	0	0	0	0	0	0	0	0	0
013019	08:58:40	09:08:05	563606	5.0.10.0	4_exp_EVA_AMP_AWA_CON	98	Rpleas_acq	Same	Rpleas	Bmasked	CS_B	2pleas	distractor2	EVAbeforeCON	EvalRating_lastfour	EvalRating_lastfour	7	7	0	0	300	300	0	0	2034	line	34,66796875	0	0	0	0	1	eraser	1	3	Wie angenehm oder unangenehm finden Sie die  Buchstabenkette JCRD?	1	1	leftborder	1	1	rightborder	1	1	line	1	1	Unangenehm	1	1	Angenehm	1	0	0	0	0	0	0	0	0	0	0	0	0	0	0	0	0	0	0	0	0	0	0	0	0	0	0	0	0	0	0	0	0	0
013019	08:58:40	09:08:46	604283	5.0.10.0	4_exp_EVA_AMP_AWA_CON	98	Rpleas_acq	Same	Rpleas	Bmasked	CS_B	2pleas	distractor2	EVAbeforeCON	AMP_CSpleas	AMP1_masked	8	1	0	0	300	300	0	0	1353	50	34,66796875	1	0	0	0	1	blank2r.bmp	0	1	GKQX	0	1	blank2r.bmp	79	62	pic62.bmp	199	1	whitenoise_No3.bmp	306	0	0	0	0	0	0	0	0	0	0	0	0	0	0	0	0	0	0	0	0	0	0	0	0	0	0	0	0	0	0	0	0	0	0	0	0	0	0	0
013019	08:58:40	09:08:48	606122	5.0.10.0	4_exp_EVA_AMP_AWA_CON	98	Rpleas_acq	Same	Rpleas	Bmasked	CS_B	2pleas	distractor2	EVAbeforeCON	AMP_CSunple	AMP1_masked	8	2	0	0	300	300	0	0	917	46	34,66796875	1	0	0	0	1	blank2r.bmp	0	1	BMVZ	0	1	blank2r.bmp	79	101	pic101.bmp	199	1	whitenoise_No3.bmp	306	0	0	0	0	0	0	0	0	0	0	0	0	0	0	0	0	0	0	0	0	0	0	0	0	0	0	0	0	0	0	0	0	0	0	0	0	0	0	0
013019	08:58:40	09:08:50	607921	5.0.10.0	4_exp_EVA_AMP_AWA_CON	98	Rpleas_acq	Same	Rpleas	Bmasked	CS_B	2pleas	distractor2	EVAbeforeCON	AMP_CSunple	AMP1_masked	8	3	0	0	300	300	0	0	873	46	34,66796875	1	0	0	0	1	blank2r.bmp	0	1	BMVZ	0	1	blank2r.bmp	79	130	pic130.bmp	199	1	whitenoise_No3.bmp	306	0	0	0	0	0	0	0	0	0	0	0	0	0	0	0	0	0	0	0	0	0	0	0	0	0	0	0	0	0	0	0	0	0	0	0	0	0	0	0
013019	08:58:40	09:08:51	609547	5.0.10.0	4_exp_EVA_AMP_AWA_CON	98	Rpleas_acq	Same	Rpleas	Bmasked	CS_B	2pleas	distractor2	EVAbeforeCON	AMP_CSpleas	AMP1_masked	8	4	0	0	300	300	0	0	702	46	34,66796875	0	0	0	0	1	blank2r.bmp	0	1	GKQX	0	1	blank2r.bmp	79	50	pic50.bmp	199	1	whitenoise_No3.bmp	306	0	0	0	0	0	0	0	0	0	0	0	0	0	0	0	0	0	0	0	0	0	0	0	0	0	0	0	0	0	0	0	0	0	0	0	0	0	0	0
013019	08:58:40	09:08:53	610933	5.0.10.0	4_exp_EVA_AMP_AWA_CON	98	Rpleas_acq	Same	Rpleas	Bmasked	CS_B	2pleas	distractor2	EVAbeforeCON	AMP_CSpleas	AMP1_masked	8	5	0	0	300	300	0	0	468	50	34,66796875	1	0	0	0	1	blank2r.bmp	0	1	GKQX	0	1	blank2r.bmp	79	121	pic121.bmp	199	1	whitenoise_No3.bmp	306	0	0	0	0	0	0	0	0	0	0	0	0	0	0	0	0	0	0	0	0	0	0	0	0	0	0	0	0	0	0	0	0	0	0	0	0	0	0	0
013019	08:58:40	09:08:54	612639	5.0.10.0	4_exp_EVA_AMP_AWA_CON	98	Rpleas_acq	Same	Rpleas	Bmasked	CS_B	2pleas	distractor2	EVAbeforeCON	AMP_distractor	AMP1_masked	8	6	0	0	300	300	0	0	779	50	34,66796875	0	0	0	0	1	blank2r.bmp	0	1	JCRD	0	1	blank2r.bmp	79	13	pic13.bmp	199	1	whitenoise_No3.bmp	306	0	0	0	0	0	0	0	0	0	0	0	0	0	0	0	0	0	0	0	0	0	0	0	0	0	0	0	0	0	0	0	0	0	0	0	0	0	0	0
013019	08:58:40	09:08:56	614079	5.0.10.0	4_exp_EVA_AMP_AWA_CON	98	Rpleas_acq	Same	Rpleas	Bmasked	CS_B	2pleas	distractor2	EVAbeforeCON	AMP_CSpleas	AMP1_masked	8	7	0	0	300	300	0	0	528	50	34,66796875	1	0	0	0	1	blank2r.bmp	0	1	GKQX	0	1	blank2r.bmp	79	4	pic4.bmp	199	1	whitenoise_No3.bmp	306	0	0	0	0	0	0	0	0	0	0	0	0	0	0	0	0	0	0	0	0	0	0	0	0	0	0	0	0	0	0	0	0	0	0	0	0	0	0	0
013019	08:58:40	09:08:57	615358	5.0.10.0	4_exp_EVA_AMP_AWA_CON	98	Rpleas_acq	Same	Rpleas	Bmasked	CS_B	2pleas	distractor2	EVAbeforeCON	AMP_CSpleas	AMP1_masked	8	8	0	0	300	300	0	0	349	46	34,66796875	0	0	0	0	1	blank2r.bmp	0	1	GKQX	0	1	blank2r.bmp	79	97	pic97.bmp	199	1	whitenoise_No3.bmp	306	0	0	0	0	0	0	0	0	0	0	0	0	0	0	0	0	0	0	0	0	0	0	0	0	0	0	0	0	0	0	0	0	0	0	0	0	0	0	0
013019	08:58:40	09:08:58	616558	5.0.10.0	4_exp_EVA_AMP_AWA_CON	98	Rpleas_acq	Same	Rpleas	Bmasked	CS_B	2pleas	distractor2	EVAbeforeCON	AMP_distractor	AMP1_masked	8	9	0	0	300	300	0	0	279	50	34,66796875	0	0	0	0	1	blank2r.bmp	0	1	JCRD	0	1	blank2r.bmp	79	16	pic16.bmp	199	1	whitenoise_No3.bmp	306	0	0	0	0	0	0	0	0	0	0	0	0	0	0	0	0	0	0	0	0	0	0	0	0	0	0	0	0	0	0	0	0	0	0	0	0	0	0	0
013019	08:58:40	09:09:00	617851	5.0.10.0	4_exp_EVA_AMP_AWA_CON	98	Rpleas_acq	Same	Rpleas	Bmasked	CS_B	2pleas	distractor2	EVAbeforeCON	AMP_CSpleas	AMP1_masked	8	10	0	0	300	300	0	0	379	50	34,66796875	1	0	0	0	1	blank2r.bmp	0	1	GKQX	0	1	blank2r.bmp	79	80	pic80.bmp	199	1	whitenoise_No3.bmp	306	0	0	0	0	0	0	0	0	0	0	0	0	0	0	0	0	0	0	0	0	0	0	0	0	0	0	0	0	0	0	0	0	0	0	0	0	0	0	0
013019	08:58:40	09:09:01	619410	5.0.10.0	4_exp_EVA_AMP_AWA_CON	98	Rpleas_acq	Same	Rpleas	Bmasked	CS_B	2pleas	distractor2	EVAbeforeCON	AMP_CSpleas	AMP1_masked	8	11	0	0	300	300	0	0	643	46	34,66796875	0	0	0	0	1	blank2r.bmp	0	1	GKQX	0	1	blank2r.bmp	79	35	pic35.bmp	199	1	whitenoise_No3.bmp	306	0	0	0	0	0	0	0	0	0	0	0	0	0	0	0	0	0	0	0	0	0	0	0	0	0	0	0	0	0	0	0	0	0	0	0	0	0	0	0
013019	08:58:40	09:09:03	620809	5.0.10.0	4_exp_EVA_AMP_AWA_CON	98	Rpleas_acq	Same	Rpleas	Bmasked	CS_B	2pleas	distractor2	EVAbeforeCON	AMP_CSunple	AMP1_masked	8	12	0	0	300	300	0	0	483	50	34,66796875	0	0	0	0	1	blank2r.bmp	0	1	BMVZ	0	1	blank2r.bmp	79	140	pic140.bmp	199	1	whitenoise_No3.bmp	306	0	0	0	0	0	0	0	0	0	0	0	0	0	0	0	0	0	0	0	0	0	0	0	0	0	0	0	0	0	0	0	0	0	0	0	0	0	0	0
013019	08:58:40	09:09:04	622222	5.0.10.0	4_exp_EVA_AMP_AWA_CON	98	Rpleas_acq	Same	Rpleas	Bmasked	CS_B	2pleas	distractor2	EVAbeforeCON	AMP_CSunple	AMP1_masked	8	13	0	0	300	300	0	0	484	46	34,66796875	1	0	0	0	1	blank2r.bmp	0	1	BMVZ	0	1	blank2r.bmp	79	68	pic68.bmp	199	1	whitenoise_No3.bmp	306	0	0	0	0	0	0	0	0	0	0	0	0	0	0	0	0	0	0	0	0	0	0	0	0	0	0	0	0	0	0	0	0	0	0	0	0	0	0	0
013019	08:58:40	09:09:06	623915	5.0.10.0	4_exp_EVA_AMP_AWA_CON	98	Rpleas_acq	Same	Rpleas	Bmasked	CS_B	2pleas	distractor2	EVAbeforeCON	AMP_distractor	AMP1_masked	8	14	0	0	300	300	0	0	766	50	34,66796875	0	0	0	0	1	blank2r.bmp	0	1	JCRD	0	1	blank2r.bmp	79	85	pic85.bmp	199	1	whitenoise_No3.bmp	306	0	0	0	0	0	0	0	0	0	0	0	0	0	0	0	0	0	0	0	0	0	0	0	0	0	0	0	0	0	0	0	0	0	0	0	0	0	0	0
013019	08:58:40	09:09:07	625501	5.0.10.0	4_exp_EVA_AMP_AWA_CON	98	Rpleas_acq	Same	Rpleas	Bmasked	CS_B	2pleas	distractor2	EVAbeforeCON	AMP_distractor	AMP1_masked	8	15	0	0	300	300	0	0	675	50	34,66796875	0	0	0	0	1	blank2r.bmp	0	1	JCRD	0	1	blank2r.bmp	79	42	pic42.bmp	199	1	whitenoise_No3.bmp	306	0	0	0	0	0	0	0	0	0	0	0	0	0	0	0	0	0	0	0	0	0	0	0	0	0	0	0	0	0	0	0	0	0	0	0	0	0	0	0
013019	08:58:40	09:09:09	626980	5.0.10.0	4_exp_EVA_AMP_AWA_CON	98	Rpleas_acq	Same	Rpleas	Bmasked	CS_B	2pleas	distractor2	EVAbeforeCON	AMP_CSunple	AMP1_masked	8	16	0	0	300	300	0	0	545	46	34,66796875	1	0	0	0	1	blank2r.bmp	0	1	BMVZ	0	1	blank2r.bmp	79	99	pic99.bmp	199	1	whitenoise_No3.bmp	306	0	0	0	0	0	0	0	0	0	0	0	0	0	0	0	0	0	0	0	0	0	0	0	0	0	0	0	0	0	0	0	0	0	0	0	0	0	0	0
013019	08:58:40	09:09:10	628420	5.0.10.0	4_exp_EVA_AMP_AWA_CON	98	Rpleas_acq	Same	Rpleas	Bmasked	CS_B	2pleas	distractor2	EVAbeforeCON	AMP_CSpleas	AMP1_masked	8	17	0	0	300	300	0	0	525	46	34,66796875	0	0	0	0	1	blank2r.bmp	0	1	GKQX	0	1	blank2r.bmp	79	83	pic83.bmp	199	1	whitenoise_No3.bmp	306	0	0	0	0	0	0	0	0	0	0	0	0	0	0	0	0	0	0	0	0	0	0	0	0	0	0	0	0	0	0	0	0	0	0	0	0	0	0	0
013019	08:58:40	09:09:12	629979	5.0.10.0	4_exp_EVA_AMP_AWA_CON	98	Rpleas_acq	Same	Rpleas	Bmasked	CS_B	2pleas	distractor2	EVAbeforeCON	AMP_distractor	AMP1_masked	8	18	0	0	300	300	0	0	626	50	34,66796875	0	0	0	0	1	blank2r.bmp	0	1	JCRD	0	1	blank2r.bmp	79	24	pic24.bmp	199	1	whitenoise_No3.bmp	306	0	0	0	0	0	0	0	0	0	0	0	0	0	0	0	0	0	0	0	0	0	0	0	0	0	0	0	0	0	0	0	0	0	0	0	0	0	0	0
013019	08:58:40	09:09:13	631418	5.0.10.0	4_exp_EVA_AMP_AWA_CON	98	Rpleas_acq	Same	Rpleas	Bmasked	CS_B	2pleas	distractor2	EVAbeforeCON	AMP_CSpleas	AMP1_masked	8	19	0	0	300	300	0	0	519	46	34,66796875	0	0	0	0	1	blank2r.bmp	0	1	GKQX	0	1	blank2r.bmp	79	105	pic105.bmp	199	1	whitenoise_No3.bmp	306	0	0	0	0	0	0	0	0	0	0	0	0	0	0	0	0	0	0	0	0	0	0	0	0	0	0	0	0	0	0	0	0	0	0	0	0	0	0	0
013019	08:58:40	09:09:15	632831	5.0.10.0	4_exp_EVA_AMP_AWA_CON	98	Rpleas_acq	Same	Rpleas	Bmasked	CS_B	2pleas	distractor2	EVAbeforeCON	AMP_distractor	AMP1_masked	8	20	0	0	300	300	0	0	498	50	34,66796875	0	0	0	0	1	blank2r.bmp	0	1	JCRD	0	1	blank2r.bmp	79	65	pic65.bmp	199	1	whitenoise_No3.bmp	306	0	0	0	0	0	0	0	0	0	0	0	0	0	0	0	0	0	0	0	0	0	0	0	0	0	0	0	0	0	0	0	0	0	0	0	0	0	0	0
013019	08:58:40	09:09:16	634217	5.0.10.0	4_exp_EVA_AMP_AWA_CON	98	Rpleas_acq	Same	Rpleas	Bmasked	CS_B	2pleas	distractor2	EVAbeforeCON	AMP_distractor	AMP1_masked	8	21	0	0	300	300	0	0	465	50	34,66796875	0	0	0	0	1	blank2r.bmp	0	1	JCRD	0	1	blank2r.bmp	79	26	pic26.bmp	199	1	whitenoise_No3.bmp	306	0	0	0	0	0	0	0	0	0	0	0	0	0	0	0	0	0	0	0	0	0	0	0	0	0	0	0	0	0	0	0	0	0	0	0	0	0	0	0
013019	08:58:40	09:09:17	635657	5.0.10.0	4_exp_EVA_AMP_AWA_CON	98	Rpleas_acq	Same	Rpleas	Bmasked	CS_B	2pleas	distractor2	EVAbeforeCON	AMP_distractor	AMP1_masked	8	22	0	0	300	300	0	0	508	46	34,66796875	0	0	0	0	1	blank2r.bmp	0	1	JCRD	0	1	blank2r.bmp	79	17	pic17.bmp	199	1	whitenoise_No3.bmp	306	0	0	0	0	0	0	0	0	0	0	0	0	0	0	0	0	0	0	0	0	0	0	0	0	0	0	0	0	0	0	0	0	0	0	0	0	0	0	0
013019	08:58:40	09:09:19	637283	5.0.10.0	4_exp_EVA_AMP_AWA_CON	98	Rpleas_acq	Same	Rpleas	Bmasked	CS_B	2pleas	distractor2	EVAbeforeCON	AMP_distractor	AMP1_masked	8	23	0	0	300	300	0	0	702	46	34,66796875	0	0	0	0	1	blank2r.bmp	0	1	JCRD	0	1	blank2r.bmp	79	122	pic122.bmp	199	1	whitenoise_No3.bmp	306	0	0	0	0	0	0	0	0	0	0	0	0	0	0	0	0	0	0	0	0	0	0	0	0	0	0	0	0	0	0	0	0	0	0	0	0	0	0	0
013019	08:58:40	09:09:20	638522	5.0.10.0	4_exp_EVA_AMP_AWA_CON	98	Rpleas_acq	Same	Rpleas	Bmasked	CS_B	2pleas	distractor2	EVAbeforeCON	AMP_CSunple	AMP1_masked	8	24	0	0	300	300	0	0	310	50	34,66796875	0	0	0	0	1	blank2r.bmp	0	1	BMVZ	0	1	blank2r.bmp	79	14	pic14.bmp	199	1	whitenoise_No3.bmp	306	0	0	0	0	0	0	0	0	0	0	0	0	0	0	0	0	0	0	0	0	0	0	0	0	0	0	0	0	0	0	0	0	0	0	0	0	0	0	0
013019	08:58:40	09:09:22	639855	5.0.10.0	4_exp_EVA_AMP_AWA_CON	98	Rpleas_acq	Same	Rpleas	Bmasked	CS_B	2pleas	distractor2	EVAbeforeCON	AMP_CSpleas	AMP1_masked	8	25	0	0	300	300	0	0	422	46	34,66796875	0	0	0	0	1	blank2r.bmp	0	1	GKQX	0	1	blank2r.bmp	79	81	pic81.bmp	199	1	whitenoise_No3.bmp	306	0	0	0	0	0	0	0	0	0	0	0	0	0	0	0	0	0	0	0	0	0	0	0	0	0	0	0	0	0	0	0	0	0	0	0	0	0	0	0
013019	08:58:40	09:09:23	641094	5.0.10.0	4_exp_EVA_AMP_AWA_CON	98	Rpleas_acq	Same	Rpleas	Bmasked	CS_B	2pleas	distractor2	EVAbeforeCON	AMP_CSunple	AMP1_masked	8	26	0	0	300	300	0	0	313	50	34,66796875	0	0	0	0	1	blank2r.bmp	0	1	BMVZ	0	1	blank2r.bmp	79	113	pic113.bmp	199	1	whitenoise_No3.bmp	306	0	0	0	0	0	0	0	0	0	0	0	0	0	0	0	0	0	0	0	0	0	0	0	0	0	0	0	0	0	0	0	0	0	0	0	0	0	0	0
013019	08:58:40	09:09:24	642547	5.0.10.0	4_exp_EVA_AMP_AWA_CON	98	Rpleas_acq	Same	Rpleas	Bmasked	CS_B	2pleas	distractor2	EVAbeforeCON	AMP_CSpleas	AMP1_masked	8	27	0	0	300	300	0	0	539	46	34,66796875	0	0	0	0	1	blank2r.bmp	0	1	GKQX	0	1	blank2r.bmp	79	103	pic103.bmp	199	1	whitenoise_No3.bmp	306	0	0	0	0	0	0	0	0	0	0	0	0	0	0	0	0	0	0	0	0	0	0	0	0	0	0	0	0	0	0	0	0	0	0	0	0	0	0	0
013019	08:58:40	09:09:26	644000	5.0.10.0	4_exp_EVA_AMP_AWA_CON	98	Rpleas_acq	Same	Rpleas	Bmasked	CS_B	2pleas	distractor2	EVAbeforeCON	AMP_CSunple	AMP1_masked	8	28	0	0	300	300	0	0	528	50	34,66796875	0	0	0	0	1	blank2r.bmp	0	1	BMVZ	0	1	blank2r.bmp	79	147	pic147.bmp	199	1	whitenoise_No3.bmp	306	0	0	0	0	0	0	0	0	0	0	0	0	0	0	0	0	0	0	0	0	0	0	0	0	0	0	0	0	0	0	0	0	0	0	0	0	0	0	0
013019	08:58:40	09:09:27	645666	5.0.10.0	4_exp_EVA_AMP_AWA_CON	98	Rpleas_acq	Same	Rpleas	Bmasked	CS_B	2pleas	distractor2	EVAbeforeCON	AMP_CSunple	AMP1_masked	8	29	0	0	300	300	0	0	740	46	34,66796875	1	0	0	0	1	blank2r.bmp	0	1	BMVZ	0	1	blank2r.bmp	79	134	pic134.bmp	199	1	whitenoise_No3.bmp	306	0	0	0	0	0	0	0	0	0	0	0	0	0	0	0	0	0	0	0	0	0	0	0	0	0	0	0	0	0	0	0	0	0	0	0	0	0	0	0
013019	08:58:40	09:09:29	647052	5.0.10.0	4_exp_EVA_AMP_AWA_CON	98	Rpleas_acq	Same	Rpleas	Bmasked	CS_B	2pleas	distractor2	EVAbeforeCON	AMP_CSunple	AMP1_masked	8	30	0	0	300	300	0	0	476	50	34,66796875	0	0	0	0	1	blank2r.bmp	0	1	BMVZ	0	1	blank2r.bmp	79	78	pic78.bmp	199	1	whitenoise_No3.bmp	306	0	0	0	0	0	0	0	0	0	0	0	0	0	0	0	0	0	0	0	0	0	0	0	0	0	0	0	0	0	0	0	0	0	0	0	0	0	0	0
013019	08:58:40	09:09:30	648478	5.0.10.0	4_exp_EVA_AMP_AWA_CON	98	Rpleas_acq	Same	Rpleas	Bmasked	CS_B	2pleas	distractor2	EVAbeforeCON	AMP_distractor	AMP1_masked	8	31	0	0	300	300	0	0	505	46	34,66796875	0	0	0	0	1	blank2r.bmp	0	1	JCRD	0	1	blank2r.bmp	79	126	pic126.bmp	199	1	whitenoise_No3.bmp	306	0	0	0	0	0	0	0	0	0	0	0	0	0	0	0	0	0	0	0	0	0	0	0	0	0	0	0	0	0	0	0	0	0	0	0	0	0	0	0
013019	08:58:40	09:09:32	649904	5.0.10.0	4_exp_EVA_AMP_AWA_CON	98	Rpleas_acq	Same	Rpleas	Bmasked	CS_B	2pleas	distractor2	EVAbeforeCON	AMP_CSunple	AMP1_masked	8	32	0	0	300	300	0	0	513	46	34,66796875	1	0	0	0	1	blank2r.bmp	0	1	BMVZ	0	1	blank2r.bmp	79	3	pic3.bmp	199	1	whitenoise_No3.bmp	306	0	0	0	0	0	0	0	0	0	0	0	0	0	0	0	0	0	0	0	0	0	0	0	0	0	0	0	0	0	0	0	0	0	0	0	0	0	0	0
013019	08:58:40	09:09:33	651343	5.0.10.0	4_exp_EVA_AMP_AWA_CON	98	Rpleas_acq	Same	Rpleas	Bmasked	CS_B	2pleas	distractor2	EVAbeforeCON	AMP_CSpleas	AMP1_masked	8	33	0	0	300	300	0	0	528	50	34,66796875	1	0	0	0	1	blank2r.bmp	0	1	GKQX	0	1	blank2r.bmp	79	66	pic66.bmp	199	1	whitenoise_No3.bmp	306	0	0	0	0	0	0	0	0	0	0	0	0	0	0	0	0	0	0	0	0	0	0	0	0	0	0	0	0	0	0	0	0	0	0	0	0	0	0	0
013019	08:58:40	09:09:34	652716	5.0.10.0	4_exp_EVA_AMP_AWA_CON	98	Rpleas_acq	Same	Rpleas	Bmasked	CS_B	2pleas	distractor2	EVAbeforeCON	AMP_distractor	AMP1_masked	8	34	0	0	300	300	0	0	445	46	34,66796875	0	0	0	0	1	blank2r.bmp	0	1	JCRD	0	1	blank2r.bmp	79	152	pic152.bmp	199	1	whitenoise_No3.bmp	306	0	0	0	0	0	0	0	0	0	0	0	0	0	0	0	0	0	0	0	0	0	0	0	0	0	0	0	0	0	0	0	0	0	0	0	0	0	0	0
013019	08:58:40	09:09:36	653982	5.0.10.0	4_exp_EVA_AMP_AWA_CON	98	Rpleas_acq	Same	Rpleas	Bmasked	CS_B	2pleas	distractor2	EVAbeforeCON	AMP_CSunple	AMP1_masked	8	35	0	0	300	300	0	0	348	46	34,66796875	1	0	0	0	1	blank2r.bmp	0	1	BMVZ	0	1	blank2r.bmp	79	141	pic141.bmp	199	1	whitenoise_No3.bmp	306	0	0	0	0	0	0	0	0	0	0	0	0	0	0	0	0	0	0	0	0	0	0	0	0	0	0	0	0	0	0	0	0	0	0	0	0	0	0	0
013019	08:58:40	09:09:37	655195	5.0.10.0	4_exp_EVA_AMP_AWA_CON	98	Rpleas_acq	Same	Rpleas	Bmasked	CS_B	2pleas	distractor2	EVAbeforeCON	AMP_CSunple	AMP1_masked	8	36	0	0	300	300	0	0	296	46	34,66796875	1	0	0	0	1	blank2r.bmp	0	1	BMVZ	0	1	blank2r.bmp	79	39	pic39.bmp	199	1	whitenoise_No3.bmp	306	0	0	0	0	0	0	0	0	0	0	0	0	0	0	0	0	0	0	0	0	0	0	0	0	0	0	0	0	0	0	0	0	0	0	0	0	0	0	0
013019	08:58:40	09:09:38	656528	5.0.10.0	4_exp_EVA_AMP_AWA_CON	98	Rpleas_acq	Same	Rpleas	Bmasked	CS_B	2pleas	distractor2	EVAbeforeCON	AMP_distractor	AMP1_masked	8	37	0	0	300	300	0	0	414	50	34,66796875	0	0	0	0	1	blank2r.bmp	0	1	JCRD	0	1	blank2r.bmp	79	71	pic71.bmp	199	1	whitenoise_No3.bmp	306	0	0	0	0	0	0	0	0	0	0	0	0	0	0	0	0	0	0	0	0	0	0	0	0	0	0	0	0	0	0	0	0	0	0	0	0	0	0	0
013019	08:58:40	09:09:40	657887	5.0.10.0	4_exp_EVA_AMP_AWA_CON	98	Rpleas_acq	Same	Rpleas	Bmasked	CS_B	2pleas	distractor2	EVAbeforeCON	AMP_CSunple	AMP1_masked	8	38	0	0	300	300	0	0	448	46	34,66796875	1	0	0	0	1	blank2r.bmp	0	1	BMVZ	0	1	blank2r.bmp	79	150	pic150.bmp	199	1	whitenoise_No3.bmp	306	0	0	0	0	0	0	0	0	0	0	0	0	0	0	0	0	0	0	0	0	0	0	0	0	0	0	0	0	0	0	0	0	0	0	0	0	0	0	0
013019	08:58:40	09:09:41	659114	5.0.10.0	4_exp_EVA_AMP_AWA_CON	98	Rpleas_acq	Same	Rpleas	Bmasked	CS_B	2pleas	distractor2	EVAbeforeCON	AMP_distractor	AMP1_masked	8	39	0	0	300	300	0	0	295	46	34,66796875	0	0	0	0	1	blank2r.bmp	0	1	JCRD	0	1	blank2r.bmp	79	137	pic137.bmp	199	1	whitenoise_No3.bmp	306	0	0	0	0	0	0	0	0	0	0	0	0	0	0	0	0	0	0	0	0	0	0	0	0	0	0	0	0	0	0	0	0	0	0	0	0	0	0	0
013019	08:58:40	09:09:42	660513	5.0.10.0	4_exp_EVA_AMP_AWA_CON	98	Rpleas_acq	Same	Rpleas	Bmasked	CS_B	2pleas	distractor2	EVAbeforeCON	AMP_distractor	AMP1_masked	8	40	0	0	300	300	0	0	490	46	34,66796875	0	0	0	0	1	blank2r.bmp	0	1	JCRD	0	1	blank2r.bmp	79	102	pic102.bmp	199	1	whitenoise_No3.bmp	306	0	0	0	0	0	0	0	0	0	0	0	0	0	0	0	0	0	0	0	0	0	0	0	0	0	0	0	0	0	0	0	0	0	0	0	0	0	0	0
013019	08:58:40	09:09:44	662059	5.0.10.0	4_exp_EVA_AMP_AWA_CON	98	Rpleas_acq	Same	Rpleas	Bmasked	CS_B	2pleas	distractor2	EVAbeforeCON	AMP_CSpleas	AMP1_masked	8	41	0	0	300	300	0	0	625	50	34,66796875	1	0	0	0	1	blank2r.bmp	0	1	GKQX	0	1	blank2r.bmp	79	111	pic111.bmp	199	1	whitenoise_No3.bmp	306	0	0	0	0	0	0	0	0	0	0	0	0	0	0	0	0	0	0	0	0	0	0	0	0	0	0	0	0	0	0	0	0	0	0	0	0	0	0	0
013019	08:58:40	09:09:45	663205	5.0.10.0	4_exp_EVA_AMP_AWA_CON	98	Rpleas_acq	Same	Rpleas	Bmasked	CS_B	2pleas	distractor2	EVAbeforeCON	AMP_CSpleas	AMP1_masked	8	42	0	0	300	300	0	0	227	46	34,66796875	0	0	0	0	1	blank2r.bmp	0	1	GKQX	0	1	blank2r.bmp	79	107	pic107.bmp	199	1	whitenoise_No3.bmp	306	0	0	0	0	0	0	0	0	0	0	0	0	0	0	0	0	0	0	0	0	0	0	0	0	0	0	0	0	0	0	0	0	0	0	0	0	0	0	0
013019	08:58:40	09:09:46	664565	5.0.10.0	4_exp_EVA_AMP_AWA_CON	98	Rpleas_acq	Same	Rpleas	Bmasked	CS_B	2pleas	distractor2	EVAbeforeCON	AMP_distractor	AMP1_masked	8	43	0	0	300	300	0	0	449	46	34,66796875	0	0	0	0	1	blank2r.bmp	0	1	JCRD	0	1	blank2r.bmp	79	149	pic149.bmp	199	1	whitenoise_No3.bmp	306	0	0	0	0	0	0	0	0	0	0	0	0	0	0	0	0	0	0	0	0	0	0	0	0	0	0	0	0	0	0	0	0	0	0	0	0	0	0	0
013019	08:58:40	09:09:48	665871	5.0.10.0	4_exp_EVA_AMP_AWA_CON	98	Rpleas_acq	Same	Rpleas	Bmasked	CS_B	2pleas	distractor2	EVAbeforeCON	AMP_distractor	AMP1_masked	8	44	0	0	300	300	0	0	378	46	34,66796875	0	0	0	0	1	blank2r.bmp	0	1	JCRD	0	1	blank2r.bmp	79	120	pic120.bmp	199	1	whitenoise_No3.bmp	306	0	0	0	0	0	0	0	0	0	0	0	0	0	0	0	0	0	0	0	0	0	0	0	0	0	0	0	0	0	0	0	0	0	0	0	0	0	0	0
013019	08:58:40	09:09:50	668083	5.0.10.0	4_exp_EVA_AMP_AWA_CON	98	Rpleas_acq	Same	Rpleas	Bmasked	CS_B	2pleas	distractor2	EVAbeforeCON	AMP_CSpleas	AMP1_masked	8	45	0	0	300	300	0	0	1281	50	34,66796875	1	0	0	0	1	blank2r.bmp	0	1	GKQX	0	1	blank2r.bmp	79	5	pic5.bmp	199	1	whitenoise_No3.bmp	306	0	0	0	0	0	0	0	0	0	0	0	0	0	0	0	0	0	0	0	0	0	0	0	0	0	0	0	0	0	0	0	0	0	0	0	0	0	0	0
013019	08:58:40	09:09:51	669469	5.0.10.0	4_exp_EVA_AMP_AWA_CON	98	Rpleas_acq	Same	Rpleas	Bmasked	CS_B	2pleas	distractor2	EVAbeforeCON	AMP_CSpleas	AMP1_masked	8	46	0	0	300	300	0	0	471	50	34,66796875	1	0	0	0	1	blank2r.bmp	0	1	GKQX	0	1	blank2r.bmp	79	21	pic21.bmp	199	1	whitenoise_No3.bmp	306	0	0	0	0	0	0	0	0	0	0	0	0	0	0	0	0	0	0	0	0	0	0	0	0	0	0	0	0	0	0	0	0	0	0	0	0	0	0	0
013019	08:58:40	09:09:53	670975	5.0.10.0	4_exp_EVA_AMP_AWA_CON	98	Rpleas_acq	Same	Rpleas	Bmasked	CS_B	2pleas	distractor2	EVAbeforeCON	AMP_CSunple	AMP1_masked	8	47	0	0	300	300	0	0	597	46	34,66796875	1	0	0	0	1	blank2r.bmp	0	1	BMVZ	0	1	blank2r.bmp	79	131	pic131.bmp	199	1	whitenoise_No3.bmp	306	0	0	0	0	0	0	0	0	0	0	0	0	0	0	0	0	0	0	0	0	0	0	0	0	0	0	0	0	0	0	0	0	0	0	0	0	0	0	0
013019	08:58:40	09:09:54	672455	5.0.10.0	4_exp_EVA_AMP_AWA_CON	98	Rpleas_acq	Same	Rpleas	Bmasked	CS_B	2pleas	distractor2	EVAbeforeCON	AMP_CSunple	AMP1_masked	8	48	0	0	300	300	0	0	556	50	34,66796875	0	0	0	0	1	blank2r.bmp	0	1	BMVZ	0	1	blank2r.bmp	79	32	pic32.bmp	199	1	whitenoise_No3.bmp	306	0	0	0	0	0	0	0	0	0	0	0	0	0	0	0	0	0	0	0	0	0	0	0	0	0	0	0	0	0	0	0	0	0	0	0	0	0	0	0
013019	08:58:40	09:09:56	673841	5.0.10.0	4_exp_EVA_AMP_AWA_CON	98	Rpleas_acq	Same	Rpleas	Bmasked	CS_B	2pleas	distractor2	EVAbeforeCON	AMP_CSpleas	AMP1_masked	8	49	0	0	300	300	0	0	464	46	34,66796875	0	0	0	0	1	blank2r.bmp	0	1	GKQX	0	1	blank2r.bmp	79	136	pic136.bmp	199	1	whitenoise_No3.bmp	306	0	0	0	0	0	0	0	0	0	0	0	0	0	0	0	0	0	0	0	0	0	0	0	0	0	0	0	0	0	0	0	0	0	0	0	0	0	0	0
013019	08:58:40	09:09:57	675240	5.0.10.0	4_exp_EVA_AMP_AWA_CON	98	Rpleas_acq	Same	Rpleas	Bmasked	CS_B	2pleas	distractor2	EVAbeforeCON	AMP_distractor	AMP1_masked	8	50	0	0	300	300	0	0	478	50	34,66796875	0	0	0	0	1	blank2r.bmp	0	1	JCRD	0	1	blank2r.bmp	79	11	pic11.bmp	199	1	whitenoise_No3.bmp	306	0	0	0	0	0	0	0	0	0	0	0	0	0	0	0	0	0	0	0	0	0	0	0	0	0	0	0	0	0	0	0	0	0	0	0	0	0	0	0
013019	08:58:40	09:09:59	676760	5.0.10.0	4_exp_EVA_AMP_AWA_CON	98	Rpleas_acq	Same	Rpleas	Bmasked	CS_B	2pleas	distractor2	EVAbeforeCON	AMP_CSunple	AMP1_masked	8	51	0	0	300	300	0	0	582	50	34,66796875	0	0	0	0	1	blank2r.bmp	0	1	BMVZ	0	1	blank2r.bmp	79	112	pic112.bmp	199	1	whitenoise_No3.bmp	306	0	0	0	0	0	0	0	0	0	0	0	0	0	0	0	0	0	0	0	0	0	0	0	0	0	0	0	0	0	0	0	0	0	0	0	0	0	0	0
013019	08:58:40	09:10:09	687515	5.0.10.0	4_exp_EVA_AMP_AWA_CON	98	Rpleas_acq	Same	Rpleas	Bmasked	CS_B	2pleas	distractor2	EVAbeforeCON	AMP_CSunple	AMP23	9	1	0	0	300	300	0	0	581	46	34,66796875	1	0	0	0	1	blank2r.bmp	0	1	BMVZ	0	1	blank2r.bmp	79	95	pic95.bmp	199	1	whitenoise_No3.bmp	306	0	0	0	0	0	0	0	0	0	0	0	0	0	0	0	0	0	0	0	0	0	0	0	0	0	0	0	0	0	0	0	0	0	0	0	0	0	0	0
013019	08:58:40	09:10:11	688955	5.0.10.0	4_exp_EVA_AMP_AWA_CON	98	Rpleas_acq	Same	Rpleas	Bmasked	CS_B	2pleas	distractor2	EVAbeforeCON	AMP_CSpleas	AMP23	9	2	0	0	300	300	0	0	529	46	34,66796875	0	0	0	0	1	blank2r.bmp	0	1	GKQX	0	1	blank2r.bmp	79	90	pic90.bmp	199	1	whitenoise_No3.bmp	306	0	0	0	0	0	0	0	0	0	0	0	0	0	0	0	0	0	0	0	0	0	0	0	0	0	0	0	0	0	0	0	0	0	0	0	0	0	0	0
013019	08:58:40	09:10:12	690261	5.0.10.0	4_exp_EVA_AMP_AWA_CON	98	Rpleas_acq	Same	Rpleas	Bmasked	CS_B	2pleas	distractor2	EVAbeforeCON	AMP_distractor	AMP23	9	3	0	0	300	300	0	0	378	50	34,66796875	0	0	0	0	1	blank2r.bmp	0	1	JCRD	0	1	blank2r.bmp	79	86	pic86.bmp	199	1	whitenoise_No3.bmp	306	0	0	0	0	0	0	0	0	0	0	0	0	0	0	0	0	0	0	0	0	0	0	0	0	0	0	0	0	0	0	0	0	0	0	0	0	0	0	0
013019	08:58:40	09:10:13	691514	5.0.10.0	4_exp_EVA_AMP_AWA_CON	98	Rpleas_acq	Same	Rpleas	Bmasked	CS_B	2pleas	distractor2	EVAbeforeCON	AMP_CSpleas	AMP23	9	4	0	0	300	300	0	0	328	46	34,66796875	0	0	0	0	1	blank2r.bmp	0	1	GKQX	0	1	blank2r.bmp	79	87	pic87.bmp	199	1	whitenoise_No3.bmp	306	0	0	0	0	0	0	0	0	0	0	0	0	0	0	0	0	0	0	0	0	0	0	0	0	0	0	0	0	0	0	0	0	0	0	0	0	0	0	0
013019	08:58:40	09:10:15	692900	5.0.10.0	4_exp_EVA_AMP_AWA_CON	98	Rpleas_acq	Same	Rpleas	Bmasked	CS_B	2pleas	distractor2	EVAbeforeCON	AMP_CSunple	AMP23	9	5	0	0	300	300	0	0	461	46	34,66796875	1	0	0	0	1	blank2r.bmp	0	1	BMVZ	0	1	blank2r.bmp	79	117	pic117.bmp	199	1	whitenoise_No3.bmp	306	0	0	0	0	0	0	0	0	0	0	0	0	0	0	0	0	0	0	0	0	0	0	0	0	0	0	0	0	0	0	0	0	0	0	0	0	0	0	0
013019	08:58:40	09:10:16	694299	5.0.10.0	4_exp_EVA_AMP_AWA_CON	98	Rpleas_acq	Same	Rpleas	Bmasked	CS_B	2pleas	distractor2	EVAbeforeCON	AMP_distractor	AMP23	9	6	0	0	300	300	0	0	484	50	34,66796875	0	0	0	0	1	blank2r.bmp	0	1	JCRD	0	1	blank2r.bmp	79	15	pic15.bmp	199	1	whitenoise_No3.bmp	306	0	0	0	0	0	0	0	0	0	0	0	0	0	0	0	0	0	0	0	0	0	0	0	0	0	0	0	0	0	0	0	0	0	0	0	0	0	0	0
013019	08:58:40	09:10:17	695632	5.0.10.0	4_exp_EVA_AMP_AWA_CON	98	Rpleas_acq	Same	Rpleas	Bmasked	CS_B	2pleas	distractor2	EVAbeforeCON	AMP_CSpleas	AMP23	9	7	0	0	300	300	0	0	400	46	34,66796875	0	0	0	0	1	blank2r.bmp	0	1	GKQX	0	1	blank2r.bmp	79	47	pic47.bmp	199	1	whitenoise_No3.bmp	306	0	0	0	0	0	0	0	0	0	0	0	0	0	0	0	0	0	0	0	0	0	0	0	0	0	0	0	0	0	0	0	0	0	0	0	0	0	0	0
013019	08:58:40	09:10:19	696951	5.0.10.0	4_exp_EVA_AMP_AWA_CON	98	Rpleas_acq	Same	Rpleas	Bmasked	CS_B	2pleas	distractor2	EVAbeforeCON	AMP_CSpleas	AMP23	9	8	0	0	300	300	0	0	399	46	34,66796875	0	0	0	0	1	blank2r.bmp	0	1	GKQX	0	1	blank2r.bmp	79	76	pic76.bmp	199	1	whitenoise_No3.bmp	306	0	0	0	0	0	0	0	0	0	0	0	0	0	0	0	0	0	0	0	0	0	0	0	0	0	0	0	0	0	0	0	0	0	0	0	0	0	0	0
013019	08:58:40	09:10:20	698457	5.0.10.0	4_exp_EVA_AMP_AWA_CON	98	Rpleas_acq	Same	Rpleas	Bmasked	CS_B	2pleas	distractor2	EVAbeforeCON	AMP_CSunple	AMP23	9	9	0	0	300	300	0	0	575	46	34,66796875	1	0	0	0	1	blank2r.bmp	0	1	BMVZ	0	1	blank2r.bmp	79	61	pic61.bmp	199	1	whitenoise_No3.bmp	306	0	0	0	0	0	0	0	0	0	0	0	0	0	0	0	0	0	0	0	0	0	0	0	0	0	0	0	0	0	0	0	0	0	0	0	0	0	0	0
013019	08:58:40	09:10:22	699937	5.0.10.0	4_exp_EVA_AMP_AWA_CON	98	Rpleas_acq	Same	Rpleas	Bmasked	CS_B	2pleas	distractor2	EVAbeforeCON	AMP_CSunple	AMP23	9	10	0	0	300	300	0	0	566	50	34,66796875	0	0	0	0	1	blank2r.bmp	0	1	BMVZ	0	1	blank2r.bmp	79	60	pic60.bmp	199	1	whitenoise_No3.bmp	306	0	0	0	0	0	0	0	0	0	0	0	0	0	0	0	0	0	0	0	0	0	0	0	0	0	0	0	0	0	0	0	0	0	0	0	0	0	0	0
013019	08:58:40	09:10:23	701243	5.0.10.0	4_exp_EVA_AMP_AWA_CON	98	Rpleas_acq	Same	Rpleas	Bmasked	CS_B	2pleas	distractor2	EVAbeforeCON	AMP_CSunple	AMP23	9	11	0	0	300	300	0	0	397	50	34,66796875	0	0	0	0	1	blank2r.bmp	0	1	BMVZ	0	1	blank2r.bmp	79	57	pic57.bmp	199	1	whitenoise_No3.bmp	306	0	0	0	0	0	0	0	0	0	0	0	0	0	0	0	0	0	0	0	0	0	0	0	0	0	0	0	0	0	0	0	0	0	0	0	0	0	0	0
013019	08:58:40	09:10:24	702509	5.0.10.0	4_exp_EVA_AMP_AWA_CON	98	Rpleas_acq	Same	Rpleas	Bmasked	CS_B	2pleas	distractor2	EVAbeforeCON	AMP_distractor	AMP23	9	12	0	0	300	300	0	0	339	50	34,66796875	0	0	0	0	1	blank2r.bmp	0	1	JCRD	0	1	blank2r.bmp	79	106	pic106.bmp	199	1	whitenoise_No3.bmp	306	0	0	0	0	0	0	0	0	0	0	0	0	0	0	0	0	0	0	0	0	0	0	0	0	0	0	0	0	0	0	0	0	0	0	0	0	0	0	0
013019	08:58:40	09:10:26	703988	5.0.10.0	4_exp_EVA_AMP_AWA_CON	98	Rpleas_acq	Same	Rpleas	Bmasked	CS_B	2pleas	distractor2	EVAbeforeCON	AMP_distractor	AMP23	9	13	0	0	300	300	0	0	562	46	34,66796875	0	0	0	0	1	blank2r.bmp	0	1	JCRD	0	1	blank2r.bmp	79	128	pic128.bmp	199	1	whitenoise_No3.bmp	306	0	0	0	0	0	0	0	0	0	0	0	0	0	0	0	0	0	0	0	0	0	0	0	0	0	0	0	0	0	0	0	0	0	0	0	0	0	0	0
013019	08:58:40	09:10:27	705255	5.0.10.0	4_exp_EVA_AMP_AWA_CON	98	Rpleas_acq	Same	Rpleas	Bmasked	CS_B	2pleas	distractor2	EVAbeforeCON	AMP_CSunple	AMP23	9	14	0	0	300	300	0	0	336	50	34,66796875	0	0	0	0	1	blank2r.bmp	0	1	BMVZ	0	1	blank2r.bmp	79	73	pic73.bmp	199	1	whitenoise_No3.bmp	306	0	0	0	0	0	0	0	0	0	0	0	0	0	0	0	0	0	0	0	0	0	0	0	0	0	0	0	0	0	0	0	0	0	0	0	0	0	0	0
013019	08:58:40	09:10:29	706841	5.0.10.0	4_exp_EVA_AMP_AWA_CON	98	Rpleas_acq	Same	Rpleas	Bmasked	CS_B	2pleas	distractor2	EVAbeforeCON	AMP_CSpleas	AMP23	9	15	0	0	300	300	0	0	675	46	34,66796875	0	0	0	0	1	blank2r.bmp	0	1	GKQX	0	1	blank2r.bmp	79	116	pic116.bmp	199	1	whitenoise_No3.bmp	306	0	0	0	0	0	0	0	0	0	0	0	0	0	0	0	0	0	0	0	0	0	0	0	0	0	0	0	0	0	0	0	0	0	0	0	0	0	0	0
013019	08:58:40	09:10:30	708107	5.0.10.0	4_exp_EVA_AMP_AWA_CON	98	Rpleas_acq	Same	Rpleas	Bmasked	CS_B	2pleas	distractor2	EVAbeforeCON	AMP_CSunple	AMP23	9	16	0	0	300	300	0	0	344	46	34,66796875	1	0	0	0	1	blank2r.bmp	0	1	BMVZ	0	1	blank2r.bmp	79	2	pic2.bmp	199	1	whitenoise_No3.bmp	306	0	0	0	0	0	0	0	0	0	0	0	0	0	0	0	0	0	0	0	0	0	0	0	0	0	0	0	0	0	0	0	0	0	0	0	0	0	0	0
013019	08:58:40	09:10:31	709400	5.0.10.0	4_exp_EVA_AMP_AWA_CON	98	Rpleas_acq	Same	Rpleas	Bmasked	CS_B	2pleas	distractor2	EVAbeforeCON	AMP_distractor	AMP23	9	17	0	0	300	300	0	0	370	46	34,66796875	0	0	0	0	1	blank2r.bmp	0	1	JCRD	0	1	blank2r.bmp	79	53	pic53.bmp	199	1	whitenoise_No3.bmp	306	0	0	0	0	0	0	0	0	0	0	0	0	0	0	0	0	0	0	0	0	0	0	0	0	0	0	0	0	0	0	0	0	0	0	0	0	0	0	0
013019	08:58:40	09:10:33	710772	5.0.10.0	4_exp_EVA_AMP_AWA_CON	98	Rpleas_acq	Same	Rpleas	Bmasked	CS_B	2pleas	distractor2	EVAbeforeCON	AMP_CSunple	AMP23	9	18	0	0	300	300	0	0	440	46	34,66796875	1	0	0	0	1	blank2r.bmp	0	1	BMVZ	0	1	blank2r.bmp	79	118	pic118.bmp	199	1	whitenoise_No3.bmp	306	0	0	0	0	0	0	0	0	0	0	0	0	0	0	0	0	0	0	0	0	0	0	0	0	0	0	0	0	0	0	0	0	0	0	0	0	0	0	0
013019	08:58:40	09:10:34	712158	5.0.10.0	4_exp_EVA_AMP_AWA_CON	98	Rpleas_acq	Same	Rpleas	Bmasked	CS_B	2pleas	distractor2	EVAbeforeCON	AMP_distractor	AMP23	9	19	0	0	300	300	0	0	456	46	34,66796875	0	0	0	0	1	blank2r.bmp	0	1	JCRD	0	1	blank2r.bmp	79	38	pic38.bmp	199	1	whitenoise_No3.bmp	306	0	0	0	0	0	0	0	0	0	0	0	0	0	0	0	0	0	0	0	0	0	0	0	0	0	0	0	0	0	0	0	0	0	0	0	0	0	0	0
013019	08:58:40	09:10:35	713518	5.0.10.0	4_exp_EVA_AMP_AWA_CON	98	Rpleas_acq	Same	Rpleas	Bmasked	CS_B	2pleas	distractor2	EVAbeforeCON	AMP_CSunple	AMP23	9	20	0	0	300	300	0	0	438	46	34,66796875	1	0	0	0	1	blank2r.bmp	0	1	BMVZ	0	1	blank2r.bmp	79	36	pic36.bmp	199	1	whitenoise_No3.bmp	306	0	0	0	0	0	0	0	0	0	0	0	0	0	0	0	0	0	0	0	0	0	0	0	0	0	0	0	0	0	0	0	0	0	0	0	0	0	0	0
013019	08:58:40	09:10:36	714677	5.0.10.0	4_exp_EVA_AMP_AWA_CON	98	Rpleas_acq	Same	Rpleas	Bmasked	CS_B	2pleas	distractor2	EVAbeforeCON	AMP_CSunple	AMP23	9	21	0	0	300	300	0	0	228	50	34,66796875	0	0	0	0	1	blank2r.bmp	0	1	BMVZ	0	1	blank2r.bmp	79	34	pic34.bmp	199	1	whitenoise_No3.bmp	306	0	0	0	0	0	0	0	0	0	0	0	0	0	0	0	0	0	0	0	0	0	0	0	0	0	0	0	0	0	0	0	0	0	0	0	0	0	0	0
013019	08:58:40	09:10:38	716010	5.0.10.0	4_exp_EVA_AMP_AWA_CON	98	Rpleas_acq	Same	Rpleas	Bmasked	CS_B	2pleas	distractor2	EVAbeforeCON	AMP_distractor	AMP23	9	22	0	0	300	300	0	0	415	50	34,66796875	0	0	0	0	1	blank2r.bmp	0	1	JCRD	0	1	blank2r.bmp	79	55	pic55.bmp	199	1	whitenoise_No3.bmp	306	0	0	0	0	0	0	0	0	0	0	0	0	0	0	0	0	0	0	0	0	0	0	0	0	0	0	0	0	0	0	0	0	0	0	0	0	0	0	0
013019	08:58:40	09:10:39	717596	5.0.10.0	4_exp_EVA_AMP_AWA_CON	98	Rpleas_acq	Same	Rpleas	Bmasked	CS_B	2pleas	distractor2	EVAbeforeCON	AMP_distractor	AMP23	9	23	0	0	300	300	0	0	668	50	34,66796875	0	0	0	0	1	blank2r.bmp	0	1	JCRD	0	1	blank2r.bmp	79	146	pic146.bmp	199	1	whitenoise_No3.bmp	306	0	0	0	0	0	0	0	0	0	0	0	0	0	0	0	0	0	0	0	0	0	0	0	0	0	0	0	0	0	0	0	0	0	0	0	0	0	0	0
013019	08:58:40	09:10:41	718942	5.0.10.0	4_exp_EVA_AMP_AWA_CON	98	Rpleas_acq	Same	Rpleas	Bmasked	CS_B	2pleas	distractor2	EVAbeforeCON	AMP_CSunple	AMP23	9	24	0	0	300	300	0	0	431	50	34,66796875	0	0	0	0	1	blank2r.bmp	0	1	BMVZ	0	1	blank2r.bmp	79	28	pic28.bmp	199	1	whitenoise_No3.bmp	306	0	0	0	0	0	0	0	0	0	0	0	0	0	0	0	0	0	0	0	0	0	0	0	0	0	0	0	0	0	0	0	0	0	0	0	0	0	0	0
013019	08:58:40	09:10:42	720208	5.0.10.0	4_exp_EVA_AMP_AWA_CON	98	Rpleas_acq	Same	Rpleas	Bmasked	CS_B	2pleas	distractor2	EVAbeforeCON	AMP_CSunple	AMP23	9	25	0	0	300	300	0	0	340	46	34,66796875	1	0	0	0	1	blank2r.bmp	0	1	BMVZ	0	1	blank2r.bmp	79	96	pic96.bmp	199	1	whitenoise_No3.bmp	306	0	0	0	0	0	0	0	0	0	0	0	0	0	0	0	0	0	0	0	0	0	0	0	0	0	0	0	0	0	0	0	0	0	0	0	0	0	0	0
013019	08:58:40	09:10:43	721528	5.0.10.0	4_exp_EVA_AMP_AWA_CON	98	Rpleas_acq	Same	Rpleas	Bmasked	CS_B	2pleas	distractor2	EVAbeforeCON	AMP_distractor	AMP23	9	26	0	0	300	300	0	0	387	46	34,66796875	0	0	0	0	1	blank2r.bmp	0	1	JCRD	0	1	blank2r.bmp	79	153	pic153.bmp	199	1	whitenoise_No3.bmp	306	0	0	0	0	0	0	0	0	0	0	0	0	0	0	0	0	0	0	0	0	0	0	0	0	0	0	0	0	0	0	0	0	0	0	0	0	0	0	0
013019	08:58:40	09:10:45	722981	5.0.10.0	4_exp_EVA_AMP_AWA_CON	98	Rpleas_acq	Same	Rpleas	Bmasked	CS_B	2pleas	distractor2	EVAbeforeCON	AMP_CSpleas	AMP23	9	27	0	0	300	300	0	0	542	50	34,66796875	1	0	0	0	1	blank2r.bmp	0	1	GKQX	0	1	blank2r.bmp	79	49	pic49.bmp	199	1	whitenoise_No3.bmp	306	0	0	0	0	0	0	0	0	0	0	0	0	0	0	0	0	0	0	0	0	0	0	0	0	0	0	0	0	0	0	0	0	0	0	0	0	0	0	0
