date	time	script.currenttime	script.elapsedtime	build	script.currentexpt	subject	expressions.LRpleas_acq	expressions.SameOppo	expressions.condition_Lpleas	expressions.ABmasked	expressions.conditionCS_A	expressions.condition_1pleas	expressions.condition_distractor_AMP	expressions.AWACON_AMPEVA_first	trialcode	blockcode	blocknum	trialnum	windowcenter	inwindow	pretrialpause	posttrialpause	trialduration	trialtimeout	latency	response	expressions.correctedscore	correct	values.vis_performance	values.vis_rating_sum	values.vis_rating_mean	stimulusnumber1	stimulusitem1	stimulusonset1	stimulusnumber2	stimulusitem2	stimulusonset2	stimulusnumber3	stimulusitem3	stimulusonset3	stimulusnumber4	stimulusitem4	stimulusonset4	stimulusnumber5	stimulusitem5	stimulusonset5	stimulusnumber6	stimulusitem6	stimulusonset6	stimulusnumber7	stimulusitem7	stimulusonset7	stimulusnumber8	stimulusitem8	stimulusonset8	stimulusnumber9	stimulusitem9	stimulusonset9	stimulusnumber10	stimulusitem10	stimulusonset10	stimulusnumber11	stimulusitem11	stimulusonset11	stimulusnumber12	stimulusitem12	stimulusonset12	stimulusnumber13	stimulusitem13	stimulusonset13	stimulusnumber14	stimulusitem14	stimulusonset14	stimulusnumber15	stimulusitem15	stimulusonset15	stimulusnumber16	stimulusitem16	stimulusonset16	stimulusnumber17	stimulusitem17	stimulusonset17	stimulusnumber18	stimulusitem18	stimulusonset18
011119	09:06:09	09:08:27	135583	5.0.10.0	4_exp_AWA_CON_EVA_AMP	62	Rpleas_acq	Same	Rpleas	Bmasked	CS_B	1pleas	distractor2	CONbeforeEVA	acq_new_pleas_masked	acq1_masked	1	1	0	0	300	300	0	0	2548	50	0	1	0	0	0	1	blank2r.bmp	0	1	+	0	2	B2r.bmp	492	1	blank2r.bmp	786	1	B1r.bmp	786	1	blank2r.bmp	866	1	schön	866	0	0	0	0	0	0	0	0	0	0	0	0	0	0	0	0	0	0	0	0	0	0	0	0	0	0	0	0	0	0	0	0	0
011119	09:06:09	09:08:29	137742	5.0.10.0	4_exp_AWA_CON_EVA_AMP	62	Rpleas_acq	Same	Rpleas	Bmasked	CS_B	2pleas	distractor2	CONbeforeEVA	acq_US_pleas_masked	acq1_masked	1	2	0	0	300	300	0	0	676	50	0	1	0	0	0	1	blank2r.bmp	0	1	+	0	8	C4r.bmp	492	1	blank2r.bmp	786	1	GKQX	786	1	blank2r.bmp	866	1	freundlich	866	0	0	0	0	0	0	0	0	0	0	0	0	0	0	0	0	0	0	0	0	0	0	0	0	0	0	0	0	0	0	0	0	0
011119	09:06:09	09:08:31	139848	5.0.10.0	4_exp_AWA_CON_EVA_AMP	62	Rpleas_acq	Same	Rpleas	Bmasked	CS_B	2pleas	distractor2	CONbeforeEVA	acq_new_unple_masked	acq1_masked	1	3	0	0	300	300	0	0	608	46	0	1	0	0	0	1	blank2r.bmp	0	1	+	0	3	B3r.bmp	492	1	blank2r.bmp	786	7	C3r.bmp	786	1	blank2r.bmp	866	1	schlecht	866	0	0	0	0	0	0	0	0	0	0	0	0	0	0	0	0	0	0	0	0	0	0	0	0	0	0	0	0	0	0	0	0	0
011119	09:06:09	09:08:33	141954	5.0.10.0	4_exp_AWA_CON_EVA_AMP	62	Rpleas_acq	Same	Rpleas	Bmasked	CS_B	2pleas	distractor2	CONbeforeEVA	acq_new_pleas_masked	acq1_masked	1	4	0	0	300	300	0	0	636	50	0	1	0	0	0	1	blank2r.bmp	0	1	+	0	1	B1r.bmp	492	1	blank2r.bmp	786	6	C2r.bmp	786	1	blank2r.bmp	866	5	loyal	866	0	0	0	0	0	0	0	0	0	0	0	0	0	0	0	0	0	0	0	0	0	0	0	0	0	0	0	0	0	0	0	0	0
011119	09:06:09	09:08:35	144007	5.0.10.0	4_exp_AWA_CON_EVA_AMP	62	Rpleas_acq	Same	Rpleas	Bmasked	CS_B	2pleas	distractor2	CONbeforeEVA	acq_new_pleas_masked	acq1_masked	1	5	0	0	300	300	0	0	548	50	0	1	0	0	0	1	blank2r.bmp	0	1	+	0	6	C2r.bmp	492	1	blank2r.bmp	786	3	B3r.bmp	786	1	blank2r.bmp	866	6	lachen	866	0	0	0	0	0	0	0	0	0	0	0	0	0	0	0	0	0	0	0	0	0	0	0	0	0	0	0	0	0	0	0	0	0
011119	09:06:09	09:08:37	146192	5.0.10.0	4_exp_AWA_CON_EVA_AMP	62	Rpleas_acq	Same	Rpleas	Bmasked	CS_B	2pleas	distractor2	CONbeforeEVA	acq_US_unple_masked	acq1_masked	1	6	0	0	300	300	0	0	697	46	0	1	0	0	0	1	blank2r.bmp	0	1	+	0	4	B4r.bmp	492	1	blank2r.bmp	786	1	BMVZ	786	1	blank2r.bmp	866	2	hindern	866	0	0	0	0	0	0	0	0	0	0	0	0	0	0	0	0	0	0	0	0	0	0	0	0	0	0	0	0	0	0	0	0	0
011119	09:06:09	09:08:40	148232	5.0.10.0	4_exp_AWA_CON_EVA_AMP	62	Rpleas_acq	Same	Rpleas	Bmasked	CS_B	2pleas	distractor2	CONbeforeEVA	acq_US_pleas_masked	acq1_masked	1	7	0	0	300	300	0	0	555	50	0	1	0	0	0	1	blank2r.bmp	0	1	+	0	5	C1r.bmp	492	1	blank2r.bmp	786	1	GKQX	786	1	blank2r.bmp	866	5	ehrlich	866	0	0	0	0	0	0	0	0	0	0	0	0	0	0	0	0	0	0	0	0	0	0	0	0	0	0	0	0	0	0	0	0	0
011119	09:06:09	09:08:42	150551	5.0.10.0	4_exp_AWA_CON_EVA_AMP	62	Rpleas_acq	Same	Rpleas	Bmasked	CS_B	2pleas	distractor2	CONbeforeEVA	acq_new_unple_masked	acq1_masked	1	8	0	0	300	300	0	0	828	46	0	1	0	0	0	1	blank2r.bmp	0	1	+	0	7	C3r.bmp	492	1	blank2r.bmp	786	5	C1r.bmp	786	1	blank2r.bmp	866	5	lasch	866	0	0	0	0	0	0	0	0	0	0	0	0	0	0	0	0	0	0	0	0	0	0	0	0	0	0	0	0	0	0	0	0	0
011119	09:06:09	09:08:44	152670	5.0.10.0	4_exp_AWA_CON_EVA_AMP	62	Rpleas_acq	Same	Rpleas	Bmasked	CS_B	2pleas	distractor2	CONbeforeEVA	acq_US_unple_masked	acq1_masked	1	9	0	0	300	300	0	0	647	46	0	1	0	0	0	1	blank2r.bmp	0	1	+	0	1	B1r.bmp	492	1	blank2r.bmp	786	1	BMVZ	786	1	blank2r.bmp	866	6	schroff	866	0	0	0	0	0	0	0	0	0	0	0	0	0	0	0	0	0	0	0	0	0	0	0	0	0	0	0	0	0	0	0	0	0
011119	09:06:09	09:08:46	155015	5.0.10.0	4_exp_AWA_CON_EVA_AMP	62	Rpleas_acq	Same	Rpleas	Bmasked	CS_B	2pleas	distractor2	CONbeforeEVA	acq_new_unple_masked	acq1_masked	1	10	0	0	300	300	0	0	868	46	0	1	0	0	0	1	blank2r.bmp	0	1	+	0	8	C4r.bmp	492	1	blank2r.bmp	786	2	B2r.bmp	786	1	blank2r.bmp	866	2	faul	866	0	0	0	0	0	0	0	0	0	0	0	0	0	0	0	0	0	0	0	0	0	0	0	0	0	0	0	0	0	0	0	0	0
011119	09:06:09	09:08:48	157135	5.0.10.0	4_exp_AWA_CON_EVA_AMP	62	Rpleas_acq	Same	Rpleas	Bmasked	CS_B	2pleas	distractor2	CONbeforeEVA	acq_US_pleas_masked	acq1_masked	1	11	0	0	300	300	0	0	649	50	0	1	0	0	0	1	blank2r.bmp	0	1	+	0	2	B2r.bmp	492	1	blank2r.bmp	786	1	GKQX	786	1	blank2r.bmp	866	2	helfen	866	0	0	0	0	0	0	0	0	0	0	0	0	0	0	0	0	0	0	0	0	0	0	0	0	0	0	0	0	0	0	0	0	0
011119	09:06:09	09:08:51	159813	5.0.10.0	4_exp_AWA_CON_EVA_AMP	62	Rpleas_acq	Same	Rpleas	Bmasked	CS_B	2pleas	distractor2	CONbeforeEVA	acq_US_unple_masked	acq1_masked	1	12	0	0	300	300	0	0	1195	46	0	1	0	0	0	1	blank2r.bmp	0	1	+	0	5	C1r.bmp	492	1	blank2r.bmp	786	1	BMVZ	786	1	blank2r.bmp	866	5	eitel	866	0	0	0	0	0	0	0	0	0	0	0	0	0	0	0	0	0	0	0	0	0	0	0	0	0	0	0	0	0	0	0	0	0
011119	09:06:09	09:08:53	161879	5.0.10.0	4_exp_AWA_CON_EVA_AMP	62	Rpleas_acq	Same	Rpleas	Bmasked	CS_B	2pleas	distractor2	CONbeforeEVA	acq_new_pleas_masked	acq1_masked	1	13	0	0	300	300	0	0	580	50	0	1	0	0	0	1	blank2r.bmp	0	1	+	0	4	B4r.bmp	492	1	blank2r.bmp	786	8	C4r.bmp	786	1	blank2r.bmp	866	2	fair	866	0	0	0	0	0	0	0	0	0	0	0	0	0	0	0	0	0	0	0	0	0	0	0	0	0	0	0	0	0	0	0	0	0
011119	09:06:09	09:08:55	164118	5.0.10.0	4_exp_AWA_CON_EVA_AMP	62	Rpleas_acq	Same	Rpleas	Bmasked	CS_B	2pleas	distractor2	CONbeforeEVA	acq_new_unple_masked	acq1_masked	1	14	0	0	300	300	0	0	745	46	0	1	0	0	0	1	blank2r.bmp	0	1	+	0	3	B3r.bmp	492	1	blank2r.bmp	786	4	B4r.bmp	786	1	blank2r.bmp	866	4	strafen	866	0	0	0	0	0	0	0	0	0	0	0	0	0	0	0	0	0	0	0	0	0	0	0	0	0	0	0	0	0	0	0	0	0
011119	09:06:09	09:08:57	166197	5.0.10.0	4_exp_AWA_CON_EVA_AMP	62	Rpleas_acq	Same	Rpleas	Bmasked	CS_B	2pleas	distractor2	CONbeforeEVA	acq_US_unple_masked	acq1_masked	1	15	0	0	300	300	0	0	598	46	0	1	0	0	0	1	blank2r.bmp	0	1	+	0	7	C3r.bmp	492	1	blank2r.bmp	786	1	BMVZ	786	1	blank2r.bmp	866	4	tot	866	0	0	0	0	0	0	0	0	0	0	0	0	0	0	0	0	0	0	0	0	0	0	0	0	0	0	0	0	0	0	0	0	0
011119	09:06:09	09:09:00	168330	5.0.10.0	4_exp_AWA_CON_EVA_AMP	62	Rpleas_acq	Same	Rpleas	Bmasked	CS_B	2pleas	distractor2	CONbeforeEVA	acq_new_unple_masked	acq1_masked	1	16	0	0	300	300	0	0	647	46	0	1	0	0	0	1	blank2r.bmp	0	1	+	0	6	C2r.bmp	492	1	blank2r.bmp	786	5	C1r.bmp	786	1	blank2r.bmp	866	3	tyrannisch	866	0	0	0	0	0	0	0	0	0	0	0	0	0	0	0	0	0	0	0	0	0	0	0	0	0	0	0	0	0	0	0	0	0
011119	09:06:09	09:09:02	170449	5.0.10.0	4_exp_AWA_CON_EVA_AMP	62	Rpleas_acq	Same	Rpleas	Bmasked	CS_B	2pleas	distractor2	CONbeforeEVA	acq_US_pleas_masked	acq1_masked	1	17	0	0	300	300	0	0	626	50	0	1	0	0	0	1	blank2r.bmp	0	1	+	0	1	B1r.bmp	492	1	blank2r.bmp	786	1	GKQX	786	1	blank2r.bmp	866	4	treu	866	0	0	0	0	0	0	0	0	0	0	0	0	0	0	0	0	0	0	0	0	0	0	0	0	0	0	0	0	0	0	0	0	0
011119	09:06:09	09:09:04	172488	5.0.10.0	4_exp_AWA_CON_EVA_AMP	62	Rpleas_acq	Same	Rpleas	Bmasked	CS_B	2pleas	distractor2	CONbeforeEVA	acq_new_pleas_masked	acq1_masked	1	18	0	0	300	300	0	0	563	50	0	1	0	0	0	1	blank2r.bmp	0	1	+	0	4	B4r.bmp	492	1	blank2r.bmp	786	2	B2r.bmp	786	1	blank2r.bmp	866	3	tolerant	866	0	0	0	0	0	0	0	0	0	0	0	0	0	0	0	0	0	0	0	0	0	0	0	0	0	0	0	0	0	0	0	0	0
011119	09:06:09	09:09:06	174514	5.0.10.0	4_exp_AWA_CON_EVA_AMP	62	Rpleas_acq	Same	Rpleas	Bmasked	CS_B	2pleas	distractor2	CONbeforeEVA	acq_new_unple_masked	acq1_masked	1	19	0	0	300	300	0	0	550	46	0	1	0	0	0	1	blank2r.bmp	0	1	+	0	3	B3r.bmp	492	1	blank2r.bmp	786	1	B1r.bmp	786	1	blank2r.bmp	866	6	leiden	866	0	0	0	0	0	0	0	0	0	0	0	0	0	0	0	0	0	0	0	0	0	0	0	0	0	0	0	0	0	0	0	0	0
011119	09:06:09	09:09:08	176726	5.0.10.0	4_exp_AWA_CON_EVA_AMP	62	Rpleas_acq	Same	Rpleas	Bmasked	CS_B	2pleas	distractor2	CONbeforeEVA	acq_US_unple_masked	acq1_masked	1	20	0	0	300	300	0	0	735	46	0	1	0	0	0	1	blank2r.bmp	0	1	+	0	8	C4r.bmp	492	1	blank2r.bmp	786	1	BMVZ	786	1	blank2r.bmp	866	1	fanatisch	866	0	0	0	0	0	0	0	0	0	0	0	0	0	0	0	0	0	0	0	0	0	0	0	0	0	0	0	0	0	0	0	0	0
011119	09:06:09	09:09:10	178739	5.0.10.0	4_exp_AWA_CON_EVA_AMP	62	Rpleas_acq	Same	Rpleas	Bmasked	CS_B	2pleas	distractor2	CONbeforeEVA	acq_new_pleas_masked	acq1_masked	1	21	0	0	300	300	0	0	540	50	0	1	0	0	0	1	blank2r.bmp	0	1	+	0	5	C1r.bmp	492	1	blank2r.bmp	786	8	C4r.bmp	786	1	blank2r.bmp	866	4	spielen	866	0	0	0	0	0	0	0	0	0	0	0	0	0	0	0	0	0	0	0	0	0	0	0	0	0	0	0	0	0	0	0	0	0
011119	09:06:09	09:09:12	180711	5.0.10.0	4_exp_AWA_CON_EVA_AMP	62	Rpleas_acq	Same	Rpleas	Bmasked	CS_B	2pleas	distractor2	CONbeforeEVA	acq_US_pleas_masked	acq1_masked	1	22	0	0	300	300	0	0	493	50	0	1	0	0	0	1	blank2r.bmp	0	1	+	0	2	B2r.bmp	492	1	blank2r.bmp	786	1	GKQX	786	1	blank2r.bmp	866	6	schlau	866	0	0	0	0	0	0	0	0	0	0	0	0	0	0	0	0	0	0	0	0	0	0	0	0	0	0	0	0	0	0	0	0	0
011119	09:06:09	09:09:14	182737	5.0.10.0	4_exp_AWA_CON_EVA_AMP	62	Rpleas_acq	Same	Rpleas	Bmasked	CS_B	2pleas	distractor2	CONbeforeEVA	acq_US_unple_masked	acq1_masked	1	23	0	0	300	300	0	0	547	46	0	1	0	0	0	1	blank2r.bmp	0	1	+	0	6	C2r.bmp	492	1	blank2r.bmp	786	1	BMVZ	786	1	blank2r.bmp	866	3	rächen	866	0	0	0	0	0	0	0	0	0	0	0	0	0	0	0	0	0	0	0	0	0	0	0	0	0	0	0	0	0	0	0	0	0
011119	09:06:09	09:09:16	184683	5.0.10.0	4_exp_AWA_CON_EVA_AMP	62	Rpleas_acq	Same	Rpleas	Bmasked	CS_B	2pleas	distractor2	CONbeforeEVA	acq_US_pleas_masked	acq1_masked	1	24	0	0	300	300	0	0	469	50	0	1	0	0	0	1	blank2r.bmp	0	1	+	0	7	C3r.bmp	492	1	blank2r.bmp	786	1	GKQX	786	1	blank2r.bmp	866	3	retten	866	0	0	0	0	0	0	0	0	0	0	0	0	0	0	0	0	0	0	0	0	0	0	0	0	0	0	0	0	0	0	0	0	0
011119	09:06:09	09:09:18	186709	5.0.10.0	4_exp_AWA_CON_EVA_AMP	62	Rpleas_acq	Same	Rpleas	Bmasked	CS_B	2pleas	distractor2	CONbeforeEVA	acq_US_unple_masked	acq1_masked	1	25	0	0	300	300	0	0	547	46	0	1	0	0	0	1	blank2r.bmp	0	1	+	0	8	C4r.bmp	492	1	blank2r.bmp	786	1	BMVZ	786	1	blank2r.bmp	866	3	rächen	866	0	0	0	0	0	0	0	0	0	0	0	0	0	0	0	0	0	0	0	0	0	0	0	0	0	0	0	0	0	0	0	0	0
011119	09:06:09	09:09:20	188735	5.0.10.0	4_exp_AWA_CON_EVA_AMP	62	Rpleas_acq	Same	Rpleas	Bmasked	CS_B	2pleas	distractor2	CONbeforeEVA	acq_new_unple_masked	acq1_masked	1	26	0	0	300	300	0	0	549	46	0	1	0	0	0	1	blank2r.bmp	0	1	+	0	5	C1r.bmp	492	1	blank2r.bmp	786	4	B4r.bmp	786	1	blank2r.bmp	866	1	schlecht	866	0	0	0	0	0	0	0	0	0	0	0	0	0	0	0	0	0	0	0	0	0	0	0	0	0	0	0	0	0	0	0	0	0
011119	09:06:09	09:09:22	190707	5.0.10.0	4_exp_AWA_CON_EVA_AMP	62	Rpleas_acq	Same	Rpleas	Bmasked	CS_B	2pleas	distractor2	CONbeforeEVA	acq_new_pleas_masked	acq1_masked	1	27	0	0	300	300	0	0	488	50	0	1	0	0	0	1	blank2r.bmp	0	1	+	0	3	B3r.bmp	492	1	blank2r.bmp	786	6	C2r.bmp	786	1	blank2r.bmp	866	6	lachen	866	0	0	0	0	0	0	0	0	0	0	0	0	0	0	0	0	0	0	0	0	0	0	0	0	0	0	0	0	0	0	0	0	0
011119	09:06:09	09:09:24	192653	5.0.10.0	4_exp_AWA_CON_EVA_AMP	62	Rpleas_acq	Same	Rpleas	Bmasked	CS_B	2pleas	distractor2	CONbeforeEVA	acq_US_unple_masked	acq1_masked	1	28	0	0	300	300	0	0	454	46	0	1	0	0	0	1	blank2r.bmp	0	1	+	0	2	B2r.bmp	492	1	blank2r.bmp	786	1	BMVZ	786	1	blank2r.bmp	866	4	tot	866	0	0	0	0	0	0	0	0	0	0	0	0	0	0	0	0	0	0	0	0	0	0	0	0	0	0	0	0	0	0	0	0	0
011119	09:06:09	09:09:26	194612	5.0.10.0	4_exp_AWA_CON_EVA_AMP	62	Rpleas_acq	Same	Rpleas	Bmasked	CS_B	2pleas	distractor2	CONbeforeEVA	acq_new_pleas_masked	acq1_masked	1	29	0	0	300	300	0	0	489	50	0	1	0	0	0	1	blank2r.bmp	0	1	+	0	4	B4r.bmp	492	1	blank2r.bmp	786	7	C3r.bmp	786	1	blank2r.bmp	866	4	spielen	866	0	0	0	0	0	0	0	0	0	0	0	0	0	0	0	0	0	0	0	0	0	0	0	0	0	0	0	0	0	0	0	0	0
011119	09:06:09	09:09:28	196545	5.0.10.0	4_exp_AWA_CON_EVA_AMP	62	Rpleas_acq	Same	Rpleas	Bmasked	CS_B	2pleas	distractor2	CONbeforeEVA	acq_US_unple_masked	acq1_masked	1	30	0	0	300	300	0	0	448	46	0	1	0	0	0	1	blank2r.bmp	0	1	+	0	7	C3r.bmp	492	1	blank2r.bmp	786	1	BMVZ	786	1	blank2r.bmp	866	2	hindern	866	0	0	0	0	0	0	0	0	0	0	0	0	0	0	0	0	0	0	0	0	0	0	0	0	0	0	0	0	0	0	0	0	0
011119	09:06:09	09:09:30	198451	5.0.10.0	4_exp_AWA_CON_EVA_AMP	62	Rpleas_acq	Same	Rpleas	Bmasked	CS_B	2pleas	distractor2	CONbeforeEVA	acq_new_pleas_masked	acq1_masked	1	31	0	0	300	300	0	0	418	50	0	1	0	0	0	1	blank2r.bmp	0	1	+	0	6	C2r.bmp	492	1	blank2r.bmp	786	3	B3r.bmp	786	1	blank2r.bmp	866	5	loyal	866	0	0	0	0	0	0	0	0	0	0	0	0	0	0	0	0	0	0	0	0	0	0	0	0	0	0	0	0	0	0	0	0	0
011119	09:06:09	09:09:32	200450	5.0.10.0	4_exp_AWA_CON_EVA_AMP	62	Rpleas_acq	Same	Rpleas	Bmasked	CS_B	2pleas	distractor2	CONbeforeEVA	acq_US_pleas_masked	acq1_masked	1	32	0	0	300	300	0	0	506	50	0	1	0	0	0	1	blank2r.bmp	0	1	+	0	1	B1r.bmp	492	1	blank2r.bmp	786	1	GKQX	786	1	blank2r.bmp	866	4	treu	866	0	0	0	0	0	0	0	0	0	0	0	0	0	0	0	0	0	0	0	0	0	0	0	0	0	0	0	0	0	0	0	0	0
011119	09:06:09	09:09:34	202542	5.0.10.0	4_exp_AWA_CON_EVA_AMP	62	Rpleas_acq	Same	Rpleas	Bmasked	CS_B	2pleas	distractor2	CONbeforeEVA	acq_new_unple_masked	acq1_masked	1	33	0	0	300	300	0	0	607	46	0	1	0	0	0	1	blank2r.bmp	0	1	+	0	8	C4r.bmp	492	1	blank2r.bmp	786	3	B3r.bmp	786	1	blank2r.bmp	866	5	lasch	866	0	0	0	0	0	0	0	0	0	0	0	0	0	0	0	0	0	0	0	0	0	0	0	0	0	0	0	0	0	0	0	0	0
011119	09:06:09	09:09:36	204435	5.0.10.0	4_exp_AWA_CON_EVA_AMP	62	Rpleas_acq	Same	Rpleas	Bmasked	CS_B	2pleas	distractor2	CONbeforeEVA	acq_US_pleas_masked	acq1_masked	1	34	0	0	300	300	0	0	418	50	0	1	0	0	0	1	blank2r.bmp	0	1	+	0	2	B2r.bmp	492	1	blank2r.bmp	786	1	GKQX	786	1	blank2r.bmp	866	3	retten	866	0	0	0	0	0	0	0	0	0	0	0	0	0	0	0	0	0	0	0	0	0	0	0	0	0	0	0	0	0	0	0	0	0
011119	09:06:09	09:09:38	206434	5.0.10.0	4_exp_AWA_CON_EVA_AMP	62	Rpleas_acq	Same	Rpleas	Bmasked	CS_B	2pleas	distractor2	CONbeforeEVA	acq_new_unple_masked	acq1_masked	1	35	0	0	300	300	0	0	518	46	0	1	0	0	0	1	blank2r.bmp	0	1	+	0	4	B4r.bmp	492	1	blank2r.bmp	786	1	B1r.bmp	786	1	blank2r.bmp	866	4	strafen	866	0	0	0	0	0	0	0	0	0	0	0	0	0	0	0	0	0	0	0	0	0	0	0	0	0	0	0	0	0	0	0	0	0
011119	09:06:09	09:09:40	208327	5.0.10.0	4_exp_AWA_CON_EVA_AMP	62	Rpleas_acq	Same	Rpleas	Bmasked	CS_B	2pleas	distractor2	CONbeforeEVA	acq_US_pleas_masked	acq1_masked	1	36	0	0	300	300	0	0	415	50	0	1	0	0	0	1	blank2r.bmp	0	1	+	0	5	C1r.bmp	492	1	blank2r.bmp	786	1	GKQX	786	1	blank2r.bmp	866	5	ehrlich	866	0	0	0	0	0	0	0	0	0	0	0	0	0	0	0	0	0	0	0	0	0	0	0	0	0	0	0	0	0	0	0	0	0
011119	09:06:09	09:10:09	237728	5.0.10.0	4_exp_AWA_CON_EVA_AMP	62	Rpleas_acq	Same	Rpleas	Bmasked	CS_B	2pleas	distractor2	CONbeforeEVA	acq_US_pleas_masked	acq2_masked	2	1	480	0	300	300	0	0	745	50	0	1	0	0	0	1	blank2r.bmp	0	1	+	0	6	C2r.bmp	492	1	blank2r.bmp	786	1	GKQX	786	1	blank2r.bmp	866	2	helfen	866	1	!	1319	1	!	-1	0	0	0	0	0	0	0	0	0	0	0	0	0	0	0	0	0	0	0	0	0	0	0	0	0	0	0
011119	09:06:09	09:10:11	239900	5.0.10.0	4_exp_AWA_CON_EVA_AMP	62	Rpleas_acq	Same	Rpleas	Bmasked	CS_B	2pleas	distractor2	CONbeforeEVA	acq_US_unple_masked	acq2_masked	2	2	480	0	300	300	0	0	389	46	0	1	0	0	0	1	blank2r.bmp	0	1	+	0	1	B1r.bmp	492	1	blank2r.bmp	786	1	BMVZ	786	1	blank2r.bmp	866	6	schroff	866	1	!	-1	1	!	-1	0	0	0	0	0	0	0	0	0	0	0	0	0	0	0	0	0	0	0	0	0	0	0	0	0	0	0
011119	09:06:09	09:10:14	242593	5.0.10.0	4_exp_AWA_CON_EVA_AMP	62	Rpleas_acq	Same	Rpleas	Bmasked	CS_B	2pleas	distractor2	CONbeforeEVA	acq_new_unple_masked	acq2_masked	2	3	480	0	300	300	0	0	908	46	0	1	0	0	0	1	blank2r.bmp	0	1	+	0	7	C3r.bmp	492	1	blank2r.bmp	786	5	C1r.bmp	786	1	blank2r.bmp	866	2	faul	866	1	!	1319	1	!	-1	0	0	0	0	0	0	0	0	0	0	0	0	0	0	0	0	0	0	0	0	0	0	0	0	0	0	0
011119	09:06:09	09:10:17	245258	5.0.10.0	4_exp_AWA_CON_EVA_AMP	62	Rpleas_acq	Same	Rpleas	Bmasked	CS_B	2pleas	distractor2	CONbeforeEVA	acq_new_pleas_masked	acq2_masked	2	4	480	0	300	300	0	0	884	50	0	1	0	0	0	1	blank2r.bmp	0	1	+	0	3	B3r.bmp	492	1	blank2r.bmp	786	6	C2r.bmp	786	1	blank2r.bmp	866	2	fair	866	1	!	1319	1	!	-1	0	0	0	0	0	0	0	0	0	0	0	0	0	0	0	0	0	0	0	0	0	0	0	0	0	0	0
011119	09:06:09	09:10:19	247604	5.0.10.0	4_exp_AWA_CON_EVA_AMP	62	Rpleas_acq	Same	Rpleas	Bmasked	CS_B	2pleas	distractor2	CONbeforeEVA	acq_new_unple_masked	acq2_masked	2	5	480	0	300	300	0	0	569	46	0	1	0	0	0	1	blank2r.bmp	0	1	+	0	5	C1r.bmp	492	1	blank2r.bmp	786	2	B2r.bmp	786	1	blank2r.bmp	866	3	tyrannisch	866	1	!	1319	1	!	-1	0	0	0	0	0	0	0	0	0	0	0	0	0	0	0	0	0	0	0	0	0	0	0	0	0	0	0
011119	09:06:09	09:10:21	250150	5.0.10.0	4_exp_AWA_CON_EVA_AMP	62	Rpleas_acq	Same	Rpleas	Bmasked	CS_B	2pleas	distractor2	CONbeforeEVA	acq_US_unple_masked	acq2_masked	2	6	480	0	300	300	0	0	758	46	0	1	0	0	0	1	blank2r.bmp	0	1	+	0	7	C3r.bmp	492	1	blank2r.bmp	786	1	BMVZ	786	1	blank2r.bmp	866	5	eitel	866	1	!	1319	1	!	-1	0	0	0	0	0	0	0	0	0	0	0	0	0	0	0	0	0	0	0	0	0	0	0	0	0	0	0
011119	09:06:09	09:10:24	252655	5.0.10.0	4_exp_AWA_CON_EVA_AMP	62	Rpleas_acq	Same	Rpleas	Bmasked	CS_B	2pleas	distractor2	CONbeforeEVA	acq_new_unple_masked	acq2_masked	2	7	480	0	300	300	0	0	722	46	0	1	0	0	0	1	blank2r.bmp	0	1	+	0	6	C2r.bmp	492	1	blank2r.bmp	786	7	C3r.bmp	786	1	blank2r.bmp	866	6	leiden	866	1	!	1319	1	!	-1	0	0	0	0	0	0	0	0	0	0	0	0	0	0	0	0	0	0	0	0	0	0	0	0	0	0	0
011119	09:06:09	09:10:27	255254	5.0.10.0	4_exp_AWA_CON_EVA_AMP	62	Rpleas_acq	Same	Rpleas	Bmasked	CS_B	2pleas	distractor2	CONbeforeEVA	acq_US_unple_masked	acq2_masked	2	8	480	0	300	300	0	0	820	46	0	1	0	0	0	1	blank2r.bmp	0	1	+	0	3	B3r.bmp	492	1	blank2r.bmp	786	1	BMVZ	786	1	blank2r.bmp	866	1	fanatisch	866	1	!	1319	1	!	-1	0	0	0	0	0	0	0	0	0	0	0	0	0	0	0	0	0	0	0	0	0	0	0	0	0	0	0
011119	09:06:09	09:10:29	257586	5.0.10.0	4_exp_AWA_CON_EVA_AMP	62	Rpleas_acq	Same	Rpleas	Bmasked	CS_B	2pleas	distractor2	CONbeforeEVA	acq_US_pleas_masked	acq2_masked	2	9	480	1	300	300	0	0	516	50	0	1	0	0	0	1	blank2r.bmp	0	1	+	0	2	B2r.bmp	492	1	blank2r.bmp	786	1	GKQX	786	1	blank2r.bmp	866	1	freundlich	866	1	!	1319	1	!	1412	0	0	0	0	0	0	0	0	0	0	0	0	0	0	0	0	0	0	0	0	0	0	0	0	0	0	0
011119	09:06:09	09:10:31	260172	5.0.10.0	4_exp_AWA_CON_EVA_AMP	62	Rpleas_acq	Same	Rpleas	Bmasked	CS_B	2pleas	distractor2	CONbeforeEVA	acq_new_pleas_masked	acq2_masked	2	10	480	0	300	300	0	0	591	46	0	0	0	0	0	1	blank2r.bmp	0	1	+	0	8	C4r.bmp	492	1	blank2r.bmp	786	4	B4r.bmp	786	1	blank2r.bmp	866	3	tolerant	866	1	FEHLER	1799	1	!	1319	1	!	-1	0	0	0	0	0	0	0	0	0	0	0	0	0	0	0	0	0	0	0	0	0	0	0	0
011119	09:06:09	09:10:34	262331	5.0.10.0	4_exp_AWA_CON_EVA_AMP	62	Rpleas_acq	Same	Rpleas	Bmasked	CS_B	2pleas	distractor2	CONbeforeEVA	acq_new_pleas_masked	acq2_masked	2	11	480	0	300	300	0	0	610	50	0	1	0	0	0	1	blank2r.bmp	0	1	+	0	1	B1r.bmp	492	1	blank2r.bmp	786	8	C4r.bmp	786	1	blank2r.bmp	866	1	schön	866	1	!	1319	1	!	-1	0	0	0	0	0	0	0	0	0	0	0	0	0	0	0	0	0	0	0	0	0	0	0	0	0	0	0
011119	09:06:09	09:10:36	264783	5.0.10.0	4_exp_AWA_CON_EVA_AMP	62	Rpleas_acq	Same	Rpleas	Bmasked	CS_B	2pleas	distractor2	CONbeforeEVA	acq_US_pleas_masked	acq2_masked	2	12	480	1	300	300	0	0	426	46	0	0	0	0	0	1	blank2r.bmp	0	1	+	0	4	B4r.bmp	492	1	blank2r.bmp	786	1	GKQX	786	1	blank2r.bmp	866	6	schlau	866	1	FEHLER	1652	1	!	1319	1	!	1332	0	0	0	0	0	0	0	0	0	0	0	0	0	0	0	0	0	0	0	0	0	0	0	0
011119	09:06:09	09:10:44	272420	5.0.10.0	4_exp_AWA_CON_EVA_AMP	62	Rpleas_acq	Same	Rpleas	Bmasked	CS_B	2pleas	distractor2	CONbeforeEVA	acq_US_unple_masked	acq2_masked	2	13	480	0	300	300	0	0	6083	46	0	1	0	0	0	1	blank2r.bmp	0	1	+	0	7	C3r.bmp	492	1	blank2r.bmp	786	1	BMVZ	786	1	blank2r.bmp	866	2	hindern	866	1	!	1319	1	!	-1	0	0	0	0	0	0	0	0	0	0	0	0	0	0	0	0	0	0	0	0	0	0	0	0	0	0	0
011119	09:06:09	09:10:46	275059	5.0.10.0	4_exp_AWA_CON_EVA_AMP	62	Rpleas_acq	Same	Rpleas	Bmasked	CS_B	2pleas	distractor2	CONbeforeEVA	acq_new_unple_masked	acq2_masked	2	14	480	0	300	300	0	0	859	46	0	1	0	0	0	1	blank2r.bmp	0	1	+	0	5	C1r.bmp	492	1	blank2r.bmp	786	1	B1r.bmp	786	1	blank2r.bmp	866	3	tyrannisch	866	1	!	1319	1	!	-1	0	0	0	0	0	0	0	0	0	0	0	0	0	0	0	0	0	0	0	0	0	0	0	0	0	0	0
011119	09:06:09	09:10:49	277405	5.0.10.0	4_exp_AWA_CON_EVA_AMP	62	Rpleas_acq	Same	Rpleas	Bmasked	CS_B	2pleas	distractor2	CONbeforeEVA	acq_US_unple_masked	acq2_masked	2	15	480	1	300	300	0	0	535	46	0	1	0	0	0	1	blank2r.bmp	0	1	+	0	4	B4r.bmp	492	1	blank2r.bmp	786	1	BMVZ	786	1	blank2r.bmp	866	3	rächen	866	1	!	1319	1	!	1439	0	0	0	0	0	0	0	0	0	0	0	0	0	0	0	0	0	0	0	0	0	0	0	0	0	0	0
011119	09:06:09	09:10:51	279711	5.0.10.0	4_exp_AWA_CON_EVA_AMP	62	Rpleas_acq	Same	Rpleas	Bmasked	CS_B	2pleas	distractor2	CONbeforeEVA	acq_new_unple_masked	acq2_masked	2	16	480	1	300	300	0	0	500	46	0	1	0	0	0	1	blank2r.bmp	0	1	+	0	8	C4r.bmp	492	1	blank2r.bmp	786	4	B4r.bmp	786	1	blank2r.bmp	866	2	faul	866	1	!	1319	1	!	1399	0	0	0	0	0	0	0	0	0	0	0	0	0	0	0	0	0	0	0	0	0	0	0	0	0	0	0
011119	09:06:09	09:10:53	282150	5.0.10.0	4_exp_AWA_CON_EVA_AMP	62	Rpleas_acq	Same	Rpleas	Bmasked	CS_B	2pleas	distractor2	CONbeforeEVA	acq_new_unple_masked	acq2_masked	2	17	480	0	300	300	0	0	678	46	0	1	0	0	0	1	blank2r.bmp	0	1	+	0	2	B2r.bmp	492	1	blank2r.bmp	786	5	C1r.bmp	786	1	blank2r.bmp	866	1	schlecht	866	1	!	1319	1	!	-1	0	0	0	0	0	0	0	0	0	0	0	0	0	0	0	0	0	0	0	0	0	0	0	0	0	0	0
011119	09:06:09	09:10:56	284589	5.0.10.0	4_exp_AWA_CON_EVA_AMP	62	Rpleas_acq	Same	Rpleas	Bmasked	CS_B	2pleas	distractor2	CONbeforeEVA	acq_new_pleas_masked	acq2_masked	2	18	480	0	300	300	0	0	645	50	0	1	0	0	0	1	blank2r.bmp	0	1	+	0	6	C2r.bmp	492	1	blank2r.bmp	786	7	C3r.bmp	786	1	blank2r.bmp	866	2	fair	866	1	!	1319	1	!	-1	0	0	0	0	0	0	0	0	0	0	0	0	0	0	0	0	0	0	0	0	0	0	0	0	0	0	0
011119	09:06:09	09:10:58	286894	5.0.10.0	4_exp_AWA_CON_EVA_AMP	62	Rpleas_acq	Same	Rpleas	Bmasked	CS_B	2pleas	distractor2	CONbeforeEVA	acq_new_pleas_masked	acq2_masked	2	19	480	1	300	300	0	0	493	50	0	1	0	0	0	1	blank2r.bmp	0	1	+	0	3	B3r.bmp	492	1	blank2r.bmp	786	8	C4r.bmp	786	1	blank2r.bmp	866	1	schön	866	1	!	1319	1	!	1399	0	0	0	0	0	0	0	0	0	0	0	0	0	0	0	0	0	0	0	0	0	0	0	0	0	0	0
011119	09:06:09	09:11:01	289240	5.0.10.0	4_exp_AWA_CON_EVA_AMP	62	Rpleas_acq	Same	Rpleas	Bmasked	CS_B	2pleas	distractor2	CONbeforeEVA	acq_US_pleas_masked	acq2_masked	2	20	480	1	300	300	0	0	545	50	0	1	0	0	0	1	blank2r.bmp	0	1	+	0	1	B1r.bmp	492	1	blank2r.bmp	786	1	GKQX	786	1	blank2r.bmp	866	4	treu	866	1	!	1319	1	!	1452	0	0	0	0	0	0	0	0	0	0	0	0	0	0	0	0	0	0	0	0	0	0	0	0	0	0	0
011119	09:06:09	09:11:03	291532	5.0.10.0	4_exp_AWA_CON_EVA_AMP	62	Rpleas_acq	Same	Rpleas	Bmasked	CS_B	2pleas	distractor2	CONbeforeEVA	acq_US_pleas_masked	acq2_masked	2	21	480	1	300	300	0	0	500	50	0	1	0	0	0	1	blank2r.bmp	0	1	+	0	2	B2r.bmp	492	1	blank2r.bmp	786	1	GKQX	786	1	blank2r.bmp	866	1	freundlich	866	1	!	1319	1	!	1399	0	0	0	0	0	0	0	0	0	0	0	0	0	0	0	0	0	0	0	0	0	0	0	0	0	0	0
011119	09:06:09	09:11:05	293931	5.0.10.0	4_exp_AWA_CON_EVA_AMP	62	Rpleas_acq	Same	Rpleas	Bmasked	CS_B	2pleas	distractor2	CONbeforeEVA	acq_US_pleas_masked	acq2_masked	2	22	480	0	300	300	0	0	630	50	0	1	0	0	0	1	blank2r.bmp	0	1	+	0	3	B3r.bmp	492	1	blank2r.bmp	786	1	GKQX	786	1	blank2r.bmp	866	3	retten	866	1	!	1319	1	!	-1	0	0	0	0	0	0	0	0	0	0	0	0	0	0	0	0	0	0	0	0	0	0	0	0	0	0	0
011119	09:06:09	09:11:08	296291	5.0.10.0	4_exp_AWA_CON_EVA_AMP	62	Rpleas_acq	Same	Rpleas	Bmasked	CS_B	2pleas	distractor2	CONbeforeEVA	acq_new_pleas_masked	acq2_masked	2	23	480	0	300	300	0	0	573	50	0	1	0	0	0	1	blank2r.bmp	0	1	+	0	6	C2r.bmp	492	1	blank2r.bmp	786	2	B2r.bmp	786	1	blank2r.bmp	866	4	spielen	866	1	!	1319	1	!	-1	0	0	0	0	0	0	0	0	0	0	0	0	0	0	0	0	0	0	0	0	0	0	0	0	0	0	0
011119	09:06:09	09:11:10	298623	5.0.10.0	4_exp_AWA_CON_EVA_AMP	62	Rpleas_acq	Same	Rpleas	Bmasked	CS_B	2pleas	distractor2	CONbeforeEVA	acq_US_unple_masked	acq2_masked	2	24	480	1	300	300	0	0	522	46	0	1	0	0	0	1	blank2r.bmp	0	1	+	0	8	C4r.bmp	492	1	blank2r.bmp	786	1	BMVZ	786	1	blank2r.bmp	866	1	fanatisch	866	1	!	1319	1	!	1426	0	0	0	0	0	0	0	0	0	0	0	0	0	0	0	0	0	0	0	0	0	0	0	0	0	0	0
011119	09:06:09	09:11:12	300902	5.0.10.0	4_exp_AWA_CON_EVA_AMP	62	Rpleas_acq	Same	Rpleas	Bmasked	CS_B	2pleas	distractor2	CONbeforeEVA	acq_US_unple_masked	acq2_masked	2	25	480	1	300	300	0	0	489	46	0	1	0	0	0	1	blank2r.bmp	0	1	+	0	7	C3r.bmp	492	1	blank2r.bmp	786	1	BMVZ	786	1	blank2r.bmp	866	6	schroff	866	1	!	1319	1	!	1386	0	0	0	0	0	0	0	0	0	0	0	0	0	0	0	0	0	0	0	0	0	0	0	0	0	0	0
011119	09:06:09	09:11:15	303634	5.0.10.0	4_exp_AWA_CON_EVA_AMP	62	Rpleas_acq	Same	Rpleas	Bmasked	CS_B	2pleas	distractor2	CONbeforeEVA	acq_new_unple_masked	acq2_masked	2	26	480	0	300	300	0	0	959	46	0	1	0	0	0	1	blank2r.bmp	0	1	+	0	1	B1r.bmp	492	1	blank2r.bmp	786	3	B3r.bmp	786	1	blank2r.bmp	866	5	lasch	866	1	!	1319	1	!	-1	0	0	0	0	0	0	0	0	0	0	0	0	0	0	0	0	0	0	0	0	0	0	0	0	0	0	0
011119	09:06:09	09:11:17	305980	5.0.10.0	4_exp_AWA_CON_EVA_AMP	62	Rpleas_acq	Same	Rpleas	Bmasked	CS_B	2pleas	distractor2	CONbeforeEVA	acq_US_unple_masked	acq2_masked	2	27	480	0	300	300	0	0	341	50	0	0	0	0	0	1	blank2r.bmp	0	1	+	0	4	B4r.bmp	492	1	blank2r.bmp	786	1	BMVZ	786	1	blank2r.bmp	866	4	tot	866	1	FEHLER	1546	1	!	-1	1	!	-1	0	0	0	0	0	0	0	0	0	0	0	0	0	0	0	0	0	0	0	0	0	0	0	0
011119	09:06:09	09:11:20	308659	5.0.10.0	4_exp_AWA_CON_EVA_AMP	62	Rpleas_acq	Same	Rpleas	Bmasked	CS_B	2pleas	distractor2	CONbeforeEVA	acq_US_pleas_masked	acq2_masked	2	28	480	0	300	300	0	0	1113	50	0	1	0	0	0	1	blank2r.bmp	0	1	+	0	5	C1r.bmp	492	1	blank2r.bmp	786	1	GKQX	786	1	blank2r.bmp	866	2	helfen	866	1	!	1319	1	!	-1	0	0	0	0	0	0	0	0	0	0	0	0	0	0	0	0	0	0	0	0	0	0	0	0	0	0	0
011119	09:06:09	09:11:22	311058	5.0.10.0	4_exp_AWA_CON_EVA_AMP	62	Rpleas_acq	Same	Rpleas	Bmasked	CS_B	2pleas	distractor2	CONbeforeEVA	acq_new_unple_masked	acq2_masked	2	29	480	0	300	300	0	0	625	46	0	1	0	0	0	1	blank2r.bmp	0	1	+	0	4	B4r.bmp	492	1	blank2r.bmp	786	6	C2r.bmp	786	1	blank2r.bmp	866	6	leiden	866	1	!	1319	1	!	-1	0	0	0	0	0	0	0	0	0	0	0	0	0	0	0	0	0	0	0	0	0	0	0	0	0	0	0
011119	09:06:09	09:11:25	313483	5.0.10.0	4_exp_AWA_CON_EVA_AMP	62	Rpleas_acq	Same	Rpleas	Bmasked	CS_B	2pleas	distractor2	CONbeforeEVA	acq_new_pleas_masked	acq2_masked	2	30	480	0	300	300	0	0	648	50	0	1	0	0	0	1	blank2r.bmp	0	1	+	0	3	B3r.bmp	492	1	blank2r.bmp	786	4	B4r.bmp	786	1	blank2r.bmp	866	6	lachen	866	1	!	1319	1	!	-1	0	0	0	0	0	0	0	0	0	0	0	0	0	0	0	0	0	0	0	0	0	0	0	0	0	0	0
011119	09:06:09	09:11:27	316096	5.0.10.0	4_exp_AWA_CON_EVA_AMP	62	Rpleas_acq	Same	Rpleas	Bmasked	CS_B	2pleas	distractor2	CONbeforeEVA	acq_US_pleas_masked	acq2_masked	2	31	480	0	300	300	0	0	828	50	0	1	0	0	0	1	blank2r.bmp	0	1	+	0	2	B2r.bmp	492	1	blank2r.bmp	786	1	GKQX	786	1	blank2r.bmp	866	5	ehrlich	866	1	!	1319	1	!	-1	0	0	0	0	0	0	0	0	0	0	0	0	0	0	0	0	0	0	0	0	0	0	0	0	0	0	0
011119	09:06:09	09:11:30	318401	5.0.10.0	4_exp_AWA_CON_EVA_AMP	62	Rpleas_acq	Same	Rpleas	Bmasked	CS_B	2pleas	distractor2	CONbeforeEVA	acq_new_unple_masked	acq2_masked	2	32	480	1	300	300	0	0	479	46	0	1	0	0	0	1	blank2r.bmp	0	1	+	0	7	C3r.bmp	492	1	blank2r.bmp	786	8	C4r.bmp	786	1	blank2r.bmp	866	4	strafen	866	1	!	1319	1	!	1386	0	0	0	0	0	0	0	0	0	0	0	0	0	0	0	0	0	0	0	0	0	0	0	0	0	0	0
011119	09:06:09	09:11:32	320720	5.0.10.0	4_exp_AWA_CON_EVA_AMP	62	Rpleas_acq	Same	Rpleas	Bmasked	CS_B	2pleas	distractor2	CONbeforeEVA	acq_new_pleas_masked	acq2_masked	2	33	480	1	300	300	0	0	515	50	0	1	0	0	0	1	blank2r.bmp	0	1	+	0	6	C2r.bmp	492	1	blank2r.bmp	786	3	B3r.bmp	786	1	blank2r.bmp	866	3	tolerant	866	1	!	1319	1	!	1412	0	0	0	0	0	0	0	0	0	0	0	0	0	0	0	0	0	0	0	0	0	0	0	0	0	0	0
011119	09:06:09	09:11:35	323253	5.0.10.0	4_exp_AWA_CON_EVA_AMP	62	Rpleas_acq	Same	Rpleas	Bmasked	CS_B	2pleas	distractor2	CONbeforeEVA	acq_US_unple_masked	acq2_masked	2	34	480	0	300	300	0	0	768	46	0	1	0	0	0	1	blank2r.bmp	0	1	+	0	5	C1r.bmp	492	1	blank2r.bmp	786	1	BMVZ	786	1	blank2r.bmp	866	5	eitel	866	1	!	1319	1	!	-1	0	0	0	0	0	0	0	0	0	0	0	0	0	0	0	0	0	0	0	0	0	0	0	0	0	0	0
011119	09:06:09	09:11:37	325558	5.0.10.0	4_exp_AWA_CON_EVA_AMP	62	Rpleas_acq	Same	Rpleas	Bmasked	CS_B	2pleas	distractor2	CONbeforeEVA	acq_new_pleas_masked	acq2_masked	2	35	480	1	300	300	0	0	505	50	0	1	0	0	0	1	blank2r.bmp	0	1	+	0	8	C4r.bmp	492	1	blank2r.bmp	786	7	C3r.bmp	786	1	blank2r.bmp	866	5	loyal	866	1	!	1319	1	!	1399	0	0	0	0	0	0	0	0	0	0	0	0	0	0	0	0	0	0	0	0	0	0	0	0	0	0	0
011119	09:06:09	09:11:39	327957	5.0.10.0	4_exp_AWA_CON_EVA_AMP	62	Rpleas_acq	Same	Rpleas	Bmasked	CS_B	2pleas	distractor2	CONbeforeEVA	acq_US_pleas_masked	acq2_masked	2	36	480	0	300	300	0	0	630	50	0	1	0	0	0	1	blank2r.bmp	0	1	+	0	1	B1r.bmp	492	1	blank2r.bmp	786	1	GKQX	786	1	blank2r.bmp	866	6	schlau	866	1	!	1319	1	!	-1	0	0	0	0	0	0	0	0	0	0	0	0	0	0	0	0	0	0	0	0	0	0	0	0	0	0	0
011119	09:06:09	09:13:33	442084	5.0.10.0	4_exp_AWA_CON_EVA_AMP	62	Rpleas_acq	Same	Rpleas	Bmasked	CS_B	2pleas	distractor2	CONbeforeEVA	acq_US_pleas_masked	acq3_masked	3	1	453	0	300	300	0	0	768	50	0	1	0	0	0	1	blank2r.bmp	0	1	+	0	3	B3r.bmp	492	1	blank2r.bmp	786	1	GKQX	786	1	blank2r.bmp	866	3	retten	866	1	!	1292	1	!	-1	0	0	0	0	0	0	0	0	0	0	0	0	0	0	0	0	0	0	0	0	0	0	0	0	0	0	0
011119	09:06:09	09:13:35	444163	5.0.10.0	4_exp_AWA_CON_EVA_AMP	62	Rpleas_acq	Same	Rpleas	Bmasked	CS_B	2pleas	distractor2	CONbeforeEVA	acq_US_unple_masked	acq3_masked	3	2	453	0	300	300	0	0	304	46	0	1	0	0	0	1	blank2r.bmp	0	1	+	0	7	C3r.bmp	492	1	blank2r.bmp	786	1	BMVZ	786	1	blank2r.bmp	866	2	hindern	866	1	!	-1	1	!	-1	0	0	0	0	0	0	0	0	0	0	0	0	0	0	0	0	0	0	0	0	0	0	0	0	0	0	0
011119	09:06:09	09:13:38	446655	5.0.10.0	4_exp_AWA_CON_EVA_AMP	62	Rpleas_acq	Same	Rpleas	Bmasked	CS_B	2pleas	distractor2	CONbeforeEVA	acq_US_unple_masked	acq3_masked	3	3	453	0	300	300	0	0	716	46	0	1	0	0	0	1	blank2r.bmp	0	1	+	0	2	B2r.bmp	492	1	blank2r.bmp	786	1	BMVZ	786	1	blank2r.bmp	866	1	fanatisch	866	1	!	1292	1	!	-1	0	0	0	0	0	0	0	0	0	0	0	0	0	0	0	0	0	0	0	0	0	0	0	0	0	0	0
011119	09:06:09	09:13:40	449041	5.0.10.0	4_exp_AWA_CON_EVA_AMP	62	Rpleas_acq	Same	Rpleas	Bmasked	CS_B	2pleas	distractor2	CONbeforeEVA	acq_US_pleas_masked	acq3_masked	3	4	453	0	300	300	0	0	379	46	0	0	0	0	0	1	blank2r.bmp	0	1	+	0	4	B4r.bmp	492	1	blank2r.bmp	786	1	GKQX	786	1	blank2r.bmp	866	1	freundlich	866	1	FEHLER	1586	1	!	-1	1	!	-1	0	0	0	0	0	0	0	0	0	0	0	0	0	0	0	0	0	0	0	0	0	0	0	0
011119	09:06:09	09:13:42	451187	5.0.10.0	4_exp_AWA_CON_EVA_AMP	62	Rpleas_acq	Same	Rpleas	Bmasked	CS_B	2pleas	distractor2	CONbeforeEVA	acq_US_unple_masked	acq3_masked	3	5	453	0	300	300	0	0	587	46	0	1	0	0	0	1	blank2r.bmp	0	1	+	0	5	C1r.bmp	492	1	blank2r.bmp	786	1	BMVZ	786	1	blank2r.bmp	866	3	rächen	866	1	!	1292	1	!	-1	0	0	0	0	0	0	0	0	0	0	0	0	0	0	0	0	0	0	0	0	0	0	0	0	0	0	0
011119	09:06:09	09:13:45	453572	5.0.10.0	4_exp_AWA_CON_EVA_AMP	62	Rpleas_acq	Same	Rpleas	Bmasked	CS_B	2pleas	distractor2	CONbeforeEVA	acq_US_unple_masked	acq3_masked	3	6	453	0	300	300	0	0	601	46	0	1	0	0	0	1	blank2r.bmp	0	1	+	0	8	C4r.bmp	492	1	blank2r.bmp	786	1	BMVZ	786	1	blank2r.bmp	866	6	schroff	866	1	!	1292	1	!	-1	0	0	0	0	0	0	0	0	0	0	0	0	0	0	0	0	0	0	0	0	0	0	0	0	0	0	0
011119	09:06:09	09:13:47	455918	5.0.10.0	4_exp_AWA_CON_EVA_AMP	62	Rpleas_acq	Same	Rpleas	Bmasked	CS_B	2pleas	distractor2	CONbeforeEVA	acq_US_unple_masked	acq3_masked	3	7	453	0	300	300	0	0	561	46	0	1	0	0	0	1	blank2r.bmp	0	1	+	0	1	B1r.bmp	492	1	blank2r.bmp	786	1	BMVZ	786	1	blank2r.bmp	866	5	eitel	866	1	!	1292	1	!	-1	0	0	0	0	0	0	0	0	0	0	0	0	0	0	0	0	0	0	0	0	0	0	0	0	0	0	0
011119	09:06:09	09:13:49	458197	5.0.10.0	4_exp_AWA_CON_EVA_AMP	62	Rpleas_acq	Same	Rpleas	Bmasked	CS_B	2pleas	distractor2	CONbeforeEVA	acq_US_pleas_masked	acq3_masked	3	8	453	1	300	300	0	0	478	50	0	1	0	0	0	1	blank2r.bmp	0	1	+	0	6	C2r.bmp	492	1	blank2r.bmp	786	1	GKQX	786	1	blank2r.bmp	866	2	helfen	866	1	!	1292	1	!	1372	0	0	0	0	0	0	0	0	0	0	0	0	0	0	0	0	0	0	0	0	0	0	0	0	0	0	0
011119	09:06:09	09:13:52	460450	5.0.10.0	4_exp_AWA_CON_EVA_AMP	62	Rpleas_acq	Same	Rpleas	Bmasked	CS_B	2pleas	distractor2	CONbeforeEVA	acq_US_pleas_masked	acq3_masked	3	9	453	0	300	300	0	0	264	46	0	0	0	0	0	1	blank2r.bmp	0	1	+	0	2	B2r.bmp	492	1	blank2r.bmp	786	1	GKQX	786	1	blank2r.bmp	866	6	schlau	866	1	FEHLER	1466	1	!	-1	1	!	-1	0	0	0	0	0	0	0	0	0	0	0	0	0	0	0	0	0	0	0	0	0	0	0	0
011119	09:06:09	09:13:54	462555	5.0.10.0	4_exp_AWA_CON_EVA_AMP	62	Rpleas_acq	Same	Rpleas	Bmasked	CS_B	2pleas	distractor2	CONbeforeEVA	acq_US_pleas_masked	acq3_masked	3	10	453	1	300	300	0	0	514	50	0	1	0	0	0	1	blank2r.bmp	0	1	+	0	1	B1r.bmp	492	1	blank2r.bmp	786	1	GKQX	786	1	blank2r.bmp	866	5	ehrlich	866	1	!	1292	1	!	1412	0	0	0	0	0	0	0	0	0	0	0	0	0	0	0	0	0	0	0	0	0	0	0	0	0	0	0
011119	09:06:09	09:13:56	464688	5.0.10.0	4_exp_AWA_CON_EVA_AMP	62	Rpleas_acq	Same	Rpleas	Bmasked	CS_B	2pleas	distractor2	CONbeforeEVA	acq_US_unple_masked	acq3_masked	3	11	453	0	300	300	0	0	371	46	0	1	0	0	0	1	blank2r.bmp	0	1	+	0	8	C4r.bmp	492	1	blank2r.bmp	786	1	BMVZ	786	1	blank2r.bmp	866	4	tot	866	1	!	-1	1	!	-1	0	0	0	0	0	0	0	0	0	0	0	0	0	0	0	0	0	0	0	0	0	0	0	0	0	0	0
011119	09:06:09	09:13:58	466993	5.0.10.0	4_exp_AWA_CON_EVA_AMP	62	Rpleas_acq	Same	Rpleas	Bmasked	CS_B	2pleas	distractor2	CONbeforeEVA	acq_US_pleas_masked	acq3_masked	3	12	453	1	300	300	0	0	501	50	0	1	0	0	0	1	blank2r.bmp	0	1	+	0	5	C1r.bmp	492	1	blank2r.bmp	786	1	GKQX	786	1	blank2r.bmp	866	4	treu	866	1	!	1292	1	!	1399	0	0	0	0	0	0	0	0	0	0	0	0	0	0	0	0	0	0	0	0	0	0	0	0	0	0	0
011119	09:06:09	09:14:01	469406	5.0.10.0	4_exp_AWA_CON_EVA_AMP	62	Rpleas_acq	Same	Rpleas	Bmasked	CS_B	2pleas	distractor2	CONbeforeEVA	acq_US_unple_masked	acq3_masked	3	13	453	0	300	300	0	0	638	46	0	1	0	0	0	1	blank2r.bmp	0	1	+	0	6	C2r.bmp	492	1	blank2r.bmp	786	1	BMVZ	786	1	blank2r.bmp	866	2	hindern	866	1	!	1292	1	!	-1	0	0	0	0	0	0	0	0	0	0	0	0	0	0	0	0	0	0	0	0	0	0	0	0	0	0	0
011119	09:06:09	09:14:03	471738	5.0.10.0	4_exp_AWA_CON_EVA_AMP	62	Rpleas_acq	Same	Rpleas	Bmasked	CS_B	2pleas	distractor2	CONbeforeEVA	acq_US_unple_masked	acq3_masked	3	14	453	0	300	300	0	0	549	46	0	1	0	0	0	1	blank2r.bmp	0	1	+	0	7	C3r.bmp	492	1	blank2r.bmp	786	1	BMVZ	786	1	blank2r.bmp	866	1	fanatisch	866	1	!	1292	1	!	-1	0	0	0	0	0	0	0	0	0	0	0	0	0	0	0	0	0	0	0	0	0	0	0	0	0	0	0
011119	09:06:09	09:14:05	474151	5.0.10.0	4_exp_AWA_CON_EVA_AMP	62	Rpleas_acq	Same	Rpleas	Bmasked	CS_B	2pleas	distractor2	CONbeforeEVA	acq_US_unple_masked	acq3_masked	3	15	453	0	300	300	0	0	625	46	0	1	0	0	0	1	blank2r.bmp	0	1	+	0	3	B3r.bmp	492	1	blank2r.bmp	786	1	BMVZ	786	1	blank2r.bmp	866	5	eitel	866	1	!	1292	1	!	-1	0	0	0	0	0	0	0	0	0	0	0	0	0	0	0	0	0	0	0	0	0	0	0	0	0	0	0
011119	09:06:09	09:14:08	476390	5.0.10.0	4_exp_AWA_CON_EVA_AMP	62	Rpleas_acq	Same	Rpleas	Bmasked	CS_B	2pleas	distractor2	CONbeforeEVA	acq_US_pleas_masked	acq3_masked	3	16	453	0	300	300	0	0	236	46	0	0	0	0	0	1	blank2r.bmp	0	1	+	0	4	B4r.bmp	492	1	blank2r.bmp	786	1	GKQX	786	1	blank2r.bmp	866	1	freundlich	866	1	FEHLER	1439	1	!	-1	1	!	-1	0	0	0	0	0	0	0	0	0	0	0	0	0	0	0	0	0	0	0	0	0	0	0	0
011119	09:06:09	09:14:10	478482	5.0.10.0	4_exp_AWA_CON_EVA_AMP	62	Rpleas_acq	Same	Rpleas	Bmasked	CS_B	2pleas	distractor2	CONbeforeEVA	acq_US_pleas_masked	acq3_masked	3	17	453	1	300	300	0	0	513	50	0	1	0	0	0	1	blank2r.bmp	0	1	+	0	6	C2r.bmp	492	1	blank2r.bmp	786	1	GKQX	786	1	blank2r.bmp	866	5	ehrlich	866	1	!	1292	1	!	1412	0	0	0	0	0	0	0	0	0	0	0	0	0	0	0	0	0	0	0	0	0	0	0	0	0	0	0
011119	09:06:09	09:14:12	480748	5.0.10.0	4_exp_AWA_CON_EVA_AMP	62	Rpleas_acq	Same	Rpleas	Bmasked	CS_B	2pleas	distractor2	CONbeforeEVA	acq_US_pleas_masked	acq3_masked	3	18	453	0	300	300	0	0	278	46	0	0	0	0	0	1	blank2r.bmp	0	1	+	0	4	B4r.bmp	492	1	blank2r.bmp	786	1	GKQX	786	1	blank2r.bmp	866	3	retten	866	1	FEHLER	1479	1	!	-1	1	!	-1	0	0	0	0	0	0	0	0	0	0	0	0	0	0	0	0	0	0	0	0	0	0	0	0
011119	09:06:09	09:14:14	482947	5.0.10.0	4_exp_AWA_CON_EVA_AMP	62	Rpleas_acq	Same	Rpleas	Bmasked	CS_B	2pleas	distractor2	CONbeforeEVA	acq_US_unple_masked	acq3_masked	3	19	453	0	300	300	0	0	648	46	0	1	0	0	0	1	blank2r.bmp	0	1	+	0	7	C3r.bmp	492	1	blank2r.bmp	786	1	BMVZ	786	1	blank2r.bmp	866	4	tot	866	1	!	1292	1	!	-1	0	0	0	0	0	0	0	0	0	0	0	0	0	0	0	0	0	0	0	0	0	0	0	0	0	0	0
011119	09:06:09	09:14:16	485053	5.0.10.0	4_exp_AWA_CON_EVA_AMP	62	Rpleas_acq	Same	Rpleas	Bmasked	CS_B	2pleas	distractor2	CONbeforeEVA	acq_US_pleas_masked	acq3_masked	3	20	453	0	300	300	0	0	322	50	0	1	0	0	0	1	blank2r.bmp	0	1	+	0	1	B1r.bmp	492	1	blank2r.bmp	786	1	GKQX	786	1	blank2r.bmp	866	2	helfen	866	1	!	-1	1	!	-1	0	0	0	0	0	0	0	0	0	0	0	0	0	0	0	0	0	0	0	0	0	0	0	0	0	0	0
011119	09:06:09	09:14:19	487452	5.0.10.0	4_exp_AWA_CON_EVA_AMP	62	Rpleas_acq	Same	Rpleas	Bmasked	CS_B	2pleas	distractor2	CONbeforeEVA	acq_US_unple_masked	acq3_masked	3	21	453	0	300	300	0	0	613	46	0	1	0	0	0	1	blank2r.bmp	0	1	+	0	5	C1r.bmp	492	1	blank2r.bmp	786	1	BMVZ	786	1	blank2r.bmp	866	6	schroff	866	1	!	1292	1	!	-1	0	0	0	0	0	0	0	0	0	0	0	0	0	0	0	0	0	0	0	0	0	0	0	0	0	0	0
011119	09:06:09	09:14:21	489771	5.0.10.0	4_exp_AWA_CON_EVA_AMP	62	Rpleas_acq	Same	Rpleas	Bmasked	CS_B	2pleas	distractor2	CONbeforeEVA	acq_US_unple_masked	acq3_masked	3	22	453	0	300	300	0	0	538	46	0	1	0	0	0	1	blank2r.bmp	0	1	+	0	8	C4r.bmp	492	1	blank2r.bmp	786	1	BMVZ	786	1	blank2r.bmp	866	3	rächen	866	1	!	1292	1	!	-1	0	0	0	0	0	0	0	0	0	0	0	0	0	0	0	0	0	0	0	0	0	0	0	0	0	0	0
011119	09:06:09	09:14:23	492116	5.0.10.0	4_exp_AWA_CON_EVA_AMP	62	Rpleas_acq	Same	Rpleas	Bmasked	CS_B	2pleas	distractor2	CONbeforeEVA	acq_US_pleas_masked	acq3_masked	3	23	453	0	300	300	0	0	564	50	0	1	0	0	0	1	blank2r.bmp	0	1	+	0	2	B2r.bmp	492	1	blank2r.bmp	786	1	GKQX	786	1	blank2r.bmp	866	4	treu	866	1	!	1292	1	!	-1	0	0	0	0	0	0	0	0	0	0	0	0	0	0	0	0	0	0	0	0	0	0	0	0	0	0	0
011119	09:06:09	09:14:26	494476	5.0.10.0	4_exp_AWA_CON_EVA_AMP	62	Rpleas_acq	Same	Rpleas	Bmasked	CS_B	2pleas	distractor2	CONbeforeEVA	acq_US_pleas_masked	acq3_masked	3	24	453	0	300	300	0	0	581	50	0	1	0	0	0	1	blank2r.bmp	0	1	+	0	3	B3r.bmp	492	1	blank2r.bmp	786	1	GKQX	786	1	blank2r.bmp	866	6	schlau	866	1	!	1292	1	!	-1	0	0	0	0	0	0	0	0	0	0	0	0	0	0	0	0	0	0	0	0	0	0	0	0	0	0	0
011119	09:06:09	09:14:28	496795	5.0.10.0	4_exp_AWA_CON_EVA_AMP	62	Rpleas_acq	Same	Rpleas	Bmasked	CS_B	2pleas	distractor2	CONbeforeEVA	acq_US_pleas_masked	acq3_masked	3	25	453	1	300	300	0	0	511	50	0	1	0	0	0	1	blank2r.bmp	0	1	+	0	6	C2r.bmp	492	1	blank2r.bmp	786	1	GKQX	786	1	blank2r.bmp	866	5	ehrlich	866	1	!	1292	1	!	1412	0	0	0	0	0	0	0	0	0	0	0	0	0	0	0	0	0	0	0	0	0	0	0	0	0	0	0
011119	09:06:09	09:14:30	498994	5.0.10.0	4_exp_AWA_CON_EVA_AMP	62	Rpleas_acq	Same	Rpleas	Bmasked	CS_B	2pleas	distractor2	CONbeforeEVA	acq_US_pleas_masked	acq3_masked	3	26	453	1	300	300	0	0	406	50	0	1	0	0	0	1	blank2r.bmp	0	1	+	0	7	C3r.bmp	492	1	blank2r.bmp	786	1	GKQX	786	1	blank2r.bmp	866	4	treu	866	1	!	1292	1	!	1306	0	0	0	0	0	0	0	0	0	0	0	0	0	0	0	0	0	0	0	0	0	0	0	0	0	0	0
011119	09:06:09	09:14:32	501126	5.0.10.0	4_exp_AWA_CON_EVA_AMP	62	Rpleas_acq	Same	Rpleas	Bmasked	CS_B	2pleas	distractor2	CONbeforeEVA	acq_US_pleas_masked	acq3_masked	3	27	453	0	300	300	0	0	359	50	0	1	0	0	0	1	blank2r.bmp	0	1	+	0	8	C4r.bmp	492	1	blank2r.bmp	786	1	GKQX	786	1	blank2r.bmp	866	3	retten	866	1	!	-1	1	!	-1	0	0	0	0	0	0	0	0	0	0	0	0	0	0	0	0	0	0	0	0	0	0	0	0	0	0	0
011119	09:06:09	09:14:35	503472	5.0.10.0	4_exp_AWA_CON_EVA_AMP	62	Rpleas_acq	Same	Rpleas	Bmasked	CS_B	2pleas	distractor2	CONbeforeEVA	acq_US_unple_masked	acq3_masked	3	28	453	0	300	300	0	0	554	46	0	1	0	0	0	1	blank2r.bmp	0	1	+	0	5	C1r.bmp	492	1	blank2r.bmp	786	1	BMVZ	786	1	blank2r.bmp	866	5	eitel	866	1	!	1292	1	!	-1	0	0	0	0	0	0	0	0	0	0	0	0	0	0	0	0	0	0	0	0	0	0	0	0	0	0	0
011119	09:06:09	09:14:37	505804	5.0.10.0	4_exp_AWA_CON_EVA_AMP	62	Rpleas_acq	Same	Rpleas	Bmasked	CS_B	2pleas	distractor2	CONbeforeEVA	acq_US_pleas_masked	acq3_masked	3	29	453	0	300	300	0	0	550	50	0	1	0	0	0	1	blank2r.bmp	0	1	+	0	4	B4r.bmp	492	1	blank2r.bmp	786	1	GKQX	786	1	blank2r.bmp	866	1	freundlich	866	1	!	1292	1	!	-1	0	0	0	0	0	0	0	0	0	0	0	0	0	0	0	0	0	0	0	0	0	0	0	0	0	0	0
011119	09:06:09	09:14:39	508083	5.0.10.0	4_exp_AWA_CON_EVA_AMP	62	Rpleas_acq	Same	Rpleas	Bmasked	CS_B	2pleas	distractor2	CONbeforeEVA	acq_US_unple_masked	acq3_masked	3	30	453	1	300	300	0	0	463	46	0	1	0	0	0	1	blank2r.bmp	0	1	+	0	3	B3r.bmp	492	1	blank2r.bmp	786	1	BMVZ	786	1	blank2r.bmp	866	4	tot	866	1	!	1292	1	!	1359	0	0	0	0	0	0	0	0	0	0	0	0	0	0	0	0	0	0	0	0	0	0	0	0	0	0	0
011119	09:06:09	09:14:42	510496	5.0.10.0	4_exp_AWA_CON_EVA_AMP	62	Rpleas_acq	Same	Rpleas	Bmasked	CS_B	2pleas	distractor2	CONbeforeEVA	acq_US_unple_masked	acq3_masked	3	31	453	0	300	300	0	0	640	46	0	1	0	0	0	1	blank2r.bmp	0	1	+	0	2	B2r.bmp	492	1	blank2r.bmp	786	1	BMVZ	786	1	blank2r.bmp	866	3	rächen	866	1	!	1292	1	!	-1	0	0	0	0	0	0	0	0	0	0	0	0	0	0	0	0	0	0	0	0	0	0	0	0	0	0	0
011119	09:06:09	09:14:44	512855	5.0.10.0	4_exp_AWA_CON_EVA_AMP	62	Rpleas_acq	Same	Rpleas	Bmasked	CS_B	2pleas	distractor2	CONbeforeEVA	acq_US_unple_masked	acq3_masked	3	32	453	0	300	300	0	0	580	46	0	1	0	0	0	1	blank2r.bmp	0	1	+	0	1	B1r.bmp	492	1	blank2r.bmp	786	1	BMVZ	786	1	blank2r.bmp	866	1	fanatisch	866	1	!	1292	1	!	-1	0	0	0	0	0	0	0	0	0	0	0	0	0	0	0	0	0	0	0	0	0	0	0	0	0	0	0
011119	09:06:09	09:14:47	515200	5.0.10.0	4_exp_AWA_CON_EVA_AMP	62	Rpleas_acq	Same	Rpleas	Bmasked	CS_B	2pleas	distractor2	CONbeforeEVA	acq_US_unple_masked	acq3_masked	3	33	453	0	300	300	0	0	565	46	0	1	0	0	0	1	blank2r.bmp	0	1	+	0	6	C2r.bmp	492	1	blank2r.bmp	786	1	BMVZ	786	1	blank2r.bmp	866	6	schroff	866	1	!	1292	1	!	-1	0	0	0	0	0	0	0	0	0	0	0	0	0	0	0	0	0	0	0	0	0	0	0	0	0	0	0
011119	09:06:09	09:14:49	517466	5.0.10.0	4_exp_AWA_CON_EVA_AMP	62	Rpleas_acq	Same	Rpleas	Bmasked	CS_B	2pleas	distractor2	CONbeforeEVA	acq_US_pleas_masked	acq3_masked	3	34	453	1	300	300	0	0	457	50	0	1	0	0	0	1	blank2r.bmp	0	1	+	0	7	C3r.bmp	492	1	blank2r.bmp	786	1	GKQX	786	1	blank2r.bmp	866	6	schlau	866	1	!	1292	1	!	1359	0	0	0	0	0	0	0	0	0	0	0	0	0	0	0	0	0	0	0	0	0	0	0	0	0	0	0
011119	09:06:09	09:14:51	519772	5.0.10.0	4_exp_AWA_CON_EVA_AMP	62	Rpleas_acq	Same	Rpleas	Bmasked	CS_B	2pleas	distractor2	CONbeforeEVA	acq_US_unple_masked	acq3_masked	3	35	453	1	300	300	0	0	511	46	0	1	0	0	0	1	blank2r.bmp	0	1	+	0	8	C4r.bmp	492	1	blank2r.bmp	786	1	BMVZ	786	1	blank2r.bmp	866	2	hindern	866	1	!	1292	1	!	1412	0	0	0	0	0	0	0	0	0	0	0	0	0	0	0	0	0	0	0	0	0	0	0	0	0	0	0
011119	09:06:09	09:14:53	521891	5.0.10.0	4_exp_AWA_CON_EVA_AMP	62	Rpleas_acq	Same	Rpleas	Bmasked	CS_B	2pleas	distractor2	CONbeforeEVA	acq_US_pleas_masked	acq3_masked	3	36	453	0	300	300	0	0	351	50	0	1	0	0	0	1	blank2r.bmp	0	1	+	0	3	B3r.bmp	492	1	blank2r.bmp	786	1	GKQX	786	1	blank2r.bmp	866	2	helfen	866	1	!	-1	1	!	-1	0	0	0	0	0	0	0	0	0	0	0	0	0	0	0	0	0	0	0	0	0	0	0	0	0	0	0
011119	09:06:09	09:15:10	538631	5.0.10.0	4_exp_AWA_CON_EVA_AMP	62	Rpleas_acq	Same	Rpleas	Bmasked	CS_B	2pleas	distractor2	CONbeforeEVA	acq_US_pleas_masked	acq45_masked	4	1	400	1	300	300	0	0	397	50	0	1	0	0	0	1	blank2r.bmp	0	1	+	0	4	B4r.bmp	492	1	blank2r.bmp	786	1	GKQX	786	1	blank2r.bmp	866	3	retten	866	1	!	1239	1	!	1292	0	0	0	0	0	0	0	0	0	0	0	0	0	0	0	0	0	0	0	0	0	0	0	0	0	0	0
011119	09:06:09	09:15:12	540776	5.0.10.0	4_exp_AWA_CON_EVA_AMP	62	Rpleas_acq	Same	Rpleas	Bmasked	CS_B	2pleas	distractor2	CONbeforeEVA	acq_US_pleas_masked	acq45_masked	4	2	400	1	300	300	0	0	346	46	0	0	0	0	0	1	blank2r.bmp	0	1	+	0	2	B2r.bmp	492	1	blank2r.bmp	786	1	GKQX	786	1	blank2r.bmp	866	5	ehrlich	866	1	!	1239	1	!	1252	0	0	0	0	0	0	0	0	0	0	0	0	0	0	0	0	0	0	0	0	0	0	0	0	0	0	0
011119	09:06:09	09:15:14	543002	5.0.10.0	4_exp_AWA_CON_EVA_AMP	62	Rpleas_acq	Same	Rpleas	Bmasked	CS_B	2pleas	distractor2	CONbeforeEVA	acq_US_pleas_masked	acq45_masked	4	3	400	1	300	300	0	0	415	50	0	1	0	0	0	1	blank2r.bmp	0	1	+	0	5	C1r.bmp	492	1	blank2r.bmp	786	1	GKQX	786	1	blank2r.bmp	866	4	treu	866	1	!	1239	1	!	1319	0	0	0	0	0	0	0	0	0	0	0	0	0	0	0	0	0	0	0	0	0	0	0	0	0	0	0
011119	09:06:09	09:15:16	545148	5.0.10.0	4_exp_AWA_CON_EVA_AMP	62	Rpleas_acq	Same	Rpleas	Bmasked	CS_B	2pleas	distractor2	CONbeforeEVA	acq_US_pleas_masked	acq45_masked	4	4	400	1	300	300	0	0	346	50	0	1	0	0	0	1	blank2r.bmp	0	1	+	0	1	B1r.bmp	492	1	blank2r.bmp	786	1	GKQX	786	1	blank2r.bmp	866	1	freundlich	866	1	!	1239	1	!	1252	0	0	0	0	0	0	0	0	0	0	0	0	0	0	0	0	0	0	0	0	0	0	0	0	0	0	0
011119	09:06:09	09:15:19	547294	5.0.10.0	4_exp_AWA_CON_EVA_AMP	62	Rpleas_acq	Same	Rpleas	Bmasked	CS_B	2pleas	distractor2	CONbeforeEVA	acq_US_pleas_masked	acq45_masked	4	5	400	1	300	300	0	0	351	46	0	0	0	0	0	1	blank2r.bmp	0	1	+	0	4	B4r.bmp	492	1	blank2r.bmp	786	1	GKQX	786	1	blank2r.bmp	866	6	schlau	866	1	!	1239	1	!	1252	0	0	0	0	0	0	0	0	0	0	0	0	0	0	0	0	0	0	0	0	0	0	0	0	0	0	0
011119	09:06:09	09:15:21	549466	5.0.10.0	4_exp_AWA_CON_EVA_AMP	62	Rpleas_acq	Same	Rpleas	Bmasked	CS_B	2pleas	distractor2	CONbeforeEVA	acq_US_pleas_masked	acq45_masked	4	6	400	1	300	300	0	0	381	50	0	1	0	0	0	1	blank2r.bmp	0	1	+	0	8	C4r.bmp	492	1	blank2r.bmp	786	1	GKQX	786	1	blank2r.bmp	866	2	helfen	866	1	!	1239	1	!	1279	0	0	0	0	0	0	0	0	0	0	0	0	0	0	0	0	0	0	0	0	0	0	0	0	0	0	0
011119	09:06:09	09:15:23	551732	5.0.10.0	4_exp_AWA_CON_EVA_AMP	62	Rpleas_acq	Same	Rpleas	Bmasked	CS_B	2pleas	distractor2	CONbeforeEVA	acq_US_unple_masked	acq45_masked	4	7	400	0	300	300	0	0	479	46	0	1	0	0	0	1	blank2r.bmp	0	1	+	0	1	B1r.bmp	492	1	blank2r.bmp	786	1	BMVZ	786	1	blank2r.bmp	866	5	eitel	866	1	!	1239	1	!	-1	0	0	0	0	0	0	0	0	0	0	0	0	0	0	0	0	0	0	0	0	0	0	0	0	0	0	0
011119	09:06:09	09:15:25	553958	5.0.10.0	4_exp_AWA_CON_EVA_AMP	62	Rpleas_acq	Same	Rpleas	Bmasked	CS_B	2pleas	distractor2	CONbeforeEVA	acq_US_unple_masked	acq45_masked	4	8	400	1	300	300	0	0	403	50	0	0	0	0	0	1	blank2r.bmp	0	1	+	0	7	C3r.bmp	492	1	blank2r.bmp	786	1	BMVZ	786	1	blank2r.bmp	866	1	fanatisch	866	1	!	1239	1	!	1306	0	0	0	0	0	0	0	0	0	0	0	0	0	0	0	0	0	0	0	0	0	0	0	0	0	0	0
011119	09:06:09	09:15:28	556277	5.0.10.0	4_exp_AWA_CON_EVA_AMP	62	Rpleas_acq	Same	Rpleas	Bmasked	CS_B	2pleas	distractor2	CONbeforeEVA	acq_US_unple_masked	acq45_masked	4	9	400	0	300	300	0	0	556	46	0	1	0	0	0	1	blank2r.bmp	0	1	+	0	2	B2r.bmp	492	1	blank2r.bmp	786	1	BMVZ	786	1	blank2r.bmp	866	2	hindern	866	1	!	1239	1	!	-1	0	0	0	0	0	0	0	0	0	0	0	0	0	0	0	0	0	0	0	0	0	0	0	0	0	0	0
011119	09:06:09	09:15:30	558582	5.0.10.0	4_exp_AWA_CON_EVA_AMP	62	Rpleas_acq	Same	Rpleas	Bmasked	CS_B	2pleas	distractor2	CONbeforeEVA	acq_US_unple_masked	acq45_masked	4	10	400	0	300	300	0	0	519	46	0	1	0	0	0	1	blank2r.bmp	0	1	+	0	6	C2r.bmp	492	1	blank2r.bmp	786	1	BMVZ	786	1	blank2r.bmp	866	3	rächen	866	1	!	1239	1	!	-1	0	0	0	0	0	0	0	0	0	0	0	0	0	0	0	0	0	0	0	0	0	0	0	0	0	0	0
011119	09:06:09	09:15:32	560875	5.0.10.0	4_exp_AWA_CON_EVA_AMP	62	Rpleas_acq	Same	Rpleas	Bmasked	CS_B	2pleas	distractor2	CONbeforeEVA	acq_US_unple_masked	acq45_masked	4	11	400	0	300	300	0	0	516	46	0	1	0	0	0	1	blank2r.bmp	0	1	+	0	3	B3r.bmp	492	1	blank2r.bmp	786	1	BMVZ	786	1	blank2r.bmp	866	6	schroff	866	1	!	1239	1	!	-1	0	0	0	0	0	0	0	0	0	0	0	0	0	0	0	0	0	0	0	0	0	0	0	0	0	0	0
011119	09:06:09	09:15:34	563114	5.0.10.0	4_exp_AWA_CON_EVA_AMP	62	Rpleas_acq	Same	Rpleas	Bmasked	CS_B	2pleas	distractor2	CONbeforeEVA	acq_US_pleas_masked	acq45_masked	4	12	400	1	300	300	0	0	428	50	0	1	0	0	0	1	blank2r.bmp	0	1	+	0	5	C1r.bmp	492	1	blank2r.bmp	786	1	GKQX	786	1	blank2r.bmp	866	2	helfen	866	1	!	1239	1	!	1332	0	0	0	0	0	0	0	0	0	0	0	0	0	0	0	0	0	0	0	0	0	0	0	0	0	0	0
011119	09:06:09	09:15:37	565273	5.0.10.0	4_exp_AWA_CON_EVA_AMP	62	Rpleas_acq	Same	Rpleas	Bmasked	CS_B	2pleas	distractor2	CONbeforeEVA	acq_US_unple_masked	acq45_masked	4	13	400	1	300	300	0	0	371	46	0	1	0	0	0	1	blank2r.bmp	0	1	+	0	2	B2r.bmp	492	1	blank2r.bmp	786	1	BMVZ	786	1	blank2r.bmp	866	4	tot	866	1	!	1239	1	!	1266	0	0	0	0	0	0	0	0	0	0	0	0	0	0	0	0	0	0	0	0	0	0	0	0	0	0	0
011119	09:06:09	09:15:39	567445	5.0.10.0	4_exp_AWA_CON_EVA_AMP	62	Rpleas_acq	Same	Rpleas	Bmasked	CS_B	2pleas	distractor2	CONbeforeEVA	acq_US_pleas_masked	acq45_masked	4	14	400	1	300	300	0	0	379	50	0	1	0	0	0	1	blank2r.bmp	0	1	+	0	8	C4r.bmp	492	1	blank2r.bmp	786	1	GKQX	786	1	blank2r.bmp	866	1	freundlich	866	1	!	1239	1	!	1279	0	0	0	0	0	0	0	0	0	0	0	0	0	0	0	0	0	0	0	0	0	0	0	0	0	0	0
011119	09:06:09	09:15:41	569631	5.0.10.0	4_exp_AWA_CON_EVA_AMP	62	Rpleas_acq	Same	Rpleas	Bmasked	CS_B	2pleas	distractor2	CONbeforeEVA	acq_US_unple_masked	acq45_masked	4	15	400	1	300	300	0	0	397	46	0	1	0	0	0	1	blank2r.bmp	0	1	+	0	7	C3r.bmp	492	1	blank2r.bmp	786	1	BMVZ	786	1	blank2r.bmp	866	2	hindern	866	1	!	1239	1	!	1292	0	0	0	0	0	0	0	0	0	0	0	0	0	0	0	0	0	0	0	0	0	0	0	0	0	0	0
011119	09:06:09	09:15:43	571937	5.0.10.0	4_exp_AWA_CON_EVA_AMP	62	Rpleas_acq	Same	Rpleas	Bmasked	CS_B	2pleas	distractor2	CONbeforeEVA	acq_US_unple_masked	acq45_masked	4	16	400	0	300	300	0	0	544	46	0	1	0	0	0	1	blank2r.bmp	0	1	+	0	5	C1r.bmp	492	1	blank2r.bmp	786	1	BMVZ	786	1	blank2r.bmp	866	4	tot	866	1	!	1239	1	!	-1	0	0	0	0	0	0	0	0	0	0	0	0	0	0	0	0	0	0	0	0	0	0	0	0	0	0	0
011119	09:06:09	09:15:46	574216	5.0.10.0	4_exp_AWA_CON_EVA_AMP	62	Rpleas_acq	Same	Rpleas	Bmasked	CS_B	2pleas	distractor2	CONbeforeEVA	acq_US_unple_masked	acq45_masked	4	17	400	0	300	300	0	0	498	46	0	1	0	0	0	1	blank2r.bmp	0	1	+	0	4	B4r.bmp	492	1	blank2r.bmp	786	1	BMVZ	786	1	blank2r.bmp	866	6	schroff	866	1	!	1239	1	!	-1	0	0	0	0	0	0	0	0	0	0	0	0	0	0	0	0	0	0	0	0	0	0	0	0	0	0	0
011119	09:06:09	09:15:48	576388	5.0.10.0	4_exp_AWA_CON_EVA_AMP	62	Rpleas_acq	Same	Rpleas	Bmasked	CS_B	2pleas	distractor2	CONbeforeEVA	acq_US_pleas_masked	acq45_masked	4	18	400	1	300	300	0	0	361	50	0	1	0	0	0	1	blank2r.bmp	0	1	+	0	3	B3r.bmp	492	1	blank2r.bmp	786	1	GKQX	786	1	blank2r.bmp	866	3	retten	866	1	!	1239	1	!	1266	0	0	0	0	0	0	0	0	0	0	0	0	0	0	0	0	0	0	0	0	0	0	0	0	0	0	0
011119	09:06:09	09:15:50	578601	5.0.10.0	4_exp_AWA_CON_EVA_AMP	62	Rpleas_acq	Same	Rpleas	Bmasked	CS_B	2pleas	distractor2	CONbeforeEVA	acq_US_unple_masked	acq45_masked	4	19	400	1	300	300	0	0	419	46	0	1	0	0	0	1	blank2r.bmp	0	1	+	0	1	B1r.bmp	492	1	blank2r.bmp	786	1	BMVZ	786	1	blank2r.bmp	866	5	eitel	866	1	!	1239	1	!	1319	0	0	0	0	0	0	0	0	0	0	0	0	0	0	0	0	0	0	0	0	0	0	0	0	0	0	0
011119	09:06:09	09:15:52	580747	5.0.10.0	4_exp_AWA_CON_EVA_AMP	62	Rpleas_acq	Same	Rpleas	Bmasked	CS_B	2pleas	distractor2	CONbeforeEVA	acq_US_pleas_masked	acq45_masked	4	20	400	1	300	300	0	0	346	50	0	1	0	0	0	1	blank2r.bmp	0	1	+	0	6	C2r.bmp	492	1	blank2r.bmp	786	1	GKQX	786	1	blank2r.bmp	866	5	ehrlich	866	1	!	1239	1	!	1252	0	0	0	0	0	0	0	0	0	0	0	0	0	0	0	0	0	0	0	0	0	0	0	0	0	0	0
011119	09:06:09	09:15:54	582826	5.0.10.0	4_exp_AWA_CON_EVA_AMP	62	Rpleas_acq	Same	Rpleas	Bmasked	CS_B	2pleas	distractor2	CONbeforeEVA	acq_US_unple_masked	acq45_masked	4	21	400	0	300	300	0	0	314	46	0	1	0	0	0	1	blank2r.bmp	0	1	+	0	5	C1r.bmp	492	1	blank2r.bmp	786	1	BMVZ	786	1	blank2r.bmp	866	3	rächen	866	1	!	-1	1	!	-1	0	0	0	0	0	0	0	0	0	0	0	0	0	0	0	0	0	0	0	0	0	0	0	0	0	0	0
011119	09:06:09	09:15:56	584878	5.0.10.0	4_exp_AWA_CON_EVA_AMP	62	Rpleas_acq	Same	Rpleas	Bmasked	CS_B	2pleas	distractor2	CONbeforeEVA	acq_US_unple_masked	acq45_masked	4	22	400	0	300	300	0	0	278	50	0	0	0	0	0	1	blank2r.bmp	0	1	+	0	1	B1r.bmp	492	1	blank2r.bmp	786	1	BMVZ	786	1	blank2r.bmp	866	1	fanatisch	866	1	!	-1	1	!	-1	0	0	0	0	0	0	0	0	0	0	0	0	0	0	0	0	0	0	0	0	0	0	0	0	0	0	0
011119	09:06:09	09:15:58	587117	5.0.10.0	4_exp_AWA_CON_EVA_AMP	62	Rpleas_acq	Same	Rpleas	Bmasked	CS_B	2pleas	distractor2	CONbeforeEVA	acq_US_pleas_masked	acq45_masked	4	23	400	1	300	300	0	0	428	50	0	1	0	0	0	1	blank2r.bmp	0	1	+	0	7	C3r.bmp	492	1	blank2r.bmp	786	1	GKQX	786	1	blank2r.bmp	866	4	treu	866	1	!	1239	1	!	1332	0	0	0	0	0	0	0	0	0	0	0	0	0	0	0	0	0	0	0	0	0	0	0	0	0	0	0
011119	09:06:09	09:16:01	589330	5.0.10.0	4_exp_AWA_CON_EVA_AMP	62	Rpleas_acq	Same	Rpleas	Bmasked	CS_B	2pleas	distractor2	CONbeforeEVA	acq_US_unple_masked	acq45_masked	4	24	400	1	300	300	0	0	415	46	0	1	0	0	0	1	blank2r.bmp	0	1	+	0	6	C2r.bmp	492	1	blank2r.bmp	786	1	BMVZ	786	1	blank2r.bmp	866	3	rächen	866	1	!	1239	1	!	1319	0	0	0	0	0	0	0	0	0	0	0	0	0	0	0	0	0	0	0	0	0	0	0	0	0	0	0
011119	09:06:09	09:16:03	591556	5.0.10.0	4_exp_AWA_CON_EVA_AMP	62	Rpleas_acq	Same	Rpleas	Bmasked	CS_B	2pleas	distractor2	CONbeforeEVA	acq_US_pleas_masked	acq45_masked	4	25	400	1	300	300	0	0	435	50	0	1	0	0	0	1	blank2r.bmp	0	1	+	0	3	B3r.bmp	492	1	blank2r.bmp	786	1	GKQX	786	1	blank2r.bmp	866	6	schlau	866	1	!	1239	1	!	1332	0	0	0	0	0	0	0	0	0	0	0	0	0	0	0	0	0	0	0	0	0	0	0	0	0	0	0
011119	09:06:09	09:16:05	593741	5.0.10.0	4_exp_AWA_CON_EVA_AMP	62	Rpleas_acq	Same	Rpleas	Bmasked	CS_B	2pleas	distractor2	CONbeforeEVA	acq_US_pleas_masked	acq45_masked	4	26	400	1	300	300	0	0	376	50	0	1	0	0	0	1	blank2r.bmp	0	1	+	0	8	C4r.bmp	492	1	blank2r.bmp	786	1	GKQX	786	1	blank2r.bmp	866	3	retten	866	1	!	1239	1	!	1279	0	0	0	0	0	0	0	0	0	0	0	0	0	0	0	0	0	0	0	0	0	0	0	0	0	0	0
011119	09:06:09	09:16:07	595927	5.0.10.0	4_exp_AWA_CON_EVA_AMP	62	Rpleas_acq	Same	Rpleas	Bmasked	CS_B	2pleas	distractor2	CONbeforeEVA	acq_US_pleas_masked	acq45_masked	4	27	400	1	300	300	0	0	390	46	0	0	0	0	0	1	blank2r.bmp	0	1	+	0	2	B2r.bmp	492	1	blank2r.bmp	786	1	GKQX	786	1	blank2r.bmp	866	4	treu	866	1	!	1239	1	!	1292	0	0	0	0	0	0	0	0	0	0	0	0	0	0	0	0	0	0	0	0	0	0	0	0	0	0	0
011119	09:06:09	09:16:09	598179	5.0.10.0	4_exp_AWA_CON_EVA_AMP	62	Rpleas_acq	Same	Rpleas	Bmasked	CS_B	2pleas	distractor2	CONbeforeEVA	acq_US_unple_masked	acq45_masked	4	28	400	1	300	300	0	0	462	46	0	1	0	0	0	1	blank2r.bmp	0	1	+	0	4	B4r.bmp	492	1	blank2r.bmp	786	1	BMVZ	786	1	blank2r.bmp	866	6	schroff	866	1	!	1239	1	!	1359	0	0	0	0	0	0	0	0	0	0	0	0	0	0	0	0	0	0	0	0	0	0	0	0	0	0	0
011119	09:06:09	09:16:12	600272	5.0.10.0	4_exp_AWA_CON_EVA_AMP	62	Rpleas_acq	Same	Rpleas	Bmasked	CS_B	2pleas	distractor2	CONbeforeEVA	acq_US_pleas_masked	acq45_masked	4	29	400	0	300	300	0	0	328	50	0	1	0	0	0	1	blank2r.bmp	0	1	+	0	4	B4r.bmp	492	1	blank2r.bmp	786	1	GKQX	786	1	blank2r.bmp	866	2	helfen	866	1	!	-1	1	!	-1	0	0	0	0	0	0	0	0	0	0	0	0	0	0	0	0	0	0	0	0	0	0	0	0	0	0	0
011119	09:06:09	09:16:14	602551	5.0.10.0	4_exp_AWA_CON_EVA_AMP	62	Rpleas_acq	Same	Rpleas	Bmasked	CS_B	2pleas	distractor2	CONbeforeEVA	acq_US_unple_masked	acq45_masked	4	30	400	1	300	300	0	0	466	46	0	1	0	0	0	1	blank2r.bmp	0	1	+	0	3	B3r.bmp	492	1	blank2r.bmp	786	1	BMVZ	786	1	blank2r.bmp	866	5	eitel	866	1	!	1239	1	!	1372	0	0	0	0	0	0	0	0	0	0	0	0	0	0	0	0	0	0	0	0	0	0	0	0	0	0	0
011119	09:06:09	09:16:16	604617	5.0.10.0	4_exp_AWA_CON_EVA_AMP	62	Rpleas_acq	Same	Rpleas	Bmasked	CS_B	2pleas	distractor2	CONbeforeEVA	acq_US_pleas_masked	acq45_masked	4	31	400	0	300	300	0	0	297	50	0	1	0	0	0	1	blank2r.bmp	0	1	+	0	6	C2r.bmp	492	1	blank2r.bmp	786	1	GKQX	786	1	blank2r.bmp	866	1	freundlich	866	1	!	-1	1	!	-1	0	0	0	0	0	0	0	0	0	0	0	0	0	0	0	0	0	0	0	0	0	0	0	0	0	0	0
011119	09:06:09	09:16:18	606856	5.0.10.0	4_exp_AWA_CON_EVA_AMP	62	Rpleas_acq	Same	Rpleas	Bmasked	CS_B	2pleas	distractor2	CONbeforeEVA	acq_US_pleas_masked	acq45_masked	4	32	400	1	300	300	0	0	435	46	0	0	0	0	0	1	blank2r.bmp	0	1	+	0	8	C4r.bmp	492	1	blank2r.bmp	786	1	GKQX	786	1	blank2r.bmp	866	6	schlau	866	1	!	1239	1	!	1332	0	0	0	0	0	0	0	0	0	0	0	0	0	0	0	0	0	0	0	0	0	0	0	0	0	0	0
011119	09:06:09	09:16:20	609082	5.0.10.0	4_exp_AWA_CON_EVA_AMP	62	Rpleas_acq	Same	Rpleas	Bmasked	CS_B	2pleas	distractor2	CONbeforeEVA	acq_US_pleas_masked	acq45_masked	4	33	400	1	300	300	0	0	430	50	0	1	0	0	0	1	blank2r.bmp	0	1	+	0	7	C3r.bmp	492	1	blank2r.bmp	786	1	GKQX	786	1	blank2r.bmp	866	5	ehrlich	866	1	!	1239	1	!	1332	0	0	0	0	0	0	0	0	0	0	0	0	0	0	0	0	0	0	0	0	0	0	0	0	0	0	0
011119	09:06:09	09:16:23	611254	5.0.10.0	4_exp_AWA_CON_EVA_AMP	62	Rpleas_acq	Same	Rpleas	Bmasked	CS_B	2pleas	distractor2	CONbeforeEVA	acq_US_unple_masked	acq45_masked	4	34	400	1	300	300	0	0	383	46	0	1	0	0	0	1	blank2r.bmp	0	1	+	0	2	B2r.bmp	492	1	blank2r.bmp	786	1	BMVZ	786	1	blank2r.bmp	866	4	tot	866	1	!	1239	1	!	1279	0	0	0	0	0	0	0	0	0	0	0	0	0	0	0	0	0	0	0	0	0	0	0	0	0	0	0
011119	09:06:09	09:16:25	613307	5.0.10.0	4_exp_AWA_CON_EVA_AMP	62	Rpleas_acq	Same	Rpleas	Bmasked	CS_B	2pleas	distractor2	CONbeforeEVA	acq_US_unple_masked	acq45_masked	4	35	400	0	300	300	0	0	281	50	0	0	0	0	0	1	blank2r.bmp	0	1	+	0	1	B1r.bmp	492	1	blank2r.bmp	786	1	BMVZ	786	1	blank2r.bmp	866	1	fanatisch	866	1	!	-1	1	!	-1	0	0	0	0	0	0	0	0	0	0	0	0	0	0	0	0	0	0	0	0	0	0	0	0	0	0	0
011119	09:06:09	09:16:27	615652	5.0.10.0	4_exp_AWA_CON_EVA_AMP	62	Rpleas_acq	Same	Rpleas	Bmasked	CS_B	2pleas	distractor2	CONbeforeEVA	acq_US_unple_masked	acq45_masked	4	36	400	0	300	300	0	0	562	46	0	1	0	0	0	1	blank2r.bmp	0	1	+	0	5	C1r.bmp	492	1	blank2r.bmp	786	1	BMVZ	786	1	blank2r.bmp	866	2	hindern	866	1	!	1239	1	!	-1	0	0	0	0	0	0	0	0	0	0	0	0	0	0	0	0	0	0	0	0	0	0	0	0	0	0	0
011119	09:06:09	09:16:37	625661	5.0.10.0	4_exp_AWA_CON_EVA_AMP	62	Rpleas_acq	Same	Rpleas	Bmasked	CS_B	2pleas	distractor2	CONbeforeEVA	acq_US_unple_masked	acq45_masked	5	1	400	1	300	300	0	0	442	46	0	1	0	0	0	1	blank2r.bmp	0	1	+	0	2	B2r.bmp	492	1	blank2r.bmp	786	1	BMVZ	786	1	blank2r.bmp	866	4	tot	866	1	!	1239	1	!	1346	0	0	0	0	0	0	0	0	0	0	0	0	0	0	0	0	0	0	0	0	0	0	0	0	0	0	0
011119	09:06:09	09:16:39	627821	5.0.10.0	4_exp_AWA_CON_EVA_AMP	62	Rpleas_acq	Same	Rpleas	Bmasked	CS_B	2pleas	distractor2	CONbeforeEVA	acq_US_unple_masked	acq45_masked	5	2	400	1	300	300	0	0	366	46	0	1	0	0	0	1	blank2r.bmp	0	1	+	0	6	C2r.bmp	492	1	blank2r.bmp	786	1	BMVZ	786	1	blank2r.bmp	866	2	hindern	866	1	!	1239	1	!	1266	0	0	0	0	0	0	0	0	0	0	0	0	0	0	0	0	0	0	0	0	0	0	0	0	0	0	0
011119	09:06:09	09:16:41	630020	5.0.10.0	4_exp_AWA_CON_EVA_AMP	62	Rpleas_acq	Same	Rpleas	Bmasked	CS_B	2pleas	distractor2	CONbeforeEVA	acq_US_pleas_masked	acq45_masked	5	3	400	1	300	300	0	0	411	50	0	1	0	0	0	1	blank2r.bmp	0	1	+	0	4	B4r.bmp	492	1	blank2r.bmp	786	1	GKQX	786	1	blank2r.bmp	866	6	schlau	866	1	!	1239	1	!	1306	0	0	0	0	0	0	0	0	0	0	0	0	0	0	0	0	0	0	0	0	0	0	0	0	0	0	0
011119	09:06:09	09:16:44	632232	5.0.10.0	4_exp_AWA_CON_EVA_AMP	62	Rpleas_acq	Same	Rpleas	Bmasked	CS_B	2pleas	distractor2	CONbeforeEVA	acq_US_unple_masked	acq45_masked	5	4	400	1	300	300	0	0	421	46	0	1	0	0	0	1	blank2r.bmp	0	1	+	0	8	C4r.bmp	492	1	blank2r.bmp	786	1	BMVZ	786	1	blank2r.bmp	866	6	schroff	866	1	!	1239	1	!	1319	0	0	0	0	0	0	0	0	0	0	0	0	0	0	0	0	0	0	0	0	0	0	0	0	0	0	0
011119	09:06:09	09:16:46	634524	5.0.10.0	4_exp_AWA_CON_EVA_AMP	62	Rpleas_acq	Same	Rpleas	Bmasked	CS_B	2pleas	distractor2	CONbeforeEVA	acq_US_pleas_masked	acq45_masked	5	5	400	0	300	300	0	0	523	50	0	1	0	0	0	1	blank2r.bmp	0	1	+	0	1	B1r.bmp	492	1	blank2r.bmp	786	1	GKQX	786	1	blank2r.bmp	866	2	helfen	866	1	!	1239	1	!	-1	0	0	0	0	0	0	0	0	0	0	0	0	0	0	0	0	0	0	0	0	0	0	0	0	0	0	0
011119	09:06:09	09:16:49	637883	5.0.10.0	4_exp_AWA_CON_EVA_AMP	62	Rpleas_acq	Same	Rpleas	Bmasked	CS_B	2pleas	distractor2	CONbeforeEVA	acq_US_pleas_masked	acq45_masked	5	6	400	0	300	300	0	0	1571	50	0	1	0	0	0	1	blank2r.bmp	0	1	+	0	5	C1r.bmp	492	1	blank2r.bmp	786	1	GKQX	786	1	blank2r.bmp	866	4	treu	866	1	!	1239	1	!	-1	0	0	0	0	0	0	0	0	0	0	0	0	0	0	0	0	0	0	0	0	0	0	0	0	0	0	0
011119	09:06:09	09:16:51	640149	5.0.10.0	4_exp_AWA_CON_EVA_AMP	62	Rpleas_acq	Same	Rpleas	Bmasked	CS_B	2pleas	distractor2	CONbeforeEVA	acq_US_pleas_masked	acq45_masked	5	7	400	0	300	300	0	0	486	50	0	1	0	0	0	1	blank2r.bmp	0	1	+	0	7	C3r.bmp	492	1	blank2r.bmp	786	1	GKQX	786	1	blank2r.bmp	866	5	ehrlich	866	1	!	1239	1	!	-1	0	0	0	0	0	0	0	0	0	0	0	0	0	0	0	0	0	0	0	0	0	0	0	0	0	0	0
011119	09:06:09	09:16:54	642321	5.0.10.0	4_exp_AWA_CON_EVA_AMP	62	Rpleas_acq	Same	Rpleas	Bmasked	CS_B	2pleas	distractor2	CONbeforeEVA	acq_US_pleas_masked	acq45_masked	5	8	400	1	300	300	0	0	367	46	0	0	0	0	0	1	blank2r.bmp	0	1	+	0	3	B3r.bmp	492	1	blank2r.bmp	786	1	GKQX	786	1	blank2r.bmp	866	3	retten	866	1	!	1239	1	!	1266	0	0	0	0	0	0	0	0	0	0	0	0	0	0	0	0	0	0	0	0	0	0	0	0	0	0	0
011119	09:06:09	09:16:56	644467	5.0.10.0	4_exp_AWA_CON_EVA_AMP	62	Rpleas_acq	Same	Rpleas	Bmasked	CS_B	2pleas	distractor2	CONbeforeEVA	acq_US_pleas_masked	acq45_masked	5	9	400	1	300	300	0	0	346	50	0	1	0	0	0	1	blank2r.bmp	0	1	+	0	1	B1r.bmp	492	1	blank2r.bmp	786	1	GKQX	786	1	blank2r.bmp	866	1	freundlich	866	1	!	1239	1	!	1252	0	0	0	0	0	0	0	0	0	0	0	0	0	0	0	0	0	0	0	0	0	0	0	0	0	0	0
011119	09:06:09	09:16:58	646799	5.0.10.0	4_exp_AWA_CON_EVA_AMP	62	Rpleas_acq	Same	Rpleas	Bmasked	CS_B	2pleas	distractor2	CONbeforeEVA	acq_US_unple_masked	acq45_masked	5	10	400	0	300	300	0	0	565	46	0	1	0	0	0	1	blank2r.bmp	0	1	+	0	4	B4r.bmp	492	1	blank2r.bmp	786	1	BMVZ	786	1	blank2r.bmp	866	1	fanatisch	866	1	!	1239	1	!	-1	0	0	0	0	0	0	0	0	0	0	0	0	0	0	0	0	0	0	0	0	0	0	0	0	0	0	0
011119	09:06:09	09:17:00	649078	5.0.10.0	4_exp_AWA_CON_EVA_AMP	62	Rpleas_acq	Same	Rpleas	Bmasked	CS_B	2pleas	distractor2	CONbeforeEVA	acq_US_pleas_masked	acq45_masked	5	11	400	1	300	300	0	0	465	50	0	1	0	0	0	1	blank2r.bmp	0	1	+	0	7	C3r.bmp	492	1	blank2r.bmp	786	1	GKQX	786	1	blank2r.bmp	866	4	treu	866	1	!	1239	1	!	1372	0	0	0	0	0	0	0	0	0	0	0	0	0	0	0	0	0	0	0	0	0	0	0	0	0	0	0
011119	09:06:09	09:17:03	651304	5.0.10.0	4_exp_AWA_CON_EVA_AMP	62	Rpleas_acq	Same	Rpleas	Bmasked	CS_B	2pleas	distractor2	CONbeforeEVA	acq_US_unple_masked	acq45_masked	5	12	400	1	300	300	0	0	431	46	0	1	0	0	0	1	blank2r.bmp	0	1	+	0	5	C1r.bmp	492	1	blank2r.bmp	786	1	BMVZ	786	1	blank2r.bmp	866	3	rächen	866	1	!	1239	1	!	1332	0	0	0	0	0	0	0	0	0	0	0	0	0	0	0	0	0	0	0	0	0	0	0	0	0	0	0
011119	09:06:09	09:17:05	653503	5.0.10.0	4_exp_AWA_CON_EVA_AMP	62	Rpleas_acq	Same	Rpleas	Bmasked	CS_B	2pleas	distractor2	CONbeforeEVA	acq_US_pleas_masked	acq45_masked	5	13	400	1	300	300	0	0	387	50	0	1	0	0	0	1	blank2r.bmp	0	1	+	0	8	C4r.bmp	492	1	blank2r.bmp	786	1	GKQX	786	1	blank2r.bmp	866	5	ehrlich	866	1	!	1239	1	!	1292	0	0	0	0	0	0	0	0	0	0	0	0	0	0	0	0	0	0	0	0	0	0	0	0	0	0	0
011119	09:06:09	09:17:07	655796	5.0.10.0	4_exp_AWA_CON_EVA_AMP	62	Rpleas_acq	Same	Rpleas	Bmasked	CS_B	2pleas	distractor2	CONbeforeEVA	acq_US_unple_masked	acq45_masked	5	14	400	0	300	300	0	0	515	46	0	1	0	0	0	1	blank2r.bmp	0	1	+	0	6	C2r.bmp	492	1	blank2r.bmp	786	1	BMVZ	786	1	blank2r.bmp	866	5	eitel	866	1	!	1239	1	!	-1	0	0	0	0	0	0	0	0	0	0	0	0	0	0	0	0	0	0	0	0	0	0	0	0	0	0	0
011119	09:06:09	09:17:09	658061	5.0.10.0	4_exp_AWA_CON_EVA_AMP	62	Rpleas_acq	Same	Rpleas	Bmasked	CS_B	2pleas	distractor2	CONbeforeEVA	acq_US_unple_masked	acq45_masked	5	15	400	0	300	300	0	0	490	46	0	1	0	0	0	1	blank2r.bmp	0	1	+	0	3	B3r.bmp	492	1	blank2r.bmp	786	1	BMVZ	786	1	blank2r.bmp	866	5	eitel	866	1	!	1239	1	!	-1	0	0	0	0	0	0	0	0	0	0	0	0	0	0	0	0	0	0	0	0	0	0	0	0	0	0	0
011119	09:06:09	09:17:12	660261	5.0.10.0	4_exp_AWA_CON_EVA_AMP	62	Rpleas_acq	Same	Rpleas	Bmasked	CS_B	2pleas	distractor2	CONbeforeEVA	acq_US_unple_masked	acq45_masked	5	16	400	1	300	300	0	0	393	50	0	0	0	0	0	1	blank2r.bmp	0	1	+	0	2	B2r.bmp	492	1	blank2r.bmp	786	1	BMVZ	786	1	blank2r.bmp	866	2	hindern	866	1	!	1239	1	!	1292	0	0	0	0	0	0	0	0	0	0	0	0	0	0	0	0	0	0	0	0	0	0	0	0	0	0	0
011119	09:06:09	09:17:14	662500	5.0.10.0	4_exp_AWA_CON_EVA_AMP	62	Rpleas_acq	Same	Rpleas	Bmasked	CS_B	2pleas	distractor2	CONbeforeEVA	acq_US_unple_masked	acq45_masked	5	17	400	1	300	300	0	0	444	46	0	1	0	0	0	1	blank2r.bmp	0	1	+	0	2	B2r.bmp	492	1	blank2r.bmp	786	1	BMVZ	786	1	blank2r.bmp	866	1	fanatisch	866	1	!	1239	1	!	1346	0	0	0	0	0	0	0	0	0	0	0	0	0	0	0	0	0	0	0	0	0	0	0	0	0	0	0
011119	09:06:09	09:17:16	664592	5.0.10.0	4_exp_AWA_CON_EVA_AMP	62	Rpleas_acq	Same	Rpleas	Bmasked	CS_B	2pleas	distractor2	CONbeforeEVA	acq_US_pleas_masked	acq45_masked	5	18	400	0	300	300	0	0	330	50	0	1	0	0	0	1	blank2r.bmp	0	1	+	0	8	C4r.bmp	492	1	blank2r.bmp	786	1	GKQX	786	1	blank2r.bmp	866	6	schlau	866	1	!	-1	1	!	-1	0	0	0	0	0	0	0	0	0	0	0	0	0	0	0	0	0	0	0	0	0	0	0	0	0	0	0
011119	09:06:09	09:17:18	666858	5.0.10.0	4_exp_AWA_CON_EVA_AMP	62	Rpleas_acq	Same	Rpleas	Bmasked	CS_B	2pleas	distractor2	CONbeforeEVA	acq_US_pleas_masked	acq45_masked	5	19	400	0	300	300	0	0	480	50	0	1	0	0	0	1	blank2r.bmp	0	1	+	0	7	C3r.bmp	492	1	blank2r.bmp	786	1	GKQX	786	1	blank2r.bmp	866	2	helfen	866	1	!	1239	1	!	-1	0	0	0	0	0	0	0	0	0	0	0	0	0	0	0	0	0	0	0	0	0	0	0	0	0	0	0
011119	09:06:09	09:17:20	669084	5.0.10.0	4_exp_AWA_CON_EVA_AMP	62	Rpleas_acq	Same	Rpleas	Bmasked	CS_B	2pleas	distractor2	CONbeforeEVA	acq_US_unple_masked	acq45_masked	5	20	400	1	300	300	0	0	405	46	0	1	0	0	0	1	blank2r.bmp	0	1	+	0	5	C1r.bmp	492	1	blank2r.bmp	786	1	BMVZ	786	1	blank2r.bmp	866	4	tot	866	1	!	1239	1	!	1306	0	0	0	0	0	0	0	0	0	0	0	0	0	0	0	0	0	0	0	0	0	0	0	0	0	0	0
011119	09:06:09	09:17:23	671429	5.0.10.0	4_exp_AWA_CON_EVA_AMP	62	Rpleas_acq	Same	Rpleas	Bmasked	CS_B	2pleas	distractor2	CONbeforeEVA	acq_US_pleas_masked	acq45_masked	5	21	400	0	300	300	0	0	583	50	0	1	0	0	0	1	blank2r.bmp	0	1	+	0	4	B4r.bmp	492	1	blank2r.bmp	786	1	GKQX	786	1	blank2r.bmp	866	1	freundlich	866	1	!	1239	1	!	-1	0	0	0	0	0	0	0	0	0	0	0	0	0	0	0	0	0	0	0	0	0	0	0	0	0	0	0
011119	09:06:09	09:17:25	673642	5.0.10.0	4_exp_AWA_CON_EVA_AMP	62	Rpleas_acq	Same	Rpleas	Bmasked	CS_B	2pleas	distractor2	CONbeforeEVA	acq_US_pleas_masked	acq45_masked	5	22	400	1	300	300	0	0	395	50	0	1	0	0	0	1	blank2r.bmp	0	1	+	0	3	B3r.bmp	492	1	blank2r.bmp	786	1	GKQX	786	1	blank2r.bmp	866	3	retten	866	1	!	1239	1	!	1292	0	0	0	0	0	0	0	0	0	0	0	0	0	0	0	0	0	0	0	0	0	0	0	0	0	0	0
011119	09:06:09	09:17:27	675801	5.0.10.0	4_exp_AWA_CON_EVA_AMP	62	Rpleas_acq	Same	Rpleas	Bmasked	CS_B	2pleas	distractor2	CONbeforeEVA	acq_US_pleas_masked	acq45_masked	5	23	400	1	300	300	0	0	346	50	0	1	0	0	0	1	blank2r.bmp	0	1	+	0	6	C2r.bmp	492	1	blank2r.bmp	786	1	GKQX	786	1	blank2r.bmp	866	2	helfen	866	1	!	1239	1	!	1252	0	0	0	0	0	0	0	0	0	0	0	0	0	0	0	0	0	0	0	0	0	0	0	0	0	0	0
011119	09:06:09	09:17:29	677973	5.0.10.0	4_exp_AWA_CON_EVA_AMP	62	Rpleas_acq	Same	Rpleas	Bmasked	CS_B	2pleas	distractor2	CONbeforeEVA	acq_US_unple_masked	acq45_masked	5	24	400	1	300	300	0	0	378	46	0	1	0	0	0	1	blank2r.bmp	0	1	+	0	1	B1r.bmp	492	1	blank2r.bmp	786	1	BMVZ	786	1	blank2r.bmp	866	3	rächen	866	1	!	1239	1	!	1279	0	0	0	0	0	0	0	0	0	0	0	0	0	0	0	0	0	0	0	0	0	0	0	0	0	0	0
011119	09:06:09	09:17:31	680039	5.0.10.0	4_exp_AWA_CON_EVA_AMP	62	Rpleas_acq	Same	Rpleas	Bmasked	CS_B	2pleas	distractor2	CONbeforeEVA	acq_US_unple_masked	acq45_masked	5	25	400	0	300	300	0	0	293	50	0	0	0	0	0	1	blank2r.bmp	0	1	+	0	3	B3r.bmp	492	1	blank2r.bmp	786	1	BMVZ	786	1	blank2r.bmp	866	6	schroff	866	1	!	-1	1	!	-1	0	0	0	0	0	0	0	0	0	0	0	0	0	0	0	0	0	0	0	0	0	0	0	0	0	0	0
011119	09:06:09	09:17:34	682278	5.0.10.0	4_exp_AWA_CON_EVA_AMP	62	Rpleas_acq	Same	Rpleas	Bmasked	CS_B	2pleas	distractor2	CONbeforeEVA	acq_US_pleas_masked	acq45_masked	5	26	400	1	300	300	0	0	424	50	0	1	0	0	0	1	blank2r.bmp	0	1	+	0	5	C1r.bmp	492	1	blank2r.bmp	786	1	GKQX	786	1	blank2r.bmp	866	6	schlau	866	1	!	1239	1	!	1319	0	0	0	0	0	0	0	0	0	0	0	0	0	0	0	0	0	0	0	0	0	0	0	0	0	0	0
011119	09:06:09	09:17:36	684451	5.0.10.0	4_exp_AWA_CON_EVA_AMP	62	Rpleas_acq	Same	Rpleas	Bmasked	CS_B	2pleas	distractor2	CONbeforeEVA	acq_US_unple_masked	acq45_masked	5	27	400	1	300	300	0	0	378	46	0	1	0	0	0	1	blank2r.bmp	0	1	+	0	2	B2r.bmp	492	1	blank2r.bmp	786	1	BMVZ	786	1	blank2r.bmp	866	5	eitel	866	1	!	1239	1	!	1279	0	0	0	0	0	0	0	0	0	0	0	0	0	0	0	0	0	0	0	0	0	0	0	0	0	0	0
011119	09:06:09	09:17:38	686663	5.0.10.0	4_exp_AWA_CON_EVA_AMP	62	Rpleas_acq	Same	Rpleas	Bmasked	CS_B	2pleas	distractor2	CONbeforeEVA	acq_US_unple_masked	acq45_masked	5	28	400	1	300	300	0	0	424	46	0	1	0	0	0	1	blank2r.bmp	0	1	+	0	1	B1r.bmp	492	1	blank2r.bmp	786	1	BMVZ	786	1	blank2r.bmp	866	4	tot	866	1	!	1239	1	!	1319	0	0	0	0	0	0	0	0	0	0	0	0	0	0	0	0	0	0	0	0	0	0	0	0	0	0	0
011119	09:06:09	09:17:40	688915	5.0.10.0	4_exp_AWA_CON_EVA_AMP	62	Rpleas_acq	Same	Rpleas	Bmasked	CS_B	2pleas	distractor2	CONbeforeEVA	acq_US_unple_masked	acq45_masked	5	29	400	0	300	300	0	0	479	46	0	1	0	0	0	1	blank2r.bmp	0	1	+	0	7	C3r.bmp	492	1	blank2r.bmp	786	1	BMVZ	786	1	blank2r.bmp	866	2	hindern	866	1	!	1239	1	!	-1	0	0	0	0	0	0	0	0	0	0	0	0	0	0	0	0	0	0	0	0	0	0	0	0	0	0	0
011119	09:06:09	09:17:42	691181	5.0.10.0	4_exp_AWA_CON_EVA_AMP	62	Rpleas_acq	Same	Rpleas	Bmasked	CS_B	2pleas	distractor2	CONbeforeEVA	acq_US_unple_masked	acq45_masked	5	30	400	0	300	300	0	0	479	46	0	1	0	0	0	1	blank2r.bmp	0	1	+	0	4	B4r.bmp	492	1	blank2r.bmp	786	1	BMVZ	786	1	blank2r.bmp	866	6	schroff	866	1	!	1239	1	!	-1	0	0	0	0	0	0	0	0	0	0	0	0	0	0	0	0	0	0	0	0	0	0	0	0	0	0	0
011119	09:06:09	09:17:45	693300	5.0.10.0	4_exp_AWA_CON_EVA_AMP	62	Rpleas_acq	Same	Rpleas	Bmasked	CS_B	2pleas	distractor2	CONbeforeEVA	acq_US_unple_masked	acq45_masked	5	31	400	0	300	300	0	0	332	46	0	1	0	0	0	1	blank2r.bmp	0	1	+	0	8	C4r.bmp	492	1	blank2r.bmp	786	1	BMVZ	786	1	blank2r.bmp	866	3	rächen	866	1	!	-1	1	!	-1	0	0	0	0	0	0	0	0	0	0	0	0	0	0	0	0	0	0	0	0	0	0	0	0	0	0	0
011119	09:06:09	09:17:47	695486	5.0.10.0	4_exp_AWA_CON_EVA_AMP	62	Rpleas_acq	Same	Rpleas	Bmasked	CS_B	2pleas	distractor2	CONbeforeEVA	acq_US_unple_masked	acq45_masked	5	32	400	1	300	300	0	0	360	46	0	1	0	0	0	1	blank2r.bmp	0	1	+	0	6	C2r.bmp	492	1	blank2r.bmp	786	1	BMVZ	786	1	blank2r.bmp	866	1	fanatisch	866	1	!	1239	1	!	1266	0	0	0	0	0	0	0	0	0	0	0	0	0	0	0	0	0	0	0	0	0	0	0	0	0	0	0
011119	09:06:09	09:17:49	697632	5.0.10.0	4_exp_AWA_CON_EVA_AMP	62	Rpleas_acq	Same	Rpleas	Bmasked	CS_B	2pleas	distractor2	CONbeforeEVA	acq_US_pleas_masked	acq45_masked	5	33	400	1	300	300	0	0	346	50	0	1	0	0	0	1	blank2r.bmp	0	1	+	0	3	B3r.bmp	492	1	blank2r.bmp	786	1	GKQX	786	1	blank2r.bmp	866	1	freundlich	866	1	!	1239	1	!	1252	0	0	0	0	0	0	0	0	0	0	0	0	0	0	0	0	0	0	0	0	0	0	0	0	0	0	0
011119	09:06:09	09:17:51	699778	5.0.10.0	4_exp_AWA_CON_EVA_AMP	62	Rpleas_acq	Same	Rpleas	Bmasked	CS_B	2pleas	distractor2	CONbeforeEVA	acq_US_pleas_masked	acq45_masked	5	34	400	1	300	300	0	0	354	50	0	1	0	0	0	1	blank2r.bmp	0	1	+	0	2	B2r.bmp	492	1	blank2r.bmp	786	1	GKQX	786	1	blank2r.bmp	866	5	ehrlich	866	1	!	1239	1	!	1252	0	0	0	0	0	0	0	0	0	0	0	0	0	0	0	0	0	0	0	0	0	0	0	0	0	0	0
011119	09:06:09	09:17:53	701870	5.0.10.0	4_exp_AWA_CON_EVA_AMP	62	Rpleas_acq	Same	Rpleas	Bmasked	CS_B	2pleas	distractor2	CONbeforeEVA	acq_US_pleas_masked	acq45_masked	5	35	400	0	300	300	0	0	319	50	0	1	0	0	0	1	blank2r.bmp	0	1	+	0	8	C4r.bmp	492	1	blank2r.bmp	786	1	GKQX	786	1	blank2r.bmp	866	3	retten	866	1	!	-1	1	!	-1	0	0	0	0	0	0	0	0	0	0	0	0	0	0	0	0	0	0	0	0	0	0	0	0	0	0	0
011119	09:06:09	09:17:55	703963	5.0.10.0	4_exp_AWA_CON_EVA_AMP	62	Rpleas_acq	Same	Rpleas	Bmasked	CS_B	2pleas	distractor2	CONbeforeEVA	acq_US_pleas_masked	acq45_masked	5	36	400	0	300	300	0	0	309	50	0	1	0	0	0	1	blank2r.bmp	0	1	+	0	4	B4r.bmp	492	1	blank2r.bmp	786	1	GKQX	786	1	blank2r.bmp	866	4	treu	866	1	!	-1	1	!	-1	0	0	0	0	0	0	0	0	0	0	0	0	0	0	0	0	0	0	0	0	0	0	0	0	0	0	0
011119	09:06:09	09:19:25	794032	5.0.10.0	4_exp_AWA_CON_EVA_AMP	62	Rpleas_acq	Same	Rpleas	Bmasked	CS_B	2pleas	distractor2	CONbeforeEVA	cond_new_unple_456_masked_CS1	condtest_masked_1	8	1	400	0	300	300	0	0	607	46	0	1	0	0	0	1	blank2r.bmp	0	1	+	0	7	C3r.bmp	492	1	blank2r.bmp	786	1	BMVZ	786	1	blank2r.bmp	866	2	lasch	866	1	!	1239	1	!	-1	0	0	0	0	0	0	0	0	0	0	0	0	0	0	0	0	0	0	0	0	0	0	0	0	0	0	0
011119	09:06:09	09:19:28	796298	5.0.10.0	4_exp_AWA_CON_EVA_AMP	62	Rpleas_acq	Same	Rpleas	Bmasked	CS_B	2pleas	distractor2	CONbeforeEVA	cond_US_pleas_123_masked_CS1	condtest_masked_1	8	2	400	0	300	300	0	0	490	50	0	1	0	0	0	1	blank2r.bmp	0	1	+	0	1	B1r.bmp	492	1	blank2r.bmp	786	1	BMVZ	786	1	blank2r.bmp	866	2	helfen	866	1	!	1239	1	!	-1	0	0	0	0	0	0	0	0	0	0	0	0	0	0	0	0	0	0	0	0	0	0	0	0	0	0	0
011119	09:06:09	09:19:30	798510	5.0.10.0	4_exp_AWA_CON_EVA_AMP	62	Rpleas_acq	Same	Rpleas	Bmasked	CS_B	2pleas	distractor2	CONbeforeEVA	cond_new_pleas_456_masked_CS2	condtest_masked_1	8	3	400	1	300	300	0	0	406	50	0	1	0	0	0	1	blank2r.bmp	0	1	+	0	5	C1r.bmp	492	1	blank2r.bmp	786	1	GKQX	786	1	blank2r.bmp	866	3	lachen	866	1	!	1239	1	!	1306	0	0	0	0	0	0	0	0	0	0	0	0	0	0	0	0	0	0	0	0	0	0	0	0	0	0	0
011119	09:06:09	09:19:32	800736	5.0.10.0	4_exp_AWA_CON_EVA_AMP	62	Rpleas_acq	Same	Rpleas	Bmasked	CS_B	2pleas	distractor2	CONbeforeEVA	cond_new_unple_456_masked_CS2	condtest_masked_1	8	4	400	1	300	300	0	0	438	50	0	0	0	0	0	1	blank2r.bmp	0	1	+	0	6	C2r.bmp	492	1	blank2r.bmp	786	1	GKQX	786	1	blank2r.bmp	866	1	strafen	866	1	!	1239	1	!	1332	0	0	0	0	0	0	0	0	0	0	0	0	0	0	0	0	0	0	0	0	0	0	0	0	0	0	0
011119	09:06:09	09:19:34	802988	5.0.10.0	4_exp_AWA_CON_EVA_AMP	62	Rpleas_acq	Same	Rpleas	Bmasked	CS_B	2pleas	distractor2	CONbeforeEVA	cond_US_unple_123_masked_CS2	condtest_masked_1	8	5	400	0	300	300	0	0	486	46	0	1	0	0	0	1	blank2r.bmp	0	1	+	0	3	B3r.bmp	492	1	blank2r.bmp	786	1	GKQX	786	1	blank2r.bmp	866	1	fanatisch	866	1	!	1239	1	!	-1	0	0	0	0	0	0	0	0	0	0	0	0	0	0	0	0	0	0	0	0	0	0	0	0	0	0	0
011119	09:06:09	09:19:37	805254	5.0.10.0	4_exp_AWA_CON_EVA_AMP	62	Rpleas_acq	Same	Rpleas	Bmasked	CS_B	2pleas	distractor2	CONbeforeEVA	cond_new_pleas_456_masked_CS1	condtest_masked_1	8	6	400	1	300	300	0	0	463	50	0	1	0	0	0	1	blank2r.bmp	0	1	+	0	6	C2r.bmp	492	1	blank2r.bmp	786	1	BMVZ	786	1	blank2r.bmp	866	2	loyal	866	1	!	1239	1	!	1359	0	0	0	0	0	0	0	0	0	0	0	0	0	0	0	0	0	0	0	0	0	0	0	0	0	0	0
011119	09:06:09	09:19:39	807586	5.0.10.0	4_exp_AWA_CON_EVA_AMP	62	Rpleas_acq	Same	Rpleas	Bmasked	CS_B	2pleas	distractor2	CONbeforeEVA	cond_US_pleas_123_masked_CS2	condtest_masked_1	8	7	400	0	300	300	0	0	563	50	0	1	0	0	0	1	blank2r.bmp	0	1	+	0	7	C3r.bmp	492	1	blank2r.bmp	786	1	GKQX	786	1	blank2r.bmp	866	1	freundlich	866	1	!	1239	1	!	-1	0	0	0	0	0	0	0	0	0	0	0	0	0	0	0	0	0	0	0	0	0	0	0	0	0	0	0
011119	09:06:09	09:19:41	809852	5.0.10.0	4_exp_AWA_CON_EVA_AMP	62	Rpleas_acq	Same	Rpleas	Bmasked	CS_B	2pleas	distractor2	CONbeforeEVA	cond_US_unple_123_masked_CS1	condtest_masked_1	8	8	400	0	300	300	0	0	486	46	0	1	0	0	0	1	blank2r.bmp	0	1	+	0	2	B2r.bmp	492	1	blank2r.bmp	786	1	BMVZ	786	1	blank2r.bmp	866	2	hindern	866	1	!	1239	1	!	-1	0	0	0	0	0	0	0	0	0	0	0	0	0	0	0	0	0	0	0	0	0	0	0	0	0	0	0
011119	09:06:09	09:19:47	816036	5.0.10.0	4_exp_AWA_CON_EVA_AMP	62	Rpleas_acq	Same	Rpleas	Bmasked	CS_B	2pleas	distractor2	CONbeforeEVA	cond_US_pleas_123_masked_CS2	condtest_masked_2	9	1	400	1	300	300	0	0	397	50	0	1	0	0	0	1	blank2r.bmp	0	1	+	0	4	B4r.bmp	492	1	blank2r.bmp	786	1	GKQX	786	1	blank2r.bmp	866	3	retten	866	1	!	1239	1	!	1292	0	0	0	0	0	0	0	0	0	0	0	0	0	0	0	0	0	0	0	0	0	0	0	0	0	0	0
011119	09:06:09	09:19:49	818129	5.0.10.0	4_exp_AWA_CON_EVA_AMP	62	Rpleas_acq	Same	Rpleas	Bmasked	CS_B	2pleas	distractor2	CONbeforeEVA	cond_US_unple_123_masked_CS2	condtest_masked_2	9	2	400	0	300	300	0	0	310	50	0	0	0	0	0	1	blank2r.bmp	0	1	+	0	5	C1r.bmp	492	1	blank2r.bmp	786	1	GKQX	786	1	blank2r.bmp	866	3	rächen	866	1	!	-1	1	!	-1	0	0	0	0	0	0	0	0	0	0	0	0	0	0	0	0	0	0	0	0	0	0	0	0	0	0	0
011119	09:06:09	09:19:52	820341	5.0.10.0	4_exp_AWA_CON_EVA_AMP	62	Rpleas_acq	Same	Rpleas	Bmasked	CS_B	2pleas	distractor2	CONbeforeEVA	cond_new_pleas_456_masked_CS1	condtest_masked_2	9	3	400	1	300	300	0	0	389	50	0	1	0	0	0	1	blank2r.bmp	0	1	+	0	8	C4r.bmp	492	1	blank2r.bmp	786	1	BMVZ	786	1	blank2r.bmp	866	1	spielen	866	1	!	1239	1	!	1292	0	0	0	0	0	0	0	0	0	0	0	0	0	0	0	0	0	0	0	0	0	0	0	0	0	0	0
011119	09:06:09	09:19:54	822554	5.0.10.0	4_exp_AWA_CON_EVA_AMP	62	Rpleas_acq	Same	Rpleas	Bmasked	CS_B	2pleas	distractor2	CONbeforeEVA	cond_new_pleas_456_masked_CS2	condtest_masked_2	9	4	400	1	300	300	0	0	415	50	0	1	0	0	0	1	blank2r.bmp	0	1	+	0	1	B1r.bmp	492	1	blank2r.bmp	786	1	GKQX	786	1	blank2r.bmp	866	1	spielen	866	1	!	1239	1	!	1319	0	0	0	0	0	0	0	0	0	0	0	0	0	0	0	0	0	0	0	0	0	0	0	0	0	0	0
011119	09:06:09	09:19:56	824819	5.0.10.0	4_exp_AWA_CON_EVA_AMP	62	Rpleas_acq	Same	Rpleas	Bmasked	CS_B	2pleas	distractor2	CONbeforeEVA	cond_new_unple_456_masked_CS1	condtest_masked_2	9	5	400	0	300	300	0	0	493	46	0	1	0	0	0	1	blank2r.bmp	0	1	+	0	7	C3r.bmp	492	1	blank2r.bmp	786	1	BMVZ	786	1	blank2r.bmp	866	3	leiden	866	1	!	1239	1	!	-1	0	0	0	0	0	0	0	0	0	0	0	0	0	0	0	0	0	0	0	0	0	0	0	0	0	0	0
011119	09:06:09	09:19:58	827125	5.0.10.0	4_exp_AWA_CON_EVA_AMP	62	Rpleas_acq	Same	Rpleas	Bmasked	CS_B	2pleas	distractor2	CONbeforeEVA	cond_new_pleas_456_masked_CS2	condtest_masked_2	9	6	400	0	300	300	0	0	530	46	0	0	0	0	0	1	blank2r.bmp	0	1	+	0	3	B3r.bmp	492	1	blank2r.bmp	786	1	GKQX	786	1	blank2r.bmp	866	3	lachen	866	1	!	1239	1	!	-1	0	0	0	0	0	0	0	0	0	0	0	0	0	0	0	0	0	0	0	0	0	0	0	0	0	0	0
011119	09:06:09	09:20:01	829391	5.0.10.0	4_exp_AWA_CON_EVA_AMP	62	Rpleas_acq	Same	Rpleas	Bmasked	CS_B	2pleas	distractor2	CONbeforeEVA	cond_US_unple_123_masked_CS1	condtest_masked_2	9	7	400	1	300	300	0	0	461	46	0	1	0	0	0	1	blank2r.bmp	0	1	+	0	1	B1r.bmp	492	1	blank2r.bmp	786	1	BMVZ	786	1	blank2r.bmp	866	3	rächen	866	1	!	1239	1	!	1359	0	0	0	0	0	0	0	0	0	0	0	0	0	0	0	0	0	0	0	0	0	0	0	0	0	0	0
011119	09:06:09	09:20:03	831643	5.0.10.0	4_exp_AWA_CON_EVA_AMP	62	Rpleas_acq	Same	Rpleas	Bmasked	CS_B	2pleas	distractor2	CONbeforeEVA	cond_US_unple_123_masked_CS2	condtest_masked_2	9	8	400	1	300	300	0	0	448	46	0	1	0	0	0	1	blank2r.bmp	0	1	+	0	2	B2r.bmp	492	1	blank2r.bmp	786	1	GKQX	786	1	blank2r.bmp	866	2	hindern	866	1	!	1239	1	!	1346	0	0	0	0	0	0	0	0	0	0	0	0	0	0	0	0	0	0	0	0	0	0	0	0	0	0	0
011119	09:06:09	09:20:05	833842	5.0.10.0	4_exp_AWA_CON_EVA_AMP	62	Rpleas_acq	Same	Rpleas	Bmasked	CS_B	2pleas	distractor2	CONbeforeEVA	cond_new_pleas_456_masked_CS1	condtest_masked_2	9	9	400	1	300	300	0	0	410	50	0	1	0	0	0	1	blank2r.bmp	0	1	+	0	8	C4r.bmp	492	1	blank2r.bmp	786	1	BMVZ	786	1	blank2r.bmp	866	2	loyal	866	1	!	1239	1	!	1306	0	0	0	0	0	0	0	0	0	0	0	0	0	0	0	0	0	0	0	0	0	0	0	0	0	0	0
011119	09:06:09	09:20:07	836148	5.0.10.0	4_exp_AWA_CON_EVA_AMP	62	Rpleas_acq	Same	Rpleas	Bmasked	CS_B	2pleas	distractor2	CONbeforeEVA	cond_US_unple_123_masked_CS1	condtest_masked_2	9	10	400	0	300	300	0	0	541	46	0	1	0	0	0	1	blank2r.bmp	0	1	+	0	4	B4r.bmp	492	1	blank2r.bmp	786	1	BMVZ	786	1	blank2r.bmp	866	1	fanatisch	866	1	!	1239	1	!	-1	0	0	0	0	0	0	0	0	0	0	0	0	0	0	0	0	0	0	0	0	0	0	0	0	0	0	0
011119	09:06:09	09:20:10	838480	5.0.10.0	4_exp_AWA_CON_EVA_AMP	62	Rpleas_acq	Same	Rpleas	Bmasked	CS_B	2pleas	distractor2	CONbeforeEVA	cond_US_unple_123_masked_CS2	condtest_masked_2	9	11	400	0	300	300	0	0	543	46	0	1	0	0	0	1	blank2r.bmp	0	1	+	0	5	C1r.bmp	492	1	blank2r.bmp	786	1	GKQX	786	1	blank2r.bmp	866	1	fanatisch	866	1	!	1239	1	!	-1	0	0	0	0	0	0	0	0	0	0	0	0	0	0	0	0	0	0	0	0	0	0	0	0	0	0	0
011119	09:06:09	09:20:12	840560	5.0.10.0	4_exp_AWA_CON_EVA_AMP	62	Rpleas_acq	Same	Rpleas	Bmasked	CS_B	2pleas	distractor2	CONbeforeEVA	cond_US_pleas_123_masked_CS1	condtest_masked_2	9	12	400	0	300	300	0	0	295	50	0	1	0	0	0	1	blank2r.bmp	0	1	+	0	6	C2r.bmp	492	1	blank2r.bmp	786	1	BMVZ	786	1	blank2r.bmp	866	3	retten	866	1	!	-1	1	!	-1	0	0	0	0	0	0	0	0	0	0	0	0	0	0	0	0	0	0	0	0	0	0	0	0	0	0	0
011119	09:06:09	09:20:14	842639	5.0.10.0	4_exp_AWA_CON_EVA_AMP	62	Rpleas_acq	Same	Rpleas	Bmasked	CS_B	2pleas	distractor2	CONbeforeEVA	cond_new_pleas_456_masked_CS1	condtest_masked_2	9	13	400	0	300	300	0	0	299	46	0	0	0	0	0	1	blank2r.bmp	0	1	+	0	5	C1r.bmp	492	1	blank2r.bmp	786	1	BMVZ	786	1	blank2r.bmp	866	2	loyal	866	1	!	-1	1	!	-1	0	0	0	0	0	0	0	0	0	0	0	0	0	0	0	0	0	0	0	0	0	0	0	0	0	0	0
011119	09:06:09	09:20:16	844851	5.0.10.0	4_exp_AWA_CON_EVA_AMP	62	Rpleas_acq	Same	Rpleas	Bmasked	CS_B	2pleas	distractor2	CONbeforeEVA	cond_US_unple_123_masked_CS1	condtest_masked_2	9	14	400	1	300	300	0	0	393	46	0	1	0	0	0	1	blank2r.bmp	0	1	+	0	1	B1r.bmp	492	1	blank2r.bmp	786	1	BMVZ	786	1	blank2r.bmp	866	2	hindern	866	1	!	1239	1	!	1292	0	0	0	0	0	0	0	0	0	0	0	0	0	0	0	0	0	0	0	0	0	0	0	0	0	0	0
011119	09:06:09	09:20:19	847263	5.0.10.0	4_exp_AWA_CON_EVA_AMP	62	Rpleas_acq	Same	Rpleas	Bmasked	CS_B	2pleas	distractor2	CONbeforeEVA	cond_new_unple_456_masked_CS2	condtest_masked_2	9	15	400	0	300	300	0	0	633	46	0	1	0	0	0	1	blank2r.bmp	0	1	+	0	8	C4r.bmp	492	1	blank2r.bmp	786	1	GKQX	786	1	blank2r.bmp	866	2	lasch	866	1	!	1239	1	!	-1	0	0	0	0	0	0	0	0	0	0	0	0	0	0	0	0	0	0	0	0	0	0	0	0	0	0	0
011119	09:06:09	09:20:21	849596	5.0.10.0	4_exp_AWA_CON_EVA_AMP	62	Rpleas_acq	Same	Rpleas	Bmasked	CS_B	2pleas	distractor2	CONbeforeEVA	cond_new_pleas_456_masked_CS2	condtest_masked_2	9	16	400	0	300	300	0	0	548	50	0	1	0	0	0	1	blank2r.bmp	0	1	+	0	3	B3r.bmp	492	1	blank2r.bmp	786	1	GKQX	786	1	blank2r.bmp	866	1	spielen	866	1	!	1239	1	!	-1	0	0	0	0	0	0	0	0	0	0	0	0	0	0	0	0	0	0	0	0	0	0	0	0	0	0	0
011119	09:06:09	09:20:23	851782	5.0.10.0	4_exp_AWA_CON_EVA_AMP	62	Rpleas_acq	Same	Rpleas	Bmasked	CS_B	2pleas	distractor2	CONbeforeEVA	cond_new_unple_456_masked_CS2	condtest_masked_2	9	17	400	1	300	300	0	0	370	46	0	1	0	0	0	1	blank2r.bmp	0	1	+	0	4	B4r.bmp	492	1	blank2r.bmp	786	1	GKQX	786	1	blank2r.bmp	866	3	leiden	866	1	!	1239	1	!	1266	0	0	0	0	0	0	0	0	0	0	0	0	0	0	0	0	0	0	0	0	0	0	0	0	0	0	0
011119	09:06:09	09:20:25	853994	5.0.10.0	4_exp_AWA_CON_EVA_AMP	62	Rpleas_acq	Same	Rpleas	Bmasked	CS_B	2pleas	distractor2	CONbeforeEVA	cond_US_pleas_123_masked_CS1	condtest_masked_2	9	18	400	1	300	300	0	0	412	46	0	0	0	0	0	1	blank2r.bmp	0	1	+	0	7	C3r.bmp	492	1	blank2r.bmp	786	1	BMVZ	786	1	blank2r.bmp	866	1	freundlich	866	1	!	1239	1	!	1319	0	0	0	0	0	0	0	0	0	0	0	0	0	0	0	0	0	0	0	0	0	0	0	0	0	0	0
011119	09:06:09	09:20:28	856193	5.0.10.0	4_exp_AWA_CON_EVA_AMP	62	Rpleas_acq	Same	Rpleas	Bmasked	CS_B	2pleas	distractor2	CONbeforeEVA	cond_US_pleas_123_masked_CS2	condtest_masked_2	9	19	400	1	300	300	0	0	411	50	0	1	0	0	0	1	blank2r.bmp	0	1	+	0	2	B2r.bmp	492	1	blank2r.bmp	786	1	GKQX	786	1	blank2r.bmp	866	2	helfen	866	1	!	1239	1	!	1306	0	0	0	0	0	0	0	0	0	0	0	0	0	0	0	0	0	0	0	0	0	0	0	0	0	0	0
011119	09:06:09	09:20:30	858472	5.0.10.0	4_exp_AWA_CON_EVA_AMP	62	Rpleas_acq	Same	Rpleas	Bmasked	CS_B	2pleas	distractor2	CONbeforeEVA	cond_US_unple_123_masked_CS2	condtest_masked_2	9	20	400	0	300	300	0	0	499	46	0	1	0	0	0	1	blank2r.bmp	0	1	+	0	6	C2r.bmp	492	1	blank2r.bmp	786	1	GKQX	786	1	blank2r.bmp	866	3	rächen	866	1	!	1239	1	!	-1	0	0	0	0	0	0	0	0	0	0	0	0	0	0	0	0	0	0	0	0	0	0	0	0	0	0	0
011119	09:06:09	09:20:32	860805	5.0.10.0	4_exp_AWA_CON_EVA_AMP	62	Rpleas_acq	Same	Rpleas	Bmasked	CS_B	2pleas	distractor2	CONbeforeEVA	cond_new_unple_456_masked_CS1	condtest_masked_2	9	21	400	0	300	300	0	0	535	50	0	0	0	0	0	1	blank2r.bmp	0	1	+	0	2	B2r.bmp	492	1	blank2r.bmp	786	1	BMVZ	786	1	blank2r.bmp	866	1	strafen	866	1	!	1239	1	!	-1	0	0	0	0	0	0	0	0	0	0	0	0	0	0	0	0	0	0	0	0	0	0	0	0	0	0	0
011119	09:06:09	09:20:34	863110	5.0.10.0	4_exp_AWA_CON_EVA_AMP	62	Rpleas_acq	Same	Rpleas	Bmasked	CS_B	2pleas	distractor2	CONbeforeEVA	cond_new_pleas_456_masked_CS2	condtest_masked_2	9	22	400	0	300	300	0	0	523	50	0	1	0	0	0	1	blank2r.bmp	0	1	+	0	4	B4r.bmp	492	1	blank2r.bmp	786	1	GKQX	786	1	blank2r.bmp	866	3	lachen	866	1	!	1239	1	!	-1	0	0	0	0	0	0	0	0	0	0	0	0	0	0	0	0	0	0	0	0	0	0	0	0	0	0	0
011119	09:06:09	09:20:37	865576	5.0.10.0	4_exp_AWA_CON_EVA_AMP	62	Rpleas_acq	Same	Rpleas	Bmasked	CS_B	2pleas	distractor2	CONbeforeEVA	cond_US_unple_123_masked_CS2	condtest_masked_2	9	23	400	0	300	300	0	0	684	46	0	1	0	0	0	1	blank2r.bmp	0	1	+	0	1	B1r.bmp	492	1	blank2r.bmp	786	1	GKQX	786	1	blank2r.bmp	866	1	fanatisch	866	1	!	1239	1	!	-1	0	0	0	0	0	0	0	0	0	0	0	0	0	0	0	0	0	0	0	0	0	0	0	0	0	0	0
011119	09:06:09	09:20:39	867842	5.0.10.0	4_exp_AWA_CON_EVA_AMP	62	Rpleas_acq	Same	Rpleas	Bmasked	CS_B	2pleas	distractor2	CONbeforeEVA	cond_new_unple_456_masked_CS2	condtest_masked_2	9	24	400	0	300	300	0	0	489	46	0	1	0	0	0	1	blank2r.bmp	0	1	+	0	5	C1r.bmp	492	1	blank2r.bmp	786	1	GKQX	786	1	blank2r.bmp	866	1	strafen	866	1	!	1239	1	!	-1	0	0	0	0	0	0	0	0	0	0	0	0	0	0	0	0	0	0	0	0	0	0	0	0	0	0	0
011119	09:06:09	09:20:41	870147	5.0.10.0	4_exp_AWA_CON_EVA_AMP	62	Rpleas_acq	Same	Rpleas	Bmasked	CS_B	2pleas	distractor2	CONbeforeEVA	cond_US_unple_123_masked_CS1	condtest_masked_2	9	25	400	0	300	300	0	0	528	46	0	1	0	0	0	1	blank2r.bmp	0	1	+	0	6	C2r.bmp	492	1	blank2r.bmp	786	1	BMVZ	786	1	blank2r.bmp	866	2	hindern	866	1	!	1239	1	!	-1	0	0	0	0	0	0	0	0	0	0	0	0	0	0	0	0	0	0	0	0	0	0	0	0	0	0	0
011119	09:06:09	09:20:44	872413	5.0.10.0	4_exp_AWA_CON_EVA_AMP	62	Rpleas_acq	Same	Rpleas	Bmasked	CS_B	2pleas	distractor2	CONbeforeEVA	cond_new_unple_456_masked_CS2	condtest_masked_2	9	26	400	0	300	300	0	0	491	46	0	1	0	0	0	1	blank2r.bmp	0	1	+	0	3	B3r.bmp	492	1	blank2r.bmp	786	1	GKQX	786	1	blank2r.bmp	866	2	lasch	866	1	!	1239	1	!	-1	0	0	0	0	0	0	0	0	0	0	0	0	0	0	0	0	0	0	0	0	0	0	0	0	0	0	0
011119	09:06:09	09:20:46	874572	5.0.10.0	4_exp_AWA_CON_EVA_AMP	62	Rpleas_acq	Same	Rpleas	Bmasked	CS_B	2pleas	distractor2	CONbeforeEVA	cond_new_pleas_456_masked_CS1	condtest_masked_2	9	27	400	1	300	300	0	0	346	50	0	1	0	0	0	1	blank2r.bmp	0	1	+	0	8	C4r.bmp	492	1	blank2r.bmp	786	1	BMVZ	786	1	blank2r.bmp	866	3	lachen	866	1	!	1239	1	!	1252	0	0	0	0	0	0	0	0	0	0	0	0	0	0	0	0	0	0	0	0	0	0	0	0	0	0	0
011119	09:06:09	09:20:48	876731	5.0.10.0	4_exp_AWA_CON_EVA_AMP	62	Rpleas_acq	Same	Rpleas	Bmasked	CS_B	2pleas	distractor2	CONbeforeEVA	cond_new_unple_456_masked_CS1	condtest_masked_2	9	28	400	1	300	300	0	0	363	46	0	1	0	0	0	1	blank2r.bmp	0	1	+	0	7	C3r.bmp	492	1	blank2r.bmp	786	1	BMVZ	786	1	blank2r.bmp	866	3	leiden	866	1	!	1239	1	!	1266	0	0	0	0	0	0	0	0	0	0	0	0	0	0	0	0	0	0	0	0	0	0	0	0	0	0	0
011119	09:06:09	09:20:50	878877	5.0.10.0	4_exp_AWA_CON_EVA_AMP	62	Rpleas_acq	Same	Rpleas	Bmasked	CS_B	2pleas	distractor2	CONbeforeEVA	cond_new_unple_456_masked_CS1	condtest_masked_2	9	29	400	1	300	300	0	0	346	50	0	0	0	0	0	1	blank2r.bmp	0	1	+	0	4	B4r.bmp	492	1	blank2r.bmp	786	1	BMVZ	786	1	blank2r.bmp	866	2	lasch	866	1	!	1239	1	!	1252	0	0	0	0	0	0	0	0	0	0	0	0	0	0	0	0	0	0	0	0	0	0	0	0	0	0	0
011119	09:06:09	09:20:52	881130	5.0.10.0	4_exp_AWA_CON_EVA_AMP	62	Rpleas_acq	Same	Rpleas	Bmasked	CS_B	2pleas	distractor2	CONbeforeEVA	cond_US_pleas_123_masked_CS1	condtest_masked_2	9	30	400	1	300	300	0	0	460	46	0	0	0	0	0	1	blank2r.bmp	0	1	+	0	7	C3r.bmp	492	1	blank2r.bmp	786	1	BMVZ	786	1	blank2r.bmp	866	3	retten	866	1	!	1239	1	!	1359	0	0	0	0	0	0	0	0	0	0	0	0	0	0	0	0	0	0	0	0	0	0	0	0	0	0	0
011119	09:06:09	09:20:55	883409	5.0.10.0	4_exp_AWA_CON_EVA_AMP	62	Rpleas_acq	Same	Rpleas	Bmasked	CS_B	2pleas	distractor2	CONbeforeEVA	cond_new_unple_456_masked_CS1	condtest_masked_2	9	31	400	0	300	300	0	0	516	46	0	1	0	0	0	1	blank2r.bmp	0	1	+	0	6	C2r.bmp	492	1	blank2r.bmp	786	1	BMVZ	786	1	blank2r.bmp	866	3	leiden	866	1	!	1239	1	!	-1	0	0	0	0	0	0	0	0	0	0	0	0	0	0	0	0	0	0	0	0	0	0	0	0	0	0	0
011119	09:06:09	09:20:57	885661	5.0.10.0	4_exp_AWA_CON_EVA_AMP	62	Rpleas_acq	Same	Rpleas	Bmasked	CS_B	2pleas	distractor2	CONbeforeEVA	cond_US_pleas_123_masked_CS1	condtest_masked_2	9	32	400	1	300	300	0	0	444	50	0	1	0	0	0	1	blank2r.bmp	0	1	+	0	5	C1r.bmp	492	1	blank2r.bmp	786	1	BMVZ	786	1	blank2r.bmp	866	1	freundlich	866	1	!	1239	1	!	1346	0	0	0	0	0	0	0	0	0	0	0	0	0	0	0	0	0	0	0	0	0	0	0	0	0	0	0
011119	09:06:09	09:20:59	887887	5.0.10.0	4_exp_AWA_CON_EVA_AMP	62	Rpleas_acq	Same	Rpleas	Bmasked	CS_B	2pleas	distractor2	CONbeforeEVA	cond_new_pleas_456_masked_CS2	condtest_masked_2	9	33	400	1	300	300	0	0	413	46	0	0	0	0	0	1	blank2r.bmp	0	1	+	0	2	B2r.bmp	492	1	blank2r.bmp	786	1	GKQX	786	1	blank2r.bmp	866	1	spielen	866	1	!	1239	1	!	1319	0	0	0	0	0	0	0	0	0	0	0	0	0	0	0	0	0	0	0	0	0	0	0	0	0	0	0
011119	09:06:09	09:21:02	890526	5.0.10.0	4_exp_AWA_CON_EVA_AMP	62	Rpleas_acq	Same	Rpleas	Bmasked	CS_B	2pleas	distractor2	CONbeforeEVA	cond_new_unple_456_masked_CS2	condtest_masked_2	9	34	400	0	300	300	0	0	875	46	0	1	0	0	0	1	blank2r.bmp	0	1	+	0	1	B1r.bmp	492	1	blank2r.bmp	786	1	GKQX	786	1	blank2r.bmp	866	1	strafen	866	1	!	1239	1	!	-1	0	0	0	0	0	0	0	0	0	0	0	0	0	0	0	0	0	0	0	0	0	0	0	0	0	0	0
011119	09:06:09	09:21:04	893178	5.0.10.0	4_exp_AWA_CON_EVA_AMP	62	Rpleas_acq	Same	Rpleas	Bmasked	CS_B	2pleas	distractor2	CONbeforeEVA	cond_US_pleas_123_masked_CS2	condtest_masked_2	9	35	400	0	300	300	0	0	866	50	0	1	0	0	0	1	blank2r.bmp	0	1	+	0	8	C4r.bmp	492	1	blank2r.bmp	786	1	GKQX	786	1	blank2r.bmp	866	2	helfen	866	1	!	1239	1	!	-1	0	0	0	0	0	0	0	0	0	0	0	0	0	0	0	0	0	0	0	0	0	0	0	0	0	0	0
011119	09:06:09	09:21:07	895444	5.0.10.0	4_exp_AWA_CON_EVA_AMP	62	Rpleas_acq	Same	Rpleas	Bmasked	CS_B	2pleas	distractor2	CONbeforeEVA	cond_US_unple_123_masked_CS1	condtest_masked_2	9	36	400	0	300	300	0	0	479	46	0	1	0	0	0	1	blank2r.bmp	0	1	+	0	3	B3r.bmp	492	1	blank2r.bmp	786	1	BMVZ	786	1	blank2r.bmp	866	3	rächen	866	1	!	1239	1	!	-1	0	0	0	0	0	0	0	0	0	0	0	0	0	0	0	0	0	0	0	0	0	0	0	0	0	0	0
011119	09:06:09	09:21:09	897723	5.0.10.0	4_exp_AWA_CON_EVA_AMP	62	Rpleas_acq	Same	Rpleas	Bmasked	CS_B	2pleas	distractor2	CONbeforeEVA	cond_US_pleas_123_masked_CS1	condtest_masked_2	9	37	400	0	300	300	0	0	489	50	0	1	0	0	0	1	blank2r.bmp	0	1	+	0	7	C3r.bmp	492	1	blank2r.bmp	786	1	BMVZ	786	1	blank2r.bmp	866	3	retten	866	1	!	1239	1	!	-1	0	0	0	0	0	0	0	0	0	0	0	0	0	0	0	0	0	0	0	0	0	0	0	0	0	0	0
011119	09:06:09	09:21:12	900215	5.0.10.0	4_exp_AWA_CON_EVA_AMP	62	Rpleas_acq	Same	Rpleas	Bmasked	CS_B	2pleas	distractor2	CONbeforeEVA	cond_US_pleas_123_masked_CS2	condtest_masked_2	9	38	400	0	300	300	0	0	711	46	0	0	0	0	0	1	blank2r.bmp	0	1	+	0	3	B3r.bmp	492	1	blank2r.bmp	786	1	GKQX	786	1	blank2r.bmp	866	1	freundlich	866	1	!	1239	1	!	-1	0	0	0	0	0	0	0	0	0	0	0	0	0	0	0	0	0	0	0	0	0	0	0	0	0	0	0
011119	09:06:09	09:21:14	902587	5.0.10.0	4_exp_AWA_CON_EVA_AMP	62	Rpleas_acq	Same	Rpleas	Bmasked	CS_B	2pleas	distractor2	CONbeforeEVA	cond_US_pleas_123_masked_CS2	condtest_masked_2	9	39	400	0	300	300	0	0	594	50	0	1	0	0	0	1	blank2r.bmp	0	1	+	0	4	B4r.bmp	492	1	blank2r.bmp	786	1	GKQX	786	1	blank2r.bmp	866	2	helfen	866	1	!	1239	1	!	-1	0	0	0	0	0	0	0	0	0	0	0	0	0	0	0	0	0	0	0	0	0	0	0	0	0	0	0
011119	09:06:09	09:21:16	904866	5.0.10.0	4_exp_AWA_CON_EVA_AMP	62	Rpleas_acq	Same	Rpleas	Bmasked	CS_B	2pleas	distractor2	CONbeforeEVA	cond_new_pleas_456_masked_CS1	condtest_masked_2	9	40	400	0	300	300	0	0	479	50	0	1	0	0	0	1	blank2r.bmp	0	1	+	0	6	C2r.bmp	492	1	blank2r.bmp	786	1	BMVZ	786	1	blank2r.bmp	866	2	loyal	866	1	!	1239	1	!	-1	0	0	0	0	0	0	0	0	0	0	0	0	0	0	0	0	0	0	0	0	0	0	0	0	0	0	0
011119	09:06:09	09:21:32	921100	5.0.10.0	4_exp_AWA_CON_EVA_AMP	62	Rpleas_acq	Same	Rpleas	Bmasked	CS_B	2pleas	distractor2	CONbeforeEVA	cond_new_pleas_123_masked_CS2	condtest_masked_3	10	1	400	0	300	300	0	0	485	50	0	1	0	0	0	1	blank2r.bmp	0	1	+	0	1	B1r.bmp	492	1	blank2r.bmp	786	1	GKQX	786	1	blank2r.bmp	866	2	fair	866	1	!	1239	1	!	-1	0	0	0	0	0	0	0	0	0	0	0	0	0	0	0	0	0	0	0	0	0	0	0	0	0	0	0
011119	09:06:09	09:21:35	923365	5.0.10.0	4_exp_AWA_CON_EVA_AMP	62	Rpleas_acq	Same	Rpleas	Bmasked	CS_B	2pleas	distractor2	CONbeforeEVA	cond_US_pleas_456_masked_CS2	condtest_masked_3	10	2	400	0	300	300	0	0	479	50	0	1	0	0	0	1	blank2r.bmp	0	1	+	0	2	B2r.bmp	492	1	blank2r.bmp	786	1	GKQX	786	1	blank2r.bmp	866	2	ehrlich	866	1	!	1239	1	!	-1	0	0	0	0	0	0	0	0	0	0	0	0	0	0	0	0	0	0	0	0	0	0	0	0	0	0	0
011119	09:06:09	09:21:37	925671	5.0.10.0	4_exp_AWA_CON_EVA_AMP	62	Rpleas_acq	Same	Rpleas	Bmasked	CS_B	2pleas	distractor2	CONbeforeEVA	cond_new_pleas_123_masked_CS1	condtest_masked_3	10	3	400	0	300	300	0	0	531	50	0	1	0	0	0	1	blank2r.bmp	0	1	+	0	5	C1r.bmp	492	1	blank2r.bmp	786	1	BMVZ	786	1	blank2r.bmp	866	3	tolerant	866	1	!	1239	1	!	-1	0	0	0	0	0	0	0	0	0	0	0	0	0	0	0	0	0	0	0	0	0	0	0	0	0	0	0
011119	09:06:09	09:21:39	927910	5.0.10.0	4_exp_AWA_CON_EVA_AMP	62	Rpleas_acq	Same	Rpleas	Bmasked	CS_B	2pleas	distractor2	CONbeforeEVA	cond_US_unple_456_masked_CS2	condtest_masked_3	10	4	400	1	300	300	0	0	433	46	0	1	0	0	0	1	blank2r.bmp	0	1	+	0	8	C4r.bmp	492	1	blank2r.bmp	786	1	GKQX	786	1	blank2r.bmp	866	1	tot	866	1	!	1239	1	!	1332	0	0	0	0	0	0	0	0	0	0	0	0	0	0	0	0	0	0	0	0	0	0	0	0	0	0	0
011119	09:06:09	09:21:41	930136	5.0.10.0	4_exp_AWA_CON_EVA_AMP	62	Rpleas_acq	Same	Rpleas	Bmasked	CS_B	2pleas	distractor2	CONbeforeEVA	cond_new_pleas_123_masked_CS2	condtest_masked_3	10	5	400	1	300	300	0	0	429	50	0	1	0	0	0	1	blank2r.bmp	0	1	+	0	6	C2r.bmp	492	1	blank2r.bmp	786	1	GKQX	786	1	blank2r.bmp	866	1	schön	866	1	!	1239	1	!	1332	0	0	0	0	0	0	0	0	0	0	0	0	0	0	0	0	0	0	0	0	0	0	0	0	0	0	0
011119	09:06:09	09:21:44	932508	5.0.10.0	4_exp_AWA_CON_EVA_AMP	62	Rpleas_acq	Same	Rpleas	Bmasked	CS_B	2pleas	distractor2	CONbeforeEVA	cond_US_unple_456_masked_CS1	condtest_masked_3	10	6	400	0	300	300	0	0	586	46	0	1	0	0	0	1	blank2r.bmp	0	1	+	0	3	B3r.bmp	492	1	blank2r.bmp	786	1	BMVZ	786	1	blank2r.bmp	866	2	eitel	866	1	!	1239	1	!	-1	0	0	0	0	0	0	0	0	0	0	0	0	0	0	0	0	0	0	0	0	0	0	0	0	0	0	0
011119	09:06:09	09:21:46	934814	5.0.10.0	4_exp_AWA_CON_EVA_AMP	62	Rpleas_acq	Same	Rpleas	Bmasked	CS_B	2pleas	distractor2	CONbeforeEVA	cond_new_pleas_123_masked_CS2	condtest_masked_3	10	7	400	0	300	300	0	0	515	50	0	1	0	0	0	1	blank2r.bmp	0	1	+	0	8	C4r.bmp	492	1	blank2r.bmp	786	1	GKQX	786	1	blank2r.bmp	866	1	schön	866	1	!	1239	1	!	-1	0	0	0	0	0	0	0	0	0	0	0	0	0	0	0	0	0	0	0	0	0	0	0	0	0	0	0
011119	09:06:09	09:21:48	937120	5.0.10.0	4_exp_AWA_CON_EVA_AMP	62	Rpleas_acq	Same	Rpleas	Bmasked	CS_B	2pleas	distractor2	CONbeforeEVA	cond_US_pleas_456_masked_CS2	condtest_masked_3	10	8	400	0	300	300	0	0	529	50	0	1	0	0	0	1	blank2r.bmp	0	1	+	0	1	B1r.bmp	492	1	blank2r.bmp	786	1	GKQX	786	1	blank2r.bmp	866	1	treu	866	1	!	1239	1	!	-1	0	0	0	0	0	0	0	0	0	0	0	0	0	0	0	0	0	0	0	0	0	0	0	0	0	0	0
011119	09:06:09	09:21:51	939425	5.0.10.0	4_exp_AWA_CON_EVA_AMP	62	Rpleas_acq	Same	Rpleas	Bmasked	CS_B	2pleas	distractor2	CONbeforeEVA	cond_US_pleas_456_masked_CS2	condtest_masked_3	10	9	400	0	300	300	0	0	521	50	0	1	0	0	0	1	blank2r.bmp	0	1	+	0	2	B2r.bmp	492	1	blank2r.bmp	786	1	GKQX	786	1	blank2r.bmp	866	3	schlau	866	1	!	1239	1	!	-1	0	0	0	0	0	0	0	0	0	0	0	0	0	0	0	0	0	0	0	0	0	0	0	0	0	0	0
011119	09:06:09	09:21:53	941638	5.0.10.0	4_exp_AWA_CON_EVA_AMP	62	Rpleas_acq	Same	Rpleas	Bmasked	CS_B	2pleas	distractor2	CONbeforeEVA	cond_US_pleas_456_masked_CS1	condtest_masked_3	10	10	400	1	300	300	0	0	403	50	0	1	0	0	0	1	blank2r.bmp	0	1	+	0	4	B4r.bmp	492	1	blank2r.bmp	786	1	BMVZ	786	1	blank2r.bmp	866	2	ehrlich	866	1	!	1239	1	!	1306	0	0	0	0	0	0	0	0	0	0	0	0	0	0	0	0	0	0	0	0	0	0	0	0	0	0	0
011119	09:06:09	09:21:55	943984	5.0.10.0	4_exp_AWA_CON_EVA_AMP	62	Rpleas_acq	Same	Rpleas	Bmasked	CS_B	2pleas	distractor2	CONbeforeEVA	cond_US_pleas_456_masked_CS1	condtest_masked_3	10	11	400	0	300	300	0	0	584	50	0	1	0	0	0	1	blank2r.bmp	0	1	+	0	5	C1r.bmp	492	1	blank2r.bmp	786	1	BMVZ	786	1	blank2r.bmp	866	1	treu	866	1	!	1239	1	!	-1	0	0	0	0	0	0	0	0	0	0	0	0	0	0	0	0	0	0	0	0	0	0	0	0	0	0	0
011119	09:06:09	09:21:57	946183	5.0.10.0	4_exp_AWA_CON_EVA_AMP	62	Rpleas_acq	Same	Rpleas	Bmasked	CS_B	2pleas	distractor2	CONbeforeEVA	cond_US_unple_456_masked_CS2	condtest_masked_3	10	12	400	1	300	300	0	0	388	50	0	0	0	0	0	1	blank2r.bmp	0	1	+	0	7	C3r.bmp	492	1	blank2r.bmp	786	1	GKQX	786	1	blank2r.bmp	866	3	schroff	866	1	!	1239	1	!	1292	0	0	0	0	0	0	0	0	0	0	0	0	0	0	0	0	0	0	0	0	0	0	0	0	0	0	0
011119	09:06:09	09:22:00	948502	5.0.10.0	4_exp_AWA_CON_EVA_AMP	62	Rpleas_acq	Same	Rpleas	Bmasked	CS_B	2pleas	distractor2	CONbeforeEVA	cond_US_pleas_456_masked_CS2	condtest_masked_3	10	13	400	0	300	300	0	0	548	50	0	1	0	0	0	1	blank2r.bmp	0	1	+	0	1	B1r.bmp	492	1	blank2r.bmp	786	1	GKQX	786	1	blank2r.bmp	866	3	schlau	866	1	!	1239	1	!	-1	0	0	0	0	0	0	0	0	0	0	0	0	0	0	0	0	0	0	0	0	0	0	0	0	0	0	0
011119	09:06:09	09:22:02	950794	5.0.10.0	4_exp_AWA_CON_EVA_AMP	62	Rpleas_acq	Same	Rpleas	Bmasked	CS_B	2pleas	distractor2	CONbeforeEVA	cond_US_pleas_456_masked_CS1	condtest_masked_3	10	14	400	0	300	300	0	0	510	46	0	0	0	0	0	1	blank2r.bmp	0	1	+	0	2	B2r.bmp	492	1	blank2r.bmp	786	1	BMVZ	786	1	blank2r.bmp	866	1	treu	866	1	!	1239	1	!	-1	0	0	0	0	0	0	0	0	0	0	0	0	0	0	0	0	0	0	0	0	0	0	0	0	0	0	0
011119	09:06:09	09:22:04	953153	5.0.10.0	4_exp_AWA_CON_EVA_AMP	62	Rpleas_acq	Same	Rpleas	Bmasked	CS_B	2pleas	distractor2	CONbeforeEVA	cond_US_unple_456_masked_CS1	condtest_masked_3	10	15	400	0	300	300	0	0	574	46	0	1	0	0	0	1	blank2r.bmp	0	1	+	0	3	B3r.bmp	492	1	blank2r.bmp	786	1	BMVZ	786	1	blank2r.bmp	866	1	tot	866	1	!	1239	1	!	-1	0	0	0	0	0	0	0	0	0	0	0	0	0	0	0	0	0	0	0	0	0	0	0	0	0	0	0
011119	09:06:09	09:22:07	955579	5.0.10.0	4_exp_AWA_CON_EVA_AMP	62	Rpleas_acq	Same	Rpleas	Bmasked	CS_B	2pleas	distractor2	CONbeforeEVA	cond_new_unple_123_masked_CS2	condtest_masked_3	10	16	400	0	300	300	0	0	642	46	0	1	0	0	0	1	blank2r.bmp	0	1	+	0	4	B4r.bmp	492	1	blank2r.bmp	786	1	GKQX	786	1	blank2r.bmp	866	2	faul	866	1	!	1239	1	!	-1	0	0	0	0	0	0	0	0	0	0	0	0	0	0	0	0	0	0	0	0	0	0	0	0	0	0	0
011119	09:06:09	09:22:09	957845	5.0.10.0	4_exp_AWA_CON_EVA_AMP	62	Rpleas_acq	Same	Rpleas	Bmasked	CS_B	2pleas	distractor2	CONbeforeEVA	cond_US_pleas_456_masked_CS1	condtest_masked_3	10	17	400	0	300	300	0	0	479	50	0	1	0	0	0	1	blank2r.bmp	0	1	+	0	8	C4r.bmp	492	1	blank2r.bmp	786	1	BMVZ	786	1	blank2r.bmp	866	3	schlau	866	1	!	1239	1	!	-1	0	0	0	0	0	0	0	0	0	0	0	0	0	0	0	0	0	0	0	0	0	0	0	0	0	0	0
011119	09:06:09	09:22:11	960097	5.0.10.0	4_exp_AWA_CON_EVA_AMP	62	Rpleas_acq	Same	Rpleas	Bmasked	CS_B	2pleas	distractor2	CONbeforeEVA	cond_US_unple_456_masked_CS1	condtest_masked_3	10	18	400	1	300	300	0	0	442	46	0	1	0	0	0	1	blank2r.bmp	0	1	+	0	6	C2r.bmp	492	1	blank2r.bmp	786	1	BMVZ	786	1	blank2r.bmp	866	2	eitel	866	1	!	1239	1	!	1346	0	0	0	0	0	0	0	0	0	0	0	0	0	0	0	0	0	0	0	0	0	0	0	0	0	0	0
011119	09:06:09	09:22:14	962363	5.0.10.0	4_exp_AWA_CON_EVA_AMP	62	Rpleas_acq	Same	Rpleas	Bmasked	CS_B	2pleas	distractor2	CONbeforeEVA	cond_new_unple_123_masked_CS2	condtest_masked_3	10	19	400	0	300	300	0	0	502	46	0	1	0	0	0	1	blank2r.bmp	0	1	+	0	5	C1r.bmp	492	1	blank2r.bmp	786	1	GKQX	786	1	blank2r.bmp	866	3	tyrannisch	866	1	!	1239	1	!	-1	0	0	0	0	0	0	0	0	0	0	0	0	0	0	0	0	0	0	0	0	0	0	0	0	0	0	0
011119	09:06:09	09:22:16	964588	5.0.10.0	4_exp_AWA_CON_EVA_AMP	62	Rpleas_acq	Same	Rpleas	Bmasked	CS_B	2pleas	distractor2	CONbeforeEVA	cond_new_unple_123_masked_CS1	condtest_masked_3	10	20	400	1	300	300	0	0	417	46	0	1	0	0	0	1	blank2r.bmp	0	1	+	0	7	C3r.bmp	492	1	blank2r.bmp	786	1	BMVZ	786	1	blank2r.bmp	866	1	schlecht	866	1	!	1239	1	!	1319	0	0	0	0	0	0	0	0	0	0	0	0	0	0	0	0	0	0	0	0	0	0	0	0	0	0	0
011119	09:06:09	09:22:18	967041	5.0.10.0	4_exp_AWA_CON_EVA_AMP	62	Rpleas_acq	Same	Rpleas	Bmasked	CS_B	2pleas	distractor2	CONbeforeEVA	cond_new_unple_123_masked_CS2	condtest_masked_3	10	21	400	0	300	300	0	0	689	46	0	1	0	0	0	1	blank2r.bmp	0	1	+	0	4	B4r.bmp	492	1	blank2r.bmp	786	1	GKQX	786	1	blank2r.bmp	866	1	schlecht	866	1	!	1239	1	!	-1	0	0	0	0	0	0	0	0	0	0	0	0	0	0	0	0	0	0	0	0	0	0	0	0	0	0	0
011119	09:06:09	09:22:21	969560	5.0.10.0	4_exp_AWA_CON_EVA_AMP	62	Rpleas_acq	Same	Rpleas	Bmasked	CS_B	2pleas	distractor2	CONbeforeEVA	cond_new_pleas_123_masked_CS1	condtest_masked_3	10	22	400	0	300	300	0	0	733	50	0	1	0	0	0	1	blank2r.bmp	0	1	+	0	3	B3r.bmp	492	1	blank2r.bmp	786	1	BMVZ	786	1	blank2r.bmp	866	3	tolerant	866	1	!	1239	1	!	-1	0	0	0	0	0	0	0	0	0	0	0	0	0	0	0	0	0	0	0	0	0	0	0	0	0	0	0
011119	09:06:09	09:22:23	971852	5.0.10.0	4_exp_AWA_CON_EVA_AMP	62	Rpleas_acq	Same	Rpleas	Bmasked	CS_B	2pleas	distractor2	CONbeforeEVA	cond_US_pleas_456_masked_CS1	condtest_masked_3	10	23	400	0	300	300	0	0	505	50	0	1	0	0	0	1	blank2r.bmp	0	1	+	0	1	B1r.bmp	492	1	blank2r.bmp	786	1	BMVZ	786	1	blank2r.bmp	866	2	ehrlich	866	1	!	1239	1	!	-1	0	0	0	0	0	0	0	0	0	0	0	0	0	0	0	0	0	0	0	0	0	0	0	0	0	0	0
011119	09:06:09	09:22:25	974091	5.0.10.0	4_exp_AWA_CON_EVA_AMP	62	Rpleas_acq	Same	Rpleas	Bmasked	CS_B	2pleas	distractor2	CONbeforeEVA	cond_new_unple_123_masked_CS2	condtest_masked_3	10	24	400	1	300	300	0	0	424	46	0	1	0	0	0	1	blank2r.bmp	0	1	+	0	7	C3r.bmp	492	1	blank2r.bmp	786	1	GKQX	786	1	blank2r.bmp	866	2	faul	866	1	!	1239	1	!	1319	0	0	0	0	0	0	0	0	0	0	0	0	0	0	0	0	0	0	0	0	0	0	0	0	0	0	0
011119	09:06:09	09:22:28	976330	5.0.10.0	4_exp_AWA_CON_EVA_AMP	62	Rpleas_acq	Same	Rpleas	Bmasked	CS_B	2pleas	distractor2	CONbeforeEVA	cond_US_unple_456_masked_CS2	condtest_masked_3	10	25	400	1	300	300	0	0	442	46	0	1	0	0	0	1	blank2r.bmp	0	1	+	0	5	C1r.bmp	492	1	blank2r.bmp	786	1	GKQX	786	1	blank2r.bmp	866	3	schroff	866	1	!	1239	1	!	1346	0	0	0	0	0	0	0	0	0	0	0	0	0	0	0	0	0	0	0	0	0	0	0	0	0	0	0
011119	09:06:09	09:22:30	978383	5.0.10.0	4_exp_AWA_CON_EVA_AMP	62	Rpleas_acq	Same	Rpleas	Bmasked	CS_B	2pleas	distractor2	CONbeforeEVA	cond_new_pleas_123_masked_CS2	condtest_masked_3	10	26	400	0	300	300	0	0	286	50	0	1	0	0	0	1	blank2r.bmp	0	1	+	0	2	B2r.bmp	492	1	blank2r.bmp	786	1	GKQX	786	1	blank2r.bmp	866	2	fair	866	1	!	-1	1	!	-1	0	0	0	0	0	0	0	0	0	0	0	0	0	0	0	0	0	0	0	0	0	0	0	0	0	0	0
011119	09:06:09	09:22:32	980648	5.0.10.0	4_exp_AWA_CON_EVA_AMP	62	Rpleas_acq	Same	Rpleas	Bmasked	CS_B	2pleas	distractor2	CONbeforeEVA	cond_new_unple_123_masked_CS2	condtest_masked_3	10	27	400	1	300	300	0	0	463	46	0	1	0	0	0	1	blank2r.bmp	0	1	+	0	8	C4r.bmp	492	1	blank2r.bmp	786	1	GKQX	786	1	blank2r.bmp	866	3	tyrannisch	866	1	!	1239	1	!	1359	0	0	0	0	0	0	0	0	0	0	0	0	0	0	0	0	0	0	0	0	0	0	0	0	0	0	0
011119	09:06:09	09:22:34	982914	5.0.10.0	4_exp_AWA_CON_EVA_AMP	62	Rpleas_acq	Same	Rpleas	Bmasked	CS_B	2pleas	distractor2	CONbeforeEVA	cond_US_unple_456_masked_CS1	condtest_masked_3	10	28	400	1	300	300	0	0	458	46	0	1	0	0	0	1	blank2r.bmp	0	1	+	0	6	C2r.bmp	492	1	blank2r.bmp	786	1	BMVZ	786	1	blank2r.bmp	866	2	eitel	866	1	!	1239	1	!	1359	0	0	0	0	0	0	0	0	0	0	0	0	0	0	0	0	0	0	0	0	0	0	0	0	0	0	0
011119	09:06:09	09:22:36	985180	5.0.10.0	4_exp_AWA_CON_EVA_AMP	62	Rpleas_acq	Same	Rpleas	Bmasked	CS_B	2pleas	distractor2	CONbeforeEVA	cond_new_unple_123_masked_CS1	condtest_masked_3	10	29	400	0	300	300	0	0	501	46	0	1	0	0	0	1	blank2r.bmp	0	1	+	0	2	B2r.bmp	492	1	blank2r.bmp	786	1	BMVZ	786	1	blank2r.bmp	866	2	faul	866	1	!	1239	1	!	-1	0	0	0	0	0	0	0	0	0	0	0	0	0	0	0	0	0	0	0	0	0	0	0	0	0	0	0
011119	09:06:09	09:22:39	987352	5.0.10.0	4_exp_AWA_CON_EVA_AMP	62	Rpleas_acq	Same	Rpleas	Bmasked	CS_B	2pleas	distractor2	CONbeforeEVA	cond_US_pleas_456_masked_CS2	condtest_masked_3	10	30	400	1	300	300	0	0	360	50	0	1	0	0	0	1	blank2r.bmp	0	1	+	0	6	C2r.bmp	492	1	blank2r.bmp	786	1	GKQX	786	1	blank2r.bmp	866	1	treu	866	1	!	1239	1	!	1266	0	0	0	0	0	0	0	0	0	0	0	0	0	0	0	0	0	0	0	0	0	0	0	0	0	0	0
011119	09:06:09	09:22:41	989512	5.0.10.0	4_exp_AWA_CON_EVA_AMP	62	Rpleas_acq	Same	Rpleas	Bmasked	CS_B	2pleas	distractor2	CONbeforeEVA	cond_US_unple_456_masked_CS1	condtest_masked_3	10	31	400	1	300	300	0	0	371	46	0	1	0	0	0	1	blank2r.bmp	0	1	+	0	7	C3r.bmp	492	1	blank2r.bmp	786	1	BMVZ	786	1	blank2r.bmp	866	1	tot	866	1	!	1239	1	!	1266	0	0	0	0	0	0	0	0	0	0	0	0	0	0	0	0	0	0	0	0	0	0	0	0	0	0	0
011119	09:06:09	09:22:43	991737	5.0.10.0	4_exp_AWA_CON_EVA_AMP	62	Rpleas_acq	Same	Rpleas	Bmasked	CS_B	2pleas	distractor2	CONbeforeEVA	cond_new_unple_123_masked_CS2	condtest_masked_3	10	32	400	1	300	300	0	0	436	46	0	1	0	0	0	1	blank2r.bmp	0	1	+	0	5	C1r.bmp	492	1	blank2r.bmp	786	1	GKQX	786	1	blank2r.bmp	866	1	schlecht	866	1	!	1239	1	!	1332	0	0	0	0	0	0	0	0	0	0	0	0	0	0	0	0	0	0	0	0	0	0	0	0	0	0	0
