date	time	script.currenttime	script.elapsedtime	build	script.currentexpt	subject	expressions.LRpleas_acq	expressions.SameOppo	expressions.condition_Lpleas	expressions.ABmasked	expressions.conditionCS_A	expressions.condition_1pleas	expressions.condition_distractor_AMP	expressions.AWACON_AMPEVA_first	trialcode	blockcode	blocknum	trialnum	windowcenter	inwindow	pretrialpause	posttrialpause	trialduration	trialtimeout	latency	response	expressions.correctedscore	correct	values.vis_performance	values.vis_rating_sum	values.vis_rating_mean	stimulusnumber1	stimulusitem1	stimulusonset1	stimulusnumber2	stimulusitem2	stimulusonset2	stimulusnumber3	stimulusitem3	stimulusonset3	stimulusnumber4	stimulusitem4	stimulusonset4	stimulusnumber5	stimulusitem5	stimulusonset5	stimulusnumber6	stimulusitem6	stimulusonset6	stimulusnumber7	stimulusitem7	stimulusonset7	stimulusnumber8	stimulusitem8	stimulusonset8	stimulusnumber9	stimulusitem9	stimulusonset9	stimulusnumber10	stimulusitem10	stimulusonset10	stimulusnumber11	stimulusitem11	stimulusonset11	stimulusnumber12	stimulusitem12	stimulusonset12	stimulusnumber13	stimulusitem13	stimulusonset13	stimulusnumber14	stimulusitem14	stimulusonset14	stimulusnumber15	stimulusitem15	stimulusonset15	stimulusnumber16	stimulusitem16	stimulusonset16	stimulusnumber17	stimulusitem17	stimulusonset17	stimulusnumber18	stimulusitem18	stimulusonset18
121818	13:47:04	13:49:08	123481	5.0.10.0	4_exp_AWA_CON_EVA_AMP	23	Rpleas_acq	Oppo	Rpleas	Amasked	CS_A	1pleas	distractor1	CONbeforeEVA	acq_new_unple_masked	acq1_masked	1	1	0	0	300	300	0	0	1611	46	0	1	0	0	0	1	blank2r.bmp	0	1	+	0	3	B3r.bmp	492	1	blank2r.bmp	786	8	C4r.bmp	786	1	blank2r.bmp	866	4	krise	866	0	0	0	0	0	0	0	0	0	0	0	0	0	0	0	0	0	0	0	0	0	0	0	0	0	0	0	0	0	0	0	0	0
121818	13:47:04	13:49:11	125933	5.0.10.0	4_exp_AWA_CON_EVA_AMP	23	Rpleas_acq	Oppo	Rpleas	Amasked	CS_A	1pleas	distractor1	CONbeforeEVA	acq_new_pleas_masked	acq1_masked	1	2	0	0	300	300	0	0	951	50	0	1	0	0	0	1	blank2r.bmp	0	1	+	0	8	C4r.bmp	492	1	blank2r.bmp	786	6	C2r.bmp	786	1	blank2r.bmp	866	3	genießen	866	0	0	0	0	0	0	0	0	0	0	0	0	0	0	0	0	0	0	0	0	0	0	0	0	0	0	0	0	0	0	0	0	0
121818	13:47:04	13:49:13	128505	5.0.10.0	4_exp_AWA_CON_EVA_AMP	23	Rpleas_acq	Oppo	Rpleas	Amasked	CS_A	2pleas	distractor1	CONbeforeEVA	acq_US_unple_masked	acq1_masked	1	3	0	0	300	300	0	0	1096	46	0	1	0	0	0	1	blank2r.bmp	0	1	+	0	4	B4r.bmp	492	1	blank2r.bmp	786	1	CPLW	786	1	blank2r.bmp	866	4	ausrottung	866	0	0	0	0	0	0	0	0	0	0	0	0	0	0	0	0	0	0	0	0	0	0	0	0	0	0	0	0	0	0	0	0	0
121818	13:47:04	13:49:16	131118	5.0.10.0	4_exp_AWA_CON_EVA_AMP	23	Rpleas_acq	Oppo	Rpleas	Amasked	CS_A	2pleas	distractor1	CONbeforeEVA	acq_new_unple_masked	acq1_masked	1	4	0	0	300	300	0	0	1132	46	0	1	0	0	0	1	blank2r.bmp	0	1	+	0	2	B2r.bmp	492	1	blank2r.bmp	786	7	C3r.bmp	786	1	blank2r.bmp	866	2	gierig	866	0	0	0	0	0	0	0	0	0	0	0	0	0	0	0	0	0	0	0	0	0	0	0	0	0	0	0	0	0	0	0	0	0
121818	13:47:04	13:49:18	133290	5.0.10.0	4_exp_AWA_CON_EVA_AMP	23	Rpleas_acq	Oppo	Rpleas	Amasked	CS_A	2pleas	distractor1	CONbeforeEVA	acq_US_unple_masked	acq1_masked	1	5	0	0	300	300	0	0	692	46	0	1	0	0	0	1	blank2r.bmp	0	1	+	0	6	C2r.bmp	492	1	blank2r.bmp	786	1	CPLW	786	1	blank2r.bmp	866	6	sterben	866	0	0	0	0	0	0	0	0	0	0	0	0	0	0	0	0	0	0	0	0	0	0	0	0	0	0	0	0	0	0	0	0	0
121818	13:47:04	13:49:21	136142	5.0.10.0	4_exp_AWA_CON_EVA_AMP	23	Rpleas_acq	Oppo	Rpleas	Amasked	CS_A	2pleas	distractor1	CONbeforeEVA	acq_new_pleas_masked	acq1_masked	1	6	0	0	300	300	0	0	1368	50	0	1	0	0	0	1	blank2r.bmp	0	1	+	0	1	B1r.bmp	492	1	blank2r.bmp	786	3	B3r.bmp	786	1	blank2r.bmp	866	6	gesittet	866	0	0	0	0	0	0	0	0	0	0	0	0	0	0	0	0	0	0	0	0	0	0	0	0	0	0	0	0	0	0	0	0	0
121818	13:47:04	13:49:23	138354	5.0.10.0	4_exp_AWA_CON_EVA_AMP	23	Rpleas_acq	Oppo	Rpleas	Amasked	CS_A	2pleas	distractor1	CONbeforeEVA	acq_US_pleas_masked	acq1_masked	1	7	0	0	300	300	0	0	729	50	0	1	0	0	0	1	blank2r.bmp	0	1	+	0	5	C1r.bmp	492	1	blank2r.bmp	786	1	DHJF	786	1	blank2r.bmp	866	1	träumen	866	0	0	0	0	0	0	0	0	0	0	0	0	0	0	0	0	0	0	0	0	0	0	0	0	0	0	0	0	0	0	0	0	0
121818	13:47:04	13:49:25	140660	5.0.10.0	4_exp_AWA_CON_EVA_AMP	23	Rpleas_acq	Oppo	Rpleas	Amasked	CS_A	2pleas	distractor1	CONbeforeEVA	acq_US_pleas_masked	acq1_masked	1	8	0	0	300	300	0	0	818	50	0	1	0	0	0	1	blank2r.bmp	0	1	+	0	7	C3r.bmp	492	1	blank2r.bmp	786	1	DHJF	786	1	blank2r.bmp	866	2	vertrauen	866	0	0	0	0	0	0	0	0	0	0	0	0	0	0	0	0	0	0	0	0	0	0	0	0	0	0	0	0	0	0	0	0	0
121818	13:47:04	13:49:28	142819	5.0.10.0	4_exp_AWA_CON_EVA_AMP	23	Rpleas_acq	Oppo	Rpleas	Amasked	CS_A	2pleas	distractor1	CONbeforeEVA	acq_US_unple_masked	acq1_masked	1	9	0	0	300	300	0	0	687	46	0	1	0	0	0	1	blank2r.bmp	0	1	+	0	7	C3r.bmp	492	1	blank2r.bmp	786	1	CPLW	786	1	blank2r.bmp	866	1	töten	866	0	0	0	0	0	0	0	0	0	0	0	0	0	0	0	0	0	0	0	0	0	0	0	0	0	0	0	0	0	0	0	0	0
121818	13:47:04	13:49:30	145192	5.0.10.0	4_exp_AWA_CON_EVA_AMP	23	Rpleas_acq	Oppo	Rpleas	Amasked	CS_A	2pleas	distractor1	CONbeforeEVA	acq_US_pleas_masked	acq1_masked	1	10	0	0	300	300	0	0	882	50	0	1	0	0	0	1	blank2r.bmp	0	1	+	0	4	B4r.bmp	492	1	blank2r.bmp	786	1	DHJF	786	1	blank2r.bmp	866	3	vergnügt	866	0	0	0	0	0	0	0	0	0	0	0	0	0	0	0	0	0	0	0	0	0	0	0	0	0	0	0	0	0	0	0	0	0
121818	13:47:04	13:49:32	147484	5.0.10.0	4_exp_AWA_CON_EVA_AMP	23	Rpleas_acq	Oppo	Rpleas	Amasked	CS_A	2pleas	distractor1	CONbeforeEVA	acq_new_unple_masked	acq1_masked	1	11	0	0	300	300	0	0	806	46	0	1	0	0	0	1	blank2r.bmp	0	1	+	0	2	B2r.bmp	492	1	blank2r.bmp	786	1	B1r.bmp	786	1	blank2r.bmp	866	6	geizig	866	0	0	0	0	0	0	0	0	0	0	0	0	0	0	0	0	0	0	0	0	0	0	0	0	0	0	0	0	0	0	0	0	0
121818	13:47:04	13:49:35	149976	5.0.10.0	4_exp_AWA_CON_EVA_AMP	23	Rpleas_acq	Oppo	Rpleas	Amasked	CS_A	2pleas	distractor1	CONbeforeEVA	acq_new_pleas_masked	acq1_masked	1	12	0	0	300	300	0	0	1003	50	0	1	0	0	0	1	blank2r.bmp	0	1	+	0	8	C4r.bmp	492	1	blank2r.bmp	786	2	B2r.bmp	786	1	blank2r.bmp	866	1	engagiert	866	0	0	0	0	0	0	0	0	0	0	0	0	0	0	0	0	0	0	0	0	0	0	0	0	0	0	0	0	0	0	0	0	0
121818	13:47:04	13:49:37	152269	5.0.10.0	4_exp_AWA_CON_EVA_AMP	23	Rpleas_acq	Oppo	Rpleas	Amasked	CS_A	2pleas	distractor1	CONbeforeEVA	acq_US_unple_masked	acq1_masked	1	13	0	0	300	300	0	0	809	46	0	1	0	0	0	1	blank2r.bmp	0	1	+	0	1	B1r.bmp	492	1	blank2r.bmp	786	1	CPLW	786	1	blank2r.bmp	866	5	krank	866	0	0	0	0	0	0	0	0	0	0	0	0	0	0	0	0	0	0	0	0	0	0	0	0	0	0	0	0	0	0	0	0	0
121818	13:47:04	13:49:39	154508	5.0.10.0	4_exp_AWA_CON_EVA_AMP	23	Rpleas_acq	Oppo	Rpleas	Amasked	CS_A	2pleas	distractor1	CONbeforeEVA	acq_new_unple_masked	acq1_masked	1	14	0	0	300	300	0	0	749	46	0	1	0	0	0	1	blank2r.bmp	0	1	+	0	6	C2r.bmp	492	1	blank2r.bmp	786	4	B4r.bmp	786	1	blank2r.bmp	866	3	gemein	866	0	0	0	0	0	0	0	0	0	0	0	0	0	0	0	0	0	0	0	0	0	0	0	0	0	0	0	0	0	0	0	0	0
121818	13:47:04	13:49:41	156640	5.0.10.0	4_exp_AWA_CON_EVA_AMP	23	Rpleas_acq	Oppo	Rpleas	Amasked	CS_A	2pleas	distractor1	CONbeforeEVA	acq_US_pleas_masked	acq1_masked	1	15	0	0	300	300	0	0	639	50	0	1	0	0	0	1	blank2r.bmp	0	1	+	0	5	C1r.bmp	492	1	blank2r.bmp	786	1	DHJF	786	1	blank2r.bmp	866	6	sonnig	866	0	0	0	0	0	0	0	0	0	0	0	0	0	0	0	0	0	0	0	0	0	0	0	0	0	0	0	0	0	0	0	0	0
121818	13:47:04	13:49:44	159066	5.0.10.0	4_exp_AWA_CON_EVA_AMP	23	Rpleas_acq	Oppo	Rpleas	Amasked	CS_A	2pleas	distractor1	CONbeforeEVA	acq_new_pleas_masked	acq1_masked	1	16	0	0	300	300	0	0	950	50	0	1	0	0	0	1	blank2r.bmp	0	1	+	0	3	B3r.bmp	492	1	blank2r.bmp	786	5	C1r.bmp	786	1	blank2r.bmp	866	4	kuss	866	0	0	0	0	0	0	0	0	0	0	0	0	0	0	0	0	0	0	0	0	0	0	0	0	0	0	0	0	0	0	0	0	0
121818	13:47:04	13:49:46	161598	5.0.10.0	4_exp_AWA_CON_EVA_AMP	23	Rpleas_acq	Oppo	Rpleas	Amasked	CS_A	2pleas	distractor1	CONbeforeEVA	acq_US_pleas_masked	acq1_masked	1	17	0	0	300	300	0	0	1064	50	0	1	0	0	0	1	blank2r.bmp	0	1	+	0	6	C2r.bmp	492	1	blank2r.bmp	786	1	DHJF	786	1	blank2r.bmp	866	4	anregung	866	0	0	0	0	0	0	0	0	0	0	0	0	0	0	0	0	0	0	0	0	0	0	0	0	0	0	0	0	0	0	0	0	0
121818	13:47:04	13:49:48	163797	5.0.10.0	4_exp_AWA_CON_EVA_AMP	23	Rpleas_acq	Oppo	Rpleas	Amasked	CS_A	2pleas	distractor1	CONbeforeEVA	acq_US_unple_masked	acq1_masked	1	18	0	0	300	300	0	0	712	46	0	1	0	0	0	1	blank2r.bmp	0	1	+	0	4	B4r.bmp	492	1	blank2r.bmp	786	1	CPLW	786	1	blank2r.bmp	866	3	verbissen	866	0	0	0	0	0	0	0	0	0	0	0	0	0	0	0	0	0	0	0	0	0	0	0	0	0	0	0	0	0	0	0	0	0
121818	13:47:04	13:49:51	166076	5.0.10.0	4_exp_AWA_CON_EVA_AMP	23	Rpleas_acq	Oppo	Rpleas	Amasked	CS_A	2pleas	distractor1	CONbeforeEVA	acq_US_unple_masked	acq1_masked	1	19	0	0	300	300	0	0	789	46	0	1	0	0	0	1	blank2r.bmp	0	1	+	0	5	C1r.bmp	492	1	blank2r.bmp	786	1	CPLW	786	1	blank2r.bmp	866	2	versagen	866	0	0	0	0	0	0	0	0	0	0	0	0	0	0	0	0	0	0	0	0	0	0	0	0	0	0	0	0	0	0	0	0	0
121818	13:47:04	13:49:53	168409	5.0.10.0	4_exp_AWA_CON_EVA_AMP	23	Rpleas_acq	Oppo	Rpleas	Amasked	CS_A	2pleas	distractor1	CONbeforeEVA	acq_new_unple_masked	acq1_masked	1	20	0	0	300	300	0	0	853	46	0	1	0	0	0	1	blank2r.bmp	0	1	+	0	7	C3r.bmp	492	1	blank2r.bmp	786	6	C2r.bmp	786	1	blank2r.bmp	866	5	bange	866	0	0	0	0	0	0	0	0	0	0	0	0	0	0	0	0	0	0	0	0	0	0	0	0	0	0	0	0	0	0	0	0	0
121818	13:47:04	13:49:56	170967	5.0.10.0	4_exp_AWA_CON_EVA_AMP	23	Rpleas_acq	Oppo	Rpleas	Amasked	CS_A	2pleas	distractor1	CONbeforeEVA	acq_new_unple_masked	acq1_masked	1	21	0	0	300	300	0	0	1080	46	0	1	0	0	0	1	blank2r.bmp	0	1	+	0	8	C4r.bmp	492	1	blank2r.bmp	786	7	C3r.bmp	786	1	blank2r.bmp	866	1	engstirnig	866	0	0	0	0	0	0	0	0	0	0	0	0	0	0	0	0	0	0	0	0	0	0	0	0	0	0	0	0	0	0	0	0	0
121818	13:47:04	13:49:58	173140	5.0.10.0	4_exp_AWA_CON_EVA_AMP	23	Rpleas_acq	Oppo	Rpleas	Amasked	CS_A	2pleas	distractor1	CONbeforeEVA	acq_new_pleas_masked	acq1_masked	1	22	0	0	300	300	0	0	699	50	0	1	0	0	0	1	blank2r.bmp	0	1	+	0	1	B1r.bmp	492	1	blank2r.bmp	786	3	B3r.bmp	786	1	blank2r.bmp	866	2	gütig	866	0	0	0	0	0	0	0	0	0	0	0	0	0	0	0	0	0	0	0	0	0	0	0	0	0	0	0	0	0	0	0	0	0
121818	13:47:04	13:50:01	176339	5.0.10.0	4_exp_AWA_CON_EVA_AMP	23	Rpleas_acq	Oppo	Rpleas	Amasked	CS_A	2pleas	distractor1	CONbeforeEVA	acq_new_pleas_masked	acq1_masked	1	23	0	0	300	300	0	0	1729	50	0	1	0	0	0	1	blank2r.bmp	0	1	+	0	3	B3r.bmp	492	1	blank2r.bmp	786	8	C4r.bmp	786	1	blank2r.bmp	866	5	besonnen	866	0	0	0	0	0	0	0	0	0	0	0	0	0	0	0	0	0	0	0	0	0	0	0	0	0	0	0	0	0	0	0	0	0
121818	13:47:04	13:50:03	178684	5.0.10.0	4_exp_AWA_CON_EVA_AMP	23	Rpleas_acq	Oppo	Rpleas	Amasked	CS_A	2pleas	distractor1	CONbeforeEVA	acq_US_pleas_masked	acq1_masked	1	24	0	0	300	300	0	0	854	50	0	1	0	0	0	1	blank2r.bmp	0	1	+	0	2	B2r.bmp	492	1	blank2r.bmp	786	1	DHJF	786	1	blank2r.bmp	866	5	kreativ	866	0	0	0	0	0	0	0	0	0	0	0	0	0	0	0	0	0	0	0	0	0	0	0	0	0	0	0	0	0	0	0	0	0
121818	13:47:04	13:50:06	180830	5.0.10.0	4_exp_AWA_CON_EVA_AMP	23	Rpleas_acq	Oppo	Rpleas	Amasked	CS_A	2pleas	distractor1	CONbeforeEVA	acq_new_unple_masked	acq1_masked	1	25	0	0	300	300	0	0	652	46	0	1	0	0	0	1	blank2r.bmp	0	1	+	0	6	C2r.bmp	492	1	blank2r.bmp	786	2	B2r.bmp	786	1	blank2r.bmp	866	2	gierig	866	0	0	0	0	0	0	0	0	0	0	0	0	0	0	0	0	0	0	0	0	0	0	0	0	0	0	0	0	0	0	0	0	0
121818	13:47:04	13:50:08	183122	5.0.10.0	4_exp_AWA_CON_EVA_AMP	23	Rpleas_acq	Oppo	Rpleas	Amasked	CS_A	2pleas	distractor1	CONbeforeEVA	acq_US_pleas_masked	acq1_masked	1	26	0	0	300	300	0	0	821	50	0	1	0	0	0	1	blank2r.bmp	0	1	+	0	3	B3r.bmp	492	1	blank2r.bmp	786	1	DHJF	786	1	blank2r.bmp	866	3	vergnügt	866	0	0	0	0	0	0	0	0	0	0	0	0	0	0	0	0	0	0	0	0	0	0	0	0	0	0	0	0	0	0	0	0	0
121818	13:47:04	13:50:10	185535	5.0.10.0	4_exp_AWA_CON_EVA_AMP	23	Rpleas_acq	Oppo	Rpleas	Amasked	CS_A	2pleas	distractor1	CONbeforeEVA	acq_new_pleas_masked	acq1_masked	1	27	0	0	300	300	0	0	941	50	0	1	0	0	0	1	blank2r.bmp	0	1	+	0	7	C3r.bmp	492	1	blank2r.bmp	786	4	B4r.bmp	786	1	blank2r.bmp	866	1	engagiert	866	0	0	0	0	0	0	0	0	0	0	0	0	0	0	0	0	0	0	0	0	0	0	0	0	0	0	0	0	0	0	0	0	0
121818	13:47:04	13:50:13	187840	5.0.10.0	4_exp_AWA_CON_EVA_AMP	23	Rpleas_acq	Oppo	Rpleas	Amasked	CS_A	2pleas	distractor1	CONbeforeEVA	acq_new_unple_masked	acq1_masked	1	28	0	0	300	300	0	0	817	46	0	1	0	0	0	1	blank2r.bmp	0	1	+	0	1	B1r.bmp	492	1	blank2r.bmp	786	5	C1r.bmp	786	1	blank2r.bmp	866	3	gemein	866	0	0	0	0	0	0	0	0	0	0	0	0	0	0	0	0	0	0	0	0	0	0	0	0	0	0	0	0	0	0	0	0	0
121818	13:47:04	13:50:15	190119	5.0.10.0	4_exp_AWA_CON_EVA_AMP	23	Rpleas_acq	Oppo	Rpleas	Amasked	CS_A	2pleas	distractor1	CONbeforeEVA	acq_US_unple_masked	acq1_masked	1	29	0	0	300	300	0	0	797	46	0	1	0	0	0	1	blank2r.bmp	0	1	+	0	5	C1r.bmp	492	1	blank2r.bmp	786	1	CPLW	786	1	blank2r.bmp	866	4	ausrottung	866	0	0	0	0	0	0	0	0	0	0	0	0	0	0	0	0	0	0	0	0	0	0	0	0	0	0	0	0	0	0	0	0	0
121818	13:47:04	13:50:17	192612	5.0.10.0	4_exp_AWA_CON_EVA_AMP	23	Rpleas_acq	Oppo	Rpleas	Amasked	CS_A	2pleas	distractor1	CONbeforeEVA	acq_new_pleas_masked	acq1_masked	1	30	0	0	300	300	0	0	1010	50	0	1	0	0	0	1	blank2r.bmp	0	1	+	0	2	B2r.bmp	492	1	blank2r.bmp	786	1	B1r.bmp	786	1	blank2r.bmp	866	6	gesittet	866	0	0	0	0	0	0	0	0	0	0	0	0	0	0	0	0	0	0	0	0	0	0	0	0	0	0	0	0	0	0	0	0	0
121818	13:47:04	13:50:20	194837	5.0.10.0	4_exp_AWA_CON_EVA_AMP	23	Rpleas_acq	Oppo	Rpleas	Amasked	CS_A	2pleas	distractor1	CONbeforeEVA	acq_US_pleas_masked	acq1_masked	1	31	0	0	300	300	0	0	739	50	0	1	0	0	0	1	blank2r.bmp	0	1	+	0	8	C4r.bmp	492	1	blank2r.bmp	786	1	DHJF	786	1	blank2r.bmp	866	1	träumen	866	0	0	0	0	0	0	0	0	0	0	0	0	0	0	0	0	0	0	0	0	0	0	0	0	0	0	0	0	0	0	0	0	0
121818	13:47:04	13:50:22	197010	5.0.10.0	4_exp_AWA_CON_EVA_AMP	23	Rpleas_acq	Oppo	Rpleas	Amasked	CS_A	2pleas	distractor1	CONbeforeEVA	acq_US_unple_masked	acq1_masked	1	32	0	0	300	300	0	0	696	46	0	1	0	0	0	1	blank2r.bmp	0	1	+	0	4	B4r.bmp	492	1	blank2r.bmp	786	1	CPLW	786	1	blank2r.bmp	866	1	töten	866	0	0	0	0	0	0	0	0	0	0	0	0	0	0	0	0	0	0	0	0	0	0	0	0	0	0	0	0	0	0	0	0	0
121818	13:47:04	13:50:24	199462	5.0.10.0	4_exp_AWA_CON_EVA_AMP	23	Rpleas_acq	Oppo	Rpleas	Amasked	CS_A	2pleas	distractor1	CONbeforeEVA	acq_new_unple_masked	acq1_masked	1	33	0	0	300	300	0	0	977	46	0	1	0	0	0	1	blank2r.bmp	0	1	+	0	6	C2r.bmp	492	1	blank2r.bmp	786	3	B3r.bmp	786	1	blank2r.bmp	866	1	engstirnig	866	0	0	0	0	0	0	0	0	0	0	0	0	0	0	0	0	0	0	0	0	0	0	0	0	0	0	0	0	0	0	0	0	0
121818	13:47:04	13:50:26	201688	5.0.10.0	4_exp_AWA_CON_EVA_AMP	23	Rpleas_acq	Oppo	Rpleas	Amasked	CS_A	2pleas	distractor1	CONbeforeEVA	acq_new_pleas_masked	acq1_masked	1	34	0	0	300	300	0	0	736	50	0	1	0	0	0	1	blank2r.bmp	0	1	+	0	4	B4r.bmp	492	1	blank2r.bmp	786	7	C3r.bmp	786	1	blank2r.bmp	866	5	besonnen	866	0	0	0	0	0	0	0	0	0	0	0	0	0	0	0	0	0	0	0	0	0	0	0	0	0	0	0	0	0	0	0	0	0
121818	13:47:04	13:50:29	203914	5.0.10.0	4_exp_AWA_CON_EVA_AMP	23	Rpleas_acq	Oppo	Rpleas	Amasked	CS_A	2pleas	distractor1	CONbeforeEVA	acq_US_unple_masked	acq1_masked	1	35	0	0	300	300	0	0	753	46	0	1	0	0	0	1	blank2r.bmp	0	1	+	0	7	C3r.bmp	492	1	blank2r.bmp	786	1	CPLW	786	1	blank2r.bmp	866	5	krank	866	0	0	0	0	0	0	0	0	0	0	0	0	0	0	0	0	0	0	0	0	0	0	0	0	0	0	0	0	0	0	0	0	0
121818	13:47:04	13:50:31	206019	5.0.10.0	4_exp_AWA_CON_EVA_AMP	23	Rpleas_acq	Oppo	Rpleas	Amasked	CS_A	2pleas	distractor1	CONbeforeEVA	acq_US_pleas_masked	acq1_masked	1	36	0	0	300	300	0	0	628	50	0	1	0	0	0	1	blank2r.bmp	0	1	+	0	1	B1r.bmp	492	1	blank2r.bmp	786	1	DHJF	786	1	blank2r.bmp	866	2	vertrauen	866	0	0	0	0	0	0	0	0	0	0	0	0	0	0	0	0	0	0	0	0	0	0	0	0	0	0	0	0	0	0	0	0	0
121818	13:47:04	13:51:04	239312	5.0.10.0	4_exp_AWA_CON_EVA_AMP	23	Rpleas_acq	Oppo	Rpleas	Amasked	CS_A	2pleas	distractor1	CONbeforeEVA	acq_US_pleas_masked	acq2_masked	2	1	480	0	300	300	0	0	957	46	0	0	0	0	0	1	blank2r.bmp	0	1	+	0	8	C4r.bmp	492	1	blank2r.bmp	786	1	DHJF	786	1	blank2r.bmp	866	4	anregung	866	1	FEHLER	2159	1	!	1319	1	!	-1	0	0	0	0	0	0	0	0	0	0	0	0	0	0	0	0	0	0	0	0	0	0	0	0
121818	13:47:04	13:51:07	242058	5.0.10.0	4_exp_AWA_CON_EVA_AMP	23	Rpleas_acq	Oppo	Rpleas	Amasked	CS_A	2pleas	distractor1	CONbeforeEVA	acq_US_unple_masked	acq2_masked	2	2	480	0	300	300	0	0	1194	46	0	1	0	0	0	1	blank2r.bmp	0	1	+	0	5	C1r.bmp	492	1	blank2r.bmp	786	1	CPLW	786	1	blank2r.bmp	866	6	sterben	866	1	!	1319	1	!	-1	0	0	0	0	0	0	0	0	0	0	0	0	0	0	0	0	0	0	0	0	0	0	0	0	0	0	0
121818	13:47:04	13:51:09	244577	5.0.10.0	4_exp_AWA_CON_EVA_AMP	23	Rpleas_acq	Oppo	Rpleas	Amasked	CS_A	2pleas	distractor1	CONbeforeEVA	acq_new_unple_masked	acq2_masked	2	3	480	0	300	300	0	0	739	46	0	1	0	0	0	1	blank2r.bmp	0	1	+	0	2	B2r.bmp	492	1	blank2r.bmp	786	6	C2r.bmp	786	1	blank2r.bmp	866	5	bange	866	1	!	1319	1	!	-1	0	0	0	0	0	0	0	0	0	0	0	0	0	0	0	0	0	0	0	0	0	0	0	0	0	0	0
121818	13:47:04	13:51:11	246762	5.0.10.0	4_exp_AWA_CON_EVA_AMP	23	Rpleas_acq	Oppo	Rpleas	Amasked	CS_A	2pleas	distractor1	CONbeforeEVA	acq_US_pleas_masked	acq2_masked	2	4	480	0	300	300	0	0	405	50	0	1	0	0	0	1	blank2r.bmp	0	1	+	0	3	B3r.bmp	492	1	blank2r.bmp	786	1	DHJF	786	1	blank2r.bmp	866	5	kreativ	866	1	!	-1	1	!	-1	0	0	0	0	0	0	0	0	0	0	0	0	0	0	0	0	0	0	0	0	0	0	0	0	0	0	0
121818	13:47:04	13:51:14	249255	5.0.10.0	4_exp_AWA_CON_EVA_AMP	23	Rpleas_acq	Oppo	Rpleas	Amasked	CS_A	2pleas	distractor1	CONbeforeEVA	acq_US_pleas_masked	acq2_masked	2	5	480	0	300	300	0	0	714	50	0	1	0	0	0	1	blank2r.bmp	0	1	+	0	2	B2r.bmp	492	1	blank2r.bmp	786	1	DHJF	786	1	blank2r.bmp	866	6	sonnig	866	1	!	1319	1	!	-1	0	0	0	0	0	0	0	0	0	0	0	0	0	0	0	0	0	0	0	0	0	0	0	0	0	0	0
121818	13:47:04	13:51:16	251707	5.0.10.0	4_exp_AWA_CON_EVA_AMP	23	Rpleas_acq	Oppo	Rpleas	Amasked	CS_A	2pleas	distractor1	CONbeforeEVA	acq_new_pleas_masked	acq2_masked	2	6	480	0	300	300	0	0	672	50	0	1	0	0	0	1	blank2r.bmp	0	1	+	0	6	C2r.bmp	492	1	blank2r.bmp	786	5	C1r.bmp	786	1	blank2r.bmp	866	3	genießen	866	1	!	1319	1	!	-1	0	0	0	0	0	0	0	0	0	0	0	0	0	0	0	0	0	0	0	0	0	0	0	0	0	0	0
121818	13:47:04	13:51:19	254106	5.0.10.0	4_exp_AWA_CON_EVA_AMP	23	Rpleas_acq	Oppo	Rpleas	Amasked	CS_A	2pleas	distractor1	CONbeforeEVA	acq_new_unple_masked	acq2_masked	2	7	480	0	300	300	0	0	623	46	0	1	0	0	0	1	blank2r.bmp	0	1	+	0	7	C3r.bmp	492	1	blank2r.bmp	786	2	B2r.bmp	786	1	blank2r.bmp	866	4	krise	866	1	!	1319	1	!	-1	0	0	0	0	0	0	0	0	0	0	0	0	0	0	0	0	0	0	0	0	0	0	0	0	0	0	0
121818	13:47:04	13:51:21	256492	5.0.10.0	4_exp_AWA_CON_EVA_AMP	23	Rpleas_acq	Oppo	Rpleas	Amasked	CS_A	2pleas	distractor1	CONbeforeEVA	acq_US_unple_masked	acq2_masked	2	8	480	0	300	300	0	0	600	46	0	1	0	0	0	1	blank2r.bmp	0	1	+	0	5	C1r.bmp	492	1	blank2r.bmp	786	1	CPLW	786	1	blank2r.bmp	866	2	versagen	866	1	!	1319	1	!	-1	0	0	0	0	0	0	0	0	0	0	0	0	0	0	0	0	0	0	0	0	0	0	0	0	0	0	0
121818	13:47:04	13:51:24	258851	5.0.10.0	4_exp_AWA_CON_EVA_AMP	23	Rpleas_acq	Oppo	Rpleas	Amasked	CS_A	2pleas	distractor1	CONbeforeEVA	acq_US_unple_masked	acq2_masked	2	9	480	0	300	300	0	0	574	46	0	1	0	0	0	1	blank2r.bmp	0	1	+	0	8	C4r.bmp	492	1	blank2r.bmp	786	1	CPLW	786	1	blank2r.bmp	866	3	verbissen	866	1	!	1319	1	!	-1	0	0	0	0	0	0	0	0	0	0	0	0	0	0	0	0	0	0	0	0	0	0	0	0	0	0	0
121818	13:47:04	13:51:26	261223	5.0.10.0	4_exp_AWA_CON_EVA_AMP	23	Rpleas_acq	Oppo	Rpleas	Amasked	CS_A	2pleas	distractor1	CONbeforeEVA	acq_new_pleas_masked	acq2_masked	2	10	480	0	300	300	0	0	592	50	0	1	0	0	0	1	blank2r.bmp	0	1	+	0	4	B4r.bmp	492	1	blank2r.bmp	786	1	B1r.bmp	786	1	blank2r.bmp	866	2	gütig	866	1	!	1319	1	!	-1	0	0	0	0	0	0	0	0	0	0	0	0	0	0	0	0	0	0	0	0	0	0	0	0	0	0	0
121818	13:47:04	13:51:28	263622	5.0.10.0	4_exp_AWA_CON_EVA_AMP	23	Rpleas_acq	Oppo	Rpleas	Amasked	CS_A	2pleas	distractor1	CONbeforeEVA	acq_new_pleas_masked	acq2_masked	2	11	480	0	300	300	0	0	618	50	0	1	0	0	0	1	blank2r.bmp	0	1	+	0	1	B1r.bmp	492	1	blank2r.bmp	786	8	C4r.bmp	786	1	blank2r.bmp	866	4	kuss	866	1	!	1319	1	!	-1	0	0	0	0	0	0	0	0	0	0	0	0	0	0	0	0	0	0	0	0	0	0	0	0	0	0	0
121818	13:47:04	13:51:31	265994	5.0.10.0	4_exp_AWA_CON_EVA_AMP	23	Rpleas_acq	Oppo	Rpleas	Amasked	CS_A	2pleas	distractor1	CONbeforeEVA	acq_new_unple_masked	acq2_masked	2	12	480	0	300	300	0	0	597	46	0	1	0	0	0	1	blank2r.bmp	0	1	+	0	3	B3r.bmp	492	1	blank2r.bmp	786	4	B4r.bmp	786	1	blank2r.bmp	866	6	geizig	866	1	!	1319	1	!	-1	0	0	0	0	0	0	0	0	0	0	0	0	0	0	0	0	0	0	0	0	0	0	0	0	0	0	0
121818	13:47:04	13:51:33	268460	5.0.10.0	4_exp_AWA_CON_EVA_AMP	23	Rpleas_acq	Oppo	Rpleas	Amasked	CS_A	2pleas	distractor1	CONbeforeEVA	acq_US_unple_masked	acq2_masked	2	13	480	0	300	300	0	0	683	46	0	1	0	0	0	1	blank2r.bmp	0	1	+	0	7	C3r.bmp	492	1	blank2r.bmp	786	1	CPLW	786	1	blank2r.bmp	866	4	ausrottung	866	1	!	1319	1	!	-1	0	0	0	0	0	0	0	0	0	0	0	0	0	0	0	0	0	0	0	0	0	0	0	0	0	0	0
121818	13:47:04	13:51:36	270992	5.0.10.0	4_exp_AWA_CON_EVA_AMP	23	Rpleas_acq	Oppo	Rpleas	Amasked	CS_A	2pleas	distractor1	CONbeforeEVA	acq_new_unple_masked	acq2_masked	2	14	480	1	300	300	0	0	508	50	0	0	0	0	0	1	blank2r.bmp	0	1	+	0	8	C4r.bmp	492	1	blank2r.bmp	786	1	B1r.bmp	786	1	blank2r.bmp	866	6	geizig	866	1	FEHLER	1732	1	!	1319	1	!	1412	0	0	0	0	0	0	0	0	0	0	0	0	0	0	0	0	0	0	0	0	0	0	0	0
121818	13:47:04	13:51:38	273138	5.0.10.0	4_exp_AWA_CON_EVA_AMP	23	Rpleas_acq	Oppo	Rpleas	Amasked	CS_A	2pleas	distractor1	CONbeforeEVA	acq_new_unple_masked	acq2_masked	2	15	480	0	300	300	0	0	591	46	0	1	0	0	0	1	blank2r.bmp	0	1	+	0	5	C1r.bmp	492	1	blank2r.bmp	786	2	B2r.bmp	786	1	blank2r.bmp	866	1	engstirnig	866	1	!	1319	1	!	-1	0	0	0	0	0	0	0	0	0	0	0	0	0	0	0	0	0	0	0	0	0	0	0	0	0	0	0
121818	13:47:04	13:51:40	275404	5.0.10.0	4_exp_AWA_CON_EVA_AMP	23	Rpleas_acq	Oppo	Rpleas	Amasked	CS_A	2pleas	distractor1	CONbeforeEVA	acq_US_pleas_masked	acq2_masked	2	16	480	1	300	300	0	0	454	50	0	1	0	0	0	1	blank2r.bmp	0	1	+	0	2	B2r.bmp	492	1	blank2r.bmp	786	1	DHJF	786	1	blank2r.bmp	866	1	träumen	866	1	!	1319	1	!	1359	0	0	0	0	0	0	0	0	0	0	0	0	0	0	0	0	0	0	0	0	0	0	0	0	0	0	0
121818	13:47:04	13:51:42	277496	5.0.10.0	4_exp_AWA_CON_EVA_AMP	23	Rpleas_acq	Oppo	Rpleas	Amasked	CS_A	2pleas	distractor1	CONbeforeEVA	acq_US_unple_masked	acq2_masked	2	17	480	0	300	300	0	0	330	46	0	1	0	0	0	1	blank2r.bmp	0	1	+	0	1	B1r.bmp	492	1	blank2r.bmp	786	1	CPLW	786	1	blank2r.bmp	866	1	töten	866	1	!	-1	1	!	-1	0	0	0	0	0	0	0	0	0	0	0	0	0	0	0	0	0	0	0	0	0	0	0	0	0	0	0
121818	13:47:04	13:51:45	279908	5.0.10.0	4_exp_AWA_CON_EVA_AMP	23	Rpleas_acq	Oppo	Rpleas	Amasked	CS_A	2pleas	distractor1	CONbeforeEVA	acq_new_unple_masked	acq2_masked	2	18	480	0	300	300	0	0	403	50	0	0	0	0	0	1	blank2r.bmp	0	1	+	0	4	B4r.bmp	492	1	blank2r.bmp	786	6	C2r.bmp	786	1	blank2r.bmp	866	4	krise	866	1	FEHLER	1612	1	!	-1	1	!	-1	0	0	0	0	0	0	0	0	0	0	0	0	0	0	0	0	0	0	0	0	0	0	0	0
121818	13:47:04	13:51:47	282321	5.0.10.0	4_exp_AWA_CON_EVA_AMP	23	Rpleas_acq	Oppo	Rpleas	Amasked	CS_A	2pleas	distractor1	CONbeforeEVA	acq_US_pleas_masked	acq2_masked	2	19	480	0	300	300	0	0	622	46	0	0	0	0	0	1	blank2r.bmp	0	1	+	0	6	C2r.bmp	492	1	blank2r.bmp	786	1	DHJF	786	1	blank2r.bmp	866	3	vergnügt	866	1	FEHLER	1825	1	!	1319	1	!	-1	0	0	0	0	0	0	0	0	0	0	0	0	0	0	0	0	0	0	0	0	0	0	0	0
121818	13:47:04	13:51:49	284493	5.0.10.0	4_exp_AWA_CON_EVA_AMP	23	Rpleas_acq	Oppo	Rpleas	Amasked	CS_A	2pleas	distractor1	CONbeforeEVA	acq_US_unple_masked	acq2_masked	2	20	480	0	300	300	0	0	614	46	0	1	0	0	0	1	blank2r.bmp	0	1	+	0	3	B3r.bmp	492	1	blank2r.bmp	786	1	CPLW	786	1	blank2r.bmp	866	2	versagen	866	1	!	1319	1	!	-1	0	0	0	0	0	0	0	0	0	0	0	0	0	0	0	0	0	0	0	0	0	0	0	0	0	0	0
121818	13:47:04	13:51:52	286852	5.0.10.0	4_exp_AWA_CON_EVA_AMP	23	Rpleas_acq	Oppo	Rpleas	Amasked	CS_A	2pleas	distractor1	CONbeforeEVA	acq_new_pleas_masked	acq2_masked	2	21	480	0	300	300	0	0	585	50	0	1	0	0	0	1	blank2r.bmp	0	1	+	0	1	B1r.bmp	492	1	blank2r.bmp	786	4	B4r.bmp	786	1	blank2r.bmp	866	4	kuss	866	1	!	1319	1	!	-1	0	0	0	0	0	0	0	0	0	0	0	0	0	0	0	0	0	0	0	0	0	0	0	0	0	0	0
121818	13:47:04	13:51:54	289264	5.0.10.0	4_exp_AWA_CON_EVA_AMP	23	Rpleas_acq	Oppo	Rpleas	Amasked	CS_A	2pleas	distractor1	CONbeforeEVA	acq_new_pleas_masked	acq2_masked	2	22	480	0	300	300	0	0	628	50	0	1	0	0	0	1	blank2r.bmp	0	1	+	0	3	B3r.bmp	492	1	blank2r.bmp	786	8	C4r.bmp	786	1	blank2r.bmp	866	6	gesittet	866	1	!	1319	1	!	-1	0	0	0	0	0	0	0	0	0	0	0	0	0	0	0	0	0	0	0	0	0	0	0	0	0	0	0
121818	13:47:04	13:51:56	291557	5.0.10.0	4_exp_AWA_CON_EVA_AMP	23	Rpleas_acq	Oppo	Rpleas	Amasked	CS_A	2pleas	distractor1	CONbeforeEVA	acq_new_pleas_masked	acq2_masked	2	23	480	1	300	300	0	0	489	50	0	1	0	0	0	1	blank2r.bmp	0	1	+	0	8	C4r.bmp	492	1	blank2r.bmp	786	7	C3r.bmp	786	1	blank2r.bmp	866	5	besonnen	866	1	!	1319	1	!	1386	0	0	0	0	0	0	0	0	0	0	0	0	0	0	0	0	0	0	0	0	0	0	0	0	0	0	0
121818	13:47:04	13:51:59	293876	5.0.10.0	4_exp_AWA_CON_EVA_AMP	23	Rpleas_acq	Oppo	Rpleas	Amasked	CS_A	2pleas	distractor1	CONbeforeEVA	acq_US_pleas_masked	acq2_masked	2	24	480	1	300	300	0	0	523	50	0	1	0	0	0	1	blank2r.bmp	0	1	+	0	5	C1r.bmp	492	1	blank2r.bmp	786	1	DHJF	786	1	blank2r.bmp	866	4	anregung	866	1	!	1319	1	!	1426	0	0	0	0	0	0	0	0	0	0	0	0	0	0	0	0	0	0	0	0	0	0	0	0	0	0	0
121818	13:47:04	13:52:01	296142	5.0.10.0	4_exp_AWA_CON_EVA_AMP	23	Rpleas_acq	Oppo	Rpleas	Amasked	CS_A	2pleas	distractor1	CONbeforeEVA	acq_new_unple_masked	acq2_masked	2	25	480	1	300	300	0	0	461	46	0	1	0	0	0	1	blank2r.bmp	0	1	+	0	2	B2r.bmp	492	1	blank2r.bmp	786	5	C1r.bmp	786	1	blank2r.bmp	866	3	gemein	866	1	!	1319	1	!	1359	0	0	0	0	0	0	0	0	0	0	0	0	0	0	0	0	0	0	0	0	0	0	0	0	0	0	0
121818	13:47:04	13:52:03	298621	5.0.10.0	4_exp_AWA_CON_EVA_AMP	23	Rpleas_acq	Oppo	Rpleas	Amasked	CS_A	2pleas	distractor1	CONbeforeEVA	acq_US_unple_masked	acq2_masked	2	26	480	1	300	300	0	0	477	50	0	0	0	0	0	1	blank2r.bmp	0	1	+	0	6	C2r.bmp	492	1	blank2r.bmp	786	1	CPLW	786	1	blank2r.bmp	866	3	verbissen	866	1	FEHLER	1692	1	!	1319	1	!	1372	0	0	0	0	0	0	0	0	0	0	0	0	0	0	0	0	0	0	0	0	0	0	0	0
121818	13:47:04	13:52:05	300740	5.0.10.0	4_exp_AWA_CON_EVA_AMP	23	Rpleas_acq	Oppo	Rpleas	Amasked	CS_A	2pleas	distractor1	CONbeforeEVA	acq_US_unple_masked	acq2_masked	2	27	480	0	300	300	0	0	568	46	0	1	0	0	0	1	blank2r.bmp	0	1	+	0	4	B4r.bmp	492	1	blank2r.bmp	786	1	CPLW	786	1	blank2r.bmp	866	6	sterben	866	1	!	1319	1	!	-1	0	0	0	0	0	0	0	0	0	0	0	0	0	0	0	0	0	0	0	0	0	0	0	0	0	0	0
121818	13:47:04	13:52:08	303045	5.0.10.0	4_exp_AWA_CON_EVA_AMP	23	Rpleas_acq	Oppo	Rpleas	Amasked	CS_A	2pleas	distractor1	CONbeforeEVA	acq_new_pleas_masked	acq2_masked	2	28	480	1	300	300	0	0	494	50	0	1	0	0	0	1	blank2r.bmp	0	1	+	0	7	C3r.bmp	492	1	blank2r.bmp	786	3	B3r.bmp	786	1	blank2r.bmp	866	1	engagiert	866	1	!	1319	1	!	1399	0	0	0	0	0	0	0	0	0	0	0	0	0	0	0	0	0	0	0	0	0	0	0	0	0	0	0
121818	13:47:04	13:52:10	305378	5.0.10.0	4_exp_AWA_CON_EVA_AMP	23	Rpleas_acq	Oppo	Rpleas	Amasked	CS_A	2pleas	distractor1	CONbeforeEVA	acq_new_unple_masked	acq2_masked	2	29	480	0	300	300	0	0	559	46	0	1	0	0	0	1	blank2r.bmp	0	1	+	0	5	C1r.bmp	492	1	blank2r.bmp	786	4	B4r.bmp	786	1	blank2r.bmp	866	2	gierig	866	1	!	1319	1	!	-1	0	0	0	0	0	0	0	0	0	0	0	0	0	0	0	0	0	0	0	0	0	0	0	0	0	0	0
121818	13:47:04	13:52:12	307670	5.0.10.0	4_exp_AWA_CON_EVA_AMP	23	Rpleas_acq	Oppo	Rpleas	Amasked	CS_A	2pleas	distractor1	CONbeforeEVA	acq_US_pleas_masked	acq2_masked	2	30	480	1	300	300	0	0	487	50	0	1	0	0	0	1	blank2r.bmp	0	1	+	0	3	B3r.bmp	492	1	blank2r.bmp	786	1	DHJF	786	1	blank2r.bmp	866	6	sonnig	866	1	!	1319	1	!	1386	0	0	0	0	0	0	0	0	0	0	0	0	0	0	0	0	0	0	0	0	0	0	0	0	0	0	0
121818	13:47:04	13:52:15	309949	5.0.10.0	4_exp_AWA_CON_EVA_AMP	23	Rpleas_acq	Oppo	Rpleas	Amasked	CS_A	2pleas	distractor1	CONbeforeEVA	acq_new_unple_masked	acq2_masked	2	31	480	1	300	300	0	0	489	46	0	1	0	0	0	1	blank2r.bmp	0	1	+	0	8	C4r.bmp	492	1	blank2r.bmp	786	1	B1r.bmp	786	1	blank2r.bmp	866	5	bange	866	1	!	1319	1	!	1386	0	0	0	0	0	0	0	0	0	0	0	0	0	0	0	0	0	0	0	0	0	0	0	0	0	0	0
121818	13:47:04	13:52:17	312255	5.0.10.0	4_exp_AWA_CON_EVA_AMP	23	Rpleas_acq	Oppo	Rpleas	Amasked	CS_A	2pleas	distractor1	CONbeforeEVA	acq_US_unple_masked	acq2_masked	2	32	480	1	300	300	0	0	510	46	0	1	0	0	0	1	blank2r.bmp	0	1	+	0	2	B2r.bmp	492	1	blank2r.bmp	786	1	CPLW	786	1	blank2r.bmp	866	5	krank	866	1	!	1319	1	!	1412	0	0	0	0	0	0	0	0	0	0	0	0	0	0	0	0	0	0	0	0	0	0	0	0	0	0	0
121818	13:47:04	13:52:19	314481	5.0.10.0	4_exp_AWA_CON_EVA_AMP	23	Rpleas_acq	Oppo	Rpleas	Amasked	CS_A	2pleas	distractor1	CONbeforeEVA	acq_new_pleas_masked	acq2_masked	2	33	480	1	300	300	0	0	435	50	0	1	0	0	0	1	blank2r.bmp	0	1	+	0	7	C3r.bmp	492	1	blank2r.bmp	786	8	C4r.bmp	786	1	blank2r.bmp	866	2	gütig	866	1	!	1319	1	!	1332	0	0	0	0	0	0	0	0	0	0	0	0	0	0	0	0	0	0	0	0	0	0	0	0	0	0	0
121818	13:47:04	13:52:22	316826	5.0.10.0	4_exp_AWA_CON_EVA_AMP	23	Rpleas_acq	Oppo	Rpleas	Amasked	CS_A	2pleas	distractor1	CONbeforeEVA	acq_US_pleas_masked	acq2_masked	2	34	480	1	300	300	0	0	546	50	0	1	0	0	0	1	blank2r.bmp	0	1	+	0	6	C2r.bmp	492	1	blank2r.bmp	786	1	DHJF	786	1	blank2r.bmp	866	5	kreativ	866	1	!	1319	1	!	1452	0	0	0	0	0	0	0	0	0	0	0	0	0	0	0	0	0	0	0	0	0	0	0	0	0	0	0
121818	13:47:04	13:52:24	319185	5.0.10.0	4_exp_AWA_CON_EVA_AMP	23	Rpleas_acq	Oppo	Rpleas	Amasked	CS_A	2pleas	distractor1	CONbeforeEVA	acq_new_pleas_masked	acq2_masked	2	35	480	0	300	300	0	0	363	46	0	0	0	0	0	1	blank2r.bmp	0	1	+	0	4	B4r.bmp	492	1	blank2r.bmp	786	7	C3r.bmp	786	1	blank2r.bmp	866	3	genießen	866	1	FEHLER	1572	1	!	-1	1	!	-1	0	0	0	0	0	0	0	0	0	0	0	0	0	0	0	0	0	0	0	0	0	0	0	0
121818	13:47:04	13:52:26	321251	5.0.10.0	4_exp_AWA_CON_EVA_AMP	23	Rpleas_acq	Oppo	Rpleas	Amasked	CS_A	2pleas	distractor1	CONbeforeEVA	acq_US_pleas_masked	acq2_masked	2	36	480	1	300	300	0	0	488	50	0	1	0	0	0	1	blank2r.bmp	0	1	+	0	1	B1r.bmp	492	1	blank2r.bmp	786	1	DHJF	786	1	blank2r.bmp	866	2	vertrauen	866	1	!	1319	1	!	1386	0	0	0	0	0	0	0	0	0	0	0	0	0	0	0	0	0	0	0	0	0	0	0	0	0	0	0
121818	13:47:04	13:52:40	335712	5.0.10.0	4_exp_AWA_CON_EVA_AMP	23	Rpleas_acq	Oppo	Rpleas	Amasked	CS_A	2pleas	distractor1	CONbeforeEVA	acq_US_pleas_masked	acq3_masked	3	1	453	0	300	300	0	0	694	50	0	1	0	0	0	1	blank2r.bmp	0	1	+	0	6	C2r.bmp	492	1	blank2r.bmp	786	1	DHJF	786	1	blank2r.bmp	866	4	anregung	866	1	!	1292	1	!	-1	0	0	0	0	0	0	0	0	0	0	0	0	0	0	0	0	0	0	0	0	0	0	0	0	0	0	0
121818	13:47:04	13:52:43	337977	5.0.10.0	4_exp_AWA_CON_EVA_AMP	23	Rpleas_acq	Oppo	Rpleas	Amasked	CS_A	2pleas	distractor1	CONbeforeEVA	acq_US_pleas_masked	acq3_masked	3	2	453	1	300	300	0	0	453	50	0	1	0	0	0	1	blank2r.bmp	0	1	+	0	7	C3r.bmp	492	1	blank2r.bmp	786	1	DHJF	786	1	blank2r.bmp	866	2	vertrauen	866	1	!	1292	1	!	1359	0	0	0	0	0	0	0	0	0	0	0	0	0	0	0	0	0	0	0	0	0	0	0	0	0	0	0
121818	13:47:04	13:52:45	340310	5.0.10.0	4_exp_AWA_CON_EVA_AMP	23	Rpleas_acq	Oppo	Rpleas	Amasked	CS_A	2pleas	distractor1	CONbeforeEVA	acq_US_unple_masked	acq3_masked	3	3	453	0	300	300	0	0	551	46	0	1	0	0	0	1	blank2r.bmp	0	1	+	0	2	B2r.bmp	492	1	blank2r.bmp	786	1	CPLW	786	1	blank2r.bmp	866	4	ausrottung	866	1	!	1292	1	!	-1	0	0	0	0	0	0	0	0	0	0	0	0	0	0	0	0	0	0	0	0	0	0	0	0	0	0	0
121818	13:47:04	13:52:47	342615	5.0.10.0	4_exp_AWA_CON_EVA_AMP	23	Rpleas_acq	Oppo	Rpleas	Amasked	CS_A	2pleas	distractor1	CONbeforeEVA	acq_US_pleas_masked	acq3_masked	3	4	453	1	300	300	0	0	500	50	0	1	0	0	0	1	blank2r.bmp	0	1	+	0	3	B3r.bmp	492	1	blank2r.bmp	786	1	DHJF	786	1	blank2r.bmp	866	3	vergnügt	866	1	!	1292	1	!	1399	0	0	0	0	0	0	0	0	0	0	0	0	0	0	0	0	0	0	0	0	0	0	0	0	0	0	0
121818	13:47:04	13:52:50	344921	5.0.10.0	4_exp_AWA_CON_EVA_AMP	23	Rpleas_acq	Oppo	Rpleas	Amasked	CS_A	2pleas	distractor1	CONbeforeEVA	acq_US_pleas_masked	acq3_masked	3	5	453	0	300	300	0	0	532	50	0	1	0	0	0	1	blank2r.bmp	0	1	+	0	4	B4r.bmp	492	1	blank2r.bmp	786	1	DHJF	786	1	blank2r.bmp	866	6	sonnig	866	1	!	1292	1	!	-1	0	0	0	0	0	0	0	0	0	0	0	0	0	0	0	0	0	0	0	0	0	0	0	0	0	0	0
121818	13:47:04	13:52:52	347200	5.0.10.0	4_exp_AWA_CON_EVA_AMP	23	Rpleas_acq	Oppo	Rpleas	Amasked	CS_A	2pleas	distractor1	CONbeforeEVA	acq_US_pleas_masked	acq3_masked	3	6	453	1	300	300	0	0	457	50	0	1	0	0	0	1	blank2r.bmp	0	1	+	0	8	C4r.bmp	492	1	blank2r.bmp	786	1	DHJF	786	1	blank2r.bmp	866	5	kreativ	866	1	!	1292	1	!	1359	0	0	0	0	0	0	0	0	0	0	0	0	0	0	0	0	0	0	0	0	0	0	0	0	0	0	0
121818	13:47:04	13:52:54	349426	5.0.10.0	4_exp_AWA_CON_EVA_AMP	23	Rpleas_acq	Oppo	Rpleas	Amasked	CS_A	2pleas	distractor1	CONbeforeEVA	acq_US_unple_masked	acq3_masked	3	7	453	1	300	300	0	0	429	46	0	1	0	0	0	1	blank2r.bmp	0	1	+	0	1	B1r.bmp	492	1	blank2r.bmp	786	1	CPLW	786	1	blank2r.bmp	866	2	versagen	866	1	!	1292	1	!	1332	0	0	0	0	0	0	0	0	0	0	0	0	0	0	0	0	0	0	0	0	0	0	0	0	0	0	0
121818	13:47:04	13:52:56	351732	5.0.10.0	4_exp_AWA_CON_EVA_AMP	23	Rpleas_acq	Oppo	Rpleas	Amasked	CS_A	2pleas	distractor1	CONbeforeEVA	acq_US_unple_masked	acq3_masked	3	8	453	0	300	300	0	0	532	46	0	1	0	0	0	1	blank2r.bmp	0	1	+	0	5	C1r.bmp	492	1	blank2r.bmp	786	1	CPLW	786	1	blank2r.bmp	866	3	verbissen	866	1	!	1292	1	!	-1	0	0	0	0	0	0	0	0	0	0	0	0	0	0	0	0	0	0	0	0	0	0	0	0	0	0	0
121818	13:47:04	13:52:59	354051	5.0.10.0	4_exp_AWA_CON_EVA_AMP	23	Rpleas_acq	Oppo	Rpleas	Amasked	CS_A	2pleas	distractor1	CONbeforeEVA	acq_US_unple_masked	acq3_masked	3	9	453	0	300	300	0	0	532	46	0	1	0	0	0	1	blank2r.bmp	0	1	+	0	7	C3r.bmp	492	1	blank2r.bmp	786	1	CPLW	786	1	blank2r.bmp	866	5	krank	866	1	!	1292	1	!	-1	0	0	0	0	0	0	0	0	0	0	0	0	0	0	0	0	0	0	0	0	0	0	0	0	0	0	0
121818	13:47:04	13:53:01	356356	5.0.10.0	4_exp_AWA_CON_EVA_AMP	23	Rpleas_acq	Oppo	Rpleas	Amasked	CS_A	2pleas	distractor1	CONbeforeEVA	acq_US_unple_masked	acq3_masked	3	10	453	1	300	300	0	0	497	46	0	1	0	0	0	1	blank2r.bmp	0	1	+	0	2	B2r.bmp	492	1	blank2r.bmp	786	1	CPLW	786	1	blank2r.bmp	866	6	sterben	866	1	!	1292	1	!	1399	0	0	0	0	0	0	0	0	0	0	0	0	0	0	0	0	0	0	0	0	0	0	0	0	0	0	0
121818	13:47:04	13:53:03	358635	5.0.10.0	4_exp_AWA_CON_EVA_AMP	23	Rpleas_acq	Oppo	Rpleas	Amasked	CS_A	2pleas	distractor1	CONbeforeEVA	acq_US_unple_masked	acq3_masked	3	11	453	1	300	300	0	0	484	46	0	1	0	0	0	1	blank2r.bmp	0	1	+	0	5	C1r.bmp	492	1	blank2r.bmp	786	1	CPLW	786	1	blank2r.bmp	866	1	töten	866	1	!	1292	1	!	1386	0	0	0	0	0	0	0	0	0	0	0	0	0	0	0	0	0	0	0	0	0	0	0	0	0	0	0
121818	13:47:04	13:53:06	360874	5.0.10.0	4_exp_AWA_CON_EVA_AMP	23	Rpleas_acq	Oppo	Rpleas	Amasked	CS_A	2pleas	distractor1	CONbeforeEVA	acq_US_pleas_masked	acq3_masked	3	12	453	1	300	300	0	0	447	50	0	1	0	0	0	1	blank2r.bmp	0	1	+	0	1	B1r.bmp	492	1	blank2r.bmp	786	1	DHJF	786	1	blank2r.bmp	866	1	träumen	866	1	!	1292	1	!	1346	0	0	0	0	0	0	0	0	0	0	0	0	0	0	0	0	0	0	0	0	0	0	0	0	0	0	0
121818	13:47:04	13:53:08	363287	5.0.10.0	4_exp_AWA_CON_EVA_AMP	23	Rpleas_acq	Oppo	Rpleas	Amasked	CS_A	2pleas	distractor1	CONbeforeEVA	acq_US_unple_masked	acq3_masked	3	13	453	0	300	300	0	0	644	46	0	1	0	0	0	1	blank2r.bmp	0	1	+	0	8	C4r.bmp	492	1	blank2r.bmp	786	1	CPLW	786	1	blank2r.bmp	866	4	ausrottung	866	1	!	1292	1	!	-1	0	0	0	0	0	0	0	0	0	0	0	0	0	0	0	0	0	0	0	0	0	0	0	0	0	0	0
121818	13:47:04	13:53:10	365539	5.0.10.0	4_exp_AWA_CON_EVA_AMP	23	Rpleas_acq	Oppo	Rpleas	Amasked	CS_A	2pleas	distractor1	CONbeforeEVA	acq_US_unple_masked	acq3_masked	3	14	453	1	300	300	0	0	439	46	0	1	0	0	0	1	blank2r.bmp	0	1	+	0	6	C2r.bmp	492	1	blank2r.bmp	786	1	CPLW	786	1	blank2r.bmp	866	5	krank	866	1	!	1292	1	!	1346	0	0	0	0	0	0	0	0	0	0	0	0	0	0	0	0	0	0	0	0	0	0	0	0	0	0	0
121818	13:47:04	13:53:12	367805	5.0.10.0	4_exp_AWA_CON_EVA_AMP	23	Rpleas_acq	Oppo	Rpleas	Amasked	CS_A	2pleas	distractor1	CONbeforeEVA	acq_US_pleas_masked	acq3_masked	3	15	453	1	300	300	0	0	470	50	0	1	0	0	0	1	blank2r.bmp	0	1	+	0	4	B4r.bmp	492	1	blank2r.bmp	786	1	DHJF	786	1	blank2r.bmp	866	2	vertrauen	866	1	!	1292	1	!	1372	0	0	0	0	0	0	0	0	0	0	0	0	0	0	0	0	0	0	0	0	0	0	0	0	0	0	0
121818	13:47:04	13:53:15	370110	5.0.10.0	4_exp_AWA_CON_EVA_AMP	23	Rpleas_acq	Oppo	Rpleas	Amasked	CS_A	2pleas	distractor1	CONbeforeEVA	acq_US_pleas_masked	acq3_masked	3	16	453	1	300	300	0	0	500	50	0	1	0	0	0	1	blank2r.bmp	0	1	+	0	3	B3r.bmp	492	1	blank2r.bmp	786	1	DHJF	786	1	blank2r.bmp	866	1	träumen	866	1	!	1292	1	!	1399	0	0	0	0	0	0	0	0	0	0	0	0	0	0	0	0	0	0	0	0	0	0	0	0	0	0	0
121818	13:47:04	13:53:17	372443	5.0.10.0	4_exp_AWA_CON_EVA_AMP	23	Rpleas_acq	Oppo	Rpleas	Amasked	CS_A	2pleas	distractor1	CONbeforeEVA	acq_US_pleas_masked	acq3_masked	3	17	453	0	300	300	0	0	560	50	0	1	0	0	0	1	blank2r.bmp	0	1	+	0	3	B3r.bmp	492	1	blank2r.bmp	786	1	DHJF	786	1	blank2r.bmp	866	5	kreativ	866	1	!	1292	1	!	-1	0	0	0	0	0	0	0	0	0	0	0	0	0	0	0	0	0	0	0	0	0	0	0	0	0	0	0
121818	13:47:04	13:53:19	374735	5.0.10.0	4_exp_AWA_CON_EVA_AMP	23	Rpleas_acq	Oppo	Rpleas	Amasked	CS_A	2pleas	distractor1	CONbeforeEVA	acq_US_pleas_masked	acq3_masked	3	18	453	1	300	300	0	0	490	50	0	1	0	0	0	1	blank2r.bmp	0	1	+	0	5	C1r.bmp	492	1	blank2r.bmp	786	1	DHJF	786	1	blank2r.bmp	866	4	anregung	866	1	!	1292	1	!	1386	0	0	0	0	0	0	0	0	0	0	0	0	0	0	0	0	0	0	0	0	0	0	0	0	0	0	0
121818	13:47:04	13:53:22	377001	5.0.10.0	4_exp_AWA_CON_EVA_AMP	23	Rpleas_acq	Oppo	Rpleas	Amasked	CS_A	2pleas	distractor1	CONbeforeEVA	acq_US_pleas_masked	acq3_masked	3	19	453	1	300	300	0	0	471	50	0	1	0	0	0	1	blank2r.bmp	0	1	+	0	8	C4r.bmp	492	1	blank2r.bmp	786	1	DHJF	786	1	blank2r.bmp	866	3	vergnügt	866	1	!	1292	1	!	1372	0	0	0	0	0	0	0	0	0	0	0	0	0	0	0	0	0	0	0	0	0	0	0	0	0	0	0
121818	13:47:04	13:53:24	379240	5.0.10.0	4_exp_AWA_CON_EVA_AMP	23	Rpleas_acq	Oppo	Rpleas	Amasked	CS_A	2pleas	distractor1	CONbeforeEVA	acq_US_unple_masked	acq3_masked	3	20	453	1	300	300	0	0	441	46	0	1	0	0	0	1	blank2r.bmp	0	1	+	0	4	B4r.bmp	492	1	blank2r.bmp	786	1	CPLW	786	1	blank2r.bmp	866	3	verbissen	866	1	!	1292	1	!	1346	0	0	0	0	0	0	0	0	0	0	0	0	0	0	0	0	0	0	0	0	0	0	0	0	0	0	0
121818	13:47:04	13:53:26	381479	5.0.10.0	4_exp_AWA_CON_EVA_AMP	23	Rpleas_acq	Oppo	Rpleas	Amasked	CS_A	2pleas	distractor1	CONbeforeEVA	acq_US_pleas_masked	acq3_masked	3	21	453	1	300	300	0	0	447	50	0	1	0	0	0	1	blank2r.bmp	0	1	+	0	2	B2r.bmp	492	1	blank2r.bmp	786	1	DHJF	786	1	blank2r.bmp	866	6	sonnig	866	1	!	1292	1	!	1346	0	0	0	0	0	0	0	0	0	0	0	0	0	0	0	0	0	0	0	0	0	0	0	0	0	0	0
121818	13:47:04	13:53:28	383745	5.0.10.0	4_exp_AWA_CON_EVA_AMP	23	Rpleas_acq	Oppo	Rpleas	Amasked	CS_A	2pleas	distractor1	CONbeforeEVA	acq_US_unple_masked	acq3_masked	3	22	453	1	300	300	0	0	475	46	0	1	0	0	0	1	blank2r.bmp	0	1	+	0	6	C2r.bmp	492	1	blank2r.bmp	786	1	CPLW	786	1	blank2r.bmp	866	1	töten	866	1	!	1292	1	!	1372	0	0	0	0	0	0	0	0	0	0	0	0	0	0	0	0	0	0	0	0	0	0	0	0	0	0	0
121818	13:47:04	13:53:31	386064	5.0.10.0	4_exp_AWA_CON_EVA_AMP	23	Rpleas_acq	Oppo	Rpleas	Amasked	CS_A	2pleas	distractor1	CONbeforeEVA	acq_US_unple_masked	acq3_masked	3	23	453	0	300	300	0	0	546	46	0	1	0	0	0	1	blank2r.bmp	0	1	+	0	7	C3r.bmp	492	1	blank2r.bmp	786	1	CPLW	786	1	blank2r.bmp	866	2	versagen	866	1	!	1292	1	!	-1	0	0	0	0	0	0	0	0	0	0	0	0	0	0	0	0	0	0	0	0	0	0	0	0	0	0	0
121818	13:47:04	13:53:33	388609	5.0.10.0	4_exp_AWA_CON_EVA_AMP	23	Rpleas_acq	Oppo	Rpleas	Amasked	CS_A	2pleas	distractor1	CONbeforeEVA	acq_US_unple_masked	acq3_masked	3	24	453	0	300	300	0	0	555	50	0	0	0	0	0	1	blank2r.bmp	0	1	+	0	1	B1r.bmp	492	1	blank2r.bmp	786	1	CPLW	786	1	blank2r.bmp	866	6	sterben	866	1	FEHLER	1759	1	!	1292	1	!	-1	0	0	0	0	0	0	0	0	0	0	0	0	0	0	0	0	0	0	0	0	0	0	0	0
121818	13:47:04	13:53:35	390755	5.0.10.0	4_exp_AWA_CON_EVA_AMP	23	Rpleas_acq	Oppo	Rpleas	Amasked	CS_A	2pleas	distractor1	CONbeforeEVA	acq_US_unple_masked	acq3_masked	3	25	453	0	300	300	0	0	576	46	0	1	0	0	0	1	blank2r.bmp	0	1	+	0	4	B4r.bmp	492	1	blank2r.bmp	786	1	CPLW	786	1	blank2r.bmp	866	2	versagen	866	1	!	1292	1	!	-1	0	0	0	0	0	0	0	0	0	0	0	0	0	0	0	0	0	0	0	0	0	0	0	0	0	0	0
121818	13:47:04	13:53:38	393048	5.0.10.0	4_exp_AWA_CON_EVA_AMP	23	Rpleas_acq	Oppo	Rpleas	Amasked	CS_A	2pleas	distractor1	CONbeforeEVA	acq_US_pleas_masked	acq3_masked	3	26	453	1	300	300	0	0	488	50	0	1	0	0	0	1	blank2r.bmp	0	1	+	0	7	C3r.bmp	492	1	blank2r.bmp	786	1	DHJF	786	1	blank2r.bmp	866	3	vergnügt	866	1	!	1292	1	!	1386	0	0	0	0	0	0	0	0	0	0	0	0	0	0	0	0	0	0	0	0	0	0	0	0	0	0	0
121818	13:47:04	13:53:40	395340	5.0.10.0	4_exp_AWA_CON_EVA_AMP	23	Rpleas_acq	Oppo	Rpleas	Amasked	CS_A	2pleas	distractor1	CONbeforeEVA	acq_US_pleas_masked	acq3_masked	3	27	453	1	300	300	0	0	494	50	0	1	0	0	0	1	blank2r.bmp	0	1	+	0	3	B3r.bmp	492	1	blank2r.bmp	786	1	DHJF	786	1	blank2r.bmp	866	4	anregung	866	1	!	1292	1	!	1399	0	0	0	0	0	0	0	0	0	0	0	0	0	0	0	0	0	0	0	0	0	0	0	0	0	0	0
121818	13:47:04	13:53:42	397659	5.0.10.0	4_exp_AWA_CON_EVA_AMP	23	Rpleas_acq	Oppo	Rpleas	Amasked	CS_A	2pleas	distractor1	CONbeforeEVA	acq_US_pleas_masked	acq3_masked	3	28	453	0	300	300	0	0	545	50	0	1	0	0	0	1	blank2r.bmp	0	1	+	0	6	C2r.bmp	492	1	blank2r.bmp	786	1	DHJF	786	1	blank2r.bmp	866	6	sonnig	866	1	!	1292	1	!	-1	0	0	0	0	0	0	0	0	0	0	0	0	0	0	0	0	0	0	0	0	0	0	0	0	0	0	0
121818	13:47:04	13:53:45	399951	5.0.10.0	4_exp_AWA_CON_EVA_AMP	23	Rpleas_acq	Oppo	Rpleas	Amasked	CS_A	2pleas	distractor1	CONbeforeEVA	acq_US_unple_masked	acq3_masked	3	29	453	1	300	300	0	0	481	46	0	1	0	0	0	1	blank2r.bmp	0	1	+	0	1	B1r.bmp	492	1	blank2r.bmp	786	1	CPLW	786	1	blank2r.bmp	866	3	verbissen	866	1	!	1292	1	!	1386	0	0	0	0	0	0	0	0	0	0	0	0	0	0	0	0	0	0	0	0	0	0	0	0	0	0	0
121818	13:47:04	13:53:47	402217	5.0.10.0	4_exp_AWA_CON_EVA_AMP	23	Rpleas_acq	Oppo	Rpleas	Amasked	CS_A	2pleas	distractor1	CONbeforeEVA	acq_US_pleas_masked	acq3_masked	3	30	453	1	300	300	0	0	471	50	0	1	0	0	0	1	blank2r.bmp	0	1	+	0	5	C1r.bmp	492	1	blank2r.bmp	786	1	DHJF	786	1	blank2r.bmp	866	2	vertrauen	866	1	!	1292	1	!	1372	0	0	0	0	0	0	0	0	0	0	0	0	0	0	0	0	0	0	0	0	0	0	0	0	0	0	0
121818	13:47:04	13:53:49	404509	5.0.10.0	4_exp_AWA_CON_EVA_AMP	23	Rpleas_acq	Oppo	Rpleas	Amasked	CS_A	2pleas	distractor1	CONbeforeEVA	acq_US_unple_masked	acq3_masked	3	31	453	1	300	300	0	0	487	46	0	1	0	0	0	1	blank2r.bmp	0	1	+	0	8	C4r.bmp	492	1	blank2r.bmp	786	1	CPLW	786	1	blank2r.bmp	866	6	sterben	866	1	!	1292	1	!	1386	0	0	0	0	0	0	0	0	0	0	0	0	0	0	0	0	0	0	0	0	0	0	0	0	0	0	0
121818	13:47:04	13:53:52	406855	5.0.10.0	4_exp_AWA_CON_EVA_AMP	23	Rpleas_acq	Oppo	Rpleas	Amasked	CS_A	2pleas	distractor1	CONbeforeEVA	acq_US_unple_masked	acq3_masked	3	32	453	0	300	300	0	0	567	46	0	1	0	0	0	1	blank2r.bmp	0	1	+	0	2	B2r.bmp	492	1	blank2r.bmp	786	1	CPLW	786	1	blank2r.bmp	866	1	töten	866	1	!	1292	1	!	-1	0	0	0	0	0	0	0	0	0	0	0	0	0	0	0	0	0	0	0	0	0	0	0	0	0	0	0
121818	13:47:04	13:53:54	409134	5.0.10.0	4_exp_AWA_CON_EVA_AMP	23	Rpleas_acq	Oppo	Rpleas	Amasked	CS_A	2pleas	distractor1	CONbeforeEVA	acq_US_unple_masked	acq3_masked	3	33	453	1	300	300	0	0	468	46	0	1	0	0	0	1	blank2r.bmp	0	1	+	0	3	B3r.bmp	492	1	blank2r.bmp	786	1	CPLW	786	1	blank2r.bmp	866	4	ausrottung	866	1	!	1292	1	!	1372	0	0	0	0	0	0	0	0	0	0	0	0	0	0	0	0	0	0	0	0	0	0	0	0	0	0	0
121818	13:47:04	13:53:56	411440	5.0.10.0	4_exp_AWA_CON_EVA_AMP	23	Rpleas_acq	Oppo	Rpleas	Amasked	CS_A	2pleas	distractor1	CONbeforeEVA	acq_US_pleas_masked	acq3_masked	3	34	453	1	300	300	0	0	507	50	0	1	0	0	0	1	blank2r.bmp	0	1	+	0	5	C1r.bmp	492	1	blank2r.bmp	786	1	DHJF	786	1	blank2r.bmp	866	1	träumen	866	1	!	1292	1	!	1412	0	0	0	0	0	0	0	0	0	0	0	0	0	0	0	0	0	0	0	0	0	0	0	0	0	0	0
121818	13:47:04	13:53:58	413706	5.0.10.0	4_exp_AWA_CON_EVA_AMP	23	Rpleas_acq	Oppo	Rpleas	Amasked	CS_A	2pleas	distractor1	CONbeforeEVA	acq_US_unple_masked	acq3_masked	3	35	453	1	300	300	0	0	479	46	0	1	0	0	0	1	blank2r.bmp	0	1	+	0	6	C2r.bmp	492	1	blank2r.bmp	786	1	CPLW	786	1	blank2r.bmp	866	5	krank	866	1	!	1292	1	!	1373	0	0	0	0	0	0	0	0	0	0	0	0	0	0	0	0	0	0	0	0	0	0	0	0	0	0	0
121818	13:47:04	13:54:01	415998	5.0.10.0	4_exp_AWA_CON_EVA_AMP	23	Rpleas_acq	Oppo	Rpleas	Amasked	CS_A	2pleas	distractor1	CONbeforeEVA	acq_US_pleas_masked	acq3_masked	3	36	453	1	300	300	0	0	498	50	0	1	0	0	0	1	blank2r.bmp	0	1	+	0	7	C3r.bmp	492	1	blank2r.bmp	786	1	DHJF	786	1	blank2r.bmp	866	5	kreativ	866	1	!	1292	1	!	1399	0	0	0	0	0	0	0	0	0	0	0	0	0	0	0	0	0	0	0	0	0	0	0	0	0	0	0
121818	13:47:04	13:54:12	427446	5.0.10.0	4_exp_AWA_CON_EVA_AMP	23	Rpleas_acq	Oppo	Rpleas	Amasked	CS_A	2pleas	distractor1	CONbeforeEVA	acq_US_unple_masked	acq45_masked	4	1	400	0	300	300	0	0	526	46	0	1	0	0	0	1	blank2r.bmp	0	1	+	0	1	B1r.bmp	492	1	blank2r.bmp	786	1	CPLW	786	1	blank2r.bmp	866	5	krank	866	1	!	1239	1	!	-1	0	0	0	0	0	0	0	0	0	0	0	0	0	0	0	0	0	0	0	0	0	0	0	0	0	0	0
121818	13:47:04	13:54:15	429885	5.0.10.0	4_exp_AWA_CON_EVA_AMP	23	Rpleas_acq	Oppo	Rpleas	Amasked	CS_A	2pleas	distractor1	CONbeforeEVA	acq_US_unple_masked	acq45_masked	4	2	400	0	300	300	0	0	652	46	0	1	0	0	0	1	blank2r.bmp	0	1	+	0	4	B4r.bmp	492	1	blank2r.bmp	786	1	CPLW	786	1	blank2r.bmp	866	2	versagen	866	1	!	1239	1	!	-1	0	0	0	0	0	0	0	0	0	0	0	0	0	0	0	0	0	0	0	0	0	0	0	0	0	0	0
121818	13:47:04	13:54:17	432151	5.0.10.0	4_exp_AWA_CON_EVA_AMP	23	Rpleas_acq	Oppo	Rpleas	Amasked	CS_A	2pleas	distractor1	CONbeforeEVA	acq_US_pleas_masked	acq45_masked	4	3	400	1	300	300	0	0	463	50	0	1	0	0	0	1	blank2r.bmp	0	1	+	0	2	B2r.bmp	492	1	blank2r.bmp	786	1	DHJF	786	1	blank2r.bmp	866	4	anregung	866	1	!	1239	1	!	1359	0	0	0	0	0	0	0	0	0	0	0	0	0	0	0	0	0	0	0	0	0	0	0	0	0	0	0
121818	13:47:04	13:54:19	434417	5.0.10.0	4_exp_AWA_CON_EVA_AMP	23	Rpleas_acq	Oppo	Rpleas	Amasked	CS_A	2pleas	distractor1	CONbeforeEVA	acq_US_unple_masked	acq45_masked	4	4	400	0	300	300	0	0	492	46	0	1	0	0	0	1	blank2r.bmp	0	1	+	0	8	C4r.bmp	492	1	blank2r.bmp	786	1	CPLW	786	1	blank2r.bmp	866	1	töten	866	1	!	1239	1	!	-1	0	0	0	0	0	0	0	0	0	0	0	0	0	0	0	0	0	0	0	0	0	0	0	0	0	0	0
121818	13:47:04	13:54:21	436709	5.0.10.0	4_exp_AWA_CON_EVA_AMP	23	Rpleas_acq	Oppo	Rpleas	Amasked	CS_A	2pleas	distractor1	CONbeforeEVA	acq_US_pleas_masked	acq45_masked	4	5	400	1	300	300	0	0	466	50	0	1	0	0	0	1	blank2r.bmp	0	1	+	0	3	B3r.bmp	492	1	blank2r.bmp	786	1	DHJF	786	1	blank2r.bmp	866	3	vergnügt	866	1	!	1239	1	!	1372	0	0	0	0	0	0	0	0	0	0	0	0	0	0	0	0	0	0	0	0	0	0	0	0	0	0	0
121818	13:47:04	13:54:24	438975	5.0.10.0	4_exp_AWA_CON_EVA_AMP	23	Rpleas_acq	Oppo	Rpleas	Amasked	CS_A	2pleas	distractor1	CONbeforeEVA	acq_US_pleas_masked	acq45_masked	4	6	400	1	300	300	0	0	458	50	0	1	0	0	0	1	blank2r.bmp	0	1	+	0	8	C4r.bmp	492	1	blank2r.bmp	786	1	DHJF	786	1	blank2r.bmp	866	5	kreativ	866	1	!	1239	1	!	1359	0	0	0	0	0	0	0	0	0	0	0	0	0	0	0	0	0	0	0	0	0	0	0	0	0	0	0
121818	13:47:04	13:54:26	441134	5.0.10.0	4_exp_AWA_CON_EVA_AMP	23	Rpleas_acq	Oppo	Rpleas	Amasked	CS_A	2pleas	distractor1	CONbeforeEVA	acq_US_unple_masked	acq45_masked	4	7	400	1	300	300	0	0	361	46	0	1	0	0	0	1	blank2r.bmp	0	1	+	0	5	C1r.bmp	492	1	blank2r.bmp	786	1	CPLW	786	1	blank2r.bmp	866	3	verbissen	866	1	!	1239	1	!	1266	0	0	0	0	0	0	0	0	0	0	0	0	0	0	0	0	0	0	0	0	0	0	0	0	0	0	0
121818	13:47:04	13:54:28	443386	5.0.10.0	4_exp_AWA_CON_EVA_AMP	23	Rpleas_acq	Oppo	Rpleas	Amasked	CS_A	2pleas	distractor1	CONbeforeEVA	acq_US_pleas_masked	acq45_masked	4	8	400	1	300	300	0	0	456	50	0	1	0	0	0	1	blank2r.bmp	0	1	+	0	6	C2r.bmp	492	1	blank2r.bmp	786	1	DHJF	786	1	blank2r.bmp	866	2	vertrauen	866	1	!	1239	1	!	1359	0	0	0	0	0	0	0	0	0	0	0	0	0	0	0	0	0	0	0	0	0	0	0	0	0	0	0
121818	13:47:04	13:54:30	445652	5.0.10.0	4_exp_AWA_CON_EVA_AMP	23	Rpleas_acq	Oppo	Rpleas	Amasked	CS_A	2pleas	distractor1	CONbeforeEVA	acq_US_unple_masked	acq45_masked	4	9	400	0	300	300	0	0	479	46	0	1	0	0	0	1	blank2r.bmp	0	1	+	0	1	B1r.bmp	492	1	blank2r.bmp	786	1	CPLW	786	1	blank2r.bmp	866	4	ausrottung	866	1	!	1239	1	!	-1	0	0	0	0	0	0	0	0	0	0	0	0	0	0	0	0	0	0	0	0	0	0	0	0	0	0	0
121818	13:47:04	13:54:33	447918	5.0.10.0	4_exp_AWA_CON_EVA_AMP	23	Rpleas_acq	Oppo	Rpleas	Amasked	CS_A	2pleas	distractor1	CONbeforeEVA	acq_US_unple_masked	acq45_masked	4	10	400	0	300	300	0	0	483	46	0	1	0	0	0	1	blank2r.bmp	0	1	+	0	2	B2r.bmp	492	1	blank2r.bmp	786	1	CPLW	786	1	blank2r.bmp	866	6	sterben	866	1	!	1239	1	!	-1	0	0	0	0	0	0	0	0	0	0	0	0	0	0	0	0	0	0	0	0	0	0	0	0	0	0	0
121818	13:47:04	13:54:35	450090	5.0.10.0	4_exp_AWA_CON_EVA_AMP	23	Rpleas_acq	Oppo	Rpleas	Amasked	CS_A	2pleas	distractor1	CONbeforeEVA	acq_US_pleas_masked	acq45_masked	4	11	400	1	300	300	0	0	359	50	0	1	0	0	0	1	blank2r.bmp	0	1	+	0	4	B4r.bmp	492	1	blank2r.bmp	786	1	DHJF	786	1	blank2r.bmp	866	1	träumen	866	1	!	1239	1	!	1266	0	0	0	0	0	0	0	0	0	0	0	0	0	0	0	0	0	0	0	0	0	0	0	0	0	0	0
121818	13:47:04	13:54:37	452276	5.0.10.0	4_exp_AWA_CON_EVA_AMP	23	Rpleas_acq	Oppo	Rpleas	Amasked	CS_A	2pleas	distractor1	CONbeforeEVA	acq_US_unple_masked	acq45_masked	4	12	400	1	300	300	0	0	393	46	0	1	0	0	0	1	blank2r.bmp	0	1	+	0	7	C3r.bmp	492	1	blank2r.bmp	786	1	CPLW	786	1	blank2r.bmp	866	3	verbissen	866	1	!	1239	1	!	1292	0	0	0	0	0	0	0	0	0	0	0	0	0	0	0	0	0	0	0	0	0	0	0	0	0	0	0
121818	13:47:04	13:54:39	454542	5.0.10.0	4_exp_AWA_CON_EVA_AMP	23	Rpleas_acq	Oppo	Rpleas	Amasked	CS_A	2pleas	distractor1	CONbeforeEVA	acq_US_unple_masked	acq45_masked	4	13	400	0	300	300	0	0	479	46	0	1	0	0	0	1	blank2r.bmp	0	1	+	0	5	C1r.bmp	492	1	blank2r.bmp	786	1	CPLW	786	1	blank2r.bmp	866	4	ausrottung	866	1	!	1239	1	!	-1	0	0	0	0	0	0	0	0	0	0	0	0	0	0	0	0	0	0	0	0	0	0	0	0	0	0	0
121818	13:47:04	13:54:42	456861	5.0.10.0	4_exp_AWA_CON_EVA_AMP	23	Rpleas_acq	Oppo	Rpleas	Amasked	CS_A	2pleas	distractor1	CONbeforeEVA	acq_US_unple_masked	acq45_masked	4	14	400	0	300	300	0	0	520	46	0	1	0	0	0	1	blank2r.bmp	0	1	+	0	7	C3r.bmp	492	1	blank2r.bmp	786	1	CPLW	786	1	blank2r.bmp	866	2	versagen	866	1	!	1239	1	!	-1	0	0	0	0	0	0	0	0	0	0	0	0	0	0	0	0	0	0	0	0	0	0	0	0	0	0	0
121818	13:47:04	13:54:44	459113	5.0.10.0	4_exp_AWA_CON_EVA_AMP	23	Rpleas_acq	Oppo	Rpleas	Amasked	CS_A	2pleas	distractor1	CONbeforeEVA	acq_US_pleas_masked	acq45_masked	4	15	400	1	300	300	0	0	441	50	0	1	0	0	0	1	blank2r.bmp	0	1	+	0	8	C4r.bmp	492	1	blank2r.bmp	786	1	DHJF	786	1	blank2r.bmp	866	6	sonnig	866	1	!	1239	1	!	1346	0	0	0	0	0	0	0	0	0	0	0	0	0	0	0	0	0	0	0	0	0	0	0	0	0	0	0
121818	13:47:04	13:54:46	461366	5.0.10.0	4_exp_AWA_CON_EVA_AMP	23	Rpleas_acq	Oppo	Rpleas	Amasked	CS_A	2pleas	distractor1	CONbeforeEVA	acq_US_pleas_masked	acq45_masked	4	16	400	0	300	300	0	0	479	50	0	1	0	0	0	1	blank2r.bmp	0	1	+	0	4	B4r.bmp	492	1	blank2r.bmp	786	1	DHJF	786	1	blank2r.bmp	866	6	sonnig	866	1	!	1239	1	!	-1	0	0	0	0	0	0	0	0	0	0	0	0	0	0	0	0	0	0	0	0	0	0	0	0	0	0	0
121818	13:47:04	13:54:48	463618	5.0.10.0	4_exp_AWA_CON_EVA_AMP	23	Rpleas_acq	Oppo	Rpleas	Amasked	CS_A	2pleas	distractor1	CONbeforeEVA	acq_US_pleas_masked	acq45_masked	4	17	400	1	300	300	0	0	447	50	0	1	0	0	0	1	blank2r.bmp	0	1	+	0	3	B3r.bmp	492	1	blank2r.bmp	786	1	DHJF	786	1	blank2r.bmp	866	1	träumen	866	1	!	1239	1	!	1346	0	0	0	0	0	0	0	0	0	0	0	0	0	0	0	0	0	0	0	0	0	0	0	0	0	0	0
121818	13:47:04	13:54:51	465937	5.0.10.0	4_exp_AWA_CON_EVA_AMP	23	Rpleas_acq	Oppo	Rpleas	Amasked	CS_A	2pleas	distractor1	CONbeforeEVA	acq_US_pleas_masked	acq45_masked	4	18	400	0	300	300	0	0	539	46	0	0	0	0	0	1	blank2r.bmp	0	1	+	0	6	C2r.bmp	492	1	blank2r.bmp	786	1	DHJF	786	1	blank2r.bmp	866	4	anregung	866	1	!	1239	1	!	-1	0	0	0	0	0	0	0	0	0	0	0	0	0	0	0	0	0	0	0	0	0	0	0	0	0	0	0
121818	13:47:04	13:54:53	468203	5.0.10.0	4_exp_AWA_CON_EVA_AMP	23	Rpleas_acq	Oppo	Rpleas	Amasked	CS_A	2pleas	distractor1	CONbeforeEVA	acq_US_pleas_masked	acq45_masked	4	19	400	0	300	300	0	0	479	46	0	0	0	0	0	1	blank2r.bmp	0	1	+	0	2	B2r.bmp	492	1	blank2r.bmp	786	1	DHJF	786	1	blank2r.bmp	866	3	vergnügt	866	1	!	1239	1	!	-1	0	0	0	0	0	0	0	0	0	0	0	0	0	0	0	0	0	0	0	0	0	0	0	0	0	0	0
121818	13:47:04	13:54:55	470428	5.0.10.0	4_exp_AWA_CON_EVA_AMP	23	Rpleas_acq	Oppo	Rpleas	Amasked	CS_A	2pleas	distractor1	CONbeforeEVA	acq_US_pleas_masked	acq45_masked	4	20	400	1	300	300	0	0	423	50	0	1	0	0	0	1	blank2r.bmp	0	1	+	0	1	B1r.bmp	492	1	blank2r.bmp	786	1	DHJF	786	1	blank2r.bmp	866	5	kreativ	866	1	!	1239	1	!	1319	0	0	0	0	0	0	0	0	0	0	0	0	0	0	0	0	0	0	0	0	0	0	0	0	0	0	0
121818	13:47:04	13:54:57	472667	5.0.10.0	4_exp_AWA_CON_EVA_AMP	23	Rpleas_acq	Oppo	Rpleas	Amasked	CS_A	2pleas	distractor1	CONbeforeEVA	acq_US_pleas_masked	acq45_masked	4	21	400	1	300	300	0	0	439	50	0	1	0	0	0	1	blank2r.bmp	0	1	+	0	6	C2r.bmp	492	1	blank2r.bmp	786	1	DHJF	786	1	blank2r.bmp	866	2	vertrauen	866	1	!	1239	1	!	1346	0	0	0	0	0	0	0	0	0	0	0	0	0	0	0	0	0	0	0	0	0	0	0	0	0	0	0
121818	13:47:04	13:55:00	474920	5.0.10.0	4_exp_AWA_CON_EVA_AMP	23	Rpleas_acq	Oppo	Rpleas	Amasked	CS_A	2pleas	distractor1	CONbeforeEVA	acq_US_unple_masked	acq45_masked	4	22	400	1	300	300	0	0	448	46	0	1	0	0	0	1	blank2r.bmp	0	1	+	0	3	B3r.bmp	492	1	blank2r.bmp	786	1	CPLW	786	1	blank2r.bmp	866	1	töten	866	1	!	1239	1	!	1346	0	0	0	0	0	0	0	0	0	0	0	0	0	0	0	0	0	0	0	0	0	0	0	0	0	0	0
121818	13:47:04	13:55:02	477092	5.0.10.0	4_exp_AWA_CON_EVA_AMP	23	Rpleas_acq	Oppo	Rpleas	Amasked	CS_A	2pleas	distractor1	CONbeforeEVA	acq_US_unple_masked	acq45_masked	4	23	400	1	300	300	0	0	376	50	0	0	0	0	0	1	blank2r.bmp	0	1	+	0	7	C3r.bmp	492	1	blank2r.bmp	786	1	CPLW	786	1	blank2r.bmp	866	5	krank	866	1	!	1239	1	!	1279	0	0	0	0	0	0	0	0	0	0	0	0	0	0	0	0	0	0	0	0	0	0	0	0	0	0	0
121818	13:47:04	13:55:04	479345	5.0.10.0	4_exp_AWA_CON_EVA_AMP	23	Rpleas_acq	Oppo	Rpleas	Amasked	CS_A	2pleas	distractor1	CONbeforeEVA	acq_US_pleas_masked	acq45_masked	4	24	400	0	300	300	0	0	479	50	0	1	0	0	0	1	blank2r.bmp	0	1	+	0	8	C4r.bmp	492	1	blank2r.bmp	786	1	DHJF	786	1	blank2r.bmp	866	3	vergnügt	866	1	!	1239	1	!	-1	0	0	0	0	0	0	0	0	0	0	0	0	0	0	0	0	0	0	0	0	0	0	0	0	0	0	0
121818	13:47:04	13:55:06	481624	5.0.10.0	4_exp_AWA_CON_EVA_AMP	23	Rpleas_acq	Oppo	Rpleas	Amasked	CS_A	2pleas	distractor1	CONbeforeEVA	acq_US_unple_masked	acq45_masked	4	25	400	0	300	300	0	0	480	46	0	1	0	0	0	1	blank2r.bmp	0	1	+	0	4	B4r.bmp	492	1	blank2r.bmp	786	1	CPLW	786	1	blank2r.bmp	866	6	sterben	866	1	!	1239	1	!	-1	0	0	0	0	0	0	0	0	0	0	0	0	0	0	0	0	0	0	0	0	0	0	0	0	0	0	0
121818	13:47:04	13:55:09	483876	5.0.10.0	4_exp_AWA_CON_EVA_AMP	23	Rpleas_acq	Oppo	Rpleas	Amasked	CS_A	2pleas	distractor1	CONbeforeEVA	acq_US_pleas_masked	acq45_masked	4	26	400	1	300	300	0	0	438	50	0	1	0	0	0	1	blank2r.bmp	0	1	+	0	2	B2r.bmp	492	1	blank2r.bmp	786	1	DHJF	786	1	blank2r.bmp	866	6	sonnig	866	1	!	1239	1	!	1332	0	0	0	0	0	0	0	0	0	0	0	0	0	0	0	0	0	0	0	0	0	0	0	0	0	0	0
121818	13:47:04	13:55:11	486128	5.0.10.0	4_exp_AWA_CON_EVA_AMP	23	Rpleas_acq	Oppo	Rpleas	Amasked	CS_A	2pleas	distractor1	CONbeforeEVA	acq_US_pleas_masked	acq45_masked	4	27	400	1	300	300	0	0	456	50	0	1	0	0	0	1	blank2r.bmp	0	1	+	0	1	B1r.bmp	492	1	blank2r.bmp	786	1	DHJF	786	1	blank2r.bmp	866	2	vertrauen	866	1	!	1239	1	!	1359	0	0	0	0	0	0	0	0	0	0	0	0	0	0	0	0	0	0	0	0	0	0	0	0	0	0	0
121818	13:47:04	13:55:13	488328	5.0.10.0	4_exp_AWA_CON_EVA_AMP	23	Rpleas_acq	Oppo	Rpleas	Amasked	CS_A	2pleas	distractor1	CONbeforeEVA	acq_US_unple_masked	acq45_masked	4	28	400	1	300	300	0	0	395	46	0	1	0	0	0	1	blank2r.bmp	0	1	+	0	5	C1r.bmp	492	1	blank2r.bmp	786	1	CPLW	786	1	blank2r.bmp	866	1	töten	866	1	!	1239	1	!	1292	0	0	0	0	0	0	0	0	0	0	0	0	0	0	0	0	0	0	0	0	0	0	0	0	0	0	0
121818	13:47:04	13:55:15	490553	5.0.10.0	4_exp_AWA_CON_EVA_AMP	23	Rpleas_acq	Oppo	Rpleas	Amasked	CS_A	2pleas	distractor1	CONbeforeEVA	acq_US_unple_masked	acq45_masked	4	29	400	1	300	300	0	0	419	46	0	1	0	0	0	1	blank2r.bmp	0	1	+	0	8	C4r.bmp	492	1	blank2r.bmp	786	1	CPLW	786	1	blank2r.bmp	866	3	verbissen	866	1	!	1239	1	!	1319	0	0	0	0	0	0	0	0	0	0	0	0	0	0	0	0	0	0	0	0	0	0	0	0	0	0	0
121818	13:47:04	13:55:18	492912	5.0.10.0	4_exp_AWA_CON_EVA_AMP	23	Rpleas_acq	Oppo	Rpleas	Amasked	CS_A	2pleas	distractor1	CONbeforeEVA	acq_US_unple_masked	acq45_masked	4	30	400	0	300	300	0	0	590	46	0	1	0	0	0	1	blank2r.bmp	0	1	+	0	4	B4r.bmp	492	1	blank2r.bmp	786	1	CPLW	786	1	blank2r.bmp	866	5	krank	866	1	!	1239	1	!	-1	0	0	0	0	0	0	0	0	0	0	0	0	0	0	0	0	0	0	0	0	0	0	0	0	0	0	0
121818	13:47:04	13:55:20	495138	5.0.10.0	4_exp_AWA_CON_EVA_AMP	23	Rpleas_acq	Oppo	Rpleas	Amasked	CS_A	2pleas	distractor1	CONbeforeEVA	acq_US_unple_masked	acq45_masked	4	31	400	1	300	300	0	0	420	50	0	0	0	0	0	1	blank2r.bmp	0	1	+	0	1	B1r.bmp	492	1	blank2r.bmp	786	1	CPLW	786	1	blank2r.bmp	866	4	ausrottung	866	1	!	1239	1	!	1319	0	0	0	0	0	0	0	0	0	0	0	0	0	0	0	0	0	0	0	0	0	0	0	0	0	0	0
121818	13:47:04	13:55:22	497310	5.0.10.0	4_exp_AWA_CON_EVA_AMP	23	Rpleas_acq	Oppo	Rpleas	Amasked	CS_A	2pleas	distractor1	CONbeforeEVA	acq_US_unple_masked	acq45_masked	4	32	400	1	300	300	0	0	384	46	0	1	0	0	0	1	blank2r.bmp	0	1	+	0	5	C1r.bmp	492	1	blank2r.bmp	786	1	CPLW	786	1	blank2r.bmp	866	2	versagen	866	1	!	1239	1	!	1279	0	0	0	0	0	0	0	0	0	0	0	0	0	0	0	0	0	0	0	0	0	0	0	0	0	0	0
121818	13:47:04	13:55:24	499563	5.0.10.0	4_exp_AWA_CON_EVA_AMP	23	Rpleas_acq	Oppo	Rpleas	Amasked	CS_A	2pleas	distractor1	CONbeforeEVA	acq_US_pleas_masked	acq45_masked	4	33	400	1	300	300	0	0	456	50	0	1	0	0	0	1	blank2r.bmp	0	1	+	0	3	B3r.bmp	492	1	blank2r.bmp	786	1	DHJF	786	1	blank2r.bmp	866	4	anregung	866	1	!	1239	1	!	1359	0	0	0	0	0	0	0	0	0	0	0	0	0	0	0	0	0	0	0	0	0	0	0	0	0	0	0
121818	13:47:04	13:55:27	501815	5.0.10.0	4_exp_AWA_CON_EVA_AMP	23	Rpleas_acq	Oppo	Rpleas	Amasked	CS_A	2pleas	distractor1	CONbeforeEVA	acq_US_pleas_masked	acq45_masked	4	34	400	0	300	300	0	0	479	46	0	0	0	0	0	1	blank2r.bmp	0	1	+	0	6	C2r.bmp	492	1	blank2r.bmp	786	1	DHJF	786	1	blank2r.bmp	866	1	träumen	866	1	!	1239	1	!	-1	0	0	0	0	0	0	0	0	0	0	0	0	0	0	0	0	0	0	0	0	0	0	0	0	0	0	0
121818	13:47:04	13:55:29	504041	5.0.10.0	4_exp_AWA_CON_EVA_AMP	23	Rpleas_acq	Oppo	Rpleas	Amasked	CS_A	2pleas	distractor1	CONbeforeEVA	acq_US_pleas_masked	acq45_masked	4	35	400	1	300	300	0	0	414	50	0	1	0	0	0	1	blank2r.bmp	0	1	+	0	7	C3r.bmp	492	1	blank2r.bmp	786	1	DHJF	786	1	blank2r.bmp	866	5	kreativ	866	1	!	1239	1	!	1319	0	0	0	0	0	0	0	0	0	0	0	0	0	0	0	0	0	0	0	0	0	0	0	0	0	0	0
121818	13:47:04	13:55:31	506293	5.0.10.0	4_exp_AWA_CON_EVA_AMP	23	Rpleas_acq	Oppo	Rpleas	Amasked	CS_A	2pleas	distractor1	CONbeforeEVA	acq_US_unple_masked	acq45_masked	4	36	400	0	300	300	0	0	479	46	0	1	0	0	0	1	blank2r.bmp	0	1	+	0	2	B2r.bmp	492	1	blank2r.bmp	786	1	CPLW	786	1	blank2r.bmp	866	6	sterben	866	1	!	1239	1	!	-1	0	0	0	0	0	0	0	0	0	0	0	0	0	0	0	0	0	0	0	0	0	0	0	0	0	0	0
121818	13:47:04	13:55:42	516916	5.0.10.0	4_exp_AWA_CON_EVA_AMP	23	Rpleas_acq	Oppo	Rpleas	Amasked	CS_A	2pleas	distractor1	CONbeforeEVA	acq_US_unple_masked	acq45_masked	5	1	400	0	300	300	0	0	505	46	0	1	0	0	0	1	blank2r.bmp	0	1	+	0	3	B3r.bmp	492	1	blank2r.bmp	786	1	CPLW	786	1	blank2r.bmp	866	2	versagen	866	1	!	1239	1	!	-1	0	0	0	0	0	0	0	0	0	0	0	0	0	0	0	0	0	0	0	0	0	0	0	0	0	0	0
121818	13:47:04	13:55:44	519101	5.0.10.0	4_exp_AWA_CON_EVA_AMP	23	Rpleas_acq	Oppo	Rpleas	Amasked	CS_A	2pleas	distractor1	CONbeforeEVA	acq_US_unple_masked	acq45_masked	5	2	400	1	300	300	0	0	379	46	0	1	0	0	0	1	blank2r.bmp	0	1	+	0	7	C3r.bmp	492	1	blank2r.bmp	786	1	CPLW	786	1	blank2r.bmp	866	5	krank	866	1	!	1239	1	!	1279	0	0	0	0	0	0	0	0	0	0	0	0	0	0	0	0	0	0	0	0	0	0	0	0	0	0	0
121818	13:47:04	13:55:46	521287	5.0.10.0	4_exp_AWA_CON_EVA_AMP	23	Rpleas_acq	Oppo	Rpleas	Amasked	CS_A	2pleas	distractor1	CONbeforeEVA	acq_US_pleas_masked	acq45_masked	5	3	400	1	300	300	0	0	386	50	0	1	0	0	0	1	blank2r.bmp	0	1	+	0	4	B4r.bmp	492	1	blank2r.bmp	786	1	DHJF	786	1	blank2r.bmp	866	6	sonnig	866	1	!	1239	1	!	1292	0	0	0	0	0	0	0	0	0	0	0	0	0	0	0	0	0	0	0	0	0	0	0	0	0	0	0
121818	13:47:04	13:55:48	523539	5.0.10.0	4_exp_AWA_CON_EVA_AMP	23	Rpleas_acq	Oppo	Rpleas	Amasked	CS_A	2pleas	distractor1	CONbeforeEVA	acq_US_unple_masked	acq45_masked	5	4	400	1	300	300	0	0	463	46	0	1	0	0	0	1	blank2r.bmp	0	1	+	0	8	C4r.bmp	492	1	blank2r.bmp	786	1	CPLW	786	1	blank2r.bmp	866	6	sterben	866	1	!	1239	1	!	1359	0	0	0	0	0	0	0	0	0	0	0	0	0	0	0	0	0	0	0	0	0	0	0	0	0	0	0
121818	13:47:04	13:55:50	525792	5.0.10.0	4_exp_AWA_CON_EVA_AMP	23	Rpleas_acq	Oppo	Rpleas	Amasked	CS_A	2pleas	distractor1	CONbeforeEVA	acq_US_pleas_masked	acq45_masked	5	5	400	0	300	300	0	0	479	46	0	0	0	0	0	1	blank2r.bmp	0	1	+	0	6	C2r.bmp	492	1	blank2r.bmp	786	1	DHJF	786	1	blank2r.bmp	866	2	vertrauen	866	1	!	1239	1	!	-1	0	0	0	0	0	0	0	0	0	0	0	0	0	0	0	0	0	0	0	0	0	0	0	0	0	0	0
121818	13:47:04	13:55:53	527951	5.0.10.0	4_exp_AWA_CON_EVA_AMP	23	Rpleas_acq	Oppo	Rpleas	Amasked	CS_A	2pleas	distractor1	CONbeforeEVA	acq_US_unple_masked	acq45_masked	5	6	400	1	300	300	0	0	354	46	0	1	0	0	0	1	blank2r.bmp	0	1	+	0	1	B1r.bmp	492	1	blank2r.bmp	786	1	CPLW	786	1	blank2r.bmp	866	1	töten	866	1	!	1239	1	!	1252	0	0	0	0	0	0	0	0	0	0	0	0	0	0	0	0	0	0	0	0	0	0	0	0	0	0	0
121818	13:47:04	13:55:55	530203	5.0.10.0	4_exp_AWA_CON_EVA_AMP	23	Rpleas_acq	Oppo	Rpleas	Amasked	CS_A	2pleas	distractor1	CONbeforeEVA	acq_US_unple_masked	acq45_masked	5	7	400	0	300	300	0	0	479	46	0	1	0	0	0	1	blank2r.bmp	0	1	+	0	5	C1r.bmp	492	1	blank2r.bmp	786	1	CPLW	786	1	blank2r.bmp	866	4	ausrottung	866	1	!	1239	1	!	-1	0	0	0	0	0	0	0	0	0	0	0	0	0	0	0	0	0	0	0	0	0	0	0	0	0	0	0
121818	13:47:04	13:55:57	532376	5.0.10.0	4_exp_AWA_CON_EVA_AMP	23	Rpleas_acq	Oppo	Rpleas	Amasked	CS_A	2pleas	distractor1	CONbeforeEVA	acq_US_pleas_masked	acq45_masked	5	8	400	1	300	300	0	0	367	46	0	0	0	0	0	1	blank2r.bmp	0	1	+	0	2	B2r.bmp	492	1	blank2r.bmp	786	1	DHJF	786	1	blank2r.bmp	866	5	kreativ	866	1	!	1239	1	!	1266	0	0	0	0	0	0	0	0	0	0	0	0	0	0	0	0	0	0	0	0	0	0	0	0	0	0	0
121818	13:47:04	13:55:59	534548	5.0.10.0	4_exp_AWA_CON_EVA_AMP	23	Rpleas_acq	Oppo	Rpleas	Amasked	CS_A	2pleas	distractor1	CONbeforeEVA	acq_US_unple_masked	acq45_masked	5	9	400	1	300	300	0	0	373	46	0	1	0	0	0	1	blank2r.bmp	0	1	+	0	7	C3r.bmp	492	1	blank2r.bmp	786	1	CPLW	786	1	blank2r.bmp	866	3	verbissen	866	1	!	1239	1	!	1279	0	0	0	0	0	0	0	0	0	0	0	0	0	0	0	0	0	0	0	0	0	0	0	0	0	0	0
121818	13:47:04	13:56:02	536814	5.0.10.0	4_exp_AWA_CON_EVA_AMP	23	Rpleas_acq	Oppo	Rpleas	Amasked	CS_A	2pleas	distractor1	CONbeforeEVA	acq_US_pleas_masked	acq45_masked	5	10	400	0	300	300	0	0	498	50	0	1	0	0	0	1	blank2r.bmp	0	1	+	0	4	B4r.bmp	492	1	blank2r.bmp	786	1	DHJF	786	1	blank2r.bmp	866	4	anregung	866	1	!	1239	1	!	-1	0	0	0	0	0	0	0	0	0	0	0	0	0	0	0	0	0	0	0	0	0	0	0	0	0	0	0
121818	13:47:04	13:56:04	539053	5.0.10.0	4_exp_AWA_CON_EVA_AMP	23	Rpleas_acq	Oppo	Rpleas	Amasked	CS_A	2pleas	distractor1	CONbeforeEVA	acq_US_unple_masked	acq45_masked	5	11	400	1	300	300	0	0	414	46	0	1	0	0	0	1	blank2r.bmp	0	1	+	0	6	C2r.bmp	492	1	blank2r.bmp	786	1	CPLW	786	1	blank2r.bmp	866	5	krank	866	1	!	1239	1	!	1319	0	0	0	0	0	0	0	0	0	0	0	0	0	0	0	0	0	0	0	0	0	0	0	0	0	0	0
121818	13:47:04	13:56:06	541199	5.0.10.0	4_exp_AWA_CON_EVA_AMP	23	Rpleas_acq	Oppo	Rpleas	Amasked	CS_A	2pleas	distractor1	CONbeforeEVA	acq_US_pleas_masked	acq45_masked	5	12	400	1	300	300	0	0	346	50	0	1	0	0	0	1	blank2r.bmp	0	1	+	0	5	C1r.bmp	492	1	blank2r.bmp	786	1	DHJF	786	1	blank2r.bmp	866	1	träumen	866	1	!	1239	1	!	1252	0	0	0	0	0	0	0	0	0	0	0	0	0	0	0	0	0	0	0	0	0	0	0	0	0	0	0
121818	13:47:04	13:56:08	543438	5.0.10.0	4_exp_AWA_CON_EVA_AMP	23	Rpleas_acq	Oppo	Rpleas	Amasked	CS_A	2pleas	distractor1	CONbeforeEVA	acq_US_pleas_masked	acq45_masked	5	13	400	1	300	300	0	0	451	50	0	1	0	0	0	1	blank2r.bmp	0	1	+	0	3	B3r.bmp	492	1	blank2r.bmp	786	1	DHJF	786	1	blank2r.bmp	866	3	vergnügt	866	1	!	1239	1	!	1346	0	0	0	0	0	0	0	0	0	0	0	0	0	0	0	0	0	0	0	0	0	0	0	0	0	0	0
121818	13:47:04	13:56:10	545583	5.0.10.0	4_exp_AWA_CON_EVA_AMP	23	Rpleas_acq	Oppo	Rpleas	Amasked	CS_A	2pleas	distractor1	CONbeforeEVA	acq_US_pleas_masked	acq45_masked	5	14	400	1	300	300	0	0	347	50	0	1	0	0	0	1	blank2r.bmp	0	1	+	0	2	B2r.bmp	492	1	blank2r.bmp	786	1	DHJF	786	1	blank2r.bmp	866	2	vertrauen	866	1	!	1239	1	!	1252	0	0	0	0	0	0	0	0	0	0	0	0	0	0	0	0	0	0	0	0	0	0	0	0	0	0	0
121818	13:47:04	13:56:13	548209	5.0.10.0	4_exp_AWA_CON_EVA_AMP	23	Rpleas_acq	Oppo	Rpleas	Amasked	CS_A	2pleas	distractor1	CONbeforeEVA	acq_US_unple_masked	acq45_masked	5	15	400	0	300	300	0	0	858	46	0	1	0	0	0	1	blank2r.bmp	0	1	+	0	1	B1r.bmp	492	1	blank2r.bmp	786	1	CPLW	786	1	blank2r.bmp	866	3	verbissen	866	1	!	1239	1	!	-1	0	0	0	0	0	0	0	0	0	0	0	0	0	0	0	0	0	0	0	0	0	0	0	0	0	0	0
121818	13:47:04	13:56:15	550421	5.0.10.0	4_exp_AWA_CON_EVA_AMP	23	Rpleas_acq	Oppo	Rpleas	Amasked	CS_A	2pleas	distractor1	CONbeforeEVA	acq_US_pleas_masked	acq45_masked	5	16	400	1	300	300	0	0	411	50	0	1	0	0	0	1	blank2r.bmp	0	1	+	0	8	C4r.bmp	492	1	blank2r.bmp	786	1	DHJF	786	1	blank2r.bmp	866	3	vergnügt	866	1	!	1239	1	!	1306	0	0	0	0	0	0	0	0	0	0	0	0	0	0	0	0	0	0	0	0	0	0	0	0	0	0	0
121818	13:47:04	13:56:17	552607	5.0.10.0	4_exp_AWA_CON_EVA_AMP	23	Rpleas_acq	Oppo	Rpleas	Amasked	CS_A	2pleas	distractor1	CONbeforeEVA	acq_US_pleas_masked	acq45_masked	5	17	400	1	300	300	0	0	392	46	0	0	0	0	0	1	blank2r.bmp	0	1	+	0	7	C3r.bmp	492	1	blank2r.bmp	786	1	DHJF	786	1	blank2r.bmp	866	6	sonnig	866	1	!	1239	1	!	1292	0	0	0	0	0	0	0	0	0	0	0	0	0	0	0	0	0	0	0	0	0	0	0	0	0	0	0
121818	13:47:04	13:56:20	554833	5.0.10.0	4_exp_AWA_CON_EVA_AMP	23	Rpleas_acq	Oppo	Rpleas	Amasked	CS_A	2pleas	distractor1	CONbeforeEVA	acq_US_unple_masked	acq45_masked	5	18	400	1	300	300	0	0	431	46	0	1	0	0	0	1	blank2r.bmp	0	1	+	0	3	B3r.bmp	492	1	blank2r.bmp	786	1	CPLW	786	1	blank2r.bmp	866	4	ausrottung	866	1	!	1239	1	!	1332	0	0	0	0	0	0	0	0	0	0	0	0	0	0	0	0	0	0	0	0	0	0	0	0	0	0	0
121818	13:47:04	13:56:22	557045	5.0.10.0	4_exp_AWA_CON_EVA_AMP	23	Rpleas_acq	Oppo	Rpleas	Amasked	CS_A	2pleas	distractor1	CONbeforeEVA	acq_US_unple_masked	acq45_masked	5	19	400	1	300	300	0	0	417	50	0	0	0	0	0	1	blank2r.bmp	0	1	+	0	2	B2r.bmp	492	1	blank2r.bmp	786	1	CPLW	786	1	blank2r.bmp	866	1	töten	866	1	!	1239	1	!	1319	0	0	0	0	0	0	0	0	0	0	0	0	0	0	0	0	0	0	0	0	0	0	0	0	0	0	0
121818	13:47:04	13:56:24	559298	5.0.10.0	4_exp_AWA_CON_EVA_AMP	23	Rpleas_acq	Oppo	Rpleas	Amasked	CS_A	2pleas	distractor1	CONbeforeEVA	acq_US_unple_masked	acq45_masked	5	20	400	1	300	300	0	0	451	46	0	1	0	0	0	1	blank2r.bmp	0	1	+	0	5	C1r.bmp	492	1	blank2r.bmp	786	1	CPLW	786	1	blank2r.bmp	866	6	sterben	866	1	!	1239	1	!	1346	0	0	0	0	0	0	0	0	0	0	0	0	0	0	0	0	0	0	0	0	0	0	0	0	0	0	0
121818	13:47:04	13:56:26	561443	5.0.10.0	4_exp_AWA_CON_EVA_AMP	23	Rpleas_acq	Oppo	Rpleas	Amasked	CS_A	2pleas	distractor1	CONbeforeEVA	acq_US_pleas_masked	acq45_masked	5	21	400	1	300	300	0	0	347	50	0	1	0	0	0	1	blank2r.bmp	0	1	+	0	1	B1r.bmp	492	1	blank2r.bmp	786	1	DHJF	786	1	blank2r.bmp	866	1	träumen	866	1	!	1239	1	!	1252	0	0	0	0	0	0	0	0	0	0	0	0	0	0	0	0	0	0	0	0	0	0	0	0	0	0	0
121818	13:47:04	13:56:28	563629	5.0.10.0	4_exp_AWA_CON_EVA_AMP	23	Rpleas_acq	Oppo	Rpleas	Amasked	CS_A	2pleas	distractor1	CONbeforeEVA	acq_US_pleas_masked	acq45_masked	5	22	400	1	300	300	0	0	399	50	0	1	0	0	0	1	blank2r.bmp	0	1	+	0	8	C4r.bmp	492	1	blank2r.bmp	786	1	DHJF	786	1	blank2r.bmp	866	5	kreativ	866	1	!	1239	1	!	1292	0	0	0	0	0	0	0	0	0	0	0	0	0	0	0	0	0	0	0	0	0	0	0	0	0	0	0
121818	13:47:04	13:56:31	565908	5.0.10.0	4_exp_AWA_CON_EVA_AMP	23	Rpleas_acq	Oppo	Rpleas	Amasked	CS_A	2pleas	distractor1	CONbeforeEVA	acq_US_pleas_masked	acq45_masked	5	23	400	1	300	300	0	0	466	50	0	1	0	0	0	1	blank2r.bmp	0	1	+	0	6	C2r.bmp	492	1	blank2r.bmp	786	1	DHJF	786	1	blank2r.bmp	866	4	anregung	866	1	!	1239	1	!	1372	0	0	0	0	0	0	0	0	0	0	0	0	0	0	0	0	0	0	0	0	0	0	0	0	0	0	0
121818	13:47:04	13:56:33	568081	5.0.10.0	4_exp_AWA_CON_EVA_AMP	23	Rpleas_acq	Oppo	Rpleas	Amasked	CS_A	2pleas	distractor1	CONbeforeEVA	acq_US_unple_masked	acq45_masked	5	24	400	1	300	300	0	0	384	46	0	1	0	0	0	1	blank2r.bmp	0	1	+	0	4	B4r.bmp	492	1	blank2r.bmp	786	1	CPLW	786	1	blank2r.bmp	866	2	versagen	866	1	!	1239	1	!	1279	0	0	0	0	0	0	0	0	0	0	0	0	0	0	0	0	0	0	0	0	0	0	0	0	0	0	0
121818	13:47:04	13:56:35	570333	5.0.10.0	4_exp_AWA_CON_EVA_AMP	23	Rpleas_acq	Oppo	Rpleas	Amasked	CS_A	2pleas	distractor1	CONbeforeEVA	acq_US_pleas_masked	acq45_masked	5	25	400	1	300	300	0	0	454	50	0	1	0	0	0	1	blank2r.bmp	0	1	+	0	1	B1r.bmp	492	1	blank2r.bmp	786	1	DHJF	786	1	blank2r.bmp	866	1	träumen	866	1	!	1239	1	!	1359	0	0	0	0	0	0	0	0	0	0	0	0	0	0	0	0	0	0	0	0	0	0	0	0	0	0	0
121818	13:47:04	13:56:37	572505	5.0.10.0	4_exp_AWA_CON_EVA_AMP	23	Rpleas_acq	Oppo	Rpleas	Amasked	CS_A	2pleas	distractor1	CONbeforeEVA	acq_US_unple_masked	acq45_masked	5	26	400	1	300	300	0	0	385	46	0	1	0	0	0	1	blank2r.bmp	0	1	+	0	7	C3r.bmp	492	1	blank2r.bmp	786	1	CPLW	786	1	blank2r.bmp	866	1	töten	866	1	!	1239	1	!	1279	0	0	0	0	0	0	0	0	0	0	0	0	0	0	0	0	0	0	0	0	0	0	0	0	0	0	0
121818	13:47:04	13:56:39	574785	5.0.10.0	4_exp_AWA_CON_EVA_AMP	23	Rpleas_acq	Oppo	Rpleas	Amasked	CS_A	2pleas	distractor1	CONbeforeEVA	acq_US_pleas_masked	acq45_masked	5	27	400	0	300	300	0	0	503	50	0	1	0	0	0	1	blank2r.bmp	0	1	+	0	5	C1r.bmp	492	1	blank2r.bmp	786	1	DHJF	786	1	blank2r.bmp	866	2	vertrauen	866	1	!	1239	1	!	-1	0	0	0	0	0	0	0	0	0	0	0	0	0	0	0	0	0	0	0	0	0	0	0	0	0	0	0
121818	13:47:04	13:56:42	577010	5.0.10.0	4_exp_AWA_CON_EVA_AMP	23	Rpleas_acq	Oppo	Rpleas	Amasked	CS_A	2pleas	distractor1	CONbeforeEVA	acq_US_pleas_masked	acq45_masked	5	28	400	1	300	300	0	0	402	46	0	0	0	0	0	1	blank2r.bmp	0	1	+	0	8	C4r.bmp	492	1	blank2r.bmp	786	1	DHJF	786	1	blank2r.bmp	866	6	sonnig	866	1	!	1239	1	!	1306	0	0	0	0	0	0	0	0	0	0	0	0	0	0	0	0	0	0	0	0	0	0	0	0	0	0	0
121818	13:47:04	13:56:44	579276	5.0.10.0	4_exp_AWA_CON_EVA_AMP	23	Rpleas_acq	Oppo	Rpleas	Amasked	CS_A	2pleas	distractor1	CONbeforeEVA	acq_US_unple_masked	acq45_masked	5	29	400	0	300	300	0	0	497	46	0	1	0	0	0	1	blank2r.bmp	0	1	+	0	2	B2r.bmp	492	1	blank2r.bmp	786	1	CPLW	786	1	blank2r.bmp	866	4	ausrottung	866	1	!	1239	1	!	-1	0	0	0	0	0	0	0	0	0	0	0	0	0	0	0	0	0	0	0	0	0	0	0	0	0	0	0
121818	13:47:04	13:56:46	581435	5.0.10.0	4_exp_AWA_CON_EVA_AMP	23	Rpleas_acq	Oppo	Rpleas	Amasked	CS_A	2pleas	distractor1	CONbeforeEVA	acq_US_pleas_masked	acq45_masked	5	30	400	1	300	300	0	0	346	50	0	1	0	0	0	1	blank2r.bmp	0	1	+	0	3	B3r.bmp	492	1	blank2r.bmp	786	1	DHJF	786	1	blank2r.bmp	866	4	anregung	866	1	!	1239	1	!	1252	0	0	0	0	0	0	0	0	0	0	0	0	0	0	0	0	0	0	0	0	0	0	0	0	0	0	0
121818	13:47:04	13:56:48	583674	5.0.10.0	4_exp_AWA_CON_EVA_AMP	23	Rpleas_acq	Oppo	Rpleas	Amasked	CS_A	2pleas	distractor1	CONbeforeEVA	acq_US_unple_masked	acq45_masked	5	31	400	1	300	300	0	0	442	46	0	1	0	0	0	1	blank2r.bmp	0	1	+	0	4	B4r.bmp	492	1	blank2r.bmp	786	1	CPLW	786	1	blank2r.bmp	866	5	krank	866	1	!	1239	1	!	1346	0	0	0	0	0	0	0	0	0	0	0	0	0	0	0	0	0	0	0	0	0	0	0	0	0	0	0
121818	13:47:04	13:56:51	585873	5.0.10.0	4_exp_AWA_CON_EVA_AMP	23	Rpleas_acq	Oppo	Rpleas	Amasked	CS_A	2pleas	distractor1	CONbeforeEVA	acq_US_pleas_masked	acq45_masked	5	32	400	1	300	300	0	0	388	50	0	1	0	0	0	1	blank2r.bmp	0	1	+	0	6	C2r.bmp	492	1	blank2r.bmp	786	1	DHJF	786	1	blank2r.bmp	866	5	kreativ	866	1	!	1239	1	!	1292	0	0	0	0	0	0	0	0	0	0	0	0	0	0	0	0	0	0	0	0	0	0	0	0	0	0	0
121818	13:47:04	13:56:53	588072	5.0.10.0	4_exp_AWA_CON_EVA_AMP	23	Rpleas_acq	Oppo	Rpleas	Amasked	CS_A	2pleas	distractor1	CONbeforeEVA	acq_US_unple_masked	acq45_masked	5	33	400	1	300	300	0	0	391	50	0	0	0	0	0	1	blank2r.bmp	0	1	+	0	8	C4r.bmp	492	1	blank2r.bmp	786	1	CPLW	786	1	blank2r.bmp	866	2	versagen	866	1	!	1239	1	!	1292	0	0	0	0	0	0	0	0	0	0	0	0	0	0	0	0	0	0	0	0	0	0	0	0	0	0	0
121818	13:47:04	13:56:55	590338	5.0.10.0	4_exp_AWA_CON_EVA_AMP	23	Rpleas_acq	Oppo	Rpleas	Amasked	CS_A	2pleas	distractor1	CONbeforeEVA	acq_US_unple_masked	acq45_masked	5	34	400	0	300	300	0	0	500	46	0	1	0	0	0	1	blank2r.bmp	0	1	+	0	5	C1r.bmp	492	1	blank2r.bmp	786	1	CPLW	786	1	blank2r.bmp	866	6	sterben	866	1	!	1239	1	!	-1	0	0	0	0	0	0	0	0	0	0	0	0	0	0	0	0	0	0	0	0	0	0	0	0	0	0	0
121818	13:47:04	13:56:57	592590	5.0.10.0	4_exp_AWA_CON_EVA_AMP	23	Rpleas_acq	Oppo	Rpleas	Amasked	CS_A	2pleas	distractor1	CONbeforeEVA	acq_US_pleas_masked	acq45_masked	5	35	400	1	300	300	0	0	438	50	0	1	0	0	0	1	blank2r.bmp	0	1	+	0	4	B4r.bmp	492	1	blank2r.bmp	786	1	DHJF	786	1	blank2r.bmp	866	3	vergnügt	866	1	!	1239	1	!	1332	0	0	0	0	0	0	0	0	0	0	0	0	0	0	0	0	0	0	0	0	0	0	0	0	0	0	0
121818	13:47:04	13:56:59	594750	5.0.10.0	4_exp_AWA_CON_EVA_AMP	23	Rpleas_acq	Oppo	Rpleas	Amasked	CS_A	2pleas	distractor1	CONbeforeEVA	acq_US_unple_masked	acq45_masked	5	36	400	1	300	300	0	0	371	46	0	1	0	0	0	1	blank2r.bmp	0	1	+	0	7	C3r.bmp	492	1	blank2r.bmp	786	1	CPLW	786	1	blank2r.bmp	866	3	verbissen	866	1	!	1239	1	!	1266	0	0	0	0	0	0	0	0	0	0	0	0	0	0	0	0	0	0	0	0	0	0	0	0	0	0	0
121818	13:47:04	13:59:12	727374	5.0.10.0	4_exp_AWA_CON_EVA_AMP	23	Rpleas_acq	Oppo	Lpleas	Amasked	CS_A	2pleas	distractor1	CONbeforeEVA	cond_US_unple_123_masked_CS1	condtest_masked_1	8	1	400	0	300	300	0	0	519	46	0	0	0	0	0	1	blank2r.bmp	0	1	+	0	3	B3r.bmp	492	1	blank2r.bmp	786	1	CPLW	786	1	blank2r.bmp	866	2	versagen	866	1	!	1239	1	!	-1	0	0	0	0	0	0	0	0	0	0	0	0	0	0	0	0	0	0	0	0	0	0	0	0	0	0	0
121818	13:47:04	13:59:14	729786	5.0.10.0	4_exp_AWA_CON_EVA_AMP	23	Rpleas_acq	Oppo	Lpleas	Amasked	CS_A	2pleas	distractor1	CONbeforeEVA	cond_new_pleas_456_masked_CS2	condtest_masked_1	8	2	400	0	300	300	0	0	638	50	0	0	0	0	0	1	blank2r.bmp	0	1	+	0	1	B1r.bmp	492	1	blank2r.bmp	786	1	DHJF	786	1	blank2r.bmp	866	1	kuss	866	1	!	1239	1	!	-1	0	0	0	0	0	0	0	0	0	0	0	0	0	0	0	0	0	0	0	0	0	0	0	0	0	0	0
121818	13:47:04	13:59:19	733918	5.0.10.0	4_exp_AWA_CON_EVA_AMP	23	Rpleas_acq	Oppo	Lpleas	Amasked	CS_A	2pleas	distractor1	CONbeforeEVA	cond_US_pleas_123_masked_CS2	condtest_masked_1	8	3	400	0	300	300	0	0	2342	46	0	1	0	0	0	1	blank2r.bmp	0	1	+	0	6	C2r.bmp	492	1	blank2r.bmp	786	1	DHJF	786	1	blank2r.bmp	866	3	vergnügt	866	1	!	1239	1	!	-1	0	0	0	0	0	0	0	0	0	0	0	0	0	0	0	0	0	0	0	0	0	0	0	0	0	0	0
121818	13:47:04	13:59:21	736383	5.0.10.0	4_exp_AWA_CON_EVA_AMP	23	Rpleas_acq	Oppo	Lpleas	Amasked	CS_A	2pleas	distractor1	CONbeforeEVA	cond_new_unple_456_masked_CS1	condtest_masked_1	8	4	400	0	300	300	0	0	680	50	0	1	0	0	0	1	blank2r.bmp	0	1	+	0	2	B2r.bmp	492	1	blank2r.bmp	786	1	CPLW	786	1	blank2r.bmp	866	1	krise	866	1	!	1239	1	!	-1	0	0	0	0	0	0	0	0	0	0	0	0	0	0	0	0	0	0	0	0	0	0	0	0	0	0	0
121818	13:47:04	13:59:23	738636	5.0.10.0	4_exp_AWA_CON_EVA_AMP	23	Rpleas_acq	Oppo	Lpleas	Amasked	CS_A	2pleas	distractor1	CONbeforeEVA	cond_new_pleas_456_masked_CS1	condtest_masked_1	8	5	400	1	300	300	0	0	449	46	0	1	0	0	0	1	blank2r.bmp	0	1	+	0	7	C3r.bmp	492	1	blank2r.bmp	786	1	CPLW	786	1	blank2r.bmp	866	2	besonnen	866	1	!	1239	1	!	1346	0	0	0	0	0	0	0	0	0	0	0	0	0	0	0	0	0	0	0	0	0	0	0	0	0	0	0
121818	13:47:04	13:59:26	740915	5.0.10.0	4_exp_AWA_CON_EVA_AMP	23	Rpleas_acq	Oppo	Lpleas	Amasked	CS_A	2pleas	distractor1	CONbeforeEVA	cond_US_unple_123_masked_CS2	condtest_masked_1	8	6	400	0	300	300	0	0	516	46	0	0	0	0	0	1	blank2r.bmp	0	1	+	0	1	B1r.bmp	492	1	blank2r.bmp	786	1	DHJF	786	1	blank2r.bmp	866	3	verbissen	866	1	!	1239	1	!	-1	0	0	0	0	0	0	0	0	0	0	0	0	0	0	0	0	0	0	0	0	0	0	0	0	0	0	0
121818	13:47:04	13:59:28	743194	5.0.10.0	4_exp_AWA_CON_EVA_AMP	23	Rpleas_acq	Oppo	Lpleas	Amasked	CS_A	2pleas	distractor1	CONbeforeEVA	cond_new_unple_456_masked_CS2	condtest_masked_1	8	7	400	1	300	300	0	0	466	50	0	1	0	0	0	1	blank2r.bmp	0	1	+	0	3	B3r.bmp	492	1	blank2r.bmp	786	1	DHJF	786	1	blank2r.bmp	866	2	bange	866	1	!	1239	1	!	1372	0	0	0	0	0	0	0	0	0	0	0	0	0	0	0	0	0	0	0	0	0	0	0	0	0	0	0
121818	13:47:04	13:59:30	745553	5.0.10.0	4_exp_AWA_CON_EVA_AMP	23	Rpleas_acq	Oppo	Lpleas	Amasked	CS_A	2pleas	distractor1	CONbeforeEVA	cond_US_pleas_123_masked_CS1	condtest_masked_1	8	8	400	0	300	300	0	0	598	46	0	1	0	0	0	1	blank2r.bmp	0	1	+	0	5	C1r.bmp	492	1	blank2r.bmp	786	1	CPLW	786	1	blank2r.bmp	866	1	träumen	866	1	!	1239	1	!	-1	0	0	0	0	0	0	0	0	0	0	0	0	0	0	0	0	0	0	0	0	0	0	0	0	0	0	0
121818	13:47:04	13:59:43	758307	5.0.10.0	4_exp_AWA_CON_EVA_AMP	23	Rpleas_acq	Oppo	Lpleas	Amasked	CS_A	2pleas	distractor1	CONbeforeEVA	cond_US_unple_123_masked_CS1	condtest_masked_2	9	1	400	0	300	300	0	0	508	50	0	1	0	0	0	1	blank2r.bmp	0	1	+	0	8	C4r.bmp	492	1	blank2r.bmp	786	1	CPLW	786	1	blank2r.bmp	866	1	töten	866	1	!	1239	1	!	-1	0	0	0	0	0	0	0	0	0	0	0	0	0	0	0	0	0	0	0	0	0	0	0	0	0	0	0
121818	13:47:04	13:59:45	760613	5.0.10.0	4_exp_AWA_CON_EVA_AMP	23	Rpleas_acq	Oppo	Lpleas	Amasked	CS_A	2pleas	distractor1	CONbeforeEVA	cond_new_pleas_456_masked_CS1	condtest_masked_2	9	2	400	0	300	300	0	0	531	46	0	1	0	0	0	1	blank2r.bmp	0	1	+	0	4	B4r.bmp	492	1	blank2r.bmp	786	1	CPLW	786	1	blank2r.bmp	866	3	gesittet	866	1	!	1239	1	!	-1	0	0	0	0	0	0	0	0	0	0	0	0	0	0	0	0	0	0	0	0	0	0	0	0	0	0	0
121818	13:47:04	13:59:48	762972	5.0.10.0	4_exp_AWA_CON_EVA_AMP	23	Rpleas_acq	Oppo	Lpleas	Amasked	CS_A	2pleas	distractor1	CONbeforeEVA	cond_new_unple_456_masked_CS2	condtest_masked_2	9	3	400	0	300	300	0	0	576	46	0	0	0	0	0	1	blank2r.bmp	0	1	+	0	2	B2r.bmp	492	1	blank2r.bmp	786	1	DHJF	786	1	blank2r.bmp	866	3	geizig	866	1	!	1239	1	!	-1	0	0	0	0	0	0	0	0	0	0	0	0	0	0	0	0	0	0	0	0	0	0	0	0	0	0	0
121818	13:47:04	13:59:50	765225	5.0.10.0	4_exp_AWA_CON_EVA_AMP	23	Rpleas_acq	Oppo	Lpleas	Amasked	CS_A	2pleas	distractor1	CONbeforeEVA	cond_US_pleas_123_masked_CS1	condtest_masked_2	9	4	400	1	300	300	0	0	448	50	0	0	0	0	0	1	blank2r.bmp	0	1	+	0	6	C2r.bmp	492	1	blank2r.bmp	786	1	CPLW	786	1	blank2r.bmp	866	2	vertrauen	866	1	!	1239	1	!	1346	0	0	0	0	0	0	0	0	0	0	0	0	0	0	0	0	0	0	0	0	0	0	0	0	0	0	0
121818	13:47:04	13:59:52	767570	5.0.10.0	4_exp_AWA_CON_EVA_AMP	23	Rpleas_acq	Oppo	Lpleas	Amasked	CS_A	2pleas	distractor1	CONbeforeEVA	cond_new_pleas_456_masked_CS2	condtest_masked_2	9	5	400	0	300	300	0	0	577	46	0	1	0	0	0	1	blank2r.bmp	0	1	+	0	8	C4r.bmp	492	1	blank2r.bmp	786	1	DHJF	786	1	blank2r.bmp	866	2	besonnen	866	1	!	1239	1	!	-1	0	0	0	0	0	0	0	0	0	0	0	0	0	0	0	0	0	0	0	0	0	0	0	0	0	0	0
121818	13:47:04	13:59:54	769796	5.0.10.0	4_exp_AWA_CON_EVA_AMP	23	Rpleas_acq	Oppo	Lpleas	Amasked	CS_A	2pleas	distractor1	CONbeforeEVA	cond_new_unple_456_masked_CS1	condtest_masked_2	9	6	400	1	300	300	0	0	425	50	0	1	0	0	0	1	blank2r.bmp	0	1	+	0	6	C2r.bmp	492	1	blank2r.bmp	786	1	CPLW	786	1	blank2r.bmp	866	3	geizig	866	1	!	1239	1	!	1319	0	0	0	0	0	0	0	0	0	0	0	0	0	0	0	0	0	0	0	0	0	0	0	0	0	0	0
121818	13:47:04	13:59:57	772035	5.0.10.0	4_exp_AWA_CON_EVA_AMP	23	Rpleas_acq	Oppo	Lpleas	Amasked	CS_A	2pleas	distractor1	CONbeforeEVA	cond_US_pleas_123_masked_CS1	condtest_masked_2	9	7	400	1	300	300	0	0	431	46	0	1	0	0	0	1	blank2r.bmp	0	1	+	0	7	C3r.bmp	492	1	blank2r.bmp	786	1	CPLW	786	1	blank2r.bmp	866	1	träumen	866	1	!	1239	1	!	1332	0	0	0	0	0	0	0	0	0	0	0	0	0	0	0	0	0	0	0	0	0	0	0	0	0	0	0
121818	13:47:04	13:59:59	774234	5.0.10.0	4_exp_AWA_CON_EVA_AMP	23	Rpleas_acq	Oppo	Lpleas	Amasked	CS_A	2pleas	distractor1	CONbeforeEVA	cond_US_unple_123_masked_CS2	condtest_masked_2	9	8	400	1	300	300	0	0	408	50	0	1	0	0	0	1	blank2r.bmp	0	1	+	0	5	C1r.bmp	492	1	blank2r.bmp	786	1	DHJF	786	1	blank2r.bmp	866	1	töten	866	1	!	1239	1	!	1306	0	0	0	0	0	0	0	0	0	0	0	0	0	0	0	0	0	0	0	0	0	0	0	0	0	0	0
121818	13:47:04	14:00:01	776433	5.0.10.0	4_exp_AWA_CON_EVA_AMP	23	Rpleas_acq	Oppo	Lpleas	Amasked	CS_A	2pleas	distractor1	CONbeforeEVA	cond_new_unple_456_masked_CS1	condtest_masked_2	9	9	400	1	300	300	0	0	401	46	0	0	0	0	0	1	blank2r.bmp	0	1	+	0	1	B1r.bmp	492	1	blank2r.bmp	786	1	CPLW	786	1	blank2r.bmp	866	2	bange	866	1	!	1239	1	!	1306	0	0	0	0	0	0	0	0	0	0	0	0	0	0	0	0	0	0	0	0	0	0	0	0	0	0	0
121818	13:47:04	14:00:03	778686	5.0.10.0	4_exp_AWA_CON_EVA_AMP	23	Rpleas_acq	Oppo	Lpleas	Amasked	CS_A	2pleas	distractor1	CONbeforeEVA	cond_US_unple_123_masked_CS2	condtest_masked_2	9	10	400	0	300	300	0	0	481	50	0	1	0	0	0	1	blank2r.bmp	0	1	+	0	2	B2r.bmp	492	1	blank2r.bmp	786	1	DHJF	786	1	blank2r.bmp	866	3	verbissen	866	1	!	1239	1	!	-1	0	0	0	0	0	0	0	0	0	0	0	0	0	0	0	0	0	0	0	0	0	0	0	0	0	0	0
121818	13:47:04	14:00:06	780858	5.0.10.0	4_exp_AWA_CON_EVA_AMP	23	Rpleas_acq	Oppo	Lpleas	Amasked	CS_A	2pleas	distractor1	CONbeforeEVA	cond_US_pleas_123_masked_CS2	condtest_masked_2	9	11	400	1	300	300	0	0	371	46	0	1	0	0	0	1	blank2r.bmp	0	1	+	0	4	B4r.bmp	492	1	blank2r.bmp	786	1	DHJF	786	1	blank2r.bmp	866	3	vergnügt	866	1	!	1239	1	!	1266	0	0	0	0	0	0	0	0	0	0	0	0	0	0	0	0	0	0	0	0	0	0	0	0	0	0	0
121818	13:47:04	14:00:08	783084	5.0.10.0	4_exp_AWA_CON_EVA_AMP	23	Rpleas_acq	Oppo	Lpleas	Amasked	CS_A	2pleas	distractor1	CONbeforeEVA	cond_new_unple_456_masked_CS1	condtest_masked_2	9	12	400	1	300	300	0	0	422	50	0	1	0	0	0	1	blank2r.bmp	0	1	+	0	3	B3r.bmp	492	1	blank2r.bmp	786	1	CPLW	786	1	blank2r.bmp	866	1	krise	866	1	!	1239	1	!	1319	0	0	0	0	0	0	0	0	0	0	0	0	0	0	0	0	0	0	0	0	0	0	0	0	0	0	0
121818	13:47:04	14:00:10	785296	5.0.10.0	4_exp_AWA_CON_EVA_AMP	23	Rpleas_acq	Oppo	Lpleas	Amasked	CS_A	2pleas	distractor1	CONbeforeEVA	cond_US_pleas_123_masked_CS2	condtest_masked_2	9	13	400	1	300	300	0	0	414	46	0	1	0	0	0	1	blank2r.bmp	0	1	+	0	8	C4r.bmp	492	1	blank2r.bmp	786	1	DHJF	786	1	blank2r.bmp	866	2	vertrauen	866	1	!	1239	1	!	1319	0	0	0	0	0	0	0	0	0	0	0	0	0	0	0	0	0	0	0	0	0	0	0	0	0	0	0
121818	13:47:04	14:00:13	787922	5.0.10.0	4_exp_AWA_CON_EVA_AMP	23	Rpleas_acq	Oppo	Lpleas	Amasked	CS_A	2pleas	distractor1	CONbeforeEVA	cond_US_unple_123_masked_CS1	condtest_masked_2	9	14	400	0	300	300	0	0	855	50	0	1	0	0	0	1	blank2r.bmp	0	1	+	0	4	B4r.bmp	492	1	blank2r.bmp	786	1	CPLW	786	1	blank2r.bmp	866	2	versagen	866	1	!	1239	1	!	-1	0	0	0	0	0	0	0	0	0	0	0	0	0	0	0	0	0	0	0	0	0	0	0	0	0	0	0
121818	13:47:04	14:00:15	790187	5.0.10.0	4_exp_AWA_CON_EVA_AMP	23	Rpleas_acq	Oppo	Lpleas	Amasked	CS_A	2pleas	distractor1	CONbeforeEVA	cond_new_pleas_456_masked_CS2	condtest_masked_2	9	15	400	0	300	300	0	0	485	46	0	1	0	0	0	1	blank2r.bmp	0	1	+	0	3	B3r.bmp	492	1	blank2r.bmp	786	1	DHJF	786	1	blank2r.bmp	866	1	kuss	866	1	!	1239	1	!	-1	0	0	0	0	0	0	0	0	0	0	0	0	0	0	0	0	0	0	0	0	0	0	0	0	0	0	0
121818	13:47:04	14:00:19	794146	5.0.10.0	4_exp_AWA_CON_EVA_AMP	23	Rpleas_acq	Oppo	Lpleas	Amasked	CS_A	2pleas	distractor1	CONbeforeEVA	cond_new_pleas_456_masked_CS1	condtest_masked_2	9	16	400	0	300	300	0	0	2182	46	0	1	0	0	0	1	blank2r.bmp	0	1	+	0	5	C1r.bmp	492	1	blank2r.bmp	786	1	CPLW	786	1	blank2r.bmp	866	3	gesittet	866	1	!	1239	1	!	-1	0	0	0	0	0	0	0	0	0	0	0	0	0	0	0	0	0	0	0	0	0	0	0	0	0	0	0
121818	13:47:04	14:00:21	796558	5.0.10.0	4_exp_AWA_CON_EVA_AMP	23	Rpleas_acq	Oppo	Lpleas	Amasked	CS_A	2pleas	distractor1	CONbeforeEVA	cond_new_pleas_456_masked_CS2	condtest_masked_2	9	17	400	0	300	300	0	0	629	46	0	1	0	0	0	1	blank2r.bmp	0	1	+	0	2	B2r.bmp	492	1	blank2r.bmp	786	1	DHJF	786	1	blank2r.bmp	866	2	besonnen	866	1	!	1239	1	!	-1	0	0	0	0	0	0	0	0	0	0	0	0	0	0	0	0	0	0	0	0	0	0	0	0	0	0	0
121818	13:47:04	14:00:23	798770	5.0.10.0	4_exp_AWA_CON_EVA_AMP	23	Rpleas_acq	Oppo	Lpleas	Amasked	CS_A	2pleas	distractor1	CONbeforeEVA	cond_new_unple_456_masked_CS1	condtest_masked_2	9	18	400	1	300	300	0	0	409	50	0	1	0	0	0	1	blank2r.bmp	0	1	+	0	1	B1r.bmp	492	1	blank2r.bmp	786	1	CPLW	786	1	blank2r.bmp	866	1	krise	866	1	!	1239	1	!	1306	0	0	0	0	0	0	0	0	0	0	0	0	0	0	0	0	0	0	0	0	0	0	0	0	0	0	0
121818	13:47:04	14:00:26	800943	5.0.10.0	4_exp_AWA_CON_EVA_AMP	23	Rpleas_acq	Oppo	Lpleas	Amasked	CS_A	2pleas	distractor1	CONbeforeEVA	cond_new_unple_456_masked_CS2	condtest_masked_2	9	19	400	1	300	300	0	0	378	46	0	0	0	0	0	1	blank2r.bmp	0	1	+	0	7	C3r.bmp	492	1	blank2r.bmp	786	1	DHJF	786	1	blank2r.bmp	866	2	bange	866	1	!	1239	1	!	1279	0	0	0	0	0	0	0	0	0	0	0	0	0	0	0	0	0	0	0	0	0	0	0	0	0	0	0
121818	13:47:04	14:00:28	803315	5.0.10.0	4_exp_AWA_CON_EVA_AMP	23	Rpleas_acq	Oppo	Lpleas	Amasked	CS_A	2pleas	distractor1	CONbeforeEVA	cond_US_pleas_123_masked_CS1	condtest_masked_2	9	20	400	0	300	300	0	0	600	46	0	1	0	0	0	1	blank2r.bmp	0	1	+	0	6	C2r.bmp	492	1	blank2r.bmp	786	1	CPLW	786	1	blank2r.bmp	866	3	vergnügt	866	1	!	1239	1	!	-1	0	0	0	0	0	0	0	0	0	0	0	0	0	0	0	0	0	0	0	0	0	0	0	0	0	0	0
121818	13:47:04	14:00:30	805514	5.0.10.0	4_exp_AWA_CON_EVA_AMP	23	Rpleas_acq	Oppo	Lpleas	Amasked	CS_A	2pleas	distractor1	CONbeforeEVA	cond_US_unple_123_masked_CS2	condtest_masked_2	9	21	400	1	300	300	0	0	387	50	0	1	0	0	0	1	blank2r.bmp	0	1	+	0	7	C3r.bmp	492	1	blank2r.bmp	786	1	DHJF	786	1	blank2r.bmp	866	1	töten	866	1	!	1239	1	!	1292	0	0	0	0	0	0	0	0	0	0	0	0	0	0	0	0	0	0	0	0	0	0	0	0	0	0	0
121818	13:47:04	14:00:33	807913	5.0.10.0	4_exp_AWA_CON_EVA_AMP	23	Rpleas_acq	Oppo	Lpleas	Amasked	CS_A	2pleas	distractor1	CONbeforeEVA	cond_US_unple_123_masked_CS2	condtest_masked_2	9	22	400	0	300	300	0	0	628	50	0	1	0	0	0	1	blank2r.bmp	0	1	+	0	8	C4r.bmp	492	1	blank2r.bmp	786	1	DHJF	786	1	blank2r.bmp	866	3	verbissen	866	1	!	1239	1	!	-1	0	0	0	0	0	0	0	0	0	0	0	0	0	0	0	0	0	0	0	0	0	0	0	0	0	0	0
121818	13:47:04	14:00:35	810179	5.0.10.0	4_exp_AWA_CON_EVA_AMP	23	Rpleas_acq	Oppo	Lpleas	Amasked	CS_A	2pleas	distractor1	CONbeforeEVA	cond_new_unple_456_masked_CS2	condtest_masked_2	9	23	400	0	300	300	0	0	481	46	0	0	0	0	0	1	blank2r.bmp	0	1	+	0	1	B1r.bmp	492	1	blank2r.bmp	786	1	DHJF	786	1	blank2r.bmp	866	3	geizig	866	1	!	1239	1	!	-1	0	0	0	0	0	0	0	0	0	0	0	0	0	0	0	0	0	0	0	0	0	0	0	0	0	0	0
121818	13:47:04	14:00:37	812498	5.0.10.0	4_exp_AWA_CON_EVA_AMP	23	Rpleas_acq	Oppo	Lpleas	Amasked	CS_A	2pleas	distractor1	CONbeforeEVA	cond_new_pleas_456_masked_CS2	condtest_masked_2	9	24	400	0	300	300	0	0	534	46	0	1	0	0	0	1	blank2r.bmp	0	1	+	0	6	C2r.bmp	492	1	blank2r.bmp	786	1	DHJF	786	1	blank2r.bmp	866	1	kuss	866	1	!	1239	1	!	-1	0	0	0	0	0	0	0	0	0	0	0	0	0	0	0	0	0	0	0	0	0	0	0	0	0	0	0
121818	13:47:04	14:00:39	814724	5.0.10.0	4_exp_AWA_CON_EVA_AMP	23	Rpleas_acq	Oppo	Lpleas	Amasked	CS_A	2pleas	distractor1	CONbeforeEVA	cond_US_pleas_123_masked_CS1	condtest_masked_2	9	25	400	1	300	300	0	0	413	50	0	0	0	0	0	1	blank2r.bmp	0	1	+	0	2	B2r.bmp	492	1	blank2r.bmp	786	1	CPLW	786	1	blank2r.bmp	866	1	träumen	866	1	!	1239	1	!	1319	0	0	0	0	0	0	0	0	0	0	0	0	0	0	0	0	0	0	0	0	0	0	0	0	0	0	0
121818	13:47:04	14:00:42	817163	5.0.10.0	4_exp_AWA_CON_EVA_AMP	23	Rpleas_acq	Oppo	Lpleas	Amasked	CS_A	2pleas	distractor1	CONbeforeEVA	cond_US_unple_123_masked_CS2	condtest_masked_2	9	26	400	0	300	300	0	0	677	50	0	1	0	0	0	1	blank2r.bmp	0	1	+	0	5	C1r.bmp	492	1	blank2r.bmp	786	1	DHJF	786	1	blank2r.bmp	866	2	versagen	866	1	!	1239	1	!	-1	0	0	0	0	0	0	0	0	0	0	0	0	0	0	0	0	0	0	0	0	0	0	0	0	0	0	0
121818	13:47:04	14:00:44	819575	5.0.10.0	4_exp_AWA_CON_EVA_AMP	23	Rpleas_acq	Oppo	Lpleas	Amasked	CS_A	2pleas	distractor1	CONbeforeEVA	cond_US_pleas_123_masked_CS2	condtest_masked_2	9	27	400	0	300	300	0	0	633	46	0	1	0	0	0	1	blank2r.bmp	0	1	+	0	4	B4r.bmp	492	1	blank2r.bmp	786	1	DHJF	786	1	blank2r.bmp	866	2	vertrauen	866	1	!	1239	1	!	-1	0	0	0	0	0	0	0	0	0	0	0	0	0	0	0	0	0	0	0	0	0	0	0	0	0	0	0
121818	13:47:04	14:00:47	822001	5.0.10.0	4_exp_AWA_CON_EVA_AMP	23	Rpleas_acq	Oppo	Lpleas	Amasked	CS_A	2pleas	distractor1	CONbeforeEVA	cond_new_unple_456_masked_CS2	condtest_masked_2	9	28	400	0	300	300	0	0	638	50	0	1	0	0	0	1	blank2r.bmp	0	1	+	0	3	B3r.bmp	492	1	blank2r.bmp	786	1	DHJF	786	1	blank2r.bmp	866	3	geizig	866	1	!	1239	1	!	-1	0	0	0	0	0	0	0	0	0	0	0	0	0	0	0	0	0	0	0	0	0	0	0	0	0	0	0
121818	13:47:04	14:00:49	824200	5.0.10.0	4_exp_AWA_CON_EVA_AMP	23	Rpleas_acq	Oppo	Lpleas	Amasked	CS_A	2pleas	distractor1	CONbeforeEVA	cond_US_pleas_123_masked_CS2	condtest_masked_2	9	29	400	1	300	300	0	0	387	46	0	1	0	0	0	1	blank2r.bmp	0	1	+	0	5	C1r.bmp	492	1	blank2r.bmp	786	1	DHJF	786	1	blank2r.bmp	866	2	vertrauen	866	1	!	1239	1	!	1292	0	0	0	0	0	0	0	0	0	0	0	0	0	0	0	0	0	0	0	0	0	0	0	0	0	0	0
121818	13:47:04	14:00:51	826545	5.0.10.0	4_exp_AWA_CON_EVA_AMP	23	Rpleas_acq	Oppo	Lpleas	Amasked	CS_A	2pleas	distractor1	CONbeforeEVA	cond_US_pleas_123_masked_CS1	condtest_masked_2	9	30	400	0	300	300	0	0	576	46	0	1	0	0	0	1	blank2r.bmp	0	1	+	0	2	B2r.bmp	492	1	blank2r.bmp	786	1	CPLW	786	1	blank2r.bmp	866	1	träumen	866	1	!	1239	1	!	-1	0	0	0	0	0	0	0	0	0	0	0	0	0	0	0	0	0	0	0	0	0	0	0	0	0	0	0
121818	13:47:04	14:00:53	828705	5.0.10.0	4_exp_AWA_CON_EVA_AMP	23	Rpleas_acq	Oppo	Lpleas	Amasked	CS_A	2pleas	distractor1	CONbeforeEVA	cond_US_unple_123_masked_CS1	condtest_masked_2	9	31	400	1	300	300	0	0	346	50	0	1	0	0	0	1	blank2r.bmp	0	1	+	0	3	B3r.bmp	492	1	blank2r.bmp	786	1	CPLW	786	1	blank2r.bmp	866	3	verbissen	866	1	!	1239	1	!	1252	0	0	0	0	0	0	0	0	0	0	0	0	0	0	0	0	0	0	0	0	0	0	0	0	0	0	0
121818	13:47:04	14:00:56	830957	5.0.10.0	4_exp_AWA_CON_EVA_AMP	23	Rpleas_acq	Oppo	Lpleas	Amasked	CS_A	2pleas	distractor1	CONbeforeEVA	cond_new_pleas_456_masked_CS1	condtest_masked_2	9	32	400	0	300	300	0	0	488	46	0	1	0	0	0	1	blank2r.bmp	0	1	+	0	7	C3r.bmp	492	1	blank2r.bmp	786	1	CPLW	786	1	blank2r.bmp	866	3	gesittet	866	1	!	1239	1	!	-1	0	0	0	0	0	0	0	0	0	0	0	0	0	0	0	0	0	0	0	0	0	0	0	0	0	0	0
121818	13:47:04	14:00:58	833143	5.0.10.0	4_exp_AWA_CON_EVA_AMP	23	Rpleas_acq	Oppo	Lpleas	Amasked	CS_A	2pleas	distractor1	CONbeforeEVA	cond_new_pleas_456_masked_CS1	condtest_masked_2	9	33	400	1	300	300	0	0	372	46	0	1	0	0	0	1	blank2r.bmp	0	1	+	0	1	B1r.bmp	492	1	blank2r.bmp	786	1	CPLW	786	1	blank2r.bmp	866	3	gesittet	866	1	!	1239	1	!	1279	0	0	0	0	0	0	0	0	0	0	0	0	0	0	0	0	0	0	0	0	0	0	0	0	0	0	0
121818	13:47:04	14:01:00	835328	5.0.10.0	4_exp_AWA_CON_EVA_AMP	23	Rpleas_acq	Oppo	Lpleas	Amasked	CS_A	2pleas	distractor1	CONbeforeEVA	cond_new_unple_456_masked_CS2	condtest_masked_2	9	34	400	1	300	300	0	0	396	50	0	1	0	0	0	1	blank2r.bmp	0	1	+	0	6	C2r.bmp	492	1	blank2r.bmp	786	1	DHJF	786	1	blank2r.bmp	866	2	bange	866	1	!	1239	1	!	1292	0	0	0	0	0	0	0	0	0	0	0	0	0	0	0	0	0	0	0	0	0	0	0	0	0	0	0
121818	13:47:04	14:01:03	837967	5.0.10.0	4_exp_AWA_CON_EVA_AMP	23	Rpleas_acq	Oppo	Lpleas	Amasked	CS_A	2pleas	distractor1	CONbeforeEVA	cond_US_unple_123_masked_CS1	condtest_masked_2	9	35	400	0	300	300	0	0	871	50	0	1	0	0	0	1	blank2r.bmp	0	1	+	0	4	B4r.bmp	492	1	blank2r.bmp	786	1	CPLW	786	1	blank2r.bmp	866	1	töten	866	1	!	1239	1	!	-1	0	0	0	0	0	0	0	0	0	0	0	0	0	0	0	0	0	0	0	0	0	0	0	0	0	0	0
121818	13:47:04	14:01:05	840233	5.0.10.0	4_exp_AWA_CON_EVA_AMP	23	Rpleas_acq	Oppo	Lpleas	Amasked	CS_A	2pleas	distractor1	CONbeforeEVA	cond_new_pleas_456_masked_CS2	condtest_masked_2	9	36	400	1	300	300	0	0	462	46	0	1	0	0	0	1	blank2r.bmp	0	1	+	0	8	C4r.bmp	492	1	blank2r.bmp	786	1	DHJF	786	1	blank2r.bmp	866	2	besonnen	866	1	!	1239	1	!	1359	0	0	0	0	0	0	0	0	0	0	0	0	0	0	0	0	0	0	0	0	0	0	0	0	0	0	0
121818	13:47:04	14:01:07	842445	5.0.10.0	4_exp_AWA_CON_EVA_AMP	23	Rpleas_acq	Oppo	Lpleas	Amasked	CS_A	2pleas	distractor1	CONbeforeEVA	cond_new_unple_456_masked_CS1	condtest_masked_2	9	37	400	1	300	300	0	0	416	50	0	1	0	0	0	1	blank2r.bmp	0	1	+	0	1	B1r.bmp	492	1	blank2r.bmp	786	1	CPLW	786	1	blank2r.bmp	866	1	krise	866	1	!	1239	1	!	1319	0	0	0	0	0	0	0	0	0	0	0	0	0	0	0	0	0	0	0	0	0	0	0	0	0	0	0
121818	13:47:04	14:01:09	844711	5.0.10.0	4_exp_AWA_CON_EVA_AMP	23	Rpleas_acq	Oppo	Lpleas	Amasked	CS_A	2pleas	distractor1	CONbeforeEVA	cond_US_unple_123_masked_CS1	condtest_masked_2	9	38	400	1	300	300	0	0	453	46	0	0	0	0	0	1	blank2r.bmp	0	1	+	0	6	C2r.bmp	492	1	blank2r.bmp	786	1	CPLW	786	1	blank2r.bmp	866	2	versagen	866	1	!	1239	1	!	1359	0	0	0	0	0	0	0	0	0	0	0	0	0	0	0	0	0	0	0	0	0	0	0	0	0	0	0
121818	13:47:04	14:01:12	846964	5.0.10.0	4_exp_AWA_CON_EVA_AMP	23	Rpleas_acq	Oppo	Lpleas	Amasked	CS_A	2pleas	distractor1	CONbeforeEVA	cond_US_pleas_123_masked_CS2	condtest_masked_2	9	39	400	0	300	300	0	0	481	46	0	1	0	0	0	1	blank2r.bmp	0	1	+	0	7	C3r.bmp	492	1	blank2r.bmp	786	1	DHJF	786	1	blank2r.bmp	866	3	vergnügt	866	1	!	1239	1	!	-1	0	0	0	0	0	0	0	0	0	0	0	0	0	0	0	0	0	0	0	0	0	0	0	0	0	0	0
121818	13:47:04	14:01:14	849069	5.0.10.0	4_exp_AWA_CON_EVA_AMP	23	Rpleas_acq	Oppo	Lpleas	Amasked	CS_A	2pleas	distractor1	CONbeforeEVA	cond_new_pleas_456_masked_CS1	condtest_masked_2	9	40	400	0	300	300	0	0	326	50	0	0	0	0	0	1	blank2r.bmp	0	1	+	0	4	B4r.bmp	492	1	blank2r.bmp	786	1	CPLW	786	1	blank2r.bmp	866	1	kuss	866	1	!	-1	1	!	-1	0	0	0	0	0	0	0	0	0	0	0	0	0	0	0	0	0	0	0	0	0	0	0	0	0	0	0
121818	13:47:04	14:01:30	864943	5.0.10.0	4_exp_AWA_CON_EVA_AMP	23	Rpleas_acq	Oppo	Lpleas	Amasked	CS_A	2pleas	distractor1	CONbeforeEVA	cond_new_pleas_123_masked_CS1	condtest_masked_3	10	1	400	1	300	300	0	0	434	46	0	1	0	0	0	1	blank2r.bmp	0	1	+	0	8	C4r.bmp	492	1	blank2r.bmp	786	1	CPLW	786	1	blank2r.bmp	866	1	engagiert	866	1	!	1239	1	!	1332	0	0	0	0	0	0	0	0	0	0	0	0	0	0	0	0	0	0	0	0	0	0	0	0	0	0	0
121818	13:47:04	14:01:32	867155	5.0.10.0	4_exp_AWA_CON_EVA_AMP	23	Rpleas_acq	Oppo	Lpleas	Amasked	CS_A	2pleas	distractor1	CONbeforeEVA	cond_US_pleas_456_masked_CS2	condtest_masked_3	10	2	400	1	300	300	0	0	422	46	0	1	0	0	0	1	blank2r.bmp	0	1	+	0	2	B2r.bmp	492	1	blank2r.bmp	786	1	DHJF	786	1	blank2r.bmp	866	1	anregung	866	1	!	1239	1	!	1319	0	0	0	0	0	0	0	0	0	0	0	0	0	0	0	0	0	0	0	0	0	0	0	0	0	0	0
121818	13:47:04	14:01:34	869381	5.0.10.0	4_exp_AWA_CON_EVA_AMP	23	Rpleas_acq	Oppo	Lpleas	Amasked	CS_A	2pleas	distractor1	CONbeforeEVA	cond_new_unple_123_masked_CS1	condtest_masked_3	10	3	400	1	300	300	0	0	417	46	0	0	0	0	0	1	blank2r.bmp	0	1	+	0	5	C1r.bmp	492	1	blank2r.bmp	786	1	CPLW	786	1	blank2r.bmp	866	1	engstirnig	866	1	!	1239	1	!	1319	0	0	0	0	0	0	0	0	0	0	0	0	0	0	0	0	0	0	0	0	0	0	0	0	0	0	0
121818	13:47:04	14:01:36	871647	5.0.10.0	4_exp_AWA_CON_EVA_AMP	23	Rpleas_acq	Oppo	Lpleas	Amasked	CS_A	2pleas	distractor1	CONbeforeEVA	cond_US_pleas_456_masked_CS2	condtest_masked_3	10	4	400	1	300	300	0	0	466	46	0	1	0	0	0	1	blank2r.bmp	0	1	+	0	3	B3r.bmp	492	1	blank2r.bmp	786	1	DHJF	786	1	blank2r.bmp	866	2	kreativ	866	1	!	1239	1	!	1372	0	0	0	0	0	0	0	0	0	0	0	0	0	0	0	0	0	0	0	0	0	0	0	0	0	0	0
121818	13:47:04	14:01:39	873846	5.0.10.0	4_exp_AWA_CON_EVA_AMP	23	Rpleas_acq	Oppo	Lpleas	Amasked	CS_A	2pleas	distractor1	CONbeforeEVA	cond_US_unple_456_masked_CS1	condtest_masked_3	10	5	400	1	300	300	0	0	405	50	0	1	0	0	0	1	blank2r.bmp	0	1	+	0	7	C3r.bmp	492	1	blank2r.bmp	786	1	CPLW	786	1	blank2r.bmp	866	1	ausrottung	866	1	!	1239	1	!	1306	0	0	0	0	0	0	0	0	0	0	0	0	0	0	0	0	0	0	0	0	0	0	0	0	0	0	0
121818	13:47:04	14:01:41	876125	5.0.10.0	4_exp_AWA_CON_EVA_AMP	23	Rpleas_acq	Oppo	Lpleas	Amasked	CS_A	2pleas	distractor1	CONbeforeEVA	cond_US_pleas_456_masked_CS1	condtest_masked_3	10	6	400	0	300	300	0	0	509	46	0	1	0	0	0	1	blank2r.bmp	0	1	+	0	5	C1r.bmp	492	1	blank2r.bmp	786	1	CPLW	786	1	blank2r.bmp	866	3	sonnig	866	1	!	1239	1	!	-1	0	0	0	0	0	0	0	0	0	0	0	0	0	0	0	0	0	0	0	0	0	0	0	0	0	0	0
121818	13:47:04	14:01:43	878470	5.0.10.0	4_exp_AWA_CON_EVA_AMP	23	Rpleas_acq	Oppo	Lpleas	Amasked	CS_A	2pleas	distractor1	CONbeforeEVA	cond_US_unple_456_masked_CS1	condtest_masked_3	10	7	400	0	300	300	0	0	571	50	0	1	0	0	0	1	blank2r.bmp	0	1	+	0	6	C2r.bmp	492	1	blank2r.bmp	786	1	CPLW	786	1	blank2r.bmp	866	3	sterben	866	1	!	1239	1	!	-1	0	0	0	0	0	0	0	0	0	0	0	0	0	0	0	0	0	0	0	0	0	0	0	0	0	0	0
121818	13:47:04	14:01:45	880669	5.0.10.0	4_exp_AWA_CON_EVA_AMP	23	Rpleas_acq	Oppo	Lpleas	Amasked	CS_A	2pleas	distractor1	CONbeforeEVA	cond_new_unple_123_masked_CS2	condtest_masked_3	10	8	400	1	300	300	0	0	395	46	0	0	0	0	0	1	blank2r.bmp	0	1	+	0	3	B3r.bmp	492	1	blank2r.bmp	786	1	DHJF	786	1	blank2r.bmp	866	3	gemein	866	1	!	1239	1	!	1292	0	0	0	0	0	0	0	0	0	0	0	0	0	0	0	0	0	0	0	0	0	0	0	0	0	0	0
121818	13:47:04	14:01:48	882842	5.0.10.0	4_exp_AWA_CON_EVA_AMP	23	Rpleas_acq	Oppo	Lpleas	Amasked	CS_A	2pleas	distractor1	CONbeforeEVA	cond_US_unple_456_masked_CS2	condtest_masked_3	10	9	400	1	300	300	0	0	384	50	0	1	0	0	0	1	blank2r.bmp	0	1	+	0	8	C4r.bmp	492	1	blank2r.bmp	786	1	DHJF	786	1	blank2r.bmp	866	2	krank	866	1	!	1239	1	!	1279	0	0	0	0	0	0	0	0	0	0	0	0	0	0	0	0	0	0	0	0	0	0	0	0	0	0	0
121818	13:47:04	14:01:50	885094	5.0.10.0	4_exp_AWA_CON_EVA_AMP	23	Rpleas_acq	Oppo	Lpleas	Amasked	CS_A	2pleas	distractor1	CONbeforeEVA	cond_US_unple_456_masked_CS2	condtest_masked_3	10	10	400	0	300	300	0	0	479	50	0	1	0	0	0	1	blank2r.bmp	0	1	+	0	1	B1r.bmp	492	1	blank2r.bmp	786	1	DHJF	786	1	blank2r.bmp	866	1	ausrottung	866	1	!	1239	1	!	-1	0	0	0	0	0	0	0	0	0	0	0	0	0	0	0	0	0	0	0	0	0	0	0	0	0	0	0
121818	13:47:04	14:01:52	887600	5.0.10.0	4_exp_AWA_CON_EVA_AMP	23	Rpleas_acq	Oppo	Lpleas	Amasked	CS_A	2pleas	distractor1	CONbeforeEVA	cond_US_unple_456_masked_CS2	condtest_masked_3	10	11	400	0	300	300	0	0	729	50	0	1	0	0	0	1	blank2r.bmp	0	1	+	0	2	B2r.bmp	492	1	blank2r.bmp	786	1	DHJF	786	1	blank2r.bmp	866	2	krank	866	1	!	1239	1	!	-1	0	0	0	0	0	0	0	0	0	0	0	0	0	0	0	0	0	0	0	0	0	0	0	0	0	0	0
121818	13:47:04	14:01:54	889692	5.0.10.0	4_exp_AWA_CON_EVA_AMP	23	Rpleas_acq	Oppo	Lpleas	Amasked	CS_A	2pleas	distractor1	CONbeforeEVA	cond_new_pleas_123_masked_CS1	condtest_masked_3	10	12	400	0	300	300	0	0	317	46	0	1	0	0	0	1	blank2r.bmp	0	1	+	0	4	B4r.bmp	492	1	blank2r.bmp	786	1	CPLW	786	1	blank2r.bmp	866	2	gütig	866	1	!	-1	1	!	-1	0	0	0	0	0	0	0	0	0	0	0	0	0	0	0	0	0	0	0	0	0	0	0	0	0	0	0
121818	13:47:04	14:01:57	891958	5.0.10.0	4_exp_AWA_CON_EVA_AMP	23	Rpleas_acq	Oppo	Lpleas	Amasked	CS_A	2pleas	distractor1	CONbeforeEVA	cond_new_pleas_123_masked_CS1	condtest_masked_3	10	13	400	0	300	300	0	0	481	46	0	1	0	0	0	1	blank2r.bmp	0	1	+	0	5	C1r.bmp	492	1	blank2r.bmp	786	1	CPLW	786	1	blank2r.bmp	866	3	genießen	866	1	!	1239	1	!	-1	0	0	0	0	0	0	0	0	0	0	0	0	0	0	0	0	0	0	0	0	0	0	0	0	0	0	0
121818	13:47:04	14:01:59	894224	5.0.10.0	4_exp_AWA_CON_EVA_AMP	23	Rpleas_acq	Oppo	Lpleas	Amasked	CS_A	2pleas	distractor1	CONbeforeEVA	cond_US_pleas_456_masked_CS2	condtest_masked_3	10	14	400	1	300	300	0	0	456	50	0	0	0	0	0	1	blank2r.bmp	0	1	+	0	8	C4r.bmp	492	1	blank2r.bmp	786	1	DHJF	786	1	blank2r.bmp	866	1	anregung	866	1	!	1239	1	!	1359	0	0	0	0	0	0	0	0	0	0	0	0	0	0	0	0	0	0	0	0	0	0	0	0	0	0	0
121818	13:47:04	14:02:01	896383	5.0.10.0	4_exp_AWA_CON_EVA_AMP	23	Rpleas_acq	Oppo	Lpleas	Amasked	CS_A	2pleas	distractor1	CONbeforeEVA	cond_new_unple_123_masked_CS2	condtest_masked_3	10	15	400	1	300	300	0	0	368	46	0	0	0	0	0	1	blank2r.bmp	0	1	+	0	6	C2r.bmp	492	1	blank2r.bmp	786	1	DHJF	786	1	blank2r.bmp	866	2	gierig	866	1	!	1239	1	!	1266	0	0	0	0	0	0	0	0	0	0	0	0	0	0	0	0	0	0	0	0	0	0	0	0	0	0	0
121818	13:47:04	14:02:03	898649	5.0.10.0	4_exp_AWA_CON_EVA_AMP	23	Rpleas_acq	Oppo	Lpleas	Amasked	CS_A	2pleas	distractor1	CONbeforeEVA	cond_US_pleas_456_masked_CS2	condtest_masked_3	10	16	400	0	300	300	0	0	498	46	0	1	0	0	0	1	blank2r.bmp	0	1	+	0	2	B2r.bmp	492	1	blank2r.bmp	786	1	DHJF	786	1	blank2r.bmp	866	2	kreativ	866	1	!	1239	1	!	-1	0	0	0	0	0	0	0	0	0	0	0	0	0	0	0	0	0	0	0	0	0	0	0	0	0	0	0
121818	13:47:04	14:02:06	900901	5.0.10.0	4_exp_AWA_CON_EVA_AMP	23	Rpleas_acq	Oppo	Lpleas	Amasked	CS_A	2pleas	distractor1	CONbeforeEVA	cond_US_unple_456_masked_CS2	condtest_masked_3	10	17	400	1	300	300	0	0	443	50	0	1	0	0	0	1	blank2r.bmp	0	1	+	0	3	B3r.bmp	492	1	blank2r.bmp	786	1	DHJF	786	1	blank2r.bmp	866	3	sterben	866	1	!	1239	1	!	1346	0	0	0	0	0	0	0	0	0	0	0	0	0	0	0	0	0	0	0	0	0	0	0	0	0	0	0
121818	13:47:04	14:02:08	903100	5.0.10.0	4_exp_AWA_CON_EVA_AMP	23	Rpleas_acq	Oppo	Lpleas	Amasked	CS_A	2pleas	distractor1	CONbeforeEVA	cond_new_unple_123_masked_CS2	condtest_masked_3	10	18	400	1	300	300	0	0	399	46	0	0	0	0	0	1	blank2r.bmp	0	1	+	0	1	B1r.bmp	492	1	blank2r.bmp	786	1	DHJF	786	1	blank2r.bmp	866	2	gierig	866	1	!	1239	1	!	1306	0	0	0	0	0	0	0	0	0	0	0	0	0	0	0	0	0	0	0	0	0	0	0	0	0	0	0
121818	13:47:04	14:02:10	905446	5.0.10.0	4_exp_AWA_CON_EVA_AMP	23	Rpleas_acq	Oppo	Lpleas	Amasked	CS_A	2pleas	distractor1	CONbeforeEVA	cond_US_unple_456_masked_CS1	condtest_masked_3	10	19	400	0	300	300	0	0	580	50	0	1	0	0	0	1	blank2r.bmp	0	1	+	0	7	C3r.bmp	492	1	blank2r.bmp	786	1	CPLW	786	1	blank2r.bmp	866	1	ausrottung	866	1	!	1239	1	!	-1	0	0	0	0	0	0	0	0	0	0	0	0	0	0	0	0	0	0	0	0	0	0	0	0	0	0	0
121818	13:47:04	14:02:12	907631	5.0.10.0	4_exp_AWA_CON_EVA_AMP	23	Rpleas_acq	Oppo	Lpleas	Amasked	CS_A	2pleas	distractor1	CONbeforeEVA	cond_new_unple_123_masked_CS1	condtest_masked_3	10	20	400	1	300	300	0	0	376	46	0	0	0	0	0	1	blank2r.bmp	0	1	+	0	4	B4r.bmp	492	1	blank2r.bmp	786	1	CPLW	786	1	blank2r.bmp	866	1	engstirnig	866	1	!	1239	1	!	1279	0	0	0	0	0	0	0	0	0	0	0	0	0	0	0	0	0	0	0	0	0	0	0	0	0	0	0
121818	13:47:04	14:02:15	909897	5.0.10.0	4_exp_AWA_CON_EVA_AMP	23	Rpleas_acq	Oppo	Lpleas	Amasked	CS_A	2pleas	distractor1	CONbeforeEVA	cond_new_pleas_123_masked_CS2	condtest_masked_3	10	21	400	1	300	300	0	0	466	46	0	1	0	0	0	1	blank2r.bmp	0	1	+	0	5	C1r.bmp	492	1	blank2r.bmp	786	1	DHJF	786	1	blank2r.bmp	866	3	genießen	866	1	!	1239	1	!	1372	0	0	0	0	0	0	0	0	0	0	0	0	0	0	0	0	0	0	0	0	0	0	0	0	0	0	0
121818	13:47:04	14:02:17	912056	5.0.10.0	4_exp_AWA_CON_EVA_AMP	23	Rpleas_acq	Oppo	Lpleas	Amasked	CS_A	2pleas	distractor1	CONbeforeEVA	cond_new_unple_123_masked_CS2	condtest_masked_3	10	22	400	1	300	300	0	0	362	50	0	1	0	0	0	1	blank2r.bmp	0	1	+	0	1	B1r.bmp	492	1	blank2r.bmp	786	1	DHJF	786	1	blank2r.bmp	866	3	gemein	866	1	!	1239	1	!	1266	0	0	0	0	0	0	0	0	0	0	0	0	0	0	0	0	0	0	0	0	0	0	0	0	0	0	0
121818	13:47:04	14:02:19	914282	5.0.10.0	4_exp_AWA_CON_EVA_AMP	23	Rpleas_acq	Oppo	Lpleas	Amasked	CS_A	2pleas	distractor1	CONbeforeEVA	cond_new_pleas_123_masked_CS2	condtest_masked_3	10	23	400	1	300	300	0	0	428	46	0	1	0	0	0	1	blank2r.bmp	0	1	+	0	4	B4r.bmp	492	1	blank2r.bmp	786	1	DHJF	786	1	blank2r.bmp	866	1	engagiert	866	1	!	1239	1	!	1332	0	0	0	0	0	0	0	0	0	0	0	0	0	0	0	0	0	0	0	0	0	0	0	0	0	0	0
121818	13:47:04	14:02:21	916454	5.0.10.0	4_exp_AWA_CON_EVA_AMP	23	Rpleas_acq	Oppo	Lpleas	Amasked	CS_A	2pleas	distractor1	CONbeforeEVA	cond_new_pleas_123_masked_CS2	condtest_masked_3	10	24	400	1	300	300	0	0	369	50	0	0	0	0	0	1	blank2r.bmp	0	1	+	0	7	C3r.bmp	492	1	blank2r.bmp	786	1	DHJF	786	1	blank2r.bmp	866	2	gütig	866	1	!	1239	1	!	1266	0	0	0	0	0	0	0	0	0	0	0	0	0	0	0	0	0	0	0	0	0	0	0	0	0	0	0
121818	13:47:04	14:02:23	918507	5.0.10.0	4_exp_AWA_CON_EVA_AMP	23	Rpleas_acq	Oppo	Lpleas	Amasked	CS_A	2pleas	distractor1	CONbeforeEVA	cond_new_unple_123_masked_CS1	condtest_masked_3	10	25	400	0	300	300	0	0	286	50	0	1	0	0	0	1	blank2r.bmp	0	1	+	0	3	B3r.bmp	492	1	blank2r.bmp	786	1	CPLW	786	1	blank2r.bmp	866	2	gierig	866	1	!	-1	1	!	-1	0	0	0	0	0	0	0	0	0	0	0	0	0	0	0	0	0	0	0	0	0	0	0	0	0	0	0
121818	13:47:04	14:02:25	920706	5.0.10.0	4_exp_AWA_CON_EVA_AMP	23	Rpleas_acq	Oppo	Lpleas	Amasked	CS_A	2pleas	distractor1	CONbeforeEVA	cond_US_pleas_456_masked_CS2	condtest_masked_3	10	26	400	1	300	300	0	0	396	46	0	1	0	0	0	1	blank2r.bmp	0	1	+	0	6	C2r.bmp	492	1	blank2r.bmp	786	1	DHJF	786	1	blank2r.bmp	866	3	sonnig	866	1	!	1239	1	!	1292	0	0	0	0	0	0	0	0	0	0	0	0	0	0	0	0	0	0	0	0	0	0	0	0	0	0	0
121818	13:47:04	14:02:28	922945	5.0.10.0	4_exp_AWA_CON_EVA_AMP	23	Rpleas_acq	Oppo	Lpleas	Amasked	CS_A	2pleas	distractor1	CONbeforeEVA	cond_new_unple_123_masked_CS2	condtest_masked_3	10	27	400	1	300	300	0	0	446	50	0	1	0	0	0	1	blank2r.bmp	0	1	+	0	8	C4r.bmp	492	1	blank2r.bmp	786	1	DHJF	786	1	blank2r.bmp	866	3	gemein	866	1	!	1239	1	!	1346	0	0	0	0	0	0	0	0	0	0	0	0	0	0	0	0	0	0	0	0	0	0	0	0	0	0	0
121818	13:47:04	14:02:30	925157	5.0.10.0	4_exp_AWA_CON_EVA_AMP	23	Rpleas_acq	Oppo	Lpleas	Amasked	CS_A	2pleas	distractor1	CONbeforeEVA	cond_US_unple_456_masked_CS2	condtest_masked_3	10	28	400	1	300	300	0	0	416	50	0	1	0	0	0	1	blank2r.bmp	0	1	+	0	2	B2r.bmp	492	1	blank2r.bmp	786	1	DHJF	786	1	blank2r.bmp	866	3	sterben	866	1	!	1239	1	!	1319	0	0	0	0	0	0	0	0	0	0	0	0	0	0	0	0	0	0	0	0	0	0	0	0	0	0	0
121818	13:47:04	14:02:32	927343	5.0.10.0	4_exp_AWA_CON_EVA_AMP	23	Rpleas_acq	Oppo	Lpleas	Amasked	CS_A	2pleas	distractor1	CONbeforeEVA	cond_new_unple_123_masked_CS1	condtest_masked_3	10	29	400	1	300	300	0	0	379	46	0	0	0	0	0	1	blank2r.bmp	0	1	+	0	7	C3r.bmp	492	1	blank2r.bmp	786	1	CPLW	786	1	blank2r.bmp	866	1	engstirnig	866	1	!	1239	1	!	1279	0	0	0	0	0	0	0	0	0	0	0	0	0	0	0	0	0	0	0	0	0	0	0	0	0	0	0
121818	13:47:04	14:02:34	929489	5.0.10.0	4_exp_AWA_CON_EVA_AMP	23	Rpleas_acq	Oppo	Lpleas	Amasked	CS_A	2pleas	distractor1	CONbeforeEVA	cond_new_pleas_123_masked_CS1	condtest_masked_3	10	30	400	1	300	300	0	0	358	46	0	1	0	0	0	1	blank2r.bmp	0	1	+	0	3	B3r.bmp	492	1	blank2r.bmp	786	1	CPLW	786	1	blank2r.bmp	866	2	gütig	866	1	!	1239	1	!	1252	0	0	0	0	0	0	0	0	0	0	0	0	0	0	0	0	0	0	0	0	0	0	0	0	0	0	0
121818	13:47:04	14:02:36	931741	5.0.10.0	4_exp_AWA_CON_EVA_AMP	23	Rpleas_acq	Oppo	Lpleas	Amasked	CS_A	2pleas	distractor1	CONbeforeEVA	cond_new_pleas_123_masked_CS2	condtest_masked_3	10	31	400	1	300	300	0	0	455	46	0	1	0	0	0	1	blank2r.bmp	0	1	+	0	8	C4r.bmp	492	1	blank2r.bmp	786	1	DHJF	786	1	blank2r.bmp	866	3	genießen	866	1	!	1239	1	!	1359	0	0	0	0	0	0	0	0	0	0	0	0	0	0	0	0	0	0	0	0	0	0	0	0	0	0	0
